Sample:	'1
File name:	W2025090907-东管网进水.FD3
Run date:	'10:49:36, 09/11/2025
Operator:	Administrator
Comment:	'

Instrument
Model:	F-2700 FL Spectrophotometer
Serial number:	23C7-004
ROM Version:	4J14000 07

Instrument parameters
Measurement type:	3-D scan
Data mode:	Fluorescence
EX  Start WL:	220.0 nm
EX  End WL:	600.0 nm
EX Sampling interval:	5.0 nm
EM  Start WL:	230.0 nm
EM  End WL:	650.0 nm
EM Sampling interval:	5.0 nm
Scan speed:	12000 nm/min
EX Slit:	5.0 nm
EM Slit:	5.0 nm
PMT Voltage:	700 V
Response:	Auto 
Corrected spectra:	Off
Contour interval:	50.000

Peak integration
Integration method:	Rectangular
Sensitivity:	1
Threshold:	1.000

Peaks
No.	ApexEX/EM(nm)	Height(Data)
1	225.0/350.0	1696
2	225.0/365.0	1658
3	225.0/395.0	1693
4	225.0/410.0	1667
5	225.0/610.0	76.71
6	245.0/435.0	1374
7	270.0/595.0	108.7
8	275.0/610.0	103.4
9	280.0/345.0	2258
10	280.0/625.0	94.18
11	330.0/405.0	3653
12	570.0/345.0	10.98

Data points
	220.0	225.0	230.0	235.0	240.0	245.0	250.0	255.0	260.0	265.0	270.0	275.0	280.0	285.0	290.0	295.0	300.0	305.0	310.0	315.0	320.0	325.0	330.0	335.0	340.0	345.0	350.0	355.0	360.0	365.0	370.0	375.0	380.0	385.0	390.0	395.0	400.0	405.0	410.0	415.0	420.0	425.0	430.0	435.0	440.0	445.0	450.0	455.0	460.0	465.0	470.0	475.0	480.0	485.0	490.0	495.0	500.0	505.0	510.0	515.0	520.0	525.0	530.0	535.0	540.0	545.0	550.0	555.0	560.0	565.0	570.0	575.0	580.0	585.0	590.0	595.0	600.0
230.0	146.5	2351	2935	385.4	13.06	6.295	5.409	5.012	4.674	4.360	4.630	5.075	4.750	4.600	4.519	4.473	4.288	4.408	4.328	4.421	4.311	4.080	4.000	4.164	3.775	3.671	3.514	3.350	3.298	3.320	2.913	3.031	2.904	2.560	2.402	2.263	1.995	1.876	1.670	1.650	1.585	1.562	1.554	1.351	1.425	1.633	7.512	22.64	27.63	14.01	3.673	1.237	0.933	0.872	0.814	0.877	0.845	0.820	0.703	0.690	0.610	0.611	0.593	0.518	0.488	0.493	0.471	0.453	0.419	0.407	0.389	0.346	0.357	0.332	0.322	0.285	0.283
235.0	77.59	664.8	2853	3354	427.8	16.11	7.314	6.291	6.275	5.066	5.294	5.903	5.143	5.115	5.043	4.562	4.596	4.711	4.372	4.257	4.316	4.307	4.224	4.164	3.995	3.518	3.364	3.231	3.562	3.308	3.034	2.873	2.841	2.609	2.418	2.230	1.975	1.974	1.656	1.706	1.577	1.410	1.636	1.494	1.454	1.404	2.778	6.835	13.92	22.80	29.16	19.50	7.546	1.547	0.935	0.975	0.823	0.945	0.775	0.689	0.598	0.563	0.592	0.589	0.489	0.567	0.543	0.434	0.451	0.439	0.368	0.371	0.323	0.299	0.354	0.326	0.307
240.0	84.73	178.3	1006	4125	3575	330.3	11.67	7.679	5.714	5.516	5.618	5.986	5.468	5.368	5.005	4.585	4.242	4.666	4.788	4.573	4.660	4.326	4.555	4.030	3.982	3.795	3.374	3.325	3.533	3.191	3.228	2.963	2.829	2.545	2.628	2.320	2.288	2.049	1.751	1.724	1.610	1.511	1.626	1.589	1.408	1.497	1.672	2.591	4.067	8.186	21.24	43.86	25.17	18.26	5.655	1.120	0.815	0.888	0.823	0.774	0.737	0.699	0.543	0.544	0.575	0.584	0.489	0.465	0.406	0.473	0.375	0.394	0.298	0.382	0.341	0.342	0.276
245.0	67.19	111.2	248.9	1728	5620	3137	226.9	11.57	8.109	7.240	6.166	6.838	6.154	5.682	5.078	5.640	5.041	5.138	4.940	4.865	4.660	4.562	4.505	4.159	4.190	4.032	3.687	3.779	3.641	3.207	3.218	2.862	2.842	2.676	2.675	2.463	2.271	2.029	1.832	1.753	1.672	1.673	1.549	1.541	1.352	1.501	1.417	1.699	1.696	2.593	6.023	18.90	38.32	61.63	25.06	15.83	3.643	0.963	0.841	0.833	0.622	0.667	0.591	0.618	0.663	0.551	0.435	0.406	0.493	0.447	0.434	0.439	0.423	0.384	0.355	0.310	0.339
250.0	39.32	88.55	126.6	424.2	2123	5291	5176	1041	47.77	10.61	8.728	8.576	7.522	7.047	6.693	5.909	5.648	5.381	5.196	4.884	5.015	4.757	4.554	4.438	4.192	4.331	4.101	3.919	3.991	3.517	3.422	3.011	2.810	2.785	2.553	2.396	2.205	2.163	1.943	1.750	1.601	1.677	1.553	1.588	1.407	1.407	1.401	1.443	1.387	1.490	2.159	5.076	10.63	24.83	37.39	59.69	57.27	50.91	12.09	4.515	0.926	0.710	0.624	0.643	0.656	0.517	0.478	0.535	0.511	0.438	0.457	0.388	0.415	0.410	0.380	0.287	0.363
255.0	26.22	39.50	92.49	172.6	499.5	1412	6036	9247	1510	44.10	13.45	11.67	10.36	8.767	7.865	6.923	6.460	5.845	5.133	5.479	5.612	5.089	4.918	4.716	4.686	4.637	4.288	4.345	4.159	3.834	3.407	3.096	2.823	2.628	2.585	2.383	2.247	2.331	2.050	2.063	1.672	1.656	1.693	1.491	1.511	1.449	1.423	1.375	1.178	1.333	1.445	2.153	3.144	6.348	9.203	15.85	33.62	84.51	121.2	90.09	18.78	3.727	0.956	0.834	0.746	0.731	0.553	0.565	0.548	0.462	0.478	0.450	0.431	0.368	0.332	0.309	0.391
260.0	25.92	24.57	44.16	124.0	178.3	339.5	1944	9724	9999.9	240.4	24.37	14.42	11.69	9.645	8.764	7.609	7.196	6.724	6.073	5.975	5.739	5.360	5.163	5.099	4.650	4.935	4.327	4.837	3.999	4.018	3.590	3.567	2.915	2.830	2.689	2.509	2.171	2.303	2.136	2.054	1.743	1.840	1.570	1.678	1.545	1.582	1.398	1.276	1.117	1.140	1.131	1.585	1.728	2.348	2.934	4.398	8.695	25.25	69.51	137.7	152.3	27.82	13.97	1.688	0.867	0.879	0.662	0.730	0.665	0.584	0.514	0.531	0.506	0.414	0.404	0.360	0.475
265.0	29.95	20.39	25.13	65.80	153.8	128.7	460.3	3568	9999.9	9999.9	192.1	21.51	16.91	12.26	10.01	8.859	7.787	7.223	6.770	6.558	6.254	5.728	5.261	5.521	5.016	5.153	4.767	4.610	4.183	4.133	3.703	3.617	3.076	3.040	2.884	2.569	2.293	2.393	2.270	2.026	1.894	1.960	1.736	1.796	1.608	1.583	1.271	1.344	1.292	1.114	1.024	1.196	1.528	1.720	1.634	1.909	2.811	6.607	17.41	48.69	119.6	185.4	170.3	24.49	8.044	1.096	0.850	0.752	0.676	0.651	0.572	0.553	0.526	0.418	0.398	0.409	0.476
270.0	39.48	25.45	21.86	29.65	85.82	139.6	168.9	840.8	3825	9999.9	9999.9	3445	59.75	19.25	14.01	11.34	9.853	8.803	7.668	7.701	6.584	6.136	5.560	5.744	5.539	5.541	5.056	4.851	4.587	4.388	4.083	3.810	3.410	3.230	2.979	2.711	2.415	2.398	2.113	2.107	1.988	2.033	1.881	1.786	1.632	1.591	1.467	1.461	1.315	1.187	1.028	1.152	1.222	1.357	1.507	1.737	1.722	2.396	4.755	11.76	30.06	65.27	127.2	167.4	201.2	116.5	15.58	7.324	1.258	0.747	0.712	0.712	0.619	0.670	0.550	0.598	0.503
275.0	61.65	43.18	29.06	23.45	38.83	84.75	187.6	262.6	893.1	2614	9999.9	9999.9	1203	67.24	23.21	16.00	13.60	11.28	9.555	8.535	7.734	7.294	6.653	6.143	5.699	6.003	5.373	5.146	5.119	4.622	4.940	4.183	3.769	3.400	3.211	2.774	2.519	2.534	2.303	2.184	2.128	2.010	1.922	1.997	1.825	1.681	1.694	1.697	1.278	1.236	1.132	1.194	1.208	1.196	1.210	1.521	1.748	2.111	2.239	3.557	7.559	15.44	29.44	41.35	88.67	217.7	355.0	204.1	24.50	8.036	1.189	0.891	0.869	0.811	0.655	0.675	0.691
280.0	95.05	64.83	44.75	31.70	31.09	47.57	140.8	225.6	263.9	645.2	3167	9999.9	9999.9	941.8	46.62	22.53	16.56	13.67	11.98	10.04	8.662	7.792	7.654	6.915	6.548	6.322	5.804	6.007	5.232	5.002	4.890	4.266	3.937	3.798	3.463	3.133	2.714	2.619	2.281	2.280	2.145	2.146	2.126	2.208	1.948	1.834	1.704	1.760	1.433	1.271	1.139	1.199	1.221	1.230	1.217	1.163	1.488	1.860	1.998	2.160	2.901	4.307	7.540	10.21	21.28	59.68	177.7	371.5	443.2	183.2	19.13	2.975	1.248	1.148	0.880	0.815	1.016
285.0	151.5	127.5	88.50	51.08	36.90	45.48	81.52	229.6	227.2	241.0	825.2	4749	9999.9	9999.9	656.5	35.28	23.32	17.13	14.28	11.73	10.21	8.704	8.266	7.512	6.992	6.890	6.244	6.192	5.765	5.396	5.054	4.762	4.343	3.952	3.629	3.223	3.078	2.863	2.474	2.396	2.221	2.286	2.182	2.258	2.256	2.110	1.864	1.802	1.616	1.509	1.279	1.282	1.332	1.234	1.347	1.348	1.357	1.364	1.644	2.143	2.460	2.260	2.810	3.582	5.952	14.92	42.67	116.4	306.5	524.9	243.8	29.83	13.37	1.830	1.251	1.014	1.163
290.0	320.7	286.7	202.0	106.9	71.65	67.67	89.26	172.7	324.3	367.0	459.1	1378	5288	9999.9	9999.9	2767	54.51	27.47	20.64	15.96	13.06	11.12	9.953	9.125	8.378	7.622	7.100	6.470	6.518	6.097	5.367	4.887	4.770	4.340	4.071	3.659	3.417	3.317	2.879	2.883	2.735	2.678	2.482	2.391	2.663	2.496	2.247	2.196	2.021	1.770	1.560	1.606	1.515	1.471	1.381	1.436	1.527	1.567	1.593	1.848	2.299	2.554	2.763	2.721	3.173	5.247	11.55	28.32	74.01	164.3	259.4	426.9	412.7	357.1	100.6	10.37	2.481
295.0	532.9	496.9	361.6	180.7	121.1	110.8	141.9	208.7	331.7	602.4	717.3	879.4	1684	2915	9999.9	9999.9	4217	63.54	32.10	23.77	17.90	14.29	12.41	10.82	9.703	8.752	8.278	7.593	7.075	6.402	5.861	5.739	5.120	4.645	4.247	4.081	3.974	3.647	3.238	3.093	3.121	2.958	2.963	2.841	2.875	3.301	2.836	2.924	2.413	2.150	1.805	1.763	1.688	1.690	1.698	1.667	1.815	1.715	1.844	2.177	2.332	2.447	3.134	3.748	4.048	4.279	5.548	9.539	19.52	39.58	60.90	101.6	165.2	463.6	797.9	263.3	32.00
300.0	707.4	671.6	476.9	256.4	161.5	154.7	184.4	269.2	408.0	650.5	1009	1013	1050	1129	3425	9999.9	9999.9	599.8	56.27	33.68	23.94	18.63	15.09	12.83	11.36	10.25	9.675	8.542	7.934	7.209	6.401	6.193	5.814	4.925	4.254	4.355	4.341	4.288	3.823	3.636	3.488	3.439	3.217	3.227	3.328	3.603	3.267	3.368	2.889	2.351	1.985	2.098	1.759	1.822	1.959	1.956	2.227	2.144	2.014	2.457	2.588	2.863	3.416	3.882	4.654	5.665	5.030	5.897	8.164	12.68	17.19	25.70	39.99	118.4	340.6	696.7	959.0
305.0	842.3	818.5	566.6	316.1	202.9	191.2	240.0	340.2	494.1	733.2	1119	1344	1110	868.2	1118	5191	9999.9	9999.9	492.5	47.67	31.59	24.15	18.76	14.94	13.60	12.08	10.54	9.848	9.067	8.445	7.315	6.695	6.056	5.249	4.845	4.376	4.742	4.485	4.015	4.072	3.724	3.726	3.529	3.496	3.715	3.799	3.667	3.706	3.285	2.762	2.339	2.357	2.037	2.084	2.048	2.161	2.526	2.496	2.340	2.635	2.953	3.350	3.791	4.280	4.742	5.885	6.368	5.953	6.234	7.155	7.968	9.221	11.72	29.25	80.20	202.9	568.9
310.0	979.0	963.0	668.7	377.2	249.7	250.2	313.5	431.3	611.8	888.2	1224	1519	1475	1042	753.9	1457	5676	9999.9	9999.9	9999.9	53.40	36.52	26.46	19.55	17.25	14.87	12.77	10.96	9.870	9.129	8.078	7.518	6.660	5.877	5.304	4.860	5.021	4.724	4.315	4.515	4.384	4.271	4.071	3.993	4.084	4.111	4.169	4.067	3.680	2.958	2.647	2.617	2.372	2.430	2.298	2.545	2.713	2.761	2.897	3.179	3.517	3.805	4.241	4.774	5.284	6.036	6.477	6.919	7.319	7.401	6.634	6.290	6.355	9.759	20.81	48.07	133.3
315.0	1131	1109	769.5	437.2	306.5	305.0	392.4	538.3	760.2	1048	1379	1615	1659	1434	880.0	729.9	1496	2661	9999.9	9999.9	3496	59.06	40.36	29.05	22.12	17.53	15.58	12.99	11.53	10.77	9.418	8.281	7.305	6.352	5.748	5.532	5.324	5.120	4.882	4.935	4.805	4.681	4.400	4.525	4.629	4.638	4.571	4.583	3.889	3.158	3.033	3.078	2.685	2.626	2.745	2.710	3.081	3.063	3.242	3.648	4.048	4.166	5.006	5.563	6.313	6.606	7.027	7.235	7.413	8.413	8.185	6.989	6.231	6.085	8.076	13.91	32.69
320.0	1261	1228	845.5	485.3	349.8	356.4	452.9	627.9	852.7	1166	1514	1743	1746	1623	1142	674.5	623.9	760.2	3246	9999.9	9999.9	2921	55.68	38.56	28.82	21.87	17.85	14.62	13.03	12.21	10.67	9.177	7.982	6.938	6.145	5.967	5.508	5.412	5.359	5.131	4.911	4.679	4.807	4.964	4.816	5.140	5.017	4.642	4.040	3.409	2.959	3.313	2.868	3.035	2.948	2.864	3.375	3.356	3.574	3.895	4.248	4.796	5.379	6.031	6.363	7.079	7.459	8.103	8.093	8.305	8.342	7.812	7.808	6.133	6.044	6.876	10.52
325.0	1329	1330	931.8	544.9	384.6	398.2	508.2	696.2	947.7	1259	1625	1855	1864	1680	1385	814.5	497.1	370.5	875.2	4944	9999.9	9999.9	406.2	52.83	38.02	27.09	21.17	17.93	15.30	13.05	11.94	10.04	8.932	7.662	6.762	6.201	5.859	6.083	5.481	5.186	5.373	4.880	5.351	5.207	5.259	5.228	5.504	4.975	4.533	3.358	3.116	3.320	3.052	3.200	3.206	3.291	3.661	3.615	3.944	4.450	4.834	5.293	6.052	6.501	6.998	7.552	7.990	8.366	8.684	8.948	8.248	8.473	8.446	7.547	6.117	5.973	5.865
330.0	1479	1423	1011	611.2	456.0	474.4	593.7	791.4	1062	1401	1768	2012	2020	1812	1481	1077	635.3	356.1	380.4	1254	5370	9999.9	9999.9	9999.9	151.4	40.36	30.26	22.87	19.12	15.92	13.90	11.92	10.09	8.841	7.837	6.756	6.451	6.237	5.925	5.661	5.497	5.446	5.403	5.502	5.774	5.867	5.646	5.459	4.819	3.971	3.445	3.700	3.513	3.487	3.480	3.576	4.152	4.020	4.514	4.982	5.452	5.801	6.933	7.477	7.674	8.554	8.743	9.098	9.448	9.467	9.395	8.723	8.364	8.041	7.406	7.085	6.233
335.0	1607	1536	1120	697.8	533.1	564.0	667.8	874.9	1167	1527	1895	2134	2169	1993	1610	1176	870.5	497.1	336.8	464.5	1337	2617	9999.9	9999.9	9999.9	181.3	44.54	32.81	24.63	20.15	16.63	14.03	11.57	9.955	8.789	7.556	7.565	6.652	6.383	6.093	6.150	5.743	5.900	6.128	6.114	6.516	6.188	6.074	5.226	4.353	3.686	4.152	3.724	3.803	3.920	4.144	4.307	4.408	4.740	5.131	5.787	6.433	7.444	7.932	8.524	9.017	9.004	9.445	10.11	10.39	10.11	10.04	9.241	8.051	8.014	7.218	7.409
340.0	1664	1641	1203	767.5	598.8	615.6	719.1	928.6	1207	1571	1946	2192	2233	2069	1704	1233	929.4	661.2	402.5	340.0	477.0	735.4	3239	9999.9	9999.9	2757	108.3	43.21	31.38	24.90	19.70	15.83	13.57	11.26	9.268	8.285	7.832	7.397	6.481	6.355	6.071	5.900	6.364	6.200	6.498	6.904	6.342	6.107	5.400	4.497	4.159	4.388	4.040	4.076	4.199	4.357	4.471	4.746	5.159	5.542	6.242	6.713	7.246	7.934	8.745	9.245	9.299	9.622	10.74	10.49	10.62	10.28	9.896	8.971	8.098	7.559	7.465
345.0	1681	1673	1233	819.1	655.4	656.1	756.2	955.6	1241	1587	1953	2214	2258	2115	1777	1310	950.7	765.1	556.3	384.7	349.3	363.2	899.4	5051	9999.9	9999.9	2211	64.99	41.72	31.17	23.67	18.14	14.87	12.31	10.47	8.958	8.639	8.162	6.894	6.709	6.521	6.515	6.456	6.237	6.796	7.003	6.495	6.749	5.713	4.569	4.457	4.541	4.243	4.260	4.322	4.766	4.871	5.017	5.237	5.557	6.367	6.978	7.368	8.192	8.712	9.309	9.867	9.942	10.90	10.91	10.98	10.73	10.33	9.160	8.555	7.549	7.537
350.0	1641	1696	1262	874.1	710.1	712.7	809.4	979.6	1249	1576	1930	2168	2236	2128	1837	1403	1055	843.6	768.1	623.3	470.9	423.3	502.1	1398	5841	9999.9	9999.9	9999.9	151.0	43.98	31.64	23.44	17.88	14.76	12.04	10.15	9.144	8.932	7.754	7.447	6.876	6.878	6.794	6.623	6.974	7.046	6.879	6.793	6.125	4.977	4.470	4.811	4.671	4.548	4.575	4.756	5.204	5.321	5.538	5.933	6.317	7.305	7.560	8.010	8.826	9.170	9.721	10.14	10.49	10.85	10.98	10.75	10.50	9.828	9.042	8.478	7.980
355.0	1607	1642	1280	910.9	780.2	767.3	860.3	1007	1244	1567	1882	2105	2187	2111	1880	1510	1219	1019	945.5	948.8	835.5	719.5	669.2	796.1	1655	2837	9999.9	9999.9	9999.9	187.5	45.26	32.34	23.10	18.16	14.60	11.81	10.50	9.680	8.870	8.173	7.345	7.611	7.117	7.049	7.117	7.424	6.998	6.807	6.325	5.281	4.637	5.118	4.755	4.679	4.842	5.114	5.569	5.543	5.783	6.270	6.618	7.449	7.222	7.794	9.093	9.003	9.645	10.01	10.71	10.50	10.95	10.74	10.65	10.61	9.589	9.439	8.798
360.0	1618	1656	1271	974.9	822.3	813.4	885.3	1026	1239	1518	1842	2050	2139	2105	1912	1597	1355	1196	1150	1175	1194	1066	966.2	891.1	952.4	1078	3578	9999.9	9999.9	2641	116.3	42.66	30.89	21.80	16.51	13.40	11.82	10.77	9.648	8.648	8.142	7.772	7.661	7.162	7.366	7.626	7.320	7.015	6.651	5.429	4.860	5.311	5.280	4.978	5.184	5.001	5.687	5.899	6.137	6.237	6.761	7.282	7.650	7.934	8.854	9.034	9.330	10.06	10.52	10.49	10.77	10.83	11.02	10.83	9.857	9.443	9.508
365.0	1625	1658	1304	983.3	853.0	848.3	914.0	1046	1245	1489	1798	2003	2115	2089	1932	1675	1489	1394	1389	1432	1512	1490	1332	1191	1031	860.3	1244	5519	9999.9	9999.9	2186	64.35	38.33	27.64	20.22	15.43	12.92	11.91	10.64	9.492	8.550	8.274	8.475	7.386	7.667	8.004	7.563	7.387	6.615	5.698	5.119	5.370	5.393	5.390	5.415	5.395	5.867	5.969	6.029	6.284	6.567	7.408	7.618	7.976	8.641	8.477	8.865	10.05	10.26	10.12	10.79	10.85	10.91	10.70	10.33	10.11	9.756
370.0	1617	1629	1341	1049	928.8	919.9	968.5	1078	1246	1465	1732	1941	2066	2071	1964	1795	1686	1671	1742	1839	1931	2015	1936	1717	1440	1124	931.9	1660	6414	9999.9	9999.9	9692	139.4	38.08	27.60	19.88	16.12	13.72	12.17	10.82	9.771	8.905	8.805	8.254	8.347	8.188	7.678	7.788	6.943	6.009	5.375	5.987	5.770	5.887	5.734	5.832	6.089	6.191	6.252	6.453	6.911	7.277	7.816	8.114	8.583	8.737	8.942	9.600	10.12	10.24	10.85	11.08	10.95	10.66	10.83	10.88	11.16
375.0	1579	1578	1383	1133	1023	1008	1033	1107	1244	1439	1664	1872	2008	2050	2003	1903	1880	1943	2089	2250	2402	2504	2513	2325	1938	1511	1112	952.4	1783	2826	9999.9	9999.9	9999.9	161.7	38.38	26.76	20.28	16.02	13.80	12.17	10.81	10.07	9.326	8.918	8.362	8.652	7.903	7.787	7.020	6.230	5.720	6.236	6.035	6.057	5.997	6.124	6.168	6.339	6.613	6.602	6.787	7.360	7.763	8.000	7.959	8.821	9.016	9.446	9.742	9.987	10.69	11.13	11.55	11.32	11.05	11.69	12.54
380.0	1639	1580	1448	1174	1073	1070	1077	1143	1236	1422	1628	1812	1959	2030	2010	1969	2005	2117	2316	2524	2712	2844	2854	2721	2322	1804	1318	921.2	838.3	915.8	3608	9999.9	9999.9	2260	95.22	35.47	25.51	19.98	15.30	13.22	11.50	10.86	9.952	9.255	9.021	8.630	8.009	7.560	7.073	6.064	5.866	6.585	6.302	6.599	6.261	6.466	6.372	6.482	6.494	6.610	7.013	7.252	7.562	8.172	8.166	8.208	8.608	9.020	10.17	10.28	10.62	11.12	11.25	11.29	11.47	12.01	12.78
385.0	1607	1649	1431	1234	1135	1117	1118	1164	1251	1398	1595	1775	1916	1998	2038	2025	2092	2262	2487	2729	2948	3115	3121	2982	2640	2073	1529	1046	728.9	557.5	1057	5924	9999.9	9999.9	1767	52.91	32.62	24.15	17.61	14.66	12.60	11.69	10.32	9.624	9.260	9.079	8.447	8.191	7.434	6.580	6.158	6.523	6.484	6.394	6.360	6.285	6.670	6.383	6.511	6.939	7.416	7.366	7.513	8.196	7.999	8.297	8.747	9.166	9.553	10.10	10.33	11.07	11.63	11.28	11.49	12.24	12.64
390.0	1653	1674	1500	1278	1202	1192	1164	1184	1255	1374	1552	1738	1872	1983	2050	2081	2186	2385	2648	2926	3179	3360	3397	3253	2926	2410	1813	1274	877.4	619.7	583.0	1588	6105	9999.9	9999.9	7741	117.4	32.81	24.00	18.35	14.80	13.00	11.37	10.65	9.913	9.603	8.809	8.631	7.850	6.783	6.374	6.854	6.664	6.776	6.693	6.466	7.090	6.896	6.672	6.976	6.946	7.344	7.454	7.785	7.962	8.313	8.537	8.947	9.031	9.696	10.32	10.57	11.32	11.54	11.99	12.44	12.82
395.0	1677	1693	1503	1322	1276	1271	1239	1229	1275	1370	1509	1691	1833	1950	2053	2112	2250	2474	2752	3064	3330	3519	3586	3457	3123	2652	2109	1522	1097	799.1	615.2	707.3	1616	2767	9999.9	9999.9	9999.9	139.6	33.61	25.09	19.25	15.06	13.52	11.99	10.62	10.75	9.130	8.906	8.168	7.148	6.837	7.274	7.070	7.232	7.027	6.994	7.713	7.268	7.040	6.818	7.296	7.379	7.540	7.372	7.545	8.161	8.195	8.824	8.766	9.534	9.773	10.54	11.29	11.47	12.15	12.73	13.42
400.0	1632	1678	1536	1388	1318	1297	1271	1260	1282	1365	1484	1664	1796	1935	2035	2116	2277	2506	2789	3093	3367	3570	3648	3544	3221	2765	2268	1715	1268	952.3	728.6	598.2	681.0	857.3	3524	9999.9	9999.9	1955	83.15	32.22	23.63	17.85	14.81	12.51	11.12	10.92	9.194	9.414	8.380	6.975	6.801	7.637	7.298	7.297	7.103	7.127	7.383	7.038	6.951	7.303	7.152	7.078	7.686	7.577	7.581	7.631	8.404	8.353	8.587	9.609	9.780	10.39	11.56	11.41	11.99	12.29	13.57
405.0	1637	1646	1525	1404	1354	1330	1305	1275	1305	1353	1478	1630	1759	1900	2018	2108	2261	2501	2784	3089	3351	3579	3653	3576	3281	2833	2352	1879	1421	1103	857.8	663.6	547.0	481.3	1011	5219	9999.9	9999.9	1562	48.82	29.10	21.32	16.91	13.57	12.17	11.26	9.698	10.10	8.665	7.277	6.964	7.958	7.095	7.491	7.134	7.310	7.328	7.481	7.295	7.189	7.274	7.101	7.394	7.667	7.403	7.584	8.001	7.985	8.658	9.075	9.720	10.30	10.89	11.42	11.46	12.39	13.54
410.0	1640	1667	1558	1440	1387	1356	1342	1319	1308	1357	1473	1592	1723	1858	1961	2052	2216	2449	2717	3020	3269	3479	3584	3516	3271	2870	2420	1998	1623	1300	1035	815.3	638.3	501.6	521.2	1398	5455	9999.9	9999.9	7330	108.7	29.71	21.71	16.42	13.96	12.22	10.42	9.987	9.160	7.397	7.135	8.028	7.406	7.683	7.568	7.535	7.594	7.621	7.634	7.418	7.143	7.366	7.173	7.580	7.145	7.461	7.722	7.868	8.421	8.703	9.318	10.26	10.63	11.17	11.37	12.22	13.29
415.0	1574	1665	1538	1466	1407	1378	1364	1344	1319	1363	1446	1544	1669	1776	1881	1967	2130	2355	2607	2885	3119	3319	3430	3405	3190	2850	2445	2063	1749	1502	1216	978.2	776.0	605.7	501.6	606.3	1441	2680	9999.9	9999.9	9999.9	130.7	30.60	21.67	17.22	14.14	11.30	10.56	9.174	7.771	7.670	8.029	7.889	7.873	7.441	7.428	8.097	7.627	7.692	7.675	7.309	7.491	7.201	7.608	7.433	7.524	7.673	7.758	8.593	8.733	8.953	10.32	10.10	10.82	11.04	11.52	13.00
420.0	1534	1609	1515	1434	1386	1379	1361	1335	1324	1349	1421	1515	1617	1705	1812	1906	2048	2258	2490	2748	2978	3162	3275	3265	3094	2788	2437	2098	1806	1602	1351	1086	874.9	691.4	549.7	476.1	585.4	801.5	3250	9999.9	9999.9	1858	79.42	27.61	20.67	15.82	12.82	11.33	9.958	8.094	7.661	8.207	7.773	8.048	7.826	7.849	8.058	7.693	7.688	7.726	7.577	7.389	7.629	7.296	7.342	7.514	7.534	7.833	8.425	8.634	9.034	9.537	9.911	10.39	10.54	10.83	12.42
425.0	1544	1529	1487	1434	1390	1383	1355	1334	1328	1343	1396	1475	1567	1657	1736	1829	1963	2157	2376	2617	2828	3012	3122	3113	2972	2716	2405	2101	1836	1646	1444	1181	952.6	769.1	607.9	493.2	430.8	407.4	901.9	4652	9999.9	9999.9	1542	42.86	25.40	19.52	14.75	12.11	10.19	8.759	8.042	8.556	8.090	8.400	8.078	8.097	8.064	8.253	7.808	7.725	7.604	7.623	7.605	7.488	7.130	7.323	7.315	7.663	8.062	7.999	8.911	9.270	9.328	9.799	10.13	10.96	11.82
430.0	1583	1501	1446	1399	1368	1367	1354	1332	1318	1325	1388	1450	1516	1578	1644	1727	1843	2022	2226	2437	2625	2799	2907	2915	2808	2599	2337	2091	1863	1681	1505	1291	1056	859.2	688.9	556.6	450.6	363.6	404.6	1195	4660	9999.9	9999.9	6963	101.2	26.81	18.69	14.75	11.98	9.346	8.479	9.113	8.309	8.530	8.364	8.123	8.264	8.050	8.061	8.035	7.576	7.694	7.330	7.543	7.200	7.451	7.158	7.591	7.821	8.037	8.382	8.709	9.222	9.399	9.735	10.24	11.09
435.0	2007	1438	1422	1362	1347	1374	1348	1320	1307	1326	1380	1418	1466	1503	1561	1625	1732	1886	2063	2251	2419	2581	2691	2699	2631	2466	2257	2054	1876	1713	1539	1354	1159	943.1	765.4	624.6	506.4	400.2	332.3	443.7	1172	2516	9999.9	9999.9	9999.9	126.8	26.32	19.80	14.94	10.84	9.230	9.973	8.497	9.048	8.266	8.363	8.739	8.457	7.931	7.843	7.818	7.452	7.509	7.659	7.327	7.244	7.170	7.093	7.648	7.925	7.939	8.172	8.972	8.965	9.397	9.512	10.95
440.0	2707	1473	1395	1346	1329	1362	1339	1325	1303	1328	1362	1395	1425	1447	1489	1550	1646	1785	1950	2120	2273	2424	2525	2554	2496	2347	2179	2009	1863	1719	1561	1376	1201	1006	815.4	669.7	547.5	437.0	341.7	298.7	411.3	678.3	2935	9999.9	9999.9	8971	74.42	24.95	17.90	12.83	10.62	10.38	9.347	9.230	8.898	8.432	9.008	8.252	8.203	7.850	8.183	7.912	7.698	7.520	7.663	7.322	7.402	7.239	7.660	7.650	7.912	8.033	8.516	8.877	8.924	9.529	10.60
445.0	3059	1783	1353	1318	1293	1338	1318	1308	1309	1309	1336	1368	1382	1405	1429	1476	1560	1687	1838	1993	2135	2267	2370	2409	2367	2247	2091	1955	1828	1714	1562	1388	1213	1044	860.4	706.9	582.9	468.8	367.7	288.9	259.1	280.4	763.4	4103	9999.9	9999.9	1385	42.13	21.85	15.07	12.21	11.36	10.18	9.457	8.982	8.612	8.951	8.444	8.007	8.249	8.141	7.751	7.628	7.486	7.533	7.426	7.521	7.399	7.412	7.913	7.705	7.971	8.204	8.679	8.677	9.274	10.13
450.0	2368	2823	1404	1258	1249	1276	1276	1277	1273	1275	1299	1320	1316	1315	1334	1373	1446	1547	1671	1809	1942	2058	2151	2194	2173	2081	1960	1852	1756	1665	1537	1379	1204	1053	903.3	749.1	619.5	505.6	405.6	319.0	255.4	217.0	290.3	1020	4411	9999.9	9999.9	6316	88.76	21.34	15.58	13.30	11.45	10.34	9.451	9.216	8.972	8.966	8.173	8.123	8.096	7.622	7.513	7.530	7.313	7.361	7.365	7.434	7.409	7.733	7.566	7.929	8.082	7.893	8.382	8.611	9.496
455.0	1474	3160	2131	1180	1189	1215	1207	1224	1221	1230	1255	1257	1241	1234	1223	1245	1311	1396	1502	1618	1727	1839	1919	1961	1958	1887	1798	1725	1650	1579	1481	1343	1184	1035	906.5	779.8	651.4	539.2	440.4	351.4	283.8	229.1	205.9	338.8	1074	2469	9999.9	9999.9	9999.9	100.2	21.25	16.88	13.27	11.30	10.13	9.414	9.519	8.760	8.582	7.968	7.840	7.619	7.542	7.066	7.087	7.086	7.099	6.966	7.403	7.403	7.181	7.321	7.251	7.301	7.521	7.628	8.303
460.0	1146	2411	3200	1227	1129	1152	1157	1166	1180	1178	1210	1210	1181	1160	1144	1165	1203	1285	1378	1478	1573	1673	1753	1796	1791	1743	1675	1616	1568	1511	1426	1294	1160	1019	892.6	788.6	673.0	557.9	462.5	375.4	302.8	244.9	201.3	199.1	340.6	636.4	2727	9999.9	9999.9	7159	68.54	21.10	15.77	13.49	11.08	10.08	9.740	8.855	8.286	7.770	7.985	7.448	7.368	7.188	7.114	6.890	6.617	6.318	6.845	6.917	6.732	6.796	6.848	7.198	7.146	7.419	7.961
465.0	1029	1535	3661	1718	1080	1098	1110	1126	1127	1145	1168	1148	1130	1097	1083	1086	1122	1181	1266	1355	1445	1527	1608	1657	1644	1608	1562	1512	1480	1436	1366	1251	1123	1001	877.9	777.0	682.1	573.1	474.7	392.2	320.2	263.5	212.2	180.5	185.9	230.5	686.4	3555	9999.9	9999.9	1196	27.74	19.87	15.39	12.75	10.86	10.45	9.422	8.604	8.324	7.847	7.724	7.464	7.267	6.873	6.551	6.505	6.507	6.668	6.502	6.667	6.570	6.478	6.553	6.876	7.170	7.364
470.0	929.8	1060	2541	3227	1185	1016	1040	1050	1053	1068	1077	1071	1041	1006	985.3	976.5	1008	1054	1125	1201	1275	1344	1415	1454	1460	1434	1400	1369	1351	1323	1267	1173	1063	952.0	847.5	747.7	665.4	582.1	488.0	406.1	335.9	280.3	230.0	191.2	164.2	150.3	232.8	863.8	3773	9806	9999.9	6018	88.24	21.11	15.19	12.60	11.25	9.966	8.731	8.391	8.209	7.809	7.398	7.300	6.656	6.610	6.706	6.413	6.383	6.182	6.474	6.096	6.528	6.451	6.443	6.508	6.871
475.0	822.1	901.4	1304	3665	2215	940.2	943.0	968.0	965.1	982.7	997.4	984.1	951.7	913.9	882.4	870.1	897.4	931.3	979.1	1040	1106	1169	1227	1261	1277	1262	1242	1224	1218	1202	1161	1088	989.1	898.2	806.9	716.3	642.8	571.9	497.2	416.1	352.3	292.8	245.1	205.6	170.2	141.4	137.9	261.6	897.0	2317	8536	9999.9	9427	121.3	20.15	15.02	12.47	10.49	9.111	8.514	7.971	7.349	7.306	6.928	6.420	6.671	6.581	6.429	6.038	6.066	5.706	5.869	5.980	5.537	5.681	5.888	6.284
480.0	790.7	822.2	930.4	2563	3685	1000	872.0	901.2	918.1	925.7	949.4	929.4	895.0	854.1	822.7	803.2	819.8	849.3	886.5	943.9	1002	1055	1112	1145	1158	1153	1138	1127	1131	1122	1093	1025	940.3	861.8	776.8	694.9	627.4	557.5	499.5	426.9	358.6	305.0	256.5	215.7	178.8	147.5	123.3	132.6	260.6	566.4	2159	9999.9	9999.9	7978	27.85	18.70	14.99	12.06	10.05	8.784	8.198	7.314	7.195	6.725	6.530	6.552	6.032	5.831	5.987	5.812	5.431	5.763	5.816	5.589	5.429	5.765	5.936
485.0	744.0	768.6	808.0	1436	4295	1643	839.6	866.0	870.7	880.1	904.3	887.6	843.7	799.8	770.4	757.6	766.4	794.1	826.5	869.3	925.1	971.2	1023	1050	1067	1065	1055	1057	1068	1058	1035	978.3	904.0	826.0	754.9	682.4	616.2	549.7	492.8	436.7	371.1	311.2	265.1	226.7	189.9	155.5	128.8	110.7	123.0	178.2	529.1	2957	9999.9	9999.9	1393	26.98	17.77	13.83	11.56	9.531	8.387	7.663	7.126	7.084	6.707	6.397	6.299	5.868	6.162	6.084	5.518	5.714	5.582	5.262	5.474	5.524	5.676
490.0	670.0	742.1	745.7	889.5	2813	3544	982.6	808.5	815.0	841.1	851.7	832.2	796.5	751.0	719.5	695.1	703.3	721.8	749.6	783.9	828.8	872.6	916.7	944.0	962.1	965.4	960.6	965.0	978.9	983.3	962.6	918.9	853.4	787.2	721.8	660.4	602.2	539.2	483.4	430.3	380.2	324.5	277.2	237.6	203.4	168.7	139.5	114.3	99.56	97.05	166.1	705.2	3252	9999.9	9999.9	6204	97.58	18.81	13.76	11.34	9.623	8.441	7.498	7.126	6.862	6.319	6.322	5.979	5.839	5.756	5.729	5.565	5.404	5.147	5.039	5.410	5.254
495.0	602.5	668.2	689.2	706.6	1243	4036	2147	749.6	763.6	779.0	793.6	778.7	731.3	689.9	666.2	633.6	631.5	650.1	671.4	700.8	734.1	774.8	811.3	838.5	854.0	857.0	863.2	874.6	884.6	897.5	883.5	844.7	793.7	741.0	684.3	629.1	579.7	525.5	472.6	422.2	378.7	333.4	285.5	248.5	212.9	180.1	151.0	123.4	100.7	84.95	89.38	201.4	763.1	2326	9444	9999.9	9999.9	30.49	18.39	13.36	11.04	9.421	7.666	7.469	6.926	6.334	5.927	5.826	5.494	5.231	5.311	5.439	4.984	5.004	5.013	4.912	5.093
500.0	539.5	599.9	649.3	642.9	759.9	2719	3431	817.2	706.5	720.3	738.0	725.4	680.5	641.2	613.6	585.7	580.6	590.0	613.6	636.2	668.6	702.2	735.6	759.6	776.7	781.2	789.8	803.8	818.1	833.5	819.8	787.6	743.2	697.6	649.8	598.5	552.4	506.3	457.0	409.9	368.1	331.5	290.3	249.9	214.8	184.1	155.0	127.7	105.3	85.41	74.48	91.16	209.5	556.3	2371	9999.9	9999.9	7997	28.33	15.66	12.27	9.682	8.433	7.762	6.503	5.790	5.568	5.470	5.356	5.099	4.742	5.074	4.826	4.859	4.831	4.652	4.911
505.0	515.7	551.5	608.9	602.8	622.0	1361	4548	1428	669.9	680.2	684.3	671.9	642.5	594.9	567.2	538.1	537.0	538.5	556.1	579.1	605.2	634.1	668.2	690.4	706.3	712.3	721.0	734.9	753.4	766.1	757.6	736.0	694.5	653.5	609.9	566.6	526.2	485.9	440.0	396.3	357.5	323.6	290.5	250.4	216.3	184.9	156.1	130.7	106.4	87.40	72.13	67.81	85.95	160.4	566.3	2949	9999.9	9999.9	1528	23.85	13.83	10.60	9.066	7.581	6.595	6.101	5.417	5.194	4.999	5.091	4.722	4.718	4.411	4.494	4.404	4.349	4.347
510.0	451.5	492.6	530.3	543.1	535.5	720.1	2950	3403	794.4	615.0	622.7	606.7	577.3	537.0	509.3	478.7	476.7	476.7	489.2	509.2	527.8	551.4	579.5	603.1	614.4	620.0	631.7	645.4	668.6	680.1	678.4	659.6	627.7	594.4	558.0	519.8	488.0	452.3	412.7	373.7	337.2	303.9	276.3	247.6	215.5	183.8	156.2	131.0	108.5	89.23	73.87	63.39	59.74	71.14	158.5	691.2	3156	9999.9	9999.9	6135	24.85	13.10	10.15	8.282	7.068	6.138	5.412	5.159	4.760	4.613	4.381	4.213	4.114	3.988	3.961	3.821	3.938
515.0	395.0	432.8	444.8	486.4	475.6	516.6	1130	4384	1922	552.0	555.5	543.1	509.7	479.8	449.1	422.1	415.9	413.5	425.0	439.6	455.2	474.6	494.9	517.1	526.0	538.7	545.6	562.4	579.8	596.8	598.4	580.7	559.0	531.4	501.4	468.9	443.7	411.9	381.1	345.8	313.7	283.2	258.0	235.4	209.5	179.9	153.4	129.1	107.9	89.05	74.45	62.95	54.03	51.55	66.52	182.0	730.5	2308	8331	9999.9	9140	27.53	12.63	9.451	7.292	6.396	5.494	5.077	4.691	4.286	4.144	4.039	3.644	3.763	3.236	3.563	3.425
520.0	339.5	390.2	406.3	433.0	431.9	446.9	600.2	3032	3940	618.2	507.7	487.7	466.2	434.2	401.8	384.2	377.1	373.1	384.2	390.2	406.1	419.9	438.3	457.5	470.2	476.7	488.0	499.9	520.5	532.9	540.4	527.6	503.8	483.8	458.0	434.1	407.6	382.3	355.8	326.8	294.9	268.6	243.6	222.6	204.6	176.5	149.6	127.0	106.0	88.00	74.58	62.53	53.86	46.97	46.19	68.77	187.9	539.0	2065	9999.9	9999.9	1708	22.86	11.53	8.159	6.644	5.700	5.214	4.514	4.073	3.931	3.835	3.508	3.493	3.231	3.304	3.293
525.0	332.4	340.9	362.8	389.4	413.9	398.7	445.3	1378	5194	1278	463.2	453.0	423.0	400.4	369.8	350.8	338.0	334.4	346.7	353.5	363.5	379.6	393.9	409.8	419.6	427.1	441.2	452.2	472.4	487.9	492.7	480.6	457.2	442.0	420.9	401.5	377.8	355.2	333.2	305.5	278.5	251.5	230.5	210.5	195.0	173.4	146.3	123.7	104.9	87.88	73.89	61.84	52.58	45.94	40.89	42.39	65.92	141.9	483.9	2803	9999.9	9999.9	1357	16.65	9.458	7.076	5.804	5.216	4.729	3.764	3.624	3.458	3.530	3.168	3.034	3.084	3.115
530.0	287.9	304.2	326.5	340.1	361.6	351.9	366.3	600.2	3441	3979	595.4	400.6	379.4	350.6	329.1	309.6	299.0	296.5	300.9	309.6	316.4	329.3	342.5	354.6	364.9	370.2	382.8	393.3	413.2	424.8	430.5	426.1	408.8	393.9	375.9	358.3	341.8	321.1	299.9	277.9	255.9	234.2	213.4	195.2	179.1	162.3	140.8	118.6	99.71	84.16	71.37	61.07	50.79	44.94	38.87	35.37	37.45	52.10	126.8	645.4	2920	9999.9	9999.9	4920	20.45	9.111	6.658	5.721	4.834	4.033	3.765	3.418	3.400	2.835	2.818	2.990	2.759
535.0	253.3	266.6	281.4	288.3	308.6	320.1	326.5	378.4	1142	5399	1619	357.8	331.4	311.1	286.1	273.2	259.7	258.1	259.6	265.6	271.0	283.7	294.9	304.3	311.0	319.4	327.4	339.4	355.3	368.5	374.4	371.1	359.0	345.0	332.8	317.7	305.0	285.8	270.7	250.7	230.8	213.3	194.9	180.2	164.0	147.7	132.9	114.0	94.87	80.60	67.32	58.40	49.99	44.02	37.44	33.96	30.27	31.04	45.40	159.3	665.6	2291	7076	9999.9	1799	23.87	8.338	6.577	5.054	4.358	3.946	3.271	3.172	2.793	2.767	2.829	2.596
540.0	220.4	246.5	253.1	252.3	268.4	301.3	287.0	306.7	487.7	3673	4476	408.6	303.9	277.6	262.3	245.6	232.1	232.8	232.8	236.8	244.4	252.9	262.5	269.0	279.4	285.6	292.9	305.7	319.0	331.7	336.2	332.2	324.3	312.8	302.7	290.2	276.6	262.0	247.2	231.0	213.7	198.7	183.5	166.9	152.8	138.2	123.8	108.8	91.92	77.26	64.52	56.70	48.20	42.74	37.06	33.10	28.58	25.82	26.30	50.22	161.9	525.2	1766	9843	9999.9	1538	17.93	7.603	5.614	4.366	4.048	3.481	3.015	2.795	2.577	2.488	2.505
545.0	192.9	226.2	228.5	233.9	236.7	275.0	275.8	270.6	317.8	1504	6382	1011	277.9	255.0	235.2	223.8	212.7	209.2	208.1	214.3	218.9	224.8	237.1	242.2	251.2	258.0	262.9	276.8	286.5	300.2	305.7	303.2	294.5	285.4	274.9	265.7	253.1	240.0	226.5	213.0	197.4	183.9	170.4	156.0	144.0	130.8	115.2	103.3	89.31	74.10	61.50	53.74	46.26	41.60	36.29	32.28	27.76	24.04	21.69	25.07	49.00	129.3	408.5	2734	9999.9	9999.9	225.2	10.62	6.752	4.902	4.112	3.567	3.287	2.873	2.524	2.414	2.363
550.0	182.4	196.1	196.4	198.3	209.0	219.5	244.3	236.1	250.3	536.8	4179	4302	378.9	226.8	210.7	197.5	188.2	183.3	182.0	186.7	190.2	196.1	203.7	209.4	215.5	220.8	227.6	238.4	249.8	260.0	265.1	264.3	257.3	249.8	240.8	235.1	223.3	213.8	202.5	189.6	176.8	165.6	153.4	141.6	131.0	118.8	105.3	93.07	82.45	69.81	58.81	50.24	43.53	39.32	34.16	30.61	26.86	23.22	19.96	18.69	22.41	39.38	101.5	622.2	2879	9505	9999.9	3193	17.12	6.504	4.795	3.958	3.498	2.796	2.572	2.343	2.336
555.0	159.9	165.2	168.2	174.9	175.1	178.7	209.2	213.4	215.8	285.0	1229	6460	1222	202.2	181.5	169.8	160.9	157.8	154.3	159.9	162.5	165.2	174.2	176.8	183.3	186.6	192.5	202.0	211.3	221.4	227.8	227.1	223.1	213.8	207.7	203.2	195.2	186.7	179.0	166.0	155.3	145.0	135.1	124.0	116.2	106.1	93.88	83.36	73.44	64.93	54.72	46.94	39.60	36.13	31.95	28.67	25.19	21.90	18.97	16.40	15.76	18.45	31.32	147.0	650.0	2177	6333	9999.9	1720	20.07	6.058	4.355	3.349	2.956	2.519	2.299	2.154
560.0	145.7	148.1	154.3	160.0	152.6	158.6	179.5	196.9	191.6	209.1	431.5	4537	4504	241.7	161.8	152.1	142.1	140.9	136.1	139.9	142.7	146.5	153.0	156.8	162.0	163.8	169.3	178.1	186.4	195.6	199.5	201.3	196.4	189.5	185.4	178.1	173.5	168.6	158.9	149.5	138.7	130.6	122.6	115.3	104.8	96.94	85.39	76.35	67.07	59.00	51.78	43.97	37.31	33.49	30.08	27.00	23.91	20.55	17.63	15.32	13.18	12.89	15.03	40.50	153.3	494.3	1604	8542	9999.9	246.7	11.83	4.893	3.650	3.187	2.520	2.286	2.069
565.0	137.6	131.5	133.1	138.2	134.8	141.7	153.5	187.2	169.5	174.7	237.8	1762	6993	732.5	146.1	135.5	126.1	125.5	122.1	125.2	124.6	129.0	134.4	137.9	141.5	145.8	149.4	156.7	165.4	173.2	176.9	175.8	171.9	168.6	166.4	157.8	153.5	149.5	141.2	134.5	125.2	117.3	109.8	103.3	95.40	86.57	77.46	69.12	60.06	53.07	47.55	41.59	34.91	31.02	27.68	25.16	22.56	19.75	16.48	14.60	12.59	11.27	11.08	15.93	40.74	117.7	367.1	2437	9999.9	8914	201.1	6.445	4.010	3.205	2.777	2.233	2.116
570.0	116.1	124.6	113.5	112.3	116.8	119.1	124.1	148.6	157.0	147.1	169.1	526.7	4828	4238	216.4	113.2	106.5	103.9	102.6	103.5	103.8	106.3	110.7	112.8	115.9	119.4	122.9	128.3	136.8	141.1	145.2	145.9	143.5	139.6	136.4	131.5	127.1	123.8	118.1	112.3	105.5	98.29	91.87	86.98	81.25	73.40	66.41	59.45	51.64	44.94	39.93	36.48	31.25	27.42	24.64	22.02	19.76	17.22	15.06	13.15	11.35	10.15	9.160	9.615	14.86	31.78	88.04	551.8	2818	7672	7522	903.0	12.71	3.714	2.672	2.237	2.016
575.0	105.0	106.7	96.69	94.19	93.49	94.08	104.7	114.7	141.6	127.9	136.3	213.1	1355	6792	873.6	92.88	85.86	83.32	80.02	82.37	82.47	83.81	86.44	87.18	91.15	93.19	96.52	101.0	107.9	111.7	115.2	115.3	112.6	110.3	107.2	105.3	102.3	98.98	94.34	89.88	84.43	78.86	75.00	70.47	66.23	60.30	54.16	48.21	42.34	36.96	32.41	29.64	27.05	23.49	20.94	18.87	16.91	14.82	12.95	11.30	10.02	8.891	7.873	7.240	7.790	11.95	24.45	127.6	632.3	1770	4895	8154	1298	12.11	3.226	2.279	2.023
580.0	103.8	99.01	90.77	80.34	78.48	79.03	91.11	92.75	123.4	118.7	120.6	135.3	395.6	4835	4203	103.7	73.85	70.17	67.31	68.25	67.36	69.32	70.09	72.20	75.43	76.60	78.68	83.49	87.59	91.74	95.03	93.32	92.70	91.66	88.94	85.95	83.59	81.87	79.73	74.00	69.04	66.22	61.80	59.73	55.72	50.34	45.82	40.30	35.78	31.38	27.28	24.41	23.41	21.12	18.21	16.23	14.84	12.69	11.32	10.20	9.002	7.901	7.096	6.057	6.037	6.748	9.500	32.43	145.0	399.6	1271	6135	6328	220.4	5.393	2.648	2.047
585.0	97.95	83.95	79.27	65.76	67.77	68.07	74.89	74.43	101.9	115.7	113.1	114.9	168.8	1849	6912	479.8	63.04	59.65	57.70	56.34	57.46	57.59	58.85	61.90	62.12	63.59	65.43	68.19	71.99	76.42	78.10	77.02	77.28	75.16	72.11	71.95	68.23	68.20	65.66	61.81	57.90	55.47	50.79	49.35	46.56	42.12	38.34	33.63	29.64	26.24	22.97	20.41	19.63	17.95	16.23	14.36	12.53	11.00	9.996	9.112	8.128	7.230	6.264	5.470	5.029	5.088	5.761	10.73	36.00	93.14	289.0	1805	6385	4141	30.89	3.504	2.542
590.0	88.16	80.00	68.63	58.13	57.10	58.99	58.09	64.68	79.61	107.4	105.2	105.2	113.5	494.4	4813	3602	76.39	48.63	45.72	45.42	45.63	46.05	46.72	48.26	48.84	49.90	50.62	52.42	56.89	59.43	59.68	60.29	59.26	58.74	56.82	55.79	53.57	52.87	50.54	48.27	45.83	42.86	41.13	38.82	36.45	33.65	30.39	27.44	23.88	21.10	18.07	16.37	15.06	14.88	13.65	12.38	10.76	9.339	8.527	7.393	6.674	6.002	5.522	5.036	4.497	4.335	4.167	5.196	11.00	23.91	67.85	407.6	1844	4102	3217	651.0	8.759
595.0	88.47	73.68	66.38	49.23	46.94	45.02	48.10	58.30	66.24	90.73	108.7	101.0	96.37	166.1	1311	6128	622.3	39.16	36.64	35.31	35.56	35.45	36.13	36.54	38.40	38.29	39.50	41.37	43.28	46.79	45.93	46.54	45.32	44.82	44.22	42.70	41.83	40.82	38.93	37.21	35.05	32.99	31.54	29.78	28.42	26.49	24.21	21.97	18.77	16.68	14.47	13.03	12.44	11.46	10.88	10.41	9.045	7.912	7.385	6.283	5.645	5.145	4.291	4.266	3.929	3.558	3.496	3.714	4.811	7.585	17.47	93.23	413.2	962.0	2550	3968	243.0
600.0	74.59	74.57	63.25	43.72	41.04	41.11	38.97	50.88	58.94	79.00	107.3	97.86	91.12	91.53	337.6	4479	3385	54.94	31.04	30.11	30.46	29.89	30.48	30.69	31.45	31.59	32.65	34.19	35.72	37.31	37.61	38.36	37.24	36.82	36.27	34.91	34.28	33.43	32.09	31.25	29.21	27.94	25.82	24.94	23.74	22.14	19.87	18.20	15.87	13.84	12.42	11.03	10.37	9.388	9.200	9.126	8.187	7.151	6.282	5.535	4.818	4.581	4.170	3.747	3.685	3.318	3.075	2.997	3.259	3.741	5.845	23.00	94.15	217.1	685.9	3241	2170
605.0	76.31	73.28	59.07	40.78	37.31	36.81	37.13	45.68	54.18	72.69	102.9	97.55	84.57	75.16	113.1	1752	5759	351.1	27.79	26.50	26.02	26.21	25.46	26.97	26.51	26.89	27.30	28.77	30.62	31.06	31.79	32.08	31.09	31.39	30.21	29.71	28.96	27.97	27.29	25.78	24.59	23.18	22.38	21.45	20.11	19.00	16.81	15.34	13.86	11.78	10.74	9.283	8.766	8.326	7.965	7.721	7.137	6.468	5.639	4.999	4.262	4.143	3.755	3.502	3.288	3.115	2.990	2.679	2.708	2.578	3.184	6.825	22.79	50.54	156.2	995.6	3165
610.0	74.88	76.71	55.16	40.00	32.05	32.23	33.81	41.29	50.63	67.02	90.85	103.4	85.39	68.82	61.44	437.7	4153	3036	45.52	22.55	22.00	21.88	20.89	21.94	21.60	21.85	22.33	23.01	24.21	24.97	25.16	25.62	24.86	25.06	24.22	24.13	22.91	22.77	21.77	20.45	19.53	18.62	17.76	17.08	16.11	15.17	13.68	12.48	10.99	9.607	8.678	7.772	7.255	6.849	6.342	6.353	5.907	5.711	4.713	4.327	3.721	3.460	3.219	3.034	2.796	2.669	2.589	2.568	2.445	2.251	2.321	3.069	6.583	12.84	36.63	225.0	960.2
615.0	70.32	72.46	50.24	35.62	28.11	28.62	31.45	39.11	45.01	61.76	79.59	98.82	84.85	64.37	47.57	121.5	1140	5221	497.2	20.84	17.96	17.44	17.54	16.93	17.08	17.96	17.59	18.05	19.07	19.72	20.05	19.59	19.62	19.35	18.79	18.47	17.62	17.59	17.32	15.93	15.10	14.49	13.77	13.12	12.80	12.23	10.81	9.920	8.869	7.661	6.953	6.463	5.755	5.649	5.163	5.090	4.996	4.528	4.267	3.729	3.227	3.124	2.712	2.685	2.379	2.372	2.257	2.337	2.242	1.997	1.801	2.080	2.607	4.086	9.273	51.41	215.0
620.0	74.65	63.73	45.23	33.11	27.57	26.01	29.14	35.46	45.31	59.72	76.99	95.00	90.34	63.53	44.99	50.28	278.5	3820	2877	30.43	16.68	15.15	15.48	14.61	14.67	14.78	15.21	15.57	15.89	16.50	17.17	16.73	16.09	16.15	15.96	14.84	15.09	14.63	14.05	13.04	12.87	11.90	11.37	11.31	10.96	10.03	9.155	8.534	7.546	6.577	5.961	5.473	4.937	4.628	4.502	4.198	4.288	3.732	3.856	3.454	2.894	2.645	2.539	2.474	2.330	2.221	2.083	2.065	1.951	1.910	1.646	1.665	1.646	1.981	3.041	12.58	49.08
625.0	61.84	62.25	42.35	30.84	26.77	25.89	27.81	37.54	45.55	58.05	74.05	87.88	94.18	64.33	45.22	33.66	80.61	1503	4830	67.99	15.72	14.25	13.49	12.97	12.94	13.37	12.97	12.99	13.54	14.06	14.94	13.85	13.69	13.35	13.20	12.83	12.92	12.29	11.95	11.41	10.92	10.19	9.522	9.208	9.296	8.463	7.981	7.287	6.464	5.684	5.055	4.879	4.371	4.409	4.162	3.748	3.773	3.534	3.147	3.066	2.804	2.236	2.253	2.222	2.195	2.001	1.886	1.942	1.831	1.812	1.592	1.467	1.334	1.424	1.651	3.852	12.08
630.0	65.96	56.28	47.73	28.52	24.61	24.97	25.87	33.94	42.44	58.49	70.73	82.31	89.20	68.75	44.04	30.44	34.44	366.9	3642	2464	31.32	12.10	12.13	11.32	11.12	10.92	10.94	10.80	11.39	11.41	11.78	11.40	11.51	11.34	10.90	10.35	10.47	9.590	9.313	9.246	8.948	8.261	7.862	7.549	7.608	6.979	6.436	5.796	5.356	4.600	4.055	4.008	3.709	3.604	3.422	3.126	2.923	2.942	2.644	2.688	2.420	2.164	2.067	2.010	1.828	1.736	1.630	1.634	1.672	1.589	1.437	1.239	1.274	1.185	1.162	1.710	3.514
635.0	60.18	60.71	40.83	26.82	21.43	21.53	25.29	32.55	40.88	55.39	68.51	76.33	82.07	76.77	47.21	29.96	22.65	93.31	1005	4590	408.1	11.80	10.44	9.470	9.510	8.929	8.828	9.326	9.172	9.060	9.670	9.233	9.093	8.598	8.620	8.268	8.214	7.892	7.779	7.196	7.073	6.668	6.313	5.930	5.705	5.487	5.208	4.874	4.215	3.796	3.500	3.234	3.056	2.905	2.711	2.655	2.548	2.416	2.132	2.285	2.091	2.049	1.764	1.595	1.592	1.572	1.483	1.382	1.483	1.270	1.397	1.177	1.154	0.978	0.907	1.160	1.418
640.0	61.76	61.65	41.57	28.21	19.55	22.05	23.94	28.53	42.32	53.24	66.37	74.57	72.85	74.39	49.64	30.06	21.21	32.13	240.7	3476	2410	20.72	10.40	8.869	8.307	8.394	7.654	8.099	8.475	7.670	8.423	7.714	7.567	7.528	6.869	6.781	7.192	6.438	6.433	5.792	5.670	5.701	5.487	5.038	4.955	4.608	4.210	3.970	3.604	3.234	2.903	2.765	2.535	2.418	2.261	2.447	2.162	2.150	2.007	1.768	1.905	1.901	1.661	1.489	1.512	1.398	1.558	1.275	1.322	1.428	1.254	1.176	1.025	0.958	0.833	0.924	0.944
645.0	62.77	55.45	43.21	24.43	19.42	20.64	25.87	27.88	42.70	51.05	66.50	73.70	73.70	70.60	56.04	31.21	20.09	17.66	64.20	1451	4113	56.95	9.948	8.647	7.902	7.634	6.955	6.845	7.220	7.202	6.857	6.909	6.502	6.558	6.206	6.002	5.932	5.388	5.409	5.005	5.016	4.831	4.601	4.413	4.286	4.030	3.933	3.538	3.105	2.744	2.514	2.429	2.285	2.297	2.220	2.134	2.081	1.832	1.837	1.674	1.693	1.639	1.527	1.377	1.340	1.425	1.375	1.267	1.317	1.351	1.247	1.165	1.123	0.933	0.792	0.865	0.796
650.0	63.37	53.62	40.34	27.74	18.94	20.61	23.50	28.11	41.48	50.62	64.54	73.31	72.18	66.11	54.97	32.54	19.99	14.87	23.24	377.2	4107	1270	10.39	8.326	7.300	6.596	6.513	6.223	6.461	6.461	6.035	6.231	5.642	5.790	5.224	5.326	5.329	4.686	4.671	4.279	4.350	4.194	4.069	3.778	3.680	3.377	3.280	3.087	2.849	2.403	2.275	2.205	2.048	2.089	2.018	1.888	1.719	1.700	1.762	1.552	1.562	1.445	1.463	1.218	1.284	1.261	1.255	1.175	1.219	1.316	1.147	1.068	1.099	0.830	0.834	0.721	0.723
