Sample:	'1
File name:	L2025090918Ê¡¿Ø¶ÏÃæ.FD3
Run date:	'15:50:52, 09/09/2025
Operator:	Administrator
Comment:	'

Instrument
Model:	F-2700 FL Spectrophotometer
Serial number:	3064-004
ROM Version:	4J14000 07

Instrument parameters
Measurement type:	3-D scan
Data mode:	Fluorescence
EX  Start WL:	220.0 nm
EX  End WL:	600.0 nm
EX Sampling interval:	5.0 nm
EM  Start WL:	230.0 nm
EM  End WL:	650.0 nm
EM Sampling interval:	5.0 nm
Scan speed:	12000 nm/min
EX Slit:	5.0 nm
EM Slit:	5.0 nm
PMT Voltage:	700 V
Response:	Auto 
Corrected spectra:	Off
Contour interval:	50.000

Peak integration
Integration method:	Rectangular
Sensitivity:	1
Threshold:	1.000

Peaks
No.	ApexEX/EM(nm)	Height(Data)
1	230.0/590.0	39.17
2	230.0/615.0	29.20
3	230.0/635.0	25.54
4	235.0/625.0	23.66
5	245.0/265.0	330.8
6	245.0/630.0	24.03
7	250.0/625.0	27.79
8	255.0/280.0	625.1
9	260.0/285.0	780.9
10	260.0/450.0	 3798
11	265.0/290.0	731.9
12	265.0/575.0	199.9
13	270.0/295.0	 1133
14	270.0/590.0	164.2
15	275.0/305.0	 1435
16	275.0/605.0	147.4
17	280.0/310.0	 1431
18	280.0/335.0	 1153
19	280.0/385.0	 1232
20	280.0/615.0	123.9
21	285.0/315.0	 1449
22	285.0/350.0	 1172
23	285.0/630.0	100.5
24	290.0/320.0	 1416
25	290.0/640.0	78.21
26	295.0/330.0	 1110
27	300.0/335.0	991.7
28	305.0/340.0	 1011
29	305.0/380.0	 1108
30	310.0/345.0	886.0
31	315.0/355.0	862.5
32	320.0/360.0	981.7
33	335.0/380.0	 1108
34	340.0/385.0	 1087
35	365.0/450.0	 3159
36	445.0/525.0	62.92
37	470.0/280.0	2.193
38	485.0/265.0	2.216
39	505.0/275.0	3.146
40	510.0/280.0	3.450
41	520.0/285.0	3.865
42	520.0/450.0	14.39
43	525.0/290.0	3.911
44	530.0/465.0	13.38
45	535.0/295.0	4.930
46	545.0/300.0	6.077
47	550.0/305.0	7.321
48	560.0/310.0	6.357
49	570.0/315.0	7.628
50	575.0/290.0	74.24
51	575.0/320.0	7.425
52	580.0/325.0	7.450
53	595.0/330.0	5.781

Data points
	220.0	225.0	230.0	235.0	240.0	245.0	250.0	255.0	260.0	265.0	270.0	275.0	280.0	285.0	290.0	295.0	300.0	305.0	310.0	315.0	320.0	325.0	330.0	335.0	340.0	345.0	350.0	355.0	360.0	365.0	370.0	375.0	380.0	385.0	390.0	395.0	400.0	405.0	410.0	415.0	420.0	425.0	430.0	435.0	440.0	445.0	450.0	455.0	460.0	465.0	470.0	475.0	480.0	485.0	490.0	495.0	500.0	505.0	510.0	515.0	520.0	525.0	530.0	535.0	540.0	545.0	550.0	555.0	560.0	565.0	570.0	575.0	580.0	585.0	590.0	595.0	600.0
230.0	20.76	629.9	 3333	 2189	93.19	9.511	7.712	6.452	6.807	6.977	5.528	5.419	4.973	4.392	4.085	3.466	3.045	2.904	2.619	2.305	2.224	2.103	1.980	2.136	1.767	1.795	1.715	1.664	1.680	1.587	1.553	1.314	1.291	1.224	1.066	0.997	0.867	0.820	0.728	0.716	0.838	0.883	0.662	0.511	0.534	0.529	1.564	6.006	9.568	7.181	2.859	0.722	0.438	0.396	0.340	0.404	0.404	0.364	0.354	0.290	0.294	0.253	0.328	0.289	0.343	0.302	0.218	0.270	0.232	0.261	0.262	0.276	0.202	0.217	0.220	0.238	0.229
235.0	42.46	168.1	 1504	 4237	 1078	161.7	8.958	8.067	6.340	7.564	5.638	6.004	4.902	4.046	4.507	3.338	3.037	2.758	2.409	2.364	2.472	1.685	2.475	1.824	1.610	1.750	2.394	1.653	1.604	1.748	1.851	1.244	1.396	1.117	1.134	0.779	0.685	0.871	0.734	0.737	0.672	0.736	0.655	0.709	1.033	0.539	0.708	1.875	3.914	7.307	9.979	9.947	4.896	1.286	0.426	0.449	0.446	0.341	0.318	0.352	0.286	0.445	0.359	0.299	0.351	0.355	0.154	0.250	0.178	0.269	0.360	0.138	0.271	0.221	0.224	0.197	0.312
240.0	50.68	89.10	383.0	 2402	 4126	939.2	123.2	9.930	6.681	6.452	5.220	6.509	5.428	5.375	4.015	3.471	3.007	3.130	2.515	2.409	2.690	2.256	2.022	2.163	2.062	1.935	2.103	1.900	1.556	1.653	1.912	1.489	1.445	1.019	1.060	0.690	0.760	0.733	0.664	0.779	0.681	0.539	0.743	0.845	0.958	0.702	0.590	0.929	1.177	2.421	5.687	13.32	15.69	10.24	3.030	0.620	0.426	0.369	0.295	0.369	0.277	0.355	0.397	0.304	0.404	0.339	0.236	0.306	0.245	0.309	0.231	0.340	0.349	0.395	0.190	0.318	0.290
245.0	39.17	93.49	142.4	660.6	 2996	 4979	834.1	41.56	8.725	9.334	7.598	7.600	6.205	4.597	5.413	4.347	3.156	2.758	2.697	2.644	2.760	2.102	2.542	1.759	2.025	1.925	1.801	1.825	1.763	1.571	2.225	1.288	1.321	1.009	1.001	0.865	0.888	0.879	0.518	0.703	0.620	0.603	0.697	0.711	0.491	0.732	0.786	1.023	0.659	0.885	1.751	4.832	11.98	18.59	17.63	8.024	2.288	0.459	0.575	0.480	0.220	0.379	0.300	0.509	0.234	0.313	0.286	0.365	0.225	0.272	0.324	0.318	0.251	0.346	0.236	0.257	0.414
250.0	27.48	55.10	139.9	252.6	802.4	 3032	 6102	 2717	217.0	11.43	10.92	8.987	7.409	6.263	5.971	4.888	3.555	3.761	2.935	2.964	2.584	2.149	2.324	2.013	2.106	1.889	2.017	2.099	1.983	1.616	1.734	1.669	1.310	1.216	1.003	0.920	0.896	0.689	0.611	0.687	0.780	0.644	0.752	0.785	0.485	0.527	0.754	1.010	0.996	1.135	0.931	1.438	3.221	6.552	11.81	17.02	21.14	16.28	9.281	2.317	0.463	0.432	0.259	0.512	0.335	0.335	0.355	0.341	0.309	0.288	0.271	0.270	0.278	0.241	0.184	0.229	0.303
255.0	21.42	29.20	70.65	263.3	305.8	709.2	 2645	 7444	 4211	276.0	16.67	11.40	7.886	7.157	6.895	5.269	4.748	3.426	3.866	3.772	2.960	1.938	2.318	1.952	1.843	1.931	2.096	2.282	2.065	1.907	1.864	1.711	1.556	1.395	1.263	0.920	0.926	0.742	0.792	0.703	0.665	0.777	0.775	0.707	0.565	0.714	0.603	0.716	0.744	1.133	1.319	1.374	1.299	1.820	3.073	4.546	9.451	20.92	34.92	31.56	12.93	2.134	0.324	0.397	0.405	0.377	0.456	0.433	0.375	0.326	0.241	0.299	0.414	0.249	0.277	0.465	0.390
260.0	20.31	17.82	34.19	166.0	328.9	252.9	669.4	 3897	9999.9	 3618	157.6	16.71	10.56	9.052	7.270	5.062	5.314	3.770	3.584	3.137	3.244	1.954	2.602	2.369	2.250	2.543	2.336	2.349	1.915	2.141	1.804	1.703	1.502	1.488	1.248	1.048	0.806	0.639	0.832	0.808	0.679	0.751	0.761	0.719	0.427	0.647	0.556	0.593	0.484	0.524	0.985	1.453	1.875	1.206	1.056	1.459	2.553	6.128	17.81	36.32	46.55	30.57	8.369	1.073	0.315	0.332	0.391	0.401	0.265	0.364	0.399	0.282	0.210	0.181	0.366	0.243	0.339
265.0	24.26	16.55	23.24	64.74	267.1	330.8	206.0	 1033	 6276	9999.9	 2761	66.19	15.91	12.12	7.540	7.308	5.177	4.292	3.799	3.804	3.902	2.964	2.996	2.536	2.594	2.452	1.944	2.433	2.219	2.068	1.987	1.668	1.689	1.395	1.220	0.892	0.791	0.606	0.729	0.607	0.654	0.619	0.646	0.694	0.718	0.585	0.483	0.740	0.498	0.441	0.599	0.841	1.603	2.216	1.586	1.042	0.989	1.858	4.624	12.63	30.47	52.84	47.86	24.68	3.913	0.551	0.271	0.315	0.259	0.264	0.355	0.327	0.299	0.377	0.383	0.241	0.275
270.0	29.45	26.98	27.01	34.33	101.9	303.8	373.8	325.1	 1638	 7289	9999.9	 6659	172.7	18.32	12.59	8.575	5.819	5.030	4.449	3.943	3.601	2.805	2.900	2.665	2.770	2.302	1.958	2.249	2.178	2.408	1.968	1.626	1.616	1.534	1.247	1.262	0.838	0.720	0.838	0.674	0.658	0.660	0.646	0.722	0.843	0.698	0.559	0.527	0.568	0.433	1.022	0.513	0.783	1.285	1.979	1.941	1.923	1.309	1.486	3.255	7.720	17.00	29.99	45.42	50.54	33.80	17.82	4.109	0.429	0.366	0.425	0.313	0.291	0.378	0.419	0.356	0.236
275.0	39.59	52.64	44.04	42.61	44.41	105.2	384.3	519.4	453.8	 1706	 4126	9999.9	9999.9	208.9	18.55	11.93	8.540	5.642	5.774	4.505	3.890	3.772	2.936	2.496	2.352	2.317	2.230	2.256	2.255	2.304	2.486	2.316	1.434	1.664	1.478	1.513	1.126	0.991	0.980	0.768	0.673	0.844	0.639	0.886	0.831	0.819	0.813	0.619	0.755	0.621	1.908	0.416	0.580	0.720	1.036	1.199	2.626	3.146	1.988	1.388	2.341	4.412	7.301	11.31	20.14	46.68	83.34	50.46	24.28	2.658	0.582	0.366	0.255	0.362	0.360	0.368	0.306
280.0	56.55	67.34	60.69	54.52	37.38	48.61	167.7	625.1	451.8	463.7	 1055	 5449	9999.9	 2548	125.3	16.97	10.59	7.634	5.933	4.943	4.191	4.057	3.334	2.888	3.453	2.371	2.660	2.258	2.167	2.430	2.183	1.909	1.726	1.687	1.458	1.397	1.218	1.108	1.193	0.795	0.885	0.824	0.698	0.902	0.776	1.082	0.753	0.916	0.827	0.709	2.193	0.510	0.577	0.521	0.664	0.854	1.271	2.173	3.450	2.965	1.968	1.617	2.236	3.249	5.358	12.98	36.87	72.84	97.45	43.74	12.31	0.880	0.385	0.487	0.415	0.531	0.262
285.0	84.49	89.13	92.85	91.91	43.94	42.64	77.19	352.7	780.9	354.9	355.1	 1466	 7735	9999.9	 1928	61.54	15.96	9.326	7.140	5.737	4.450	4.333	3.747	2.974	3.648	2.872	2.706	2.580	2.385	2.076	2.486	1.807	2.074	1.839	1.375	1.540	0.971	1.144	1.216	1.082	0.883	0.853	0.778	0.653	1.209	0.893	1.046	0.893	0.798	0.847	1.661	0.561	0.580	0.519	0.575	0.705	0.856	1.198	1.946	3.456	3.865	2.154	1.432	1.663	1.888	3.900	9.177	22.19	55.56	100.2	98.31	33.20	4.755	0.573	0.354	0.534	0.415
290.0	118.5	138.7	156.7	125.9	78.72	64.26	77.85	167.5	495.6	731.9	421.8	558.1	 2093	 6897	9999.9	 7314	107.6	15.23	9.734	7.741	5.435	4.744	4.233	3.514	3.460	3.220	2.758	2.611	2.805	2.452	2.543	2.118	2.046	1.773	1.709	1.392	1.306	1.128	1.030	1.283	0.928	0.975	0.897	1.010	1.258	1.068	1.071	1.296	1.105	1.167	1.172	0.728	0.829	0.635	0.724	0.654	0.809	0.937	1.161	1.693	2.751	3.911	3.768	3.009	1.982	2.000	3.049	6.166	13.95	29.14	52.58	74.24	67.75	64.64	21.59	5.336	0.779
295.0	157.8	174.6	208.0	160.2	111.4	97.09	115.3	155.7	267.5	552.7	 1133	545.0	807.7	 1822	 3682	9999.9	9999.9	137.6	13.70	11.03	7.109	6.097	4.872	4.726	3.309	3.374	3.336	3.355	3.079	2.532	2.774	2.331	2.246	1.782	1.801	1.152	1.391	1.120	1.233	1.318	1.018	1.015	1.006	1.150	1.152	1.196	1.163	1.584	1.317	1.105	1.170	0.889	1.267	0.803	0.767	0.957	0.828	0.970	1.195	1.255	1.654	1.802	2.784	4.930	4.828	3.130	2.650	3.045	4.620	7.948	13.12	18.50	23.70	59.96	110.3	57.63	32.11
300.0	165.9	206.2	242.0	193.3	142.6	124.5	142.5	179.5	251.8	397.6	 1001	 1232	675.2	772.3	 1098	 4607	9999.9	 7378	91.15	13.79	10.44	6.780	6.022	4.396	3.635	4.234	3.583	3.507	2.935	2.881	2.785	2.749	2.309	1.727	1.688	1.492	1.590	1.274	1.389	1.210	0.910	1.182	1.176	0.992	1.163	0.986	1.270	1.729	1.358	1.399	1.108	1.073	1.300	0.892	1.047	1.032	0.856	1.212	1.335	1.206	1.390	1.615	1.893	3.231	4.941	6.077	5.297	2.976	2.901	3.568	4.714	5.804	6.773	15.52	44.26	85.63	127.3
305.0	167.0	219.3	258.5	225.0	169.4	160.8	176.8	221.2	297.1	387.6	701.7	 1435	 1092	641.3	573.5	 1263	 6483	9999.9	 1239	51.72	14.19	8.121	6.818	5.722	3.825	4.079	3.830	3.682	3.596	2.986	2.958	2.854	2.451	1.908	1.677	1.624	1.555	1.338	1.278	1.226	0.840	1.191	1.127	1.208	1.387	1.311	1.375	1.501	1.411	1.502	1.187	1.043	1.255	1.004	1.279	0.911	1.128	1.389	1.494	1.219	1.431	1.823	2.054	2.518	3.212	4.913	7.321	5.936	4.220	3.347	3.243	2.948	3.137	4.716	10.94	24.18	63.76
310.0	192.4	231.6	302.5	263.6	197.4	175.4	211.5	261.4	349.5	445.8	632.6	 1001	 1431	 1074	573.3	533.9	 1662	 5861	9999.9	 5045	77.48	14.10	8.622	7.437	5.453	4.793	4.078	3.872	3.283	3.261	2.596	2.529	2.227	2.104	1.719	1.544	1.463	1.390	1.262	1.279	1.257	1.264	1.312	1.334	1.354	1.475	1.574	1.427	1.518	1.415	1.254	1.101	1.260	1.262	1.270	1.287	1.254	1.607	1.400	1.362	1.611	1.876	2.125	2.441	2.892	3.430	4.743	5.746	6.357	5.933	4.373	3.373	2.872	2.510	3.761	6.488	15.51
315.0	200.4	274.7	329.8	296.9	229.5	215.7	238.6	301.5	399.6	506.1	666.0	885.2	 1087	 1449	988.2	468.5	570.0	 1441	 3218	9999.9	 7646	102.2	13.57	8.200	7.408	5.711	4.489	4.011	3.532	3.542	2.975	2.747	2.340	2.500	1.651	1.664	1.537	1.809	1.350	1.606	1.282	1.265	1.423	1.510	1.244	1.493	1.500	1.520	1.737	1.757	1.188	1.438	1.265	1.323	1.314	1.390	1.298	1.630	1.663	1.857	1.860	2.039	2.413	3.026	3.155	3.193	3.960	4.103	4.875	6.215	7.628	5.850	3.726	2.497	2.057	3.043	4.700
320.0	210.1	301.8	366.6	353.2	256.3	237.2	284.1	326.3	443.0	564.9	720.3	904.7	 1001	 1225	 1416	647.3	389.8	505.2	858.5	 4176	9999.9	 5910	69.38	11.93	8.259	6.448	5.433	3.695	3.993	3.717	3.189	2.973	2.342	2.083	1.589	1.852	1.751	1.656	1.653	1.629	1.388	1.324	1.194	1.404	1.318	1.467	1.617	1.618	2.059	1.875	1.398	1.469	1.307	1.387	1.286	1.214	1.483	1.742	1.741	1.949	2.155	2.269	2.414	3.263	3.393	3.456	4.095	4.160	4.506	4.696	6.040	7.425	6.509	3.929	2.568	2.458	2.732
325.0	205.2	345.5	469.6	428.4	288.1	270.0	314.2	361.5	469.5	602.0	772.4	930.2	 1031	 1052	 1314	 1059	449.7	349.2	353.5	 1082	 6219	9999.9	928.5	42.88	10.63	7.933	6.726	4.871	4.680	4.122	3.033	3.262	2.718	2.162	2.052	1.901	1.800	1.694	1.533	1.506	1.511	1.343	1.490	1.272	1.591	1.653	1.917	2.193	2.318	2.102	1.780	1.475	1.666	1.653	1.467	1.459	1.518	1.868	1.617	2.343	2.703	2.555	2.591	3.244	3.494	3.853	4.188	3.675	4.413	4.706	4.813	5.140	7.450	6.447	4.483	3.042	2.441
330.0	237.0	371.7	516.9	503.2	367.8	316.6	330.0	387.3	501.5	644.4	816.4	985.5	 1082	 1076	 1065	 1110	865.4	435.9	303.1	407.4	 1563	 5430	9999.9	 6537	61.08	11.80	8.428	5.637	5.071	4.250	3.540	3.431	3.046	2.084	2.378	1.744	1.739	1.664	1.433	1.375	1.469	1.499	1.521	1.397	1.643	1.762	1.869	2.480	2.544	2.399	1.905	1.692	1.789	1.703	1.526	1.702	1.863	2.147	1.990	2.386	2.574	2.834	3.028	3.441	3.952	3.856	4.372	4.109	4.803	4.473	4.624	4.975	5.179	5.387	5.628	5.781	4.607
335.0	236.7	373.5	565.4	576.7	430.9	367.4	381.3	427.8	521.9	677.4	874.3	 1018	 1153	 1140	 1031	922.4	991.7	836.4	398.7	323.0	515.2	 1324	 3246	9999.9	 6069	83.44	12.41	8.262	6.246	5.653	4.830	3.759	2.409	2.579	2.511	2.282	2.062	1.498	1.739	1.715	1.508	1.565	1.677	1.649	1.692	2.037	1.948	2.454	2.803	2.590	2.021	2.241	2.127	1.925	1.973	2.011	2.233	2.147	2.014	2.691	2.507	3.347	3.149	3.185	4.082	4.255	4.348	4.440	4.877	4.652	5.393	4.885	5.008	4.834	4.293	5.000	5.467
340.0	251.9	392.5	580.8	587.8	490.9	415.8	432.3	497.3	557.4	710.2	892.6	 1041	 1148	 1164	 1041	901.0	839.8	 1011	618.0	356.4	321.6	440.7	834.2	 4355	9999.9	 4848	57.07	9.922	8.162	5.931	5.259	4.333	3.181	2.284	2.670	2.205	1.922	1.576	1.538	1.400	1.617	1.176	1.343	1.971	1.661	1.992	1.905	2.422	2.802	2.494	2.058	2.115	2.323	2.280	2.034	2.131	2.356	2.270	2.170	2.660	2.647	2.906	3.324	3.515	4.063	4.171	4.636	4.641	4.953	4.712	5.649	4.856	5.222	4.343	4.245	4.486	4.771
345.0	233.8	382.1	561.3	596.3	525.8	442.7	475.6	527.6	603.7	724.8	912.7	 1055	 1149	 1169	 1076	908.3	775.2	885.5	886.0	477.8	326.2	289.6	322.8	 1108	 6184	9999.9	767.1	38.36	9.646	7.455	6.680	4.474	3.634	2.465	2.375	2.308	1.941	1.643	1.578	1.610	1.755	1.580	1.498	1.797	1.709	2.122	2.081	2.418	2.848	2.414	2.409	2.394	2.045	2.258	2.141	2.228	2.244	2.629	2.669	2.663	2.932	2.867	3.005	3.597	4.020	3.762	4.438	4.897	5.135	4.916	5.381	4.868	4.798	4.515	4.753	4.300	4.694
350.0	225.7	373.8	562.5	597.3	587.7	502.4	507.2	565.0	627.0	753.8	948.6	 1052	 1141	 1172	 1098	949.3	829.3	786.3	851.6	806.0	490.5	351.5	292.8	416.2	 1575	 5638	9999.9	 3271	54.68	11.50	7.407	5.017	4.352	3.360	2.811	2.382	1.991	1.725	1.757	1.685	1.431	1.452	1.541	1.582	1.939	2.077	2.095	2.486	2.758	2.423	2.401	2.462	2.394	2.339	2.303	2.197	2.429	2.648	2.737	2.878	2.765	3.167	3.522	3.806	4.201	3.992	4.373	4.409	5.041	5.022	5.332	4.835	4.909	4.869	4.656	4.869	4.632
355.0	203.1	356.8	521.0	600.2	614.2	572.8	564.3	628.6	707.1	818.3	966.3	 1095	 1136	 1167	 1120	992.9	911.8	830.7	786.6	862.5	842.7	517.6	404.8	365.1	558.5	 1413	 3468	9999.9	 5190	73.80	11.54	7.135	4.637	4.290	3.325	2.487	1.927	2.033	1.967	1.568	1.629	1.609	1.600	1.498	1.656	1.857	1.902	2.350	2.421	2.499	2.533	2.758	2.418	2.436	2.528	2.564	2.534	2.722	3.254	2.839	3.227	3.205	3.619	3.828	4.542	4.377	4.699	4.576	5.067	5.146	5.412	4.784	5.173	4.978	5.214	4.932	5.042
360.0	208.5	358.7	527.2	647.1	652.5	616.2	640.7	684.8	789.9	879.2	 1001	 1101	 1167	 1173	 1127	 1047	974.3	889.9	832.9	832.6	981.7	773.1	523.1	431.3	402.4	525.9	943.3	 4575	9999.9	 4139	51.93	9.754	6.047	4.820	3.738	3.071	2.401	2.092	2.255	1.804	1.642	1.580	1.776	1.416	1.636	1.913	2.017	2.705	2.639	2.426	2.632	2.607	2.823	2.669	3.074	2.846	2.722	2.643	3.229	3.131	3.511	3.854	3.825	3.544	4.409	4.649	5.050	5.017	5.245	4.631	5.237	5.225	5.584	4.961	5.321	5.212	4.928
365.0	237.1	353.1	512.5	649.6	656.1	679.0	698.1	735.3	814.4	944.0	 1050	 1125	 1159	 1186	 1144	 1079	 1013	944.7	899.2	860.9	945.2	996.4	702.6	535.7	439.0	397.9	408.4	 1208	 6421	9999.9	686.1	31.33	7.908	5.889	4.011	3.464	2.615	2.451	2.259	1.892	1.577	1.464	1.647	1.842	1.686	1.920	2.029	2.539	2.726	2.533	2.409	2.621	3.029	2.535	2.838	3.161	3.041	3.111	3.590	3.535	3.587	4.040	3.855	3.955	4.621	4.376	4.677	5.021	5.138	5.172	5.538	5.478	5.477	5.113	5.608	5.785	5.598
370.0	227.1	352.9	496.4	632.5	676.3	716.2	753.9	799.7	859.9	972.4	 1100	 1159	 1192	 1191	 1163	 1100	 1054	 1021	982.0	960.2	947.8	 1005	984.9	752.7	565.9	461.0	371.1	460.4	 1651	 5745	 9949	 2869	44.81	9.469	5.363	4.006	3.223	2.555	2.261	1.990	1.846	1.699	1.756	1.630	1.893	2.177	2.145	2.417	2.655	2.300	2.571	2.812	3.069	2.842	2.982	3.349	3.112	3.100	3.551	3.792	3.787	3.985	4.086	4.277	4.990	4.352	4.770	5.078	5.279	5.240	5.373	5.440	5.681	5.455	5.433	6.357	5.712
375.0	202.1	345.1	478.4	651.3	706.6	774.8	805.1	829.2	903.4	 1007	 1150	 1179	 1200	 1191	 1160	 1120	 1089	 1077	 1065	 1053	 1027	 1007	 1047	 1032	744.6	574.6	451.5	372.7	541.6	 1397	 3665	9999.9	 4279	57.36	9.073	5.088	4.000	2.581	2.443	2.021	1.942	1.816	1.943	1.722	2.094	1.949	2.275	2.323	2.743	2.204	2.627	2.808	3.369	3.378	3.205	2.952	3.363	3.774	3.842	3.911	3.858	4.370	4.419	4.563	5.146	4.482	5.059	5.552	5.610	5.424	5.665	5.682	5.382	5.814	5.420	6.203	6.505
380.0	196.8	340.2	518.1	664.5	723.3	802.8	858.5	890.2	947.4	 1024	 1168	 1193	 1217	 1201	 1166	 1124	 1096	 1108	 1099	 1098	 1077	 1047	 1034	 1108	943.8	674.7	531.0	403.8	344.6	456.8	941.2	 4833	9999.9	 3177	39.12	7.963	5.085	3.704	2.643	2.493	1.962	2.087	2.145	1.828	2.159	2.001	2.017	2.420	2.800	2.469	2.462	2.907	3.461	3.146	3.604	3.372	3.231	3.488	4.092	3.890	3.811	4.324	4.501	4.642	5.128	5.112	5.208	4.991	5.442	5.510	5.197	5.385	5.255	5.635	5.550	5.532	5.863
385.0	218.1	331.6	507.3	670.8	734.3	796.0	881.7	937.1	959.1	 1069	 1162	 1207	 1232	 1195	 1152	 1113	 1105	 1107	 1122	 1126	 1126	 1087	 1064	 1070	 1087	819.5	607.3	467.8	349.5	291.8	339.0	 1245	 6300	9999.9	535.2	21.15	6.836	5.033	3.424	2.801	2.387	2.267	1.725	1.557	2.301	2.063	2.083	2.322	2.607	2.615	2.559	3.363	3.188	3.123	3.441	3.615	3.167	3.595	3.295	4.004	3.819	4.300	4.260	4.728	4.710	4.806	5.197	4.771	5.246	5.255	5.628	5.315	5.375	5.827	5.875	5.817	5.992
390.0	216.2	343.5	513.8	665.0	767.5	832.0	903.4	941.7	993.9	 1083	 1175	 1221	 1214	 1185	 1150	 1101	 1093	 1108	 1128	 1151	 1159	 1136	 1106	 1073	 1068	 1015	770.3	574.1	435.6	329.2	265.6	412.2	 1618	 5496	 7795	 2189	35.34	8.004	4.878	3.350	2.844	2.302	2.057	2.261	2.090	2.154	2.305	2.446	2.587	2.590	2.518	3.485	3.340	3.252	3.463	3.448	3.919	3.839	3.771	4.493	3.896	4.432	4.651	4.736	4.795	4.862	5.151	4.965	5.419	5.180	5.188	5.418	5.468	5.737	5.908	5.748	5.970
395.0	229.1	365.6	506.9	681.4	791.8	867.5	937.3	979.6	 1068	 1131	 1197	 1217	 1231	 1172	 1145	 1102	 1091	 1108	 1121	 1160	 1172	 1171	 1150	 1106	 1061	 1051	 1003	742.2	559.8	440.7	343.4	299.4	499.8	 1327	 3087	 8470	 3322	47.22	7.675	5.121	3.784	3.018	2.144	2.203	2.412	2.321	2.407	2.564	2.522	2.464	2.568	3.131	3.460	3.589	3.645	3.840	4.197	4.089	4.086	4.026	4.226	4.542	4.668	5.270	5.307	5.068	5.149	5.122	5.555	5.576	5.390	5.323	5.305	5.630	5.875	5.990	5.840
400.0	222.8	368.6	530.0	687.1	822.7	902.8	974.3	 1056	 1124	 1170	 1248	 1243	 1249	 1196	 1131	 1093	 1083	 1103	 1129	 1158	 1188	 1203	 1199	 1155	 1108	 1059	 1081	929.3	691.6	553.9	439.7	346.5	307.0	429.4	805.4	 4177	 8736	 2414	30.32	7.857	4.634	3.693	2.390	2.388	2.571	2.454	2.371	2.605	2.665	2.853	2.777	3.185	3.557	3.409	3.744	4.329	4.166	4.394	4.535	4.245	4.584	4.367	4.696	5.097	5.587	5.484	5.298	5.137	5.579	5.341	5.021	5.647	6.002	5.308	5.700	5.834	6.152
405.0	240.3	352.9	557.0	705.5	843.7	963.1	 1043	 1141	 1219	 1280	 1332	 1325	 1305	 1209	 1128	 1082	 1061	 1091	 1130	 1163	 1195	 1222	 1223	 1209	 1172	 1129	 1111	 1088	858.5	699.6	572.0	445.3	338.7	287.6	309.0	 1101	 5376	 7821	443.8	17.27	6.556	4.033	3.229	2.811	2.538	2.361	2.571	2.833	2.996	2.770	2.869	3.374	3.735	3.986	3.957	4.379	4.004	4.616	5.152	4.407	5.080	4.694	4.836	4.713	5.601	5.335	5.344	5.531	5.718	5.328	5.274	5.897	5.350	5.279	5.695	5.648	6.113
410.0	246.5	381.5	577.2	762.7	941.8	 1092	 1226	 1346	 1449	 1478	 1500	 1483	 1423	 1271	 1139	 1067	 1051	 1076	 1115	 1161	 1211	 1252	 1286	 1300	 1300	 1285	 1255	 1253	 1193	 1010	828.9	661.5	511.5	387.5	288.2	391.0	 1402	 4336	 5995	 1889	31.10	7.182	4.318	3.365	3.010	2.705	2.595	2.820	3.052	3.211	3.064	3.893	4.202	4.282	4.114	5.185	5.250	5.754	5.874	5.605	5.978	5.778	6.236	5.763	5.927	6.197	5.906	6.234	6.365	5.551	5.623	5.341	5.580	5.260	5.769	5.441	5.956
415.0	246.8	397.0	645.4	850.1	 1037	 1282	 1466	 1655	 1761	 1762	 1736	 1683	 1579	 1365	 1164	 1061	 1039	 1069	 1114	 1170	 1234	 1302	 1367	 1426	 1451	 1499	 1502	 1469	 1484	 1433	 1200	972.3	764.1	577.3	406.9	315.7	455.2	 1059	 2440	 6475	 2716	41.41	6.942	4.532	4.013	3.254	2.716	3.058	3.166	3.204	3.094	4.309	4.183	4.987	5.178	5.089	5.993	6.298	6.415	6.548	7.296	7.450	6.830	6.525	6.799	6.910	7.583	7.179	6.607	6.585	5.634	5.374	5.518	5.733	6.020	5.613	5.421
420.0	264.3	435.8	671.2	914.7	 1173	 1448	 1670	 1961	 2068	 2024	 1949	 1893	 1710	 1439	 1182	 1062	 1053	 1059	 1111	 1180	 1267	 1357	 1445	 1525	 1604	 1667	 1702	 1712	 1710	 1714	 1544	 1263	987.5	752.0	530.2	370.5	286.4	351.2	632.4	 3212	 6602	 1936	26.16	5.793	4.366	3.788	3.464	3.264	3.406	3.331	3.343	4.433	4.702	5.373	5.866	6.183	6.870	7.043	7.603	7.725	8.747	8.153	7.710	7.521	7.920	7.295	7.922	8.473	7.105	7.022	5.866	5.543	5.543	5.485	5.495	5.643	5.764
425.0	293.6	452.9	681.7	998.1	 1294	 1611	 1940	 2257	 2354	 2293	 2209	 2089	 1907	 1538	 1237	 1068	 1044	 1061	 1114	 1199	 1291	 1401	 1523	 1629	 1744	 1828	 1920	 1949	 1968	 1962	 1863	 1559	 1229	926.3	663.7	452.2	303.5	222.7	225.7	837.5	 4083	 5886	399.7	12.52	5.529	4.908	3.785	3.669	3.852	3.546	3.484	5.118	5.390	6.168	6.129	7.153	7.708	8.459	8.700	9.272	9.451	8.998	8.322	8.861	8.386	8.628	8.289	8.509	7.318	7.473	6.186	5.908	5.446	5.574	5.180	5.791	5.538
430.0	472.2	492.6	748.7	 1079	 1442	 1873	 2280	 2653	 2822	 2663	 2507	 2380	 2099	 1663	 1272	 1093	 1055	 1071	 1134	 1232	 1342	 1472	 1621	 1770	 1931	 2059	 2210	 2297	 2337	 2326	 2207	 1982	 1583	 1182	854.1	587.4	380.3	242.7	164.7	255.2	 1040	 3232	 3941	 1555	27.32	6.129	4.982	4.531	4.502	4.003	4.077	5.719	5.883	6.912	7.524	8.301	8.752	9.970	10.35	10.61	11.29	10.57	9.562	9.664	9.663	9.761	9.365	9.513	8.441	7.795	6.907	6.382	5.640	5.507	5.614	6.081	5.799
435.0	937.1	572.5	810.6	 1179	 1614	 2116	 2647	 3052	 3257	 3055	 2848	 2661	 2324	 1811	 1336	 1120	 1065	 1076	 1139	 1258	 1368	 1541	 1721	 1917	 2110	 2286	 2476	 2623	 2699	 2709	 2558	 2302	 1942	 1466	 1041	724.8	471.0	294.6	183.2	147.9	287.8	758.9	 1674	 5225	 2394	36.13	6.249	5.575	5.133	4.846	4.510	6.060	6.996	7.394	7.952	9.692	10.57	11.29	12.04	12.60	12.17	11.87	11.34	10.70	10.75	10.30	11.30	9.858	9.508	7.968	7.123	6.627	6.400	6.112	5.541	5.541	6.831
440.0	 1222	789.4	822.0	 1271	 1739	 2218	 2832	 3307	 3540	 3266	 3021	 2837	 2424	 1860	 1348	 1117	 1058	 1070	 1136	 1246	 1384	 1557	 1761	 1970	 2183	 2406	 2624	 2813	 2919	 2937	 2784	 2477	 2130	 1677	 1179	810.3	531.3	334.3	210.4	137.2	131.7	213.7	418.2	 2593	 5663	425.7	22.38	7.283	5.903	5.489	4.859	5.723	6.968	8.347	8.980	9.738	12.09	12.81	12.69	13.79	13.18	12.63	12.82	11.31	11.42	10.96	11.27	11.54	10.69	8.600	7.189	7.166	6.377	6.076	5.888	5.849	6.229
445.0	 1088	 1326	887.9	 1301	 1802	 2305	 2917	 3489	 3740	 3436	 3187	 2945	 2528	 1876	 1342	 1115	 1050	 1060	 1135	 1234	 1375	 1549	 1790	 2005	 2229	 2480	 2722	 2920	 3056	 3070	 2933	 2620	 2231	 1796	 1301	876.0	581.7	372.9	232.9	151.5	107.3	99.67	130.4	657.3	 3494	 4972	338.7	14.24	6.760	5.952	5.302	6.518	7.594	8.390	9.527	10.10	12.47	12.86	13.74	13.79	13.56	13.18	12.66	11.77	12.19	11.50	12.34	10.89	10.27	9.376	7.739	7.075	6.694	5.919	5.865	5.977	6.000
450.0	622.2	 1871	 1350	 1307	 1800	 2354	 2992	 3566	 3798	 3522	 3209	 2978	 2568	 1865	 1331	 1098	 1028	 1023	 1086	 1193	 1349	 1533	 1749	 1985	 2236	 2488	 2737	 2952	 3110	 3159	 3013	 2704	 2282	 1832	 1391	966.3	631.5	409.2	262.0	172.4	118.3	87.15	76.14	180.7	884.6	 2852	 3567	 1376	24.89	7.180	6.139	7.318	7.454	8.421	9.792	10.83	11.72	13.16	13.37	14.29	14.39	13.82	13.06	12.56	12.38	11.68	12.02	11.13	10.44	8.979	7.866	7.627	6.460	6.218	5.951	5.846	5.852
455.0	395.7	 1447	 2528	 1326	 1790	 2370	 2989	 3498	 3713	 3493	 3181	 2966	 2512	 1836	 1282	 1036	977.4	968.3	 1025	 1133	 1280	 1461	 1665	 1911	 2158	 2426	 2687	 2898	 3083	 3120	 3000	 2706	 2277	 1823	 1392	 1021	677.8	435.6	288.4	193.8	132.9	98.33	74.98	83.06	229.5	664.0	 1504	 4762	 2086	28.90	7.824	7.393	7.916	7.900	9.505	11.15	11.84	13.08	13.43	14.15	13.91	14.14	13.09	12.62	11.75	11.97	11.32	11.00	10.80	9.036	8.082	6.914	5.841	6.089	5.851	5.432	5.188
460.0	332.6	855.8	 3059	 1897	 1734	 2302	 2885	 3469	 3646	 3428	 3099	 2898	 2447	 1790	 1229	998.0	933.8	919.6	996.3	 1074	 1221	 1387	 1603	 1826	 2070	 2333	 2580	 2794	 2980	 3044	 2930	 2639	 2231	 1793	 1362	 1013	704.7	451.4	300.4	204.3	146.4	108.1	84.83	68.24	89.00	178.3	370.8	 2317	 5113	 1363	19.01	8.293	8.126	8.774	9.556	10.66	11.52	12.76	12.86	14.10	14.04	13.33	13.18	12.10	11.35	11.50	11.13	10.53	10.26	8.518	8.000	6.399	5.532	5.275	5.247	5.405	5.327
465.0	309.6	567.3	 2507	 2910	 1655	 2199	 2777	 3260	 3466	 3295	 2964	 2764	 2331	 1715	 1172	949.7	880.0	879.5	938.7	 1024	 1151	 1314	 1510	 1726	 1963	 2213	 2448	 2670	 2856	 2916	 2827	 2531	 2154	 1721	 1316	965.7	706.3	470.5	309.7	217.3	160.4	117.2	91.66	70.99	62.89	73.01	108.8	584.3	 3175	 4262	274.6	13.66	8.532	8.707	9.183	10.01	11.00	11.65	11.85	13.11	12.91	12.70	13.38	10.98	10.58	11.04	10.57	10.52	9.692	8.399	7.130	6.369	5.204	4.830	4.869	5.036	5.469
470.0	288.0	472.6	 1361	 3554	 2270	 2049	 2537	 3031	 3201	 3031	 2729	 2561	 2157	 1568	 1089	871.9	797.5	804.4	843.0	932.1	 1045	 1191	 1380	 1574	 1784	 2026	 2235	 2451	 2613	 2677	 2604	 2349	 2010	 1603	 1224	898.4	657.5	477.8	323.2	223.7	166.8	126.6	99.75	78.63	63.92	55.13	54.90	153.9	794.3	 2339	 2670	 1184	24.31	8.607	9.080	9.397	10.40	11.14	12.06	12.59	12.11	12.14	12.02	10.71	10.33	10.07	9.656	9.783	8.911	7.430	6.310	5.869	5.014	4.673	4.785	5.038	5.108
475.0	254.5	437.1	808.5	 2371	 3546	 1922	 2288	 2751	 2917	 2763	 2460	 2334	 1994	 1430	978.4	790.4	727.1	721.4	754.9	826.0	932.1	 1066	 1230	 1392	 1606	 1800	 2004	 2197	 2341	 2410	 2345	 2125	 1819	 1452	 1124	823.7	594.2	440.4	332.8	234.3	169.3	135.9	105.2	85.59	68.59	56.59	45.29	61.16	196.3	538.5	 1084	 3210	 1531	30.56	8.776	9.368	9.755	11.16	11.17	11.58	11.60	11.48	10.84	9.980	9.441	9.731	8.928	8.840	8.094	6.698	5.595	5.733	4.587	4.610	4.068	4.324	4.364
480.0	238.1	384.1	627.3	 1379	 3775	 2387	 2109	 2534	 2701	 2498	 2291	 2123	 1816	 1327	903.1	730.6	675.0	663.1	695.6	761.8	852.0	968.6	 1123	 1277	 1456	 1649	 1831	 2001	 2130	 2196	 2137	 1945	 1671	 1354	 1042	770.4	553.9	401.4	317.8	244.3	174.1	136.9	108.7	88.69	72.32	59.65	46.23	41.16	65.13	136.3	263.2	 1444	 3385	368.2	20.35	8.773	10.03	9.943	9.632	10.05	10.71	10.31	9.839	8.947	8.404	9.062	8.640	8.349	7.848	6.173	4.805	4.991	4.436	4.007	3.535	4.313	4.053
485.0	225.1	360.6	541.5	941.4	 2950	 3385	 1970	 2317	 2466	 2288	 2075	 1951	 1672	 1197	835.8	680.6	623.6	610.7	626.7	686.0	777.0	882.2	 1019	 1157	 1327	 1499	 1674	 1822	 1958	 2007	 1963	 1792	 1530	 1250	957.9	718.8	514.3	380.8	290.5	248.8	184.5	137.0	109.6	91.00	73.39	61.69	47.07	38.31	37.38	48.17	72.20	357.2	 1986	 2876	304.2	11.92	9.584	9.040	9.091	9.483	9.082	9.640	9.178	8.666	7.917	7.929	7.495	7.569	7.178	5.848	4.917	4.373	3.939	3.442	3.802	3.856	3.924
490.0	187.0	322.6	516.4	738.8	 1635	 3771	 2528	 2070	 2175	 2048	 1873	 1743	 1489	 1075	761.1	612.0	558.7	547.1	558.4	611.3	692.0	776.6	905.8	 1023	 1168	 1318	 1475	 1610	 1722	 1776	 1725	 1586	 1356	 1110	862.5	644.6	467.8	348.1	261.6	221.7	189.9	146.7	110.2	89.22	74.58	61.52	49.85	39.86	33.11	28.87	30.91	92.00	489.7	 1522	 2394	 1041	25.54	8.614	8.592	8.964	8.173	8.684	8.426	7.813	7.522	7.326	7.277	6.677	6.338	5.349	4.536	4.104	3.638	3.265	3.619	3.369	3.500
495.0	175.5	275.1	496.1	641.2	 1026	 2456	 3922	 1946	 1881	 1773	 1614	 1538	 1304	937.6	654.1	533.6	482.7	485.2	486.2	527.1	594.6	681.7	771.1	879.7	996.3	 1128	 1270	 1380	 1472	 1518	 1483	 1368	 1176	969.6	749.1	571.3	415.6	311.9	235.8	193.1	169.5	152.7	116.6	90.28	73.45	62.18	51.33	39.56	33.33	26.24	22.27	33.46	120.0	349.7	901.3	 2708	 1487	31.06	8.308	8.326	7.907	7.447	6.852	6.494	6.402	6.224	6.279	5.807	5.731	5.046	4.216	3.974	3.174	2.743	2.894	3.106	2.726
500.0	155.9	234.9	445.0	597.4	842.5	 1472	 4151	 2460	 1679	 1595	 1453	 1338	 1171	840.3	595.2	492.6	447.1	430.2	438.7	475.3	531.9	614.7	691.1	780.4	886.2	 1001	 1117	 1216	 1306	 1339	 1322	 1216	 1054	861.7	671.6	511.6	381.9	282.0	218.5	177.4	147.9	141.8	121.7	91.21	72.96	60.77	51.03	40.90	33.72	26.46	21.26	20.41	37.19	88.65	214.5	 1203	 3051	387.4	20.07	8.286	7.627	7.218	6.316	6.173	5.871	5.837	5.759	5.100	4.860	4.394	3.631	3.347	2.803	2.478	2.639	2.891	2.823
505.0	138.0	214.6	383.8	563.7	722.0	 1027	 3081	 3635	 1538	 1415	 1303	 1212	 1037	745.6	527.3	433.4	396.7	390.5	394.5	430.8	471.8	531.7	619.5	694.3	787.1	889.6	986.3	 1073	 1156	 1187	 1171	 1085	932.4	762.7	602.0	457.7	345.7	259.5	203.2	163.1	136.2	124.8	118.7	94.14	72.17	57.64	48.57	39.34	32.67	25.83	20.93	17.71	18.96	29.82	56.64	293.1	 1703	 2716	321.8	10.76	7.102	6.134	5.496	5.534	5.479	5.243	5.060	4.709	4.537	4.164	3.225	2.875	2.527	2.513	2.219	2.744	2.143
510.0	119.7	180.9	303.6	490.0	625.8	805.7	 1631	 4076	 2553	 1217	 1111	 1026	889.8	650.8	461.0	373.2	341.1	340.9	335.8	367.6	406.9	450.5	524.9	586.5	665.4	749.3	835.3	911.0	976.9	 1001	989.9	912.4	790.0	648.4	513.9	393.7	299.0	228.1	180.2	145.3	122.9	108.8	102.1	95.82	74.16	57.73	46.93	38.46	30.80	25.60	21.11	17.10	15.21	16.00	21.71	72.88	414.3	 1397	 2139	890.0	22.96	6.221	5.657	4.845	4.725	4.471	4.097	4.109	4.114	3.397	3.009	2.289	2.246	2.117	2.062	2.369	2.180
515.0	107.6	150.3	236.4	406.8	563.1	668.3	968.6	 2441	 4858	 1184	941.6	875.0	744.6	552.5	392.1	323.7	294.9	287.5	288.2	317.2	337.2	379.1	435.6	495.1	555.0	625.4	701.6	758.2	807.2	831.6	826.0	757.7	661.9	542.9	433.6	331.9	254.0	197.5	157.1	128.2	108.1	95.05	85.05	82.76	78.49	58.98	45.90	37.99	31.12	25.09	20.79	17.54	14.42	12.88	13.16	23.65	99.15	319.0	777.1	 2263	 1179	28.08	5.019	4.465	3.960	4.219	3.683	3.795	3.293	3.136	2.704	2.054	1.677	2.054	1.975	1.769	1.702
520.0	89.63	139.4	208.0	344.7	515.1	603.2	760.6	 1317	 5131	 1915	822.5	772.3	653.2	491.7	342.9	293.8	254.8	255.3	260.7	273.1	297.7	334.8	383.7	426.5	482.2	537.3	603.3	650.0	708.8	716.6	709.7	657.6	573.4	479.0	381.2	293.0	224.0	178.4	138.4	114.6	97.47	84.25	74.75	70.24	73.38	61.78	45.53	36.33	30.15	24.19	19.74	17.62	14.12	11.96	11.46	12.13	29.10	77.90	183.7	 1008	 2375	374.2	13.41	4.178	3.850	3.941	3.358	3.111	3.169	2.822	2.445	1.876	1.546	1.972	2.000	1.496	1.595
525.0	76.94	120.3	191.5	295.0	455.8	554.0	651.8	867.2	 3421	 3512	786.2	674.1	580.7	432.8	312.4	257.4	228.1	225.2	226.5	240.2	267.1	293.0	337.2	372.0	425.9	473.4	520.1	566.4	612.9	629.3	621.0	573.8	501.4	414.8	336.2	259.5	202.5	157.5	124.2	104.0	89.88	76.98	68.68	60.75	61.94	62.92	48.24	34.90	28.52	23.10	19.42	16.44	14.52	11.44	10.65	9.544	13.06	23.71	47.18	244.1	 1318	 2007	280.7	6.077	3.769	3.582	3.077	3.111	2.848	2.176	2.057	2.008	1.683	1.667	1.866	1.303	1.804
530.0	66.03	106.8	166.9	234.4	363.9	512.1	550.3	661.4	 1480	 4046	 1804	578.2	488.4	369.6	273.8	223.3	198.9	191.1	192.8	203.9	224.6	243.4	281.0	311.6	352.0	392.3	436.0	475.7	512.6	526.1	521.7	475.2	416.8	347.7	282.5	218.9	172.1	134.0	106.5	91.26	78.80	69.17	61.22	53.12	50.64	51.84	48.26	36.50	26.55	22.09	18.40	15.87	12.86	11.98	10.38	9.120	9.162	10.68	16.08	60.11	321.1	 1030	 1522	633.0	19.84	3.538	3.007	2.792	2.457	2.030	2.006	1.701	1.488	1.502	1.533	1.181	1.382
535.0	66.68	86.05	131.8	187.2	282.7	435.3	480.8	521.9	743.4	 2082	 4030	657.3	412.0	312.2	233.3	190.4	170.8	159.9	164.9	172.2	183.5	204.8	231.9	256.4	288.4	318.9	353.7	393.5	412.3	427.4	431.5	392.5	343.2	285.8	232.2	185.6	144.5	112.7	91.00	77.49	67.96	61.74	51.75	47.42	43.21	40.13	42.18	39.41	27.85	21.38	17.35	15.07	11.91	11.03	10.13	9.418	7.703	7.795	8.550	18.73	76.17	234.6	561.4	 1651	400.3	22.16	3.373	2.646	2.424	2.002	1.708	1.425	1.560	1.290	1.063	1.243	1.283
540.0	54.15	75.18	103.4	166.4	231.2	349.0	470.2	450.3	522.0	913.9	 4311	 1573	363.6	269.4	205.3	166.4	146.4	142.2	144.1	148.6	159.4	181.9	200.7	220.8	247.9	274.6	305.4	335.0	352.1	364.2	363.7	333.6	290.0	244.4	198.7	158.1	123.0	98.16	80.69	68.70	61.14	53.88	46.33	40.75	38.57	34.98	34.47	36.59	30.28	20.76	15.44	13.57	11.84	10.69	9.164	8.842	7.544	7.256	7.104	8.508	21.10	56.49	132.2	748.3	 1606	334.5	8.558	2.959	2.529	2.011	1.576	1.340	1.169	1.169	0.926	1.172	0.967
545.0	53.52	69.18	91.05	149.3	195.8	281.0	424.0	385.7	436.7	520.0	 2752	 3388	354.8	238.2	180.6	141.3	131.6	125.7	125.6	130.4	141.0	154.6	169.3	186.7	210.8	238.9	263.0	288.8	301.9	313.4	307.3	285.7	249.1	209.3	173.3	137.2	108.9	86.34	72.18	62.26	54.37	47.48	44.68	38.48	34.15	30.42	28.35	31.13	29.94	22.33	14.87	12.65	11.21	10.14	8.692	7.954	7.589	7.223	6.159	6.305	8.684	16.43	32.94	181.5	950.8	 1431	52.78	3.816	2.525	1.898	1.726	1.555	1.115	1.154	1.057	1.156	1.086
550.0	44.82	59.22	82.51	119.5	163.7	218.4	336.5	378.9	349.4	356.6	 1015	 3867	 1403	202.1	148.2	118.5	105.9	103.4	103.2	106.6	116.3	126.5	137.8	156.2	169.7	191.9	209.2	229.5	243.9	256.9	250.6	231.4	202.4	169.7	139.5	111.8	89.23	72.20	59.42	51.69	44.84	39.96	36.43	32.21	28.04	26.23	24.11	23.30	25.35	23.18	16.19	12.01	10.03	8.926	7.937	7.486	7.309	7.133	5.922	5.601	5.678	7.163	10.56	43.63	233.2	759.0	 1033	228.9	15.31	2.255	1.696	1.553	1.098	1.062	0.826	0.923	0.939
555.0	42.36	48.93	83.32	98.97	129.8	165.7	228.2	361.1	286.4	279.6	409.9	 1728	 3710	284.1	121.1	98.75	88.04	81.71	83.25	85.74	95.01	102.5	109.8	122.6	134.9	147.6	163.6	178.8	191.5	196.5	195.8	181.2	158.8	137.2	110.9	87.85	70.19	55.93	49.18	41.82	36.78	33.13	29.97	26.88	23.67	22.52	20.51	18.29	17.96	20.32	17.69	11.82	9.184	7.631	7.327	6.830	6.710	6.243	5.844	5.167	5.135	5.189	5.856	13.36	54.85	173.1	410.1	 1070	352.1	14.48	2.119	1.522	1.127	1.001	1.027	0.889	0.773
560.0	33.12	51.34	69.36	79.70	112.0	129.6	179.2	293.0	272.4	228.2	241.6	623.2	 3993	 1216	103.1	83.67	74.12	69.69	68.80	70.45	78.49	85.07	90.19	96.78	112.1	123.8	132.2	146.8	156.3	160.9	157.0	148.5	131.6	112.8	89.57	70.94	59.57	47.28	40.33	34.90	30.60	27.85	25.54	22.54	19.80	19.09	16.55	15.40	13.98	15.48	16.77	11.97	9.062	6.799	6.614	5.884	5.969	5.938	5.868	5.335	4.880	4.755	4.581	6.507	15.32	41.59	98.56	527.5	 1034	256.2	5.013	1.730	1.257	0.977	0.788	0.767	0.903
565.0	30.84	46.31	65.80	74.94	91.24	113.5	145.1	229.2	272.6	190.2	189.3	276.7	 2443	 2740	115.2	68.71	62.80	62.65	58.07	59.74	65.87	70.40	74.73	82.67	94.03	102.4	110.0	123.5	131.0	134.8	131.1	119.6	108.0	92.02	75.90	60.16	49.65	39.18	33.94	30.05	25.73	23.60	21.93	19.77	17.96	17.09	15.07	13.36	11.73	11.35	13.64	12.47	9.621	6.153	6.387	5.799	5.151	4.866	5.718	5.720	4.966	5.203	4.760	5.245	7.173	12.95	25.85	132.2	657.0	888.0	47.91	2.568	1.550	1.015	0.910	0.698	0.577
570.0	31.29	37.99	54.66	58.85	76.02	92.65	109.3	159.6	246.9	182.5	147.0	165.4	794.3	 3548	 1141	59.82	51.55	51.32	47.62	49.54	50.21	54.40	60.00	66.34	72.35	77.76	86.21	94.65	97.59	103.4	100.5	93.63	82.71	70.19	59.72	45.70	38.89	31.44	27.15	23.88	20.70	19.20	17.58	15.63	15.10	13.36	12.27	11.15	9.481	8.870	9.315	10.71	9.591	6.817	5.753	5.288	5.205	5.154	5.224	5.303	5.524	5.258	5.099	5.646	5.763	7.512	10.16	33.33	166.5	497.1	529.8	192.9	9.489	1.239	0.899	0.658	0.527
575.0	25.36	27.79	43.65	50.34	63.26	69.03	83.21	105.7	168.4	199.9	118.6	122.4	254.0	 1466	 5197	126.8	41.79	39.18	37.25	39.31	39.59	41.65	44.27	48.74	54.30	58.81	63.97	71.80	72.85	78.26	77.30	71.12	61.35	51.34	44.49	35.44	30.07	24.62	21.64	17.91	17.24	14.94	13.07	11.73	11.65	10.79	9.707	9.301	7.406	7.552	6.986	7.256	8.511	7.578	5.879	4.696	4.386	4.962	4.621	4.964	5.452	6.139	5.300	5.679	5.374	6.080	6.672	12.09	40.98	115.0	247.1	638.0	227.9	6.597	1.128	0.768	0.563
580.0	22.73	32.57	37.27	40.11	50.23	52.27	72.11	91.47	120.7	195.5	119.9	110.0	129.7	446.4	 5537	739.2	35.26	34.32	31.48	32.10	33.22	34.06	35.68	39.89	42.99	47.91	53.25	56.88	59.62	61.28	62.07	56.96	50.57	44.42	36.82	28.29	24.25	21.21	18.63	14.40	14.19	12.75	11.03	10.06	9.737	9.248	8.237	7.651	6.698	6.286	5.516	5.756	6.640	7.242	5.907	4.636	4.266	4.464	4.575	5.169	5.552	5.432	5.516	5.416	5.405	6.159	5.612	6.389	12.89	29.18	61.44	333.6	582.7	52.50	2.095	0.773	0.541
585.0	24.64	31.22	37.67	37.13	40.97	48.94	61.18	76.48	91.28	179.5	141.6	91.24	97.32	156.6	 2821	 1909	44.02	29.30	26.55	27.08	26.65	29.84	30.85	33.83	35.60	38.93	42.46	47.99	48.66	51.56	51.85	46.83	41.06	34.71	29.04	24.25	20.40	16.54	16.26	12.27	11.55	11.09	9.351	8.197	8.466	7.414	7.119	6.402	6.030	5.681	4.730	4.482	4.906	6.287	6.071	4.855	3.646	4.483	4.475	4.604	4.891	4.985	5.414	5.237	4.987	5.408	5.072	5.093	6.038	9.620	16.19	85.37	393.2	427.4	38.26	1.101	0.684
590.0	22.63	28.08	39.17	36.88	36.64	41.99	52.40	61.65	69.84	120.2	164.2	85.86	80.25	83.28	787.5	 2457	604.8	25.76	20.83	21.68	22.22	23.15	25.00	27.16	28.16	31.16	34.02	36.05	38.51	39.43	39.44	37.28	33.47	28.24	23.45	19.26	15.72	13.26	11.94	9.500	9.337	8.036	7.484	6.832	6.683	6.150	5.921	5.468	4.761	4.325	3.983	3.540	3.801	4.425	5.427	4.799	3.847	3.400	3.624	3.661	3.961	4.024	4.264	4.828	4.590	4.466	4.424	4.121	4.397	4.678	5.714	20.84	100.4	282.5	348.0	112.8	4.515
595.0	18.72	22.48	36.38	35.01	32.62	39.57	44.42	55.58	54.17	76.19	150.6	107.6	74.26	63.22	210.4	997.2	 2136	64.83	17.22	18.18	18.83	18.99	19.34	20.85	22.18	24.31	26.12	27.68	29.40	30.34	29.03	28.03	23.60	21.72	19.12	14.58	12.22	10.73	9.681	8.012	7.178	6.539	6.151	5.990	5.344	5.092	4.590	4.309	3.948	3.357	3.555	3.256	2.831	2.990	3.709	4.605	3.792	3.216	3.041	3.414	2.978	3.631	3.378	3.524	3.734	3.802	3.502	3.327	3.535	3.167	3.351	6.230	23.48	64.55	159.1	365.9	55.95
600.0	15.35	23.63	31.30	35.34	28.78	31.75	37.08	46.25	49.41	62.95	113.0	136.6	71.37	57.52	80.00	290.1	 2367	190.5	16.30	14.84	15.47	16.12	16.51	16.61	18.05	19.91	20.76	23.44	23.42	24.61	23.59	23.91	20.67	17.60	15.69	12.29	10.13	8.676	7.778	6.430	6.109	5.740	4.785	4.932	4.470	4.076	3.858	3.450	3.585	3.091	2.913	2.663	2.224	2.410	2.708	3.886	3.984	3.266	2.839	2.569	2.545	2.624	2.565	3.143	3.133	3.335	2.908	2.860	2.702	2.317	2.313	2.893	6.428	15.41	38.89	203.8	319.4
605.0	19.18	24.32	25.68	34.05	26.94	24.24	36.64	40.11	47.34	58.02	84.99	147.4	73.11	53.88	50.56	89.35	 1372	 1283	22.33	12.82	12.68	13.78	13.97	14.58	14.41	16.48	17.44	18.88	20.25	19.92	20.01	18.60	16.46	14.86	13.11	10.48	8.142	7.244	6.537	5.665	6.003	4.438	4.446	4.796	3.841	3.208	3.299	2.586	2.649	2.846	2.414	2.357	2.106	2.123	2.254	3.093	3.557	3.023	2.492	2.299	2.072	2.227	2.089	2.492	2.660	2.883	2.838	2.262	2.374	2.093	1.957	1.800	2.501	4.104	9.680	51.91	232.0
610.0	14.99	23.42	28.63	24.81	25.05	24.96	32.63	36.49	44.70	50.95	62.69	118.8	104.0	54.95	43.61	41.87	401.4	 1762	405.0	11.82	10.54	11.56	11.30	11.51	11.88	13.45	13.48	15.12	16.18	15.56	15.56	15.20	13.36	11.67	10.04	7.781	6.895	5.559	5.326	4.796	4.190	3.599	3.760	3.391	3.038	2.935	2.896	2.287	2.264	2.130	1.896	1.887	1.722	1.648	1.608	1.815	2.804	2.901	2.703	1.838	1.920	1.800	2.067	1.922	2.150	2.278	2.515	2.427	1.901	1.621	1.668	1.366	1.367	1.621	2.893	12.29	59.53
615.0	17.15	22.42	29.20	20.75	21.72	22.55	26.32	32.57	36.81	39.43	54.64	76.16	123.9	61.26	39.44	26.64	105.4	752.4	 1344	41.85	8.384	9.112	8.364	8.733	8.994	10.52	10.48	12.10	12.09	12.48	12.39	12.04	9.770	9.054	7.678	6.717	5.090	4.772	4.052	3.689	3.571	3.040	2.754	2.702	2.549	2.214	2.111	1.895	1.955	1.677	1.646	1.455	1.327	1.215	1.324	1.494	1.715	2.326	2.477	1.994	1.875	1.634	1.915	1.690	1.695	1.837	1.880	1.946	1.842	1.407	1.093	1.346	0.992	1.108	1.220	3.402	13.79
620.0	21.66	20.74	26.22	21.44	17.74	20.48	26.63	24.40	35.65	38.39	53.25	59.88	111.0	71.52	37.10	25.95	37.74	215.2	 1667	151.2	8.249	8.055	7.713	6.949	7.917	8.216	8.371	9.776	10.29	10.44	10.29	9.022	7.954	7.751	6.762	5.365	4.231	4.054	3.217	2.934	3.356	2.457	2.236	2.242	2.275	1.935	1.738	1.806	1.615	1.577	1.559	1.365	1.209	0.926	1.093	1.150	1.347	1.783	2.494	1.964	1.406	1.272	1.472	1.448	1.616	1.628	1.613	1.613	1.724	1.459	1.208	1.144	0.888	0.813	0.843	1.212	3.579
625.0	20.40	21.53	20.64	23.66	20.81	23.06	27.79	20.71	33.10	37.70	46.91	53.21	97.44	89.68	35.25	24.90	21.30	59.91	 1020	968.8	11.40	6.107	6.722	6.105	6.485	7.024	7.069	8.454	8.863	7.956	8.109	7.422	6.394	6.118	5.908	4.234	3.830	3.235	2.871	2.516	2.715	2.583	1.811	1.825	1.861	1.693	1.649	1.450	1.316	1.375	1.260	1.235	0.975	0.815	1.017	1.129	1.134	1.149	1.563	2.024	1.934	1.327	1.336	1.308	1.509	1.589	1.373	1.480	1.511	1.413	1.247	0.855	1.000	0.863	0.714	0.693	1.290
630.0	16.45	17.93	22.06	20.63	17.18	24.03	23.86	20.75	32.49	34.01	41.00	48.62	66.60	100.5	45.68	25.10	16.10	22.89	297.6	 1353	270.4	6.044	5.686	5.260	5.647	5.817	6.075	6.253	6.766	6.678	5.917	6.118	5.278	4.877	4.244	3.539	2.999	2.775	2.405	2.080	2.193	1.812	1.504	1.507	1.642	1.491	1.521	1.208	1.120	1.075	1.064	0.987	0.853	0.809	0.824	0.925	0.829	1.013	1.157	1.475	1.702	1.442	1.123	1.084	1.055	1.303	1.292	1.156	1.093	1.381	1.263	0.853	0.875	0.782	0.743	0.561	0.772
635.0	13.73	22.96	25.54	19.63	16.27	17.27	21.16	18.38	29.06	28.88	42.86	47.32	55.89	80.17	67.50	25.63	16.79	13.87	74.00	593.3	 1042	21.98	4.573	4.345	4.703	4.844	5.034	4.963	5.403	4.844	4.576	4.592	4.151	3.577	3.316	3.292	2.067	2.160	1.996	1.995	1.663	1.436	1.630	1.382	1.310	1.284	1.305	1.210	1.012	1.023	0.881	0.801	0.658	0.730	0.726	0.901	0.596	0.914	0.918	1.160	1.335	1.259	1.045	0.947	0.979	0.998	0.980	0.967	1.168	1.074	1.155	1.039	0.744	0.800	0.689	0.401	0.611
640.0	16.14	21.78	18.84	17.94	14.32	15.31	23.92	22.24	29.29	30.82	44.76	45.74	51.98	62.66	78.21	29.52	17.23	14.09	25.87	170.9	 1282	116.3	4.530	4.126	4.432	4.168	4.533	4.131	4.548	4.640	4.207	3.835	2.920	3.079	2.860	2.930	2.114	1.833	1.715	1.381	1.395	1.366	1.408	1.335	1.322	1.163	1.086	0.876	0.838	0.788	0.711	0.671	0.597	0.542	0.620	0.690	0.643	0.829	0.754	0.676	1.126	1.344	1.200	0.803	0.948	0.831	0.789	0.922	0.767	0.819	0.977	0.868	0.917	0.671	0.718	0.515	0.619
645.0	17.86	21.42	23.14	17.93	20.96	18.08	17.35	18.79	29.52	29.47	41.58	45.30	49.94	53.86	75.34	39.08	19.88	15.73	15.84	46.49	822.3	679.8	6.156	3.732	4.226	3.308	3.426	3.573	3.937	3.692	3.288	3.186	3.104	2.775	2.539	2.553	1.773	1.475	1.344	1.290	1.168	0.974	1.226	0.812	1.176	0.976	0.913	0.611	0.776	0.826	0.631	0.547	0.634	0.685	0.558	0.580	0.713	0.880	0.701	0.874	0.787	1.147	0.996	0.860	0.978	0.824	0.577	0.763	0.824	1.124	0.948	0.825	0.868	0.747	0.663	0.607	0.552
650.0	19.04	18.64	24.73	19.23	15.19	19.55	13.03	17.42	28.40	28.43	36.69	47.47	48.23	46.35	67.01	49.01	23.13	14.95	11.58	17.20	301.0	 1129	49.74	3.735	4.207	3.456	2.865	3.022	3.484	3.049	3.702	2.780	2.764	2.657	2.034	1.777	1.680	1.388	1.215	1.336	1.189	1.028	0.990	0.914	0.989	0.929	1.123	0.779	0.682	0.663	0.650	0.573	0.495	0.582	0.521	0.608	0.679	0.684	0.692	0.712	0.653	0.845	1.080	0.832	0.844	0.963	0.656	0.729	0.870	0.843	0.969	0.841	0.996	0.736	0.676	0.582	0.454
