Sample:	'1
File name:	t2025021111Î÷ÍõÌÇÒµÕ¢.FD3
Run date:	'10:58:04, 02/12/2025
Operator:	Administrator
Comment:	'

Instrument
Model:	F-2700 FL Spectrophotometer
Serial number:	23B8-004
ROM Version:	4J14000 07

Instrument parameters
Measurement type:	3-D scan
Data mode:	Fluorescence
EX  Start WL:	220.0 nm
EX  End WL:	600.0 nm
EX Sampling interval:	5.0 nm
EM  Start WL:	230.0 nm
EM  End WL:	650.0 nm
EM Sampling interval:	5.0 nm
Scan speed:	12000 nm/min
EX Slit:	5.0 nm
EM Slit:	5.0 nm
PMT Voltage:	700 V
Response:	Auto 
Corrected spectra:	Off
Contour interval:	50.000

Peak integration
Integration method:	Rectangular
Sensitivity:	1
Threshold:	1.000

Peaks
No.	ApexEX/EM(nm)	Height(Data)
1	230.0/345.0	2521
2	230.0/605.0	61.93
3	230.0/620.0	59.49
4	235.0/350.0	2450
5	240.0/405.0	1950
6	245.0/410.0	1918
7	250.0/415.0	1913
8	255.0/280.0	555.1
9	255.0/410.0	1915
10	260.0/575.0	151.2
11	265.0/415.0	1914
12	265.0/585.0	142.2
13	270.0/420.0	1912
14	270.0/600.0	143.7
15	275.0/335.0	2722
16	275.0/610.0	139.0
17	280.0/340.0	2703
18	280.0/415.0	1935
19	280.0/625.0	126.4
20	285.0/640.0	108.0
21	340.0/415.0	1747
22	475.0/345.0	9.019
23	480.0/370.0	8.364
24	505.0/445.0	9.020
25	520.0/285.0	4.179
26	565.0/335.0	16.42
27	580.0/340.0	16.34

Data points
	220.0	225.0	230.0	235.0	240.0	245.0	250.0	255.0	260.0	265.0	270.0	275.0	280.0	285.0	290.0	295.0	300.0	305.0	310.0	315.0	320.0	325.0	330.0	335.0	340.0	345.0	350.0	355.0	360.0	365.0	370.0	375.0	380.0	385.0	390.0	395.0	400.0	405.0	410.0	415.0	420.0	425.0	430.0	435.0	440.0	445.0	450.0	455.0	460.0	465.0	470.0	475.0	480.0	485.0	490.0	495.0	500.0	505.0	510.0	515.0	520.0	525.0	530.0	535.0	540.0	545.0	550.0	555.0	560.0	565.0	570.0	575.0	580.0	585.0	590.0	595.0	600.0
230.0	21.74	671.2	2592	1092	52.25	8.239	7.519	6.271	5.525	5.387	5.354	5.742	5.030	4.458	4.166	3.472	3.348	3.355	2.842	2.757	2.438	2.258	2.176	1.964	1.917	1.880	1.801	1.558	1.482	1.313	1.274	1.235	1.095	1.011	0.922	0.845	0.757	0.617	0.511	0.517	0.464	0.461	0.473	0.461	0.410	0.432	0.916	3.965	9.395	8.948	3.850	0.867	0.408	0.338	0.315	0.324	0.326	0.298	0.313	0.321	0.287	0.308	0.298	0.277	0.277	0.254	0.243	0.239	0.218	0.203	0.197	0.207	0.187	0.179	0.173	0.192	0.203
235.0	34.92	199.1	2041	4704	537.0	99.18	10.12	7.538	6.862	6.005	6.610	5.826	5.150	4.863	4.362	4.157	3.464	3.484	2.998	2.965	2.589	2.254	2.309	1.986	2.028	1.892	1.667	1.857	1.486	1.241	1.263	1.269	1.138	0.913	1.068	0.885	0.868	0.702	0.579	0.611	0.515	0.469	0.429	0.579	0.538	0.512	0.496	1.273	3.849	9.988	18.06	19.46	9.582	1.770	0.430	0.401	0.306	0.321	0.373	0.374	0.276	0.287	0.342	0.334	0.284	0.282	0.236	0.244	0.223	0.195	0.188	0.203	0.260	0.185	0.200	0.160	0.179
240.0	65.07	85.80	647.3	4580	6825	448.4	50.47	11.29	7.891	7.806	7.154	7.153	5.795	4.974	4.612	3.804	3.372	3.376	3.314	2.958	2.784	2.356	2.392	2.072	2.064	1.996	1.830	1.735	1.582	1.464	1.268	1.191	1.099	0.900	1.038	0.943	0.840	0.644	0.637	0.638	0.538	0.418	0.537	0.592	0.614	0.602	0.550	0.710	1.227	3.117	10.67	30.61	37.65	20.20	8.732	1.115	0.392	0.326	0.463	0.428	0.302	0.308	0.338	0.324	0.241	0.332	0.223	0.201	0.311	0.294	0.236	0.184	0.265	0.216	0.183	0.185	0.242
245.0	58.16	95.27	193.8	1635	8355	7736	347.4	22.81	10.94	9.173	8.491	7.072	6.401	5.769	4.888	4.412	3.915	3.525	3.537	2.969	2.923	2.632	2.460	2.282	2.233	2.035	1.917	1.827	1.605	1.639	1.410	1.270	1.121	1.033	1.064	0.969	0.840	0.672	0.589	0.689	0.514	0.471	0.527	0.519	0.496	0.569	0.704	0.635	0.634	1.076	2.857	10.57	28.30	52.19	52.97	18.18	5.086	0.563	0.463	0.402	0.340	0.352	0.346	0.347	0.344	0.335	0.314	0.336	0.279	0.246	0.256	0.253	0.269	0.266	0.246	0.174	0.206
250.0	40.53	88.04	175.4	444.2	2800	8688	9999.9	1286	89.71	15.49	12.30	9.866	7.871	6.943	5.861	4.928	4.416	4.280	3.770	3.216	3.050	2.805	2.552	2.564	2.313	2.183	2.055	2.056	1.661	1.629	1.500	1.448	1.062	1.030	0.948	0.974	0.853	0.768	0.671	0.685	0.614	0.599	0.568	0.520	0.521	0.547	0.638	0.682	0.843	0.911	1.137	2.769	7.144	17.73	35.58	48.58	49.83	50.97	14.01	5.474	0.756	0.445	0.488	0.388	0.367	0.384	0.345	0.339	0.313	0.266	0.247	0.239	0.275	0.310	0.243	0.197	0.239
255.0	39.36	46.19	136.9	307.6	702.2	2256	9324	9999.9	1847	97.55	20.44	14.95	11.57	8.429	7.544	5.960	5.130	5.085	4.435	3.884	3.185	3.183	2.785	2.706	2.455	2.233	2.084	2.090	1.929	1.576	1.610	1.425	1.099	1.159	1.066	0.949	0.939	0.831	0.717	0.756	0.692	0.624	0.536	0.542	0.552	0.548	0.524	0.551	0.643	0.920	1.302	1.620	2.164	4.347	8.393	12.17	23.83	64.55	100.9	92.16	21.76	6.250	0.735	0.577	0.453	0.419	0.475	0.397	0.325	0.312	0.285	0.275	0.287	0.288	0.263	0.275	0.288
260.0	44.82	38.80	68.18	252.1	362.8	564.4	2921	9999.9	9999.9	1424	55.85	20.01	15.14	10.68	8.531	7.230	6.430	5.541	5.336	4.101	3.659	3.271	2.958	2.642	2.755	2.555	2.569	1.874	2.073	1.709	1.666	1.455	1.326	1.305	1.144	0.968	0.849	0.831	0.776	0.800	0.706	0.656	0.614	0.587	0.595	0.566	0.513	0.595	0.543	0.607	0.887	1.806	1.765	1.807	2.347	3.121	5.903	18.27	50.15	104.2	127.9	30.05	17.66	2.886	0.666	0.558	0.506	0.510	0.393	0.385	0.366	0.379	0.337	0.271	0.271	0.329	0.295
265.0	36.85	34.18	39.82	125.9	351.7	282.8	716.8	4120	9999.9	9999.9	999.6	31.48	19.63	13.15	10.18	8.350	7.237	5.747	5.473	4.313	3.627	3.368	3.255	3.092	2.971	2.630	2.247	2.252	2.089	2.006	1.783	1.754	1.452	1.421	1.229	1.119	1.016	0.909	0.758	0.725	0.679	0.680	0.760	0.583	0.623	0.508	0.552	0.627	0.462	0.516	0.576	1.091	1.650	2.069	1.689	1.279	1.893	4.642	12.33	32.75	81.27	137.0	152.6	27.96	12.70	1.340	0.581	0.505	0.466	0.439	0.424	0.435	0.342	0.365	0.270	0.355	0.291
270.0	54.71	52.89	51.94	64.33	185.4	351.4	353.9	1005	4302	9999.9	9999.9	3957	68.59	21.41	15.29	11.43	8.994	7.438	6.097	4.894	4.386	3.796	3.482	3.347	2.912	2.820	2.677	2.568	2.284	2.231	1.939	1.913	1.590	1.540	1.335	1.121	1.127	0.913	0.874	0.789	0.800	0.759	0.730	0.685	0.704	0.649	0.578	0.652	0.588	0.564	0.562	0.662	0.920	1.434	1.993	2.222	2.090	1.934	3.406	7.887	19.72	42.62	85.65	118.2	163.9	121.4	70.39	9.535	1.414	0.664	0.619	0.419	0.447	0.440	0.375	0.409	0.396
275.0	91.92	120.9	110.0	79.47	92.98	194.4	480.4	437.7	1048	2774	9999.9	9999.9	1166	73.88	24.45	15.99	12.10	9.694	7.417	6.294	5.294	4.544	4.195	3.618	3.352	3.399	2.953	2.848	2.425	2.317	2.037	2.039	1.714	1.563	1.435	1.455	1.162	0.835	0.924	0.828	0.825	0.805	0.728	0.860	0.867	0.900	0.791	0.829	0.807	0.752	0.638	0.634	0.682	0.872	1.022	1.506	2.559	3.114	2.507	2.564	5.157	10.34	19.95	28.25	53.38	117.3	213.4	217.2	28.92	13.28	1.103	0.676	0.637	0.644	0.457	0.483	0.452
280.0	149.4	184.5	198.2	127.5	91.41	125.7	352.7	555.1	417.1	775.9	3555	9999.9	9999.9	903.6	49.67	21.78	15.67	12.53	9.378	7.247	6.076	5.267	4.709	3.842	3.710	3.441	3.045	3.076	2.707	2.384	2.039	2.152	1.851	1.688	1.613	1.486	1.323	1.128	0.951	0.879	0.869	0.874	0.832	0.884	0.910	1.068	0.957	0.997	1.064	1.001	0.794	0.846	0.853	0.789	0.909	1.061	1.546	2.558	3.398	3.294	2.584	3.286	5.541	7.499	13.31	30.46	79.74	192.5	258.3	199.9	24.78	7.548	1.073	0.788	0.656	0.656	0.547
285.0	181.9	267.7	293.0	203.2	132.1	133.6	220.9	554.9	553.1	386.9	1071	5008	9999.9	9999.9	617.5	34.74	21.61	15.90	11.71	8.784	6.968	6.168	5.231	4.610	4.068	3.573	3.601	3.287	2.709	2.720	2.359	2.202	2.021	1.812	1.804	1.379	1.447	1.339	0.966	0.963	1.033	0.951	0.990	1.008	1.013	1.162	1.216	1.239	1.183	1.182	1.007	1.117	1.006	0.904	1.022	0.985	1.155	1.632	2.567	4.111	4.179	2.900	2.639	3.208	4.522	8.694	19.78	52.10	121.2	247.9	249.7	172.7	20.18	3.346	0.867	0.818	0.667
290.0	256.7	398.0	430.0	312.2	209.5	185.4	229.3	383.4	692.9	743.3	721.2	1588	5367	9999.9	9999.9	2625	51.34	25.36	16.61	11.58	9.481	7.531	6.065	5.435	4.878	4.211	4.089	3.575	3.321	2.924	2.625	2.314	2.176	1.965	2.045	1.672	1.484	1.466	1.213	1.087	0.978	1.140	1.147	1.194	1.207	1.363	1.448	1.809	1.755	1.607	1.417	1.474	1.237	1.107	1.242	1.341	1.337	1.638	1.964	2.562	3.428	4.379	4.612	4.114	3.855	4.798	7.072	14.44	30.11	66.32	114.4	199.0	213.9	185.9	117.0	14.40	4.729
295.0	320.3	500.4	577.2	442.4	306.2	271.1	313.3	402.5	580.3	1020	1155	1068	1754	3076	9999.9	9999.9	3720	58.50	26.57	17.57	13.26	10.54	7.728	7.048	5.872	5.209	4.561	4.178	3.943	3.336	3.051	2.710	2.604	2.174	2.148	2.019	1.754	1.549	1.442	1.337	1.139	1.305	1.196	1.133	1.385	1.604	1.786	2.110	2.323	2.094	1.820	1.838	1.668	1.510	1.649	1.760	1.773	2.098	2.279	2.502	3.152	3.698	4.655	6.738	6.997	6.232	5.633	7.224	10.78	18.36	28.59	47.46	59.45	122.7	268.6	369.3	211.4
300.0	364.6	550.2	701.8	539.3	388.9	345.6	402.5	499.6	655.7	992.9	1565	1336	1183	1214	3933	9999.9	9999.9	574.6	45.29	23.52	17.77	12.71	9.643	8.669	6.882	6.353	5.387	4.648	4.799	3.752	3.543	3.298	2.575	2.409	2.512	2.165	1.969	1.672	1.553	1.447	1.321	1.375	1.320	1.266	1.376	1.721	1.947	2.553	2.756	2.517	2.098	2.452	2.066	2.053	2.004	1.947	2.352	2.558	2.887	2.955	3.605	4.235	4.857	6.404	8.066	9.183	8.409	7.559	7.633	9.077	10.69	14.92	16.96	31.44	83.82	220.6	419.6
305.0	404.1	638.4	793.0	634.7	481.6	439.0	524.6	637.6	821.0	1127	1650	1917	1362	1019	1419	5999	9999.9	9999.9	418.8	34.89	23.54	16.29	11.86	9.981	8.158	6.884	6.318	5.082	5.059	4.115	3.981	3.296	3.000	2.729	2.634	2.279	2.232	1.869	1.701	1.619	1.462	1.468	1.327	1.355	1.574	1.856	2.164	3.022	2.974	2.907	2.745	2.779	2.442	2.353	2.310	2.478	2.679	3.135	3.632	3.778	4.326	5.242	5.751	6.418	7.992	9.394	10.99	10.98	9.382	8.701	8.201	9.074	8.747	11.37	21.99	55.70	149.5
310.0	416.7	710.4	916.4	728.8	577.5	532.3	650.9	792.2	1010	1333	1724	2122	2011	1333	1090	1804	6281	9999.9	9999.9	1965	44.31	24.17	16.57	12.76	10.07	8.491	7.239	6.132	5.608	4.971	4.379	3.699	3.292	2.850	2.979	2.385	2.271	2.040	1.823	1.729	1.547	1.670	1.525	1.528	1.701	1.994	2.459	3.338	3.517	3.260	3.033	3.248	2.717	2.899	2.790	2.864	3.348	3.773	4.149	4.552	5.205	6.294	6.813	7.831	9.340	10.14	10.75	12.09	12.61	12.22	10.98	9.334	9.339	8.755	9.666	16.25	36.74
315.0	436.8	784.8	1032	829.4	675.9	622.1	752.8	915.3	1159	1504	1919	2199	2256	1902	1307	977.4	1754	2981	9999.9	9999.9	3024	47.98	23.99	17.30	13.44	10.65	8.651	7.057	6.514	5.782	4.745	4.056	3.628	3.233	3.268	2.661	2.347	2.030	1.964	1.813	1.706	1.656	1.767	1.795	1.796	2.332	2.574	3.390	4.179	3.644	3.370	3.716	3.322	3.067	3.401	3.444	3.813	4.236	4.931	5.160	6.029	7.063	7.876	8.932	10.68	11.16	11.29	12.56	12.84	13.65	14.02	12.94	12.03	9.867	8.171	8.462	12.20
320.0	496.8	907.6	1177	940.9	749.8	688.9	823.3	1000	1264	1630	2074	2344	2343	2141	1673	924.1	809.7	898.0	3617	9999.9	9999.9	447.2	40.01	22.81	16.97	12.92	10.47	8.052	7.426	6.465	5.201	4.837	3.801	3.469	3.230	2.924	2.533	2.219	2.084	1.916	1.864	1.778	1.827	1.940	1.983	2.559	2.891	3.951	4.625	4.047	3.659	4.100	3.495	3.587	3.466	3.729	4.423	4.498	5.214	5.771	6.415	7.751	8.518	9.661	11.50	12.26	12.43	13.39	13.84	14.88	14.19	14.31	15.19	12.77	9.026	7.564	7.504
325.0	566.1	1077	1493	1175	863.0	754.2	877.7	1073	1344	1743	2198	2496	2459	2173	1991	1101	677.6	472.0	978.4	5045	9999.9	9999.9	356.8	33.30	21.75	15.24	12.01	9.458	8.074	6.778	5.740	5.020	4.145	3.499	3.533	2.901	2.943	2.463	2.197	2.033	1.971	1.888	2.103	2.045	2.077	2.833	3.271	4.576	5.373	5.074	4.432	4.855	4.194	3.637	3.846	3.973	4.645	4.842	5.591	6.048	7.032	8.162	8.903	9.803	12.09	12.75	13.17	14.26	14.35	15.21	14.84	14.53	15.55	14.91	11.27	8.655	7.139
330.0	667.3	1308	1943	1672	1176	904.3	985.3	1158	1421	1853	2314	2633	2612	2264	2027	1418	835.0	467.5	448.2	1316	5400	9999.9	9999.9	1662	40.34	22.39	15.85	11.83	9.844	7.754	6.672	5.430	4.567	3.953	3.789	3.238	2.892	2.456	2.331	2.042	2.050	1.977	2.049	2.151	2.377	3.101	3.848	5.510	6.547	6.342	5.881	6.454	5.392	4.771	4.415	4.238	4.857	5.165	5.873	6.431	7.496	8.611	9.334	10.48	12.59	13.52	13.90	14.71	15.16	15.90	15.77	15.51	15.99	14.87	12.26	10.43	8.999
335.0	711.4	1485	2252	2098	1553	1125	1081	1228	1482	1922	2379	2722	2701	2372	2068	1467	1119	636.8	434.7	561.6	1431	2797	9999.9	9999.9	2804	44.67	22.91	16.71	11.96	9.763	7.172	6.381	5.529	4.467	4.292	3.548	2.991	2.562	2.447	2.084	1.985	2.190	2.076	2.406	2.612	3.116	4.379	6.258	7.310	7.525	7.257	7.962	7.012	5.705	5.377	5.022	5.249	5.695	5.944	6.623	7.867	8.829	9.702	10.85	12.82	13.29	14.46	14.93	15.45	16.42	15.99	15.55	16.14	14.82	12.14	10.19	9.551
340.0	750.8	1577	2473	2299	1758	1265	1148	1276	1541	1945	2373	2695	2703	2404	2098	1476	1142	844.9	519.4	455.3	600.7	862.3	3363	9999.9	9999.9	2232	39.06	21.19	15.80	11.98	8.418	7.142	6.082	5.043	4.348	3.576	3.281	2.670	2.534	2.471	1.995	2.087	2.013	2.380	2.690	3.263	4.427	6.534	7.535	7.994	7.859	8.610	7.507	6.586	5.798	5.471	5.792	5.886	6.145	7.003	7.371	9.122	9.455	10.98	11.99	13.22	13.79	15.14	15.20	16.32	15.79	15.81	16.34	15.14	12.34	11.04	9.323
345.0	760.4	1599	2521	2434	1851	1332	1227	1311	1545	1921	2307	2633	2634	2375	2093	1494	1103	941.0	651.2	495.8	467.6	473.9	994.9	4609	9999.9	9999.9	345.6	30.50	18.85	13.78	9.509	8.014	6.212	5.437	4.741	3.703	3.120	2.872	2.529	2.182	2.060	2.211	2.221	2.316	2.638	3.368	4.422	6.555	7.528	8.216	8.320	9.019	8.069	7.284	6.323	5.587	6.047	6.090	6.804	7.120	7.552	8.765	9.638	10.44	11.72	12.85	13.31	14.08	14.96	16.06	15.90	15.54	16.14	15.13	12.14	11.02	10.00
350.0	716.6	1511	2403	2450	1943	1449	1317	1374	1559	1864	2198	2468	2475	2271	2032	1505	1137	923.6	835.0	668.8	527.4	463.8	518.2	1265	4659	9999.9	9999.9	6646	37.17	19.05	13.33	9.799	7.431	6.040	5.065	4.075	3.569	3.107	2.531	2.393	2.318	2.214	2.129	2.262	2.730	3.359	4.236	6.054	7.403	7.736	8.043	8.964	8.271	7.599	6.594	5.874	6.149	6.402	6.906	7.267	7.755	8.646	9.496	9.884	11.26	11.87	12.50	13.60	13.97	15.27	14.58	14.74	15.16	14.26	11.91	11.25	9.694
355.0	660.3	1361	2186	2339	1993	1522	1398	1437	1562	1816	2070	2281	2300	2133	1953	1510	1192	973.3	868.2	858.9	702.1	543.0	488.0	568.6	1243	2601	9999.9	9999.9	2812	41.93	19.65	13.44	9.076	7.310	5.962	4.416	3.978	3.350	2.626	2.474	2.518	2.179	2.237	2.173	2.507	3.210	3.860	5.733	6.760	7.335	7.958	8.956	8.284	7.698	6.793	6.407	6.664	6.704	6.947	7.357	7.605	8.315	9.094	9.368	10.51	11.49	11.63	12.49	12.67	13.30	13.62	13.52	13.99	13.21	12.04	10.47	9.560
360.0	617.8	1240	2086	2233	1964	1576	1431	1466	1577	1775	1998	2155	2176	2039	1884	1509	1234	1044	928.4	914.5	865.0	676.7	550.3	474.2	543.9	768.9	2912	9999.9	9999.9	2339	36.47	17.39	12.10	9.309	7.099	4.967	4.220	3.412	3.072	2.645	2.513	2.252	2.169	2.291	2.446	3.130	3.736	5.273	6.273	6.933	7.300	8.495	7.924	7.611	7.123	6.571	6.763	6.714	7.023	7.449	7.806	8.274	8.980	9.628	10.54	10.79	10.61	11.61	12.14	12.57	12.68	12.92	13.61	12.95	11.28	10.37	9.456
365.0	572.7	1161	1929	2190	1953	1621	1478	1512	1604	1769	1928	2054	2066	1959	1819	1500	1281	1113	1015	962.0	958.4	851.7	661.3	532.8	458.6	421.0	825.7	3651	9999.9	9999.9	349.4	29.36	15.37	10.85	8.302	6.064	4.650	3.646	3.230	2.982	2.909	2.312	2.247	2.223	2.611	2.968	3.396	5.181	5.795	6.601	7.196	7.918	8.233	7.825	7.098	6.739	6.874	7.002	7.699	7.424	7.892	8.337	8.827	9.381	9.937	10.47	9.911	10.72	11.39	11.68	11.90	12.23	12.72	12.40	11.06	10.18	9.763
370.0	546.7	1096	1805	2112	1993	1700	1568	1587	1653	1782	1864	1948	1951	1858	1758	1507	1330	1209	1135	1085	1042	1011	887.2	696.6	563.0	455.9	454.5	1020	3827	9999.9	9999.9	6867	32.76	16.64	11.34	7.524	5.663	4.375	3.796	3.332	2.929	2.589	2.357	2.283	2.320	2.808	3.408	4.774	5.518	6.181	6.874	7.934	8.364	7.845	7.324	6.894	7.328	7.474	8.215	7.529	8.119	8.514	8.717	9.005	9.892	9.770	9.741	10.20	10.43	11.04	11.00	11.18	12.02	11.54	10.61	9.974	9.843
375.0	508.4	1004	1653	2021	1970	1746	1620	1641	1687	1765	1814	1848	1845	1766	1688	1497	1368	1287	1238	1199	1157	1103	1077	928.0	737.9	597.3	493.3	532.8	1081	2521	9999.9	9999.9	2504	37.80	17.19	10.18	7.317	5.311	4.071	3.588	3.015	2.796	2.495	2.524	2.547	2.981	3.186	4.427	5.568	5.903	6.409	8.070	7.717	7.706	7.643	7.063	7.709	7.685	8.026	8.280	8.299	8.541	8.996	8.894	9.322	9.373	9.075	9.407	9.500	10.18	10.29	10.43	11.14	11.00	10.36	9.634	9.342
380.0	482.7	977.1	1558	1940	1924	1773	1647	1640	1679	1746	1761	1780	1772	1698	1636	1475	1381	1328	1292	1264	1237	1179	1139	1089	903.9	733.3	607.4	515.7	551.3	789.9	2761	9999.9	9999.9	2130	32.33	13.94	9.521	6.195	4.488	3.850	3.322	2.908	2.794	2.616	2.712	2.848	3.227	4.444	5.048	5.595	6.115	7.979	7.556	7.717	7.403	7.449	8.079	7.788	8.089	8.137	7.900	8.692	8.608	8.523	9.025	8.943	8.701	8.780	8.788	9.478	9.825	10.11	10.37	10.38	9.719	9.408	9.363
385.0	470.5	938.4	1513	1907	1912	1774	1675	1683	1688	1737	1733	1736	1733	1661	1612	1459	1388	1350	1337	1325	1308	1261	1209	1181	1084	881.0	739.1	616.7	528.2	483.2	840.6	3280	9999.9	9999.9	292.4	24.46	12.59	7.841	5.741	4.404	3.579	3.163	2.758	2.811	2.739	3.089	3.291	4.232	5.182	5.661	5.992	7.560	7.670	7.753	7.631	7.838	8.158	7.826	8.077	8.019	8.014	8.370	8.570	8.692	8.576	8.606	8.736	8.660	8.567	9.307	9.434	9.796	10.29	10.02	9.700	9.212	9.314
390.0	475.2	905.7	1492	1858	1925	1823	1743	1736	1741	1759	1744	1718	1722	1668	1608	1473	1399	1380	1381	1393	1386	1382	1343	1303	1254	1137	967.8	822.1	697.2	568.4	528.8	969.3	3225	9999.9	9999.9	5916	27.26	12.76	7.996	5.638	4.458	3.700	3.155	2.887	2.887	3.142	3.306	4.303	4.968	5.540	5.998	7.524	7.950	7.755	7.872	7.705	8.250	8.097	8.330	8.320	8.498	8.741	8.679	8.613	8.713	8.410	8.508	8.703	8.797	8.965	9.342	9.369	9.947	9.773	9.810	9.448	9.536
395.0	477.6	889.9	1457	1855	1934	1871	1800	1798	1808	1819	1776	1762	1758	1726	1645	1498	1413	1392	1419	1440	1471	1492	1486	1464	1417	1356	1255	1071	928.1	756.9	610.3	543.7	951.8	2438	8260	9999.9	2112	32.14	12.25	7.883	5.811	4.575	3.755	3.463	3.141	3.065	3.424	4.523	4.985	5.409	5.948	7.537	7.906	8.123	7.998	7.892	8.506	8.107	8.262	8.566	8.812	8.375	8.767	8.401	8.703	8.597	8.467	8.709	9.078	9.227	9.273	9.387	10.18	9.988	9.844	9.634	9.835
400.0	467.3	889.9	1435	1835	1939	1902	1839	1840	1835	1850	1813	1811	1817	1783	1675	1508	1414	1390	1422	1472	1518	1556	1583	1577	1536	1485	1439	1277	1104	919.8	733.8	559.0	506.7	735.9	2173	9999.9	9999.9	1877	26.49	10.59	6.950	5.479	4.226	3.697	3.051	3.493	3.661	4.631	4.965	5.638	5.835	7.527	7.847	8.430	8.025	7.974	8.612	8.340	8.379	8.291	8.472	8.830	8.911	9.001	8.935	8.963	8.673	9.048	8.792	9.106	9.399	9.697	10.00	10.19	9.833	9.671	9.893
405.0	476.3	893.6	1426	1806	1950	1890	1856	1888	1859	1863	1868	1856	1880	1848	1712	1530	1401	1387	1412	1479	1541	1598	1645	1664	1643	1588	1547	1453	1266	1065	859.4	646.0	476.2	403.6	642.9	2816	9999.9	9999.9	1428	19.76	9.044	6.409	4.710	3.929	3.393	3.529	3.690	4.622	5.116	5.130	5.884	7.368	7.774	8.221	7.574	8.289	8.378	8.627	8.433	8.885	8.634	8.802	9.077	9.312	9.071	8.509	8.799	8.801	9.156	9.579	9.332	9.990	9.900	10.27	9.681	9.600	9.050
410.0	465.9	862.6	1370	1768	1917	1918	1898	1915	1908	1913	1911	1914	1930	1901	1748	1524	1384	1360	1387	1461	1537	1613	1680	1722	1725	1687	1631	1569	1445	1229	998.7	757.4	547.4	391.4	346.5	760.7	2828	9339	9999.9	4417	22.80	9.582	6.055	4.731	4.024	3.744	3.764	4.542	4.825	5.171	5.710	7.351	7.423	7.995	7.910	8.114	8.551	8.728	8.693	8.889	8.897	8.799	9.001	8.894	8.842	8.694	8.774	8.687	9.085	9.360	9.533	10.00	9.933	10.18	9.525	9.352	9.211
415.0	459.2	839.9	1315	1711	1855	1911	1913	1908	1907	1914	1909	1926	1935	1898	1743	1491	1335	1306	1336	1407	1496	1581	1667	1721	1747	1731	1674	1605	1521	1356	1104	843.6	617.2	439.5	318.9	332.5	735.2	2184	5673	9999.9	1922	28.04	9.036	5.905	5.022	4.049	4.001	4.663	4.925	5.161	5.727	6.935	7.114	8.102	7.859	8.525	8.835	8.706	9.135	9.123	8.922	9.062	8.833	8.584	8.634	8.739	9.046	8.518	9.087	9.062	9.476	9.624	9.678	9.640	9.437	9.400	9.224
420.0	434.9	824.0	1297	1636	1810	1895	1886	1903	1882	1890	1912	1898	1919	1867	1703	1451	1291	1253	1292	1356	1441	1530	1619	1683	1726	1713	1671	1610	1516	1396	1163	891.3	658.0	471.9	334.8	257.8	284.0	564.3	1429	7405	9999.9	1685	22.23	8.051	5.771	4.723	4.256	4.605	4.754	5.294	5.596	6.839	7.416	7.599	7.771	8.300	8.845	8.859	9.031	8.770	8.724	8.790	8.982	8.268	8.306	9.165	8.809	8.534	8.763	8.917	8.945	9.560	9.393	9.809	9.135	8.868	8.412
425.0	430.1	784.2	1230	1619	1776	1861	1877	1874	1855	1853	1873	1882	1869	1821	1662	1406	1247	1210	1235	1299	1379	1474	1570	1636	1678	1671	1648	1595	1504	1383	1204	929.9	686.6	500.3	360.3	261.1	200.5	217.2	381.0	1985	9113	9999.9	249.4	15.53	7.041	5.507	4.915	4.912	4.880	5.112	5.608	6.861	7.144	7.733	7.887	7.948	8.966	8.931	8.979	8.796	8.522	8.795	8.748	8.502	8.362	8.722	8.221	8.212	8.757	8.692	8.871	9.250	9.292	9.297	8.594	9.024	8.509
430.0	446.2	760.8	1176	1551	1732	1832	1868	1878	1835	1815	1825	1830	1818	1758	1612	1353	1195	1148	1172	1231	1297	1391	1476	1551	1595	1605	1591	1546	1467	1344	1181	965.7	727.2	534.3	393.8	288.3	206.9	161.8	162.5	497.4	2408	7771	9999.9	3546	19.94	7.642	5.924	5.577	5.235	5.081	5.499	6.778	7.164	7.671	7.652	8.144	8.823	8.931	8.862	8.703	8.487	8.543	8.233	8.385	8.475	8.229	7.810	7.814	8.432	8.491	8.951	8.756	8.878	8.953	8.371	8.284	7.887
435.0	479.4	721.6	1140	1479	1685	1806	1872	1857	1809	1773	1775	1782	1755	1686	1532	1305	1143	1087	1101	1146	1209	1296	1379	1453	1505	1510	1506	1473	1404	1295	1142	956.9	766.5	564.6	424.6	314.3	232.9	171.1	134.0	178.9	583.3	1791	5202	9999.9	1788	25.06	8.186	6.871	5.844	5.420	5.667	6.943	7.242	7.532	7.857	8.387	8.773	8.697	8.998	8.726	8.579	8.369	8.217	7.931	8.098	7.835	7.844	7.679	7.708	8.359	8.391	8.393	8.500	8.508	7.809	7.942	7.547
440.0	580.1	707.0	1073	1446	1637	1779	1839	1843	1783	1741	1721	1703	1681	1620	1470	1241	1094	1037	1047	1090	1141	1219	1292	1367	1420	1430	1427	1407	1344	1251	1102	930.1	769.8	595.3	441.5	334.0	250.3	185.3	137.3	117.7	183.3	436.8	1306	7275	9999.9	1491	18.92	8.392	6.619	5.911	5.548	6.855	7.245	7.518	8.058	8.230	8.882	8.887	8.917	8.494	8.470	8.491	7.979	7.958	7.572	7.411	7.736	7.379	7.545	7.802	7.880	8.209	8.270	8.348	7.874	7.551	7.224
445.0	584.9	772.1	1023	1380	1604	1742	1814	1825	1754	1683	1658	1646	1604	1551	1389	1186	1043	986.4	991.8	1024	1072	1136	1211	1276	1330	1344	1347	1327	1280	1204	1058	894.4	741.9	599.5	460.0	347.0	264.3	199.1	149.0	112.4	101.2	139.1	322.0	1976	9056	9999.9	208.7	15.08	7.616	6.283	6.127	7.057	7.137	7.480	7.728	7.870	8.856	9.020	8.592	8.635	8.681	8.030	7.826	7.985	7.546	7.358	7.624	7.286	7.318	7.644	7.334	7.811	8.021	8.164	7.364	7.202	7.116
450.0	486.0	1050	1051	1305	1535	1679	1734	1743	1662	1570	1543	1529	1481	1421	1268	1097	962.3	914.4	911.7	929.6	968.4	1022	1090	1150	1191	1212	1217	1205	1168	1104	986.0	838.9	698.0	575.5	469.3	363.8	278.1	212.8	163.4	121.8	92.50	81.23	107.1	468.5	2424	7450	9736	3236	17.97	8.003	6.924	7.402	7.347	7.428	7.696	7.748	8.484	8.663	8.513	8.455	7.973	7.701	7.743	7.405	7.373	7.010	7.062	6.937	7.171	6.990	7.178	7.393	7.341	7.540	7.015	6.895	6.488
455.0	349.4	1194	1480	1203	1441	1570	1653	1644	1541	1460	1420	1383	1343	1281	1148	990.4	878.0	830.3	823.4	829.4	858.2	896.7	953.1	1013	1046	1068	1071	1071	1041	990.5	895.3	774.6	651.2	537.0	452.7	374.5	289.4	221.8	174.2	132.7	98.35	75.21	65.55	135.5	563.3	1713	4883	9999.9	1491	19.51	8.780	7.860	7.459	7.644	7.114	7.623	7.990	8.286	8.357	8.040	7.590	7.657	7.451	6.781	6.890	6.498	6.348	6.380	6.390	6.463	6.431	6.791	6.690	6.818	6.418	6.358	6.109
460.0	295.7	1044	2200	1303	1337	1473	1555	1550	1452	1349	1325	1283	1239	1175	1055	912.1	808.1	763.4	763.2	757.6	778.6	810.5	858.1	908.1	938.6	959.7	964.2	963.2	946.4	907.2	828.0	719.3	614.1	507.5	429.3	366.9	299.7	229.0	179.0	139.5	105.3	77.92	61.12	65.72	152.9	403.7	1205	6694	9999.9	1150	17.07	9.010	7.733	7.849	7.234	7.411	7.772	7.859	8.146	7.749	7.443	7.114	6.867	6.217	6.377	6.371	5.818	5.796	5.931	6.254	6.161	6.018	6.190	5.849	5.892	5.551	5.751
465.0	260.7	688.2	2714	1851	1272	1401	1473	1459	1373	1269	1233	1199	1151	1077	969.9	838.0	745.4	706.0	696.1	694.3	701.5	735.5	776.0	821.0	847.9	866.1	868.8	868.5	861.7	827.2	763.5	669.5	570.3	480.7	408.5	348.4	298.9	233.9	182.5	144.0	109.3	82.25	64.27	52.92	64.35	113.9	291.1	1804	8220	8395	168.0	14.95	8.903	7.920	7.740	7.470	7.836	7.472	7.955	7.431	7.039	6.508	6.680	6.026	6.078	5.795	5.601	5.766	5.779	5.635	5.697	5.800	5.629	5.517	5.318	5.481	5.294
470.0	260.4	480.4	2028	3482	1510	1280	1331	1311	1242	1146	1109	1070	1023	950.6	851.5	742.4	657.8	624.5	613.2	609.3	612.6	635.9	672.4	704.9	731.8	743.4	749.1	747.8	745.6	721.0	670.8	594.8	515.8	438.4	374.0	318.5	276.6	233.6	184.9	145.5	113.3	87.90	68.03	54.12	48.06	53.69	88.59	422.6	2194	6046	7485	2565	18.50	9.376	7.936	7.489	7.861	7.232	7.532	7.003	6.617	6.275	6.107	6.070	5.526	5.384	5.181	5.248	5.186	5.181	5.099	5.406	5.098	5.015	4.811	4.982	5.008
475.0	237.4	378.1	985.7	4014	3074	1169	1190	1179	1105	1022	985.8	935.1	896.0	825.8	739.0	645.6	577.7	543.9	531.2	524.5	522.3	540.9	570.8	601.2	621.3	628.9	637.3	638.6	636.7	620.5	581.1	519.2	457.5	390.9	338.7	290.5	250.7	219.6	187.5	147.1	112.7	89.16	70.80	56.99	48.21	42.84	45.85	115.5	505.8	1383	3572	8304	1467	22.71	8.716	7.429	7.194	6.849	6.641	6.604	5.979	5.840	5.404	5.213	5.052	4.800	4.899	4.569	4.694	4.632	4.443	4.605	4.837	4.541	4.543	4.198	4.202
480.0	201.5	340.2	646.5	2884	4741	1414	1091	1078	1024	933.2	889.0	850.4	810.2	750.3	664.2	585.1	523.9	493.0	482.7	469.7	468.8	479.8	508.4	531.8	549.7	555.4	558.7	564.8	565.9	551.2	520.4	469.8	417.4	362.4	312.1	270.3	233.9	202.5	182.0	150.0	114.3	90.24	73.15	59.57	49.62	42.00	38.04	47.95	130.6	323.6	874.0	4651	7874	1300	18.35	8.263	7.463	7.176	6.690	6.367	5.685	5.416	5.233	4.956	5.069	4.575	4.463	4.320	4.334	4.189	4.302	4.148	4.224	4.338	3.895	3.808	3.881
485.0	196.7	327.6	531.6	1557	5792	2608	1021	997.9	941.6	876.4	830.1	782.3	743.2	679.9	609.9	532.3	476.2	452.5	438.4	429.8	424.6	434.4	456.9	480.8	494.8	499.1	501.8	507.5	509.6	498.0	470.4	429.7	380.0	333.9	289.9	255.8	220.1	193.1	171.0	149.5	116.1	92.37	74.85	61.66	51.71	44.05	37.83	35.20	48.55	88.05	208.9	1231	6159	7384	201.3	13.68	8.343	7.365	6.810	6.184	5.568	5.242	5.067	4.628	4.826	4.261	4.198	4.109	3.994	3.927	4.053	3.830	3.910	3.878	3.596	3.769	3.666
490.0	163.9	311.2	471.7	845.6	3869	5450	1401	905.4	852.0	791.9	747.8	710.1	665.0	608.4	540.6	472.5	426.2	402.3	388.1	379.0	374.4	382.9	401.0	417.6	430.0	435.9	438.7	443.6	446.3	436.9	417.0	381.8	343.1	300.9	266.2	234.4	204.5	179.4	158.1	139.6	119.7	95.23	76.50	64.12	54.25	46.76	40.11	34.33	32.76	37.61	61.88	287.9	1620	4895	6596	2529	19.63	8.682	7.064	6.168	5.485	5.198	4.790	4.607	4.513	4.097	4.002	3.776	3.712	3.758	3.563	3.549	3.426	3.575	3.070	3.398	3.271
495.0	137.2	272.7	455.2	603.6	1562	6111	3005	836.5	767.5	697.8	673.0	637.0	588.3	534.9	473.0	414.6	374.6	352.9	341.8	328.3	328.6	331.3	344.0	359.9	370.0	376.5	377.3	381.5	382.8	374.7	361.6	334.0	299.7	268.9	239.2	214.1	187.0	165.5	145.9	128.1	112.9	99.66	77.66	65.37	56.68	49.52	42.39	36.17	30.91	28.11	30.60	78.37	373.0	1118	3401	8378	1697	24.88	8.549	6.400	5.599	5.095	4.552	4.579	4.118	3.758	3.845	3.637	3.593	3.353	3.236	3.231	3.158	3.336	2.988	2.994	2.875
500.0	124.9	237.1	425.2	527.0	820.3	4145	5916	1061	696.3	636.3	613.7	576.7	535.0	483.2	422.9	370.7	336.6	317.1	305.7	296.1	291.2	297.2	306.4	319.9	324.2	332.0	331.1	336.1	336.0	332.9	322.4	297.3	268.6	242.2	218.0	195.5	172.7	155.1	136.1	119.2	104.9	96.70	80.47	66.09	57.83	50.40	43.98	37.03	32.08	27.64	24.77	32.70	96.49	261.2	833.9	4671	8804	1455	20.41	7.415	5.827	4.999	4.693	4.374	3.922	3.622	3.709	3.537	3.302	3.053	3.009	3.056	2.973	3.015	2.758	2.767	2.675
505.0	115.2	209.7	383.6	498.0	603.8	1999	7183	2142	640.0	582.2	554.9	525.5	489.2	440.6	382.0	337.5	304.2	285.5	273.7	262.9	260.9	263.8	275.4	284.5	288.8	294.2	298.2	300.0	297.8	298.3	285.7	267.3	243.1	219.4	196.6	179.3	159.0	143.2	128.8	111.0	97.70	89.79	81.57	66.74	57.24	50.89	43.28	38.15	32.67	28.35	24.45	23.17	35.25	70.38	197.5	1222	6432	8006	227.8	14.73	6.719	5.524	4.824	4.231	3.938	3.670	3.299	3.292	3.120	3.009	2.878	2.966	2.669	2.818	2.645	2.392	2.371
510.0	103.3	178.9	332.8	459.4	494.3	885.2	4582	5772	915.6	509.8	491.1	464.9	421.0	377.4	330.2	289.6	263.1	249.0	237.3	229.1	224.5	226.0	233.5	243.8	247.6	249.7	251.4	254.3	255.3	254.8	246.1	229.1	211.6	192.3	172.5	157.4	141.7	127.8	114.4	100.9	90.04	80.84	75.51	67.83	58.19	49.98	43.86	38.71	33.02	28.37	25.08	21.66	22.03	28.12	55.29	283.3	1665	4987	7353	2773	19.71	7.067	5.161	4.413	3.806	3.738	3.305	3.142	2.905	2.905	2.720	2.600	2.496	2.434	2.392	2.183	2.291
515.0	102.5	152.8	261.4	409.8	442.5	547.5	1611	7037	2141	467.7	425.4	403.7	361.9	323.7	284.0	246.2	222.0	212.4	202.2	194.3	192.3	191.7	196.8	205.0	209.0	210.2	212.6	211.9	214.6	215.7	207.2	193.0	179.8	163.6	150.2	134.9	124.7	111.2	102.5	90.46	81.58	72.58	66.92	63.80	58.66	49.90	43.07	37.83	33.24	28.72	24.72	21.67	19.02	18.64	23.12	73.00	379.8	1130	3277	8264	1778	26.45	6.075	4.881	4.125	3.492	3.205	2.919	2.524	2.452	2.513	2.389	2.380	2.224	2.104	1.986	1.962
520.0	73.15	139.9	221.0	357.1	419.9	430.0	696.5	4568	5794	671.9	378.2	361.2	321.0	287.5	252.8	219.1	198.0	185.6	179.3	170.8	166.5	166.6	172.4	178.4	182.3	183.8	181.6	184.5	186.7	186.3	179.7	169.7	158.3	144.5	131.7	121.6	110.8	101.3	93.26	82.55	74.55	67.34	62.04	58.03	57.84	50.26	43.34	37.02	32.77	27.96	24.52	21.16	18.55	16.45	15.75	26.19	93.16	260.4	779.8	4149	8232	1609	22.08	5.898	4.364	3.844	3.375	2.695	2.563	2.345	2.261	2.073	2.118	2.053	1.860	1.944	1.814
525.0	67.39	112.0	193.9	301.3	398.7	377.7	452.2	1940	7589	1610	342.5	328.0	290.2	255.2	220.2	192.8	174.7	164.2	158.4	150.4	149.3	147.5	152.4	157.1	160.2	162.4	161.2	162.6	166.7	164.5	157.5	151.3	138.4	128.4	116.7	107.4	99.73	92.79	83.91	75.87	69.43	61.35	57.61	52.79	52.66	50.56	41.96	35.42	31.92	27.08	23.69	20.29	17.99	15.49	14.05	15.33	29.58	66.14	182.2	1033	5171	7892	1333	16.56	5.261	3.820	3.399	2.861	2.788	2.226	2.156	1.768	1.924	1.700	1.772	1.833	1.730
530.0	67.85	102.6	166.8	241.5	347.7	352.9	350.6	720.7	4670	5824	649.7	282.2	251.0	218.4	188.5	164.7	150.5	139.3	134.5	130.4	126.1	126.6	128.9	133.7	135.5	137.7	137.3	135.5	139.7	138.2	135.1	127.5	118.0	109.2	99.95	92.82	84.93	79.59	72.65	67.38	61.17	55.61	51.57	47.58	45.79	45.28	41.64	34.50	29.61	25.44	22.46	19.30	16.93	15.03	13.28	12.31	14.48	22.01	47.27	236.9	1280	4207	6167	2758	95.27	5.289	3.495	3.091	2.805	2.184	2.064	1.708	1.864	1.726	1.660	1.573	1.404
535.0	54.25	94.66	139.9	200.3	272.8	328.7	285.0	381.1	1441	7261	2976	251.3	214.5	187.0	158.2	138.2	126.5	118.4	112.5	108.4	104.0	105.3	107.9	110.0	112.1	113.2	112.7	113.2	114.6	113.7	110.5	106.4	97.63	91.55	83.45	78.09	72.94	68.13	63.33	57.78	53.79	49.57	45.27	42.50	40.19	38.94	37.50	33.63	27.52	23.22	20.46	17.66	15.35	13.48	12.65	11.26	10.46	11.52	16.41	58.14	290.1	946.4	2212	6519	1885	28.41	4.633	3.206	2.947	2.210	2.148	1.712	1.639	1.614	1.437	1.283	1.399
540.0	53.88	85.29	121.7	174.3	215.3	304.1	267.8	267.3	516.4	4353	6630	392.8	190.9	158.4	140.7	121.1	111.2	102.7	97.99	94.56	90.29	90.72	91.79	95.39	95.59	96.14	97.92	95.54	98.87	96.57	95.62	90.66	85.08	79.08	72.23	68.87	64.16	59.95	54.75	51.54	46.42	44.62	40.83	37.84	36.49	33.80	33.47	31.77	26.77	21.77	19.09	16.71	14.73	12.51	11.51	10.37	9.387	8.677	8.969	17.95	69.29	215.6	510.8	2776	6429	1724	23.57	4.010	3.037	2.393	2.016	1.760	1.668	1.675	1.456	1.254	1.390
545.0	52.84	81.27	115.5	154.2	180.9	254.7	259.9	227.2	282.8	1621	8437	1207	166.9	139.7	123.2	106.3	96.43	90.96	84.40	82.05	78.82	79.50	79.65	82.42	82.28	84.82	83.85	83.14	85.94	84.30	83.00	78.46	72.87	68.86	63.35	60.25	55.84	52.60	48.41	45.22	41.83	39.04	36.02	34.13	32.74	30.46	29.43	28.47	25.96	21.05	17.67	15.02	13.04	11.69	10.03	9.476	8.591	7.915	7.026	8.428	19.49	52.37	118.9	658.5	3340	6280	1397	18.11	3.260	2.442	2.185	1.808	1.625	1.566	1.436	1.278	1.269
550.0	47.57	70.81	104.3	124.7	147.3	188.6	245.4	200.8	193.6	515.2	4720	5416	359.0	117.9	101.5	87.82	80.33	74.21	69.88	66.93	65.60	64.36	65.36	67.26	68.24	69.53	68.75	68.37	68.92	68.86	68.31	64.30	60.58	55.87	51.66	48.84	45.32	43.52	40.68	37.41	35.47	32.93	30.83	28.82	27.77	26.07	24.45	23.48	22.54	19.78	16.19	13.20	11.19	10.18	9.048	8.443	7.709	6.986	6.044	5.764	7.738	15.05	30.09	150.6	793.0	2776	4164	2159	108.2	4.414	2.315	1.872	1.714	1.405	1.263	1.103	1.063
555.0	40.48	65.29	93.12	111.8	122.9	142.5	196.2	189.7	155.6	223.7	1317	6782	1238	105.8	82.52	71.86	64.28	58.96	55.69	52.87	53.80	51.64	51.45	53.67	53.96	55.70	53.39	53.84	53.79	53.50	53.34	51.38	47.38	44.84	41.12	39.26	36.64	34.53	32.55	30.65	28.85	26.68	25.18	24.22	22.68	22.05	20.74	19.32	18.13	16.71	14.81	11.61	9.724	8.726	7.766	7.090	6.554	6.365	5.611	4.856	4.900	6.150	9.677	36.14	179.7	622.4	1266	3929	1924	30.77	3.372	2.181	1.731	1.458	1.225	1.035	1.041
560.0	43.66	67.19	84.45	95.80	99.41	116.3	151.8	187.9	140.2	150.2	403.5	4029	5145	143.2	70.23	61.02	54.38	49.51	46.88	44.66	44.22	43.31	43.38	45.87	45.13	45.92	44.61	44.44	44.95	44.58	44.07	42.83	38.74	36.99	33.65	33.03	30.48	29.02	27.23	25.52	24.39	22.53	21.58	20.38	19.88	19.00	17.42	16.31	14.61	13.75	13.23	10.89	8.587	7.516	7.056	6.361	6.054	5.292	5.062	4.184	3.857	3.880	4.900	10.62	42.70	141.4	288.3	1447	3951	1720	25.78	2.574	1.811	1.455	1.151	1.044	1.049
565.0	38.73	59.22	77.45	80.85	85.81	107.6	118.9	175.5	135.6	125.3	180.4	1452	7184	802.4	62.91	52.13	47.58	42.29	40.26	37.71	36.50	37.84	37.25	38.29	37.64	37.74	37.62	36.95	38.10	37.61	37.11	35.47	33.50	31.14	28.73	27.02	25.72	24.55	23.59	21.96	20.79	19.25	18.63	17.67	16.92	15.94	15.05	13.51	12.66	11.53	11.59	9.778	7.835	6.496	6.133	5.632	5.209	4.360	4.536	4.310	3.585	3.310	3.323	4.918	11.69	34.04	67.23	335.3	1727	3688	1317	18.85	2.256	1.527	1.135	1.031	0.981
570.0	41.84	64.54	72.72	74.14	73.50	86.41	92.53	131.9	149.7	109.0	124.0	423.4	4232	4416	196.0	44.93	38.47	34.05	32.75	31.34	29.76	30.69	29.77	30.21	30.14	30.72	30.03	29.59	30.34	30.21	29.07	27.44	26.24	24.67	23.46	22.04	20.67	19.42	18.57	17.70	16.68	16.03	15.61	14.44	14.04	13.14	12.29	11.16	10.38	9.351	9.073	8.189	7.327	5.879	4.966	4.613	4.538	3.786	3.643	3.519	3.395	3.057	2.640	3.079	4.642	9.590	17.16	77.21	400.5	1405	2477	1109	110.5	3.322	1.378	1.176	0.984
575.0	37.25	59.83	71.81	68.43	66.52	75.97	75.91	95.83	151.2	113.6	105.9	168.9	1161	5869	886.3	40.65	31.68	27.49	26.24	24.18	24.07	24.04	24.47	23.62	23.87	24.18	23.09	23.10	23.57	24.22	22.50	21.42	20.54	19.29	17.64	17.26	15.95	15.57	14.89	13.55	13.36	12.85	12.36	11.54	11.03	10.81	9.858	9.178	8.211	7.515	6.636	6.573	6.503	5.652	4.328	3.965	3.479	3.370	3.062	2.705	2.969	2.821	2.439	2.453	2.820	3.871	5.648	19.19	91.15	315.0	668.3	1885	1878	31.67	2.531	1.176	0.989
580.0	44.66	58.88	70.06	66.06	61.71	65.42	69.98	76.17	127.5	127.3	99.81	109.1	328.7	3537	4244	81.21	28.45	24.61	23.01	20.59	20.70	19.89	19.89	19.74	19.23	20.50	19.77	20.09	19.85	19.58	18.09	18.08	16.97	16.02	14.76	13.85	13.15	12.81	12.28	11.72	11.00	10.58	10.25	9.557	9.326	8.775	8.491	7.776	7.106	6.164	5.623	5.329	5.167	5.017	4.212	3.543	3.071	2.893	2.675	2.402	2.465	2.551	2.648	2.268	2.278	2.451	2.923	5.928	22.23	71.80	151.6	617.2	2372	1512	27.39	1.677	1.196
585.0	40.23	54.57	70.01	63.44	58.22	59.62	60.90	65.52	100.2	142.2	99.60	97.01	134.9	1259	6041	546.1	26.31	22.67	19.67	17.75	17.80	16.63	16.71	17.02	16.43	16.50	16.85	16.82	16.52	16.65	15.43	15.68	14.25	13.23	12.20	12.29	11.68	10.86	10.31	10.09	9.620	9.033	8.656	8.447	8.191	7.711	7.155	6.549	6.066	5.288	4.755	4.513	4.360	4.385	3.967	3.150	2.799	2.638	2.488	2.184	2.219	2.256	2.297	2.357	2.091	1.991	2.296	2.815	6.517	17.45	35.50	141.5	889.8	2237	1013	19.60	1.517
590.0	35.13	55.48	67.33	58.33	50.55	52.88	56.83	62.61	80.83	131.5	116.5	94.34	91.02	346.3	3636	3395	60.77	20.01	17.71	15.61	15.13	14.10	13.74	14.18	13.99	13.74	13.30	13.59	13.16	13.53	13.04	12.27	11.41	10.80	10.10	9.837	9.225	9.051	8.287	8.025	7.690	6.986	7.123	7.046	6.581	6.256	5.895	5.367	4.930	4.345	3.823	3.720	3.391	3.436	3.689	3.030	2.559	2.268	2.207	2.030	1.842	1.914	1.902	2.074	2.062	1.812	1.879	1.888	2.830	5.243	9.149	32.93	203.4	767.4	1440	878.9	112.5
595.0	37.29	50.04	61.60	56.55	50.64	48.62	51.74	58.86	70.91	107.3	141.5	96.67	82.44	123.0	994.1	4871	635.6	20.07	14.53	13.00	11.82	11.43	11.26	11.52	11.62	11.08	10.58	10.51	10.71	10.72	10.55	9.702	9.195	8.456	8.213	7.624	7.770	7.366	6.961	6.109	6.190	5.723	5.623	5.507	5.294	5.126	4.799	4.314	3.991	3.470	3.204	3.074	2.677	2.456	2.760	2.949	2.486	2.006	1.656	1.749	1.578	1.603	1.716	1.794	2.002	1.832	1.614	1.560	1.800	2.348	3.171	8.370	46.44	172.0	368.4	1062	1296
600.0	40.41	50.20	60.33	51.19	45.10	43.34	48.19	57.14	65.94	90.37	143.7	103.8	81.38	75.44	264.0	3206	3082	48.17	13.69	11.56	10.79	9.625	9.789	9.695	10.27	9.559	9.481	9.071	9.452	8.692	8.862	8.345	7.294	6.896	6.948	6.442	6.087	5.975	5.774	5.325	5.263	4.730	4.628	4.672	4.276	4.366	4.060	3.809	3.626	3.258	2.764	2.542	2.128	2.077	2.086	2.348	2.369	2.036	1.610	1.695	1.372	1.478	1.426	1.466	1.747	1.951	1.648	1.347	1.568	1.385	1.705	2.935	11.42	39.37	83.41	328.7	1311
605.0	32.90	51.57	61.93	51.37	44.32	41.55	49.92	51.41	64.87	84.10	133.2	120.5	85.88	67.75	94.00	1202	4775	346.3	13.22	10.71	9.693	8.932	8.471	8.374	8.485	8.218	7.968	7.806	8.143	7.982	7.316	7.170	6.497	6.090	5.907	5.786	5.151	4.966	4.914	4.665	4.427	4.256	3.971	4.046	3.681	3.818	3.486	3.345	3.018	2.850	2.381	2.192	1.870	1.783	1.880	1.912	2.095	2.032	1.441	1.391	1.259	1.384	1.268	1.331	1.452	1.828	1.771	1.467	1.329	1.280	1.315	1.557	3.487	9.650	19.43	75.22	459.9
610.0	28.44	48.64	58.30	52.67	41.24	41.03	49.31	57.19	66.04	86.30	116.2	139.0	95.18	71.14	61.25	315.9	3191	2499	37.94	9.839	8.595	7.922	7.530	7.265	6.831	6.731	6.609	6.388	6.381	6.419	5.967	5.883	5.321	5.030	4.743	4.478	4.304	4.140	4.007	3.798	3.561	3.303	3.306	3.248	3.137	3.011	2.825	2.724	2.432	2.419	1.979	1.846	1.659	1.581	1.437	1.533	1.835	1.736	1.517	1.398	1.190	1.301	1.166	1.192	1.274	1.402	1.555	1.489	1.334	1.187	1.065	1.090	1.622	2.894	4.997	17.45	104.7
615.0	27.31	48.68	58.80	51.32	39.83	39.19	45.55	54.53	65.81	85.28	108.5	137.2	110.8	75.83	55.15	96.87	913.2	3947	457.9	10.32	8.042	6.988	6.397	5.773	5.735	5.851	5.315	5.350	5.052	5.252	5.095	4.689	4.491	3.970	3.659	3.559	3.297	3.518	3.264	2.858	2.826	2.882	2.586	2.554	2.372	2.524	2.300	2.113	1.938	1.838	1.651	1.500	1.411	1.280	1.162	1.217	1.348	1.552	1.487	1.268	1.157	1.162	1.031	1.204	1.148	1.215	1.494	1.415	1.324	1.143	1.045	1.042	1.027	1.445	1.678	4.532	24.01
620.0	26.95	41.84	59.49	51.18	38.74	40.38	45.56	55.01	65.82	84.15	102.7	122.4	123.7	77.70	55.80	47.75	236.6	2821	1957	22.94	7.588	6.242	5.880	5.359	5.257	5.349	4.712	4.511	4.631	4.382	4.348	3.970	3.729	3.560	3.220	3.161	2.820	2.916	2.652	2.435	2.499	2.377	2.204	2.136	2.075	2.044	1.853	1.816	1.727	1.629	1.576	1.304	1.351	1.114	1.047	1.060	1.243	1.270	1.342	1.206	1.092	1.098	0.976	1.033	1.063	1.012	1.340	1.324	1.353	1.142	1.036	0.977	0.955	1.047	0.892	1.472	5.908
625.0	30.90	42.53	51.44	46.28	34.72	35.46	43.34	53.24	63.92	82.22	100.7	111.9	126.4	86.65	57.39	38.52	74.21	1137	3287	68.71	7.753	6.222	5.609	4.908	4.927	4.714	4.284	4.152	3.773	4.052	3.535	3.343	3.303	3.135	2.835	2.678	2.356	2.480	2.285	2.219	2.141	1.930	1.997	1.787	1.856	1.717	1.704	1.689	1.508	1.483	1.181	1.148	1.107	1.076	1.079	0.824	1.050	1.122	1.198	1.072	1.087	1.137	1.098	1.062	0.990	1.048	1.157	1.072	1.346	1.338	1.120	0.943	0.956	0.813	0.872	0.764	1.880
630.0	26.52	41.44	51.32	47.68	34.75	34.97	41.51	51.61	62.02	79.67	98.32	106.3	120.9	98.48	60.23	36.63	37.12	291.8	2444	1305	24.41	6.077	5.164	4.677	4.125	4.100	3.702	3.595	3.467	3.346	3.192	2.770	2.803	2.739	2.402	2.280	2.025	1.871	1.854	1.910	1.817	1.674	1.494	1.527	1.517	1.542	1.486	1.392	1.340	1.179	1.113	1.112	1.034	0.936	0.881	0.855	0.944	0.835	0.979	1.035	1.062	1.161	1.007	1.081	1.030	1.073	1.048	0.974	1.163	1.260	1.158	0.927	0.847	0.777	0.828	0.639	0.869
635.0	24.88	40.10	50.40	45.84	33.86	30.91	40.95	51.20	61.85	74.70	99.34	103.8	106.6	106.9	64.26	37.47	29.60	77.85	733.0	2731	328.5	6.181	5.175	4.644	3.810	3.670	3.269	2.849	2.940	3.001	2.801	2.505	2.405	2.467	2.145	1.957	1.760	1.538	1.632	1.612	1.508	1.577	1.405	1.377	1.458	1.289	1.267	1.258	1.171	1.033	1.069	0.886	0.978	0.967	0.854	0.789	0.829	0.777	0.894	0.854	0.910	1.004	0.932	1.007	1.108	1.140	1.031	0.896	1.166	1.027	1.192	1.219	0.937	0.780	0.686	0.586	0.647
640.0	22.91	36.43	52.14	48.15	32.25	31.44	41.90	50.22	57.85	73.76	95.44	103.8	99.99	108.0	72.85	38.91	28.37	29.30	183.7	2202	1378	12.43	4.902	4.663	3.606	3.617	3.111	2.698	2.751	2.640	2.410	2.152	2.198	2.104	1.770	1.835	1.792	1.603	1.511	1.461	1.398	1.352	1.305	1.316	1.281	1.147	1.210	1.254	1.154	0.970	0.943	0.872	0.907	0.887	0.823	0.780	0.755	0.657	0.756	0.712	0.839	1.009	0.914	0.943	1.054	0.999	1.013	1.002	0.980	0.898	0.999	1.104	0.999	0.907	0.707	0.566	0.588
645.0	26.83	38.97	54.62	47.73	32.75	33.76	40.01	51.25	56.40	73.67	97.41	99.80	97.48	100.7	80.41	40.97	28.22	19.23	49.65	988.9	2525	52.98	5.067	4.191	3.141	3.341	3.011	2.632	2.745	2.593	2.459	2.029	1.968	2.110	1.659	1.686	1.582	1.474	1.411	1.376	1.282	1.269	1.205	1.144	1.100	1.187	1.043	1.087	1.158	0.976	1.014	0.965	0.977	0.944	0.823	0.801	0.728	0.699	0.765	0.779	0.838	0.935	0.837	0.930	1.024	0.884	0.961	1.003	1.062	0.998	0.878	1.001	1.039	0.930	0.793	0.569	0.660
650.0	32.78	43.32	60.81	47.73	33.06	32.68	37.93	50.58	57.29	73.17	95.19	98.64	98.31	92.77	83.36	42.65	28.76	16.87	19.65	284.7	2634	417.3	5.876	3.922	3.491	3.651	2.803	2.778	2.491	2.433	2.391	2.126	1.883	2.120	1.690	1.652	1.592	1.380	1.322	1.307	1.221	1.253	1.149	1.297	1.123	1.080	1.266	1.020	0.955	1.061	0.995	0.995	0.923	0.953	0.847	0.817	0.787	0.710	0.760	0.794	0.884	0.902	0.823	0.936	0.915	0.804	0.981	0.961	0.907	0.917	0.928	0.882	0.970	1.020	0.930	0.683	0.603
