Sample:	'1
File name:	G2025070203»ãÊ¢ÐõÄý³Áµí.FD3
Run date:	'12:36:21, 07/04/2025
Operator:	Administrator
Comment:	'

Instrument
Model:	F-2700 FL Spectrophotometer
Serial number:	23B8-004
ROM Version:	4J14000 07

Instrument parameters
Measurement type:	3-D scan
Data mode:	Fluorescence
EX  Start WL:	220.0 nm
EX  End WL:	600.0 nm
EX Sampling interval:	5.0 nm
EM  Start WL:	230.0 nm
EM  End WL:	650.0 nm
EM Sampling interval:	5.0 nm
Scan speed:	12000 nm/min
EX Slit:	5.0 nm
EM Slit:	5.0 nm
PMT Voltage:	700 V
Response:	Auto 
Corrected spectra:	Off
Contour interval:	50.000

Peak integration
Integration method:	Rectangular
Sensitivity:	1
Threshold:	1.000

Peaks
No.	ApexEX/EM(nm)	Height(Data)
1	225.0/600.0	82.32
2	245.0/400.0	3182
3	255.0/285.0	391.8
4	265.0/445.0	3195
5	270.0/600.0	145.0
6	275.0/615.0	140.1
7	280.0/625.0	123.5
8	285.0/640.0	101.5
9	310.0/395.0	2572
10	510.0/280.0	2.848
11	520.0/440.0	15.13
12	530.0/450.0	15.08
13	535.0/445.0	15.12

Data points
	220.0	225.0	230.0	235.0	240.0	245.0	250.0	255.0	260.0	265.0	270.0	275.0	280.0	285.0	290.0	295.0	300.0	305.0	310.0	315.0	320.0	325.0	330.0	335.0	340.0	345.0	350.0	355.0	360.0	365.0	370.0	375.0	380.0	385.0	390.0	395.0	400.0	405.0	410.0	415.0	420.0	425.0	430.0	435.0	440.0	445.0	450.0	455.0	460.0	465.0	470.0	475.0	480.0	485.0	490.0	495.0	500.0	505.0	510.0	515.0	520.0	525.0	530.0	535.0	540.0	545.0	550.0	555.0	560.0	565.0	570.0	575.0	580.0	585.0	590.0	595.0	600.0
230.0	42.15	559.6	1320	403.0	23.67	8.594	8.191	6.866	6.137	6.066	5.581	6.073	5.036	4.693	4.095	3.646	3.397	3.029	2.832	2.507	2.645	2.488	2.249	2.163	2.090	1.939	1.691	1.684	1.533	1.508	1.443	1.381	1.252	1.161	1.043	0.987	0.859	0.870	0.763	0.687	0.736	0.696	0.677	0.619	0.565	0.592	1.047	3.191	5.306	4.152	1.899	0.691	0.482	0.438	0.421	0.456	0.459	0.438	0.440	0.443	0.401	0.422	0.438	0.402	0.401	0.445	0.422	0.451	0.407	0.379	0.434	0.395	0.424	0.416	0.383	0.394	0.433
235.0	51.64	172.8	1063	1879	460.1	34.57	8.128	7.408	6.689	6.230	6.796	6.104	5.418	4.750	4.373	4.015	3.480	3.048	2.968	2.575	2.880	2.276	2.307	2.039	2.085	1.860	1.830	1.696	1.622	1.529	1.401	1.293	1.235	1.100	1.093	1.063	0.860	0.863	0.764	0.709	0.584	0.602	0.633	0.574	0.686	0.681	0.627	1.192	2.398	4.527	7.194	7.519	3.915	1.074	0.457	0.496	0.434	0.488	0.503	0.454	0.443	0.400	0.433	0.396	0.461	0.459	0.412	0.406	0.422	0.441	0.422	0.389	0.413	0.422	0.407	0.415	0.442
240.0	61.21	78.57	366.5	1986	2412	369.7	19.40	9.361	7.537	7.438	7.034	6.048	5.511	5.508	4.372	4.242	3.448	3.065	3.199	2.707	2.856	2.460	2.402	2.269	2.131	1.876	1.799	1.685	1.598	1.635	1.390	1.340	1.394	1.253	1.120	1.022	0.876	0.837	0.861	0.749	0.624	0.601	0.672	0.634	0.691	0.607	0.589	0.692	1.023	1.713	4.527	11.26	13.68	9.517	3.663	0.782	0.467	0.525	0.483	0.433	0.466	0.425	0.441	0.428	0.457	0.451	0.407	0.404	0.446	0.414	0.483	0.449	0.399	0.404	0.414	0.405	0.502
245.0	52.76	74.79	108.3	789.7	3277	2768	267.3	13.46	9.674	8.398	7.999	7.007	6.028	5.658	4.862	4.158	3.830	3.636	3.279	2.824	2.808	2.387	2.486	2.268	2.234	2.115	1.898	1.721	1.606	1.558	1.474	1.421	1.254	1.181	1.126	0.887	0.837	0.859	0.876	0.793	0.668	0.611	0.669	0.674	0.699	0.640	0.741	0.665	0.676	0.801	1.435	4.306	11.21	18.82	18.88	9.833	2.619	0.599	0.575	0.482	0.472	0.395	0.462	0.440	0.517	0.443	0.408	0.418	0.389	0.407	0.464	0.428	0.434	0.388	0.396	0.470	0.469
250.0	44.93	68.75	93.83	216.0	1187	3576	4096	1064	58.07	10.86	8.937	8.479	6.705	6.033	5.356	4.443	4.319	3.545	3.297	3.072	2.816	2.496	2.498	2.401	2.217	2.089	1.999	1.728	1.742	1.646	1.605	1.391	1.291	1.147	1.028	0.991	0.925	0.875	0.838	0.873	0.773	0.796	0.682	0.679	0.625	0.630	0.675	0.660	0.754	0.696	0.796	1.330	3.183	6.939	13.15	20.96	25.81	18.94	11.08	3.060	0.611	0.481	0.487	0.422	0.487	0.469	0.472	0.456	0.428	0.434	0.451	0.471	0.474	0.404	0.402	0.487	0.471
255.0	39.81	40.96	81.97	145.2	302.5	994.0	4370	7201	1468	52.87	12.33	9.652	7.900	6.798	5.866	4.959	4.709	3.830	3.565	3.321	2.914	2.855	2.618	2.414	2.361	2.129	2.124	2.002	1.759	1.665	1.668	1.594	1.211	1.308	1.051	0.986	0.950	0.890	0.934	0.864	0.796	0.779	0.775	0.674	0.651	0.653	0.528	0.628	0.621	0.660	0.905	1.014	1.182	2.043	3.353	5.596	11.57	27.03	47.03	29.37	17.62	3.372	0.751	0.489	0.526	0.489	0.534	0.451	0.423	0.430	0.469	0.512	0.436	0.484	0.455	0.438	0.458
260.0	41.07	37.35	47.61	135.9	168.6	263.3	1508	7403	8087	245.0	28.99	13.42	9.978	8.377	6.584	5.789	5.053	4.269	3.744	3.278	3.432	2.838	2.593	2.631	2.297	2.354	2.299	1.990	1.710	1.713	1.787	1.615	1.285	1.274	1.093	1.121	1.122	0.915	0.864	0.848	0.728	0.795	0.795	0.633	0.699	0.623	0.579	0.587	0.538	0.524	0.759	1.054	1.040	1.082	1.207	1.796	3.112	8.036	23.13	45.05	62.02	27.74	13.48	1.773	0.606	0.470	0.556	0.506	0.421	0.534	0.450	0.513	0.433	0.464	0.479	0.440	0.527
265.0	48.38	32.85	34.25	83.91	190.1	153.0	386.2	2831	9999.9	7953	196.3	20.49	12.60	10.53	8.269	6.150	5.386	4.807	3.977	3.897	3.234	3.214	2.633	2.604	2.389	2.364	2.177	2.053	1.995	1.851	1.746	1.722	1.309	1.387	1.166	1.114	0.971	0.915	0.907	0.882	0.801	0.786	0.732	0.701	0.689	0.664	0.598	0.527	0.518	0.480	0.527	0.857	1.208	1.376	0.991	1.042	1.282	2.347	6.070	14.76	38.65	67.28	73.32	25.24	8.589	0.863	0.613	0.519	0.542	0.602	0.471	0.488	0.525	0.465	0.439	0.475	0.539
270.0	61.77	50.57	40.38	49.18	130.2	230.8	217.5	703.1	3551	9999.9	9999.9	796.8	53.98	14.92	10.89	7.885	6.274	5.416	4.575	4.416	3.771	3.339	2.989	2.805	2.736	2.399	2.348	2.155	2.056	1.934	1.933	1.754	1.574	1.482	1.202	1.178	1.091	0.980	0.994	0.890	0.864	0.902	0.842	0.783	0.788	0.693	0.710	0.614	0.605	0.512	0.539	0.664	0.867	1.087	1.294	1.514	1.492	1.329	1.992	3.898	9.598	20.68	40.18	59.57	77.35	63.97	17.09	7.634	0.997	0.586	0.561	0.574	0.542	0.582	0.529	0.532	0.556
275.0	103.9	95.84	70.28	58.67	89.08	172.0	321.8	299.7	856.3	2624	9999.9	9999.9	1145	55.09	14.89	11.05	8.305	6.930	5.321	4.711	4.159	3.698	3.231	3.154	3.000	2.714	2.544	2.116	2.367	2.102	2.000	1.825	1.549	1.627	1.367	1.419	1.197	0.955	1.040	1.035	0.963	0.959	0.831	0.952	0.849	0.891	0.813	0.784	0.719	0.617	0.607	0.694	0.750	0.920	0.984	1.186	1.932	2.340	1.799	1.664	2.796	5.287	9.681	14.35	24.85	56.32	106.3	114.2	27.04	8.855	0.843	0.732	0.629	0.619	0.624	0.550	0.611
280.0	160.4	158.9	132.0	94.66	93.37	139.0	277.4	356.3	314.5	693.9	3099	9999.9	9999.9	828.1	30.10	14.86	10.52	8.054	6.337	5.795	4.682	4.057	3.666	3.234	3.356	2.881	2.558	2.155	2.235	2.187	1.951	1.983	1.755	1.699	1.564	1.486	1.510	1.221	1.028	1.182	1.006	1.003	1.075	0.987	1.134	1.012	0.947	1.007	0.780	0.730	0.746	0.817	0.793	0.910	0.873	1.059	1.293	1.953	2.848	2.258	1.750	1.992	2.963	4.054	6.590	14.72	40.36	95.02	134.5	110.4	22.15	3.930	0.766	0.697	0.600	0.574	0.714
285.0	235.6	230.7	199.7	147.9	124.3	139.8	201.6	391.8	323.7	315.9	877.2	4131	9999.9	8392	119.5	21.39	13.51	10.47	7.855	6.455	4.985	4.722	4.232	3.641	3.604	3.019	2.927	2.507	2.574	2.328	2.270	1.865	1.869	1.604	1.582	1.588	1.597	1.278	1.258	1.127	1.092	1.112	1.135	1.113	1.197	1.181	1.201	1.046	0.966	0.910	0.898	0.929	0.920	0.950	0.977	1.127	1.201	1.418	1.932	2.757	2.706	2.076	1.869	1.966	2.614	4.394	10.45	25.83	63.07	129.1	150.2	32.94	15.30	1.590	0.878	0.672	0.663
290.0	351.9	372.8	338.0	249.4	197.8	198.2	224.5	314.9	508.7	530.9	543.9	1275	4370	9999.9	9999.9	2229	39.74	15.10	10.60	8.169	6.256	5.481	4.587	4.299	3.809	3.410	3.003	2.753	2.830	2.619	2.317	2.115	2.098	1.774	1.726	1.740	1.600	1.472	1.426	1.310	1.304	1.355	1.255	1.341	1.359	1.433	1.423	1.588	1.435	1.351	1.185	1.275	1.244	1.203	1.250	1.339	1.475	1.556	1.753	2.030	2.519	3.116	3.338	3.070	2.649	2.925	4.375	7.639	16.30	35.15	64.61	86.60	120.5	97.57	70.08	11.40	2.094
295.0	454.8	507.1	500.6	376.5	308.1	300.6	325.8	361.5	487.6	804.5	850.6	858.0	1454	2891	9999.9	9999.9	696.2	41.53	15.95	11.05	8.004	7.185	5.847	4.961	4.654	4.036	3.331	3.066	3.131	2.690	2.473	2.328	2.016	2.165	1.978	1.625	1.773	1.753	1.630	1.456	1.482	1.488	1.585	1.330	1.562	1.694	1.840	2.054	1.902	1.666	1.707	1.650	1.523	1.577	1.593	1.673	1.856	2.070	2.075	2.043	2.276	2.856	3.471	4.733	5.296	4.296	4.130	4.836	6.735	10.52	16.92	21.71	33.04	63.60	144.3	175.9	34.61
300.0	525.1	619.2	616.1	500.8	391.9	398.0	430.4	471.9	572.8	831.8	1231	1072	1031	1154	3283	9999.9	9999.9	536.9	28.23	13.89	10.20	8.090	6.768	5.511	5.003	4.528	3.734	3.424	3.415	2.899	2.739	2.467	2.250	2.107	1.931	1.866	1.754	1.855	1.756	1.805	1.613	1.633	1.743	1.556	1.723	2.037	2.047	2.477	2.285	1.949	1.852	2.232	1.948	1.925	1.942	2.195	2.298	2.427	2.600	2.688	2.755	3.140	3.652	4.474	5.631	6.779	6.415	5.327	5.672	5.844	7.479	7.982	9.809	16.93	44.94	107.1	169.3
305.0	595.5	742.2	728.7	600.1	499.8	486.0	557.0	636.8	752.4	990.5	1389	1587	1256	1017	1236	4329	9999.9	9999.9	79.79	22.08	13.94	9.949	7.936	6.363	6.004	4.903	4.220	3.776	3.588	3.208	3.043	2.434	2.172	2.223	1.939	1.885	1.942	2.035	1.928	1.908	1.579	1.896	1.834	1.838	1.936	2.100	2.282	2.609	2.722	2.201	2.135	2.506	2.365	2.356	2.365	2.406	2.827	2.921	3.046	3.520	3.640	4.142	4.637	5.103	5.994	7.616	8.510	8.374	7.381	6.515	6.890	5.989	6.086	7.101	12.82	27.86	64.12
310.0	668.6	857.0	865.1	699.3	608.4	608.4	698.2	796.9	946.3	1198	1510	1852	1791	1316	1006	1410	4406	9999.9	9999.9	1835	34.04	14.66	10.63	7.909	7.056	5.748	4.904	4.270	3.848	3.490	3.345	2.958	2.577	2.468	2.213	1.992	2.120	2.092	2.068	1.840	1.896	1.859	1.961	2.041	2.274	2.392	2.649	2.888	2.915	2.573	2.508	2.905	2.772	2.686	2.837	3.029	3.315	3.542	3.887	4.360	4.436	5.052	5.567	5.863	6.713	7.784	8.373	9.126	9.904	9.335	8.731	7.287	6.571	6.258	6.712	9.233	17.00
315.0	756.8	952.0	981.3	821.4	696.2	721.7	808.0	937.0	1090	1347	1660	1911	2028	1805	1189	893.9	1368	2682	9999.9	9999.9	525.1	36.04	15.43	10.81	8.926	6.878	5.911	4.913	4.384	3.946	3.550	3.124	2.789	2.620	2.354	2.209	2.086	2.039	2.127	1.965	1.936	1.911	2.113	2.153	2.330	2.722	2.942	3.401	3.315	3.010	2.916	3.453	3.196	3.218	3.102	3.429	3.821	4.219	4.308	4.664	5.274	5.867	6.031	6.628	7.528	8.267	8.682	9.676	9.773	10.20	10.62	9.730	8.504	7.490	6.425	5.895	7.053
320.0	836.0	1103	1132	914.2	777.5	786.9	903.4	1032	1209	1464	1791	2036	2091	2033	1506	924.1	788.5	869.5	2979	9999.9	9999.9	446.6	26.92	14.27	10.60	8.220	6.554	5.520	4.680	4.420	3.959	3.578	3.065	2.635	2.488	2.288	2.244	2.174	2.254	2.027	2.180	1.911	2.249	2.388	2.572	3.060	3.152	3.738	3.642	3.309	3.216	3.378	3.453	3.429	3.600	3.942	4.331	4.583	4.928	4.854	5.688	5.924	6.753	7.396	8.162	8.869	9.447	9.934	10.14	10.23	10.60	11.03	10.82	9.119	7.203	6.310	5.537
325.0	992.2	1270	1355	1041	855.9	865.4	970.0	1111	1278	1551	1893	2125	2159	2038	1776	1103	749.8	533.4	851.4	3812	9999.9	9999.9	65.32	20.44	13.80	9.585	7.909	6.375	5.364	4.542	4.187	3.900	3.450	2.818	2.260	2.231	2.248	2.298	2.362	2.163	2.234	2.299	2.200	2.369	2.716	3.180	3.607	4.228	4.293	3.853	3.540	3.903	3.567	3.817	4.001	4.164	4.455	5.079	5.418	5.337	6.368	6.456	7.041	8.052	8.367	9.120	9.656	10.32	10.38	10.51	10.80	11.00	10.70	10.48	9.351	7.359	6.241
330.0	1098	1425	1559	1275	1045	1015	1103	1227	1399	1668	1980	2189	2247	2091	1805	1396	937.0	588.2	478.5	1047	3888	9999.9	9999.9	1659	31.65	14.56	10.28	7.962	6.477	5.697	4.630	4.141	3.550	3.377	2.714	2.383	2.462	2.510	2.445	2.290	2.209	2.349	2.406	2.463	3.045	3.589	3.980	4.794	4.932	4.355	4.192	4.856	4.164	4.351	4.494	4.467	5.037	5.443	5.830	5.990	6.518	6.958	7.573	8.423	8.972	9.658	10.03	10.18	11.03	11.14	11.39	11.01	10.80	10.36	9.575	9.382	7.747
335.0	1184	1547	1758	1561	1292	1255	1297	1400	1553	1796	2080	2284	2333	2206	1876	1504	1255	773.1	538.7	542.8	1078	2553	9999.9	9999.9	2567	37.74	14.68	11.37	8.077	6.632	5.666	4.498	4.136	3.435	3.087	2.713	2.642	2.766	2.365	2.363	2.229	2.482	2.454	2.781	3.243	3.709	4.395	5.252	5.356	5.060	4.888	5.721	5.252	5.474	5.659	5.440	5.898	6.405	6.283	6.587	7.285	7.620	8.120	8.881	9.670	10.11	10.23	10.74	11.14	11.40	11.78	11.77	11.36	10.72	9.847	9.525	9.113
340.0	1259	1690	1941	1728	1520	1460	1460	1540	1694	1882	2137	2334	2364	2255	1958	1584	1374	1077	684.0	533.5	544.1	779.4	2881	9999.9	9999.9	407.2	28.15	14.14	9.750	7.850	6.479	5.475	4.410	3.841	3.171	2.748	2.764	2.741	2.660	2.397	2.182	2.525	2.679	2.784	3.301	3.713	4.470	5.536	5.945	5.689	5.339	6.221	6.034	5.899	5.797	6.171	6.478	7.034	6.899	7.236	7.378	7.909	8.855	8.949	9.870	10.04	10.67	11.32	11.79	11.88	11.96	12.09	11.58	11.14	10.34	9.936	9.157
345.0	1288	1735	2025	1915	1719	1636	1649	1685	1772	1960	2153	2344	2386	2283	2023	1669	1418	1272	945.6	656.0	539.7	479.8	859.8	3566	9999.9	9999.9	336.9	21.51	12.51	9.417	7.259	5.865	4.774	3.935	3.234	2.718	2.900	2.694	2.370	2.289	2.289	2.706	2.729	3.044	3.599	4.001	4.594	5.586	5.801	5.904	5.761	6.694	6.500	6.520	6.389	6.816	7.175	7.456	7.645	8.025	8.045	8.714	8.996	9.715	10.34	10.46	10.48	11.04	11.42	11.44	11.63	12.60	12.29	11.64	10.72	10.15	9.920
350.0	1279	1738	2086	2078	1980	1932	1893	1879	1931	2066	2209	2353	2400	2324	2102	1822	1589	1413	1266	1008	764.3	608.2	561.6	1056	3650	9999.9	9999.9	1560	31.12	13.29	9.529	7.150	5.130	4.654	3.589	3.110	3.032	2.822	2.564	2.574	2.519	2.596	2.799	3.093	3.491	4.155	4.627	5.732	6.023	5.907	6.208	7.400	7.375	7.652	7.928	7.942	8.320	8.334	8.412	8.561	9.033	9.011	9.376	9.821	10.14	10.42	10.54	11.00	11.34	11.62	12.00	12.26	12.30	12.13	11.36	10.79	10.96
355.0	1310	1826	2122	2250	2242	2226	2183	2116	2130	2187	2285	2400	2417	2363	2199	1982	1803	1630	1493	1383	1132	880.0	703.0	651.2	1103	2518	8727	9999.9	2644	37.29	14.36	9.880	6.779	5.248	3.916	3.532	3.183	3.086	2.791	2.748	2.556	2.686	2.851	3.107	3.660	4.257	4.592	5.884	6.328	6.177	6.440	8.016	8.134	8.870	8.726	8.785	9.454	9.231	9.408	9.483	9.741	9.723	10.25	10.57	10.49	10.34	10.65	11.42	11.46	11.98	11.90	12.71	12.62	12.79	11.89	11.63	12.27
360.0	1348	1834	2141	2375	2422	2448	2391	2297	2263	2297	2359	2438	2437	2398	2269	2103	1961	1818	1690	1572	1439	1141	892.5	708.6	643.7	832.1	2403	9999.9	9999.9	2113	30.70	13.09	8.661	6.429	4.952	3.998	3.502	3.482	3.122	2.831	2.667	2.763	3.182	3.372	3.598	4.426	4.677	5.709	6.460	6.183	6.734	8.447	8.843	9.294	9.333	9.538	10.18	10.51	10.11	10.30	10.10	10.49	10.91	11.06	10.95	10.97	10.67	11.53	11.95	11.91	12.50	12.66	12.92	13.14	12.70	12.10	12.87
365.0	1404	1829	2231	2439	2584	2612	2570	2428	2389	2388	2423	2474	2466	2440	2337	2209	2103	1990	1885	1745	1650	1434	1113	868.1	666.3	551.3	780.1	3078	9999.9	9999.9	358.9	22.14	11.48	7.631	5.815	4.505	3.830	3.654	3.181	2.892	2.992	2.660	3.141	3.488	3.848	4.556	4.808	6.034	6.340	6.555	6.881	8.778	9.795	9.996	10.23	10.31	10.87	11.16	11.06	11.53	10.95	11.12	11.10	11.04	11.38	11.59	11.05	11.09	12.17	12.24	12.82	12.49	12.92	13.49	13.09	13.35	13.26
370.0	1410	1896	2305	2562	2741	2802	2743	2599	2541	2508	2502	2537	2514	2486	2413	2322	2259	2197	2122	1993	1862	1725	1459	1143	871.8	658.0	537.5	934.8	3216	9999.9	9999.9	1466	29.42	12.05	7.717	5.482	4.635	3.953	3.480	3.277	3.170	3.041	3.175	3.631	3.975	4.716	5.002	6.154	6.413	6.654	7.298	9.304	9.745	10.61	10.62	11.26	11.81	11.88	11.84	11.95	11.64	11.58	11.81	11.70	11.79	11.46	11.43	11.66	12.14	12.91	12.82	12.94	13.58	13.85	13.70	13.77	14.02
375.0	1472	1952	2349	2662	2882	2977	2923	2770	2668	2619	2582	2608	2565	2536	2480	2399	2398	2379	2322	2224	2095	1937	1755	1482	1128	862.8	646.9	575.4	961.9	2452	7668	9999.9	2493	34.53	11.60	7.422	5.589	4.575	4.023	3.446	3.404	3.402	3.337	3.699	4.142	4.878	4.883	6.190	6.372	6.767	7.352	10.08	10.41	11.47	11.33	11.70	12.50	12.75	12.56	12.30	12.02	11.77	12.13	11.87	11.94	11.83	12.20	12.65	12.80	13.07	12.79	13.15	13.70	13.66	14.33	14.61	14.78
380.0	1511	1961	2391	2711	2958	3068	2997	2849	2751	2697	2643	2613	2599	2549	2512	2459	2474	2467	2443	2354	2241	2076	1891	1696	1338	1038	785.9	588.3	532.9	757.3	2067	9999.9	9999.9	1911	26.55	9.893	7.330	5.387	4.517	3.983	3.477	3.485	3.750	3.807	4.293	4.933	4.899	6.445	7.002	7.012	7.997	9.916	10.85	11.53	12.01	11.75	13.03	12.86	12.82	12.37	12.66	12.50	12.74	12.41	11.84	12.14	12.51	12.28	13.04	12.98	12.99	13.38	13.95	14.29	14.37	14.87	15.38
385.0	1570	1947	2438	2779	2993	3138	3061	2942	2792	2736	2676	2644	2617	2575	2515	2491	2510	2528	2517	2450	2340	2189	1982	1805	1544	1205	919.1	691.0	509.0	448.0	650.7	2885	9999.9	9999.9	299.0	17.98	9.117	6.483	5.082	4.286	3.831	3.868	3.653	3.977	4.331	5.038	5.239	6.231	7.107	6.984	7.717	9.840	10.98	11.42	11.79	12.28	13.08	13.13	12.94	12.80	13.14	12.83	12.99	12.51	12.63	12.61	12.42	12.36	12.87	13.11	12.88	13.44	14.19	14.18	14.33	15.05	16.00
390.0	1524	1981	2438	2794	3039	3156	3117	2987	2859	2778	2718	2660	2617	2574	2526	2506	2532	2557	2562	2517	2420	2297	2110	1914	1694	1429	1109	854.5	644.6	490.8	418.1	822.7	2932	9542	9999.9	3501	24.27	9.549	6.844	5.204	4.335	4.307	4.080	4.257	4.706	5.167	5.302	6.475	6.931	7.046	7.965	10.13	10.86	11.55	11.98	12.27	13.14	13.39	13.30	13.39	13.38	12.97	13.31	12.74	12.83	12.66	12.56	12.45	12.80	12.78	13.19	13.50	13.95	14.29	14.28	15.33	15.92
395.0	1507	2022	2482	2770	3035	3179	3134	3024	2899	2810	2746	2671	2600	2553	2507	2508	2529	2560	2572	2533	2462	2358	2205	2016	1800	1583	1333	1032	809.2	619.0	458.6	435.6	814.6	2277	6296	9999.9	2084	29.01	9.831	6.789	5.549	4.587	4.576	4.406	4.786	5.427	5.671	6.513	7.168	7.352	8.038	10.20	10.65	11.57	11.97	12.51	13.11	13.82	13.72	13.89	13.23	13.25	12.99	13.13	12.64	12.54	12.68	12.82	13.30	12.96	13.77	13.11	14.38	13.97	14.54	14.87	15.59
400.0	1539	1997	2482	2782	3044	3182	3142	3038	2905	2829	2749	2665	2604	2539	2495	2467	2494	2533	2559	2524	2461	2377	2245	2080	1871	1657	1452	1189	941.3	730.6	545.6	411.3	391.0	639.5	1649	8039	9999.9	1633	22.53	8.818	6.392	5.335	4.769	4.578	4.737	5.386	5.624	6.727	7.170	7.160	7.879	10.13	10.67	11.68	12.27	12.43	13.38	13.58	14.07	13.32	13.40	12.93	13.17	13.18	12.79	12.45	12.42	12.53	13.03	13.00	13.27	13.76	13.98	13.65	14.32	15.05	15.26
405.0	1546	1979	2452	2762	2999	3132	3125	3075	2934	2845	2767	2672	2596	2513	2459	2430	2466	2497	2517	2491	2448	2360	2251	2109	1924	1714	1517	1326	1067	838.7	640.6	466.1	343.6	313.6	479.4	2260	9728	9999.9	265.6	15.89	7.991	6.188	5.352	5.014	4.907	5.553	5.635	6.774	6.945	7.180	7.907	9.949	10.77	11.64	12.25	12.53	13.22	13.43	13.73	13.73	13.32	12.92	13.69	13.48	13.21	12.66	12.57	12.92	12.99	12.89	12.62	13.17	13.98	13.35	14.37	14.91	15.36
410.0	1450	1929	2390	2737	2970	3094	3098	3060	2962	2853	2788	2673	2581	2488	2414	2356	2376	2410	2433	2421	2384	2321	2236	2114	1959	1775	1585	1422	1230	996.2	777.6	581.0	417.3	306.3	267.0	610.9	2672	7682	8958	1174	21.78	8.304	6.406	5.764	5.240	5.602	5.718	6.626	6.996	7.149	7.789	9.984	10.62	11.26	12.03	12.08	13.24	13.50	13.58	13.24	13.42	13.51	13.59	13.22	13.09	12.83	12.71	12.72	12.82	12.97	12.79	13.14	13.59	13.51	13.77	14.41	14.60
415.0	1400	1889	2323	2685	2886	3052	3062	3057	2980	2890	2793	2686	2567	2453	2344	2264	2266	2313	2328	2320	2289	2252	2185	2098	1964	1813	1652	1492	1346	1165	921.3	705.3	521.3	378.1	277.6	285.3	693.6	1814	4975	9999.9	1838	26.19	8.954	6.709	5.934	6.027	5.812	6.542	6.905	6.923	7.524	10.04	9.970	11.19	11.94	12.20	12.96	13.37	13.80	13.21	13.40	13.62	13.89	13.10	13.43	13.16	13.11	12.95	12.89	12.75	13.00	12.89	13.25	13.55	13.51	13.94	14.02
420.0	1335	1848	2226	2603	2855	3014	3057	3022	2991	2925	2818	2711	2557	2426	2296	2177	2188	2213	2220	2225	2201	2178	2127	2063	1958	1844	1689	1546	1399	1257	1041	802.8	609.5	446.2	324.2	245.8	278.7	485.8	1287	6568	9366	1396	19.67	8.016	6.787	6.185	5.921	6.408	7.324	6.835	7.465	9.685	10.00	10.94	11.38	12.25	12.58	13.06	13.78	13.83	13.92	13.52	14.07	13.46	13.39	13.05	12.68	12.64	12.82	12.79	12.84	12.66	12.87	13.23	13.07	13.17	13.90
425.0	1290	1782	2185	2534	2797	2933	3058	3051	3029	2962	2866	2749	2576	2410	2242	2106	2105	2128	2126	2133	2124	2109	2076	2031	1948	1845	1726	1596	1453	1327	1151	902.8	690.9	515.3	373.5	274.1	214.6	211.1	356.6	1808	7611	7856	244.4	12.68	7.779	6.872	6.212	6.657	7.144	6.695	7.423	9.489	10.06	11.12	11.50	11.56	12.75	13.37	13.25	14.06	13.82	13.55	14.02	14.15	13.77	13.31	12.94	12.86	13.18	12.83	12.88	12.52	12.97	13.35	13.14	13.13	13.55
430.0	1305	1699	2130	2464	2752	2906	3045	3070	3088	3038	2955	2818	2628	2420	2207	2040	2003	2006	2022	2031	2023	2019	2011	1983	1918	1850	1756	1657	1535	1408	1254	1047	815.8	618.2	460.8	341.5	246.6	184.3	173.7	466.0	2075	5902	6875	997.7	19.71	8.883	7.076	7.033	7.182	6.830	7.420	9.616	10.15	10.94	11.29	11.89	12.94	13.43	13.64	13.78	13.93	14.27	14.30	13.95	14.50	14.00	13.43	12.98	13.23	13.12	13.08	12.62	12.63	12.98	12.51	12.58	12.80
435.0	1406	1642	2066	2372	2686	2909	3020	3134	3139	3118	3065	2905	2684	2444	2178	1965	1902	1895	1916	1926	1933	1933	1932	1920	1891	1848	1786	1707	1618	1511	1341	1159	955.4	731.6	552.9	414.0	302.5	216.8	163.1	188.1	519.6	1388	4029	8423	1661	23.69	8.601	7.969	7.345	7.256	7.511	9.675	9.915	10.90	11.66	12.13	12.60	13.62	13.61	14.10	14.98	14.80	14.68	14.63	14.26	14.34	13.96	13.67	13.46	13.30	13.45	12.97	12.94	12.87	12.67	12.10	12.01
440.0	1496	1594	2022	2337	2641	2880	3041	3146	3153	3170	3102	2970	2734	2450	2161	1906	1821	1815	1828	1840	1853	1866	1878	1876	1864	1829	1791	1732	1666	1565	1409	1222	1029	822.8	623.0	471.1	345.3	252.1	181.2	142.6	186.4	359.1	1056	5820	8078	1244	17.65	9.172	7.950	7.491	7.759	9.576	10.01	10.31	11.18	12.06	12.57	13.76	14.28	14.53	15.13	14.98	14.77	14.33	14.90	14.72	14.63	13.95	13.99	13.92	13.87	13.41	13.00	12.68	12.65	11.79	11.63
445.0	1519	1673	1913	2278	2581	2819	2983	3134	3190	3195	3149	2992	2762	2462	2113	1844	1737	1721	1733	1751	1770	1787	1806	1817	1823	1803	1771	1738	1683	1599	1458	1268	1077	885.6	686.6	516.4	389.7	284.6	207.3	150.8	124.6	138.0	276.5	1644	7003	6910	203.4	13.23	8.576	7.288	7.716	9.305	9.757	10.63	11.23	12.29	12.55	13.47	14.05	14.07	14.23	14.71	14.95	15.12	14.79	14.33	14.40	14.03	13.97	14.06	13.48	13.35	12.98	12.48	11.84	11.54	11.46
450.0	1330	1904	1899	2158	2480	2717	2907	3053	3146	3163	3114	2970	2734	2412	2043	1745	1625	1603	1609	1617	1641	1661	1693	1715	1729	1732	1715	1707	1674	1608	1481	1306	1111	925.5	753.1	573.8	435.3	324.0	239.4	174.4	130.1	103.7	112.6	403.9	1933	5416	6270	884.1	17.68	8.548	8.101	9.787	9.733	10.59	10.82	11.64	12.57	13.19	13.45	13.73	14.05	14.53	15.08	15.00	14.86	14.24	14.12	13.95	13.94	14.10	13.58	13.39	12.51	11.95	11.48	10.85	11.13
455.0	1040	1878	2040	2021	2335	2562	2755	2940	3040	3067	3030	2913	2657	2338	1936	1616	1488	1463	1460	1465	1498	1521	1562	1585	1617	1627	1627	1633	1623	1575	1466	1303	1124	935.8	777.6	625.8	472.7	355.1	269.7	199.6	148.3	109.9	86.31	134.4	463.1	1265	3475	7055	1363	19.35	9.329	9.935	9.722	10.28	10.66	10.77	11.75	12.80	13.03	13.53	13.73	14.33	14.29	14.48	13.85	14.68	13.37	13.56	13.73	13.48	13.20	12.66	11.97	11.54	11.01	10.35	10.25
460.0	880.7	1614	2322	1970	2208	2438	2626	2818	2919	2945	2944	2810	2553	2250	1846	1514	1392	1350	1351	1356	1382	1410	1452	1488	1520	1528	1544	1557	1556	1523	1428	1284	1112	934.0	776.7	642.5	496.4	373.6	288.1	214.9	162.1	117.8	87.34	79.13	139.0	308.6	884.2	4626	6390	983.7	16.20	10.12	9.867	9.981	10.31	10.28	11.13	11.92	12.78	12.60	13.26	13.43	14.13	13.97	13.50	14.07	13.64	13.16	13.30	12.75	12.39	12.15	11.68	11.16	10.08	9.693	9.606
465.0	835.5	1343	2489	2121	2072	2303	2494	2656	2789	2814	2804	2685	2449	2148	1743	1427	1292	1251	1250	1258	1276	1300	1349	1381	1420	1438	1457	1478	1486	1469	1383	1253	1087	919.4	763.8	631.5	510.9	388.7	296.9	228.0	171.6	126.5	93.61	72.20	71.48	99.17	221.2	1280	5466	5224	170.4	14.53	10.45	10.08	9.841	10.15	11.08	11.76	12.34	11.81	13.05	13.21	13.28	13.87	13.65	13.10	12.83	13.25	12.82	12.57	11.92	11.85	11.17	10.51	9.814	8.923	8.860
470.0	744.7	1064	2008	2663	2000	2103	2261	2447	2571	2615	2605	2486	2278	1982	1600	1292	1161	1121	1111	1124	1133	1164	1207	1237	1276	1304	1324	1353	1366	1361	1291	1176	1030	874.4	733.5	603.9	495.4	394.5	306.0	232.8	179.8	134.1	100.8	75.29	61.01	55.90	75.66	306.9	1490	3911	4396	899.2	18.76	10.38	9.906	9.819	10.63	10.70	11.10	11.41	12.08	12.37	12.57	12.62	12.62	11.98	12.06	12.14	11.77	11.84	11.26	10.78	10.42	9.560	8.884	8.166	8.315
475.0	681.3	908.9	1406	2805	2376	1888	2050	2212	2330	2396	2367	2270	2095	1798	1449	1161	1031	987.2	977.0	987.2	1000	1019	1063	1099	1133	1154	1190	1215	1233	1234	1182	1077	960.0	819.7	690.4	571.2	466.8	385.0	310.5	237.2	182.8	139.8	107.0	81.34	63.47	50.31	46.57	91.40	350.1	901.1	2159	4698	1308	23.13	10.08	9.185	9.722	9.940	10.55	10.33	10.81	11.25	11.59	11.34	11.04	11.41	11.09	11.04	10.74	10.81	10.38	9.852	9.689	8.382	8.134	7.389	7.296
480.0	624.8	838.0	1126	2326	3068	1830	1903	2072	2171	2218	2218	2119	1942	1682	1342	1069	947.8	905.5	887.0	896.1	909.8	927.8	968.3	999.1	1038	1061	1096	1121	1146	1144	1106	1012	899.2	776.0	656.5	549.2	451.1	370.0	307.3	242.0	184.6	143.2	110.1	85.84	65.82	52.00	41.95	45.19	97.78	216.8	534.2	2693	4595	1085	18.17	9.689	9.663	9.470	9.683	9.719	10.28	10.64	10.48	10.50	10.24	10.46	10.64	10.49	10.33	10.06	9.881	9.125	8.673	8.035	7.750	7.202	7.069
485.0	564.9	774.1	1021	1665	3461	2146	1772	1932	2044	2076	2081	1996	1821	1576	1246	990.5	876.1	833.6	818.6	818.7	835.5	856.6	885.7	916.4	956.6	984.7	1015	1043	1066	1070	1034	957.7	846.2	738.9	628.6	524.3	434.8	356.0	294.6	245.0	188.3	145.3	112.6	88.00	69.51	54.56	43.12	37.76	43.07	65.65	133.9	720.1	3511	4198	200.6	13.26	9.858	9.187	9.797	9.317	9.809	9.900	10.31	10.41	10.25	9.706	9.835	9.960	9.860	9.767	9.314	8.551	8.104	7.596	7.214	6.509	6.562
490.0	500.7	705.7	905.2	1232	2663	3166	1758	1756	1859	1900	1902	1827	1677	1442	1139	904.7	798.3	753.1	737.6	735.9	749.2	768.6	798.8	828.1	860.3	888.2	917.6	947.2	970.1	978.4	948.7	877.5	783.5	688.1	588.1	495.5	411.0	339.4	281.3	234.6	193.3	148.1	116.2	91.66	73.25	59.35	47.44	38.35	33.59	33.89	45.87	175.0	924.7	2702	3617	934.2	20.46	9.729	9.145	9.275	8.984	8.993	9.379	9.697	9.567	9.462	9.283	9.291	9.032	8.464	8.544	8.107	7.635	6.933	6.540	6.122	5.916
495.0	436.6	634.3	832.8	1022	1593	3608	2364	1590	1670	1717	1728	1668	1512	1289	1031	812.6	703.3	671.1	652.4	653.8	660.3	682.6	708.4	735.4	760.0	784.0	811.6	844.3	862.8	877.7	855.4	792.2	710.2	626.2	538.9	455.7	385.7	321.1	265.7	219.6	185.7	153.2	117.3	93.07	76.06	62.70	50.75	42.55	33.39	29.18	27.90	54.46	218.8	622.1	1823	4340	1495	24.88	9.204	8.926	8.467	8.388	8.262	8.631	8.547	8.743	8.288	8.075	8.073	7.848	7.890	7.199	6.796	6.342	5.722	5.605	5.435
500.0	397.3	560.1	735.7	911.5	1178	2823	3302	1541	1525	1579	1572	1518	1383	1182	934.6	735.9	640.2	608.9	590.3	588.4	599.2	615.5	635.0	663.3	684.4	713.1	735.8	763.0	785.8	796.3	774.9	725.8	654.9	578.0	498.1	425.3	361.0	300.3	251.2	208.7	176.6	151.4	118.6	94.94	77.01	62.67	52.11	43.90	35.29	29.23	26.02	28.19	62.29	151.1	449.5	2392	4412	1162	19.89	8.538	8.300	7.871	7.689	7.857	8.041	7.800	7.333	7.325	7.669	7.117	7.326	6.541	6.496	5.666	5.283	5.030	5.016
505.0	371.9	493.5	655.4	819.8	1005	1804	3946	1862	1404	1432	1440	1388	1263	1078	860.3	669.0	581.7	547.5	540.5	530.2	542.0	552.3	572.3	598.9	621.0	646.0	663.7	688.8	717.7	724.1	709.4	659.5	598.0	530.4	457.0	391.4	333.7	281.7	237.2	198.0	166.1	144.5	120.3	95.85	77.60	63.02	52.59	44.33	36.88	30.70	25.69	23.27	28.01	46.18	111.6	621.7	3017	3921	227.5	13.57	7.970	7.651	7.440	7.526	7.576	7.486	6.988	7.114	7.088	6.635	6.678	6.208	6.042	5.669	4.872	4.586	4.575
510.0	322.2	439.1	584.4	732.1	853.6	1145	3005	3202	1354	1257	1269	1213	1108	939.5	746.2	586.3	507.2	476.8	462.8	458.9	465.5	477.4	495.7	518.1	535.4	555.8	575.6	599.2	624.3	632.7	616.9	577.8	526.0	465.4	403.9	350.3	301.5	254.5	214.6	182.3	152.5	129.8	112.3	95.65	77.20	63.06	52.97	45.06	38.15	31.36	26.30	22.34	20.76	22.97	35.58	148.5	773.4	2282	2421	969.6	19.86	7.765	7.218	7.041	6.651	6.571	6.480	6.338	6.240	5.975	5.753	5.561	5.246	4.911	4.436	4.118	4.150
515.0	289.5	372.1	488.2	620.0	738.0	854.4	1513	4014	2017	1096	1090	1052	962.8	813.2	640.6	503.2	435.3	408.1	393.8	389.9	397.8	407.4	423.8	444.3	455.5	476.7	491.7	510.2	532.7	539.3	528.2	495.4	452.7	403.6	355.1	306.8	263.2	224.8	191.8	164.5	137.6	117.2	100.7	90.71	77.98	62.80	52.78	44.41	37.82	31.54	26.92	22.90	19.03	17.84	18.79	42.59	181.1	519.8	1109	3170	1452	25.44	7.090	6.543	6.253	6.030	5.578	5.406	5.323	5.563	5.133	4.900	4.698	4.134	3.772	3.517	3.579
520.0	268.6	341.5	425.1	550.6	668.3	735.1	948.7	3080	3415	1074	971.5	936.6	850.7	725.0	564.9	445.5	388.9	362.4	351.7	342.8	349.1	359.6	373.9	387.7	406.8	418.4	434.2	448.9	469.5	477.9	469.1	437.2	403.3	359.7	318.3	275.1	237.7	204.0	174.5	151.6	127.8	108.1	92.56	83.13	75.19	63.51	52.10	43.14	37.05	30.64	26.27	23.11	19.32	16.90	14.90	19.00	49.05	123.7	266.6	1529	3191	1085	19.69	6.362	5.856	5.364	5.146	4.994	4.844	4.742	4.589	4.174	4.357	3.887	3.603	3.302	3.170
525.0	216.6	311.1	385.6	487.6	605.7	645.2	750.0	1715	4484	1470	876.8	840.9	752.7	648.6	504.4	398.6	347.1	324.0	313.5	308.7	313.8	321.2	331.8	345.1	360.3	369.5	383.2	399.3	418.1	423.0	420.0	393.9	359.7	321.9	284.1	249.6	212.4	183.5	160.4	136.1	117.4	102.0	85.50	76.29	70.21	62.59	50.44	41.70	35.82	30.68	25.76	22.32	18.81	16.42	14.08	13.51	19.28	34.72	66.65	378.1	1833	2867	238.8	12.56	5.851	5.147	5.128	4.871	4.534	4.144	4.233	4.067	3.764	3.520	3.066	3.020	2.606
530.0	185.3	258.5	326.0	420.6	525.1	559.7	626.8	908.7	3226	3126	899.3	718.9	649.9	553.8	439.8	341.9	296.9	277.7	267.1	263.1	267.0	276.3	283.7	293.1	305.2	314.4	327.1	341.5	354.7	362.1	355.5	336.7	307.6	275.5	244.0	216.1	185.2	160.7	139.2	120.5	105.1	90.26	77.77	68.53	62.02	58.16	50.06	40.80	33.99	28.47	24.70	20.94	17.58	15.49	13.34	12.02	12.36	14.68	21.20	90.32	448.9	1415	1842	943.0	19.33	5.169	4.447	4.224	4.038	3.962	3.743	3.601	3.398	3.061	2.663	2.652	2.511
535.0	171.0	209.9	276.0	342.9	425.9	499.8	528.3	615.4	1337	4388	1684	602.9	551.0	466.6	369.8	290.6	250.7	235.6	225.4	219.7	225.1	229.2	239.7	246.2	255.9	263.9	275.3	285.9	295.7	302.9	297.3	282.4	258.7	231.3	205.5	182.4	157.7	136.1	120.6	105.3	89.79	79.53	68.97	61.69	54.10	49.80	45.79	39.38	31.70	26.90	22.68	20.04	16.78	14.83	12.90	11.67	10.23	9.894	10.78	25.53	105.1	320.5	655.5	2056	1331	25.98	4.446	3.718	3.610	3.534	3.363	3.281	2.943	2.611	2.301	2.267	2.161
540.0	143.2	202.5	234.5	298.8	366.2	441.2	469.3	505.4	703.1	3040	3610	619.1	478.9	405.6	316.7	251.5	219.3	201.6	194.9	190.9	193.5	197.7	205.2	212.2	219.6	227.2	233.8	247.4	255.3	260.9	254.9	242.8	223.3	202.7	178.1	158.6	137.5	121.2	106.0	94.31	81.51	70.51	62.41	55.63	49.28	44.21	40.87	37.50	30.61	25.13	21.05	18.19	15.68	13.81	12.08	11.19	9.390	8.396	8.024	10.72	28.16	75.89	153.7	837.2	2154	954.4	20.33	3.969	3.432	3.112	3.038	2.853	2.496	2.273	2.086	2.298	2.031
545.0	130.6	177.9	215.9	263.8	318.0	382.7	419.9	430.0	500.9	1413	4814	1059	415.4	355.8	278.3	218.8	190.2	175.7	169.3	168.7	168.5	170.8	175.6	182.5	189.8	198.0	201.7	214.5	221.7	225.9	220.6	209.9	193.6	175.1	156.2	138.8	122.1	106.4	93.76	83.02	71.98	64.11	55.71	50.65	44.47	39.36	36.05	34.27	30.08	24.54	20.22	16.85	14.53	13.23	11.41	10.13	8.755	7.961	7.117	7.281	10.89	21.02	38.40	198.5	1009	1984	248.5	13.58	3.370	2.867	2.707	2.602	2.113	2.284	1.700	1.937	1.677
550.0	113.7	145.4	185.5	215.0	259.7	306.4	363.8	355.7	386.1	625.6	2994	3248	460.2	290.6	231.7	180.7	155.0	145.5	140.6	137.4	138.6	138.9	145.0	148.3	155.4	159.7	165.6	174.4	180.1	182.8	181.6	172.2	158.6	143.3	126.5	114.0	100.6	88.49	78.38	69.89	61.22	53.57	47.40	42.78	38.09	34.34	30.82	28.38	25.71	22.74	18.21	15.17	13.23	11.64	10.01	9.119	8.300	7.386	6.463	6.032	6.352	8.324	12.09	47.45	238.3	817.5	1275	744.9	19.65	3.276	2.387	2.278	1.980	2.003	1.688	1.648	1.539
555.0	109.0	121.2	151.6	176.1	207.1	242.5	290.1	308.2	313.7	373.2	1017	4272	1189	236.5	187.1	146.1	125.6	116.8	112.6	109.4	109.4	110.7	115.5	119.2	121.9	126.4	131.6	137.8	142.1	145.3	144.7	137.7	125.8	113.1	100.5	90.71	80.05	71.23	63.28	56.25	49.94	44.70	38.23	35.41	31.30	28.14	25.34	22.99	21.06	20.09	17.26	13.70	11.14	10.27	8.705	8.005	7.171	6.728	5.763	5.204	4.930	4.682	5.529	13.29	55.86	184.8	377.0	1169	973.2	27.68	2.718	2.280	1.846	1.726	1.436	1.474	1.538
560.0	106.7	117.9	135.6	149.3	169.8	202.1	236.3	274.1	261.9	281.2	437.5	2718	3174	264.6	157.5	124.5	104.4	97.81	92.32	90.60	92.03	91.28	94.83	99.05	99.87	104.5	109.2	113.2	118.4	120.7	119.8	112.9	103.1	93.28	83.57	74.86	65.47	59.77	52.82	47.51	42.11	38.04	33.53	29.44	27.45	24.73	21.92	19.33	17.31	16.80	15.68	12.85	10.36	9.081	7.567	7.377	6.272	5.596	5.618	4.777	4.186	3.881	3.747	5.499	14.98	43.50	87.21	411.3	1251	694.9	20.83	2.210	1.807	1.535	1.395	1.185	1.393
565.0	96.52	109.4	117.6	129.4	144.4	167.9	192.2	240.9	232.8	231.8	272.8	1079	4370	675.4	133.5	104.8	88.55	85.87	79.05	77.75	75.69	78.44	79.77	82.03	85.83	87.06	92.09	93.87	98.64	100.3	99.00	94.55	86.40	78.35	71.07	64.25	55.66	50.19	44.54	40.37	36.31	31.96	29.05	25.70	23.24	21.36	19.07	17.41	14.96	13.74	13.55	11.61	9.306	8.165	6.970	6.374	5.469	4.927	4.913	4.399	3.875	3.665	3.218	3.547	5.457	11.63	21.55	95.93	498.2	1157	254.5	13.04	1.711	1.494	1.326	1.066	1.182
570.0	85.48	98.92	101.2	111.9	125.5	136.3	156.3	189.8	208.7	195.4	202.9	395.0	2642	2717	201.4	83.76	71.79	67.74	63.16	62.99	61.60	62.12	64.36	66.56	68.81	69.39	72.44	74.29	77.50	79.09	78.23	74.54	68.95	61.92	56.41	50.13	44.54	39.52	35.71	32.48	29.30	25.89	23.49	21.01	19.16	17.48	15.77	14.10	12.50	10.95	10.37	9.798	8.514	7.048	6.327	5.470	4.984	4.478	4.247	3.813	3.684	3.376	2.935	2.729	3.113	4.347	6.548	22.99	115.7	422.4	726.0	488.4	19.11	1.967	1.248	1.065	1.018
575.0	85.94	91.65	95.01	97.93	100.3	112.4	123.8	146.6	189.9	173.0	167.8	206.0	796.8	3587	846.3	70.54	57.60	52.67	48.82	49.39	48.82	49.58	51.38	51.46	54.42	54.71	56.29	57.12	60.79	60.84	60.70	58.56	53.34	48.70	43.84	39.66	35.10	32.01	28.35	25.68	23.10	21.05	18.46	17.08	15.18	14.25	12.86	11.49	10.43	9.217	8.131	7.577	7.323	6.504	5.431	4.656	4.047	3.711	3.395	3.141	3.056	2.964	2.637	2.429	2.222	2.534	2.975	6.521	27.27	95.48	196.4	614.0	605.0	27.28	1.448	1.064	0.892
580.0	70.99	87.31	86.63	90.68	89.83	100.2	107.9	119.2	165.7	167.3	151.3	152.9	282.6	2268	2572	95.26	51.22	45.11	43.27	41.47	40.23	41.93	41.71	43.46	44.34	45.60	46.41	47.93	50.97	50.70	50.59	47.95	44.37	39.29	36.57	32.51	29.26	26.55	23.90	21.58	19.08	17.50	15.71	14.40	12.90	12.26	11.12	9.891	8.975	7.821	6.963	6.342	6.475	6.209	5.022	3.977	3.658	3.366	3.053	2.876	2.663	2.675	2.596	2.130	2.046	1.946	2.183	2.848	7.305	22.52	45.40	201.6	696.8	268.8	19.83	1.213	0.926
585.0	79.36	85.04	81.84	78.19	84.52	92.05	99.05	107.7	137.8	166.1	139.2	137.0	154.3	860.4	3548	388.4	43.59	39.88	36.56	34.77	35.03	35.50	35.38	37.53	36.68	39.07	38.50	40.54	41.86	43.35	42.35	40.88	37.51	33.80	30.83	27.37	24.97	22.34	20.67	18.20	16.46	14.70	14.04	12.99	11.50	10.53	9.498	8.259	7.722	6.595	5.984	5.638	5.508	5.305	4.625	3.749	3.126	3.220	2.784	2.386	2.596	2.313	2.319	2.176	1.732	1.762	1.743	1.895	2.918	6.353	11.29	46.93	263.0	631.9	232.2	10.45	1.089
590.0	79.30	77.39	79.76	74.91	72.69	80.61	86.28	93.90	112.3	150.9	138.9	124.4	117.4	271.2	2140	1663	67.84	32.91	30.16	28.88	29.30	28.99	28.82	29.98	29.66	30.90	31.93	33.15	34.28	34.13	33.98	32.57	29.33	27.35	24.56	22.03	20.27	18.16	16.51	14.87	13.20	11.77	11.04	10.31	9.594	8.441	7.807	7.029	6.515	5.737	5.094	4.619	4.301	4.097	4.014	3.651	3.158	2.716	2.427	2.310	2.174	2.052	2.028	2.097	1.815	1.615	1.650	1.500	1.732	2.446	3.592	11.51	60.74	226.2	435.3	315.5	18.41
595.0	70.46	77.69	80.44	73.76	66.83	70.96	71.23	84.91	94.10	121.8	144.3	116.8	104.1	122.6	608.3	2659	530.3	28.57	24.74	23.95	23.24	22.43	22.84	24.17	24.29	24.45	25.12	25.85	26.62	26.93	26.30	25.57	22.85	21.51	19.81	17.55	15.79	14.13	13.06	11.90	10.76	9.666	8.727	8.165	7.735	7.095	6.133	6.020	5.414	4.540	4.285	3.797	3.478	3.156	3.242	3.399	3.141	2.427	1.957	1.979	2.010	1.795	1.826	1.630	1.777	1.754	1.366	1.420	1.493	1.547	1.826	3.497	14.39	51.30	115.4	354.1	280.1
600.0	69.15	82.32	69.11	68.40	63.14	63.88	68.32	76.06	83.99	103.2	145.0	117.3	101.7	86.94	183.7	1774	1661	44.06	21.41	20.25	19.61	19.29	19.47	19.44	20.13	20.23	20.51	21.04	21.55	22.08	21.81	20.80	19.23	17.34	16.56	14.46	13.11	11.68	11.18	9.908	8.672	8.183	7.151	6.706	6.604	6.013	5.439	4.889	4.568	3.900	3.620	3.303	3.146	2.699	2.965	2.970	2.777	2.515	1.786	1.806	1.694	1.602	1.731	1.343	1.497	1.726	1.386	1.429	1.398	1.269	1.438	1.705	4.010	12.22	26.63	112.8	388.4
605.0	69.74	76.46	69.22	65.02	59.65	58.05	63.38	70.84	86.59	98.11	136.7	127.6	102.7	81.13	83.09	680.3	2483	92.29	19.36	17.31	16.41	16.55	16.44	17.47	17.63	16.91	17.05	17.94	18.37	18.60	18.30	17.64	15.95	14.88	13.92	12.16	11.09	9.976	9.354	8.625	7.098	7.023	6.018	5.852	5.613	5.052	4.869	4.348	3.887	3.496	3.234	2.750	2.830	2.333	2.439	2.504	2.543	2.276	1.798	1.672	1.549	1.413	1.474	1.318	1.482	1.680	1.530	1.265	1.285	1.304	1.115	1.166	1.729	3.462	6.677	26.28	147.1
610.0	67.30	73.35	66.54	61.53	57.47	56.72	63.71	68.79	80.36	92.97	119.7	139.2	108.6	83.13	63.89	195.1	1652	1160	38.15	14.55	14.16	13.84	13.22	13.48	13.83	14.11	13.65	14.47	14.50	15.23	14.29	13.86	13.14	11.74	10.74	10.06	9.213	7.793	7.185	6.816	5.939	5.655	4.960	4.600	4.450	4.108	3.850	3.549	3.180	2.926	2.679	2.413	2.155	2.109	1.948	1.937	2.149	2.060	1.708	1.471	1.383	1.328	1.351	1.271	1.365	1.398	1.427	1.400	1.210	1.201	1.076	0.990	1.149	1.476	2.126	6.538	34.08
615.0	64.62	72.29	68.30	55.15	53.77	54.29	60.25	65.19	76.43	84.33	110.2	140.1	114.1	84.68	61.87	74.01	479.8	2008	352.3	12.76	12.11	11.41	10.99	10.57	10.55	11.04	10.95	11.32	12.07	11.99	11.74	11.00	10.39	9.389	8.552	8.045	7.181	6.444	5.586	5.400	4.771	4.558	4.241	3.785	3.715	3.373	3.128	2.861	2.553	2.351	2.223	2.071	1.898	1.779	1.581	1.617	1.562	1.813	1.771	1.599	1.354	1.286	1.329	1.185	1.159	1.110	1.290	1.385	1.310	1.177	1.212	1.017	0.910	0.987	1.156	2.113	8.199
620.0	73.65	68.08	64.71	52.23	50.31	50.94	57.66	61.58	71.27	83.64	102.3	123.4	120.1	85.81	60.47	47.37	136.7	1453	1144	20.88	10.41	10.30	9.251	9.056	8.876	9.355	8.982	9.122	9.920	10.04	9.714	9.110	9.013	7.877	6.685	6.662	5.693	5.187	4.707	4.406	4.198	3.829	3.587	3.398	2.951	2.929	2.741	2.544	2.240	2.064	1.900	1.798	1.572	1.534	1.339	1.469	1.456	1.637	1.548	1.506	1.182	1.194	1.137	1.104	1.233	1.139	1.206	1.259	1.180	1.122	1.144	1.005	0.935	0.965	0.960	1.044	2.422
625.0	72.19	70.80	60.33	51.53	48.28	49.13	54.84	59.91	68.65	82.69	97.55	111.2	123.5	84.90	60.06	40.00	53.81	590.5	1860	67.42	9.330	9.130	8.673	7.555	7.897	8.211	7.633	7.761	8.332	8.449	8.387	7.470	6.834	6.886	5.877	5.263	5.278	4.412	4.035	3.646	3.592	3.331	3.111	2.782	2.725	2.482	2.244	2.169	2.012	1.773	1.561	1.656	1.322	1.398	1.307	1.393	1.197	1.324	1.412	1.354	1.211	1.135	1.141	1.137	1.084	1.074	1.180	1.074	1.160	1.233	1.099	1.134	0.955	0.929	0.801	0.808	1.130
630.0	66.08	66.62	59.00	50.57	44.05	45.38	52.25	56.06	66.35	78.32	92.92	103.0	115.8	92.19	61.76	40.06	34.35	159.2	1367	851.9	20.29	7.933	7.181	6.672	6.726	6.737	6.498	6.543	6.607	6.729	6.595	6.268	5.569	5.302	4.617	4.236	4.086	3.640	3.408	3.050	2.809	2.724	2.459	2.360	2.105	2.044	1.864	1.792	1.611	1.504	1.367	1.334	1.185	1.186	1.147	1.170	1.120	1.101	1.164	1.287	1.188	1.095	0.986	1.056	0.975	0.993	0.974	1.012	1.063	1.188	1.086	0.998	0.926	0.893	0.767	0.811	0.823
635.0	64.12	66.42	58.55	50.28	44.56	45.29	52.64	53.97	62.63	76.11	88.19	98.31	101.6	99.76	64.55	40.85	31.45	50.40	407.0	1606	209.9	7.442	6.213	5.765	5.469	5.245	5.403	5.212	5.543	5.259	5.223	4.917	4.438	4.128	3.727	3.494	3.275	2.935	2.691	2.580	2.385	2.135	1.925	2.017	1.845	1.695	1.542	1.463	1.354	1.181	1.191	1.107	1.023	1.023	1.057	1.054	0.940	0.935	1.021	1.093	1.148	0.914	0.888	0.989	0.958	0.936	0.968	0.890	0.880	0.957	1.058	0.973	0.907	0.759	0.742	0.692	0.805
640.0	54.24	65.26	61.16	47.31	41.45	42.33	51.06	54.78	59.96	73.49	86.34	98.77	99.86	101.5	68.58	41.25	31.36	26.32	107.5	1282	555.6	11.10	5.723	5.186	4.733	4.923	4.782	4.503	4.552	4.363	4.372	4.384	3.851	3.527	3.146	2.922	2.729	2.446	2.500	2.152	1.964	1.854	1.746	1.647	1.658	1.431	1.448	1.224	1.153	1.070	0.986	1.055	0.900	1.014	0.899	0.930	0.960	0.839	0.934	0.879	0.999	0.961	0.894	0.932	0.920	0.970	0.981	0.956	0.922	0.781	0.931	0.892	0.939	0.738	0.820	0.708	0.692
645.0	55.97	64.91	64.01	51.51	43.25	42.07	47.25	54.58	58.39	70.92	81.72	94.30	94.34	96.21	74.11	43.85	31.34	21.04	33.96	566.4	1342	47.77	5.445	4.671	4.403	4.519	4.231	3.848	3.964	4.160	4.028	3.685	3.270	3.038	2.662	2.662	2.344	2.106	2.062	1.796	1.668	1.458	1.473	1.346	1.437	1.390	1.197	1.196	1.130	0.939	0.906	0.942	0.858	0.909	0.759	0.861	0.753	0.832	0.782	0.820	0.921	0.899	0.874	0.948	0.944	0.850	0.830	1.011	0.908	0.922	0.923	0.927	0.998	0.969	0.763	0.752	0.654
650.0	67.48	64.19	60.12	48.73	41.00	46.18	45.58	51.98	55.50	67.50	81.73	89.74	91.09	87.40	76.89	46.34	31.21	20.06	17.65	165.5	1435	332.4	6.356	4.308	3.930	3.750	3.822	3.601	3.534	3.744	3.527	3.222	2.743	2.639	2.249	2.100	2.038	1.965	1.702	1.669	1.446	1.448	1.300	1.224	1.278	1.259	1.178	1.151	1.087	0.913	0.829	0.868	0.814	0.790	0.726	0.798	0.779	0.830	0.727	0.831	0.919	0.879	0.937	0.854	0.903	0.841	0.799	0.969	0.905	0.864	0.902	0.837	1.077	0.938	0.830	0.675	0.602
