Sample:	'1
File name:	w2025091001π≈œÿ °øÿµ„.FD3
Run date:	'14:17:48, 09/11/2025
Operator:	Administrator
Comment:	'

Instrument
Model:	F-2700 FL Spectrophotometer
Serial number:	23C7-004
ROM Version:	4J14000 07

Instrument parameters
Measurement type:	3-D scan
Data mode:	Fluorescence
EX  Start WL:	220.0 nm
EX  End WL:	600.0 nm
EX Sampling interval:	5.0 nm
EM  Start WL:	230.0 nm
EM  End WL:	650.0 nm
EM Sampling interval:	5.0 nm
Scan speed:	12000 nm/min
EX Slit:	5.0 nm
EM Slit:	5.0 nm
PMT Voltage:	700 V
Response:	Auto 
Corrected spectra:	Off
Contour interval:	50.000

Peak integration
Integration method:	Rectangular
Sensitivity:	1
Threshold:	1.000

Peaks
No.	ApexEX/EM(nm)	Height(Data)
1	225.0/330.0	1988
2	225.0/625.0	73.30
3	230.0/500.0	392.4
4	235.0/510.0	304.8
5	240.0/525.0	252.3
6	245.0/425.0	781.9
7	245.0/535.0	203.3
8	250.0/550.0	169.0
9	255.0/285.0	473.3
10	255.0/425.0	771.2
11	255.0/565.0	141.2
12	260.0/290.0	513.4
13	260.0/435.0	775.9
14	260.0/575.0	118.3
15	265.0/440.0	787.3
16	265.0/585.0	99.83
17	275.0/615.0	156.0
18	280.0/315.0	2694
19	280.0/625.0	145.7
20	285.0/635.0	118.9
21	320.0/365.0	513.5
22	325.0/370.0	491.8
23	330.0/375.0	480.1
24	335.0/380.0	471.1
25	455.0/335.0	5.124
26	475.0/345.0	4.725
27	510.0/280.0	2.802
28	515.0/285.0	3.144
29	525.0/290.0	3.002
30	565.0/315.0	13.14
31	570.0/320.0	13.28
32	580.0/325.0	12.81

Data points
	220.0	225.0	230.0	235.0	240.0	245.0	250.0	255.0	260.0	265.0	270.0	275.0	280.0	285.0	290.0	295.0	300.0	305.0	310.0	315.0	320.0	325.0	330.0	335.0	340.0	345.0	350.0	355.0	360.0	365.0	370.0	375.0	380.0	385.0	390.0	395.0	400.0	405.0	410.0	415.0	420.0	425.0	430.0	435.0	440.0	445.0	450.0	455.0	460.0	465.0	470.0	475.0	480.0	485.0	490.0	495.0	500.0	505.0	510.0	515.0	520.0	525.0	530.0	535.0	540.0	545.0	550.0	555.0	560.0	565.0	570.0	575.0	580.0	585.0	590.0	595.0	600.0
230.0	237.9	3342	3947	434.6	12.81	5.971	4.655	4.538	3.467	3.745	3.352	3.319	3.225	2.725	2.385	1.982	1.811	1.597	1.340	1.221	1.074	1.066	0.995	0.777	0.812	0.847	0.692	0.627	0.633	0.607	0.540	0.559	0.549	0.490	0.403	0.400	0.305	0.349	0.300	0.340	0.484	0.649	0.495	0.308	0.297	0.496	4.118	12.44	14.63	6.974	1.604	0.311	0.179	0.183	0.168	0.161	0.191	0.173	0.175	0.156	0.162	0.148	0.149	0.150	0.135	0.141	0.144	0.148	0.147	0.146	0.154	0.134	0.146	0.120	0.144	0.152	0.140
235.0	150.9	950.3	3692	3768	426.5	13.33	6.408	4.997	4.959	4.394	3.759	4.202	3.526	2.739	2.546	2.043	2.017	1.698	1.385	1.165	1.122	1.109	0.997	0.750	0.895	0.677	0.821	0.687	0.658	0.648	0.558	0.512	0.526	0.461	0.441	0.381	0.365	0.338	0.367	0.305	0.394	0.399	0.643	0.500	0.454	0.350	1.122	3.316	7.093	11.58	14.10	10.45	3.246	0.452	0.222	0.188	0.199	0.172	0.146	0.192	0.153	0.103	0.131	0.161	0.152	0.126	0.200	0.177	0.143	0.168	0.159	0.150	0.160	0.118	0.099	0.109	0.123
240.0	203.0	280.2	1266	4507	3560	325.3	8.449	5.528	5.489	4.748	5.206	3.987	3.749	3.787	2.591	2.223	1.882	1.675	1.549	1.160	1.134	1.090	0.945	0.890	0.957	0.758	0.781	0.820	0.736	0.585	0.576	0.517	0.496	0.455	0.431	0.378	0.386	0.356	0.327	0.284	0.245	0.288	0.341	0.458	0.627	0.609	0.595	0.939	1.864	3.901	9.731	19.56	18.99	9.836	2.115	0.255	0.140	0.208	0.174	0.231	0.126	0.173	0.158	0.138	0.163	0.155	0.149	0.089	0.172	0.149	0.141	0.195	0.157	0.128	0.140	0.101	0.102
245.0	188.0	233.4	323.4	1865	5476	3050	219.6	9.041	6.508	6.738	5.463	4.244	3.709	3.409	2.910	2.401	2.287	1.689	1.634	1.199	1.155	1.157	1.051	0.965	0.809	0.771	0.609	0.748	0.701	0.647	0.688	0.583	0.495	0.513	0.486	0.354	0.428	0.299	0.339	0.295	0.230	0.266	0.295	0.377	0.443	0.648	0.796	0.650	0.628	1.043	2.570	8.369	18.75	25.21	18.88	7.475	1.017	0.216	0.162	0.196	0.189	0.155	0.161	0.144	0.151	0.148	0.151	0.115	0.182	0.140	0.114	0.160	0.189	0.144	0.114	0.154	0.151
250.0	74.57	197.6	248.8	479.5	2058	5072	4780	968.3	43.38	7.703	6.698	5.198	4.805	3.985	3.090	2.752	2.393	1.981	1.790	1.305	1.435	1.273	1.125	1.039	0.950	0.791	0.772	0.766	0.726	0.642	0.725	0.556	0.522	0.528	0.476	0.417	0.399	0.364	0.317	0.325	0.269	0.351	0.272	0.335	0.303	0.429	0.533	0.772	0.865	0.747	0.832	2.084	4.958	10.23	16.99	22.19	25.97	15.49	7.745	1.519	0.306	0.169	0.153	0.153	0.227	0.150	0.143	0.149	0.165	0.166	0.172	0.140	0.157	0.125	0.115	0.135	0.143
255.0	36.20	70.93	212.1	323.4	509.5	1361	5531	8073	1390	31.50	10.61	6.723	5.988	5.468	3.212	3.418	2.645	2.160	2.195	1.477	1.478	1.344	1.123	1.036	0.966	0.890	0.810	0.767	0.761	0.773	0.662	0.577	0.566	0.559	0.415	0.325	0.386	0.388	0.331	0.299	0.369	0.305	0.257	0.322	0.357	0.348	0.295	0.372	0.510	0.804	1.054	1.195	1.399	2.475	4.032	5.694	14.08	33.04	47.49	24.49	10.75	1.316	0.260	0.181	0.202	0.173	0.167	0.188	0.166	0.168	0.209	0.205	0.135	0.126	0.133	0.213	0.182
260.0	24.91	31.25	95.27	296.9	288.2	338.8	1788	8650	8490	232.6	19.31	9.843	7.546	5.909	3.964	3.429	2.784	2.348	2.150	1.646	1.507	1.297	1.208	1.131	1.018	0.783	0.889	0.910	0.865	0.740	0.715	0.629	0.536	0.560	0.510	0.350	0.411	0.371	0.361	0.377	0.384	0.349	0.319	0.331	0.275	0.273	0.232	0.339	0.265	0.445	0.865	1.556	1.362	0.967	1.115	1.491	3.531	9.914	27.44	51.21	57.50	22.01	5.905	0.381	0.237	0.264	0.208	0.178	0.176	0.161	0.161	0.212	0.152	0.137	0.153	0.207	0.168
265.0	25.75	22.78	36.82	155.8	341.4	189.3	434.3	3247	9999.9	7865	182.8	14.33	10.27	7.003	5.055	3.731	3.201	2.790	2.514	1.852	1.612	1.326	1.408	1.300	1.225	0.963	0.872	0.925	1.022	0.737	0.744	0.622	0.624	0.521	0.505	0.433	0.487	0.428	0.339	0.373	0.356	0.370	0.315	0.277	0.258	0.382	0.230	0.343	0.227	0.231	0.362	0.920	1.438	1.549	0.951	0.618	1.014	2.512	6.892	18.60	46.49	70.82	28.99	17.11	2.411	0.324	0.190	0.215	0.195	0.228	0.175	0.295	0.173	0.174	0.223	0.161	0.237
270.0	40.40	30.52	26.70	53.58	190.7	322.2	238.1	776.0	3636	9999.9	9999.9	759.2	47.28	10.93	7.505	5.140	4.227	3.446	2.739	2.145	1.892	1.709	1.399	1.456	1.244	1.109	0.979	0.940	0.975	0.884	0.790	0.723	0.673	0.578	0.560	0.472	0.458	0.459	0.374	0.426	0.340	0.416	0.374	0.372	0.341	0.351	0.268	0.323	0.260	0.196	0.229	0.453	0.590	1.095	1.452	1.497	1.214	0.998	1.793	4.422	11.50	24.92	39.05	62.78	55.14	46.99	10.97	2.668	0.368	0.294	0.252	0.252	0.228	0.230	0.195	0.191	0.216
275.0	92.92	61.38	31.10	34.33	61.07	177.2	418.3	324.1	854.3	2558	9999.9	9999.9	1106	45.40	11.30	7.083	5.451	4.730	3.302	2.524	2.336	1.963	1.532	1.702	1.534	1.319	1.038	1.072	0.984	0.852	0.946	0.712	0.740	0.692	0.750	0.570	0.525	0.559	0.473	0.523	0.466	0.492	0.467	0.496	0.430	0.516	0.359	0.354	0.309	0.264	0.256	0.290	0.315	0.449	0.598	1.047	1.991	2.271	1.594	1.450	2.869	5.849	9.018	15.37	27.25	70.93	104.7	29.67	15.67	2.043	0.384	0.250	0.292	0.210	0.268	0.307	0.243
280.0	141.9	109.2	53.77	38.84	37.23	70.79	323.0	383.2	291.1	633.7	2952	9999.9	9894	788.0	22.69	10.54	6.964	5.298	3.583	3.239	2.307	2.155	1.759	1.705	1.629	1.493	1.295	1.142	1.115	1.054	1.009	0.794	0.708	0.749	0.745	0.698	0.758	0.626	0.557	0.681	0.590	0.508	0.542	0.566	0.493	0.529	0.480	0.378	0.404	0.258	0.305	0.261	0.282	0.360	0.360	0.442	0.956	2.044	2.802	1.967	1.237	1.757	2.390	3.848	6.587	19.47	52.71	97.85	113.1	27.32	9.083	0.700	0.389	0.302	0.305	0.275	0.277
285.0	198.9	153.9	88.99	54.02	42.30	46.55	139.5	473.3	316.0	240.2	763.4	3895	9999.9	7995	109.9	15.74	9.565	6.429	4.749	4.195	2.957	2.310	2.312	1.898	1.768	1.584	1.289	1.227	1.177	0.887	0.895	0.935	0.843	0.885	0.912	0.852	0.790	0.769	0.725	0.661	0.724	0.621	0.643	0.764	0.502	0.671	0.652	0.555	0.480	0.342	0.320	0.385	0.334	0.333	0.414	0.352	0.518	0.885	1.870	3.144	2.488	1.421	1.018	1.457	1.973	4.873	12.69	31.99	80.17	122.6	105.2	21.24	3.176	0.447	0.403	0.322	0.292
290.0	305.6	259.9	174.6	102.2	69.63	67.50	100.1	244.2	513.4	454.9	339.1	1057	3983	9999.9	9999.9	2095	33.53	10.73	6.813	4.969	3.683	2.971	2.656	2.237	1.921	1.755	1.353	1.336	1.269	1.013	1.079	1.006	0.829	0.928	1.083	1.077	1.050	0.986	0.847	0.854	0.809	0.724	0.751	0.883	0.809	0.891	0.808	0.773	0.717	0.525	0.496	0.513	0.426	0.398	0.433	0.441	0.506	0.748	0.960	1.530	2.244	3.002	2.853	1.988	1.475	2.025	3.763	8.148	19.73	39.71	69.62	93.53	74.48	70.35	13.35	4.381	0.541
295.0	457.5	400.9	301.9	183.5	124.2	120.3	152.0	208.0	341.1	731.5	702.0	581.1	1186	2621	9999.9	9999.9	641.6	40.16	11.08	6.834	4.684	3.762	3.151	2.522	2.093	2.030	1.850	1.575	1.393	1.239	1.026	1.116	0.943	1.091	1.165	1.229	1.277	1.194	1.105	1.057	0.975	0.932	1.090	0.951	1.143	1.083	0.952	0.957	0.979	0.745	0.698	0.682	0.676	0.607	0.658	0.654	0.740	0.879	0.955	1.026	1.408	1.898	2.798	4.369	3.947	2.755	2.447	3.374	5.962	10.39	16.91	22.85	32.48	89.05	137.3	106.7	20.76
300.0	587.1	560.6	448.8	286.5	213.2	209.3	266.2	304.7	340.2	716.7	1202	893.7	826.6	1025	2945	9999.9	9999.9	521.5	26.39	10.86	6.227	4.809	4.069	3.167	2.426	2.200	1.953	1.708	1.527	1.446	1.220	1.108	1.074	1.099	1.124	1.418	1.458	1.326	1.324	1.245	1.090	1.115	1.219	1.170	1.238	1.386	1.315	1.355	1.376	1.071	0.999	1.097	0.913	0.853	0.998	1.031	1.167	1.260	1.337	1.680	1.797	1.994	2.510	3.858	5.197	5.781	4.514	3.553	4.119	4.766	6.086	7.404	9.427	23.91	61.29	130.1	148.5
305.0	788.4	827.8	654.1	439.3	357.2	368.6	427.6	634.2	797.3	1118	1663	1601	1319	1147	1407	3789	9999.9	9999.9	374.2	16.57	9.156	6.591	4.635	3.819	2.775	2.468	2.146	1.928	1.739	1.672	1.406	1.167	1.036	1.144	1.302	1.587	1.633	1.729	1.692	1.620	1.482	1.420	1.577	1.466	1.740	1.709	1.778	2.104	2.125	1.627	1.250	1.430	1.356	1.389	1.447	1.628	1.853	2.282	2.446	2.867	3.146	3.727	4.599	5.458	6.198	8.110	9.150	8.089	6.770	6.759	6.168	6.274	6.258	9.491	17.47	39.54	90.51
310.0	1025	1129	953.7	662.2	535.9	555.8	709.7	931.0	1153	1538	1964	2383	2396	1760	1495	1682	4076	9999.9	9999.9	1674	26.98	9.076	6.331	4.731	3.555	2.934	2.550	2.080	1.939	1.836	1.592	1.280	1.268	1.253	1.455	1.740	1.954	1.802	1.844	1.915	1.864	1.861	1.961	1.790	2.219	2.339	2.619	2.842	2.937	2.248	1.953	2.149	1.951	2.018	2.100	2.406	2.840	3.332	3.699	3.953	4.502	5.463	6.551	7.346	7.828	8.983	10.17	11.35	11.68	11.17	9.066	8.087	7.781	8.306	9.037	13.38	25.23
315.0	1288	1452	1248	880.6	682.8	705.0	870.7	1098	1309	1694	2109	2470	2694	2434	1768	1341	1752	2802	8088	9999.9	2547	30.61	9.092	6.410	4.352	3.758	3.085	2.559	2.297	1.836	1.655	1.670	1.561	1.514	1.586	1.788	2.023	2.109	2.084	2.182	2.197	2.113	2.252	2.360	2.646	2.884	3.320	3.560	3.464	2.857	2.512	2.674	2.420	2.500	2.635	2.884	3.450	3.857	4.197	4.557	5.238	6.401	7.230	8.110	8.471	9.493	10.67	11.29	11.89	13.14	13.04	11.33	10.01	9.231	8.009	7.871	10.56
320.0	1461	1671	1424	1006	768.7	777.1	955.8	1159	1374	1770	2196	2570	2653	2621	2105	1358	1292	1157	2164	9999.9	9999.9	408.9	19.34	8.590	5.791	4.509	3.230	2.927	2.502	2.196	1.844	1.847	1.505	1.576	1.613	1.789	2.096	2.212	2.266	2.167	2.149	2.253	2.513	2.442	2.966	3.406	3.765	4.040	4.113	3.317	2.861	3.137	2.799	2.934	2.741	3.364	3.525	4.434	4.503	5.144	5.330	6.535	7.467	8.576	9.070	9.616	10.82	11.35	12.22	12.33	13.28	13.09	12.35	10.39	8.416	7.213	7.651
325.0	1582	1832	1596	1105	818.6	800.4	954.7	1154	1335	1704	2111	2484	2550	2420	2286	1457	1167	784.2	644.2	2900	9999.9	9999.9	319.0	11.71	7.596	5.529	3.878	3.358	2.855	2.362	1.906	1.720	1.546	1.474	1.640	1.881	2.010	2.290	2.102	2.268	2.281	2.245	2.504	2.652	3.027	3.545	4.105	4.599	4.329	3.592	3.383	3.565	2.940	2.879	2.948	3.338	3.861	4.442	4.566	5.061	5.393	6.006	6.858	8.094	9.051	9.451	9.844	11.30	11.52	11.83	11.66	11.86	12.81	12.35	9.282	7.201	7.051
330.0	1641	1988	1807	1315	916.7	808.4	917.6	1082	1219	1531	1904	2242	2320	2157	1975	1574	1169	674.9	337.2	750.2	2941	9832	9999.9	1475	23.26	7.712	5.164	4.167	3.226	2.729	2.384	1.748	1.665	1.616	1.567	1.766	2.100	2.206	2.017	2.120	2.193	2.490	2.526	2.811	3.309	3.815	4.237	5.048	4.797	4.140	3.886	4.151	3.327	3.225	3.097	3.162	3.635	4.028	4.385	4.793	5.013	5.633	6.449	7.169	7.932	8.386	9.198	9.873	10.27	10.62	10.43	10.43	10.37	10.48	9.426	8.418	7.531
335.0	1658	1928	1898	1463	1026	828.8	877.0	999.1	1101	1353	1697	1985	2072	1940	1695	1363	1271	713.8	310.2	306.6	749.3	2304	6406	9999.9	2365	26.86	7.270	5.689	4.110	3.184	2.577	2.021	2.047	1.854	1.878	1.789	1.919	2.018	2.035	2.198	2.130	2.401	2.525	2.778	3.172	3.916	4.587	5.124	4.938	4.442	4.104	4.675	3.793	3.750	3.458	3.001	3.553	3.620	4.018	4.211	4.522	4.973	5.897	6.601	6.837	7.626	8.228	8.742	9.135	9.590	10.05	9.692	8.906	8.734	7.697	7.474	8.053
340.0	1592	1954	1855	1482	1064	828.1	829.3	924.0	1013	1244	1531	1788	1871	1771	1534	1187	1124	851.1	355.2	230.7	281.7	598.6	1643	8702	9999.9	355.0	17.30	6.944	5.164	3.588	2.808	2.437	2.179	1.837	1.903	1.792	1.871	1.938	1.938	1.969	1.994	2.200	2.453	2.747	3.176	3.844	4.263	4.925	4.812	4.468	4.407	4.576	4.065	3.770	3.206	2.929	3.317	3.406	3.740	3.822	4.195	4.756	5.234	5.897	5.880	6.808	7.557	7.794	8.458	8.652	8.921	8.591	8.055	7.614	6.922	6.615	6.562
345.0	1523	1880	1846	1495	1083	804.4	785.3	866.4	939.1	1132	1380	1601	1677	1608	1399	1090	933.0	844.3	496.7	246.1	200.8	237.2	442.6	2435	9999.9	9999.9	291.2	10.85	6.232	4.529	3.216	2.696	2.248	2.023	1.883	1.898	2.088	2.021	1.952	2.083	1.866	2.206	2.492	2.896	3.176	3.689	4.052	4.686	4.698	4.390	4.245	4.725	3.956	3.452	3.228	3.059	3.225	3.389	3.662	3.799	3.880	4.403	4.379	5.309	5.541	6.250	6.838	7.195	7.447	7.795	7.895	7.938	7.433	7.210	6.281	5.915	5.712
350.0	1357	1696	1693	1438	1077	831.6	757.4	801.3	859.4	1008	1203	1374	1461	1401	1245	991.3	828.0	685.4	588.2	402.3	238.6	193.4	204.4	614.3	2791	8377	9733	1321	20.91	6.480	4.544	3.361	2.578	2.184	1.962	1.916	1.957	1.960	1.860	1.898	1.986	2.013	2.196	2.518	2.835	3.370	3.625	4.442	4.616	4.133	4.128	4.625	4.036	3.724	3.275	3.058	3.051	3.092	3.305	3.467	3.656	3.835	4.383	4.500	5.007	5.463	6.043	6.176	6.368	6.892	7.013	6.959	6.719	6.466	5.899	5.302	5.093
355.0	1256	1514	1516	1320	1060	834.2	751.3	766.5	801.7	904.5	1061	1195	1257	1234	1101	910.4	775.2	622.9	514.0	532.2	378.8	235.1	190.2	238.7	692.9	1954	5503	9999.9	2183	24.96	6.681	4.307	3.528	2.793	2.178	1.944	1.943	1.948	1.858	1.722	1.911	1.902	2.015	2.332	2.600	2.918	3.375	4.172	4.012	3.848	3.636	4.343	3.816	3.707	3.337	3.010	3.057	3.004	3.171	3.242	3.507	3.421	3.831	4.168	4.430	4.545	4.968	5.382	5.503	5.634	5.849	6.035	5.869	6.009	5.160	5.246	4.742
360.0	1146	1412	1421	1272	1050	837.4	745.0	756.9	775.7	850.4	983.8	1090	1140	1123	1023	867.7	749.8	611.0	501.4	498.5	505.7	320.4	217.0	182.9	247.9	500.8	1405	7457	9999.9	333.5	15.59	5.913	4.510	3.046	2.598	2.097	2.008	1.973	1.931	1.772	1.903	1.851	1.788	2.007	2.426	2.865	3.294	3.551	3.534	3.683	3.573	3.997	3.614	3.528	3.268	3.060	2.804	2.920	3.227	2.962	3.591	3.508	3.495	4.003	4.073	4.347	4.295	4.807	4.925	5.216	5.192	5.597	5.424	5.256	5.049	4.984	4.558
365.0	1083	1308	1292	1207	1036	838.2	754.5	741.3	759.0	816.3	930.6	1016	1061	1045	966.6	836.2	735.7	624.9	520.9	469.2	513.5	447.5	272.1	197.4	171.6	197.5	373.9	2078	9677	9647	276.3	8.890	5.163	3.665	2.993	2.414	2.220	2.145	1.915	1.895	1.954	1.841	1.953	2.130	2.353	2.703	2.861	3.355	3.432	3.316	3.318	4.038	3.663	3.480	3.241	3.097	3.192	2.787	3.174	3.236	3.351	3.442	3.644	3.881	3.961	4.242	4.379	4.718	4.700	4.834	5.322	5.256	5.258	5.044	4.857	4.945	4.659
370.0	1009	1188	1216	1133	991.1	840.3	763.0	741.2	745.3	789.4	871.8	940.1	984.3	966.2	904.5	807.6	729.2	640.5	554.9	493.9	473.6	491.8	414.5	264.4	195.0	161.1	168.1	525.1	2660	7757	8950	1204	17.72	5.239	3.757	2.752	2.538	2.259	1.980	2.007	1.948	1.971	1.999	2.145	2.251	2.631	2.696	3.175	3.164	3.043	3.087	3.879	3.514	3.492	3.333	3.209	3.245	3.111	3.065	3.228	3.433	3.304	3.496	3.760	3.699	3.874	3.899	4.242	4.308	4.328	4.693	4.738	5.024	4.769	4.677	4.649	4.397
375.0	921.5	1108	1109	1056	963.2	842.1	769.5	753.4	729.3	773.0	831.9	891.2	914.2	900.2	856.4	783.8	716.7	655.2	587.9	535.3	486.5	463.0	480.1	397.5	254.0	189.4	151.4	201.3	650.5	1805	5080	9999.9	1912	20.74	5.335	3.773	2.884	2.478	2.289	2.226	1.913	1.984	1.990	2.150	2.195	2.473	2.600	2.979	3.059	2.867	2.840	3.588	3.347	3.472	3.208	3.160	3.047	3.168	3.208	3.145	3.339	3.218	3.758	3.543	3.565	3.671	3.774	3.739	4.097	4.217	4.377	4.464	4.441	4.640	4.499	4.601	4.216
380.0	911.5	1045	1062	1027	929.7	849.4	768.6	742.4	724.1	756.6	800.3	853.2	871.6	859.1	820.9	758.7	714.8	659.0	605.5	557.1	511.5	465.5	455.9	471.1	330.9	220.9	169.6	147.2	217.5	453.0	1295	7012	9600	281.9	12.11	4.713	3.465	2.789	2.472	2.140	1.954	2.104	1.929	2.169	2.419	2.312	2.469	2.849	2.993	2.707	2.889	3.551	3.056	3.411	3.110	2.989	3.143	3.309	3.161	3.281	3.144	3.305	3.299	3.331	3.592	3.377	3.571	3.533	3.811	4.130	4.202	4.043	4.428	4.545	4.322	4.663	4.271
385.0	881.0	1017	1015	998.4	923.4	840.6	771.1	749.9	731.0	757.6	780.6	812.7	839.4	829.0	796.9	742.1	702.8	661.4	616.7	571.1	529.9	484.8	449.7	456.0	421.7	272.5	195.6	154.7	137.7	165.6	334.5	1968	8359	7427	217.9	6.951	4.413	3.279	2.608	2.195	2.017	1.986	2.076	2.138	2.185	2.392	2.322	2.667	2.814	2.643	2.877	3.446	3.241	3.264	2.995	3.085	3.134	3.213	3.155	3.256	3.190	3.320	3.196	3.443	3.318	3.534	3.270	3.392	3.609	4.036	3.831	4.055	4.227	4.274	4.400	3.958	4.408
390.0	840.8	962.8	967.0	962.4	896.0	842.5	780.6	749.1	733.0	747.0	770.8	788.2	801.9	790.7	762.1	720.7	687.7	656.9	620.2	587.7	549.6	507.3	467.1	432.4	428.6	372.5	254.8	186.1	147.8	125.0	135.7	481.7	2283	6014	6642	949.4	14.57	4.651	3.266	2.703	2.204	2.221	2.184	2.175	2.231	2.261	2.356	2.718	2.610	2.593	2.665	3.418	3.097	3.188	2.988	3.067	3.257	3.212	3.129	3.271	3.276	3.217	3.160	3.370	3.073	3.315	3.394	3.589	3.574	3.668	3.743	3.855	4.083	4.208	4.076	4.081	4.352
395.0	803.9	929.4	935.3	922.2	864.1	836.7	790.6	760.1	739.6	745.3	765.5	773.0	775.1	767.4	738.5	695.5	664.4	646.8	616.3	588.5	559.3	526.3	487.1	444.2	406.1	399.4	351.5	236.4	181.0	141.9	113.7	164.7	547.1	1397	3896	7863	1552	17.38	4.599	3.278	2.767	2.307	2.312	2.037	2.280	2.417	2.224	2.486	2.553	2.471	2.427	3.217	3.151	3.213	3.089	2.968	3.248	3.160	3.257	3.289	3.213	3.087	3.212	3.256	3.165	3.331	3.336	3.509	3.533	3.827	3.780	3.850	3.864	4.268	3.980	4.134	4.107
400.0	805.8	885.4	912.2	894.2	858.0	827.1	793.7	766.8	740.5	744.2	748.8	758.5	752.0	746.7	713.5	675.0	650.9	635.2	614.5	585.8	565.1	532.7	496.8	455.7	410.7	380.6	392.5	300.3	212.2	163.5	124.6	108.9	171.8	346.1	1001	5309	7152	241.0	9.865	3.913	3.332	2.612	2.471	2.140	2.395	2.320	2.121	2.540	2.461	2.257	2.401	2.959	2.978	3.190	3.028	3.184	3.241	3.294	3.116	3.162	3.272	3.240	3.281	3.233	3.328	3.179	3.232	3.294	3.754	3.769	3.589	3.702	3.826	3.804	3.616	3.992	4.212
405.0	793.1	875.1	896.8	862.4	839.2	812.0	793.5	771.2	739.5	744.5	748.2	742.5	737.4	721.5	698.6	655.9	636.6	622.8	605.3	583.0	558.1	531.8	505.4	467.5	422.7	380.9	376.2	357.6	256.4	187.9	144.8	109.3	99.20	119.2	253.0	1475	6151	5586	189.7	5.875	3.776	2.928	2.669	2.259	2.369	2.233	2.379	2.605	2.594	2.260	2.505	2.844	2.900	3.135	3.109	3.132	3.231	3.306	3.013	3.007	3.041	3.166	3.233	3.291	3.221	3.167	3.307	3.401	3.410	3.621	3.664	3.458	3.592	3.591	3.726	3.763	4.040
410.0	766.8	842.7	862.0	850.3	833.3	798.7	790.7	767.8	754.4	747.3	747.7	745.3	729.2	696.2	670.8	628.7	614.4	597.8	582.3	566.6	548.4	526.9	505.8	474.7	435.2	394.1	364.6	360.7	327.5	241.6	177.2	132.4	101.9	83.60	95.99	357.3	1680	4517	3943	872.0	13.15	3.880	3.186	2.586	2.394	2.495	2.364	2.596	2.377	2.298	2.533	2.873	2.756	2.999	2.804	2.933	3.186	3.134	3.259	3.105	3.264	3.282	3.378	3.261	3.227	3.246	3.487	3.279	3.413	3.425	3.425	3.567	3.587	3.638	3.546	3.706	4.058
415.0	717.5	808.3	829.2	837.3	813.9	786.9	787.5	768.3	759.1	754.2	749.3	738.9	713.3	671.6	642.1	610.6	585.8	570.6	560.2	544.2	535.4	516.9	500.0	475.1	442.9	405.1	373.9	346.7	344.9	316.6	221.9	162.2	122.2	92.78	74.34	117.4	400.3	1046	2640	5884	1360	15.97	4.000	3.020	2.645	2.606	2.346	2.490	2.487	2.300	2.319	2.749	2.770	3.055	2.922	2.757	2.962	3.126	3.061	3.059	3.257	3.387	3.498	3.271	3.115	3.112	3.455	3.517	3.193	3.242	3.524	3.384	3.514	3.363	3.497	3.437	3.669
420.0	696.9	789.9	819.7	802.0	799.4	774.5	786.3	755.6	760.5	752.4	750.7	726.4	691.9	660.7	624.9	582.2	563.4	546.0	536.0	529.6	517.5	505.3	487.8	474.6	442.6	414.3	382.8	350.5	336.0	338.7	271.1	186.3	139.8	106.2	78.53	72.09	120.8	256.2	680.0	3879	5432	227.9	8.947	3.849	2.989	2.602	2.426	2.503	2.509	2.322	2.376	3.001	2.509	2.976	3.014	2.880	3.149	3.081	3.079	3.140	3.220	3.472	3.446	3.150	3.310	3.294	3.209	3.083	3.037	3.096	3.350	3.671	3.334	3.409	3.506	3.239	3.330
425.0	686.4	766.5	778.2	765.9	779.7	781.9	763.0	771.2	765.0	766.3	753.0	731.1	692.1	649.1	607.7	567.8	546.4	529.3	516.7	509.5	499.1	489.1	481.5	467.2	441.8	415.2	390.9	359.5	339.0	326.7	309.8	221.3	157.9	120.0	90.25	69.57	64.76	84.34	172.0	1082	4494	4305	183.1	5.480	3.686	2.825	2.531	2.459	2.548	2.313	2.400	2.819	2.504	2.720	2.949	2.861	3.121	3.173	2.946	3.182	3.346	3.214	3.195	3.313	3.155	3.153	3.220	3.059	3.160	3.395	3.417	3.254	3.236	3.458	3.318	3.573	3.070
430.0	826.3	727.6	757.8	762.8	773.0	758.4	752.3	766.7	766.7	765.5	759.1	729.1	683.3	632.1	588.7	550.4	522.6	504.4	493.0	484.1	477.8	472.3	465.9	456.1	438.5	418.5	398.4	371.7	348.8	326.3	309.6	270.8	196.5	142.0	108.7	82.82	64.07	54.62	64.13	260.8	1214	3314	3245	812.7	12.91	3.783	3.080	2.719	2.533	2.328	2.354	2.614	2.516	2.698	2.947	2.840	3.077	3.240	3.196	3.110	3.359	3.436	3.355	3.352	3.206	3.267	3.166	3.034	3.092	3.205	3.231	3.050	3.063	3.326	3.005	3.339	3.263
435.0	1712	722.1	733.1	733.5	748.7	745.8	750.6	769.0	775.9	768.2	773.4	728.8	675.1	623.9	574.0	533.6	504.1	483.7	469.7	461.5	455.4	457.1	448.2	444.6	432.2	416.3	401.5	383.8	364.9	339.0	306.5	282.2	246.1	176.0	128.1	98.11	76.71	58.24	48.25	83.01	289.4	765.4	2014	4979	1322	15.76	3.905	3.326	2.858	2.479	2.254	2.579	2.726	2.777	2.752	2.863	3.201	3.030	3.164	3.255	3.452	3.151	3.292	3.284	3.397	3.614	3.212	3.266	3.154	3.384	3.208	2.991	3.434	3.204	3.041	2.948	3.297
440.0	2905	786.2	725.8	715.7	712.4	732.4	744.6	774.9	771.3	787.3	771.9	732.3	676.2	615.8	569.5	516.1	485.9	463.1	455.1	445.8	440.7	441.5	436.0	436.3	424.8	412.3	399.8	385.8	371.5	349.9	314.5	278.7	260.4	209.3	145.2	109.7	85.90	65.48	50.50	47.15	87.26	188.0	510.1	3149	4933	215.6	9.016	3.795	3.093	2.636	2.256	2.695	2.799	2.882	2.746	2.937	2.964	3.058	3.198	3.245	3.299	3.223	3.255	3.427	3.514	3.294	3.066	3.191	3.194	3.186	2.953	3.029	3.147	3.136	2.822	2.930	3.181
445.0	3528	1284	696.0	708.1	701.0	721.0	727.6	757.1	775.9	780.2	774.3	727.0	668.1	609.8	554.1	506.3	466.5	448.4	437.8	427.0	424.5	422.2	425.7	422.9	414.4	404.1	395.4	384.4	373.7	355.2	322.8	279.7	255.1	231.2	168.4	122.0	94.89	73.55	55.36	45.12	45.50	62.09	130.1	856.2	3910	4017	164.0	5.598	3.367	2.843	2.552	2.774	2.816	2.971	3.002	2.901	3.070	2.945	2.985	3.235	3.244	3.441	3.341	3.433	3.382	3.388	3.225	3.213	3.179	3.236	2.947	3.207	2.951	2.956	2.825	2.960	2.975
450.0	2506	2936	849.6	667.1	680.0	695.9	710.0	739.2	760.6	764.2	754.5	710.8	647.1	588.1	533.3	480.3	446.3	421.6	406.3	399.4	399.0	396.8	399.1	399.9	396.3	387.9	383.2	374.7	366.1	352.7	323.6	283.0	246.8	223.2	194.5	142.6	105.5	82.70	64.22	50.21	41.25	37.97	48.14	205.8	1046	2967	2758	734.2	11.09	3.155	2.799	2.746	2.778	2.985	2.748	2.765	2.967	3.148	3.197	3.185	3.379	3.404	3.232	3.185	3.316	3.300	3.092	3.172	2.882	3.108	2.727	2.922	2.957	2.729	2.816	2.881	2.916
455.0	1057	3511	1907	621.1	626.9	651.3	670.5	711.5	721.1	724.2	718.7	681.4	621.9	549.5	503.3	447.4	418.1	390.0	379.0	366.8	364.5	365.1	365.8	371.0	367.8	366.5	362.2	356.4	353.0	342.7	316.8	282.4	242.7	210.3	192.6	167.1	121.0	91.34	71.90	55.58	45.08	37.06	32.86	62.97	246.4	681.0	1570	4002	1085	11.97	3.300	3.033	2.820	2.692	2.767	2.719	2.812	2.926	3.281	3.220	3.131	3.161	3.339	3.194	3.165	3.153	3.030	3.114	2.776	2.820	2.886	2.797	2.684	2.733	2.666	2.661	2.654
460.0	642.3	2473	3339	709.0	603.8	619.4	647.1	673.1	691.5	694.8	691.2	658.4	599.0	526.4	472.3	425.0	394.0	365.7	354.8	344.3	342.4	342.6	346.9	349.6	346.3	346.7	343.6	341.5	339.9	330.7	309.1	276.7	237.2	206.8	179.8	168.4	137.5	97.17	75.85	61.74	49.32	39.01	31.66	33.05	69.56	163.2	388.8	2373	3724	161.1	8.008	3.548	3.038	2.678	2.670	2.698	2.920	2.774	3.153	2.828	2.983	2.998	3.089	3.042	3.142	2.809	2.923	2.924	3.002	2.680	2.705	2.589	2.473	2.389	2.668	2.738	2.680
465.0	526.4	1263	3988	1297	574.8	583.7	614.8	650.2	665.8	673.5	668.5	631.0	572.2	498.8	450.1	402.5	366.0	342.5	328.8	319.9	317.9	320.5	323.5	328.1	326.9	327.4	325.4	324.9	322.6	316.6	297.6	269.6	231.9	200.8	172.3	157.2	144.5	107.3	79.72	63.92	52.49	41.21	32.93	28.36	31.71	49.39	97.53	624.9	2829	2860	142.3	5.075	3.218	2.841	2.667	2.747	2.878	2.730	2.803	2.728	2.921	2.985	3.075	2.944	2.833	2.707	3.053	2.688	2.671	2.670	2.657	2.609	2.485	2.514	2.587	2.456	2.569
470.0	474.4	662.1	2517	2911	614.7	543.2	564.7	604.1	617.7	622.0	618.4	582.7	524.3	462.4	414.0	367.7	335.0	313.6	297.4	288.8	287.4	287.8	291.2	296.3	295.8	295.4	296.1	298.5	296.8	294.0	278.6	251.6	223.7	192.7	164.4	144.1	133.1	117.2	88.70	67.36	54.14	43.80	35.56	29.38	25.49	25.42	33.19	148.5	742.1	2012	2333	670.2	11.13	3.323	2.825	2.664	2.626	2.761	2.739	2.577	2.746	2.956	2.814	2.841	2.692	2.589	2.694	2.610	2.586	2.472	2.332	2.450	2.329	2.464	2.195	2.259	2.261
475.0	490.5	497.2	980.4	3321	1710	493.9	507.3	537.1	556.6	565.6	567.3	529.6	480.6	422.8	374.2	334.2	302.7	280.5	264.6	258.9	255.1	256.1	261.5	268.0	263.7	262.7	265.6	267.8	272.4	265.6	253.6	232.9	205.9	180.0	156.2	136.3	118.7	109.4	97.49	72.46	56.62	45.07	38.10	31.22	25.93	21.45	19.89	43.10	173.1	459.0	1041	2549	919.4	14.04	3.250	2.645	2.374	2.676	2.481	2.461	2.663	2.686	2.624	2.635	2.642	2.353	2.459	2.382	2.333	2.254	2.279	2.137	2.206	1.979	1.925	2.087	1.901
480.0	482.3	428.3	536.2	2228	3079	539.7	473.2	511.8	519.3	529.1	530.4	498.9	452.9	392.1	351.4	307.7	279.5	260.6	246.7	241.0	235.2	236.2	238.5	244.0	243.5	243.5	245.0	249.1	251.7	249.2	239.3	218.3	196.0	171.7	150.7	130.9	113.3	100.3	97.42	77.76	58.28	46.24	39.52	32.14	26.73	21.60	18.05	20.49	47.58	109.4	250.6	1380	2623	193.9	8.550	2.974	2.662	2.619	2.311	2.514	2.212	2.508	2.620	2.434	2.381	2.328	2.293	2.320	2.181	2.075	2.079	2.172	2.010	1.885	1.795	2.008	1.857
485.0	436.8	436.2	412.3	1080	3669	1170	450.3	471.3	496.6	504.6	502.1	471.7	426.8	376.3	331.0	292.7	260.9	245.0	233.0	221.4	220.3	219.3	222.6	225.2	227.8	226.9	228.6	232.1	234.0	234.3	224.4	208.0	187.7	166.0	146.1	125.9	109.9	95.47	88.47	82.13	62.89	48.07	40.06	33.89	27.67	23.13	18.67	16.12	20.25	32.11	62.29	358.1	1907	2301	158.5	4.174	2.894	2.743	2.359	2.384	2.137	2.425	2.464	2.215	2.278	2.171	2.111	2.245	2.135	1.910	2.002	1.986	1.949	1.760	1.746	2.097	1.701
490.0	352.0	425.2	373.4	528.6	2307	2877	590.2	437.1	459.2	464.0	462.6	441.6	394.2	348.3	305.6	268.2	242.7	222.9	212.0	203.0	200.7	200.1	203.5	203.6	204.2	206.3	207.2	210.2	214.5	215.0	206.3	193.7	172.7	155.1	136.5	120.3	104.3	90.37	81.01	76.68	69.00	52.76	41.32	34.98	29.00	24.46	20.28	16.80	15.10	15.70	21.00	85.90	494.0	1473	1846	663.4	11.91	2.938	2.439	2.371	2.172	2.252	2.237	2.196	2.156	2.197	1.946	2.018	1.934	1.872	1.909	1.765	1.761	1.612	1.696	1.798	1.616
495.0	279.6	378.2	382.3	369.9	848.3	3329	1623	404.8	415.6	423.4	423.8	404.4	356.4	318.2	274.7	245.2	219.9	198.7	190.6	184.0	178.8	181.5	181.8	180.5	183.0	184.8	185.3	187.9	193.2	193.2	187.3	175.4	158.9	141.7	126.0	112.1	98.18	85.98	75.65	67.77	64.92	58.32	44.24	35.73	30.28	25.72	21.25	17.55	14.98	12.59	12.05	25.45	115.3	335.6	936.9	2469	990.8	14.92	2.824	2.568	2.183	2.131	2.207	2.111	1.937	1.967	1.820	1.919	1.838	1.835	1.659	1.637	1.591	1.615	1.491	1.711	1.429
500.0	257.1	329.1	392.4	316.0	431.7	2182	3047	481.5	383.6	390.7	391.8	371.9	333.9	291.5	254.5	223.0	200.8	186.0	173.5	167.0	164.1	164.9	164.0	165.3	165.2	169.1	170.3	170.8	175.7	178.1	172.0	161.8	146.5	131.0	117.4	104.4	92.14	81.18	71.57	62.41	57.68	58.12	47.88	35.91	30.34	26.21	21.83	17.74	15.50	12.33	10.28	12.30	30.98	79.81	225.9	1341	2518	209.4	8.086	2.694	2.327	1.924	2.140	1.928	1.884	1.917	1.784	1.901	1.690	1.656	1.609	1.524	1.470	1.396	1.323	1.368	1.210
505.0	238.1	281.9	376.0	293.0	314.7	975.5	3840	1002	350.3	365.0	361.5	336.5	307.0	266.6	234.2	208.4	181.8	168.9	159.1	154.6	150.9	150.1	149.6	150.2	151.7	152.3	154.3	156.3	161.1	161.7	158.5	146.5	133.9	122.6	109.6	96.38	86.78	75.56	68.35	59.17	53.37	52.19	49.86	38.07	30.67	25.53	21.43	18.28	15.29	13.03	10.30	9.497	12.46	22.71	54.91	343.8	1730	1720	169.8	3.776	2.491	2.002	2.030	1.883	1.777	1.758	1.570	1.623	1.558	1.493	1.610	1.454	1.347	1.297	1.215	1.239	1.264
510.0	222.2	229.0	303.0	304.8	266.0	422.8	2429	2818	474.0	323.8	320.4	299.5	270.3	235.4	209.2	184.3	163.7	149.4	140.2	134.6	130.9	130.9	131.2	132.1	132.8	133.7	133.5	137.4	140.5	141.0	137.6	129.7	118.7	107.3	97.21	86.47	77.70	69.03	61.64	54.08	48.32	44.64	44.57	40.90	31.81	24.66	21.38	17.88	15.04	12.68	10.70	8.978	8.514	10.05	16.66	80.91	444.8	1218	1570	536.5	10.80	2.198	1.933	1.830	1.650	1.536	1.370	1.510	1.449	1.355	1.359	1.298	1.231	1.156	1.127	1.129	1.270
515.0	199.3	203.2	232.6	288.5	232.9	266.3	821.4	3645	1491	282.2	274.1	257.2	231.8	204.7	181.6	159.7	141.2	130.7	122.8	117.1	114.0	112.5	114.3	112.8	112.5	114.7	115.8	117.6	119.1	121.6	118.0	111.2	104.2	94.31	85.03	76.72	69.17	62.24	55.99	48.97	42.96	39.04	36.96	38.13	34.14	26.05	20.51	17.43	14.73	12.41	10.62	9.406	8.042	7.200	8.196	21.95	102.7	276.9	732.2	1767	221.3	12.13	2.184	1.706	1.605	1.417	1.364	1.220	1.267	1.276	1.258	1.321	1.044	1.034	1.041	0.981	1.123
520.0	167.9	186.8	197.5	251.6	238.1	215.5	352.5	2509	3118	353.6	243.0	236.5	213.4	182.7	162.3	141.7	127.5	116.3	109.6	103.2	101.7	98.57	100.9	100.4	101.1	101.6	102.4	104.7	106.6	107.9	105.3	99.72	92.34	85.19	76.77	69.18	62.96	56.61	50.74	44.92	39.53	35.24	32.80	32.45	33.46	27.12	20.09	16.54	14.11	12.25	10.30	9.092	7.977	6.595	6.205	8.886	26.64	65.08	176.6	983.0	1569	191.8	4.741	1.799	1.521	1.502	1.263	1.109	1.148	1.103	1.099	1.088	0.989	0.976	1.046	0.926	1.077
525.0	152.3	156.2	171.4	202.4	252.3	194.6	225.1	1063	4178	879.4	222.3	210.9	195.3	169.4	144.6	127.1	115.5	105.5	96.19	93.79	90.61	90.36	90.65	89.83	90.36	90.50	90.65	92.43	95.43	97.23	93.79	89.62	82.89	75.90	68.82	61.67	57.39	51.04	46.66	41.67	36.77	33.11	30.16	28.33	30.46	28.21	21.11	16.24	13.89	11.75	10.00	8.509	7.845	6.777	5.860	5.879	9.468	17.68	42.66	254.2	1163	1314	28.69	2.201	1.595	1.469	1.319	1.153	1.158	1.040	0.976	0.966	0.995	0.892	0.808	0.859	0.832
530.0	128.3	137.9	149.9	156.5	230.4	192.4	182.8	385.6	2736	2803	335.3	187.9	169.3	148.7	128.8	111.0	100.8	92.36	84.90	81.69	78.93	78.36	76.71	77.53	78.14	78.54	78.96	80.13	82.67	83.08	82.00	77.44	71.81	66.10	59.86	54.66	49.84	45.45	41.56	37.40	33.00	30.16	26.83	24.66	24.55	25.40	22.59	16.55	12.96	10.97	9.619	8.294	7.396	6.738	5.864	5.215	5.556	7.038	12.26	59.40	302.3	880.3	1043	322.7	8.433	1.540	1.321	1.183	1.018	0.858	0.889	0.885	0.894	0.867	0.815	0.680	0.701
535.0	109.5	119.9	126.6	129.9	171.6	203.3	149.5	204.6	848.3	4039	1304	163.9	147.6	130.5	111.2	96.91	86.49	80.31	73.85	69.24	68.88	68.29	65.45	66.37	67.06	66.79	67.79	69.56	70.48	70.41	69.12	66.27	60.50	57.41	52.08	47.15	43.73	39.73	35.57	31.96	29.36	26.72	24.20	22.04	20.97	20.32	20.70	17.78	13.30	10.43	8.974	7.970	6.735	6.540	5.980	5.117	4.881	4.595	5.569	15.78	69.66	201.0	530.7	1193	203.3	7.119	1.387	1.246	0.914	0.866	0.763	0.804	0.775	0.825	0.705	0.612	0.635
540.0	109.1	107.1	122.2	118.7	132.6	194.7	142.1	151.5	309.9	2758	3186	194.7	130.3	116.7	100.9	86.62	77.84	70.61	66.24	62.32	60.79	60.46	59.34	58.99	59.19	58.16	58.82	61.92	61.03	63.40	61.69	59.00	53.78	50.70	45.65	42.25	39.05	35.65	32.57	29.17	26.17	23.86	22.72	20.17	18.79	17.31	17.73	17.93	13.77	10.41	8.739	7.804	6.606	6.204	5.882	5.529	4.471	4.172	4.067	6.170	17.54	46.88	130.3	731.3	1058	152.7	2.377	1.287	0.966	0.839	0.866	0.799	0.714	0.813	0.673	0.647	0.557
545.0	100.7	99.35	98.81	105.7	111.5	172.9	159.5	136.8	172.0	1084	4448	611.6	120.1	105.1	92.89	79.62	70.30	64.08	59.24	56.68	54.42	54.20	54.42	53.30	53.60	52.09	53.14	53.65	55.28	55.79	55.89	52.74	48.88	44.88	40.67	38.40	35.07	32.99	29.09	26.26	24.07	22.24	20.61	18.84	17.34	15.68	14.87	16.75	14.51	10.57	8.257	7.308	6.202	5.964	5.522	5.422	4.437	4.050	3.676	3.704	6.158	12.50	31.09	195.3	867.3	859.6	26.30	1.391	1.002	0.878	0.797	0.765	0.736	0.705	0.620	0.585	0.509
550.0	88.25	91.88	88.61	89.74	89.64	126.0	169.0	121.3	124.1	344.5	2890	2466	148.3	91.39	78.52	68.28	60.46	55.87	52.30	49.25	47.38	47.16	46.15	45.60	46.02	44.98	45.23	46.02	47.30	47.91	47.31	44.30	41.99	38.13	35.73	32.92	29.88	28.13	25.96	23.62	21.27	19.82	18.36	16.79	15.04	14.23	12.83	13.23	13.48	11.28	8.377	6.683	6.021	5.556	5.015	4.861	4.527	4.047	3.231	3.050	3.444	4.570	8.631	45.29	232.5	637.0	703.3	117.6	5.638	0.917	0.841	0.744	0.668	0.621	0.554	0.544	0.546
555.0	80.65	84.22	79.36	81.57	76.89	94.36	147.1	128.4	102.1	157.0	823.5	3936	912.6	78.65	69.43	58.80	52.77	48.33	43.94	41.60	40.36	40.14	39.42	38.55	38.20	38.16	39.25	39.12	39.55	40.88	40.08	37.72	35.64	32.61	30.32	28.23	25.80	23.69	22.14	20.25	18.10	17.15	15.69	14.80	12.96	12.54	11.35	10.32	10.43	10.92	9.040	6.766	5.365	4.863	4.607	4.102	3.930	3.869	3.239	2.928	2.683	2.731	3.545	11.63	53.23	145.8	397.5	801.5	172.0	3.193	0.946	0.800	0.680	0.537	0.594	0.580	0.537
560.0	74.51	76.92	72.22	70.51	67.05	74.15	110.1	140.8	90.91	108.4	263.3	2784	2567	102.8	60.24	50.91	45.80	42.69	39.10	36.91	35.76	34.73	34.45	33.57	33.75	33.05	34.12	33.76	34.92	35.09	34.60	32.86	31.31	28.43	27.00	24.73	22.59	20.79	19.53	17.67	16.57	15.18	14.13	12.90	12.28	11.14	10.25	9.156	8.346	9.503	8.616	6.989	5.238	4.702	4.268	4.019	3.965	3.529	3.490	2.706	2.332	2.364	2.311	4.081	13.14	33.72	99.89	544.8	704.7	29.39	1.283	0.785	0.637	0.648	0.535	0.522	0.506
565.0	69.04	73.81	64.25	66.66	66.10	63.40	84.51	141.2	91.59	90.89	125.8	1074	3901	377.2	55.31	46.55	40.53	36.98	34.33	33.10	31.58	30.64	30.10	29.86	29.28	29.10	29.85	29.68	30.31	30.73	30.20	28.76	27.65	25.22	23.22	21.66	19.86	19.07	16.72	15.96	14.52	13.52	12.67	11.53	10.71	10.00	8.981	8.216	7.647	7.947	7.951	7.044	4.961	4.305	4.056	3.731	3.382	3.135	3.174	2.959	2.349	2.161	2.011	2.259	4.197	8.626	23.55	151.9	628.5	513.9	21.21	0.826	0.680	0.595	0.465	0.506	0.516
570.0	66.89	63.96	54.04	53.53	54.05	53.69	61.56	111.9	106.5	75.40	84.68	305.5	2667	1913	78.24	38.85	34.17	31.07	29.10	27.09	25.94	25.15	24.99	24.49	23.98	23.84	24.23	24.16	25.07	24.78	24.84	23.71	22.36	20.33	19.30	17.80	16.16	15.26	14.05	13.12	12.28	11.31	10.46	9.766	9.119	8.600	7.679	7.106	6.186	6.163	6.123	6.340	5.197	4.296	3.556	3.184	3.019	2.780	2.525	2.648	2.533	1.954	1.823	1.649	2.117	2.959	6.273	34.84	173.9	434.6	375.3	89.35	2.282	0.526	0.486	0.424	0.428
575.0	64.10	59.93	50.48	43.78	42.31	44.08	51.25	69.86	118.3	73.97	67.47	114.7	741.0	3258	601.1	31.43	27.03	25.04	23.38	21.24	21.02	19.69	19.46	18.84	19.55	17.90	18.60	18.89	18.77	19.65	19.18	18.32	16.99	15.98	14.69	13.84	12.61	11.71	11.44	10.29	9.834	8.773	8.284	8.010	7.435	6.643	6.522	5.395	5.001	4.675	4.417	4.784	5.017	4.127	3.120	2.704	2.572	2.413	2.087	2.016	2.200	1.835	1.615	1.353	1.483	1.567	2.252	8.607	39.59	100.5	262.9	461.6	30.17	1.197	0.541	0.430	0.375
580.0	62.76	61.50	44.16	37.89	37.96	36.97	42.87	48.97	106.5	85.60	60.66	68.05	206.9	2348	1882	41.41	22.98	20.21	19.13	17.74	17.08	16.28	16.12	15.74	16.29	14.77	15.57	15.58	15.69	16.43	16.03	14.80	13.83	12.80	11.90	11.81	10.33	9.747	8.867	8.377	7.945	7.139	6.940	6.582	6.536	5.821	5.263	4.694	4.294	3.878	3.380	3.663	4.412	4.212	2.982	2.421	2.202	1.983	1.943	1.751	1.864	1.897	1.812	1.313	1.171	1.179	1.253	2.792	9.543	23.25	68.54	342.0	252.6	22.76	0.636	0.392	0.411
585.0	53.94	57.01	42.90	36.66	32.73	34.75	37.90	40.21	79.29	99.83	55.53	54.50	82.84	901.1	2983	99.62	19.87	17.73	16.59	15.26	14.55	13.56	13.30	12.87	12.78	12.45	12.13	12.31	12.99	13.11	13.25	12.20	11.10	10.22	9.986	9.613	8.577	8.114	7.235	7.226	6.511	5.775	5.874	5.426	5.244	4.828	4.308	4.066	3.659	3.154	2.884	2.801	3.190	3.701	2.909	2.361	1.837	1.756	1.678	1.524	1.536	1.747	1.641	1.250	1.090	1.015	1.127	1.170	2.844	5.848	15.92	99.90	333.0	215.4	12.74	0.402	0.540
590.0	57.78	51.86	39.37	34.30	27.52	29.50	31.06	34.71	51.24	99.41	66.13	50.20	54.03	240.4	2059	1271	35.90	14.79	13.16	11.60	11.36	10.78	10.54	10.23	9.702	9.867	9.659	9.935	10.21	9.978	10.27	9.551	8.545	8.117	8.008	7.344	6.589	6.209	5.797	5.533	5.157	4.691	4.441	4.433	4.172	3.738	3.222	3.080	2.863	2.408	2.199	2.178	2.283	2.690	2.647	2.313	1.828	1.581	1.470	1.238	1.296	1.372	1.343	1.229	1.154	0.941	0.903	0.806	1.235	1.895	4.128	22.85	97.73	224.5	203.7	17.58	0.927
595.0	51.69	47.60	35.37	31.98	25.62	27.39	30.63	31.38	38.76	75.98	88.37	50.35	48.12	83.39	566.2	2283	358.3	13.23	10.47	9.924	8.636	8.289	8.683	8.100	7.724	7.647	7.699	7.465	7.555	7.687	7.433	7.325	6.753	6.258	6.256	5.571	5.248	4.875	4.443	4.207	4.023	3.868	3.405	3.253	3.179	3.006	2.553	2.335	2.139	1.928	1.669	1.668	1.631	1.766	2.243	2.342	1.743	1.434	1.236	0.983	1.038	0.992	0.993	0.933	1.204	0.978	0.770	0.749	0.747	0.980	1.495	5.654	22.08	52.86	146.9	214.8	24.64
600.0	53.25	50.22	36.06	32.41	24.46	24.55	27.98	29.57	36.54	56.89	98.09	57.77	50.38	49.88	151.6	1676	1181	19.21	9.105	8.358	7.605	7.011	6.580	6.842	6.494	6.327	6.467	6.026	6.565	6.601	5.691	6.206	5.679	5.214	4.823	4.882	4.492	4.064	3.881	3.631	3.258	3.116	2.987	2.690	2.619	2.551	2.309	2.072	1.875	1.645	1.479	1.503	1.284	1.425	1.741	1.958	1.873	1.438	1.012	0.976	0.967	0.840	0.767	0.899	1.106	1.012	0.795	0.804	0.597	0.686	0.791	1.774	5.330	12.23	39.46	177.8	163.7
605.0	51.10	48.53	40.96	33.72	24.85	27.20	28.54	35.26	39.34	52.78	102.0	80.04	57.74	50.84	63.50	667.0	1939	68.59	8.701	6.963	6.622	6.394	5.743	5.598	5.340	5.376	5.191	5.595	5.619	5.582	5.136	4.879	4.601	4.594	4.004	3.952	3.797	3.456	3.323	3.049	2.774	2.585	2.477	2.190	2.107	2.124	1.940	1.790	1.668	1.403	1.204	1.424	1.158	1.111	1.323	1.593	1.671	1.254	0.856	0.952	0.838	0.816	0.670	0.829	0.916	1.002	0.800	0.730	0.686	0.726	0.615	0.868	1.643	3.227	9.210	54.87	181.3
610.0	54.24	57.36	47.93	35.70	29.62	30.11	36.80	46.10	57.67	73.86	112.6	128.6	90.95	72.42	64.79	193.4	1409	884.2	20.12	6.093	5.524	5.308	4.742	4.600	4.553	4.489	4.216	4.417	4.087	4.216	4.376	4.085	3.612	3.699	3.372	3.334	3.144	2.860	2.656	2.487	2.194	2.110	2.024	1.840	1.864	1.736	1.624	1.573	1.384	1.181	1.086	1.146	1.000	1.011	0.959	1.180	1.348	1.342	1.015	0.932	0.872	0.776	0.750	0.803	0.859	1.042	1.146	0.894	0.846	0.725	0.706	0.691	0.944	1.228	2.530	12.76	54.59
615.0	58.83	67.01	55.34	39.25	34.13	33.18	42.64	57.47	70.17	89.63	112.6	156.0	125.6	90.14	76.82	87.85	423.4	1582	238.7	5.737	4.648	4.593	4.020	3.695	3.847	3.394	3.114	3.381	3.458	3.190	3.492	3.117	3.067	2.845	2.972	2.692	2.582	2.216	2.384	2.068	1.875	1.739	1.623	1.540	1.470	1.353	1.370	1.235	1.076	0.939	0.823	0.901	0.839	0.926	0.849	0.864	1.037	1.108	1.134	0.875	0.728	0.722	0.799	0.724	0.916	0.936	1.109	1.135	1.068	0.775	0.774	0.759	0.862	0.747	1.035	3.306	12.60
620.0	70.86	69.04	59.29	42.07	32.66	36.44	41.80	53.71	67.88	86.53	104.0	144.5	136.0	93.44	78.87	61.69	139.4	1174	578.2	8.467	4.367	3.804	3.395	3.338	3.488	3.028	2.933	2.948	3.031	2.839	2.718	2.779	2.732	2.424	2.595	2.431	2.354	2.211	2.100	1.812	1.476	1.506	1.434	1.307	1.279	1.093	1.102	1.221	1.059	0.840	0.789	0.759	0.725	0.736	0.737	0.740	0.781	0.946	1.100	0.787	0.761	0.746	0.770	0.727	0.879	0.871	0.913	1.057	1.046	1.013	0.896	0.745	0.682	0.758	0.613	1.157	3.249
625.0	60.00	73.30	57.04	42.36	32.12	33.35	43.27	52.18	67.00	82.60	97.49	126.5	145.7	94.59	77.86	55.02	70.86	480.1	1328	46.84	4.166	3.434	3.117	2.899	2.965	2.787	2.449	2.587	2.572	2.629	2.570	2.430	2.249	1.974	2.089	2.024	1.937	1.898	1.800	1.637	1.319	1.262	1.130	1.258	0.999	1.097	0.990	0.958	0.908	0.704	0.694	0.655	0.637	0.720	0.685	0.675	0.690	0.769	0.956	0.850	0.769	0.675	0.752	0.725	0.747	0.821	0.822	0.834	1.082	0.995	0.838	0.650	0.708	0.604	0.567	0.647	1.124
630.0	64.81	67.16	56.63	43.27	31.39	34.50	44.65	52.17	62.36	78.99	96.10	114.6	134.7	107.6	77.53	53.11	52.94	136.3	1003	620.0	10.29	3.140	2.757	2.332	2.337	2.342	2.095	2.060	2.116	2.144	2.171	2.023	1.866	1.770	1.774	1.691	1.794	1.525	1.481	1.494	1.178	1.142	0.945	0.967	0.887	0.986	0.817	0.828	0.782	0.643	0.590	0.606	0.612	0.595	0.603	0.548	0.605	0.630	0.689	0.830	0.840	0.652	0.645	0.717	0.726	0.789	0.751	0.785	0.881	0.944	0.833	0.712	0.685	0.628	0.567	0.537	0.659
635.0	63.31	72.26	59.75	43.20	33.26	33.93	43.13	50.32	58.74	76.03	93.84	107.5	115.8	118.9	79.50	53.98	48.80	52.60	282.5	1153	58.43	3.105	2.492	2.306	2.091	2.013	1.965	1.746	1.883	1.656	1.632	1.693	1.525	1.365	1.448	1.359	1.501	1.312	1.175	1.180	0.976	0.928	0.850	0.839	0.783	0.785	0.683	0.651	0.652	0.551	0.502	0.609	0.576	0.503	0.520	0.425	0.534	0.571	0.597	0.738	0.723	0.591	0.654	0.792	0.668	0.748	0.681	0.712	0.801	0.673	0.858	0.684	0.642	0.692	0.518	0.449	0.558
640.0	67.34	71.55	62.17	42.31	37.00	37.06	40.98	49.86	60.51	73.37	89.32	104.1	107.1	115.2	83.42	53.43	48.58	34.35	71.59	880.8	443.1	4.923	2.595	2.092	2.003	1.741	1.563	1.489	1.605	1.688	1.263	1.344	1.320	1.177	1.286	1.274	1.269	1.130	1.025	0.946	0.915	0.862	0.729	0.740	0.702	0.685	0.691	0.615	0.615	0.540	0.483	0.533	0.499	0.552	0.450	0.415	0.489	0.513	0.567	0.539	0.626	0.538	0.697	0.745	0.605	0.625	0.683	0.774	0.786	0.633	0.851	0.799	0.664	0.794	0.513	0.494	0.428
645.0	66.96	76.40	62.78	46.09	32.81	34.40	42.05	49.36	56.24	71.17	87.37	102.3	102.9	107.0	89.48	53.85	47.48	28.14	23.18	369.4	971.7	35.76	2.480	1.904	1.665	1.609	1.532	1.421	1.584	1.435	1.178	1.160	1.273	1.182	1.068	1.158	1.180	1.092	0.975	0.868	0.798	0.923	0.816	0.591	0.651	0.636	0.626	0.568	0.526	0.548	0.393	0.414	0.459	0.410	0.431	0.429	0.423	0.459	0.458	0.491	0.569	0.609	0.641	0.653	0.542	0.619	0.583	0.671	0.702	0.657	0.677	0.692	0.729	0.656	0.507	0.415	0.433
650.0	62.65	73.84	64.74	41.48	31.79	33.16	38.95	44.82	53.72	65.93	81.27	93.52	96.87	94.93	91.39	53.09	43.64	26.51	12.25	98.10	961.0	280.3	2.406	1.904	1.884	1.531	1.360	1.284	1.201	1.321	1.133	1.149	1.155	1.203	1.028	1.038	1.153	0.972	0.959	0.802	0.818	0.878	0.797	0.635	0.576	0.534	0.517	0.442	0.506	0.491	0.382	0.406	0.372	0.374	0.376	0.518	0.381	0.385	0.502	0.503	0.517	0.645	0.527	0.618	0.490	0.583	0.635	0.644	0.718	0.611	0.599	0.633	0.760	0.725	0.471	0.389	0.452
