Sample:	'1
File name:	G2025051413晋控明水循环水3.FD3
Run date:	'14:14:52, 05/21/2025
Operator:	Administrator
Comment:	'

Instrument
Model:	F-2700 FL Spectrophotometer
Serial number:	23B8-004
ROM Version:	4J14000 07

Instrument parameters
Measurement type:	3-D scan
Data mode:	Fluorescence
EX  Start WL:	220.0 nm
EX  End WL:	600.0 nm
EX Sampling interval:	5.0 nm
EM  Start WL:	230.0 nm
EM  End WL:	650.0 nm
EM Sampling interval:	5.0 nm
Scan speed:	12000 nm/min
EX Slit:	5.0 nm
EM Slit:	5.0 nm
PMT Voltage:	700 V
Response:	Auto 
Corrected spectra:	Off
Contour interval:	50.000

Peak integration
Integration method:	Rectangular
Sensitivity:	1
Threshold:	1.000

Peaks
No.	ApexEX/EM(nm)	Height(Data)
1	225.0/585.0	21.90
2	240.0/525.0	126.7
3	240.0/595.0	15.91
4	245.0/385.0	2303
5	245.0/400.0	1856
6	245.0/540.0	143.2
7	245.0/615.0	14.47
8	250.0/550.0	118.9
9	255.0/280.0	535.4
10	255.0/565.0	111.4
11	260.0/290.0	486.8
12	260.0/575.0	92.46
13	265.0/295.0	593.6
14	265.0/585.0	79.05
15	270.0/300.0	748.0
16	270.0/600.0	70.61
17	275.0/305.0	667.3
18	275.0/340.0	335.0
19	275.0/610.0	56.33
20	280.0/385.0	4531
21	280.0/400.0	3525
22	280.0/625.0	47.87
23	285.0/320.0	625.4
24	285.0/635.0	37.59
25	290.0/325.0	551.4
26	295.0/330.0	422.3
27	300.0/335.0	398.7
28	305.0/345.0	364.6
29	310.0/350.0	298.3
30	315.0/355.0	293.4
31	320.0/365.0	286.6
32	355.0/385.0	2524
33	355.0/405.0	2088
34	375.0/400.0	2430
35	415.0/485.0	31.18
36	430.0/505.0	19.26
37	440.0/520.0	13.67
38	445.0/525.0	11.72
39	455.0/540.0	7.555
40	465.0/555.0	4.319
41	470.0/560.0	3.772
42	490.0/385.0	9.872
43	505.0/275.0	3.104
44	510.0/280.0	3.205
45	520.0/285.0	3.321
46	525.0/290.0	3.141
47	540.0/295.0	3.778
48	545.0/300.0	4.066
49	545.0/385.0	13.39
50	550.0/305.0	4.306
51	560.0/310.0	3.773
52	570.0/315.0	3.969
53	570.0/385.0	24.00
54	580.0/320.0	3.685
55	585.0/325.0	3.646

Data points
	220.0	225.0	230.0	235.0	240.0	245.0	250.0	255.0	260.0	265.0	270.0	275.0	280.0	285.0	290.0	295.0	300.0	305.0	310.0	315.0	320.0	325.0	330.0	335.0	340.0	345.0	350.0	355.0	360.0	365.0	370.0	375.0	380.0	385.0	390.0	395.0	400.0	405.0	410.0	415.0	420.0	425.0	430.0	435.0	440.0	445.0	450.0	455.0	460.0	465.0	470.0	475.0	480.0	485.0	490.0	495.0	500.0	505.0	510.0	515.0	520.0	525.0	530.0	535.0	540.0	545.0	550.0	555.0	560.0	565.0	570.0	575.0	580.0	585.0	590.0	595.0	600.0
230.0	23.98	92.68	214.2	125.2	19.01	7.327	6.219	5.766	5.436	5.063	4.454	4.330	3.792	3.106	2.597	2.223	1.873	1.732	1.644	1.524	1.362	1.388	1.342	1.270	1.184	1.135	1.134	1.224	1.094	1.150	1.189	1.068	0.897	0.726	0.598	0.592	0.578	0.556	0.536	0.488	0.490	0.448	0.427	0.416	0.425	0.376	0.426	0.580	0.761	0.726	0.706	0.429	0.285	0.278	0.301	0.312	0.294	0.277	0.271	0.288	0.286	0.276	0.300	0.266	0.271	0.301	0.279	0.280	0.269	0.260	0.331	0.286	0.277	0.307	0.253	0.263	0.291
235.0	25.54	38.49	210.0	771.1	496.1	67.30	8.244	6.544	5.174	5.167	5.560	4.879	4.604	3.553	2.973	2.335	1.619	1.915	1.499	1.788	1.338	1.441	1.310	1.268	1.251	1.197	1.283	1.140	1.296	1.089	1.047	1.080	0.991	0.784	0.691	0.520	0.552	0.502	0.525	0.485	0.489	0.502	0.485	0.456	0.395	0.413	0.415	0.411	0.463	0.816	2.047	4.059	3.399	1.133	0.388	0.319	0.389	0.320	0.257	0.293	0.263	0.295	0.267	0.293	0.288	0.271	0.340	0.257	0.303	0.249	0.296	0.303	0.261	0.337	0.291	0.268	0.328
240.0	32.84	33.28	84.32	982.8	2702	494.0	47.22	9.572	6.568	5.705	5.505	5.052	4.323	3.649	3.027	2.437	2.130	2.051	1.694	1.610	1.617	1.286	1.367	1.294	1.353	1.378	1.340	1.270	1.144	1.092	1.118	1.029	0.887	0.643	0.806	0.538	0.595	0.559	0.585	0.590	0.554	0.456	0.462	0.395	0.440	0.392	0.367	0.378	0.379	0.500	1.362	5.047	10.73	11.21	5.368	1.051	0.320	0.320	0.300	0.260	0.311	0.309	0.331	0.306	0.332	0.291	0.378	0.253	0.273	0.282	0.262	0.279	0.279	0.338	0.253	0.310	0.272
245.0	45.60	35.68	43.30	392.1	3228	3849	400.5	25.55	8.901	7.691	6.790	5.574	4.620	3.924	2.973	2.707	2.295	2.196	1.923	1.733	1.694	1.448	1.462	1.372	1.475	1.291	1.170	1.349	1.134	1.068	1.221	1.224	0.856	0.708	0.694	0.643	0.540	0.576	0.597	0.542	0.543	0.491	0.535	0.486	0.506	0.414	0.447	0.381	0.374	0.347	0.596	1.946	7.495	18.17	23.05	14.47	4.585	0.638	0.384	0.325	0.327	0.387	0.327	0.320	0.306	0.359	0.359	0.330	0.237	0.301	0.263	0.284	0.310	0.272	0.342	0.347	0.332
250.0	40.40	45.30	69.96	133.1	1065	4402	5810	1514	102.7	11.39	9.091	7.445	5.456	4.469	3.642	2.944	2.589	2.407	2.003	1.849	1.702	1.602	1.588	1.482	1.466	1.446	1.423	1.427	1.378	1.146	1.287	1.168	0.956	0.782	0.720	0.602	0.613	0.620	0.605	0.544	0.551	0.499	0.548	0.493	0.497	0.455	0.508	0.424	0.471	0.533	0.440	0.763	2.053	5.866	13.36	23.26	30.84	31.13	14.17	5.122	0.697	0.435	0.327	0.412	0.364	0.398	0.369	0.325	0.276	0.314	0.288	0.346	0.315	0.281	0.298	0.334	0.308
255.0	39.48	42.61	68.40	160.9	305.6	1111	4979	9999.9	2162	116.7	13.05	10.31	7.365	5.813	4.149	3.458	3.037	2.411	2.069	1.746	1.846	1.591	1.634	1.771	1.585	1.601	1.442	1.496	1.342	1.241	1.400	1.248	0.864	0.856	0.649	0.643	0.674	0.648	0.591	0.560	0.597	0.551	0.536	0.481	0.511	0.467	0.522	0.427	0.435	0.516	0.737	0.924	0.970	1.598	3.349	5.738	11.20	29.50	56.09	57.11	21.87	5.302	0.534	0.480	0.372	0.379	0.366	0.346	0.294	0.351	0.346	0.310	0.277	0.302	0.306	0.318	0.360
260.0	41.52	32.92	45.51	163.3	245.7	306.1	1508	8825	9999.9	1617	55.08	14.36	9.805	6.644	4.565	3.964	3.342	2.748	2.534	2.115	2.103	1.692	1.743	1.743	1.639	1.555	1.596	1.441	1.264	1.288	1.463	1.532	1.051	0.887	0.767	0.697	0.694	0.732	0.574	0.587	0.566	0.493	0.605	0.550	0.441	0.548	0.520	0.410	0.462	0.428	0.606	1.117	1.333	0.998	1.190	1.631	2.947	8.029	23.68	54.32	74.93	30.98	17.48	2.791	0.412	0.385	0.422	0.326	0.418	0.354	0.322	0.298	0.347	0.308	0.354	0.342	0.459
265.0	46.39	39.02	36.67	88.90	286.8	237.3	384.8	2978	9999.9	9999.9	239.1	25.90	13.06	9.009	6.379	4.770	4.002	3.229	2.627	2.491	2.257	1.767	1.772	1.891	1.741	1.549	1.705	1.470	1.276	1.572	1.466	1.389	1.053	1.034	0.745	0.855	0.761	0.655	0.646	0.552	0.668	0.572	0.572	0.510	0.544	0.511	0.522	0.493	0.453	0.367	0.398	0.751	1.331	1.576	1.338	0.891	1.065	2.167	5.826	15.89	40.02	71.64	89.64	28.49	11.34	1.072	0.470	0.395	0.426	0.389	0.405	0.365	0.375	0.389	0.350	0.356	0.350
270.0	58.11	43.24	33.21	43.05	152.8	349.3	293.7	733.6	3606	9999.9	9999.9	3432	63.91	13.83	9.365	6.457	4.804	3.797	3.321	2.955	2.485	2.255	1.984	1.969	1.995	1.673	1.770	1.661	1.514	1.489	1.514	1.471	1.165	1.042	0.800	0.838	0.778	0.710	0.697	0.606	0.612	0.614	0.654	0.597	0.622	0.621	0.557	0.498	0.422	0.385	0.420	0.535	0.728	1.143	1.693	2.008	1.720	1.323	1.799	4.017	9.720	21.13	44.36	65.01	84.65	68.09	18.03	8.516	1.179	0.506	0.508	0.438	0.466	0.361	0.410	0.407	0.401
275.0	57.54	47.45	36.99	35.84	65.07	181.3	463.5	382.2	866.3	2630	9999.9	9999.9	1263	60.80	13.95	9.259	6.980	5.377	4.154	3.650	3.070	2.804	2.635	2.350	2.138	2.010	2.072	1.876	1.633	1.537	1.753	1.911	1.316	1.137	0.949	0.876	0.826	0.754	0.771	0.702	0.631	0.648	0.659	0.657	0.660	0.596	0.515	0.441	0.501	0.401	0.439	0.514	0.515	0.677	0.740	1.207	2.246	3.104	2.101	1.717	2.637	5.222	10.47	15.36	25.59	56.54	107.2	119.3	28.50	10.01	0.835	0.535	0.631	0.407	0.557	0.433	0.383
280.0	67.22	51.55	43.48	41.12	48.94	85.95	326.6	535.4	327.1	660.8	3109	9999.9	9999.9	891.1	30.60	13.55	8.908	6.663	5.064	4.253	3.646	3.125	2.674	2.419	2.349	2.255	2.147	1.800	1.676	1.709	1.784	1.843	1.420	1.152	1.023	0.940	0.832	0.887	0.778	0.686	0.608	0.709	0.616	0.626	0.646	0.637	0.592	0.516	0.505	0.472	0.507	0.553	0.529	0.555	0.568	0.706	1.219	2.472	3.205	2.619	1.653	1.799	2.940	4.045	6.427	14.37	38.79	93.28	127.3	107.8	22.77	4.337	0.654	0.571	0.513	0.498	0.510
285.0	67.25	55.56	50.18	45.35	49.20	60.73	146.4	492.4	360.6	245.5	787.8	4118	9999.9	8727	123.3	18.98	11.78	8.108	6.225	5.026	4.175	3.320	2.802	2.470	2.509	2.248	2.275	2.054	1.768	1.784	1.845	1.999	1.540	1.194	1.152	1.123	0.914	0.873	0.811	0.679	0.668	0.730	0.581	0.649	0.631	0.633	0.581	0.627	0.577	0.433	0.533	0.563	0.501	0.496	0.560	0.645	0.817	1.168	2.035	3.107	3.321	2.068	1.442	1.487	2.085	3.884	9.399	24.43	56.11	115.6	137.0	33.49	16.84	1.778	0.637	0.476	0.549
290.0	67.47	61.07	55.70	51.01	55.53	60.82	87.34	220.7	486.8	440.6	306.4	1030	4167	9999.9	9999.9	2168	37.40	12.80	8.345	6.464	4.990	4.076	3.312	3.018	2.856	2.556	2.250	2.325	1.960	1.893	1.978	1.821	1.547	1.347	1.204	1.139	1.001	0.917	0.822	0.712	0.700	0.758	0.684	0.596	0.641	0.615	0.557	0.652	0.599	0.525	0.527	0.589	0.499	0.591	0.546	0.674	0.696	0.806	1.121	1.552	2.308	3.141	3.090	2.228	1.546	1.731	2.827	6.132	13.38	30.13	55.33	74.19	104.2	82.39	61.22	12.33	2.235
295.0	67.15	62.54	58.26	58.56	67.94	73.30	81.82	120.0	224.2	593.6	506.2	361.9	1024	2579	9999.9	9999.9	695.5	36.49	12.13	8.870	6.106	5.179	4.415	3.448	3.118	2.841	2.487	2.400	2.347	2.057	2.084	1.936	1.548	1.338	1.193	1.117	1.021	0.900	0.920	0.823	0.745	0.797	0.677	0.577	0.707	0.671	0.652	0.570	0.600	0.518	0.593	0.686	0.642	0.621	0.641	0.656	0.689	0.772	0.816	1.010	1.147	1.527	1.858	3.467	3.778	2.291	1.622	2.223	3.741	7.427	13.00	17.37	26.90	47.18	110.4	142.8	35.05
300.0	72.32	67.12	63.00	71.67	80.86	87.45	91.40	115.8	153.1	368.6	748.0	274.6	350.6	664.9	2980	9999.9	9999.9	517.2	21.17	11.72	7.967	6.118	5.298	3.874	3.772	3.150	2.766	2.970	2.401	2.204	2.220	2.066	1.600	1.469	1.266	1.145	1.149	0.974	0.950	0.875	0.743	0.833	0.864	0.672	0.642	0.705	0.692	0.583	0.499	0.540	0.585	0.645	0.688	0.677	0.767	0.626	0.738	0.817	0.940	1.011	1.004	1.143	1.274	2.036	3.483	4.066	3.275	1.791	1.822	2.570	3.625	4.615	6.812	11.58	32.49	81.04	132.0
305.0	80.65	67.77	61.16	80.07	88.91	103.0	114.8	137.8	171.8	255.6	595.3	667.3	244.0	263.3	762.5	3927	9999.9	5273	76.71	16.51	10.36	7.537	5.881	4.556	3.982	3.419	3.124	3.107	2.535	2.412	2.246	2.112	1.844	1.529	1.380	1.213	1.130	0.996	0.963	0.973	0.846	0.867	0.734	0.783	0.688	0.659	0.700	0.605	0.538	0.563	0.611	0.670	0.739	0.804	0.873	0.804	0.901	0.911	1.044	1.223	1.131	1.060	1.476	1.462	2.121	3.239	4.306	3.751	2.333	1.889	1.780	2.055	2.460	3.432	8.102	20.01	46.68
310.0	78.38	67.88	68.65	83.71	100.4	119.2	137.9	159.2	192.0	241.0	362.4	624.1	593.3	267.5	282.6	973.9	4029	9999.9	9999.9	1665	28.19	11.24	7.607	5.805	4.932	3.984	3.669	3.113	2.868	2.635	2.270	2.246	1.979	1.639	1.475	1.297	1.162	1.027	1.168	0.868	0.867	0.821	0.787	0.762	0.725	0.685	0.684	0.624	0.654	0.577	0.578	0.667	0.813	0.787	0.876	0.901	1.009	1.024	1.087	1.174	1.147	1.166	1.499	1.456	1.717	2.126	2.636	3.241	3.773	3.459	2.480	1.803	1.540	1.762	2.693	5.238	11.32
315.0	94.96	75.09	69.96	85.16	110.7	138.6	152.5	172.6	206.2	246.5	293.8	384.7	572.8	561.9	230.1	314.8	978.4	2539	9999.9	9999.9	504.9	27.97	11.51	8.377	6.316	4.900	4.182	3.751	3.243	3.112	3.033	2.335	2.115	1.835	1.480	1.459	1.322	1.195	1.085	0.958	0.961	0.886	0.876	0.833	0.848	0.783	0.711	0.657	0.758	0.634	0.608	0.732	0.773	0.975	0.992	1.004	1.149	1.150	1.125	1.131	1.261	1.370	1.608	1.613	1.721	1.801	2.094	2.041	2.370	2.846	3.969	3.463	2.175	1.571	1.637	2.051	3.329
320.0	90.13	82.29	75.60	91.56	119.0	142.1	159.2	183.5	218.1	255.8	294.5	328.4	399.7	625.4	387.8	192.5	307.6	634.8	2934	9999.9	9999.9	406.4	19.33	10.90	8.005	5.960	4.783	4.097	3.862	3.665	3.301	2.778	2.434	1.896	1.679	1.345	1.372	1.340	1.235	1.024	0.939	0.975	1.037	0.857	0.873	0.815	0.739	0.732	0.734	0.639	0.564	0.840	0.913	1.075	1.024	1.038	1.063	1.321	1.345	1.190	1.236	1.405	1.486	1.678	1.705	1.821	1.866	1.762	2.002	2.166	2.675	3.634	3.685	2.717	1.845	1.522	1.792
325.0	103.0	81.07	83.51	101.5	128.2	145.5	169.0	194.6	231.9	260.5	301.5	325.6	325.5	443.9	551.4	245.6	166.4	212.1	713.1	3815	9999.9	9999.9	61.22	14.85	10.36	7.504	5.691	4.617	4.083	3.835	3.679	3.154	2.213	2.080	1.814	1.403	1.450	1.168	1.260	1.142	0.991	1.044	1.021	0.856	0.801	0.863	0.745	0.720	0.696	0.676	0.705	0.834	0.853	0.991	0.965	1.096	1.065	1.271	1.212	1.356	1.251	1.408	1.506	1.672	1.810	1.869	1.828	1.765	1.874	1.993	1.959	2.524	3.197	3.646	3.100	1.729	1.596
330.0	103.2	91.38	94.79	123.5	148.0	164.2	181.0	202.1	231.6	267.6	301.1	320.5	317.1	319.2	406.2	422.3	220.7	128.9	215.6	907.3	3877	9999.9	9999.9	1457	25.01	10.56	7.745	5.905	4.935	4.386	4.008	3.434	2.472	2.082	1.993	1.610	1.520	1.367	1.309	1.185	0.978	1.073	1.114	0.849	0.898	0.861	0.728	0.752	0.750	0.683	0.706	1.014	0.935	1.012	1.070	1.198	1.275	1.230	1.265	1.311	1.311	1.437	1.629	1.659	1.730	1.732	1.736	1.739	1.790	1.855	1.766	2.017	2.112	2.394	2.815	2.981	2.728
335.0	110.6	88.50	98.30	143.4	169.6	181.7	198.0	212.9	233.0	270.1	313.2	328.6	324.6	297.0	285.6	339.6	398.7	177.5	118.5	255.2	905.7	2521	9999.9	9999.9	433.8	26.62	11.09	8.260	5.958	4.983	4.627	3.832	2.943	2.374	2.266	1.791	1.632	1.550	1.225	1.133	1.065	1.088	1.040	0.926	1.002	0.866	0.783	0.678	0.786	0.743	0.775	1.023	1.131	1.033	1.013	1.200	1.396	1.256	1.339	1.271	1.369	1.573	1.669	1.523	1.677	1.868	1.782	1.861	1.839	1.933	1.703	1.957	1.890	1.853	1.825	2.181	2.747
340.0	122.1	93.88	112.6	149.6	189.0	192.7	203.0	218.8	238.7	269.9	311.1	335.0	322.3	304.0	257.0	248.7	365.1	307.8	124.2	118.8	250.5	603.4	2921	9999.9	9999.9	372.8	17.69	10.09	7.656	6.019	5.053	4.510	3.095	2.446	2.403	1.828	1.701	1.582	1.416	1.236	1.173	1.102	1.077	1.059	1.086	0.880	0.779	0.845	0.862	0.833	0.889	1.011	1.258	1.165	1.255	1.306	1.304	1.272	1.378	1.344	1.442	1.552	1.581	1.660	1.653	1.905	1.744	1.741	1.846	1.867	1.827	1.758	1.829	1.815	1.690	1.669	1.876
345.0	124.4	102.1	113.0	159.2	207.5	207.9	219.8	226.5	247.5	273.5	307.5	330.0	323.7	296.5	254.9	218.5	255.6	364.6	207.1	103.0	110.5	179.4	695.0	3729	9999.9	9999.9	54.39	14.01	9.292	7.050	5.495	4.908	3.506	2.769	2.321	2.059	1.897	1.668	1.429	1.327	1.120	1.229	1.162	1.116	1.049	0.850	0.791	0.856	0.905	0.775	0.844	1.119	1.228	1.109	1.254	1.363	1.353	1.412	1.439	1.466	1.376	1.585	1.588	1.624	1.827	1.790	1.834	1.755	1.855	1.907	1.746	1.764	1.699	1.779	1.724	1.524	1.509
350.0	117.4	95.80	107.7	173.1	230.2	238.5	245.1	244.5	254.8	281.9	310.8	330.3	320.6	301.2	257.8	221.1	206.9	253.3	298.3	188.4	100.8	96.58	201.1	878.1	3718	9999.9	9202	1379	23.59	9.595	7.350	5.957	4.072	3.306	2.486	2.031	1.828	1.588	1.528	1.272	1.187	1.143	1.066	1.030	1.000	0.829	0.818	0.807	0.779	0.740	0.812	1.105	1.248	1.263	1.363	1.389	1.379	1.475	1.489	1.483	1.460	1.609	1.589	1.617	1.850	1.817	1.926	1.739	1.868	1.914	1.897	1.680	1.883	1.783	1.671	1.652	1.609
355.0	117.5	97.78	111.2	186.8	255.6	277.1	276.1	271.3	282.2	303.1	321.6	332.4	328.0	303.7	271.4	231.0	209.6	200.8	226.7	293.4	171.8	96.88	102.9	242.6	865.3	2450	8749	9999.9	2106	28.14	11.07	8.857	5.698	3.554	3.109	2.327	1.922	1.744	1.604	1.404	1.220	1.244	0.934	0.974	0.996	0.785	0.886	0.870	0.860	0.808	0.895	1.245	1.296	1.541	1.492	1.516	1.517	1.495	1.643	1.588	1.618	1.641	1.624	1.639	1.717	1.892	1.897	1.853	1.873	1.905	1.800	1.770	1.792	1.881	1.572	1.711	1.643
360.0	120.8	101.1	117.6	198.8	269.7	308.2	303.6	304.0	304.5	321.7	337.8	345.2	345.7	320.1	276.2	241.4	217.5	197.9	192.5	256.4	272.6	135.8	93.97	111.3	238.9	586.2	2430	9999.9	9999.9	376.0	23.54	13.03	7.551	4.473	3.307	2.500	2.009	1.835	1.687	1.505	1.268	1.251	1.262	0.985	1.002	0.941	0.821	0.838	0.873	0.849	0.914	1.286	1.347	1.502	1.464	1.554	1.611	1.550	1.663	1.632	1.697	1.833	1.762	1.864	2.070	1.795	1.986	1.928	1.969	1.930	1.902	1.791	1.941	2.010	1.514	1.873	1.971
365.0	118.4	94.32	120.4	208.3	306.3	344.8	338.6	332.4	333.4	356.8	363.4	371.2	374.6	338.4	288.2	249.0	229.2	205.8	194.2	206.9	286.6	224.6	119.0	99.95	115.8	181.3	596.4	3271	9999.9	9999.9	303.9	32.03	13.64	6.475	3.997	3.012	2.573	2.182	1.846	1.468	1.369	1.270	1.134	1.146	1.047	0.840	0.803	0.923	0.879	0.803	0.913	1.371	1.383	1.589	1.636	1.713	1.697	1.730	1.726	1.652	1.803	1.864	1.902	1.937	2.227	2.134	2.084	2.015	2.053	1.993	2.032	2.005	1.914	2.049	1.717	1.888	1.787
370.0	119.0	105.1	157.2	314.4	501.0	509.7	429.4	396.8	440.3	507.4	624.4	616.9	798.4	569.0	331.6	276.2	256.3	240.6	228.2	229.8	264.2	308.3	283.8	237.2	212.5	235.4	374.5	978.6	3479	9999.9	9999.9	1516	138.0	27.00	8.895	4.488	3.291	2.517	2.102	1.715	1.506	1.376	1.228	1.169	1.135	0.964	0.856	0.880	0.922	0.905	1.204	1.759	2.129	2.490	2.720	2.330	2.259	2.137	2.108	2.125	2.208	2.258	2.521	2.560	2.955	3.390	3.131	2.821	3.259	4.392	4.570	3.012	2.396	2.103	1.881	1.915	2.078
375.0	112.4	134.4	290.8	695.7	1255	1357	762.3	625.6	793.0	1019	1547	1502	2523	1234	477.9	348.5	322.0	314.6	314.5	344.6	403.2	438.7	620.0	756.5	661.2	736.1	1206	1466	1630	3255	9199	9999.9	2347	170.4	24.78	9.210	5.128	3.876	2.496	2.179	2.076	1.579	1.588	1.285	1.422	1.124	1.073	1.040	1.198	1.425	2.119	3.244	4.194	6.019	6.028	4.613	3.585	3.162	2.943	3.010	3.562	3.846	4.118	4.493	6.376	8.061	6.852	5.915	7.273	12.70	13.42	6.915	3.423	2.777	2.426	2.391	2.447
380.0	135.5	155.5	401.2	1007	1934	1998	1039	822.7	1055	1444	2318	2245	3881	2127	592.9	401.9	369.0	373.1	379.5	442.5	531.1	563.6	819.7	1168	1063	1170	1920	2169	1633	2071	4565	9999.9	9999.9	1692	40.74	13.11	7.325	4.290	3.251	2.535	2.305	1.934	1.863	1.452	1.519	1.306	1.247	1.242	1.379	1.841	2.713	4.560	6.414	8.513	9.008	6.532	4.985	3.923	3.746	3.748	4.485	5.302	5.470	6.306	9.293	11.84	9.980	8.573	10.85	19.81	21.03	9.988	4.643	3.313	2.956	2.816	2.660
385.0	139.1	156.4	444.1	1112	2224	2303	1178	916.6	1198	1638	2682	2594	4531	2521	648.0	428.6	394.1	397.5	413.6	487.5	594.5	645.4	901.0	1319	1298	1400	2264	2524	1792	1964	3471	5346	9999.9	9999.9	285.6	18.31	8.348	5.214	3.957	2.958	2.761	2.110	1.860	1.707	1.569	1.401	1.224	1.502	1.503	2.102	3.066	5.262	7.025	9.557	9.872	7.614	5.360	4.234	4.191	4.314	4.971	5.859	5.857	6.914	10.31	13.39	11.31	10.11	12.48	22.41	24.00	11.64	5.243	3.673	3.001	2.929	2.735
390.0	119.8	144.5	376.2	951.5	1844	1904	1032	836.3	1034	1369	2202	2103	3643	2076	573.7	392.1	362.7	366.7	377.5	435.5	517.5	554.1	751.6	1050	1078	1203	1841	2033	1422	1515	2515	2938	3471	8299	8700	1143	21.26	6.687	4.528	3.386	2.644	2.241	1.856	1.855	1.574	1.434	1.260	1.385	1.448	1.875	2.723	4.178	6.010	8.152	8.533	6.212	4.767	4.002	3.805	3.698	4.457	5.023	4.918	5.994	8.569	11.24	9.306	8.269	10.60	18.61	19.64	9.751	4.700	3.299	2.939	2.689	2.569
395.0	103.5	140.0	334.8	877.0	1683	1763	955.8	798.4	981.5	1277	2014	1929	3317	1891	538.1	376.3	348.3	354.1	361.3	416.0	488.3	527.5	706.6	965.4	956.4	1126	1756	1873	1312	1378	2239	2330	1375	2051	5145	9999.9	1948	24.63	6.212	3.995	3.306	2.663	2.046	1.874	1.583	1.647	1.324	1.327	1.454	1.811	2.519	3.902	5.474	7.444	7.789	5.984	4.518	3.727	3.490	3.569	4.201	4.564	4.779	5.774	8.022	10.43	8.657	7.569	9.696	16.73	17.78	8.920	4.231	3.223	2.698	2.672	2.485
400.0	104.2	134.6	352.2	920.9	1779	1856	1008	818.9	1024	1354	2140	2070	3525	1997	550.2	378.3	349.9	361.0	368.4	428.1	511.1	553.9	744.9	1033	1009	1170	1908	2058	1426	1492	2407	2430	986.4	628.6	1319	6520	9285	1472	18.31	5.268	3.831	2.950	2.381	1.942	1.882	1.513	1.333	1.332	1.559	1.844	2.661	4.069	5.707	8.374	8.340	6.176	4.471	3.867	3.637	3.873	4.481	4.887	5.115	6.140	8.163	10.46	9.626	7.924	10.40	17.99	18.67	9.352	4.313	3.122	2.517	2.767	2.676
405.0	105.7	136.1	338.4	922.3	1769	1846	1003	813.1	1022	1342	2111	2046	3499	1982	539.2	372.0	340.1	353.9	365.1	422.4	511.2	549.7	742.2	1023	1005	1147	1877	2088	1439	1498	2398	2414	891.7	311.0	334.8	1744	7284	7823	265.7	10.57	4.792	3.472	2.487	2.195	2.050	1.607	1.303	1.415	1.544	1.978	2.716	4.282	5.850	8.057	8.055	6.139	4.558	3.914	3.671	3.731	4.407	4.871	4.737	6.094	7.961	10.27	9.078	7.508	9.756	17.31	18.53	9.522	4.494	3.167	2.675	2.543	2.680
410.0	86.79	100.3	262.1	708.5	1353	1414	827.4	695.4	836.1	1055	1620	1550	2567	1496	459.2	327.7	304.2	310.3	317.5	360.1	421.1	450.8	586.0	783.1	770.2	865.9	1366	1536	1113	1119	1741	1746	646.1	190.9	108.9	407.9	1917	5456	6463	1087	18.28	4.319	3.055	2.353	1.988	1.728	1.426	1.288	1.358	1.621	2.252	3.441	4.549	6.048	6.266	4.836	3.949	3.391	3.062	3.310	3.602	4.049	4.047	4.724	6.447	8.167	6.835	6.172	7.648	12.93	14.06	7.313	3.582	2.639	2.448	2.293	2.339
415.0	74.42	84.58	202.4	516.8	968.8	1052	673.7	589.5	675.3	815.7	1170	1132	1772	1062	386.0	288.1	268.7	267.7	272.6	299.8	342.5	357.9	447.6	575.9	567.8	626.1	945.9	1038	785.4	816.9	1180	1162	437.3	134.7	56.64	109.5	440.0	1246	3203	7111	1808	23.81	4.113	2.867	2.350	1.881	1.520	1.270	1.201	1.447	1.688	2.633	3.341	4.361	4.722	3.725	3.145	3.015	2.858	2.840	3.313	3.468	3.508	3.969	4.594	5.911	5.032	4.671	5.591	8.691	9.891	5.061	2.866	2.362	2.066	1.984	2.035
420.0	67.29	75.16	184.5	444.0	823.1	917.2	631.3	550.8	628.3	735.1	1026	986.6	1490	914.3	350.2	269.9	251.3	252.7	253.1	277.3	309.3	327.3	400.3	504.7	495.2	540.7	800.9	871.9	655.3	711.3	1017	979.0	374.0	119.3	45.84	44.06	111.5	288.7	779.6	4109	6792	1389	16.49	3.540	2.869	2.216	1.624	1.369	1.265	1.347	1.605	2.484	3.213	3.879	4.122	3.537	3.135	2.785	2.764	2.853	2.949	3.198	3.341	3.708	3.899	5.323	4.523	3.924	4.928	7.682	8.200	4.524	2.823	2.178	2.027	1.925	1.865
425.0	66.22	67.93	169.0	423.0	774.4	849.0	598.7	536.3	602.0	701.1	959.1	922.9	1369	840.9	333.1	257.5	241.3	240.5	242.9	262.2	295.4	310.7	377.1	472.5	463.8	507.2	743.8	807.8	594.9	638.7	964.3	916.2	355.4	116.5	46.29	31.99	39.65	75.44	183.8	1057	4766	5895	255.3	9.397	3.698	2.441	1.872	1.606	1.331	1.456	1.549	2.294	2.862	3.809	3.968	3.256	2.889	2.862	2.394	2.591	2.854	3.175	3.143	3.132	3.936	4.885	4.360	3.716	4.638	7.301	7.630	4.079	2.756	2.095	1.958	1.762	1.839
430.0	77.66	63.00	146.9	359.1	674.5	733.6	538.5	488.7	546.3	622.2	822.5	787.6	1131	709.5	308.5	244.2	224.6	223.7	221.3	240.4	262.1	276.7	328.0	401.5	395.7	429.4	609.9	658.4	496.0	513.7	771.9	763.7	311.2	107.8	47.96	31.86	26.44	29.57	50.90	244.1	1214	3706	4843	1094	17.42	3.392	2.278	1.832	1.439	1.483	1.575	2.169	2.580	3.424	3.449	2.935	2.637	2.574	2.370	2.383	2.635	2.822	2.775	2.947	3.686	4.030	3.742	3.358	3.962	6.041	5.997	3.508	2.449	1.934	1.843	1.729	1.706
435.0	122.7	58.44	118.7	294.2	524.0	598.2	467.2	443.9	482.2	531.5	663.3	626.3	829.3	547.3	279.6	226.9	209.0	200.8	200.9	212.2	226.3	236.2	270.9	316.8	313.5	336.3	447.8	479.5	370.3	375.0	528.8	532.2	262.5	104.5	50.33	34.23	25.28	21.51	22.56	62.94	277.1	841.8	2272	5649	1742	22.80	3.316	2.439	1.756	1.520	1.571	2.043	2.241	2.768	3.064	2.603	2.422	2.330	2.333	2.196	2.351	2.513	2.444	2.704	3.071	3.413	3.158	2.915	3.159	4.320	4.309	2.952	2.021	1.828	1.663	1.556	1.561
440.0	145.5	65.39	104.0	253.4	448.8	512.5	428.5	412.5	452.2	478.9	569.9	544.4	665.7	460.4	258.6	215.3	198.4	189.3	189.2	194.3	206.1	211.7	237.0	269.7	265.4	282.4	358.9	379.8	304.9	303.9	402.2	398.1	221.8	112.6	54.41	36.76	27.64	21.07	17.62	23.52	69.05	194.3	549.8	3241	6341	1319	15.08	2.905	2.048	1.581	1.637	2.011	2.076	2.618	2.496	2.346	2.312	2.284	2.216	2.350	2.178	2.186	2.370	2.531	2.747	3.101	2.676	2.671	2.504	3.668	3.677	2.572	1.885	1.817	1.482	1.461	1.592
445.0	133.5	87.44	95.89	223.2	407.8	474.4	411.1	402.9	425.6	448.9	511.8	483.0	576.0	406.1	244.5	208.6	188.7	180.0	179.7	183.6	192.0	194.1	214.0	239.4	236.7	249.7	310.9	324.6	266.1	264.4	338.0	326.7	183.8	119.8	66.76	39.68	28.93	22.04	17.55	15.38	23.50	50.30	129.5	838.4	4528	5167	214.0	9.052	2.461	1.894	1.675	1.821	2.019	2.229	2.173	2.365	2.386	2.206	2.089	2.223	2.144	2.079	2.326	2.319	2.350	2.761	2.468	2.487	2.487	2.989	3.165	2.485	2.013	1.665	1.472	1.496	1.469
450.0	84.71	132.3	101.8	199.1	352.1	419.1	381.7	378.0	391.7	417.6	466.1	439.8	503.4	358.5	228.2	194.4	177.4	168.3	165.6	168.2	173.7	178.0	192.9	212.4	211.7	219.7	266.4	279.3	234.6	231.8	286.1	273.3	151.3	103.7	82.45	50.93	32.64	23.52	18.49	15.08	14.79	18.73	35.11	192.8	1158	3237	4253	970.4	14.12	2.539	1.969	2.000	2.057	2.189	2.274	2.157	2.084	2.087	1.946	2.012	2.027	2.095	2.127	2.219	2.231	2.516	2.300	2.167	2.246	2.791	2.801	2.073	1.740	1.589	1.399	1.508	1.405
455.0	54.45	111.3	147.0	175.7	304.1	359.4	344.2	349.4	357.8	383.5	412.2	391.3	426.8	311.7	209.5	177.7	163.1	153.5	150.0	152.1	154.0	157.9	169.0	182.5	183.4	189.5	223.5	232.5	198.4	197.6	231.7	223.1	128.1	83.68	75.01	65.77	40.76	25.93	20.59	15.73	13.34	12.25	14.44	48.43	263.2	734.8	1863	4534	1376	17.06	2.658	2.407	2.208	2.187	2.054	2.024	1.923	1.776	1.920	2.015	2.008	2.002	2.046	1.974	2.007	2.198	1.935	2.056	2.082	2.339	2.415	1.901	1.581	1.553	1.367	1.430	1.320
460.0	44.69	78.31	189.6	162.7	271.3	328.7	315.2	322.9	336.1	352.2	368.8	348.8	366.5	271.9	200.6	169.2	152.7	144.0	137.3	138.7	140.4	143.6	152.8	161.3	161.9	167.3	190.4	196.8	173.4	171.8	194.5	182.9	114.1	76.71	62.73	65.46	51.31	29.54	21.39	16.64	13.18	11.04	9.957	16.13	63.67	168.2	445.0	2474	4367	992.0	12.31	2.697	2.410	2.239	2.005	1.973	2.009	1.886	1.943	1.827	2.026	1.968	1.960	2.035	1.940	1.928	2.037	1.807	1.895	1.953	2.044	1.785	1.395	1.383	1.290	1.431	1.493
465.0	43.95	52.13	206.6	219.6	246.0	296.8	295.2	305.5	313.2	318.8	342.5	315.3	323.0	249.0	187.1	158.7	142.6	135.9	126.9	129.1	128.2	130.0	138.9	143.3	142.7	147.1	164.6	168.2	154.2	150.9	165.2	152.7	101.3	71.30	56.98	55.54	56.91	36.12	22.50	17.21	14.23	11.41	9.078	9.361	19.64	42.26	104.1	631.6	3088	3684	173.9	8.777	2.660	2.274	2.232	2.132	2.002	1.906	1.973	1.860	1.797	1.874	1.707	1.822	1.748	1.871	1.999	1.661	1.853	1.830	1.835	1.605	1.422	1.316	1.310	1.251	1.256
470.0	41.60	37.42	166.3	503.3	303.8	256.3	265.3	278.2	279.1	286.3	300.9	280.8	274.1	216.3	167.7	144.6	127.6	119.5	114.2	113.2	114.1	114.9	121.3	125.2	124.1	125.2	138.4	139.4	131.2	127.4	135.3	126.4	88.19	65.33	51.81	44.89	47.26	43.81	28.54	18.57	14.73	11.68	9.154	8.019	9.779	14.00	27.34	144.9	789.0	2283	2799	879.7	13.99	2.926	2.342	2.083	1.971	1.860	1.804	1.718	1.748	1.653	1.677	1.730	1.716	1.780	1.692	1.492	1.616	1.676	1.551	1.514	1.292	1.375	1.335	1.181	1.167
475.0	46.14	31.23	89.23	774.0	678.5	244.6	240.1	251.6	252.1	258.2	267.2	249.6	234.5	190.2	148.0	128.8	114.1	108.4	101.5	98.44	99.77	101.9	104.5	106.0	108.5	107.9	116.8	116.3	112.5	108.3	112.3	106.7	78.16	60.44	48.72	40.10	36.21	38.70	36.59	22.38	15.19	12.34	9.696	8.361	7.683	7.576	10.05	35.48	178.7	515.7	1173	2930	1167	19.00	2.694	2.165	1.892	1.809	1.688	1.622	1.580	1.532	1.469	1.624	1.652	1.559	1.592	1.460	1.482	1.493	1.427	1.229	1.356	1.265	1.171	1.149	0.993
480.0	43.18	32.92	60.93	633.6	1632	361.9	216.8	225.2	231.0	238.9	244.5	224.9	211.2	173.7	137.9	118.6	106.6	98.61	92.38	91.57	91.93	91.13	93.94	94.50	97.51	96.28	102.9	102.9	100.3	99.76	100.6	94.07	71.00	56.14	45.58	38.23	32.24	31.20	36.03	28.67	16.71	12.40	9.901	8.595	7.767	6.269	6.467	11.33	42.82	117.9	279.7	1531	3014	221.5	12.06	2.647	2.062	1.904	1.799	1.632	1.483	1.558	1.589	1.525	1.435	1.423	1.391	1.431	1.329	1.392	1.471	1.308	1.236	1.053	1.069	1.029	1.029
485.0	46.10	36.32	51.52	320.7	2209	601.2	211.7	209.5	214.7	220.6	228.1	211.6	195.3	160.4	129.4	113.4	99.39	91.19	85.84	84.49	85.50	82.74	86.86	86.56	87.00	88.65	92.25	94.46	90.10	89.08	91.47	84.51	64.93	53.57	43.83	36.58	30.71	27.61	30.20	31.18	20.54	13.39	10.15	8.665	7.794	6.253	5.589	6.131	12.53	28.85	65.30	390.8	2082	2641	194.8	6.512	2.403	2.049	1.912	1.649	1.504	1.369	1.415	1.591	1.399	1.297	1.389	1.304	1.195	1.253	1.257	1.189	1.106	1.040	1.008	1.012	1.024
490.0	39.47	45.46	51.16	146.0	1522	2506	372.8	194.1	194.8	201.4	205.2	188.7	173.7	145.5	120.3	101.3	90.97	83.08	77.66	76.79	76.12	74.61	76.69	77.61	78.46	77.96	81.39	82.86	79.60	80.27	80.17	73.41	58.13	49.66	40.64	34.63	28.93	25.23	23.37	27.05	25.55	16.88	11.11	8.841	7.663	6.285	5.485	4.784	5.853	9.093	16.87	89.73	532.1	1610	2058	794.7	15.12	2.427	2.001	1.705	1.617	1.413	1.437	1.404	1.303	1.214	1.399	1.223	1.117	1.094	1.204	0.995	0.951	1.007	0.992	0.913	0.881
495.0	36.41	43.93	58.20	91.12	523.8	3136	1741	202.9	178.1	179.0	182.3	168.8	156.4	128.3	106.5	93.08	80.86	73.20	69.16	69.08	69.34	67.03	67.97	68.03	69.97	69.10	71.01	71.28	69.09	68.63	70.20	63.32	52.36	44.43	37.53	32.49	27.21	23.61	21.05	19.86	23.63	22.59	13.84	9.492	7.725	6.730	5.673	4.769	4.421	4.654	5.905	22.22	120.7	364.4	1010	2723	1256	20.63	2.344	1.883	1.767	1.500	1.384	1.340	1.212	1.330	1.165	1.126	1.080	1.180	1.076	1.023	1.018	0.920	0.939	0.884	0.855
500.0	32.80	35.70	57.61	75.30	212.4	2109	3325	345.0	166.2	168.1	168.6	155.4	139.9	119.2	98.37	84.25	72.98	67.95	64.18	62.63	62.34	58.86	62.55	63.13	60.45	61.42	61.63	64.40	62.26	62.90	62.05	56.51	47.26	41.93	34.99	29.74	25.48	21.94	19.17	17.65	18.37	22.32	16.96	10.47	8.073	6.608	5.704	4.857	4.091	3.778	3.550	7.083	28.98	83.32	242.4	1408	2849	243.6	13.39	2.177	1.732	1.590	1.386	1.314	1.244	1.092	1.085	1.110	1.085	1.052	0.884	0.855	0.977	0.954	0.838	0.778	0.803
505.0	31.71	33.04	61.25	73.04	128.4	927.7	4102	1143	154.0	155.7	153.2	141.7	125.6	108.3	88.29	76.76	66.85	62.37	57.12	56.11	54.61	53.27	55.86	56.48	55.66	53.31	54.59	56.46	56.52	56.19	55.77	50.40	43.18	37.37	32.70	28.04	23.49	21.14	18.19	16.19	15.06	18.14	19.26	12.84	8.095	6.433	5.572	4.633	3.993	3.570	2.934	3.721	8.426	20.59	56.41	356.6	1825	1953	213.8	6.297	1.954	1.591	1.410	1.275	1.206	1.170	1.050	1.052	0.981	0.933	0.892	0.813	0.947	0.832	0.812	0.701	0.824
510.0	34.60	32.33	53.41	88.75	103.7	310.2	2614	3325	387.3	137.6	138.8	124.7	111.0	95.27	77.90	67.24	58.72	53.41	50.78	48.65	47.37	47.62	48.03	47.38	47.01	47.50	48.16	48.53	48.30	48.45	47.19	43.91	38.62	32.69	28.47	24.35	21.62	18.99	17.09	14.79	12.80	13.45	16.37	15.40	10.12	6.628	5.422	4.770	3.800	3.359	2.873	2.816	3.868	6.482	14.52	81.56	458.9	1280	1798	719.0	14.60	2.000	1.465	1.231	1.279	1.106	1.081	1.057	1.041	0.883	0.857	0.861	0.820	0.789	0.699	0.762	0.729
515.0	31.14	28.71	36.91	97.64	101.6	146.5	821.7	4249	1726	133.0	121.0	106.1	97.15	80.64	68.77	57.97	51.34	47.68	43.63	41.71	39.79	40.91	40.25	40.47	39.94	40.34	41.21	41.52	42.00	41.49	40.63	37.96	34.11	28.01	25.11	21.48	19.57	17.08	15.36	13.05	11.85	10.63	11.67	14.25	13.32	7.918	5.251	4.462	3.667	3.274	2.767	2.565	2.612	3.042	4.846	19.86	104.1	289.3	753.4	2004	982.9	19.94	1.733	1.293	1.297	1.179	0.997	0.945	0.955	0.910	0.730	0.868	0.739	0.825	0.640	0.690	0.628
520.0	35.79	26.97	29.49	87.67	114.1	109.8	270.2	2896	3669	249.9	106.5	98.72	86.74	74.44	59.72	52.86	46.86	42.55	38.74	37.65	36.84	36.37	37.25	35.37	36.66	35.87	36.27	36.46	36.93	36.98	35.41	34.17	29.87	25.77	23.30	20.01	17.72	15.93	14.31	12.30	11.06	9.680	9.013	10.97	13.67	10.11	5.555	4.351	3.687	2.992	2.529	2.502	2.440	2.344	2.739	6.047	24.66	66.32	178.0	979.5	2002	244.1	13.05	1.677	1.262	1.062	0.976	0.829	0.898	0.938	0.698	0.759	0.776	0.869	0.652	0.667	0.668
525.0	33.51	22.70	29.07	68.46	126.7	97.31	128.8	1241	4968	1021	97.96	89.63	79.14	66.69	55.40	47.54	42.14	35.86	35.24	33.95	33.33	32.69	32.37	32.34	32.48	32.42	31.63	33.07	33.38	32.71	31.12	29.31	26.52	23.53	20.39	17.99	16.03	13.93	12.56	11.48	10.20	8.811	8.153	8.512	11.28	11.72	6.744	4.279	3.488	2.975	2.382	2.350	2.425	2.241	2.028	2.906	7.094	16.44	41.57	242.8	1191	1671	211.9	5.922	1.450	1.147	0.991	0.868	0.774	0.949	0.698	0.760	0.718	0.808	0.644	0.607	0.651
530.0	31.37	24.80	26.03	47.91	121.5	109.2	90.90	369.3	3344	3372	191.5	78.66	69.00	58.64	49.04	41.77	36.55	32.09	31.03	29.06	29.06	28.48	28.33	28.08	27.63	27.14	27.27	27.40	27.84	27.95	26.79	25.41	22.43	19.76	17.38	16.14	14.29	12.67	11.21	10.43	9.143	7.880	7.231	7.022	7.786	9.925	9.143	5.325	3.376	2.838	2.363	2.221	2.220	2.269	2.040	2.083	2.935	4.964	10.73	55.76	294.6	900.2	1282	539.3	14.80	1.425	1.090	0.892	0.766	0.812	0.710	0.728	0.682	0.645	0.604	0.553	0.560
535.0	29.90	24.05	23.35	36.31	84.30	129.6	78.57	140.1	1036	5046	1442	78.23	59.08	52.72	41.60	36.89	32.54	27.39	25.88	24.67	25.19	24.18	24.40	24.06	23.41	22.69	23.37	22.80	23.09	23.49	22.92	21.64	19.23	17.34	14.94	13.74	12.54	11.17	10.05	8.599	8.133	7.074	6.527	6.098	5.656	6.644	8.935	7.144	3.955	2.762	2.117	2.042	1.913	1.925	2.101	1.834	1.925	2.251	3.601	13.63	66.98	202.7	474.0	1328	747.7	20.07	1.306	0.989	0.835	0.768	0.708	0.690	0.618	0.586	0.670	0.612	0.514
540.0	30.97	24.98	23.85	30.14	59.25	143.2	86.92	80.22	298.4	3532	3662	157.2	54.93	45.77	37.45	31.42	28.17	25.18	23.38	22.18	21.57	20.85	20.91	20.46	19.67	20.31	20.38	19.91	20.92	20.11	19.52	19.12	17.16	15.18	13.25	11.81	11.00	9.807	8.766	7.709	7.541	6.516	5.863	5.525	4.868	5.181	6.647	7.555	4.972	2.714	2.130	1.895	1.729	1.764	1.854	1.837	1.641	1.639	1.958	3.992	16.04	46.31	110.2	596.0	1357	246.7	12.62	1.119	0.873	0.829	0.776	0.675	0.603	0.561	0.533	0.591	0.501
545.0	31.78	23.72	20.06	26.35	42.89	116.4	104.7	62.48	113.7	1456	5225	676.1	49.62	39.77	34.46	27.46	24.76	22.72	20.90	19.55	19.29	18.85	18.57	18.37	17.51	17.43	17.13	17.64	18.04	17.68	17.62	17.07	14.98	12.97	11.83	10.78	9.746	8.907	7.629	7.171	6.488	5.914	5.251	4.779	4.433	4.151	4.549	6.276	5.870	3.340	2.185	1.855	1.712	1.594	1.657	1.905	1.895	1.439	1.350	1.944	4.571	11.37	25.91	143.7	728.3	1155	207.2	5.554	1.020	0.780	0.686	0.693	0.607	0.525	0.588	0.495	0.488
550.0	29.17	21.21	18.75	24.99	36.66	73.85	118.9	64.69	63.97	398.6	3474	2797	114.2	34.42	29.48	24.25	21.06	18.38	17.42	16.60	16.03	15.39	15.30	14.72	14.96	14.63	14.37	14.80	14.85	15.20	14.52	13.45	12.66	10.41	9.834	8.778	8.069	7.052	6.762	6.034	5.488	5.054	4.431	4.088	3.913	3.461	3.464	4.025	5.478	4.259	2.748	1.641	1.500	1.429	1.408	1.417	1.636	1.558	1.287	1.340	1.921	3.423	6.664	33.01	175.2	552.9	835.6	380.6	14.96	1.081	0.712	0.652	0.594	0.526	0.511	0.485	0.455
555.0	26.28	17.37	18.86	20.33	30.88	47.07	98.92	85.68	46.53	123.3	1022	4592	941.1	34.02	24.16	19.96	17.46	15.41	13.93	13.66	13.01	12.91	12.55	12.17	12.08	11.58	11.80	11.73	11.75	12.37	11.99	10.96	9.796	8.607	8.126	7.248	6.369	5.847	5.278	5.165	4.510	3.992	3.753	3.484	3.152	2.755	2.689	2.536	3.412	4.319	3.420	2.019	1.310	1.280	1.359	1.254	1.252	1.500	1.415	1.026	1.275	1.540	2.288	8.142	39.80	124.4	278.2	791.2	525.1	20.34	1.183	0.707	0.631	0.538	0.508	0.514	0.441
560.0	28.71	20.50	18.58	20.42	25.44	32.29	67.32	104.2	41.02	59.88	273.2	3256	2827	80.19	21.51	17.36	15.26	13.41	12.43	11.79	11.44	10.51	10.47	10.16	10.36	9.785	10.46	9.880	9.980	9.693	10.08	9.205	8.425	7.510	6.852	6.191	5.553	4.931	4.583	4.322	4.054	3.510	3.336	2.893	2.886	2.442	2.465	2.086	2.291	3.203	3.772	2.428	1.346	1.221	1.082	0.986	1.046	1.231	1.540	1.045	1.025	0.996	1.240	2.426	9.501	28.47	63.91	316.5	809.7	244.7	13.53	0.832	0.708	0.486	0.482	0.495	0.445
565.0	25.70	20.55	15.89	19.32	20.54	27.71	46.39	111.4	51.92	40.50	89.95	1283	4374	398.2	19.66	14.86	13.21	12.03	10.73	11.07	9.940	9.251	9.340	8.565	8.952	8.379	8.521	8.790	8.530	8.490	8.194	7.691	6.883	6.283	5.907	5.127	4.915	4.452	4.244	3.680	3.466	3.338	2.907	2.747	2.470	2.164	2.073	1.751	1.643	2.270	3.327	2.914	1.471	0.993	0.980	1.021	1.005	0.901	1.282	1.315	1.072	0.781	0.911	1.121	2.710	7.034	15.01	74.38	372.3	698.2	197.7	5.956	0.722	0.563	0.486	0.490	0.480
570.0	26.70	19.53	14.84	17.28	19.45	23.48	30.53	78.54	77.54	34.57	45.32	337.9	3002	2094	63.32	13.76	11.11	10.14	9.085	8.801	7.885	7.739	7.371	7.232	7.006	7.249	6.976	7.278	6.932	6.928	6.844	6.584	5.763	5.131	4.711	4.236	3.881	3.468	3.430	2.985	2.906	2.680	2.305	2.209	2.262	1.887	1.641	1.505	1.445	1.464	2.084	2.641	1.877	1.214	0.902	0.925	0.915	0.809	0.929	1.038	1.145	0.851	0.752	0.733	1.156	2.137	3.933	17.21	87.30	289.7	479.7	245.3	15.30	0.923	0.546	0.494	0.475
575.0	26.40	17.42	13.92	15.21	16.67	19.38	23.23	41.06	92.46	44.59	31.94	95.46	864.6	3584	638.2	14.07	9.997	9.160	7.733	7.390	6.917	6.536	5.760	5.471	5.785	5.769	5.643	6.025	5.715	5.979	5.650	5.274	4.553	4.206	3.730	3.447	3.144	2.891	2.804	2.589	2.254	2.329	1.856	1.857	1.760	1.375	1.313	1.261	1.259	1.138	1.273	1.739	2.189	1.629	1.150	0.863	0.793	0.765	0.741	0.775	0.903	1.022	0.785	0.716	0.673	0.928	1.324	4.400	19.92	65.12	139.2	404.3	260.5	21.29	0.710	0.511	0.518
580.0	22.19	19.03	13.63	14.32	17.54	16.83	20.64	26.43	83.83	60.02	27.72	41.78	221.0	2527	2030	38.55	9.623	8.047	6.473	5.572	5.560	5.651	4.720	4.893	5.125	4.786	4.843	4.899	4.836	5.200	4.947	4.660	3.751	3.638	3.285	2.957	2.697	2.463	2.354	2.273	2.209	1.960	1.662	1.501	1.552	1.323	1.136	1.199	1.043	1.019	0.970	1.171	1.713	1.764	1.245	0.835	0.788	0.713	0.602	0.694	0.676	0.995	0.937	0.675	0.523	0.657	0.749	1.433	4.959	15.04	31.85	142.5	424.9	226.9	14.35	0.549	0.514
585.0	21.87	21.90	13.51	14.71	17.36	15.44	18.83	21.52	55.97	79.05	28.74	27.22	65.37	973.7	3218	110.8	8.951	7.206	6.135	5.648	5.167	4.925	4.623	4.308	4.500	4.261	4.165	4.214	4.376	4.329	4.104	4.052	3.450	3.198	2.878	2.454	2.366	2.203	1.970	1.955	1.827	1.663	1.528	1.440	1.384	1.223	1.127	1.160	0.842	0.952	0.837	0.918	1.227	1.744	1.347	0.909	0.696	0.708	0.593	0.693	0.641	0.825	1.040	0.816	0.512	0.681	0.518	0.779	1.632	3.763	7.642	33.04	172.7	411.7	169.5	5.888	0.522
590.0	21.95	18.31	13.98	13.80	14.27	15.55	17.42	17.28	33.12	75.97	41.22	23.29	30.20	250.2	2164	1375	35.62	6.913	5.696	5.026	4.467	4.387	4.153	3.824	3.846	3.717	3.744	3.615	3.698	3.673	3.544	3.475	2.893	2.609	2.412	2.228	2.081	1.927	1.717	1.711	1.536	1.400	1.343	1.256	1.224	1.187	0.982	0.898	0.834	0.705	0.727	0.713	0.831	1.200	1.449	1.174	0.829	0.632	0.550	0.568	0.564	0.549	0.773	1.007	0.742	0.564	0.489	0.510	0.757	1.196	2.120	7.791	39.87	149.5	278.4	151.1	15.77
595.0	22.02	15.08	15.03	12.91	15.91	13.96	15.57	16.01	21.05	49.43	63.79	23.03	19.83	66.47	606.3	2397	385.8	6.948	4.960	4.249	3.842	3.884	3.649	3.322	3.304	3.064	3.172	3.029	2.924	2.836	3.171	2.770	2.383	2.190	1.932	1.721	1.839	1.591	1.474	1.475	1.392	1.222	1.185	1.155	1.047	0.924	0.795	0.809	0.740	0.642	0.636	0.653	0.577	0.763	1.045	1.267	0.967	0.619	0.468	0.530	0.533	0.514	0.572	0.739	0.801	0.676	0.407	0.525	0.511	0.601	0.945	2.128	9.302	33.71	73.48	210.8	228.6
600.0	21.37	17.52	12.81	12.35	14.28	13.80	14.29	13.89	18.69	31.53	70.61	28.87	17.00	25.57	150.9	1720	1270	18.46	5.313	3.959	3.483	3.373	3.088	2.840	2.732	2.773	2.735	2.724	2.660	2.339	2.560	2.424	2.043	2.145	1.725	1.650	1.533	1.452	1.263	1.250	1.250	1.127	1.088	1.041	0.839	0.835	0.778	0.700	0.669	0.594	0.540	0.579	0.534	0.604	0.767	1.213	1.026	0.759	0.595	0.518	0.516	0.468	0.469	0.519	0.688	0.899	0.475	0.429	0.493	0.454	0.561	0.786	2.471	7.869	16.87	67.17	247.8
605.0	22.03	17.09	12.42	11.92	12.09	13.36	12.88	15.09	17.75	24.01	61.55	40.92	16.59	16.49	42.02	679.4	2073	78.47	5.367	3.617	3.556	2.938	2.542	2.759	2.575	2.338	2.623	2.241	2.296	2.330	2.388	2.300	1.983	1.749	1.547	1.382	1.298	1.239	1.061	1.080	1.087	1.097	0.893	0.978	0.766	0.758	0.710	0.670	0.607	0.501	0.478	0.540	0.481	0.572	0.581	0.844	1.058	0.814	0.667	0.502	0.471	0.490	0.510	0.432	0.539	0.666	0.754	0.486	0.464	0.387	0.390	0.531	0.948	2.128	4.101	15.58	89.06
610.0	23.46	14.96	12.50	11.23	11.88	11.99	13.27	14.46	16.97	20.76	39.73	56.33	20.97	14.39	18.49	173.6	1466	968.4	22.19	3.759	3.296	2.932	2.417	2.528	2.381	2.234	2.265	2.032	2.125	2.130	2.075	1.974	1.580	1.401	1.302	1.243	1.072	1.084	0.942	0.907	0.885	0.863	0.827	0.765	0.719	0.691	0.663	0.636	0.561	0.481	0.439	0.481	0.476	0.488	0.451	0.585	0.921	0.863	0.726	0.551	0.520	0.430	0.470	0.387	0.464	0.513	0.683	0.643	0.459	0.438	0.399	0.448	0.553	0.761	1.257	3.843	20.44
615.0	24.11	14.86	11.37	11.72	13.39	14.47	13.25	14.64	16.10	20.69	24.49	55.71	30.14	14.44	12.82	46.09	423.4	1709	253.4	4.459	2.927	2.558	2.355	2.439	2.151	2.045	2.056	1.793	1.883	1.856	1.930	1.792	1.226	1.220	1.166	1.080	1.154	0.882	0.989	0.899	0.747	0.758	0.706	0.721	0.648	0.582	0.575	0.467	0.530	0.418	0.410	0.407	0.414	0.413	0.366	0.432	0.640	0.765	0.778	0.583	0.502	0.448	0.441	0.406	0.371	0.407	0.553	0.580	0.588	0.464	0.356	0.423	0.427	0.391	0.567	1.187	4.878
620.0	25.82	18.76	11.64	10.36	11.79	13.18	11.64	14.37	14.23	18.50	21.56	42.13	40.92	14.30	11.49	17.18	107.0	1288	649.1	10.92	3.171	2.613	2.243	1.969	1.969	1.798	1.793	1.750	1.508	1.574	1.616	1.632	1.152	1.109	0.995	1.122	1.003	0.872	0.881	0.855	0.644	0.714	0.559	0.693	0.649	0.565	0.504	0.445	0.459	0.404	0.434	0.428	0.445	0.432	0.347	0.438	0.482	0.619	0.688	0.606	0.507	0.464	0.379	0.396	0.342	0.402	0.448	0.522	0.624	0.450	0.433	0.364	0.374	0.339	0.403	0.575	1.356
625.0	26.92	18.01	13.62	12.35	10.43	12.78	12.51	13.58	13.88	17.19	19.93	29.68	47.87	17.22	10.35	10.88	29.97	543.9	1462	55.09	3.215	2.646	2.099	1.788	1.914	1.525	1.737	1.669	1.445	1.446	1.820	1.714	1.180	1.019	0.967	0.932	0.820	0.799	0.758	0.732	0.566	0.673	0.789	0.570	0.630	0.452	0.536	0.500	0.404	0.447	0.354	0.376	0.354	0.474	0.415	0.441	0.425	0.490	0.628	0.626	0.595	0.397	0.377	0.465	0.459	0.343	0.367	0.437	0.601	0.599	0.439	0.360	0.339	0.343	0.338	0.457	0.613
630.0	21.72	17.23	13.55	10.44	10.42	11.97	11.72	13.07	13.31	15.99	17.67	20.68	40.97	26.68	10.48	8.768	12.28	139.3	1163	687.7	11.56	2.776	2.129	1.977	1.910	1.590	1.586	1.567	1.485	1.383	1.500	1.475	1.061	1.035	0.803	0.924	0.786	0.707	0.648	0.647	0.589	0.561	0.574	0.525	0.506	0.462	0.509	0.447	0.400	0.389	0.352	0.343	0.343	0.374	0.404	0.373	0.396	0.428	0.491	0.574	0.588	0.460	0.434	0.441	0.452	0.368	0.417	0.386	0.432	0.546	0.474	0.389	0.409	0.326	0.371	0.402	0.413
635.0	20.08	18.67	11.16	9.525	9.704	9.869	11.42	13.43	14.06	15.01	17.45	18.78	27.44	37.59	13.01	8.252	8.017	35.84	359.4	1332	66.49	3.036	2.297	1.869	1.872	1.437	1.547	1.377	1.447	1.182	1.397	1.289	1.020	0.942	0.719	0.848	0.672	0.690	0.595	0.563	0.575	0.476	0.527	0.504	0.559	0.439	0.437	0.469	0.353	0.339	0.344	0.380	0.345	0.375	0.349	0.339	0.494	0.406	0.515	0.493	0.554	0.455	0.451	0.376	0.418	0.417	0.349	0.373	0.510	0.398	0.461	0.434	0.426	0.393	0.424	0.375	0.369
640.0	22.41	16.73	11.05	9.292	10.18	10.39	12.07	12.50	13.80	14.85	16.12	17.28	19.78	36.42	17.91	8.253	6.713	12.62	91.23	1086	489.1	6.383	2.371	1.876	1.619	1.641	1.517	1.257	1.221	1.200	1.325	1.206	1.085	1.012	0.725	0.704	0.708	0.643	0.633	0.490	0.574	0.586	0.565	0.502	0.495	0.404	0.384	0.394	0.361	0.298	0.281	0.342	0.368	0.405	0.382	0.319	0.390	0.392	0.449	0.415	0.523	0.500	0.499	0.390	0.426	0.310	0.371	0.384	0.394	0.397	0.368	0.458	0.481	0.361	0.340	0.357	0.343
645.0	21.55	16.32	11.16	9.764	10.70	9.360	11.20	13.03	13.07	14.92	15.73	17.05	17.63	28.69	23.62	7.774	6.310	7.068	24.24	507.5	1102	38.88	2.600	2.113	1.439	1.719	1.649	1.309	1.144	1.209	1.333	1.161	0.885	1.025	0.766	0.636	0.662	0.637	0.554	0.503	0.533	0.543	0.564	0.468	0.488	0.487	0.438	0.349	0.414	0.326	0.252	0.320	0.360	0.338	0.417	0.318	0.347	0.315	0.340	0.362	0.443	0.418	0.540	0.399	0.436	0.341	0.340	0.351	0.321	0.364	0.378	0.419	0.502	0.420	0.394	0.309	0.332
650.0	20.61	13.60	12.45	9.781	10.39	9.914	9.963	11.39	11.21	14.27	13.78	15.24	15.81	21.45	27.86	9.298	6.641	5.764	8.578	147.0	1197	267.3	3.034	2.180	1.698	1.574	1.530	1.333	1.175	1.172	1.350	1.189	0.792	0.861	0.705	0.608	0.597	0.564	0.508	0.516	0.497	0.476	0.413	0.549	0.480	0.392	0.381	0.381	0.387	0.312	0.312	0.296	0.353	0.334	0.409	0.345	0.353	0.299	0.366	0.288	0.386	0.417	0.486	0.377	0.341	0.394	0.362	0.346	0.337	0.354	0.357	0.349	0.411	0.434	0.446	0.288	0.364
