Sample:	'1
File name:	T2025031404Ê¤ÀûºÓ3.FD3
Run date:	'09:46:59, 03/17/2025
Operator:	Administrator
Comment:	'

Instrument
Model:	F-2700 FL Spectrophotometer
Serial number:	23B8-004
ROM Version:	4J14000 07

Instrument parameters
Measurement type:	3-D scan
Data mode:	Fluorescence
EX  Start WL:	220.0 nm
EX  End WL:	600.0 nm
EX Sampling interval:	5.0 nm
EM  Start WL:	230.0 nm
EM  End WL:	650.0 nm
EM Sampling interval:	5.0 nm
Scan speed:	12000 nm/min
EX Slit:	5.0 nm
EM Slit:	5.0 nm
PMT Voltage:	700 V
Response:	Auto 
Corrected spectra:	Off
Contour interval:	50.000

Peak integration
Integration method:	Rectangular
Sensitivity:	1
Threshold:	1.000

Peaks
No.	ApexEX/EM(nm)	Height(Data)
1	230.0/580.0	46.72
2	230.0/640.0	111.6
3	235.0/340.0	5413
4	240.0/265.0	372.9
5	240.0/520.0	263.8
6	245.0/270.0	374.6
7	245.0/535.0	223.3
8	250.0/275.0	483.1
9	250.0/550.0	175.5
10	255.0/280.0	572.8
11	255.0/560.0	147.6
12	260.0/575.0	117.7
13	265.0/585.0	109.5
14	275.0/320.0	4574
15	275.0/615.0	251.1
16	280.0/385.0	2078
17	280.0/400.0	1705
18	280.0/625.0	234.3
19	335.0/385.0	652.5
20	335.0/405.0	700.3
21	355.0/385.0	735.0
22	355.0/405.0	852.6
23	370.0/405.0	736.6
24	370.0/425.0	495.7
25	430.0/505.0	28.01
26	440.0/520.0	20.39
27	445.0/525.0	17.55
28	475.0/340.0	17.89
29	505.0/275.0	3.126
30	515.0/280.0	2.989
31	520.0/285.0	3.784
32	545.0/380.0	7.689
33	565.0/320.0	21.78
34	570.0/315.0	21.39
35	570.0/385.0	11.09

Data points
	220.0	225.0	230.0	235.0	240.0	245.0	250.0	255.0	260.0	265.0	270.0	275.0	280.0	285.0	290.0	295.0	300.0	305.0	310.0	315.0	320.0	325.0	330.0	335.0	340.0	345.0	350.0	355.0	360.0	365.0	370.0	375.0	380.0	385.0	390.0	395.0	400.0	405.0	410.0	415.0	420.0	425.0	430.0	435.0	440.0	445.0	450.0	455.0	460.0	465.0	470.0	475.0	480.0	485.0	490.0	495.0	500.0	505.0	510.0	515.0	520.0	525.0	530.0	535.0	540.0	545.0	550.0	555.0	560.0	565.0	570.0	575.0	580.0	585.0	590.0	595.0	600.0
230.0	23.97	681.5	1835	551.6	22.15	3.906	3.045	3.041	2.974	2.570	3.033	3.010	2.963	2.122	1.936	1.474	1.397	1.183	0.926	0.752	0.659	0.722	0.592	0.504	0.484	0.454	0.465	0.410	0.437	0.418	0.410	0.399	0.319	0.261	0.225	0.187	0.204	0.179	0.163	0.179	0.166	0.202	0.202	0.174	0.145	0.134	0.608	3.365	6.450	4.859	1.851	0.382	0.125	0.090	0.097	0.103	0.089	0.078	0.076	0.073	0.082	0.073	0.077	0.066	0.082	0.074	0.071	0.065	0.078	0.071	0.054	0.066	0.060	0.062	0.067	0.064	0.064
235.0	59.51	202.1	1283	2363	525.7	44.89	4.689	3.769	3.806	3.396	3.597	3.334	2.672	2.091	2.254	1.635	1.581	1.279	0.864	0.893	0.619	0.647	0.551	0.520	0.568	0.490	0.500	0.457	0.409	0.408	0.441	0.406	0.304	0.272	0.295	0.206	0.184	0.205	0.155	0.211	0.161	0.141	0.239	0.260	0.228	0.151	0.244	0.960	2.433	4.778	7.851	8.897	4.307	0.861	0.120	0.141	0.126	0.152	0.095	0.075	0.105	0.090	0.063	0.078	0.076	0.081	0.075	0.074	0.066	0.084	0.075	0.077	0.082	0.050	0.067	0.074	0.052
240.0	100.4	101.3	398.3	2131	2857	417.2	23.61	4.916	4.392	3.833	3.576	3.628	2.885	2.659	2.289	2.119	1.613	1.293	0.790	0.824	0.622	0.549	0.689	0.608	0.536	0.485	0.421	0.407	0.474	0.364	0.419	0.423	0.280	0.268	0.251	0.236	0.220	0.170	0.191	0.203	0.176	0.133	0.206	0.204	0.223	0.368	0.302	0.345	0.669	1.425	4.122	10.93	13.94	10.30	3.646	0.479	0.135	0.113	0.078	0.089	0.108	0.089	0.085	0.097	0.100	0.081	0.089	0.080	0.075	0.064	0.082	0.088	0.084	0.069	0.067	0.059	0.067
245.0	77.86	153.5	140.4	729.9	3138	3020	308.5	11.44	4.992	5.174	4.150	3.822	3.269	3.347	2.239	2.129	1.531	1.507	0.921	0.919	0.648	0.740	0.636	0.643	0.623	0.524	0.588	0.489	0.475	0.418	0.423	0.426	0.308	0.227	0.297	0.225	0.191	0.267	0.215	0.158	0.208	0.220	0.194	0.181	0.212	0.374	0.534	0.440	0.358	0.462	1.102	3.604	9.521	17.19	17.83	9.978	2.785	0.260	0.111	0.094	0.115	0.109	0.079	0.086	0.104	0.080	0.079	0.068	0.086	0.075	0.104	0.071	0.092	0.097	0.073	0.064	0.087
250.0	33.88	111.1	202.9	245.6	996.6	3035	3801	1179	68.24	6.953	5.913	4.476	3.992	3.306	2.656	2.111	1.757	1.459	0.949	1.008	0.877	0.794	0.671	0.800	0.626	0.582	0.557	0.524	0.459	0.461	0.445	0.359	0.308	0.252	0.255	0.220	0.204	0.203	0.200	0.177	0.218	0.191	0.161	0.179	0.194	0.250	0.326	0.505	0.736	0.704	0.560	0.947	2.335	5.334	10.16	15.74	21.10	18.37	10.58	3.112	0.329	0.135	0.145	0.117	0.095	0.081	0.083	0.065	0.101	0.081	0.091	0.085	0.085	0.105	0.081	0.089	0.074
255.0	22.20	37.11	152.0	305.3	310.1	758.2	2903	6158	1663	70.62	8.266	6.462	5.187	4.606	2.649	2.429	2.035	1.788	1.208	1.074	1.042	0.813	0.947	0.723	0.618	0.664	0.595	0.518	0.504	0.529	0.556	0.456	0.399	0.282	0.280	0.269	0.231	0.209	0.189	0.213	0.220	0.156	0.174	0.187	0.156	0.220	0.202	0.242	0.380	0.620	1.053	1.173	0.956	1.381	2.402	3.766	7.005	16.43	33.32	28.60	17.04	3.355	0.274	0.166	0.122	0.106	0.088	0.102	0.101	0.126	0.094	0.070	0.127	0.105	0.067	0.095	0.074
260.0	21.24	19.91	58.02	279.2	320.4	224.3	848.4	4803	7021	1275	33.89	8.318	6.432	4.790	3.250	2.617	2.212	1.849	1.529	1.251	1.138	0.823	0.893	0.805	0.648	0.663	0.690	0.524	0.541	0.533	0.487	0.455	0.394	0.301	0.329	0.278	0.202	0.283	0.259	0.206	0.214	0.235	0.227	0.188	0.213	0.172	0.188	0.198	0.176	0.293	0.563	1.459	1.558	1.031	0.800	0.988	1.779	4.250	12.87	27.92	43.90	27.34	13.61	1.773	0.183	0.153	0.158	0.089	0.086	0.108	0.082	0.128	0.100	0.064	0.131	0.110	0.090
265.0	24.79	19.97	25.70	122.0	372.9	243.8	226.2	1550	6901	7151	217.7	17.28	7.991	6.263	4.195	3.018	2.449	2.073	1.558	1.418	1.042	1.006	0.718	0.860	0.753	0.730	0.722	0.739	0.548	0.631	0.557	0.464	0.473	0.309	0.313	0.311	0.234	0.294	0.254	0.166	0.175	0.240	0.216	0.172	0.181	0.214	0.184	0.214	0.176	0.179	0.245	0.662	1.414	1.904	1.525	0.725	0.663	1.168	3.104	7.730	20.66	39.91	52.48	24.29	8.064	0.631	0.199	0.118	0.189	0.131	0.139	0.178	0.107	0.085	0.123	0.088	0.095
270.0	32.56	31.84	25.80	44.76	175.4	374.6	288.4	400.3	2089	6347	8144	2520	56.25	9.119	6.219	4.205	3.378	2.473	1.927	1.589	1.302	1.342	0.955	0.905	0.794	0.765	0.740	0.723	0.650	0.678	0.597	0.501	0.484	0.366	0.327	0.388	0.339	0.276	0.295	0.236	0.251	0.211	0.224	0.225	0.211	0.248	0.204	0.210	0.216	0.169	0.177	0.316	0.514	0.924	1.518	1.807	1.815	1.016	1.036	1.943	4.961	10.98	22.70	34.80	34.89	41.61	16.46	7.241	0.796	0.218	0.165	0.181	0.122	0.139	0.136	0.117	0.121
275.0	65.12	60.29	67.90	47.47	67.27	161.2	483.1	339.9	520.8	1542	5024	9999.9	1222	61.52	9.103	5.782	4.496	2.994	2.338	1.991	1.713	1.386	1.116	1.048	0.853	0.850	0.823	0.658	0.741	0.584	0.657	0.568	0.486	0.403	0.389	0.418	0.437	0.311	0.295	0.297	0.308	0.268	0.294	0.302	0.318	0.241	0.352	0.333	0.400	0.265	0.289	0.230	0.269	0.417	0.580	0.779	1.923	3.126	2.190	1.060	1.434	2.822	5.342	8.270	10.07	25.36	53.91	69.69	26.47	8.676	0.607	0.240	0.171	0.180	0.183	0.171	0.157
280.0	104.0	128.5	115.6	79.43	52.97	72.29	281.8	572.8	298.5	424.5	1388	7312	9999.9	914.8	30.78	8.061	5.230	4.100	2.572	2.323	1.894	1.491	1.390	1.152	1.064	1.045	0.869	0.749	0.786	0.676	0.792	0.588	0.694	0.537	0.428	0.501	0.453	0.355	0.371	0.292	0.288	0.301	0.340	0.415	0.377	0.453	0.499	0.601	0.521	0.447	0.324	0.347	0.268	0.279	0.353	0.435	0.761	1.729	2.952	2.989	1.683	1.148	1.492	2.332	2.708	6.495	16.80	41.11	68.29	68.06	22.03	4.520	0.310	0.230	0.188	0.208	0.131
285.0	151.1	206.9	195.2	126.1	75.23	62.40	129.7	479.3	577.9	257.4	455.4	2148	9255	8218	123.4	15.21	7.458	5.478	3.072	2.734	2.125	1.605	1.566	1.203	1.018	1.161	0.934	0.920	0.751	0.692	0.700	0.749	0.729	0.662	0.611	0.597	0.509	0.416	0.358	0.349	0.313	0.341	0.365	0.488	0.505	0.578	0.621	0.709	0.773	0.625	0.459	0.474	0.358	0.345	0.304	0.289	0.486	0.791	1.453	2.781	3.784	2.620	1.236	1.262	1.334	2.242	4.501	10.58	24.14	53.95	75.80	32.24	16.21	1.923	0.220	0.244	0.159
290.0	233.3	311.8	311.9	200.6	122.3	95.73	121.9	262.2	594.7	687.9	443.1	767.7	2679	6942	7945	2257	38.44	9.180	4.950	3.299	2.545	2.110	1.757	1.584	1.265	1.176	1.086	1.083	0.863	0.837	0.824	0.777	0.723	0.620	0.722	0.716	0.579	0.532	0.519	0.425	0.454	0.418	0.471	0.521	0.565	0.827	0.888	1.148	1.024	0.925	0.739	0.623	0.621	0.547	0.473	0.433	0.624	0.696	0.914	1.314	2.290	3.265	4.001	3.206	2.272	1.955	2.393	3.795	6.689	14.01	25.92	36.30	54.22	47.20	39.35	11.72	2.482
295.0	301.7	463.9	481.6	330.4	223.7	193.9	228.7	316.6	480.6	897.4	1090	768.5	1054	1865	4262	9999.9	709.3	49.95	8.466	5.177	3.538	2.684	1.960	1.806	1.502	1.367	1.288	1.255	0.938	0.947	0.899	0.819	0.765	0.742	0.771	0.774	0.720	0.598	0.579	0.486	0.468	0.515	0.541	0.669	0.884	0.959	1.319	1.542	1.527	1.204	1.151	0.990	0.921	0.952	0.800	0.838	1.179	1.087	1.443	1.562	1.796	2.463	3.164	4.597	5.993	5.128	3.644	3.456	4.163	5.341	7.508	9.546	13.91	19.89	47.37	73.72	33.91
300.0	459.2	694.6	751.5	577.3	427.4	424.3	439.4	669.0	895.7	1274	1826	1492	1279	1194	1623	6323	9721	601.9	35.23	7.777	4.514	3.483	2.657	2.151	1.792	1.440	1.445	1.419	1.109	1.023	0.876	0.987	0.921	0.846	0.940	1.059	0.833	0.745	0.676	0.706	0.604	0.659	0.688	1.003	1.241	1.200	1.756	2.245	2.289	1.976	1.714	1.782	1.788	1.701	1.691	1.853	2.248	2.556	2.809	3.160	3.366	4.408	5.402	5.741	7.710	9.627	9.656	7.692	6.873	6.274	6.356	6.471	6.958	7.994	15.18	34.43	62.22
305.0	675.6	1105	1171	870.3	677.3	833.3	1064	1392	1798	2152	3022	3516	2794	2071	1812	2671	8419	5189	442.4	16.31	7.078	4.295	3.616	2.622	2.256	1.994	1.501	1.654	1.223	1.245	1.094	1.071	0.981	0.939	1.102	1.117	1.000	0.933	0.901	0.861	0.944	0.896	0.984	1.188	1.745	1.960	2.724	3.279	3.294	3.103	2.500	2.867	3.005	3.033	3.015	3.524	4.156	4.687	5.555	6.020	7.012	8.473	9.941	10.99	12.32	13.90	15.82	16.70	15.59	12.82	11.57	10.24	9.629	10.15	10.81	14.11	23.56
310.0	941.4	1534	1729	1389	1161	1215	1547	1936	2342	2948	3625	4233	4108	3060	2410	2019	3473	5749	6039	1686	27.78	6.512	4.655	3.502	2.668	2.297	1.969	1.655	1.452	1.388	1.302	1.143	1.029	1.116	1.186	1.130	1.168	1.088	0.994	0.980	1.012	1.098	1.263	1.494	2.097	2.814	3.584	4.524	4.967	4.507	4.042	4.563	4.501	4.191	4.603	5.171	6.141	6.867	8.305	8.736	9.377	10.91	12.42	13.95	14.84	16.64	17.85	19.38	20.48	19.02	17.69	14.92	13.53	13.30	11.89	11.33	12.42
315.0	1147	1974	2302	1891	1551	1552	1885	2244	2595	3254	3940	4498	4514	3969	2995	2127	2247	2111	3338	7924	2349	31.32	7.008	4.508	3.553	2.809	2.150	2.087	1.777	1.577	1.403	1.258	1.136	1.187	1.304	1.235	1.110	1.115	1.090	0.951	1.081	1.189	1.384	1.703	2.509	3.567	4.408	6.150	6.430	5.850	5.456	6.404	6.005	5.681	5.804	6.763	7.344	8.332	9.544	9.998	10.76	11.96	13.50	15.10	16.61	17.68	18.54	20.59	21.15	20.48	21.39	20.13	17.84	16.34	13.92	12.13	10.87
320.0	1292	2288	2722	2214	1759	1707	2025	2374	2675	3293	4036	4574	4561	4177	3446	2285	2029	1331	1023	4640	7606	455.5	18.47	6.737	4.589	3.313	2.636	2.239	2.114	1.665	1.513	1.361	1.359	1.224	1.247	1.252	1.319	1.120	1.078	1.116	1.160	1.386	1.453	1.866	2.767	3.870	5.014	7.069	7.696	7.031	6.444	6.981	6.422	6.118	6.190	6.814	7.731	8.776	9.918	10.69	11.08	11.77	13.59	15.26	16.47	17.83	18.84	20.35	21.28	21.78	20.66	20.54	20.13	19.20	14.86	13.08	11.44
325.0	1425	2649	3267	2675	1958	1745	2013	2357	2546	3122	3816	4371	4397	3944	3505	2435	1923	1142	484.2	1308	5726	3911	353.6	11.53	5.534	3.896	3.127	2.601	2.192	1.645	1.721	1.475	1.438	1.143	1.319	1.087	1.208	1.130	1.223	1.186	1.337	1.405	1.543	2.102	2.993	4.365	5.683	7.950	9.075	8.078	7.806	7.980	7.413	6.778	6.469	6.688	7.937	8.983	9.681	10.23	10.94	11.48	12.88	14.41	15.87	17.43	18.52	19.32	20.58	19.75	19.89	19.62	19.30	19.89	16.66	14.13	11.66
330.0	1635	3146	4203	3826	2797	2046	1964	2222	2349	2842	3481	3999	4100	3722	3216	2528	1979	1130	473.6	493.7	1627	3961	4813	1403	24.33	5.681	4.023	3.053	2.184	2.057	1.844	1.599	1.401	1.379	1.289	1.203	1.187	1.087	1.231	1.177	1.260	1.452	1.846	2.318	3.229	4.847	6.704	9.403	11.34	10.99	10.83	11.93	10.83	9.464	8.116	7.051	7.885	8.534	9.257	9.967	9.913	10.31	11.63	12.82	14.22	15.98	16.95	18.10	18.99	19.07	18.96	18.51	17.66	17.56	15.86	14.78	13.49
335.0	1807	3473	5006	5074	4142	2663	2051	2152	2209	2631	3186	3726	3851	3587	3091	2440	2140	1334	624.9	445.2	609.9	1093	2864	6719	1953	27.53	5.386	3.885	2.946	2.300	2.109	2.043	1.567	1.482	1.210	1.249	1.223	1.262	1.118	1.224	1.259	1.622	1.802	2.446	3.406	5.301	7.142	10.75	13.31	13.56	14.03	17.02	15.91	13.87	10.60	8.354	8.221	8.774	8.907	9.557	9.450	9.873	10.96	12.13	13.39	14.39	15.81	16.35	17.82	17.96	18.45	17.67	17.09	16.58	15.01	13.86	13.29
340.0	1750	3496	5104	5413	4361	2736	1962	2001	2036	2371	2886	3359	3510	3296	2852	2236	1923	1431	707.9	448.8	404.8	450.0	869.2	4207	6287	384.0	14.55	4.916	3.393	2.684	2.523	2.069	1.547	1.455	1.220	1.337	1.110	1.128	1.072	1.146	1.224	1.357	1.846	2.212	3.183	5.148	7.113	10.95	13.55	14.44	14.60	17.89	16.62	14.65	10.96	8.490	8.002	8.375	8.471	9.078	8.753	9.010	10.16	11.07	12.16	12.83	13.94	14.84	16.22	15.87	16.25	16.35	15.95	15.35	13.86	12.92	11.80
345.0	1635	3287	4875	5163	4125	2568	1796	1808	1809	2100	2530	2930	3082	2899	2517	1991	1639	1302	810.1	460.7	359.9	314.2	359.7	1221	5033	3305	299.0	7.649	4.359	3.163	2.742	2.252	1.569	1.351	1.285	1.144	1.102	1.050	0.864	1.075	1.096	1.247	1.655	2.158	2.950	4.862	6.351	10.18	12.80	13.25	13.90	16.28	16.00	14.22	10.30	7.645	7.483	7.398	7.380	8.021	7.692	8.017	9.049	9.945	10.75	11.61	12.16	13.25	14.19	13.97	14.42	14.42	14.47	14.02	12.33	11.55	10.37
350.0	1479	2933	4449	4912	4136	2543	1677	1622	1632	1851	2177	2496	2632	2512	2208	1776	1457	1117	842.5	605.9	401.6	317.2	280.4	405.2	1404	3415	3965	1150	19.61	4.455	3.232	2.350	1.758	1.435	1.379	1.121	1.098	1.038	0.956	1.025	1.065	1.324	1.517	1.941	2.792	4.307	5.965	9.071	10.98	12.01	13.08	16.07	15.92	13.80	10.76	7.280	6.856	6.764	6.852	6.975	6.975	7.202	7.663	8.654	9.289	9.955	10.57	11.19	12.05	11.87	12.47	12.59	12.34	12.14	11.13	10.33	9.776
355.0	1196	2495	3919	4477	3869	2412	1604	1490	1482	1651	1891	2122	2219	2154	1912	1580	1308	1003	741.9	676.5	519.0	342.7	283.8	244.5	387.5	823.8	2436	5315	390.3	21.94	4.943	3.577	2.173	1.611	1.416	1.038	1.190	1.063	0.993	1.124	1.085	1.229	1.493	1.806	2.491	3.855	5.069	7.752	9.716	11.12	12.03	15.06	14.97	13.09	10.12	7.273	6.428	6.065	6.243	6.579	6.130	6.083	6.755	7.406	8.212	8.481	9.089	9.256	10.05	10.01	10.84	11.00	10.52	10.50	9.779	8.874	8.550
360.0	1056	2139	3445	3916	3427	2215	1489	1369	1375	1489	1683	1846	1928	1865	1678	1395	1170	909.1	678.4	598.9	583.2	394.0	289.0	212.2	176.9	239.4	651.4	3571	4835	342.8	12.58	4.908	3.051	1.846	1.564	1.297	1.159	1.130	0.938	0.988	0.947	0.955	1.312	1.616	2.272	3.310	4.257	6.667	8.608	9.939	10.42	13.03	12.74	12.07	9.305	6.623	5.965	5.647	5.923	5.977	5.666	6.148	6.546	6.765	6.913	7.303	8.104	8.161	8.741	8.752	9.381	9.464	8.606	9.390	8.615	8.267	7.734
365.0	917.4	1877	2971	3445	3092	2043	1387	1285	1290	1399	1526	1658	1701	1639	1491	1252	1063	842.4	649.1	546.1	552.7	475.5	314.7	217.6	148.6	126.4	198.6	1022	4392	3045	49.27	11.86	4.957	2.675	1.737	1.314	1.278	1.013	0.964	0.880	0.939	0.976	1.208	1.402	2.123	2.936	3.899	5.952	7.335	8.320	9.081	11.61	11.32	10.78	8.647	6.090	5.707	5.701	5.402	5.520	5.182	5.484	6.230	6.262	6.283	6.484	7.307	7.067	7.744	7.971	8.437	8.235	8.026	8.397	7.915	7.085	7.260
370.0	832.1	1606	2557	2997	2789	1923	1331	1222	1235	1315	1436	1521	1606	1501	1325	1130	975.2	798.7	643.6	541.2	493.5	498.1	434.0	291.0	197.9	158.8	175.7	349.0	1301	3288	3648	1018	27.65	9.309	3.069	1.681	1.481	1.139	1.059	0.929	0.993	0.868	1.236	1.269	1.794	2.559	3.429	4.895	6.297	7.048	8.090	9.966	10.35	9.876	8.312	6.059	5.373	5.177	4.982	5.111	5.130	5.258	5.670	5.787	6.234	6.352	6.537	6.737	7.256	7.607	7.981	7.442	7.075	7.248	7.070	6.394	6.335
375.0	741.3	1404	2249	2676	2665	1963	1335	1206	1227	1331	1528	1564	1815	1566	1205	1023	898.3	762.6	643.3	568.1	511.5	484.9	531.4	475.4	346.9	306.0	389.8	432.8	549.0	1015	2750	5001	1360	35.99	7.182	3.075	2.086	1.221	1.207	1.024	0.998	0.949	1.160	1.212	1.742	2.374	2.956	4.457	5.379	6.346	7.148	9.021	9.565	9.470	8.417	6.220	5.724	5.293	5.052	5.282	5.249	5.703	5.789	6.015	6.448	7.005	6.887	6.913	7.604	8.753	9.188	7.490	6.519	6.676	6.264	6.179	6.165
380.0	686.8	1288	2031	2521	2597	1982	1340	1202	1245	1361	1625	1639	2016	1638	1136	960.3	851.0	741.7	644.1	586.3	545.3	511.2	551.1	628.2	482.2	441.5	590.2	627.3	493.7	592.0	1254	3886	4339	294.9	14.31	4.257	2.683	1.495	1.359	1.024	1.076	1.067	1.139	1.338	1.705	2.147	2.804	4.210	5.064	5.931	6.520	8.347	8.838	9.229	8.455	6.538	5.808	5.196	5.440	5.194	5.138	5.816	5.625	6.081	6.890	7.689	7.364	6.686	7.936	9.890	10.49	7.880	6.497	6.280	5.820	5.483	5.511
385.0	652.7	1182	1857	2357	2478	1981	1332	1188	1244	1363	1649	1633	2078	1654	1081	906.5	813.2	724.6	638.7	590.1	566.4	534.7	557.8	652.5	613.3	535.8	690.0	735.0	544.6	559.8	910.9	1684	3940	2508	40.94	6.410	3.303	2.056	1.454	1.197	1.224	1.131	1.113	1.268	1.566	2.057	2.745	3.704	4.349	5.415	6.099	7.894	8.419	8.844	8.590	6.482	5.717	5.162	4.734	4.848	5.312	5.618	5.480	5.744	7.100	7.641	7.355	6.964	8.047	10.35	11.09	7.666	6.208	5.846	5.346	5.392	5.041
390.0	569.0	1028	1591	2019	2142	1764	1248	1126	1146	1247	1468	1453	1779	1454	992.7	843.0	767.8	699.3	629.4	587.0	563.6	535.2	542.7	580.4	582.4	563.9	632.7	641.3	476.3	462.7	674.8	830.5	1253	2578	2676	726.1	14.10	2.990	1.860	1.430	1.309	1.176	1.153	1.328	1.479	1.937	2.358	3.172	3.854	4.609	5.403	6.918	7.299	7.849	7.227	5.856	5.301	4.955	4.722	4.779	4.935	5.184	5.289	5.462	6.010	6.518	6.221	5.783	6.949	8.960	9.249	6.854	5.889	5.363	4.918	4.851	4.658
395.0	501.3	938.7	1432	1773	1902	1646	1208	1118	1109	1194	1381	1362	1660	1369	941.3	808.9	741.1	684.6	635.7	609.6	592.2	574.7	577.7	601.7	568.6	593.3	699.4	662.2	478.8	463.8	633.5	643.3	460.5	664.3	1804	3340	276.0	15.58	2.786	1.723	1.512	1.254	1.277	1.357	1.424	1.850	2.240	2.947	3.744	4.169	4.758	6.226	6.707	7.197	6.635	5.516	4.876	4.693	4.678	4.547	4.588	4.779	5.020	5.025	5.709	5.963	5.858	5.747	6.706	8.161	8.692	6.288	5.496	4.801	4.592	4.752	4.605
400.0	482.2	870.1	1345	1667	1875	1605	1197	1106	1123	1202	1411	1385	1705	1381	928.7	799.9	735.8	691.4	648.0	631.8	625.8	620.1	634.9	663.5	622.8	624.1	795.7	773.0	555.1	526.1	703.0	675.8	318.6	231.2	505.0	2371	2261	233.5	6.964	2.313	1.689	1.405	1.303	1.248	1.366	1.661	2.209	2.820	3.281	3.935	4.620	5.618	6.445	7.129	6.631	5.380	5.091	4.709	4.857	4.605	4.576	5.087	4.610	4.974	5.590	6.347	5.900	5.739	6.344	8.340	8.907	6.229	5.095	5.117	4.536	4.604	4.657
405.0	469.1	812.5	1261	1593	1777	1547	1186	1096	1127	1197	1408	1403	1701	1371	913.9	794.0	726.6	689.5	653.3	644.8	645.7	645.0	664.5	700.3	660.7	645.8	808.4	852.6	611.8	563.1	736.6	698.2	302.2	148.4	161.1	700.3	2485	2055	35.25	3.901	1.961	1.574	1.364	1.293	1.294	1.764	2.107	2.619	3.220	3.728	4.342	5.547	6.105	6.576	6.358	5.372	4.833	4.661	4.348	4.483	4.518	4.808	4.773	4.783	5.720	6.181	5.520	5.494	6.165	8.453	8.812	5.752	4.985	4.497	4.330	4.283	4.494
410.0	442.5	751.7	1131	1425	1551	1396	1139	1060	1074	1130	1284	1266	1474	1220	871.7	759.2	696.3	665.0	636.9	629.7	628.1	626.3	643.5	664.5	628.1	605.0	693.4	731.5	592.0	516.3	613.0	567.6	263.5	130.8	93.52	195.2	720.3	1875	2046	581.0	11.45	2.036	1.487	1.305	1.429	1.742	1.908	2.516	3.092	3.380	3.761	4.741	5.198	5.654	5.562	4.992	4.407	4.478	4.310	4.382	4.321	4.402	4.745	4.619	5.117	5.557	5.155	5.041	5.398	6.987	6.919	5.298	4.680	4.358	4.155	4.089	4.398
415.0	407.3	662.6	997.3	1247	1350	1254	1077	1018	1014	1043	1146	1123	1241	1057	817.6	712.6	657.2	623.7	604.3	599.2	600.7	592.7	608.2	615.4	582.8	549.8	586.6	592.6	516.5	486.9	500.2	444.2	225.7	125.6	83.59	86.63	188.4	449.7	1283	2413	249.9	13.04	1.889	1.351	1.508	1.673	1.729	2.307	2.573	2.777	3.090	4.336	4.828	4.672	4.890	4.515	4.444	4.202	4.325	3.849	4.145	4.084	4.097	4.459	4.510	4.563	4.630	4.345	4.980	5.865	5.429	4.986	4.219	4.111	4.123	3.806	3.965
420.0	365.1	650.6	936.4	1138	1250	1184	1036	979.0	984.0	994.7	1074	1052	1136	977.1	768.2	684.7	630.5	601.1	586.3	577.5	580.3	576.5	586.5	591.0	558.1	529.2	556.6	547.0	469.2	469.3	481.6	406.4	216.4	127.1	85.94	64.95	72.03	118.1	338.3	1629	2001	214.0	5.530	1.676	1.798	1.640	1.656	2.166	2.638	2.700	3.003	4.056	4.174	4.489	4.672	4.031	4.387	4.197	4.036	3.952	4.046	4.194	3.955	4.124	4.602	4.271	4.448	4.174	4.612	5.255	5.283	4.608	3.894	3.682	3.700	3.631	3.796
425.0	370.3	600.3	868.4	1081	1177	1145	1025	965.3	970.3	967.3	1045	1004	1076	935.3	737.6	663.8	608.2	584.0	567.5	561.2	561.3	560.0	569.1	578.5	552.6	523.0	545.7	531.8	447.1	442.4	495.7	404.8	218.9	132.6	90.11	66.01	49.23	46.66	89.05	460.6	1809	1766	33.39	3.084	1.771	1.729	1.691	2.136	2.557	2.515	2.822	3.802	4.045	4.252	4.423	3.981	4.159	4.111	3.897	3.853	3.938	3.902	3.958	3.708	4.075	4.162	4.052	4.043	4.282	4.828	4.938	4.189	3.485	3.523	3.593	3.507	3.510
430.0	363.6	569.7	802.5	1012	1106	1104	1009	976.4	947.7	959.8	989.4	953.2	1000	872.0	710.0	634.4	585.7	559.9	543.5	541.6	541.7	539.3	548.1	552.7	527.1	503.2	516.3	501.6	429.6	403.1	444.9	402.8	232.0	141.5	100.6	74.04	51.65	35.61	36.17	113.7	496.7	1372	1600	513.4	11.55	2.167	1.844	2.186	2.365	2.438	2.840	3.425	3.863	3.951	4.177	3.825	4.200	4.160	3.901	3.975	3.813	3.902	3.733	3.737	4.061	4.000	3.866	3.663	3.779	4.462	4.492	3.792	3.360	3.378	3.372	3.471	3.398
435.0	488.7	525.8	750.0	929.3	1026	1050	1003	975.6	938.2	927.2	932.1	894.8	910.8	797.8	668.6	604.1	554.7	538.4	517.0	514.3	511.1	509.2	514.3	510.5	494.1	470.9	470.7	451.5	400.2	371.4	374.3	350.1	249.4	157.3	110.5	82.38	58.37	38.42	28.92	38.77	120.5	320.2	907.5	2009	239.3	14.33	2.327	2.464	2.401	2.465	2.644	3.394	3.677	3.803	3.795	3.808	3.949	4.026	3.918	3.755	4.126	3.905	3.635	3.705	3.884	3.612	3.655	3.623	3.675	3.638	3.732	3.458	3.261	3.387	3.182	3.322	3.469
440.0	615.8	555.5	705.8	893.0	980.5	1017	1009	980.7	924.6	886.5	888.1	857.6	834.4	748.8	637.2	575.7	531.5	510.7	497.8	484.9	479.7	476.8	479.8	478.5	463.2	442.0	438.9	416.6	374.2	347.2	339.3	305.7	244.8	177.2	118.8	86.92	61.83	42.03	29.37	23.88	38.31	79.55	232.4	1277	1868	212.0	8.470	2.532	2.347	2.479	2.475	3.241	3.463	3.675	3.787	3.691	3.844	4.039	4.062	3.938	4.172	3.727	3.648	3.498	3.527	3.568	3.432	3.395	3.409	3.504	3.718	3.153	2.952	3.404	3.113	3.068	3.188
445.0	690.6	649.3	679.6	829.4	939.9	980.0	996.8	965.1	917.3	849.3	842.6	804.9	777.4	696.5	601.6	547.8	509.0	487.5	473.6	461.6	452.3	445.4	446.5	447.9	432.3	415.6	410.2	391.2	353.4	328.3	317.7	279.8	223.8	188.6	130.1	91.86	63.65	45.38	31.15	23.44	21.30	27.15	59.36	348.5	1504	1680	156.6	4.824	2.548	2.306	2.417	3.005	3.384	3.574	3.674	3.606	4.002	3.958	3.971	3.875	3.842	3.726	3.605	3.435	3.490	3.394	3.141	3.257	3.067	3.362	3.268	3.224	3.080	3.147	2.933	2.846	2.783
450.0	531.1	1020	733.3	773.4	881.5	940.2	967.7	936.7	879.0	802.4	783.8	738.5	713.6	635.2	558.1	503.6	468.8	448.4	435.5	426.3	411.5	404.1	403.7	402.4	392.6	380.1	371.8	359.1	328.0	307.8	293.5	257.9	201.1	171.9	146.1	101.2	67.19	48.36	35.54	25.91	19.90	17.20	21.77	84.62	398.8	1156	1494	519.3	11.66	2.783	2.580	3.167	3.190	3.245	3.540	3.562	3.840	3.981	3.856	3.840	3.650	3.679	3.449	3.274	3.349	3.106	2.922	2.787	2.760	3.191	3.059	3.006	2.947	2.868	2.717	2.682	2.712
455.0	345.3	1101	1141	709.6	832.8	889.1	931.2	898.9	819.5	753.4	710.6	670.8	636.0	577.3	504.8	458.5	429.0	408.6	395.2	383.8	365.4	357.2	360.5	357.2	348.6	338.7	333.9	322.4	301.0	282.1	268.7	236.2	184.0	149.6	137.2	116.5	76.99	51.41	38.02	28.90	22.15	16.88	14.38	26.25	94.97	266.5	679.2	1638	677.1	14.47	2.749	3.113	3.186	3.181	3.441	3.639	3.853	3.864	3.639	3.666	3.450	3.383	3.099	3.212	3.080	2.867	2.743	2.572	2.740	2.824	2.775	2.506	2.355	2.606	2.428	2.769	2.491
460.0	254.4	802.2	1678	766.5	764.5	823.3	865.3	859.4	771.3	706.4	655.8	622.3	585.7	527.5	469.5	427.1	395.3	373.7	365.2	348.3	335.7	326.9	330.4	324.9	318.0	313.1	303.4	296.4	278.7	260.9	248.6	217.7	172.9	142.1	121.5	115.8	87.74	55.56	39.27	30.62	22.94	17.95	14.31	14.19	27.56	65.00	165.8	871.1	1605	173.6	10.06	3.084	3.063	3.206	3.405	3.357	3.484	3.440	3.735	3.438	3.365	3.234	3.039	2.980	2.876	2.868	2.581	2.527	2.335	2.383	2.592	2.489	2.349	2.308	2.308	2.390	2.308
465.0	209.1	524.0	1881	930.4	713.0	775.3	816.9	813.5	725.1	665.2	623.4	578.7	537.8	481.9	435.5	391.6	367.9	345.9	337.1	322.4	307.1	298.4	297.8	296.4	289.8	284.0	275.6	270.1	256.2	241.7	228.2	201.4	162.8	134.5	112.8	101.7	92.46	62.58	40.94	31.36	23.90	18.47	15.39	12.16	13.71	20.64	42.44	222.8	1065	1309	149.5	7.233	3.072	3.070	3.189	3.188	3.759	3.529	3.584	3.419	3.376	3.200	2.891	2.693	2.539	2.411	2.640	2.306	2.460	2.189	2.253	2.345	2.283	2.318	2.167	2.173	2.089
470.0	199.7	356.6	1216	1967	843.7	702.1	754.6	723.6	657.6	584.9	555.6	516.6	476.8	431.6	382.8	346.7	327.5	308.3	295.7	283.3	269.5	259.6	258.8	257.7	250.5	246.6	241.7	235.7	226.1	214.1	201.8	180.1	149.0	123.7	104.1	87.86	80.22	68.96	47.49	32.82	25.07	19.88	15.99	12.82	11.17	11.76	15.30	54.56	270.8	764.9	1022	454.9	13.68	3.066	3.061	2.826	3.112	3.258	3.196	3.120	3.059	2.848	2.556	2.508	2.252	2.342	2.167	2.148	2.191	2.138	2.201	1.981	2.018	2.024	2.000	1.995	1.943
475.0	203.4	294.5	604.4	1965	1627	652.3	654.8	648.3	586.3	520.6	489.0	453.6	414.3	378.6	337.7	301.4	285.1	268.6	254.4	245.1	230.0	222.5	219.2	219.0	216.3	210.7	206.4	204.8	198.0	191.4	177.8	159.3	133.7	112.7	95.52	78.75	67.56	62.56	54.32	37.28	26.06	20.84	16.92	13.63	11.31	9.996	9.476	17.57	64.78	175.3	371.8	1024	600.7	19.03	3.144	2.701	2.887	2.944	2.890	2.840	2.815	2.656	2.403	2.191	1.919	2.185	2.050	2.098	1.993	1.899	1.950	1.739	1.868	1.775	1.662	1.833	1.682
480.0	187.4	267.3	399.9	1278	2383	769.5	601.4	593.2	531.4	477.9	453.2	412.7	374.7	338.0	306.4	277.8	257.0	242.6	231.1	218.8	203.7	198.8	195.9	193.9	192.7	189.0	187.4	185.7	180.8	173.4	162.2	144.9	124.0	104.5	88.71	73.94	62.10	53.65	53.59	43.51	27.98	20.87	17.81	14.22	12.00	10.33	8.846	9.808	19.17	43.21	88.95	440.1	1131	208.6	14.02	2.800	2.951	2.845	2.686	2.596	2.439	2.303	2.194	2.117	1.871	2.032	1.756	1.861	1.778	1.821	1.637	1.649	1.830	1.697	1.526	1.502	1.600
485.0	173.3	262.8	337.8	696.3	2478	1310	563.7	544.7	495.4	444.6	410.0	385.2	348.6	314.5	281.8	252.6	236.0	222.5	213.3	199.2	187.6	178.6	179.8	175.9	175.7	172.1	172.3	168.2	165.8	159.3	151.3	133.5	115.8	98.08	83.57	69.96	58.88	49.83	47.55	46.16	32.93	22.43	18.40	14.54	12.60	10.82	9.420	8.122	9.357	13.92	23.51	108.4	617.4	1043	183.6	8.855	2.816	2.768	2.683	2.407	2.178	2.131	2.085	1.999	1.738	1.889	1.663	1.735	1.573	1.618	1.478	1.417	1.643	1.461	1.669	1.378	1.431
490.0	139.0	258.4	313.8	431.1	1470	2324	738.6	489.4	450.8	400.7	375.3	347.9	314.5	283.4	250.9	225.1	211.6	200.6	189.9	178.2	165.8	158.8	156.6	156.2	155.3	152.6	152.9	150.1	148.3	142.7	135.3	121.5	105.0	91.12	77.44	65.24	54.76	46.21	41.00	40.20	38.18	27.32	19.48	15.79	13.47	11.75	10.01	8.644	7.680	7.833	9.397	27.87	151.2	496.2	864.2	507.9	16.29	3.042	2.580	2.358	2.219	1.995	1.933	1.892	1.581	1.759	1.583	1.638	1.468	1.510	1.437	1.383	1.382	1.323	1.396	1.260	1.305
495.0	115.7	229.0	313.4	329.5	651.3	2211	1611	454.3	398.5	360.8	333.3	314.6	276.0	247.9	221.8	199.3	183.6	176.5	166.8	156.4	143.2	138.0	135.3	136.9	136.5	135.3	134.5	132.6	129.6	125.0	119.6	109.4	95.16	82.46	70.61	60.36	51.57	42.11	36.45	33.74	34.34	32.43	23.21	16.70	14.38	12.10	10.42	9.305	7.828	6.706	6.553	10.24	36.98	114.2	297.1	912.2	697.3	23.26	2.791	2.174	2.042	1.968	1.809	1.802	1.564	1.504	1.514	1.528	1.272	1.420	1.375	1.273	1.252	1.092	1.218	1.196	1.250
500.0	99.36	195.8	306.1	294.1	401.6	1368	2483	575.5	355.5	331.1	300.3	286.9	252.4	224.3	195.5	178.4	162.3	156.1	149.6	140.4	130.6	123.4	122.8	121.6	122.7	118.9	120.1	117.8	117.8	113.6	108.7	99.27	87.85	75.12	65.41	56.50	48.47	40.86	35.48	30.65	29.15	31.86	27.04	17.92	14.24	12.20	10.65	9.096	8.400	6.717	5.795	6.194	11.48	28.47	70.35	359.6	1055	232.0	17.14	2.181	1.982	1.940	1.843	1.604	1.358	1.450	1.338	1.320	1.223	1.375	1.092	1.274	1.065	0.998	1.116	1.053	1.111
505.0	92.90	154.4	289.7	295.3	327.0	690.6	2602	1089	328.3	299.0	274.2	261.6	233.6	204.0	176.6	162.0	147.6	141.5	131.9	124.1	114.1	111.5	108.8	109.4	109.3	107.7	108.6	106.6	104.8	103.4	99.08	88.77	79.96	68.85	60.92	52.93	44.64	38.13	33.38	28.50	25.28	27.94	28.01	20.54	14.85	12.50	10.67	9.338	8.250	7.079	6.155	5.332	6.050	9.605	18.64	86.81	498.0	957.3	206.9	10.16	1.944	1.842	1.599	1.502	1.294	1.296	1.374	1.211	1.138	1.118	1.051	1.120	0.927	0.984	0.993	0.957	1.076
510.0	84.38	126.4	229.4	296.5	276.6	380.1	1512	2228	485.8	262.8	241.8	225.5	203.3	179.3	155.2	141.8	128.0	121.0	113.3	107.8	99.42	95.50	94.24	94.81	93.14	92.46	92.00	92.35	91.82	89.02	86.02	77.73	69.72	60.78	52.71	46.98	41.07	35.19	30.48	25.86	23.67	22.61	24.42	23.87	17.88	13.00	10.68	9.492	8.078	7.240	6.371	5.340	5.051	5.115	6.925	21.83	118.9	407.9	698.4	433.7	16.37	2.145	1.412	1.377	1.267	1.169	1.103	1.127	1.065	0.995	1.013	0.920	0.881	0.957	0.863	0.883	0.946
515.0	75.21	108.5	166.6	279.1	257.4	268.7	579.4	2270	1390	239.4	209.9	199.8	172.7	152.1	133.6	120.1	108.2	100.4	97.10	89.60	84.72	80.07	80.43	78.82	78.33	78.85	77.75	77.97	77.03	76.43	72.86	67.70	59.40	52.81	46.26	41.27	36.88	31.33	27.76	24.23	20.76	19.32	19.11	21.29	20.34	15.10	10.69	9.445	8.337	6.754	6.101	6.060	4.931	4.380	4.224	7.393	28.91	93.03	208.1	660.6	552.5	23.62	1.668	1.259	1.202	1.100	1.074	0.959	0.929	0.969	1.019	0.861	0.803	0.761	0.671	0.876	0.812
520.0	60.45	103.6	137.7	234.3	263.8	221.4	307.9	1392	2388	293.6	190.1	173.5	152.4	138.2	121.1	105.3	96.92	89.14	84.67	80.05	75.28	69.61	70.73	68.82	69.25	68.39	68.81	68.62	69.24	67.98	65.62	60.48	52.80	47.38	41.92	37.70	33.29	28.40	25.43	22.41	19.67	17.35	16.34	17.24	20.39	17.29	11.59	9.060	8.056	6.870	6.279	5.634	5.130	4.232	3.802	4.189	8.828	22.94	48.96	240.5	740.0	233.7	16.96	1.450	1.230	0.932	0.956	0.908	0.876	0.852	0.895	0.802	0.857	0.809	0.645	0.715	0.759
525.0	57.61	83.78	121.6	191.2	262.5	201.6	218.5	617.7	2697	865.1	177.3	156.6	139.6	121.5	107.8	95.90	87.19	81.60	74.87	71.68	66.88	62.96	60.46	62.70	61.42	60.94	61.71	61.94	62.13	60.20	57.68	52.19	48.25	42.69	37.70	33.77	29.79	26.01	23.25	20.33	18.44	16.23	15.19	14.17	17.31	17.55	12.65	8.843	7.640	6.771	6.220	5.160	5.112	4.256	3.617	3.273	4.405	7.064	12.73	57.03	319.0	676.2	204.1	9.019	1.172	0.963	0.915	0.848	0.845	0.696	0.745	0.638	0.748	0.583	0.623	0.633	0.708
530.0	49.34	77.95	99.27	144.6	226.1	215.0	182.1	275.3	1538	2143	325.7	138.2	120.6	105.2	92.24	81.91	75.49	69.24	65.65	62.50	56.91	53.75	52.45	53.19	52.80	52.70	52.58	52.62	53.38	51.79	50.65	45.12	41.73	37.27	33.11	29.71	26.28	23.40	21.04	18.71	16.49	15.15	13.84	12.75	13.17	15.03	14.60	10.22	7.321	6.309	5.758	5.026	4.646	4.193	3.676	3.082	3.029	3.537	4.500	14.34	75.17	269.4	491.4	326.8	15.59	1.271	0.911	0.765	0.744	0.740	0.629	0.627	0.601	0.540	0.573	0.586	0.600
535.0	38.57	63.20	85.70	107.9	162.1	223.3	156.9	166.4	499.9	2289	1205	123.8	103.8	90.75	80.11	70.03	64.24	59.34	53.57	50.99	47.58	44.93	43.83	44.17	43.40	44.27	44.83	44.27	45.06	44.14	42.63	38.96	35.17	32.00	27.74	25.81	23.24	20.16	18.51	16.69	15.09	13.58	12.42	11.34	10.58	11.33	13.18	12.14	8.040	6.161	5.477	4.613	4.200	3.825	3.783	3.278	2.783	2.882	2.564	4.623	18.15	61.27	140.5	446.2	242.3	21.31	1.140	0.757	0.691	0.616	0.494	0.560	0.443	0.507	0.496	0.520	0.558
540.0	34.33	59.11	77.06	92.09	121.7	203.5	156.4	134.5	210.1	1315	2280	184.4	90.53	80.03	68.47	60.58	56.14	51.97	46.48	44.39	40.44	39.96	38.62	37.98	38.64	38.52	38.33	37.92	38.48	38.10	36.33	33.74	31.21	27.52	24.84	22.25	20.16	18.19	16.64	14.95	13.48	12.05	10.64	10.37	9.332	8.944	10.20	11.47	9.161	6.127	4.938	4.492	3.905	3.362	3.469	3.387	2.815	2.300	2.137	2.582	5.247	14.74	32.88	156.7	472.0	221.4	14.39	0.795	0.600	0.628	0.513	0.440	0.482	0.513	0.407	0.421	0.449
545.0	33.80	48.85	71.94	79.45	94.20	171.8	171.5	114.8	135.2	509.3	2589	617.4	81.49	71.84	58.43	51.65	48.13	44.22	41.97	38.77	35.89	34.44	34.18	33.10	33.64	33.71	33.20	32.70	33.23	33.55	33.00	29.89	27.65	23.32	22.13	19.43	17.57	15.99	14.56	13.23	12.03	10.91	9.636	9.270	8.508	8.212	8.082	9.823	9.584	6.639	4.678	4.247	3.678	3.209	3.074	3.092	2.829	2.334	1.954	1.995	2.317	4.363	8.443	36.82	201.2	471.9	176.7	6.090	0.835	0.631	0.439	0.464	0.457	0.545	0.410	0.444	0.420
550.0	29.28	44.41	58.47	68.12	76.99	109.7	175.5	113.0	100.8	186.1	1372	1795	130.7	60.60	50.31	43.90	40.00	36.83	34.09	32.03	30.22	27.70	27.91	27.09	27.85	27.77	27.22	27.28	27.93	27.07	26.65	24.58	22.24	19.77	18.36	16.06	14.70	13.44	12.56	11.15	10.19	9.442	8.434	8.108	7.347	6.940	6.507	7.085	8.158	7.498	5.098	3.622	3.172	2.859	2.599	2.475	2.521	2.408	1.969	1.695	1.649	1.967	2.874	9.131	47.06	181.7	332.9	182.8	14.62	0.876	0.431	0.440	0.399	0.368	0.340	0.382	0.308
555.0	26.72	36.91	52.33	59.51	62.85	74.63	137.7	132.8	79.79	97.69	397.5	2035	802.1	53.96	42.38	35.61	31.84	29.95	26.93	26.05	24.63	22.40	22.22	21.87	22.83	22.23	21.99	22.21	22.68	22.07	21.22	20.38	18.57	15.57	14.97	13.26	12.04	11.31	10.46	8.972	8.559	7.892	7.183	6.703	6.176	5.911	5.476	5.341	5.730	6.457	5.714	3.843	2.928	2.511	2.150	2.098	1.954	2.092	1.960	1.510	1.270	1.335	1.486	2.709	11.23	41.26	93.02	279.1	228.3	19.45	0.693	0.468	0.385	0.350	0.353	0.319	0.356
560.0	32.03	46.12	50.50	53.23	57.74	58.45	94.16	147.6	78.39	71.79	137.1	1133	1705	95.48	35.80	30.23	27.30	25.23	23.28	21.38	20.25	18.98	18.44	18.33	19.19	18.58	18.49	18.44	18.58	17.73	18.51	16.53	14.91	13.63	12.67	11.40	10.27	9.503	8.495	7.906	7.189	7.021	6.390	5.962	5.672	5.135	4.732	4.359	4.393	5.096	5.525	4.300	2.794	2.179	1.862	1.852	1.890	1.714	1.960	1.711	1.297	1.068	1.062	1.404	3.236	9.921	21.69	96.22	306.7	181.9	11.44	0.457	0.389	0.312	0.388	0.338	0.296
565.0	33.06	42.16	48.42	46.11	47.56	48.60	65.21	137.0	88.85	59.16	77.72	403.8	2071	369.4	31.18	26.05	23.89	21.59	19.54	18.44	17.01	16.47	15.48	15.39	16.02	15.66	15.29	15.50	15.90	15.33	14.82	13.81	12.64	11.60	10.79	9.742	8.627	8.187	7.480	6.670	6.190	5.782	5.275	4.916	4.624	4.525	4.174	3.830	3.635	3.705	4.409	4.323	2.938	2.075	1.723	1.749	1.543	1.433	1.608	1.794	1.217	0.997	0.887	1.027	1.324	2.818	5.373	22.71	123.2	297.4	118.9	3.899	0.410	0.322	0.327	0.354	0.262
570.0	34.14	39.80	48.32	41.12	40.20	40.62	46.77	96.69	109.5	57.52	59.61	132.5	1135	1288	69.58	21.28	18.71	18.07	16.14	14.57	13.77	13.35	12.75	12.49	12.59	12.51	12.13	12.22	12.49	12.56	12.17	11.27	10.48	9.324	8.481	8.070	7.113	6.566	6.085	5.746	5.181	5.011	4.473	4.239	3.997	3.784	3.409	3.049	2.964	2.809	3.043	3.589	3.089	2.039	1.556	1.478	1.419	1.287	1.233	1.365	1.424	1.067	0.918	0.810	0.898	1.205	1.785	5.683	28.96	110.9	203.1	114.5	12.03	0.481	0.269	0.285	0.242
575.0	32.77	37.94	44.55	41.48	34.94	38.41	38.61	58.66	117.7	66.95	54.73	67.88	321.5	1523	489.8	20.13	16.11	14.26	13.06	12.28	10.72	10.73	10.29	10.46	10.22	9.676	9.787	9.759	9.917	9.953	9.242	8.574	8.178	7.216	7.039	6.367	5.812	5.261	4.614	4.372	4.216	4.176	3.746	3.314	3.376	2.915	2.762	2.692	2.441	2.117	2.132	2.430	2.712	2.452	1.755	1.294	1.283	1.001	0.922	1.105	1.230	1.308	0.951	0.741	0.702	0.825	0.833	1.814	6.969	25.22	56.66	169.2	154.7	14.39	0.433	0.365	0.255
580.0	35.65	44.86	46.72	39.86	29.88	30.10	34.08	42.76	101.5	90.69	55.82	57.28	106.3	874.0	1007	40.75	13.79	12.19	10.73	10.40	8.777	9.023	8.547	8.511	8.429	8.215	8.148	7.839	8.009	8.424	7.425	7.784	7.000	6.424	6.072	5.412	5.150	4.621	3.724	3.647	3.280	3.354	3.149	2.743	2.813	2.673	2.436	2.294	2.258	1.984	1.770	1.890	2.315	2.632	1.824	1.153	1.076	0.827	0.920	0.845	0.962	1.132	1.115	0.738	0.690	0.724	0.666	1.022	2.127	6.135	13.17	58.85	191.2	106.9	6.329	0.349	0.228
585.0	32.27	46.05	46.12	36.67	31.24	30.15	31.58	37.60	72.55	109.5	59.10	54.63	58.92	307.2	1392	108.0	12.97	10.61	9.330	9.436	7.944	7.946	7.155	7.310	7.281	7.139	6.873	7.124	7.088	6.784	6.690	6.380	5.760	5.352	4.979	4.565	4.267	3.786	3.361	3.389	2.872	2.787	2.694	2.523	2.393	2.106	2.038	2.052	1.989	1.671	1.513	1.471	1.691	2.086	1.995	1.297	0.957	0.824	0.879	0.862	0.834	0.941	1.215	0.863	0.792	0.705	0.629	0.768	1.055	1.831	3.280	13.88	77.45	176.4	33.26	2.480	0.213
590.0	34.52	45.05	43.49	39.40	29.47	29.30	30.56	33.92	49.78	108.1	82.73	56.45	49.11	96.79	771.9	757.3	35.12	9.542	7.748	7.233	6.732	6.345	6.037	5.736	5.642	5.909	5.630	5.540	5.692	5.636	5.613	5.410	4.757	4.300	4.181	3.712	3.558	3.053	2.933	2.801	2.467	2.472	2.309	2.089	1.957	1.801	1.843	1.697	1.508	1.288	1.274	1.193	1.196	1.495	1.749	1.449	1.079	0.782	0.817	0.746	0.835	0.660	0.838	1.032	0.962	0.701	0.686	0.661	0.702	0.815	1.138	3.434	18.10	65.87	111.3	71.41	9.646
595.0	33.45	45.15	48.47	39.63	30.59	28.01	33.83	34.17	47.94	83.65	112.0	65.84	52.46	50.10	215.2	957.8	259.5	9.386	6.983	5.596	5.161	5.051	4.777	4.953	4.690	4.737	4.406	4.459	4.556	4.449	4.816	4.377	3.786	3.454	3.090	3.030	2.819	2.184	2.645	2.172	2.286	2.121	1.783	1.755	1.642	1.609	1.487	1.278	1.331	1.193	1.031	0.992	0.982	0.986	1.298	1.418	1.135	0.842	0.702	0.659	0.681	0.620	0.567	0.721	0.936	0.825	0.626	0.596	0.504	0.593	0.651	1.194	4.358	14.97	31.12	94.73	90.81
600.0	27.99	46.68	51.16	43.28	32.63	34.20	38.63	38.89	51.17	72.57	125.7	87.48	62.78	48.01	73.99	581.0	646.6	19.82	6.194	5.112	4.343	4.414	4.094	4.149	3.918	4.185	3.629	3.824	3.897	3.847	3.637	3.411	3.363	2.859	2.374	2.316	2.181	2.065	2.055	1.879	1.798	1.853	1.584	1.550	1.416	1.335	1.389	1.102	1.160	0.982	0.864	0.909	0.888	0.863	0.908	1.274	1.282	0.923	0.752	0.587	0.730	0.552	0.573	0.572	0.794	0.979	0.786	0.620	0.589	0.624	0.462	0.689	1.280	3.640	7.194	32.19	106.8
605.0	34.26	52.66	56.16	45.71	42.09	40.95	45.02	55.14	71.20	91.19	140.4	137.7	93.15	67.01	59.24	225.8	865.8	74.58	6.235	4.912	4.301	3.611	3.586	3.481	3.334	3.435	3.000	3.103	3.146	3.098	3.221	2.972	2.739	2.334	2.228	2.056	1.990	1.840	1.776	1.437	1.513	1.355	1.398	1.206	1.156	1.302	1.120	0.974	1.022	0.861	0.760	0.755	0.715	0.782	0.797	1.107	1.144	1.106	0.803	0.627	0.559	0.709	0.739	0.679	0.750	1.023	0.942	0.764	0.743	0.733	0.650	0.583	0.624	1.193	1.960	7.673	42.61
610.0	46.29	66.53	74.88	60.83	51.63	57.10	68.52	88.76	115.2	151.8	190.3	223.3	167.7	122.1	101.6	117.6	566.7	487.2	18.90	4.248	3.745	3.239	3.041	2.939	2.770	2.771	2.582	2.569	2.576	2.555	2.710	2.542	2.035	1.981	1.935	1.590	1.561	1.476	1.476	1.343	1.309	1.146	1.149	1.072	0.995	1.108	0.997	0.988	0.949	0.821	0.735	0.671	0.686	0.652	0.653	0.807	1.009	1.194	1.003	0.817	0.717	0.814	0.877	0.988	0.980	1.114	1.328	1.204	1.173	1.000	0.882	0.827	0.778	0.924	0.980	2.190	10.09
615.0	57.50	72.85	86.00	72.87	62.33	66.20	85.35	103.3	131.7	172.6	208.3	251.1	213.4	152.0	124.1	101.4	218.8	666.8	77.01	4.334	3.006	2.633	2.578	2.416	2.146	2.088	2.021	2.066	1.913	2.037	2.087	1.957	1.552	1.643	1.668	1.495	1.213	1.260	1.244	1.076	1.066	0.912	0.816	0.947	0.919	0.823	0.857	0.899	0.841	0.711	0.691	0.677	0.654	0.584	0.572	0.553	0.757	1.075	1.137	1.037	0.781	0.872	0.878	1.016	1.039	1.157	1.225	1.361	1.583	1.164	0.978	0.933	0.910	0.973	0.843	1.026	2.713
620.0	49.74	75.63	85.39	72.78	63.58	66.81	86.26	104.4	126.7	165.4	194.8	232.6	226.9	158.1	126.5	94.69	117.0	452.4	387.6	7.777	2.573	2.472	2.266	2.127	1.889	1.953	1.715	1.906	1.753	1.907	1.717	1.711	1.430	1.288	1.346	1.202	1.009	1.069	1.056	0.933	0.842	0.756	0.648	0.807	0.712	0.652	0.757	0.728	0.721	0.603	0.580	0.564	0.704	0.537	0.478	0.573	0.627	0.790	1.065	1.059	0.888	0.851	0.896	0.898	0.982	1.106	1.113	1.117	1.323	1.201	0.988	0.918	0.998	0.935	0.802	0.690	0.979
625.0	53.11	82.68	95.25	77.65	65.99	67.38	88.15	110.1	121.1	160.8	187.4	217.4	234.3	165.2	127.6	94.05	93.78	197.3	584.1	44.79	2.423	2.020	1.865	2.014	1.703	1.612	1.735	1.646	1.513	1.677	1.446	1.400	1.379	1.177	1.063	1.001	0.963	0.829	0.864	0.839	0.721	0.644	0.661	0.672	0.644	0.607	0.676	0.699	0.678	0.641	0.683	0.556	0.554	0.422	0.499	0.595	0.578	0.693	0.922	0.950	0.935	0.848	0.901	0.827	0.981	1.119	1.023	1.002	1.136	1.246	1.024	0.838	0.927	0.836	0.749	0.574	0.723
630.0	54.98	91.70	104.2	86.80	69.68	71.82	88.15	110.2	122.9	151.8	183.2	205.9	220.6	179.2	130.8	94.30	87.09	83.38	381.5	293.8	7.802	2.145	1.740	1.647	1.487	1.325	1.276	1.317	1.261	1.435	1.310	1.086	1.192	1.008	0.931	0.860	0.784	0.705	0.743	0.730	0.655	0.557	0.538	0.532	0.526	0.615	0.608	0.650	0.706	0.576	0.547	0.558	0.502	0.432	0.487	0.509	0.629	0.654	0.729	0.813	0.927	0.860	0.850	0.839	0.912	1.038	1.032	1.035	1.174	1.138	1.204	1.003	0.867	0.726	0.744	0.626	0.597
635.0	65.18	93.76	105.6	93.50	72.58	79.59	87.74	103.1	118.4	148.6	182.2	200.7	204.1	192.0	135.5	97.00	84.25	55.16	112.3	456.8	58.23	2.110	1.548	1.424	1.345	1.272	1.118	1.074	1.018	1.125	1.019	0.900	0.838	0.901	0.718	0.715	0.646	0.572	0.638	0.538	0.518	0.472	0.480	0.443	0.439	0.488	0.404	0.679	0.606	0.502	0.490	0.493	0.536	0.412	0.488	0.458	0.590	0.595	0.563	0.676	0.793	0.795	0.901	0.951	0.848	0.911	0.896	1.182	1.242	1.050	1.147	1.042	0.921	0.757	0.855	0.621	0.557
640.0	62.65	92.38	111.6	95.02	77.03	77.55	90.09	99.99	118.7	143.8	172.1	200.7	195.3	187.3	145.0	97.44	85.44	47.98	35.62	321.9	254.6	3.899	1.424	1.199	1.106	0.921	1.245	1.145	0.961	0.991	0.954	0.790	0.862	0.727	0.573	0.627	0.709	0.612	0.536	0.502	0.489	0.422	0.377	0.461	0.454	0.459	0.401	0.569	0.601	0.476	0.475	0.421	0.477	0.398	0.501	0.365	0.592	0.650	0.613	0.582	0.804	0.803	0.738	0.826	0.902	0.872	0.879	1.150	1.117	0.940	1.051	1.018	1.096	0.793	0.764	0.671	0.640
645.0	60.79	95.28	110.3	93.96	76.18	69.87	81.84	98.24	107.7	135.9	165.0	188.1	186.8	173.8	148.8	96.88	83.14	45.30	18.10	129.6	413.0	27.34	1.454	1.163	1.077	0.893	0.972	0.954	0.739	0.836	0.825	0.669	0.589	0.643	0.555	0.633	0.573	0.564	0.497	0.567	0.393	0.414	0.350	0.422	0.413	0.441	0.471	0.506	0.547	0.400	0.474	0.432	0.438	0.424	0.395	0.435	0.519	0.562	0.548	0.550	0.606	0.710	0.738	0.735	0.830	0.872	0.889	0.912	0.952	0.953	0.967	0.941	1.031	0.811	0.699	0.649	0.596
650.0	58.65	100.2	107.2	96.52	68.76	64.00	80.08	93.30	101.1	121.7	153.7	175.8	171.2	156.8	144.9	92.26	77.09	43.39	14.21	38.50	379.9	129.0	1.838	0.998	0.949	0.843	0.904	0.920	0.670	0.708	0.755	0.736	0.511	0.578	0.520	0.633	0.441	0.453	0.420	0.470	0.386	0.361	0.321	0.374	0.374	0.386	0.372	0.491	0.515	0.461	0.392	0.481	0.398	0.412	0.451	0.426	0.500	0.470	0.525	0.559	0.474	0.642	0.712	0.720	0.788	0.801	0.846	0.886	0.743	0.882	0.916	0.850	0.854	0.893	0.733	0.660	0.549
