Sample:	'1
File name:	Default_20230316_132054.FD3
Run date:	'13:14:33, 03/16/2023
Operator:	dsjg
Comment:	'

Instrument
Model:	F-2700 FL Spectrophotometer
Serial number:	2198-001
ROM Version:	4J14000 07

Instrument parameters
Measurement type:	3-D scan
Data mode:	Fluorescence
EX  Start WL:	220.0 nm
EX  End WL:	600.0 nm
EX Sampling interval:	5.0 nm
EM  Start WL:	230.0 nm
EM  End WL:	650.0 nm
EM Sampling interval:	5.0 nm
Scan speed:	12000 nm/min
EX Slit:	5.0 nm
EM Slit:	5.0 nm
PMT Voltage:	700 V
Response:	Auto 
Corrected spectra:	Off
Contour interval:	50.000

Peak integration
Integration method:	Rectangular
Sensitivity:	1
Threshold:	1.000

Peaks
No.	ApexEX/EM(nm)	Height(Data)
1	225.0/290.0	 2293
2	225.0/565.0	263.9
3	245.0/365.0	 6879
4	270.0/300.0	714.6
5	275.0/305.0	720.2
6	275.0/605.0	57.65
7	280.0/620.0	42.22
8	310.0/395.0	 1125
9	320.0/405.0	 1146
10	450.0/285.0	7.464
11	455.0/290.0	7.821
12	500.0/365.0	29.03
13	530.0/290.0	3.283
14	540.0/295.0	3.876
15	545.0/300.0	4.029

Data points
	220.0	225.0	230.0	235.0	240.0	245.0	250.0	255.0	260.0	265.0	270.0	275.0	280.0	285.0	290.0	295.0	300.0	305.0	310.0	315.0	320.0	325.0	330.0	335.0	340.0	345.0	350.0	355.0	360.0	365.0	370.0	375.0	380.0	385.0	390.0	395.0	400.0	405.0	410.0	415.0	420.0	425.0	430.0	435.0	440.0	445.0	450.0	455.0	460.0	465.0	470.0	475.0	480.0	485.0	490.0	495.0	500.0	505.0	510.0	515.0	520.0	525.0	530.0	535.0	540.0	545.0	550.0	555.0	560.0	565.0	570.0	575.0	580.0	585.0	590.0	595.0	600.0
230.0	35.70	772.8	 1640	403.0	10.02	3.561	3.455	2.490	2.163	1.950	1.814	1.328	1.402	1.181	0.927	0.934	0.831	0.833	0.785	0.775	0.754	0.667	0.625	0.610	0.557	0.534	0.494	0.394	0.405	0.421	0.358	0.292	0.292	0.287	0.251	0.336	0.317	0.311	0.274	0.258	0.224	0.256	0.336	0.252	0.176	0.153	0.373	2.536	6.211	5.895	2.406	0.391	0.106	0.083	0.080	0.050	0.080	0.055	0.055	0.027	0.030	0.037	0.039	0.024	0.010	0.018	0.020	0.031	0.024	0.012	0.012	0.023	0.019	-0.014	0.003	-0.005	-0.013
235.0	39.98	217.7	 1124	 1654	404.1	15.70	4.082	3.100	2.697	1.978	1.776	1.499	1.270	1.159	0.968	0.869	0.655	0.794	0.837	0.760	0.774	0.792	0.668	0.559	0.696	0.622	0.501	0.461	0.358	0.323	0.349	0.250	0.300	0.216	0.294	0.234	0.298	0.383	0.288	0.243	0.177	0.237	0.288	0.281	0.315	0.216	0.253	0.695	1.939	3.826	5.902	6.805	3.512	0.729	0.124	0.106	0.099	0.049	0.051	0.028	0.029	0.036	0.017	0.021	0.038	0.020	0.020	0.025	0.006	0.017	0.004	-0.007	0.001	-0.004	0.007	0.006	-0.009
240.0	70.92	77.25	362.6	 1486	 1642	299.2	9.348	3.761	3.078	2.165	1.962	1.509	1.686	1.119	1.189	0.826	0.887	0.899	0.859	0.681	0.793	0.919	0.665	0.650	0.618	0.545	0.532	0.409	0.375	0.408	0.344	0.313	0.358	0.240	0.167	0.190	0.312	0.324	0.308	0.297	0.204	0.231	0.211	0.190	0.292	0.413	0.391	0.307	0.558	1.075	2.535	6.352	9.204	6.600	2.311	0.360	0.090	0.106	0.074	0.034	0.077	0.036	0.051	0.039	0.018	0.017	0.012	0.014	0.003	0.008	0.009	-0.005	0.004	-0.001	-0.005	0.045	0.008
245.0	60.79	89.28	106.0	564.3	 1837	 1606	195.6	5.504	3.244	2.847	2.021	1.649	1.916	1.406	1.457	1.035	0.791	0.707	0.952	0.820	0.779	0.801	0.594	0.621	0.578	0.629	0.543	0.416	0.542	0.436	0.304	0.404	0.305	0.251	0.237	0.268	0.240	0.259	0.263	0.321	0.266	0.151	0.151	0.203	0.201	0.353	0.451	0.469	0.344	0.378	0.691	1.990	5.130	9.240	10.31	5.701	1.287	0.165	0.064	0.039	0.037	0.037	0.023	0.074	0.026	0.016	0.020	0.028	0.003	0.026	0.014	0.007	0.013	0.015	0.004	0.009	-0.003
250.0	27.27	74.07	112.5	162.3	643.6	 1756	 1830	646.7	32.25	3.743	3.114	2.489	1.930	1.848	1.514	1.203	1.019	0.969	0.904	0.899	0.756	0.645	0.658	0.652	0.663	0.579	0.560	0.430	0.470	0.405	0.320	0.382	0.284	0.288	0.239	0.272	0.219	0.212	0.205	0.265	0.281	0.213	0.239	0.178	0.207	0.228	0.282	0.396	0.493	0.479	0.423	0.598	1.310	2.908	5.737	8.039	10.40	9.423	5.022	1.453	0.174	0.107	0.055	0.064	0.058	0.037	0.034	0.070	0.031	0.026	0.011	0.007	0.004	0.006	0.022	0.002	0.004
255.0	11.71	27.70	88.19	140.7	178.8	473.7	 1509	 2825	329.5	32.15	4.708	2.669	2.563	2.176	1.499	1.375	1.000	1.092	0.854	0.831	0.975	0.646	0.674	0.708	0.643	0.610	0.650	0.441	0.526	0.522	0.466	0.279	0.289	0.321	0.220	0.208	0.158	0.158	0.201	0.202	0.294	0.280	0.255	0.252	0.170	0.211	0.202	0.221	0.235	0.413	0.601	0.697	0.586	0.738	1.379	2.006	3.717	8.660	15.36	15.92	8.463	1.720	0.115	0.090	0.067	0.025	0.049	0.018	0.011	0.020	0.045	0.018	0.031	-0.002	0.014	-0.005	-0.013
260.0	11.08	12.56	37.12	127.9	136.0	127.4	493.9	 2324	 2643	276.2	16.31	3.968	3.206	2.566	1.962	1.646	1.211	1.275	0.918	0.949	0.874	0.708	0.768	0.732	0.634	0.632	0.614	0.539	0.430	0.640	0.416	0.342	0.287	0.289	0.241	0.213	0.169	0.182	0.134	0.142	0.205	0.251	0.297	0.229	0.213	0.199	0.233	0.160	0.192	0.262	0.385	0.713	0.808	0.548	0.449	0.567	0.952	2.326	6.713	15.05	20.37	16.24	6.020	0.666	0.115	0.043	0.047	0.032	0.025	0.006	0.026	0.029	0.032	0.000	0.014	0.002	-0.017
265.0	21.41	20.94	19.31	65.26	153.8	104.5	128.8	840.4	 3057	 2321	226.8	8.374	4.647	2.996	2.415	1.957	1.474	1.220	1.157	0.908	0.986	0.916	0.732	0.753	0.634	0.670	0.642	0.539	0.430	0.632	0.380	0.424	0.298	0.285	0.220	0.233	0.233	0.164	0.151	0.140	0.144	0.249	0.257	0.248	0.298	0.227	0.297	0.286	0.208	0.275	0.202	0.360	0.604	0.917	0.659	0.447	0.355	0.657	1.645	4.551	11.04	21.31	24.11	14.58	3.396	0.186	0.043	0.031	0.051	0.039	0.040	0.032	0.015	0.019	0.000	0.015	-0.004
270.0	286.3	316.4	190.3	68.88	93.30	157.0	143.8	249.1	 1038	 2690	 3178	930.9	58.76	4.502	3.187	2.406	1.810	1.503	1.399	1.249	1.103	0.972	0.808	0.836	0.660	0.728	0.574	0.614	0.584	0.588	0.454	0.368	0.341	0.332	0.493	0.468	0.402	0.319	0.245	0.308	0.300	0.394	0.498	0.763	0.951	1.123	1.264	1.358	1.057	0.668	0.367	0.338	0.305	0.539	0.722	0.864	0.888	0.721	0.670	1.332	2.873	6.429	11.85	18.29	22.11	20.20	12.03	3.696	0.239	0.088	0.025	0.045	0.041	0.034	0.014	0.027	0.036
275.0	942.8	 1080	620.5	212.7	105.8	142.6	273.3	283.9	401.4	824.2	 2329	 4906	 1347	63.17	4.390	3.126	2.433	1.643	1.599	1.311	1.285	1.087	1.031	0.803	0.881	0.640	0.744	0.616	0.575	0.521	0.564	0.401	0.404	0.414	0.894	1.045	0.884	0.690	0.574	0.645	0.752	1.034	1.350	1.981	2.727	3.362	3.575	4.006	3.145	1.590	0.953	0.667	0.517	0.523	0.563	0.645	0.965	1.547	1.526	1.217	1.449	2.162	3.547	4.998	7.566	14.89	27.87	31.15	16.66	2.994	0.098	0.043	0.077	0.092	0.050	0.043	0.093
280.0	 1508	 1724	 1005	336.9	166.3	166.4	289.4	413.2	392.2	443.1	895.2	 3257	 5240	 1015	23.81	3.883	2.841	2.226	2.141	1.495	1.650	1.197	1.033	0.861	0.973	0.750	0.767	0.624	0.671	0.560	0.615	0.414	0.423	0.668	1.279	1.576	1.272	0.987	0.952	0.936	1.140	1.447	2.014	2.933	4.109	5.431	5.603	6.135	5.164	2.577	1.435	1.081	0.822	0.649	0.715	0.808	1.007	1.427	1.931	2.225	2.076	1.795	2.110	2.374	2.984	4.755	10.68	23.01	34.70	28.19	10.44	0.886	0.081	0.081	0.101	0.046	0.076
285.0	 1916	 2171	 1292	455.7	217.1	203.8	280.7	443.3	545.9	459.0	502.4	 1202	 3936	 5018	138.4	9.242	3.877	2.897	2.398	1.929	1.748	1.255	1.089	1.017	0.999	0.799	0.812	0.752	0.724	0.535	0.619	0.459	0.447	0.890	1.669	1.961	1.432	1.284	1.022	1.402	1.515	1.802	2.684	3.359	4.910	6.439	7.464	7.434	6.342	3.500	1.806	1.509	0.968	0.885	0.842	0.962	1.145	1.393	1.769	2.422	2.985	2.741	2.281	2.141	2.259	2.451	3.406	7.247	15.73	28.42	35.59	22.47	4.635	0.234	0.150	0.083	0.073
290.0	 1997	 2293	 1394	518.2	259.2	239.1	292.2	396.6	567.7	622.7	517.1	543.2	 1275	 3169	 4027	 1829	34.79	4.098	3.050	2.231	1.873	1.591	1.294	1.152	1.103	1.009	0.917	0.659	0.683	0.635	0.553	0.504	0.555	0.834	1.608	2.069	1.701	1.361	1.309	1.394	1.613	1.998	2.796	3.580	5.193	6.825	7.406	7.821	6.781	3.653	2.010	1.728	1.269	1.042	0.990	1.081	1.214	1.393	1.637	1.854	2.581	3.192	3.283	3.271	2.660	2.148	2.063	2.864	4.572	8.300	15.10	22.76	27.01	23.57	13.57	3.393	0.228
295.0	 1806	 2124	 1304	527.2	280.0	247.7	289.8	367.2	483.1	633.2	694.6	472.8	510.0	862.1	 1964	 4808	828.7	37.28	4.265	3.428	2.598	1.979	1.708	1.318	1.283	1.075	0.876	0.790	0.754	0.791	0.629	0.595	0.676	0.847	1.634	1.993	1.590	1.301	1.368	1.386	1.596	1.928	2.650	3.351	4.599	6.044	6.883	7.360	6.177	3.604	2.063	1.736	1.419	1.120	1.028	1.080	1.257	1.372	1.580	1.713	2.139	2.576	2.856	3.569	3.876	3.230	2.232	2.053	2.316	2.672	3.952	5.814	7.965	14.51	29.64	34.74	17.37
300.0	 1601	 1850	 1165	498.5	275.2	240.5	288.3	351.5	440.8	557.5	714.6	609.1	385.5	341.2	606.4	 2598	 4988	658.2	17.04	3.648	3.268	2.218	1.654	1.284	1.430	1.218	0.930	0.856	0.911	0.661	0.650	0.592	0.548	0.756	1.391	1.807	1.470	1.256	1.282	1.266	1.425	1.775	2.297	2.965	3.726	5.346	5.741	6.437	5.580	3.168	1.874	1.717	1.390	1.172	1.111	1.107	1.223	1.331	1.615	1.662	1.937	2.443	2.305	2.827	3.286	4.029	3.119	2.483	2.044	1.773	1.838	2.051	2.301	4.120	10.60	24.50	38.09
305.0	 1341	 1539	 1010	457.3	263.2	235.3	272.3	335.4	420.6	506.4	632.5	720.2	463.5	276.3	256.6	793.5	 3352	 4632	87.84	6.998	4.089	2.328	2.064	1.699	1.526	1.256	1.253	1.045	0.799	0.769	0.652	0.631	0.468	0.727	1.345	1.493	1.406	1.244	1.194	1.172	1.185	1.550	1.984	2.574	3.308	4.658	4.809	5.390	4.573	2.758	1.769	1.490	1.220	1.055	1.013	1.137	1.250	1.295	1.513	1.584	1.790	2.054	2.316	2.603	2.814	3.199	3.615	3.657	2.507	1.857	1.429	1.318	1.175	1.458	2.894	6.938	16.74
310.0	998.5	 1178	803.5	394.6	247.8	223.1	254.8	311.6	391.0	475.8	555.6	640.1	623.6	388.9	229.0	269.6	957.2	 2798	 3771	 1558	26.10	3.533	2.489	2.218	1.728	1.350	1.310	1.115	0.885	0.924	0.737	0.667	0.570	0.662	1.179	1.267	1.237	1.154	1.103	1.008	1.011	1.253	1.526	1.938	2.642	3.400	3.703	4.083	3.735	2.163	1.630	1.389	1.171	0.999	0.999	1.118	1.253	1.141	1.512	1.488	1.726	2.024	2.108	2.421	2.607	2.789	2.744	3.362	3.375	2.911	2.155	1.618	1.329	1.081	1.242	2.111	4.252
315.0	758.8	892.4	656.2	353.3	264.1	245.8	271.2	324.7	398.0	473.4	546.3	583.0	599.4	576.5	332.2	191.9	290.1	691.4	 1718	 4689	 2402	28.84	3.578	2.570	2.109	1.691	1.471	1.146	1.071	0.876	0.726	0.740	0.682	0.708	0.899	1.135	1.055	0.982	0.911	1.065	0.828	1.115	1.251	1.547	2.051	2.445	2.887	2.974	2.763	1.788	1.337	1.316	1.274	1.188	1.136	1.163	1.287	1.396	1.571	1.709	1.788	1.910	2.223	2.481	2.619	2.662	2.804	2.717	2.748	2.856	3.180	2.777	1.924	1.362	1.046	1.011	1.403
320.0	647.3	774.9	625.8	412.8	341.9	331.3	356.0	392.6	440.1	509.8	570.0	597.9	587.4	593.0	488.4	228.5	160.0	215.8	473.7	 2457	 5579	487.3	13.43	3.552	2.622	1.921	1.674	1.327	1.132	1.079	0.929	0.793	0.697	0.601	0.753	0.883	0.960	0.914	0.864	0.945	0.752	0.930	1.090	1.349	1.800	2.297	2.439	2.552	2.593	1.977	1.672	1.532	1.648	1.519	1.597	1.527	1.774	1.758	1.856	1.982	2.121	2.143	2.505	2.647	2.708	2.757	2.859	2.967	2.890	2.779	3.061	3.152	3.097	2.016	1.315	1.069	0.971
325.0	639.7	775.2	732.8	606.4	542.7	528.1	509.3	553.1	551.3	597.6	627.6	652.5	627.2	588.4	571.8	351.2	176.9	132.4	162.1	698.9	 3547	 3965	356.5	6.405	3.324	2.141	1.869	1.347	1.304	1.089	0.923	0.823	0.763	0.750	0.796	0.901	0.870	1.070	0.806	0.893	0.755	0.950	1.118	1.303	1.654	2.199	2.397	2.809	2.799	2.388	2.098	2.160	2.375	2.347	2.346	2.460	2.664	2.523	2.532	2.630	2.557	2.660	2.879	3.131	3.180	2.858	2.991	3.050	3.021	3.109	2.929	3.024	3.259	3.207	2.244	1.498	1.169
330.0	774.2	 1060	 1159	 1153	 1189	 1213	 1158	 1008	913.6	844.0	772.7	748.3	732.3	657.2	577.8	490.9	317.0	180.4	131.6	220.2	966.1	 2615	 3441	 1277	21.85	3.234	2.427	1.829	1.667	1.291	1.097	0.994	0.802	0.822	0.727	0.884	0.906	0.914	0.847	0.875	0.881	1.025	1.230	1.513	2.009	2.705	2.911	3.621	3.867	3.657	3.538	4.347	4.755	4.788	5.073	5.251	5.348	5.168	4.929	4.332	4.394	4.215	4.212	3.812	3.681	3.446	3.459	3.604	3.626	3.456	3.305	3.317	3.216	3.235	2.803	2.686	2.102
335.0	 1075	 1528	 1864	 2092	 2243	 2315	 2147	 1773	 1471	 1221	966.8	872.2	857.4	780.1	645.3	526.8	492.3	321.0	193.2	162.1	290.2	651.0	 1636	 4191	457.3	25.41	3.776	2.522	1.922	1.659	1.257	1.016	0.912	0.762	0.942	0.780	0.842	1.031	0.943	1.083	1.141	1.339	1.690	2.201	2.753	3.860	3.976	5.041	5.707	5.890	6.020	7.782	8.697	9.055	9.618	9.646	10.16	9.276	8.622	7.482	7.196	6.632	6.259	5.354	4.640	4.328	3.883	3.971	4.260	3.828	4.128	3.942	3.687	3.310	2.920	2.902	2.989
340.0	 1363	 1964	 2498	 2869	 3144	 3278	 3020	 2456	 1947	 1550	 1134	977.8	942.7	867.2	733.4	580.8	524.3	467.0	283.3	193.7	179.6	225.4	464.9	 2346	 3824	424.1	12.45	3.391	2.553	1.911	1.386	1.273	1.073	0.924	0.878	0.843	0.828	1.055	1.079	1.149	1.325	1.635	2.043	2.683	3.483	4.448	5.386	6.482	7.216	7.578	8.411	10.76	12.43	12.95	13.58	13.27	14.75	13.14	11.82	10.07	9.372	9.056	7.878	6.866	5.486	4.824	4.265	4.391	4.703	4.726	4.457	4.489	3.989	3.721	3.129	3.227	3.090
345.0	 1640	 2412	 3091	 3663	 4027	 4203	 3855	 3095	 2396	 1854	 1290	 1067	 1024	943.6	805.4	648.4	554.6	539.0	423.0	263.3	202.4	169.4	190.8	693.8	 3044	 3412	59.06	6.433	3.198	2.205	1.421	1.317	1.198	1.009	0.965	0.888	1.108	1.158	1.170	1.379	1.556	1.874	2.433	3.159	4.147	5.172	6.459	7.876	8.696	9.256	10.32	13.65	15.47	16.36	17.52	17.54	18.42	16.90	15.19	12.77	11.40	10.93	9.753	7.692	6.425	5.296	5.208	4.850	4.885	4.849	4.759	4.710	4.290	4.018	3.879	3.744	3.178
350.0	 1981	 2903	 3808	 4563	 5160	 5309	 4866	 3851	 2961	 2219	 1466	 1172	 1116	 1045	906.6	755.5	643.8	586.3	555.9	434.4	302.2	237.0	196.4	270.5	882.2	 2424	 2980	 1097	20.39	3.348	2.093	1.605	1.407	1.056	1.019	0.999	1.170	1.231	1.354	1.463	1.816	2.372	2.950	3.837	4.953	6.336	7.578	9.324	10.75	11.67	12.51	16.87	19.55	20.37	22.18	21.96	22.88	20.74	18.57	16.27	13.82	13.30	11.75	9.452	7.241	5.769	5.339	5.194	5.300	5.196	5.355	5.257	4.805	4.598	4.382	4.107	3.921
355.0	 2311	 3272	 4360	 5282	 6026	 6240	 5686	 4478	 3417	 2511	 1618	 1251	 1179	 1124	983.9	857.5	761.7	684.7	622.4	596.8	479.6	353.8	286.0	248.3	329.4	638.8	 1536	 3673	 1411	24.82	3.200	2.215	1.594	1.133	1.144	1.240	1.236	1.349	1.396	1.734	2.146	2.553	3.380	4.355	5.699	7.599	8.567	10.73	12.37	13.31	14.66	19.36	23.25	24.21	25.37	25.91	26.44	24.08	21.84	18.69	16.35	14.88	13.20	11.09	8.042	6.460	5.711	5.482	5.515	5.432	5.855	5.680	5.598	4.952	4.882	4.678	4.657
360.0	 2468	 3478	 4633	 5707	 6415	 6685	 6107	 4777	 3655	 2661	 1691	 1292	 1216	 1175	 1046	923.5	840.4	770.6	690.8	655.1	619.5	473.7	371.9	299.3	254.0	257.4	448.4	 2108	 3606	371.2	11.82	2.929	2.002	1.412	1.246	1.354	1.284	1.380	1.519	1.714	2.251	2.742	3.510	4.490	5.732	8.164	8.933	11.20	13.56	14.19	15.23	20.74	24.17	25.68	27.18	27.62	28.32	26.03	23.04	19.96	17.64	15.41	13.84	11.44	8.404	6.702	5.759	5.481	5.811	5.765	6.015	6.027	5.638	5.556	5.204	5.241	5.344
365.0	 2515	 3609	 4779	 5844	 6630	 6879	 6246	 4940	 3747	 2689	 1712	 1315	 1242	 1201	 1089	976.6	904.8	845.8	769.8	701.5	690.4	613.0	465.7	373.5	285.7	211.3	197.2	619.2	 2857	 3106	55.26	6.054	2.722	1.818	1.302	1.230	1.323	1.530	1.582	1.775	2.124	2.658	3.566	4.514	6.018	8.312	9.468	11.57	14.10	14.58	15.70	21.72	25.34	26.71	28.37	28.63	29.03	27.20	23.69	20.53	18.11	16.75	14.68	11.57	8.510	6.646	5.921	5.725	6.086	5.973	6.014	6.188	5.970	5.631	5.337	5.628	5.695
370.0	 2453	 3552	 4687	 5807	 6576	 6847	 6236	 4907	 3722	 2698	 1723	 1330	 1263	 1226	 1121	 1024	967.6	931.5	876.0	816.0	762.3	732.8	638.4	495.0	376.0	273.2	196.9	236.3	818.3	 2259	 2752	916.9	17.97	2.964	1.894	1.540	1.541	1.607	1.679	1.845	2.158	2.796	3.621	4.654	6.057	7.700	9.253	11.52	13.39	14.23	15.84	21.66	24.68	26.42	27.90	28.09	28.68	26.51	23.30	20.29	18.17	16.38	14.41	11.36	8.639	6.975	6.175	5.927	6.154	6.087	6.103	6.014	6.128	5.913	5.880	5.668	6.011
375.0	 2366	 3380	 4473	 5490	 6247	 6483	 5917	 4642	 3578	 2628	 1689	 1321	 1264	 1229	 1141	 1057	 1028	 1009	968.2	923.0	861.6	811.0	777.1	672.9	494.4	370.4	269.8	207.5	282.7	580.5	 1414	 3253	368.2	22.63	3.075	2.167	1.805	1.674	1.719	1.881	2.195	2.680	3.665	4.733	6.040	7.628	9.065	10.95	12.55	13.49	15.15	20.91	23.66	25.10	26.73	26.39	27.55	24.75	22.49	19.80	17.44	15.27	13.53	11.18	8.655	6.782	6.003	5.972	5.907	6.240	5.998	6.317	6.261	5.950	6.265	6.090	6.083
380.0	 2263	 3248	 4264	 5177	 5899	 6070	 5606	 4415	 3398	 2546	 1651	 1305	 1253	 1226	 1153	 1084	 1062	 1052	 1027	992.6	937.2	881.2	832.4	784.2	559.3	457.6	339.9	250.6	203.2	223.5	409.3	 1904	 2852	328.2	11.33	2.703	1.893	1.892	1.665	2.006	2.050	2.650	3.408	4.609	5.653	7.434	8.392	10.33	12.00	13.16	14.26	19.74	22.25	23.77	25.29	25.10	25.95	23.70	21.44	18.81	15.97	14.71	12.84	10.26	8.425	6.660	5.957	5.500	5.874	6.288	5.981	6.252	6.339	6.158	6.206	6.270	6.305
385.0	 2129	 3048	 3981	 4820	 5523	 5681	 5212	 4125	 3198	 2399	 1588	 1280	 1227	 1206	 1154	 1094	 1080	 1085	 1064	 1039	996.5	947.2	889.7	844.2	719.7	547.0	416.4	316.2	234.7	180.6	179.6	566.5	 2316	 2536	45.84	5.382	2.654	2.065	1.865	1.956	2.091	2.504	3.154	4.325	5.289	6.712	7.874	9.446	11.02	12.09	13.56	18.34	21.00	22.15	23.47	23.55	24.27	22.31	19.88	17.15	15.04	14.19	12.33	10.01	8.117	6.341	6.086	5.742	5.838	6.274	6.183	6.354	6.263	6.336	6.200	6.432	6.447
390.0	 1906	 2706	 3569	 4304	 4879	 5049	 4650	 3712	 2893	 2204	 1520	 1259	 1211	 1194	 1152	 1094	 1095	 1106	 1099	 1091	 1063	 1029	978.6	908.1	824.4	704.9	543.8	420.6	324.1	243.6	183.1	224.0	674.9	 1765	 2106	705.7	15.93	3.350	2.395	1.964	2.240	2.529	2.970	3.906	4.755	6.327	7.298	8.748	10.21	10.97	12.16	16.14	18.64	19.47	20.63	20.85	21.01	19.95	17.83	15.62	13.82	12.83	11.37	9.240	7.569	6.318	5.728	5.586	5.885	5.804	6.028	6.034	6.196	6.110	6.121	6.393	6.590
395.0	 1659	 2407	 3091	 3734	 4244	 4367	 4017	 3277	 2568	 1997	 1461	 1237	 1179	 1169	 1127	 1085	 1091	 1115	 1125	 1121	 1116	 1092	 1059	989.3	898.3	817.6	703.0	551.0	435.9	336.9	256.1	198.8	250.3	465.5	 1071	 2466	315.0	19.64	3.507	2.530	2.266	2.528	2.870	3.472	4.259	5.580	6.502	7.847	9.362	9.522	10.29	14.38	16.46	17.09	17.69	18.19	18.10	17.63	15.28	13.78	12.50	11.31	10.15	8.172	6.962	6.011	6.023	5.643	5.716	5.779	5.992	5.985	6.298	6.225	6.306	6.338	6.551
400.0	 1502	 2152	 2788	 3315	 3798	 3877	 3576	 2936	 2368	 1855	 1400	 1221	 1165	 1155	 1114	 1079	 1084	 1102	 1115	 1134	 1139	 1132	 1099	 1043	962.9	873.0	794.5	662.8	506.9	416.3	320.2	235.2	186.8	190.5	320.2	 1467	 2268	284.2	11.12	3.190	2.683	2.647	2.905	3.192	4.134	5.194	5.899	7.484	8.368	8.585	9.300	12.56	14.28	15.54	16.08	15.74	16.60	15.34	13.86	12.44	11.29	10.30	9.488	8.044	6.730	5.811	5.805	5.359	5.628	5.530	6.034	6.072	5.858	5.723	6.203	6.082	6.763
405.0	 1394	 1954	 2502	 3008	 3361	 3475	 3216	 2647	 2170	 1747	 1356	 1182	 1153	 1139	 1102	 1058	 1062	 1092	 1109	 1127	 1146	 1141	 1125	 1076	 1010	919.1	835.2	751.3	606.4	480.1	381.8	284.6	204.3	156.3	146.1	435.4	 1692	 1970	205.8	5.881	2.901	2.885	2.908	3.142	3.783	4.793	5.377	6.452	7.472	7.794	8.343	11.65	13.10	13.80	14.45	13.86	14.85	13.98	12.50	11.36	10.39	9.742	8.653	7.523	6.290	5.233	5.437	5.377	5.633	5.624	6.028	6.041	5.919	5.746	6.101	6.106	6.393
410.0	 1227	 1711	 2175	 2623	 2889	 2952	 2772	 2326	 1932	 1608	 1288	 1161	 1125	 1103	 1070	 1028	 1028	 1058	 1082	 1111	 1129	 1140	 1136	 1099	 1045	967.0	876.5	802.2	714.3	579.3	463.0	353.2	257.9	188.7	139.8	169.4	484.3	 1343	 1657	575.2	14.95	3.575	3.037	3.114	3.455	4.198	4.785	5.843	6.627	6.871	7.345	10.32	11.20	11.81	12.36	12.16	12.94	12.08	10.87	9.869	9.267	8.720	7.820	6.990	5.971	5.459	5.249	5.229	5.414	5.433	5.533	5.783	5.839	5.708	5.694	6.068	6.280
415.0	 1070	 1479	 1869	 2235	 2478	 2523	 2374	 2026	 1724	 1466	 1230	 1121	 1101	 1072	 1030	992.7	984.0	 1012	 1031	 1072	 1097	 1119	 1119	 1105	 1058	991.5	910.4	832.6	764.4	680.2	542.2	418.1	317.1	235.9	172.4	137.3	175.9	348.3	824.6	 1841	286.3	18.57	4.049	3.148	3.496	3.863	4.304	5.107	5.802	5.861	6.426	8.640	9.547	9.656	10.30	10.34	10.79	10.57	9.545	8.649	8.405	7.804	7.247	6.253	5.751	5.250	5.118	4.967	5.140	5.309	5.190	5.556	5.981	5.708	5.437	5.785	6.129
420.0	947.8	 1324	 1686	 1975	 2170	 2213	 2125	 1843	 1587	 1367	 1183	 1090	 1072	 1052	 1002	956.9	947.9	970.6	989.7	 1033	 1060	 1084	 1099	 1090	 1054	995.3	926.1	850.4	777.2	715.2	604.1	460.9	358.4	272.9	202.8	151.7	124.0	135.4	239.3	 1018	 1683	260.0	11.15	3.925	3.487	3.611	4.070	4.486	5.163	5.373	5.862	7.412	8.580	8.917	9.350	8.993	9.502	9.376	8.147	7.957	7.536	7.100	6.985	6.333	5.265	5.138	4.968	4.955	4.970	4.869	5.321	5.465	5.738	5.473	5.486	5.539	5.757
425.0	852.3	 1189	 1537	 1756	 1941	 1989	 1915	 1685	 1478	 1290	 1145	 1073	 1047	 1024	978.5	933.4	913.9	932.1	954.8	991.6	 1023	 1049	 1066	 1063	 1036	988.4	927.1	857.2	788.9	720.0	644.5	508.8	391.2	302.5	230.5	174.4	130.2	103.7	106.2	303.3	 1245	 1461	189.1	5.910	3.788	3.520	3.694	4.015	4.703	4.992	5.323	6.680	7.554	8.156	8.429	8.096	8.550	8.656	7.710	7.351	6.798	6.694	6.470	5.907	5.316	4.953	4.791	4.816	4.874	4.978	5.082	5.242	5.519	5.376	5.330	5.080	5.531
430.0	772.2	 1061	 1343	 1558	 1697	 1744	 1681	 1520	 1353	 1216	 1103	 1051	 1028	999.3	947.6	901.7	871.3	882.0	908.1	939.8	972.5	 1001	 1021	 1027	 1009	966.4	918.5	859.2	795.0	726.3	654.0	559.4	436.8	338.0	265.5	204.8	155.6	117.5	93.45	119.1	360.5	958.0	 1212	448.8	14.35	4.315	3.689	3.834	4.171	4.490	4.769	6.007	6.829	7.160	7.241	7.094	7.762	7.366	6.858	6.569	6.254	6.103	5.769	5.447	5.210	4.986	4.791	4.747	4.928	5.109	4.948	5.007	5.171	5.143	5.107	5.221	5.415
435.0	786.7	929.8	 1208	 1361	 1485	 1528	 1494	 1383	 1250	 1141	 1057	 1025	998.1	969.9	924.8	865.8	835.8	835.7	855.2	883.8	916.1	947.7	964.7	977.0	966.1	932.8	894.3	851.7	793.7	733.1	654.4	571.3	484.0	379.4	297.1	235.0	183.6	139.7	108.0	91.89	127.9	247.7	576.4	 1417	257.2	17.82	4.316	4.217	4.045	4.202	4.222	5.305	5.834	6.291	6.489	6.192	6.855	6.656	6.328	5.914	5.814	5.489	5.654	4.978	4.801	4.743	4.582	4.762	5.214	4.927	4.888	4.848	4.960	5.038	4.880	4.937	5.346
440.0	898.5	849.5	 1086	 1243	 1370	 1392	 1379	 1284	 1180	 1094	 1030	 1015	976.3	953.0	895.1	830.8	798.5	797.1	816.8	844.5	873.4	901.7	922.7	937.1	925.0	900.9	870.4	832.5	782.6	728.5	650.5	567.6	497.1	409.3	317.9	253.6	201.8	155.6	120.1	94.45	83.12	93.47	165.4	829.7	 1416	230.9	8.854	4.495	3.966	3.906	3.881	5.022	5.455	5.492	5.916	5.600	6.245	6.083	5.830	5.644	5.432	5.231	5.295	4.915	4.947	4.708	4.353	4.406	4.875	4.786	4.859	4.645	5.190	4.880	4.811	4.641	4.901
445.0	 1082	844.9	 1016	 1179	 1274	 1278	 1273	 1205	 1119	 1058	 1005	982.8	953.2	928.8	863.9	805.6	767.4	760.5	776.6	804.8	834.0	858.5	880.8	891.4	884.6	864.5	839.1	806.3	767.9	718.8	641.0	563.8	490.3	423.7	340.6	268.5	214.3	169.0	132.7	104.7	81.95	66.21	69.81	244.1	 1083	 1244	31.56	5.929	4.249	3.831	3.712	4.629	5.140	5.224	5.521	5.397	5.624	5.766	5.554	5.709	5.284	5.107	4.961	4.723	4.662	4.582	4.126	4.372	4.544	4.603	4.758	4.760	4.644	5.215	4.929	4.496	4.737
450.0	983.4	 1104	941.5	 1043	 1124	 1154	 1153	 1113	 1034	997.0	966.5	941.6	918.6	885.5	828.2	758.8	719.0	709.3	723.0	746.1	763.9	788.7	809.5	823.8	816.8	802.5	785.2	758.7	727.0	686.8	623.5	550.6	475.1	414.6	359.5	286.5	227.6	182.9	147.7	116.8	92.02	70.55	58.76	86.47	304.0	846.9	 1048	387.6	12.36	4.109	3.624	4.301	4.752	4.724	4.988	4.882	5.155	5.240	5.222	5.023	5.066	4.809	4.672	4.662	4.633	4.392	4.248	4.316	4.364	4.465	4.536	4.645	4.461	4.502	4.244	4.277	4.550
455.0	644.3	 1310	 1025	904.7	996.8	 1032	 1042	 1013	952.5	924.2	905.9	893.6	869.0	836.9	770.6	703.7	660.5	652.3	660.3	679.8	691.1	713.6	733.0	740.2	749.0	736.2	715.2	697.5	678.0	644.2	593.0	528.5	459.8	398.3	350.1	300.5	243.6	193.5	157.1	130.9	103.9	80.58	63.16	59.64	98.48	212.2	490.9	 1188	225.0	13.18	3.789	4.039	4.296	4.147	4.574	4.326	4.584	4.637	4.815	4.403	4.210	4.449	4.208	4.338	4.224	3.940	4.172	4.215	4.264	4.057	4.303	4.314	4.421	4.174	4.209	4.301	4.111
460.0	466.8	 1161	 1300	860.1	918.4	933.4	953.6	940.8	898.9	868.5	865.6	850.2	829.3	788.3	737.3	659.4	619.0	611.7	616.7	626.5	637.7	660.2	678.0	687.0	690.3	682.0	665.5	650.4	632.7	609.0	562.3	508.8	443.7	385.4	334.8	298.3	254.0	200.4	163.1	136.7	111.1	86.73	70.38	57.43	56.09	71.50	132.7	658.1	 1110	163.0	7.518	4.200	4.125	3.980	4.093	3.775	4.346	4.277	4.324	4.138	4.229	4.145	4.113	3.902	3.901	3.855	3.948	3.928	3.787	3.886	4.216	4.037	3.975	3.928	4.113	4.022	3.816
465.0	386.8	855.5	 1564	908.1	837.8	874.4	887.1	879.3	852.1	835.3	813.2	813.3	783.5	751.5	693.1	625.5	583.0	572.3	572.2	579.8	589.4	608.1	629.4	635.7	637.3	634.9	619.9	607.6	596.2	572.9	533.5	485.6	428.0	372.2	323.8	284.4	255.6	206.8	167.0	139.3	115.2	90.85	74.44	59.28	49.25	42.21	47.82	182.9	841.6	924.6	24.78	4.934	4.097	3.755	3.675	3.835	4.141	3.974	3.930	4.121	4.049	3.886	4.006	3.704	3.700	3.784	3.831	3.706	3.718	3.736	3.987	3.829	3.856	3.664	3.740	3.671	3.603
470.0	346.4	563.2	 1320	 1277	778.7	767.2	796.6	789.0	772.7	758.3	755.6	747.3	722.3	690.3	636.6	571.7	528.6	513.7	517.3	521.7	528.9	540.0	556.8	565.1	567.3	565.7	555.2	547.0	539.7	519.7	487.8	446.8	396.8	349.9	304.1	266.9	239.3	209.6	171.9	140.7	116.2	95.36	77.71	63.14	50.43	38.22	32.11	56.79	231.9	630.4	753.8	282.5	11.66	3.948	3.556	3.584	3.764	3.735	3.631	3.771	3.665	3.575	3.514	3.440	3.441	3.460	3.394	3.375	3.431	3.499	3.511	3.414	3.426	3.438	3.385	3.337	3.187
475.0	310.6	431.5	774.3	 1496	943.6	669.2	701.4	708.5	698.6	693.0	686.1	681.5	666.1	628.0	576.8	514.8	476.9	459.3	461.7	462.3	467.5	475.8	491.6	498.8	494.7	497.4	486.9	482.9	480.3	466.8	443.6	408.7	362.9	322.5	285.6	252.2	220.9	196.8	175.2	143.9	118.1	98.09	80.48	65.91	54.12	40.86	31.81	31.61	65.42	152.8	335.1	838.6	206.8	12.07	3.529	3.475	3.585	3.337	3.330	3.306	3.084	3.215	3.166	3.317	3.206	3.495	3.317	3.329	3.157	3.326	3.214	3.210	2.845	3.128	3.069	2.843	2.859
480.0	300.8	389.5	559.1	 1266	 1269	641.6	639.8	654.7	642.2	646.7	639.5	634.5	618.7	580.0	537.0	482.5	440.7	421.9	421.8	425.0	429.0	436.7	447.7	449.9	454.2	452.5	445.1	441.7	439.4	429.1	411.8	383.7	339.3	307.4	268.8	240.1	210.3	186.8	169.6	147.6	118.7	97.82	81.77	67.76	55.57	43.68	33.91	27.78	30.00	45.57	89.04	442.3	785.1	165.8	6.130	3.506	3.260	3.161	3.236	3.077	2.970	3.029	3.010	3.037	3.014	3.147	2.763	3.023	3.158	3.229	2.819	2.943	2.746	2.875	2.860	2.868	2.976
485.0	282.9	365.0	475.0	838.4	 1490	733.5	587.9	610.8	599.8	612.7	609.4	593.6	582.8	549.1	501.7	445.8	410.5	391.1	391.1	391.6	396.8	403.5	410.4	412.2	412.7	412.2	412.3	405.9	402.9	399.5	383.9	356.2	321.5	289.7	256.9	229.9	203.6	178.2	162.2	147.5	121.5	100.2	82.61	69.97	58.55	45.81	36.81	29.06	24.53	23.32	30.43	119.8	598.5	733.8	30.68	4.332	3.305	3.284	3.161	2.964	3.047	2.748	2.945	2.692	2.926	2.764	2.754	2.988	2.802	2.691	2.595	2.876	2.773	2.872	2.689	2.649	2.519
490.0	247.5	347.4	412.1	545.7	 1168	 1123	572.9	550.5	555.9	555.1	555.3	549.9	533.4	499.3	458.8	409.2	371.8	355.8	353.6	351.5	356.5	359.2	364.4	366.6	369.3	367.8	366.2	362.8	362.1	357.4	344.5	321.2	292.4	266.8	238.3	213.6	191.0	170.0	150.9	136.2	123.2	102.5	83.83	71.12	59.36	48.61	39.17	31.25	25.43	20.89	19.50	37.31	162.1	472.3	611.6	126.4	10.46	3.486	2.957	2.837	2.640	2.733	2.743	2.461	2.620	2.464	2.547	2.628	2.538	2.460	2.467	2.465	2.521	2.485	2.559	2.430	2.361
495.0	199.6	307.3	367.1	424.7	656.7	 1318	788.4	491.2	492.5	498.0	497.9	492.4	480.2	450.0	414.9	366.7	332.7	318.4	312.6	310.1	312.6	312.7	319.1	319.3	322.5	321.7	320.9	316.5	320.1	318.6	308.0	286.5	262.7	242.1	217.0	197.5	176.2	158.5	140.0	126.6	114.8	103.5	84.87	71.10	58.86	50.35	40.87	33.87	28.30	22.65	19.23	20.83	46.27	116.3	327.2	727.3	209.5	10.47	3.181	2.706	2.569	2.587	2.422	2.341	2.428	2.281	2.261	2.376	2.344	2.324	2.271	2.400	2.335	2.330	2.154	2.166	2.153
500.0	194.6	280.3	354.4	368.5	451.0	 1042	 1139	478.8	451.8	456.1	458.3	458.0	436.6	409.5	381.0	334.3	304.7	288.7	281.1	279.9	283.7	282.9	284.9	286.8	288.1	289.3	288.2	284.8	288.1	286.9	279.9	259.3	241.9	222.4	200.1	182.1	163.6	147.8	132.6	117.9	105.9	100.2	85.72	71.39	59.69	50.22	42.04	35.17	29.20	24.43	20.49	18.24	21.94	36.19	88.32	418.9	725.4	160.9	5.123	2.802	2.471	2.298	2.267	2.383	2.224	2.232	1.977	2.141	2.131	2.154	2.167	2.027	2.115	2.015	1.904	1.930	1.950
505.0	169.9	233.3	334.2	337.1	371.9	662.6	 1328	595.3	414.4	422.1	418.3	421.3	403.2	379.5	346.1	307.0	280.1	264.6	253.8	252.0	253.2	255.8	256.9	258.5	260.8	260.0	258.5	257.7	259.3	261.0	251.6	239.1	221.2	201.7	184.9	168.7	153.5	137.4	125.1	111.9	98.43	91.79	83.87	71.30	59.27	49.83	42.01	36.05	30.90	25.42	21.79	18.71	17.47	19.68	29.40	117.5	555.3	630.2	30.34	3.301	2.285	2.036	2.027	2.064	1.964	2.183	1.821	2.056	1.932	2.094	2.132	1.974	1.932	1.944	1.690	1.660	1.690
510.0	143.1	200.7	281.4	319.1	319.0	406.4	980.1	 1055	391.2	372.1	373.5	372.7	356.0	334.9	308.7	271.9	243.5	231.1	224.2	221.7	219.8	219.5	223.2	224.5	224.1	224.8	221.9	223.6	225.5	226.0	219.8	206.5	193.3	178.6	164.7	150.5	137.8	124.7	112.2	101.7	90.71	82.15	74.98	69.49	59.04	49.42	41.39	35.99	30.82	26.09	22.63	19.80	17.43	16.95	17.40	35.82	151.1	411.9	389.7	131.0	8.681	2.132	1.989	1.952	1.774	1.776	1.819	1.866	1.669	1.824	1.789	1.765	1.725	1.744	1.596	1.624	1.586
515.0	122.0	173.4	227.7	291.1	281.9	303.4	498.4	 1205	696.3	325.4	327.2	330.0	309.4	289.9	266.7	235.6	209.7	199.0	193.9	190.5	186.9	188.6	190.8	191.5	191.4	190.3	190.1	191.6	194.3	193.1	188.3	178.7	168.1	153.9	142.2	132.9	121.5	109.8	101.0	90.98	81.24	73.65	66.43	62.97	57.32	48.86	40.26	35.31	30.04	26.11	22.95	19.89	17.77	16.37	14.67	17.78	41.36	99.02	215.0	545.6	185.0	6.622	2.053	1.786	1.623	1.661	1.548	1.529	1.584	1.453	1.572	1.550	1.426	1.498	1.276	1.371	1.362
520.0	106.1	156.1	206.6	257.0	264.1	256.9	315.3	886.4	 1112	334.1	297.8	288.6	279.1	262.6	237.2	212.8	188.3	180.0	172.2	168.6	168.2	166.9	167.5	170.4	169.5	168.5	167.6	168.0	171.5	172.9	168.4	161.7	149.6	139.2	129.8	120.5	110.7	99.90	92.79	83.01	74.94	67.31	61.19	56.18	54.52	47.76	39.65	33.82	29.12	24.90	22.44	20.10	17.73	16.20	14.22	13.69	16.88	28.04	57.30	313.4	517.2	33.16	3.284	1.912	1.476	1.579	1.289	1.515	1.364	1.340	1.445	1.405	1.299	1.262	1.173	1.211	1.173
525.0	92.88	137.1	179.0	215.2	249.8	227.8	250.5	508.5	 1278	531.2	274.7	268.1	256.6	232.5	213.5	188.2	173.5	163.7	154.1	154.5	149.1	148.4	149.0	150.7	151.9	149.8	150.0	151.0	154.3	153.6	151.2	144.4	133.5	126.3	116.4	108.5	100.3	92.08	85.51	76.36	69.57	62.63	56.80	52.19	49.04	46.39	39.04	33.03	27.99	24.28	21.79	19.74	17.18	15.57	14.05	12.46	11.48	12.10	16.99	86.78	381.3	408.1	27.76	2.130	1.524	1.393	1.237	1.270	1.133	1.184	1.271	1.347	1.202	1.199	1.012	1.202	1.165
530.0	86.18	124.9	156.9	176.2	217.7	208.0	210.2	288.2	851.2	 1044	284.9	235.6	221.0	205.7	187.5	166.2	150.6	142.8	135.2	131.7	129.8	129.0	129.2	129.5	129.5	128.8	127.9	129.2	131.5	131.8	128.4	125.2	117.0	109.8	102.0	94.25	88.68	80.64	74.10	69.03	62.32	56.81	51.40	46.86	43.04	41.82	38.13	32.75	27.09	22.91	20.52	18.65	16.05	14.87	13.37	11.86	9.822	8.748	8.471	23.01	101.9	282.2	313.3	114.1	6.341	1.385	1.170	1.242	1.098	1.134	1.085	1.087	0.994	0.970	1.022	0.972	0.974
535.0	76.02	111.7	139.7	149.5	171.0	189.4	181.5	201.1	385.4	 1072	722.2	206.7	192.2	177.2	163.2	143.9	126.2	121.6	116.6	111.3	110.0	110.1	110.8	109.7	108.0	109.6	108.7	109.8	111.1	112.9	109.8	106.1	99.00	94.26	86.47	80.90	75.77	70.36	64.52	60.82	54.73	50.00	45.69	41.69	38.07	35.94	33.82	31.72	25.97	21.37	19.07	17.28	14.79	14.09	12.54	11.75	9.196	7.991	6.629	8.906	25.73	66.31	157.2	385.9	149.4	4.733	1.303	1.130	1.002	1.000	0.929	0.864	0.925	0.876	0.736	0.784	0.769
540.0	85.74	114.6	134.4	130.4	142.8	175.1	173.5	177.2	227.1	716.9	 1140	242.5	172.3	162.3	144.3	128.7	114.5	109.1	103.1	99.04	96.81	97.47	98.51	96.55	97.06	96.11	94.67	96.99	98.35	100.4	96.05	95.35	88.88	83.82	76.86	73.17	67.78	63.33	57.87	54.43	48.92	45.70	41.30	38.44	34.60	32.69	30.17	29.40	25.65	20.88	18.16	15.86	14.54	13.09	11.82	10.90	8.914	7.656	5.807	5.823	8.897	17.59	40.16	217.3	376.3	33.47	2.005	1.112	0.962	0.919	0.840	0.911	0.921	0.845	0.718	0.731	0.689
545.0	121.1	149.9	143.4	128.2	131.2	161.2	166.4	163.0	182.6	387.8	 1176	505.4	157.5	143.7	128.7	117.1	103.0	97.86	92.07	89.97	88.48	87.01	87.75	86.85	86.33	85.00	84.83	87.22	87.37	89.67	86.66	84.59	78.78	75.09	69.87	65.80	61.83	56.65	51.85	49.61	44.76	41.81	37.96	34.93	32.21	30.68	27.37	26.75	24.66	20.48	17.33	15.20	13.58	12.72	11.24	10.66	8.621	7.460	5.883	5.153	5.223	6.576	11.34	58.76	273.2	263.9	26.09	1.239	0.854	0.815	0.785	0.853	0.719	0.745	0.684	0.705	0.702
550.0	158.9	184.8	155.4	122.1	115.2	129.7	157.9	152.1	157.9	210.4	685.0	969.8	183.7	125.8	109.9	99.92	88.07	83.90	78.46	77.16	75.54	74.43	73.83	74.12	73.46	72.13	72.78	72.94	74.29	76.01	74.26	72.29	67.87	63.47	60.06	56.05	52.24	49.07	44.76	42.74	39.23	36.61	34.45	30.68	28.93	26.46	24.63	22.84	21.59	19.91	16.50	14.23	12.33	11.42	10.37	9.530	8.297	7.079	5.617	5.100	4.234	4.238	4.801	15.26	72.62	191.6	239.9	88.19	4.728	0.952	0.816	0.817	0.659	0.637	0.626	0.550	0.568
555.0	191.2	217.1	173.5	109.2	101.9	108.5	133.8	155.1	141.0	155.3	285.0	844.3	635.5	107.3	92.56	81.47	74.20	70.53	64.85	63.72	63.68	60.84	61.76	61.78	60.74	59.70	60.34	60.48	61.79	62.14	60.90	59.35	57.02	53.49	50.49	46.62	43.87	40.69	38.22	36.15	32.88	30.57	29.19	26.47	24.84	23.19	21.51	19.63	18.09	17.53	16.27	13.24	10.91	10.11	9.348	8.382	7.596	6.596	5.638	4.913	3.906	3.883	3.676	5.569	18.03	45.24	113.9	268.0	36.88	3.340	0.834	0.775	0.610	0.592	0.505	0.532	0.481
560.0	193.2	240.2	168.5	105.8	93.39	101.1	115.9	144.6	132.5	135.5	167.8	499.6	953.8	152.6	81.00	70.91	64.55	60.71	56.12	54.45	53.90	52.29	52.90	51.64	51.24	50.90	49.80	51.96	51.68	53.37	52.81	51.26	48.70	44.73	42.25	40.04	38.09	35.72	32.43	31.66	28.88	26.48	25.41	23.35	22.06	20.48	18.55	17.39	15.70	15.22	14.48	12.70	10.11	9.189	8.461	7.818	6.852	6.105	5.281	4.468	3.711	3.439	3.317	3.544	5.770	12.20	29.38	145.9	235.2	31.95	1.632	0.840	0.611	0.519	0.509	0.435	0.405
565.0	215.2	263.9	180.3	99.33	85.04	88.99	103.0	131.8	128.2	120.0	129.0	251.0	884.7	420.6	71.75	61.28	55.53	51.21	48.53	47.09	45.42	45.01	44.77	44.07	43.16	44.59	43.69	44.00	43.93	44.99	43.72	43.30	40.43	38.72	36.89	34.29	32.40	30.62	27.75	26.91	24.74	22.29	21.91	20.34	19.22	17.72	16.82	15.12	13.58	12.58	12.63	11.65	9.574	8.088	7.754	6.954	6.343	5.561	4.972	4.556	3.704	3.113	3.032	2.896	3.153	4.726	8.355	39.55	171.1	189.9	23.16	0.996	0.626	0.443	0.441	0.355	0.325
570.0	216.0	256.9	179.1	90.25	75.00	76.43	83.28	107.7	123.9	108.8	108.3	125.2	452.4	776.3	112.0	49.32	43.55	40.03	39.28	37.96	35.87	35.71	34.69	35.04	33.81	34.54	33.88	34.51	34.54	35.12	35.24	33.51	31.97	30.36	28.78	26.96	25.27	23.55	22.65	20.59	19.71	18.30	17.34	16.08	15.59	14.61	13.51	12.69	11.22	10.14	9.598	9.345	8.435	7.010	6.472	5.858	5.256	4.909	4.198	3.913	3.486	2.958	2.829	2.753	2.692	3.027	3.942	10.71	45.31	119.5	142.5	52.58	2.638	0.474	0.401	0.325	0.300
575.0	204.1	232.5	156.7	80.34	62.27	60.75	68.35	80.02	105.4	102.5	94.22	85.46	161.3	587.1	497.3	40.13	34.48	31.58	29.77	28.74	27.74	26.78	26.15	26.42	26.16	26.53	26.30	25.69	26.44	26.61	26.24	25.28	24.61	22.42	21.92	20.13	19.28	17.72	17.32	15.69	15.01	14.21	12.78	12.54	11.94	11.35	10.43	9.868	9.098	8.262	7.151	6.981	7.056	6.190	5.434	4.857	4.185	4.048	3.488	3.239	2.988	2.797	2.613	2.497	2.450	2.404	2.707	4.018	11.53	28.15	63.73	144.5	34.21	1.972	0.291	0.358	0.283
580.0	186.3	213.2	140.6	72.49	54.35	52.70	59.77	69.00	87.98	98.21	82.95	71.93	79.11	303.0	702.1	88.60	27.79	26.32	24.41	23.41	22.65	21.93	20.96	20.89	21.17	21.03	21.14	20.50	21.19	22.79	21.41	20.28	19.36	18.37	17.70	16.70	15.52	14.97	14.31	13.34	12.50	11.37	10.63	10.61	10.09	9.445	9.025	8.353	7.627	6.847	5.911	5.730	5.576	5.622	4.935	4.317	3.811	3.377	3.258	2.770	2.747	2.516	2.543	2.216	2.098	2.059	2.191	2.392	3.840	7.226	16.07	76.43	127.7	26.63	0.588	0.276	0.251
585.0	179.9	196.3	135.9	69.22	50.56	49.20	49.69	61.80	73.81	94.28	77.05	64.95	55.55	127.6	592.2	301.0	24.08	21.55	19.97	20.41	19.08	18.42	17.50	17.99	17.44	16.68	16.92	17.64	17.81	18.19	17.62	16.65	16.01	15.80	14.59	13.75	13.42	12.16	11.95	11.15	10.43	9.497	8.826	8.867	8.465	8.159	7.365	7.201	6.482	5.792	5.131	4.647	4.531	4.920	4.577	3.791	3.294	2.800	2.734	2.385	2.413	2.238	2.169	2.093	1.921	1.813	1.699	1.795	1.872	2.375	4.356	19.99	86.67	102.4	16.50	0.340	0.230
590.0	152.4	172.6	111.3	57.88	40.44	40.35	46.17	51.50	61.83	79.13	77.46	55.07	46.33	55.27	260.5	525.6	67.00	17.55	15.82	15.64	14.92	14.52	13.83	14.37	14.21	13.36	13.38	14.02	14.45	14.18	13.93	13.06	12.66	12.41	11.28	10.72	10.39	9.843	9.241	8.939	8.228	7.648	7.087	7.044	6.619	6.449	5.999	5.806	5.207	4.539	4.072	3.782	3.535	3.586	3.710	3.419	2.853	2.305	2.238	2.005	1.961	1.802	1.648	1.650	1.552	1.579	1.411	1.368	1.236	1.305	1.552	4.936	22.52	61.35	76.40	21.88	1.655
595.0	121.5	140.9	96.63	47.94	34.33	34.03	37.32	40.71	52.27	62.20	74.76	51.77	39.61	34.48	81.99	352.1	351.8	16.65	12.48	11.67	12.19	11.44	11.02	11.22	10.56	10.44	10.16	10.55	11.28	10.72	10.59	9.911	9.662	9.468	8.705	8.006	8.035	7.677	6.838	6.639	6.362	5.975	5.466	5.514	5.241	5.173	4.860	4.481	4.188	3.611	3.407	3.119	2.664	2.722	2.784	2.948	2.621	1.980	1.775	1.613	1.405	1.437	1.283	1.429	1.309	1.431	1.190	1.097	0.927	0.949	0.759	1.487	5.309	14.05	32.19	74.21	29.69
600.0	132.6	121.9	89.90	41.37	30.74	31.01	33.79	36.28	45.27	51.41	65.80	54.78	37.07	27.72	34.02	162.8	487.0	54.13	10.76	9.214	9.598	9.801	9.611	9.045	8.880	8.704	9.131	8.506	9.244	9.036	8.608	8.398	8.371	7.719	7.047	6.537	6.764	6.108	5.834	5.413	5.307	4.855	4.514	4.630	4.372	4.177	4.115	3.900	3.493	3.018	2.937	2.664	2.276	2.182	2.260	2.289	2.416	1.981	1.487	1.480	1.431	1.190	0.992	1.095	1.188	1.101	1.060	1.011	0.760	0.685	0.542	0.597	1.452	3.334	7.897	38.66	71.58
605.0	103.3	105.0	74.02	36.14	28.24	26.27	29.39	31.54	39.98	43.64	54.21	57.65	35.74	25.35	22.35	62.65	393.2	214.4	9.556	8.641	8.203	8.337	7.870	7.613	7.526	7.398	7.556	7.319	7.327	7.790	7.235	7.078	6.766	6.573	5.986	5.557	5.680	5.322	4.944	4.437	4.482	3.973	3.902	3.855	3.739	3.507	3.181	3.191	3.120	2.685	2.438	2.243	1.843	1.887	1.794	2.038	2.125	1.815	1.448	1.259	1.117	1.205	1.051	0.947	1.012	0.995	0.868	0.842	0.667	0.561	0.471	0.438	0.578	0.950	1.956	10.04	46.30
610.0	78.27	85.34	61.21	31.58	21.90	22.29	25.03	27.66	33.62	38.03	43.27	52.13	37.51	24.33	18.80	24.11	161.4	369.9	48.86	7.221	6.825	6.750	6.248	6.141	5.959	5.890	5.954	5.896	6.069	5.921	5.938	5.904	5.175	5.258	4.649	4.396	4.335	4.095	3.812	3.721	3.518	3.141	3.406	2.984	3.027	2.773	2.613	2.540	2.438	2.050	1.892	1.792	1.565	1.531	1.462	1.451	1.491	1.424	1.371	1.094	1.056	0.841	0.859	0.815	0.842	0.736	0.729	0.772	0.590	0.482	0.369	0.318	0.300	0.384	0.596	2.399	11.69
615.0	59.49	67.34	50.24	26.16	18.73	20.03	21.41	24.10	28.11	31.22	34.54	42.81	41.69	23.54	17.41	13.79	46.16	235.8	266.8	8.974	5.336	5.568	4.928	4.791	4.522	4.680	4.751	4.609	4.629	4.610	4.358	4.331	3.813	3.971	3.853	3.449	3.251	3.109	2.991	2.849	2.695	2.338	2.700	2.365	2.206	2.136	1.897	1.830	1.998	1.550	1.366	1.272	1.316	1.177	1.133	1.009	1.045	1.197	1.166	1.066	0.768	0.664	0.684	0.598	0.642	0.651	0.541	0.679	0.572	0.449	0.277	0.239	0.244	0.196	0.263	0.652	2.693
620.0	49.11	58.89	43.54	22.41	18.31	18.04	18.84	21.53	24.88	29.03	32.59	35.86	42.22	24.83	16.14	11.20	16.99	102.5	364.0	48.53	4.552	4.170	3.983	4.238	3.693	3.985	3.613	3.585	3.966	3.753	3.526	3.782	3.058	3.386	3.110	2.981	2.626	2.542	2.325	2.461	2.273	2.121	2.055	1.806	1.861	1.783	1.717	1.604	1.574	1.278	1.238	1.089	1.030	0.962	0.928	0.897	0.847	0.942	1.054	0.935	0.693	0.601	0.563	0.564	0.494	0.545	0.474	0.497	0.480	0.427	0.257	0.187	0.257	0.166	0.120	0.302	0.668
625.0	41.16	52.68	37.61	20.48	17.29	15.24	18.67	21.19	23.67	27.71	30.55	32.05	38.72	29.81	15.96	9.919	9.848	35.98	280.6	195.5	4.161	3.835	3.612	3.656	3.310	3.452	3.010	3.167	3.423	3.208	2.921	2.884	2.565	2.925	2.792	2.459	2.336	2.166	2.171	2.080	1.883	1.843	1.711	1.580	1.526	1.404	1.529	1.380	1.319	1.137	1.021	0.854	0.853	0.820	0.782	0.691	0.741	0.743	0.772	0.773	0.694	0.573	0.506	0.477	0.403	0.435	0.383	0.400	0.411	0.431	0.270	0.207	0.165	0.170	0.158	0.159	0.216
630.0	35.24	37.88	31.05	18.10	15.07	15.27	16.83	19.00	21.62	25.02	27.36	27.67	31.86	31.25	17.03	10.04	7.848	12.26	108.6	310.1	40.85	3.142	3.022	2.879	2.778	2.761	2.439	2.520	2.634	2.534	2.357	2.382	2.132	2.230	2.178	2.069	1.746	1.628	1.724	1.583	1.525	1.422	1.280	1.235	1.195	1.118	1.201	1.047	1.023	0.905	0.848	0.765	0.675	0.648	0.622	0.615	0.606	0.518	0.528	0.628	0.616	0.479	0.423	0.378	0.397	0.388	0.374	0.324	0.325	0.361	0.307	0.238	0.161	0.115	0.153	0.084	0.143
635.0	26.95	32.91	27.17	16.79	16.28	13.73	18.46	18.60	21.43	23.60	25.45	27.24	26.70	28.68	20.44	11.05	7.130	6.450	28.70	179.2	235.3	4.678	2.549	2.334	2.041	2.008	1.984	1.894	1.997	1.986	1.899	1.890	1.690	1.699	1.614	1.566	1.326	1.197	1.187	1.157	1.069	1.030	0.915	0.835	0.911	0.890	0.927	0.861	0.850	0.749	0.684	0.660	0.601	0.541	0.535	0.465	0.503	0.412	0.336	0.498	0.551	0.502	0.386	0.344	0.343	0.335	0.342	0.322	0.317	0.266	0.277	0.253	0.153	0.143	0.099	0.113	0.108
640.0	23.79	28.63	24.87	17.96	14.15	15.03	18.61	19.80	19.70	22.45	24.26	26.48	25.91	25.34	23.04	11.77	7.423	5.487	9.974	69.10	323.0	38.00	2.284	1.986	1.681	1.882	1.806	1.476	1.830	1.659	1.815	1.593	1.545	1.355	1.349	1.218	1.066	1.139	0.993	0.944	0.945	0.878	0.900	0.675	0.771	0.811	0.714	0.597	0.643	0.597	0.492	0.492	0.525	0.468	0.468	0.380	0.353	0.348	0.370	0.410	0.400	0.410	0.399	0.285	0.286	0.274	0.287	0.290	0.234	0.205	0.213	0.271	0.201	0.136	0.097	0.123	0.115
645.0	21.89	27.78	26.08	20.28	19.01	19.27	19.87	19.83	20.66	24.54	24.74	26.01	24.86	24.44	25.06	13.38	7.973	5.681	5.396	21.96	241.1	140.0	2.239	1.604	1.427	1.483	1.464	1.388	1.454	1.417	1.511	1.217	1.244	1.066	1.054	0.944	1.006	1.007	0.931	0.869	0.777	0.754	0.661	0.582	0.693	0.642	0.630	0.619	0.481	0.494	0.436	0.487	0.402	0.407	0.365	0.383	0.337	0.393	0.318	0.318	0.320	0.316	0.351	0.314	0.222	0.253	0.278	0.254	0.199	0.221	0.187	0.171	0.153	0.192	0.079	0.085	0.061
650.0	22.17	28.88	27.78	22.42	22.65	23.44	24.94	23.73	20.54	23.79	25.02	26.20	23.87	22.20	24.21	15.92	7.805	5.909	4.216	7.653	107.1	235.7	11.89	1.528	1.226	1.341	1.295	1.405	1.168	1.232	1.087	1.072	1.058	0.989	0.858	0.814	0.900	0.793	0.806	0.766	0.680	0.609	0.670	0.583	0.490	0.551	0.558	0.480	0.434	0.469	0.413	0.389	0.325	0.375	0.311	0.285	0.351	0.230	0.296	0.287	0.296	0.301	0.360	0.386	0.245	0.275	0.246	0.215	0.186	0.243	0.156	0.169	0.125	0.140	0.095	0.116	0.042
