Sample:	'1
File name:	t2025062308原山大道桥.FD3
Run date:	'14:51:37, 06/24/2025
Operator:	Administrator
Comment:	'

Instrument
Model:	F-2700 FL Spectrophotometer
Serial number:	23B8-004
ROM Version:	4J14000 07

Instrument parameters
Measurement type:	3-D scan
Data mode:	Fluorescence
EX  Start WL:	220.0 nm
EX  End WL:	600.0 nm
EX Sampling interval:	5.0 nm
EM  Start WL:	230.0 nm
EM  End WL:	650.0 nm
EM Sampling interval:	5.0 nm
Scan speed:	12000 nm/min
EX Slit:	5.0 nm
EM Slit:	5.0 nm
PMT Voltage:	700 V
Response:	Auto 
Corrected spectra:	Off
Contour interval:	50.000

Peak integration
Integration method:	Rectangular
Sensitivity:	1
Threshold:	1.000

Peaks
No.	ApexEX/EM(nm)	Height(Data)
1	225.0/625.0	74.38
2	230.0/345.0	4997
3	240.0/265.0	368.2
4	245.0/270.0	408.7
5	250.0/275.0	527.7
6	250.0/455.0	2762
7	255.0/285.0	552.0
8	260.0/290.0	545.2
9	260.0/575.0	134.8
10	265.0/585.0	108.8
11	270.0/600.0	105.4
12	275.0/410.0	2004
13	275.0/615.0	112.2
14	280.0/340.0	2287
15	280.0/625.0	104.6
16	285.0/640.0	89.65
17	330.0/415.0	1259
18	440.0/520.0	26.21
19	475.0/340.0	13.95
20	505.0/275.0	3.161
21	505.0/455.0	11.48
22	510.0/280.0	3.488
23	520.0/285.0	3.524
24	525.0/290.0	3.339
25	535.0/270.0	39.29
26	570.0/345.0	11.04
27	575.0/335.0	11.01

Data points
	220.0	225.0	230.0	235.0	240.0	245.0	250.0	255.0	260.0	265.0	270.0	275.0	280.0	285.0	290.0	295.0	300.0	305.0	310.0	315.0	320.0	325.0	330.0	335.0	340.0	345.0	350.0	355.0	360.0	365.0	370.0	375.0	380.0	385.0	390.0	395.0	400.0	405.0	410.0	415.0	420.0	425.0	430.0	435.0	440.0	445.0	450.0	455.0	460.0	465.0	470.0	475.0	480.0	485.0	490.0	495.0	500.0	505.0	510.0	515.0	520.0	525.0	530.0	535.0	540.0	545.0	550.0	555.0	560.0	565.0	570.0	575.0	580.0	585.0	590.0	595.0	600.0
230.0	114.1	1713	2582	516.9	20.40	7.996	6.727	5.778	5.017	4.326	4.131	3.857	3.293	3.135	2.622	2.213	2.106	1.712	1.513	1.374	1.290	1.211	1.105	1.092	0.947	0.895	0.966	0.861	0.837	0.799	0.820	0.675	0.656	0.596	0.611	0.572	0.481	0.492	0.435	0.461	0.467	0.590	0.523	0.415	0.391	0.508	2.124	6.825	8.965	5.235	1.543	0.484	0.288	0.314	0.299	0.268	0.327	0.302	0.310	0.278	0.275	0.292	0.289	0.292	0.295	0.280	0.288	0.295	0.300	0.269	0.297	0.312	0.271	0.291	0.286	0.265	0.334
235.0	101.2	511.9	2287	2767	500.4	28.30	7.915	6.938	5.036	4.867	4.133	3.662	3.911	3.174	2.561	2.233	1.894	1.714	1.551	1.461	1.511	1.245	1.233	1.062	1.032	0.836	1.019	0.790	0.869	0.745	0.650	0.654	0.622	0.588	0.547	0.454	0.503	0.546	0.526	0.428	0.517	0.443	0.480	0.547	0.555	0.465	0.759	2.068	4.447	7.446	9.424	9.097	3.479	0.707	0.284	0.319	0.321	0.319	0.268	0.241	0.296	0.326	0.275	0.274	0.294	0.294	0.278	0.234	0.281	0.326	0.310	0.337	0.335	0.287	0.295	0.340	0.282
240.0	152.0	187.1	788.8	3077	2887	382.1	15.52	7.330	5.990	5.430	4.491	4.605	3.705	3.316	2.949	2.425	2.016	1.872	1.625	1.623	1.616	1.315	1.198	1.064	1.005	1.034	0.965	0.961	0.974	0.845	0.737	0.658	0.724	0.653	0.647	0.441	0.485	0.654	0.494	0.452	0.492	0.393	0.458	0.568	0.751	0.754	0.549	0.736	1.323	2.604	6.571	14.47	14.87	8.766	2.698	0.518	0.330	0.341	0.288	0.303	0.301	0.297	0.289	0.275	0.326	0.343	0.349	0.242	0.324	0.283	0.287	0.307	0.349	0.333	0.313	0.298	0.277
245.0	145.2	206.0	233.5	1284	4045	2716	260.8	9.750	7.758	5.803	5.267	4.887	4.103	3.784	2.873	2.469	2.190	1.807	1.692	1.392	1.421	1.319	1.221	1.050	1.072	0.982	1.058	0.854	0.876	0.928	0.751	0.747	0.717	0.671	0.563	0.540	0.600	0.581	0.501	0.499	0.488	0.459	0.434	0.458	0.610	0.821	0.807	0.706	0.671	0.828	1.861	5.752	13.30	19.43	16.32	6.988	1.746	0.325	0.360	0.284	0.296	0.360	0.310	0.318	0.336	0.327	0.325	0.287	0.371	0.299	0.331	0.299	0.335	0.338	0.303	0.319	0.309
250.0	71.65	177.3	242.9	366.7	1501	3757	3791	968.9	42.79	7.457	6.446	5.786	4.573	4.105	3.201	2.560	2.341	1.994	1.599	1.548	1.387	1.312	1.258	1.189	1.144	1.101	1.032	0.978	0.905	0.864	0.797	0.703	0.662	0.635	0.599	0.548	0.535	0.485	0.485	0.431	0.513	0.461	0.473	0.440	0.430	0.550	0.585	0.853	0.913	0.810	0.852	1.625	3.529	7.316	12.61	17.47	20.88	16.17	7.857	1.810	0.369	0.339	0.303	0.355	0.339	0.286	0.347	0.316	0.359	0.290	0.322	0.268	0.329	0.332	0.282	0.314	0.297
255.0	47.82	69.47	211.4	325.7	404.2	1049	4088	5863	303.4	37.65	8.202	6.506	6.286	4.202	3.907	2.660	2.777	1.876	1.772	1.801	1.473	1.289	1.346	1.136	1.144	1.226	1.048	1.050	0.950	0.919	0.865	0.744	0.686	0.632	0.610	0.629	0.417	0.606	0.506	0.459	0.476	0.517	0.453	0.372	0.366	0.507	0.437	0.501	0.697	1.045	1.379	1.295	1.302	1.901	3.148	4.568	9.801	22.15	33.73	25.33	11.42	1.807	0.362	0.343	0.296	0.284	0.441	0.313	0.296	0.300	0.347	0.272	0.386	0.389	0.305	0.275	0.327
260.0	38.64	38.76	95.42	322.5	291.0	290.8	1410	6149	5743	252.8	18.99	8.678	7.058	5.092	4.041	3.485	2.869	2.407	1.861	1.703	1.570	1.373	1.527	1.254	1.294	1.240	1.049	0.990	0.923	0.979	0.869	0.869	0.722	0.753	0.582	0.661	0.450	0.540	0.509	0.508	0.506	0.569	0.479	0.417	0.479	0.456	0.436	0.485	0.419	0.621	0.994	1.731	1.646	1.179	1.167	1.382	2.838	6.779	17.85	33.67	32.68	22.86	7.258	0.897	0.333	0.306	0.368	0.326	0.325	0.327	0.292	0.309	0.326	0.338	0.338	0.339	0.360
265.0	41.55	32.19	43.03	179.2	368.2	232.7	372.2	2401	7925	5389	186.5	14.73	8.249	5.681	4.395	3.516	3.028	2.603	2.254	2.009	1.825	1.476	1.528	1.490	1.331	1.089	1.037	1.341	1.098	1.031	1.002	0.819	0.785	0.709	0.501	0.637	0.621	0.519	0.482	0.466	0.514	0.480	0.507	0.396	0.541	0.525	0.420	0.381	0.395	0.399	0.541	1.116	1.786	2.049	1.415	0.845	1.070	1.981	4.640	11.21	25.89	45.61	31.87	18.85	3.909	0.544	0.383	0.377	0.368	0.353	0.389	0.312	0.291	0.309	0.364	0.412	0.390
270.0	48.40	41.14	35.39	76.23	230.8	408.7	297.1	612.3	2823	7226	6052	779.1	40.62	8.234	6.026	4.438	3.536	2.783	2.421	2.131	1.915	1.702	1.548	1.477	1.349	1.200	1.223	1.177	1.090	1.034	0.922	0.867	0.883	0.861	0.668	0.690	0.679	0.587	0.564	0.471	0.542	0.465	0.470	0.461	0.512	0.528	0.468	0.425	0.417	0.382	0.407	0.592	0.893	1.369	1.881	1.987	1.848	1.366	1.566	3.010	6.555	14.63	24.08	39.29	38.68	35.95	13.42	3.541	0.555	0.418	0.361	0.384	0.341	0.358	0.395	0.394	0.365
275.0	88.86	79.79	61.83	61.79	112.5	259.1	527.7	343.8	688.3	1907	6695	9999.9	1048	33.47	9.365	6.319	4.924	3.424	3.118	2.556	2.192	1.795	1.716	1.617	1.472	1.412	1.306	1.141	1.088	1.117	1.058	1.117	0.950	0.830	0.725	0.897	0.696	0.658	0.607	0.642	0.494	0.569	0.499	0.534	0.580	0.548	0.515	0.543	0.449	0.388	0.416	0.488	0.656	0.776	1.025	1.381	2.742	3.161	2.089	1.369	1.953	3.761	5.861	9.658	14.21	35.35	61.95	32.51	20.47	3.119	0.534	0.444	0.392	0.331	0.383	0.431	0.429
280.0	123.6	134.8	103.4	77.36	91.02	148.7	409.2	534.9	283.5	495.0	2085	9905	8994	148.9	18.38	8.564	6.041	4.306	3.245	2.953	2.369	1.945	1.792	1.805	1.661	1.571	1.429	1.247	1.156	1.022	0.919	0.995	0.970	0.822	0.804	0.916	0.839	0.714	0.663	0.645	0.486	0.644	0.611	0.670	0.716	0.656	0.714	0.608	0.610	0.491	0.465	0.618	0.554	0.654	0.843	0.887	1.393	2.687	3.488	2.518	1.548	1.394	1.813	2.814	3.771	9.382	24.15	46.99	72.39	30.98	14.94	1.583	0.519	0.404	0.449	0.400	0.451
285.0	209.9	199.7	158.9	104.6	97.73	119.2	217.7	552.0	346.4	219.2	570.0	3344	9999.9	6839	110.6	12.01	7.532	5.112	3.672	3.349	2.880	1.914	1.708	1.805	1.566	1.473	1.285	1.236	1.167	1.023	1.106	1.017	1.030	0.823	0.961	0.901	0.930	0.800	0.748	0.747	0.765	0.695	0.718	0.750	0.763	0.781	0.820	0.827	0.825	0.614	0.541	0.616	0.606	0.651	0.759	0.764	1.002	1.338	2.191	3.426	3.524	1.861	1.242	1.314	1.538	2.797	6.202	13.55	34.67	59.92	71.83	26.75	8.524	0.935	0.570	0.494	0.426
290.0	284.6	314.7	245.8	153.7	117.5	124.1	147.8	281.5	545.2	473.8	309.7	917.5	3313	8492	7917	448.9	28.72	7.665	5.375	4.002	3.149	2.623	2.287	1.951	1.770	1.660	1.637	1.423	1.413	1.278	1.223	1.025	1.078	0.985	1.111	0.967	1.064	0.967	0.814	0.775	0.881	0.764	0.830	0.841	0.861	0.997	1.035	1.081	1.033	0.845	0.710	0.776	0.697	0.699	0.773	0.725	0.916	1.016	1.207	1.701	2.573	3.339	3.262	2.550	1.700	1.670	2.332	4.005	8.906	16.67	31.49	44.04	40.34	47.91	18.31	7.928	1.106
295.0	356.5	422.5	358.6	229.7	165.2	161.9	172.9	216.8	345.4	718.6	694.1	492.9	963.4	2165	6265	9999.9	652.7	27.52	8.142	5.258	3.952	3.099	2.977	2.501	1.955	1.710	1.663	1.645	1.352	1.280	1.148	1.130	0.980	0.969	1.093	1.064	1.156	0.976	1.003	1.020	0.870	0.962	0.884	0.926	1.039	1.171	1.338	1.334	1.353	1.051	0.826	0.951	0.915	0.941	1.001	0.947	0.965	1.164	1.188	1.426	1.615	1.948	2.658	4.342	4.620	3.087	2.180	2.325	3.538	4.944	8.143	10.87	11.97	29.01	59.09	74.44	29.21
300.0	458.1	544.8	495.5	343.3	246.4	242.6	275.9	317.3	359.5	646.8	1096	746.7	603.7	756.2	1866	8419	5871	488.3	15.88	7.168	4.769	3.973	3.007	2.741	2.093	2.096	1.935	1.644	1.436	1.466	1.344	1.229	1.022	1.014	1.207	1.255	1.206	1.179	0.959	1.126	1.010	0.961	1.004	1.057	1.247	1.595	1.611	1.673	1.537	1.336	1.127	1.304	1.211	1.230	1.200	1.179	1.430	1.576	1.739	1.788	2.024	2.248	2.480	3.344	4.809	5.675	4.550	3.167	2.901	2.958	3.701	4.043	4.192	7.972	18.70	45.25	73.48
305.0	617.3	720.6	705.3	507.3	387.7	395.9	450.0	541.4	631.9	837.2	1239	1433	910.3	689.2	799.5	2762	9074	4988	75.55	10.85	5.965	4.806	3.894	2.891	2.454	2.222	2.114	1.736	1.617	1.611	1.458	1.392	0.974	1.150	1.144	1.211	1.296	1.326	1.102	1.181	1.108	1.210	1.168	1.343	1.391	1.886	1.964	2.100	2.279	1.695	1.559	1.721	1.712	1.758	1.792	1.841	2.130	2.445	2.441	2.769	3.073	3.236	3.710	3.970	4.610	5.997	7.218	6.788	5.592	4.278	4.108	3.708	3.507	4.027	6.121	12.68	27.82
310.0	787.0	973.4	953.8	714.4	564.3	588.9	667.8	768.6	871.7	1054	1298	1637	1557	1046	791.0	1038	2971	6581	6397	1413	23.29	7.072	4.702	3.744	2.898	2.468	2.228	1.918	1.695	1.607	1.496	1.433	1.241	1.246	1.268	1.253	1.419	1.515	1.248	1.292	1.332	1.316	1.380	1.420	1.879	2.253	2.466	3.018	2.742	2.362	2.179	2.451	2.395	2.376	2.516	2.541	2.980	3.281	3.394	3.615	3.902	4.426	4.732	5.144	5.642	5.881	6.659	7.668	8.533	7.802	6.497	5.213	4.736	4.301	4.464	5.488	8.530
315.0	947.9	1272	1247	932.6	756.9	744.6	847.2	944.4	1026	1202	1415	1624	1751	1622	1018	782.9	1085	1755	4635	8725	508.2	24.40	6.717	4.995	3.971	2.896	2.570	2.238	2.012	1.935	1.770	1.575	1.339	1.249	1.381	1.407	1.537	1.445	1.367	1.380	1.516	1.450	1.589	1.837	2.196	2.828	3.186	3.654	3.656	3.154	2.973	3.175	2.936	2.995	3.048	3.123	3.785	3.993	4.231	4.480	4.774	4.881	5.480	5.740	6.453	6.525	6.989	7.051	7.717	8.348	9.021	8.560	6.763	5.884	4.840	4.788	4.947
320.0	1153	1580	1597	1205	915.4	864.8	960.5	1057	1112	1312	1540	1726	1772	1824	1406	855.5	752.6	675.4	1309	6336	7440	409.0	14.08	6.035	4.440	3.337	2.748	2.140	2.360	1.952	1.910	1.648	1.485	1.291	1.674	1.467	1.613	1.336	1.350	1.531	1.603	1.649	1.704	2.079	2.493	3.285	3.837	4.442	4.595	3.817	3.777	4.048	3.461	3.681	3.552	3.637	4.087	4.575	4.707	4.923	4.778	5.260	5.727	6.172	6.458	7.165	7.471	8.121	8.061	8.313	8.676	9.319	9.725	7.676	5.985	5.246	4.897
325.0	1547	2263	2382	1772	1191	990.2	1064	1158	1218	1416	1661	1877	1889	1827	1716	1102	752.5	499.6	465.3	1872	7228	3979	60.83	9.790	5.562	3.973	3.534	2.811	2.569	2.101	1.862	1.504	1.522	1.425	1.468	1.452	1.518	1.606	1.616	1.551	1.730	1.659	2.056	2.356	2.951	4.127	5.064	6.357	6.694	5.677	5.423	5.671	4.517	4.242	3.961	4.274	4.448	5.037	5.004	5.216	5.224	5.292	6.239	6.741	7.018	7.516	8.329	8.726	8.976	8.826	8.658	9.144	9.903	9.555	8.477	6.441	5.634
330.0	2103	3196	3652	2943	1866	1264	1182	1266	1349	1546	1833	2064	2112	1965	1759	1457	983.6	572.5	372.5	593.1	2138	5042	5356	1308	21.71	6.019	4.485	3.445	3.056	2.372	2.154	1.844	1.634	1.602	1.550	1.604	1.525	1.628	1.556	1.663	1.924	2.061	2.402	3.131	3.887	5.535	6.887	8.966	9.763	8.957	8.717	9.085	7.325	6.102	5.276	4.757	4.966	5.319	5.452	5.630	5.846	6.210	6.744	7.425	7.672	8.261	8.850	9.526	9.811	9.855	9.938	10.11	9.792	9.663	9.361	8.610	8.006
335.0	2408	3866	4551	3950	2640	1664	1332	1374	1426	1653	1924	2190	2276	2135	1859	1534	1304	769.7	463.1	392.9	663.6	1302	3735	7749	435.7	23.47	6.161	4.445	3.721	2.616	2.470	2.119	1.902	1.759	1.797	1.602	1.717	1.711	1.646	1.801	1.873	2.483	2.569	3.719	4.820	6.587	8.064	11.04	11.69	11.33	11.35	12.22	10.43	8.657	7.053	5.988	5.548	5.632	6.089	6.139	6.072	6.586	6.579	7.409	8.072	8.989	9.637	9.591	10.28	10.56	10.49	11.01	10.53	10.21	9.529	8.754	8.736
340.0	2604	4118	4956	4357	2908	1816	1401	1401	1466	1658	1941	2199	2287	2175	1886	1524	1294	983.5	553.1	388.0	367.5	453.4	1054	5447	6799	376.7	13.40	5.702	4.248	3.324	2.646	2.328	2.244	1.869	1.942	1.689	1.639	1.798	1.826	1.980	2.138	2.426	2.760	3.610	4.898	7.042	8.714	11.48	12.71	12.68	12.58	13.95	11.76	9.878	7.455	6.172	5.911	5.877	6.298	6.194	6.094	6.694	7.062	7.504	8.085	8.892	9.749	9.454	10.45	10.35	11.02	10.82	10.52	9.970	9.397	8.996	8.665
345.0	2569	4081	4997	4437	2990	1839	1430	1381	1461	1645	1893	2124	2213	2107	1841	1486	1181	1008	684.2	418.7	319.9	287.3	353.7	1579	6392	3422	54.43	8.137	4.896	4.065	2.974	2.482	2.281	1.873	1.893	1.733	1.775	1.777	1.853	2.017	2.124	2.285	2.810	3.694	4.984	6.842	8.543	11.56	13.54	12.75	12.59	13.90	11.79	9.776	7.521	6.500	6.011	5.857	6.280	6.259	6.330	6.783	6.941	7.667	8.077	8.332	9.151	9.684	9.942	10.37	11.04	10.34	10.11	10.14	9.383	8.785	8.406
350.0	2425	3785	4720	4285	3044	1914	1450	1388	1444	1596	1799	1983	2071	1983	1750	1437	1131	902.3	763.7	555.4	361.4	283.0	232.9	451.9	1824	4322	4681	1204	19.53	5.204	3.603	2.887	2.397	2.007	1.956	1.871	1.714	1.602	1.737	1.828	1.897	2.216	2.805	3.388	4.580	6.479	8.010	10.46	12.39	12.14	12.32	13.53	11.78	10.05	7.771	6.502	6.265	5.921	6.232	6.129	6.283	6.471	7.014	7.552	7.658	7.964	8.545	8.923	9.183	9.893	10.09	9.856	9.755	9.854	8.952	8.383	7.808
355.0	2200	3410	4230	4005	2950	1971	1512	1426	1459	1574	1719	1849	1912	1843	1661	1384	1108	873.1	703.3	667.6	488.6	326.6	244.8	230.7	484.1	1047	3214	6780	402.3	21.99	5.485	3.744	2.609	2.329	1.981	1.839	1.803	1.702	1.782	1.823	1.988	2.213	2.613	3.278	4.246	5.639	7.150	9.600	11.07	11.14	11.18	12.43	11.30	9.808	7.742	6.600	6.481	6.291	6.366	6.306	6.319	6.402	6.449	7.151	7.341	8.224	8.099	8.273	8.793	8.897	9.226	9.155	9.014	9.049	8.776	8.318	7.866
360.0	2027	3157	3817	3644	2785	1941	1525	1450	1482	1566	1663	1759	1794	1728	1567	1329	1082	854.7	687.9	627.2	587.1	395.2	269.6	206.2	209.4	300.1	859.6	4811	6180	356.2	12.36	4.826	3.576	2.777	2.311	2.048	1.707	1.586	1.765	1.834	1.969	1.959	2.575	3.016	4.179	5.194	6.628	8.628	9.682	10.00	10.36	11.24	10.09	9.345	7.822	6.593	6.593	6.419	6.515	6.661	6.501	6.861	6.787	6.983	7.104	7.745	8.025	7.957	8.747	8.579	9.134	8.706	8.561	8.458	8.502	7.891	7.239
365.0	1870	2799	3486	3278	2624	1908	1542	1476	1500	1563	1625	1681	1699	1625	1478	1270	1054	852.3	700.2	599.3	589.3	499.1	316.2	224.3	172.7	153.3	251.4	1396	5933	3222	50.97	8.565	4.648	3.202	2.285	2.128	2.081	1.944	1.661	1.765	2.002	1.895	2.363	2.727	3.628	4.693	5.846	8.223	8.969	8.628	9.278	10.77	9.661	9.063	7.724	6.483	6.362	6.634	6.315	6.303	6.294	6.762	7.149	7.073	7.222	7.353	7.145	7.715	7.798	8.021	8.393	7.947	8.055	8.186	7.910	7.682	7.411
370.0	1630	2444	3003	2977	2466	1889	1575	1501	1507	1563	1600	1618	1611	1525	1393	1213	1032	862.4	717.6	617.9	556.2	544.9	444.7	293.3	210.4	162.2	155.3	385.6	1709	4241	4556	1108	20.02	5.822	3.292	2.683	2.152	2.024	1.872	1.814	1.980	1.891	2.214	2.729	3.325	4.276	5.147	7.040	7.656	7.774	8.165	9.917	9.064	8.893	7.492	6.584	6.469	6.647	6.391	6.576	6.667	6.516	6.975	7.155	6.956	7.321	7.091	7.388	7.507	7.538	7.734	7.402	7.668	7.607	7.280	7.223	6.841
375.0	1485	2160	2663	2709	2357	1882	1619	1544	1531	1570	1607	1599	1606	1475	1323	1161	1011	864.7	748.5	654.3	581.3	535.1	532.9	431.8	290.8	226.7	201.1	224.6	477.4	1063	3318	6350	351.0	22.81	5.186	3.360	2.647	2.265	1.944	2.035	1.803	1.911	2.252	2.844	3.240	4.113	4.908	5.988	6.724	7.009	7.484	9.070	8.418	8.197	7.505	6.609	6.505	6.709	6.754	6.634	6.739	6.980	6.738	7.130	7.446	7.293	6.895	7.082	7.249	7.389	7.640	7.188	7.223	7.104	7.135	6.969	6.644
380.0	1370	1998	2410	2511	2262	1913	1636	1558	1537	1584	1621	1603	1601	1449	1281	1131	1001	872.3	767.7	686.0	610.9	560.4	536.7	534.9	388.0	290.5	264.9	237.1	242.1	352.2	984.9	4711	5418	299.8	11.70	4.675	3.286	2.771	2.104	1.949	1.919	1.953	2.145	2.447	3.113	3.830	4.554	5.672	6.118	6.355	6.791	7.940	8.129	8.127	7.453	6.468	6.710	6.458	6.761	6.649	6.707	7.015	6.760	7.427	7.327	7.505	7.075	7.007	7.371	7.700	7.817	7.058	6.796	6.914	6.579	6.902	6.314
385.0	1268	1828	2267	2364	2210	1904	1651	1561	1563	1598	1624	1587	1596	1430	1254	1110	989.2	881.3	796.6	715.1	662.1	607.3	563.3	564.6	501.6	368.1	321.4	280.9	225.0	221.3	373.8	1465	5259	2682	41.63	8.084	4.726	3.263	2.336	1.973	1.974	1.998	2.186	2.467	3.070	3.643	4.067	5.213	5.604	5.598	6.624	7.665	7.612	7.867	7.378	6.750	6.949	6.688	6.535	6.738	6.895	6.840	7.033	7.433	7.451	7.183	6.788	7.220	7.566	7.345	7.328	7.133	6.869	6.799	6.338	6.436	6.724
390.0	1209	1708	2060	2188	2103	1886	1697	1608	1572	1603	1638	1593	1574	1437	1257	1122	1017	923.2	856.6	806.0	759.5	714.0	665.4	625.5	602.7	522.9	418.0	349.9	277.2	235.9	258.4	467.1	1563	3553	3578	856.8	17.11	5.567	3.281	2.487	2.216	2.089	2.112	2.480	2.953	3.464	3.939	4.932	5.539	5.517	5.910	7.128	7.480	7.586	7.262	7.025	7.127	6.957	7.044	6.741	6.934	6.705	6.889	7.277	7.182	6.896	6.854	6.969	6.982	7.354	6.936	6.812	6.754	6.571	6.415	6.458	6.600
395.0	1155	1596	1988	2055	2052	1918	1752	1653	1633	1656	1719	1671	1650	1510	1328	1188	1094	1002	959.3	928.3	913.0	890.6	849.4	793.3	730.1	697.0	623.6	473.8	395.6	338.3	313.2	307.1	472.1	911.3	2733	4903	290.3	18.95	5.234	3.291	2.608	2.280	2.239	2.401	2.987	3.492	3.685	4.941	5.537	5.269	5.687	6.936	7.287	7.534	7.549	7.131	7.267	7.334	6.981	6.845	7.049	6.536	7.178	7.027	7.178	6.851	7.178	7.067	6.963	7.536	7.098	6.902	7.074	6.510	6.698	6.681	6.385
400.0	1122	1499	1902	2002	2041	1944	1825	1725	1709	1739	1823	1803	1793	1630	1435	1280	1168	1089	1055	1045	1050	1041	1010	958.6	883.6	821.7	797.6	662.6	526.3	448.2	409.4	340.8	284.2	325.6	812.6	3783	4080	244.5	11.21	4.237	3.152	2.572	2.421	2.725	3.160	3.481	3.764	4.901	5.381	5.291	5.428	7.002	7.260	7.434	7.609	7.355	7.480	7.334	7.242	7.171	7.210	7.228	7.440	7.252	7.468	7.240	7.430	7.220	7.396	7.628	7.513	7.117	7.047	6.908	6.987	6.831	6.888
405.0	1141	1461	1802	1949	2037	1956	1871	1772	1777	1824	1927	1933	1920	1754	1539	1379	1246	1162	1127	1143	1154	1165	1146	1107	1025	941.1	913.6	834.5	666.9	568.1	511.1	420.9	294.7	236.9	301.9	1181	4133	2289	37.27	6.629	3.778	3.176	2.619	2.689	3.026	3.520	3.874	4.542	5.184	4.919	5.375	6.716	6.965	7.168	7.412	7.009	7.923	7.678	7.182	7.331	7.445	7.623	7.407	7.410	7.703	7.488	7.761	7.272	7.748	7.715	7.592	7.252	7.322	6.943	6.741	6.518	6.927
410.0	1065	1417	1730	1899	2005	1968	1927	1836	1826	1885	1999	2004	1990	1829	1617	1429	1295	1190	1168	1196	1222	1243	1241	1207	1131	1045	979.3	919.1	805.4	672.7	588.1	480.1	347.7	259.2	220.3	374.9	1256	2851	2861	727.4	12.88	3.823	3.072	2.956	3.091	3.514	3.771	4.805	4.889	4.779	5.307	6.797	6.957	7.163	7.436	7.184	7.695	7.568	7.546	7.625	7.083	7.762	7.407	7.325	7.621	7.619	7.439	7.303	7.541	7.827	7.593	7.478	7.358	6.947	6.913	6.908	6.761
415.0	1004	1366	1646	1814	1943	1984	1951	1856	1811	1871	1949	1968	1924	1792	1595	1423	1286	1190	1168	1202	1228	1257	1259	1230	1154	1074	990.0	907.5	832.6	740.9	614.7	496.0	370.7	277.1	211.7	198.7	353.1	710.9	2130	3682	259.4	12.80	3.867	3.339	3.368	3.479	3.762	4.647	4.914	4.727	5.322	6.641	6.876	7.233	7.519	7.531	7.896	7.918	7.575	7.599	7.144	7.101	7.226	7.534	7.328	7.328	7.143	7.306	7.256	7.174	7.150	7.080	6.999	7.038	6.868	7.178	6.751
420.0	1032	1329	1593	1784	1909	1980	1994	1883	1822	1818	1897	1899	1850	1723	1547	1386	1266	1178	1163	1191	1222	1244	1254	1223	1155	1073	981.9	893.1	806.6	756.5	639.8	502.5	376.0	282.1	212.5	163.2	154.0	199.2	589.0	2807	3134	217.5	6.888	3.708	3.651	3.570	3.922	4.459	4.745	4.493	5.259	6.330	6.847	7.055	7.602	7.474	8.121	7.859	7.948	7.649	7.499	7.306	7.175	7.252	6.858	7.190	6.728	7.058	7.147	7.033	6.893	6.977	6.832	6.560	6.371	6.833	6.862
425.0	1024	1300	1583	1792	1919	2039	2065	1944	1827	1789	1853	1853	1808	1693	1514	1364	1247	1180	1161	1191	1222	1244	1247	1223	1157	1069	991.3	896.4	802.4	748.1	673.5	526.0	391.4	293.8	222.3	161.9	113.6	89.46	156.8	839.0	3096	2041	33.39	5.155	3.950	3.531	3.775	4.282	4.609	4.692	5.143	6.499	6.684	7.123	7.542	7.597	8.295	8.245	7.963	7.681	7.427	7.460	7.160	7.034	6.687	6.943	6.693	6.829	6.526	6.965	6.704	6.681	6.175	6.657	6.124	6.596	6.766
430.0	1057	1314	1560	1787	1985	2165	2217	2085	1906	1815	1837	1834	1783	1686	1512	1376	1256	1186	1176	1190	1216	1225	1237	1219	1156	1082	1004	919.5	826.1	755.3	694.1	585.5	433.3	324.9	247.5	179.6	120.2	74.86	65.66	206.4	895.0	2189	2333	630.0	12.13	4.330	4.147	4.597	4.891	4.510	5.015	6.431	6.815	7.566	7.820	8.085	8.801	8.925	8.873	8.187	7.953	7.736	7.320	6.783	6.782	6.786	6.362	6.736	6.365	6.865	6.687	6.815	6.505	6.781	6.212	6.716	6.510
435.0	1408	1363	1577	1802	2099	2307	2429	2286	2022	1823	1799	1811	1748	1658	1499	1366	1258	1182	1169	1171	1179	1185	1196	1182	1131	1067	999.9	929.0	836.6	770.2	690.8	602.7	487.3	356.8	270.4	199.7	134.9	82.32	51.82	68.90	214.5	521.8	1647	3111	244.7	13.89	5.022	5.037	4.979	4.590	5.162	6.678	7.133	8.023	8.416	8.896	9.685	9.839	9.688	8.942	8.360	8.059	7.554	7.233	6.978	6.777	6.694	6.494	6.306	6.767	6.691	6.435	6.639	6.707	6.213	6.392	6.338
440.0	1848	1427	1564	1801	2142	2435	2571	2413	2064	1807	1749	1740	1684	1601	1466	1349	1247	1162	1147	1150	1138	1129	1137	1131	1083	1034	965.0	903.1	826.8	757.4	679.0	593.1	495.7	378.9	280.5	209.1	142.3	88.32	53.70	41.44	65.44	129.6	447.6	2336	2041	208.8	8.316	5.527	5.183	4.872	5.399	6.544	7.472	8.102	8.851	9.162	10.57	10.73	10.40	9.859	8.683	8.156	7.783	7.199	6.728	6.297	6.450	6.383	6.182	6.506	6.439	6.366	6.415	6.367	6.165	6.455	6.334
445.0	2148	1687	1548	1812	2185	2531	2675	2508	2099	1773	1669	1649	1600	1519	1402	1302	1209	1135	1118	1105	1073	1059	1072	1058	1024	980.8	914.3	861.5	792.8	733.7	656.1	563.5	474.9	391.9	286.3	208.7	147.0	91.70	57.72	38.56	34.69	43.57	111.3	691.6	2535	1890	29.66	6.684	5.431	5.097	5.560	6.770	7.764	8.031	8.698	9.783	10.76	11.22	10.73	9.943	8.980	8.312	7.704	6.719	6.107	6.095	6.256	6.156	5.866	6.273	5.905	5.999	6.228	6.316	6.106	6.259	6.575
450.0	1771	2460	1672	1787	2181	2573	2749	2564	2084	1694	1536	1502	1458	1398	1298	1219	1137	1084	1063	1033	989.3	959.3	965.0	952.1	928.7	890.9	838.8	792.3	738.1	687.2	618.4	529.2	440.0	371.0	295.6	212.0	145.9	95.12	61.56	41.71	31.51	27.18	38.06	165.1	733.0	1935	2079	591.0	12.42	5.325	5.477	6.921	7.522	8.277	9.014	9.825	11.02	11.25	10.94	10.27	9.492	8.216	7.422	6.769	5.926	5.842	5.553	5.788	5.733	5.675	5.717	5.798	6.072	5.984	5.688	5.958	6.162
455.0	1158	2829	2238	1754	2124	2513	2762	2529	2020	1588	1393	1337	1334	1275	1194	1126	1059	1005	990.1	954.0	890.6	862.1	853.5	846.3	828.0	796.5	757.3	723.4	678.4	637.5	576.3	494.7	409.4	337.1	285.1	222.9	149.3	98.16	66.60	45.64	33.55	25.96	23.68	48.77	173.2	458.0	1301	2579	205.6	13.17	5.633	6.794	7.559	8.506	9.031	9.919	10.52	11.48	11.04	10.37	9.211	8.203	7.341	6.065	5.806	5.159	5.118	5.060	5.224	5.255	5.226	5.273	5.363	5.436	5.841	5.411	5.677
460.0	882.1	2268	2984	1773	2029	2417	2681	2456	1957	1511	1304	1246	1225	1174	1110	1049	991.2	946.5	927.6	888.2	817.7	780.4	773.6	768.5	756.3	726.6	698.8	667.4	631.0	595.5	542.1	464.8	391.2	317.3	264.9	219.9	156.1	100.5	69.38	49.06	36.56	28.06	22.71	24.08	49.66	111.8	337.9	1735	1682	164.4	9.870	6.843	7.351	8.254	8.803	9.529	10.72	11.29	10.79	10.11	9.087	7.683	7.022	6.143	5.497	5.031	4.936	4.746	4.932	4.990	4.829	5.170	5.138	5.099	5.436	5.318	5.427
465.0	796.1	1558	3395	2145	1932	2334	2565	2369	1853	1417	1211	1167	1136	1082	1034	978.3	926.2	883.7	862.7	820.3	745.3	702.8	700.1	700.4	688.9	667.5	640.7	616.7	589.8	555.3	508.7	442.5	368.7	301.6	246.9	207.6	160.2	105.7	70.09	50.87	38.63	29.33	23.84	20.40	23.28	35.64	84.71	489.4	1856	1416	136.0	8.482	7.179	7.999	8.387	8.969	10.51	10.94	9.974	9.403	8.937	7.483	6.466	5.606	5.074	4.672	4.594	4.582	4.375	4.725	4.584	4.886	4.675	5.008	5.080	4.927	4.921
470.0	753.8	1106	2499	3100	1943	2135	2341	2163	1684	1275	1075	1034	998.6	959.1	910.5	868.2	823.9	786.3	763.8	721.4	647.3	608.5	600.2	604.9	595.0	579.7	560.4	541.1	518.5	493.4	454.7	397.2	333.6	273.3	223.9	181.5	146.9	112.2	74.09	51.92	40.76	31.77	25.85	21.66	18.90	19.84	29.00	118.3	519.0	1288	1463	524.9	14.50	7.840	8.138	8.171	10.04	9.892	9.470	8.824	8.155	6.762	6.007	5.237	4.587	4.272	4.011	4.199	4.063	4.215	4.251	4.403	4.142	4.719	4.302	4.613	4.892
475.0	716.4	915.6	1421	3301	2560	1909	2082	1924	1494	1107	942.0	891.2	860.4	825.0	792.2	754.6	717.5	683.3	660.1	618.4	554.1	512.5	505.9	505.4	502.3	489.0	475.1	462.7	448.5	426.7	396.5	347.4	294.9	245.3	196.9	160.8	128.3	105.0	80.47	54.81	41.33	32.72	26.72	22.81	19.49	17.06	17.76	36.04	123.6	299.2	731.9	1683	211.9	17.73	7.516	7.869	8.803	8.694	8.985	8.163	7.061	6.282	5.426	4.706	3.856	3.819	3.729	3.472	3.622	3.877	3.501	3.724	3.824	3.952	3.945	3.925	4.458
480.0	696.7	825.6	1011	2505	3366	1827	1906	1764	1369	1004	845.3	807.5	778.4	740.4	702.0	672.6	646.3	613.5	591.7	553.9	488.8	450.3	444.8	443.7	436.9	428.3	419.6	408.3	398.9	378.0	352.2	312.1	265.4	222.0	183.1	147.7	116.4	92.07	79.61	60.23	42.71	33.09	28.26	23.41	19.81	17.27	15.33	18.06	35.75	73.80	182.1	926.1	1547	202.3	12.79	7.184	7.931	8.278	8.029	7.338	6.324	5.579	5.007	4.412	3.618	3.477	3.596	3.357	3.222	3.535	3.426	3.306	3.166	3.641	3.791	3.699	3.657
485.0	596.9	747.1	877.3	1613	3679	2166	1749	1627	1257	919.3	772.7	736.0	705.3	661.3	636.4	609.0	587.4	555.7	533.3	498.3	439.8	400.9	396.5	394.8	387.6	384.4	377.2	368.2	358.2	345.7	318.2	282.7	243.3	205.3	168.1	136.9	108.1	85.19	74.35	64.73	46.04	34.11	28.81	23.88	20.35	17.63	15.48	14.48	16.40	23.49	46.99	244.5	1163	1449	164.1	8.978	7.710	7.651	7.288	6.740	6.033	5.343	4.317	4.031	3.462	3.205	3.364	3.012	3.304	3.170	2.955	3.068	3.103	3.481	3.363	3.451	3.493
490.0	502.1	720.5	796.9	1071	2621	3193	1735	1427	1107	824.3	686.4	650.3	617.1	588.1	557.9	538.2	513.2	485.7	471.7	435.2	379.5	347.8	342.0	342.2	335.6	333.4	328.0	322.8	314.5	303.3	282.6	251.7	216.9	182.8	152.8	124.6	100.6	78.41	65.77	59.42	51.52	37.63	29.63	24.73	21.44	18.28	16.18	13.90	12.55	12.61	16.80	60.72	302.0	879.8	1267	542.4	17.36	7.404	6.653	6.195	5.466	4.810	4.106	3.601	3.184	2.957	2.911	2.809	2.784	2.791	2.746	2.822	2.839	2.986	3.066	3.117	3.268
495.0	406.0	642.9	727.8	846.2	1439	3329	2289	1248	965.2	729.2	609.3	569.6	534.5	507.2	483.0	462.2	440.1	421.7	404.2	371.2	324.3	298.2	289.3	292.2	289.9	286.0	279.8	278.5	272.9	262.4	247.4	220.1	189.4	162.2	136.9	111.7	90.40	72.25	58.14	51.53	49.63	43.02	31.20	24.74	22.06	18.74	16.44	14.61	12.04	10.69	10.36	19.88	73.06	203.1	553.2	1471	785.0	21.78	6.460	5.667	4.981	4.524	3.739	3.323	2.819	2.634	2.533	2.411	2.649	2.588	2.416	2.571	2.568	2.723	2.637	2.602	2.920
500.0	370.9	554.8	658.7	734.6	991.8	2414	3117	1215	857.8	651.5	547.3	512.6	485.7	454.5	431.6	410.6	384.2	372.4	356.8	325.1	285.6	261.3	252.7	252.3	252.8	252.1	245.2	245.4	239.8	235.2	217.8	196.4	168.6	145.6	122.9	103.2	84.43	66.80	54.82	46.79	44.10	43.12	34.92	25.74	21.39	18.94	16.85	14.25	12.61	10.19	9.272	10.74	22.17	50.52	134.1	697.3	1569	232.9	16.22	5.428	4.700	3.963	3.236	3.023	2.563	2.494	2.519	2.247	2.468	2.475	2.426	2.310	2.547	2.397	2.452	2.388	2.487
505.0	328.3	468.7	611.2	671.2	811.3	1460	3473	1540	775.0	583.2	484.5	459.2	431.6	406.1	384.1	362.8	345.2	330.9	313.3	288.4	251.6	229.0	223.7	223.2	220.5	219.9	216.0	215.7	213.0	207.6	195.0	176.0	153.1	130.9	111.6	94.47	77.73	62.12	51.49	43.77	39.08	38.98	36.61	28.11	22.39	18.77	16.96	14.33	12.49	10.51	8.990	8.723	10.45	16.67	35.11	174.3	888.7	1350	201.2	9.154	4.561	3.727	3.072	2.567	2.380	2.170	2.165	2.173	2.087	2.174	2.169	2.163	2.089	2.330	2.099	2.184	2.362
510.0	288.0	384.3	517.8	610.8	689.7	927.8	2343	2604	794.7	498.7	421.6	390.2	369.0	344.2	320.9	309.5	291.5	276.6	262.3	242.0	210.1	190.2	187.1	185.4	185.3	182.6	183.1	180.9	179.2	175.8	165.7	147.6	130.3	113.1	96.99	81.27	68.80	56.39	46.49	39.72	35.37	32.94	33.44	30.30	23.42	18.63	16.34	14.53	12.11	10.71	9.200	8.172	7.834	8.759	12.74	43.55	219.0	677.9	1021	468.2	16.76	3.627	2.887	2.390	2.233	2.038	1.942	2.020	1.813	1.854	1.869	1.786	1.895	1.907	1.865	1.866	1.970
515.0	236.8	330.0	405.1	535.3	598.3	689.6	1130	2872	1469	423.0	355.2	331.1	313.0	290.1	270.1	255.3	241.5	228.0	218.6	200.6	172.8	156.5	153.1	153.5	153.7	150.4	148.5	149.7	149.3	142.8	136.4	124.4	110.0	96.57	81.54	71.02	58.92	49.13	42.39	35.62	31.34	28.61	26.72	28.55	26.20	19.24	15.98	13.85	12.06	10.13	8.936	8.324	7.236	7.021	7.299	14.10	53.47	155.4	350.1	1020	672.5	21.70	2.897	2.247	1.927	1.862	1.853	1.771	1.579	1.735	1.773	1.573	1.809	1.540	1.768	1.659	1.685
520.0	209.1	290.3	343.2	472.0	545.9	584.8	712.7	2004	2422	471.6	313.5	290.8	278.2	254.5	235.5	223.4	208.0	199.1	186.9	171.6	149.5	136.0	131.9	132.2	132.6	129.8	127.5	129.9	127.5	125.0	119.5	108.1	97.92	84.71	71.98	63.00	52.95	44.74	38.34	33.05	29.46	25.47	23.43	24.55	26.21	21.36	15.73	12.87	11.81	9.802	8.624	8.134	7.079	6.461	6.251	7.101	16.09	38.43	83.35	421.7	1089	239.5	15.14	2.289	1.827	1.763	1.661	1.535	1.641	1.590	1.492	1.469	1.575	1.512	1.415	1.587	1.610
525.0	181.5	248.0	295.0	395.9	503.9	505.7	574.6	1061	2956	883.2	286.8	261.8	239.4	223.6	203.2	195.3	184.0	175.1	163.3	148.4	130.4	118.2	115.7	115.4	116.0	112.8	113.1	113.8	112.3	108.3	104.2	94.71	84.48	73.94	64.63	55.51	48.40	39.85	34.64	30.55	26.47	24.04	21.60	20.99	22.89	22.13	16.34	12.51	10.97	9.524	8.286	7.534	7.215	6.145	5.700	5.560	7.786	12.33	21.92	101.8	529.4	963.3	208.0	7.424	1.919	1.639	1.628	1.545	1.386	1.515	1.221	1.306	1.235	1.437	1.354	1.549	1.387
530.0	151.6	212.2	248.3	307.2	427.4	450.6	452.7	555.4	1908	2161	374.8	224.1	203.9	188.8	173.4	162.7	153.4	146.0	136.3	123.1	107.8	98.68	94.95	95.40	94.29	93.75	92.58	93.69	92.38	90.86	86.88	79.04	71.29	61.95	54.32	48.28	41.78	35.46	30.71	27.05	24.29	21.78	19.24	18.19	18.16	19.90	17.89	13.38	10.59	8.775	8.031	7.048	6.316	6.309	5.508	5.097	5.452	6.139	8.034	25.62	126.6	422.0	695.9	413.0	15.81	1.812	1.511	1.442	1.362	1.289	1.306	1.302	1.096	1.332	1.115	1.136	1.171
535.0	131.4	180.3	205.8	248.5	330.7	409.4	356.7	375.1	716.7	2580	1123	192.0	175.6	157.6	144.6	133.0	123.3	118.9	111.9	101.0	89.18	79.24	78.30	77.50	76.95	76.88	76.36	77.22	76.69	74.92	73.06	65.97	58.61	51.64	46.48	40.48	35.79	30.73	26.91	24.13	21.20	19.42	17.57	15.86	14.86	15.27	16.51	14.80	10.42	8.290	7.351	6.508	5.868	5.587	5.193	5.128	4.662	4.327	4.820	8.268	30.72	96.28	211.9	662.9	514.1	22.03	1.407	1.408	1.168	1.241	1.154	1.041	1.018	1.158	1.064	1.042	1.063
540.0	109.4	157.9	179.7	210.7	259.3	363.4	331.2	291.9	349.2	1679	1979	225.8	152.6	140.4	123.9	114.3	106.3	101.9	95.07	85.25	77.78	69.85	67.59	65.34	67.15	67.18	64.66	66.00	65.91	64.52	62.41	56.83	50.33	45.91	39.78	36.10	31.23	27.28	23.75	21.38	18.88	17.67	15.51	14.39	13.30	12.90	13.39	14.23	10.64	7.866	6.945	6.038	5.410	5.192	4.955	4.786	4.492	3.874	3.919	4.272	9.059	23.37	49.57	248.0	730.2	240.3	14.15	1.432	1.232	1.064	1.066	0.852	0.957	1.013	1.030	0.899	1.005
545.0	100.6	139.8	157.2	181.1	211.5	307.8	314.2	252.4	237.3	727.7	2714	576.9	134.6	120.4	105.5	99.75	91.15	85.59	80.31	73.76	66.04	59.93	59.13	58.11	56.74	57.02	55.85	56.61	56.14	55.32	53.37	48.34	44.37	39.62	35.15	31.75	27.40	24.14	21.00	18.96	17.22	15.77	14.33	12.97	12.01	11.04	10.93	12.61	11.47	8.243	6.582	5.597	5.129	4.755	4.518	4.516	4.279	3.861	3.305	3.083	3.987	6.875	12.80	58.68	326.0	654.9	191.1	5.867	1.269	1.002	0.987	0.912	0.978	0.806	0.889	0.850	0.871
550.0	98.68	123.7	132.8	149.1	169.6	221.6	291.1	215.4	179.8	278.1	1652	1782	162.6	98.10	88.62	82.81	74.75	70.39	65.22	60.56	53.70	49.41	47.21	46.79	45.44	45.62	45.03	45.92	45.08	45.12	43.40	39.45	35.83	32.20	28.79	25.80	22.96	20.11	17.87	16.19	14.92	13.30	12.43	11.21	10.36	9.870	9.132	9.396	10.04	8.725	6.716	5.232	4.557	4.279	4.088	3.883	3.865	3.626	2.991	2.758	2.719	3.057	4.385	14.49	76.88	270.1	462.2	233.0	14.67	1.228	0.974	0.889	0.869	0.749	0.864	0.825	0.802
555.0	90.54	105.4	114.6	125.5	132.1	159.4	230.9	201.8	137.5	148.2	513.9	2293	726.9	83.27	70.63	65.44	58.71	55.29	52.10	47.71	43.01	38.68	37.38	36.74	36.00	36.42	36.33	37.12	35.87	35.99	33.97	31.99	28.57	25.91	23.18	20.88	18.64	16.35	14.96	13.45	11.86	11.02	9.886	9.944	9.096	8.412	7.647	7.024	7.390	7.899	7.022	5.108	3.792	3.893	3.454	3.282	3.076	3.263	2.942	2.452	2.089	2.142	2.249	4.431	18.26	61.49	137.6	405.6	245.8	18.90	1.071	0.812	0.891	0.699	0.682	0.747	0.686
560.0	86.11	85.94	98.83	99.81	111.0	130.6	173.9	201.8	117.5	104.6	185.9	1455	1448	109.8	61.99	53.94	49.52	45.24	43.95	40.12	35.28	32.44	30.77	30.41	30.00	29.70	29.47	30.33	29.88	30.08	28.42	26.24	23.70	21.34	19.19	17.62	15.44	13.79	13.25	11.39	10.32	9.675	8.651	8.676	7.853	6.974	6.517	5.990	5.903	6.340	6.732	5.164	3.622	3.378	3.072	2.957	2.896	2.728	2.914	2.652	1.910	1.852	1.641	2.255	5.152	14.84	32.08	148.8	416.4	203.7	10.51	0.858	0.787	0.679	0.677	0.626	0.624
565.0	75.67	78.21	84.30	85.68	91.95	108.6	128.6	184.9	116.5	89.39	103.4	568.3	2212	327.2	53.39	45.62	41.13	39.25	36.16	32.76	29.40	26.85	25.80	25.77	25.16	24.95	24.53	25.34	24.93	25.20	23.50	22.11	19.88	18.44	16.40	14.55	13.37	11.64	11.14	9.890	8.870	8.330	7.448	7.133	6.821	6.113	5.836	5.339	5.006	4.915	5.698	5.328	3.626	3.049	2.689	2.605	2.549	2.282	2.671	2.767	1.998	1.693	1.472	1.597	2.187	4.469	8.283	35.12	182.7	394.0	134.9	3.949	0.866	0.633	0.696	0.682	0.619
570.0	70.96	74.20	74.04	75.21	73.18	82.73	93.37	136.4	132.1	77.43	77.34	186.2	1372	1310	81.21	37.61	32.44	31.03	28.86	26.35	23.21	21.27	20.97	20.33	19.80	20.02	19.71	20.38	19.30	19.92	18.70	17.61	15.77	14.64	12.85	11.83	10.63	9.458	8.874	8.280	7.538	6.985	6.145	5.793	5.573	5.197	5.038	4.316	4.066	3.662	4.218	4.504	3.854	2.987	2.454	2.259	2.305	2.087	2.209	2.187	2.197	1.657	1.471	1.454	1.533	1.976	2.925	8.804	43.20	155.4	268.5	136.2	12.73	0.855	0.672	0.561	0.585
575.0	62.22	72.42	64.52	61.93	65.80	65.61	69.56	90.88	134.8	80.04	63.27	84.29	404.0	1766	459.3	31.33	26.86	24.68	23.17	20.36	19.02	17.27	16.12	15.52	15.75	15.84	15.77	15.57	15.34	15.22	15.01	13.35	12.89	11.57	10.14	9.615	8.335	7.958	7.011	6.561	6.335	5.634	5.152	4.851	4.511	4.318	4.034	3.659	3.635	2.862	3.296	3.382	3.548	3.104	2.460	2.020	1.930	1.794	1.780	1.772	1.773	1.868	1.527	1.442	1.336	1.374	1.740	2.959	10.51	35.51	77.25	226.9	188.3	15.15	0.666	0.618	0.582
580.0	65.84	69.57	60.82	53.55	57.63	56.65	59.73	66.94	117.4	92.79	57.92	60.43	130.2	1127	1023	45.53	23.21	21.22	19.02	16.80	15.60	14.64	13.90	13.74	13.58	12.78	12.65	13.10	13.15	12.60	12.40	11.48	10.42	9.600	8.676	8.101	7.324	6.562	5.929	5.466	5.438	4.872	4.503	4.281	3.952	3.877	3.409	3.154	2.904	2.678	2.534	2.640	3.258	3.008	2.434	1.895	1.756	1.539	1.506	1.426	1.602	1.654	1.717	1.363	1.291	1.285	1.433	1.663	3.247	8.789	18.36	81.82	248.3	133.1	6.620	0.652	0.611
585.0	64.86	65.01	58.49	49.93	50.72	50.50	52.92	56.88	85.77	108.8	56.34	53.25	61.39	428.9	1589	108.4	20.40	17.95	15.08	14.80	13.25	12.02	11.82	11.41	11.47	11.12	10.62	11.08	10.94	11.10	10.12	9.694	9.085	8.211	7.519	7.002	6.592	5.634	5.339	4.955	4.764	4.405	3.963	3.494	3.622	3.421	3.117	2.825	2.504	2.272	2.148	2.195	2.299	2.651	2.600	1.734	1.797	1.500	1.471	1.231	1.425	1.564	1.658	1.454	1.314	1.154	1.158	1.232	1.584	2.705	4.987	19.48	104.6	229.7	34.63	2.490	0.553
590.0	59.31	62.42	55.83	45.95	44.26	42.47	45.65	49.53	58.76	104.6	72.09	48.08	45.71	127.8	989.2	808.5	37.72	15.07	13.12	12.57	10.61	9.631	9.236	9.230	9.162	9.030	8.660	8.627	8.986	8.760	8.175	8.021	7.305	6.430	6.058	5.783	5.411	4.700	4.266	3.923	3.675	3.608	3.448	3.043	2.946	2.684	2.608	2.312	2.163	1.993	1.845	1.721	1.777	2.073	2.359	2.026	1.619	1.307	1.307	1.288	1.267	1.273	1.372	1.505	1.289	1.088	1.051	1.098	1.212	1.414	1.951	5.059	24.64	89.55	145.8	89.91	10.58
595.0	61.76	59.67	50.76	45.02	38.36	38.04	41.09	45.14	45.47	78.65	94.87	50.34	41.61	55.14	282.8	1180	244.1	12.85	11.10	10.43	8.736	7.845	7.831	8.032	7.492	7.028	6.652	7.309	6.972	6.904	6.885	6.388	5.741	5.422	4.935	4.538	4.230	3.882	3.576	3.332	2.882	3.000	2.813	2.454	2.461	2.202	2.037	1.926	1.794	1.587	1.591	1.479	1.449	1.394	1.806	2.038	1.696	1.291	1.101	1.109	1.132	1.059	1.105	1.162	1.386	1.212	1.016	1.069	1.097	1.164	1.165	1.851	6.067	20.40	42.09	131.7	113.4
600.0	51.57	57.35	53.40	47.65	38.01	35.63	39.64	44.16	44.16	58.14	105.4	58.82	42.63	37.38	85.58	796.1	674.3	19.08	10.14	8.275	7.441	6.833	6.727	6.412	6.000	5.846	5.966	5.904	6.151	5.539	5.620	5.368	4.476	4.369	4.117	3.802	3.544	3.266	3.053	2.731	2.592	2.465	2.473	2.113	2.110	1.926	1.687	1.704	1.526	1.521	1.392	1.318	1.186	1.178	1.381	1.772	1.713	1.333	1.191	0.991	1.155	1.053	0.962	1.099	1.156	1.309	1.012	0.992	0.970	1.029	0.845	0.947	1.874	5.054	10.07	46.24	144.0
605.0	53.28	63.48	56.41	45.98	36.55	35.74	41.77	41.95	48.05	56.92	99.54	76.81	45.79	38.08	42.05	313.0	1028	69.38	8.825	7.284	6.569	6.386	5.628	5.425	5.281	5.123	5.380	5.060	4.954	4.583	4.949	4.483	3.968	3.555	3.636	3.533	3.152	2.744	2.561	2.275	2.399	2.184	2.054	1.965	1.937	1.709	1.532	1.547	1.424	1.283	1.220	1.181	1.052	1.136	1.088	1.555	1.565	1.302	1.096	0.982	1.105	0.940	0.980	1.040	1.053	1.322	1.147	1.037	1.107	1.014	0.847	0.843	1.013	1.627	2.765	11.10	58.75
610.0	61.89	67.46	58.75	46.05	42.19	39.27	44.64	50.10	56.31	64.45	90.49	107.5	65.70	49.07	39.83	98.17	704.6	486.5	16.62	6.679	5.578	5.259	5.050	4.514	4.598	4.217	4.295	4.267	4.072	3.899	4.167	3.737	3.543	3.047	2.822	2.838	2.550	2.387	2.157	1.898	1.866	1.861	1.736	1.574	1.525	1.448	1.442	1.379	1.294	1.150	1.082	1.024	1.004	0.978	0.992	1.171	1.333	1.363	1.231	0.976	1.007	0.917	0.932	0.947	1.070	1.158	1.237	1.090	1.068	1.016	0.853	0.821	0.886	0.943	1.141	2.945	14.02
615.0	64.37	71.86	58.78	49.94	44.46	41.37	47.19	51.59	58.60	67.12	81.08	112.2	84.76	55.82	45.24	46.41	222.4	813.0	75.31	6.248	4.646	4.118	4.087	3.680	3.636	3.496	3.444	3.374	3.403	3.180	3.322	3.231	2.737	2.842	2.506	2.521	2.121	2.035	1.799	1.490	1.456	1.404	1.456	1.316	1.270	1.409	1.214	1.194	1.130	0.887	0.889	0.857	0.927	0.799	0.873	0.913	1.101	1.322	1.179	0.999	0.916	0.865	0.964	0.891	0.887	0.881	1.035	1.294	1.171	0.949	0.990	0.862	0.760	0.760	0.786	1.171	3.570
620.0	62.29	71.81	61.64	58.12	42.83	41.89	45.48	51.07	57.73	65.69	75.51	101.7	96.25	58.19	42.98	34.12	73.25	605.3	411.1	8.227	4.393	3.985	3.409	3.346	3.106	3.002	2.916	2.984	2.958	2.921	2.826	2.597	2.453	2.422	2.209	1.943	1.931	1.649	1.639	1.453	1.405	1.238	1.307	1.211	1.168	1.102	1.045	1.179	0.961	0.802	0.816	0.908	0.696	0.822	0.753	0.792	0.931	1.112	1.187	1.152	0.801	0.820	0.878	0.893	0.919	0.849	0.871	0.941	1.191	1.015	0.847	0.834	0.724	0.668	0.726	0.767	1.201
625.0	63.99	74.38	59.53	50.88	45.55	43.89	45.80	51.98	57.74	62.41	73.39	90.27	104.6	61.71	46.20	32.63	37.37	258.2	686.8	37.47	4.079	3.473	3.463	2.853	2.843	2.636	2.644	2.700	2.344	2.744	2.352	2.234	2.212	2.174	1.955	1.916	1.921	1.598	1.634	1.284	1.240	1.145	1.130	1.128	0.919	1.064	0.997	1.028	0.871	0.740	0.785	0.814	0.681	0.708	0.706	0.731	0.811	0.806	1.080	0.964	0.790	0.834	0.734	0.829	0.766	0.926	0.883	0.889	1.020	1.090	0.929	0.782	0.801	0.674	0.654	0.585	0.684
630.0	64.21	72.28	68.09	52.55	43.66	42.10	45.83	51.29	55.24	61.49	70.97	80.84	99.43	76.76	48.56	33.74	28.98	76.32	538.3	317.9	7.587	2.932	2.779	2.434	2.415	2.247	2.278	2.162	2.241	2.146	2.025	1.914	1.900	1.714	1.693	1.585	1.491	1.324	1.228	1.120	1.091	0.982	0.939	0.969	0.828	0.860	0.854	0.888	0.801	0.672	0.630	0.696	0.653	0.669	0.717	0.687	0.766	0.762	0.816	0.956	0.918	0.839	0.719	0.734	0.728	0.837	0.870	0.864	0.858	0.967	0.970	0.872	0.749	0.643	0.636	0.597	0.561
635.0	62.70	71.92	65.63	56.90	45.62	42.12	45.57	48.29	50.40	62.74	69.61	79.72	83.77	85.73	54.14	35.33	27.83	28.94	170.0	601.5	52.95	2.852	2.364	2.062	2.246	2.057	1.919	1.759	1.978	1.622	1.625	1.614	1.519	1.380	1.555	1.540	1.190	1.153	1.134	1.049	0.873	0.882	0.755	0.753	0.746	0.676	0.679	0.863	0.699	0.571	0.564	0.651	0.734	0.548	0.677	0.558	0.636	0.685	0.710	0.804	0.835	0.760	0.706	0.753	0.775	0.780	0.720	0.814	0.826	0.830	0.780	0.930	0.663	0.739	0.649	0.604	0.509
640.0	67.00	73.68	74.68	56.09	48.09	42.25	48.73	50.73	52.98	64.52	70.84	78.32	77.59	89.65	57.73	36.40	28.99	19.71	47.46	489.8	258.7	3.879	2.467	2.062	2.013	1.730	1.704	1.873	1.867	1.820	1.545	1.387	1.280	1.190	1.331	1.161	1.076	0.987	0.894	0.976	0.846	0.916	0.793	0.565	0.699	0.739	0.659	0.745	0.696	0.628	0.543	0.602	0.611	0.500	0.643	0.518	0.592	0.664	0.665	0.661	0.779	0.808	0.704	0.747	0.650	0.785	0.686	0.811	0.783	0.737	0.743	0.891	0.737	0.718	0.576	0.533	0.549
645.0	71.36	78.20	71.49	55.51	47.46	41.64	49.28	48.38	52.59	61.38	68.38	77.76	73.79	82.38	64.79	38.00	29.61	17.71	17.27	230.9	494.4	19.59	2.122	1.955	1.903	1.745	1.476	1.663	1.570	1.580	1.508	1.191	1.204	1.228	1.061	1.111	1.107	0.880	0.891	0.844	0.829	0.826	0.652	0.657	0.683	0.658	0.622	0.725	0.661	0.526	0.537	0.610	0.542	0.562	0.542	0.536	0.571	0.631	0.628	0.627	0.694	0.700	0.655	0.791	0.772	0.656	0.684	0.713	0.687	0.690	0.776	0.813	0.901	0.758	0.600	0.533	0.506
650.0	72.68	83.29	79.51	59.35	46.62	41.18	47.18	47.90	49.37	56.10	64.89	75.81	72.33	73.26	70.34	39.50	30.38	18.67	10.85	70.65	527.9	65.38	2.287	1.912	1.644	1.604	1.557	1.469	1.346	1.498	1.441	1.113	1.035	1.274	1.011	0.966	0.997	0.781	0.897	0.711	0.682	0.815	0.643	0.607	0.623	0.664	0.586	0.660	0.671	0.540	0.512	0.521	0.517	0.602	0.524	0.568	0.601	0.543	0.591	0.615	0.641	0.696	0.740	0.649	0.695	0.697	0.732	0.784	0.744	0.723	0.777	0.679	0.728	0.765	0.561	0.633	0.551
