Sample:	'1
File name:	G2025070712ÈýÁúÅÅ¹µ.FD3
Run date:	'11:04:37, 07/08/2025
Operator:	Administrator
Comment:	'

Instrument
Model:	F-2700 FL Spectrophotometer
Serial number:	23B8-004
ROM Version:	4J14000 07

Instrument parameters
Measurement type:	3-D scan
Data mode:	Fluorescence
EX  Start WL:	220.0 nm
EX  End WL:	600.0 nm
EX Sampling interval:	5.0 nm
EM  Start WL:	230.0 nm
EM  End WL:	650.0 nm
EM Sampling interval:	5.0 nm
Scan speed:	12000 nm/min
EX Slit:	5.0 nm
EM Slit:	5.0 nm
PMT Voltage:	700 V
Response:	Auto 
Corrected spectra:	Off
Contour interval:	50.000

Peak integration
Integration method:	Rectangular
Sensitivity:	1
Threshold:	1.000

Peaks
No.	ApexEX/EM(nm)	Height(Data)
1	225.0/620.0	19.80
2	230.0/300.0	141.7
3	230.0/505.0	118.9
4	230.0/590.0	21.44
5	235.0/260.0	292.4
6	235.0/350.0	729.8
7	235.0/515.0	134.5
8	240.0/265.0	395.3
9	240.0/525.0	138.6
10	245.0/270.0	412.1
11	245.0/540.0	131.4
12	245.0/630.0	12.13
13	250.0/275.0	536.7
14	250.0/550.0	115.6
15	255.0/285.0	598.2
16	255.0/565.0	110.7
17	260.0/290.0	562.7
18	260.0/575.0	100.5
19	265.0/295.0	687.2
20	265.0/585.0	83.90
21	270.0/300.0	852.4
22	270.0/600.0	75.88
23	275.0/305.0	781.6
24	275.0/340.0	494.3
25	275.0/610.0	60.24
26	280.0/625.0	54.70
27	285.0/320.0	706.4
28	285.0/640.0	39.59
29	290.0/325.0	649.5
30	300.0/335.0	475.7
31	305.0/345.0	407.1
32	310.0/350.0	316.7
33	315.0/355.0	292.8
34	320.0/360.0	271.8
35	325.0/370.0	227.8
36	330.0/375.0	217.0
37	335.0/380.0	220.3
38	340.0/385.0	188.9
39	350.0/400.0	161.6
40	355.0/405.0	141.3
41	365.0/420.0	117.9
42	370.0/425.0	106.3
43	380.0/440.0	79.29
44	385.0/445.0	69.54
45	395.0/460.0	48.82
46	400.0/465.0	41.64
47	410.0/480.0	27.76
48	415.0/485.0	24.48
49	425.0/500.0	17.88
50	430.0/505.0	15.57
51	440.0/520.0	11.49
52	445.0/525.0	9.536
53	450.0/535.0	7.709
54	455.0/540.0	6.798
55	470.0/560.0	3.453
56	475.0/350.0	2.836
57	485.0/265.0	2.252
58	495.0/270.0	2.296
59	505.0/275.0	3.378
60	510.0/280.0	4.069
61	515.0/285.0	3.983
62	530.0/290.0	3.594
63	540.0/295.0	4.851
64	545.0/300.0	5.353
65	550.0/305.0	5.115
66	560.0/310.0	4.372
67	570.0/315.0	4.835
68	580.0/320.0	4.372
69	585.0/325.0	4.484

Data points
	220.0	225.0	230.0	235.0	240.0	245.0	250.0	255.0	260.0	265.0	270.0	275.0	280.0	285.0	290.0	295.0	300.0	305.0	310.0	315.0	320.0	325.0	330.0	335.0	340.0	345.0	350.0	355.0	360.0	365.0	370.0	375.0	380.0	385.0	390.0	395.0	400.0	405.0	410.0	415.0	420.0	425.0	430.0	435.0	440.0	445.0	450.0	455.0	460.0	465.0	470.0	475.0	480.0	485.0	490.0	495.0	500.0	505.0	510.0	515.0	520.0	525.0	530.0	535.0	540.0	545.0	550.0	555.0	560.0	565.0	570.0	575.0	580.0	585.0	590.0	595.0	600.0
230.0	31.21	357.4	916.0	283.5	16.09	6.003	4.589	3.425	3.477	2.985	2.556	2.718	2.110	1.855	1.443	1.393	1.155	1.091	1.011	0.847	0.787	0.772	0.712	0.622	0.594	0.618	0.563	0.498	0.536	0.565	0.510	0.474	0.461	0.437	0.432	0.364	0.391	0.386	0.381	0.360	0.344	0.401	0.398	0.328	0.320	0.322	0.639	2.034	3.276	2.358	1.005	0.389	0.252	0.269	0.255	0.271	0.249	0.278	0.270	0.266	0.287	0.273	0.293	0.280	0.266	0.309	0.280	0.308	0.285	0.289	0.252	0.294	0.266	0.284	0.302	0.306	0.316
235.0	34.49	105.7	715.4	1349	396.8	25.05	5.387	4.630	4.064	3.246	3.212	3.043	2.083	1.802	1.552	1.644	1.244	1.146	0.982	0.977	0.830	0.853	0.760	0.689	0.579	0.628	0.566	0.550	0.466	0.477	0.533	0.439	0.508	0.514	0.381	0.374	0.384	0.462	0.394	0.412	0.369	0.365	0.409	0.337	0.341	0.326	0.356	0.737	1.504	3.130	4.893	5.220	2.284	0.734	0.309	0.250	0.282	0.313	0.271	0.263	0.243	0.271	0.283	0.322	0.297	0.291	0.337	0.258	0.283	0.276	0.281	0.300	0.235	0.287	0.331	0.284	0.353
240.0	58.90	54.72	253.3	1420	1835	316.9	13.09	4.585	3.577	4.573	4.061	3.068	2.348	1.708	1.412	1.320	1.146	1.113	1.019	0.920	0.819	0.831	0.673	0.707	0.688	0.613	0.611	0.538	0.497	0.563	0.680	0.467	0.451	0.436	0.416	0.366	0.425	0.485	0.428	0.361	0.364	0.350	0.345	0.363	0.376	0.363	0.420	0.472	0.542	1.097	3.232	8.485	9.624	6.165	2.178	0.473	0.287	0.318	0.266	0.258	0.293	0.252	0.313	0.284	0.401	0.270	0.312	0.294	0.288	0.303	0.253	0.291	0.265	0.288	0.319	0.330	0.335
245.0	57.23	82.40	90.34	559.7	2371	1936	221.8	8.254	4.617	4.115	3.619	3.124	2.338	1.883	1.789	1.544	1.576	1.090	0.967	0.884	0.806	0.714	0.812	0.660	0.742	0.579	0.590	0.526	0.553	0.599	0.625	0.517	0.494	0.409	0.384	0.349	0.493	0.479	0.421	0.400	0.380	0.377	0.370	0.374	0.341	0.512	0.506	0.462	0.359	0.470	0.966	3.235	7.875	13.18	11.97	5.863	1.451	0.345	0.263	0.281	0.284	0.350	0.289	0.281	0.324	0.289	0.305	0.261	0.293	0.281	0.295	0.300	0.284	0.285	0.310	0.303	0.338
250.0	37.34	81.08	157.5	191.3	861.5	2377	2376	714.0	32.49	5.106	3.781	3.812	2.616	2.549	1.880	1.470	1.638	1.233	1.027	0.992	0.754	0.878	0.800	0.806	0.662	0.656	0.598	0.518	0.576	0.583	0.529	0.519	0.442	0.396	0.402	0.414	0.429	0.357	0.378	0.403	0.343	0.354	0.362	0.369	0.346	0.433	0.422	0.595	0.747	0.681	0.594	1.014	2.164	4.696	8.583	12.63	15.03	11.91	5.819	1.425	0.385	0.317	0.272	0.294	0.314	0.294	0.305	0.306	0.305	0.321	0.299	0.292	0.294	0.286	0.295	0.333	0.317
255.0	31.29	35.59	152.8	270.8	262.3	656.8	2537	3807	274.2	25.77	5.868	4.645	3.421	2.802	2.285	1.710	1.418	1.230	1.289	1.243	0.807	0.868	0.764	0.649	0.624	0.652	0.578	0.638	0.512	0.628	0.515	0.570	0.498	0.355	0.429	0.391	0.385	0.466	0.438	0.429	0.383	0.423	0.386	0.392	0.368	0.389	0.273	0.388	0.536	0.830	1.217	1.188	1.073	1.407	2.258	3.331	6.740	15.63	23.72	19.39	8.260	1.458	0.380	0.321	0.309	0.278	0.302	0.333	0.295	0.341	0.297	0.274	0.325	0.293	0.301	0.315	0.359
260.0	30.84	24.19	70.74	292.4	277.5	189.8	868.5	3830	2218	216.7	13.70	5.225	3.830	2.994	2.472	2.034	1.678	1.372	1.259	1.225	0.941	0.791	0.811	0.858	0.714	0.574	0.709	0.642	0.529	0.631	0.613	0.534	0.510	0.479	0.491	0.417	0.457	0.380	0.399	0.374	0.353	0.462	0.416	0.416	0.385	0.396	0.369	0.341	0.369	0.452	0.949	1.684	1.733	1.072	0.885	1.004	1.921	4.661	12.32	23.10	27.94	18.48	5.639	0.789	0.311	0.289	0.298	0.312	0.348	0.350	0.294	0.246	0.281	0.298	0.346	0.318	0.347
265.0	28.68	24.13	28.56	163.5	395.3	203.7	233.1	1476	4632	1887	158.6	7.737	5.085	3.757	2.782	2.422	1.708	1.355	1.253	1.272	1.057	0.966	0.968	0.853	0.741	0.626	0.668	0.642	0.629	0.631	0.558	0.518	0.482	0.458	0.507	0.430	0.466	0.391	0.352	0.346	0.419	0.416	0.417	0.373	0.345	0.338	0.324	0.336	0.319	0.291	0.490	1.028	2.073	2.252	1.474	0.707	0.788	1.352	3.237	7.672	18.34	31.59	28.49	14.84	3.017	0.460	0.393	0.356	0.335	0.374	0.325	0.263	0.326	0.332	0.329	0.276	0.292
270.0	29.73	23.07	22.94	58.23	231.5	412.1	248.0	380.5	1691	4020	3769	634.5	25.41	5.117	3.717	2.751	1.989	1.693	1.325	1.279	1.220	0.995	0.890	0.793	0.771	0.696	0.689	0.698	0.692	0.693	0.589	0.543	0.573	0.449	0.506	0.435	0.500	0.440	0.387	0.362	0.398	0.368	0.461	0.390	0.371	0.344	0.303	0.353	0.312	0.303	0.363	0.527	0.876	1.453	2.191	2.296	1.836	1.090	1.094	2.082	4.669	9.935	16.84	25.23	27.85	20.22	11.13	2.849	0.475	0.344	0.392	0.308	0.336	0.327	0.320	0.334	0.333
275.0	35.93	38.87	34.57	35.28	76.17	233.8	536.7	284.1	420.2	1085	3980	6022	803.1	17.99	5.195	3.139	2.440	1.839	1.453	1.679	1.197	1.066	0.921	1.011	0.743	0.744	0.731	0.695	0.739	0.651	0.711	0.544	0.557	0.551	0.525	0.457	0.479	0.475	0.467	0.346	0.404	0.402	0.433	0.417	0.430	0.401	0.399	0.408	0.326	0.356	0.304	0.397	0.517	0.594	0.896	1.552	2.863	3.378	2.120	1.132	1.436	2.582	4.183	6.273	9.796	20.57	37.85	29.83	16.02	2.679	0.498	0.336	0.285	0.352	0.397	0.355	0.310
280.0	44.06	50.83	53.90	41.86	44.46	98.04	409.2	546.0	204.7	299.3	1260	5743	5131	131.7	10.22	4.374	2.974	2.516	1.707	1.692	1.313	1.050	1.182	0.821	0.837	0.943	0.734	0.635	0.743	0.636	0.645	0.624	0.604	0.538	0.540	0.488	0.498	0.518	0.448	0.418	0.445	0.381	0.393	0.362	0.430	0.444	0.429	0.440	0.482	0.401	0.385	0.394	0.418	0.447	0.491	0.756	1.495	2.657	4.069	3.006	1.331	1.063	1.419	1.874	2.622	5.658	15.08	30.79	42.50	27.05	9.783	1.079	0.395	0.357	0.341	0.311	0.358
285.0	50.09	70.60	71.20	55.06	47.22	56.55	180.4	598.2	310.2	153.2	357.1	1988	6497	3689	90.92	5.887	3.971	2.847	1.845	1.662	1.478	1.442	1.042	1.000	0.808	0.958	0.812	0.741	0.715	0.640	0.710	0.629	0.659	0.623	0.623	0.545	0.540	0.578	0.471	0.443	0.416	0.398	0.387	0.383	0.443	0.512	0.505	0.501	0.485	0.450	0.409	0.490	0.374	0.453	0.410	0.625	0.737	1.164	2.476	3.983	3.770	1.829	1.007	1.011	1.148	1.924	4.041	8.810	20.39	37.11	34.78	21.32	4.948	0.564	0.428	0.332	0.280
290.0	61.19	87.88	99.58	79.18	60.20	56.18	91.98	265.7	562.7	438.7	208.4	543.9	2123	4711	3253	371.9	15.18	3.936	2.705	2.164	1.761	1.432	1.200	1.118	0.960	1.046	0.882	0.753	0.725	0.816	0.826	0.604	0.637	0.686	0.657	0.561	0.548	0.520	0.509	0.513	0.455	0.427	0.401	0.414	0.443	0.537	0.476	0.533	0.635	0.522	0.485	0.559	0.460	0.511	0.493	0.574	0.599	0.771	1.131	1.770	2.774	3.553	3.594	2.417	1.363	1.225	1.577	2.667	5.332	10.38	16.93	26.32	28.86	27.22	14.02	4.352	0.668
295.0	75.13	98.39	124.1	107.4	75.09	72.02	82.25	130.3	270.1	687.2	516.2	261.0	570.0	1218	3389	4869	478.9	10.30	3.752	2.566	2.148	1.825	1.385	1.335	1.059	1.081	0.980	0.719	0.942	0.754	0.880	0.732	0.684	0.666	0.729	0.573	0.574	0.523	0.554	0.519	0.412	0.477	0.424	0.454	0.454	0.542	0.474	0.583	0.734	0.599	0.562	0.631	0.658	0.553	0.556	0.555	0.665	0.772	0.819	0.923	1.205	1.643	2.642	4.286	4.851	2.746	1.400	1.362	2.038	3.059	4.368	6.517	8.402	17.37	34.01	34.66	20.59
300.0	73.11	107.1	141.7	122.2	91.24	83.53	95.40	115.1	173.8	431.5	852.4	386.0	255.2	356.3	1027	4561	3939	77.93	6.183	3.417	2.372	1.973	1.457	1.464	1.091	1.181	1.021	0.862	0.893	0.833	0.902	0.713	0.639	0.673	0.631	0.648	0.636	0.573	0.490	0.447	0.445	0.476	0.432	0.462	0.405	0.511	0.551	0.596	0.694	0.692	0.630	0.702	0.723	0.643	0.677	0.613	0.749	0.747	0.834	0.891	0.901	1.144	1.554	2.362	4.076	5.353	3.604	1.771	1.393	1.455	1.698	2.191	2.556	4.717	11.06	24.76	40.80
305.0	70.88	120.6	135.9	130.6	106.5	101.1	120.8	141.5	179.8	288.6	689.8	781.6	282.5	194.1	311.0	1531	4977	2866	57.44	4.477	2.944	2.172	1.754	1.537	1.356	1.126	1.137	1.044	0.793	0.707	0.869	0.783	0.688	0.732	0.601	0.685	0.639	0.504	0.507	0.436	0.472	0.439	0.456	0.428	0.406	0.457	0.522	0.589	0.681	0.703	0.627	0.781	0.727	0.716	0.712	0.717	0.780	0.811	0.991	0.981	1.033	1.199	1.209	1.548	2.451	3.836	5.115	4.615	2.373	1.512	1.165	1.376	1.405	1.951	3.152	6.670	15.94
310.0	78.02	113.0	146.8	141.1	120.7	122.7	142.3	174.5	218.2	284.7	433.8	731.3	680.1	286.7	189.6	430.2	1600	3514	2417	267.9	11.74	3.020	2.061	1.629	1.464	1.270	1.179	0.949	0.867	0.844	0.754	0.779	0.739	0.710	0.624	0.616	0.582	0.603	0.540	0.458	0.502	0.471	0.471	0.436	0.456	0.433	0.564	0.614	0.627	0.722	0.726	0.814	0.787	0.756	0.744	0.765	0.907	0.955	1.088	1.095	1.271	1.353	1.483	1.698	2.024	2.287	3.008	3.966	4.372	4.057	2.624	1.738	1.330	1.482	1.693	2.283	4.378
315.0	75.32	124.2	155.7	153.0	136.9	135.6	164.3	200.5	244.0	310.9	374.5	464.4	669.1	635.5	237.2	203.8	438.1	901.4	2447	3785	371.4	8.328	2.820	2.096	1.568	1.414	1.267	1.084	1.065	0.880	0.761	0.710	0.798	0.797	0.574	0.691	0.559	0.572	0.502	0.459	0.496	0.517	0.424	0.450	0.470	0.480	0.593	0.630	0.652	0.692	0.596	0.770	0.800	0.831	0.786	0.886	0.977	1.017	1.229	1.195	1.258	1.418	1.661	1.784	1.894	2.129	2.272	2.513	2.798	3.799	4.835	4.338	2.503	1.584	1.518	1.414	1.969
320.0	79.18	134.7	178.5	175.5	157.5	149.2	175.9	215.6	265.2	328.7	380.5	418.6	482.6	706.4	453.8	184.5	196.1	271.8	717.2	3308	3101	60.74	5.215	2.546	2.217	1.628	1.521	1.158	1.123	0.811	0.866	0.834	0.759	0.861	0.700	0.704	0.625	0.498	0.532	0.436	0.506	0.499	0.532	0.469	0.482	0.500	0.543	0.731	0.737	0.830	0.793	0.879	0.838	0.872	0.852	0.846	1.020	1.203	1.287	1.263	1.307	1.529	1.707	1.793	2.055	2.218	2.197	2.353	2.356	2.598	3.332	4.344	4.372	3.061	1.894	1.427	1.458
325.0	103.3	186.7	264.0	258.7	198.2	171.5	190.6	231.2	283.5	352.1	407.0	438.5	436.1	532.7	649.5	293.5	161.6	143.9	211.9	1056	3579	2324	47.24	3.824	2.434	1.923	1.576	1.361	0.992	0.957	0.958	0.887	0.859	0.731	0.651	0.749	0.658	0.609	0.552	0.508	0.441	0.527	0.522	0.474	0.553	0.635	0.651	0.928	0.930	1.035	0.956	1.156	1.056	0.903	0.981	0.913	1.115	1.260	1.266	1.251	1.453	1.701	1.623	1.926	2.168	2.229	2.352	2.256	2.413	2.520	2.503	2.937	3.923	4.484	3.724	2.117	1.509
330.0	135.1	247.0	422.5	459.9	315.1	219.4	211.9	252.4	306.1	374.2	434.9	477.0	469.3	449.9	512.7	509.3	275.9	141.5	118.3	285.1	1107	2564	2439	226.2	11.25	2.696	2.067	1.575	1.132	1.070	0.934	0.958	0.882	0.755	0.765	0.701	0.676	0.619	0.657	0.507	0.446	0.542	0.539	0.515	0.658	0.717	0.807	1.229	1.402	1.530	1.694	1.865	1.474	1.236	1.119	1.145	1.170	1.332	1.358	1.390	1.637	1.808	1.833	1.988	2.344	2.360	2.386	2.464	2.681	2.672	2.727	2.722	2.755	3.218	3.706	4.062	3.340
335.0	141.7	302.9	530.9	593.7	432.2	270.1	230.6	268.5	318.3	386.9	451.8	492.7	488.5	444.5	394.6	418.0	475.7	226.9	113.3	125.9	292.6	644.3	1920	3068	343.6	9.046	2.590	1.846	1.533	1.225	1.206	0.960	0.906	0.880	0.779	0.744	0.658	0.635	0.553	0.545	0.477	0.513	0.578	0.601	0.723	0.699	0.902	1.208	1.618	1.801	2.082	2.314	2.170	1.613	1.446	1.247	1.368	1.388	1.530	1.414	1.711	1.739	2.203	2.371	2.155	2.356	2.627	2.674	2.707	2.744	2.776	2.540	2.573	2.556	2.497	2.854	3.372
340.0	141.0	315.0	579.6	667.8	488.6	310.2	259.4	281.6	326.3	391.7	455.3	494.3	482.3	445.7	375.6	333.7	423.3	374.8	141.7	97.56	118.6	187.2	545.1	2500	2662	53.48	4.539	2.179	1.749	1.392	1.402	0.994	0.975	0.969	0.771	0.753	0.717	0.721	0.579	0.626	0.508	0.544	0.543	0.620	0.607	0.812	0.975	1.240	1.738	1.810	2.331	2.807	2.422	1.951	1.640	1.292	1.487	1.602	1.463	1.598	1.769	1.805	2.096	2.239	2.168	2.224	2.496	2.793	2.848	2.738	2.586	2.595	2.665	2.361	2.336	2.201	2.465
345.0	144.7	320.3	603.6	707.4	530.9	342.5	281.8	286.5	333.6	390.0	439.7	488.4	479.6	436.0	374.1	305.2	307.0	407.1	246.0	106.1	87.77	92.30	158.7	765.1	2784	2070	44.99	3.135	2.079	1.578	1.400	1.074	1.057	0.954	0.724	0.772	0.684	0.651	0.582	0.562	0.520	0.530	0.518	0.506	0.645	0.786	0.906	1.396	1.795	2.034	2.508	2.819	2.482	1.985	1.750	1.488	1.363	1.400	1.513	1.620	1.663	1.841	2.268	2.108	2.172	2.506	2.312	2.554	2.470	2.745	2.576	2.734	2.493	2.307	2.338	1.975	2.037
350.0	141.2	291.4	574.6	729.8	559.3	377.6	302.2	298.3	335.0	384.4	429.2	455.4	452.5	418.7	363.6	294.2	252.7	273.1	316.7	209.3	101.4	81.08	80.06	201.4	824.0	1963	1988	209.4	12.14	2.162	1.593	1.245	0.997	0.961	0.823	0.732	0.762	0.659	0.549	0.540	0.470	0.509	0.488	0.520	0.576	0.689	0.920	1.348	1.653	2.044	2.450	2.836	2.531	2.179	1.769	1.605	1.566	1.471	1.692	1.631	1.750	1.965	1.962	2.174	2.165	2.352	2.353	2.393	2.412	2.514	2.491	2.453	2.400	2.309	2.277	1.960	2.072
355.0	123.3	274.9	511.6	680.4	557.1	404.9	331.2	325.8	348.5	381.2	411.8	426.7	420.5	389.7	340.5	283.9	235.9	208.8	217.8	292.8	186.8	92.27	71.54	83.97	209.9	472.5	1322	2433	335.5	10.92	2.126	1.455	1.122	1.099	0.914	0.829	0.731	0.644	0.509	0.550	0.417	0.533	0.509	0.520	0.528	0.679	0.839	1.149	1.615	1.806	2.200	2.835	2.527	2.128	2.013	1.783	1.776	1.515	1.611	1.688	1.912	1.920	2.052	2.212	2.072	2.166	2.269	2.322	2.347	2.405	2.373	2.319	2.319	2.154	2.158	2.059	2.055
360.0	115.0	257.2	470.7	626.3	539.0	417.1	344.7	337.7	355.4	389.1	401.9	408.4	393.5	371.2	323.5	275.0	229.5	197.4	179.4	232.1	271.8	136.0	76.29	62.88	78.25	128.1	353.3	1754	2280	265.4	5.119	1.897	1.411	1.390	0.882	0.832	0.701	0.683	0.665	0.536	0.461	0.512	0.499	0.546	0.520	0.649	0.845	0.986	1.429	1.591	1.964	2.695	2.398	2.160	1.835	1.708	1.884	1.625	1.597	1.780	1.704	2.030	2.029	2.177	2.042	2.149	2.086	2.157	2.267	2.323	2.350	2.101	2.138	2.187	2.067	2.114	1.812
365.0	110.4	232.6	439.8	587.3	534.8	413.7	349.9	340.2	355.5	381.6	391.1	388.8	369.9	353.1	311.4	268.0	225.5	194.4	171.1	172.6	255.1	221.8	98.48	65.00	55.26	55.96	98.76	502.0	2074	1958	45.82	3.213	1.736	1.273	0.895	0.861	0.836	0.663	0.652	0.591	0.514	0.522	0.472	0.569	0.466	0.640	0.765	1.027	1.364	1.500	1.907	2.440	2.424	2.198	1.907	1.815	1.972	1.713	1.722	1.841	1.861	1.861	2.062	2.405	2.125	1.974	2.111	1.919	2.049	2.242	1.972	2.034	2.084	2.258	1.928	2.052	2.088
370.0	101.7	201.8	386.3	525.5	508.0	412.1	359.1	340.8	346.9	364.4	372.6	364.4	348.9	325.4	287.4	253.7	221.4	193.4	170.1	156.4	178.4	227.8	186.9	90.69	58.89	47.54	47.98	130.2	584.6	1595	1764	195.9	12.22	1.722	1.236	0.958	0.911	0.759	0.709	0.555	0.524	0.518	0.559	0.454	0.466	0.614	0.701	0.891	1.283	1.438	1.731	2.268	2.174	2.094	1.892	1.881	1.891	1.786	1.745	1.839	1.819	1.795	1.901	2.096	2.072	1.952	2.005	1.958	2.042	2.039	1.878	1.940	1.988	2.026	1.877	1.858	1.894
375.0	92.65	176.0	342.8	466.3	467.6	406.2	353.7	338.1	337.9	356.1	358.8	346.1	324.6	297.9	271.4	236.8	215.2	192.5	172.5	156.9	149.2	160.6	217.0	174.2	81.81	56.28	45.72	55.32	148.7	378.2	1040	2053	308.0	12.10	1.759	1.099	0.950	0.748	0.748	0.708	0.544	0.463	0.573	0.422	0.506	0.655	0.801	0.926	1.208	1.315	1.494	1.958	1.938	2.105	1.832	1.798	1.835	1.821	1.759	1.851	1.734	1.801	1.919	2.065	1.968	1.899	1.916	1.916	2.078	2.068	1.853	2.055	1.788	1.881	1.753	1.838	1.763
380.0	83.12	159.2	303.8	424.2	449.7	391.7	349.7	330.0	330.5	346.3	338.1	338.7	312.4	282.7	253.4	228.1	206.9	188.9	173.6	159.5	144.6	139.8	170.7	220.3	129.5	69.48	53.32	45.44	56.75	101.4	272.2	1377	1861	234.3	4.703	1.362	1.068	0.873	0.779	0.608	0.586	0.510	0.554	0.388	0.553	0.560	0.626	0.846	1.106	1.115	1.420	1.813	1.844	1.973	1.785	1.801	1.832	1.769	1.781	1.895	1.817	1.808	1.834	1.861	2.044	1.895	1.874	2.079	1.757	2.007	1.894	1.784	1.850	1.708	1.594	1.708	1.700
385.0	86.54	145.7	275.1	393.5	418.1	392.1	349.6	323.5	322.2	334.0	323.3	315.6	297.1	267.2	245.9	218.1	197.8	183.4	169.7	157.2	145.9	134.4	137.6	188.2	188.9	94.66	60.14	46.66	41.32	42.35	75.40	382.8	1565	1521	37.92	2.231	1.198	0.942	0.797	0.527	0.636	0.515	0.537	0.437	0.545	0.608	0.629	0.819	1.036	1.107	1.220	1.922	1.948	1.874	1.846	1.747	1.907	1.774	1.864	1.762	1.747	1.745	1.756	1.690	1.926	1.782	1.807	1.804	1.727	1.919	1.573	1.695	1.734	1.817	1.602	1.535	1.663
390.0	68.95	134.2	246.6	355.0	390.8	374.8	337.6	312.4	302.3	309.5	296.6	288.6	276.4	249.2	226.4	205.7	188.0	175.0	164.6	155.0	144.6	133.5	126.9	136.4	170.2	155.7	84.10	52.84	41.03	33.94	35.15	98.16	426.8	1143	1281	156.9	10.45	1.369	0.926	0.700	0.704	0.560	0.511	0.507	0.524	0.575	0.636	0.786	0.921	1.030	1.200	1.668	1.674	1.786	1.737	1.653	1.780	1.713	1.699	1.643	1.803	1.825	1.729	1.715	1.791	1.706	1.751	1.696	1.583	1.693	1.554	1.537	1.759	1.587	1.536	1.523	1.647
395.0	69.35	121.6	222.3	311.2	351.7	338.0	321.8	298.3	290.2	287.8	279.5	270.1	254.2	232.3	209.4	193.4	177.6	167.3	158.2	151.7	142.2	134.6	125.3	120.8	122.6	154.3	143.4	70.80	47.30	36.55	29.94	37.74	106.6	269.1	723.3	1461	255.1	10.28	1.375	0.983	0.743	0.629	0.531	0.489	0.491	0.576	0.589	0.844	0.828	0.988	1.227	1.556	1.643	1.746	1.683	1.523	1.747	1.705	1.652	1.519	1.640	1.661	1.580	1.666	1.689	1.594	1.552	1.477	1.528	1.548	1.385	1.502	1.391	1.516	1.494	1.478	1.466
400.0	70.18	118.9	202.7	300.2	330.3	337.8	305.3	288.5	276.8	272.7	269.6	256.3	243.7	221.1	199.8	183.5	169.0	161.0	151.7	145.6	140.6	133.7	124.7	115.6	109.7	122.7	161.6	107.7	56.00	41.65	31.56	27.53	37.69	69.72	186.0	945.0	1336	195.3	3.847	1.180	0.813	0.659	0.720	0.498	0.603	0.561	0.586	0.733	0.703	0.973	1.106	1.430	1.541	1.630	1.568	1.593	1.752	1.539	1.542	1.599	1.573	1.586	1.453	1.486	1.485	1.412	1.486	1.391	1.410	1.497	1.333	1.457	1.382	1.448	1.458	1.474	1.399
405.0	58.78	114.4	194.1	280.3	313.6	322.0	299.0	274.8	267.9	268.7	256.2	247.0	232.9	210.1	189.1	174.3	162.6	154.6	148.8	140.6	137.5	130.8	124.8	114.5	108.1	104.4	131.9	141.3	78.28	46.99	35.43	27.62	23.62	26.46	49.68	258.8	1085	1105	33.38	1.962	0.955	0.800	0.669	0.544	0.622	0.545	0.609	0.607	0.760	0.875	1.061	1.304	1.366	1.509	1.466	1.466	1.684	1.471	1.492	1.667	1.561	1.492	1.519	1.532	1.622	1.332	1.392	1.391	1.399	1.519	1.360	1.425	1.319	1.460	1.374	1.340	1.496
410.0	63.25	101.3	181.6	260.3	291.6	297.1	291.0	268.2	254.1	249.9	243.1	230.1	215.3	197.6	176.7	163.0	152.5	145.9	139.9	134.2	131.4	124.9	119.8	112.7	105.0	96.49	99.82	122.8	120.4	68.49	41.67	31.37	23.70	20.06	21.10	65.49	293.4	817.8	936.3	144.0	8.997	1.036	0.786	0.629	0.614	0.578	0.547	0.571	0.712	0.817	0.970	1.408	1.271	1.425	1.456	1.438	1.503	1.504	1.480	1.509	1.407	1.420	1.562	1.509	1.319	1.355	1.408	1.374	1.344	1.422	1.271	1.261	1.248	1.254	1.267	1.287	1.341
415.0	59.24	94.32	160.8	242.6	274.0	280.9	276.3	253.4	246.5	236.7	227.1	216.2	199.8	185.8	165.5	151.0	141.8	135.2	131.0	123.9	123.4	120.4	116.0	109.5	102.9	93.81	88.41	90.52	111.6	110.1	54.54	35.73	26.33	20.59	17.11	23.39	72.04	191.8	515.5	1046	223.7	7.560	0.993	0.659	0.628	0.616	0.627	0.603	0.696	0.770	0.871	1.254	1.246	1.370	1.334	1.342	1.543	1.517	1.395	1.578	1.423	1.393	1.386	1.398	1.336	1.163	1.352	1.291	1.372	1.325	1.246	1.185	1.264	1.178	1.235	1.227	1.184
420.0	54.07	88.99	145.9	222.3	258.2	268.6	265.5	252.7	241.2	230.8	220.0	205.9	190.1	174.1	156.4	140.7	133.8	127.5	125.5	118.5	115.8	113.8	111.4	106.6	100.2	93.16	85.83	80.42	87.34	117.9	83.60	41.62	29.48	21.96	17.23	15.15	23.14	48.80	132.3	677.4	976.7	35.05	2.860	0.764	0.712	0.641	0.563	0.554	0.691	0.678	0.894	1.132	1.131	1.287	1.376	1.306	1.378	1.434	1.285	1.394	1.476	1.391	1.348	1.337	1.340	1.282	1.265	1.268	1.385	1.198	1.142	1.248	1.250	1.164	1.125	1.115	1.114
425.0	52.56	78.79	135.3	214.1	237.8	248.4	254.2	246.3	233.6	225.4	210.1	200.9	182.1	168.5	151.0	134.7	127.2	120.9	117.4	113.1	111.4	108.8	106.1	102.8	99.10	92.65	85.32	78.34	75.23	94.70	106.3	53.17	32.70	24.06	18.98	14.71	13.30	16.97	34.58	185.5	784.3	787.5	30.45	1.417	0.849	0.704	0.618	0.622	0.632	0.684	0.845	1.080	1.254	1.283	1.263	1.355	1.355	1.444	1.419	1.407	1.340	1.318	1.265	1.368	1.499	1.331	1.269	1.181	1.181	1.132	1.160	1.146	1.153	1.148	1.079	1.108	1.214
430.0	93.25	77.29	137.0	203.4	229.6	244.2	247.7	233.7	227.9	215.8	207.1	190.0	174.2	158.6	142.3	127.4	119.0	115.0	109.3	104.8	104.7	102.8	99.96	99.06	93.56	90.57	84.31	77.42	71.44	72.66	90.03	84.28	45.41	28.05	21.43	16.43	12.96	11.25	13.22	45.74	212.8	602.1	703.9	130.7	7.496	0.930	0.679	0.749	0.669	0.697	0.847	1.010	1.115	1.298	1.190	1.235	1.308	1.427	1.344	1.387	1.348	1.231	1.175	1.299	1.312	1.257	1.145	1.162	1.205	1.151	1.125	1.136	1.081	1.081	1.075	1.124	1.200
435.0	256.9	74.59	129.8	188.0	215.5	226.9	237.1	231.3	222.2	214.1	197.0	184.4	169.5	148.8	135.2	119.3	111.7	105.4	103.3	99.72	98.16	96.83	94.84	94.86	91.30	87.77	81.23	77.62	71.60	67.16	65.97	79.62	74.22	39.13	24.41	17.76	14.04	11.25	9.465	14.82	51.44	140.8	409.2	863.7	200.1	6.144	0.827	0.665	0.704	0.649	0.804	0.992	1.059	1.172	1.322	1.199	1.253	1.395	1.258	1.219	1.197	1.235	1.181	1.263	1.200	1.231	1.179	1.118	1.142	1.046	1.057	1.206	0.998	1.030	1.046	0.993	1.070
440.0	384.0	108.4	123.4	172.4	205.5	216.9	228.2	227.4	221.9	211.5	198.7	177.4	161.6	146.1	131.1	115.0	106.1	100.8	97.56	93.69	92.90	92.24	90.75	90.62	86.80	84.95	79.74	75.41	70.92	65.83	59.34	63.74	79.29	56.38	28.35	19.72	15.44	12.10	9.091	8.309	15.88	35.02	107.1	588.7	828.0	31.52	2.424	0.809	0.752	0.684	0.866	0.970	0.903	1.095	1.198	1.208	1.404	1.310	1.209	1.215	1.145	1.282	1.235	1.314	1.190	1.092	1.113	1.244	1.233	1.118	1.007	1.056	1.091	1.006	1.000	1.008	1.109
445.0	377.2	221.9	117.0	168.5	199.9	212.6	220.3	217.4	216.2	202.9	186.9	172.0	154.2	139.0	124.2	107.1	101.6	96.34	92.19	88.09	89.06	88.00	85.71	86.62	83.08	79.87	76.21	72.45	69.23	65.46	57.87	54.56	64.27	69.54	39.46	21.14	16.82	12.80	9.922	7.608	8.115	11.32	27.14	165.6	708.2	685.8	25.02	1.365	0.953	0.666	0.893	0.956	1.002	1.100	1.128	1.133	1.211	1.231	1.051	1.385	1.232	1.314	1.357	1.315	1.234	1.139	1.197	1.136	1.050	1.127	1.091	1.015	1.036	0.928	0.930	0.991	1.061
450.0	214.2	402.4	165.3	151.9	184.9	200.7	206.8	208.1	198.6	189.5	179.7	163.6	144.5	131.8	113.7	101.2	94.48	88.82	83.99	82.50	80.06	79.97	79.30	77.93	77.69	74.84	73.20	69.53	67.16	62.80	55.67	50.13	48.71	57.53	54.78	31.06	18.59	14.30	11.21	8.830	7.089	6.806	9.400	39.89	195.0	542.8	630.2	115.4	6.089	0.841	0.856	0.956	0.977	1.030	1.131	1.047	1.135	1.257	1.112	1.195	1.180	1.312	1.193	1.221	1.199	1.208	1.047	1.117	1.060	0.995	1.018	0.974	0.984	0.963	0.835	0.972	0.925
455.0	89.90	411.5	382.7	146.0	160.2	183.0	192.0	189.2	186.5	178.3	168.2	149.4	138.2	118.5	102.4	91.77	85.63	79.94	76.64	75.63	73.88	71.65	72.64	71.05	71.70	68.93	67.24	65.47	62.19	58.79	53.82	47.90	41.88	41.07	49.58	47.61	25.67	15.63	12.15	9.301	7.582	6.240	6.109	12.01	46.23	126.6	345.9	709.8	161.0	5.077	0.981	0.926	0.873	0.975	0.959	1.026	1.104	1.228	1.101	1.026	1.195	1.183	1.088	1.061	1.129	1.112	1.015	0.933	1.136	0.964	0.939	0.888	0.852	0.882	0.867	0.940	0.871
460.0	46.25	273.1	628.1	198.8	155.5	169.4	176.5	182.0	177.6	170.3	155.8	142.5	125.1	110.8	97.71	87.33	78.53	73.78	70.33	69.58	68.20	65.93	65.67	65.74	66.37	64.86	62.80	61.33	59.66	56.07	51.93	46.03	39.70	35.07	37.37	48.82	34.79	17.41	12.57	10.52	8.032	6.825	5.788	5.916	13.26	30.75	88.15	465.5	644.3	114.2	2.476	1.074	0.998	1.049	0.914	0.961	1.202	1.053	1.070	1.146	1.052	1.035	1.074	1.140	1.109	0.923	1.035	0.942	0.982	1.033	0.861	0.935	0.954	0.837	0.900	0.844	0.735
465.0	38.06	152.3	737.7	397.5	149.3	157.1	166.5	170.4	166.0	165.4	149.1	133.9	117.7	101.8	90.31	81.18	73.47	67.84	65.34	62.37	62.68	61.01	60.67	60.45	60.90	61.61	58.08	57.23	55.64	53.98	49.70	43.48	38.24	32.92	30.71	37.61	41.64	22.79	13.32	10.82	8.637	7.055	5.799	4.896	5.530	9.211	22.05	129.2	549.1	529.9	21.15	1.627	1.081	1.029	0.978	0.824	1.031	1.114	1.047	1.022	1.022	1.038	1.055	1.006	1.067	0.916	0.951	0.920	0.963	0.862	0.854	0.940	0.818	0.883	0.883	0.913	0.730
470.0	42.41	73.85	501.4	899.7	228.8	146.8	149.2	153.3	152.3	146.4	136.6	120.6	104.7	93.59	80.53	71.24	66.42	61.23	58.55	55.31	54.97	54.47	54.72	54.37	54.70	53.72	52.18	51.81	50.27	48.58	45.23	40.12	35.18	30.82	26.87	26.61	33.77	31.50	18.65	11.46	8.925	7.420	6.021	4.896	4.452	4.784	7.031	30.90	150.0	392.7	445.7	108.6	5.930	1.086	1.010	0.939	1.024	1.021	1.033	0.939	1.019	0.945	1.093	0.911	0.971	0.868	0.898	0.879	0.859	0.846	0.715	0.771	0.845	0.769	0.818	0.777	0.737
475.0	46.15	54.19	198.4	1079	582.2	140.1	136.7	136.3	137.5	131.7	123.0	109.3	97.51	84.32	74.45	63.73	58.14	54.55	52.03	49.29	47.50	47.72	46.91	48.18	47.72	47.69	46.17	45.72	44.25	43.95	40.29	35.95	31.70	28.07	24.16	21.80	22.58	27.85	27.21	14.60	8.825	7.685	5.983	5.082	4.365	3.537	3.904	8.802	34.97	90.58	223.8	482.3	149.1	5.953	1.021	0.959	0.910	0.827	0.957	0.987	0.958	1.005	0.951	0.987	0.926	0.802	0.915	0.808	0.782	0.786	0.702	0.859	0.727	0.710	0.880	0.637	0.656
480.0	52.54	54.70	101.0	740.4	1234	208.1	130.2	127.4	128.2	121.0	114.2	100.4	92.15	77.75	68.43	58.55	53.08	49.69	46.23	44.38	43.47	42.87	42.69	43.41	43.28	42.79	42.48	42.36	41.31	40.74	37.17	33.57	30.28	26.25	22.41	20.05	18.50	20.82	27.76	20.47	10.16	7.475	6.052	5.205	4.572	3.639	3.376	4.031	9.406	21.94	55.74	279.7	475.1	28.60	2.488	1.022	1.091	0.861	0.966	0.895	0.828	0.968	0.847	0.933	0.880	0.742	0.818	0.834	0.807	0.846	0.705	0.665	0.700	0.669	0.757	0.651	0.662
485.0	48.79	56.48	69.85	369.2	1518	452.2	121.9	113.7	122.6	112.1	109.9	94.48	82.26	73.52	63.36	53.79	48.91	46.28	43.25	41.17	40.37	40.05	40.86	39.48	40.25	38.94	39.81	38.52	37.93	37.62	35.47	30.76	28.36	24.60	21.99	19.32	17.68	16.04	22.23	24.48	14.18	7.764	6.260	5.420	4.376	3.640	3.488	2.984	3.710	6.423	13.97	75.50	365.0	414.0	24.73	1.459	1.037	0.835	0.850	0.749	0.876	0.868	0.895	0.772	0.764	0.780	0.825	0.705	0.744	0.758	0.699	0.666	0.762	0.645	0.748	0.689	0.611
490.0	39.55	70.48	68.16	148.1	975.4	1256	210.4	107.0	111.0	104.1	99.63	86.61	76.38	66.04	56.16	47.96	44.63	39.92	38.24	37.01	37.11	35.88	36.17	35.05	35.86	35.79	35.17	35.25	35.11	34.05	32.34	29.85	26.85	23.26	20.45	18.32	16.14	14.26	15.07	20.66	19.90	11.13	6.790	5.474	4.530	4.078	3.687	3.007	2.701	3.105	4.680	18.35	96.97	277.2	315.1	111.9	7.840	0.983	0.827	0.811	0.786	0.886	0.828	0.735	0.763	0.724	0.768	0.684	0.634	0.700	0.680	0.708	0.682	0.591	0.570	0.565	0.574
495.0	31.77	60.87	83.44	86.20	355.6	1480	710.5	104.5	99.56	92.74	88.92	76.39	69.70	58.62	52.44	44.97	39.57	35.81	34.33	33.52	33.15	32.46	32.13	31.27	31.22	32.19	32.08	31.28	31.57	30.94	29.21	27.21	23.81	21.43	18.79	16.38	14.65	12.57	12.29	13.13	18.52	16.40	8.982	5.627	4.670	4.079	3.591	2.998	2.875	2.454	2.650	5.434	22.87	63.87	175.7	452.1	172.7	7.685	0.958	0.889	0.810	0.770	0.758	0.776	0.667	0.695	0.704	0.665	0.639	0.602	0.725	0.608	0.677	0.614	0.555	0.569	0.557
500.0	29.99	51.91	104.0	71.92	141.9	1007	1344	154.3	90.28	88.47	79.26	71.51	62.29	53.54	46.65	41.44	36.30	33.87	31.50	30.55	29.97	29.11	29.21	28.30	28.12	29.04	28.70	28.28	28.69	27.76	26.18	24.59	21.75	19.43	17.63	15.38	13.59	11.85	10.71	10.04	13.10	17.88	12.86	6.159	4.691	4.199	3.768	3.149	3.166	2.353	2.112	2.685	6.411	15.53	44.02	247.3	460.7	129.4	2.951	0.943	0.733	0.704	0.705	0.670	0.679	0.584	0.649	0.609	0.682	0.553	0.706	0.554	0.639	0.602	0.535	0.561	0.562
505.0	32.64	39.33	118.9	83.19	87.80	472.1	1653	325.6	83.62	81.80	73.76	66.99	58.54	49.48	43.86	36.58	32.76	30.24	29.54	27.26	27.33	26.62	26.72	24.95	25.73	25.61	25.55	25.29	25.97	25.76	23.87	22.44	20.37	17.95	16.74	14.68	12.86	11.16	10.33	9.204	9.420	14.80	15.57	8.721	4.917	4.220	3.564	3.006	2.820	2.573	2.209	2.039	2.751	4.728	11.10	64.81	312.2	412.9	27.79	1.640	0.867	0.709	0.751	0.677	0.618	0.621	0.613	0.651	0.566	0.516	0.505	0.502	0.584	0.564	0.593	0.598	0.576
510.0	30.36	29.22	92.88	116.6	72.15	170.9	1091	1165	146.8	73.42	66.83	60.59	50.25	44.36	38.76	33.40	28.61	26.84	25.45	23.81	23.72	22.83	22.74	22.56	22.83	22.57	22.18	22.40	22.42	22.12	21.55	19.93	18.15	16.11	14.47	13.13	11.68	10.51	9.493	8.259	7.977	9.327	13.29	12.20	7.106	4.450	3.481	2.939	2.756	2.713	2.496	2.075	1.931	2.247	3.702	15.59	80.61	239.9	269.5	114.3	8.190	0.783	0.685	0.661	0.590	0.591	0.590	0.529	0.565	0.489	0.518	0.520	0.537	0.549	0.559	0.514	0.546
515.0	26.78	24.66	57.04	134.5	82.12	90.52	380.1	1511	563.3	67.86	59.78	51.09	43.67	39.63	32.43	29.16	24.97	23.48	21.96	19.77	20.15	19.42	19.98	19.63	19.68	19.52	19.49	19.34	19.53	18.67	18.91	16.92	15.34	13.89	12.69	11.49	10.28	9.173	7.939	7.537	6.841	6.524	8.133	11.75	10.73	5.309	3.512	2.925	2.708	2.363	2.422	2.405	1.844	1.669	1.947	4.672	19.09	54.92	120.4	334.8	166.0	8.336	0.849	0.638	0.740	0.610	0.590	0.487	0.498	0.529	0.505	0.550	0.540	0.515	0.488	0.477	0.455
520.0	25.38	23.07	41.28	119.7	111.4	65.79	139.0	1059	1213	108.3	54.49	48.10	40.95	36.14	28.65	25.58	21.67	20.46	19.44	18.05	18.42	17.34	17.72	17.60	16.67	17.92	17.27	17.42	17.55	17.00	16.98	15.42	13.72	12.19	11.87	10.28	9.300	8.297	8.007	7.280	6.237	5.618	6.081	8.846	11.49	7.842	3.828	2.887	2.515	2.210	2.194	2.527	2.042	1.656	1.521	2.060	5.346	13.27	29.27	162.9	338.8	117.0	3.643	0.683	0.589	0.555	0.614	0.497	0.538	0.478	0.476	0.496	0.488	0.484	0.447	0.520	0.443
525.0	24.46	20.78	28.71	87.99	138.6	62.11	70.26	475.4	1641	245.3	49.74	42.99	37.49	31.65	27.72	22.49	21.04	19.01	17.89	16.71	16.75	14.92	15.66	15.65	15.55	15.97	15.39	15.47	15.20	15.20	15.42	13.87	12.55	11.38	11.06	9.743	8.221	7.770	7.395	6.906	5.673	5.337	5.194	5.871	9.333	9.536	5.197	3.094	2.186	2.067	1.922	2.155	2.163	1.851	1.508	1.400	2.219	3.943	7.501	40.75	194.5	266.9	29.85	1.550	0.602	0.577	0.542	0.490	0.469	0.518	0.505	0.450	0.491	0.466	0.434	0.460	0.396
530.0	22.25	21.48	25.98	54.76	130.8	88.03	52.51	157.0	1094	1081	103.7	37.19	31.30	27.77	23.76	19.96	17.62	17.04	15.28	14.51	14.16	13.72	13.77	12.95	13.46	13.01	13.29	13.56	13.50	13.12	13.27	11.78	10.65	9.938	9.241	8.511	7.342	6.775	6.345	5.951	5.227	4.720	4.441	4.359	5.809	8.240	7.481	4.201	2.505	2.062	1.836	1.775	1.889	2.165	1.635	1.368	1.398	1.651	2.535	9.948	48.18	142.2	210.6	109.1	9.189	0.706	0.521	0.491	0.504	0.491	0.411	0.454	0.466	0.416	0.403	0.418	0.420
535.0	23.97	19.58	22.42	36.16	88.28	123.4	50.83	68.05	346.0	1466	488.5	34.59	28.20	23.98	19.94	16.89	15.84	14.06	12.83	12.83	11.75	11.49	11.16	11.33	11.47	11.08	11.55	11.63	11.28	11.10	11.71	10.27	9.436	8.536	8.009	7.380	6.315	6.028	5.491	5.140	4.819	4.029	3.859	3.650	4.029	5.196	7.709	6.085	3.000	2.067	1.703	1.662	1.581	1.710	2.079	1.685	1.150	1.210	1.278	2.990	11.48	32.45	73.98	227.0	146.6	10.90	0.568	0.517	0.448	0.468	0.518	0.439	0.427	0.436	0.389	0.419	0.422
540.0	26.29	20.88	20.96	28.24	56.61	131.4	61.94	45.57	111.6	974.2	1127	65.70	25.56	20.42	17.38	15.89	13.46	12.55	11.87	10.89	10.63	10.37	10.32	10.15	9.483	9.717	9.414	10.20	10.01	9.999	9.732	8.928	8.553	7.578	7.057	6.437	5.738	5.417	4.833	4.589	4.118	3.776	3.453	3.443	3.313	3.433	5.416	6.798	4.197	2.252	1.757	1.543	1.464	1.374	1.722	2.030	1.242	0.977	1.044	1.416	3.241	7.981	17.54	93.36	236.3	108.7	4.762	0.472	0.423	0.473	0.451	0.427	0.450	0.388	0.430	0.379	0.399
545.0	22.52	21.90	22.99	25.01	37.00	112.7	89.60	40.93	52.96	386.8	1510	181.5	23.96	19.04	15.92	14.15	11.97	11.83	10.40	9.888	9.629	9.151	9.000	8.236	8.257	8.410	8.852	9.146	8.710	8.418	8.353	7.874	7.584	6.656	6.550	5.585	5.071	4.740	4.259	4.206	3.761	3.503	3.056	3.094	2.915	2.477	3.597	5.742	5.373	2.969	1.666	1.433	1.272	1.149	1.287	1.759	1.642	0.979	0.785	0.952	1.341	2.476	4.558	22.48	113.7	221.6	31.35	2.042	0.504	0.436	0.424	0.368	0.406	0.439	0.391	0.424	0.417
550.0	23.45	19.09	21.62	20.32	25.43	66.53	115.6	46.98	35.11	118.0	915.1	895.6	57.98	16.96	13.91	11.66	10.55	9.580	8.651	8.302	7.949	7.552	7.831	7.094	7.102	7.154	7.023	7.292	7.392	7.143	6.996	6.881	6.086	5.691	5.408	4.881	4.253	4.058	3.779	3.599	3.162	3.066	2.662	2.445	2.450	2.166	2.284	3.487	4.824	4.005	2.220	1.385	1.121	1.140	1.124	1.254	1.584	1.517	0.921	0.703	0.890	1.118	1.596	5.581	27.20	91.94	143.7	83.69	9.793	0.559	0.397	0.403	0.422	0.403	0.363	0.372	0.414
555.0	25.06	20.23	21.36	18.76	23.16	34.58	102.1	76.94	28.91	46.43	266.6	1203	331.7	14.77	11.34	10.01	8.548	8.012	6.921	6.939	6.704	6.817	6.139	5.823	6.375	5.903	5.841	6.180	5.685	5.935	5.894	5.430	4.832	4.541	4.190	3.955	3.404	3.578	3.040	2.804	2.647	2.525	2.371	2.164	2.184	1.927	1.756	1.964	3.003	3.816	3.271	1.729	1.139	0.940	0.925	0.983	1.079	1.506	1.237	0.815	0.722	0.732	0.871	1.729	6.578	21.06	43.29	132.5	109.4	10.29	0.445	0.406	0.464	0.343	0.324	0.430	0.390
560.0	26.05	19.32	21.05	21.00	19.42	23.64	69.79	102.7	31.43	31.30	80.72	769.8	830.9	32.59	9.906	8.879	7.340	7.040	5.949	5.615	5.896	5.694	5.220	5.163	5.352	5.095	5.100	5.438	5.232	5.147	4.776	4.261	4.056	3.987	3.653	3.443	3.069	3.126	2.785	2.515	2.277	2.225	2.067	1.964	1.906	1.766	1.495	1.536	1.692	2.904	3.453	2.275	1.075	0.968	0.916	0.815	0.901	1.039	1.488	0.998	0.686	0.672	0.731	0.831	1.982	5.175	10.19	47.52	142.2	79.26	4.795	0.445	0.418	0.395	0.383	0.373	0.359
565.0	21.79	19.60	20.05	19.27	18.01	18.93	38.79	110.7	43.44	24.87	36.63	287.7	1130	120.7	9.185	7.949	6.454	5.714	5.624	4.927	4.577	4.576	4.419	4.107	4.354	4.318	4.384	4.375	4.431	4.484	4.177	3.804	3.477	3.564	3.152	2.795	2.796	2.553	2.425	2.204	1.941	1.933	1.794	1.693	1.659	1.514	1.312	1.259	1.308	1.853	2.812	2.588	1.501	0.949	0.784	0.739	0.794	0.887	1.141	1.456	0.848	0.595	0.588	0.644	0.875	1.600	2.720	11.37	57.93	130.6	31.68	2.094	0.487	0.372	0.363	0.372	0.319
570.0	22.47	22.93	20.31	19.49	16.81	16.26	21.93	79.14	75.98	24.80	25.60	84.55	687.3	632.0	32.57	6.469	5.513	4.839	4.445	4.107	4.002	3.962	3.845	3.598	3.607	3.635	3.349	3.516	3.640	3.493	3.545	3.443	2.864	2.789	2.443	2.278	2.366	2.082	1.981	1.953	1.643	1.661	1.521	1.463	1.404	1.224	1.171	1.097	0.942	1.181	1.765	2.371	1.964	1.126	0.763	0.697	0.668	0.666	0.810	1.009	1.102	0.850	0.533	0.582	0.622	0.775	1.039	2.990	13.71	48.16	83.55	56.98	8.478	0.521	0.397	0.385	0.326
575.0	27.05	24.47	21.32	17.55	15.21	14.31	14.81	40.58	100.5	37.64	21.92	33.19	194.5	848.8	123.3	6.734	4.677	4.074	3.897	3.800	3.148	3.170	3.230	3.027	2.902	3.094	2.792	2.911	2.908	2.864	2.875	2.762	2.394	2.215	2.121	1.935	1.922	1.771	1.627	1.442	1.527	1.368	1.217	1.275	1.154	0.998	0.961	0.911	0.827	0.805	1.018	1.350	1.964	1.547	0.877	0.699	0.613	0.616	0.650	0.633	0.878	1.135	0.757	0.579	0.574	0.591	0.651	1.012	3.556	11.19	22.85	71.06	70.80	8.405	0.460	0.361	0.356
580.0	23.14	21.33	22.19	16.36	15.05	13.95	13.84	22.69	85.92	61.78	20.64	21.55	57.43	536.0	538.7	17.14	4.554	3.773	4.007	3.072	2.876	3.087	2.790	2.578	2.666	2.760	2.496	2.573	2.380	2.512	2.501	2.327	2.166	1.956	1.906	1.755	1.658	1.638	1.395	1.315	1.231	1.171	1.043	1.184	0.984	0.831	0.845	0.854	0.869	0.687	0.764	0.826	1.597	1.632	1.056	0.713	0.552	0.546	0.553	0.515	0.628	0.957	1.075	0.652	0.503	0.496	0.454	0.609	1.182	2.918	5.476	23.71	80.59	34.77	3.636	0.366	0.355
585.0	22.08	19.52	19.99	16.28	14.50	15.10	13.60	16.52	56.66	83.90	24.72	19.34	24.20	199.9	753.9	72.35	4.205	3.696	3.499	2.726	2.524	2.631	2.498	2.328	2.190	2.331	2.026	2.139	2.193	2.269	2.004	2.085	1.987	1.910	1.567	1.610	1.456	1.305	1.235	1.182	1.079	1.013	0.949	0.825	0.922	0.866	0.800	0.712	0.672	0.615	0.692	0.679	1.184	1.798	1.322	0.771	0.570	0.522	0.553	0.455	0.522	0.667	1.116	0.929	0.499	0.459	0.496	0.524	0.609	0.994	1.639	5.768	30.88	73.83	28.91	1.614	0.369
590.0	20.93	19.56	21.44	16.51	14.59	13.24	12.47	13.69	29.32	82.39	39.46	18.07	16.39	56.78	459.2	384.5	14.76	3.469	2.763	2.344	2.282	2.209	2.133	2.009	2.028	1.946	1.808	1.834	2.010	1.720	1.779	1.919	1.621	1.596	1.338	1.195	1.235	1.168	1.046	1.027	0.885	0.859	0.807	0.718	0.878	0.736	0.720	0.687	0.603	0.545	0.592	0.605	0.761	1.158	1.305	1.080	0.710	0.503	0.458	0.516	0.426	0.487	0.752	0.955	0.847	0.496	0.518	0.417	0.467	0.587	0.693	1.646	7.375	27.12	51.58	37.47	5.868
595.0	21.07	17.83	20.61	16.99	13.74	11.76	12.76	12.82	18.56	53.25	68.54	19.81	13.14	20.08	128.6	535.0	83.68	3.505	2.488	2.186	2.039	1.870	1.640	1.983	1.673	1.564	1.669	1.563	1.660	1.318	1.684	1.542	1.368	1.313	1.211	1.144	1.131	0.990	0.938	0.965	0.833	0.818	0.707	0.678	0.762	0.608	0.639	0.614	0.565	0.552	0.506	0.533	0.553	0.709	1.030	1.110	0.896	0.598	0.515	0.507	0.492	0.485	0.513	0.638	0.905	0.615	0.505	0.396	0.441	0.438	0.502	0.748	2.033	6.336	13.80	42.95	35.47
600.0	21.07	18.71	20.22	14.13	14.28	10.95	12.61	13.72	15.18	30.41	75.88	26.69	12.99	12.82	35.60	358.5	310.0	7.722	2.292	1.849	1.973	1.712	1.550	1.643	1.476	1.451	1.479	1.435	1.613	1.330	1.419	1.178	1.211	1.151	1.023	0.989	0.936	0.783	0.816	0.823	0.791	0.697	0.648	0.574	0.626	0.531	0.523	0.536	0.499	0.463	0.474	0.536	0.452	0.498	0.688	1.172	0.996	0.690	0.461	0.427	0.426	0.444	0.408	0.499	0.646	0.776	0.614	0.451	0.399	0.405	0.485	0.477	0.791	1.707	3.441	13.88	47.02
605.0	21.48	19.38	17.42	14.35	13.21	12.51	11.96	13.32	14.07	22.42	67.57	40.80	14.60	11.28	13.98	137.9	462.5	38.66	2.111	1.862	1.826	1.602	1.341	1.476	1.468	1.384	1.289	1.183	1.322	1.199	1.243	1.153	0.975	1.067	1.140	0.846	0.850	0.712	0.678	0.760	0.780	0.603	0.590	0.622	0.583	0.514	0.502	0.418	0.400	0.435	0.427	0.451	0.377	0.477	0.486	0.898	0.974	0.830	0.561	0.429	0.372	0.379	0.428	0.426	0.544	0.770	0.737	0.470	0.420	0.334	0.413	0.447	0.460	0.670	1.049	3.442	18.11
610.0	21.64	17.40	17.67	14.10	12.37	12.54	12.66	13.49	14.64	19.35	41.70	60.24	21.09	12.27	9.806	38.92	309.5	193.8	7.040	1.710	1.582	1.472	1.345	1.257	1.205	1.176	1.128	1.119	1.061	1.016	1.095	1.116	0.913	1.006	0.819	0.763	0.741	0.728	0.652	0.639	0.667	0.595	0.548	0.537	0.517	0.463	0.462	0.470	0.423	0.387	0.379	0.411	0.406	0.436	0.384	0.512	0.817	0.780	0.695	0.481	0.370	0.407	0.429	0.408	0.463	0.511	0.747	0.624	0.482	0.412	0.415	0.375	0.387	0.421	0.562	1.059	4.449
615.0	23.25	18.12	17.65	13.81	13.04	11.70	13.03	12.70	15.99	18.30	26.08	60.23	34.05	13.38	9.801	13.72	91.23	342.9	56.02	1.911	1.346	1.298	1.030	1.310	1.103	1.054	1.003	1.017	1.104	0.982	0.874	0.881	0.843	0.778	0.754	0.610	0.764	0.648	0.575	0.594	0.569	0.548	0.508	0.547	0.492	0.446	0.433	0.411	0.366	0.392	0.281	0.388	0.408	0.365	0.354	0.324	0.473	0.642	0.807	0.574	0.447	0.354	0.428	0.396	0.416	0.483	0.499	0.649	0.660	0.489	0.481	0.429	0.332	0.406	0.499	0.556	1.284
620.0	18.64	19.80	14.58	14.28	11.66	11.10	12.21	13.50	15.84	18.97	22.20	47.92	45.98	14.46	9.955	8.855	26.50	251.8	190.6	3.556	1.329	1.356	1.084	1.099	1.012	1.037	0.995	0.925	0.992	0.839	0.847	0.720	0.774	0.791	0.668	0.585	0.604	0.589	0.630	0.533	0.490	0.503	0.439	0.520	0.400	0.396	0.336	0.365	0.402	0.398	0.280	0.323	0.455	0.355	0.377	0.398	0.407	0.513	0.685	0.597	0.541	0.451	0.400	0.397	0.427	0.366	0.443	0.471	0.631	0.654	0.444	0.429	0.352	0.377	0.492	0.416	0.615
625.0	22.90	16.53	14.51	15.01	11.34	10.17	12.62	11.95	15.25	18.13	21.91	31.93	54.70	18.08	9.676	8.440	10.72	106.2	306.6	19.26	1.211	1.019	1.110	1.057	0.893	0.854	0.717	0.707	0.779	0.929	0.832	0.611	0.827	0.698	0.584	0.591	0.601	0.537	0.577	0.497	0.518	0.387	0.404	0.429	0.388	0.366	0.307	0.312	0.348	0.339	0.251	0.339	0.376	0.347	0.314	0.384	0.346	0.419	0.640	0.553	0.473	0.437	0.322	0.345	0.397	0.369	0.388	0.385	0.505	0.674	0.452	0.440	0.324	0.369	0.358	0.397	0.398
630.0	21.82	17.33	13.36	13.28	11.12	12.13	11.13	11.82	14.83	16.38	19.90	23.00	44.97	29.97	10.46	7.805	6.909	30.40	226.1	131.2	3.543	1.084	1.092	0.930	0.777	0.827	0.784	0.773	0.745	0.762	0.727	0.669	0.762	0.646	0.528	0.512	0.520	0.543	0.537	0.532	0.496	0.443	0.458	0.392	0.348	0.358	0.330	0.317	0.339	0.325	0.270	0.328	0.311	0.308	0.299	0.343	0.316	0.382	0.466	0.531	0.526	0.500	0.364	0.357	0.365	0.391	0.380	0.371	0.442	0.550	0.553	0.487	0.404	0.346	0.333	0.347	0.402
635.0	20.52	17.32	14.50	13.41	12.43	11.75	11.37	11.88	13.56	16.91	18.68	21.54	32.71	38.50	13.00	7.402	6.421	10.76	70.31	250.6	34.58	0.963	1.099	0.900	0.721	0.674	0.768	0.647	0.756	0.774	0.595	0.654	0.625	0.548	0.440	0.585	0.464	0.488	0.463	0.504	0.393	0.475	0.419	0.433	0.340	0.304	0.350	0.346	0.334	0.264	0.272	0.356	0.341	0.328	0.283	0.301	0.332	0.310	0.397	0.433	0.527	0.515	0.361	0.317	0.336	0.293	0.425	0.393	0.396	0.381	0.506	0.595	0.516	0.357	0.347	0.306	0.433
640.0	20.72	16.62	14.12	11.21	11.15	10.60	10.80	12.69	14.27	16.30	16.66	20.37	23.19	39.59	18.06	7.837	6.358	6.513	19.72	201.8	115.7	1.791	0.959	0.719	0.688	0.800	0.662	0.761	0.674	0.641	0.575	0.520	0.594	0.566	0.476	0.511	0.419	0.384	0.457	0.407	0.427	0.434	0.369	0.366	0.337	0.320	0.301	0.361	0.318	0.251	0.274	0.328	0.254	0.261	0.305	0.311	0.323	0.302	0.301	0.385	0.469	0.411	0.371	0.385	0.345	0.356	0.392	0.378	0.363	0.384	0.462	0.563	0.631	0.378	0.382	0.331	0.358
645.0	23.14	15.59	15.84	13.40	11.86	9.959	9.854	11.31	13.96	16.47	18.51	20.44	19.61	31.12	26.33	9.102	6.500	5.192	7.310	93.26	208.5	9.873	0.952	0.893	0.667	0.850	0.575	0.727	0.727	0.637	0.607	0.544	0.678	0.533	0.556	0.464	0.440	0.421	0.496	0.402	0.435	0.345	0.399	0.355	0.394	0.338	0.301	0.375	0.296	0.311	0.255	0.297	0.303	0.269	0.296	0.262	0.334	0.360	0.332	0.345	0.408	0.443	0.403	0.443	0.424	0.376	0.346	0.326	0.337	0.399	0.370	0.449	0.546	0.423	0.423	0.317	0.309
650.0	20.14	17.79	19.19	14.71	10.02	9.876	10.43	11.42	13.61	15.49	17.44	18.96	17.74	23.81	32.49	10.79	6.070	4.520	4.148	28.25	214.7	49.13	1.301	0.881	0.805	0.744	0.555	0.689	0.652	0.598	0.601	0.507	0.658	0.486	0.601	0.449	0.375	0.401	0.480	0.461	0.405	0.326	0.392	0.360	0.360	0.311	0.311	0.302	0.292	0.255	0.273	0.302	0.320	0.280	0.224	0.288	0.302	0.353	0.318	0.343	0.333	0.381	0.424	0.394	0.357	0.366	0.340	0.300	0.383	0.398	0.390	0.499	0.585	0.564	0.398	0.289	0.308
