Sample:	'1
File name:	T2025031309¶«Õ¢´åÇÅ.FD3
Run date:	'13:34:36, 03/14/2025
Operator:	Administrator
Comment:	'

Instrument
Model:	F-2700 FL Spectrophotometer
Serial number:	23B8-004
ROM Version:	4J14000 07

Instrument parameters
Measurement type:	3-D scan
Data mode:	Fluorescence
EX  Start WL:	220.0 nm
EX  End WL:	600.0 nm
EX Sampling interval:	5.0 nm
EM  Start WL:	230.0 nm
EM  End WL:	650.0 nm
EM Sampling interval:	5.0 nm
Scan speed:	12000 nm/min
EX Slit:	5.0 nm
EM Slit:	5.0 nm
PMT Voltage:	700 V
Response:	Auto 
Corrected spectra:	Off
Contour interval:	50.000

Peak integration
Integration method:	Rectangular
Sensitivity:	1
Threshold:	1.000

Peaks
No.	ApexEX/EM(nm)	Height(Data)
1	225.0/555.0	59.03
2	225.0/575.0	71.06
3	225.0/625.0	53.42
4	225.0/640.0	53.27
5	230.0/340.0	1101
6	230.0/500.0	222.5
7	235.0/510.0	204.7
8	240.0/265.0	340.8
9	240.0/525.0	185.0
10	245.0/270.0	338.2
11	245.0/535.0	161.7
12	250.0/550.0	133.4
13	255.0/280.0	510.1
14	255.0/565.0	118.8
15	260.0/575.0	106.6
16	265.0/590.0	102.5
17	270.0/300.0	1165
18	270.0/600.0	102.9
19	275.0/305.0	1348
20	275.0/610.0	95.29
21	280.0/625.0	78.47
22	285.0/635.0	57.31
23	305.0/345.0	503.6
24	310.0/350.0	424.3
25	315.0/355.0	400.0
26	320.0/360.0	380.7
27	325.0/370.0	344.2
28	330.0/375.0	321.9
29	335.0/380.0	302.7
30	340.0/390.0	268.7
31	345.0/395.0	251.7
32	350.0/400.0	247.6
33	355.0/410.0	224.2
34	360.0/415.0	210.7
35	365.0/420.0	203.4
36	430.0/505.0	25.85
37	440.0/520.0	18.24
38	445.0/525.0	16.13
39	455.0/335.0	3.348
40	455.0/540.0	10.40
41	475.0/355.0	3.651
42	505.0/275.0	3.126
43	510.0/280.0	3.621
44	520.0/285.0	3.725
45	530.0/290.0	4.051
46	540.0/295.0	5.462
47	545.0/300.0	6.486
48	550.0/305.0	7.173
49	560.0/310.0	7.241
50	570.0/315.0	6.634
51	580.0/320.0	6.192
52	585.0/325.0	5.889

Data points
	220.0	225.0	230.0	235.0	240.0	245.0	250.0	255.0	260.0	265.0	270.0	275.0	280.0	285.0	290.0	295.0	300.0	305.0	310.0	315.0	320.0	325.0	330.0	335.0	340.0	345.0	350.0	355.0	360.0	365.0	370.0	375.0	380.0	385.0	390.0	395.0	400.0	405.0	410.0	415.0	420.0	425.0	430.0	435.0	440.0	445.0	450.0	455.0	460.0	465.0	470.0	475.0	480.0	485.0	490.0	495.0	500.0	505.0	510.0	515.0	520.0	525.0	530.0	535.0	540.0	545.0	550.0	555.0	560.0	565.0	570.0	575.0	580.0	585.0	590.0	595.0	600.0
230.0	68.69	722.7	1625	420.3	24.35	10.58	9.481	7.298	6.257	5.530	5.012	4.737	4.077	3.250	3.204	2.465	2.159	1.946	1.944	1.702	1.544	1.528	1.330	1.216	1.122	1.177	1.065	1.071	1.034	1.074	0.962	0.928	0.882	0.878	0.781	0.776	0.718	0.719	0.716	0.692	0.694	0.749	0.695	0.655	0.619	0.631	1.169	3.709	5.923	4.227	1.714	0.638	0.501	0.517	0.515	0.508	0.524	0.535	0.526	0.537	0.533	0.536	0.585	0.532	0.549	0.565	0.547	0.599	0.573	0.560	0.558	0.576	0.570	0.594	0.569	0.587	0.619
235.0	83.89	226.2	1380	1937	457.7	32.54	10.33	9.122	6.473	5.647	5.253	4.592	3.946	3.524	3.079	2.405	2.071	1.962	1.837	1.707	1.608	1.536	1.488	1.301	1.188	1.126	1.026	1.088	1.018	1.109	1.006	0.880	0.780	0.914	0.842	0.744	0.734	0.685	0.736	0.699	0.642	0.681	0.625	0.734	0.765	0.601	0.699	1.354	2.857	5.364	7.615	7.761	3.512	1.011	0.604	0.533	0.502	0.472	0.529	0.553	0.675	0.529	0.586	0.587	0.537	0.581	0.596	0.622	0.580	0.603	0.568	0.633	0.612	0.563	0.610	0.621	0.565
240.0	116.1	116.1	482.3	2003	2320	361.5	21.77	9.469	7.727	7.129	6.083	4.357	4.040	3.628	3.300	2.667	2.144	2.119	1.885	1.711	1.566	1.614	1.348	1.340	1.138	1.094	1.077	1.060	1.012	1.046	0.948	0.892	0.792	0.805	0.864	0.753	0.802	0.712	0.681	0.663	0.656	0.643	0.734	0.648	0.829	0.759	0.734	0.777	1.049	2.023	4.679	10.69	13.13	8.631	3.188	0.754	0.555	0.519	0.596	0.559	0.559	0.513	0.575	0.553	0.540	0.549	0.590	0.603	0.573	0.566	0.586	0.574	0.551	0.542	0.594	0.562	0.570
245.0	122.8	149.6	169.1	787.1	2931	2354	274.0	12.35	9.104	7.058	6.833	5.163	4.613	4.355	3.629	2.563	2.274	2.008	2.201	1.740	1.606	1.518	1.352	1.373	1.316	1.218	1.099	1.027	1.143	1.077	0.972	0.918	0.907	0.769	0.901	0.734	0.761	0.704	0.670	0.730	0.679	0.661	0.722	0.697	0.705	0.828	0.993	0.904	0.681	0.799	1.420	4.343	10.15	16.69	15.52	7.830	2.411	0.638	0.582	0.564	0.555	0.555	0.574	0.596	0.500	0.575	0.565	0.587	0.580	0.606	0.598	0.523	0.644	0.617	0.603	0.552	0.605
250.0	72.02	135.6	204.7	251.8	1023	2798	3661	1008	55.69	9.243	7.567	5.561	5.238	4.263	3.706	2.783	2.442	2.326	2.089	1.757	1.576	1.410	1.416	1.357	1.282	1.162	1.197	1.133	1.154	1.076	0.961	1.009	0.934	0.853	0.880	0.825	0.764	0.762	0.701	0.722	0.661	0.654	0.708	0.668	0.629	0.668	0.734	0.896	1.034	0.913	0.875	1.446	2.852	5.872	10.51	15.16	19.39	16.24	8.845	2.530	0.718	0.570	0.584	0.586	0.541	0.590	0.565	0.609	0.566	0.569	0.600	0.542	0.598	0.581	0.608	0.597	0.585
255.0	51.49	61.93	171.6	277.3	299.3	750.2	3442	5398	1412	50.17	9.758	7.383	5.992	4.545	4.321	3.285	2.507	2.538	2.059	1.874	1.572	1.436	1.561	1.273	1.336	1.286	1.245	1.192	1.194	1.085	0.922	1.038	0.929	0.872	0.891	0.777	0.791	0.719	0.721	0.718	0.695	0.587	0.711	0.744	0.672	0.669	0.654	0.590	0.758	1.102	1.377	1.465	1.247	1.752	2.867	4.034	8.119	18.54	32.26	27.11	13.62	2.659	0.630	0.627	0.585	0.593	0.622	0.680	0.570	0.584	0.622	0.562	0.603	0.607	0.610	0.589	0.639
260.0	56.29	43.27	80.41	264.9	280.3	213.3	1112	4883	6119	244.2	25.11	10.02	7.414	5.222	4.581	3.524	2.652	2.461	2.189	2.063	1.653	1.587	1.502	1.458	1.297	1.264	1.251	1.284	1.224	1.074	1.075	0.955	0.960	0.956	0.832	0.865	0.820	0.691	0.755	0.720	0.793	0.702	0.680	0.663	0.681	0.608	0.593	0.593	0.550	0.736	1.054	1.837	1.669	1.394	1.112	1.391	2.392	5.509	14.61	30.24	41.22	24.94	10.30	1.528	0.643	0.636	0.684	0.682	0.542	0.592	0.613	0.627	0.622	0.631	0.607	0.636	0.671
265.0	55.51	39.11	44.15	134.1	340.8	202.0	287.8	1735	7140	5399	194.2	15.81	8.764	5.999	5.069	3.677	3.065	2.545	2.333	1.945	1.786	1.706	1.636	1.651	1.283	1.399	1.315	1.284	1.183	1.114	1.111	0.913	0.996	0.939	0.835	0.975	0.804	0.714	0.718	0.709	0.819	0.751	0.711	0.657	0.662	0.568	0.582	0.595	0.564	0.569	0.620	1.152	1.766	2.011	1.474	0.918	1.097	1.790	3.936	9.310	23.09	41.42	47.93	22.03	6.198	0.942	0.709	0.625	0.620	0.625	0.546	0.615	0.610	0.579	0.643	0.638	0.660
270.0	69.00	52.27	44.03	55.91	180.1	338.2	251.4	441.1	2337	5875	6844	773.1	50.23	8.876	6.596	4.409	3.710	2.820	2.582	2.313	1.974	1.839	1.801	1.660	1.442	1.401	1.339	1.299	1.178	1.193	1.175	1.012	0.990	0.994	0.883	0.950	0.809	0.812	0.812	0.726	0.753	0.745	0.686	0.740	0.661	0.636	0.662	0.643	0.587	0.512	0.535	0.704	0.942	1.419	1.951	2.134	1.916	1.423	1.505	2.630	5.955	12.36	24.13	36.29	36.07	38.60	15.27	6.154	1.001	0.718	0.633	0.631	0.629	0.600	0.695	0.728	0.685
275.0	98.33	99.92	75.89	55.93	73.65	175.9	433.0	311.6	577.0	1482	5056	9999.9	1109	51.27	9.851	6.334	4.446	3.636	3.112	2.800	2.254	2.052	1.895	1.673	1.734	1.336	1.449	1.399	1.329	1.244	1.396	1.129	1.073	1.038	1.042	0.892	0.915	1.014	0.812	0.781	0.821	0.795	0.714	0.769	0.747	0.691	0.714	0.774	0.739	0.569	0.556	0.682	0.678	0.767	0.921	1.240	2.163	3.126	2.529	1.588	1.931	3.429	6.141	9.018	11.55	28.99	57.08	66.89	24.01	6.737	0.970	0.740	0.767	0.665	0.670	0.679	0.643
280.0	139.3	154.5	136.4	91.19	68.74	97.19	313.2	510.1	286.8	424.7	1478	7703	9065	802.2	27.43	8.395	5.519	4.782	3.558	3.067	2.239	2.266	2.070	1.845	1.764	1.585	1.475	1.416	1.336	1.328	1.307	1.158	1.281	1.158	1.115	1.042	0.967	0.963	0.966	0.836	0.873	0.877	0.819	0.860	0.789	0.881	0.842	0.966	0.819	0.701	0.678	0.701	0.868	0.801	0.815	0.855	1.233	2.124	3.621	3.234	1.781	1.646	2.126	2.926	3.487	7.954	19.83	46.41	68.61	32.83	19.80	3.421	0.786	0.671	0.699	0.662	0.741
285.0	191.3	234.5	201.5	132.2	96.75	93.71	160.2	488.6	500.2	264.2	487.4	2378	9198	7348	118.7	13.62	6.798	5.181	3.719	3.051	2.692	2.473	2.222	1.842	1.804	1.563	1.549	1.442	1.483	1.396	1.276	1.166	1.181	1.239	1.035	1.097	0.943	1.059	0.976	0.926	0.948	0.926	0.909	0.907	0.924	1.036	0.962	1.126	1.045	0.896	0.735	0.832	0.872	0.841	0.931	0.924	1.037	1.216	1.969	3.567	3.725	2.604	1.725	1.751	1.921	2.976	5.670	12.66	27.42	51.81	77.10	30.45	13.66	1.573	0.803	0.736	0.756
290.0	257.2	331.2	304.6	206.1	143.1	124.0	148.7	273.8	576.7	610.9	420.9	810.0	2750	6811	8764	1815	32.80	7.348	5.054	3.723	3.211	2.723	2.359	2.155	1.941	1.821	1.568	1.494	1.496	1.412	1.274	1.268	1.214	1.210	1.214	1.187	1.207	1.156	1.054	1.000	0.979	0.991	1.027	0.965	1.092	1.193	1.230	1.405	1.333	1.174	1.035	1.092	1.078	1.068	0.962	0.997	1.109	1.163	1.411	1.941	2.715	3.679	4.051	3.548	2.452	2.403	3.010	4.479	7.913	14.30	28.57	40.13	56.20	48.23	20.46	10.40	2.111
295.0	318.2	412.0	406.7	281.5	198.7	166.6	193.0	236.5	389.9	774.2	877.3	624.1	943.2	1751	5232	9349	687.7	36.27	7.513	5.244	3.800	3.052	2.542	2.370	2.255	1.878	1.650	1.489	1.589	1.476	1.344	1.421	1.289	1.307	1.351	1.319	1.194	1.239	1.082	0.992	1.022	1.081	1.061	1.060	1.202	1.309	1.440	1.547	1.574	1.353	1.252	1.213	1.118	1.147	1.097	1.123	1.285	1.372	1.430	1.662	2.005	2.380	3.043	4.626	5.462	4.418	3.197	3.327	3.818	5.223	8.087	10.36	14.62	22.70	49.43	78.20	32.58
300.0	358.7	474.5	470.1	326.6	224.8	210.1	238.9	294.8	405.2	653.1	1165	901.7	658.4	663.5	1458	6066	8252	535.9	19.61	6.662	4.876	3.710	3.089	2.346	2.576	1.863	1.792	1.555	1.634	1.711	1.583	1.387	1.319	1.319	1.329	1.446	1.353	1.091	1.089	1.100	1.065	0.999	1.102	1.209	1.276	1.407	1.439	1.745	1.736	1.523	1.446	1.468	1.336	1.294	1.272	1.292	1.574	1.734	1.787	1.924	2.141	2.364	2.775	3.661	4.900	6.486	5.930	4.337	3.686	3.719	3.886	4.075	4.848	6.577	14.43	37.44	66.07
305.0	397.1	517.9	533.4	376.5	267.3	257.9	298.6	364.4	493.9	685.4	1070	1348	824.5	539.5	573.3	1785	7214	4965	76.70	11.08	6.235	4.272	3.319	2.640	2.554	2.203	1.987	1.615	1.688	1.635	1.596	1.574	1.394	1.300	1.395	1.353	1.357	1.270	1.140	1.190	1.104	1.057	1.143	1.243	1.314	1.524	1.677	1.845	1.771	1.654	1.489	1.633	1.576	1.440	1.520	1.586	1.658	1.883	2.213	2.253	2.458	2.700	3.233	3.694	4.278	5.658	7.173	6.952	5.626	4.195	3.899	3.346	3.188	3.161	4.846	10.12	22.04
310.0	412.0	552.6	547.4	400.0	291.2	287.2	342.8	429.2	551.5	731.5	960.3	1253	1225	702.4	449.8	595.5	2084	4968	5489	1471	24.50	5.538	4.358	3.322	2.896	2.331	2.149	1.830	1.830	1.629	1.544	1.535	1.496	1.470	1.428	1.363	1.373	1.246	1.220	1.156	1.135	1.160	1.216	1.158	1.371	1.511	1.677	1.978	1.883	1.633	1.573	1.753	1.571	1.598	1.705	1.729	1.734	2.095	2.329	2.516	2.617	3.015	3.519	3.744	4.186	4.828	5.494	6.410	7.241	6.466	5.332	3.898	3.228	2.961	2.959	4.010	6.423
315.0	404.0	572.1	554.4	411.4	321.2	310.2	381.5	460.9	574.5	744.7	926.9	1058	1131	1050	546.2	375.8	649.8	1244	3276	7208	499.6	25.39	6.101	4.241	3.506	2.769	2.419	2.108	1.925	1.839	1.652	1.573	1.558	1.485	1.489	1.374	1.404	1.335	1.271	1.063	1.064	1.143	1.144	1.253	1.318	1.640	1.826	2.143	2.158	1.874	1.719	1.917	1.678	1.668	1.608	1.787	2.042	2.166	2.746	2.776	2.919	3.103	3.594	4.087	4.416	4.732	5.172	5.499	5.871	5.648	6.634	6.316	4.341	3.435	2.714	2.859	2.984
320.0	438.2	665.2	632.6	457.9	348.5	329.5	394.0	473.8	590.3	754.9	910.9	1020	998.0	1049	779.8	377.9	358.2	404.3	876.4	4649	6253	413.4	13.29	5.629	4.153	3.060	2.683	2.165	2.061	1.857	1.616	1.652	1.548	1.528	1.421	1.356	1.391	1.410	1.281	1.153	1.191	1.177	1.228	1.314	1.546	1.882	2.007	2.317	2.303	2.049	1.800	1.932	1.778	1.884	1.776	1.864	2.143	2.214	2.648	2.818	2.965	3.317	3.685	4.054	4.560	4.747	4.848	5.146	5.344	5.297	5.428	5.979	6.192	4.973	3.508	2.776	2.492
325.0	491.4	716.3	744.4	535.9	381.0	341.2	401.8	484.5	592.2	751.3	892.5	999.0	950.5	886.2	903.6	506.5	308.6	234.1	272.6	1321	5504	3771	59.27	8.666	5.130	3.434	2.880	2.481	1.995	1.888	1.797	1.712	1.503	1.473	1.539	1.307	1.365	1.498	1.209	1.216	1.209	1.285	1.081	1.439	1.551	1.963	2.266	2.601	2.650	2.227	2.160	2.048	1.807	1.829	1.866	1.911	2.132	2.500	2.488	2.760	2.902	3.248	3.576	3.903	4.499	4.531	4.777	5.226	5.245	5.047	4.958	4.843	5.577	5.889	5.183	3.422	2.773
330.0	539.0	829.3	911.5	688.2	490.7	391.4	421.7	489.0	589.1	730.7	874.6	968.2	934.3	816.5	743.9	668.5	428.7	235.4	172.6	378.2	1559	3910	4399	1186	19.85	4.897	3.630	2.900	2.366	2.165	1.950	1.863	1.536	1.536	1.554	1.412	1.273	1.299	1.234	1.231	1.171	1.241	1.249	1.437	1.614	1.987	2.316	2.814	3.089	2.521	2.430	2.541	2.284	2.141	1.983	1.990	2.203	2.417	2.536	2.892	3.044	3.169	3.531	3.843	4.299	4.717	4.680	4.949	4.967	5.026	4.846	4.707	4.699	4.639	4.984	4.702	4.533
335.0	586.5	933.0	1032	842.8	605.0	461.0	449.7	503.8	599.2	725.4	851.1	948.0	914.2	809.6	672.5	574.3	603.9	348.6	191.0	199.6	439.1	972.1	2843	5975	412.4	20.06	4.796	3.591	3.040	2.395	2.202	1.906	1.740	1.642	1.538	1.442	1.264	1.241	1.140	1.124	1.194	1.250	1.342	1.473	1.704	2.091	2.491	3.348	3.244	2.993	3.015	2.998	2.769	2.541	2.264	2.273	2.330	2.635	2.759	2.812	3.034	2.981	3.497	3.849	3.950	4.568	4.595	4.771	5.084	4.830	4.934	4.722	4.481	4.190	3.944	3.897	4.353
340.0	631.1	958.1	1101	921.0	666.9	492.0	468.3	512.5	593.7	705.9	825.2	908.8	898.6	800.7	654.5	517.6	541.5	491.1	243.3	178.1	206.3	303.7	780.7	4124	5173	343.7	9.648	4.230	3.448	2.628	2.217	1.945	1.833	1.675	1.579	1.365	1.367	1.396	1.210	1.107	1.128	1.188	1.367	1.583	1.756	2.088	2.462	3.291	3.303	3.129	3.349	3.367	3.044	2.940	2.422	2.469	2.530	2.651	2.801	2.891	3.049	3.150	3.591	3.839	4.003	4.026	4.547	4.724	4.675	4.747	4.826	4.506	4.325	4.322	4.029	3.513	3.778
345.0	616.7	942.4	1086	949.7	715.9	529.5	481.7	510.6	580.3	680.9	787.6	868.1	857.3	771.1	636.1	497.0	447.9	503.6	364.2	201.4	170.1	168.8	243.5	1195	4830	3159	50.44	6.263	3.982	3.100	2.486	2.108	1.940	1.728	1.489	1.340	1.411	1.430	1.269	1.248	1.233	1.224	1.350	1.408	1.634	2.104	2.442	3.063	3.403	3.230	3.218	3.520	3.241	2.819	2.410	2.445	2.547	2.496	2.657	2.695	3.114	3.047	3.493	3.562	3.857	3.901	4.382	4.676	4.493	4.313	4.566	4.469	4.346	4.458	3.827	3.507	3.328
350.0	581.2	914.8	1075	958.2	742.5	555.3	501.1	519.0	562.5	650.3	736.2	801.3	799.2	728.8	617.7	491.6	415.0	401.8	424.3	316.5	196.1	158.5	141.3	321.1	1392	3403	3611	943.3	16.12	4.256	3.114	2.365	2.125	1.781	1.654	1.429	1.291	1.304	1.219	1.172	1.118	1.208	1.275	1.418	1.723	2.079	2.454	3.072	3.253	3.165	3.212	3.559	3.265	2.969	2.634	2.530	2.625	2.585	2.723	2.714	3.000	2.957	3.429	3.540	3.697	3.668	3.985	4.206	4.295	4.267	4.181	4.368	4.141	4.166	3.569	3.525	3.226
355.0	514.9	850.2	990.6	929.5	753.1	581.2	522.3	520.5	543.5	619.7	690.0	739.3	733.8	690.5	594.1	490.7	412.9	363.3	353.4	400.0	291.5	179.5	136.5	141.2	354.2	818.1	2518	4777	370.9	14.91	4.035	2.753	2.276	1.939	1.631	1.507	1.267	1.300	1.241	1.100	1.096	1.141	1.306	1.383	1.777	2.115	2.253	2.709	3.225	2.990	2.918	3.651	3.245	3.031	2.643	2.489	2.733	2.443	2.581	2.624	3.073	2.857	3.139	3.133	3.636	3.543	3.680	3.850	4.033	3.701	3.802	4.159	3.696	3.835	3.745	3.335	3.402
360.0	502.3	750.9	918.1	898.8	742.4	597.2	535.2	521.7	545.8	601.9	656.5	699.0	695.5	656.9	578.3	486.5	421.8	361.8	326.0	358.6	380.7	230.1	151.2	114.3	134.0	220.0	685.9	3611	3125	299.0	7.498	3.369	2.668	2.156	1.779	1.482	1.409	1.408	1.229	1.262	1.090	1.114	1.296	1.388	1.576	1.897	2.105	2.654	2.909	2.871	2.931	3.385	3.126	2.845	2.784	2.410	2.642	2.605	2.749	2.717	2.771	2.946	2.864	3.222	3.517	3.461	3.534	3.946	3.822	3.838	3.797	3.746	3.669	3.784	3.474	3.503	3.543
365.0	474.7	702.0	875.4	862.2	730.2	596.4	532.6	527.1	542.0	586.5	635.4	661.5	657.1	626.8	563.5	479.0	422.5	368.3	333.2	319.4	373.7	316.3	180.5	123.9	98.46	95.68	186.2	1084	4055	2829	45.67	5.198	3.078	2.383	1.934	1.744	1.555	1.370	1.330	1.275	1.144	1.089	1.175	1.336	1.572	1.735	2.185	2.582	2.666	2.841	2.802	3.317	3.057	2.836	2.823	2.695	2.576	2.627	2.712	3.017	2.909	2.973	3.153	3.014	3.155	3.435	3.434	3.528	3.679	3.746	3.689	3.677	3.623	3.770	3.850	3.528	3.414
370.0	422.1	644.7	800.8	813.6	711.5	611.0	542.3	524.7	537.6	568.1	604.9	621.9	615.4	591.2	540.1	471.6	427.2	379.7	348.0	317.9	318.1	344.2	272.6	158.0	109.7	86.71	86.32	275.5	1228	3195	3244	768.4	12.99	3.165	2.390	1.855	1.776	1.419	1.286	1.286	1.132	1.148	1.217	1.353	1.461	1.705	1.933	2.425	2.490	2.573	2.575	3.209	2.926	2.974	2.894	2.606	2.954	2.679	2.610	2.749	2.795	2.825	3.046	3.018	3.255	3.130	3.269	3.337	3.289	3.484	3.390	3.560	3.564	3.504	3.451	3.480	3.203
375.0	392.4	588.0	716.0	752.7	689.6	618.5	544.6	519.7	528.4	543.5	572.4	590.6	585.7	563.6	512.5	460.6	423.7	386.7	358.9	330.6	305.2	295.9	321.9	243.2	140.0	102.2	82.21	107.1	305.5	776.3	2469	4101	309.8	11.28	3.095	2.481	1.989	1.618	1.362	1.219	1.171	1.155	1.242	1.257	1.272	1.602	1.733	2.153	2.232	2.321	2.444	3.015	2.838	3.087	2.677	2.684	2.839	2.726	2.650	2.550	2.612	2.668	2.870	2.971	3.081	2.859	3.116	3.181	3.203	3.454	3.185	3.432	3.397	3.204	3.394	3.324	3.290
380.0	368.4	541.0	688.3	712.9	697.6	605.6	543.0	520.5	520.8	532.5	551.5	559.0	557.1	537.5	499.7	451.8	415.9	387.8	363.7	338.8	309.4	282.8	291.3	302.7	191.1	121.5	91.83	81.21	109.5	203.6	688.8	3308	2666	235.9	5.453	2.809	2.083	1.739	1.554	1.370	1.274	1.262	1.174	1.234	1.348	1.533	1.779	2.159	2.138	2.213	2.372	2.889	2.736	2.819	2.682	2.669	2.678	2.642	2.614	2.721	2.566	2.743	2.829	3.115	3.012	3.056	3.057	3.257	3.049	3.487	3.111	3.178	3.412	3.173	3.403	3.173	3.207
385.0	346.4	503.1	627.0	691.7	653.5	593.7	544.1	515.2	511.6	522.4	538.8	538.0	541.3	514.1	477.4	445.7	415.4	388.2	368.5	344.5	315.1	287.8	268.1	292.4	258.9	153.0	109.7	86.95	76.56	82.79	182.6	1023	3426	2283	35.77	3.791	2.463	1.996	1.623	1.366	1.368	1.180	1.259	1.283	1.395	1.458	1.639	2.097	2.123	2.015	2.199	2.749	2.719	2.964	2.907	2.653	2.763	2.733	2.623	2.696	2.509	2.697	2.918	2.924	2.804	2.823	2.973	3.005	3.011	3.223	3.156	3.043	3.094	3.016	3.333	3.221	3.198
390.0	306.2	457.5	601.3	657.4	631.8	573.8	539.0	509.8	499.6	506.8	515.3	517.2	514.8	493.6	461.3	433.0	407.8	389.3	368.0	345.7	322.5	293.7	267.6	255.0	268.7	225.3	144.6	106.0	83.58	68.97	77.95	255.9	1039	2499	2385	545.1	10.22	2.596	2.020	1.547	1.426	1.267	1.292	1.266	1.365	1.414	1.540	1.901	2.001	1.919	2.086	2.608	2.747	2.768	2.709	2.583	2.686	2.743	2.535	2.636	2.570	2.822	2.782	2.820	2.818	2.752	2.824	2.967	2.893	2.979	2.926	3.099	3.162	3.091	3.152	3.100	3.193
395.0	297.8	466.6	568.7	613.6	609.6	555.4	528.0	507.6	492.1	498.2	491.0	494.2	488.6	472.8	442.8	420.2	398.6	382.3	367.1	348.5	324.2	300.7	272.9	251.3	234.8	251.7	211.9	135.6	100.9	81.12	67.05	91.23	255.4	608.9	1874	2953	252.2	8.029	2.437	1.836	1.653	1.233	1.338	1.289	1.408	1.552	1.512	1.734	1.973	1.904	1.961	2.465	2.639	2.750	2.544	2.698	2.659	2.940	2.729	2.860	2.705	2.764	2.698	2.872	2.748	2.803	2.799	2.682	2.747	2.882	2.786	2.977	3.063	3.103	2.959	2.957	3.029
400.0	296.7	431.3	550.6	592.4	593.2	551.9	519.8	502.7	490.6	483.2	479.5	483.8	473.3	460.4	433.5	404.6	389.8	372.2	357.0	346.1	323.7	304.0	280.5	255.3	232.5	232.3	247.6	176.0	119.9	92.47	73.12	62.72	86.10	156.2	528.1	2434	2143	36.78	4.119	2.394	1.815	1.418	1.378	1.442	1.425	1.585	1.617	1.783	1.955	1.853	1.900	2.326	2.614	2.614	2.602	2.657	2.541	2.728	2.572	2.609	2.778	2.792	2.586	2.701	2.769	2.576	2.548	2.751	2.987	2.643	2.943	3.024	2.858	2.813	2.730	3.007	3.262
405.0	287.0	405.9	528.1	576.4	578.5	548.9	515.2	507.5	483.5	472.9	470.0	464.4	462.0	447.0	419.0	396.8	378.9	363.0	350.8	339.4	321.8	301.0	284.0	257.6	237.6	220.8	235.9	223.8	145.6	106.6	84.33	65.19	55.91	58.85	135.4	757.2	2563	1756	30.90	2.945	1.972	1.626	1.478	1.442	1.367	1.437	1.491	1.887	1.924	1.939	1.886	2.327	2.465	2.544	2.481	2.496	2.811	2.513	2.540	2.564	2.700	2.654	2.569	2.447	2.714	2.497	2.763	2.656	2.892	2.753	2.810	2.782	2.887	2.914	2.756	2.801	3.245
410.0	280.5	392.6	503.1	556.8	569.2	543.7	512.5	494.0	471.9	463.0	460.9	455.7	441.5	428.4	404.5	380.2	362.3	353.4	339.7	327.6	311.8	297.3	282.7	261.6	241.8	220.6	212.8	224.2	199.7	135.3	98.67	75.01	56.00	44.30	51.74	185.3	774.0	1863	1799	141.6	8.569	2.163	1.677	1.585	1.481	1.376	1.540	1.741	1.838	1.841	1.833	2.321	2.459	2.527	2.646	2.438	2.659	2.580	2.508	2.491	2.534	2.581	2.470	2.689	2.632	2.498	2.632	2.466	2.695	2.595	2.655	2.607	2.751	2.739	2.804	2.843	2.909
415.0	260.7	357.3	471.6	528.6	539.2	512.6	503.1	487.7	467.2	453.3	444.2	440.9	417.7	407.7	384.8	361.2	347.2	332.2	324.7	312.7	298.9	287.0	275.9	262.4	242.4	225.7	210.1	199.1	210.7	183.8	119.3	85.59	64.47	47.97	38.70	60.40	186.3	452.7	1359	2040	222.4	7.553	2.167	1.659	1.426	1.520	1.563	1.709	1.806	1.839	1.801	2.188	2.342	2.614	2.497	2.473	2.640	2.526	2.549	2.530	2.531	2.553	2.543	2.606	2.529	2.497	2.679	2.322	2.578	2.361	2.381	2.455	2.736	2.418	2.719	2.577	2.803
420.0	240.7	349.6	442.8	497.5	520.6	509.1	491.4	471.9	451.6	447.4	438.2	428.4	411.1	391.1	369.7	342.7	331.3	320.1	312.5	300.6	287.5	279.5	269.9	257.5	242.2	226.7	205.6	193.5	194.9	203.4	148.5	96.77	72.69	53.56	40.68	35.82	57.36	112.5	374.2	1675	1825	34.39	3.726	1.973	1.765	1.730	1.535	1.835	1.825	1.808	1.814	2.075	2.469	2.345	2.441	2.374	2.522	2.690	2.590	2.533	2.563	2.719	2.420	2.579	2.370	2.411	2.482	2.240	2.446	2.509	2.422	2.349	2.486	2.488	2.474	2.541	2.830
425.0	238.4	350.5	431.4	480.8	494.2	502.8	485.9	466.5	451.7	439.8	427.0	417.5	399.5	375.3	352.7	331.0	316.1	304.8	296.2	288.8	276.1	270.1	260.8	253.9	237.8	224.4	207.0	192.0	184.3	189.3	177.5	114.0	79.04	58.54	43.90	33.53	30.83	38.63	93.60	507.1	1852	1439	29.83	2.612	1.935	1.687	1.682	1.757	1.826	1.599	1.758	2.051	2.242	2.293	2.388	2.340	2.495	2.556	2.593	2.369	2.596	2.656	2.302	2.427	2.595	2.347	2.347	2.353	2.411	2.359	2.391	2.506	2.356	2.351	2.596	2.558	2.616
430.0	246.6	341.1	411.6	467.3	485.4	481.3	475.8	460.9	447.1	435.2	422.2	404.1	382.7	357.5	334.5	312.6	299.8	291.5	282.1	272.5	263.6	259.8	251.9	244.6	234.2	222.8	209.9	193.0	181.0	171.5	172.2	146.6	97.94	67.90	51.03	38.80	29.98	25.40	33.42	122.3	535.5	1341	1426	135.1	9.064	2.070	1.840	1.872	1.795	1.688	1.764	2.065	2.208	2.300	2.279	2.318	2.466	2.433	2.569	2.425	2.483	2.436	2.435	2.430	2.429	2.379	2.368	2.388	2.320	2.209	2.357	2.364	2.288	2.311	2.440	2.518	2.384
435.0	324.9	307.3	399.7	446.3	466.2	471.4	470.7	464.1	446.7	426.9	418.9	393.0	372.2	341.5	315.5	296.3	285.3	275.1	266.2	255.5	248.2	240.5	240.0	234.8	226.2	218.4	206.4	197.1	183.5	169.5	154.6	152.8	129.1	82.09	59.11	45.22	34.50	26.21	23.03	38.84	128.1	319.2	974.1	1785	223.1	9.765	2.281	1.949	1.871	1.595	1.664	2.015	2.203	2.406	2.383	2.321	2.631	2.407	2.445	2.488	2.457	2.255	2.438	2.329	2.303	2.314	2.419	2.393	2.291	1.996	2.358	2.301	2.214	2.464	2.365	2.372	2.430
440.0	451.9	331.1	376.2	428.7	449.7	462.3	460.8	452.1	445.2	421.5	408.0	385.0	360.2	334.5	307.4	285.7	270.7	262.6	250.6	244.9	239.0	232.4	230.9	225.6	220.0	212.6	202.5	196.2	183.4	168.8	150.7	141.0	139.0	101.7	66.91	49.32	38.86	28.82	22.61	22.13	38.96	78.91	261.7	1322	1687	183.8	4.849	2.256	1.838	1.720	1.799	1.972	1.998	2.152	2.545	2.286	2.473	2.388	2.425	2.547	2.394	2.378	2.358	2.467	2.464	2.375	2.301	2.263	2.317	2.176	2.164	2.388	2.285	2.270	2.077	2.266	2.299
445.0	541.9	420.8	361.8	409.8	441.3	445.8	454.8	445.5	434.2	413.8	404.1	378.7	353.2	322.7	294.0	272.1	259.5	249.4	242.1	234.1	227.2	224.6	225.0	217.6	213.0	206.8	199.7	192.1	179.1	168.4	150.2	131.1	128.7	119.2	78.95	54.27	42.16	31.67	24.50	20.34	20.51	26.16	65.67	383.4	1544	1443	27.29	3.017	2.009	1.763	1.861	1.998	2.105	2.082	2.283	2.138	2.511	2.438	2.340	2.573	2.305	2.279	2.308	2.483	2.502	2.269	2.294	2.114	2.316	2.177	2.120	2.070	2.155	2.059	2.315	2.250	2.128
450.0	430.2	731.7	414.1	387.7	413.3	421.0	427.5	431.7	414.3	399.5	385.5	362.8	333.4	301.4	276.1	256.1	240.4	230.8	222.7	215.5	210.3	206.4	207.9	201.9	198.9	195.6	189.4	183.7	173.9	165.6	147.9	128.5	114.4	111.1	96.89	66.37	46.87	36.28	28.36	22.09	18.46	16.42	22.76	92.16	429.0	1154	1334	411.3	9.391	2.005	1.887	2.119	2.107	2.200	2.183	2.124	2.270	2.331	2.261	2.407	2.380	2.312	2.302	2.312	2.350	2.191	2.173	2.158	2.097	2.126	2.144	2.081	2.074	2.023	2.066	2.006	2.190
455.0	255.0	874.6	763.9	379.1	376.1	386.5	404.4	405.3	394.6	377.2	368.9	342.4	313.5	285.1	255.2	233.5	220.8	212.5	206.8	196.3	188.5	187.0	186.1	186.8	183.8	180.8	175.9	172.0	163.5	157.4	143.8	124.6	108.7	96.61	93.85	82.41	54.91	39.39	31.05	25.05	19.30	15.51	14.39	27.87	101.6	269.0	704.9	1535	196.2	11.01	2.087	2.220	2.103	2.057	2.175	2.050	2.273	2.361	2.370	2.379	2.415	2.264	2.305	2.266	2.224	2.148	2.085	2.022	2.025	2.029	1.928	1.927	2.115	2.043	1.893	1.936	2.194
460.0	183.5	697.9	1166	441.9	361.7	367.7	385.4	383.3	377.5	359.7	350.8	326.3	298.0	262.4	241.2	215.8	204.3	196.7	191.1	181.7	173.9	174.0	172.1	172.7	172.4	170.1	164.3	161.0	156.3	150.4	137.6	122.2	104.8	89.53	82.75	84.29	64.64	42.73	32.77	27.13	21.28	16.70	13.69	14.24	29.12	65.55	176.6	920.7	1367	159.8	6.984	2.224	2.175	2.063	2.032	1.845	2.213	2.253	2.121	2.280	2.145	2.111	2.075	2.109	2.329	2.223	2.023	2.106	2.059	1.854	1.917	2.016	1.953	1.823	1.905	1.846	2.000
465.0	162.5	416.7	1468	709.5	341.7	348.4	361.4	356.8	354.4	336.5	330.5	304.2	281.4	249.9	223.0	202.2	192.5	181.5	175.5	169.1	162.0	160.3	160.4	159.4	158.9	157.7	153.3	152.8	149.4	143.1	130.9	118.3	100.3	86.25	75.62	75.79	71.41	48.53	34.81	27.92	22.54	18.11	14.51	12.33	13.65	20.69	44.49	243.9	1055	1174	134.9	4.324	2.251	2.081	2.016	1.830	2.073	2.167	1.971	2.088	2.139	2.053	2.126	2.120	2.181	2.013	1.975	1.954	1.945	1.903	1.891	1.703	1.727	1.788	1.815	1.707	1.701
470.0	162.8	242.7	991.3	1482	466.3	317.7	330.8	329.6	320.7	313.9	303.5	283.3	253.3	225.6	201.3	184.9	169.3	164.3	155.9	150.1	144.4	143.3	142.7	141.6	141.6	142.1	137.8	138.0	134.6	131.0	121.8	109.9	95.60	81.45	70.66	64.47	63.75	57.60	39.07	28.84	23.24	18.95	15.48	12.42	11.05	11.23	15.21	58.90	274.9	752.2	955.8	393.2	11.83	2.331	2.066	1.941	2.158	1.991	1.990	2.063	2.106	2.019	2.019	1.959	1.861	1.882	1.789	1.818	1.874	1.717	1.800	1.725	1.733	1.704	1.602	1.655	1.645
475.0	181.2	199.4	434.1	1632	1130	303.3	297.1	295.2	295.5	286.5	279.9	255.6	226.2	204.1	179.0	165.7	151.6	143.6	139.1	131.6	128.6	124.9	123.8	125.0	124.9	125.9	122.9	122.8	120.6	118.2	110.9	98.16	88.05	76.88	65.36	58.13	52.78	53.56	46.74	33.14	24.49	19.48	15.72	13.47	11.31	9.912	9.135	18.07	65.22	172.2	376.8	986.7	207.7	15.98	2.141	2.030	1.975	1.876	1.879	1.823	1.885	1.830	1.760	1.718	1.846	1.823	1.799	1.701	1.766	1.612	1.691	1.463	1.635	1.617	1.607	1.652	1.713
480.0	168.1	190.6	252.5	1084	1850	406.1	274.1	275.5	280.1	266.3	258.7	239.2	210.4	192.2	169.1	152.6	141.2	133.3	128.6	121.7	117.2	115.1	114.3	114.9	114.7	116.1	113.6	113.2	111.0	108.8	105.0	93.91	83.02	72.19	63.42	54.90	48.57	46.54	47.90	38.11	26.18	20.31	16.33	14.09	11.91	10.13	8.418	9.457	18.75	41.90	90.52	462.0	985.4	199.3	10.28	2.138	2.042	1.768	2.002	1.834	1.898	1.671	1.737	1.632	1.719	1.684	1.683	1.645	1.729	1.465	1.529	1.584	1.612	1.530	1.424	1.562	1.594
485.0	153.2	205.6	224.2	549.2	2138	851.7	270.7	263.3	267.1	255.8	239.9	224.7	199.2	180.2	157.9	142.8	131.7	124.0	119.0	112.9	107.3	107.8	106.5	107.7	106.3	106.4	105.9	106.0	104.9	103.1	97.88	89.36	80.14	69.14	60.37	52.52	46.09	41.69	42.76	41.52	29.42	20.72	16.87	14.40	12.27	10.17	8.669	7.710	8.663	13.10	23.53	115.9	619.2	959.6	163.2	5.703	2.155	1.939	1.777	1.831	1.762	1.743	1.640	1.689	1.744	1.687	1.576	1.505	1.605	1.534	1.538	1.426	1.471	1.534	1.476	1.508	1.447
490.0	133.3	205.2	196.5	281.1	1377	1759	377.0	241.0	242.4	232.7	223.9	207.4	183.8	165.6	145.5	129.6	120.3	113.1	106.1	102.7	98.48	96.72	97.20	98.27	95.67	96.43	97.13	96.12	95.85	94.49	89.60	82.38	73.42	64.77	56.98	50.70	44.23	38.90	36.11	37.25	34.68	24.41	17.91	14.59	12.70	10.63	8.893	7.879	6.918	7.008	8.816	29.07	154.1	491.6	805.5	402.8	14.39	2.239	1.949	1.771	1.739	1.824	1.601	1.647	1.734	1.514	1.506	1.442	1.525	1.492	1.408	1.451	1.451	1.487	1.446	1.458	1.336
495.0	104.9	186.1	211.7	197.5	527.9	1847	1252	233.5	220.9	211.2	201.8	186.2	168.8	149.6	131.8	117.5	108.7	100.3	94.66	91.49	87.60	86.60	85.13	86.45	86.16	86.64	85.57	86.25	86.86	84.61	83.11	74.40	67.45	59.79	53.37	47.78	42.35	36.44	32.41	31.15	32.20	29.62	20.79	15.13	13.03	11.17	9.416	8.582	7.203	6.186	5.946	9.630	37.26	112.7	285.8	854.5	623.9	21.27	2.262	1.775	1.798	1.659	1.604	1.590	1.636	1.431	1.382	1.558	1.448	1.364	1.345	1.319	1.533	1.284	1.315	1.380	1.410
500.0	98.73	155.5	222.5	176.8	259.8	1193	2147	334.1	198.8	187.3	188.3	175.5	155.0	137.2	122.2	109.2	97.55	92.28	87.23	82.64	80.08	78.40	76.59	77.99	77.58	76.90	77.32	78.28	78.82	78.86	75.09	67.84	62.61	55.72	49.99	44.71	39.36	34.51	30.23	28.26	27.13	29.33	24.28	16.54	12.98	11.17	9.580	8.181	7.541	6.206	5.452	5.351	11.13	27.84	67.79	349.5	982.2	228.1	15.12	1.967	1.642	1.804	1.577	1.636	1.462	1.345	1.428	1.360	1.389	1.362	1.231	1.336	1.356	1.358	1.219	1.351	1.254
505.0	91.11	128.6	219.6	179.4	187.4	559.4	2482	788.7	185.9	177.1	172.5	162.3	142.8	128.4	112.4	98.20	90.64	83.88	80.06	74.67	71.85	71.86	69.84	72.15	70.77	69.92	70.64	71.35	70.72	71.76	68.27	63.76	58.18	51.59	46.78	41.34	36.63	32.92	28.61	25.79	23.66	25.30	25.85	18.93	13.01	10.87	9.590	8.434	7.360	6.303	5.076	4.764	5.675	9.019	17.81	84.63	481.3	890.3	196.7	7.768	1.801	1.776	1.623	1.467	1.467	1.330	1.365	1.315	1.226	1.217	1.204	1.248	1.214	1.211	1.105	1.141	1.237
510.0	84.73	107.5	171.3	204.7	158.2	246.8	1536	1823	264.7	160.7	153.9	144.5	128.8	113.7	99.07	88.25	80.21	74.48	70.11	65.30	63.84	62.25	62.00	61.44	62.05	61.56	62.65	62.30	61.77	62.28	59.88	55.35	50.69	46.26	42.24	37.49	33.12	30.09	26.35	23.85	21.07	20.15	22.42	21.11	14.99	11.07	9.421	8.132	7.142	6.308	5.646	4.756	4.307	4.832	6.525	21.24	115.5	395.5	661.4	386.8	15.16	2.018	1.514	1.401	1.358	1.272	1.247	1.254	1.184	1.160	1.135	1.196	1.124	1.187	1.107	1.089	1.195
515.0	79.45	94.28	124.6	198.3	155.8	163.1	526.6	2050	1025	159.5	140.6	128.3	115.2	99.74	86.43	76.89	68.67	65.57	59.82	57.44	56.11	54.29	54.27	53.51	53.40	54.02	53.01	53.92	54.44	54.17	52.84	49.67	44.64	39.92	37.26	32.72	29.60	27.06	23.71	22.03	19.27	17.27	17.38	19.15	18.23	12.66	9.295	8.005	6.734	5.939	5.560	5.055	4.384	3.956	3.997	7.052	27.95	90.32	209.3	645.5	480.6	20.87	1.730	1.475	1.385	1.271	1.316	1.146	1.148	1.130	1.051	1.056	1.049	1.042	1.061	1.033	1.074
520.0	74.50	82.83	107.6	169.6	176.9	129.3	220.4	1333	1938	237.8	127.5	115.8	101.1	90.38	78.09	69.56	62.27	60.45	54.77	52.15	50.12	49.65	47.88	48.41	48.31	47.72	48.54	48.56	47.98	48.68	47.42	44.35	40.07	37.23	33.19	30.18	27.03	24.93	22.22	20.60	18.00	15.60	14.59	15.87	18.24	14.60	9.271	7.706	6.676	5.952	5.074	4.991	4.415	3.700	3.491	4.062	8.440	22.05	49.21	247.6	700.7	224.8	14.22	1.581	1.338	1.334	1.160	1.124	1.053	1.116	1.217	1.081	1.050	1.009	1.018	1.050	1.036
525.0	82.18	74.70	93.93	135.7	185.0	126.3	139.3	589.8	2375	680.4	117.5	106.6	91.10	81.19	69.68	62.87	57.95	54.21	49.64	46.90	45.24	43.66	44.12	43.88	42.40	43.48	43.26	44.75	43.79	43.62	43.08	40.11	36.53	33.88	30.81	28.03	25.29	22.83	20.50	18.53	16.35	14.56	13.38	13.28	15.29	16.13	10.82	7.769	6.710	5.721	4.879	4.577	4.574	3.867	3.102	3.164	4.066	6.787	12.98	59.43	323.8	637.4	183.8	6.382	1.358	1.323	1.198	1.102	1.090	1.160	1.078	0.966	1.035	0.941	0.958	1.007	1.032
530.0	72.48	71.37	81.67	97.75	167.9	139.5	109.6	221.8	1488	1908	189.4	94.18	79.95	72.18	62.26	55.79	49.47	46.66	42.47	41.42	39.34	38.29	37.35	38.50	37.40	37.56	38.06	37.87	38.42	38.04	37.13	34.70	32.37	29.50	26.63	24.61	22.38	20.58	18.44	16.69	14.83	13.68	12.25	11.39	11.94	13.96	12.59	8.798	6.530	5.525	4.665	4.226	4.046	3.881	3.532	2.848	2.910	3.596	4.885	14.96	77.39	272.4	469.7	240.6	14.24	1.477	1.090	1.083	1.053	1.046	1.015	0.975	0.904	0.999	0.973	0.983	0.954
535.0	67.38	68.81	71.65	79.09	119.2	161.7	103.8	120.0	481.9	2300	916.8	89.97	71.66	62.93	53.96	48.54	42.24	39.89	37.90	35.90	34.66	32.84	32.72	32.51	32.11	32.07	32.17	32.94	32.91	33.14	31.74	29.69	26.99	25.09	22.92	21.50	19.26	17.61	16.39	14.64	13.15	11.88	10.77	10.31	9.857	10.37	11.71	10.34	6.866	5.224	4.643	4.004	3.532	3.318	3.313	2.982	2.724	2.616	2.866	4.827	18.87	62.26	141.8	433.8	238.4	18.59	1.241	1.140	1.109	0.995	0.988	0.952	0.883	0.849	0.928	0.963	0.930
540.0	63.05	61.19	63.82	73.26	84.90	159.2	110.2	89.68	176.2	1464	1790	149.3	64.85	56.26	48.86	43.58	37.51	35.63	33.58	31.40	30.61	28.75	29.43	28.72	27.84	29.04	28.11	28.42	29.14	29.25	27.55	26.62	24.51	22.41	20.21	18.93	17.93	15.49	14.52	13.15	11.92	10.66	9.864	9.270	8.747	8.516	9.518	10.40	7.902	5.249	4.357	3.747	3.459	3.082	3.094	3.149	2.809	2.310	2.243	2.662	5.499	15.31	33.32	164.7	465.2	207.0	11.17	1.205	1.033	0.972	0.918	0.824	0.917	0.827	0.825	0.795	0.880
545.0	61.41	60.03	59.01	66.32	72.20	130.4	121.9	75.95	97.36	588.4	2368	475.1	61.08	51.01	44.03	37.60	34.30	31.96	30.11	28.09	27.38	25.43	25.74	25.44	24.49	25.78	24.37	25.14	25.50	25.20	24.60	23.46	21.62	20.48	17.93	17.14	15.94	14.07	12.72	11.95	10.80	9.823	8.998	8.457	8.114	7.130	7.366	9.514	8.446	5.792	4.240	3.752	3.184	2.987	2.895	2.980	3.032	2.459	2.229	2.016	2.603	4.693	8.756	39.30	212.9	455.4	152.4	4.623	1.090	1.041	0.957	0.852	0.846	0.847	0.800	0.810	0.838
550.0	60.08	57.67	59.55	56.35	59.71	85.88	133.4	78.19	70.71	190.7	1401	1581	110.5	44.09	38.04	31.54	28.81	26.72	25.10	23.61	22.83	21.63	21.42	21.37	20.80	20.97	20.84	21.01	21.33	21.06	20.60	19.70	18.01	16.63	15.58	14.25	13.38	12.28	11.00	10.57	9.161	8.565	7.522	7.231	6.641	6.346	6.068	6.491	7.468	6.513	4.537	3.569	3.118	2.751	2.674	2.476	2.731	2.593	2.086	1.870	1.832	2.201	3.131	9.922	50.66	185.5	317.5	136.2	13.38	1.162	0.977	0.863	0.873	0.831	0.815	0.829	0.841
555.0	59.00	59.03	56.31	52.51	50.84	57.06	114.2	102.4	57.29	89.60	412.3	2006	637.1	41.71	31.96	26.91	24.10	22.96	20.33	19.43	18.46	17.93	17.40	18.16	17.33	16.30	16.71	17.25	17.06	17.13	17.23	15.75	15.09	14.09	13.01	11.69	11.20	9.964	9.450	9.067	7.808	7.426	6.501	6.327	6.098	5.575	4.996	4.902	5.311	6.296	5.169	3.635	2.679	2.668	2.388	2.244	2.155	2.387	2.155	1.803	1.726	1.505	1.822	3.264	12.29	42.34	94.34	272.9	211.0	16.31	1.124	0.930	0.873	0.830	0.847	0.834	0.745
560.0	62.29	55.95	54.69	47.74	45.35	48.87	81.63	117.4	59.77	60.82	137.0	1245	1346	75.57	27.02	22.80	20.62	20.15	17.84	17.08	16.36	15.81	15.06	15.20	14.73	14.72	14.10	14.55	14.62	14.69	14.49	13.29	13.22	11.53	11.43	9.677	9.376	8.701	8.307	7.786	6.794	6.355	6.058	5.502	5.111	5.059	4.366	4.005	4.019	4.802	5.157	3.835	2.555	2.454	2.110	1.983	1.960	2.146	2.262	2.063	1.651	1.488	1.480	1.736	3.778	10.37	22.21	103.2	302.7	156.4	7.892	0.959	0.834	0.811	0.776	0.801	0.822
565.0	64.21	56.05	55.35	45.26	41.39	42.98	57.97	118.8	65.79	52.45	72.23	470.6	1962	151.5	24.71	20.90	17.95	16.84	14.89	14.91	14.18	13.03	13.17	12.81	12.92	12.22	12.00	12.27	13.06	12.66	12.62	11.65	11.20	10.08	9.461	8.573	7.993	7.694	6.933	6.593	6.031	5.724	5.428	4.694	4.331	4.301	3.858	3.787	3.258	3.690	4.653	4.051	2.643	2.247	1.964	1.833	1.837	1.723	2.066	2.051	1.767	1.450	1.457	1.485	2.001	3.197	6.050	24.84	131.8	280.0	33.80	2.834	0.905	0.802	0.777	0.808	0.818
570.0	63.62	62.44	56.68	47.04	38.63	37.35	42.21	90.28	92.01	53.25	54.08	149.2	1205	1134	58.40	18.19	15.64	14.14	13.16	12.11	11.57	11.21	10.83	10.21	10.68	10.24	10.15	10.66	10.47	10.34	10.24	9.583	8.818	8.270	7.743	7.402	6.536	6.502	5.889	5.431	5.120	4.702	4.330	3.966	3.768	3.532	3.186	3.155	2.807	2.674	3.177	3.566	3.042	2.311	1.813	1.720	1.716	1.616	1.687	1.700	1.812	1.532	1.346	1.260	1.519	1.690	2.387	6.583	31.61	113.8	175.9	99.48	10.73	0.877	0.740	0.697	0.774
575.0	63.76	71.06	52.89	45.68	39.93	37.13	36.21	56.73	106.6	62.31	50.19	69.54	353.1	1559	389.1	16.34	13.25	11.21	11.28	9.913	9.318	9.329	8.690	9.077	8.462	8.304	8.597	8.239	8.324	8.304	8.216	8.572	7.081	6.890	6.445	6.291	5.482	5.280	4.799	4.395	4.152	3.751	3.848	3.406	3.436	2.943	2.801	2.584	2.442	2.329	2.287	2.776	3.001	2.592	1.967	1.617	1.577	1.398	1.558	1.447	1.533	1.683	1.463	1.299	1.392	1.394	1.518	2.405	7.902	26.28	53.84	165.8	130.4	11.34	0.821	0.711	0.749
580.0	61.95	68.89	56.98	49.53	37.26	33.98	35.31	43.57	94.92	81.08	51.94	54.83	112.2	994.0	939.4	30.52	11.81	10.63	10.15	8.780	8.046	7.992	7.608	7.384	7.347	7.166	7.030	6.939	7.505	7.299	6.679	7.159	5.965	5.945	5.242	4.924	4.795	4.436	4.278	3.894	3.520	3.591	3.360	3.145	3.199	2.664	2.623	2.476	2.222	2.024	1.903	2.031	2.636	2.646	2.048	1.480	1.479	1.363	1.468	1.371	1.310	1.627	1.761	1.302	1.325	1.239	1.253	1.577	2.683	6.764	13.02	63.02	181.0	90.61	4.843	0.775	0.759
585.0	63.59	63.48	60.06	47.98	37.66	34.58	32.95	37.00	74.23	100.4	55.05	50.24	56.42	375.9	1401	95.50	10.76	9.631	8.496	7.952	7.215	7.253	6.473	6.311	6.475	6.330	6.182	6.281	6.457	5.897	5.985	5.934	5.335	4.829	4.625	4.475	4.275	3.922	3.694	3.512	3.233	3.283	2.965	2.728	2.671	2.445	2.199	2.148	2.025	1.745	1.764	1.678	2.042	2.413	2.055	1.475	1.387	1.257	1.351	1.193	1.191	1.331	1.691	1.410	1.153	1.130	1.121	1.302	1.396	2.385	3.696	15.38	80.64	167.2	31.42	2.026	0.777
590.0	63.78	65.50	54.72	43.21	33.48	31.20	30.97	34.63	50.07	102.5	70.42	50.52	45.33	112.4	876.1	646.5	27.28	8.282	7.340	6.746	6.228	6.162	5.683	5.500	5.340	5.523	5.340	5.144	5.369	5.204	5.068	4.858	4.420	4.073	3.974	3.689	3.413	3.395	3.116	2.872	2.798	2.616	2.509	2.228	2.248	2.109	1.992	1.927	1.798	1.598	1.442	1.458	1.585	1.918	2.131	1.727	1.478	1.131	1.137	1.107	1.121	1.205	1.370	1.412	1.309	1.136	1.120	1.071	1.218	1.418	1.599	4.180	19.42	67.33	107.8	64.64	8.157
595.0	64.72	56.99	52.95	37.70	30.27	28.22	29.94	33.59	35.82	76.68	97.23	54.44	43.36	47.45	247.6	988.8	94.40	7.685	6.477	5.465	5.698	5.364	4.843	4.571	4.582	4.492	4.619	4.322	4.390	4.209	4.276	3.960	3.770	3.619	3.204	2.970	3.115	2.811	2.503	2.596	2.322	2.176	2.048	2.060	1.907	1.850	1.701	1.701	1.574	1.275	1.226	1.366	1.253	1.258	1.656	1.736	1.391	1.158	1.101	1.001	1.037	1.092	1.056	1.226	1.230	1.276	1.040	1.089	1.059	1.014	1.019	1.622	5.015	15.69	32.69	100.1	78.67
600.0	66.16	55.11	52.56	38.56	29.45	26.82	28.47	30.30	35.07	55.06	102.9	62.56	43.84	33.41	72.33	669.3	551.3	13.61	5.605	5.034	4.635	4.665	4.015	4.086	4.100	4.008	3.949	3.991	3.811	3.939	3.712	3.516	3.234	3.137	2.689	2.561	2.446	2.400	2.260	2.253	1.876	1.940	1.769	1.765	1.656	1.577	1.502	1.484	1.477	1.217	1.177	1.246	1.204	1.157	1.362	1.541	1.455	1.280	1.070	1.012	1.017	1.006	0.948	0.967	1.240	1.428	1.216	0.981	0.996	0.988	0.880	0.984	1.747	4.082	7.990	37.13	106.8
605.0	60.20	59.66	53.26	36.97	27.04	26.30	30.42	31.22	35.30	50.37	95.22	75.94	45.40	31.48	31.67	256.3	848.0	59.45	5.355	4.733	4.218	4.139	3.987	3.759	3.351	3.322	3.413	3.329	3.325	3.499	3.482	3.185	2.896	2.611	2.392	2.475	2.254	2.164	2.183	2.058	1.810	1.750	1.615	1.577	1.585	1.510	1.395	1.426	1.268	1.112	1.023	1.027	1.061	1.065	1.073	1.281	1.577	1.340	1.063	0.970	1.029	1.030	0.937	0.906	1.071	1.220	1.222	1.088	1.006	0.915	0.818	0.936	1.040	1.459	2.354	9.111	46.62
610.0	57.05	55.66	50.27	37.10	28.78	26.61	29.24	31.92	39.00	51.12	76.97	95.29	53.95	34.59	26.14	74.66	569.0	421.8	13.66	4.392	3.646	3.546	3.201	3.332	3.034	2.890	2.831	2.995	2.787	2.904	2.805	2.728	2.486	2.321	2.234	2.211	1.932	1.926	1.874	1.692	1.617	1.469	1.598	1.354	1.368	1.386	1.202	1.237	1.080	1.039	0.949	0.945	0.944	0.889	0.900	1.068	1.350	1.314	1.163	0.980	0.957	0.966	0.993	0.974	0.963	1.073	1.209	1.166	1.018	0.912	0.823	0.886	0.797	0.931	1.146	2.599	11.41
615.0	59.69	54.49	50.10	37.84	28.16	26.80	27.08	32.00	38.02	47.74	60.93	92.46	68.84	36.47	26.56	30.08	169.1	658.3	71.18	4.258	3.322	2.901	2.758	2.694	2.639	2.391	2.563	2.661	2.393	2.517	2.389	2.314	2.096	2.184	2.054	1.813	1.699	1.666	1.637	1.511	1.414	1.264	1.380	1.262	1.295	1.207	1.084	1.069	1.034	0.916	0.800	0.839	0.831	0.867	0.836	0.898	0.993	1.233	1.298	1.004	0.976	0.848	0.907	0.879	0.960	0.996	1.058	1.139	1.187	1.011	0.896	0.983	0.775	0.717	0.937	1.218	3.192
620.0	57.95	50.99	45.51	32.74	27.58	25.03	27.66	30.05	37.99	48.29	54.47	78.90	76.71	36.51	26.36	18.76	50.91	470.3	344.4	6.589	3.135	3.007	2.498	2.431	2.316	2.359	2.133	2.201	2.069	2.193	2.395	2.115	1.859	1.839	1.639	1.473	1.466	1.330	1.428	1.387	1.278	1.178	1.192	1.191	1.178	1.059	1.021	0.922	0.949	0.822	0.769	0.797	0.757	0.747	0.770	0.791	0.922	0.979	1.251	1.044	0.947	0.854	0.869	0.887	0.895	0.932	0.901	1.003	1.083	0.957	0.940	0.864	0.801	0.869	0.751	0.808	1.258
625.0	50.72	53.42	45.44	33.93	27.41	24.64	26.19	30.25	36.67	45.05	50.80	65.10	78.47	38.49	23.98	16.72	21.90	192.8	567.8	33.51	2.874	2.516	2.379	2.245	2.115	2.104	2.102	1.948	2.077	2.054	2.162	1.917	1.801	1.611	1.601	1.492	1.462	1.267	1.157	1.228	1.066	1.155	1.072	0.982	1.067	0.988	0.946	0.922	0.813	0.754	0.767	0.766	0.711	0.676	0.728	0.703	0.839	0.843	1.081	1.058	1.006	0.823	0.817	0.870	0.868	0.857	0.883	0.888	0.991	1.043	0.837	0.801	0.763	0.781	0.686	0.747	0.910
630.0	55.11	51.13	43.60	33.68	25.95	23.72	24.95	28.99	34.49	42.67	47.85	56.42	70.74	49.15	23.87	15.71	14.56	54.55	416.7	262.5	6.806	2.646	2.292	2.191	1.932	1.877	1.930	1.719	1.891	1.731	1.721	1.657	1.563	1.552	1.381	1.236	1.277	1.229	1.209	1.079	0.994	1.024	1.042	0.891	1.028	0.965	0.861	0.812	0.819	0.691	0.679	0.697	0.679	0.724	0.700	0.707	0.757	0.766	0.910	0.932	0.947	0.858	0.795	0.790	0.793	0.811	0.849	0.828	0.892	1.010	0.990	0.850	0.743	0.775	0.723	0.717	0.809
635.0	51.23	49.26	44.08	32.14	25.25	22.41	24.34	29.33	33.00	41.31	45.71	50.58	55.20	57.31	27.01	16.15	13.28	18.80	125.4	469.6	50.70	2.658	2.318	2.035	1.861	1.768	1.603	1.688	1.537	1.520	1.638	1.453	1.307	1.390	1.241	1.157	1.127	1.158	1.185	1.095	0.955	0.942	0.965	0.894	0.893	0.869	0.828	0.782	0.749	0.668	0.690	0.629	0.625	0.675	0.689	0.643	0.772	0.709	0.746	0.855	0.891	0.937	0.814	0.709	0.709	0.736	0.802	0.798	0.798	0.850	0.966	0.948	0.814	0.794	0.733	0.730	0.662
640.0	51.89	53.27	42.83	28.56	25.72	24.02	22.24	28.66	30.09	38.97	44.50	48.31	47.08	56.46	32.25	17.18	13.57	10.82	34.36	365.5	221.0	3.921	2.154	1.828	1.802	1.854	1.803	1.668	1.482	1.554	1.471	1.382	1.158	1.260	1.193	1.009	1.020	1.142	0.982	0.965	0.903	0.923	0.842	0.841	0.837	0.751	0.788	0.746	0.787	0.568	0.628	0.610	0.614	0.615	0.706	0.611	0.697	0.664	0.679	0.693	0.814	0.860	0.852	0.810	0.729	0.869	0.750	0.762	0.772	0.873	0.914	0.814	0.866	0.874	0.714	0.710	0.733
645.0	53.79	48.63	41.45	30.53	25.68	21.18	22.38	26.59	29.33	35.45	42.19	45.58	43.16	49.15	39.11	18.07	13.93	9.397	12.61	160.4	395.9	19.28	1.938	1.859	1.743	1.643	1.588	1.631	1.458	1.428	1.412	1.296	1.188	1.214	1.163	1.139	1.003	1.139	0.853	0.858	0.876	0.890	0.845	0.865	0.808	0.733	0.727	0.713	0.665	0.591	0.600	0.606	0.596	0.596	0.673	0.611	0.714	0.729	0.752	0.655	0.759	0.773	0.830	0.783	0.712	0.743	0.825	0.721	0.798	0.821	0.829	0.795	0.895	0.844	0.747	0.712	0.724
650.0	55.84	46.58	47.19	30.24	23.42	20.66	21.92	25.61	29.02	34.98	39.51	43.94	40.27	42.07	43.59	19.65	13.37	8.818	7.216	47.18	397.3	62.99	2.586	1.803	1.613	1.652	1.376	1.293	1.420	1.328	1.262	1.166	1.283	1.147	1.142	1.077	0.950	1.009	0.819	0.847	0.851	0.880	0.764	0.709	0.823	0.676	0.659	0.714	0.655	0.590	0.534	0.569	0.561	0.611	0.558	0.612	0.720	0.709	0.686	0.659	0.764	0.745	0.888	0.752	0.779	0.707	0.832	0.807	0.802	0.746	0.743	0.741	0.863	0.895	0.677	0.857	0.784
