Sample:	'1
File name:	W101013’≈πŸ¥Â±±«≈.FD3
Run date:	'10:01:21, 10/11/2024
Operator:	horiz
Comment:	'

Instrument
Model:	F-2700 FL Spectrophotometer
Serial number:	23B8-004
ROM Version:	4J14000 07

Instrument parameters
Measurement type:	3-D scan
Data mode:	Fluorescence
EX  Start WL:	220.0 nm
EX  End WL:	600.0 nm
EX Sampling interval:	5.0 nm
EM  Start WL:	230.0 nm
EM  End WL:	650.0 nm
EM Sampling interval:	5.0 nm
Scan speed:	12000 nm/min
EX Slit:	5.0 nm
EM Slit:	5.0 nm
PMT Voltage:	700 V
Response:	Auto 
Corrected spectra:	Off
Contour interval:	50.000

Peak integration
Integration method:	Rectangular
Sensitivity:	1
Threshold:	1.000

Peaks
No.	ApexEX/EM(nm)	Height(Data)
1	225.0/565.0	76.13
2	225.0/580.0	78.02
3	225.0/600.0	66.28
4	225.0/615.0	63.01
5	225.0/645.0	57.32
6	230.0/345.0	2081
7	240.0/265.0	431.9
8	240.0/520.0	367.9
9	245.0/270.0	440.8
10	245.0/535.0	291.2
11	250.0/275.0	557.8
12	250.0/545.0	226.3
13	255.0/285.0	625.8
14	255.0/560.0	178.4
15	260.0/290.0	670.3
16	260.0/575.0	136.2
17	265.0/295.0	980.4
18	265.0/585.0	127.3
19	270.0/300.0	1423
20	270.0/600.0	128.3
21	275.0/310.0	1655
22	275.0/330.0	1354
23	275.0/415.0	3681
24	275.0/435.0	3486
25	275.0/610.0	119.3
26	280.0/315.0	1556
27	280.0/625.0	104.7
28	285.0/320.0	1446
29	285.0/640.0	74.08
30	315.0/355.0	673.5
31	320.0/365.0	680.4
32	325.0/370.0	664.9
33	350.0/415.0	2220
34	350.0/435.0	2162
35	460.0/345.0	5.971
36	485.0/265.0	2.342
37	495.0/270.0	2.250
38	505.0/275.0	3.268
39	510.0/280.0	4.070
40	515.0/285.0	4.125
41	525.0/290.0	4.112
42	545.0/300.0	7.445
43	550.0/305.0	8.671
44	560.0/310.0	8.510
45	565.0/415.0	13.20
46	570.0/315.0	8.519
47	575.0/320.0	8.006
48	585.0/325.0	7.510

Wavelength data
No.	EX/EM(nm)	Height(Data)	

Data points
	220.0	225.0	230.0	235.0	240.0	245.0	250.0	255.0	260.0	265.0	270.0	275.0	280.0	285.0	290.0	295.0	300.0	305.0	310.0	315.0	320.0	325.0	330.0	335.0	340.0	345.0	350.0	355.0	360.0	365.0	370.0	375.0	380.0	385.0	390.0	395.0	400.0	405.0	410.0	415.0	420.0	425.0	430.0	435.0	440.0	445.0	450.0	455.0	460.0	465.0	470.0	475.0	480.0	485.0	490.0	495.0	500.0	505.0	510.0	515.0	520.0	525.0	530.0	535.0	540.0	545.0	550.0	555.0	560.0	565.0	570.0	575.0	580.0	585.0	590.0	595.0	600.0
230.0	45.06	851.4	2910	1077	54.08	5.406	4.127	3.139	2.664	2.987	2.795	2.701	2.523	1.839	1.853	1.513	1.191	1.015	0.981	0.843	0.926	0.858	0.775	0.810	0.749	0.717	0.846	0.681	0.642	0.650	0.586	0.521	0.426	0.424	0.346	0.333	0.282	0.264	0.241	0.221	0.288	0.382	0.436	0.272	0.197	0.176	0.860	4.354	8.631	6.852	2.749	0.468	0.144	0.123	0.125	0.134	0.123	0.126	0.137	0.108	0.119	0.103	0.102	0.121	0.107	0.113	0.116	0.099	0.099	0.108	0.118	0.108	0.102	0.114	0.128	0.112	0.101
235.0	103.3	243.4	1557	3122	708.6	81.13	6.253	4.136	3.824	3.817	3.378	2.996	2.110	2.122	1.819	1.580	1.253	1.335	0.877	0.920	0.936	1.012	0.904	0.801	0.820	0.681	0.739	0.739	0.815	0.656	0.603	0.570	0.413	0.411	0.305	0.285	0.401	0.265	0.261	0.260	0.180	0.279	0.435	0.435	0.445	0.285	0.370	1.164	3.327	6.185	9.031	10.28	4.447	0.741	0.169	0.133	0.210	0.086	0.134	0.120	0.145	0.114	0.134	0.079	0.097	0.113	0.095	0.109	0.080	0.108	0.102	0.133	0.079	0.143	0.119	0.141	0.102
240.0	179.6	165.5	444.1	2340	3530	555.3	29.48	5.711	3.481	3.718	3.302	2.834	2.808	2.523	1.820	1.558	1.413	1.213	1.105	0.833	0.848	0.848	1.029	0.759	0.875	0.767	0.788	0.742	0.814	0.692	0.718	0.678	0.410	0.368	0.329	0.236	0.297	0.331	0.278	0.245	0.231	0.220	0.233	0.291	0.537	0.761	0.509	0.453	0.920	1.826	5.078	11.92	13.19	9.161	2.833	0.395	0.166	0.134	0.173	0.098	0.218	0.135	0.102	0.156	0.113	0.107	0.123	0.094	0.076	0.080	0.121	0.120	0.148	0.128	0.098	0.119	0.132
245.0	137.3	243.8	184.0	729.1	3366	3683	389.8	12.54	4.835	4.113	3.777	3.119	2.857	2.517	2.032	1.374	1.445	1.311	1.207	0.950	0.806	0.831	0.989	0.751	0.877	0.806	0.851	0.648	0.714	0.620	0.712	0.609	0.481	0.299	0.401	0.261	0.310	0.325	0.247	0.290	0.179	0.219	0.213	0.243	0.333	0.716	0.787	0.744	0.444	0.551	1.346	3.953	9.689	16.15	15.28	7.060	1.639	0.239	0.165	0.128	0.143	0.133	0.112	0.129	0.087	0.094	0.097	0.116	0.083	0.071	0.097	0.128	0.112	0.102	0.142	0.136	0.130
250.0	54.21	164.2	278.0	273.4	1030	3257	3774	1234	65.80	5.999	4.484	4.638	3.265	2.504	2.132	1.763	1.434	1.573	1.184	1.100	1.116	0.962	0.982	0.828	0.955	0.906	0.899	0.653	0.706	0.675	0.604	0.663	0.464	0.351	0.371	0.332	0.303	0.265	0.245	0.255	0.242	0.263	0.188	0.186	0.245	0.344	0.468	0.823	1.046	0.873	0.726	1.118	2.512	5.443	9.712	14.47	16.76	13.79	6.600	1.547	0.259	0.174	0.151	0.133	0.117	0.112	0.184	0.137	0.152	0.104	0.134	0.115	0.131	0.126	0.157	0.115	0.132
255.0	31.35	53.74	189.7	359.1	336.4	811.2	2797	5195	1572	48.21	6.950	5.222	4.097	3.319	2.535	2.110	1.909	1.479	1.356	1.236	1.129	0.932	1.098	0.871	0.854	0.815	0.982	0.780	0.826	0.842	0.822	0.639	0.587	0.424	0.420	0.364	0.264	0.286	0.234	0.205	0.229	0.304	0.267	0.240	0.225	0.201	0.219	0.311	0.604	1.045	1.424	1.465	1.015	1.422	2.414	3.620	6.994	15.84	26.27	22.21	10.03	1.540	0.220	0.154	0.194	0.113	0.146	0.139	0.166	0.110	0.134	0.121	0.177	0.091	0.115	0.161	0.103
260.0	26.14	21.79	69.16	321.1	358.0	243.4	829.0	4262	5375	309.8	22.06	6.886	4.856	3.465	2.948	2.386	1.984	1.582	1.698	1.331	1.129	1.087	1.228	0.820	0.892	0.986	0.946	0.861	0.707	0.744	0.614	0.712	0.577	0.557	0.449	0.394	0.284	0.270	0.246	0.206	0.244	0.240	0.276	0.240	0.193	0.198	0.224	0.218	0.271	0.467	1.047	2.082	1.763	1.096	0.841	1.000	1.848	4.530	12.98	25.40	32.18	21.32	6.323	0.838	0.179	0.138	0.150	0.150	0.211	0.154	0.130	0.119	0.149	0.125	0.151	0.159	0.111
265.0	24.23	20.33	29.56	146.1	431.9	265.3	227.6	1436	5861	4823	231.9	11.87	6.625	4.684	3.027	2.901	2.198	1.891	1.713	1.387	1.227	1.312	1.257	1.010	0.911	0.885	1.012	0.839	0.720	0.813	0.654	0.648	0.515	0.500	0.438	0.389	0.357	0.325	0.289	0.252	0.179	0.327	0.210	0.317	0.238	0.232	0.249	0.193	0.211	0.221	0.429	1.175	2.240	2.342	1.324	0.636	0.689	1.305	3.303	7.892	20.25	34.79	33.86	16.55	3.247	0.339	0.167	0.216	0.191	0.168	0.206	0.173	0.106	0.127	0.147	0.118	0.119
270.0	35.41	33.56	30.55	53.36	209.9	440.8	304.7	381.7	1910	5383	5039	890.0	40.59	6.708	4.329	3.734	2.507	2.226	2.010	1.539	1.517	1.261	1.248	1.121	1.137	0.992	0.926	0.940	0.901	0.776	0.764	0.639	0.563	0.584	0.466	0.459	0.391	0.311	0.303	0.267	0.240	0.317	0.309	0.338	0.326	0.277	0.239	0.235	0.227	0.181	0.241	0.421	0.867	1.512	2.000	2.250	1.821	1.016	1.068	2.019	5.003	10.67	19.36	29.04	31.97	24.89	13.24	3.172	0.432	0.196	0.177	0.151	0.146	0.170	0.170	0.149	0.174
275.0	95.57	84.21	70.91	55.25	80.76	227.4	557.8	333.2	480.5	1386	5055	8071	1122	30.22	7.063	4.591	3.772	2.427	2.208	1.995	1.689	1.445	1.288	1.253	1.260	1.089	1.017	0.957	1.088	0.762	0.813	0.785	0.663	0.666	0.612	0.539	0.454	0.391	0.386	0.301	0.297	0.411	0.346	0.386	0.458	0.400	0.325	0.448	0.382	0.278	0.298	0.270	0.442	0.626	0.744	1.411	2.749	3.268	2.064	1.074	1.455	2.720	4.738	7.020	11.08	26.04	45.56	37.91	19.26	3.310	0.350	0.238	0.213	0.207	0.180	0.211	0.163
280.0	171.9	165.6	146.9	86.84	67.38	108.4	390.1	609.6	261.4	385.2	1579	7793	6942	173.0	14.79	6.819	4.360	3.447	2.292	2.257	1.807	1.313	1.278	1.522	1.191	1.069	1.103	0.974	0.978	0.946	0.768	0.889	0.727	0.822	0.765	0.619	0.689	0.487	0.467	0.419	0.410	0.482	0.395	0.623	0.570	0.645	0.547	0.566	0.615	0.509	0.370	0.485	0.297	0.406	0.516	0.634	1.373	2.705	4.070	2.719	1.218	1.118	1.487	1.987	3.048	7.104	18.46	38.75	55.35	34.42	12.18	1.311	0.258	0.167	0.273	0.249	0.163
285.0	251.3	286.5	235.3	153.4	93.42	87.52	185.0	625.8	403.6	227.3	488.9	2773	9167	4980	121.4	9.525	5.866	3.854	2.883	2.130	2.033	1.649	1.367	1.341	1.252	1.199	1.130	1.046	0.791	1.065	0.875	0.799	0.727	0.770	0.903	0.816	0.682	0.678	0.620	0.532	0.544	0.562	0.569	0.520	0.655	0.906	0.828	0.895	0.970	0.651	0.621	0.636	0.494	0.537	0.481	0.464	0.715	1.173	2.501	4.125	3.799	2.195	1.085	1.155	1.474	2.456	4.850	11.12	27.86	49.36	44.43	27.71	7.113	0.643	0.281	0.221	0.272
290.0	439.0	481.0	402.4	260.7	142.8	110.8	134.9	315.2	670.3	601.9	414.3	898.4	3195	6897	4632	478.4	22.86	5.234	3.879	2.924	2.424	2.010	1.723	1.524	1.506	1.256	1.255	1.100	1.041	1.021	0.877	0.826	0.940	0.975	1.105	1.097	1.011	0.792	0.729	0.807	0.714	0.687	0.807	0.719	0.979	1.295	1.226	1.480	1.376	0.966	0.837	0.778	0.674	0.703	0.631	0.584	0.678	0.773	1.242	1.987	3.068	4.112	4.012	3.092	1.862	1.921	2.522	3.827	7.675	14.41	23.04	36.92	39.13	40.47	18.94	5.868	0.714
295.0	590.9	676.4	585.6	361.0	198.4	151.9	167.7	241.8	430.0	980.4	909.6	669.7	1070	1904	5584	6923	619.7	16.75	5.555	3.589	2.902	2.727	2.105	1.983	1.555	1.401	1.330	1.141	1.042	1.099	1.020	0.917	0.909	1.075	1.339	1.441	1.388	1.065	0.994	0.999	0.927	0.871	0.968	1.075	1.242	1.654	1.527	1.995	1.713	1.404	1.199	1.129	0.950	0.870	0.787	0.838	0.852	0.944	1.080	1.335	1.886	2.392	3.696	6.043	6.051	3.825	2.692	2.920	3.703	5.191	6.639	9.266	11.82	26.78	49.64	45.55	27.95
300.0	730.5	805.2	689.3	425.1	245.1	193.7	212.9	282.8	409.6	788.1	1423	940.0	737.4	707.9	1800	7454	5534	98.68	10.38	5.259	3.778	2.874	2.295	2.218	1.752	1.572	1.517	1.494	1.212	1.091	1.169	0.892	0.900	1.209	1.365	1.464	1.469	1.226	1.204	1.140	0.915	1.021	1.213	1.196	1.401	1.762	1.854	2.064	1.993	1.726	1.333	1.380	1.191	0.980	0.975	1.140	1.031	1.258	1.414	1.441	1.939	2.112	2.632	4.272	6.427	7.445	5.790	3.868	3.499	3.637	3.339	3.701	3.763	7.247	16.90	36.45	60.12
305.0	767.5	856.6	770.6	493.1	298.5	257.2	296.2	371.7	511.0	775.2	1393	1561	901.1	579.7	656.3	2717	8221	4092	74.65	7.282	4.384	3.447	2.723	2.223	2.192	1.742	1.598	1.363	1.308	1.518	0.995	1.082	1.071	1.117	1.572	1.553	1.466	1.284	1.328	1.073	0.988	1.030	1.255	1.371	1.606	1.821	2.247	2.495	2.350	2.044	1.673	1.603	1.305	1.117	1.194	1.359	1.525	1.764	2.106	2.033	2.317	2.600	3.151	4.035	5.051	6.946	8.671	7.681	5.643	4.395	3.455	3.199	2.910	3.108	5.117	10.16	24.29
310.0	804.8	912.0	847.2	539.8	356.4	326.6	371.4	474.7	625.2	857.9	1210	1655	1491	776.2	509.6	847.4	2867	5882	4828	334.4	17.63	5.041	3.657	2.604	2.424	2.077	1.872	1.780	1.460	1.594	1.136	1.224	1.118	1.247	1.472	1.531	1.411	1.254	1.194	1.205	1.153	1.195	1.398	1.438	1.705	2.033	2.258	2.609	2.433	1.952	1.777	1.818	1.456	1.331	1.383	1.581	1.665	1.972	2.276	2.378	3.004	3.182	3.763	4.426	5.038	5.954	6.883	8.019	8.510	7.637	5.859	3.946	3.276	2.970	3.024	3.725	6.833
315.0	819.9	999.6	865.2	605.4	402.8	371.9	421.8	530.7	681.0	909.8	1168	1388	1556	1270	619.5	487.1	874.9	1561	4717	5188	474.1	14.57	4.564	3.591	2.872	2.455	2.280	1.754	1.901	1.533	1.278	1.357	1.116	1.365	1.625	1.654	1.537	1.490	1.264	1.118	1.167	1.205	1.381	1.567	2.022	2.317	2.477	2.743	2.551	2.096	1.841	1.812	1.539	1.566	1.484	1.607	1.948	2.527	2.523	2.854	3.214	3.527	3.785	4.703	4.898	5.502	5.736	6.405	6.772	7.729	8.519	7.354	4.818	3.425	3.103	2.726	3.190
320.0	922.9	1113	988.1	664.5	451.9	410.5	471.4	577.0	729.8	947.0	1197	1343	1379	1446	916.8	491.5	485.2	511.6	1410	5640	4456	75.01	9.091	4.641	3.399	2.756	2.673	2.011	2.164	1.743	1.518	1.262	1.336	1.345	1.494	1.339	1.502	1.394	1.236	1.127	1.195	1.134	1.614	1.613	2.124	2.756	2.812	2.979	2.997	2.394	1.820	2.202	1.862	1.634	1.793	1.732	2.171	2.473	2.850	2.864	3.118	3.667	3.989	4.537	5.048	5.372	5.788	6.332	6.257	6.182	7.235	8.006	7.378	5.438	3.956	3.094	2.602
325.0	1069	1406	1272	802.5	542.9	456.3	510.4	606.7	750.3	951.5	1213	1347	1315	1268	1230	647.4	432.7	305.3	411.5	1909	6177	3594	60.56	7.157	4.379	3.550	2.917	2.286	2.151	1.628	1.526	1.301	1.375	1.303	1.402	1.319	1.325	1.408	1.226	1.229	1.400	1.295	1.618	1.946	2.209	3.074	3.509	3.770	3.751	2.758	2.401	2.596	2.156	1.899	2.088	1.965	2.366	2.420	2.834	3.011	3.085	3.839	4.048	4.637	5.441	6.173	6.064	6.288	6.483	6.291	6.223	6.295	7.324	7.510	6.297	3.929	3.001
330.0	1247	1685	1615	1146	746.5	542.6	541.6	634.2	769.9	967.4	1209	1354	1321	1162	1098	965.8	579.8	313.0	240.4	530.3	1993	4647	4275	281.3	18.14	4.942	3.473	2.864	2.305	2.110	1.555	1.488	1.338	1.327	1.346	1.287	1.283	1.260	1.279	1.170	1.512	1.467	1.701	2.188	2.507	3.555	3.889	4.698	4.596	3.996	3.432	3.503	2.815	2.460	2.243	2.133	2.404	2.580	2.919	3.170	3.427	3.672	4.203	4.628	5.180	5.850	5.892	6.362	6.426	6.441	5.962	5.802	5.894	6.151	6.239	6.224	5.320
335.0	1338	1860	1898	1489	1002	695.6	604.2	654.8	791.0	973.2	1200	1345	1339	1176	996.0	913.1	892.4	465.1	268.6	279.8	565.6	1206	3562	4267	438.7	17.41	5.073	3.557	2.570	2.534	2.074	1.642	1.542	1.376	1.311	1.315	1.353	1.425	1.271	1.102	1.360	1.356	1.806	2.310	2.891	3.814	4.380	5.314	5.248	4.875	4.271	4.552	3.860	3.419	2.910	2.745	2.680	2.941	3.185	3.179	3.740	3.956	4.315	4.718	5.128	5.817	6.073	6.230	6.278	6.607	5.920	6.122	5.715	5.686	5.477	5.264	5.466
340.0	1459	1929	2017	1641	1163	785.4	655.0	689.0	800.3	985.8	1180	1328	1324	1183	989.6	832.2	883.4	696.9	346.7	265.0	281.5	386.7	1065	4261	3894	345.2	9.660	4.289	3.286	2.649	2.266	1.709	1.510	1.300	1.437	1.441	1.328	1.467	1.275	1.110	1.489	1.584	1.991	2.380	2.907	4.025	4.527	5.444	5.761	5.315	4.979	5.209	4.477	3.972	3.318	2.997	3.125	2.999	3.493	3.214	3.514	3.983	4.273	4.879	5.245	5.465	6.253	6.411	6.091	6.750	5.792	5.881	5.961	5.765	5.252	4.884	5.071
345.0	1466	1969	2081	1733	1235	851.5	699.0	717.0	820.5	972.4	1151	1286	1288	1182	1006	820.0	746.4	803.8	515.9	302.4	251.7	232.8	353.3	1395	4799	3317	58.01	6.626	4.050	3.127	2.529	1.990	1.724	1.560	1.533	1.398	1.325	1.372	1.251	1.280	1.317	1.722	1.885	2.342	3.024	4.022	4.540	5.705	5.971	5.286	5.114	5.223	4.688	4.260	3.618	3.092	3.304	2.992	3.455	3.068	3.788	4.113	4.465	4.698	5.344	5.411	5.680	5.942	6.166	6.358	6.076	6.284	5.656	5.602	5.014	4.803	4.631
350.0	1337	1822	1988	1776	1348	978.4	814.2	823.3	872.5	986.1	1130	1232	1238	1158	1014	847.7	730.5	684.9	679.1	490.2	309.6	249.2	234.9	424.1	1494	3439	3462	262.1	19.31	4.271	2.936	2.023	1.885	1.688	1.526	1.386	1.359	1.400	1.350	1.259	1.368	1.553	1.759	2.174	2.832	3.706	4.152	5.169	5.502	5.281	5.039	5.458	4.887	4.706	4.065	3.607	3.758	3.666	3.830	3.818	4.042	4.291	4.453	4.801	5.123	5.232	5.477	5.705	5.888	6.100	5.996	5.963	5.739	5.421	5.174	4.938	4.844
355.0	1285	1703	1858	1724	1385	1067	892.3	882.7	914.7	1003	1119	1182	1197	1129	1023	872.5	757.7	654.3	624.5	673.5	482.5	316.5	256.4	246.8	434.0	866.2	2410	3848	443.5	20.83	4.009	2.810	1.938	1.879	1.739	1.477	1.330	1.361	1.210	1.324	1.311	1.398	1.523	2.116	2.594	3.351	3.874	4.771	5.222	5.049	4.922	5.767	5.190	5.076	4.277	3.967	4.079	4.010	4.111	4.017	4.203	4.529	4.401	4.710	4.845	5.168	5.101	5.358	5.445	5.720	5.865	6.038	5.501	5.702	5.037	5.122	5.162
360.0	1218	1619	1766	1645	1368	1081	923.6	898.3	919.1	997.0	1083	1146	1152	1108	1008	886.1	780.4	679.4	612.2	647.4	646.2	414.6	300.6	240.4	229.3	282.9	675.8	3055	3714	377.6	11.69	3.605	2.529	1.944	1.894	1.423	1.359	1.260	1.321	1.230	1.273	1.482	1.703	2.064	2.630	3.237	3.628	4.562	5.099	4.879	4.820	5.201	5.284	5.099	4.361	4.044	3.969	4.111	4.112	4.370	4.252	4.511	4.519	4.850	5.063	5.035	4.883	5.161	5.556	5.777	5.501	5.724	5.397	5.785	5.337	4.973	5.495
365.0	1107	1504	1717	1601	1371	1106	949.3	929.0	948.6	997.3	1080	1118	1129	1079	997.9	892.9	811.1	719.3	648.2	616.4	680.4	574.5	368.6	279.6	219.5	183.8	229.8	918.9	3683	3340	59.07	6.637	3.158	2.212	1.963	1.627	1.444	1.211	1.276	1.222	1.307	1.505	1.744	1.975	2.517	2.944	3.417	4.014	4.687	4.648	4.627	5.467	5.139	5.002	4.495	4.300	4.199	4.315	4.369	4.531	4.361	4.737	4.951	4.939	4.809	4.872	4.847	5.204	5.319	5.403	5.427	5.367	5.663	5.528	5.299	4.973	5.400
370.0	1065	1428	1606	1528	1357	1147	1015	985.2	985.1	1041	1080	1108	1105	1063	992.1	910.8	843.6	765.7	710.8	658.4	643.3	664.9	551.3	372.2	277.6	216.8	174.7	291.3	1083	2839	3180	932.9	20.10	3.752	2.443	1.966	1.687	1.402	1.319	1.354	1.305	1.451	1.683	1.954	2.345	2.821	3.319	3.959	4.432	4.510	4.485	5.213	5.192	4.973	4.395	4.283	4.324	4.469	4.741	4.474	4.662	4.706	4.612	4.861	4.986	4.803	4.996	5.045	5.250	5.116	5.208	5.465	5.527	5.282	5.284	5.031	5.315
375.0	1026	1312	1502	1491	1342	1151	1028	990.3	995.3	1036	1063	1080	1091	1039	977.6	911.2	863.3	802.7	757.7	716.6	667.4	642.9	663.1	545.2	370.5	287.8	218.6	205.4	338.7	718.7	1914	3805	408.0	24.32	4.473	2.971	1.897	1.546	1.391	1.290	1.468	1.498	1.653	1.922	2.105	2.606	3.051	3.965	4.227	4.254	4.343	5.033	4.905	5.000	4.458	4.459	4.276	4.950	4.618	4.516	4.428	4.572	4.938	4.985	4.767	4.772	4.844	4.971	5.044	5.218	5.093	5.380	5.151	5.159	5.544	5.010	5.540
380.0	920.1	1268	1406	1449	1329	1155	1006	993.5	992.9	1031	1058	1080	1071	1026	967.6	909.6	863.9	825.1	788.0	752.9	698.6	655.7	649.2	658.1	480.8	353.3	281.6	228.4	207.4	254.4	545.4	2498	3244	341.4	13.04	4.182	2.702	2.043	1.469	1.505	1.405	1.624	1.607	1.824	2.060	2.661	3.090	3.706	4.002	3.612	4.101	4.893	4.885	5.117	4.683	4.261	4.739	4.537	4.411	4.728	4.633	4.818	4.704	4.739	4.766	5.051	5.143	5.061	4.991	4.915	4.890	5.404	5.355	4.982	5.592	5.256	5.553
385.0	925.0	1203	1346	1389	1277	1155	1039	999.2	1015	1041	1059	1084	1072	1032	970.1	917.7	874.7	839.3	810.1	784.0	739.6	694.4	654.8	672.9	604.4	442.8	346.7	283.1	227.8	191.2	222.2	747.7	2778	2776	50.47	8.435	4.574	2.718	1.814	1.423	1.388	1.533	1.462	1.752	2.065	2.503	3.056	3.532	3.775	3.556	3.837	5.104	4.897	4.970	4.457	4.286	4.537	4.593	4.576	4.636	4.723	4.914	4.414	4.869	4.616	5.100	5.260	4.926	4.975	4.978	4.599	5.408	5.255	4.884	5.089	5.331	5.151
390.0	886.0	1153	1312	1356	1286	1174	1104	1072	1076	1134	1180	1206	1199	1148	1064	979.0	923.2	874.3	862.1	842.9	815.3	787.6	754.3	735.3	741.0	666.5	499.8	435.4	363.6	297.7	247.7	308.7	835.9	2096	2367	750.8	23.12	7.302	3.279	2.026	1.718	1.549	1.788	1.903	2.080	2.485	2.804	3.203	3.773	3.734	3.840	4.773	5.000	4.984	4.818	4.491	4.666	4.790	4.844	4.911	4.720	5.103	5.158	5.155	5.045	5.357	5.192	5.363	5.392	5.513	5.486	5.591	5.624	5.573	5.711	5.476	5.702
395.0	874.3	1110	1293	1359	1332	1287	1238	1276	1306	1452	1559	1617	1593	1501	1336	1170	1056	969.5	955.9	954.9	963.7	979.4	985.4	985.5	971.4	991.1	934.1	786.9	680.6	521.3	465.3	384.6	404.5	629.2	1358	2764	349.0	31.57	8.653	3.679	2.238	1.836	1.961	1.825	2.150	2.803	2.590	3.526	3.815	3.749	4.054	4.998	5.140	5.195	5.119	4.915	5.433	5.392	5.527	5.538	5.600	5.949	6.244	5.910	6.231	6.588	6.397	6.456	6.325	6.895	6.843	6.933	6.604	6.663	6.621	6.135	6.095
400.0	966.6	1160	1337	1395	1428	1421	1441	1532	1660	1878	2113	2172	2186	2034	1784	1490	1243	1109	1070	1102	1148	1204	1268	1301	1314	1338	1375	1247	1075	925.7	783.9	614.3	456.5	409.8	525.7	1763	2537	315.8	23.34	6.148	3.015	2.428	2.055	2.191	2.400	2.796	2.902	3.562	3.841	3.888	4.139	5.095	5.381	5.583	5.504	5.605	5.955	6.185	6.129	6.197	6.691	7.075	7.376	7.368	7.727	7.776	8.203	7.987	8.310	9.022	8.414	8.485	7.826	8.273	7.884	7.357	7.228
405.0	988.3	1186	1366	1492	1551	1611	1704	1844	2048	2415	2770	2974	2901	2647	2287	1856	1481	1271	1227	1265	1354	1465	1585	1682	1734	1768	1809	1764	1547	1359	1159	902.1	664.6	477.1	420.7	676.3	2025	2189	236.9	11.69	4.548	2.779	2.328	2.310	2.622	2.791	3.299	3.984	4.139	3.900	4.560	5.414	5.701	6.159	6.094	6.346	6.860	7.076	7.242	7.541	8.116	8.459	8.864	9.245	10.10	10.04	10.23	10.69	10.76	10.75	10.79	11.06	10.53	9.868	9.298	8.720	8.313
410.0	1003	1217	1434	1545	1637	1766	1945	2138	2449	2890	3372	3638	3532	3221	2742	2184	1698	1404	1351	1410	1526	1682	1845	2003	2104	2159	2186	2161	2010	1771	1509	1196	878.2	637.1	495.8	449.3	714.5	1539	1794	624.2	18.64	3.893	2.881	2.625	2.639	3.151	3.294	4.004	4.317	4.253	4.517	5.828	5.996	6.618	6.799	6.936	7.622	7.669	8.329	8.411	9.166	9.647	10.37	11.38	11.69	12.29	12.21	12.58	12.85	12.69	12.63	12.72	12.21	11.62	10.50	10.06	9.339
415.0	1001	1183	1398	1522	1625	1752	1961	2196	2482	2908	3445	3681	3554	3253	2764	2200	1686	1399	1333	1395	1518	1693	1865	2026	2142	2207	2220	2180	2069	1894	1594	1250	924.7	677.4	516.9	403.6	360.8	457.4	916.5	2044	320.8	20.04	3.621	2.930	2.837	3.296	3.163	4.023	4.317	4.170	4.457	5.814	5.868	6.228	6.675	7.047	7.421	8.092	8.203	8.374	8.500	9.735	10.04	11.39	11.80	12.27	12.57	12.98	13.05	13.20	12.71	12.78	12.16	11.98	11.03	9.778	9.522
420.0	960.1	1168	1310	1427	1557	1710	1914	2129	2375	2788	3255	3466	3382	3096	2641	2095	1616	1333	1265	1332	1447	1614	1785	1941	2048	2106	2137	2081	1968	1836	1569	1215	902.2	662.7	508.6	381.6	274.1	206.2	268.9	1200	1874	270.0	10.17	3.529	3.133	3.307	3.394	3.913	3.983	4.119	4.349	5.571	5.760	6.450	6.365	7.026	7.523	7.988	8.056	8.114	8.628	9.582	9.624	10.66	11.35	11.49	12.11	12.46	12.32	12.41	12.42	11.75	11.61	11.49	10.45	9.711	9.261
425.0	944.8	1122	1294	1407	1520	1689	1898	2090	2323	2709	3161	3378	3280	2991	2552	2018	1553	1283	1228	1289	1407	1555	1733	1889	2003	2063	2081	2033	1909	1767	1568	1222	896.8	665.1	506.1	376.0	257.0	152.7	111.5	333.7	1388	1590	43.48	5.722	3.429	3.016	3.252	3.945	3.904	4.040	4.302	5.752	5.795	6.191	6.396	6.666	7.569	7.656	8.192	8.369	8.591	9.391	9.799	10.99	10.95	11.21	11.14	12.42	12.02	12.18	11.34	11.27	11.16	11.06	10.29	9.292	8.359
430.0	1099	1104	1263	1409	1542	1717	1962	2143	2397	2797	3230	3442	3351	3032	2583	2051	1565	1283	1221	1286	1406	1561	1742	1908	2037	2111	2131	2091	1964	1805	1605	1319	967.2	709.6	544.8	409.1	276.1	157.6	86.04	105.4	376.6	1081	1335	462.6	15.26	3.857	3.312	3.737	3.884	4.053	4.387	5.402	5.935	6.223	6.528	7.017	7.762	8.149	8.417	8.514	8.992	9.516	9.721	10.96	11.16	11.38	11.97	12.10	12.34	12.19	11.73	11.44	11.12	10.76	10.16	9.439	8.270
435.0	1527	1108	1266	1377	1544	1745	2013	2226	2456	2860	3254	3486	3385	3072	2608	2052	1566	1277	1209	1274	1381	1550	1726	1909	2052	2126	2162	2120	2009	1842	1621	1359	1044	756.3	577.2	442.7	301.5	176.0	91.72	63.19	107.3	260.9	701.1	1640	293.1	16.33	3.938	4.089	4.049	4.090	4.432	5.423	5.673	6.072	7.124	7.157	7.846	8.127	8.413	8.425	9.271	9.672	10.11	10.96	11.04	11.33	11.96	12.17	12.24	12.69	12.30	11.49	11.11	10.72	10.20	9.338	8.431
440.0	1971	1195	1224	1333	1527	1740	1984	2195	2407	2738	3134	3335	3248	2941	2503	1988	1510	1236	1169	1224	1318	1470	1649	1820	1955	2028	2069	2025	1923	1776	1562	1295	1027	769.7	577.2	437.1	307.3	183.5	99.29	58.33	51.35	76.29	186.6	1013	1543	237.0	8.643	4.050	4.097	3.828	4.089	5.336	5.690	5.803	6.671	7.231	7.625	8.003	8.696	8.340	8.979	9.297	9.891	11.01	10.57	11.13	11.14	12.08	11.42	11.67	11.49	11.08	10.96	10.52	9.565	9.105	8.110
445.0	1842	1549	1175	1298	1457	1670	1906	2080	2256	2541	2876	3036	2985	2700	2297	1837	1400	1154	1097	1134	1215	1351	1515	1669	1793	1863	1888	1862	1764	1627	1439	1190	942.4	737.9	558.7	418.8	297.8	182.9	102.5	61.12	42.19	38.24	57.42	280.9	1216	1348	35.86	5.741	4.147	3.697	3.962	5.067	5.475	5.857	6.454	6.825	7.550	8.016	8.444	8.138	8.668	8.972	9.277	10.27	10.03	10.41	10.38	10.70	10.07	10.81	10.10	10.29	10.83	10.05	8.617	8.442	7.616
450.0	1252	2194	1333	1200	1370	1571	1762	1905	2016	2216	2471	2607	2538	2293	1964	1580	1230	1024	968.9	997.5	1063	1166	1299	1426	1528	1590	1618	1593	1512	1402	1240	1030	811.2	643.6	519.3	391.6	275.8	174.0	105.2	65.68	46.21	33.88	31.52	76.32	330.0	944.8	1157	382.1	12.75	3.981	4.010	4.874	5.056	5.725	6.142	6.182	7.110	7.484	7.784	7.528	7.819	8.021	8.200	8.904	8.927	9.080	9.204	9.029	8.936	9.353	8.665	8.602	8.781	8.413	7.847	7.546	6.758
455.0	786.8	2028	2142	1155	1270	1478	1624	1732	1792	1940	2116	2237	2179	1961	1686	1362	1071	896.5	861.7	875.4	919.6	1000	1116	1221	1306	1354	1379	1365	1295	1206	1076	894.5	703.6	550.5	459.4	375.8	261.8	167.0	105.8	71.20	50.33	37.54	29.40	32.32	85.91	224.9	582.2	1319	238.8	13.74	4.038	4.741	4.801	5.331	5.352	5.633	6.712	6.893	7.094	7.270	7.438	7.168	7.293	7.604	7.859	7.730	7.473	7.934	7.473	8.658	7.298	7.923	7.180	7.077	6.508	6.464	5.899
460.0	667.7	1453	2800	1314	1194	1368	1530	1618	1642	1757	1921	2004	1950	1767	1522	1217	977.0	818.3	783.7	794.5	831.0	901.5	995.6	1093	1171	1212	1245	1232	1168	1099	971.9	819.5	644.1	507.7	415.9	355.2	265.1	166.9	106.4	73.56	52.61	39.82	30.85	25.95	32.83	61.11	149.8	789.9	1173	182.1	7.847	4.839	4.683	5.103	4.993	5.964	6.245	6.235	6.706	6.837	6.912	6.307	6.837	6.854	7.107	7.175	7.123	6.999	6.994	7.159	6.875	7.280	6.849	6.556	5.969	5.753	5.470
465.0	591.5	947.3	2746	1909	1137	1281	1445	1503	1521	1598	1764	1834	1767	1605	1386	1116	897.7	752.2	718.4	732.1	758.4	820.8	903.6	992.1	1062	1101	1134	1119	1064	1004	889.4	751.5	594.5	468.3	382.2	325.0	260.8	170.2	107.6	74.50	55.02	41.79	32.19	25.43	22.26	25.84	43.23	215.4	939.1	983.5	29.55	6.224	4.811	5.082	4.943	5.488	6.029	6.150	6.112	6.406	6.221	6.125	6.164	6.413	6.427	6.643	6.921	6.446	6.501	6.388	6.458	6.715	6.548	6.072	5.658	5.482	5.220
470.0	581.3	693.2	1639	2838	1357	1135	1279	1347	1345	1402	1517	1577	1522	1384	1197	976.1	782.3	663.1	627.0	633.8	653.0	701.2	771.5	845.8	905.4	936.3	966.5	956.0	909.8	859.6	765.5	649.6	523.4	413.3	336.7	280.3	229.2	170.4	112.8	75.10	56.24	44.23	33.92	26.90	21.91	19.39	20.33	57.16	255.3	690.0	796.2	146.1	12.78	4.612	4.632	4.942	5.157	5.556	5.669	5.531	5.515	5.382	5.434	5.834	5.605	5.842	5.781	5.719	5.739	5.699	5.497	5.780	5.489	5.319	4.897	4.721	4.412
475.0	550.4	600.3	898.3	2484	2359	1028	1095	1158	1149	1189	1251	1289	1260	1135	984.0	806.8	656.9	563.4	534.1	534.1	542.5	584.4	634.5	691.5	740.2	769.2	786.5	777.9	745.1	709.8	634.6	544.6	441.4	355.6	290.0	238.3	191.5	150.1	118.8	79.87	56.98	44.84	35.89	28.61	23.14	19.73	16.61	22.94	65.09	163.4	376.6	850.0	226.7	13.70	4.589	4.300	4.785	4.914	5.006	4.837	4.950	4.742	4.701	4.749	4.866	5.000	5.091	4.658	4.808	4.799	4.714	5.026	4.524	4.626	4.237	4.126	4.018
480.0	501.9	568.8	661.0	1544	3092	1193	991.0	1030	1007	1037	1095	1103	1074	969.0	841.3	700.3	573.0	492.7	467.6	465.4	471.7	499.6	546.2	593.3	629.7	650.9	668.2	658.3	635.2	606.1	544.9	469.1	381.4	310.9	256.6	212.4	169.1	132.5	113.4	85.76	58.57	44.94	36.27	30.46	24.23	20.46	17.12	15.81	22.99	43.49	96.52	482.5	850.9	191.3	7.561	4.365	4.625	4.291	4.422	4.350	4.517	4.319	4.029	4.084	4.267	4.285	4.411	4.006	4.236	4.046	4.084	4.048	3.986	3.834	3.714	3.749	3.660
485.0	433.1	540.7	560.1	898.8	2983	1784	897.2	916.1	905.2	915.6	948.1	969.5	936.3	844.4	741.1	613.7	504.3	442.5	415.8	413.3	416.5	439.6	477.8	516.7	548.2	563.0	576.8	571.1	556.3	524.8	477.8	411.0	338.0	277.4	230.2	190.6	154.1	119.4	101.0	87.86	63.26	46.37	36.96	30.43	25.15	21.31	18.62	15.76	14.81	17.49	27.77	131.8	648.3	782.0	34.71	5.139	4.196	4.355	3.928	3.978	4.114	3.953	3.706	3.830	3.716	3.895	3.796	3.560	4.105	3.680	3.693	3.608	3.539	3.327	3.228	3.335	3.187
490.0	360.0	522.8	519.1	615.0	1759	2864	1048	826.6	793.3	786.2	817.7	829.7	789.5	721.4	633.4	524.4	437.5	384.2	363.3	357.2	359.1	375.8	404.1	436.5	461.7	477.5	488.6	485.2	472.7	446.6	407.2	354.4	292.6	242.3	203.4	169.8	138.0	109.5	88.09	79.45	69.01	51.34	38.21	31.36	26.15	22.68	19.82	16.47	14.08	12.39	13.36	35.74	173.3	505.7	674.0	151.2	13.72	4.207	3.761	3.862	3.521	3.543	3.184	3.215	3.265	3.266	3.359	3.210	3.315	3.108	3.147	3.154	3.051	2.795	2.863	2.808	2.681
495.0	283.8	442.8	491.7	493.1	846.5	2689	1799	725.2	688.9	672.9	705.1	718.3	674.6	612.1	532.6	450.6	375.2	330.9	314.2	306.1	306.2	319.7	341.0	369.2	389.7	402.5	413.0	404.9	396.7	382.8	346.9	303.2	253.0	211.1	176.7	150.8	122.8	98.50	78.75	67.26	63.54	57.88	41.98	32.87	27.22	22.34	20.24	16.97	15.08	12.37	10.99	14.73	44.57	119.3	345.1	800.5	255.0	13.95	3.859	3.299	3.247	3.145	2.939	2.971	2.849	2.750	2.904	2.837	2.911	2.830	2.669	2.608	2.765	2.391	2.268	2.585	2.366
500.0	270.1	356.7	474.0	453.5	550.7	1728	2528	775.9	611.9	600.3	618.2	627.3	588.6	537.7	470.4	398.3	330.3	292.3	281.1	271.2	270.3	279.0	297.5	321.7	341.7	353.0	358.7	351.5	345.0	333.7	303.3	265.7	222.9	187.2	160.9	135.4	112.1	90.51	72.93	60.91	55.29	56.00	46.09	33.92	27.19	23.22	20.90	18.06	15.55	12.89	10.96	10.61	15.88	32.44	88.12	453.1	817.8	199.8	7.410	3.461	3.198	2.917	2.893	2.663	2.669	2.520	2.782	2.439	2.366	2.635	2.599	2.484	2.225	2.230	2.034	2.325	2.015
505.0	238.8	302.7	436.8	430.2	467.6	919.0	2605	1187	545.4	531.2	555.4	548.0	518.1	477.4	413.9	346.3	298.4	261.9	248.8	238.7	240.8	247.6	262.7	281.2	299.3	308.6	309.9	306.8	306.0	291.9	268.9	235.4	199.2	167.8	144.3	122.9	103.0	84.17	67.18	56.17	48.93	49.74	48.52	36.19	27.50	23.03	20.99	17.34	16.23	13.51	10.68	9.766	9.553	12.94	24.66	121.4	573.1	721.8	37.93	4.539	2.926	2.812	2.522	2.389	2.291	2.398	2.355	2.382	2.071	2.444	2.241	2.112	2.111	2.023	1.879	1.945	1.841
510.0	214.3	263.8	362.1	431.8	396.9	526.2	1566	2068	624.1	440.7	460.3	460.8	431.4	397.3	345.8	293.2	250.3	222.1	208.0	201.4	200.4	204.9	217.8	233.6	244.8	251.9	253.4	253.4	251.9	239.1	221.9	195.3	166.5	141.4	122.1	105.2	88.32	73.46	60.41	50.89	43.92	40.99	41.90	39.27	29.75	23.46	20.41	17.31	15.63	13.45	11.56	9.804	8.458	8.534	10.38	31.56	150.4	435.0	552.2	159.3	12.89	2.700	2.264	2.096	2.092	2.141	1.988	1.915	1.734	1.919	1.794	1.776	2.011	1.696	1.759	1.725	1.689
515.0	162.9	202.6	261.1	378.1	359.8	379.8	681.3	2152	1256	382.1	376.9	372.2	354.6	322.7	284.3	235.8	204.3	180.6	172.6	166.8	162.9	165.8	175.5	188.7	197.8	201.7	202.7	202.9	199.3	195.4	179.9	159.6	137.3	116.0	100.9	88.20	75.38	63.59	53.10	45.58	39.64	35.25	33.65	35.93	33.41	24.53	20.26	17.00	15.10	13.22	11.51	10.28	8.587	7.446	7.191	11.88	37.84	101.4	242.2	600.5	247.4	14.39	2.196	1.901	1.762	1.946	1.719	1.667	1.557	1.811	1.471	1.400	1.668	1.409	1.379	1.431	1.315
520.0	153.2	184.3	224.8	329.5	367.9	322.2	405.6	1374	2047	436.9	319.1	322.0	299.7	274.0	240.8	204.2	176.8	157.8	149.5	145.2	140.4	142.5	148.9	159.1	165.5	170.6	170.4	172.0	167.0	161.8	152.0	135.5	118.3	100.3	87.57	76.60	66.58	56.68	47.64	41.82	36.82	32.77	29.18	30.39	32.99	27.04	19.59	16.35	14.51	12.42	11.16	10.10	8.926	7.430	6.392	7.167	12.51	26.38	60.30	303.7	602.2	190.8	7.212	1.847	1.522	1.615	1.715	1.544	1.527	1.579	1.333	1.180	1.318	1.185	1.264	1.148	1.258
525.0	143.3	162.7	186.3	262.1	360.7	291.2	310.0	676.1	2361	771.7	286.6	278.6	262.1	232.9	208.6	176.0	151.4	136.0	128.9	125.0	121.8	124.2	129.1	137.3	141.7	144.9	145.9	146.9	143.6	140.1	130.2	115.6	103.1	87.41	76.94	68.01	59.08	50.76	43.59	38.40	32.98	29.95	26.49	26.00	28.47	28.18	20.44	15.64	14.06	12.16	10.92	9.816	8.743	7.691	6.175	5.958	6.815	9.604	16.45	77.43	366.7	541.9	39.69	3.357	1.611	1.396	1.357	1.345	1.311	1.387	1.285	1.204	1.370	1.148	0.999	0.932	0.980
530.0	119.9	143.0	159.7	196.5	310.4	279.6	250.7	346.4	1466	1725	362.2	233.7	219.2	194.1	172.4	147.5	126.9	115.9	108.9	104.8	102.4	103.3	107.2	113.0	115.4	117.9	120.0	120.2	118.2	114.6	107.0	95.29	84.34	73.79	65.17	57.72	50.46	43.47	37.62	33.09	29.20	26.63	24.26	22.14	22.10	24.83	22.56	17.10	13.18	11.43	10.22	9.045	8.161	7.935	6.562	5.718	5.120	5.686	6.742	19.87	92.77	283.7	332.6	159.5	12.91	1.503	1.196	1.223	1.134	1.143	1.114	1.082	1.126	1.016	0.883	0.828	0.895
535.0	95.27	106.1	131.8	159.3	217.9	291.2	219.9	237.8	534.2	2010	933.6	201.4	180.7	160.9	139.6	121.2	107.5	94.40	90.16	86.11	84.49	83.33	87.83	90.72	93.70	95.46	97.25	96.97	94.96	90.92	87.54	78.71	69.61	60.68	54.71	49.37	42.75	37.09	32.71	29.22	25.72	23.12	20.81	19.36	18.60	18.67	21.39	18.61	13.56	10.62	9.271	8.435	7.038	6.970	6.558	5.926	4.955	4.521	4.114	6.852	22.92	65.40	129.5	405.6	238.2	15.96	1.310	1.021	1.003	1.031	0.838	0.931	0.883	0.780	0.854	0.711	0.754
540.0	85.64	98.13	119.0	136.3	161.8	272.3	207.0	186.2	253.6	1296	1775	232.0	155.5	138.6	121.2	105.1	91.27	82.14	78.00	74.78	72.62	71.47	73.90	75.46	79.84	81.06	80.97	81.75	80.19	77.58	72.60	68.14	59.08	52.36	46.68	41.54	36.98	32.14	27.99	25.94	22.54	20.17	18.89	17.81	16.08	15.53	17.29	18.02	14.72	10.57	8.622	7.628	6.896	6.335	5.984	5.725	4.915	4.084	3.618	3.902	7.067	16.25	31.55	176.1	421.0	182.1	7.624	1.203	0.876	1.055	0.823	0.895	0.751	0.717	0.691	0.634	0.614
545.0	68.88	82.77	102.2	118.9	130.1	215.0	226.3	160.7	170.3	548.5	2265	480.7	135.4	117.5	104.0	89.73	78.49	69.61	67.44	62.78	61.87	61.26	64.24	63.93	66.65	68.37	69.45	69.61	67.76	65.41	61.14	57.57	51.61	46.26	39.61	35.87	32.58	28.75	25.87	22.93	20.18	18.54	17.43	16.51	14.63	13.93	13.67	16.15	15.06	10.92	7.998	7.387	6.740	5.490	5.491	5.318	5.079	3.880	3.611	3.189	3.491	5.291	8.745	43.10	210.5	394.7	41.36	3.875	0.959	1.012	0.755	0.770	0.744	0.647	0.549	0.446	0.473
550.0	75.72	83.69	89.02	98.81	106.3	146.0	216.1	146.3	129.0	217.4	1436	1354	167.7	97.21	82.56	71.38	63.59	58.02	54.34	51.22	50.12	49.56	51.21	51.60	53.34	54.60	54.72	54.68	54.46	52.55	48.87	45.27	41.25	35.83	32.69	29.17	26.68	22.95	21.21	18.67	16.73	15.47	14.60	13.08	12.78	11.69	10.86	11.49	12.86	11.18	8.218	6.358	5.773	4.830	4.717	4.392	4.529	3.919	3.379	2.805	2.563	2.777	3.435	10.97	50.99	170.5	251.3	147.7	14.88	1.013	0.609	0.741	0.686	0.551	0.502	0.482	0.509
555.0	71.54	72.15	79.33	80.12	86.01	97.86	166.0	168.1	102.4	119.6	447.2	1751	535.0	78.05	65.73	56.68	50.33	45.33	42.80	41.07	39.86	38.44	39.02	40.81	40.65	42.04	41.47	41.12	42.55	40.93	38.54	34.75	32.13	28.02	25.19	23.39	20.92	18.46	16.85	15.21	13.75	12.58	11.42	11.17	10.02	9.584	8.889	8.571	8.757	10.07	8.544	6.088	4.774	4.340	4.135	3.795	3.573	3.751	3.610	2.468	2.282	2.051	2.151	3.557	12.49	39.04	78.43	245.8	204.5	17.43	0.692	0.627	0.597	0.517	0.400	0.399	0.420
560.0	64.02	69.86	73.91	69.78	71.77	77.51	118.1	178.4	93.53	85.67	167.8	1176	1182	96.73	53.26	48.17	40.72	37.43	36.90	34.91	32.27	32.06	31.55	33.62	32.79	34.42	34.90	33.65	32.89	33.58	31.36	28.59	26.08	22.87	21.35	19.85	17.01	15.81	13.93	12.79	11.74	10.90	10.37	9.417	8.580	8.410	7.657	7.261	6.995	7.714	8.441	6.474	4.362	3.926	3.827	3.092	3.054	3.213	3.399	2.781	1.972	1.620	1.603	1.899	3.718	9.584	18.71	90.53	268.6	143.3	8.877	0.659	0.608	0.473	0.417	0.405	0.423
565.0	61.65	76.13	68.55	59.37	63.84	70.79	83.45	171.1	100.8	74.15	93.91	479.9	1632	186.4	45.94	38.71	35.52	30.73	29.29	28.25	27.18	26.77	26.58	28.09	27.72	28.34	28.06	27.44	27.66	27.76	26.02	23.52	22.49	19.45	17.64	16.23	14.60	13.23	11.75	10.88	9.716	9.291	8.995	8.087	7.782	7.244	6.685	6.369	5.372	5.836	6.752	6.639	4.408	3.623	3.187	3.010	2.674	2.739	2.660	2.801	2.030	1.611	1.487	1.492	1.775	3.164	5.003	21.75	112.7	247.7	43.14	3.603	0.493	0.453	0.469	0.389	0.356
570.0	69.00	73.22	61.33	56.73	52.79	55.26	62.24	117.6	130.1	70.26	71.62	164.8	1090	905.3	70.00	31.69	28.68	24.53	23.38	22.48	21.65	21.03	20.57	22.32	21.67	22.37	22.01	21.48	21.77	21.48	20.41	18.50	16.76	15.03	14.16	12.83	11.69	10.79	9.324	9.012	7.990	7.657	7.073	6.579	6.561	6.052	5.477	5.047	4.450	4.483	4.889	5.481	4.720	3.529	2.801	2.378	2.349	2.180	2.045	2.158	2.165	1.680	1.328	1.289	1.166	1.506	1.830	5.680	26.69	95.03	151.8	97.71	13.54	0.551	0.415	0.345	0.282
575.0	64.43	77.98	64.90	53.17	48.66	44.06	49.17	69.13	136.2	83.84	68.35	84.52	337.6	1317	301.7	26.42	22.22	19.33	17.79	18.03	16.71	16.70	16.23	17.04	16.62	16.76	17.08	16.79	16.16	16.68	15.28	14.36	12.93	11.72	10.84	9.872	8.999	8.557	7.742	6.893	6.452	6.070	5.470	5.244	5.135	4.893	4.619	4.195	3.736	3.509	3.404	4.135	4.307	3.623	2.568	2.173	1.956	1.901	1.627	1.530	1.745	2.043	1.262	1.092	0.932	1.162	1.282	2.072	6.553	21.84	42.90	131.9	128.9	15.50	0.414	0.329	0.276
580.0	69.66	78.02	64.50	50.65	41.72	39.39	44.87	50.14	120.1	107.3	66.44	66.39	119.4	916.5	778.2	38.49	18.23	16.62	15.77	14.37	13.14	13.24	13.36	13.87	13.55	13.51	14.07	13.41	13.53	13.35	13.29	11.17	10.53	9.694	8.883	8.223	7.473	7.116	6.312	5.996	5.642	4.950	4.670	4.483	4.326	4.013	4.031	3.648	3.282	3.097	2.773	2.938	3.450	3.505	2.555	1.837	1.749	1.792	1.489	1.382	1.305	1.552	1.471	1.146	0.960	0.964	0.979	1.124	2.047	5.434	10.14	44.62	146.9	102.5	7.783	0.377	0.296
585.0	64.87	71.57	66.42	46.97	39.51	37.70	38.46	40.78	84.63	127.3	68.37	62.96	67.60	376.3	1155	108.8	15.76	14.08	12.65	12.92	11.44	11.30	11.35	11.96	12.21	11.62	11.12	12.17	11.27	11.48	10.68	9.438	8.952	8.151	7.647	7.140	6.622	5.987	5.133	5.299	4.408	4.448	4.060	3.759	3.812	3.593	3.450	3.034	2.926	2.637	2.450	2.355	2.643	3.194	2.824	1.896	1.601	1.509	1.274	1.225	1.053	1.239	1.643	1.401	0.929	0.786	0.770	0.935	0.988	1.745	2.736	10.76	55.66	147.7	43.39	3.118	0.321
590.0	63.50	62.42	60.76	46.74	33.69	33.90	33.36	35.20	54.85	123.4	88.24	63.15	56.40	118.0	781.9	566.7	28.67	11.95	10.45	10.32	9.486	9.366	9.116	9.109	9.684	9.255	9.102	9.134	8.960	9.143	8.494	7.623	7.012	6.677	6.320	5.737	5.054	4.697	4.409	4.228	3.724	3.451	3.318	3.291	3.070	2.910	2.715	2.503	2.447	2.156	2.019	1.767	1.889	2.306	2.622	2.122	1.532	1.179	1.123	1.100	0.956	0.927	1.213	1.349	1.128	0.720	0.762	0.799	0.732	0.843	1.121	2.828	13.01	51.94	92.40	68.17	11.91
595.0	59.41	65.86	62.36	44.74	29.79	28.82	29.99	32.07	42.31	89.08	113.8	67.43	53.86	52.90	232.9	884.9	110.8	9.651	8.795	7.952	7.675	7.394	7.075	7.554	7.416	7.571	7.196	6.869	7.126	7.003	6.808	6.376	5.821	5.405	4.720	4.312	4.050	3.705	3.533	2.882	3.023	2.688	2.391	2.417	2.484	2.323	2.116	2.219	1.990	1.795	1.679	1.552	1.402	1.543	2.007	2.007	1.737	1.232	0.990	0.953	0.886	0.752	0.865	0.946	1.180	0.962	0.824	0.737	0.651	0.704	0.645	1.053	3.240	11.83	24.37	75.41	84.07
600.0	53.72	66.28	59.20	43.43	28.09	25.11	27.86	31.63	42.93	66.34	128.3	78.33	53.22	38.83	69.59	655.5	431.0	15.49	7.664	6.634	6.726	6.342	6.225	6.205	6.262	6.015	6.030	5.702	5.939	5.568	5.498	5.221	4.400	4.579	3.866	3.769	3.526	3.209	2.943	2.455	2.555	2.367	2.252	2.060	2.199	2.026	1.837	1.669	1.603	1.536	1.434	1.404	1.194	1.174	1.379	1.844	1.792	1.319	0.844	0.833	0.772	0.699	0.886	0.650	1.055	1.194	0.901	0.789	0.631	0.614	0.662	0.709	1.044	2.984	5.689	23.64	87.11
605.0	54.48	61.82	52.45	39.85	29.20	26.77	28.78	34.35	40.46	54.13	118.2	95.95	57.22	38.47	32.63	277.5	709.7	57.25	6.921	6.063	5.572	5.259	5.292	5.274	4.913	5.240	4.923	4.877	4.889	4.892	4.906	4.335	3.852	3.686	3.330	3.261	3.047	2.586	2.400	2.119	2.036	2.034	1.903	1.742	1.735	1.656	1.561	1.469	1.277	1.412	1.208	1.274	1.036	0.979	1.025	1.413	1.705	1.412	1.008	0.734	0.649	0.637	0.658	0.570	0.754	1.025	0.989	0.763	0.634	0.667	0.552	0.473	0.442	0.951	1.482	5.678	31.47
610.0	54.59	59.39	56.06	40.02	28.08	26.44	28.59	33.20	41.70	55.28	94.01	119.3	67.04	41.41	28.29	81.68	540.0	339.3	12.35	5.270	4.670	4.505	4.432	4.477	4.276	4.124	3.947	3.784	3.956	3.923	3.678	3.480	3.376	3.168	2.763	2.509	2.394	2.080	1.982	1.783	1.742	1.540	1.663	1.546	1.469	1.494	1.385	1.232	1.141	1.119	0.996	1.042	0.869	0.804	0.777	0.929	1.287	1.381	1.014	0.737	0.609	0.610	0.717	0.576	0.620	0.720	0.911	0.866	0.650	0.576	0.499	0.484	0.414	0.538	0.590	1.538	7.459
615.0	57.03	63.01	57.20	39.02	23.60	24.91	27.51	32.01	42.49	51.94	72.96	115.6	81.23	42.40	29.86	33.61	175.0	595.9	71.92	4.470	4.008	3.511	3.611	3.484	3.283	3.427	3.280	3.227	3.205	3.386	3.024	2.827	2.639	2.365	2.148	1.828	1.797	1.768	1.524	1.488	1.356	1.244	1.146	1.300	1.204	1.241	1.091	0.992	1.094	0.916	0.709	0.867	0.694	0.539	0.697	0.680	0.876	1.070	0.966	0.769	0.589	0.613	0.613	0.667	0.566	0.629	0.709	0.830	0.793	0.496	0.423	0.507	0.381	0.369	0.339	0.566	1.896
620.0	51.47	56.12	50.87	35.81	23.35	21.59	28.31	32.29	40.15	51.28	65.61	100.3	95.76	44.94	29.39	21.16	54.30	469.1	268.9	6.101	3.304	3.221	3.089	2.889	3.014	2.908	2.750	2.861	2.931	2.813	2.519	2.298	2.102	1.840	1.772	1.678	1.554	1.415	1.431	1.263	1.077	1.104	1.003	1.054	1.048	0.957	0.951	0.844	0.861	0.793	0.685	0.761	0.618	0.451	0.589	0.625	0.664	0.913	0.891	0.781	0.592	0.446	0.504	0.596	0.542	0.618	0.538	0.773	0.890	0.634	0.509	0.469	0.357	0.436	0.325	0.364	0.622
625.0	54.34	53.86	45.68	30.39	22.34	21.48	25.55	31.41	38.63	48.19	61.15	79.66	104.7	47.17	27.03	19.99	25.01	211.3	484.5	27.82	3.059	2.964	2.649	2.638	2.517	2.532	2.452	2.599	2.374	2.431	2.484	1.995	1.780	1.601	1.518	1.489	1.316	1.348	1.037	1.229	0.886	0.919	0.882	0.854	0.976	0.812	0.808	0.813	0.722	0.650	0.622	0.650	0.559	0.539	0.546	0.518	0.565	0.618	0.835	0.783	0.687	0.430	0.437	0.502	0.591	0.633	0.486	0.651	0.768	0.639	0.550	0.347	0.365	0.378	0.272	0.290	0.352
630.0	46.44	53.38	42.96	32.10	21.84	20.69	23.81	29.85	36.38	46.09	56.66	67.26	91.95	59.97	28.48	19.00	18.25	59.83	401.2	191.7	6.121	2.343	2.483	2.182	2.049	2.074	2.037	2.003	2.113	1.811	1.805	1.573	1.549	1.320	1.270	1.159	1.153	1.009	0.969	0.880	0.729	0.790	0.728	0.792	0.825	0.693	0.687	0.622	0.540	0.515	0.565	0.499	0.433	0.486	0.464	0.443	0.496	0.457	0.552	0.686	0.695	0.524	0.529	0.448	0.526	0.515	0.484	0.526	0.547	0.602	0.621	0.453	0.357	0.320	0.254	0.261	0.226
635.0	49.11	55.47	43.35	31.15	23.10	22.79	24.25	26.97	36.23	43.60	53.50	60.38	71.07	71.33	32.46	19.33	16.22	20.80	131.9	419.0	46.99	2.075	2.172	1.916	1.851	1.833	1.656	1.665	1.650	1.562	1.487	1.262	1.300	1.051	1.077	0.927	0.867	0.882	0.731	0.648	0.603	0.649	0.634	0.588	0.600	0.571	0.650	0.489	0.477	0.401	0.434	0.341	0.438	0.436	0.355	0.328	0.399	0.460	0.371	0.487	0.735	0.535	0.502	0.421	0.470	0.422	0.470	0.449	0.424	0.424	0.506	0.551	0.382	0.331	0.317	0.237	0.207
640.0	37.30	55.86	39.66	26.05	24.14	22.24	23.64	28.54	33.18	42.51	54.52	59.82	59.47	74.08	39.40	21.40	16.79	12.12	36.28	358.4	170.1	3.238	1.762	1.697	1.520	1.383	1.419	1.338	1.409	1.388	1.233	1.242	0.963	0.912	0.897	0.837	0.677	0.643	0.697	0.587	0.539	0.525	0.573	0.438	0.597	0.496	0.468	0.492	0.511	0.435	0.443	0.274	0.400	0.315	0.327	0.288	0.344	0.402	0.380	0.428	0.494	0.590	0.547	0.467	0.403	0.317	0.426	0.409	0.443	0.358	0.466	0.606	0.508	0.371	0.279	0.259	0.209
645.0	41.75	57.32	39.98	28.18	23.09	19.68	21.74	26.38	31.96	40.67	53.35	56.21	55.05	66.99	47.59	22.78	17.18	10.97	12.54	175.1	333.1	15.46	1.773	1.388	1.565	1.489	1.353	1.162	1.415	1.113	1.169	1.082	0.790	0.901	0.855	0.705	0.776	0.632	0.590	0.554	0.530	0.478	0.533	0.462	0.438	0.485	0.442	0.446	0.398	0.372	0.348	0.246	0.297	0.295	0.264	0.262	0.321	0.356	0.311	0.347	0.382	0.477	0.511	0.460	0.388	0.464	0.379	0.437	0.442	0.380	0.440	0.464	0.605	0.368	0.348	0.273	0.186
650.0	46.11	54.28	49.14	36.26	22.84	20.44	20.45	27.17	33.15	39.45	50.12	56.70	53.59	54.68	55.90	23.14	16.83	10.78	6.971	54.77	367.1	64.78	2.043	1.375	1.621	1.199	1.272	1.047	1.416	0.929	1.041	0.994	0.784	0.786	0.846	0.623	0.780	0.517	0.458	0.425	0.434	0.563	0.452	0.377	0.389	0.580	0.430	0.409	0.376	0.389	0.301	0.277	0.264	0.271	0.300	0.289	0.296	0.301	0.294	0.298	0.338	0.414	0.477	0.413	0.374	0.409	0.291	0.395	0.437	0.310	0.392	0.377	0.472	0.484	0.313	0.269	0.183
