Sample:	'1
File name:	Default_20230303_100802.FD3
Run date:	'10:01:41, 03/03/2023
Operator:	user
Comment:	'

Instrument
Model:	F-2700 FL Spectrophotometer
Serial number:	2190-003
ROM Version:	4J14000 07

Instrument parameters
Measurement type:	3-D scan
Data mode:	Fluorescence
EX  Start WL:	220.0 nm
EX  End WL:	600.0 nm
EX Sampling interval:	5.0 nm
EM  Start WL:	230.0 nm
EM  End WL:	650.0 nm
EM Sampling interval:	5.0 nm
Scan speed:	12000 nm/min
EX Slit:	5.0 nm
EM Slit:	5.0 nm
PMT Voltage:	700 V
Response:	Auto 
Corrected spectra:	Off
Contour interval:	50.000

Peak integration
Integration method:	Rectangular
Sensitivity:	1
Threshold:	1.000

Peaks
No.	ApexEX/EM(nm)	Height(Data)
1	235.0/345.0	241.7
2	250.0/390.0	497.3
3	255.0/280.0	164.3
4	255.0/555.0	-91.22
5	260.0/285.0	326.7
6	260.0/565.0	-88.98
7	265.0/290.0	354.1
8	265.0/580.0	-75.24
9	270.0/295.0	611.2
10	270.0/590.0	-58.92
11	275.0/305.0	756.5
12	275.0/600.0	-43.82
13	280.0/310.0	758.4
14	280.0/345.0	591.7
15	280.0/610.0	-43.69
16	285.0/315.0	740.8
17	285.0/340.0	592.5
18	285.0/625.0	-31.77
19	290.0/320.0	728.9
20	290.0/365.0	558.3
21	290.0/395.0	585.0
22	290.0/640.0	-23.10
23	295.0/390.0	575.9
24	300.0/335.0	507.8
25	305.0/340.0	508.8
26	305.0/390.0	586.3
27	310.0/345.0	453.9
28	315.0/355.0	410.4
29	315.0/400.0	594.4
30	320.0/360.0	467.0
31	325.0/365.0	476.4
32	335.0/380.0	487.8
33	340.0/385.0	482.7
34	430.0/505.0	27.11
35	435.0/510.0	20.44
36	445.0/525.0	11.84
37	450.0/530.0	9.384
38	460.0/545.0	4.511
39	465.0/550.0	2.169
40	470.0/560.0	0.245
41	535.0/295.0	-6.399
42	540.0/300.0	-6.251
43	555.0/345.0	-6.359
44	560.0/310.0	-6.140
45	570.0/315.0	-5.839
46	575.0/320.0	-6.211

Data points
	220.0	225.0	230.0	235.0	240.0	245.0	250.0	255.0	260.0	265.0	270.0	275.0	280.0	285.0	290.0	295.0	300.0	305.0	310.0	315.0	320.0	325.0	330.0	335.0	340.0	345.0	350.0	355.0	360.0	365.0	370.0	375.0	380.0	385.0	390.0	395.0	400.0	405.0	410.0	415.0	420.0	425.0	430.0	435.0	440.0	445.0	450.0	455.0	460.0	465.0	470.0	475.0	480.0	485.0	490.0	495.0	500.0	505.0	510.0	515.0	520.0	525.0	530.0	535.0	540.0	545.0	550.0	555.0	560.0	565.0	570.0	575.0	580.0	585.0	590.0	595.0	600.0
230.0	-911.4	-623.2	707.3	636.7	-270.8	-282.1	-246.4	-210.2	-184.7	-166.0	-144.2	-124.2	-102.1	-85.32	-68.35	-56.51	-47.39	-40.79	-35.93	-31.38	-28.25	-25.90	-24.14	-21.92	-20.79	-19.52	-18.43	-18.14	-17.41	-16.86	-15.99	-15.18	-14.23	-13.16	-12.37	-11.18	-10.98	-10.84	-10.43	-10.17	-9.791	-9.938	-9.732	-9.340	-9.052	-8.831	-7.720	-6.842	-5.005	-4.036	-5.421	-7.375	-7.263	-7.671	-7.542	-7.740	-8.026	-7.926	-7.940	-7.988	-8.017	-7.978	-8.086	-8.070	-8.136	-8.253	-8.220	-8.349	-8.441	-8.406	-8.420	-8.427	-8.419	-8.570	-8.683	-8.983	-9.052
235.0	-873.7	-677.0	-48.01	 1570	 1067	-193.8	-240.6	-206.9	-186.8	-163.3	-141.9	-123.1	-103.9	-85.59	-68.37	-56.36	-45.77	-40.69	-36.38	-31.25	-28.24	-25.31	-24.10	-22.31	-20.67	-19.50	-18.67	-17.21	-17.51	-17.14	-16.15	-15.06	-14.15	-13.40	-12.69	-11.32	-11.04	-10.85	-10.41	-10.24	-9.885	-9.884	-9.915	-9.500	-9.089	-8.740	-7.960	-7.787	-6.248	-4.314	-3.034	-4.028	-5.873	-7.400	-7.607	-7.725	-8.239	-8.022	-8.191	-7.825	-7.936	-8.067	-8.230	-8.137	-8.229	-8.299	-8.089	-8.438	-8.521	-8.425	-7.889	-8.581	-8.476	-8.438	-8.656	-8.918	-9.054
240.0	-910.7	-695.2	-446.9	610.8	 2395	950.6	-187.2	-211.8	-184.4	-162.5	-143.3	-123.8	-103.2	-83.49	-68.40	-55.81	-46.48	-40.89	-35.91	-31.77	-28.18	-25.51	-23.46	-21.91	-20.73	-19.85	-18.57	-17.60	-17.33	-16.67	-16.28	-15.29	-14.11	-13.29	-12.44	-11.71	-10.75	-10.92	-10.60	-10.43	-9.686	-10.00	-9.684	-9.676	-8.741	-8.736	-7.988	-7.796	-6.743	-5.810	-4.758	-3.360	-1.745	-4.217	-6.512	-7.827	-8.232	-8.001	-7.977	-7.948	-7.968	-7.903	-8.231	-8.283	-7.998	-8.212	-8.262	-8.431	-8.081	-8.502	-8.263	-8.428	-8.402	-8.445	-8.655	-8.797	-9.263
245.0	-887.8	-679.6	-499.2	-163.0	 1368	 2790	924.8	-184.8	-182.5	-164.4	-141.3	-121.7	-102.1	-82.94	-69.55	-54.47	-45.58	-39.22	-35.35	-31.28	-29.03	-26.26	-23.61	-22.13	-20.35	-19.53	-18.59	-17.71	-16.94	-16.65	-16.19	-15.11	-14.40	-13.24	-12.29	-11.51	-10.72	-10.94	-10.04	-10.51	-9.551	-9.967	-9.925	-9.404	-9.181	-8.919	-7.952	-7.658	-7.174	-5.924	-5.867	-6.149	-3.399	-1.117	-1.709	-4.952	-7.513	-7.750	-7.945	-8.071	-7.901	-7.962	-8.124	-8.078	-8.200	-8.255	-8.304	-8.307	-8.249	-8.542	-8.356	-8.539	-8.397	-8.670	-8.761	-8.887	-8.997
250.0	-906.8	-689.2	-466.4	-305.8	92.88	 1487	 3347	 1231	52.45	-161.7	-141.6	-120.5	-101.5	-82.16	-67.84	-55.76	-46.39	-40.06	-35.78	-31.49	-28.43	-25.48	-23.51	-21.85	-20.53	-19.44	-18.42	-17.62	-17.45	-16.78	-16.29	-14.97	-14.27	-13.50	-12.34	-11.37	-10.90	-11.05	-10.46	-10.21	-9.691	-9.891	-9.784	-9.574	-9.003	-8.910	-7.827	-7.771	-6.924	-6.000	-5.918	-7.111	-6.216	-5.590	-3.928	-1.661	-0.644	-2.156	-5.012	-7.499	-7.944	-8.057	-8.076	-8.061	-8.238	-8.348	-8.251	-8.278	-8.469	-8.339	-8.497	-8.439	-8.325	-8.533	-8.669	-8.962	-9.144
255.0	-962.1	-713.3	-519.3	-258.9	-149.7	118.7	 1133	 3900	 1755	100.5	-132.5	-114.1	-99.10	-84.50	-67.64	-55.73	-47.26	-40.15	-34.90	-31.34	-28.77	-25.50	-23.59	-21.64	-21.05	-19.12	-18.68	-17.99	-17.65	-16.76	-16.10	-15.26	-14.23	-13.31	-12.54	-11.33	-10.77	-11.20	-10.54	-10.24	-9.565	-9.984	-9.775	-9.479	-9.061	-8.844	-8.014	-7.882	-7.163	-6.071	-5.685	-7.043	-6.689	-7.305	-6.595	-6.340	-5.157	-0.584	3.424	1.587	-4.120	-7.656	-8.194	-8.125	-8.222	-8.241	-8.139	-8.232	-8.271	-8.485	-8.434	-8.430	-8.477	-8.557	-8.822	-9.012	-9.178
260.0	-911.2	-735.4	-556.9	-329.6	-109.7	-134.7	86.38	 1733	 4925	 1484	-24.30	-116.6	-98.94	-84.15	-66.37	-54.04	-46.31	-40.44	-34.24	-30.82	-28.29	-25.68	-23.74	-21.57	-20.79	-18.82	-18.88	-17.79	-17.12	-16.77	-15.72	-15.30	-14.53	-13.74	-12.43	-11.40	-11.05	-11.01	-10.67	-10.02	-9.938	-9.924	-9.507	-9.088	-8.933	-9.013	-7.969	-7.829	-7.299	-6.240	-6.005	-6.819	-6.627	-7.200	-7.148	-7.501	-7.370	-5.779	-2.409	2.940	5.439	0.369	-6.277	-8.070	-8.128	-8.088	-8.199	-8.272	-8.306	-8.508	-8.228	-8.439	-8.419	-8.451	-8.709	-8.962	-9.185
265.0	-892.5	-720.9	-570.1	-397.6	-151.7	-65.77	-138.8	278.2	 2653	 5605	 1150	-82.08	-98.40	-80.87	-66.39	-54.39	-46.89	-39.63	-34.89	-29.86	-27.60	-25.21	-23.93	-21.76	-20.33	-19.67	-18.43	-17.40	-16.77	-17.03	-15.79	-15.38	-14.22	-13.41	-12.22	-11.45	-11.19	-10.89	-10.60	-10.17	-10.02	-10.01	-9.613	-9.333	-8.979	-8.452	-7.938	-7.759	-7.271	-6.305	-6.118	-7.264	-6.679	-7.190	-7.190	-7.629	-7.893	-7.426	-6.640	-4.639	0.914	7.990	5.597	-2.655	-7.801	-8.018	-8.199	-8.374	-8.389	-8.520	-8.461	-8.442	-8.273	-8.408	-8.774	-8.935	-9.166
270.0	-887.4	-697.2	-553.0	-422.3	-286.1	-89.52	13.78	-33.50	528.4	 2651	 5212	 3317	208.7	-76.66	-65.61	-53.79	-46.71	-39.30	-34.41	-30.56	-27.77	-25.23	-23.53	-21.96	-20.16	-19.48	-18.17	-17.53	-17.20	-16.74	-15.96	-15.30	-13.95	-13.30	-12.38	-11.32	-11.13	-10.89	-10.56	-10.35	-10.01	-9.965	-9.734	-9.392	-8.953	-8.643	-7.796	-7.761	-7.089	-6.202	-6.085	-7.422	-7.063	-7.390	-6.909	-7.176	-7.329	-7.433	-7.419	-7.052	-5.710	-2.978	0.937	4.637	6.141	2.916	-4.141	-7.760	-8.413	-8.469	-8.400	-8.304	-8.282	-8.487	-8.791	-8.908	-9.152
275.0	-933.4	-718.1	-515.1	-408.0	-319.9	-215.1	-27.00	135.3	42.15	502.6	 1760	 6629	 5233	250.4	-62.82	-52.24	-45.86	-38.09	-33.31	-31.07	-27.86	-24.70	-23.40	-21.59	-19.92	-19.10	-18.29	-17.40	-17.18	-16.61	-15.71	-15.13	-14.01	-13.18	-12.58	-11.23	-10.86	-11.11	-10.63	-10.22	-9.888	-10.01	-9.683	-9.244	-8.642	-8.750	-7.821	-7.760	-7.128	-6.050	-5.898	-7.473	-7.070	-7.643	-7.046	-7.480	-7.344	-6.810	-7.048	-7.553	-7.478	-6.854	-5.947	-4.992	-1.563	8.060	14.88	8.570	-3.767	-7.875	-8.289	-8.507	-8.465	-8.629	-8.838	-9.115	-9.257
280.0	-826.8	-666.2	-486.5	-394.3	-311.8	-244.3	-139.9	164.3	133.8	45.13	354.7	 2763	 8384	 4003	76.03	-52.20	-43.91	-39.13	-32.62	-31.06	-27.62	-25.29	-23.86	-21.86	-20.04	-18.98	-18.80	-17.34	-17.25	-16.63	-15.40	-15.12	-14.09	-13.26	-12.46	-11.28	-11.02	-11.16	-10.72	-10.26	-9.943	-10.11	-9.661	-9.480	-8.908	-8.844	-7.668	-7.599	-7.082	-6.095	-5.954	-7.480	-7.075	-7.787	-7.264	-7.453	-7.754	-7.270	-6.754	-6.806	-7.609	-7.477	-7.619	-7.375	-6.646	-3.558	4.408	14.93	16.27	4.191	-6.453	-8.156	-8.490	-8.748	-8.738	-9.066	-9.141
285.0	-797.8	-692.9	-461.4	-348.8	-327.5	-251.4	-184.8	-4.409	326.7	84.73	60.34	666.1	 4156	 8499	691.3	-7.308	-43.81	-38.06	-32.92	-30.53	-27.46	-24.97	-22.66	-21.32	-20.46	-19.14	-18.26	-17.78	-17.42	-16.53	-15.88	-15.11	-13.83	-13.54	-12.28	-11.10	-10.90	-10.98	-10.54	-10.11	-9.929	-9.962	-9.846	-9.632	-9.122	-8.737	-7.498	-7.652	-6.893	-5.968	-5.935	-7.662	-6.982	-7.501	-7.316	-7.444	-8.080	-7.719	-7.178	-6.812	-6.712	-7.512	-7.685	-7.814	-7.516	-6.799	-4.868	-0.192	11.01	19.89	13.47	-1.480	-7.922	-8.383	-8.700	-8.773	-9.065
290.0	-851.3	-650.4	-424.7	-311.7	-293.1	-239.8	-178.0	-101.7	128.3	354.1	225.3	229.5	 1059	 3782	 6169	 2549	155.6	-34.27	-32.26	-29.51	-26.95	-24.85	-22.83	-21.09	-19.80	-19.16	-18.34	-17.74	-17.23	-16.84	-15.96	-15.00	-13.86	-13.26	-12.47	-11.14	-10.87	-11.09	-10.44	-10.32	-10.04	-9.829	-9.820	-9.610	-9.169	-8.781	-7.746	-7.516	-6.821	-5.891	-6.066	-7.161	-7.199	-7.589	-7.338	-7.652	-7.974	-7.709	-7.389	-7.426	-6.922	-6.860	-6.825	-7.371	-7.562	-7.487	-7.092	-6.087	-3.191	1.441	8.616	12.71	12.51	5.533	-3.546	-8.405	-9.083
295.0	-813.3	-624.7	-351.5	-298.4	-248.4	-211.8	-162.7	-101.6	11.30	191.0	611.2	346.4	377.4	942.7	 2021	 6397	 3732	205.2	-29.43	-27.58	-25.68	-24.39	-22.59	-21.17	-20.18	-19.02	-18.31	-17.67	-16.98	-16.42	-15.53	-15.44	-14.07	-13.34	-12.75	-11.10	-10.95	-11.05	-10.34	-10.24	-10.08	-9.797	-10.08	-9.481	-9.167	-8.588	-7.624	-7.457	-6.703	-5.763	-5.987	-7.187	-6.992	-7.466	-7.156	-7.473	-7.706	-7.814	-7.604	-7.365	-7.310	-7.334	-7.174	-6.399	-6.537	-7.255	-7.112	-7.542	-6.727	-5.745	-4.561	-3.050	2.288	14.61	22.07	10.58	-3.982
300.0	-809.3	-593.9	-337.0	-266.8	-227.1	-182.8	-139.8	-61.84	0.555	129.4	512.2	696.6	347.7	367.1	525.8	 2606	 7563	 2919	105.9	-24.44	-24.01	-23.75	-22.22	-20.68	-20.18	-18.47	-17.49	-17.43	-16.97	-16.64	-15.68	-15.21	-13.89	-13.19	-12.43	-11.14	-10.96	-10.93	-10.23	-10.53	-9.999	-9.972	-9.961	-9.134	-8.920	-8.553	-7.589	-7.671	-6.699	-5.656	-5.981	-7.196	-6.860	-7.309	-7.115	-7.563	-7.667	-7.873	-7.516	-7.406	-7.331	-7.427	-7.649	-7.109	-6.251	-6.279	-6.800	-7.281	-7.601	-6.997	-6.873	-6.878	-5.969	-1.466	9.925	24.88	23.88
305.0	-823.5	-584.8	-360.4	-243.0	-218.4	-154.8	-109.0	-43.95	20.47	129.1	339.5	756.5	633.8	289.0	237.3	668.3	 3703	 7828	 2149	20.92	-22.84	-22.12	-21.43	-20.73	-19.63	-17.67	-17.46	-17.20	-16.77	-16.17	-15.37	-14.68	-13.75	-13.10	-12.50	-11.32	-11.08	-10.67	-10.43	-10.30	-10.20	-9.801	-9.995	-9.194	-8.879	-8.611	-7.718	-7.690	-6.739	-5.744	-5.967	-7.027	-6.639	-7.256	-6.969	-7.378	-7.503	-7.614	-7.374	-7.670	-7.245	-7.592	-7.372	-7.281	-6.728	-6.543	-6.264	-6.889	-7.460	-7.223	-7.440	-7.255	-7.690	-6.763	-4.241	4.234	18.62
310.0	-825.7	-544.5	-353.7	-226.0	-195.6	-140.4	-74.83	-12.09	42.96	145.7	294.8	507.4	758.4	575.1	246.8	250.3	927.0	 3482	 6141	 3168	114.9	-19.80	-19.87	-19.75	-18.82	-17.87	-17.51	-16.90	-16.23	-16.12	-15.58	-15.02	-13.64	-13.23	-12.28	-11.33	-10.92	-11.07	-10.39	-10.33	-9.844	-9.804	-9.717	-9.363	-8.691	-8.523	-7.582	-7.490	-6.801	-5.839	-5.823	-7.112	-6.705	-7.102	-6.963	-7.516	-7.620	-7.620	-7.413	-7.420	-7.128	-7.571	-7.355	-6.967	-6.936	-6.998	-6.708	-6.373	-6.140	-6.735	-7.257	-7.551	-7.916	-7.660	-7.384	-5.791	-1.879
315.0	-839.0	-595.0	-335.6	-182.2	-179.9	-107.6	-61.99	7.497	91.91	160.4	297.9	437.1	572.1	740.8	498.9	208.4	287.6	827.7	 1939	 6293	 4978	165.6	-17.42	-18.23	-17.85	-17.17	-17.18	-16.94	-16.30	-15.47	-15.78	-14.47	-13.76	-13.30	-12.17	-11.08	-10.97	-10.96	-10.42	-10.17	-9.451	-10.07	-9.418	-9.228	-8.936	-8.567	-7.617	-7.401	-6.713	-5.715	-5.777	-6.976	-6.765	-7.158	-6.957	-7.366	-7.513	-7.379	-7.228	-7.316	-7.189	-7.505	-7.261	-7.190	-6.951	-6.910	-7.246	-6.810	-6.809	-6.153	-5.839	-6.862	-7.701	-7.810	-7.931	-7.683	-7.188
320.0	-835.5	-534.6	-238.0	-130.4	-124.7	-81.70	-32.91	16.53	120.6	197.9	329.2	450.1	530.9	619.2	728.9	344.1	181.6	260.1	470.8	 2543	 7577	 2086	102.2	-16.81	-17.11	-16.98	-16.35	-16.54	-16.57	-15.86	-15.27	-14.37	-13.37	-13.33	-11.78	-11.14	-10.93	-10.71	-10.23	-10.19	-9.702	-9.913	-9.694	-9.236	-9.077	-8.747	-7.306	-7.391	-6.813	-5.652	-5.716	-7.126	-6.754	-7.365	-6.920	-7.320	-7.515	-7.525	-7.201	-7.131	-7.137	-7.426	-7.136	-7.416	-7.054	-6.836	-7.110	-6.940	-6.915	-6.755	-6.223	-6.211	-6.924	-7.657	-7.672	-8.095	-8.154
325.0	-854.2	-484.1	-121.3	-18.64	-92.60	-78.29	-17.43	54.33	133.7	230.9	343.0	479.2	550.4	550.2	669.4	577.4	224.5	157.1	162.1	619.8	 3603	 7283	 1736	30.67	-15.06	-16.19	-16.05	-16.34	-16.14	-15.82	-15.33	-13.91	-13.70	-12.94	-11.81	-10.98	-10.99	-10.78	-10.22	-10.22	-9.792	-9.985	-9.848	-9.423	-8.804	-8.735	-7.408	-7.328	-6.252	-5.485	-5.585	-6.820	-6.760	-7.230	-6.750	-7.275	-7.420	-7.290	-7.160	-7.143	-6.853	-7.416	-7.198	-6.876	-7.270	-6.855	-6.826	-7.251	-6.983	-6.930	-7.084	-6.456	-6.661	-6.517	-7.157	-7.806	-7.998
330.0	-759.4	-457.5	2.982	82.05	-32.92	-27.39	32.15	105.9	151.1	272.7	388.9	496.7	562.3	555.1	524.9	576.3	468.4	210.0	116.8	189.5	881.8	 3251	 6540	 3408	92.55	-13.09	-15.10	-15.65	-15.77	-15.74	-15.24	-14.32	-13.50	-12.93	-12.20	-10.82	-10.77	-10.79	-10.30	-10.20	-9.727	-9.657	-9.618	-9.255	-8.750	-8.569	-7.063	-7.336	-6.148	-5.195	-5.523	-6.878	-6.620	-7.156	-6.766	-7.168	-7.165	-7.289	-7.118	-7.033	-6.952	-6.934	-7.109	-7.107	-6.944	-6.866	-6.817	-6.980	-7.070	-7.009	-7.172	-6.836	-7.163	-6.747	-6.540	-7.215	-7.927
335.0	-775.5	-392.2	78.74	172.0	6.671	45.91	68.37	144.1	215.8	313.7	410.2	537.8	569.2	579.8	515.0	455.0	507.8	409.9	176.4	124.2	258.9	765.5	 2114	 6137	 4754	135.3	-12.37	-14.89	-14.69	-15.44	-15.21	-13.52	-13.17	-12.40	-12.11	-10.75	-10.99	-10.60	-10.23	-10.13	-9.735	-9.841	-9.606	-9.359	-8.904	-8.578	-7.020	-7.325	-6.194	-5.167	-5.339	-6.502	-6.603	-6.795	-6.719	-6.975	-7.185	-7.207	-6.951	-6.786	-7.037	-6.555	-6.964	-7.261	-7.275	-6.862	-6.546	-7.012	-6.601	-6.707	-6.760	-6.813	-7.173	-7.344	-7.179	-7.132	-7.070
340.0	-751.1	-366.6	143.4	234.9	97.14	111.6	114.5	163.6	233.1	324.9	407.4	523.6	571.9	592.5	521.6	438.0	416.8	508.8	308.8	138.6	140.4	229.8	515.2	 2502	 7345	 1631	85.86	-13.08	-14.10	-14.39	-15.29	-13.33	-12.99	-12.47	-11.90	-10.96	-10.78	-10.60	-10.40	-10.06	-9.501	-9.836	-9.661	-8.980	-8.764	-8.099	-7.388	-6.976	-5.898	-5.044	-5.117	-6.381	-6.324	-6.801	-6.640	-7.050	-7.297	-6.972	-7.094	-6.738	-6.943	-6.696	-7.067	-6.993	-6.720	-6.713	-6.729	-6.670	-6.817	-6.830	-6.719	-7.048	-6.977	-7.218	-7.518	-7.707	-7.402
345.0	-780.0	-320.1	107.4	241.7	136.0	88.04	147.0	180.7	222.7	308.8	397.4	512.6	591.7	583.1	523.1	443.7	373.3	423.0	453.9	221.2	135.3	128.1	165.0	616.5	 3597	 6914	 1378	32.74	-12.68	-13.72	-14.22	-12.66	-12.96	-12.41	-11.89	-10.67	-10.67	-10.38	-9.918	-10.15	-9.740	-9.745	-9.409	-9.388	-8.573	-8.274	-7.290	-6.779	-6.047	-5.021	-5.279	-6.526	-6.393	-6.647	-6.536	-6.898	-7.304	-6.968	-7.405	-6.963	-6.761	-6.866	-6.771	-6.852	-6.667	-6.958	-6.579	-6.359	-6.754	-7.033	-6.862	-7.182	-7.061	-7.401	-7.318	-7.378	-7.644
350.0	-765.3	-395.9	27.55	204.1	174.8	170.5	186.7	200.4	238.4	322.6	412.2	493.3	560.6	580.2	532.1	458.4	393.3	362.3	415.7	382.0	229.0	149.4	131.1	198.2	891.2	 3235	 5527	 3210	78.85	-10.97	-13.07	-12.34	-12.83	-12.14	-11.58	-10.72	-10.33	-10.58	-9.990	-10.00	-9.704	-9.799	-9.465	-9.076	-8.634	-8.219	-7.153	-6.921	-6.224	-5.174	-5.186	-6.434	-6.353	-6.745	-6.587	-6.745	-6.988	-6.848	-6.951	-7.021	-6.707	-7.130	-7.012	-6.771	-6.841	-6.960	-6.871	-6.656	-6.628	-6.762	-7.007	-6.941	-6.721	-7.251	-6.945	-7.528	-7.696
355.0	-829.6	-390.3	31.73	221.2	250.7	219.5	231.3	259.4	267.7	339.5	389.7	497.4	530.8	560.5	538.1	482.2	424.3	382.2	379.3	410.4	407.2	233.2	165.5	143.3	269.0	764.9	 1889	 6097	 4352	112.0	-11.33	-11.44	-11.96	-11.75	-11.34	-10.26	-10.43	-10.36	-10.18	-10.13	-9.571	-9.506	-9.413	-9.350	-8.883	-8.415	-7.233	-6.824	-6.088	-5.129	-4.855	-6.447	-6.175	-6.770	-6.547	-6.773	-7.114	-6.689	-6.716	-6.845	-6.541	-7.078	-7.109	-6.609	-6.736	-6.666	-6.535	-6.807	-6.984	-6.695	-6.852	-6.783	-6.964	-7.069	-6.979	-7.535	-7.425
360.0	-825.4	-415.8	0.893	204.2	265.5	274.8	276.5	282.4	279.7	331.9	402.3	489.5	539.3	539.8	551.4	503.5	438.1	419.5	385.0	386.1	467.0	366.5	217.2	161.7	152.2	232.6	469.0	 2609	 7140	 1414	64.33	-9.904	-10.84	-11.09	-11.18	-10.36	-10.27	-10.60	-10.09	-9.926	-9.533	-9.526	-9.418	-9.038	-8.735	-8.597	-7.208	-6.889	-6.144	-5.181	-4.976	-6.437	-6.177	-6.596	-6.330	-6.322	-7.034	-6.720	-7.058	-7.031	-6.682	-6.729	-6.893	-6.729	-6.896	-6.670	-6.745	-6.662	-6.998	-6.956	-6.631	-6.760	-6.995	-6.785	-6.866	-7.164	-7.321
365.0	-843.8	-433.9	-45.21	218.0	306.4	332.2	304.0	291.9	324.3	351.0	422.8	452.3	509.6	538.9	558.3	520.8	481.3	451.5	411.7	405.1	426.1	476.4	277.1	203.8	156.7	135.8	158.0	647.3	 3706	 6776	 1193	23.73	-10.46	-10.31	-10.77	-9.867	-10.50	-10.15	-9.762	-9.895	-9.512	-9.193	-9.401	-9.206	-8.856	-8.385	-7.000	-7.130	-6.331	-5.512	-5.175	-6.352	-6.207	-6.450	-6.417	-6.145	-6.954	-6.894	-7.234	-6.930	-6.426	-6.997	-6.611	-7.245	-6.975	-6.780	-7.292	-6.792	-7.154	-6.913	-6.901	-7.071	-6.942	-6.633	-7.026	-7.140	-7.254
370.0	-803.0	-420.4	-53.54	228.1	302.3	350.5	356.5	356.5	350.0	353.3	418.3	476.5	515.7	541.8	552.4	539.3	511.5	493.7	474.5	453.4	434.0	457.5	445.2	308.2	207.3	157.8	124.4	201.0	918.5	 3357	 5665	 3045	58.64	-8.502	-9.914	-9.628	-10.05	-10.25	-9.914	-9.794	-9.330	-9.491	-9.410	-9.038	-8.766	-8.319	-7.156	-7.016	-6.260	-5.411	-5.020	-6.267	-6.264	-6.333	-6.332	-6.425	-6.964	-6.886	-7.008	-6.784	-6.826	-6.814	-6.686	-6.939	-6.795	-7.012	-6.870	-7.246	-6.971	-6.932	-6.870	-6.953	-7.042	-6.775	-7.124	-7.283	-7.443
375.0	-775.0	-436.4	-52.88	235.6	341.9	396.2	398.5	391.7	385.2	401.9	428.0	473.3	524.3	545.5	559.8	551.5	538.1	531.6	535.2	506.0	470.3	459.2	462.9	453.5	298.2	206.9	155.6	134.5	261.5	783.7	 2052	 6347	 3789	83.12	-8.352	-8.482	-9.136	-10.12	-9.604	-9.308	-9.006	-9.598	-9.255	-9.250	-8.628	-8.535	-7.232	-6.978	-6.351	-5.211	-4.805	-6.100	-5.899	-6.348	-6.095	-6.387	-6.490	-6.811	-7.010	-6.764	-6.511	-6.797	-6.842	-6.873	-6.864	-6.851	-6.872	-6.764	-6.858	-6.457	-6.871	-7.253	-6.609	-6.830	-6.922	-7.172	-6.942
380.0	-708.9	-449.4	-67.67	278.6	369.9	405.3	422.8	425.7	382.6	409.1	443.4	477.7	502.0	529.3	571.2	546.9	551.0	555.4	545.6	526.8	513.0	487.2	454.0	487.8	420.8	263.2	192.1	141.3	133.2	220.4	497.8	 2899	 6925	 1108	42.73	-7.767	-8.408	-9.063	-9.533	-9.385	-8.979	-9.391	-9.200	-9.226	-8.368	-7.876	-7.301	-6.628	-6.163	-5.254	-5.034	-6.179	-5.799	-6.272	-5.871	-6.485	-6.439	-6.729	-6.789	-6.629	-6.844	-6.765	-6.974	-6.998	-6.750	-6.727	-6.876	-6.746	-6.943	-6.622	-6.766	-7.155	-6.743	-6.834	-6.696	-7.172	-6.892
385.0	-819.1	-491.4	-63.09	292.7	395.7	408.4	453.1	412.7	426.6	417.6	424.2	478.8	518.2	549.5	575.1	561.8	561.8	564.6	563.2	558.9	529.3	504.5	471.9	459.8	482.7	346.9	220.2	167.9	127.3	114.1	149.6	721.3	 3948	 6087	881.8	6.588	-7.741	-9.007	-9.468	-9.376	-9.071	-9.320	-9.252	-8.924	-8.499	-8.355	-7.272	-6.985	-6.315	-5.212	-5.066	-5.774	-5.597	-6.376	-5.808	-6.426	-6.450	-6.105	-6.557	-6.530	-6.872	-7.042	-6.818	-6.801	-6.885	-6.662	-7.113	-6.854	-6.905	-7.017	-6.543	-6.584	-7.031	-6.676	-6.876	-7.068	-6.830
390.0	-775.0	-398.4	-79.04	281.1	397.2	445.7	497.3	458.8	435.7	418.5	453.4	478.6	511.3	544.2	572.9	575.9	563.8	586.3	577.2	572.1	558.3	531.8	498.6	463.1	457.4	444.3	320.3	217.3	158.2	122.2	96.91	199.2	989.1	 3272	 4894	 2038	42.23	-7.584	-8.354	-8.659	-8.776	-9.094	-9.035	-8.833	-8.337	-8.102	-7.066	-6.968	-6.107	-4.975	-4.966	-5.823	-5.690	-6.339	-6.046	-6.273	-6.537	-6.241	-6.520	-6.853	-6.655	-6.746	-6.770	-6.855	-6.844	-6.760	-7.000	-6.717	-6.844	-6.921	-6.699	-6.895	-6.704	-6.616	-7.077	-6.945	-7.119
395.0	-785.2	-441.3	-48.83	298.3	414.6	477.7	493.8	445.7	443.8	411.1	451.3	496.6	516.0	540.1	585.0	535.8	571.9	577.7	582.8	594.1	586.1	554.4	516.9	492.8	449.7	438.1	428.9	301.4	199.9	157.1	111.3	101.2	256.0	751.6	 1990	 5467	 2857	54.87	-6.837	-7.887	-8.335	-8.557	-8.942	-8.662	-8.551	-8.265	-7.233	-6.961	-6.151	-5.124	-4.848	-6.003	-5.937	-6.187	-5.787	-6.138	-6.353	-6.388	-6.452	-6.846	-6.484	-6.713	-6.755	-6.778	-6.883	-6.844	-6.952	-6.786	-6.701	-6.828	-7.146	-6.800	-6.693	-6.613	-6.786	-6.824	-7.213
400.0	-710.0	-434.6	-47.58	243.7	393.6	445.9	493.9	452.0	442.4	412.5	446.4	489.8	513.8	540.5	562.2	536.2	567.4	585.3	576.8	594.4	584.3	568.8	528.5	507.3	463.0	430.1	436.1	376.9	250.7	182.5	135.7	97.61	103.0	194.5	479.3	 2788	 5722	878.1	25.82	-7.443	-7.794	-8.351	-8.801	-8.610	-8.357	-8.101	-6.809	-7.072	-6.305	-4.891	-4.746	-5.843	-5.619	-5.951	-5.835	-6.247	-6.437	-6.734	-6.643	-6.320	-6.632	-6.752	-6.640	-6.922	-6.432	-6.876	-6.761	-6.847	-6.777	-6.922	-7.041	-6.900	-6.386	-6.997	-6.823	-7.018	-7.147
405.0	-722.5	-428.2	-25.62	228.2	389.6	466.4	484.8	453.9	424.2	404.6	457.6	471.1	496.5	533.1	541.2	550.1	561.7	579.6	579.5	585.4	580.1	570.7	537.8	506.8	469.9	429.6	415.7	419.1	318.4	219.2	158.3	109.2	79.93	79.17	127.8	705.3	 3505	 4917	705.0	4.405	-7.209	-8.353	-8.679	-8.618	-8.002	-8.155	-6.843	-6.539	-6.297	-5.211	-4.854	-5.757	-5.886	-5.955	-5.759	-5.903	-6.601	-6.267	-6.618	-6.349	-6.838	-6.576	-6.667	-6.672	-6.766	-6.812	-6.688	-6.861	-6.822	-6.776	-7.008	-6.686	-6.930	-6.764	-6.969	-7.191	-7.244
410.0	-737.2	-429.1	-77.53	210.6	382.3	448.7	475.5	454.1	445.4	416.5	449.0	479.7	479.0	504.3	521.6	525.8	534.7	555.8	553.9	562.7	555.2	554.1	531.8	507.5	481.1	444.1	412.3	399.2	371.5	281.9	191.3	135.4	93.79	68.45	60.46	176.5	886.8	 2844	 4018	 1691	34.98	-7.261	-8.176	-8.279	-8.186	-7.932	-6.768	-6.709	-6.139	-5.221	-5.043	-5.984	-5.930	-6.081	-5.934	-5.829	-6.546	-6.187	-6.442	-6.523	-6.727	-6.767	-6.723	-6.714	-6.808	-7.010	-6.774	-6.906	-6.982	-6.807	-6.817	-6.746	-6.875	-6.964	-6.788	-6.989	-7.013
415.0	-774.4	-452.6	-68.61	208.9	358.1	447.7	456.7	431.3	410.6	398.0	441.5	477.1	481.2	480.4	493.5	499.3	520.5	520.3	540.0	530.8	540.2	533.4	515.9	496.8	480.4	448.7	417.9	380.7	352.7	341.0	242.3	163.4	115.6	79.32	58.23	64.07	213.1	646.0	 1689	 4337	 2289	51.89	-7.017	-7.467	-7.780	-7.456	-6.844	-6.677	-6.062	-5.257	-5.111	-6.059	-5.953	-6.209	-5.799	-6.061	-6.395	-6.517	-6.507	-6.745	-6.587	-6.477	-7.087	-6.720	-7.062	-7.012	-6.956	-6.650	-7.062	-7.193	-6.852	-6.502	-6.698	-6.695	-7.002	-7.065	-7.224
420.0	-723.1	-441.4	-105.8	163.3	344.2	412.9	426.9	418.0	398.7	414.7	436.6	457.1	457.6	477.7	493.6	488.1	492.3	503.4	508.1	512.4	512.2	515.7	509.3	485.4	469.5	445.7	413.1	375.1	340.5	344.4	288.0	182.0	123.9	89.00	61.84	46.60	66.60	154.7	403.0	 2191	 4580	785.2	19.88	-7.282	-7.788	-7.570	-6.781	-6.724	-6.171	-5.082	-4.927	-5.872	-6.039	-6.143	-5.995	-6.076	-6.398	-6.395	-6.781	-7.041	-6.668	-6.564	-6.862	-6.918	-6.847	-7.146	-6.820	-7.082	-7.312	-7.174	-6.897	-6.960	-6.911	-6.851	-7.386	-7.205	-7.575
425.0	-802.8	-472.0	-111.0	135.6	338.7	378.5	417.7	423.8	410.9	407.0	397.8	431.6	469.4	464.0	474.5	449.4	472.4	476.8	489.0	489.6	489.7	483.8	481.8	469.5	451.2	441.3	407.6	371.2	338.9	314.4	305.0	221.6	141.6	99.01	71.64	47.79	40.16	48.41	98.09	547.7	 2806	 3962	594.8	-1.584	-7.368	-7.342	-6.445	-6.731	-6.125	-5.276	-5.037	-6.009	-5.932	-6.247	-6.083	-6.297	-6.591	-6.243	-6.561	-6.463	-6.969	-6.709	-6.841	-7.020	-7.038	-6.992	-6.932	-7.138	-7.069	-7.110	-6.944	-7.078	-7.041	-7.073	-7.088	-7.363	-7.498
430.0	-761.7	-468.0	-142.5	122.4	295.5	350.0	383.6	387.6	382.5	376.2	386.4	416.5	434.5	438.8	440.8	427.5	438.6	432.3	449.9	459.4	459.5	463.1	452.3	446.1	437.0	422.5	399.5	365.4	335.4	300.0	279.0	254.5	177.7	114.8	81.49	56.12	41.30	31.40	33.04	128.8	702.3	 2231	 3256	 1298	29.20	-6.652	-6.159	-6.554	-5.780	-5.185	-5.201	-5.992	-5.894	-6.213	-6.061	-6.382	-6.386	-6.658	-6.575	-6.662	-6.773	-6.715	-6.767	-6.859	-6.983	-6.871	-6.997	-7.211	-7.105	-7.070	-7.081	-7.145	-6.904	-7.098	-7.034	-7.274	-7.480
435.0	-688.7	-503.1	-176.5	114.0	223.4	338.0	325.4	370.6	367.5	368.8	378.6	410.8	408.3	401.0	405.5	396.0	410.7	399.7	409.1	428.0	425.3	437.3	426.0	424.7	421.9	400.6	389.1	361.1	331.9	294.7	262.7	236.9	215.4	144.3	92.24	67.86	48.19	33.70	26.10	37.03	162.2	503.0	 1411	 3786	768.3	39.35	-5.899	-6.149	-5.519	-4.859	-4.866	-6.102	-6.095	-6.128	-6.162	-6.424	-6.480	-7.103	-6.519	-6.602	-6.793	-6.849	-6.819	-6.742	-7.076	-7.301	-7.139	-6.996	-7.167	-7.110	-6.994	-7.095	-7.040	-7.135	-7.105	-7.186	-7.458
440.0	-691.4	-453.9	-173.4	77.61	213.9	308.8	326.0	354.0	363.0	367.1	373.4	363.7	397.0	377.6	372.7	375.0	373.5	380.4	383.9	399.0	403.6	405.9	405.0	407.4	399.9	387.3	377.5	346.0	325.6	297.1	260.5	223.6	211.8	171.0	106.2	77.03	53.85	36.32	25.90	21.07	43.64	116.0	333.2	 2071	 3847	683.0	13.56	-5.489	-5.550	-4.779	-4.806	-5.911	-6.149	-6.264	-6.213	-6.392	-6.882	-6.847	-6.388	-6.580	-6.959	-6.906	-6.745	-6.944	-7.207	-7.051	-7.236	-7.142	-7.120	-7.362	-7.032	-7.101	-6.855	-7.187	-7.461	-7.382	-7.581
445.0	-706.7	-442.4	-230.8	37.04	186.7	276.2	319.1	326.0	346.8	356.5	354.4	351.0	365.3	367.0	357.1	356.1	350.3	357.4	366.3	374.4	375.4	376.8	376.3	379.2	379.3	367.0	362.5	335.6	316.6	285.1	257.7	217.4	191.8	185.3	130.3	83.51	59.09	40.81	28.68	21.50	19.60	30.64	77.10	530.8	 2612	 3691	473.6	-0.377	-4.760	-4.281	-4.670	-5.948	-6.089	-6.306	-6.067	-6.389	-6.633	-6.740	-6.713	-6.717	-6.656	-6.964	-6.493	-7.117	-7.473	-6.852	-7.336	-6.998	-7.057	-7.363	-6.990	-7.562	-7.269	-7.224	-7.707	-7.571	-7.700
450.0	-754.6	-313.9	-138.1	0.205	158.2	239.9	272.1	291.7	307.8	310.2	335.9	333.1	346.7	340.9	323.9	321.4	317.0	312.3	325.7	340.8	348.1	346.5	346.9	344.2	350.6	341.7	332.2	313.3	299.6	272.3	246.0	208.6	175.2	159.0	148.9	103.0	67.47	47.56	33.21	24.50	17.35	15.21	20.71	120.0	664.2	 2291	 3275	 1241	23.52	-3.745	-4.694	-5.899	-5.838	-6.403	-6.161	-6.327	-6.543	-6.433	-6.462	-6.944	-6.798	-7.037	-6.917	-7.259	-7.171	-7.169	-7.267	-7.249	-7.261	-7.462	-7.341	-7.287	-7.187	-7.364	-7.771	-7.529	-7.678
455.0	-785.8	-376.2	185.2	-6.262	118.3	174.7	240.3	264.4	274.0	264.1	296.2	318.0	307.8	311.4	304.4	295.5	288.8	276.0	287.0	299.5	300.9	310.7	313.6	308.7	315.3	308.0	299.7	290.7	279.6	257.2	233.4	197.1	167.8	140.0	131.2	123.4	85.25	52.75	36.96	27.62	18.45	12.60	10.22	29.40	149.7	516.9	 1489	 3788	 1707	27.91	-3.697	-5.261	-5.310	-6.044	-6.093	-6.028	-6.671	-6.768	-6.889	-6.688	-6.955	-6.954	-7.039	-7.393	-7.296	-7.236	-7.399	-7.193	-7.434	-7.383	-7.353	-7.408	-7.154	-7.577	-7.459	-7.742	-7.607
460.0	-858.3	-440.6	368.7	147.0	76.41	126.4	193.5	203.1	231.3	272.2	288.2	277.7	278.0	269.8	269.2	265.9	245.2	260.1	260.0	269.6	276.8	280.3	280.7	287.3	287.5	286.2	281.5	268.6	258.1	243.9	221.5	184.4	157.3	134.0	112.9	115.8	97.26	60.66	39.83	30.16	21.61	14.05	9.287	10.47	35.73	116.5	355.4	 2140	 3889	489.3	11.68	-5.102	-5.236	-5.857	-5.975	-5.957	-6.628	-6.817	-6.801	-6.915	-7.097	-6.821	-7.039	-7.172	-7.145	-7.128	-7.190	-7.154	-7.356	-7.438	-7.554	-7.325	-7.235	-7.645	-7.369	-7.618	-8.074
465.0	-823.0	-519.5	360.1	532.4	90.66	120.6	178.5	195.3	224.2	237.9	253.9	259.8	263.5	252.9	243.9	240.0	221.1	231.6	236.7	245.4	250.0	254.4	252.2	263.2	262.1	260.1	259.7	250.3	235.2	226.1	204.4	179.2	153.0	130.9	106.4	102.2	98.47	69.39	42.36	31.78	23.27	15.75	10.76	8.674	11.32	27.45	80.62	553.3	 2664	 3197	404.6	-2.006	-5.125	-5.508	-5.598	-6.293	-6.407	-6.784	-6.599	-6.860	-7.161	-6.821	-7.144	-7.154	-7.158	-7.148	-7.362	-7.300	-7.405	-7.240	-7.691	-7.389	-7.511	-7.358	-7.703	-7.820	-8.210
470.0	-815.1	-587.4	-70.36	880.0	395.3	91.29	121.7	162.3	173.5	195.8	223.9	229.3	223.5	212.9	209.1	205.7	203.2	198.3	206.7	212.0	216.2	221.2	220.5	227.2	223.9	227.7	229.6	225.1	211.6	199.2	187.4	163.4	141.7	118.4	97.56	87.90	82.86	77.91	52.64	34.37	23.88	17.74	12.36	9.234	7.102	8.859	19.32	124.2	681.4	 2070	 2616	 1024	20.61	-5.361	-5.486	-6.240	-6.426	-6.746	-6.664	-6.868	-7.087	-7.044	-6.997	-6.969	-7.217	-7.328	-7.309	-7.303	-7.682	-7.505	-7.625	-7.486	-7.565	-7.774	-7.681	-8.151	-8.238
475.0	-855.6	-594.2	-276.5	516.3	 1182	100.9	106.2	136.2	132.6	162.0	177.7	196.5	180.4	178.0	180.0	169.8	169.2	173.5	174.7	175.5	179.1	189.9	184.5	195.3	195.8	198.7	200.2	194.8	184.8	176.5	166.0	147.3	129.7	111.3	91.40	76.84	67.63	65.28	62.38	43.95	26.99	19.44	12.50	9.060	6.713	5.497	6.008	28.23	151.9	466.1	 1188	 2875	588.6	28.36	-5.135	-5.963	-6.274	-6.697	-6.712	-7.041	-7.025	-7.091	-7.011	-7.321	-7.293	-7.141	-7.472	-7.459	-7.657	-7.710	-7.251	-7.728	-7.706	-7.966	-7.821	-7.903	-8.518
480.0	-798.9	-603.0	-382.7	76.77	 1530	410.8	78.33	112.7	105.7	128.4	151.4	163.1	162.3	163.7	150.9	156.6	154.5	155.7	150.1	161.1	162.6	168.7	167.3	174.9	176.8	177.9	182.4	175.7	172.1	163.1	153.3	137.1	120.7	106.4	89.07	74.68	63.71	54.64	59.65	49.29	29.38	18.46	13.34	9.066	6.389	5.455	3.768	7.684	34.32	103.9	283.2	 1587	 2831	534.5	6.560	-5.734	-6.621	-7.006	-6.556	-6.770	-7.006	-7.452	-7.306	-7.440	-7.471	-7.322	-7.683	-7.664	-7.713	-7.608	-7.494	-7.460	-7.442	-7.705	-7.745	-8.123	-8.429
485.0	-836.1	-599.9	-338.4	-136.7	 1103	 1014	50.66	81.73	104.2	100.3	135.1	143.9	153.6	141.0	142.0	138.9	133.9	136.5	133.2	148.9	147.2	150.4	147.9	161.5	163.4	162.8	163.0	161.0	159.7	147.6	139.7	130.0	112.2	97.34	83.92	70.17	60.82	51.15	51.49	49.70	37.45	19.98	13.85	10.25	6.925	5.171	3.886	2.820	7.849	23.23	62.72	408.4	 2038	 2669	74.32	-2.740	-6.365	-6.623	-6.669	-6.733	-6.683	-7.155	-7.154	-7.285	-7.533	-7.290	-7.844	-7.679	-7.493	-7.885	-7.602	-7.457	-7.907	-7.839	-7.795	-8.396	-8.338
490.0	-881.4	-621.5	-383.7	-215.3	291.3	 1399	511.5	53.97	86.03	88.84	113.6	125.6	131.3	121.3	124.6	121.2	114.4	119.3	121.0	127.5	126.6	133.4	130.3	141.5	141.6	142.6	144.4	140.9	141.6	134.7	126.1	118.8	103.4	90.63	77.48	66.84	56.31	45.89	40.95	41.47	41.01	27.84	16.55	11.06	7.977	5.847	4.268	2.178	2.717	5.629	13.55	89.10	521.3	 1657	 2341	987.1	21.85	-6.136	-6.536	-6.465	-6.781	-7.035	-7.062	-7.394	-7.375	-7.487	-7.567	-7.596	-7.592	-7.824	-7.824	-7.799	-7.871	-7.914	-7.939	-8.254	-8.385
495.0	-866.2	-585.9	-415.7	-215.9	-35.27	711.7	 1474	115.4	44.11	65.47	76.66	98.66	112.1	102.7	96.07	96.70	101.0	102.3	101.1	104.5	107.9	111.6	107.8	120.3	124.4	122.5	119.4	121.5	120.9	119.4	117.6	99.80	93.18	80.93	69.63	60.44	51.83	42.57	36.25	33.48	33.73	33.77	21.45	11.62	8.410	7.125	4.129	2.325	2.204	1.718	2.547	17.79	113.9	370.9	 1110	 2905	648.3	29.34	-6.074	-6.198	-6.930	-6.877	-7.264	-7.417	-7.478	-7.510	-7.726	-7.688	-7.917	-7.788	-7.573	-7.906	-7.880	-8.020	-8.181	-8.240	-8.578
500.0	-826.8	-616.5	-398.2	-220.2	-126.7	168.1	 1690	492.0	15.58	54.57	68.34	67.95	89.11	87.31	91.68	85.14	80.92	84.90	91.02	90.73	94.67	98.25	97.85	100.5	112.2	112.8	107.4	108.9	106.3	107.7	102.5	93.06	82.30	73.72	63.28	56.81	48.27	40.78	34.45	29.71	25.99	30.57	25.83	14.32	8.177	6.185	4.392	2.677	1.993	0.708	-0.043	2.131	22.81	80.28	262.8	 1604	 2990	558.2	8.558	-5.946	-6.806	-6.866	-7.034	-7.495	-7.352	-7.655	-7.733	-7.448	-7.753	-7.719	-7.632	-7.960	-8.074	-8.137	-8.221	-8.364	-8.379
505.0	-856.8	-637.1	-416.2	-236.8	-157.6	-22.93	 1112	 1167	48.29	35.11	55.32	52.34	71.55	72.99	69.91	71.80	71.69	73.45	78.66	78.43	83.44	87.10	88.98	89.78	97.45	97.83	100.2	99.47	95.74	96.98	92.75	85.58	74.24	67.42	58.49	51.71	43.95	37.53	31.70	27.36	24.74	25.27	27.11	17.76	8.578	6.205	5.216	3.366	1.981	0.723	-0.079	-1.471	2.984	15.25	55.75	407.1	 2114	 2791	413.6	-4.067	-6.510	-6.772	-7.212	-6.719	-7.447	-7.701	-7.772	-7.533	-7.979	-7.752	-7.752	-7.898	-8.080	-7.980	-8.309	-8.275	-8.777
510.0	-869.4	-671.0	-442.0	-240.7	-156.4	-96.96	296.9	 1430	553.1	15.51	37.33	39.54	56.64	50.46	54.23	57.25	56.54	60.90	62.63	65.17	67.72	71.34	72.73	74.89	80.22	81.31	83.62	84.85	82.34	82.26	77.09	73.32	64.78	57.68	52.37	44.87	38.72	33.45	29.27	23.11	20.26	17.93	19.75	20.44	12.27	6.410	4.527	2.702	1.700	1.107	0.129	-2.089	-2.016	0.421	9.284	87.75	538.5	 1696	 2299	860.8	20.75	-6.644	-6.918	-7.061	-7.360	-7.523	-7.623	-7.738	-7.893	-7.894	-8.075	-8.046	-8.146	-8.019	-8.190	-8.509	-8.632
515.0	-833.7	-640.5	-451.7	-288.0	-146.0	-125.9	-2.240	672.6	 1457	91.16	-0.860	24.90	39.49	28.52	33.82	41.78	41.21	43.77	46.00	48.75	55.39	54.71	57.59	59.54	64.03	68.48	65.26	70.35	67.63	68.86	62.83	58.84	53.31	46.94	44.56	38.67	32.20	28.67	23.95	21.38	17.76	13.28	13.48	15.96	15.31	8.669	3.971	1.746	1.157	0.879	-0.415	-2.223	-2.977	-3.161	-1.190	15.86	115.5	377.2	 1026	 2538	632.9	26.10	-6.816	-6.969	-7.486	-7.514	-7.554	-8.006	-7.823	-8.050	-8.221	-7.901	-8.155	-8.017	-8.238	-8.488	-8.612
520.0	-864.1	-680.3	-492.1	-309.1	-155.0	-146.0	-76.14	142.9	 1549	516.7	-6.880	-1.925	24.34	20.61	23.17	34.21	32.73	33.56	36.49	39.02	44.20	47.09	48.95	48.37	53.47	57.55	57.94	60.25	59.32	57.90	56.01	49.70	48.89	39.78	37.78	34.23	28.87	24.41	21.83	18.43	15.45	12.09	10.76	10.39	14.55	10.47	5.307	1.515	1.192	0.994	-0.646	-1.881	-3.132	-3.685	-3.294	-0.146	21.58	80.08	240.8	 1376	 2410	513.3	4.671	-7.041	-7.308	-7.566	-7.723	-7.521	-7.696	-7.930	-8.186	-8.003	-8.147	-8.056	-8.054	-8.586	-8.604
525.0	-831.3	-662.5	-482.8	-332.5	-167.5	-138.8	-108.9	-32.99	926.3	 1232	16.68	-8.911	12.58	14.06	17.25	21.64	27.31	27.72	29.09	34.69	37.69	40.09	39.83	41.39	47.27	48.65	49.49	52.06	51.48	51.84	50.69	45.01	41.67	36.70	32.11	30.17	26.41	22.21	19.62	15.41	13.31	9.635	9.294	7.356	11.03	11.84	8.269	1.907	1.148	0.429	-0.394	-2.632	-2.895	-3.681	-4.234	-3.598	0.418	13.85	49.96	345.4	 1627	 2183	79.28	-4.852	-7.016	-7.386	-7.390	-7.617	-7.727	-7.990	-7.931	-8.098	-8.053	-8.156	-8.204	-8.700	-8.593
530.0	-869.1	-681.4	-498.8	-345.3	-217.0	-115.7	-120.0	-84.24	219.3	 1328	596.6	-18.33	-4.248	0.419	6.315	10.44	16.47	18.56	18.62	24.70	27.90	29.87	32.55	33.37	35.58	39.83	40.16	43.87	41.81	40.16	41.57	37.54	34.32	30.15	27.65	24.53	21.34	17.94	15.16	12.84	11.27	7.747	6.630	4.744	6.078	7.196	9.384	4.245	0.918	0.278	-0.658	-2.684	-3.275	-4.207	-4.504	-4.952	-4.237	-1.039	6.845	72.82	407.0	 1278	 1681	363.0	16.23	-7.173	-7.484	-7.728	-7.696	-8.055	-8.090	-8.242	-8.077	-8.210	-8.430	-8.625	-8.848
535.0	-833.9	-675.6	-524.1	-358.8	-253.1	-134.8	-118.7	-107.7	-23.94	520.0	 1478	103.3	-20.19	-17.72	-5.965	0.584	6.395	6.889	9.420	16.01	20.06	21.97	22.49	22.26	27.50	29.73	30.84	32.93	34.26	29.35	32.77	30.54	27.15	24.32	23.91	18.39	17.33	14.17	12.07	10.55	8.399	5.719	4.666	2.590	3.377	3.106	6.302	5.950	2.296	-0.344	-1.322	-3.140	-3.121	-3.755	-4.416	-4.756	-5.171	-4.941	-2.927	11.49	85.63	282.4	727.3	 1835	585.8	17.01	-7.497	-7.363	-7.558	-7.912	-8.047	-8.433	-8.315	-8.352	-8.580	-8.680	-8.840
540.0	-919.2	-691.2	-504.4	-368.4	-269.8	-175.0	-107.9	-119.0	-74.48	77.59	 1398	595.8	-22.00	-28.26	-10.94	-4.840	1.911	0.492	7.274	7.294	12.21	15.80	16.83	16.36	21.19	23.48	25.30	27.15	27.80	27.15	26.64	24.83	22.43	21.91	18.71	16.87	12.94	11.20	9.627	8.687	6.035	4.433	3.047	2.471	1.514	0.662	2.776	4.876	4.154	0.205	-1.609	-3.246	-3.747	-4.361	-4.519	-4.939	-5.379	-5.756	-5.496	-2.301	14.16	58.18	166.2	991.6	 1802	451.4	-1.016	-7.513	-7.702	-7.835	-7.750	-8.302	-8.244	-8.142	-8.339	-8.640	-8.826
545.0	-844.1	-660.1	-530.4	-358.8	-286.4	-197.2	-107.7	-114.4	-101.9	-54.02	739.8	 1261	7.539	-27.79	-19.44	-14.36	-4.900	-4.662	1.840	4.950	6.978	11.23	10.78	12.38	16.68	17.85	20.32	19.06	20.91	21.24	21.22	18.80	17.74	17.28	14.93	12.54	10.06	8.739	7.746	5.624	4.571	2.798	1.788	1.194	0.249	-0.846	0.369	2.939	4.511	1.947	-1.715	-3.709	-4.102	-5.019	-4.941	-5.396	-5.476	-6.075	-5.868	-5.784	-2.122	8.059	31.94	247.0	 1217	 1581	73.88	-6.369	-7.765	-7.740	-7.863	-7.972	-8.406	-8.114	-8.361	-8.763	-8.890
550.0	-850.9	-702.2	-516.5	-390.7	-300.3	-219.1	-145.6	-97.65	-117.6	-89.54	146.8	 1249	580.5	-30.89	-24.70	-18.40	-14.05	-9.559	-5.219	-1.942	1.708	5.014	5.343	7.580	9.380	10.45	11.40	13.67	13.69	13.94	14.02	12.37	12.11	11.89	9.468	8.299	6.643	6.359	4.950	2.840	2.655	0.968	-0.347	-0.369	-0.796	-1.577	-1.161	-0.853	1.905	2.169	-0.595	-3.321	-4.289	-5.068	-4.918	-5.530	-5.844	-6.072	-6.386	-6.349	-5.724	-3.506	1.829	49.90	302.5	929.8	 1179	333.9	10.29	-7.529	-7.888	-7.997	-8.108	-8.064	-8.312	-8.680	-8.891
555.0	-831.6	-716.7	-509.5	-389.0	-294.2	-237.6	-183.8	-91.22	-116.2	-99.81	-44.20	442.1	 1308	92.47	-33.74	-25.18	-17.56	-15.51	-10.49	-8.678	-5.053	-2.347	0.966	1.584	2.433	4.552	5.098	6.776	7.656	8.266	6.925	7.898	6.806	6.996	5.380	4.888	3.004	3.140	2.513	0.840	0.512	-0.541	-1.711	-2.401	-2.042	-2.532	-2.450	-3.015	-1.438	1.236	-0.074	-3.092	-4.710	-5.402	-5.648	-5.811	-5.984	-6.565	-6.530	-6.733	-6.652	-6.131	-5.009	5.768	61.75	203.7	525.1	 1249	475.6	4.087	-7.689	-8.273	-7.804	-8.162	-8.257	-8.624	-8.776
560.0	-906.0	-707.1	-525.6	-399.9	-315.4	-242.9	-199.2	-130.7	-99.48	-113.1	-87.75	62.46	 1195	553.0	-36.04	-30.51	-23.07	-19.71	-15.61	-11.24	-9.177	-6.343	-3.729	-2.105	0.010	-0.307	2.842	3.000	3.483	4.580	5.141	3.765	2.527	3.024	2.896	1.798	1.325	0.172	0.139	-0.374	-0.720	-2.293	-2.387	-2.937	-3.164	-3.496	-2.681	-3.617	-2.784	-0.813	0.245	-2.631	-4.602	-5.595	-5.599	-6.195	-6.170	-6.472	-6.533	-6.830	-6.884	-6.844	-6.844	-4.177	7.945	39.55	120.2	698.6	 1168	80.25	-4.888	-8.109	-7.983	-8.283	-8.173	-8.600	-8.833
565.0	-904.8	-658.1	-547.0	-404.4	-313.9	-262.7	-211.2	-138.6	-88.98	-122.9	-99.64	-51.60	587.1	 1115	-1.339	-32.67	-25.99	-21.81	-19.83	-13.90	-12.09	-9.413	-7.442	-4.439	-3.513	-1.975	-1.415	-0.573	0.661	1.533	1.474	1.160	1.961	0.603	0.019	-0.822	-0.265	-1.171	-1.595	-2.468	-1.881	-4.262	-4.006	-3.795	-3.769	-4.237	-3.640	-4.246	-3.859	-2.762	-1.116	-3.094	-4.268	-5.921	-6.056	-6.191	-6.688	-6.683	-6.511	-6.886	-7.027	-7.324	-7.508	-6.310	-4.273	3.022	20.69	175.7	811.2	699.5	60.89	-7.253	-8.112	-8.177	-8.452	-8.774	-8.784
570.0	-923.6	-685.6	-536.3	-411.1	-323.5	-254.8	-209.5	-166.3	-99.49	-99.17	-100.5	-75.64	108.8	 1008	439.9	-33.99	-31.00	-26.92	-22.65	-18.18	-15.35	-11.60	-11.09	-8.925	-8.223	-5.690	-4.663	-3.056	-3.339	-2.091	-1.971	-2.466	-2.136	-1.845	-2.357	-2.448	-2.362	-3.201	-3.111	-3.836	-4.106	-4.708	-4.980	-5.102	-5.090	-5.178	-4.406	-5.040	-4.391	-3.561	-3.039	-4.089	-4.083	-5.680	-5.947	-6.549	-6.773	-6.908	-6.812	-6.962	-6.931	-7.163	-7.558	-7.386	-6.778	-5.180	-1.280	33.62	204.4	537.9	664.4	233.4	1.764	-8.160	-8.356	-8.772	-9.026
575.0	-868.7	-712.7	-556.1	-413.8	-318.9	-260.6	-216.9	-180.9	-123.0	-85.04	-104.9	-81.03	-30.02	327.3	 1063	74.84	-34.90	-29.59	-27.62	-21.35	-17.80	-15.95	-13.92	-12.38	-9.680	-8.266	-7.623	-7.125	-6.771	-5.437	-4.148	-4.818	-4.968	-4.842	-4.834	-4.945	-4.007	-4.405	-4.301	-5.220	-5.540	-5.851	-5.899	-5.956	-6.190	-6.164	-5.192	-5.415	-5.006	-4.052	-4.396	-5.163	-4.340	-5.072	-5.856	-6.750	-6.785	-7.142	-7.159	-7.443	-7.436	-7.319	-7.552	-7.509	-7.479	-6.999	-6.095	1.683	39.50	115.7	325.8	746.3	82.04	-3.258	-8.342	-8.746	-9.123
580.0	-854.9	-689.3	-543.9	-399.1	-318.8	-271.7	-221.1	-184.3	-152.6	-75.24	-92.53	-89.04	-62.57	33.43	919.1	435.8	-35.96	-30.57	-26.66	-21.80	-17.96	-17.53	-15.58	-13.18	-12.31	-10.03	-9.333	-9.573	-8.569	-7.599	-7.067	-6.940	-5.584	-6.611	-5.723	-6.213	-4.985	-6.046	-6.030	-5.501	-6.407	-6.349	-6.493	-6.509	-6.291	-6.339	-5.600	-5.915	-5.541	-4.470	-4.811	-5.624	-4.748	-4.766	-5.719	-6.456	-7.102	-7.341	-7.181	-7.197	-7.388	-7.230	-7.503	-7.615	-7.618	-7.644	-7.446	-5.497	2.748	19.98	73.94	440.1	632.0	69.56	-7.466	-8.789	-9.110
585.0	-848.7	-686.8	-538.5	-399.2	-321.3	-257.4	-217.2	-184.0	-160.6	-81.98	-68.41	-85.03	-71.05	-37.92	443.9	847.5	-4.268	-32.45	-27.11	-25.07	-19.75	-18.82	-16.67	-14.77	-14.20	-12.00	-11.90	-9.818	-10.04	-9.257	-8.096	-7.567	-7.586	-7.137	-6.928	-6.344	-6.751	-6.869	-6.347	-5.994	-6.864	-6.884	-7.403	-6.752	-6.990	-6.814	-5.914	-6.474	-5.422	-4.735	-5.135	-6.063	-5.918	-5.238	-5.509	-6.434	-7.205	-7.255	-7.274	-7.339	-7.343	-7.318	-7.484	-7.515	-7.526	-7.552	-7.790	-7.527	-5.712	-1.628	10.69	111.7	487.3	521.0	46.52	-8.395	-9.032
590.0	-889.9	-721.6	-535.9	-415.4	-327.2	-266.5	-222.1	-192.0	-164.6	-116.7	-58.92	-82.84	-68.03	-55.15	76.12	730.6	311.3	-31.58	-28.81	-25.03	-22.03	-19.97	-17.96	-15.83	-15.12	-13.39	-12.97	-11.81	-10.98	-11.13	-9.736	-8.605	-9.110	-8.377	-8.052	-7.407	-7.202	-7.777	-7.210	-7.207	-7.559	-7.655	-7.622	-7.571	-7.363	-7.221	-6.353	-6.577	-5.710	-5.021	-5.133	-6.562	-6.355	-6.214	-5.670	-6.165	-7.175	-7.250	-7.280	-7.330	-7.526	-7.713	-7.638	-7.472	-7.530	-7.903	-7.925	-7.837	-7.646	-6.726	-3.950	18.77	123.3	358.6	414.8	134.0	-3.439
595.0	-886.6	-745.6	-528.6	-424.5	-324.3	-272.9	-216.8	-193.5	-160.6	-138.9	-77.49	-60.11	-73.04	-58.35	-23.50	228.8	734.1	44.51	-30.48	-25.37	-23.08	-21.55	-18.50	-17.31	-15.83	-15.06	-14.08	-12.49	-12.41	-12.51	-11.58	-10.18	-10.39	-9.686	-8.804	-8.378	-8.366	-8.257	-7.959	-7.829	-8.182	-8.221	-7.758	-7.794	-7.718	-7.691	-6.836	-6.735	-6.295	-5.399	-5.338	-6.903	-6.672	-6.708	-6.224	-6.350	-6.864	-7.306	-7.565	-7.649	-7.595	-7.819	-7.877	-7.806	-7.961	-8.078	-8.230	-7.896	-8.135	-7.835	-7.269	-2.045	21.02	74.99	208.8	458.3	80.57
600.0	-903.1	-709.6	-524.0	-416.8	-320.5	-269.7	-222.4	-200.9	-167.4	-139.6	-97.47	-43.82	-69.76	-60.32	-48.29	25.43	619.8	284.2	-29.40	-26.94	-23.51	-20.77	-19.84	-18.66	-16.66	-15.44	-14.54	-13.89	-13.01	-12.86	-12.11	-11.23	-10.76	-10.57	-9.378	-8.294	-8.407	-8.927	-8.479	-8.333	-8.262	-8.658	-8.396	-8.287	-7.442	-7.984	-6.841	-6.749	-6.358	-5.497	-5.683	-7.072	-6.851	-7.252	-6.562	-6.651	-6.482	-7.273	-7.436	-7.694	-7.733	-7.665	-7.824	-7.891	-7.789	-7.744	-7.981	-7.944	-8.294	-8.052	-8.215	-6.765	-1.642	10.41	45.75	276.8	392.0
605.0	-950.7	-680.6	-563.3	-409.6	-334.9	-269.0	-231.1	-199.8	-166.5	-145.7	-106.9	-48.26	-61.56	-57.48	-52.12	-29.72	286.9	574.9	-6.713	-26.85	-23.93	-22.50	-20.81	-19.01	-17.41	-15.97	-15.58	-15.50	-14.08	-12.77	-12.66	-11.99	-11.39	-10.75	-10.13	-9.156	-9.247	-8.733	-9.327	-9.407	-8.586	-8.800	-8.573	-8.316	-7.913	-8.072	-6.956	-6.988	-6.254	-5.817	-5.603	-6.842	-6.980	-7.042	-6.893	-6.868	-6.879	-6.830	-7.215	-7.635	-7.685	-7.711	-7.747	-7.666	-7.931	-7.660	-7.896	-8.008	-8.324	-7.947	-8.208	-7.839	-6.836	-3.993	3.505	69.66	304.4
610.0	-920.6	-696.5	-548.3	-418.1	-334.1	-273.2	-229.7	-198.7	-168.0	-141.9	-117.8	-69.99	-43.69	-59.87	-51.70	-41.10	46.79	509.1	225.8	-26.66	-25.08	-23.34	-21.01	-19.54	-18.57	-17.13	-16.00	-15.44	-14.95	-13.52	-13.94	-12.74	-11.68	-11.56	-10.58	-9.679	-9.494	-9.751	-9.396	-9.177	-8.751	-9.268	-8.888	-8.507	-8.271	-8.036	-7.093	-7.258	-6.605	-5.840	-5.772	-7.094	-6.952	-7.361	-7.205	-7.387	-7.166	-7.122	-7.320	-7.530	-7.846	-7.886	-7.894	-7.969	-7.892	-7.897	-7.611	-7.898	-8.224	-8.260	-8.391	-8.235	-8.051	-7.419	-5.949	8.775	75.64
615.0	-934.0	-736.9	-526.9	-421.6	-331.8	-276.6	-236.2	-198.7	-168.6	-150.0	-115.8	-87.80	-45.32	-48.91	-51.48	-46.31	-20.23	160.7	538.4	27.41	-25.06	-23.52	-22.50	-20.30	-18.71	-17.27	-16.27	-16.51	-15.85	-14.56	-14.57	-13.46	-12.21	-11.83	-11.06	-10.47	-9.730	-9.870	-9.724	-9.258	-9.157	-9.406	-9.002	-8.999	-8.445	-8.344	-7.319	-7.501	-6.869	-5.880	-5.847	-7.310	-6.891	-7.422	-7.045	-7.519	-7.513	-7.324	-7.093	-7.294	-7.780	-7.900	-7.884	-7.947	-8.140	-8.041	-8.050	-7.697	-8.167	-8.116	-8.240	-8.391	-8.345	-8.209	-8.100	-4.927	9.922
620.0	-874.5	-700.3	-528.4	-420.5	-326.3	-264.1	-234.0	-197.8	-173.0	-150.1	-113.9	-90.32	-50.23	-37.96	-49.62	-45.76	-36.20	14.29	482.0	219.6	-24.66	-23.31	-22.42	-20.11	-18.95	-17.80	-16.75	-17.00	-15.75	-14.69	-14.66	-13.45	-12.96	-12.39	-10.86	-10.54	-9.951	-9.811	-9.643	-9.442	-9.349	-9.173	-9.154	-9.238	-8.361	-8.285	-7.261	-7.463	-6.961	-5.926	-5.866	-7.520	-6.982	-7.432	-7.291	-7.567	-7.840	-7.519	-7.219	-7.045	-7.850	-7.831	-7.931	-8.023	-8.216	-8.180	-8.180	-8.010	-8.226	-8.407	-8.297	-8.267	-8.377	-8.512	-8.455	-7.887	-4.693
625.0	-946.5	-715.2	-525.4	-433.5	-336.7	-280.1	-236.7	-204.3	-166.7	-142.6	-117.2	-92.95	-64.29	-31.77	-47.60	-45.35	-37.36	-20.84	238.2	459.0	-10.97	-23.88	-22.29	-20.68	-18.72	-17.64	-17.95	-16.30	-16.22	-15.59	-14.60	-13.85	-12.95	-12.75	-11.31	-10.57	-10.08	-10.22	-9.777	-9.520	-9.638	-9.397	-9.642	-9.346	-8.696	-8.497	-7.432	-7.639	-7.023	-6.137	-5.954	-7.152	-7.195	-7.437	-7.093	-7.515	-7.761	-7.769	-7.496	-6.893	-7.650	-7.896	-8.038	-8.062	-8.098	-8.134	-8.249	-8.127	-8.292	-8.232	-8.400	-8.301	-8.275	-8.529	-8.493	-8.756	-8.179
630.0	-898.3	-723.8	-557.4	-423.9	-333.2	-277.5	-231.1	-203.5	-169.2	-146.8	-121.7	-96.77	-69.83	-35.56	-42.96	-45.24	-38.71	-32.05	39.51	419.7	174.7	-23.05	-22.20	-20.59	-19.64	-18.18	-17.53	-16.37	-16.47	-15.85	-14.90	-14.26	-13.23	-12.37	-11.63	-10.74	-10.41	-10.54	-10.15	-9.814	-9.704	-9.499	-9.584	-9.102	-8.665	-8.498	-7.593	-7.693	-6.918	-6.091	-6.076	-7.410	-7.197	-7.538	-7.282	-7.535	-7.861	-7.868	-7.845	-7.389	-7.364	-7.772	-7.942	-8.057	-8.060	-8.103	-8.096	-8.331	-8.318	-8.264	-8.349	-8.295	-8.485	-8.462	-8.621	-8.960	-8.787
635.0	-900.5	-737.4	-572.7	-394.2	-335.4	-278.9	-231.0	-200.5	-174.3	-146.5	-126.9	-96.53	-74.23	-48.27	-26.82	-43.72	-39.02	-32.17	-16.61	137.0	443.6	19.72	-22.55	-21.15	-19.14	-18.48	-17.43	-16.62	-16.99	-15.90	-14.88	-14.45	-13.40	-12.64	-11.80	-10.82	-10.43	-10.66	-10.27	-10.16	-9.609	-9.731	-9.316	-9.356	-8.907	-8.518	-7.784	-7.693	-6.987	-5.968	-6.226	-7.353	-7.046	-7.602	-7.267	-7.621	-7.849	-7.884	-7.847	-7.919	-7.400	-7.895	-7.978	-8.020	-8.203	-8.019	-8.287	-8.260	-8.342	-8.133	-8.308	-8.245	-8.541	-8.349	-8.605	-8.734	-8.895
640.0	-915.7	-709.0	-542.0	-411.4	-336.0	-273.1	-233.0	-209.0	-171.2	-150.2	-124.0	-96.40	-72.80	-51.40	-23.10	-38.02	-37.55	-33.21	-28.16	13.23	403.5	164.1	-22.83	-21.61	-20.18	-19.11	-18.04	-16.87	-16.79	-16.58	-15.48	-14.82	-13.72	-12.81	-12.25	-11.21	-10.80	-10.96	-10.25	-10.28	-9.581	-9.575	-9.481	-9.352	-8.857	-8.767	-7.753	-7.614	-7.190	-6.146	-6.159	-7.370	-7.219	-7.653	-7.482	-7.526	-7.882	-7.599	-7.678	-8.023	-7.643	-7.896	-7.798	-7.942	-8.043	-8.040	-8.272	-8.089	-8.297	-8.135	-8.471	-8.160	-8.328	-8.317	-8.533	-8.914	-8.933
645.0	-906.3	-716.1	-561.7	-412.1	-319.6	-273.4	-231.9	-203.2	-176.9	-150.6	-124.6	-101.5	-77.95	-59.53	-31.57	-30.54	-37.91	-33.71	-29.97	-19.61	204.8	363.9	-12.28	-21.23	-20.29	-18.93	-18.18	-17.56	-16.87	-16.40	-15.93	-14.55	-14.18	-13.04	-12.07	-11.10	-10.97	-11.06	-10.56	-10.18	-9.639	-9.714	-9.692	-9.232	-8.852	-8.974	-7.793	-7.889	-7.062	-6.139	-6.116	-7.467	-7.379	-7.671	-7.368	-7.686	-7.849	-7.874	-7.943	-7.938	-7.854	-7.696	-7.831	-7.873	-7.896	-8.130	-8.361	-8.176	-8.236	-8.159	-8.371	-8.302	-8.287	-8.447	-8.446	-8.823	-8.855
650.0	-885.3	-692.6	-554.8	-417.3	-324.8	-271.7	-230.3	-201.3	-173.8	-153.0	-121.9	-98.66	-80.93	-64.32	-37.61	-24.83	-37.02	-33.98	-30.20	-26.02	48.73	420.2	60.29	-21.37	-20.65	-18.93	-17.62	-17.61	-17.16	-17.21	-15.63	-14.58	-13.97	-13.34	-12.47	-11.17	-10.72	-11.01	-10.57	-10.06	-9.660	-9.827	-9.775	-9.398	-9.020	-8.933	-7.634	-8.063	-7.100	-6.250	-6.290	-7.605	-7.375	-7.811	-7.371	-7.698	-7.887	-7.994	-8.102	-7.801	-7.909	-7.914	-7.884	-7.882	-7.938	-8.195	-8.108	-8.228	-8.238	-8.410	-8.397	-8.344	-8.398	-8.474	-8.460	-8.806	-8.988
