Sample:	'1
File name:	H2025082706养鸡场上游1号坑塘.FD3
Run date:	'10:13:09, 08/28/2025
Operator:	Administrator
Comment:	'

Instrument
Model:	F-2700 FL Spectrophotometer
Serial number:	23C7-003
ROM Version:	4J14000 07

Instrument parameters
Measurement type:	3-D scan
Data mode:	Fluorescence
EX  Start WL:	220.0 nm
EX  End WL:	600.0 nm
EX Sampling interval:	5.0 nm
EM  Start WL:	230.0 nm
EM  End WL:	650.0 nm
EM Sampling interval:	5.0 nm
Scan speed:	12000 nm/min
EX Slit:	5.0 nm
EM Slit:	5.0 nm
PMT Voltage:	700 V
Response:	Auto 
Corrected spectra:	Off
Contour interval:	50.000

Peak integration
Integration method:	Rectangular
Sensitivity:	1
Threshold:	1.000

Peaks
No.	ApexEX/EM(nm)	Height(Data)
1	225.0/625.0	26.82
2	250.0/415.0	1605
3	260.0/420.0	1594
4	260.0/435.0	1592
5	265.0/430.0	1597
6	270.0/300.0	525.9
7	275.0/305.0	675.9
8	275.0/610.0	66.31
9	280.0/310.0	700.0
10	280.0/620.0	57.40
11	285.0/320.0	724.4
12	285.0/635.0	43.33
13	325.0/410.0	1621

Data points
	220.0	225.0	230.0	235.0	240.0	245.0	250.0	255.0	260.0	265.0	270.0	275.0	280.0	285.0	290.0	295.0	300.0	305.0	310.0	315.0	320.0	325.0	330.0	335.0	340.0	345.0	350.0	355.0	360.0	365.0	370.0	375.0	380.0	385.0	390.0	395.0	400.0	405.0	410.0	415.0	420.0	425.0	430.0	435.0	440.0	445.0	450.0	455.0	460.0	465.0	470.0	475.0	480.0	485.0	490.0	495.0	500.0	505.0	510.0	515.0	520.0	525.0	530.0	535.0	540.0	545.0	550.0	555.0	560.0	565.0	570.0	575.0	580.0	585.0	590.0	595.0	600.0
230.0	20.53	353.7	1473	616.2	40.23	7.094	5.485	5.507	4.746	4.915	4.734	4.991	4.520	4.095	3.778	3.745	3.537	3.354	3.316	3.144	3.071	2.761	2.754	2.560	2.360	2.288	1.981	1.918	1.878	2.034	1.763	1.744	1.510	1.437	1.304	1.043	1.002	0.877	0.833	0.793	0.693	0.701	0.663	0.653	0.569	0.595	0.747	2.520	5.436	5.128	2.612	0.814	0.452	0.384	0.406	0.367	0.367	0.372	0.355	0.351	0.311	0.319	0.308	0.320	0.317	0.304	0.277	0.315	0.280	0.296	0.326	0.314	0.302	0.275	0.270	0.308	0.325
235.0	23.28	97.71	763.7	1975	1194	84.73	7.500	6.555	4.650	5.116	5.266	4.544	4.295	4.297	3.945	4.158	3.559	3.570	3.179	3.033	3.199	2.875	2.611	2.492	2.706	2.525	2.077	2.122	1.803	1.754	1.800	1.689	1.555	1.477	1.195	1.108	1.065	1.025	0.928	0.829	0.667	0.677	0.696	0.644	0.565	0.587	0.621	0.979	2.025	4.063	6.706	9.091	5.821	1.552	0.471	0.361	0.460	0.387	0.324	0.362	0.317	0.334	0.323	0.300	0.236	0.305	0.259	0.274	0.267	0.219	0.300	0.342	0.352	0.280	0.278	0.259	0.324
240.0	28.66	44.00	201.9	1365	2933	407.2	44.15	7.757	6.087	6.605	4.998	5.250	4.888	4.565	4.445	4.142	3.475	3.416	3.263	3.361	3.086	3.048	2.895	2.701	2.283	2.500	2.110	2.112	2.015	1.800	1.893	1.752	1.664	1.524	1.251	1.129	1.025	0.900	0.903	0.757	0.705	0.677	0.676	0.622	0.555	0.586	0.598	0.642	0.824	1.414	3.414	9.686	14.47	12.20	5.419	1.051	0.446	0.377	0.378	0.317	0.319	0.352	0.329	0.285	0.309	0.307	0.273	0.372	0.267	0.271	0.321	0.276	0.332	0.258	0.314	0.298	0.298
245.0	24.45	47.89	69.98	402.0	2366	3119	331.2	21.85	8.165	6.839	6.242	5.852	4.981	5.024	4.606	4.111	4.022	3.982	3.431	3.472	3.177	3.064	3.008	2.753	2.552	2.479	2.278	2.140	1.918	1.863	1.781	1.669	1.673	1.554	1.234	1.173	1.109	1.016	0.915	0.839	0.657	0.681	0.709	0.659	0.635	0.604	0.625	0.556	0.546	0.672	1.123	3.329	9.193	17.04	20.71	12.35	3.594	0.520	0.389	0.377	0.355	0.316	0.300	0.313	0.302	0.313	0.292	0.299	0.336	0.324	0.370	0.313	0.264	0.251	0.276	0.284	0.284
250.0	23.60	35.22	62.71	126.2	665.4	2524	3724	1238	101.0	10.01	7.748	7.594	6.167	5.543	4.693	4.633	4.070	4.133	3.588	3.431	3.374	3.292	3.042	2.960	2.758	2.626	2.495	2.335	2.156	1.936	1.756	1.637	1.521	1.422	1.253	1.207	1.185	0.971	0.962	0.850	0.715	0.760	0.645	0.698	0.664	0.597	0.605	0.624	0.604	0.660	0.610	1.138	2.508	5.558	11.40	17.46	23.03	21.59	11.20	4.119	0.653	0.386	0.371	0.341	0.325	0.331	0.325	0.309	0.309	0.345	0.297	0.327	0.299	0.350	0.320	0.333	0.287
255.0	22.10	24.03	40.92	98.27	183.1	597.0	2336	6786	1892	128.5	11.66	9.337	7.400	6.267	5.394	5.080	4.574	4.496	3.908	3.770	3.613	3.400	3.008	3.236	2.831	2.684	2.815	2.440	2.304	1.921	2.028	1.926	1.488	1.637	1.277	1.179	1.148	0.985	0.912	0.835	0.841	0.819	0.747	0.616	0.673	0.592	0.579	0.550	0.563	0.561	0.694	0.812	0.998	1.565	2.911	4.405	8.612	22.11	38.77	26.66	17.78	4.707	0.526	0.432	0.390	0.423	0.351	0.332	0.282	0.408	0.315	0.334	0.300	0.376	0.314	0.329	0.289
260.0	23.55	20.78	23.26	66.48	116.2	163.4	604.6	4391	8816	1577	82.81	13.00	10.20	8.060	6.407	5.140	5.113	4.708	4.273	4.210	3.687	3.501	3.467	3.228	2.835	2.913	2.531	2.359	2.423	2.238	2.233	2.080	1.700	1.496	1.352	1.274	1.121	0.971	1.009	0.830	0.822	0.744	0.734	0.647	0.677	0.693	0.596	0.512	0.566	0.551	0.548	0.723	0.970	0.892	1.061	1.372	2.274	5.961	17.71	37.27	55.45	26.33	13.74	2.095	0.424	0.393	0.332	0.357	0.348	0.390	0.377	0.342	0.347	0.333	0.394	0.381	0.285
265.0	25.22	19.93	17.05	33.06	99.13	107.8	158.4	1230	7095	9999.9	1258	41.85	12.67	9.372	7.328	6.033	5.461	5.081	4.903	4.683	3.849	3.706	3.655	3.382	2.952	2.912	2.695	2.646	2.565	2.202	2.205	1.942	1.776	1.584	1.239	1.194	1.146	1.047	1.094	0.815	0.883	0.793	0.703	0.714	0.774	0.733	0.655	0.556	0.565	0.520	0.449	0.511	0.880	0.977	0.889	0.761	0.852	1.714	4.446	11.54	32.56	58.55	67.39	23.56	8.324	0.772	0.387	0.426	0.375	0.383	0.322	0.396	0.343	0.372	0.374	0.371	0.282
270.0	28.13	21.26	18.28	20.07	44.33	111.6	118.7	304.4	1953	7678	9999.9	4169	74.87	14.47	10.47	7.730	6.898	5.635	5.082	4.741	4.326	4.133	3.683	3.409	3.044	3.017	2.942	2.779	2.591	2.276	2.364	1.984	1.968	1.775	1.415	1.248	1.146	1.067	0.939	0.873	0.913	0.830	0.801	0.828	0.700	0.691	0.624	0.599	0.572	0.471	0.456	0.447	0.549	0.694	0.880	0.982	0.849	0.914	1.364	2.950	7.929	18.05	36.82	55.52	70.38	55.98	14.62	6.754	0.883	0.494	0.397	0.429	0.404	0.407	0.363	0.384	0.358
275.0	32.76	30.00	23.14	19.67	22.47	49.80	140.4	163.0	464.3	1802	6504	9999.9	6196	91.08	16.66	10.78	8.222	7.112	5.646	4.784	4.852	4.750	4.007	3.585	3.404	3.264	3.256	2.786	2.716	2.614	2.309	2.044	2.019	1.708	1.446	1.320	1.191	1.153	1.027	0.931	0.868	0.979	0.846	0.854	0.804	0.753	0.685	0.586	0.516	0.529	0.525	0.490	0.473	0.525	0.600	0.678	1.009	1.372	1.109	1.129	2.212	4.422	8.704	13.32	24.49	58.61	104.6	101.1	22.48	6.951	0.693	0.476	0.451	0.443	0.402	0.361	0.552
280.0	40.17	35.65	31.43	22.76	19.75	29.18	84.38	188.7	176.5	437.7	1704	9999.9	9999.9	3947	59.15	14.67	10.75	8.530	7.238	6.194	5.401	4.925	4.250	4.128	3.625	3.687	3.268	3.035	3.077	2.841	2.434	2.159	2.083	1.758	1.560	1.548	1.235	1.129	1.033	0.991	0.929	0.933	0.865	0.871	0.847	0.829	0.697	0.659	0.554	0.545	0.589	0.563	0.533	0.542	0.486	0.545	0.665	1.034	1.303	1.213	1.100	1.403	2.366	3.464	6.098	15.56	44.92	104.9	135.3	92.56	16.71	2.424	0.638	0.465	0.444	0.513	0.462
285.0	53.75	44.18	45.21	32.14	25.83	25.47	45.90	151.2	199.7	162.1	442.0	2966	9999.9	9999.9	740.1	34.87	14.33	10.18	8.570	6.716	5.994	4.922	4.627	4.278	3.831	3.892	3.490	3.384	2.760	2.865	2.595	2.434	2.251	1.967	1.795	1.587	1.495	1.280	1.098	0.973	0.921	0.878	0.895	0.924	0.919	0.806	0.722	0.806	0.660	0.550	0.617	0.572	0.540	0.593	0.548	0.544	0.568	0.712	0.928	1.462	1.540	1.104	1.068	1.313	1.936	4.088	11.00	30.15	75.81	147.4	147.7	26.39	10.45	1.119	0.579	0.501	0.488
290.0	72.92	75.39	78.76	56.78	43.34	41.18	47.97	88.98	196.4	252.5	235.0	798.7	3214	9999.9	9999.9	2827	49.78	17.00	11.77	9.183	7.060	5.900	5.518	4.930	4.394	4.137	3.661	3.420	3.186	2.960	2.708	2.538	2.561	2.013	1.905	1.681	1.562	1.337	1.206	1.142	1.037	1.024	0.949	0.913	0.981	0.920	0.893	0.930	0.812	0.650	0.659	0.650	0.687	0.635	0.624	0.587	0.633	0.706	0.714	0.965	1.267	1.611	1.775	1.402	1.397	1.770	3.340	7.774	18.54	42.87	80.57	111.5	142.2	107.8	16.71	8.532	1.243
295.0	99.90	117.8	129.4	95.37	69.02	63.56	67.77	93.57	150.0	309.9	406.2	427.5	941.2	2498	9999.9	9999.9	4035	60.36	18.50	12.88	9.584	7.117	6.324	5.568	4.937	4.869	4.020	3.875	3.458	3.303	3.016	2.598	2.460	2.004	1.828	1.835	1.712	1.625	1.293	1.194	1.124	1.000	1.054	1.011	0.995	1.019	0.988	1.086	0.922	0.820	0.765	0.777	0.831	0.714	0.731	0.726	0.868	0.714	0.864	0.971	0.923	1.281	1.742	2.471	2.376	1.975	2.139	3.033	5.566	10.87	19.16	26.66	45.67	108.2	197.0	195.3	26.41
300.0	115.7	149.9	165.8	123.0	88.39	81.41	93.61	118.2	161.4	269.7	525.9	491.7	501.9	770.2	2669	9999.9	9999.9	2902	45.91	17.52	12.22	9.431	7.406	6.780	5.425	5.399	4.579	4.216	3.566	3.620	3.187	2.881	2.509	2.236	1.768	1.952	1.721	1.591	1.403	1.267	1.188	1.209	0.982	1.027	1.121	1.042	1.066	1.245	1.219	1.008	0.857	0.880	0.843	0.920	0.755	0.849	0.979	0.970	0.841	1.131	1.087	1.361	1.511	2.210	2.846	3.227	2.668	2.387	2.978	4.132	5.875	7.210	11.47	27.32	76.11	191.1	241.8
305.0	130.1	176.0	195.6	148.8	108.6	95.88	110.6	139.9	192.0	278.6	485.9	675.9	503.9	435.4	757.9	3203	9999.9	9999.9	477.4	34.46	16.74	12.05	8.672	7.551	6.617	5.725	4.859	4.479	3.988	3.756	3.319	2.820	2.788	2.516	2.029	1.972	1.641	1.819	1.660	1.467	1.293	1.081	1.017	1.209	1.115	1.154	1.257	1.246	1.238	1.089	0.949	1.006	0.902	0.948	0.914	1.049	1.024	1.033	0.962	1.365	1.164	1.284	1.510	1.832	2.330	3.311	3.661	3.494	2.928	2.886	3.180	3.180	3.875	7.421	18.38	51.15	126.9
310.0	149.2	196.8	220.9	173.0	132.0	118.6	136.6	170.7	227.7	319.1	462.2	656.2	700.0	471.9	382.2	843.6	3389	9999.9	9999.9	2014	40.55	18.35	12.71	9.843	7.896	6.570	5.636	4.920	4.652	4.266	3.721	3.100	2.965	2.620	2.292	2.021	1.832	1.842	1.577	1.486	1.491	1.322	1.187	1.263	1.231	1.223	1.279	1.340	1.310	1.188	1.132	1.110	1.047	0.962	1.036	1.093	1.122	1.179	1.232	1.260	1.418	1.642	1.814	2.149	2.432	2.757	3.342	3.793	4.147	3.844	3.059	2.610	2.539	3.099	5.257	12.48	29.92
315.0	151.9	227.9	246.0	200.1	156.9	143.2	163.7	204.5	268.5	361.9	489.2	614.2	699.1	677.4	390.1	356.2	861.2	2411	9999.9	9999.9	3090	48.03	18.77	14.16	10.41	7.913	6.659	5.775	4.677	4.700	4.114	3.627	3.226	2.621	2.486	2.264	2.122	1.791	1.608	1.663	1.475	1.399	1.133	1.314	1.284	1.287	1.346	1.396	1.389	1.270	1.206	1.178	1.177	1.091	1.201	1.197	1.244	1.304	1.423	1.472	1.694	1.883	2.053	2.298	2.470	2.814	3.364	3.572	3.739	4.263	4.423	3.672	2.947	2.578	2.513	4.115	7.844
320.0	171.5	245.8	267.2	222.9	172.3	169.0	189.0	233.1	306.5	404.4	521.4	631.1	675.7	724.4	529.0	296.4	323.7	628.0	2623	9999.9	9999.9	2374	40.36	18.68	13.18	9.504	7.768	6.549	5.343	4.888	4.442	3.790	3.375	2.969	2.578	2.419	2.338	1.997	1.762	1.641	1.573	1.529	1.446	1.358	1.346	1.451	1.359	1.381	1.626	1.375	1.301	1.260	1.350	1.256	1.224	1.208	1.472	1.452	1.526	1.574	1.849	2.007	2.155	2.558	2.652	2.954	3.481	3.481	3.575	4.038	4.290	4.232	4.120	3.057	2.354	2.541	3.214
325.0	183.3	270.3	308.3	266.5	212.6	200.2	226.0	270.9	347.7	443.2	568.8	668.0	702.1	680.3	655.9	384.1	244.7	257.5	671.8	3170	9999.9	9999.9	382.7	32.61	17.49	12.24	9.054	7.362	6.310	5.580	4.822	4.332	3.776	3.226	3.006	2.578	2.150	2.275	1.912	1.792	1.615	1.584	1.543	1.529	1.380	1.497	1.502	1.550	1.744	1.453	1.465	1.349	1.563	1.328	1.479	1.398	1.562	1.475	1.850	1.985	2.052	2.137	2.369	2.855	2.987	3.391	3.434	3.431	3.892	3.907	4.094	3.836	4.654	4.242	2.920	2.540	2.365
330.0	207.9	313.8	381.6	355.5	294.4	291.2	314.1	353.2	416.8	523.5	636.2	730.0	767.5	715.7	648.4	553.7	357.7	233.7	275.4	806.3	3342	9999.9	9999.9	7630	36.99	18.82	13.03	9.665	7.746	6.489	5.488	4.830	3.923	3.515	3.155	2.660	2.407	2.190	1.959	1.848	1.662	1.482	1.476	1.561	1.599	1.592	1.672	1.767	1.870	1.766	1.635	1.743	1.784	1.819	1.823	1.800	1.903	1.972	1.995	2.354	2.438	2.582	2.785	3.068	3.362	3.419	3.901	3.826	4.166	4.279	4.249	4.076	4.171	4.284	4.089	3.651	3.242
335.0	235.1	361.5	459.1	449.8	414.6	419.9	443.3	459.8	509.3	612.1	706.6	798.7	839.2	784.2	690.2	576.1	537.9	348.6	251.3	324.7	855.6	2416	9999.9	9999.9	2802	44.01	20.40	13.85	10.39	8.145	6.580	5.782	4.526	4.101	3.433	2.941	2.643	2.361	1.979	1.989	1.681	1.568	1.636	1.564	1.625	1.712	1.846	2.143	2.136	2.132	1.956	2.168	2.137	2.409	2.467	2.314	2.299	2.458	2.586	2.756	2.775	3.041	3.362	3.269	3.606	3.787	4.135	4.000	4.608	4.753	4.567	4.491	4.584	4.380	4.140	3.800	4.445
340.0	255.0	396.0	525.4	541.2	515.2	530.7	550.0	557.2	597.7	676.0	770.6	848.4	892.2	848.6	741.8	612.6	571.5	507.7	319.2	267.9	346.5	662.3	2620	9999.9	9999.9	2423	38.79	18.68	13.25	9.990	7.377	6.094	4.773	4.561	3.577	2.933	2.621	2.504	2.271	1.873	1.819	1.550	1.851	1.666	1.656	1.917	2.083	2.309	2.505	2.360	2.352	2.593	2.759	2.620	2.722	2.818	2.843	2.860	3.024	3.274	3.285	3.524	3.473	3.726	3.889	4.038	4.220	4.324	4.662	4.899	4.845	5.036	5.084	4.624	4.383	4.001	4.360
345.0	265.2	432.6	592.2	628.5	631.3	657.6	660.8	657.6	670.3	739.1	816.6	881.9	923.0	891.6	806.4	676.2	585.9	589.0	461.1	317.7	286.3	316.7	717.4	3138	9999.9	9999.9	346.1	33.12	17.63	12.39	9.065	7.134	5.363	4.615	3.937	3.099	2.783	2.604	2.336	2.254	1.941	1.788	1.753	1.828	1.826	1.918	2.152	2.393	2.762	2.539	2.576	2.841	3.049	3.063	3.335	3.191	3.514	3.404	3.488	3.662	3.757	3.749	3.872	3.973	4.087	4.257	4.339	4.633	4.846	5.256	5.011	5.389	5.157	5.144	4.381	4.328	4.511
350.0	291.2	484.9	648.5	718.2	759.9	796.7	812.2	776.5	773.9	811.6	867.3	925.0	967.3	951.8	878.1	765.9	672.6	627.2	610.6	502.6	388.4	336.6	372.2	867.7	3262	9999.9	9999.9	8041	131.0	19.65	12.60	9.351	6.984	5.631	4.386	3.625	3.094	2.730	2.467	2.361	2.044	1.916	1.822	1.860	1.991	2.006	2.202	2.680	3.038	2.814	2.888	3.278	3.578	3.625	3.895	4.003	4.033	3.942	3.878	3.955	4.053	4.127	4.316	4.222	4.295	4.325	4.519	4.890	5.074	5.235	5.371	5.588	5.504	5.261	5.089	4.840	5.417
355.0	319.2	525.7	716.7	822.7	894.7	947.0	953.3	901.6	880.7	902.5	921.3	972.6	1017	1006	951.8	865.2	790.5	736.7	693.3	694.8	592.7	461.1	406.5	451.2	921.8	2437	9318	9999.9	9999.9	43.41	20.39	12.99	9.569	6.857	5.266	4.119	3.694	3.095	2.770	2.372	2.362	2.120	1.897	1.907	2.110	2.135	2.241	2.873	3.213	3.226	3.287	3.781	4.150	4.111	4.195	4.520	4.729	4.658	4.319	4.194	4.467	4.559	4.482	4.493	4.698	4.549	4.920	4.997	5.245	5.718	5.778	5.909	5.886	5.879	5.693	5.717	6.009
360.0	327.4	541.7	751.8	886.8	974.4	1052	1045	992.2	959.5	965.7	977.4	1026	1061	1058	1021	943.4	889.2	841.3	789.6	776.9	770.1	622.3	508.1	439.4	469.1	734.6	2405	9999.9	9999.9	2456	38.97	17.91	11.96	8.555	6.020	4.767	4.012	3.532	3.046	2.680	2.361	2.142	2.218	1.980	2.290	2.281	2.498	3.004	3.265	3.542	3.324	4.020	4.386	4.601	4.747	4.792	5.084	5.090	5.011	4.557	4.643	4.802	4.793	4.828	4.729	4.843	5.138	5.237	5.300	5.670	5.875	6.076	6.147	6.417	6.009	6.028	6.231
365.0	355.1	570.6	801.4	956.2	1064	1124	1144	1079	1039	1030	1045	1073	1107	1108	1073	1019	974.8	945.7	900.1	870.2	870.5	804.0	643.7	532.1	443.3	419.4	721.0	2896	9999.9	9999.9	2013	33.03	16.78	10.73	7.230	5.363	4.330	3.705	3.376	2.959	2.494	2.252	2.243	2.090	2.282	2.250	2.625	3.063	3.477	3.493	3.758	4.460	4.697	4.846	5.095	5.257	5.474	5.338	5.332	5.195	4.952	5.053	5.269	4.866	5.157	5.146	5.274	5.699	5.536	5.614	6.089	6.374	6.486	6.435	6.414	6.449	6.656
370.0	366.5	611.6	846.8	1026	1151	1232	1239	1174	1125	1117	1107	1133	1167	1172	1152	1113	1088	1075	1054	1029	1000	978.5	885.3	713.2	577.3	463.6	437.6	843.1	3008	9999.9	9999.9	8324	133.2	16.94	10.52	7.300	5.392	4.246	3.877	3.294	2.704	2.532	2.420	2.351	2.427	2.482	2.799	3.270	3.681	3.618	3.825	4.728	5.245	5.369	5.551	5.526	5.782	5.645	5.703	5.527	5.490	5.445	5.588	5.429	5.406	5.411	5.578	5.753	5.761	5.940	6.251	6.518	6.822	6.948	7.085	7.280	7.329
375.0	398.4	643.5	907.5	1097	1234	1323	1332	1261	1218	1195	1197	1216	1236	1244	1233	1205	1202	1210	1207	1194	1166	1119	1073	955.6	758.8	603.5	483.1	474.3	874.2	2410	7617	9999.9	9999.9	38.48	17.45	10.26	7.440	5.431	4.323	3.647	3.188	2.747	2.559	2.590	2.514	2.866	2.911	3.429	3.728	3.734	4.185	4.716	5.698	5.706	5.810	5.932	6.318	6.119	6.084	6.149	5.890	5.589	5.922	5.636	5.733	5.670	5.855	6.257	6.259	6.410	6.653	6.916	6.948	7.232	7.613	7.948	8.083
380.0	403.3	663.9	936.4	1138	1303	1385	1402	1328	1275	1245	1250	1262	1291	1293	1286	1266	1278	1296	1305	1308	1274	1236	1169	1108	923.6	726.2	576.4	467.3	458.6	722.5	1938	9999.9	9999.9	2252	34.14	14.61	9.597	6.700	4.863	4.222	3.617	3.013	2.850	2.607	2.725	2.842	2.883	3.481	3.931	3.965	4.403	5.117	5.866	5.955	5.970	5.984	6.575	6.361	6.511	6.098	6.081	6.139	6.283	5.985	5.983	5.803	6.079	6.253	6.459	6.543	7.153	7.103	7.149	7.685	7.732	8.326	8.970
385.0	401.5	701.8	958.1	1175	1322	1416	1441	1378	1333	1316	1303	1313	1324	1334	1332	1315	1342	1368	1382	1390	1366	1332	1265	1196	1075	857.9	678.3	539.8	423.6	400.1	600.6	2671	9999.9	9999.9	1867	28.23	12.92	8.673	5.744	4.737	3.777	3.094	3.089	2.676	2.807	2.943	3.039	3.388	4.254	4.063	4.437	5.152	5.928	6.048	6.271	6.169	6.742	6.342	6.448	6.153	6.490	6.380	6.310	6.041	6.334	6.302	6.056	6.293	6.746	6.484	7.167	7.579	7.471	7.598	7.923	8.513	9.314
390.0	411.3	707.7	988.3	1209	1377	1475	1484	1447	1395	1371	1369	1372	1383	1384	1385	1380	1405	1436	1469	1485	1471	1443	1390	1300	1197	1047	847.1	675.5	537.7	426.6	378.3	766.3	2696	9999.9	9999.9	7114	118.4	14.25	8.543	5.940	4.522	3.712	3.383	2.951	3.018	3.235	3.255	3.655	4.261	4.372	4.390	5.368	6.042	6.363	6.503	6.368	6.736	6.885	6.724	6.599	6.679	6.511	6.294	6.486	6.462	6.590	6.547	6.493	6.629	6.784	7.381	7.499	7.984	8.002	8.485	8.870	9.553
395.0	436.2	728.6	1033	1249	1420	1526	1532	1504	1455	1445	1434	1436	1436	1425	1432	1425	1455	1492	1531	1555	1554	1535	1496	1405	1301	1182	1035	838.0	680.7	544.1	423.6	413.3	770.8	2356	5086	9999.9	9999.9	33.74	14.43	8.719	5.987	4.779	3.791	3.405	3.314	3.472	3.544	3.899	4.418	4.681	4.596	5.794	6.283	6.481	6.525	6.701	6.947	7.131	7.176	6.761	6.821	7.061	6.933	6.884	6.778	7.083	6.821	6.923	6.958	7.004	7.633	7.880	8.594	8.398	8.794	9.162	9.782
400.0	449.0	734.3	1051	1266	1429	1542	1553	1546	1499	1492	1480	1481	1478	1462	1457	1450	1482	1516	1558	1590	1595	1589	1552	1475	1369	1246	1134	973.3	794.2	640.3	498.4	387.5	385.4	671.8	1278	6786	9999.9	1957	30.42	12.21	7.682	5.929	4.425	3.735	3.553	3.560	3.722	4.237	4.502	4.765	4.843	5.684	6.455	6.357	6.941	6.578	7.027	7.183	7.172	7.118	7.288	7.123	7.043	7.072	6.735	6.812	6.905	6.962	6.864	7.469	7.615	8.147	8.615	8.367	8.958	9.227	10.18
405.0	454.9	744.3	1070	1297	1437	1551	1589	1562	1539	1513	1511	1503	1498	1477	1477	1465	1493	1526	1567	1598	1615	1617	1590	1525	1426	1305	1186	1076	906.6	736.5	582.5	442.6	347.5	332.9	411.5	1722	8967	9999.9	1715	25.83	10.81	6.917	5.241	4.161	3.955	3.841	3.873	4.261	4.549	4.593	4.867	5.985	6.489	6.546	7.094	6.751	7.239	7.304	7.259	7.188	7.081	7.266	7.265	7.208	6.823	6.911	7.226	6.966	7.149	7.295	7.562	7.875	8.542	8.286	8.889	9.159	10.23
410.0	451.1	753.7	1060	1300	1448	1561	1586	1583	1570	1556	1552	1538	1517	1492	1478	1467	1481	1517	1563	1591	1608	1621	1608	1555	1477	1367	1250	1142	1034	865.8	694.9	537.5	407.0	315.7	263.7	504.5	2225	7345	9999.9	7025	114.6	12.33	7.239	5.322	4.602	4.336	4.132	4.419	4.631	4.743	4.923	5.799	6.346	6.732	6.985	6.783	7.234	7.399	7.492	7.352	7.157	7.340	7.402	7.034	7.037	6.898	7.171	7.090	7.598	7.629	7.815	7.980	8.588	8.541	8.827	9.217	10.25
415.0	444.6	756.9	1045	1296	1454	1553	1605	1598	1590	1566	1566	1551	1519	1492	1468	1451	1455	1487	1536	1549	1574	1600	1599	1555	1500	1400	1296	1196	1099	987.7	808.7	636.6	490.8	373.8	282.4	272.7	607.4	1719	3752	9999.9	9988	31.22	12.37	7.669	5.603	5.056	4.395	4.547	4.749	4.826	4.908	5.842	6.481	6.429	7.096	7.063	7.127	7.247	7.201	7.581	7.789	7.448	7.906	7.331	7.084	7.228	7.176	7.162	7.499	7.422	8.077	7.942	8.448	8.724	8.757	9.055	9.714
420.0	453.7	743.4	1043	1298	1438	1533	1598	1590	1594	1589	1580	1554	1515	1480	1448	1424	1424	1456	1493	1514	1539	1557	1570	1543	1493	1407	1325	1222	1133	1034	892.3	709.5	550.2	424.3	318.9	249.9	272.7	479.1	921.4	4677	9999.9	6698	28.55	11.05	7.138	5.942	4.920	4.947	4.780	4.922	4.797	5.713	6.454	6.740	6.635	6.891	7.160	7.281	7.160	7.825	7.513	7.399	7.745	7.322	7.101	7.424	7.030	7.220	7.283	7.686	8.102	7.896	8.282	7.989	8.675	9.031	9.356
425.0	445.9	749.6	1038	1266	1416	1541	1588	1593	1590	1595	1589	1555	1502	1461	1419	1396	1397	1415	1447	1473	1503	1522	1533	1507	1477	1402	1328	1239	1149	1054	940.5	770.5	603.0	469.9	360.5	275.4	223.5	223.4	289.2	1152	6081	9999.9	1678	24.39	9.894	6.885	5.331	5.259	5.101	5.232	4.906	5.831	6.295	6.811	6.779	6.698	7.229	7.366	7.397	7.660	7.238	7.401	7.492	7.433	7.328	7.119	7.262	7.212	7.369	7.824	8.004	7.715	8.206	8.057	8.476	8.758	9.183
430.0	454.0	719.0	1001	1238	1385	1512	1560	1583	1586	1597	1588	1554	1492	1435	1392	1357	1347	1370	1393	1412	1443	1465	1479	1464	1436	1379	1318	1247	1173	1081	970.8	837.3	676.2	529.0	414.6	321.7	249.8	200.5	174.3	338.7	1477	5443	9999.9	6395	110.1	12.17	7.045	6.165	5.707	5.215	4.961	5.957	6.525	6.573	6.665	6.689	7.016	7.160	7.498	7.560	7.316	7.292	7.536	7.326	7.217	7.339	7.147	7.240	7.273	7.322	7.641	7.682	7.767	8.160	8.128	8.530	8.888
435.0	543.3	699.1	976.5	1184	1358	1471	1528	1579	1592	1590	1578	1543	1478	1412	1366	1317	1313	1319	1340	1357	1379	1398	1419	1415	1391	1346	1296	1242	1181	1099	998.1	866.2	742.7	593.3	471.2	373.8	292.9	227.9	177.9	180.3	407.3	1273	3151	9999.9	9365	157.6	12.01	7.928	6.548	5.754	5.253	5.832	6.541	6.403	6.779	6.920	6.926	7.228	7.055	7.260	7.542	7.784	7.607	7.397	7.219	7.231	6.821	7.121	7.220	7.168	7.598	7.421	7.700	7.941	8.267	8.483	8.892
440.0	656.8	725.2	972.9	1181	1341	1431	1519	1539	1566	1581	1573	1539	1469	1389	1337	1280	1281	1281	1295	1303	1324	1350	1367	1363	1350	1312	1274	1226	1182	1107	1004	880.7	761.8	640.3	508.7	406.8	326.0	255.6	198.2	162.7	184.1	354.3	765.3	4069	9999.9	6417	24.90	11.35	7.672	6.371	5.535	5.894	6.367	6.385	6.496	6.925	7.130	6.983	7.223	7.315	7.629	7.700	7.397	7.311	7.333	6.953	7.057	6.701	7.054	7.326	7.434	7.294	7.468	7.709	7.866	8.282	8.635
445.0	674.2	848.8	943.4	1145	1299	1404	1475	1526	1548	1557	1548	1506	1436	1355	1295	1248	1230	1231	1237	1249	1265	1289	1312	1312	1301	1273	1236	1201	1158	1094	1006	884.4	765.6	658.9	544.6	434.0	350.0	279.5	220.4	175.6	148.9	162.8	235.0	988.4	5436	9999.9	1431	22.34	9.567	6.971	5.888	6.226	6.514	6.390	6.511	6.658	6.958	6.793	7.292	7.213	7.492	7.214	7.283	7.214	7.153	7.141	7.108	6.545	7.199	6.928	6.963	7.379	7.122	7.212	7.195	8.155	8.398
450.0	489.8	1072	996.0	1088	1238	1343	1415	1455	1482	1510	1509	1458	1386	1305	1232	1178	1158	1154	1159	1165	1176	1201	1221	1227	1220	1196	1172	1144	1113	1064	982.2	869.8	757.3	653.6	562.6	464.2	375.5	305.2	247.5	200.3	162.2	138.5	131.6	282.0	1309	5057	9793	5315	91.86	10.45	7.184	6.836	6.751	6.466	6.561	6.411	7.009	6.770	7.026	7.083	7.137	7.112	7.100	7.007	7.052	6.957	6.772	6.653	6.838	6.611	6.638	7.046	7.197	7.068	7.189	7.537	7.817
455.0	378.8	1011	1404	1044	1145	1266	1330	1369	1410	1443	1439	1388	1318	1240	1154	1097	1075	1067	1067	1068	1079	1100	1116	1131	1127	1106	1090	1068	1046	1001	941.5	840.8	740.2	641.7	558.0	484.9	399.4	324.3	268.2	223.1	181.4	148.6	123.5	135.1	347.3	1170	2992	9889	6629	22.87	9.788	7.776	7.127	6.732	6.378	6.252	6.663	6.578	6.480	6.854	6.827	6.933	6.733	6.620	6.517	6.584	6.375	6.545	6.248	6.255	6.371	6.425	6.809	6.621	6.748	6.872	7.231
460.0	346.0	738.8	1741	1159	1096	1179	1246	1303	1337	1365	1374	1332	1255	1175	1088	1035	1008	995.8	996.5	997.4	1007	1021	1041	1051	1049	1039	1019	999.3	987.9	956.8	902.9	812.3	719.1	627.8	545.5	478.7	410.0	336.1	279.6	234.8	193.7	158.1	129.6	108.9	138.8	307.4	710.0	3719	9999.9	1314	19.57	9.681	7.852	6.770	6.734	6.345	6.164	6.316	6.127	6.501	6.520	6.684	6.373	6.196	6.389	6.230	6.151	6.231	6.018	5.920	6.180	6.111	6.556	6.579	6.315	6.420	6.952
465.0	327.2	568.0	1637	1552	1045	1119	1192	1235	1281	1308	1312	1267	1192	1103	1028	976.1	951.5	937.9	929.7	925.1	936.1	946.4	967.3	983.0	977.0	968.4	952.6	941.8	933.6	910.6	854.9	779.3	693.8	609.1	529.0	464.6	411.0	344.7	286.8	242.5	203.2	166.9	136.7	109.7	98.27	119.8	197.7	885.0	4885	9452	1102	18.52	9.064	7.231	6.766	6.229	6.359	6.171	6.121	6.061	6.288	6.114	6.358	6.113	6.185	5.991	6.093	6.034	5.865	5.861	5.856	5.778	6.218	6.332	6.116	6.286	6.571
470.0	293.8	487.9	1050	2157	1292	1035	1098	1154	1188	1214	1215	1179	1103	1017	950.0	895.8	866.7	849.2	841.0	835.8	841.9	851.4	867.5	881.3	881.1	873.3	861.4	854.7	850.3	834.1	788.8	724.3	648.5	573.3	505.0	442.6	391.1	344.5	293.0	246.0	207.8	173.5	144.5	117.1	96.01	84.42	88.43	231.6	1164	4374	6806	3203	82.76	9.431	7.448	6.647	6.192	5.953	5.957	5.906	6.012	5.912	5.936	6.059	5.907	5.711	5.677	5.579	5.585	5.543	5.339	5.433	5.612	5.745	5.645	5.863	5.914
475.0	279.8	435.2	675.1	1762	2179	994.5	999.0	1056	1099	1117	1116	1080	1018	936.6	860.2	811.4	781.8	762.3	754.2	747.9	751.7	759.7	774.5	781.2	784.6	773.7	770.0	765.6	763.1	751.4	722.3	661.3	595.0	533.9	472.9	420.1	371.0	328.9	291.8	248.7	209.6	176.7	148.4	122.0	100.3	82.22	69.46	89.32	287.6	998.2	2153	6721	4165	23.37	8.812	7.138	6.370	5.945	5.718	5.565	5.692	5.612	5.502	5.586	5.508	5.133	5.073	5.042	5.111	5.078	5.010	4.945	5.003	5.224	5.160	5.100	5.637
480.0	264.2	406.5	574.5	1115	2710	1244	936.6	985.1	1029	1052	1053	1009	956.5	881.4	816.2	754.1	732.9	705.7	697.4	690.7	693.6	699.8	712.0	717.9	722.1	711.5	712.1	708.1	708.1	697.5	670.5	621.9	563.0	507.8	454.0	402.3	357.1	316.6	285.1	250.5	210.6	176.2	151.6	127.4	103.9	84.74	68.03	60.44	95.83	247.0	506.6	2671	7940	1388	19.87	8.422	6.699	6.164	5.750	5.560	5.168	5.335	5.491	5.187	5.250	4.813	5.056	4.857	4.969	4.847	4.744	4.673	4.819	4.722	4.805	4.801	5.208
485.0	245.8	383.8	526.0	764.8	2415	1950	905.8	938.6	973.5	988.8	1001	963.9	898.7	834.5	770.2	718.9	686.2	667.6	655.3	644.6	646.0	651.6	658.0	667.7	671.8	664.5	659.9	662.9	664.5	654.6	632.8	590.8	534.8	486.3	436.2	389.2	343.5	308.3	275.0	248.3	215.0	178.2	151.9	130.2	107.3	88.48	70.94	57.25	56.12	81.84	134.9	640.9	4200	7433	1079	15.47	7.991	6.373	5.965	5.632	5.226	5.251	5.223	4.966	4.949	4.768	4.875	4.819	4.687	4.542	4.550	4.366	4.469	4.463	4.579	4.456	4.935
490.0	219.2	354.7	490.6	631.3	1356	2840	1239	870.8	906.3	922.5	937.7	905.0	846.9	779.0	716.3	664.8	631.9	613.3	598.9	591.1	591.3	594.8	600.2	605.9	606.6	605.7	599.1	604.9	608.2	601.1	583.1	548.1	496.4	454.2	410.9	368.7	328.8	294.2	262.4	236.2	212.8	182.5	155.3	132.9	110.5	92.55	74.07	60.66	50.31	48.35	53.94	162.9	1010	3682	6200	2682	19.24	8.012	6.196	5.684	5.175	5.057	4.827	4.761	4.640	4.666	4.474	4.523	4.538	4.422	4.252	4.125	4.246	4.132	4.241	4.352	4.666
495.0	196.5	329.3	452.5	569.2	782.8	2236	2438	846.6	827.1	844.7	855.7	836.4	785.0	711.6	655.3	610.8	572.6	554.1	538.2	535.2	528.6	531.0	537.1	542.6	541.5	540.1	537.9	542.9	542.3	544.9	530.2	498.8	453.0	417.6	378.2	342.2	307.7	278.5	247.9	221.6	202.4	182.8	157.5	131.7	113.6	94.59	77.26	64.05	52.06	43.73	38.56	57.52	243.6	837.9	2335	6910	1578	22.95	7.609	6.034	5.405	5.060	4.641	4.709	4.277	4.215	4.003	3.929	4.130	3.854	3.962	3.865	3.995	4.017	3.843	4.087	4.348
500.0	180.1	303.4	420.5	518.8	619.4	1287	3227	1101	769.3	788.4	798.6	775.0	722.2	661.2	607.9	561.0	527.9	510.2	491.2	488.7	480.3	482.9	489.6	490.6	493.9	490.9	485.9	494.5	497.9	498.4	483.9	453.6	420.8	383.5	350.0	320.0	289.2	262.6	235.9	210.2	189.7	173.4	156.2	131.7	113.0	94.35	79.00	65.75	53.51	43.68	36.36	35.59	73.90	203.1	548.9	3114	6892	1311	17.98	6.636	5.566	5.348	4.702	4.644	4.368	4.221	3.899	3.800	3.915	3.627	3.521	3.751	3.683	3.516	3.761	4.019	3.814
505.0	175.0	267.4	382.7	475.2	551.0	775.0	3029	1919	716.2	739.3	741.1	708.4	671.9	612.0	560.5	514.5	486.5	470.9	451.3	449.3	437.1	440.9	443.5	445.7	445.5	446.4	445.8	453.4	454.0	454.1	444.3	417.3	386.8	354.3	325.0	296.2	269.9	246.0	222.0	200.8	179.8	164.3	150.3	130.0	110.7	94.22	79.73	65.55	54.32	44.70	36.60	31.12	36.50	62.69	137.8	758.1	4157	6074	205.9	11.01	6.046	4.955	4.529	4.393	4.063	3.777	3.823	3.556	3.529	3.577	3.340	3.466	3.362	3.499	3.277	3.564	3.595
510.0	152.9	239.1	335.6	431.4	480.4	559.5	1590	3132	1058	657.7	657.4	632.7	597.2	547.1	498.4	455.1	432.0	411.9	399.0	392.2	386.1	385.8	388.4	391.3	390.2	389.4	390.3	392.4	395.9	398.2	390.2	368.3	342.3	314.7	288.2	265.9	241.7	221.8	202.2	182.8	165.0	148.4	136.4	124.9	108.1	91.23	77.15	64.65	54.00	45.25	37.10	31.14	28.69	31.98	46.02	182.4	1021	3403	4425	890.5	15.78	5.620	4.592	4.128	3.786	3.496	3.384	3.182	3.308	3.265	3.210	3.031	3.115	3.081	3.034	3.235	3.123
515.0	132.2	217.9	295.0	378.7	416.9	472.4	727.8	2701	2102	612.5	574.0	565.5	526.3	476.0	435.1	399.6	374.1	356.8	346.2	340.7	335.0	331.4	333.8	333.8	334.1	334.6	334.2	335.0	340.6	342.1	333.1	320.3	296.4	274.3	252.6	233.8	214.4	195.6	180.2	163.7	149.1	135.0	122.3	114.4	103.7	87.71	72.85	61.47	51.93	44.51	37.18	31.19	27.18	25.28	25.66	53.93	238.8	771.9	1867	4672	1351	18.43	5.111	4.141	3.852	3.320	2.935	2.986	2.846	2.878	2.814	2.609	2.822	2.679	2.867	2.791	2.746
520.0	119.0	191.2	259.9	335.8	390.3	424.3	503.6	1501	3522	858.8	520.1	510.0	473.1	429.2	391.5	362.3	338.3	320.8	309.2	302.4	297.4	294.6	297.3	294.9	295.7	296.5	296.1	300.0	302.4	307.4	296.6	287.0	264.5	246.9	228.2	210.4	193.9	178.9	164.1	149.4	136.6	124.8	112.9	103.9	96.80	84.94	70.98	58.86	50.68	43.72	36.84	31.33	26.81	23.38	21.51	25.26	64.51	181.8	442.6	2453	4484	213.2	11.65	4.411	3.713	3.167	2.891	2.858	2.765	2.777	2.676	2.400	2.483	2.575	2.648	2.576	2.660
525.0	110.0	171.5	241.4	295.4	364.3	378.1	416.1	723.3	3557	1653	480.7	459.0	424.6	387.7	357.0	325.6	304.6	290.0	277.5	271.5	266.0	266.3	266.0	264.7	264.5	264.8	265.6	267.6	271.8	274.5	265.9	258.2	239.7	221.8	205.8	190.6	176.4	161.9	149.7	137.8	125.6	114.7	103.6	95.61	89.13	80.52	68.03	56.69	48.37	41.70	35.36	30.42	26.29	22.81	20.35	19.25	25.80	50.06	107.2	614.1	3013	3523	181.3	6.066	4.018	3.268	2.751	2.711	2.576	2.640	2.393	2.378	2.272	2.191	2.239	2.344	2.478
530.0	100.8	147.9	206.9	256.1	309.2	340.7	355.6	442.6	1840	3458	803.4	402.0	376.7	341.0	312.3	284.2	266.6	254.2	244.1	237.3	230.3	230.2	229.4	228.8	227.3	227.3	229.1	230.9	234.7	236.0	231.2	221.9	207.8	191.7	179.2	165.4	155.1	142.0	131.0	121.1	111.8	101.5	93.74	85.30	78.33	72.65	64.65	54.28	45.66	39.22	33.75	29.43	25.60	22.60	19.70	17.31	16.79	20.52	31.76	144.1	756.4	2270	2358	718.6	12.73	3.558	2.846	2.760	2.483	2.380	2.251	2.191	1.980	2.031	2.066	2.022	2.197
535.0	91.97	130.5	180.8	218.5	250.9	307.6	308.8	332.9	675.9	3285	2313	376.2	326.9	299.7	267.7	246.0	230.7	218.1	206.7	202.8	196.8	196.1	195.9	194.9	194.2	194.3	194.3	197.3	199.9	202.2	197.1	189.6	178.0	165.6	155.4	143.2	134.4	124.4	114.4	106.5	98.34	89.32	82.64	77.01	69.64	63.67	59.06	51.16	42.98	37.05	31.82	27.63	24.91	21.67	19.31	16.96	14.37	13.59	14.99	38.86	174.2	515.5	1215	3134	1045	13.95	3.209	2.663	2.399	2.246	2.036	1.898	1.926	2.005	1.914	1.835	1.919
540.0	83.29	117.7	160.8	202.3	223.6	265.8	277.9	287.5	381.4	1797	3927	585.7	293.4	266.8	240.9	219.4	204.6	196.7	184.0	181.6	175.3	173.6	174.9	174.4	172.6	171.2	171.5	174.7	175.0	177.8	175.4	167.6	157.9	146.2	136.5	128.9	120.0	111.8	103.5	95.83	88.20	82.48	75.17	71.00	64.03	57.56	53.50	48.22	41.36	34.83	29.83	26.09	23.22	20.52	18.74	15.99	13.67	11.68	10.81	15.13	44.18	119.8	292.8	1767	2995	201.7	7.214	2.678	2.427	2.083	2.033	1.821	1.714	1.764	1.788	1.716	1.825
545.0	72.90	103.2	144.0	175.6	205.2	239.6	263.2	261.9	287.5	725.3	4240	1264	271.8	242.6	216.6	198.5	186.3	177.4	166.8	163.8	158.5	156.7	158.2	156.8	153.6	153.0	152.6	155.7	157.6	159.3	156.5	150.0	140.1	130.8	122.6	114.5	108.0	100.5	93.51	85.53	80.87	74.17	69.19	64.78	58.98	52.81	48.00	44.65	39.39	33.84	28.13	25.07	22.19	20.00	17.92	15.26	13.37	11.04	10.06	9.906	15.15	31.37	69.96	451.4	2156	1744	28.78	3.941	2.564	2.134	1.840	1.789	1.577	1.825	1.734	1.537	1.616
550.0	68.92	93.04	131.9	149.2	176.7	203.5	234.3	230.9	238.6	350.0	2218	3496	519.2	211.6	191.9	175.5	161.7	153.5	145.1	141.2	138.0	135.1	134.1	133.6	132.7	131.3	131.8	133.3	134.5	136.6	134.9	129.0	121.3	113.5	106.3	99.31	93.54	87.55	81.12	75.64	70.54	65.03	60.64	56.72	52.22	47.56	43.01	39.40	35.73	31.90	26.61	22.86	20.51	18.61	16.80	14.68	13.06	10.79	9.289	8.271	8.563	11.44	19.57	104.6	549.2	1468	1791	576.0	10.62	2.343	1.821	1.699	1.563	1.557	1.574	1.457	1.476
555.0	61.60	77.19	111.9	127.2	148.3	170.4	193.5	210.5	206.5	230.1	685.2	3745	1897	196.3	164.1	150.7	138.1	130.8	122.4	119.5	117.1	116.5	113.6	112.5	112.3	110.8	110.7	111.9	115.0	114.1	113.1	110.1	104.3	95.59	90.47	85.27	79.81	74.04	69.42	65.54	60.28	56.26	52.22	48.95	45.83	41.96	37.82	34.25	30.66	28.77	25.22	21.69	18.75	17.09	15.00	13.41	11.60	10.51	8.508	7.571	6.477	6.608	7.914	26.63	125.4	334.3	915.9	2182	220.7	11.11	2.227	1.683	1.560	1.491	1.381	1.369	1.334
560.0	60.82	76.95	99.16	114.5	129.4	145.6	162.6	188.8	184.8	193.9	298.2	2095	3693	323.1	146.3	133.3	121.8	113.6	108.0	106.2	103.4	99.72	98.54	99.35	97.87	97.92	97.94	98.20	100.7	99.01	99.40	95.36	90.01	85.01	79.44	74.31	69.47	65.16	61.25	58.02	53.75	50.90	46.17	43.67	40.49	37.47	33.91	30.92	27.99	25.81	22.99	20.05	17.75	15.97	13.91	12.80	10.89	9.868	8.185	7.130	6.048	5.333	5.319	9.029	30.90	77.49	222.0	1261	1776	185.9	4.057	1.797	1.509	1.287	1.313	1.113	1.276
565.0	54.77	71.50	88.00	102.6	116.4	130.6	142.1	169.6	166.0	169.6	195.3	753.4	4409	874.3	134.1	117.0	108.9	102.5	96.26	92.44	90.06	87.37	87.68	87.25	86.55	85.27	85.45	85.87	87.30	88.15	86.73	83.99	79.18	73.77	69.94	65.39	61.68	57.51	54.46	50.19	47.30	44.52	41.36	39.30	35.94	33.48	30.53	27.75	25.05	22.31	20.82	19.33	16.44	14.43	12.73	11.82	10.26	8.750	7.494	6.930	5.732	4.860	4.278	4.962	9.749	19.76	52.20	324.3	1425	1535	28.07	2.435	1.624	1.245	1.238	1.072	1.180
570.0	45.06	59.17	76.38	88.96	96.07	105.9	117.1	136.1	150.1	142.8	149.9	276.8	2356	3129	283.9	99.25	90.42	83.82	79.59	76.23	73.92	73.01	72.31	71.65	70.89	69.88	69.60	70.63	71.24	71.98	72.13	68.46	64.35	60.40	56.65	53.78	50.09	48.20	44.79	41.91	38.83	36.65	34.36	32.57	30.23	28.15	25.86	23.47	21.10	18.63	17.25	16.28	14.63	12.74	11.14	10.40	9.284	8.059	6.807	6.133	5.486	4.467	3.883	3.902	4.521	6.681	13.73	74.58	365.2	1056	1198	348.9	8.394	1.433	1.259	1.098	1.101
575.0	40.37	47.42	62.75	75.48	77.61	83.56	90.99	103.2	125.8	118.3	120.5	146.4	640.9	3759	856.5	85.51	72.14	66.55	63.02	60.80	58.96	57.97	56.89	55.85	54.45	54.78	54.53	54.08	55.58	56.42	55.06	53.16	49.46	46.55	44.23	41.43	39.78	37.26	36.06	33.26	30.88	29.21	27.06	25.73	24.24	22.16	20.76	18.60	16.50	15.06	13.44	12.79	12.21	11.27	9.337	8.856	7.555	6.885	5.791	5.621	4.636	3.888	3.464	3.299	3.007	3.579	4.890	18.33	82.93	239.6	583.4	1297	206.0	6.808	1.203	1.084	0.921
580.0	36.14	48.49	51.82	58.63	63.74	68.62	73.27	84.47	101.8	109.7	100.1	107.5	215.3	2124	3046	104.5	58.41	54.99	52.71	50.43	48.11	47.35	46.25	46.78	44.32	44.47	45.23	44.61	44.62	45.66	44.32	43.52	40.70	38.52	35.81	34.50	32.56	29.78	29.17	26.99	25.46	23.53	22.07	21.04	20.13	18.39	16.90	15.43	13.61	12.35	11.13	10.46	10.21	9.745	8.506	7.535	7.021	5.952	5.180	4.626	3.966	3.502	3.191	2.875	2.645	2.510	2.558	5.752	19.96	55.12	140.0	731.0	1068	152.2	2.547	0.973	1.030
585.0	37.72	41.86	45.33	51.96	53.70	60.12	64.48	68.78	82.76	104.0	88.98	91.43	111.8	700.4	4056	562.7	50.68	45.80	44.14	41.81	40.50	38.67	37.51	37.29	36.83	36.57	36.46	36.91	37.12	37.86	36.66	35.36	32.98	31.39	30.20	28.06	26.18	24.23	24.39	21.67	20.78	19.36	18.43	17.60	16.64	15.70	14.15	13.13	11.49	10.60	9.321	8.548	8.617	8.597	7.648	6.557	5.926	5.076	4.644	4.030	3.223	3.067	3.061	2.549	2.322	2.083	2.051	2.680	5.861	13.70	32.70	187.1	779.5	800.0	25.80	1.346	0.900
590.0	33.91	37.56	38.86	40.00	43.31	48.50	51.48	54.25	63.23	85.17	84.96	75.02	80.15	205.7	2253	2574	154.9	37.19	34.48	33.11	31.45	30.29	29.31	29.06	28.51	27.93	28.49	27.84	28.70	28.52	28.59	27.12	26.05	24.41	22.84	21.67	19.92	18.92	18.41	16.74	16.07	15.20	14.41	13.50	12.83	12.19	11.44	9.906	9.305	8.186	7.305	6.674	6.541	6.562	6.182	5.373	4.817	4.157	3.770	3.180	2.901	2.664	2.538	2.304	2.145	1.918	1.732	1.801	2.587	4.164	8.468	42.97	197.8	532.2	585.7	116.7	5.819
595.0	28.78	32.14	34.60	33.90	37.99	38.54	43.61	44.76	50.42	65.14	84.28	66.97	64.73	84.57	573.9	3254	629.7	34.07	26.53	26.13	23.67	22.68	22.42	21.60	21.62	21.41	21.91	21.24	21.48	21.82	21.55	20.42	19.58	18.41	16.88	15.94	15.20	14.34	13.62	12.62	12.27	11.88	11.07	10.20	9.650	9.190	8.627	7.770	7.083	6.307	5.789	5.448	5.082	4.889	5.061	4.665	4.107	3.346	3.136	2.853	2.432	2.236	2.206	1.914	2.012	1.720	1.560	1.422	1.560	1.963	2.895	10.49	44.88	120.6	272.3	609.8	168.4
600.0	28.79	30.71	32.75	31.98	31.17	32.56	34.10	38.07	43.53	50.72	75.76	63.72	55.72	55.41	157.3	1843	2427	65.59	22.44	21.46	20.18	18.97	18.89	18.55	17.55	17.37	17.66	17.31	18.32	17.89	17.31	16.52	15.71	14.69	13.86	13.49	12.01	11.73	10.95	10.59	9.856	9.281	8.483	8.329	8.357	7.372	6.759	6.732	5.739	5.369	4.851	4.374	4.090	4.077	4.073	4.155	3.813	2.949	2.576	2.376	2.131	1.964	1.850	1.699	1.622	1.660	1.231	1.117	1.371	1.256	1.541	3.128	10.76	27.70	65.09	336.2	545.9
605.0	30.25	29.31	30.82	29.45	27.95	30.24	30.87	32.76	37.00	44.85	67.40	64.07	52.48	44.62	60.94	586.9	3249	402.6	20.70	18.80	17.10	16.31	15.76	15.60	14.77	14.77	14.83	14.93	14.99	15.47	14.94	14.02	13.48	11.54	11.40	10.80	10.16	9.908	9.179	8.715	8.637	7.828	7.265	6.993	6.733	6.339	5.843	5.730	4.891	4.556	4.083	3.665	3.617	3.255	3.334	3.396	3.202	2.794	2.286	2.182	1.892	1.890	1.569	1.553	1.453	1.538	1.212	1.115	1.148	1.110	1.093	1.453	3.174	6.894	15.24	85.77	383.7
610.0	25.78	28.82	29.32	26.46	26.34	25.10	26.86	28.33	34.01	38.88	51.92	66.31	51.33	40.22	37.43	152.5	1767	2019	49.46	15.82	14.01	13.43	12.93	12.42	12.01	11.76	11.74	11.99	11.93	11.98	11.77	11.26	10.50	9.713	9.430	8.541	8.240	7.670	7.318	6.980	6.581	6.333	5.775	5.875	5.555	5.146	4.670	4.254	4.009	3.694	3.308	3.055	2.821	2.636	2.632	2.550	2.553	2.448	1.956	1.823	1.640	1.643	1.413	1.401	1.353	1.267	1.270	1.298	1.108	0.975	0.976	1.097	1.311	2.101	4.012	19.80	97.04
615.0	21.73	27.02	28.37	24.69	20.74	21.01	21.87	25.76	29.81	36.19	44.29	59.79	54.69	36.76	28.92	49.93	433.6	2566	485.8	16.16	12.15	10.89	10.47	10.07	9.891	9.719	9.137	9.166	9.332	9.009	9.326	8.658	7.936	7.817	6.931	6.863	6.306	6.327	6.141	5.658	5.315	4.932	4.724	4.555	4.241	4.240	3.752	3.298	3.178	2.737	2.699	2.494	2.408	2.127	2.118	2.028	1.989	1.949	1.729	1.593	1.306	1.364	1.189	1.171	1.082	1.120	1.119	1.066	1.088	0.903	0.878	0.922	0.875	1.055	1.473	5.037	22.09
620.0	18.62	25.10	24.80	23.83	20.11	19.29	19.35	23.89	28.97	32.79	39.54	50.80	57.40	34.98	25.55	26.31	109.6	1444	1968	45.78	10.51	9.453	8.871	8.457	8.291	8.317	8.013	7.527	8.080	7.428	7.516	7.290	6.586	6.751	6.019	5.969	5.491	5.177	4.943	4.455	4.303	4.024	3.937	3.658	3.606	3.394	3.326	2.827	2.826	2.487	2.330	2.247	1.927	1.747	1.686	1.721	1.618	1.617	1.525	1.462	1.236	1.184	1.151	1.111	1.001	0.962	0.995	0.957	0.953	0.840	0.742	0.864	0.774	0.758	0.854	1.638	5.391
625.0	19.88	26.82	25.40	20.37	18.27	18.48	20.41	21.81	24.91	29.47	36.86	44.20	54.27	36.90	24.05	19.47	35.51	452.3	2718	313.7	10.71	8.773	8.328	8.086	7.344	7.024	6.862	6.620	7.029	6.620	6.360	6.337	5.793	5.627	5.267	5.117	4.714	4.274	3.897	4.014	3.536	3.419	3.396	3.090	3.173	2.988	2.764	2.630	2.337	2.014	1.937	1.752	1.687	1.639	1.552	1.409	1.480	1.415	1.296	1.297	1.254	1.133	1.050	0.959	0.969	0.861	0.857	0.906	0.859	0.853	0.760	0.751	0.789	0.640	0.630	0.826	1.576
630.0	22.99	25.03	24.85	20.82	16.30	16.49	18.93	20.04	22.72	27.56	32.75	39.34	47.34	40.57	24.77	17.38	18.37	112.7	1534	1675	37.70	8.049	7.210	6.602	5.876	5.926	5.680	5.523	5.494	5.377	5.209	5.093	4.842	4.483	4.249	4.030	3.787	3.483	3.305	3.041	3.014	2.806	2.622	2.520	2.429	2.380	2.215	2.087	1.976	1.744	1.569	1.505	1.361	1.346	1.260	1.274	1.284	1.194	1.087	1.132	1.066	1.014	0.912	0.832	0.839	0.831	0.815	0.769	0.766	0.802	0.733	0.741	0.664	0.589	0.615	0.593	0.842
635.0	21.43	22.40	22.12	17.44	15.61	16.17	18.19	16.50	21.07	26.37	31.40	35.86	39.56	43.33	25.99	16.81	14.20	33.38	377.9	2190	417.4	9.290	6.501	5.863	5.367	5.112	4.825	4.741	4.576	4.457	4.489	4.078	3.890	3.627	3.532	3.211	2.972	2.937	2.674	2.506	2.477	2.289	2.359	1.993	1.957	1.975	1.683	1.692	1.586	1.431	1.266	1.250	1.222	1.142	1.120	1.135	1.014	1.064	0.931	0.976	0.977	0.868	0.824	0.749	0.704	0.700	0.755	0.698	0.601	0.590	0.657	0.689	0.662	0.547	0.560	0.530	0.692
640.0	25.87	24.10	19.18	16.67	14.12	14.91	15.94	17.30	20.69	25.30	28.46	35.05	35.93	41.23	28.12	15.97	13.12	15.03	91.80	1285	1651	31.46	5.921	5.170	5.003	4.398	4.249	3.792	3.969	3.964	3.817	3.558	3.454	3.311	3.179	2.642	2.533	2.413	2.282	2.207	2.239	1.912	1.916	1.671	1.711	1.678	1.618	1.362	1.338	1.210	1.116	1.022	1.066	0.983	1.102	1.000	0.933	0.998	0.824	0.860	0.865	0.896	0.701	0.680	0.631	0.603	0.653	0.651	0.589	0.573	0.641	0.644	0.614	0.503	0.518	0.447	0.452
645.0	23.41	23.61	19.84	19.85	15.43	13.60	14.96	16.18	19.03	24.51	27.72	32.88	35.28	36.75	31.31	16.79	12.28	10.96	27.34	415.0	2272	240.3	6.221	4.859	4.507	3.833	3.881	3.517	3.768	3.518	3.429	3.291	3.106	2.867	2.623	2.367	2.371	2.231	2.021	1.827	1.811	1.659	1.705	1.617	1.568	1.393	1.366	1.279	1.187	1.100	0.944	0.876	0.954	0.860	0.974	0.830	0.806	0.834	0.703	0.825	0.756	0.728	0.753	0.646	0.585	0.576	0.671	0.636	0.652	0.633	0.533	0.620	0.622	0.518	0.536	0.503	0.460
650.0	21.22	22.59	19.51	15.68	15.33	15.72	14.22	16.27	19.01	23.45	28.70	31.71	33.90	31.87	32.22	18.77	12.51	9.966	12.67	104.3	1733	966.2	11.48	4.636	4.305	3.551	3.740	3.290	3.282	3.152	3.098	2.879	2.626	2.473	2.291	2.275	2.161	1.988	1.771	1.578	1.612	1.382	1.567	1.439	1.503	1.268	1.126	1.140	1.024	0.927	0.842	0.891	0.811	0.708	0.937	0.724	0.756	0.742	0.655	0.646	0.655	0.661	0.610	0.705	0.552	0.604	0.550	0.659	0.580	0.524	0.555	0.572	0.572	0.520	0.563	0.478	0.456
