Sample:	'1
File name:	W2025090903-‘¿ÀÆ∫”.FD3
Run date:	'09:59:33, 09/11/2025
Operator:	Administrator
Comment:	'

Instrument
Model:	F-2700 FL Spectrophotometer
Serial number:	23C7-004
ROM Version:	4J14000 07

Instrument parameters
Measurement type:	3-D scan
Data mode:	Fluorescence
EX  Start WL:	220.0 nm
EX  End WL:	600.0 nm
EX Sampling interval:	5.0 nm
EM  Start WL:	230.0 nm
EM  End WL:	650.0 nm
EM Sampling interval:	5.0 nm
Scan speed:	12000 nm/min
EX Slit:	5.0 nm
EM Slit:	5.0 nm
PMT Voltage:	700 V
Response:	Auto 
Corrected spectra:	Off
Contour interval:	50.000

Peak integration
Integration method:	Rectangular
Sensitivity:	1
Threshold:	1.000

Peaks
No.	ApexEX/EM(nm)	Height(Data)
1	225.0/585.0	109.8
2	230.0/360.0	1832
3	250.0/400.0	2328
4	255.0/285.0	438.2
5	260.0/290.0	531.4
6	265.0/585.0	142.5
7	270.0/300.0	1255
8	270.0/600.0	123.7
9	275.0/310.0	1467
10	275.0/615.0	105.5
11	280.0/315.0	1402
12	280.0/625.0	89.96
13	285.0/635.0	65.42
14	500.0/395.0	9.160
15	510.0/280.0	2.481
16	515.0/285.0	2.696
17	535.0/295.0	4.684
18	535.0/385.0	9.202
19	550.0/305.0	6.697
20	565.0/315.0	6.845
21	580.0/325.0	6.450

Data points
	220.0	225.0	230.0	235.0	240.0	245.0	250.0	255.0	260.0	265.0	270.0	275.0	280.0	285.0	290.0	295.0	300.0	305.0	310.0	315.0	320.0	325.0	330.0	335.0	340.0	345.0	350.0	355.0	360.0	365.0	370.0	375.0	380.0	385.0	390.0	395.0	400.0	405.0	410.0	415.0	420.0	425.0	430.0	435.0	440.0	445.0	450.0	455.0	460.0	465.0	470.0	475.0	480.0	485.0	490.0	495.0	500.0	505.0	510.0	515.0	520.0	525.0	530.0	535.0	540.0	545.0	550.0	555.0	560.0	565.0	570.0	575.0	580.0	585.0	590.0	595.0	600.0
230.0	196.8	2905	3220	373.4	10.66	5.036	4.342	4.075	3.117	3.205	3.028	3.110	2.870	2.780	2.163	1.779	1.725	1.494	1.538	1.380	1.167	1.085	1.109	0.957	0.903	0.893	0.748	0.650	0.651	0.619	0.524	0.482	0.459	0.422	0.416	0.402	0.315	0.299	0.273	0.284	0.421	0.547	0.416	0.250	0.229	0.471	3.634	11.10	12.40	6.044	1.270	0.283	0.148	0.132	0.144	0.123	0.115	0.141	0.141	0.125	0.128	0.104	0.089	0.127	0.143	0.118	0.108	0.123	0.100	0.112	0.099	0.089	0.100	0.107	0.085	0.121	0.088
235.0	110.6	830.7	3046	3165	409.6	13.75	6.646	4.357	4.432	4.326	3.691	2.978	2.867	3.061	2.638	2.045	1.758	1.674	1.622	1.379	1.204	1.165	1.110	1.056	0.878	0.898	0.749	0.788	0.607	0.559	0.579	0.509	0.500	0.453	0.333	0.362	0.423	0.380	0.251	0.277	0.304	0.340	0.417	0.490	0.396	0.293	1.021	3.169	6.337	9.968	12.25	9.126	2.682	0.299	0.184	0.123	0.112	0.164	0.136	0.129	0.114	0.097	0.091	0.118	0.121	0.129	0.101	0.112	0.137	0.079	0.094	0.108	0.117	0.091	0.105	0.105	0.183
240.0	165.3	235.5	1069	3847	3160	305.9	8.974	5.500	5.092	4.379	4.118	3.260	3.376	3.154	2.526	2.206	1.677	1.630	1.553	1.469	1.280	1.235	1.072	1.158	0.891	0.824	0.796	0.677	0.740	0.553	0.535	0.632	0.459	0.529	0.401	0.325	0.359	0.250	0.259	0.357	0.273	0.227	0.245	0.477	0.578	0.480	0.502	0.947	1.585	3.472	8.736	17.72	17.00	8.959	1.844	0.207	0.123	0.160	0.139	0.136	0.155	0.119	0.140	0.121	0.091	0.101	0.095	0.111	0.108	0.124	0.115	0.127	0.096	0.081	0.119	0.095	0.134
245.0	144.0	175.1	276.1	1603	4695	2812	209.8	7.973	6.761	4.954	4.142	3.629	3.730	3.098	2.829	2.267	1.588	1.832	1.462	1.335	1.436	1.156	1.077	1.079	0.945	0.728	0.832	0.723	0.656	0.551	0.557	0.508	0.477	0.520	0.373	0.380	0.331	0.265	0.270	0.239	0.244	0.217	0.290	0.325	0.362	0.651	0.708	0.596	0.587	0.896	2.364	7.365	16.20	22.85	17.62	6.550	1.096	0.142	0.186	0.128	0.133	0.100	0.133	0.119	0.087	0.111	0.125	0.087	0.131	0.124	0.196	0.139	0.100	0.085	0.090	0.113	0.133
250.0	60.82	156.6	204.4	413.7	1765	4252	4179	916.4	37.10	7.328	5.576	4.769	4.297	3.307	2.960	2.291	1.985	2.027	1.734	1.557	1.406	1.148	1.146	1.210	1.002	0.901	0.944	0.849	0.799	0.697	0.653	0.499	0.462	0.428	0.412	0.397	0.357	0.362	0.314	0.300	0.223	0.289	0.238	0.248	0.243	0.344	0.434	0.614	0.694	0.630	0.769	1.812	4.346	9.162	15.65	20.54	24.15	14.80	6.886	1.428	0.221	0.133	0.155	0.120	0.139	0.115	0.153	0.117	0.143	0.112	0.181	0.123	0.087	0.122	0.147	0.100	0.114
255.0	28.83	58.49	175.5	266.1	433.3	1145	4798	7118	1295	29.19	8.066	6.204	5.051	3.684	3.177	2.836	2.644	2.473	1.624	1.605	1.512	1.430	1.300	1.223	1.239	1.003	1.040	0.811	0.763	0.541	0.701	0.524	0.495	0.373	0.411	0.411	0.364	0.287	0.321	0.259	0.291	0.337	0.210	0.180	0.251	0.172	0.235	0.324	0.460	0.705	0.947	0.927	1.238	2.282	3.698	5.507	12.64	28.60	42.76	23.75	9.706	1.149	0.164	0.195	0.157	0.203	0.141	0.166	0.148	0.092	0.136	0.132	0.150	0.138	0.131	0.198	0.143
260.0	21.54	27.89	80.21	246.8	236.0	284.1	1562	7572	7387	228.5	15.39	8.770	6.085	4.696	3.949	2.787	3.007	2.371	2.117	1.792	1.921	1.373	1.312	1.263	1.252	1.056	1.134	0.787	0.778	0.779	0.642	0.672	0.644	0.447	0.515	0.458	0.392	0.343	0.395	0.302	0.264	0.359	0.277	0.212	0.218	0.229	0.187	0.214	0.269	0.356	0.634	1.453	1.027	0.863	1.092	1.412	3.133	8.603	24.56	46.25	50.75	21.11	5.333	0.372	0.196	0.213	0.175	0.171	0.161	0.093	0.173	0.095	0.149	0.136	0.144	0.148	0.136
265.0	21.12	24.50	31.34	133.1	286.9	155.0	379.1	2817	9999.9	6791	176.7	13.11	8.174	6.651	4.746	3.640	2.865	2.920	2.309	1.832	2.077	1.647	1.274	1.410	1.216	1.185	1.014	0.878	0.869	0.650	0.659	0.766	0.527	0.467	0.496	0.465	0.334	0.394	0.354	0.389	0.255	0.332	0.265	0.190	0.273	0.235	0.213	0.207	0.217	0.265	0.320	0.822	1.269	1.298	0.946	0.567	0.929	2.120	6.160	16.62	40.99	62.63	28.51	15.81	2.187	0.277	0.154	0.154	0.220	0.129	0.171	0.138	0.118	0.153	0.182	0.185	0.132
270.0	42.78	35.49	29.40	47.06	158.2	270.9	212.9	675.7	3449	9240	9313	741.2	43.06	9.305	6.336	4.913	3.649	2.962	2.520	2.202	2.047	1.703	1.592	1.449	1.257	1.155	1.088	0.982	0.876	0.820	0.695	0.650	0.573	0.617	0.526	0.500	0.409	0.435	0.343	0.371	0.338	0.371	0.275	0.287	0.318	0.295	0.250	0.237	0.216	0.206	0.263	0.350	0.536	0.944	1.342	1.362	0.985	0.820	1.621	3.959	10.32	22.21	34.25	54.75	48.87	40.78	10.30	2.273	0.284	0.194	0.226	0.139	0.190	0.123	0.145	0.172	0.133
275.0	119.9	90.24	58.76	35.64	52.97	156.2	374.8	288.6	818.4	2359	9217	9999.9	1051	41.73	10.05	6.319	5.296	3.807	3.069	2.771	2.135	2.062	1.660	1.619	1.447	1.389	1.226	1.112	0.948	0.872	0.740	0.741	0.903	0.779	0.702	0.635	0.603	0.502	0.533	0.550	0.482	0.495	0.323	0.422	0.477	0.410	0.395	0.380	0.359	0.243	0.231	0.219	0.271	0.350	0.480	0.838	1.818	1.849	1.314	1.239	2.563	5.339	7.956	13.55	23.75	62.42	90.07	28.96	14.68	1.505	0.266	0.185	0.240	0.150	0.175	0.172	0.178
280.0	238.2	192.7	105.8	46.31	36.93	70.05	294.1	365.9	293.1	613.1	2712	9999.9	9673	747.2	19.40	8.816	6.787	4.613	3.928	3.409	2.472	2.200	1.884	1.665	1.503	1.416	1.306	1.198	1.078	0.925	0.856	0.776	0.850	0.875	0.941	0.897	0.933	0.770	0.812	0.708	0.585	0.686	0.558	0.638	0.648	0.711	0.597	0.592	0.513	0.335	0.312	0.230	0.238	0.295	0.363	0.424	0.871	1.672	2.481	1.737	1.143	1.533	2.260	3.511	5.837	17.32	46.48	85.34	97.48	25.59	8.152	0.544	0.267	0.249	0.219	0.298	0.205
285.0	383.1	320.1	182.9	80.20	46.70	49.85	141.2	438.2	317.9	285.2	771.6	3725	9999.9	7672	108.1	12.43	8.379	5.509	4.486	3.672	2.819	2.448	1.964	1.776	1.465	1.487	1.462	1.123	1.071	1.077	0.913	0.916	0.894	1.088	1.159	1.157	1.205	1.063	1.111	0.941	0.863	0.785	0.748	0.837	0.896	0.845	0.801	0.868	0.608	0.404	0.467	0.399	0.260	0.286	0.304	0.341	0.537	0.821	1.767	2.696	2.171	1.356	1.172	1.427	2.175	4.576	11.58	27.73	69.55	108.1	89.86	19.76	2.746	0.421	0.274	0.312	0.244
290.0	583.7	516.2	330.6	149.9	82.31	75.23	111.0	265.6	531.4	505.7	517.7	1168	3853	9999.9	9999.9	1950	30.79	8.964	6.214	4.702	3.731	2.925	2.627	2.068	1.718	1.670	1.524	1.220	1.252	1.104	1.031	1.063	0.962	1.289	1.584	1.658	1.529	1.463	1.321	1.206	1.135	1.067	1.140	1.160	1.120	1.322	1.254	1.221	1.010	0.734	0.637	0.597	0.456	0.450	0.468	0.489	0.534	0.618	0.954	1.486	2.342	2.884	3.015	2.357	1.954	2.400	3.986	7.646	17.64	35.24	61.66	81.58	67.16	61.32	12.84	3.821	0.456
295.0	793.0	739.0	475.4	232.9	136.7	118.3	147.7	238.2	408.8	834.2	885.9	801.7	1294	2627	9516	9999.9	629.8	33.22	9.256	6.794	4.950	3.859	3.132	2.463	2.088	1.905	1.896	1.587	1.432	1.270	1.011	1.031	1.021	1.347	1.827	1.968	1.922	1.900	1.639	1.449	1.309	1.341	1.331	1.497	1.507	1.643	1.675	1.717	1.456	1.071	0.827	0.806	0.580	0.639	0.576	0.602	0.770	0.650	0.914	1.187	1.544	2.100	3.288	4.684	4.290	3.136	3.268	3.952	6.141	9.774	15.19	19.94	28.93	78.11	120.4	33.64	19.12
300.0	914.4	871.1	594.4	313.7	182.4	164.9	191.5	274.6	420.3	752.8	1255	990.3	859.7	937.9	2636	9999.9	9999.9	492.0	18.09	8.706	6.156	4.293	3.589	2.917	2.433	2.127	1.940	1.733	1.612	1.157	1.301	0.975	1.169	1.625	1.967	2.178	2.338	1.961	1.669	1.665	1.362	1.514	1.399	1.630	1.781	1.887	1.862	1.942	1.738	1.248	1.048	1.044	0.728	0.677	0.682	0.763	0.798	0.959	1.038	1.326	1.684	1.907	2.587	3.981	5.527	5.935	4.581	3.799	4.023	4.561	5.414	5.984	7.755	20.49	52.34	100.1	131.5
305.0	992.6	957.4	685.9	382.5	238.7	214.3	251.9	351.9	494.9	750.5	1225	1419	934.9	665.5	819.8	3271	9999.9	9999.9	68.96	12.37	8.182	5.218	4.453	3.331	2.872	2.547	2.134	1.838	1.537	1.452	1.264	1.185	1.435	1.840	1.862	2.287	2.246	2.050	2.185	1.831	1.602	1.617	1.667	1.842	1.936	2.063	2.032	2.157	1.743	1.549	1.200	1.222	0.978	0.798	0.804	0.894	1.015	1.181	1.122	1.651	1.996	2.240	2.765	3.611	4.453	5.979	6.697	5.393	4.338	4.032	3.946	3.244	3.301	5.787	12.91	29.90	79.56
310.0	1033	1005	765.3	450.9	295.4	277.8	326.4	428.9	581.9	828.0	1127	1467	1369	799.8	513.0	916.5	3304	9999.9	9793	1616	25.16	8.443	5.859	4.210	3.300	2.832	2.437	2.161	1.706	1.718	1.452	1.250	1.430	1.630	2.077	2.359	2.255	2.262	2.056	1.843	1.644	1.753	1.724	1.848	2.004	2.272	2.117	2.477	2.060	1.624	1.339	1.353	1.124	1.053	1.123	1.156	1.263	1.434	1.605	1.930	2.191	2.480	3.276	3.735	4.304	4.895	5.937	6.466	6.689	5.992	4.544	3.431	2.884	2.936	4.123	7.877	19.23
315.0	1060	1072	821.5	515.5	353.6	335.8	388.6	496.0	652.8	876.3	1138	1302	1402	1170	581.5	451.1	888.8	2397	7399	9999.9	457.4	28.24	8.405	5.776	4.306	3.701	2.682	2.630	1.877	1.645	1.622	1.458	1.472	1.814	2.019	2.221	2.136	2.285	2.075	1.900	1.777	1.796	1.754	1.830	2.021	2.266	2.314	2.731	2.168	1.805	1.435	1.496	1.333	1.378	1.236	1.422	1.656	1.693	2.013	2.047	2.508	3.081	3.383	4.130	4.455	4.702	5.148	5.639	5.883	6.845	6.553	5.341	3.294	2.565	2.610	3.260	5.437
320.0	1106	1158	903.6	563.9	407.5	375.3	430.5	552.4	689.2	917.6	1145	1286	1294	1282	832.5	412.6	390.3	654.5	1930	9816	9999.9	399.7	17.41	7.632	5.345	3.817	3.238	2.475	2.243	1.923	1.805	1.533	1.633	1.521	1.911	2.116	2.152	2.150	2.263	1.715	1.727	1.703	1.593	2.005	2.150	2.318	2.574	2.763	2.331	2.069	1.579	1.653	1.589	1.539	1.442	1.434	1.866	1.809	2.160	2.482	2.725	3.193	3.672	4.045	4.560	5.152	5.230	5.431	5.963	5.839	6.244	6.431	5.330	3.419	2.645	2.234	2.517
325.0	1226	1342	1093	699.8	462.6	412.4	468.7	598.2	734.1	959.0	1171	1316	1286	1180	1077	567.3	333.0	305.8	533.1	2808	9999.9	9999.9	54.54	11.14	7.212	4.798	3.896	3.112	2.765	2.067	1.933	1.600	1.521	1.625	1.929	2.122	2.096	2.159	2.008	1.813	1.772	1.718	1.802	1.990	2.171	2.591	2.606	3.047	2.967	2.492	2.066	1.957	1.619	1.669	1.464	1.664	2.025	2.188	2.294	2.505	2.909	3.481	3.760	4.281	4.665	5.058	5.273	5.403	5.894	5.554	5.522	5.671	6.450	5.973	3.536	2.591	2.306
330.0	1334	1546	1386	966.0	626.9	513.9	539.7	654.8	799.9	1008	1219	1364	1352	1186	1032	844.5	515.8	309.0	282.5	739.3	2896	9075	9999.9	1443	22.78	7.491	5.277	3.754	3.087	2.429	2.271	1.834	1.719	1.865	2.098	2.114	2.223	2.029	1.952	1.914	1.774	1.826	2.023	2.239	2.454	2.895	2.985	3.740	3.577	3.121	2.810	2.815	2.355	2.152	1.913	1.963	2.176	2.330	2.487	2.876	3.090	3.529	4.034	4.617	4.944	5.154	5.281	5.698	6.064	5.659	5.706	5.481	5.382	5.539	5.141	4.775	3.605
335.0	1389	1618	1565	1191	803.4	649.7	645.0	734.6	872.9	1059	1248	1403	1410	1246	1021	838.1	767.0	463.4	293.8	331.4	768.3	2158	6065	9999.9	2288	26.77	7.836	5.029	3.977	2.861	2.447	2.087	1.943	1.860	2.035	2.042	1.916	2.001	1.908	1.913	1.721	1.909	2.289	2.291	2.691	3.219	3.503	4.107	4.071	3.650	3.360	3.631	3.014	2.707	2.492	2.437	2.586	2.724	2.840	3.202	3.178	3.557	4.229	4.711	5.150	5.403	5.555	5.659	6.435	6.185	6.267	5.673	5.469	5.476	4.702	4.775	5.087
340.0	1475	1681	1665	1326	961.4	784.8	749.8	795.9	913.6	1099	1287	1418	1441	1311	1079	843.4	781.8	661.1	376.3	282.0	331.8	604.7	1585	8138	9999.9	351.3	17.45	6.786	4.894	3.391	3.141	2.367	1.972	2.061	1.885	2.026	1.875	1.800	1.976	2.019	1.786	2.041	2.139	2.342	2.796	3.297	3.774	4.027	4.377	3.694	3.593	4.087	3.533	3.119	2.837	2.720	3.023	2.911	3.144	3.222	3.578	3.866	4.432	4.873	4.996	5.722	5.720	6.078	6.169	6.514	6.271	5.966	5.668	5.425	4.428	4.596	4.843
345.0	1474	1709	1723	1446	1090	906.5	847.7	874.5	974.6	1145	1319	1427	1464	1348	1137	890.7	752.3	751.0	548.0	335.4	278.7	299.4	474.4	2311	9999.9	9821	284.5	10.58	6.274	4.264	3.436	2.709	2.221	2.269	2.163	2.156	1.871	1.971	1.935	2.054	2.051	2.165	2.180	2.679	2.901	3.291	3.534	4.105	4.560	3.841	3.948	4.468	3.815	3.394	3.199	3.212	3.421	3.492	3.448	3.510	4.124	4.167	4.422	5.240	5.137	5.717	5.860	6.283	6.296	6.812	6.367	6.195	5.941	5.615	4.973	4.429	4.720
350.0	1444	1716	1761	1545	1301	1121	1046	1032	1096	1216	1373	1466	1490	1401	1221	988.8	814.4	723.3	699.1	535.5	366.2	308.4	291.8	652.9	2796	7823	8814	1293	21.03	6.801	4.453	3.128	2.775	2.417	2.248	2.128	2.053	2.107	1.913	1.845	2.001	2.245	2.221	2.605	2.806	3.370	3.630	4.297	4.490	4.140	4.044	4.953	4.566	4.347	3.899	4.164	4.081	4.040	4.005	4.201	4.596	4.716	4.988	5.401	5.613	5.785	5.963	6.379	6.362	6.671	6.418	6.581	6.328	6.056	5.476	5.302	5.168
355.0	1452	1705	1777	1667	1529	1399	1317	1270	1316	1380	1485	1549	1564	1486	1317	1106	933.1	794.3	723.6	723.2	526.8	405.0	338.0	355.5	773.1	1883	5029	9999.9	2091	25.05	6.833	4.567	3.100	2.577	2.518	2.374	2.230	2.060	1.983	2.063	2.129	2.232	2.301	2.597	2.851	3.200	3.691	4.410	4.186	4.383	4.306	5.262	5.002	5.108	4.786	4.995	5.251	4.907	5.017	5.105	5.295	5.880	5.886	5.806	6.069	6.294	6.201	6.763	6.681	6.870	6.977	6.719	7.144	6.501	6.121	5.811	5.809
360.0	1476	1702	1832	1773	1663	1602	1519	1461	1484	1544	1611	1640	1629	1555	1404	1201	1033	889.5	784.9	751.6	728.6	507.6	409.9	344.7	372.9	561.5	1339	6970	9999.9	328.9	15.68	6.530	4.036	3.582	2.607	2.305	2.371	2.432	2.203	2.179	2.238	2.287	2.324	2.762	2.941	3.303	3.685	4.128	4.459	4.233	4.460	5.855	5.487	5.835	5.536	5.948	6.003	5.885	5.862	5.996	6.037	6.391	6.477	6.520	6.323	6.839	6.626	6.974	6.949	7.095	7.227	7.043	7.279	6.712	6.942	6.376	6.443
365.0	1493	1710	1811	1813	1787	1766	1690	1646	1641	1697	1740	1739	1703	1620	1479	1290	1119	983.9	867.7	789.9	796.2	700.9	510.7	403.5	338.4	306.8	427.4	1974	8897	8593	269.0	9.684	5.160	3.946	3.069	2.386	2.562	2.517	2.186	2.386	2.396	2.411	2.502	2.829	2.911	3.375	3.482	4.193	4.606	4.476	4.460	5.936	5.685	6.203	6.032	6.265	6.720	6.495	6.202	6.503	6.493	6.939	7.190	6.924	7.366	7.224	6.923	7.355	7.134	7.773	7.520	7.584	7.741	6.963	7.099	6.661	7.105
370.0	1521	1759	1835	1901	1913	1955	1886	1833	1821	1875	1884	1850	1788	1701	1559	1382	1235	1103	984.2	891.4	840.2	826.6	715.1	535.2	419.5	329.2	283.8	568.5	2482	6950	7929	1171	18.29	5.504	4.111	2.907	2.752	2.611	2.375	2.362	2.464	2.529	2.657	2.911	3.189	3.495	3.789	4.244	4.650	4.372	4.704	6.019	6.185	6.627	6.616	6.881	7.541	7.148	7.204	7.384	7.309	7.599	7.670	7.683	7.879	7.655	7.513	7.562	7.504	7.917	7.756	8.216	8.142	7.768	7.516	7.567	7.363
375.0	1570	1792	1883	1991	2046	2110	2083	1995	1974	2018	2005	1956	1876	1765	1636	1487	1346	1226	1105	1014	935.9	876.9	857.6	734.4	545.0	415.8	325.5	312.5	679.5	1666	4547	9356	1826	21.10	5.785	3.836	3.264	2.983	2.747	2.501	2.672	2.816	2.710	3.002	3.270	3.667	3.642	4.574	4.798	4.631	4.679	6.423	6.462	6.951	6.986	7.467	8.459	7.744	7.939	7.886	7.988	7.974	7.791	8.178	8.657	8.383	7.997	7.993	8.261	8.292	8.009	8.672	8.297	8.207	8.045	8.266	7.952
380.0	1614	1797	1941	2024	2121	2212	2157	2079	2068	2103	2075	2016	1939	1824	1687	1533	1409	1295	1188	1095	1021	943.8	893.7	861.0	674.0	507.3	392.4	304.4	318.5	482.7	1202	6333	8451	278.3	12.76	5.168	3.988	3.348	2.787	2.715	2.565	2.834	2.975	3.048	3.297	3.569	3.934	4.618	4.806	4.689	4.837	6.387	6.690	7.227	7.232	7.795	8.319	8.422	8.137	8.060	8.441	8.411	8.844	8.866	8.591	8.834	8.242	8.442	8.373	8.463	8.511	8.200	8.556	8.319	8.135	8.463	8.508
385.0	1622	1795	1940	2047	2160	2259	2260	2132	2123	2139	2124	2056	1977	1844	1713	1562	1450	1353	1250	1160	1087	1013	936.2	900.9	810.3	599.9	467.0	352.0	278.6	251.9	363.4	1809	7378	6514	212.5	7.826	5.275	3.758	3.328	3.002	2.695	3.060	3.063	3.004	3.355	3.700	3.867	4.630	4.968	4.680	4.982	6.807	6.684	7.285	7.669	8.004	8.452	8.130	8.224	8.232	8.466	8.586	8.984	9.202	8.739	8.834	8.118	8.504	8.676	8.641	8.670	8.553	8.758	8.445	8.024	8.300	9.150
390.0	1644	1841	1954	2044	2186	2286	2290	2194	2150	2155	2138	2079	1982	1869	1728	1593	1488	1406	1314	1231	1159	1091	1014	935.1	880.8	756.1	573.9	439.1	338.5	261.2	224.1	497.2	2051	5298	4529	923.3	15.62	5.671	4.006	3.619	3.221	3.213	3.352	3.241	3.652	3.886	3.950	4.446	4.686	4.601	4.906	6.732	6.797	7.505	7.814	8.075	8.646	8.531	8.548	8.487	8.675	9.168	8.862	9.016	8.620	8.691	8.233	8.462	8.765	8.571	8.591	8.605	8.906	8.719	8.618	8.502	9.036
395.0	1709	1857	1983	2054	2170	2310	2312	2242	2177	2158	2130	2081	1979	1858	1734	1613	1529	1449	1359	1292	1228	1160	1086	1001	912.0	843.6	720.5	547.4	422.9	326.5	245.3	245.3	544.6	1266	3142	6856	1477	18.20	5.745	4.398	3.830	3.567	3.517	3.605	3.811	4.130	3.981	4.751	4.761	4.536	4.954	6.387	6.852	7.276	7.815	7.577	9.160	8.705	8.637	8.128	8.939	9.175	8.931	8.839	8.894	8.678	8.283	8.701	8.817	8.785	9.020	8.749	8.587	8.748	8.714	8.668	8.971
400.0	1728	1865	1943	2029	2186	2277	2328	2252	2183	2156	2116	2063	1966	1857	1732	1616	1525	1459	1388	1323	1264	1202	1133	1050	954.5	864.4	792.5	643.3	488.6	382.4	287.7	219.5	231.3	358.5	846.4	4623	6172	238.6	11.15	5.487	3.988	3.979	3.427	3.925	3.705	4.074	3.899	4.700	4.648	4.595	4.758	6.595	6.897	7.334	7.542	7.761	8.813	8.293	8.564	8.523	8.593	8.717	8.933	8.746	9.151	8.356	8.159	8.452	8.802	8.523	8.686	8.954	8.796	8.833	8.944	8.718	9.162
405.0	1740	1882	1948	2019	2147	2232	2287	2225	2165	2149	2094	2057	1935	1837	1713	1606	1517	1466	1403	1334	1284	1227	1158	1077	991.2	893.0	810.7	730.5	569.2	436.1	332.1	245.9	188.4	175.2	253.5	1311	5295	4777	185.4	7.736	5.185	4.268	3.827	3.786	3.762	4.110	4.039	4.858	4.905	4.653	4.734	6.212	6.926	7.282	7.093	7.724	8.757	8.250	8.462	8.729	8.561	8.477	8.805	8.817	9.034	8.232	8.002	8.253	8.525	8.611	8.306	8.732	8.359	8.772	8.567	8.478	9.310
410.0	1715	1843	1897	1977	2083	2189	2239	2184	2119	2097	2055	1996	1884	1792	1672	1569	1497	1443	1392	1340	1288	1236	1177	1105	1022	922.3	827.9	763.4	670.5	520.3	397.2	297.2	218.2	166.9	144.4	353.6	1471	3879	3475	831.4	14.32	5.435	4.424	4.001	3.903	4.028	4.096	4.614	4.651	4.535	4.772	6.172	6.535	7.035	7.007	7.400	8.289	8.241	8.260	8.461	8.565	8.446	8.510	8.667	8.458	8.125	8.109	8.163	8.221	8.430	8.121	8.486	8.326	8.463	8.358	8.225	9.003
415.0	1670	1776	1849	1890	1998	2126	2202	2139	2090	2051	2015	1936	1824	1730	1610	1529	1452	1416	1368	1325	1273	1225	1170	1112	1039	947.2	853.2	769.9	709.5	624.7	466.8	351.3	263.0	195.7	147.2	159.9	383.1	922.5	2295	4999	1255	16.86	5.651	4.548	4.335	4.088	4.294	4.539	4.855	4.523	4.751	5.982	6.345	6.830	6.875	7.192	7.912	7.870	8.351	8.178	8.424	8.629	8.401	8.476	8.262	7.431	8.020	8.068	7.833	8.151	8.109	7.965	8.120	8.311	8.199	8.093	8.639
420.0	1601	1754	1816	1862	1951	2058	2126	2102	2050	2005	1965	1878	1761	1672	1564	1480	1416	1376	1340	1292	1253	1206	1162	1109	1037	954.2	862.7	785.7	709.2	661.7	537.2	391.8	296.3	225.8	168.0	133.5	153.4	253.4	609.3	3308	4617	224.7	10.74	5.438	4.732	4.445	4.486	4.232	4.720	4.360	4.627	5.878	6.024	6.468	6.750	7.100	7.710	7.930	8.314	8.287	8.262	8.294	8.652	8.148	7.963	7.650	7.565	7.782	7.597	7.831	7.827	7.895	7.844	7.912	7.854	8.032	8.933
425.0	1605	1703	1754	1809	1901	2006	2075	2084	2009	1971	1906	1814	1711	1616	1513	1434	1377	1347	1303	1266	1221	1189	1143	1093	1027	950.9	874.5	794.9	715.7	660.6	586.3	436.7	326.7	254.2	188.9	141.3	114.8	113.9	176.0	937.2	3820	3652	179.2	7.572	5.338	4.724	4.338	4.546	4.633	4.266	4.624	5.848	5.967	6.100	6.665	7.021	7.739	7.893	7.915	8.042	7.951	8.069	8.167	8.146	7.933	7.200	7.354	7.071	7.423	7.273	7.551	7.462	7.884	7.797	7.502	8.037	8.385
430.0	1688	1651	1694	1719	1813	1943	2001	2022	1967	1913	1836	1761	1657	1548	1455	1375	1323	1294	1255	1222	1180	1151	1108	1069	1009	944.2	872.8	803.3	735.4	663.9	598.3	501.9	379.7	288.5	220.9	169.3	128.6	100.8	92.87	247.5	1047	2824	2855	778.1	14.26	5.648	4.686	4.630	4.459	4.144	4.478	5.674	5.769	6.141	6.366	6.798	7.628	7.604	7.772	7.836	7.582	7.812	7.917	7.716	7.711	7.240	7.238	7.101	6.885	7.184	7.107	7.346	7.510	7.421	7.152	7.483	7.760
435.0	2260	1602	1621	1645	1765	1884	1946	1992	1922	1863	1808	1714	1594	1494	1399	1327	1278	1244	1216	1174	1140	1107	1069	1044	988.0	930.2	870.4	810.8	753.1	682.5	602.4	526.9	443.3	334.3	254.8	197.5	152.2	117.8	90.28	105.3	269.5	666.9	1736	4260	1223	16.81	5.774	5.130	4.643	4.121	4.388	5.373	5.616	6.218	6.148	6.923	7.583	7.221	7.504	7.468	7.457	7.746	8.005	7.516	7.517	7.044	7.103	6.820	7.141	6.819	6.982	7.015	7.471	7.009	6.822	7.501	7.664
440.0	3428	1670	1603	1623	1713	1816	1945	1946	1905	1839	1785	1665	1544	1449	1360	1288	1238	1206	1179	1145	1107	1076	1044	1014	970.9	918.8	862.7	809.7	759.2	692.0	615.6	529.3	464.8	374.9	280.6	221.2	173.1	133.6	100.4	83.87	104.0	180.7	453.1	2700	4226	211.7	10.78	5.897	4.954	4.331	4.249	5.254	5.673	5.961	6.256	6.675	7.250	7.150	7.476	7.640	7.619	7.534	7.344	7.486	7.039	7.112	6.598	6.844	6.771	6.384	6.644	6.870	6.899	6.725	6.744	7.022	7.462
445.0	4036	2107	1535	1576	1649	1775	1891	1916	1867	1796	1732	1631	1505	1400	1320	1248	1198	1169	1134	1109	1074	1047	1014	990.7	943.4	902.8	849.8	800.6	759.0	697.5	619.8	531.6	463.8	401.2	311.3	238.6	189.9	148.9	113.7	88.01	74.58	78.98	130.7	747.0	3354	3455	158.3	7.325	5.434	4.243	4.309	5.646	5.484	5.750	6.126	6.388	6.953	6.803	7.230	7.405	7.838	7.117	7.393	7.814	6.784	6.815	6.647	6.832	6.852	6.226	6.681	6.640	6.525	6.444	6.290	6.709	7.011
450.0	2935	3404	1620	1495	1576	1702	1802	1844	1806	1724	1656	1559	1422	1334	1246	1175	1134	1105	1077	1046	1010	981.1	961.2	935.6	896.9	857.7	815.5	773.5	737.8	687.1	617.9	534.1	457.9	400.5	340.4	265.1	207.1	164.8	129.5	100.7	80.24	66.19	66.03	194.8	909.7	2558	2493	705.7	12.82	4.994	4.597	5.512	5.317	5.566	5.954	6.004	6.761	6.876	7.170	7.211	7.034	7.157	7.326	7.241	6.722	6.545	6.233	6.297	6.416	6.157	6.359	6.325	6.368	6.339	6.253	6.486	6.578
455.0	1626	3709	2432	1394	1482	1595	1714	1761	1702	1635	1571	1470	1336	1236	1163	1092	1055	1031	1002	966.9	932.0	906.2	886.4	867.0	840.2	806.2	776.2	736.3	703.8	666.4	602.9	528.7	453.8	390.9	340.2	292.1	227.7	178.3	143.9	114.3	89.60	72.94	59.94	77.45	229.0	597.6	1409	3560	1026	13.39	5.278	5.674	5.359	5.662	5.710	5.570	6.400	6.276	6.753	6.877	6.720	7.004	7.265	6.793	6.546	6.289	5.965	5.677	5.987	5.950	5.877	6.051	6.113	5.801	6.019	6.162	6.013
460.0	1268	2784	3530	1419	1400	1514	1614	1671	1624	1564	1484	1392	1279	1175	1098	1024	987.2	960.7	936.9	911.8	874.5	852.7	833.7	815.8	791.2	766.1	735.1	703.1	677.2	642.6	583.9	515.4	445.2	384.0	329.6	297.0	243.7	188.6	150.7	122.7	98.37	79.34	62.41	55.09	79.91	155.0	358.2	2134	3376	160.2	9.884	5.820	5.031	5.362	5.567	5.512	5.999	6.097	6.580	6.597	6.348	6.778	6.797	6.397	5.919	5.964	5.678	5.689	5.694	5.851	5.642	5.649	5.575	5.586	5.448	5.741	5.925
465.0	1116	1752	3983	1855	1297	1420	1526	1579	1527	1478	1404	1321	1209	1106	1036	968.8	931.2	902.8	875.9	847.9	819.8	793.4	778.3	766.2	745.7	718.6	694.7	667.2	645.3	615.9	564.0	500.2	436.1	373.5	320.2	283.6	251.9	200.1	157.2	128.5	105.6	85.04	67.61	54.34	49.52	59.18	98.66	573.4	2573	2610	141.6	7.393	5.550	5.415	5.425	5.675	5.543	6.002	6.233	6.231	6.194	6.561	6.230	5.797	5.596	5.855	5.341	5.265	5.173	5.624	5.305	5.218	5.281	5.224	5.419	5.401	5.712
470.0	1019	1210	2724	3204	1342	1300	1400	1431	1414	1370	1303	1213	1109	1017	944.2	880.5	852.2	818.8	797.9	774.1	740.1	716.2	706.6	691.6	676.4	653.2	635.0	615.5	597.3	570.1	526.9	470.3	413.6	355.7	307.7	268.0	239.0	208.2	166.3	132.3	108.4	89.01	72.37	58.44	47.56	41.60	43.68	145.0	682.8	1848	1721	643.2	12.76	5.704	5.390	5.276	5.381	5.540	5.581	5.795	5.779	5.891	5.622	5.537	5.514	5.103	5.112	4.982	5.013	4.814	4.979	4.700	4.922	4.902	4.734	5.023	4.976
475.0	930.3	992.2	1404	3438	2154	1175	1262	1305	1277	1241	1187	1107	996.4	924.3	851.7	791.1	762.2	741.5	714.6	691.1	657.1	640.9	627.5	614.7	606.2	585.8	570.8	560.0	541.9	522.8	482.5	437.5	383.0	334.9	291.6	251.8	221.9	197.3	172.7	136.9	112.2	91.63	76.20	62.42	50.31	40.30	33.99	51.35	166.9	426.8	868.3	2324	845.7	15.52	5.505	5.131	5.134	5.177	5.295	5.292	4.987	5.222	5.309	4.927	4.789	4.738	4.646	4.594	4.505	4.314	4.126	4.308	4.371	4.259	4.417	4.787	4.615
480.0	894.2	908.9	995.2	2458	3289	1205	1168	1215	1196	1156	1097	1031	931.5	864.2	792.8	729.4	705.5	681.2	659.7	630.5	604.7	589.3	576.7	566.3	559.6	540.9	527.2	516.4	505.2	489.0	456.0	410.6	361.8	319.9	278.9	242.5	210.9	189.1	171.0	143.2	113.5	93.95	78.82	64.63	52.89	43.24	33.82	31.69	53.29	107.5	215.6	1256	2365	191.6	10.40	5.346	4.901	4.936	5.020	4.864	4.878	4.870	4.950	4.512	4.659	4.487	4.420	4.195	4.152	4.081	3.904	4.031	4.204	3.966	3.739	4.058	4.495
485.0	826.2	826.6	881.0	1442	3771	1661	1098	1130	1128	1088	1045	969.1	876.9	808.3	739.3	692.9	659.5	635.2	616.2	589.1	562.3	545.5	538.0	529.6	518.7	505.1	490.4	484.1	473.5	462.3	431.0	388.8	345.7	306.8	268.7	234.5	205.1	181.8	163.4	146.8	117.9	95.22	80.30	66.73	55.99	45.73	36.06	29.16	29.78	37.59	59.39	331.3	1724	1577	155.8	6.442	5.331	4.968	4.670	4.664	4.594	4.882	4.715	4.375	4.510	4.099	4.069	4.077	4.049	3.874	3.685	4.005	3.883	3.669	3.537	3.762	3.981
490.0	718.2	809.5	797.8	938.5	2544	3064	1151	1045	1036	1004	962.7	898.7	817.7	745.3	686.7	635.7	606.8	580.7	563.3	538.4	516.2	501.5	494.4	486.2	474.9	462.4	451.6	447.4	438.6	427.2	401.3	364.4	324.7	290.3	256.1	224.6	196.7	173.4	153.5	140.1	123.2	100.6	82.90	68.95	57.99	48.48	39.19	31.14	26.00	24.17	25.83	84.62	451.9	1211	1691	625.5	13.55	5.248	4.743	4.540	4.550	4.592	4.392	4.096	4.123	3.814	3.827	3.750	3.931	3.564	3.570	3.546	3.635	3.419	3.557	3.516	3.508
495.0	652.1	732.6	731.8	757.7	1222	3418	1992	949.4	947.4	920.4	878.9	819.7	746.0	691.7	620.1	581.5	549.9	522.7	504.8	484.3	466.1	452.5	442.0	434.9	426.2	416.6	406.8	401.7	398.2	389.2	368.4	333.5	300.5	269.9	239.3	210.9	186.4	165.3	146.5	129.1	118.4	105.5	86.06	69.45	59.87	49.84	41.56	33.65	27.59	22.75	19.94	31.13	110.5	281.5	853.1	2181	879.5	16.31	5.193	4.653	4.398	4.012	4.088	3.826	3.809	3.608	3.647	3.469	3.468	3.289	3.300	3.322	3.340	3.337	3.253	3.161	3.390
500.0	574.6	658.9	714.2	682.8	795.7	2378	3175	966.0	873.7	840.9	813.8	758.5	695.2	635.8	570.1	537.2	503.4	479.5	460.4	441.3	427.7	413.3	402.1	397.3	391.0	383.9	372.8	369.3	367.3	357.7	340.1	309.8	281.0	251.1	224.0	198.5	176.8	157.1	139.9	121.3	109.7	104.7	87.99	70.96	61.02	50.51	42.83	34.59	28.50	23.74	19.21	19.52	35.24	72.32	210.6	1192	2204	207.0	9.876	4.595	4.159	4.143	3.887	3.623	3.401	3.387	3.349	3.213	3.268	3.079	2.862	3.073	3.014	2.874	3.249	3.113	3.068
505.0	513.0	591.9	658.7	623.7	669.2	1290	3805	1367	810.4	783.6	745.8	702.1	637.2	577.4	529.9	491.1	460.8	437.6	423.0	407.2	389.1	377.5	372.4	364.5	359.1	350.2	343.8	337.8	336.1	328.8	311.0	284.4	260.6	234.2	208.4	186.9	166.7	149.6	132.4	114.6	102.6	97.24	88.50	72.85	59.31	50.33	41.78	35.09	29.26	24.27	20.04	17.45	19.26	26.10	55.86	311.4	1527	1659	162.8	5.641	4.168	3.905	3.503	3.443	3.281	2.954	3.170	2.948	2.993	2.877	2.791	2.768	2.931	2.802	2.928	2.714	2.691
510.0	453.4	498.6	564.2	579.9	570.7	759.9	2538	2893	848.1	695.0	671.1	634.2	571.6	517.9	466.4	431.8	407.2	384.2	371.0	356.9	342.5	332.1	325.7	319.1	312.7	307.1	301.5	298.2	295.9	289.7	276.9	253.7	229.7	209.2	187.7	167.3	150.7	135.2	121.7	105.9	94.92	87.13	81.60	73.63	60.22	49.17	41.97	34.93	29.40	24.33	20.76	17.87	16.34	16.62	22.10	78.26	397.4	1096	1406	469.7	12.00	3.921	3.374	3.230	2.982	2.813	2.828	2.724	2.688	2.632	2.430	2.459	2.755	2.431	2.481	2.536	2.427
515.0	403.0	436.1	472.6	530.4	514.2	559.6	1074	3556	1668	610.8	589.3	547.4	499.9	450.3	411.8	378.5	354.6	338.2	323.5	310.9	295.9	287.2	280.9	274.2	272.2	267.0	261.1	258.1	256.7	251.8	243.1	223.8	202.2	183.7	164.2	149.0	134.5	122.0	109.0	97.17	86.41	78.08	71.80	69.66	60.39	48.83	41.10	34.07	29.19	24.43	20.87	18.49	16.11	14.64	14.69	26.08	96.29	253.0	652.3	1542	217.4	12.57	3.491	3.128	2.703	2.634	2.706	2.580	2.456	2.367	2.297	2.263	2.216	2.289	2.115	2.334	2.207
520.0	357.0	393.4	406.9	487.0	481.0	475.8	625.5	2518	3023	636.5	532.9	497.8	448.3	408.8	368.1	341.8	314.2	302.0	288.0	276.2	263.6	257.2	252.2	245.7	241.9	238.4	234.0	231.5	229.3	226.4	217.7	200.6	181.9	165.3	148.0	135.8	122.2	111.9	99.85	88.27	80.99	72.12	65.52	62.43	59.13	50.13	39.97	33.29	28.55	24.09	20.94	18.16	15.91	14.13	13.07	14.49	29.55	63.27	160.2	868.9	1370	185.2	5.464	2.989	2.723	2.479	2.417	2.217	2.359	1.928	2.085	2.063	2.014	1.894	1.985	1.951	1.944
525.0	320.0	349.8	377.5	415.8	462.4	438.4	494.2	1230	3920	1047	480.6	447.8	412.0	373.8	332.2	310.6	286.9	271.1	261.2	249.8	238.1	231.3	225.1	221.4	218.5	215.8	211.1	208.9	207.6	202.9	194.9	183.7	167.2	151.3	136.0	123.4	112.1	102.5	91.18	82.32	75.42	66.81	61.25	56.39	53.89	50.50	40.10	33.10	27.66	23.91	20.55	18.55	16.42	14.49	12.93	12.47	14.55	20.88	42.00	228.3	1021	1142	28.42	3.397	2.655	2.288	2.070	1.987	1.983	1.807	1.978	1.824	1.757	1.836	1.859	1.675	1.757
530.0	280.7	296.6	319.7	333.2	403.2	402.2	412.6	599.0	2635	2676	539.7	392.3	362.9	326.0	294.4	270.6	251.7	239.2	229.2	218.1	207.3	201.1	195.5	192.6	189.2	185.8	182.6	180.2	180.4	176.7	170.6	158.6	145.4	131.1	119.2	108.6	99.65	89.68	82.50	74.03	67.18	60.57	55.88	50.59	47.70	45.75	40.04	32.95	26.56	22.76	19.86	17.87	16.19	14.55	12.85	11.73	11.11	11.51	15.33	56.09	267.4	770.4	900.9	123.4	8.689	2.296	2.172	2.025	1.884	1.822	1.697	1.603	1.658	1.514	1.512	1.608	1.615
535.0	235.1	252.2	265.8	276.4	324.8	379.5	347.5	402.4	958.8	3649	1339	340.1	313.3	283.7	256.2	235.5	216.9	207.9	193.4	188.2	177.5	172.2	168.3	165.2	161.0	157.9	156.0	153.5	153.9	153.7	148.1	136.9	125.9	113.9	104.2	94.83	88.06	78.80	72.37	65.62	60.07	54.73	49.50	46.12	42.16	39.09	37.88	32.93	25.83	21.88	18.85	16.64	15.01	14.05	13.00	11.58	10.02	9.644	9.239	17.71	63.85	177.9	463.0	999.8	195.8	7.058	2.013	1.999	1.657	1.459	1.501	1.553	1.585	1.416	1.357	1.294	1.426
540.0	219.3	227.1	253.7	238.8	278.0	359.6	324.4	335.1	464.7	2543	2911	359.5	284.9	254.1	230.5	208.6	196.1	185.2	172.9	166.1	158.1	153.2	151.4	148.2	143.3	140.3	138.1	137.3	137.7	136.6	130.8	122.9	112.5	102.3	93.81	85.38	78.69	71.66	66.19	60.53	54.72	49.39	45.19	42.11	38.95	35.45	33.48	31.57	25.58	20.97	17.55	15.87	14.37	13.17	12.23	11.55	10.05	9.135	8.064	9.089	18.37	43.45	115.3	630.1	912.8	30.45	2.858	1.756	1.584	1.544	1.437	1.370	1.342	1.381	1.214	1.201	1.273
545.0	209.8	211.5	221.6	219.8	240.9	316.1	310.1	294.9	333.3	1109	3964	685.2	257.4	231.0	208.2	190.6	175.5	166.3	157.1	150.2	143.2	137.1	136.1	133.1	130.5	126.3	124.3	123.4	124.0	123.2	116.0	109.4	103.0	93.18	84.57	78.20	72.56	65.41	60.31	55.44	50.02	45.31	42.20	39.36	35.55	32.59	29.48	29.31	25.97	20.73	16.82	15.20	13.71	12.83	12.12	11.13	9.867	8.435	7.500	6.779	8.271	13.59	28.98	170.8	752.5	709.5	25.57	1.986	1.638	1.386	1.418	1.299	1.180	1.319	1.232	1.104	1.156
550.0	179.5	191.0	196.2	194.8	207.7	246.0	291.8	257.1	266.8	453.4	2605	2271	292.7	199.5	180.1	165.1	151.6	144.1	135.1	129.6	123.7	118.8	118.0	114.5	112.4	109.3	107.6	107.2	106.7	106.4	101.4	95.24	88.55	81.26	73.45	68.34	62.41	57.55	53.10	48.88	43.95	40.65	37.64	34.73	31.76	29.39	26.30	25.28	24.05	20.46	16.50	14.27	12.90	12.31	11.39	10.26	9.507	8.113	7.098	6.254	5.826	6.450	9.653	40.91	203.5	545.4	603.6	112.0	5.608	1.427	1.282	1.223	1.138	1.045	1.072	1.049	0.971
555.0	168.7	170.4	172.2	166.4	176.9	196.8	254.6	240.7	220.8	271.4	836.2	3494	895.5	172.9	156.1	143.2	131.4	124.3	115.0	111.6	106.4	102.4	99.24	97.39	95.39	92.68	92.43	90.46	92.09	89.24	87.39	81.15	76.06	68.85	63.91	57.85	54.17	49.94	46.25	42.51	38.64	34.88	32.76	30.85	28.52	25.70	24.08	21.04	20.36	19.44	16.24	13.71	12.05	10.98	10.59	9.536	8.705	7.900	7.102	5.540	5.104	4.670	5.037	11.79	47.74	126.1	346.7	691.0	158.4	3.508	1.367	1.173	0.979	0.874	0.989	0.953	0.885
560.0	155.4	155.4	149.4	154.3	151.9	168.0	203.0	236.8	195.4	213.7	343.1	2495	2283	180.6	138.0	126.5	118.0	106.4	101.8	96.56	91.52	89.32	86.02	83.42	82.44	80.95	81.24	80.82	80.21	77.42	77.31	70.59	65.47	60.67	55.50	50.66	47.65	44.00	40.88	38.53	34.08	32.11	29.30	27.65	25.17	23.07	21.11	18.83	17.40	17.20	15.83	13.22	11.12	10.34	9.843	9.059	8.415	7.226	6.753	5.577	5.270	4.202	3.912	5.233	13.34	30.21	88.59	474.3	602.3	28.34	1.657	1.054	0.962	0.855	0.926	0.809	0.850
565.0	142.4	142.2	135.2	139.2	136.5	142.7	170.3	224.9	180.9	184.9	214.5	1020	3373	393.9	121.9	111.3	102.6	93.88	89.86	84.77	79.01	78.54	75.84	75.35	72.85	71.79	72.20	69.75	70.43	68.37	68.07	62.59	58.48	53.55	49.85	45.11	42.02	38.41	36.71	33.51	30.60	28.55	26.36	24.66	22.43	20.78	18.93	17.06	15.50	14.82	14.69	12.70	10.74	9.470	8.998	8.342	7.501	6.491	5.996	5.650	4.534	4.067	3.664	3.572	5.233	8.794	21.74	133.7	541.4	432.4	19.81	1.174	0.882	0.925	0.828	0.775	0.751
570.0	129.1	133.8	116.5	114.4	110.1	117.9	133.2	181.9	182.1	154.8	164.0	350.0	2323	1715	122.9	91.30	83.23	77.17	74.07	70.35	65.83	63.92	62.98	61.10	59.34	58.89	58.39	57.01	57.11	55.85	54.30	51.68	47.80	43.39	40.30	37.33	34.28	31.91	29.87	27.16	25.28	23.29	21.87	20.64	19.24	17.52	15.80	14.80	13.04	11.90	11.71	11.55	9.993	8.582	7.639	7.419	6.630	5.740	5.242	5.031	4.347	3.786	3.271	2.923	3.206	3.804	6.690	31.42	151.3	373.3	331.8	80.06	2.201	0.831	0.727	0.704	0.598
575.0	121.0	118.1	105.8	90.17	94.48	93.36	107.4	128.9	171.5	134.6	135.1	174.0	693.6	2835	556.0	73.55	66.67	61.81	59.75	53.59	52.02	49.99	49.51	46.75	46.79	46.77	44.23	44.31	45.09	43.76	43.19	38.93	37.30	34.73	31.33	29.38	27.46	24.50	23.31	21.47	20.18	18.68	17.67	16.70	15.45	13.89	12.86	12.00	10.46	9.535	8.846	8.902	8.827	7.616	6.746	6.124	5.735	4.803	4.583	3.887	3.881	3.486	2.937	2.561	2.635	2.575	2.934	8.642	34.96	87.03	232.3	396.8	28.89	1.316	0.687	0.695	0.555
580.0	116.1	101.7	96.43	80.73	78.72	82.49	91.30	101.8	146.9	132.1	122.4	127.8	234.4	2036	1627	72.88	54.05	51.44	47.78	44.62	43.26	41.75	40.38	39.02	38.01	37.28	35.70	35.30	37.01	35.64	35.42	31.43	30.02	27.73	25.36	24.02	22.52	20.37	19.31	18.44	16.51	15.40	13.84	13.76	12.68	11.70	11.16	9.846	8.593	7.934	7.053	6.971	7.620	7.077	5.868	5.258	4.809	4.441	3.952	3.562	3.283	3.122	2.919	2.367	2.315	1.841	1.956	3.423	9.065	20.47	61.00	295.7	246.0	20.99	0.761	0.651	0.512
585.0	109.6	109.8	88.63	66.71	64.30	68.56	72.98	83.56	122.8	142.5	111.9	107.2	124.5	812.0	2586	108.6	45.23	42.78	39.95	36.34	35.31	34.47	32.05	32.53	31.23	30.78	29.68	29.45	29.51	29.77	29.15	27.05	24.97	22.78	21.35	19.76	18.24	17.24	16.18	15.18	13.61	13.13	11.44	11.52	10.53	9.821	8.996	8.170	7.153	6.914	6.241	5.901	6.028	6.226	5.617	4.625	4.253	3.876	3.401	3.196	2.974	2.601	2.723	2.393	2.054	1.702	1.729	1.927	3.161	5.595	14.63	87.84	292.5	194.4	11.20	0.511	0.461
590.0	103.1	93.98	78.56	60.89	54.11	54.40	58.79	67.53	86.33	137.9	112.2	99.19	90.62	239.2	1800	1133	52.05	32.67	31.42	28.67	27.05	26.34	25.09	24.89	23.77	23.45	22.45	22.55	22.84	22.64	21.73	20.72	19.31	17.19	16.48	15.25	14.26	13.73	12.30	11.58	10.55	9.991	9.406	9.087	8.339	7.828	7.131	6.490	5.897	5.315	4.883	4.527	4.474	4.740	4.807	4.242	3.487	3.048	2.694	2.665	2.363	2.208	2.081	2.166	1.860	1.504	1.537	1.399	1.642	2.078	3.927	20.35	85.92	195.4	169.8	16.87	0.875
595.0	83.08	91.40	66.97	52.59	44.51	45.09	46.38	56.08	68.70	106.9	123.6	93.24	79.72	96.51	506.9	2006	321.9	25.80	23.35	22.06	21.14	20.66	19.60	18.86	18.27	18.47	17.21	17.08	17.50	17.43	16.27	16.22	14.51	13.07	13.08	11.76	10.85	10.47	9.419	8.736	8.134	7.411	7.249	6.903	6.491	5.933	5.447	5.037	4.452	4.235	3.628	3.687	3.421	3.436	3.755	3.547	3.204	2.480	2.113	2.312	1.893	1.749	1.533	1.776	1.749	1.659	1.226	1.311	1.155	1.220	1.442	5.117	19.64	46.26	124.3	182.7	23.02
600.0	78.64	85.63	66.03	43.54	40.61	36.93	40.24	47.48	56.22	84.99	123.7	91.90	74.38	63.93	142.7	1486	721.1	28.21	19.53	18.14	17.19	17.04	15.76	15.59	15.09	14.83	14.07	13.76	14.59	13.99	13.60	13.08	11.91	10.74	10.40	9.910	8.901	8.388	7.864	7.137	6.520	6.257	5.771	5.669	5.394	4.742	4.699	4.187	3.811	3.540	2.976	2.940	2.673	2.750	2.942	3.083	3.027	2.347	1.728	1.803	1.602	1.556	1.382	1.508	1.472	1.426	1.037	0.939	0.978	0.938	0.989	1.723	4.858	10.85	33.61	153.1	140.0
605.0	81.30	80.60	59.31	42.92	34.69	31.80	37.20	45.96	52.66	73.02	116.4	93.82	69.89	54.82	57.91	592.6	1635	70.87	16.32	15.52	15.01	14.06	13.60	13.07	12.77	12.38	12.08	12.22	12.00	12.15	10.96	10.98	10.25	9.275	8.928	8.256	7.901	6.931	6.504	6.203	5.488	5.198	5.106	4.801	4.647	4.330	3.832	3.683	3.256	2.901	2.656	2.496	2.226	2.416	2.242	2.525	2.682	2.130	1.832	1.642	1.444	1.333	1.333	1.252	1.216	1.309	1.242	0.971	0.953	0.881	0.832	0.963	1.612	2.895	7.886	47.96	157.3
610.0	76.55	72.93	56.12	39.88	30.21	30.97	37.44	41.23	50.41	64.28	94.52	105.2	70.26	49.70	38.53	158.5	1218	786.7	23.69	12.84	12.00	11.43	11.08	10.72	10.15	9.715	9.782	9.425	9.464	9.257	8.859	8.867	8.164	7.989	7.498	6.798	6.299	5.811	5.333	5.006	4.409	4.262	4.126	3.718	3.656	3.441	3.039	2.948	2.686	2.454	2.263	1.950	1.846	1.884	1.795	1.924	2.128	1.893	1.659	1.333	1.285	1.152	1.045	1.072	0.967	1.062	1.104	0.951	0.789	0.829	0.740	0.678	0.760	1.065	2.094	11.14	47.77
615.0	73.83	69.48	49.72	34.63	28.89	26.64	32.10	38.59	45.51	58.66	75.61	105.5	78.54	48.12	32.62	52.19	346.0	1396	208.4	10.09	9.796	8.784	8.687	8.655	7.884	7.514	7.690	7.271	7.403	7.481	7.098	7.120	6.523	6.181	5.927	5.592	5.232	4.951	4.396	3.792	3.650	3.621	3.060	3.014	2.996	2.709	2.322	2.184	2.080	1.900	1.768	1.657	1.462	1.584	1.489	1.372	1.520	1.590	1.638	1.192	1.013	1.024	0.929	0.889	0.825	0.990	0.953	0.977	0.831	0.709	0.636	0.484	0.551	0.697	0.830	2.792	10.92
620.0	64.13	68.06	48.59	33.79	26.52	26.94	30.27	36.33	43.76	56.51	67.99	91.65	87.41	47.65	30.20	27.22	91.82	1026	558.0	11.27	8.283	7.472	7.012	7.203	6.782	6.448	6.158	6.410	6.023	6.063	5.955	6.082	5.489	5.157	4.715	4.651	4.056	3.832	3.465	3.110	2.729	2.853	2.852	2.424	2.411	2.152	2.005	1.759	1.781	1.530	1.325	1.366	1.266	1.319	1.134	1.120	1.216	1.258	1.443	1.122	0.900	0.787	0.820	0.756	0.774	0.811	0.789	0.912	0.992	0.635	0.621	0.541	0.458	0.534	0.452	0.901	2.745
625.0	63.53	58.96	47.05	32.56	23.43	24.95	27.32	34.83	41.85	51.45	64.26	78.64	89.96	49.29	30.53	21.80	31.69	412.0	1191	45.84	7.259	6.484	5.958	5.778	5.478	5.212	5.208	5.440	5.084	4.967	4.927	5.145	4.534	4.455	4.019	3.920	3.454	3.281	3.147	2.744	2.499	2.140	2.191	1.982	2.075	1.807	1.796	1.617	1.522	1.333	1.353	1.139	1.174	1.140	1.031	1.036	1.005	0.999	1.158	1.191	0.838	0.726	0.750	0.705	0.790	0.685	0.613	0.812	0.890	0.688	0.629	0.521	0.473	0.422	0.327	0.399	0.836
630.0	64.87	52.96	44.98	30.11	21.65	22.81	24.62	31.04	38.01	48.50	58.29	67.22	81.70	56.89	29.84	19.06	17.77	106.0	901.8	558.4	11.53	5.601	5.137	4.603	4.591	4.176	4.283	4.022	3.904	3.963	3.956	3.764	3.433	3.418	3.225	3.016	2.804	2.539	2.318	2.232	2.030	1.850	1.808	1.660	1.715	1.597	1.449	1.376	1.243	1.129	0.928	0.942	0.930	0.834	0.821	0.847	0.864	0.790	0.814	0.974	0.891	0.711	0.706	0.596	0.650	0.633	0.625	0.567	0.657	0.595	0.641	0.407	0.373	0.394	0.287	0.292	0.425
635.0	61.71	49.80	43.79	27.05	22.12	22.87	22.23	29.39	36.05	45.22	54.53	57.70	64.10	65.42	30.38	18.74	14.12	31.29	253.5	1035	57.81	4.456	4.101	3.650	3.629	3.351	3.295	3.287	3.334	3.100	2.651	3.063	2.823	2.524	2.575	2.295	2.114	2.022	1.867	1.729	1.564	1.615	1.412	1.277	1.208	1.209	1.166	1.118	0.854	0.851	0.701	0.758	0.786	0.701	0.674	0.709	0.725	0.581	0.593	0.664	0.722	0.578	0.568	0.550	0.462	0.501	0.734	0.489	0.500	0.459	0.645	0.509	0.394	0.339	0.244	0.295	0.283
640.0	45.10	46.20	45.54	25.65	21.66	21.05	22.38	27.43	32.10	39.82	49.94	56.82	54.85	61.26	34.59	18.93	14.14	14.48	63.15	793.5	426.2	5.965	3.742	3.151	2.819	2.724	2.752	2.566	2.708	2.545	2.655	2.556	2.561	2.163	2.139	2.100	1.890	1.828	1.634	1.404	1.379	1.284	1.228	1.067	1.025	0.933	1.008	0.962	0.826	0.685	0.666	0.763	0.674	0.643	0.599	0.593	0.715	0.530	0.510	0.570	0.555	0.547	0.529	0.517	0.439	0.564	0.523	0.540	0.446	0.445	0.454	0.604	0.394	0.313	0.325	0.250	0.197
645.0	47.51	46.41	43.21	23.74	19.98	18.19	20.30	25.40	32.11	36.84	49.55	53.32	52.26	52.93	41.50	19.05	13.00	10.77	20.00	336.0	876.6	34.53	3.371	2.921	2.784	2.544	2.279	2.289	2.294	2.155	2.194	2.389	2.127	1.987	1.776	1.682	1.509	1.394	1.415	1.165	1.216	1.141	1.108	0.905	0.885	0.788	0.851	0.705	0.725	0.623	0.528	0.699	0.538	0.476	0.492	0.513	0.520	0.487	0.395	0.470	0.469	0.582	0.562	0.442	0.490	0.541	0.496	0.533	0.423	0.413	0.455	0.537	0.436	0.302	0.334	0.242	0.239
650.0	47.51	50.24	43.13	30.71	19.71	18.54	20.57	24.75	31.25	38.56	47.84	51.83	49.25	47.90	44.22	20.71	13.38	9.716	9.948	90.85	871.4	254.7	3.542	2.578	2.356	2.314	2.092	1.993	1.908	1.763	1.810	1.815	1.774	1.691	1.534	1.444	1.311	1.301	1.225	1.099	1.084	1.075	1.155	0.784	0.861	0.826	0.702	0.628	0.652	0.593	0.499	0.524	0.446	0.437	0.479	0.424	0.490	0.430	0.393	0.477	0.387	0.497	0.507	0.418	0.385	0.452	0.475	0.415	0.420	0.465	0.337	0.421	0.466	0.382	0.338	0.256	0.208
