Sample:	'1
File name:	S2025042904科瑞生物二沉池.FD3
Run date:	'14:33:51, 05/19/2025
Operator:	Administrator
Comment:	'

Instrument
Model:	F-2700 FL Spectrophotometer
Serial number:	23B8-004
ROM Version:	4J14000 07

Instrument parameters
Measurement type:	3-D scan
Data mode:	Fluorescence
EX  Start WL:	220.0 nm
EX  End WL:	600.0 nm
EX Sampling interval:	5.0 nm
EM  Start WL:	230.0 nm
EM  End WL:	650.0 nm
EM Sampling interval:	5.0 nm
Scan speed:	12000 nm/min
EX Slit:	5.0 nm
EM Slit:	5.0 nm
PMT Voltage:	700 V
Response:	Auto 
Corrected spectra:	Off
Contour interval:	50.000

Peak integration
Integration method:	Rectangular
Sensitivity:	1
Threshold:	1.000

Peaks
No.	ApexEX/EM(nm)	Height(Data)
1	225.0/605.0	30.17
2	230.0/630.0	27.49
3	230.0/640.0	28.91
4	245.0/395.0	1575
5	255.0/280.0	557.6
6	260.0/290.0	541.7
7	260.0/400.0	1519
8	260.0/575.0	129.6
9	265.0/295.0	723.8
10	265.0/590.0	105.7
11	270.0/300.0	974.5
12	270.0/385.0	1580
13	270.0/600.0	96.81
14	275.0/310.0	1106
15	275.0/380.0	1574
16	275.0/610.0	84.69
17	280.0/315.0	1140
18	280.0/625.0	76.66
19	285.0/320.0	1134
20	285.0/640.0	59.03
21	315.0/390.0	1343
22	320.0/395.0	1342
23	505.0/275.0	3.045
24	510.0/280.0	3.610
25	520.0/285.0	3.488
26	530.0/290.0	3.410
27	545.0/300.0	5.143
28	550.0/305.0	5.966
29	570.0/315.0	6.191

Data points
	220.0	225.0	230.0	235.0	240.0	245.0	250.0	255.0	260.0	265.0	270.0	275.0	280.0	285.0	290.0	295.0	300.0	305.0	310.0	315.0	320.0	325.0	330.0	335.0	340.0	345.0	350.0	355.0	360.0	365.0	370.0	375.0	380.0	385.0	390.0	395.0	400.0	405.0	410.0	415.0	420.0	425.0	430.0	435.0	440.0	445.0	450.0	455.0	460.0	465.0	470.0	475.0	480.0	485.0	490.0	495.0	500.0	505.0	510.0	515.0	520.0	525.0	530.0	535.0	540.0	545.0	550.0	555.0	560.0	565.0	570.0	575.0	580.0	585.0	590.0	595.0	600.0
230.0	19.45	177.3	896.4	592.0	60.43	9.747	7.256	6.862	5.802	5.792	5.277	4.881	4.418	3.671	3.328	2.865	2.204	2.274	2.068	1.859	1.629	1.544	1.475	1.369	1.200	1.176	0.993	0.983	0.968	0.925	0.857	0.788	0.758	0.677	0.632	0.601	0.567	0.542	0.503	0.453	0.414	0.426	0.407	0.386	0.371	0.349	0.375	0.931	2.266	3.275	2.465	0.821	0.320	0.275	0.284	0.268	0.271	0.280	0.280	0.271	0.281	0.286	0.256	0.277	0.244	0.287	0.256	0.269	0.244	0.273	0.262	0.282	0.273	0.284	0.277	0.266	0.269
235.0	25.89	64.58	785.7	2808	654.3	135.8	10.09	7.674	6.702	6.430	5.482	5.671	4.820	3.510	3.961	2.947	2.489	2.428	2.130	1.836	1.659	1.755	1.429	1.298	1.319	1.161	1.036	1.065	0.851	1.047	0.861	0.719	0.677	0.740	0.654	0.609	0.582	0.522	0.466	0.411	0.510	0.510	0.389	0.418	0.424	0.361	0.391	0.438	1.058	3.101	7.962	12.52	8.195	2.147	0.343	0.287	0.277	0.340	0.289	0.287	0.262	0.278	0.236	0.324	0.258	0.243	0.319	0.300	0.256	0.297	0.269	0.261	0.266	0.276	0.269	0.259	0.214
240.0	45.47	53.13	261.2	2755	5030	553.4	73.91	11.31	8.369	6.988	7.152	5.792	5.877	4.383	4.042	3.295	2.774	2.296	2.209	1.956	1.950	1.819	1.506	1.477	1.379	1.254	1.158	1.208	0.927	1.092	0.898	0.828	0.730	0.658	0.724	0.593	0.553	0.576	0.468	0.446	0.526	0.500	0.514	0.387	0.414	0.420	0.389	0.451	0.492	1.134	4.207	15.14	24.17	20.26	8.816	1.634	0.363	0.361	0.340	0.276	0.352	0.300	0.313	0.315	0.306	0.289	0.370	0.262	0.253	0.290	0.302	0.294	0.289	0.278	0.255	0.250	0.289
245.0	48.82	78.22	97.24	986.1	6517	6937	435.9	32.27	11.58	9.287	8.242	6.545	5.988	5.293	4.140	3.318	2.648	2.580	2.270	1.939	1.786	1.749	1.583	1.507	1.280	1.366	1.271	1.210	0.962	1.055	0.950	0.897	0.781	0.621	0.739	0.608	0.582	0.565	0.594	0.434	0.469	0.558	0.465	0.475	0.517	0.441	0.408	0.541	0.396	0.496	1.218	5.060	16.10	33.54	29.12	19.76	6.748	0.863	0.383	0.313	0.276	0.278	0.459	0.352	0.361	0.277	0.356	0.288	0.376	0.304	0.329	0.289	0.292	0.240	0.267	0.281	0.346
250.0	43.09	69.39	125.1	291.3	2114	6744	9184	1558	115.5	14.50	10.99	8.729	7.200	5.245	4.708	3.700	3.239	2.662	2.401	2.222	2.023	1.884	1.671	1.608	1.395	1.476	1.287	1.232	0.953	1.133	1.005	0.875	0.799	0.735	0.723	0.628	0.684	0.587	0.554	0.581	0.524	0.498	0.545	0.499	0.502	0.417	0.449	0.545	0.627	0.667	0.699	1.458	4.064	10.38	19.53	34.42	39.49	42.40	15.70	6.361	0.868	0.374	0.426	0.361	0.332	0.312	0.337	0.355	0.351	0.325	0.347	0.339	0.343	0.289	0.323	0.346	0.299
255.0	50.82	48.63	103.1	254.3	564.6	1690	7140	9999.9	2247	130.4	16.87	12.45	9.298	7.367	5.759	4.019	3.448	3.190	2.701	2.450	2.249	1.941	1.845	1.622	1.602	1.547	1.493	1.388	1.053	1.114	1.251	0.939	0.811	0.772	0.692	0.635	0.675	0.658	0.588	0.566	0.479	0.546	0.497	0.509	0.590	0.422	0.398	0.510	0.485	0.767	0.998	1.301	1.470	2.711	4.784	8.418	15.21	40.82	74.32	75.59	24.28	6.738	0.717	0.511	0.474	0.338	0.379	0.419	0.365	0.368	0.305	0.334	0.379	0.322	0.385	0.353	0.296
260.0	51.35	38.82	61.37	227.7	346.4	457.8	2159	9999.9	9999.9	1700	69.96	17.13	11.96	9.960	6.643	5.123	4.145	3.504	3.135	2.704	2.373	2.238	1.960	1.769	1.789	1.535	1.605	1.318	1.241	1.237	1.148	1.046	0.930	0.724	0.904	0.907	0.632	0.695	0.671	0.571	0.580	0.555	0.551	0.564	0.516	0.505	0.393	0.517	0.440	0.466	0.762	1.501	1.615	1.381	1.584	2.292	3.886	10.89	32.28	72.74	98.60	31.85	18.97	3.303	0.559	0.494	0.489	0.441	0.367	0.438	0.414	0.333	0.336	0.354	0.415	0.417	0.330
265.0	58.60	42.09	46.97	120.9	368.5	308.4	559.4	3668	9999.9	9999.9	1171	32.36	16.47	11.78	8.157	6.137	4.639	3.899	3.472	2.943	2.811	2.465	2.067	1.928	1.799	1.747	1.641	1.426	1.373	1.316	1.221	1.195	1.043	0.876	0.949	0.813	0.784	0.773	0.751	0.650	0.542	0.532	0.590	0.497	0.520	0.505	0.489	0.514	0.426	0.410	0.491	0.981	1.560	2.043	1.665	1.157	1.388	2.948	7.893	21.28	55.83	96.33	117.8	29.45	12.77	1.334	0.505	0.465	0.451	0.466	0.416	0.453	0.413	0.399	0.429	0.397	0.329
270.0	65.97	48.69	44.16	66.30	214.5	414.9	367.0	912.1	4104	9999.9	9999.9	3873	72.22	17.93	11.86	8.086	6.728	4.768	4.367	3.434	3.074	2.759	2.423	2.234	1.922	1.794	1.767	1.517	1.549	1.492	1.301	1.246	1.181	0.913	0.981	0.828	0.824	0.772	0.749	0.734	0.634	0.554	0.635	0.529	0.614	0.527	0.498	0.461	0.462	0.435	0.451	0.580	0.864	1.350	2.048	2.207	1.884	1.639	2.382	5.279	13.47	28.44	60.75	85.29	111.2	87.76	18.69	9.423	1.389	0.621	0.499	0.469	0.490	0.439	0.440	0.462	0.422
275.0	82.19	65.10	60.72	60.17	112.2	256.9	542.1	437.0	991.0	2754	9999.9	9999.9	1287	70.09	19.15	12.40	8.469	7.053	5.345	3.960	3.612	3.408	2.875	2.272	2.304	1.914	2.083	1.458	1.654	1.673	1.462	1.443	1.227	1.090	1.049	0.815	0.907	0.788	0.756	0.717	0.676	0.625	0.671	0.638	0.718	0.611	0.552	0.559	0.576	0.501	0.547	0.530	0.657	0.937	1.100	1.597	2.595	3.045	2.365	1.899	3.669	6.994	14.05	19.99	34.60	77.98	145.1	155.6	29.45	10.74	1.102	0.622	0.610	0.560	0.459	0.549	0.508
280.0	88.81	80.06	78.59	71.74	97.39	161.4	406.6	557.6	369.5	705.2	3560	9999.9	9999.9	917.7	38.45	16.33	10.51	8.864	6.639	4.895	4.339	3.627	3.097	2.739	2.412	2.293	2.189	1.693	1.789	1.649	1.687	1.503	1.225	1.241	1.059	0.968	1.036	0.888	0.793	0.827	0.724	0.685	0.637	0.692	0.658	0.678	0.671	0.625	0.617	0.581	0.520	0.629	0.621	0.752	0.805	1.007	1.439	2.231	3.610	2.687	1.835	2.311	3.866	5.185	8.470	19.79	55.28	127.8	171.6	138.9	23.76	5.166	0.822	0.674	0.483	0.547	0.544
285.0	100.5	89.88	96.21	89.55	98.70	128.8	219.3	541.4	374.7	279.8	929.5	5109	9999.9	8920	128.0	24.22	14.71	10.29	7.455	5.750	4.793	4.143	3.422	2.939	2.662	2.371	2.137	2.131	1.801	1.851	1.740	1.563	1.322	1.101	1.166	1.131	1.033	0.901	0.945	0.827	0.685	0.795	0.779	0.724	0.699	0.743	0.728	0.760	0.660	0.551	0.538	0.702	0.628	0.718	0.711	0.845	1.055	1.333	2.373	3.397	3.488	2.166	1.793	1.939	2.794	5.372	13.34	33.51	78.97	159.9	183.5	33.79	17.50	2.249	0.706	0.651	0.588
290.0	118.6	120.8	133.3	117.6	112.0	125.3	154.4	285.2	541.7	470.2	397.0	1345	5231	9999.9	9999.9	2246	41.52	15.18	10.50	7.772	5.886	4.942	4.133	3.168	2.952	2.657	2.265	2.481	2.146	1.936	1.870	1.575	1.402	1.319	1.296	1.222	1.119	0.971	0.882	0.949	0.827	0.784	0.826	0.767	0.704	0.745	0.758	0.852	0.881	0.763	0.666	0.795	0.737	0.819	0.865	0.797	0.991	1.062	1.349	1.770	2.563	3.240	3.410	2.778	2.006	2.391	4.128	8.700	19.05	41.97	77.09	101.1	138.7	106.3	75.33	12.40	2.422
295.0	114.2	151.1	183.1	163.8	144.6	134.3	162.2	204.9	338.0	723.8	648.6	586.0	1404	2857	9999.9	9999.9	698.5	40.47	14.74	10.01	7.830	5.604	4.995	4.414	3.324	3.079	2.875	2.513	2.170	2.102	1.871	1.769	1.511	1.329	1.327	1.229	1.133	1.004	1.096	0.945	0.957	0.867	0.865	0.657	0.698	0.755	0.776	0.906	0.903	0.849	0.839	1.039	0.854	0.900	0.905	1.000	1.072	1.210	1.323	1.280	1.532	1.954	2.741	4.268	4.568	3.158	2.520	3.433	5.764	10.89	18.41	24.02	36.76	66.00	150.5	183.7	35.25
300.0	119.8	174.5	222.8	205.9	166.5	166.7	189.8	227.5	303.8	573.9	974.5	640.5	635.0	873.0	3467	9999.9	9999.9	523.0	25.09	13.17	9.576	6.873	5.742	4.790	3.764	3.381	3.063	2.776	2.395	2.405	1.903	1.928	1.526	1.561	1.361	1.169	1.165	1.042	1.099	0.993	0.924	0.922	0.796	0.651	0.716	0.785	0.849	0.914	0.915	0.948	0.964	1.075	1.096	1.006	0.933	1.149	1.234	1.224	1.403	1.443	1.539	1.867	2.200	3.058	4.660	5.143	4.044	3.261	3.289	4.180	5.817	7.070	9.611	16.75	45.39	110.9	172.3
305.0	150.4	189.4	262.8	247.9	196.3	196.3	228.0	278.2	356.8	507.5	929.8	1032	611.0	509.5	983.6	4810	9999.9	5280	78.28	18.61	12.07	8.183	6.623	5.474	4.066	3.677	3.142	3.159	2.689	2.539	2.167	2.031	1.722	1.652	1.554	1.313	1.267	1.023	1.139	0.970	0.926	0.887	0.766	0.820	0.792	0.800	0.802	1.002	1.014	1.148	1.092	1.208	1.068	1.136	1.095	1.291	1.309	1.352	1.535	1.666	2.031	2.119	2.211	2.863	3.340	4.783	5.966	5.420	3.753	3.429	3.358	3.549	3.931	5.352	11.40	27.56	64.13
310.0	155.0	229.7	317.8	294.8	244.1	239.3	285.0	359.1	452.8	580.4	795.8	1106	1015	593.2	499.2	1250	4711	9999.9	9999.9	1614	29.49	12.15	8.500	6.835	5.246	4.214	3.746	3.121	2.906	2.592	2.318	2.058	1.880	1.720	1.536	1.371	1.334	1.180	1.169	1.040	0.953	0.929	0.831	0.832	0.850	0.887	0.873	1.113	1.265	1.230	1.223	1.302	1.324	1.266	1.276	1.397	1.576	1.598	1.818	2.040	2.338	2.403	2.818	3.083	3.313	4.045	4.657	5.351	5.669	5.505	4.573	3.525	3.207	3.124	4.259	7.489	15.61
315.0	163.5	246.2	367.5	347.2	292.2	287.9	338.0	433.9	542.8	683.7	847.6	975.0	1140	977.5	504.5	484.6	1174	2658	9999.9	9999.9	501.0	29.53	12.10	8.711	6.555	5.119	3.884	3.631	3.222	2.869	2.557	2.315	2.044	1.744	1.698	1.473	1.426	1.155	1.030	0.966	1.042	1.029	0.852	1.073	0.859	0.910	0.930	1.258	1.476	1.353	1.326	1.494	1.393	1.469	1.427	1.598	1.902	1.927	1.959	2.398	2.623	2.844	3.294	3.446	4.045	4.186	4.399	4.747	5.141	5.789	6.191	5.728	4.312	3.141	2.764	3.307	4.905
320.0	181.1	301.3	427.2	397.9	323.7	322.9	377.1	484.0	611.2	762.3	906.6	998.7	1046	1134	712.5	369.6	411.9	690.9	3159	9999.9	9999.9	396.4	19.55	11.80	8.144	5.843	4.732	4.076	3.455	2.910	2.568	2.356	2.094	1.817	1.595	1.404	1.401	1.264	1.078	1.199	1.094	1.043	1.045	1.121	0.879	0.898	1.008	1.375	1.454	1.501	1.530	1.684	1.674	1.576	1.551	1.632	2.000	2.144	2.168	2.435	2.824	3.122	3.463	3.858	4.022	4.425	4.656	4.542	5.106	5.030	5.338	6.125	5.689	4.508	2.847	2.566	2.498
325.0	210.1	340.7	545.4	503.4	381.3	353.1	419.7	525.7	668.0	826.1	987.7	1079	1064	1054	957.3	457.3	278.0	272.5	792.1	4192	9999.9	4037	61.14	15.55	10.32	7.393	5.185	4.707	3.569	3.302	2.619	2.413	2.094	1.879	1.704	1.516	1.555	1.267	1.187	1.138	1.150	0.996	0.949	1.048	0.953	0.990	1.277	1.563	1.645	1.798	1.725	1.972	1.843	1.617	1.768	1.801	2.005	2.118	2.411	2.806	2.955	3.334	3.530	4.189	4.444	4.660	4.778	5.043	5.463	5.014	5.042	5.239	6.008	6.250	4.768	3.306	2.529
330.0	237.0	402.1	674.1	642.0	486.3	418.9	457.6	571.8	706.9	890.4	1060	1153	1137	1014	914.4	710.7	382.0	233.9	292.5	1031	4145	9999.9	9978	1373	24.61	10.91	7.177	5.801	4.534	3.833	3.027	2.704	2.423	1.922	1.773	1.688	1.643	1.496	1.246	1.154	1.121	1.104	1.027	1.059	0.988	1.067	1.251	1.696	2.107	2.193	2.169	2.320	2.119	2.023	1.988	2.094	2.082	2.364	2.544	2.935	3.225	3.738	3.757	4.435	4.669	5.064	5.221	5.507	5.516	5.490	5.372	5.251	5.087	5.388	5.171	4.651	3.965
335.0	260.3	448.8	757.0	790.6	613.4	490.8	522.5	611.6	754.8	931.3	1113	1220	1200	1060	879.5	716.1	633.7	339.6	238.9	354.6	1019	2600	9999.9	9999.9	425.4	25.90	10.26	7.528	5.858	4.713	3.776	3.126	2.520	2.075	2.155	1.736	1.636	1.658	1.283	1.317	1.203	1.030	1.157	1.122	1.153	1.135	1.253	1.857	2.256	2.447	2.452	2.963	2.503	2.469	2.152	2.320	2.435	2.554	2.813	3.183	3.572	3.661	4.235	4.310	4.937	5.375	5.505	5.486	6.147	5.743	5.725	5.681	5.191	5.272	4.821	4.608	4.859
340.0	277.6	466.4	810.4	879.9	699.7	584.9	587.2	668.0	791.6	980.9	1139	1252	1244	1114	915.6	703.2	682.3	532.3	294.6	251.9	362.6	684.5	3026	9999.9	9999.9	358.7	17.15	9.668	7.197	5.850	4.395	3.700	3.087	2.563	2.362	1.885	1.817	1.454	1.376	1.138	1.213	1.178	1.092	1.054	1.191	1.285	1.426	1.985	2.389	2.730	2.750	3.238	2.856	2.801	2.374	2.415	2.713	2.934	3.008	3.310	3.474	3.765	4.521	4.776	5.200	5.467	5.514	5.932	6.237	6.001	5.911	5.928	5.491	5.529	4.905	4.456	4.577
345.0	280.6	451.3	844.7	937.0	791.4	680.1	648.7	711.9	837.8	1012	1174	1273	1275	1151	970.1	750.7	649.1	669.3	445.1	291.9	271.5	303.7	795.8	3805	9999.9	9360	53.52	13.80	8.772	6.460	5.089	3.909	3.205	2.646	2.453	1.910	1.830	1.457	1.356	1.165	1.146	1.091	1.109	1.163	1.238	1.372	1.404	1.947	2.389	2.701	2.706	3.428	3.157	2.839	2.820	2.855	2.929	3.099	3.366	3.583	3.530	4.014	4.696	4.973	5.179	5.420	5.462	5.961	5.862	6.094	6.508	6.005	5.799	5.677	5.062	4.909	4.792
350.0	278.3	454.5	836.7	983.8	910.6	807.9	781.8	815.6	920.8	1061	1216	1288	1306	1200	1046	845.3	719.2	681.2	658.3	495.2	371.3	325.1	379.5	1011	3737	9999.9	8217	1317	23.23	9.031	6.053	4.690	3.562	2.978	2.676	1.931	1.836	1.491	1.393	1.379	1.130	1.125	1.137	1.081	1.103	1.290	1.353	1.969	2.352	2.735	2.962	3.637	3.598	3.364	3.226	3.291	3.419	3.525	3.705	3.753	4.289	4.250	4.775	4.916	5.273	5.670	5.532	6.025	5.958	6.234	6.605	6.419	6.050	5.927	5.552	5.319	5.042
355.0	255.5	442.8	822.8	1051	1050	974.7	930.5	975.4	1045	1156	1284	1348	1347	1267	1124	969.5	854.7	776.6	750.5	759.3	571.3	466.5	404.6	471.6	1008	2527	7919	9999.9	403.0	26.13	8.733	6.210	4.173	3.537	2.753	2.114	1.908	1.877	1.411	1.526	1.209	1.226	1.158	1.090	1.232	1.242	1.339	1.908	2.290	2.613	2.889	3.959	3.935	4.056	3.874	3.791	4.067	4.334	4.291	4.358	4.747	4.847	5.197	5.334	5.665	5.825	5.934	6.387	6.198	6.649	6.739	6.762	6.291	6.304	6.164	5.870	5.885
360.0	260.8	445.9	832.8	1096	1155	1123	1069	1094	1159	1249	1341	1397	1385	1325	1207	1071	973.6	899.0	844.4	853.8	811.4	619.8	501.9	434.7	464.1	725.8	2290	9999.9	9999.9	363.3	17.43	7.943	5.451	4.035	3.014	2.458	2.262	2.055	1.709	1.472	1.431	1.180	1.200	1.220	1.216	1.132	1.317	1.768	2.194	2.578	3.082	4.119	4.499	4.310	4.475	4.402	4.454	4.727	4.876	4.983	5.075	5.463	5.588	5.729	5.938	6.091	6.113	6.782	6.532	6.675	6.916	6.765	7.050	6.542	6.526	6.334	6.314
365.0	247.9	439.5	823.9	1123	1239	1237	1183	1190	1256	1344	1403	1459	1432	1377	1276	1151	1071	1006	964.3	925.7	946.5	823.1	632.1	510.8	412.9	377.8	652.1	3224	9999.9	9068	52.08	12.11	7.074	5.030	3.667	2.635	2.347	1.947	1.858	1.450	1.473	1.296	1.355	1.170	1.202	1.212	1.325	1.769	2.083	2.711	3.194	4.201	4.745	4.482	4.623	4.951	4.684	5.112	5.018	5.101	5.303	5.675	5.942	6.305	5.992	6.355	6.573	6.601	6.761	6.831	7.118	6.680	6.782	7.162	6.693	6.983	6.772
370.0	249.7	426.6	806.5	1165	1334	1357	1290	1312	1355	1432	1487	1504	1473	1427	1337	1240	1173	1136	1105	1064	1037	1012	865.2	667.8	513.6	394.8	352.4	855.4	3229	9268	7395	1289	22.23	7.472	4.782	3.617	2.717	2.282	2.095	1.708	1.551	1.409	1.452	1.232	1.148	1.209	1.390	1.932	2.219	2.743	3.202	4.315	4.891	5.104	5.006	5.269	5.528	5.419	5.436	5.591	5.865	6.075	6.417	6.403	6.531	6.520	6.639	6.598	6.927	6.830	6.994	7.136	7.300	7.560	7.195	7.202	7.183
375.0	229.0	405.0	804.4	1175	1389	1443	1396	1387	1439	1501	1531	1554	1513	1460	1376	1302	1262	1243	1228	1202	1156	1110	1065	881.7	662.0	493.0	370.4	386.1	845.4	2258	6349	9999.9	1943	25.02	7.075	4.707	3.577	2.623	2.098	1.834	1.695	1.627	1.457	1.197	1.209	1.261	1.321	1.854	2.196	2.647	3.435	4.580	5.200	5.539	5.584	5.705	6.024	5.679	5.906	6.072	6.257	6.470	6.489	6.761	7.093	6.746	6.589	6.830	6.822	7.316	7.028	7.179	7.525	7.626	7.237	7.790	7.764
380.0	230.0	393.1	795.9	1191	1462	1520	1480	1443	1481	1545	1572	1574	1543	1470	1392	1329	1307	1294	1298	1275	1232	1181	1122	1031	790.1	590.7	440.5	334.5	356.4	615.3	1770	8354	9826	322.8	16.36	6.379	4.543	3.248	2.431	2.173	1.694	1.476	1.431	1.327	1.321	1.312	1.474	1.754	2.328	2.764	3.559	4.736	5.165	5.655	5.774	6.033	5.973	6.299	6.154	6.457	6.409	6.569	6.770	6.696	6.797	6.742	6.967	6.678	7.225	7.424	7.471	7.161	7.809	7.680	7.564	7.992	8.095
385.0	228.7	374.7	764.2	1226	1469	1561	1528	1474	1510	1552	1580	1566	1541	1479	1390	1335	1316	1315	1331	1324	1289	1246	1161	1089	932.0	698.4	522.0	379.7	293.3	283.7	491.5	2500	9366	7572	253.9	10.50	5.919	3.778	2.903	2.366	1.932	1.562	1.688	1.325	1.356	1.206	1.472	1.745	2.289	2.758	3.264	4.700	5.261	5.641	5.833	6.089	6.118	6.183	6.282	6.603	6.531	6.910	7.030	6.814	7.050	6.867	6.772	6.956	7.158	7.334	7.256	7.302	7.737	7.465	7.746	8.026	8.061
390.0	216.7	390.1	751.0	1193	1487	1568	1554	1518	1521	1541	1566	1555	1526	1459	1379	1321	1303	1320	1341	1343	1330	1298	1223	1127	1023	852.2	636.2	473.7	354.7	271.8	253.5	652.0	2676	6572	5397	1087	19.22	5.748	3.776	2.841	2.240	1.949	1.771	1.418	1.385	1.379	1.448	1.804	2.338	2.634	3.251	4.782	5.188	5.797	5.895	6.089	6.507	6.208	6.287	6.454	6.787	6.840	6.873	6.807	7.095	6.954	6.857	7.270	7.196	7.063	7.128	7.325	7.432	7.713	7.682	7.491	7.909
395.0	198.6	375.8	746.4	1169	1474	1575	1562	1514	1515	1526	1547	1545	1496	1434	1349	1289	1279	1299	1325	1340	1342	1326	1267	1177	1057	952.0	789.4	582.2	450.4	341.5	259.8	281.8	682.9	1566	3869	8080	1783	23.32	5.579	3.982	3.003	2.222	1.702	1.520	1.534	1.410	1.408	1.655	2.278	2.724	3.406	4.561	5.280	5.755	5.979	5.953	6.649	6.492	6.437	6.395	6.784	6.770	6.608	6.740	7.100	6.833	6.889	7.118	6.913	6.679	7.175	7.031	7.339	7.251	7.254	7.471	7.384
400.0	188.9	336.7	736.9	1132	1451	1554	1553	1498	1519	1508	1521	1514	1473	1410	1325	1251	1240	1260	1296	1324	1336	1328	1283	1200	1088	979.3	874.2	688.5	523.9	407.4	303.7	232.5	267.4	425.6	1026	5318	7409	288.6	16.90	5.016	3.294	2.386	2.038	1.736	1.512	1.427	1.465	1.756	2.192	2.579	3.303	4.586	5.137	5.602	6.192	5.998	6.624	6.293	6.763	6.290	6.404	6.809	6.488	6.779	6.837	6.803	6.699	6.626	6.664	6.983	7.009	7.097	6.930	7.369	7.053	6.840	7.527
405.0	178.7	343.1	704.5	1124	1414	1525	1537	1510	1504	1511	1511	1493	1448	1375	1285	1214	1201	1227	1255	1290	1309	1314	1278	1214	1115	996.2	896.1	781.5	605.5	468.8	356.2	257.0	204.2	190.5	294.4	1457	5905	5977	252.2	9.983	4.232	2.802	2.339	1.992	1.563	1.607	1.536	1.767	2.122	2.723	3.180	4.425	4.951	5.381	5.777	5.926	6.254	6.275	6.702	6.664	6.382	6.475	6.624	6.828	6.737	6.561	6.504	6.686	6.308	7.030	6.604	6.833	6.849	7.008	6.871	6.907	7.287
410.0	173.0	343.4	679.0	1086	1384	1489	1508	1495	1488	1484	1474	1450	1412	1331	1231	1160	1137	1164	1191	1231	1261	1269	1258	1203	1128	1021	912.5	824.9	711.7	558.5	426.3	315.6	232.4	174.5	156.5	385.4	1591	4362	5155	1046	18.15	4.285	2.921	2.184	1.838	1.616	1.610	1.864	2.283	2.615	3.082	4.568	4.874	5.538	5.459	5.928	6.176	6.263	6.282	6.750	6.165	6.353	6.515	6.517	6.522	6.519	6.428	6.496	6.342	6.434	6.453	6.672	6.774	6.907	6.685	6.827	7.044
415.0	171.4	318.0	629.2	1045	1341	1449	1464	1487	1459	1444	1439	1412	1364	1279	1167	1096	1074	1092	1120	1164	1195	1210	1210	1174	1119	1030	928.7	832.7	762.0	661.1	499.6	375.7	281.1	203.3	151.7	164.9	406.6	1024	2635	5712	1662	23.02	4.396	2.889	2.203	1.781	1.802	2.006	2.192	2.564	3.171	4.356	4.571	5.497	5.310	5.805	6.145	6.296	6.328	6.193	6.170	6.380	6.322	6.282	6.310	6.038	6.293	6.405	6.120	6.433	6.319	6.230	6.759	6.428	6.425	6.491	6.507
420.0	168.2	292.4	607.9	1005	1304	1428	1455	1466	1440	1428	1416	1374	1327	1229	1121	1051	1015	1038	1061	1099	1140	1157	1163	1141	1095	1024	935.3	845.0	769.0	697.1	560.8	419.3	314.1	234.1	170.2	132.8	155.7	271.8	666.8	3365	5477	273.4	15.96	3.952	2.736	2.326	1.885	1.975	2.083	2.428	3.053	4.239	4.672	5.379	5.276	5.730	6.441	6.127	6.204	6.426	6.224	6.439	6.669	6.433	6.256	6.350	6.244	6.233	5.976	6.168	5.977	6.366	6.238	6.217	6.133	6.049	6.242
425.0	150.5	273.9	584.3	967.8	1271	1404	1444	1434	1422	1420	1407	1350	1286	1196	1081	1003	975.0	990.0	1014	1055	1088	1110	1124	1103	1065	1012	937.3	851.7	773.2	700.6	612.1	465.7	344.9	262.0	192.5	141.0	111.6	112.1	184.1	889.7	3901	4525	244.1	9.001	3.481	2.696	1.916	2.023	2.097	2.302	2.867	3.995	4.507	5.026	5.493	5.318	5.993	5.955	6.135	6.006	6.405	6.362	6.551	6.315	6.037	6.187	6.185	6.002	6.083	5.946	5.831	6.095	6.061	6.195	5.974	6.086	6.224
430.0	170.1	250.2	555.5	920.5	1215	1353	1420	1421	1414	1405	1388	1340	1253	1151	1033	953.2	927.3	930.9	957.4	987.8	1023	1050	1066	1055	1031	983.4	920.7	855.4	782.6	702.3	625.0	524.5	397.2	297.5	223.8	165.8	122.3	92.95	87.70	230.7	1016	2985	3915	969.4	17.06	3.698	2.583	2.394	2.219	2.528	2.976	4.121	4.486	5.024	5.120	5.331	6.036	5.984	5.812	6.111	6.279	6.111	6.304	6.197	6.031	6.220	6.237	5.927	6.121	6.118	5.896	5.758	5.528	5.881	5.552	5.741	5.918
435.0	220.2	241.1	527.5	884.0	1167	1316	1404	1413	1404	1391	1353	1310	1221	1119	999.1	909.8	874.2	875.7	896.2	927.9	962.4	985.7	1006	1008	985.7	950.1	899.2	844.9	786.2	711.3	623.8	545.8	453.9	337.9	256.1	192.5	143.6	105.7	80.13	94.20	256.3	695.2	1882	4622	1575	22.23	3.837	2.899	2.635	2.503	3.023	3.916	4.317	4.955	5.123	5.495	6.222	6.075	6.200	6.091	6.182	6.280	6.259	6.303	6.015	6.274	6.080	6.234	6.041	6.134	5.852	5.660	5.181	5.478	5.492	5.630	5.294
440.0	244.7	248.3	509.3	842.0	1158	1291	1365	1391	1389	1363	1343	1301	1202	1102	967.9	872.9	833.9	839.4	858.1	885.5	911.3	936.7	957.3	960.6	943.8	917.1	876.9	830.5	779.6	711.1	632.6	541.7	471.6	377.9	281.2	212.6	162.3	119.4	89.02	72.58	93.37	181.4	470.8	2677	4756	1173	14.50	3.686	2.820	2.624	2.940	3.977	4.371	4.784	4.942	5.314	5.882	5.631	5.950	6.065	6.188	6.485	6.296	6.322	6.062	6.120	5.805	5.858	5.770	5.921	5.718	5.773	5.208	5.282	5.304	5.409	5.232
445.0	224.4	272.7	499.1	826.8	1119	1256	1328	1378	1363	1340	1338	1255	1172	1063	933.1	840.4	800.3	804.0	818.7	836.6	865.9	894.4	906.7	916.5	902.5	879.4	848.2	808.8	765.3	707.8	633.0	539.3	465.9	399.8	306.8	228.5	177.4	132.7	100.5	75.49	64.39	71.65	127.9	708.4	3387	4241	206.0	9.384	3.381	2.902	3.064	3.854	4.218	4.376	5.106	5.220	5.650	5.883	5.776	6.203	5.952	6.231	6.129	6.297	6.566	6.079	5.946	5.758	5.451	5.790	5.421	5.602	5.259	5.199	5.128	5.287	5.231
450.0	173.4	334.6	481.3	779.1	1059	1189	1274	1326	1312	1305	1285	1209	1122	1006	880.8	787.4	748.1	744.9	759.0	775.1	797.2	819.2	835.6	842.7	836.5	820.0	795.5	768.2	732.0	687.0	617.3	534.6	455.6	395.1	331.9	252.4	194.0	148.0	114.3	86.55	67.62	55.29	57.19	179.1	878.7	2686	3506	931.8	14.36	3.609	3.376	4.147	4.230	4.610	4.778	4.981	5.454	5.680	5.504	5.720	5.731	5.907	6.110	5.767	5.977	5.899	5.498	5.675	5.409	5.359	5.285	5.285	5.114	4.916	4.842	4.682	4.909
455.0	116.6	351.5	583.1	717.8	973.3	1125	1214	1245	1249	1237	1212	1150	1053	942.6	820.9	730.3	688.7	687.4	688.9	705.8	723.9	736.6	751.1	764.1	759.6	748.8	729.7	710.0	683.9	651.4	590.4	519.4	443.2	380.1	327.9	277.2	211.4	161.2	126.6	99.35	77.15	58.88	46.15	65.10	213.5	619.4	1565	3803	1272	17.27	3.926	4.343	4.252	4.528	4.636	4.893	5.376	5.280	5.523	5.459	5.637	5.659	5.509	5.525	5.505	5.650	5.216	5.591	5.132	5.452	4.901	4.928	5.046	4.465	4.518	4.262	4.528
460.0	112.2	295.9	822.0	753.1	934.0	1078	1149	1183	1194	1190	1149	1101	1001	892.9	777.1	681.9	637.1	636.5	638.3	648.4	665.7	678.3	692.0	704.0	701.6	696.7	675.8	663.2	641.9	614.4	559.7	500.2	429.5	369.6	314.6	277.7	223.6	169.3	133.5	107.4	82.88	62.62	47.84	42.32	68.17	152.7	381.6	2092	3690	902.7	12.97	4.798	4.574	4.511	4.639	4.580	4.875	5.051	5.101	5.357	5.217	5.252	5.342	5.419	5.199	5.265	4.946	5.109	5.018	4.869	4.587	4.594	4.549	4.256	4.222	4.405	4.416
465.0	101.3	214.3	1068	938.8	887.7	999.4	1089	1114	1122	1113	1085	1039	951.6	834.6	727.5	646.0	596.9	594.2	592.0	596.2	612.5	627.0	634.6	643.5	643.3	639.9	626.9	615.9	603.9	574.1	531.3	474.1	412.4	355.7	303.8	265.6	230.1	177.4	138.0	111.3	87.93	68.70	51.95	39.75	37.97	50.83	98.04	541.2	2616	3122	171.1	9.931	4.750	4.413	4.378	4.437	4.761	5.162	4.774	4.970	5.012	5.049	5.379	5.217	5.210	5.111	4.841	4.886	4.587	4.588	4.364	4.480	4.292	4.044	4.079	4.173	3.853
470.0	103.7	159.1	854.5	2096	1082	908.4	981.4	1015	1032	1017	1003	953.1	862.2	765.9	664.3	580.2	541.2	527.8	528.4	531.7	540.8	554.7	564.6	570.7	569.4	565.7	562.2	551.1	539.1	518.7	485.9	435.2	384.8	333.8	286.5	246.0	216.1	181.9	144.5	113.1	90.67	71.43	54.83	41.50	33.41	30.26	36.04	131.8	674.8	1949	2395	834.1	15.22	5.049	4.434	4.355	4.903	4.716	4.378	4.709	4.607	4.766	4.865	4.757	4.725	4.665	4.472	4.478	4.440	4.224	4.060	4.228	3.987	3.852	3.857	3.666	3.558
475.0	92.72	140.3	452.4	2667	2372	865.7	886.3	906.8	930.7	929.8	907.1	861.4	783.2	687.5	594.1	512.3	483.7	463.7	464.0	464.8	473.5	483.9	493.9	494.4	498.7	491.2	488.6	484.6	476.6	459.7	435.9	394.8	350.5	307.9	266.1	228.1	195.4	172.0	148.8	116.0	90.72	72.15	56.78	44.88	35.34	27.65	23.81	41.35	159.4	445.0	1018	2558	1050	19.87	4.789	4.467	4.542	4.110	4.406	4.276	4.212	4.261	4.524	4.327	4.459	4.273	3.935	4.088	3.979	3.767	3.699	3.615	3.456	3.415	3.456	3.336	3.215
480.0	82.40	147.5	306.6	1917	4007	1108	827.9	848.3	861.6	859.8	845.0	797.5	728.5	635.8	548.3	475.8	440.6	427.7	425.2	424.0	431.3	437.2	443.5	444.2	447.6	444.3	445.0	442.3	437.7	421.4	400.0	365.4	327.5	288.5	250.4	215.9	186.7	161.2	144.9	119.2	91.33	72.66	57.74	45.59	36.10	27.26	22.65	22.12	45.69	107.5	247.2	1349	2621	220.3	13.34	4.772	4.436	4.360	3.922	4.090	4.048	4.008	4.160	3.902	4.068	4.142	3.736	3.859	3.920	3.552	3.345	3.457	3.527	3.435	3.252	2.960	2.988
485.0	84.87	144.2	258.9	1026	4758	2139	769.5	804.3	799.5	797.8	790.2	754.6	671.5	595.0	511.8	443.3	407.9	397.0	391.1	392.0	394.7	401.9	404.3	408.9	413.4	412.4	407.8	405.1	402.7	395.5	371.4	341.0	304.8	273.5	237.2	207.0	177.4	153.5	135.5	121.5	94.43	73.08	57.89	46.67	36.96	27.98	22.70	19.03	21.17	32.78	62.50	349.2	1820	2308	187.8	7.953	4.630	4.346	4.141	3.947	4.099	4.009	4.128	3.874	3.751	3.597	3.475	3.380	3.537	3.417	3.268	3.132	3.274	3.027	2.922	2.746	2.750
490.0	73.90	133.3	243.9	548.9	3095	4512	1134	725.8	737.7	729.8	728.2	682.9	619.5	539.5	466.1	400.7	369.7	359.4	353.0	351.7	352.1	357.9	359.7	363.2	366.5	365.4	360.9	361.9	360.3	355.9	337.8	308.5	279.6	250.5	220.1	193.0	166.8	144.7	125.7	113.5	97.60	76.02	58.66	47.21	37.56	29.97	23.97	19.15	16.75	17.09	22.30	85.42	471.2	1429	1891	751.0	16.24	4.860	4.116	3.837	3.885	3.610	3.688	3.587	3.511	3.470	3.172	3.285	3.183	3.080	3.029	3.056	2.983	2.861	2.797	2.520	2.665
495.0	69.64	112.1	228.0	396.0	1213	5091	2915	678.6	658.0	661.6	649.8	616.1	555.7	481.7	415.4	359.9	329.5	319.7	314.4	308.5	311.3	315.4	314.7	318.5	316.2	316.0	315.2	318.0	315.9	312.7	298.8	274.2	254.1	225.0	199.7	176.6	154.0	132.9	117.8	101.4	92.16	78.84	60.40	47.43	38.61	30.51	25.39	20.34	16.83	14.65	14.03	27.04	112.3	328.4	924.6	2447	1136	20.98	4.420	3.893	3.628	3.374	3.409	3.293	3.307	3.123	3.077	3.203	3.136	2.953	2.725	2.651	2.651	2.501	2.630	2.450	2.359
500.0	59.94	98.92	221.8	350.3	616.8	3381	5048	896.7	600.2	598.9	590.2	563.1	507.5	433.2	374.4	320.3	295.3	284.4	280.4	277.8	275.3	279.1	282.1	283.5	281.5	282.2	282.4	285.4	283.2	284.0	269.8	249.3	230.2	204.8	182.9	164.4	142.0	124.1	109.8	95.58	83.38	76.08	61.59	47.39	37.80	31.40	25.68	20.77	16.92	15.10	12.85	14.75	32.61	79.94	225.9	1282	2578	238.9	14.73	4.176	3.494	3.095	3.094	3.046	3.001	2.946	2.785	2.989	2.843	2.610	2.642	2.452	2.426	2.455	2.430	2.113	2.168
505.0	59.76	89.74	219.9	322.7	447.3	1606	6019	1877	562.3	552.5	533.2	510.5	460.3	397.5	337.7	292.9	268.0	255.9	252.8	251.2	249.8	252.1	253.4	254.7	252.1	253.6	252.9	256.0	256.5	252.7	241.8	226.6	207.7	185.6	167.9	149.7	132.3	115.2	101.4	88.23	76.75	70.05	61.88	48.29	37.00	31.14	25.74	21.10	17.39	15.24	12.36	12.31	15.35	25.14	57.13	330.3	1684	1918	206.1	7.685	3.675	3.201	2.899	2.747	2.983	2.764	2.611	2.545	2.577	2.465	2.157	2.096	2.177	2.079	2.038	1.945	1.915
510.0	56.68	74.32	184.0	305.6	377.0	692.8	3923	4324	809.9	481.4	471.9	447.2	403.1	349.1	298.0	256.0	235.6	223.6	217.8	215.4	213.6	215.2	215.6	217.5	216.0	216.7	218.2	217.9	217.8	217.4	208.6	196.5	180.3	163.2	147.3	131.2	116.6	104.1	90.60	78.99	68.25	60.16	55.37	47.77	37.27	29.86	24.65	20.64	17.22	14.88	12.73	11.51	11.26	13.04	19.38	79.48	429.6	1235	1715	673.5	15.42	3.383	2.826	2.702	2.595	2.575	2.491	2.284	2.295	2.152	2.168	2.122	1.993	1.953	1.849	1.774	1.742
515.0	49.04	62.73	147.3	279.3	336.5	424.4	1398	5789	2227	436.2	404.0	384.4	341.8	301.9	250.4	218.2	199.4	194.5	187.0	185.7	183.5	182.3	181.8	182.3	183.0	181.9	182.9	184.5	185.8	187.0	178.6	168.2	155.3	140.5	125.8	113.3	101.6	89.34	79.63	70.29	60.99	53.39	46.59	44.12	38.80	29.69	23.13	19.29	17.51	14.00	12.53	11.36	10.26	10.03	10.68	23.41	100.6	282.0	736.1	1938	918.2	19.58	3.059	2.536	2.338	2.329	2.269	1.945	2.040	1.888	2.001	1.902	1.833	1.720	1.618	1.487	1.709
520.0	49.31	60.41	127.1	245.9	328.0	338.5	585.3	4113	4835	594.6	357.0	343.7	304.1	265.1	225.4	194.4	178.0	168.6	165.7	160.2	159.4	159.3	160.7	159.2	159.4	160.2	160.4	161.0	161.8	161.9	156.3	147.0	138.0	124.3	112.8	102.0	91.10	80.91	71.10	63.28	55.37	47.75	41.55	38.97	37.74	30.27	22.70	18.51	16.72	13.46	12.45	11.23	10.00	8.955	8.426	10.88	27.24	67.40	176.7	979.7	1949	239.7	12.89	2.663	2.419	2.249	2.040	1.955	1.963	1.831	1.780	1.791	1.633	1.500	1.758	1.447	1.515
525.0	45.51	55.62	113.1	214.6	328.0	300.1	361.2	1899	6560	1422	329.4	314.8	274.1	235.7	201.0	171.8	157.4	151.7	145.8	141.1	140.7	141.2	141.1	140.1	139.7	137.8	142.7	140.4	144.9	144.6	140.3	130.5	121.8	111.3	99.87	90.89	82.09	73.10	64.31	56.33	51.24	43.81	37.64	33.86	33.04	30.82	22.93	17.77	15.27	12.90	11.84	10.90	9.976	8.973	7.859	7.833	10.85	19.08	43.23	247.1	1209	1650	205.1	6.000	2.535	2.201	1.773	1.859	1.729	1.750	1.655	1.510	1.384	1.292	1.468	1.356	1.391
530.0	46.45	55.86	92.33	167.6	282.4	280.8	284.2	673.6	4660	4547	528.3	269.6	236.7	202.5	172.6	149.5	134.3	128.4	123.8	121.8	119.4	117.9	119.2	118.4	118.1	118.1	119.4	119.1	121.3	121.3	118.4	110.9	102.8	93.90	86.20	77.42	70.24	63.11	57.02	49.22	44.47	38.65	33.42	29.55	27.86	26.86	23.82	17.92	14.41	12.28	11.02	9.864	9.113	8.502	7.409	6.789	6.882	8.059	13.06	58.45	303.3	933.5	1316	543.5	15.04	2.294	1.835	1.711	1.594	1.556	1.568	1.432	1.286	1.207	1.267	1.203	1.254
535.0	42.30	45.66	74.96	135.6	227.4	285.7	241.1	328.2	1561	6498	1701	229.3	198.7	170.8	144.4	125.8	114.3	107.6	104.0	100.5	98.48	100.1	98.99	98.38	97.97	97.58	98.41	98.08	101.2	100.8	97.41	93.00	85.38	78.10	74.11	66.32	59.38	53.95	48.54	43.09	38.17	33.62	28.79	25.45	23.17	21.19	22.21	18.74	13.46	11.08	10.11	9.035	8.407	7.764	7.074	6.337	5.337	5.595	6.139	16.04	70.09	211.8	517.2	1441	753.9	19.69	2.096	1.778	1.616	1.517	1.243	1.198	1.180	1.097	1.292	1.036	1.127
540.0	39.51	42.42	64.23	107.0	176.3	257.0	221.4	227.8	530.6	4744	4530	320.1	176.3	149.2	126.3	110.8	99.04	96.10	92.49	87.61	84.99	86.91	84.78	83.19	84.94	82.64	82.88	83.87	86.27	85.62	84.10	79.77	73.73	67.54	62.41	57.18	52.05	47.51	42.27	37.89	33.80	29.44	25.95	23.28	20.17	18.40	18.58	17.76	14.00	10.94	9.220	8.365	7.509	6.898	6.675	6.052	5.358	4.473	4.327	6.246	18.22	49.62	122.0	686.3	1499	243.6	12.62	1.905	1.499	1.265	1.255	1.169	1.125	1.043	1.091	1.021	1.003
545.0	38.00	41.80	63.82	97.17	149.4	219.5	222.7	192.5	261.5	2064	6688	895.9	158.1	131.0	111.1	97.14	86.34	81.07	77.99	76.26	74.32	73.16	73.46	73.10	73.67	71.49	72.28	74.31	75.45	75.09	73.22	70.20	63.88	59.23	53.80	50.19	45.73	41.05	37.14	33.28	30.16	26.37	23.03	20.36	17.99	16.32	15.17	15.77	14.18	10.65	8.626	7.771	6.913	6.343	6.023	5.964	5.233	4.160	3.633	3.847	6.392	13.35	29.44	168.7	863.8	1285	204.5	5.427	1.601	1.349	1.164	1.090	1.026	1.070	0.886	0.929	0.976
550.0	34.47	39.12	52.94	82.53	120.2	165.6	219.1	169.3	177.3	629.0	4743	3306	253.7	111.4	92.65	79.65	70.08	68.20	64.01	62.35	62.66	60.64	60.89	59.92	59.43	58.52	58.82	59.82	61.62	60.66	59.32	56.35	52.57	48.66	44.67	41.40	37.62	33.90	30.51	27.59	24.92	22.32	19.81	17.39	15.31	13.89	12.53	12.01	12.46	10.44	8.186	6.766	5.929	5.734	5.100	4.954	4.848	4.082	3.383	3.229	3.358	4.842	8.405	39.47	211.3	663.7	979.1	425.1	14.76	1.494	1.154	1.069	1.029	1.095	0.852	0.819	0.767
555.0	30.85	36.47	46.42	66.56	91.46	116.0	175.4	166.9	132.1	237.6	1466	5973	1076	95.72	74.95	65.22	58.22	53.74	52.16	48.61	49.26	48.46	47.58	48.15	47.70	47.02	47.48	46.81	48.13	47.63	47.59	44.31	42.06	38.91	35.51	32.77	30.76	27.01	24.91	22.62	20.06	18.06	15.89	14.44	13.17	11.27	10.38	8.976	9.511	9.444	8.112	6.141	5.068	4.959	4.037	4.129	3.811	3.833	3.335	2.829	2.514	2.725	3.477	10.21	48.68	149.8	351.3	995.2	594.8	19.87	1.364	1.140	0.944	0.892	0.805	0.837	0.771
560.0	39.94	30.64	42.80	63.23	76.73	93.60	136.1	168.4	116.5	136.6	429.0	4510	3365	132.1	65.37	54.42	49.70	44.46	43.82	41.03	40.07	39.57	38.98	38.36	38.46	37.70	38.89	38.95	39.78	40.11	38.77	37.39	35.24	31.71	29.49	26.93	25.35	23.06	20.40	19.26	16.89	15.35	13.92	12.19	11.09	9.737	8.891	7.749	7.109	7.742	7.668	5.974	4.549	4.063	3.939	3.621	3.176	3.294	3.303	2.655	2.349	2.109	2.130	3.717	12.31	34.69	81.42	426.5	1018	246.5	13.21	1.112	0.881	0.735	0.850	0.750	0.717
565.0	37.45	28.36	37.90	52.20	66.16	79.37	101.0	160.1	107.7	99.20	169.1	1882	5501	497.9	56.86	46.98	41.08	38.09	36.66	35.52	33.99	33.43	32.50	33.55	32.51	32.11	32.05	32.36	32.26	32.74	32.47	30.94	28.63	26.86	24.66	22.84	20.73	19.12	17.26	15.69	14.32	13.20	11.82	10.60	9.149	8.515	7.491	6.759	6.065	6.229	6.779	5.864	4.534	3.672	3.486	3.204	2.939	2.654	2.954	2.773	2.295	1.943	1.823	2.030	3.798	8.795	19.36	101.5	508.5	901.6	204.3	5.681	0.843	0.903	0.689	0.697	0.677
570.0	35.53	27.62	34.85	45.63	56.26	66.39	75.80	122.3	122.2	82.90	98.83	520.0	4041	2457	91.77	38.49	34.34	31.18	30.00	27.92	27.67	26.92	25.81	26.19	25.57	25.55	24.93	26.01	25.58	26.00	25.59	23.92	22.77	21.65	19.99	18.04	16.69	15.27	14.27	12.79	11.53	10.76	9.537	8.272	7.704	6.912	6.318	5.495	5.119	4.676	4.801	5.098	4.225	3.513	2.925	2.660	2.640	2.277	2.400	2.291	2.162	1.881	1.608	1.510	1.898	2.964	5.312	23.53	120.6	399.6	649.7	326.3	15.43	1.132	0.723	0.641	0.614
575.0	27.99	28.74	34.50	37.42	47.50	55.96	57.83	74.75	129.6	83.62	72.63	166.1	1204	4598	698.7	33.33	26.76	25.44	22.98	21.84	21.87	20.57	20.50	20.26	20.20	19.56	19.99	20.82	19.93	19.92	19.64	19.17	17.74	16.79	15.89	13.99	12.85	11.78	11.22	10.24	8.764	8.490	7.644	6.585	6.264	5.607	5.405	4.617	4.079	3.654	3.528	3.942	4.068	3.386	2.634	2.351	2.313	1.914	2.027	1.706	1.859	1.861	1.551	1.267	1.413	1.629	2.040	6.192	27.71	89.94	199.2	613.8	266.7	22.13	0.919	0.647	0.632
580.0	29.66	31.92	33.94	33.19	42.25	46.42	49.16	55.44	111.2	92.35	64.58	84.42	325.6	3412	2380	57.33	23.79	21.26	20.27	18.90	17.89	17.36	17.76	16.69	16.41	16.59	16.30	17.15	17.03	16.48	16.58	15.40	14.64	13.55	12.99	11.56	10.67	10.27	9.519	8.367	7.580	6.970	6.549	5.845	5.367	4.895	4.276	3.833	3.490	3.199	2.898	3.003	3.425	3.377	2.689	2.176	1.886	1.611	1.722	1.569	1.528	1.827	1.721	1.194	1.285	1.144	1.316	2.257	6.947	20.72	45.76	228.1	634.1	246.3	15.29	0.794	0.734
585.0	28.86	28.91	32.01	34.42	36.48	39.47	42.52	47.20	84.69	104.7	62.55	61.01	111.0	1373	3939	266.7	21.22	18.87	17.08	15.99	15.13	14.63	14.70	14.23	13.78	14.17	13.72	13.97	14.42	14.02	14.15	12.71	12.69	11.81	10.66	9.795	9.168	8.503	7.855	7.121	6.751	5.716	5.315	4.809	4.773	3.910	3.971	3.352	3.014	2.743	2.600	2.421	2.555	3.105	2.649	2.052	1.667	1.502	1.480	1.327	1.204	1.569	1.533	1.313	1.046	1.037	0.979	1.379	2.364	5.408	10.94	52.99	279.4	626.4	207.1	7.289	0.762
590.0	25.43	27.09	29.60	31.27	32.61	34.01	36.62	41.70	57.34	105.7	70.50	54.36	62.13	364.2	2786	1589	47.20	16.12	14.21	13.58	12.68	12.41	11.78	11.20	11.19	11.36	11.42	11.20	11.57	11.27	11.22	10.49	9.943	9.380	8.662	7.676	7.479	6.987	6.313	5.759	5.370	4.550	4.634	4.216	3.775	3.397	3.107	2.928	2.536	2.236	2.156	2.010	2.024	2.410	2.448	2.078	1.612	1.394	1.322	1.293	1.254	1.228	1.174	1.354	1.204	0.977	0.875	0.970	1.220	1.871	3.137	12.51	64.98	242.1	447.5	253.8	17.00
595.0	25.10	27.91	28.36	29.51	30.83	30.37	32.16	36.18	45.78	76.71	89.19	52.61	48.98	108.6	807.2	2908	416.7	15.10	11.55	11.27	10.42	10.51	9.473	9.123	8.719	9.355	8.727	8.689	8.967	8.789	8.530	7.817	7.880	7.295	6.479	6.257	6.184	5.604	4.702	4.544	4.185	3.677	3.757	3.330	3.005	2.936	2.442	2.230	2.007	1.867	1.581	1.571	1.451	1.729	2.086	1.953	1.729	1.344	1.044	1.044	1.054	0.997	1.072	1.120	1.208	1.055	0.815	0.826	0.911	1.020	1.335	3.402	15.01	54.54	122.2	379.5	278.3
600.0	26.03	25.60	25.37	27.85	26.45	27.34	30.09	34.91	38.27	58.78	96.81	57.71	44.63	52.33	209.7	2160	1395	25.81	10.32	9.692	8.758	8.182	8.097	7.835	7.813	7.334	7.451	7.650	7.224	7.509	7.106	6.568	6.752	5.898	5.324	5.388	4.723	4.649	4.116	3.856	3.603	3.240	2.918	2.741	2.420	2.394	2.132	1.921	1.692	1.622	1.399	1.369	1.303	1.456	1.535	1.750	1.705	1.362	1.063	1.101	0.970	0.953	1.020	0.985	1.010	1.124	0.958	0.716	0.787	0.662	0.852	1.334	3.813	12.70	27.88	125.4	430.7
605.0	24.49	30.17	30.03	24.21	25.43	25.75	29.17	33.82	35.68	45.80	92.13	69.36	43.14	37.68	64.96	877.8	2355	82.79	9.950	7.988	7.680	7.638	6.683	6.926	6.638	6.266	6.709	6.159	6.096	5.962	6.171	5.788	5.717	4.859	4.675	4.568	4.037	3.983	3.530	3.245	2.805	2.787	2.520	2.306	2.167	2.028	1.891	1.721	1.564	1.399	1.295	1.232	1.063	1.144	1.109	1.458	1.598	1.365	1.086	0.952	0.981	0.821	0.856	0.856	0.866	1.075	1.004	0.790	0.771	0.610	0.674	0.863	1.424	3.348	6.752	28.89	166.0
610.0	25.79	26.06	26.44	26.04	24.57	24.23	27.01	31.77	36.63	43.23	68.81	84.69	47.37	35.40	32.37	228.4	1720	1011	26.38	7.275	6.616	6.176	5.891	5.698	5.360	5.237	5.140	5.057	5.040	4.957	4.937	4.832	4.609	3.917	3.792	3.461	3.253	3.034	2.815	2.657	2.313	2.206	2.016	1.941	1.824	1.724	1.485	1.383	1.386	1.214	1.125	1.042	0.996	0.949	0.967	1.152	1.292	1.365	1.028	0.819	0.780	0.745	0.771	0.748	0.683	0.816	0.917	0.898	0.774	0.655	0.638	0.667	0.790	1.257	1.940	6.907	38.08
615.0	26.35	27.43	24.84	23.63	23.02	24.24	25.44	28.36	35.73	41.61	52.84	81.80	55.91	35.98	26.41	63.66	508.6	1871	255.7	7.303	5.663	5.157	4.983	4.683	4.280	4.169	4.153	4.138	4.003	4.175	3.870	3.727	3.539	3.158	3.104	2.880	2.636	2.319	2.276	2.148	1.852	1.787	1.595	1.552	1.491	1.421	1.248	1.212	1.166	1.104	0.930	0.851	0.786	0.842	0.823	0.953	0.936	1.071	1.059	0.903	0.770	0.680	0.723	0.626	0.629	0.755	0.723	0.844	0.850	0.700	0.624	0.598	0.644	0.713	0.821	1.918	8.873
620.0	29.18	24.35	25.49	24.53	20.37	21.04	25.90	28.88	34.21	40.09	48.48	71.29	66.04	35.32	25.27	26.09	130.0	1444	649.2	13.39	5.260	5.008	4.343	4.309	3.859	3.519	3.640	3.322	3.346	3.544	3.515	3.094	2.969	2.762	2.586	2.442	2.110	1.900	1.995	1.757	1.593	1.626	1.478	1.388	1.348	1.249	1.159	1.054	0.991	0.964	0.768	0.757	0.800	0.715	0.717	0.754	0.833	0.883	1.028	0.798	0.650	0.605	0.642	0.635	0.585	0.689	0.614	0.667	0.840	0.802	0.631	0.573	0.547	0.579	0.559	0.855	2.347
625.0	24.70	25.71	25.05	25.79	21.26	22.04	24.00	27.69	33.93	39.81	45.59	61.63	76.66	38.66	24.83	17.87	38.65	627.6	1523	57.87	4.895	4.453	3.877	3.849	3.253	3.172	3.387	3.036	2.798	3.148	2.891	2.827	2.579	2.388	2.237	2.013	2.008	1.791	1.656	1.597	1.494	1.332	1.150	1.341	1.135	1.038	1.020	0.906	0.903	0.853	0.725	0.690	0.661	0.756	0.682	0.653	0.773	0.656	0.920	0.889	0.730	0.687	0.674	0.569	0.641	0.639	0.565	0.600	0.800	0.818	0.633	0.513	0.504	0.510	0.616	0.505	0.877
630.0	26.12	24.62	27.49	25.89	19.58	21.10	23.46	26.62	33.51	37.84	45.18	52.95	69.40	47.49	25.68	15.98	17.15	162.7	1256	681.6	12.78	4.211	3.598	3.078	2.884	2.892	2.879	2.388	2.495	2.546	2.483	2.300	2.265	2.056	1.814	1.684	1.648	1.506	1.421	1.301	1.226	1.085	1.024	0.938	0.968	0.864	0.866	0.776	0.726	0.709	0.673	0.610	0.569	0.612	0.571	0.612	0.542	0.645	0.623	0.729	0.690	0.649	0.566	0.529	0.628	0.591	0.588	0.550	0.610	0.683	0.688	0.655	0.490	0.484	0.473	0.428	0.481
635.0	27.23	23.60	23.81	25.59	20.43	20.83	22.99	26.65	34.06	36.77	43.61	48.43	56.98	57.77	28.94	15.84	12.25	42.73	398.0	1354	66.37	3.894	3.304	2.876	2.604	2.481	2.167	1.960	2.190	2.161	2.079	1.811	1.979	1.821	1.515	1.416	1.245	1.192	1.258	1.093	0.974	0.889	0.930	0.843	0.784	0.787	0.733	0.772	0.592	0.593	0.531	0.614	0.492	0.476	0.568	0.548	0.513	0.462	0.517	0.647	0.601	0.646	0.627	0.525	0.580	0.561	0.535	0.558	0.588	0.525	0.642	0.681	0.589	0.459	0.505	0.401	0.407
640.0	24.45	24.27	28.91	25.12	20.53	20.40	22.61	26.24	31.78	37.90	43.94	47.25	47.62	59.03	32.26	16.32	11.55	16.25	101.9	1141	474.8	6.518	3.200	2.972	2.355	2.231	2.115	1.956	1.964	1.695	1.681	1.543	1.565	1.522	1.430	1.211	1.150	1.113	1.054	0.918	0.880	0.840	0.805	0.701	0.611	0.692	0.638	0.602	0.553	0.479	0.465	0.475	0.485	0.452	0.489	0.429	0.465	0.441	0.452	0.524	0.596	0.681	0.585	0.531	0.533	0.544	0.635	0.512	0.531	0.487	0.587	0.660	0.664	0.441	0.505	0.403	0.479
645.0	18.69	22.70	24.61	26.95	21.05	21.46	20.20	26.54	31.24	38.02	45.19	44.73	44.57	53.30	38.67	16.35	11.19	10.11	28.14	542.2	1061	37.27	3.163	2.811	2.124	1.930	1.740	1.966	1.657	1.636	1.677	1.472	1.327	1.219	1.177	1.242	1.083	0.970	0.963	0.911	0.880	0.817	0.769	0.692	0.531	0.627	0.576	0.612	0.528	0.477	0.434	0.379	0.427	0.462	0.443	0.413	0.436	0.415	0.518	0.425	0.517	0.632	0.585	0.577	0.438	0.599	0.556	0.501	0.541	0.489	0.610	0.530	0.645	0.539	0.447	0.369	0.364
650.0	21.64	21.16	27.24	25.20	19.46	21.80	20.11	26.11	28.67	38.84	44.10	45.25	43.11	45.49	44.21	18.21	11.69	8.010	11.60	160.4	1179	239.7	3.328	2.324	2.060	1.810	1.680	1.602	1.525	1.348	1.336	1.204	1.185	1.138	1.090	1.101	1.014	0.863	0.918	0.841	0.672	0.818	0.731	0.608	0.569	0.573	0.473	0.562	0.464	0.418	0.414	0.433	0.395	0.386	0.369	0.411	0.386	0.374	0.500	0.480	0.441	0.519	0.559	0.539	0.501	0.544	0.525	0.490	0.517	0.445	0.568	0.525	0.651	0.569	0.432	0.411	0.348
