Sample:	'1
File name:	G2025051414晋控明水循环水4.FD3
Run date:	'14:22:04, 05/21/2025
Operator:	Administrator
Comment:	'

Instrument
Model:	F-2700 FL Spectrophotometer
Serial number:	23B8-004
ROM Version:	4J14000 07

Instrument parameters
Measurement type:	3-D scan
Data mode:	Fluorescence
EX  Start WL:	220.0 nm
EX  End WL:	600.0 nm
EX Sampling interval:	5.0 nm
EM  Start WL:	230.0 nm
EM  End WL:	650.0 nm
EM Sampling interval:	5.0 nm
Scan speed:	12000 nm/min
EX Slit:	5.0 nm
EM Slit:	5.0 nm
PMT Voltage:	700 V
Response:	Auto 
Corrected spectra:	Off
Contour interval:	50.000

Peak integration
Integration method:	Rectangular
Sensitivity:	1
Threshold:	1.000

Peaks
No.	ApexEX/EM(nm)	Height(Data)
1	225.0/560.0	23.79
2	240.0/265.0	303.8
3	240.0/525.0	158.1
4	245.0/270.0	354.8
5	245.0/385.0	1881
6	245.0/400.0	1555
7	245.0/535.0	160.0
8	250.0/275.0	480.3
9	250.0/550.0	138.7
10	255.0/280.0	519.6
11	255.0/565.0	118.6
12	260.0/290.0	492.8
13	260.0/575.0	100.2
14	265.0/295.0	590.1
15	265.0/585.0	85.66
16	270.0/300.0	763.6
17	270.0/600.0	74.72
18	275.0/305.0	697.0
19	275.0/610.0	59.44
20	280.0/315.0	636.6
21	280.0/385.0	3317
22	280.0/400.0	2628
23	280.0/625.0	50.72
24	285.0/320.0	685.8
25	285.0/640.0	38.87
26	290.0/325.0	598.1
27	300.0/335.0	423.3
28	305.0/345.0	392.4
29	310.0/350.0	331.3
30	315.0/355.0	330.8
31	320.0/365.0	336.8
32	355.0/385.0	1752
33	355.0/405.0	1511
34	370.0/405.0	1636
35	445.0/525.0	14.59
36	455.0/540.0	8.998
37	470.0/560.0	4.234
38	490.0/385.0	8.103
39	505.0/275.0	2.921
40	510.0/280.0	3.354
41	515.0/285.0	3.312
42	525.0/290.0	3.055
43	540.0/295.0	4.014
44	545.0/300.0	4.298
45	545.0/385.0	10.26
46	550.0/305.0	4.371
47	560.0/310.0	3.856
48	570.0/315.0	4.503
49	570.0/385.0	18.18
50	580.0/320.0	4.083
51	585.0/325.0	3.935

Data points
	220.0	225.0	230.0	235.0	240.0	245.0	250.0	255.0	260.0	265.0	270.0	275.0	280.0	285.0	290.0	295.0	300.0	305.0	310.0	315.0	320.0	325.0	330.0	335.0	340.0	345.0	350.0	355.0	360.0	365.0	370.0	375.0	380.0	385.0	390.0	395.0	400.0	405.0	410.0	415.0	420.0	425.0	430.0	435.0	440.0	445.0	450.0	455.0	460.0	465.0	470.0	475.0	480.0	485.0	490.0	495.0	500.0	505.0	510.0	515.0	520.0	525.0	530.0	535.0	540.0	545.0	550.0	555.0	560.0	565.0	570.0	575.0	580.0	585.0	590.0	595.0	600.0
230.0	22.60	81.37	205.8	105.1	15.04	6.271	5.153	4.241	4.020	3.685	3.605	3.017	2.911	2.428	2.007	1.691	1.528	1.486	1.323	1.239	1.068	1.095	1.095	1.064	1.031	0.939	0.911	0.918	0.841	0.881	0.843	0.825	0.703	0.570	0.557	0.474	0.499	0.460	0.470	0.432	0.431	0.419	0.375	0.390	0.354	0.380	0.392	0.570	0.740	0.777	0.579	0.384	0.317	0.295	0.301	0.285	0.290	0.274	0.269	0.315	0.283	0.314	0.309	0.293	0.282	0.267	0.248	0.283	0.280	0.300	0.313	0.251	0.290	0.276	0.319	0.273	0.320
235.0	25.23	32.74	169.5	558.4	385.0	38.83	6.416	5.385	4.231	4.194	3.951	2.870	3.018	2.473	1.940	1.951	1.667	1.731	1.321	1.121	1.146	1.018	1.171	1.082	1.040	0.823	1.077	0.923	0.820	0.924	0.882	0.823	0.607	0.682	0.557	0.473	0.535	0.445	0.494	0.407	0.358	0.402	0.440	0.338	0.330	0.383	0.340	0.363	0.440	0.749	1.736	2.941	2.075	0.769	0.373	0.311	0.319	0.315	0.250	0.324	0.283	0.363	0.346	0.249	0.287	0.254	0.372	0.273	0.245	0.355	0.278	0.275	0.259	0.229	0.327	0.297	0.274
240.0	25.28	20.65	64.64	595.8	1491	411.3	29.74	6.312	5.854	4.438	3.506	3.762	3.571	2.603	2.118	1.930	1.593	1.477	1.440	1.493	1.259	1.291	1.178	1.202	1.234	0.917	0.940	1.015	0.802	0.782	0.810	0.827	0.712	0.712	0.515	0.476	0.480	0.544	0.493	0.425	0.399	0.409	0.440	0.355	0.333	0.306	0.292	0.363	0.411	0.468	1.111	3.603	6.173	6.078	2.948	0.684	0.315	0.384	0.309	0.370	0.283	0.370	0.319	0.235	0.356	0.309	0.319	0.268	0.283	0.332	0.274	0.329	0.291	0.261	0.228	0.278	0.263
245.0	27.09	35.79	41.64	236.6	1749	2308	332.2	15.53	6.349	5.293	4.015	3.832	3.461	2.759	2.241	1.971	1.679	1.538	1.568	1.456	1.294	1.187	1.206	1.099	1.247	1.204	1.061	1.018	0.852	1.017	0.950	0.858	0.694	0.671	0.582	0.505	0.538	0.452	0.403	0.509	0.428	0.395	0.402	0.350	0.346	0.428	0.347	0.379	0.354	0.356	0.520	1.401	4.393	10.24	12.27	7.797	2.640	0.511	0.295	0.312	0.302	0.328	0.327	0.279	0.404	0.286	0.351	0.265	0.284	0.302	0.314	0.357	0.280	0.284	0.303	0.254	0.366
250.0	27.17	39.62	69.46	101.6	575.3	2302	3357	1191	72.93	7.167	5.600	4.544	3.684	2.840	2.452	2.055	1.956	1.475	1.633	1.331	1.352	1.122	1.103	1.194	1.192	1.097	1.097	1.045	1.018	1.062	0.935	0.872	0.739	0.615	0.511	0.503	0.531	0.416	0.412	0.505	0.490	0.446	0.436	0.413	0.399	0.396	0.378	0.376	0.468	0.460	0.481	0.601	1.334	3.501	7.185	12.31	16.80	16.08	8.806	2.615	0.489	0.340	0.321	0.343	0.363	0.339	0.295	0.275	0.293	0.289	0.292	0.310	0.337	0.266	0.309	0.261	0.312
255.0	25.01	29.55	59.64	167.0	195.4	593.0	2655	5514	1615	65.03	8.099	5.767	5.036	3.848	2.905	2.679	2.190	1.688	1.720	1.670	1.373	1.145	1.421	1.215	1.213	1.213	1.070	1.063	1.087	1.074	1.005	0.941	0.809	0.618	0.552	0.529	0.550	0.464	0.480	0.460	0.476	0.492	0.448	0.512	0.378	0.404	0.391	0.356	0.444	0.531	0.748	0.937	0.756	1.166	1.868	3.162	6.138	15.61	28.13	27.18	13.66	2.602	0.432	0.342	0.369	0.394	0.307	0.301	0.327	0.329	0.273	0.294	0.329	0.242	0.304	0.353	0.256
260.0	30.62	23.71	34.59	167.9	240.0	177.7	810.9	4640	6091	275.7	27.90	8.150	5.896	4.448	3.305	2.772	2.283	1.689	1.930	1.739	1.455	1.210	1.256	1.214	1.243	1.300	1.026	1.273	1.085	0.990	1.007	1.074	0.701	0.670	0.588	0.580	0.527	0.543	0.440	0.463	0.526	0.515	0.471	0.507	0.488	0.437	0.472	0.344	0.345	0.371	0.645	1.244	1.194	0.940	0.817	1.065	1.703	4.441	12.49	26.71	37.57	24.92	10.23	1.508	0.364	0.380	0.379	0.366	0.389	0.323	0.278	0.351	0.317	0.267	0.289	0.349	0.289
265.0	34.36	22.24	23.51	94.76	303.8	207.1	220.9	1589	6739	5810	213.5	13.03	7.447	5.105	3.973	2.844	2.654	2.211	1.870	1.901	1.551	1.533	1.400	1.226	1.221	1.209	1.087	1.208	0.933	0.943	0.981	0.927	0.773	0.664	0.624	0.548	0.535	0.509	0.484	0.519	0.427	0.485	0.520	0.492	0.486	0.498	0.396	0.395	0.353	0.349	0.440	0.674	1.206	1.738	1.233	0.786	0.678	1.424	3.291	7.854	20.47	37.59	33.51	21.93	5.436	0.734	0.341	0.380	0.359	0.394	0.310	0.353	0.242	0.281	0.284	0.312	0.293
270.0	39.80	26.90	23.90	39.59	153.9	354.8	259.2	405.3	2219	6545	7322	809.5	46.00	7.711	5.419	3.904	3.349	2.743	2.073	1.997	1.691	1.588	1.515	1.500	1.262	1.328	1.187	1.339	1.110	1.103	1.113	1.007	0.828	0.713	0.671	0.594	0.599	0.600	0.513	0.490	0.445	0.504	0.519	0.493	0.470	0.485	0.436	0.417	0.424	0.342	0.333	0.428	0.646	1.109	1.638	1.904	1.721	1.060	1.150	2.173	5.073	11.26	20.03	34.11	34.71	34.61	14.60	4.841	0.704	0.385	0.341	0.366	0.304	0.291	0.345	0.355	0.385
275.0	38.35	36.27	28.44	27.66	56.43	178.8	480.3	303.7	538.1	1674	6477	9999.9	1074	33.70	8.246	5.942	4.211	3.622	2.355	2.404	2.019	1.608	1.831	1.715	1.634	1.388	1.279	1.243	1.134	1.160	1.174	1.199	0.965	0.835	0.617	0.660	0.550	0.567	0.514	0.498	0.569	0.425	0.510	0.432	0.452	0.489	0.489	0.378	0.374	0.369	0.341	0.368	0.446	0.545	0.702	1.216	2.217	2.921	1.924	1.134	1.529	2.865	4.946	8.256	11.32	28.09	53.34	33.64	22.60	4.813	0.629	0.337	0.340	0.387	0.348	0.377	0.408
280.0	43.08	38.16	30.32	30.02	37.18	72.68	325.0	519.6	234.1	426.6	1978	9876	8893	147.9	17.17	7.587	5.258	4.426	2.767	2.977	2.368	1.886	1.829	1.547	1.555	1.329	1.352	1.286	1.200	1.188	1.279	1.233	0.941	0.958	0.784	0.669	0.727	0.609	0.489	0.574	0.603	0.515	0.558	0.453	0.507	0.527	0.424	0.436	0.392	0.402	0.330	0.389	0.467	0.492	0.481	0.621	1.156	2.281	3.354	2.891	1.197	1.096	1.562	2.273	3.105	7.349	20.04	40.84	62.04	32.34	16.78	2.214	0.435	0.402	0.414	0.363	0.390
285.0	49.21	42.74	39.19	36.69	35.87	47.16	133.6	507.9	339.6	169.4	512.2	3341	9999.9	6604	108.0	10.98	6.103	4.649	3.382	3.354	2.564	2.068	2.032	1.546	1.621	1.537	1.583	1.519	1.273	1.177	1.253	1.250	1.014	0.830	0.720	0.743	0.661	0.644	0.566	0.683	0.579	0.579	0.475	0.516	0.525	0.519	0.434	0.462	0.417	0.366	0.349	0.478	0.430	0.461	0.429	0.456	0.729	1.031	2.001	3.312	3.182	1.649	1.014	1.072	1.194	2.096	5.052	11.12	28.07	51.70	67.30	28.30	10.50	1.043	0.533	0.429	0.454
290.0	47.10	41.86	45.21	46.67	46.57	48.82	72.80	216.1	492.8	412.1	234.2	840.4	3403	9056	7914	429.5	24.08	6.736	4.935	3.974	3.087	2.421	2.245	1.924	1.953	1.734	1.686	1.448	1.385	1.300	1.395	1.310	0.983	0.893	0.816	0.770	0.677	0.604	0.582	0.622	0.595	0.519	0.549	0.526	0.531	0.478	0.445	0.533	0.443	0.440	0.436	0.482	0.530	0.547	0.497	0.550	0.676	0.731	0.965	1.451	2.244	3.055	2.952	2.162	1.292	1.176	1.724	3.228	7.036	14.00	27.53	39.59	51.76	44.55	18.86	8.595	1.215
295.0	49.34	41.08	52.86	59.68	58.64	63.71	68.95	112.1	221.1	590.1	488.1	315.5	854.3	2278	7354	9999.9	592.5	19.93	7.869	5.347	4.395	3.220	2.725	2.291	1.987	1.892	1.901	1.900	1.482	1.340	1.526	1.309	1.067	0.913	0.905	0.727	0.774	0.639	0.602	0.617	0.586	0.496	0.549	0.495	0.476	0.554	0.448	0.488	0.474	0.472	0.470	0.523	0.520	0.527	0.539	0.543	0.714	0.623	0.704	0.817	1.196	1.357	2.103	3.703	4.014	2.189	1.298	1.501	2.289	3.884	6.883	9.565	13.71	24.94	52.57	70.95	30.25
300.0	50.06	42.85	57.85	64.84	68.30	75.37	87.74	110.9	149.4	377.8	763.6	264.8	316.4	598.6	2157	9999.9	5721	86.00	13.00	7.132	4.683	4.025	3.252	2.653	2.151	2.089	2.036	1.860	1.536	1.581	1.428	1.419	1.114	1.035	1.038	0.642	0.857	0.746	0.572	0.628	0.551	0.573	0.582	0.555	0.526	0.523	0.469	0.458	0.471	0.450	0.533	0.534	0.541	0.663	0.505	0.726	0.668	0.786	0.838	0.820	0.872	0.971	1.245	2.194	3.713	4.298	2.936	1.760	1.493	1.688	2.303	2.891	3.779	6.384	16.30	41.47	67.56
305.0	58.90	48.41	58.10	71.19	82.49	102.5	116.2	136.9	170.7	266.2	626.4	697.0	289.8	256.3	574.6	3356	9999.9	4604	66.39	9.670	6.140	4.670	4.004	3.288	2.448	2.432	2.468	1.961	1.755	1.502	1.440	1.503	1.219	1.010	0.981	0.816	0.765	0.715	0.708	0.655	0.586	0.620	0.635	0.615	0.576	0.586	0.458	0.459	0.466	0.422	0.521	0.651	0.618	0.709	0.695	0.767	0.828	0.936	1.046	1.017	1.018	1.005	1.185	1.509	2.063	3.352	4.371	3.691	2.239	1.637	1.588	1.482	1.615	2.156	4.319	10.59	24.68
310.0	58.51	54.30	61.70	84.09	94.81	115.7	138.2	167.8	204.8	256.4	396.3	666.6	633.5	292.1	253.2	841.6	3381	8166	7159	301.9	18.72	6.679	5.282	3.914	3.354	2.640	2.463	2.336	1.876	1.594	1.679	1.730	1.196	1.114	0.874	0.948	0.815	0.732	0.857	0.673	0.656	0.629	0.567	0.587	0.558	0.562	0.430	0.524	0.459	0.479	0.495	0.682	0.718	0.751	0.817	0.736	0.908	0.998	1.060	1.131	1.171	1.316	1.378	1.491	1.685	2.064	2.602	3.459	3.856	3.567	2.630	1.760	1.370	1.463	1.821	3.171	6.263
315.0	59.50	52.83	71.86	89.90	106.8	123.9	151.5	186.0	225.4	271.3	338.4	427.5	636.6	601.5	240.5	291.7	834.8	2036	6917	9977	462.2	17.05	6.967	5.307	3.724	3.273	2.630	2.778	2.295	1.853	1.887	1.819	1.406	1.249	1.011	0.873	0.904	0.870	0.877	0.654	0.611	0.743	0.551	0.539	0.611	0.566	0.548	0.534	0.477	0.547	0.591	0.713	0.845	0.702	0.872	0.743	0.937	0.960	1.160	1.229	1.305	1.316	1.487	1.699	1.648	1.815	1.984	2.299	2.593	3.204	4.503	3.804	2.374	1.621	1.374	1.658	2.155
320.0	57.87	58.10	73.23	98.16	120.2	140.0	168.6	196.5	244.3	286.5	337.4	376.1	455.5	685.8	416.9	192.7	279.9	518.8	2001	9386	8411	66.05	11.29	6.638	4.668	3.905	3.323	2.760	2.327	2.058	2.006	1.907	1.524	1.227	1.087	0.917	1.011	0.895	0.853	0.662	0.682	0.811	0.616	0.608	0.583	0.577	0.619	0.503	0.593	0.570	0.549	0.654	0.809	0.834	0.900	0.977	1.172	1.123	1.138	1.265	1.280	1.444	1.571	1.847	1.810	1.928	1.908	1.994	1.979	2.279	2.907	3.906	4.083	2.790	1.828	1.360	1.530
325.0	72.98	62.95	88.05	116.0	133.0	147.9	182.7	213.0	256.8	303.1	346.6	372.6	388.8	503.9	598.1	256.4	164.5	188.0	496.0	3084	9999.9	3780	54.59	9.532	6.251	4.513	3.816	2.957	2.484	2.077	2.204	1.914	1.493	1.385	1.242	0.998	1.028	0.924	0.798	0.767	0.737	0.783	0.620	0.635	0.565	0.659	0.618	0.591	0.673	0.629	0.666	0.770	0.815	0.895	1.064	1.085	1.109	1.236	1.113	1.308	1.439	1.449	1.618	1.755	1.825	2.013	1.931	1.924	2.012	2.085	2.114	2.599	3.346	3.935	3.224	1.930	1.450
330.0	78.06	72.17	108.3	148.4	170.0	178.7	196.7	229.4	260.0	312.2	359.7	380.4	372.6	374.0	457.0	449.7	230.6	129.6	168.9	736.9	3247	7434	6645	1166	18.08	6.632	4.908	4.035	3.182	2.436	2.414	2.044	1.701	1.484	1.229	1.026	1.076	0.944	0.926	0.819	0.757	0.774	0.625	0.604	0.680	0.637	0.611	0.632	0.655	0.638	0.809	0.891	0.989	0.992	1.084	1.205	1.160	1.286	1.308	1.435	1.405	1.501	1.609	1.751	1.961	1.927	1.950	1.895	2.158	2.067	2.083	2.220	2.287	2.471	3.141	3.147	2.717
335.0	82.06	74.32	123.5	188.4	215.1	217.4	223.9	245.7	275.3	324.7	369.2	384.9	387.1	354.9	332.3	375.1	423.3	187.6	111.0	219.7	765.0	1846	6457	9717	405.8	16.89	6.770	5.101	3.944	3.325	2.840	2.728	1.926	1.896	1.496	1.207	1.041	0.938	0.947	0.855	0.897	0.796	0.740	0.618	0.700	0.584	0.602	0.547	0.667	0.649	0.825	1.042	1.115	1.102	1.251	1.256	1.330	1.439	1.383	1.523	1.439	1.627	1.571	1.788	1.944	1.960	2.004	1.975	2.172	2.179	2.030	2.200	1.971	2.026	2.056	2.367	2.774
340.0	83.30	84.89	141.0	203.0	257.0	248.8	251.2	269.1	294.3	329.6	375.7	394.6	390.0	356.0	308.9	288.5	406.8	327.1	129.7	116.5	222.2	451.4	1871	8825	8004	322.7	10.87	6.365	4.738	3.580	2.937	2.601	2.039	1.793	1.593	1.246	1.147	1.011	0.940	0.782	0.864	0.870	0.843	0.658	0.596	0.685	0.668	0.665	0.718	0.793	0.911	1.150	1.177	1.246	1.340	1.396	1.472	1.471	1.538	1.652	1.670	1.671	1.668	1.776	1.831	1.965	2.019	2.268	2.217	2.063	2.188	2.066	2.041	1.969	1.926	1.886	2.113
345.0	87.13	89.41	145.8	221.2	272.6	281.0	287.5	287.6	303.9	346.1	376.8	399.5	389.0	360.7	313.1	268.3	298.6	392.4	226.6	111.4	112.0	150.3	458.1	2858	9779	3357	49.60	8.765	5.674	4.223	3.369	2.943	2.312	1.771	1.513	1.406	1.175	1.074	1.077	0.917	0.922	0.787	0.765	0.678	0.593	0.580	0.593	0.731	0.771	0.803	0.899	1.344	1.307	1.453	1.416	1.512	1.500	1.619	1.549	1.631	1.640	1.645	1.919	1.803	1.880	1.844	1.889	1.986	2.058	2.003	2.152	2.081	2.121	1.833	1.765	1.867	1.881
350.0	92.89	88.81	143.4	243.1	313.1	333.9	332.6	325.5	336.6	364.8	388.6	401.1	393.3	363.7	321.4	277.3	256.8	293.9	331.3	210.3	118.1	101.5	156.7	683.3	3046	6388	5810	1132	18.18	5.761	4.325	3.425	2.495	2.038	1.584	1.446	1.330	1.176	1.012	0.881	0.851	0.862	0.702	0.700	0.682	0.657	0.582	0.650	0.734	0.791	0.904	1.264	1.413	1.508	1.515	1.674	1.751	1.687	1.647	1.760	1.834	1.803	1.939	1.948	2.001	1.958	2.109	1.992	2.107	2.165	2.091	2.147	2.046	1.916	1.813	1.952	1.977
355.0	90.54	81.87	147.1	262.8	347.1	381.2	389.1	374.2	376.0	393.9	403.8	407.9	400.2	375.6	340.2	295.4	265.1	254.2	269.3	330.8	207.2	121.8	112.2	207.8	723.4	1564	5147	8525	391.2	19.05	7.025	5.072	3.229	2.278	1.904	1.575	1.281	1.096	1.057	0.961	0.938	0.834	0.694	0.740	0.695	0.599	0.668	0.727	0.764	0.887	0.933	1.324	1.626	1.714	1.551	1.766	1.809	1.802	1.733	1.855	1.926	1.965	2.014	2.232	2.119	1.993	2.020	2.019	2.183	2.154	2.287	2.194	2.218	1.957	2.128	2.056	2.110
360.0	83.02	88.46	147.9	269.6	383.5	436.0	422.3	406.8	410.3	414.7	422.8	422.9	419.1	386.8	355.3	310.6	283.2	259.2	243.9	305.6	314.5	171.5	121.6	124.6	222.1	395.1	1437	7103	7577	331.5	14.56	8.398	4.775	2.828	2.199	1.718	1.336	1.368	1.180	0.954	0.905	0.933	0.709	0.730	0.640	0.619	0.700	0.742	0.805	0.882	0.908	1.359	1.489	1.839	1.807	1.914	1.792	2.012	1.978	2.215	1.924	2.060	2.188	2.351	2.248	2.111	2.097	2.070	2.340	2.087	2.161	2.260	2.461	2.002	2.025	2.125	2.131
365.0	85.91	86.37	149.7	285.2	414.1	472.3	460.3	437.9	438.2	448.1	452.9	455.0	447.2	407.7	366.4	328.3	300.7	278.2	256.4	265.4	336.8	271.1	156.5	129.3	130.3	152.0	376.7	2201	8336	3213	50.62	20.13	8.709	4.372	2.502	1.898	1.603	1.350	1.184	1.040	0.928	0.960	0.826	0.828	0.740	0.649	0.739	0.739	0.774	0.840	0.960	1.547	1.736	1.905	2.017	2.022	1.948	2.162	2.113	2.258	2.159	2.002	2.144	2.364	2.391	2.316	2.247	2.102	2.247	2.326	2.354	2.537	2.507	2.151	2.127	2.183	2.092
370.0	90.36	93.48	172.9	362.2	566.9	638.2	557.3	518.4	529.8	555.8	641.9	631.7	761.6	571.4	402.6	356.2	333.9	312.3	294.4	290.7	314.8	354.1	310.9	246.4	210.6	210.2	296.2	700.9	2606	5447	5417	1207	106.4	20.82	5.427	3.000	2.024	1.665	1.373	1.238	1.119	0.965	0.849	0.793	0.759	0.737	0.697	0.756	0.852	0.940	1.223	1.758	2.210	2.733	2.778	2.474	2.496	2.658	2.422	2.445	2.573	2.560	2.595	2.832	3.055	3.279	3.014	2.960	3.160	3.872	4.054	3.148	2.669	2.476	2.271	2.400	2.318
375.0	95.66	122.1	267.6	640.2	1123	1196	784.6	687.8	783.3	935.2	1281	1250	1907	1142	509.5	413.2	384.9	375.2	366.0	381.2	412.7	439.6	534.3	502.8	465.4	461.3	861.8	1015	1176	1907	5187	8558	1870	107.4	15.49	5.610	3.213	2.249	1.666	1.478	1.180	1.147	1.072	1.022	0.849	0.728	0.856	0.966	0.990	1.239	1.869	2.949	3.733	5.034	5.258	4.224	3.632	3.275	3.345	3.211	3.462	3.864	4.042	4.149	5.725	6.198	5.546	5.309	6.127	9.792	10.12	5.686	3.672	2.900	2.497	2.837	2.863
380.0	105.9	134.9	364.8	861.1	1597	1652	986.2	828.3	988.6	1238	1836	1764	2861	1672	591.4	453.9	427.4	426.3	424.1	457.1	512.1	539.7	701.7	917.8	822.5	869.3	1367	1494	1158	1376	2817	7388	7316	347.5	29.60	8.404	4.385	2.992	2.009	1.717	1.404	1.407	1.169	1.168	1.011	0.880	0.845	0.981	1.311	1.594	2.406	3.870	5.057	6.854	7.172	5.495	4.426	3.783	3.859	3.652	4.327	4.733	5.159	5.149	7.184	9.206	7.573	7.106	9.043	14.77	14.99	8.041	4.464	3.324	2.870	2.938	2.925
385.0	105.8	140.2	387.3	983.6	1818	1881	1098	897.1	1079	1400	2090	2017	3317	1919	630.3	472.2	445.1	450.1	454.2	497.5	567.1	594.9	766.5	1050	1024	1062	1619	1752	1269	1374	2278	3632	6968	5423	249.6	11.43	5.401	3.514	2.462	2.033	1.471	1.447	1.388	1.163	1.132	1.017	0.920	1.099	1.299	1.759	2.702	4.401	6.101	7.502	8.103	6.104	4.920	4.052	4.064	3.878	4.737	5.245	5.452	6.158	8.412	10.26	8.237	8.109	10.33	16.76	18.18	8.969	4.934	3.556	3.182	3.137	3.128
390.0	88.77	127.2	329.7	826.3	1519	1604	978.1	835.2	962.4	1206	1745	1693	2685	1595	581.8	447.9	427.0	428.0	429.9	464.4	515.3	535.4	661.1	853.0	874.8	946.6	1336	1421	1016	1073	1679	1967	2303	4561	4078	999.2	17.52	4.423	3.064	2.184	1.647	1.458	1.255	1.198	1.089	1.065	0.945	1.039	1.229	1.545	2.322	3.749	4.872	6.509	6.841	5.313	4.402	3.778	3.780	3.663	4.020	4.673	4.603	5.340	6.921	8.604	7.430	6.724	8.420	13.64	14.66	7.502	4.266	3.355	2.947	2.846	2.952
395.0	92.75	117.6	318.2	763.4	1408	1489	935.9	795.2	928.0	1140	1606	1568	2469	1470	554.9	431.9	410.8	414.8	424.5	453.8	498.8	521.4	633.6	794.5	781.5	899.8	1294	1328	944.8	983.1	1511	1556	914.0	1148	2699	5700	1564	20.54	4.077	2.648	2.084	1.721	1.563	1.217	1.155	1.055	0.902	1.036	1.169	1.471	2.110	3.395	4.505	6.182	6.387	4.809	4.272	3.839	3.739	3.467	4.160	4.501	4.452	5.173	6.281	7.965	6.708	6.185	7.739	12.76	13.51	7.141	4.159	3.230	2.870	2.915	2.917
400.0	89.00	114.9	325.8	803.2	1482	1555	966.3	827.7	959.2	1190	1691	1634	2628	1546	563.2	435.4	409.1	415.4	427.2	460.1	514.4	542.8	668.1	838.5	820.6	929.1	1414	1470	1029	1075	1634	1617	661.9	375.8	707.5	3678	5309	282.2	13.06	3.598	2.420	2.066	1.706	1.322	1.363	1.144	0.920	1.154	1.335	1.631	2.194	3.631	4.967	6.295	6.648	4.988	4.277	3.679	3.736	3.636	4.300	4.695	4.679	5.134	6.703	8.385	7.087	6.577	8.330	13.02	13.70	7.493	4.167	3.083	2.887	2.787	2.764
405.0	85.69	119.6	313.6	796.4	1449	1542	961.7	828.8	944.3	1177	1691	1620	2598	1527	550.3	430.9	402.2	408.2	416.6	451.9	511.8	539.3	662.7	834.1	817.3	911.4	1385	1511	1052	1081	1636	1601	608.2	205.1	191.7	987.7	4141	4308	234.9	6.911	2.810	2.318	1.797	1.448	1.257	1.106	1.013	1.101	1.408	1.643	2.226	3.668	4.804	6.173	6.837	4.974	4.238	3.650	3.526	3.766	4.166	4.521	4.709	4.958	6.975	8.373	6.934	6.474	8.272	13.05	13.46	7.251	4.143	3.138	2.792	2.757	2.597
410.0	72.58	101.6	256.8	637.7	1143	1234	834.3	736.0	821.3	976.8	1337	1280	1938	1187	490.8	388.7	371.5	372.2	378.1	404.7	446.3	463.1	549.8	671.6	656.3	714.7	1032	1136	843.0	829.4	1206	1174	446.1	140.2	75.16	239.4	1096	3086	3129	963.9	15.63	3.029	2.087	1.655	1.348	1.112	1.039	1.077	1.113	1.411	1.829	2.898	3.840	5.037	5.196	4.323	3.585	3.267	3.322	3.363	3.779	3.969	4.014	4.421	5.609	6.631	5.756	5.149	6.613	9.973	10.37	6.013	3.463	2.937	2.460	2.635	2.515
415.0	60.61	83.95	209.4	489.3	886.6	959.0	705.5	666.7	716.6	808.0	1022	985.7	1400	887.2	430.5	351.8	338.6	335.6	342.7	353.0	379.9	398.1	452.5	528.0	515.9	546.9	739.9	792.1	625.6	642.1	846.6	801.8	318.6	109.2	51.59	74.70	259.1	709.8	1734	4147	1449	20.29	2.867	2.037	1.617	1.142	1.152	1.013	1.022	1.161	1.612	2.311	3.335	3.780	4.228	3.555	3.209	2.947	2.928	3.065	3.274	3.392	3.417	3.829	4.451	5.174	4.675	3.887	4.868	6.981	7.453	4.446	3.006	2.595	2.345	2.299	2.448
420.0	59.88	76.57	193.2	444.9	782.1	871.8	679.9	629.3	679.6	742.8	919.8	881.7	1219	788.1	403.7	338.5	320.1	316.3	320.2	333.6	353.0	368.9	413.1	473.7	466.2	491.1	643.6	682.2	532.1	572.6	750.3	688.9	282.5	104.8	50.20	41.97	74.84	170.9	430.0	2403	4029	265.4	12.66	2.453	1.815	1.574	1.290	0.979	1.031	1.128	1.451	2.198	2.984	3.602	3.816	3.319	2.961	3.032	2.886	2.913	2.918	3.396	3.261	3.369	3.895	4.609	4.075	3.816	4.398	6.204	6.336	3.993	2.852	2.354	2.174	2.213	2.157
425.0	60.41	67.88	183.5	413.8	736.7	820.3	644.5	616.3	657.1	718.3	867.6	839.1	1132	730.8	389.9	320.8	306.5	301.7	304.3	317.7	336.2	349.5	390.4	449.8	443.4	465.8	605.4	635.4	496.0	522.6	723.8	655.9	269.0	105.4	53.30	37.87	36.73	52.08	107.3	623.1	2817	3326	227.4	6.095	2.395	1.810	1.270	1.049	1.076	0.966	1.463	2.176	2.822	3.488	3.694	3.134	2.891	2.853	2.753	2.715	2.868	3.229	3.087	3.333	3.740	4.482	3.838	3.516	4.089	5.851	5.845	3.754	2.740	2.369	2.159	2.058	2.034
430.0	75.04	68.77	158.3	372.2	647.4	724.6	609.0	589.1	621.2	658.6	778.2	734.7	952.4	640.8	360.3	306.5	286.9	286.0	281.0	291.9	306.7	317.8	352.5	396.4	392.1	408.2	515.6	537.1	424.9	432.1	588.4	569.9	251.3	105.8	58.15	41.51	32.76	29.18	37.42	149.0	722.7	2161	2544	881.9	14.91	2.451	1.473	1.304	1.163	1.080	1.427	2.094	2.508	3.083	3.184	2.914	2.784	2.689	2.725	2.773	2.838	2.878	2.992	3.168	3.346	4.090	3.555	3.239	3.606	4.809	4.870	3.475	2.574	2.174	2.244	1.942	2.030
435.0	120.6	66.36	137.4	312.1	535.6	619.0	559.9	554.0	574.2	599.7	668.3	623.1	736.0	530.2	331.5	286.6	268.7	262.6	260.1	267.5	275.2	281.8	303.1	333.8	328.0	337.9	403.7	414.6	341.7	339.7	423.9	420.7	230.6	111.8	65.16	47.57	35.86	27.68	24.16	45.46	170.3	494.4	1289	3424	1362	20.04	2.271	1.656	1.290	1.278	1.265	1.969	2.237	2.609	2.685	2.752	2.629	2.623	2.731	2.670	2.785	2.811	2.843	2.870	3.124	3.453	2.971	3.051	3.022	3.774	3.821	2.828	2.361	2.229	2.156	2.016	2.183
440.0	148.1	74.70	118.9	276.4	467.8	561.8	528.5	536.5	548.1	560.9	601.4	565.9	624.2	465.8	312.0	275.2	254.0	249.6	245.4	252.2	254.2	259.8	276.5	292.9	294.2	299.0	342.6	350.1	295.0	288.8	342.1	327.2	208.3	127.2	72.04	51.36	39.46	30.27	23.57	24.43	48.93	118.7	316.6	1960	3531	248.5	12.05	2.054	1.546	1.277	1.270	1.900	2.253	2.275	2.424	2.447	2.683	2.567	2.552	2.389	2.582	2.580	2.721	2.730	2.927	3.007	2.675	2.796	2.837	3.295	3.012	2.535	2.032	1.985	1.939	1.872	2.085
445.0	141.3	104.0	118.6	264.6	427.5	520.0	506.6	520.5	530.5	534.2	570.0	522.1	555.2	427.6	300.1	261.5	240.2	235.5	231.7	233.7	238.5	242.2	255.3	273.9	270.5	271.9	307.2	311.9	270.9	260.5	299.5	278.3	182.1	136.5	86.02	55.88	43.27	33.29	26.44	21.38	23.56	35.35	78.60	510.4	2474	3001	195.1	6.493	1.751	1.501	1.405	1.838	1.933	2.173	2.394	2.331	2.416	2.594	2.330	2.318	2.508	2.659	2.681	2.638	2.717	2.813	2.538	2.377	2.721	2.945	2.806	2.318	2.085	1.788	1.904	1.809	1.880
450.0	87.27	138.5	120.8	229.7	390.7	467.8	472.6	488.8	503.9	508.0	524.9	487.8	501.7	390.1	284.9	244.9	225.2	218.0	213.4	217.8	218.2	221.8	231.4	246.7	243.2	246.4	272.7	275.6	243.2	236.9	263.1	242.7	156.7	120.6	103.5	69.76	48.37	37.78	29.84	23.39	20.12	19.32	26.52	121.3	635.2	1939	2203	784.4	12.41	1.966	1.636	1.868	1.953	2.107	2.253	2.163	2.441	2.336	2.355	2.359	2.438	2.535	2.509	2.482	2.507	2.602	2.466	2.306	2.406	2.615	2.492	2.183	1.924	1.897	1.677	1.810	1.762
455.0	51.76	124.4	164.1	207.7	343.1	423.1	440.1	458.8	472.8	473.1	481.4	443.5	441.5	350.6	260.9	226.9	208.2	199.5	194.7	194.3	198.5	199.3	206.7	215.2	215.2	217.1	236.1	238.9	213.6	210.0	227.5	208.3	139.8	104.2	97.03	86.47	58.09	41.85	32.64	26.24	21.31	17.59	16.27	35.06	147.6	442.4	1058	2813	1088	15.40	2.254	2.033	1.832	2.128	2.211	1.926	2.185	2.204	2.255	2.341	2.250	2.388	2.356	2.187	2.460	2.459	2.157	2.237	2.227	2.400	2.106	1.910	1.840	1.783	1.631	1.683	1.563
460.0	45.96	81.89	210.8	216.6	310.9	384.8	407.7	429.6	442.4	445.5	440.5	409.0	395.8	316.8	247.0	211.9	195.2	186.9	181.1	177.8	180.0	182.7	188.3	195.5	193.9	195.0	209.6	210.6	193.6	188.2	198.8	183.6	128.3	98.00	85.90	86.56	70.50	46.43	35.11	27.96	22.81	18.21	14.72	16.60	39.88	104.3	255.6	1531	2734	184.7	10.56	2.270	1.854	2.166	2.123	1.884	2.169	1.945	2.294	2.289	2.275	2.342	2.168	2.203	2.354	2.308	2.171	2.119	2.073	2.073	2.111	1.777	1.501	1.758	1.837	1.645	1.667
465.0	39.55	54.39	248.7	255.3	290.8	358.3	394.5	407.5	414.7	413.3	410.5	376.5	357.1	289.2	235.8	195.5	182.0	173.9	168.7	164.9	166.9	167.5	172.5	177.0	175.4	177.7	186.7	185.2	174.0	171.2	176.2	162.6	119.4	93.06	79.43	75.78	75.17	53.09	37.15	29.37	24.30	18.64	15.23	12.73	16.43	29.11	62.32	392.6	1911	2188	164.2	6.325	2.213	2.118	2.092	1.949	2.166	1.996	2.164	2.247	2.191	2.182	1.966	2.061	2.281	2.196	1.979	2.066	1.990	1.949	1.963	1.879	1.491	1.673	1.643	1.403	1.490
470.0	39.13	38.92	179.8	438.8	312.3	323.6	351.2	371.4	379.2	375.5	367.0	337.9	318.2	261.0	212.5	180.9	164.8	157.0	151.4	146.8	148.1	148.5	150.3	154.0	153.5	155.1	161.4	160.1	152.9	150.2	151.5	139.8	108.1	87.98	73.65	65.18	64.99	61.02	43.01	30.72	24.90	20.14	16.19	12.76	11.44	12.78	18.97	92.08	488.7	1393	1555	670.1	12.65	2.402	2.203	1.939	2.124	2.002	1.963	2.085	2.019	2.029	1.949	1.959	2.011	1.966	1.838	1.793	1.796	1.753	1.737	1.657	1.325	1.467	1.345	1.281	1.368
475.0	38.15	36.94	94.69	572.3	602.5	300.0	315.2	342.3	336.7	342.5	329.1	311.5	276.4	232.5	188.9	164.2	148.7	142.7	132.6	131.9	130.1	131.4	133.4	133.7	134.8	134.5	137.9	140.1	134.5	130.9	130.9	121.4	96.34	81.32	67.74	60.27	53.35	55.23	51.03	34.50	25.59	20.35	16.54	13.22	10.99	9.380	9.217	24.88	112.4	316.1	691.3	1877	795.0	16.75	2.265	2.032	1.920	2.026	1.897	1.725	1.895	1.842	1.853	1.791	1.820	1.769	1.846	1.508	1.611	1.644	1.600	1.507	1.242	1.361	1.270	1.180	1.282
480.0	42.97	34.18	73.98	432.8	1048	351.8	287.7	315.8	314.3	317.5	307.9	283.7	255.5	210.4	176.8	152.3	137.8	128.1	121.4	119.7	118.9	118.4	121.5	121.5	120.5	121.2	124.4	124.4	121.4	120.3	117.4	109.2	90.12	77.65	65.84	57.88	49.49	47.01	50.49	40.07	26.66	20.76	17.23	13.78	10.98	9.001	7.541	9.982	28.67	73.98	166.6	974.6	1836	212.7	9.945	2.359	2.149	2.054	1.796	1.644	1.769	1.686	1.680	1.776	1.726	1.722	1.627	1.530	1.396	1.554	1.470	1.367	1.321	1.279	1.148	1.223	1.115
485.0	35.20	33.43	64.34	247.2	1301	569.1	270.4	283.9	285.9	293.4	286.7	260.9	238.1	198.4	166.3	140.4	129.5	116.9	115.6	111.5	110.8	108.4	110.8	109.9	111.3	111.1	114.3	114.9	110.5	109.6	109.1	101.0	85.21	73.92	62.27	55.31	47.46	42.85	43.27	43.33	30.80	21.48	16.96	13.92	11.29	8.990	7.640	6.891	10.20	19.70	40.26	250.2	1299	1667	175.8	4.887	2.442	1.934	1.758	1.684	1.587	1.591	1.685	1.742	1.696	1.521	1.415	1.518	1.464	1.444	1.422	1.380	1.281	1.254	1.148	1.064	1.030
490.0	35.22	37.00	53.84	140.3	874.9	1431	370.4	264.5	267.5	268.5	263.1	237.1	214.8	180.2	152.2	130.0	117.9	107.7	103.9	99.12	99.30	99.30	99.04	100.2	99.42	99.74	101.7	103.5	99.76	100.2	98.41	90.37	78.14	66.40	58.43	52.12	45.03	39.16	36.70	37.71	35.49	24.98	17.73	14.00	11.60	9.704	7.935	6.631	6.380	7.872	11.92	58.74	333.4	1021	1473	609.4	13.96	2.315	1.949	1.738	1.611	1.537	1.599	1.636	1.614	1.500	1.394	1.460	1.388	1.378	1.361	1.290	1.183	1.154	1.083	1.005	0.956
495.0	37.71	39.35	62.18	107.4	360.4	1659	1017	248.8	239.1	240.8	241.5	218.2	191.9	164.5	136.7	119.2	105.7	97.36	94.42	89.85	88.46	86.84	87.78	87.78	86.88	87.44	88.73	89.01	89.00	87.51	87.35	80.65	70.41	61.42	53.81	47.15	42.21	36.77	33.02	30.56	32.88	30.05	19.86	14.88	11.86	10.05	8.371	7.037	5.819	5.626	5.599	16.01	76.66	232.3	677.6	1759	836.3	18.18	2.276	1.748	1.788	1.571	1.671	1.525	1.499	1.436	1.283	1.339	1.204	1.232	1.245	1.112	1.014	1.119	1.055	0.984	1.027
500.0	32.79	35.56	70.97	96.75	194.4	1147	1766	333.8	221.0	221.1	212.7	202.4	172.7	147.7	124.7	108.3	97.85	89.02	84.46	81.48	79.68	79.39	79.80	79.43	78.81	78.87	80.27	81.22	80.23	80.20	79.57	73.35	63.60	57.15	50.21	44.28	39.95	34.86	31.19	27.12	27.38	30.05	23.71	15.74	12.16	10.26	8.689	6.847	6.082	5.219	4.192	6.292	19.45	54.38	163.3	901.7	1834	232.6	10.91	1.889	1.807	1.556	1.567	1.476	1.435	1.244	1.252	1.275	1.140	1.226	1.113	1.110	0.977	1.049	0.952	0.897	0.961
505.0	29.64	33.02	68.73	94.50	148.4	558.6	2137	685.6	209.2	202.0	193.5	183.6	158.5	136.3	115.5	98.23	87.70	81.58	76.35	73.86	71.58	70.33	72.20	71.43	71.55	71.25	71.87	72.42	71.83	72.88	71.12	65.61	58.21	52.68	45.78	41.45	37.47	32.83	28.57	25.06	22.99	25.83	25.38	17.78	12.35	10.25	8.672	6.972	5.890	4.965	4.054	4.291	6.914	14.58	38.68	229.4	1172	1558	191.5	4.687	1.777	1.616	1.520	1.317	1.431	1.222	1.174	1.214	1.156	1.196	1.020	0.979	1.006	0.912	0.910	0.763	0.963
510.0	28.40	29.01	57.95	106.3	130.0	246.6	1400	1736	279.6	186.2	173.5	160.6	140.8	122.3	102.1	88.33	78.70	71.76	67.45	64.57	62.12	61.49	62.50	61.47	62.56	62.47	62.82	63.05	63.04	63.32	61.43	57.86	51.23	45.85	41.23	36.47	33.15	29.03	25.96	22.82	20.43	19.95	22.07	20.32	14.03	9.958	8.445	6.686	5.736	4.862	4.221	3.685	4.139	5.606	10.76	53.25	296.5	897.4	1229	482.1	13.50	1.871	1.460	1.383	1.276	1.164	1.093	1.110	1.044	1.123	0.944	1.016	0.908	0.903	0.827	0.723	0.806
515.0	24.50	25.90	43.00	122.9	124.1	152.6	499.2	2157	925.1	168.7	152.0	139.7	124.0	106.3	89.93	78.57	66.84	61.80	60.76	55.77	54.73	53.63	52.39	52.72	53.07	52.58	52.67	53.35	53.76	54.63	52.16	48.73	43.94	39.40	36.76	32.58	28.95	25.72	22.98	20.89	18.58	16.57	16.57	18.63	17.37	11.09	8.389	6.606	5.670	4.711	4.235	3.784	3.506	3.575	4.351	13.79	67.81	203.3	505.1	1314	648.2	17.49	1.751	1.388	1.202	1.069	1.062	0.981	1.046	0.940	0.987	0.915	0.808	0.794	0.712	0.775	0.773
520.0	28.39	26.03	28.28	111.7	144.1	124.9	214.4	1509	1869	231.4	136.9	125.7	110.3	96.03	79.13	70.31	59.81	55.95	52.14	50.49	47.63	47.45	46.93	47.21	45.96	46.68	47.39	46.94	47.77	48.04	45.89	43.58	39.45	35.80	32.35	29.30	27.39	23.54	21.44	19.11	17.24	14.74	14.21	15.14	17.31	12.93	8.487	6.512	5.659	4.745	4.021	3.758	3.232	2.944	2.981	5.018	16.95	47.16	120.0	645.9	1318	230.5	10.97	1.525	1.232	1.117	0.992	1.031	0.937	0.951	0.820	0.731	0.678	0.714	0.730	0.685	0.805
525.0	23.22	24.25	25.21	84.51	158.1	112.4	139.3	684.2	2461	548.2	127.8	112.9	102.0	85.94	73.10	61.88	54.51	50.41	47.00	45.29	43.79	43.35	42.17	41.67	41.04	42.20	41.80	42.45	41.82	43.12	42.33	39.35	35.31	32.49	29.00	26.50	23.96	21.46	19.39	17.38	15.44	13.42	12.15	11.90	14.56	14.59	9.401	6.536	5.587	4.498	3.910	3.645	3.397	2.951	2.566	2.956	5.589	12.14	28.53	160.6	784.4	1122	188.5	4.518	1.449	1.212	1.040	0.959	0.868	0.871	0.819	0.683	0.629	0.787	0.669	0.744	0.604
530.0	26.76	21.98	27.03	55.69	146.5	130.5	109.4	250.0	1711	1714	184.1	101.2	88.42	75.31	62.29	53.76	49.20	43.48	40.16	39.38	37.47	36.50	36.85	36.80	35.95	36.15	35.51	36.67	35.92	36.90	35.80	33.53	30.95	27.98	25.11	23.22	20.83	18.34	16.84	15.45	13.64	12.04	10.68	10.02	10.62	12.47	11.12	7.568	5.290	4.337	3.731	3.233	3.126	3.074	2.581	2.402	2.847	4.351	7.863	37.33	194.9	597.4	860.9	368.5	13.65	1.410	1.071	1.002	0.834	0.759	0.770	0.691	0.726	0.682	0.650	0.604	0.596
535.0	23.73	21.97	26.72	40.81	103.0	160.0	100.3	130.2	578.7	2417	770.4	90.35	73.68	65.71	53.88	45.63	40.82	37.71	35.01	33.46	32.06	30.41	31.50	30.44	30.22	29.84	30.99	30.96	30.40	30.38	29.51	28.25	26.00	23.97	21.55	19.36	18.21	16.34	14.46	13.41	11.77	11.06	9.492	9.020	8.340	9.087	10.72	8.874	5.703	4.038	3.364	2.960	2.806	2.963	2.800	2.297	2.294	2.464	3.078	9.515	44.91	135.0	316.4	886.7	252.0	18.20	1.133	0.954	0.793	0.745	0.693	0.699	0.597	0.692	0.557	0.577	0.634
540.0	25.83	19.41	22.55	34.77	68.75	152.6	109.8	93.56	201.1	1731	1749	126.3	66.06	56.70	48.97	40.59	36.30	33.30	31.58	28.25	28.70	27.33	27.73	26.96	27.36	27.24	26.50	26.10	26.87	26.89	25.77	24.40	22.64	20.90	19.11	16.92	15.61	14.41	13.12	12.01	10.84	9.496	8.802	7.637	7.113	6.896	8.378	8.998	6.393	4.142	3.190	2.975	2.468	2.590	2.606	2.374	2.066	1.859	1.996	3.189	11.26	31.36	73.71	393.7	853.5	232.8	11.22	0.970	0.805	0.763	0.705	0.604	0.614	0.550	0.588	0.608	0.629
545.0	23.08	18.07	21.86	35.37	52.64	130.2	117.2	80.95	103.4	754.0	2522	221.9	62.18	49.38	44.08	36.09	32.14	28.72	27.91	24.13	25.00	24.19	24.01	23.98	24.30	23.30	22.79	23.11	23.32	24.01	23.13	21.88	20.51	19.47	16.75	15.59	13.80	13.00	11.52	10.45	9.530	8.577	7.753	7.008	6.300	6.235	6.261	8.018	7.177	4.487	3.181	2.530	2.322	2.396	2.119	2.308	2.204	1.722	1.519	1.832	3.629	8.030	17.43	94.98	469.8	858.9	181.1	4.595	0.908	0.759	0.724	0.611	0.677	0.632	0.545	0.585	0.587
550.0	22.64	19.42	19.87	28.70	42.48	82.10	138.7	79.49	70.76	235.8	1731	1305	100.1	43.43	36.78	30.62	27.83	24.48	23.10	21.32	20.66	20.89	19.87	19.13	19.50	19.18	19.42	19.61	19.08	19.91	18.81	18.05	16.50	15.09	13.74	13.06	11.50	10.69	9.464	8.801	8.305	7.125	6.476	6.060	5.390	5.026	4.952	5.465	6.462	5.319	3.570	2.581	2.147	2.014	1.916	1.942	2.213	1.875	1.422	1.505	1.843	2.833	4.822	22.05	113.5	406.4	574.2	267.5	14.13	1.002	0.706	0.648	0.609	0.561	0.509	0.526	0.510
555.0	22.68	20.27	20.20	26.82	36.29	54.63	115.5	101.3	54.75	91.85	537.9	2225	489.3	38.83	30.62	26.00	22.10	20.62	18.83	18.31	17.19	16.19	16.17	15.97	15.49	15.30	16.07	15.11	15.46	15.73	15.26	14.40	13.27	11.91	11.36	10.29	9.601	8.825	7.985	7.358	6.757	5.853	5.046	4.950	4.652	4.201	4.063	3.718	4.343	5.128	4.080	2.684	2.115	1.715	1.756	1.695	1.593	1.818	1.797	1.397	1.291	1.597	1.902	5.715	25.98	91.53	188.7	530.5	251.5	18.89	0.809	0.549	0.557	0.551	0.517	0.528	0.469
560.0	22.22	23.79	18.83	21.75	29.84	39.36	77.17	116.7	52.25	56.70	161.6	1634	1272	56.56	25.46	20.74	18.32	18.67	16.56	14.41	14.36	14.01	13.46	13.29	13.29	12.96	13.12	13.03	13.33	13.34	12.91	12.77	11.20	10.33	9.702	8.588	8.083	7.220	6.743	5.965	5.735	4.995	4.535	4.419	4.067	3.448	3.174	3.044	3.112	3.930	4.234	3.011	1.891	1.612	1.485	1.415	1.431	1.586	1.875	1.496	1.123	1.106	1.291	2.116	6.618	21.13	43.59	210.5	525.9	218.4	10.27	0.760	0.598	0.494	0.461	0.449	0.485
565.0	24.28	19.85	18.07	21.97	26.79	31.29	50.63	118.6	60.83	44.44	69.72	676.9	2070	144.1	23.25	18.70	16.43	14.27	13.07	12.95	12.54	12.30	11.88	11.33	11.20	11.06	11.15	11.45	10.76	11.14	11.31	10.65	9.239	8.998	8.033	6.968	7.102	6.110	5.910	5.291	4.826	4.301	3.854	3.927	3.412	2.998	2.669	2.678	2.580	2.786	3.942	3.266	2.049	1.534	1.449	1.256	1.330	1.401	1.404	1.524	1.210	1.011	0.941	1.169	2.153	5.486	10.42	49.49	246.4	491.5	153.8	4.280	0.621	0.451	0.456	0.410	0.556
570.0	25.44	20.08	19.06	18.11	23.39	28.90	34.29	86.04	86.15	40.02	43.57	192.9	1491	1070	47.54	15.98	13.68	11.78	10.81	10.35	10.29	9.687	9.593	9.301	9.345	8.938	8.983	9.108	8.900	8.902	8.871	8.325	7.482	7.093	6.347	5.937	5.408	5.155	4.787	4.304	3.751	3.581	3.239	3.062	3.048	2.651	2.326	2.185	2.031	1.914	2.502	3.011	2.409	1.599	1.308	1.124	1.167	1.076	1.121	1.310	1.355	1.031	0.799	0.808	1.081	1.807	2.882	11.65	57.97	200.9	320.0	144.9	13.79	0.711	0.488	0.429	0.455
575.0	29.23	15.21	17.56	16.66	20.38	25.80	26.62	46.89	100.2	44.37	33.90	64.03	443.4	1764	317.5	14.49	11.30	9.713	8.684	8.784	8.609	8.296	7.647	7.237	7.911	7.441	7.174	7.151	7.035	6.924	7.246	6.553	5.918	5.870	5.312	4.874	4.285	4.167	4.002	3.551	3.062	3.057	2.706	2.549	2.547	2.258	1.919	1.927	1.773	1.573	1.563	2.085	2.428	1.906	1.351	1.115	0.978	0.897	1.013	0.898	1.165	1.186	0.939	0.705	0.689	0.935	1.166	3.119	13.41	45.39	92.14	263.2	226.4	18.82	0.673	0.438	0.402
580.0	24.39	17.79	17.67	17.59	16.54	23.36	22.12	29.66	84.93	65.38	30.99	36.81	123.1	1278	903.4	24.94	9.389	8.485	7.857	7.553	7.190	6.822	6.393	6.287	6.418	6.241	6.168	5.946	5.842	6.190	6.168	5.695	4.981	4.727	4.346	4.091	3.715	3.525	3.257	3.144	2.700	2.516	2.333	2.212	1.988	1.899	1.656	1.608	1.444	1.330	1.240	1.520	1.990	2.190	1.538	1.166	0.998	0.800	0.814	0.762	0.942	1.115	1.071	0.745	0.655	0.678	0.740	1.249	3.441	10.61	21.28	93.26	293.4	171.1	10.90	0.479	0.417
585.0	29.11	17.08	13.44	16.04	16.82	22.08	19.71	24.61	59.04	85.66	31.65	27.31	44.94	519.2	1531	91.23	9.058	7.704	6.710	6.480	6.172	5.622	5.671	5.945	5.341	5.238	5.019	5.399	5.097	5.070	4.990	4.784	4.520	3.927	3.825	3.100	3.107	2.979	2.859	2.591	2.541	2.108	2.293	1.856	1.841	1.622	1.445	1.396	1.244	1.129	1.129	1.139	1.450	1.921	1.756	1.178	0.866	0.727	0.781	0.779	0.850	0.900	1.215	0.923	0.588	0.587	0.682	0.688	1.120	2.810	5.248	21.74	116.4	280.0	117.9	4.511	0.427
590.0	21.76	21.56	13.99	15.83	14.55	18.88	18.15	18.88	33.10	81.53	46.61	24.06	25.99	138.8	1075	647.2	21.60	6.960	5.739	5.400	5.401	4.821	4.823	5.031	4.393	4.353	4.190	4.356	4.308	4.147	4.212	4.007	3.502	3.178	2.997	2.849	2.708	2.546	2.450	2.216	2.047	1.883	1.886	1.686	1.396	1.417	1.228	1.202	1.125	0.972	0.915	0.846	1.046	1.365	1.626	1.290	0.874	0.649	0.685	0.690	0.666	0.672	0.823	0.966	0.780	0.594	0.581	0.528	0.638	1.018	1.569	5.218	27.01	101.1	185.0	112.6	14.28
595.0	22.28	19.98	13.88	14.99	13.68	16.12	16.86	17.30	22.10	56.72	67.89	24.37	19.75	43.18	315.6	1176	94.99	5.801	5.063	4.966	4.330	3.918	4.203	3.996	3.490	3.538	3.489	3.476	3.818	3.381	3.439	3.430	2.975	2.765	2.413	2.365	2.148	2.047	1.955	1.742	1.604	1.542	1.586	1.329	1.195	1.211	1.014	1.024	0.857	0.838	0.710	0.698	0.819	0.851	1.311	1.215	1.004	0.684	0.693	0.614	0.620	0.555	0.657	0.727	0.858	0.795	0.503	0.527	0.486	0.574	0.703	1.535	6.456	22.90	48.70	140.8	156.4
600.0	20.12	19.25	11.30	13.90	13.80	14.11	16.06	15.86	19.39	35.27	74.72	30.36	18.39	20.38	82.66	870.8	578.7	11.68	4.934	4.344	3.706	3.668	3.624	3.853	3.446	3.202	3.268	3.116	3.231	3.032	3.025	2.835	2.494	2.393	2.036	1.988	2.057	1.810	1.559	1.571	1.331	1.359	1.265	1.299	1.160	1.045	0.967	0.844	0.895	0.672	0.644	0.654	0.664	0.766	0.998	1.241	1.310	0.768	0.599	0.509	0.557	0.479	0.498	0.545	0.768	0.855	0.507	0.485	0.481	0.507	0.510	0.649	1.822	5.414	11.27	45.05	164.6
605.0	25.34	18.49	12.87	12.23	12.88	15.13	16.07	16.81	19.14	24.35	67.09	42.87	17.63	15.44	27.68	357.6	989.8	58.47	4.277	4.033	3.619	3.362	3.209	3.271	3.183	2.915	2.722	2.864	2.769	2.507	2.756	2.185	2.307	2.280	1.755	1.918	1.708	1.472	1.453	1.371	1.213	1.126	1.123	1.158	0.854	0.926	0.922	0.703	0.772	0.571	0.619	0.689	0.588	0.627	0.707	0.899	1.254	0.895	0.582	0.540	0.514	0.525	0.504	0.502	0.633	0.785	0.693	0.540	0.531	0.432	0.459	0.436	0.715	1.511	2.830	10.55	57.63
610.0	21.45	15.93	14.15	12.99	14.37	13.86	15.66	16.38	17.81	20.70	43.36	59.44	22.26	15.69	14.82	95.32	726.5	468.2	12.67	3.652	3.301	2.838	2.611	2.671	2.514	2.488	2.458	2.414	2.246	2.216	2.308	2.008	1.932	1.749	1.559	1.471	1.453	1.324	1.231	1.015	0.988	1.017	0.880	0.946	0.829	0.835	0.783	0.721	0.664	0.598	0.610	0.565	0.538	0.540	0.493	0.658	1.004	1.022	0.694	0.524	0.475	0.467	0.556	0.439	0.531	0.572	0.732	0.647	0.530	0.462	0.431	0.442	0.441	0.676	0.909	2.721	13.40
615.0	22.64	16.45	13.51	11.41	13.42	12.94	13.31	15.02	16.65	18.77	27.13	56.52	34.14	16.77	12.54	28.38	215.0	834.9	73.05	3.461	2.816	2.508	2.222	2.152	2.227	2.102	2.216	2.029	2.058	1.892	1.868	1.773	1.499	1.583	1.347	1.375	1.136	1.055	1.055	0.990	0.849	0.786	0.680	0.787	0.748	0.682	0.615	0.699	0.556	0.521	0.469	0.533	0.442	0.499	0.531	0.550	0.596	0.824	0.884	0.570	0.480	0.461	0.460	0.479	0.410	0.481	0.583	0.596	0.547	0.551	0.420	0.369	0.370	0.443	0.508	0.923	3.299
620.0	22.75	13.61	12.56	13.03	13.06	14.30	13.47	15.92	14.42	17.59	21.49	43.51	46.70	15.61	11.26	12.60	57.04	636.5	418.5	6.648	2.570	2.298	2.007	1.918	2.146	2.007	1.785	1.654	1.691	1.714	1.648	1.611	1.423	1.261	1.063	1.071	1.113	1.026	0.977	0.852	0.798	0.698	0.706	0.827	0.615	0.619	0.577	0.581	0.529	0.495	0.434	0.506	0.437	0.466	0.411	0.432	0.500	0.676	0.869	0.675	0.460	0.463	0.408	0.471	0.372	0.368	0.477	0.514	0.563	0.545	0.475	0.392	0.408	0.397	0.496	0.470	1.061
625.0	22.19	16.49	17.20	11.35	12.03	13.65	11.88	13.66	15.44	18.61	19.92	30.72	50.72	18.56	10.86	9.642	18.70	276.0	742.8	36.29	2.759	2.244	1.825	1.906	1.861	1.625	1.777	1.514	1.458	1.343	1.539	1.492	1.203	1.153	1.044	0.999	0.938	0.947	0.865	0.933	0.792	0.751	0.704	0.627	0.634	0.561	0.584	0.524	0.546	0.455	0.377	0.434	0.414	0.400	0.423	0.419	0.474	0.486	0.670	0.725	0.534	0.488	0.430	0.413	0.446	0.379	0.392	0.431	0.573	0.602	0.512	0.424	0.381	0.410	0.452	0.369	0.559
630.0	24.08	16.38	13.56	11.81	10.86	11.81	12.73	14.45	15.22	17.44	17.67	22.71	43.98	28.71	10.76	8.549	9.411	72.89	584.1	341.3	6.796	2.252	1.851	1.789	1.673	1.421	1.592	1.311	1.434	1.322	1.274	1.249	1.095	1.120	1.002	0.877	0.868	0.799	0.809	0.733	0.704	0.635	0.650	0.523	0.537	0.524	0.519	0.468	0.432	0.393	0.358	0.412	0.375	0.374	0.375	0.387	0.414	0.431	0.478	0.588	0.645	0.483	0.434	0.366	0.379	0.400	0.380	0.462	0.451	0.513	0.540	0.560	0.385	0.409	0.356	0.366	0.422
635.0	24.92	16.37	13.49	12.18	11.24	12.84	12.35	14.45	14.95	16.72	16.94	19.50	30.02	37.16	13.86	8.526	7.547	20.11	186.1	661.4	53.95	2.184	1.821	1.593	1.437	1.445	1.401	1.230	1.144	1.212	1.242	1.290	1.037	0.851	0.928	0.761	0.744	0.764	0.640	0.610	0.633	0.594	0.544	0.472	0.508	0.478	0.479	0.440	0.418	0.417	0.412	0.435	0.357	0.343	0.380	0.380	0.384	0.401	0.434	0.488	0.448	0.576	0.395	0.429	0.372	0.374	0.385	0.420	0.418	0.499	0.509	0.586	0.481	0.462	0.329	0.309	0.405
640.0	28.01	15.42	11.79	10.80	10.59	12.58	11.87	13.09	14.86	15.50	16.29	17.60	21.14	38.87	19.19	8.698	7.063	8.731	48.30	551.6	287.6	3.801	1.874	1.650	1.528	1.367	1.268	1.293	1.105	1.102	1.063	1.108	0.893	0.803	0.782	0.648	0.682	0.671	0.567	0.484	0.503	0.536	0.449	0.391	0.531	0.448	0.411	0.409	0.337	0.348	0.365	0.402	0.345	0.409	0.352	0.343	0.366	0.337	0.387	0.412	0.447	0.494	0.412	0.483	0.352	0.395	0.406	0.453	0.420	0.458	0.430	0.582	0.571	0.439	0.356	0.382	0.347
645.0	22.61	17.90	11.39	9.998	9.481	10.73	13.89	13.06	13.74	14.83	16.66	17.56	18.66	31.48	24.08	8.786	7.253	6.020	14.07	263.3	556.5	21.59	1.864	1.520	1.454	1.154	1.288	1.249	1.159	1.125	1.040	0.977	0.821	0.698	0.702	0.618	0.600	0.642	0.582	0.470	0.602	0.433	0.460	0.426	0.381	0.443	0.399	0.469	0.384	0.318	0.324	0.318	0.344	0.324	0.329	0.326	0.368	0.339	0.329	0.380	0.425	0.483	0.489	0.454	0.411	0.332	0.403	0.409	0.362	0.454	0.430	0.441	0.434	0.421	0.390	0.305	0.348
650.0	21.30	17.48	12.26	12.21	11.23	10.66	12.49	12.30	13.85	15.16	16.49	17.47	16.57	22.71	28.95	10.94	6.863	5.429	6.085	78.21	604.6	66.76	2.109	1.607	1.390	1.200	1.132	1.158	1.064	1.026	1.106	0.926	0.751	0.793	0.668	0.663	0.578	0.583	0.555	0.525	0.548	0.522	0.438	0.418	0.402	0.446	0.358	0.401	0.376	0.312	0.287	0.354	0.371	0.323	0.370	0.370	0.369	0.347	0.367	0.380	0.373	0.380	0.485	0.352	0.488	0.342	0.325	0.389	0.329	0.326	0.339	0.400	0.450	0.516	0.412	0.357	0.324
