Sample:	'1
File name:	T2025032005º«µêºÓ5.FD3
Run date:	'09:49:07, 03/21/2025
Operator:	Administrator
Comment:	'

Instrument
Model:	F-2700 FL Spectrophotometer
Serial number:	23B8-004
ROM Version:	4J14000 07

Instrument parameters
Measurement type:	3-D scan
Data mode:	Fluorescence
EX  Start WL:	220.0 nm
EX  End WL:	600.0 nm
EX Sampling interval:	5.0 nm
EM  Start WL:	230.0 nm
EM  End WL:	650.0 nm
EM Sampling interval:	5.0 nm
Scan speed:	12000 nm/min
EX Slit:	5.0 nm
EM Slit:	5.0 nm
PMT Voltage:	700 V
Response:	Auto 
Corrected spectra:	Off
Contour interval:	50.000

Peak integration
Integration method:	Rectangular
Sensitivity:	1
Threshold:	1.000

Peaks
No.	ApexEX/EM(nm)	Height(Data)
1	225.0/335.0	802.9
2	225.0/490.0	269.5
3	225.0/615.0	25.12
4	230.0/345.0	802.8
5	230.0/500.0	237.9
6	235.0/255.0	353.3
7	235.0/515.0	212.9
8	240.0/265.0	429.6
9	240.0/435.0	363.5
10	240.0/525.0	194.1
11	245.0/270.0	431.5
12	245.0/535.0	166.6
13	250.0/275.0	552.3
14	250.0/440.0	357.2
15	250.0/550.0	138.6
16	255.0/280.0	622.9
17	255.0/565.0	118.8
18	260.0/290.0	568.3
19	260.0/575.0	108.0
20	265.0/585.0	94.38
21	270.0/300.0	900.1
22	270.0/600.0	82.11
23	275.0/305.0	986.8
24	275.0/610.0	71.93
25	280.0/310.0	886.1
26	280.0/625.0	63.21
27	285.0/315.0	885.8
28	285.0/635.0	51.99
29	290.0/325.0	811.4
30	295.0/330.0	591.5
31	300.0/335.0	518.7
32	310.0/350.0	321.9
33	315.0/355.0	302.2
34	320.0/360.0	291.7
35	325.0/370.0	259.1
36	330.0/375.0	256.1
37	335.0/380.0	256.9
38	345.0/395.0	207.7
39	350.0/400.0	211.3
40	355.0/405.0	189.6
41	360.0/415.0	160.6
42	365.0/420.0	160.8
43	370.0/425.0	140.8
44	380.0/440.0	105.6
45	395.0/460.0	65.27
46	400.0/465.0	55.37
47	415.0/485.0	33.77
48	425.0/500.0	24.38
49	430.0/505.0	21.71
50	445.0/525.0	12.85
51	455.0/340.0	2.342
52	455.0/540.0	8.845
53	460.0/335.0	2.377
54	475.0/260.0	1.741
55	475.0/345.0	2.348
56	485.0/265.0	2.104
57	495.0/270.0	2.174
58	505.0/275.0	3.138
59	510.0/280.0	3.529
60	520.0/285.0	3.744
61	525.0/290.0	3.349
62	540.0/295.0	4.313
63	545.0/300.0	5.044
64	555.0/305.0	5.198
65	565.0/310.0	4.518
66	575.0/315.0	4.861
67	580.0/320.0	5.016
68	585.0/325.0	5.034

Data points
	220.0	225.0	230.0	235.0	240.0	245.0	250.0	255.0	260.0	265.0	270.0	275.0	280.0	285.0	290.0	295.0	300.0	305.0	310.0	315.0	320.0	325.0	330.0	335.0	340.0	345.0	350.0	355.0	360.0	365.0	370.0	375.0	380.0	385.0	390.0	395.0	400.0	405.0	410.0	415.0	420.0	425.0	430.0	435.0	440.0	445.0	450.0	455.0	460.0	465.0	470.0	475.0	480.0	485.0	490.0	495.0	500.0	505.0	510.0	515.0	520.0	525.0	530.0	535.0	540.0	545.0	550.0	555.0	560.0	565.0	570.0	575.0	580.0	585.0	590.0	595.0	600.0
230.0	55.22	879.3	1545	447.8	12.45	3.182	2.076	1.847	2.177	1.293	1.380	1.109	1.068	0.965	0.710	0.690	0.713	0.506	0.459	0.393	0.328	0.318	0.314	0.240	0.251	0.201	0.224	0.213	0.229	0.203	0.219	0.150	0.160	0.162	0.152	0.200	0.143	0.148	0.145	0.188	0.339	0.539	0.471	0.241	0.144	0.154	0.935	3.655	5.479	3.529	1.107	0.198	0.103	0.084	0.086	0.089	0.092	0.087	0.080	0.097	0.075	0.084	0.090	0.077	0.089	0.072	0.076	0.081	0.083	0.079	0.091	0.077	0.087	0.083	0.080	0.082	0.098
235.0	161.9	260.8	992.6	1552	419.8	20.37	3.332	2.550	2.144	1.471	1.669	1.114	0.996	1.081	0.821	0.751	0.753	0.707	0.523	0.360	0.431	0.270	0.255	0.227	0.248	0.243	0.208	0.227	0.251	0.208	0.258	0.160	0.167	0.150	0.126	0.176	0.141	0.149	0.158	0.110	0.155	0.323	0.441	0.677	0.475	0.260	0.309	1.014	2.260	3.878	5.033	4.776	1.972	0.342	0.090	0.077	0.101	0.094	0.081	0.105	0.062	0.075	0.068	0.087	0.076	0.075	0.072	0.085	0.087	0.091	0.087	0.086	0.092	0.148	0.070	0.081	0.095
240.0	245.7	168.2	311.2	1382	1605	310.4	10.24	2.807	2.676	1.938	1.808	1.218	1.290	1.264	0.930	0.812	0.597	0.658	0.471	0.427	0.375	0.347	0.347	0.290	0.315	0.265	0.187	0.237	0.250	0.196	0.226	0.178	0.148	0.101	0.131	0.170	0.132	0.141	0.126	0.095	0.156	0.208	0.208	0.463	0.693	0.806	0.422	0.375	0.586	1.275	2.945	6.575	7.639	4.740	1.531	0.211	0.102	0.101	0.092	0.098	0.066	0.073	0.094	0.110	0.086	0.071	0.083	0.078	0.071	0.083	0.116	0.084	0.104	0.112	0.075	0.101	0.111
245.0	178.3	285.9	144.1	497.4	1818	1490	210.3	5.576	3.130	1.909	1.923	1.476	1.220	1.148	1.145	0.549	0.742	0.687	0.385	0.574	0.349	0.339	0.296	0.305	0.361	0.263	0.340	0.279	0.362	0.247	0.192	0.228	0.147	0.124	0.153	0.171	0.164	0.163	0.134	0.101	0.165	0.138	0.162	0.205	0.339	0.836	0.837	0.635	0.355	0.414	0.818	2.343	5.763	8.997	8.744	3.954	1.076	0.154	0.096	0.096	0.092	0.092	0.088	0.097	0.077	0.082	0.112	0.067	0.074	0.087	0.102	0.075	0.085	0.106	0.077	0.093	0.103
250.0	63.07	200.1	288.6	209.9	605.8	1597	1920	646.3	31.64	3.107	2.888	2.077	1.497	1.380	0.912	0.808	0.793	0.694	0.599	0.548	0.427	0.385	0.368	0.347	0.323	0.312	0.257	0.261	0.293	0.229	0.182	0.225	0.177	0.184	0.168	0.178	0.176	0.134	0.123	0.135	0.138	0.151	0.167	0.150	0.195	0.317	0.510	0.846	0.930	0.774	0.513	0.705	1.457	3.007	5.665	7.833	10.12	8.822	4.367	1.146	0.185	0.105	0.088	0.107	0.100	0.093	0.099	0.065	0.076	0.096	0.088	0.112	0.081	0.089	0.097	0.109	0.079
255.0	28.20	56.12	212.3	353.3	225.2	420.6	1604	2767	287.3	26.04	3.343	2.554	1.813	1.730	1.320	0.986	0.796	0.851	0.792	0.569	0.419	0.390	0.404	0.349	0.327	0.323	0.265	0.226	0.236	0.221	0.222	0.263	0.151	0.187	0.196	0.201	0.167	0.156	0.132	0.194	0.147	0.131	0.132	0.144	0.143	0.211	0.218	0.275	0.519	1.033	1.293	1.263	0.739	0.812	1.406	1.957	3.802	9.619	15.66	15.32	6.590	1.318	0.139	0.109	0.123	0.102	0.100	0.102	0.086	0.100	0.113	0.105	0.091	0.112	0.101	0.120	0.074
260.0	20.43	21.28	83.36	343.6	325.6	145.4	496.3	2637	2281	231.8	13.01	3.613	2.298	2.108	1.390	1.301	0.995	0.841	0.731	0.584	0.443	0.476	0.414	0.381	0.359	0.291	0.345	0.225	0.235	0.336	0.262	0.241	0.206	0.152	0.210	0.216	0.174	0.181	0.134	0.155	0.153	0.142	0.150	0.159	0.122	0.165	0.144	0.153	0.223	0.370	0.907	1.741	1.740	0.854	0.599	0.548	1.036	2.694	7.232	15.29	19.86	13.87	4.798	0.562	0.128	0.096	0.103	0.102	0.121	0.111	0.094	0.114	0.091	0.094	0.107	0.106	0.087
265.0	31.61	14.92	27.79	159.3	429.6	241.0	147.8	921.6	3495	1961	171.8	6.736	3.267	2.551	1.491	1.305	1.094	0.904	0.852	0.642	0.484	0.446	0.379	0.382	0.426	0.374	0.260	0.220	0.270	0.295	0.270	0.250	0.210	0.173	0.266	0.220	0.214	0.207	0.157	0.159	0.189	0.171	0.121	0.164	0.137	0.161	0.157	0.115	0.156	0.160	0.358	0.877	1.804	2.104	1.423	0.462	0.405	0.755	1.805	4.627	11.15	20.36	22.32	12.49	2.754	0.217	0.117	0.162	0.140	0.115	0.118	0.102	0.106	0.123	0.114	0.168	0.095
270.0	33.77	18.36	16.32	49.90	208.4	431.5	276.4	255.5	1153	2848	3123	686.6	30.74	3.970	2.205	1.566	1.400	1.056	0.981	0.719	0.561	0.581	0.444	0.389	0.486	0.394	0.314	0.325	0.351	0.281	0.259	0.296	0.273	0.228	0.267	0.276	0.255	0.260	0.195	0.207	0.207	0.162	0.167	0.197	0.189	0.188	0.173	0.116	0.121	0.135	0.163	0.312	0.598	1.151	1.873	2.174	1.687	0.848	0.654	1.265	2.784	5.974	11.22	17.35	20.24	17.42	9.185	2.344	0.315	0.120	0.119	0.102	0.169	0.120	0.139	0.131	0.114
275.0	81.28	48.18	29.49	32.78	69.16	208.2	552.3	315.2	301.3	733.1	2525	5120	893.6	24.96	3.767	2.572	1.766	1.399	1.077	0.934	0.680	0.537	0.703	0.476	0.443	0.359	0.357	0.373	0.319	0.324	0.284	0.338	0.347	0.369	0.346	0.421	0.324	0.352	0.248	0.299	0.306	0.283	0.197	0.258	0.321	0.251	0.193	0.210	0.165	0.218	0.150	0.225	0.291	0.385	0.664	1.089	2.212	3.138	2.267	0.858	0.910	1.566	2.783	4.193	6.187	13.19	25.59	27.20	13.96	2.191	0.279	0.103	0.188	0.142	0.149	0.143	0.099
280.0	131.3	89.28	53.74	36.72	41.65	85.11	351.9	622.9	226.1	217.6	747.1	3941	4659	140.6	10.53	3.712	2.213	1.769	1.357	1.100	0.989	0.610	0.739	0.568	0.552	0.386	0.390	0.356	0.383	0.320	0.319	0.366	0.281	0.415	0.461	0.500	0.546	0.518	0.358	0.316	0.321	0.297	0.363	0.319	0.398	0.350	0.345	0.351	0.241	0.242	0.214	0.218	0.220	0.237	0.335	0.499	0.926	2.130	3.529	2.726	1.390	0.758	0.920	1.303	1.735	3.464	8.898	19.99	30.44	25.02	9.607	1.145	0.227	0.188	0.170	0.158	0.103
285.0	167.0	132.3	77.37	47.91	37.60	54.31	144.2	554.1	539.9	157.0	242.4	1217	4527	3787	103.6	5.786	3.059	1.997	1.670	1.215	1.109	0.707	0.758	0.617	0.611	0.359	0.425	0.415	0.427	0.348	0.281	0.316	0.351	0.477	0.710	0.632	0.664	0.613	0.420	0.450	0.447	0.444	0.394	0.500	0.470	0.479	0.384	0.368	0.338	0.334	0.266	0.241	0.241	0.204	0.251	0.288	0.457	0.792	1.676	3.151	3.744	2.241	0.875	0.766	0.805	1.192	2.310	5.396	12.40	24.21	31.02	20.81	5.503	0.543	0.201	0.193	0.137
290.0	223.8	167.5	110.8	67.98	53.58	55.86	80.79	222.0	568.3	497.3	201.1	367.4	1327	3388	3473	415.6	20.78	2.947	2.040	1.511	1.130	0.953	0.789	0.656	0.679	0.489	0.540	0.413	0.489	0.389	0.313	0.359	0.378	0.538	0.691	0.779	0.714	0.661	0.571	0.487	0.492	0.461	0.553	0.573	0.521	0.596	0.474	0.505	0.435	0.350	0.288	0.279	0.294	0.295	0.304	0.305	0.399	0.515	0.740	1.231	2.115	3.349	3.314	2.564	1.306	0.847	1.039	1.657	3.218	6.391	11.71	18.45	22.36	21.41	13.35	4.541	0.622
295.0	259.2	214.9	142.4	91.72	76.98	73.47	81.57	121.2	247.8	627.7	651.0	240.2	393.9	849.1	2138	4175	580.1	17.17	3.315	1.897	1.231	1.166	0.889	0.837	0.633	0.521	0.560	0.515	0.418	0.562	0.356	0.464	0.310	0.521	0.710	0.823	0.696	0.692	0.606	0.481	0.560	0.556	0.556	0.642	0.610	0.704	0.548	0.616	0.531	0.459	0.327	0.344	0.391	0.355	0.338	0.385	0.411	0.481	0.579	0.575	0.909	1.233	1.783	3.604	4.313	2.765	1.146	0.960	1.297	1.968	3.070	4.508	5.932	10.52	21.73	30.00	19.40
300.0	269.1	254.6	185.0	127.1	99.78	99.11	110.8	126.4	180.1	378.6	900.1	513.3	235.6	299.3	621.7	2910	3828	85.63	8.043	2.450	1.795	1.309	1.247	0.954	0.709	0.622	0.522	0.595	0.430	0.488	0.433	0.453	0.343	0.462	0.721	0.707	0.862	0.775	0.710	0.615	0.540	0.587	0.500	0.677	0.740	0.754	0.578	0.710	0.661	0.468	0.447	0.509	0.493	0.442	0.526	0.433	0.547	0.575	0.677	0.670	0.714	0.838	1.114	1.865	3.561	5.044	3.938	2.032	1.333	1.185	1.473	1.656	1.884	3.014	6.768	15.82	28.48
305.0	315.4	309.4	254.1	179.0	138.6	140.7	156.0	179.1	226.3	318.0	684.5	986.8	425.6	267.4	290.8	907.2	3514	2939	66.81	4.642	2.722	1.666	1.281	0.882	0.799	0.703	0.603	0.604	0.505	0.558	0.508	0.539	0.422	0.648	0.719	0.748	0.815	0.818	0.730	0.749	0.611	0.640	0.589	0.748	0.707	0.976	0.708	0.808	0.842	0.655	0.539	0.705	0.629	0.569	0.642	0.674	0.704	0.824	0.950	1.013	0.949	1.151	1.161	1.418	2.074	3.484	5.191	5.198	2.899	1.900	1.503	1.441	1.304	1.652	2.434	4.464	9.933
310.0	381.4	387.3	323.2	244.2	190.0	186.6	207.1	246.3	282.0	347.1	496.3	820.1	886.1	468.4	283.0	354.3	1073	2491	2647	293.8	15.61	2.302	1.675	1.320	0.986	0.742	0.775	0.755	0.564	0.547	0.586	0.522	0.441	0.612	0.747	0.783	0.736	0.800	0.762	0.773	0.712	0.703	0.740	0.870	0.784	1.011	0.923	1.102	1.041	0.900	0.739	0.852	0.756	0.757	0.749	0.802	0.916	1.029	1.153	1.244	1.138	1.378	1.518	1.760	1.942	2.387	2.982	4.017	4.379	4.518	3.325	2.181	1.703	1.646	1.589	1.963	3.108
315.0	477.9	498.0	411.4	308.0	239.9	219.4	246.4	282.4	310.1	382.8	472.5	592.6	777.6	885.8	409.0	266.5	386.1	657.1	1581	3108	435.1	11.99	2.448	1.810	1.420	0.814	0.835	0.735	0.710	0.658	0.508	0.530	0.461	0.490	0.740	0.874	0.749	0.819	0.743	0.812	0.889	0.733	0.876	1.025	0.920	1.289	1.166	1.321	1.344	0.992	0.964	0.942	0.940	1.043	0.866	1.001	1.114	1.258	1.363	1.504	1.376	1.418	1.505	1.857	2.008	2.204	2.163	2.893	3.159	3.650	4.770	4.861	3.030	2.210	1.708	1.578	1.603
320.0	566.3	602.2	516.1	354.3	255.2	241.4	273.1	306.3	323.4	396.6	480.5	565.0	627.5	871.9	686.4	295.8	251.0	242.5	434.0	2103	2737	64.86	5.647	2.319	1.540	1.108	0.898	0.754	0.750	0.578	0.585	0.521	0.530	0.521	0.715	0.729	0.848	0.792	0.705	0.824	0.779	0.818	0.938	1.153	1.312	1.455	1.371	1.723	1.487	1.247	1.122	1.131	1.080	0.957	0.996	1.091	1.135	1.376	1.406	1.421	1.409	1.477	1.553	1.810	2.169	2.296	2.287	2.627	2.657	2.803	3.540	4.362	5.016	3.895	2.251	1.672	1.583
325.0	647.5	685.2	609.3	423.8	286.0	236.2	277.0	315.7	331.3	395.4	481.4	544.2	571.1	651.5	811.4	439.9	230.9	155.0	143.4	607.8	2457	2127	52.56	3.554	1.916	1.397	1.022	0.726	0.731	0.708	0.537	0.573	0.508	0.592	0.626	0.693	0.774	0.780	0.805	0.861	0.819	0.952	0.928	1.264	1.457	1.546	1.770	1.923	1.877	1.645	1.324	1.302	1.180	1.054	0.936	0.974	1.189	1.290	1.474	1.422	1.510	1.525	1.685	1.815	2.205	2.218	2.344	2.686	2.547	2.688	2.712	3.244	4.006	5.034	3.985	2.616	1.596
330.0	681.0	775.3	738.2	575.1	366.4	265.1	267.0	302.5	322.7	378.4	460.1	526.6	536.2	526.0	575.5	591.5	357.1	151.6	90.17	173.6	701.0	1818	1981	234.1	13.67	1.872	1.408	0.984	0.865	0.744	0.562	0.608	0.532	0.573	0.661	0.700	0.773	0.711	0.855	0.810	0.799	0.936	1.103	1.304	1.538	1.712	2.063	2.095	2.203	2.021	1.730	1.734	1.570	1.333	1.147	1.052	1.178	1.254	1.483	1.440	1.521	1.410	1.691	1.837	2.017	2.097	2.225	2.502	2.551	2.613	2.491	2.544	2.864	3.080	3.523	3.909	3.241
335.0	728.9	802.9	796.1	650.3	432.4	298.4	260.2	288.3	315.3	359.5	436.8	489.6	496.5	476.7	433.9	425.9	518.7	256.6	93.58	86.98	192.4	447.1	1259	2386	366.4	9.394	1.889	1.310	1.185	0.894	0.702	0.773	0.540	0.553	0.687	0.627	0.703	0.671	0.777	0.860	0.761	0.996	1.085	1.233	1.533	1.900	2.179	2.233	2.377	2.263	1.814	2.113	1.624	1.583	1.244	1.033	1.139	1.184	1.378	1.319	1.409	1.433	1.487	1.741	1.828	2.104	2.119	2.312	2.340	2.371	2.383	2.186	2.326	2.310	2.324	2.496	2.999
340.0	701.4	799.6	789.2	671.5	463.0	305.3	261.8	280.4	303.0	340.7	410.5	460.1	468.3	444.1	375.0	322.5	419.4	405.3	140.4	76.84	85.98	133.1	346.6	1720	2345	54.35	3.812	1.617	1.313	0.987	0.874	0.744	0.638	0.640	0.635	0.607	0.702	0.661	0.776	0.799	0.891	0.943	1.110	1.146	1.470	1.727	2.151	2.342	2.259	2.198	1.988	2.291	1.841	1.435	1.308	1.135	1.306	1.115	1.328	1.408	1.226	1.304	1.601	1.745	1.812	2.003	2.067	2.160	2.219	2.274	2.257	1.992	2.043	2.282	1.901	1.837	1.930
345.0	625.3	760.1	802.8	685.6	483.5	316.7	266.5	263.8	286.4	324.7	378.6	422.9	431.7	409.7	348.5	284.7	287.6	399.7	267.9	86.81	69.77	70.60	107.7	510.1	2185	1627	44.71	2.261	1.630	0.845	0.902	0.757	0.565	0.684	0.633	0.623	0.663	0.700	0.678	0.713	0.717	0.887	0.959	1.119	1.386	1.764	1.843	2.140	2.272	2.302	2.187	2.348	1.822	1.540	1.349	1.130	1.212	1.204	1.362	1.341	1.166	1.225	1.429	1.787	1.554	1.738	1.908	1.864	1.934	2.189	2.084	1.986	1.951	2.111	1.824	1.719	1.472
350.0	581.8	691.3	748.2	677.0	505.7	328.9	267.6	264.8	276.6	307.4	342.5	377.5	390.1	368.9	322.3	264.9	235.0	258.3	321.9	216.7	94.84	70.00	65.93	143.9	639.9	1463	1492	200.0	9.782	1.578	1.139	0.975	0.657	0.757	0.632	0.730	0.628	0.654	0.674	0.712	0.683	0.757	0.929	1.079	1.187	1.600	1.723	1.914	2.268	2.084	2.090	2.252	1.955	1.724	1.398	1.179	1.177	1.228	1.232	1.271	1.304	1.303	1.411	1.505	1.479	1.590	1.611	1.752	1.666	1.841	1.903	1.861	1.777	1.910	1.659	1.586	1.422
355.0	535.3	597.1	661.5	645.7	501.2	340.7	278.9	270.1	270.2	290.7	318.5	344.8	348.6	337.3	301.4	251.4	220.1	198.3	215.9	302.2	198.4	92.08	68.86	73.72	170.9	359.8	1026	1806	294.5	6.160	1.557	1.146	0.718	0.771	0.647	0.700	0.624	0.629	0.654	0.644	0.663	0.749	0.798	0.884	1.128	1.393	1.418	1.783	2.040	1.842	1.795	2.114	1.877	1.669	1.357	1.155	1.277	1.161	1.264	1.260	1.225	1.140	1.286	1.341	1.351	1.472	1.492	1.513	1.682	1.700	1.779	1.676	1.612	1.550	1.666	1.556	1.337
360.0	497.5	563.1	618.5	604.5	494.7	353.1	278.0	273.2	273.7	284.7	308.5	324.1	327.8	316.9	286.0	248.4	216.3	192.4	177.9	240.5	291.7	144.4	82.43	66.33	74.63	106.2	289.0	1404	1600	48.72	2.948	1.349	0.887	0.775	0.809	0.678	0.599	0.677	0.589	0.638	0.677	0.740	0.777	0.890	1.101	1.244	1.348	1.650	1.778	1.662	1.812	2.046	1.781	1.488	1.453	1.250	1.126	1.155	1.156	1.163	1.201	1.219	1.375	1.271	1.395	1.377	1.475	1.564	1.634	1.759	1.640	1.549	1.491	1.416	1.638	1.548	1.320
365.0	468.8	520.0	583.1	583.2	478.3	364.8	297.1	274.6	275.5	286.3	297.8	313.2	313.6	306.1	276.4	245.5	221.2	197.6	175.4	186.1	275.4	240.8	111.8	75.15	62.21	56.77	88.39	432.9	1647	1258	38.37	2.221	1.186	0.885	0.752	0.646	0.659	0.610	0.583	0.693	0.758	0.649	0.815	0.817	1.141	1.193	1.388	1.656	1.520	1.551	1.742	1.932	1.808	1.623	1.491	1.389	1.258	1.296	1.474	1.109	1.405	1.190	1.425	1.200	1.362	1.365	1.346	1.415	1.474	1.487	1.600	1.628	1.430	1.520	1.526	1.410	1.399
370.0	436.6	481.7	530.0	539.0	475.7	377.5	305.8	282.6	278.9	288.0	290.6	306.4	303.8	292.5	268.7	245.1	223.8	204.4	187.3	179.1	200.4	259.1	213.0	109.8	73.91	58.26	53.66	121.6	500.5	1241	960.9	170.5	7.610	1.441	0.878	0.759	0.700	0.682	0.650	0.635	0.692	0.673	0.714	0.741	0.983	1.060	1.222	1.397	1.483	1.474	1.525	1.828	1.771	1.696	1.597	1.330	1.182	1.282	1.351	1.298	1.388	1.221	1.374	1.328	1.347	1.325	1.473	1.450	1.358	1.352	1.562	1.563	1.495	1.472	1.430	1.372	1.308
375.0	411.0	451.4	513.1	503.0	465.8	387.3	320.8	291.1	294.0	289.5	300.4	298.7	296.8	286.2	264.2	243.8	225.9	213.2	199.1	184.1	180.0	194.3	256.1	199.7	101.9	73.32	60.79	63.04	136.6	312.7	857.1	1428	233.1	5.182	1.360	0.968	0.777	0.718	0.638	0.649	0.670	0.711	0.565	0.791	0.828	1.042	1.143	1.255	1.446	1.290	1.389	1.611	1.723	1.736	1.592	1.416	1.358	1.193	1.325	1.308	1.320	1.337	1.378	1.490	1.460	1.513	1.459	1.384	1.323	1.337	1.364	1.524	1.535	1.622	1.437	1.434	1.487
380.0	402.7	425.6	482.1	492.6	454.3	399.6	331.8	308.8	301.1	292.7	300.3	297.0	296.9	288.1	258.9	241.7	230.9	219.4	206.0	193.0	183.0	175.2	211.8	256.9	154.3	88.76	73.26	61.24	64.95	96.19	257.2	1176	1199	40.35	2.390	1.259	0.819	0.742	0.711	0.719	0.670	0.705	0.675	0.725	0.971	0.891	1.155	1.265	1.309	1.141	1.308	1.644	1.639	1.530	1.683	1.472	1.363	1.219	1.391	1.195	1.266	1.237	1.456	1.357	1.439	1.384	1.431	1.387	1.572	1.483	1.403	1.478	1.320	1.484	1.486	1.360	1.400
385.0	378.2	414.3	464.6	480.6	454.3	396.4	342.9	317.2	302.8	300.6	301.1	296.3	298.3	284.0	254.9	241.6	232.8	222.0	210.7	201.0	191.3	176.0	177.9	235.6	223.0	118.9	84.67	67.55	55.26	53.03	85.64	378.0	1254	877.3	29.86	1.716	1.097	0.764	0.729	0.710	0.751	0.670	0.647	0.761	0.896	0.978	1.037	1.286	1.346	1.083	1.314	1.560	1.595	1.798	1.571	1.392	1.331	1.303	1.332	1.437	1.273	1.381	1.407	1.166	1.402	1.331	1.503	1.338	1.512	1.328	1.303	1.678	1.390	1.542	1.454	1.449	1.439
390.0	378.2	408.2	441.1	461.4	447.1	389.9	345.3	324.5	307.4	300.6	301.2	291.2	292.0	276.5	252.8	238.5	232.1	223.6	215.2	206.4	197.7	184.3	174.6	185.3	221.2	191.4	113.2	79.96	61.39	50.07	50.97	108.4	383.2	879.4	682.0	133.3	5.464	1.051	0.909	0.806	0.669	0.844	0.722	0.825	0.894	0.997	0.963	1.202	1.315	1.186	1.204	1.472	1.544	1.699	1.556	1.396	1.376	1.438	1.469	1.454	1.345	1.514	1.413	1.438	1.437	1.394	1.406	1.360	1.393	1.339	1.304	1.497	1.479	1.465	1.397	1.473	1.472
395.0	384.5	391.7	427.0	439.6	418.4	398.9	352.0	333.9	315.3	302.6	296.5	288.7	289.0	268.8	248.7	238.2	230.6	221.3	216.6	209.3	202.0	189.0	176.6	170.5	171.2	207.7	180.7	101.9	74.44	58.52	50.10	52.49	103.4	219.7	599.1	1053	181.0	3.524	1.114	0.879	0.677	0.756	0.840	0.887	0.834	1.036	0.910	1.102	1.206	1.186	1.170	1.512	1.636	1.609	1.549	1.526	1.479	1.460	1.486	1.575	1.345	1.421	1.486	1.442	1.441	1.343	1.374	1.390	1.336	1.498	1.385	1.347	1.371	1.420	1.545	1.509	1.574
400.0	363.3	406.2	422.1	433.2	424.8	394.0	360.7	337.9	320.5	306.0	300.8	288.9	286.3	267.3	249.1	233.7	226.6	219.9	212.4	211.2	204.2	192.3	182.0	172.0	158.5	175.2	211.3	143.1	84.76	66.68	55.78	45.78	43.35	62.86	173.1	847.0	831.0	32.97	1.748	1.178	0.840	0.730	0.890	0.793	0.877	0.885	0.982	1.195	1.188	1.079	1.257	1.371	1.569	1.571	1.543	1.477	1.474	1.472	1.424	1.467	1.525	1.348	1.352	1.365	1.307	1.330	1.316	1.267	1.382	1.450	1.346	1.417	1.286	1.312	1.513	1.439	1.526
405.0	356.5	383.4	413.9	416.8	419.0	387.6	367.4	345.0	322.7	308.4	305.3	288.5	285.4	264.8	246.7	230.6	223.3	220.5	210.5	208.5	203.6	194.8	183.9	173.6	156.9	153.9	188.8	189.6	107.2	76.34	62.30	47.74	34.17	29.47	50.47	262.1	849.2	599.8	25.16	1.559	1.010	0.901	0.956	0.776	0.928	0.887	1.002	1.189	1.232	1.246	1.111	1.421	1.562	1.454	1.523	1.501	1.557	1.438	1.513	1.496	1.392	1.339	1.392	1.405	1.334	1.344	1.271	1.356	1.340	1.436	1.341	1.405	1.350	1.265	1.413	1.314	1.355
410.0	352.1	371.3	396.7	402.1	402.7	386.1	360.0	343.2	324.2	309.1	300.6	282.1	275.6	252.9	235.3	224.6	216.4	212.7	206.8	203.6	197.0	190.0	182.3	172.3	158.9	149.2	151.7	175.9	157.8	99.68	68.90	52.96	36.78	26.92	25.13	68.93	254.7	580.0	492.4	118.8	4.262	1.054	0.929	0.824	0.967	0.951	1.018	1.177	1.076	1.062	1.099	1.379	1.492	1.462	1.513	1.423	1.545	1.417	1.429	1.463	1.314	1.469	1.423	1.359	1.474	1.360	1.341	1.304	1.230	1.415	1.300	1.290	1.293	1.193	1.275	1.305	1.272
415.0	348.4	348.8	383.5	382.8	383.3	370.7	354.8	347.0	326.8	311.7	296.8	278.9	269.0	247.6	229.9	211.6	208.2	203.9	201.9	196.2	191.4	186.1	177.4	172.5	157.6	146.1	138.0	137.2	160.6	146.2	85.46	58.81	42.67	30.71	23.33	27.85	65.55	144.0	396.7	714.1	33.88	3.077	1.112	0.984	0.919	0.899	0.876	1.096	1.079	1.118	1.054	1.287	1.494	1.385	1.315	1.436	1.523	1.463	1.603	1.508	1.489	1.496	1.441	1.333	1.310	1.350	1.361	1.306	1.367	1.389	1.323	1.217	1.198	1.128	1.226	1.306	1.194
420.0	330.1	341.5	375.2	376.4	368.1	365.9	355.0	349.7	324.8	308.9	288.6	275.3	263.2	238.2	218.9	205.9	200.7	196.9	191.6	187.8	184.1	181.2	172.0	165.9	156.7	145.1	137.6	126.4	134.5	160.8	113.1	66.05	47.36	34.12	25.44	21.00	25.20	39.89	112.8	547.6	554.4	30.24	1.552	1.135	0.944	0.959	0.948	1.077	1.006	1.009	1.117	1.427	1.407	1.375	1.477	1.327	1.459	1.485	1.517	1.423	1.396	1.413	1.405	1.394	1.353	1.419	1.274	1.338	1.336	1.278	1.178	1.210	1.045	1.285	1.262	1.253	1.308
425.0	309.3	350.2	370.5	365.4	357.1	364.8	351.2	331.5	324.9	311.2	280.3	274.8	256.3	237.0	214.9	198.6	192.3	192.0	185.1	181.0	178.8	172.3	172.5	162.3	153.5	146.0	134.6	125.0	120.5	140.4	140.8	82.69	51.18	36.99	27.68	21.05	17.88	17.72	32.10	166.1	553.3	267.7	23.13	1.399	0.960	0.980	0.933	1.071	1.041	1.070	0.981	1.373	1.407	1.278	1.490	1.389	1.485	1.472	1.496	1.384	1.506	1.503	1.407	1.413	1.260	1.375	1.289	1.188	1.281	1.216	1.100	1.175	1.102	1.154	1.194	1.344	1.247
430.0	409.3	331.3	344.0	356.4	357.7	357.1	347.8	341.5	323.5	308.9	283.7	267.2	249.6	227.2	207.3	195.0	184.1	181.0	176.5	172.9	169.2	167.0	163.3	157.7	151.0	141.6	135.8	124.5	116.1	113.7	127.4	114.5	68.55	43.62	32.11	24.78	19.08	14.99	15.28	43.64	161.5	361.3	382.8	104.2	5.051	1.216	0.979	1.084	1.091	1.051	0.961	1.240	1.298	1.244	1.247	1.400	1.500	1.492	1.430	1.338	1.520	1.467	1.422	1.321	1.389	1.354	1.259	1.298	1.180	1.219	1.098	1.115	1.094	1.110	1.157	1.232	1.207
435.0	777.6	329.1	334.1	339.7	363.5	354.8	351.3	337.8	327.4	309.2	283.5	266.0	240.1	220.7	201.8	184.9	177.1	174.6	170.0	163.1	162.8	157.5	155.2	152.2	145.2	139.0	131.8	123.0	115.0	107.1	103.8	113.6	99.77	56.32	37.12	28.36	22.10	16.95	13.66	17.75	41.88	89.23	275.0	532.0	148.0	4.041	1.205	1.099	1.044	0.942	0.989	1.118	1.212	1.190	1.416	1.404	1.326	1.555	1.552	1.553	1.445	1.468	1.504	1.413	1.425	1.315	1.279	1.256	1.250	1.281	1.136	1.212	1.028	1.184	1.240	1.222	1.131
440.0	1119	420.9	304.2	334.3	342.2	351.9	357.2	345.4	324.5	297.2	281.6	258.8	234.5	213.0	193.9	179.8	172.9	169.7	164.2	159.6	156.6	151.3	149.4	145.1	139.5	134.0	129.9	120.6	113.5	104.4	97.18	95.00	105.6	76.07	41.50	30.86	24.39	18.90	14.52	12.33	16.03	25.20	76.64	381.6	515.2	29.20	2.240	1.202	1.128	0.962	0.980	1.277	1.331	1.292	1.411	1.428	1.425	1.554	1.437	1.514	1.418	1.507	1.371	1.394	1.323	1.245	1.016	1.163	1.070	1.250	1.138	1.133	1.184	1.073	1.164	1.345	1.090
445.0	1256	647.5	307.8	324.8	336.4	340.7	354.8	342.4	326.4	294.0	273.0	254.1	228.5	209.7	189.9	172.6	168.4	161.6	156.6	153.0	147.1	146.2	143.0	140.6	134.6	129.6	126.7	117.3	113.0	104.4	93.18	83.48	92.93	92.21	54.60	34.01	26.55	20.79	16.31	13.41	11.03	11.27	22.31	112.2	454.3	414.5	22.25	1.597	1.190	1.034	0.962	1.282	1.193	1.298	1.336	1.375	1.391	1.547	1.359	1.518	1.421	1.376	1.273	1.381	1.405	1.284	1.224	1.052	1.184	1.131	1.109	1.143	1.074	0.970	1.115	1.143	1.014
450.0	820.4	1227	423.1	303.4	314.9	327.6	335.5	332.3	316.8	287.0	269.4	241.9	219.8	200.0	178.0	165.4	157.3	150.8	145.8	144.1	136.0	133.4	132.0	131.4	127.7	123.4	119.9	114.2	109.2	103.1	91.00	79.53	75.24	81.96	73.60	46.30	29.87	23.25	18.36	14.87	11.93	9.406	10.35	29.92	128.5	331.0	324.8	102.5	5.524	1.165	1.044	1.232	1.209	1.301	1.216	1.281	1.422	1.411	1.480	1.400	1.426	1.400	1.261	1.322	1.220	1.249	1.205	1.037	1.159	1.130	1.026	1.175	1.002	0.997	0.984	1.114	0.961
455.0	404.5	1306	884.5	286.9	294.9	313.0	318.4	318.3	300.9	277.3	257.6	228.9	207.5	188.0	169.4	154.9	143.9	140.5	135.3	130.6	125.2	123.1	121.1	119.9	116.8	115.1	111.8	106.5	103.5	97.62	87.75	76.31	67.93	63.50	68.60	63.67	37.47	24.84	20.13	16.03	13.68	10.58	9.033	12.02	33.11	79.50	190.8	433.3	137.5	5.433	1.067	1.250	1.253	1.322	1.260	1.196	1.308	1.311	1.434	1.457	1.298	1.319	1.136	1.230	1.248	1.142	1.158	1.038	1.050	1.028	1.022	0.926	0.945	0.913	0.905	0.960	0.945
460.0	285.7	842.0	1299	363.8	277.2	291.9	299.4	301.7	286.2	262.1	246.1	221.8	194.0	174.3	159.2	144.7	134.6	130.4	127.5	122.5	117.3	112.0	112.4	110.8	111.1	107.0	104.9	99.40	99.09	91.63	85.01	73.83	64.73	56.62	56.07	65.27	50.07	27.97	21.35	17.40	14.50	11.73	9.276	8.414	11.77	21.72	50.18	263.8	407.5	24.15	2.800	1.221	1.213	1.202	1.170	1.217	1.334	1.398	1.339	1.325	1.135	1.118	1.149	1.086	1.090	1.046	1.191	0.994	0.958	1.045	0.990	0.975	0.956	0.923	0.892	0.775	0.878
465.0	241.9	439.8	1362	631.7	272.9	272.2	284.1	286.1	272.1	246.4	231.3	210.9	183.9	167.0	149.4	136.5	129.1	123.1	117.7	113.6	109.6	105.3	103.5	102.4	102.3	98.88	98.24	95.22	94.81	88.05	83.01	71.74	62.75	53.26	49.04	54.50	55.37	34.86	22.66	17.91	14.65	12.47	9.891	7.849	8.029	9.018	14.86	72.33	308.3	330.1	20.68	1.897	1.301	1.088	1.089	1.136	1.166	1.381	1.225	1.288	1.159	1.088	1.142	1.014	1.110	1.092	1.063	0.946	0.900	0.923	0.937	0.870	0.854	0.879	0.958	0.793	0.952
470.0	255.2	271.6	812.1	1143	371.8	252.1	270.6	263.8	253.4	227.6	209.7	194.2	171.1	153.0	137.3	123.5	115.2	110.2	106.4	100.7	95.73	93.92	92.91	91.88	91.81	90.01	88.70	86.07	85.73	81.69	75.16	67.03	58.75	49.94	44.15	41.78	45.92	43.78	28.56	18.68	15.03	12.70	10.33	8.948	7.449	6.489	6.979	19.31	82.46	216.1	264.2	100.9	6.935	1.306	1.082	1.035	1.074	1.228	1.175	1.113	1.089	1.139	1.101	1.062	1.056	0.915	0.968	0.874	0.819	0.809	0.812	0.758	0.863	0.812	0.808	0.733	0.777
475.0	300.8	225.8	345.0	1098	819.3	241.9	246.1	239.3	227.8	205.3	193.4	177.4	155.9	135.7	123.5	112.2	102.3	98.50	95.46	89.89	86.35	84.87	79.97	81.82	79.57	79.24	77.12	76.55	76.37	73.69	68.30	60.54	54.26	46.12	40.47	36.15	34.54	39.20	37.91	23.07	15.66	13.00	10.60	9.318	8.166	6.493	5.355	7.603	21.11	50.89	108.7	281.8	135.3	7.833	1.100	1.062	1.137	1.130	1.161	1.176	1.081	1.031	1.096	0.964	0.816	0.886	0.976	0.776	0.895	0.822	0.818	0.734	0.774	0.710	0.720	0.633	0.719
480.0	280.5	233.4	208.6	687.0	1231	315.4	220.3	225.5	207.1	193.7	179.4	169.2	147.1	127.4	113.2	106.2	92.86	89.64	87.23	82.09	78.83	77.41	74.32	74.91	73.27	73.40	72.45	70.49	69.84	67.46	64.51	57.58	51.52	42.97	38.70	34.00	30.20	30.91	37.62	29.27	17.33	13.00	11.09	9.402	8.141	6.683	5.709	5.403	7.686	13.78	27.56	133.9	291.2	108.5	3.685	1.115	1.152	0.987	1.152	0.975	0.938	0.988	0.981	0.870	0.824	0.822	0.902	0.799	0.861	0.794	0.742	0.627	0.680	0.660	0.737	0.636	0.661
485.0	243.8	255.1	193.0	357.0	1293	528.9	208.8	212.3	197.2	183.9	171.4	157.5	142.5	120.4	109.2	97.16	89.49	83.22	82.98	76.34	73.53	70.92	69.42	69.54	67.70	67.82	66.45	66.67	66.41	64.10	59.57	54.47	47.95	42.38	37.38	32.96	29.42	26.01	31.76	33.77	21.35	13.48	11.26	9.615	8.141	7.438	5.961	5.065	4.866	5.707	8.411	34.94	178.0	277.0	26.27	2.072	1.152	1.030	1.103	1.040	0.909	1.034	0.872	0.859	0.822	0.789	0.836	0.759	0.855	0.652	0.679	0.625	0.682	0.642	0.727	0.700	0.612
490.0	195.5	269.5	192.9	208.5	760.6	1097	298.2	190.8	182.1	169.7	158.7	142.9	129.4	113.5	98.75	90.72	80.99	77.59	73.78	69.80	65.86	63.49	62.05	62.25	62.39	61.61	61.05	60.15	60.13	59.12	55.35	51.11	45.42	39.79	35.05	31.15	27.32	24.48	23.84	28.60	27.56	17.92	11.80	9.777	8.612	7.597	6.357	5.478	4.427	4.111	4.247	9.893	45.54	142.5	206.5	104.9	9.219	1.130	1.081	0.958	0.875	0.969	0.858	0.861	0.745	0.672	0.704	0.645	0.720	0.679	0.603	0.603	0.681	0.636	0.595	0.628	0.646
495.0	156.7	231.0	220.4	168.1	313.1	1099	741.9	182.1	161.8	154.9	147.5	131.4	117.4	101.4	91.74	80.89	71.47	69.98	65.42	62.48	57.80	57.31	55.80	55.57	56.03	54.82	53.20	54.64	53.53	52.78	49.79	46.22	41.02	37.02	32.46	29.51	25.02	22.54	20.37	20.60	25.29	23.47	14.88	10.28	8.486	7.378	6.610	5.799	4.758	3.858	3.325	4.430	11.96	33.58	82.58	244.5	157.8	10.85	1.136	1.007	0.959	0.812	0.714	0.786	0.679	0.711	0.643	0.613	0.625	0.614	0.543	0.600	0.447	0.572	0.548	0.516	0.586
500.0	116.2	174.5	237.9	156.8	184.5	684.1	1165	240.1	148.2	142.3	130.5	121.2	105.5	96.47	81.48	73.11	67.35	65.24	58.90	56.63	53.49	51.66	51.22	49.89	49.77	49.07	49.25	49.72	49.72	47.63	45.20	41.52	37.68	34.54	30.08	26.56	23.90	21.21	19.30	17.46	19.17	24.38	19.26	11.24	8.797	7.637	6.554	5.819	5.119	4.207	3.336	3.235	4.478	9.194	20.56	104.8	268.0	122.4	5.339	0.984	0.905	0.890	0.818	0.692	0.575	0.708	0.573	0.564	0.533	0.513	0.554	0.625	0.435	0.503	0.547	0.607	0.461
505.0	120.0	134.3	233.7	167.4	142.4	328.6	1254	382.3	139.0	132.4	119.6	110.9	96.49	87.53	75.90	68.06	61.05	58.16	55.04	51.02	49.33	46.21	45.90	45.13	45.14	45.73	45.18	44.77	45.13	44.93	41.65	39.27	35.78	31.65	27.68	24.76	22.50	19.51	18.06	15.52	15.53	19.22	21.71	14.12	9.073	7.306	6.366	5.585	5.097	4.464	3.635	3.018	2.833	3.797	6.344	26.19	136.0	251.0	29.69	2.574	0.910	0.796	0.705	0.708	0.566	0.602	0.635	0.574	0.478	0.577	0.527	0.586	0.419	0.478	0.431	0.539	0.408
510.0	97.73	98.26	178.1	204.1	130.7	168.9	730.0	1018	212.0	115.3	109.0	97.79	86.95	76.48	67.57	59.15	53.62	50.12	48.78	44.70	43.23	40.94	40.10	40.18	40.51	39.72	38.75	39.13	39.61	38.53	37.65	34.94	31.66	28.21	25.19	22.39	20.44	18.38	16.03	14.01	13.38	13.84	17.86	17.14	11.50	7.577	6.272	5.406	4.790	4.225	3.741	3.172	2.552	2.537	2.976	7.309	33.54	112.9	177.4	98.29	9.330	0.774	0.657	0.627	0.519	0.575	0.589	0.512	0.487	0.452	0.461	0.508	0.398	0.434	0.381	0.419	0.397
515.0	87.03	83.82	124.0	212.9	143.2	116.9	270.4	1108	618.5	107.7	94.85	88.65	77.80	67.60	59.11	51.89	47.50	44.14	41.33	39.07	36.73	35.10	35.26	34.70	34.51	34.73	34.03	33.60	34.56	33.47	32.40	30.25	27.28	24.82	22.29	20.34	18.16	16.57	14.27	12.88	11.64	10.71	12.41	15.54	15.35	9.430	6.227	5.201	4.460	4.041	3.613	3.519	2.778	2.356	2.171	2.999	8.716	26.40	58.10	182.8	131.0	10.15	0.726	0.582	0.595	0.530	0.506	0.473	0.468	0.459	0.454	0.407	0.417	0.368	0.450	0.356	0.337
520.0	84.10	74.62	93.85	172.3	170.2	102.8	142.4	683.9	1091	159.8	86.57	80.58	69.87	60.20	53.22	46.00	42.89	39.00	38.16	35.43	32.97	32.15	31.26	30.97	30.94	31.30	31.15	30.20	32.48	30.47	28.86	26.86	24.37	22.42	20.35	18.29	16.52	15.14	13.17	12.05	10.92	9.614	9.806	11.85	15.17	11.21	6.772	5.090	4.093	3.940	3.456	3.403	3.071	2.353	2.111	1.971	3.196	7.033	14.26	73.00	196.0	94.51	4.850	0.678	0.629	0.513	0.466	0.475	0.445	0.387	0.340	0.349	0.407	0.368	0.385	0.349	0.284
525.0	79.14	67.07	76.37	120.7	194.1	102.8	100.7	306.7	1269	279.1	77.54	72.48	63.59	56.11	48.33	42.00	38.23	35.14	35.27	32.54	29.65	29.08	28.42	28.42	27.16	27.58	27.83	27.13	27.76	27.76	25.50	24.72	21.93	19.66	17.69	16.91	15.14	13.68	12.16	11.18	10.02	8.964	8.443	8.783	12.54	12.85	8.291	5.231	3.945	3.644	3.184	3.085	3.264	2.547	2.003	1.803	1.981	2.630	4.232	17.92	93.28	183.7	29.92	1.991	0.580	0.460	0.422	0.449	0.402	0.394	0.371	0.351	0.353	0.331	0.317	0.338	0.362
530.0	62.67	59.93	62.66	79.86	166.2	132.7	83.08	135.5	762.6	955.2	138.2	64.08	57.10	49.24	42.44	38.17	33.42	30.45	29.55	27.84	25.04	24.41	25.02	23.88	23.79	24.02	23.71	23.76	23.79	23.37	22.28	20.85	19.54	17.16	16.06	14.65	13.55	12.09	11.15	9.814	9.105	8.227	7.598	7.243	8.560	11.17	10.41	6.559	4.080	3.443	3.073	2.657	2.708	2.654	2.285	1.648	1.621	1.605	1.921	4.855	22.69	79.42	129.6	71.67	7.753	0.478	0.457	0.383	0.378	0.365	0.295	0.318	0.263	0.317	0.313	0.364	0.322
535.0	46.07	51.57	57.32	58.33	105.8	166.6	84.04	82.27	249.2	1097	525.3	59.42	47.97	42.75	36.22	32.03	28.54	26.89	26.00	23.31	22.12	21.04	20.72	20.27	20.12	20.38	19.88	20.54	19.95	20.49	19.01	18.02	16.58	15.07	13.63	12.61	11.50	10.72	9.604	8.802	7.908	7.018	6.802	6.130	6.322	7.524	9.359	8.702	4.833	3.214	2.652	2.407	2.272	2.423	2.390	1.980	1.544	1.451	1.353	1.911	5.844	18.47	41.19	120.6	91.35	7.433	0.535	0.312	0.365	0.330	0.326	0.318	0.245	0.317	0.302	0.272	0.318
540.0	44.70	45.86	52.96	50.67	69.59	160.1	99.39	63.27	104.7	668.4	1013	95.43	43.38	36.73	33.58	28.03	25.65	23.31	21.95	20.56	19.54	19.07	18.25	18.06	17.55	17.72	17.96	17.71	17.49	17.43	16.94	16.15	14.59	13.30	12.56	11.19	10.29	9.284	8.738	7.902	7.035	6.244	6.075	5.789	5.284	5.666	6.790	8.845	6.029	3.523	2.700	2.251	1.944	2.057	1.877	2.282	1.686	1.271	1.106	1.364	1.959	4.830	9.932	46.51	132.3	31.86	3.101	0.387	0.345	0.246	0.318	0.270	0.246	0.223	0.278	0.215	0.295
545.0	44.81	43.92	41.12	42.42	53.09	125.0	121.3	57.48	66.37	267.9	1209	200.1	39.52	32.72	30.02	24.72	22.36	21.33	19.43	18.26	17.76	16.52	16.01	16.07	15.31	15.33	15.72	15.41	15.22	15.24	15.23	14.11	13.02	11.83	10.84	9.600	9.163	8.069	7.805	6.974	6.388	6.118	5.676	4.931	4.791	4.497	5.117	7.029	6.943	4.229	2.620	2.169	1.997	1.762	1.690	2.048	1.767	1.341	1.065	1.171	1.084	1.694	2.802	11.29	60.10	113.5	26.95	1.247	0.326	0.304	0.282	0.277	0.226	0.260	0.241	0.196	0.244
550.0	38.27	38.61	35.57	36.17	40.18	74.03	138.6	69.47	50.06	98.53	683.9	803.0	71.00	28.57	24.37	20.94	18.77	17.58	16.33	15.00	14.60	13.80	13.46	13.70	12.89	12.50	12.40	12.43	12.86	12.40	12.66	11.45	10.55	9.818	9.159	8.330	7.858	7.142	6.524	5.582	5.740	4.912	4.532	4.185	4.093	3.851	3.642	4.471	5.966	5.031	3.206	1.989	1.565	1.497	1.416	1.472	1.661	1.589	1.037	0.997	0.803	0.956	1.147	2.991	14.46	48.28	80.38	48.26	5.608	0.359	0.245	0.269	0.268	0.190	0.219	0.196	0.205
555.0	36.66	35.35	33.01	30.76	30.72	42.84	112.6	100.4	37.97	51.39	205.7	975.9	317.4	24.67	20.09	17.11	15.98	14.21	12.90	12.44	11.23	11.01	10.95	10.81	10.55	10.53	9.858	10.64	10.35	10.34	10.26	9.176	9.108	8.225	7.567	6.620	6.420	5.575	5.592	4.693	4.641	4.262	3.785	3.523	3.260	3.179	2.981	2.957	3.745	4.747	4.212	2.197	1.461	1.364	1.287	1.136	1.363	1.384	1.399	0.873	0.692	0.683	0.721	1.143	3.585	11.16	24.93	74.67	32.46	4.793	0.249	0.249	0.239	0.213	0.232	0.158	0.173
560.0	33.61	34.36	27.97	26.47	29.21	32.59	69.77	115.4	42.79	36.62	73.96	584.5	706.9	40.96	17.59	15.58	13.36	12.17	11.52	10.56	9.452	9.399	9.857	9.056	8.666	8.633	8.663	8.819	8.596	8.915	8.329	7.668	7.320	6.913	6.467	5.855	5.115	4.658	4.426	4.341	3.753	3.532	3.475	2.985	2.947	2.683	2.460	2.263	2.548	3.537	4.093	2.786	1.573	1.214	1.314	1.092	1.017	1.042	1.439	1.132	0.615	0.538	0.621	0.662	1.099	2.847	5.972	27.84	73.73	29.30	2.149	0.231	0.189	0.193	0.171	0.200	0.175
565.0	36.29	31.80	28.04	23.82	24.66	24.57	43.61	118.8	60.35	32.28	41.73	219.8	919.2	123.9	15.03	13.59	10.89	10.89	9.226	8.920	8.001	8.112	8.093	7.476	7.226	7.561	7.754	7.539	7.509	7.153	7.230	6.753	5.787	5.865	5.265	4.866	4.357	4.153	3.968	3.831	3.411	3.156	2.905	2.517	2.790	2.369	2.039	2.145	1.875	2.317	3.569	3.167	1.621	1.094	1.006	0.872	0.937	0.852	1.091	1.454	0.819	0.591	0.496	0.411	0.547	0.864	1.651	6.706	33.36	71.64	22.70	0.743	0.216	0.209	0.212	0.125	0.182
570.0	35.45	31.04	24.37	19.96	21.40	21.19	27.57	81.73	92.03	31.72	31.83	72.44	543.7	539.9	32.53	11.39	8.869	8.941	7.962	7.276	6.913	6.523	6.534	6.151	5.893	5.879	6.223	5.784	6.126	5.940	5.681	5.484	5.220	4.792	4.236	4.039	3.657	3.323	3.297	2.849	2.667	2.576	2.434	2.087	2.203	1.906	1.726	1.717	1.442	1.514	2.269	2.834	2.233	1.328	0.983	0.800	0.805	0.767	0.749	1.032	1.067	0.758	0.444	0.411	0.395	0.477	0.618	1.745	8.036	30.01	48.92	22.30	3.112	0.203	0.179	0.144	0.132
575.0	35.13	30.79	23.25	16.77	19.33	17.22	19.22	40.80	108.0	46.63	26.20	33.43	155.7	695.2	121.2	9.533	7.682	7.087	6.118	5.587	5.634	5.484	5.132	4.725	4.999	4.709	4.803	4.761	4.831	4.548	4.350	4.484	4.061	3.865	3.162	3.114	3.023	2.670	2.656	2.276	2.375	2.303	1.985	1.691	1.762	1.433	1.497	1.345	1.134	1.207	1.277	1.932	2.271	1.763	1.040	0.675	0.600	0.624	0.565	0.676	0.759	0.959	0.583	0.375	0.368	0.321	0.409	0.621	2.042	6.905	14.84	42.55	29.08	2.651	0.163	0.165	0.123
580.0	35.92	32.68	21.42	19.03	16.04	14.95	17.35	24.64	91.74	70.07	26.23	24.56	48.94	423.9	440.9	15.84	6.301	5.666	5.286	4.777	4.806	4.586	4.125	4.214	3.956	4.052	4.379	4.070	3.914	4.034	4.031	3.731	3.569	3.177	2.800	2.751	2.602	2.209	2.095	1.926	1.936	1.988	1.594	1.555	1.493	1.181	1.368	1.192	0.969	0.999	0.941	1.190	1.619	2.033	1.222	0.708	0.549	0.539	0.502	0.555	0.558	0.842	0.860	0.425	0.324	0.323	0.393	0.381	0.651	1.755	3.579	16.58	45.23	22.17	1.134	0.132	0.135
585.0	31.04	31.22	19.48	17.23	14.31	15.10	16.67	18.05	60.36	94.38	28.06	21.92	23.74	155.0	613.5	65.07	5.936	4.971	4.355	4.596	3.929	3.766	3.355	3.653	3.389	3.557	3.526	3.430	3.534	3.435	3.534	3.194	3.022	2.700	2.490	2.416	2.441	1.977	1.971	1.654	1.575	1.652	1.382	1.336	1.405	1.274	1.113	1.102	0.907	0.927	0.747	0.829	1.230	1.637	1.399	0.862	0.486	0.443	0.419	0.441	0.446	0.541	0.752	0.634	0.354	0.300	0.293	0.275	0.370	0.561	0.974	4.022	20.49	42.55	13.32	0.595	0.184
590.0	31.07	26.23	18.37	15.32	13.19	13.65	13.86	15.04	30.71	88.06	48.54	20.62	17.42	47.02	362.9	310.6	13.24	4.351	3.877	3.620	3.346	3.131	2.892	2.895	2.787	2.694	2.796	2.834	2.728	2.868	2.738	2.469	2.532	2.111	1.987	1.894	1.837	1.597	1.729	1.385	1.362	1.281	1.223	1.122	1.164	0.973	0.878	0.894	0.753	0.711	0.633	0.649	0.731	1.124	1.371	1.194	0.671	0.463	0.346	0.371	0.346	0.420	0.524	0.770	0.589	0.313	0.290	0.222	0.265	0.307	0.418	1.075	4.995	17.53	28.25	17.40	1.981
595.0	26.20	24.72	20.34	15.97	10.67	10.63	11.46	12.47	19.47	54.37	77.19	22.22	15.70	19.53	102.2	423.8	77.99	3.942	3.485	2.867	2.797	2.568	2.679	2.277	2.208	2.159	2.199	2.267	2.318	2.305	2.172	2.064	1.947	1.772	1.632	1.701	1.406	1.376	1.288	1.059	1.174	1.056	0.974	0.800	0.983	0.867	0.809	0.712	0.637	0.564	0.520	0.448	0.513	0.630	1.094	1.258	0.832	0.412	0.362	0.355	0.327	0.297	0.301	0.453	0.674	0.560	0.224	0.211	0.282	0.170	0.252	0.369	1.282	4.058	8.486	25.07	19.82
600.0	24.72	23.78	19.68	13.56	12.81	12.43	12.07	12.83	15.72	31.63	82.11	30.57	14.38	12.91	30.62	272.1	247.6	6.511	3.147	2.313	2.266	1.939	2.104	2.041	2.169	1.902	1.683	1.808	2.040	1.860	1.781	1.684	1.705	1.529	1.408	1.429	1.119	1.120	1.077	0.921	0.798	0.805	0.797	0.780	0.779	0.617	0.552	0.662	0.616	0.529	0.402	0.440	0.426	0.511	0.657	0.986	1.011	0.579	0.350	0.311	0.292	0.240	0.246	0.304	0.435	0.700	0.384	0.248	0.270	0.218	0.198	0.219	0.381	1.038	2.051	9.360	26.51
605.0	25.23	20.62	19.35	12.84	12.70	11.55	12.77	13.57	16.24	23.05	71.54	47.94	17.21	12.66	15.03	103.4	356.9	31.10	2.795	2.188	2.078	1.711	1.739	1.845	1.573	1.743	1.478	1.530	1.562	1.440	1.416	1.304	1.347	1.269	1.198	1.174	1.002	1.008	0.954	0.789	0.792	0.841	0.618	0.681	0.668	0.530	0.498	0.562	0.466	0.378	0.422	0.368	0.420	0.378	0.471	0.799	0.861	0.718	0.399	0.321	0.273	0.234	0.307	0.274	0.373	0.574	0.522	0.282	0.224	0.194	0.162	0.195	0.207	0.374	0.590	2.316	11.71
610.0	27.63	21.29	20.26	15.44	13.51	13.78	14.08	14.56	17.86	22.54	46.41	71.93	26.07	16.48	14.66	33.52	231.8	160.5	6.564	1.902	1.656	1.550	1.529	1.530	1.281	1.409	1.223	1.281	1.308	1.299	1.227	1.119	1.133	1.038	0.996	0.968	0.777	0.894	0.735	0.604	0.625	0.687	0.567	0.506	0.590	0.497	0.418	0.485	0.387	0.379	0.396	0.309	0.341	0.298	0.328	0.481	0.643	0.816	0.602	0.345	0.246	0.234	0.245	0.262	0.287	0.389	0.509	0.494	0.307	0.239	0.217	0.211	0.236	0.205	0.266	0.662	2.825
615.0	22.89	25.12	22.65	15.88	12.64	12.23	13.85	16.55	17.20	22.64	31.01	70.84	42.72	18.86	16.34	15.99	71.76	263.2	49.50	1.927	1.258	1.198	1.183	1.307	0.960	1.054	1.016	1.128	1.159	1.007	1.064	0.930	0.920	0.914	0.826	0.762	0.717	0.742	0.582	0.522	0.582	0.501	0.546	0.424	0.573	0.391	0.410	0.397	0.278	0.341	0.340	0.255	0.288	0.274	0.268	0.340	0.313	0.664	0.535	0.548	0.280	0.229	0.244	0.217	0.225	0.290	0.307	0.442	0.535	0.273	0.208	0.199	0.216	0.184	0.282	0.282	0.753
620.0	19.60	24.53	19.97	15.18	13.47	10.91	14.85	15.92	16.45	21.92	25.55	51.41	57.21	21.22	15.61	12.34	24.64	186.7	146.1	2.860	1.257	1.290	0.925	1.031	1.007	0.942	0.955	0.865	0.929	0.954	0.897	0.714	0.662	0.678	0.713	0.660	0.600	0.567	0.514	0.499	0.424	0.391	0.430	0.328	0.411	0.384	0.374	0.328	0.297	0.295	0.303	0.210	0.294	0.233	0.207	0.265	0.269	0.481	0.489	0.528	0.261	0.249	0.203	0.211	0.219	0.219	0.264	0.363	0.510	0.414	0.219	0.188	0.202	0.180	0.208	0.203	0.281
625.0	23.87	22.81	19.61	16.86	13.18	10.72	13.69	14.39	15.14	20.62	22.73	37.27	63.21	26.77	15.75	10.51	12.73	77.06	230.2	15.44	1.217	1.208	1.045	0.908	0.861	0.905	0.841	0.680	0.647	0.687	0.702	0.657	0.687	0.548	0.576	0.555	0.500	0.464	0.405	0.436	0.405	0.395	0.349	0.273	0.381	0.387	0.355	0.331	0.230	0.229	0.249	0.216	0.229	0.187	0.172	0.225	0.260	0.312	0.426	0.411	0.335	0.303	0.174	0.200	0.253	0.214	0.207	0.250	0.390	0.486	0.353	0.204	0.186	0.182	0.196	0.163	0.193
630.0	24.83	23.44	20.10	16.55	13.31	10.53	14.23	14.19	15.70	19.61	21.92	27.68	53.67	39.74	16.99	11.41	10.17	23.55	161.7	106.8	2.885	0.873	0.787	0.774	0.678	0.583	0.669	0.655	0.679	0.600	0.580	0.563	0.591	0.502	0.525	0.448	0.339	0.385	0.310	0.396	0.384	0.352	0.292	0.272	0.287	0.287	0.265	0.260	0.245	0.249	0.206	0.185	0.203	0.204	0.164	0.178	0.184	0.227	0.319	0.412	0.426	0.274	0.228	0.216	0.227	0.207	0.213	0.281	0.234	0.404	0.391	0.279	0.186	0.159	0.165	0.152	0.119
635.0	28.59	23.93	22.55	15.78	11.82	11.16	13.71	15.00	13.73	19.19	22.69	25.08	35.84	51.99	19.70	11.39	9.666	9.614	48.26	186.6	27.36	0.873	0.746	0.632	0.595	0.516	0.571	0.507	0.598	0.510	0.511	0.441	0.492	0.361	0.443	0.344	0.349	0.336	0.333	0.307	0.341	0.369	0.216	0.265	0.244	0.277	0.246	0.201	0.213	0.214	0.172	0.173	0.222	0.180	0.181	0.200	0.189	0.211	0.203	0.322	0.382	0.304	0.209	0.198	0.225	0.197	0.194	0.214	0.235	0.247	0.357	0.443	0.244	0.219	0.195	0.170	0.140
640.0	27.21	25.73	22.63	16.39	14.19	11.86	12.41	14.21	13.55	17.73	21.32	23.77	28.38	48.82	26.19	12.32	9.199	6.797	13.78	140.7	70.36	1.375	0.671	0.603	0.526	0.453	0.459	0.437	0.446	0.455	0.505	0.401	0.365	0.294	0.358	0.288	0.347	0.297	0.293	0.304	0.291	0.285	0.235	0.259	0.249	0.236	0.215	0.190	0.182	0.225	0.165	0.131	0.186	0.152	0.124	0.142	0.224	0.187	0.165	0.225	0.336	0.287	0.262	0.185	0.214	0.172	0.126	0.256	0.203	0.171	0.298	0.436	0.338	0.221	0.187	0.149	0.111
645.0	25.67	29.22	24.44	15.12	12.15	11.99	12.72	14.79	15.01	16.90	20.10	23.53	25.35	39.74	32.98	12.86	9.356	6.136	5.366	59.87	151.8	7.901	0.588	0.491	0.414	0.481	0.346	0.391	0.391	0.353	0.351	0.425	0.301	0.285	0.378	0.280	0.310	0.265	0.216	0.244	0.239	0.258	0.322	0.171	0.205	0.230	0.212	0.189	0.160	0.161	0.138	0.156	0.165	0.141	0.149	0.123	0.166	0.163	0.130	0.206	0.254	0.286	0.237	0.211	0.210	0.181	0.194	0.225	0.223	0.218	0.181	0.322	0.357	0.276	0.214	0.148	0.136
650.0	25.53	26.02	23.21	15.84	12.38	12.71	13.05	12.25	14.61	16.56	19.30	22.65	22.06	29.02	37.48	14.50	8.711	5.465	3.200	18.00	150.4	42.27	0.716	0.482	0.399	0.459	0.393	0.409	0.370	0.294	0.330	0.301	0.287	0.296	0.302	0.248	0.296	0.234	0.194	0.164	0.193	0.227	0.285	0.238	0.141	0.195	0.193	0.192	0.162	0.165	0.131	0.128	0.145	0.162	0.139	0.155	0.134	0.196	0.153	0.180	0.181	0.201	0.245	0.219	0.157	0.206	0.157	0.198	0.141	0.222	0.179	0.245	0.300	0.423	0.223	0.190	0.156
