Sample:	'1
File name:	Default_20250723_152003.FD3
Run date:	'15:13:43, 07/23/2025
Operator:	Administrator
Comment:	'

Instrument
Model:	F-2700 FL Spectrophotometer
Serial number:	3064-004
ROM Version:	4J14000 07

Instrument parameters
Measurement type:	3-D scan
Data mode:	Fluorescence
EX  Start WL:	220.0 nm
EX  End WL:	600.0 nm
EX Sampling interval:	5.0 nm
EM  Start WL:	230.0 nm
EM  End WL:	650.0 nm
EM Sampling interval:	5.0 nm
Scan speed:	12000 nm/min
EX Slit:	5.0 nm
EM Slit:	5.0 nm
PMT Voltage:	700 V
Response:	Auto 
Corrected spectra:	Off
Contour interval:	50.000

Peak integration
Integration method:	Rectangular
Sensitivity:	1
Threshold:	1.000

Peaks
No.	ApexEX/EM(nm)	Height(Data)
1	225.0/335.0	 1443
2	225.0/605.0	43.08
3	225.0/615.0	41.47
4	230.0/610.0	46.36
5	240.0/520.0	291.0
6	240.0/600.0	48.44
7	245.0/265.0	310.4
8	245.0/530.0	254.9
9	245.0/640.0	37.26
10	250.0/545.0	239.2
11	255.0/280.0	599.2
12	255.0/555.0	202.2
13	260.0/285.0	817.4
14	260.0/570.0	178.3
15	265.0/290.0	925.2
16	265.0/580.0	171.6
17	270.0/295.0	 1318
18	270.0/385.0	 1537
19	270.0/595.0	154.0
20	275.0/305.0	 1690
21	275.0/380.0	 1545
22	275.0/605.0	149.3
23	280.0/335.0	 2005
24	280.0/620.0	127.9
25	285.0/630.0	109.0
26	290.0/235.0	6.283
27	290.0/320.0	 2016
28	290.0/645.0	106.1
29	320.0/360.0	980.0
30	335.0/380.0	984.2
31	340.0/385.0	962.4
32	445.0/525.0	63.45
33	455.0/335.0	6.552
34	460.0/545.0	36.58
35	485.0/375.0	5.866
36	505.0/275.0	2.948
37	510.0/280.0	3.501
38	520.0/285.0	3.904
39	540.0/295.0	6.487
40	545.0/300.0	8.331
41	550.0/305.0	7.714
42	560.0/335.0	8.695
43	565.0/340.0	8.610
44	575.0/320.0	10.14
45	580.0/325.0	9.733

Data points
	220.0	225.0	230.0	235.0	240.0	245.0	250.0	255.0	260.0	265.0	270.0	275.0	280.0	285.0	290.0	295.0	300.0	305.0	310.0	315.0	320.0	325.0	330.0	335.0	340.0	345.0	350.0	355.0	360.0	365.0	370.0	375.0	380.0	385.0	390.0	395.0	400.0	405.0	410.0	415.0	420.0	425.0	430.0	435.0	440.0	445.0	450.0	455.0	460.0	465.0	470.0	475.0	480.0	485.0	490.0	495.0	500.0	505.0	510.0	515.0	520.0	525.0	530.0	535.0	540.0	545.0	550.0	555.0	560.0	565.0	570.0	575.0	580.0	585.0	590.0	595.0	600.0
230.0	27.15	525.4	 3401	 2245	139.0	12.62	10.70	10.70	8.977	9.219	8.138	6.385	6.925	5.951	4.778	4.528	3.439	3.134	2.969	2.944	2.613	2.302	2.014	1.840	2.019	1.962	1.627	1.874	1.728	1.487	1.526	1.388	1.319	1.316	1.165	1.207	1.076	1.039	0.926	1.059	0.965	1.092	0.960	1.037	0.834	0.870	1.630	5.687	9.405	8.072	3.544	1.030	0.677	0.725	0.593	0.573	0.632	0.686	0.554	0.609	0.589	0.565	0.563	0.485	0.515	0.534	0.435	0.541	0.490	0.536	0.403	0.475	0.480	0.434	0.514	0.461	0.584
235.0	47.22	148.7	 1452	 4358	 2529	214.2	12.06	10.20	11.29	9.818	8.959	6.413	6.209	5.222	6.283	4.464	3.579	3.414	3.281	2.594	2.815	2.356	2.094	2.162	1.679	2.004	1.727	1.580	1.495	1.569	1.472	1.264	1.322	1.165	1.043	0.919	1.250	1.181	0.966	1.159	1.145	0.939	0.961	1.230	1.089	0.919	1.056	2.003	3.927	6.340	9.114	9.837	4.897	1.571	0.582	0.617	0.593	0.609	0.709	0.609	0.524	0.600	0.614	0.425	0.584	0.550	0.503	0.521	0.497	0.616	0.418	0.428	0.420	0.559	0.493	0.598	0.482
240.0	56.82	99.95	372.2	 2565	 5354	987.8	115.5	12.14	11.99	9.309	8.474	7.252	6.982	6.417	5.537	3.779	4.635	3.432	3.038	2.705	2.944	2.348	2.593	2.193	1.922	2.325	1.792	1.783	1.481	1.644	1.169	1.635	1.426	1.180	1.083	1.209	1.184	0.881	1.177	0.876	1.049	0.890	1.055	1.131	1.067	1.186	1.107	1.281	1.606	2.164	4.482	11.26	13.21	9.804	3.775	1.156	0.661	0.790	0.484	0.666	0.485	0.592	0.597	0.427	0.566	0.607	0.385	0.493	0.556	0.629	0.390	0.437	0.450	0.471	0.576	0.607	0.434
245.0	38.45	115.2	144.4	695.7	 3565	 5522	823.6	47.22	14.62	9.893	10.24	8.941	6.799	7.197	5.065	4.533	4.462	3.651	3.479	2.638	2.793	2.559	2.450	1.986	1.896	2.367	2.128	1.855	1.914	1.709	1.380	1.407	1.227	1.104	1.078	1.227	1.277	1.004	0.974	0.849	1.021	1.181	1.001	1.018	0.959	1.135	1.120	1.077	1.141	1.082	1.610	3.875	8.867	14.74	15.31	8.645	2.646	0.680	0.657	0.694	0.602	0.647	0.637	0.521	0.658	0.606	0.533	0.547	0.538	0.530	0.516	0.457	0.609	0.487	0.519	0.460	0.503
250.0	24.49	63.68	147.4	250.8	941.0	 3244	 4949	 2671	222.5	13.90	10.88	10.94	8.579	7.122	6.072	4.723	4.659	3.641	3.762	2.952	3.050	2.876	2.408	2.163	2.137	2.715	1.740	1.689	1.706	1.631	1.306	1.301	1.390	1.235	1.289	1.015	1.063	0.942	0.803	0.943	0.863	1.004	1.071	0.933	0.824	0.898	0.922	1.224	1.330	1.070	1.078	1.370	2.523	4.912	8.968	12.61	16.81	13.57	8.196	3.364	0.829	0.618	0.693	0.559	0.620	0.645	0.411	0.548	0.577	0.525	0.557	0.506	0.514	0.380	0.574	0.564	0.545
255.0	22.47	38.00	87.71	226.6	340.3	760.6	 2029	 6410	 4076	298.0	15.21	11.76	9.116	7.561	6.945	5.815	4.333	3.806	3.656	3.211	2.903	2.498	2.808	2.492	2.054	2.354	1.737	1.832	1.826	1.732	1.358	1.387	1.181	1.395	1.126	0.950	1.034	1.001	0.986	0.825	0.930	1.238	1.026	0.811	0.872	0.778	0.738	0.725	0.809	1.354	1.361	1.467	1.312	1.721	2.457	3.474	6.318	13.63	25.20	30.42	13.27	3.756	0.772	0.663	0.580	0.641	0.472	0.526	0.622	0.519	0.540	0.550	0.602	0.543	0.518	0.542	0.507
260.0	28.53	28.06	40.38	141.6	329.0	258.7	506.2	 3102	 8689	 3440	202.4	16.09	9.448	8.952	8.451	6.441	4.655	4.338	3.896	3.886	2.951	2.705	2.888	2.559	2.058	2.489	1.946	1.933	1.670	1.454	1.787	1.531	1.372	1.264	1.170	1.186	1.195	1.137	1.097	0.828	0.912	1.053	1.122	0.934	0.966	0.821	0.981	0.885	0.685	0.952	1.115	1.658	2.254	1.464	1.207	1.322	2.273	4.172	10.92	27.56	32.01	26.86	10.15	1.838	0.561	0.596	0.504	0.430	0.642	0.621	0.461	0.499	0.604	0.495	0.649	0.632	0.426
265.0	25.74	30.38	27.73	62.99	252.1	310.4	162.8	809.1	 4950	9999.9	 3019	69.43	13.46	9.869	8.203	7.209	5.548	4.698	3.928	3.897	2.934	3.288	2.945	2.588	2.075	2.398	1.889	1.933	1.778	2.100	1.814	1.679	1.207	1.486	1.089	1.021	1.185	0.879	1.079	0.944	1.048	0.900	1.002	0.959	1.002	0.926	0.971	1.022	0.851	0.815	0.892	1.041	1.786	1.989	1.783	0.906	1.150	1.613	3.104	8.263	17.78	33.78	41.09	24.21	5.408	0.973	0.550	0.632	0.559	0.512	0.425	0.504	0.656	0.530	0.585	0.542	0.494
270.0	40.78	40.54	36.01	36.58	93.14	280.6	341.5	267.4	 1268	 5050	9999.9	 5088	175.6	16.21	10.74	9.268	5.813	5.221	4.458	4.158	3.371	3.289	2.996	2.662	2.692	2.759	1.996	1.924	1.798	1.672	1.517	1.523	1.405	1.437	1.380	1.192	1.138	1.140	1.129	0.894	1.195	0.956	1.108	1.071	1.147	0.933	0.882	0.946	0.788	0.893	0.742	0.838	1.044	1.423	1.715	2.141	2.022	1.569	1.371	2.466	4.722	9.869	19.55	30.73	37.33	33.93	20.20	5.617	0.947	0.571	0.581	0.703	0.628	0.626	0.514	0.548	0.515
275.0	75.20	77.25	62.24	48.16	57.77	109.6	364.7	489.3	393.1	 1222	 4047	9999.9	 8337	221.0	16.39	10.49	8.176	6.761	4.785	4.567	3.347	3.147	3.813	2.682	2.402	2.487	2.473	2.141	2.551	1.891	1.965	1.749	1.585	1.536	1.495	1.147	1.276	1.200	1.128	1.208	1.249	1.057	1.016	1.047	1.491	1.239	0.964	1.087	0.816	0.838	0.995	0.795	0.786	0.973	1.073	1.435	2.355	2.948	2.470	1.593	1.819	3.082	5.195	7.809	12.30	26.97	52.67	52.07	28.86	4.809	0.710	0.637	0.568	0.747	0.533	0.580	0.640
280.0	118.2	130.1	125.7	82.85	61.54	67.27	179.0	599.2	470.2	422.5	 1111	 4250	9999.9	 2500	139.5	13.92	10.36	7.385	5.670	5.450	3.506	3.504	3.192	2.736	2.606	2.680	2.260	2.232	2.287	2.069	1.777	1.873	1.751	1.573	1.280	1.161	1.491	1.346	1.515	1.301	0.988	1.218	1.188	1.453	1.598	1.638	1.231	1.218	1.131	0.835	0.913	0.912	0.881	0.720	0.819	0.983	1.649	2.237	3.501	3.415	2.074	1.678	2.002	2.597	3.907	7.749	19.96	45.28	69.74	45.45	16.81	1.915	0.671	0.752	0.600	0.512	0.568
285.0	157.9	187.5	182.6	122.7	78.40	83.06	114.7	364.5	817.4	436.6	482.9	 1228	 5565	9999.9	 1926	69.12	11.97	8.596	7.301	5.988	4.480	4.050	3.529	3.397	2.808	2.855	2.347	2.396	2.115	1.990	2.006	1.624	1.713	1.453	1.271	1.244	1.783	1.582	1.642	1.313	1.443	1.429	1.325	1.726	1.737	1.566	1.295	1.363	1.449	0.999	1.172	1.000	0.924	0.937	1.006	1.082	1.142	1.697	2.236	3.591	3.904	3.013	1.827	1.613	2.233	3.081	5.789	13.30	32.30	61.71	78.13	37.53	7.864	0.831	0.674	0.567	0.836
290.0	197.8	249.5	250.2	187.3	138.4	128.9	142.2	241.3	562.3	925.2	669.9	625.1	 1612	 5134	9999.9	 6549	109.7	13.63	9.178	6.683	5.362	4.276	3.778	3.541	3.036	3.201	2.417	2.614	2.388	2.136	1.845	2.075	1.677	1.718	1.309	1.472	1.913	1.833	1.848	1.700	1.428	1.630	1.607	1.723	1.793	1.719	1.644	1.820	1.650	1.264	1.325	1.195	1.183	1.196	1.120	1.246	1.294	1.367	1.707	2.157	2.927	4.044	4.365	4.011	2.903	2.858	3.043	4.902	9.032	17.27	32.94	48.37	52.14	52.45	23.93	6.520	1.066
295.0	223.8	303.1	340.8	266.3	215.6	201.6	238.1	308.6	439.3	747.2	 1318	847.3	825.3	 1467	 3208	9999.9	 8885	141.5	12.63	8.365	7.101	6.163	4.073	3.963	2.965	3.555	3.037	2.587	2.610	2.061	2.430	1.898	1.504	1.794	1.835	1.568	1.864	1.995	1.886	1.925	1.726	1.523	1.758	1.707	1.871	1.676	1.871	1.862	1.926	1.777	1.487	1.491	1.253	1.505	1.216	1.833	1.567	1.682	1.849	1.980	2.326	2.828	3.562	4.791	6.487	4.660	3.461	3.428	4.670	5.864	9.324	12.41	16.31	37.23	75.00	58.95	34.74
300.0	252.1	320.0	369.6	313.0	289.9	287.2	330.1	402.6	521.4	721.1	 1279	 1472	856.3	783.2	 1038	 3765	9999.9	 6381	96.98	11.66	8.807	6.287	5.435	4.048	4.065	3.960	3.221	2.708	2.772	2.274	2.432	2.103	2.210	1.876	1.788	1.733	2.045	1.864	1.850	1.773	1.897	1.751	1.809	1.628	1.945	2.028	2.128	1.974	2.176	1.722	1.602	1.880	1.706	1.716	1.581	1.956	1.865	2.000	2.563	2.457	2.908	3.095	3.422	4.353	6.121	8.331	5.766	4.541	4.283	4.380	4.527	4.845	5.561	10.24	26.25	58.91	92.46
305.0	277.0	349.0	394.4	346.7	323.8	335.2	394.2	496.8	612.4	767.5	 1059	 1690	 1287	761.8	629.9	 1121	 5017	9999.9	 1221	56.69	12.19	7.864	5.885	5.470	3.776	4.294	3.526	3.168	2.774	2.281	2.779	2.064	2.037	1.654	1.671	1.639	1.847	1.825	2.037	2.200	1.588	1.822	1.830	1.906	2.141	2.102	2.155	2.182	2.257	1.764	1.707	2.066	1.840	1.763	1.823	2.185	2.112	2.160	2.691	2.891	3.103	3.231	3.697	4.267	4.665	6.176	7.714	7.536	5.430	3.981	3.828	3.590	3.811	3.893	7.650	16.48	41.04
310.0	305.9	394.3	433.4	403.1	366.4	393.1	471.7	558.2	690.0	832.0	 1029	 1348	 1689	 1235	705.7	607.5	 1397	 4708	 8674	 4782	78.90	12.27	7.672	5.856	4.761	5.008	3.688	3.115	2.931	2.542	2.854	2.316	2.067	1.973	1.732	1.773	1.892	2.228	2.053	2.028	1.858	2.024	1.952	1.972	2.342	2.442	2.404	2.485	2.236	1.798	1.885	1.977	1.831	2.146	2.192	2.214	2.406	2.547	2.915	2.946	3.396	3.403	4.032	4.289	4.913	5.021	6.113	7.360	7.942	7.242	5.181	4.383	3.753	3.299	3.841	5.566	10.88
315.0	487.4	705.0	659.4	479.5	420.1	446.5	533.7	638.3	807.4	984.7	 1230	 1422	 1603	 1880	 1314	735.3	713.3	 1306	 2673	9999.9	 6933	105.1	11.80	6.815	6.099	5.733	4.476	3.732	3.137	2.624	2.777	2.510	1.963	1.765	1.751	2.055	2.090	2.123	1.847	2.320	2.097	2.856	2.401	2.654	3.332	3.645	3.547	3.586	2.780	2.002	1.973	2.161	2.067	2.314	2.517	2.227	2.786	2.956	3.106	3.574	3.321	3.933	4.407	5.187	5.746	5.585	6.407	7.047	7.109	8.041	8.405	7.987	6.011	4.478	3.865	3.882	4.710
320.0	756.3	 1177	 1032	617.5	482.6	482.0	589.6	734.3	924.5	 1175	 1457	 1704	 1845	 1978	 2016	 1128	753.5	698.8	854.0	 3711	9999.9	 5302	74.77	10.13	7.977	6.196	4.821	3.722	3.205	3.106	3.137	2.089	2.518	2.208	1.945	2.320	2.134	2.137	2.136	2.329	2.379	3.066	2.660	3.449	4.508	5.200	5.373	4.988	3.782	2.660	2.153	2.425	1.986	2.079	2.568	2.602	2.749	3.469	3.646	3.895	4.079	4.181	5.181	5.803	6.188	6.493	7.043	7.448	7.708	7.806	9.142	10.14	9.172	7.061	5.140	4.491	4.538
325.0	801.3	 1318	 1238	777.5	538.6	503.2	598.4	762.9	963.2	 1198	 1528	 1782	 1929	 1907	 1999	 1539	833.3	585.5	471.0	 1041	 5029	9999.9	913.7	45.21	10.05	7.856	5.436	4.453	4.239	3.336	2.993	2.311	2.393	2.246	1.789	1.840	1.835	1.535	2.104	2.410	2.425	2.971	3.061	3.742	4.596	5.631	6.060	5.855	4.162	3.279	2.632	2.595	2.338	2.476	2.709	2.963	2.754	2.992	3.603	3.957	4.020	4.126	5.328	5.741	6.462	6.709	7.486	7.912	8.258	8.148	8.387	8.732	9.733	9.245	6.999	4.972	4.073
330.0	811.2	 1347	 1342	925.7	653.1	558.9	618.6	753.6	953.9	 1230	 1516	 1778	 1933	 1889	 1742	 1585	 1184	685.1	447.6	468.1	 1348	 4605	 9152	 3732	62.39	12.61	7.027	5.463	4.424	3.781	3.418	2.765	2.363	2.383	2.066	1.888	2.120	1.763	2.061	2.378	2.538	2.863	3.306	3.444	4.925	6.117	6.266	6.511	5.140	3.767	3.122	3.209	2.944	2.782	2.586	2.869	3.017	3.425	3.665	4.023	4.283	4.672	5.444	5.967	6.218	6.839	7.758	7.869	8.481	8.549	8.500	8.199	8.219	8.054	8.474	7.625	6.251
335.0	824.8	 1443	 1408	 1057	766.0	633.3	660.9	794.9	968.8	 1251	 1534	 1799	 2005	 1926	 1770	 1432	 1352	 1045	553.5	413.2	552.2	 1175	 2844	 9602	 5703	86.89	11.19	6.989	4.983	4.475	4.509	3.017	2.795	2.222	2.105	2.122	1.811	2.061	2.267	2.612	2.752	2.729	3.254	3.800	5.058	6.352	6.546	6.552	5.611	3.838	3.458	3.679	3.118	3.210	2.807	2.873	3.383	3.656	3.735	3.991	4.555	5.167	5.645	6.330	6.428	7.328	7.479	7.660	8.695	8.543	8.415	8.690	8.603	7.996	7.537	7.304	7.660
340.0	785.9	 1314	 1363	 1075	845.5	691.2	710.4	815.8	994.4	 1240	 1474	 1716	 1899	 1847	 1689	 1366	 1180	 1190	738.4	444.5	403.6	446.0	771.0	 3813	9999.9	 4979	60.20	9.542	6.386	6.004	4.635	3.273	3.157	2.452	2.206	2.288	2.003	2.169	2.249	2.359	2.482	2.590	3.199	3.856	4.566	5.492	5.893	6.390	5.334	4.187	3.733	3.900	3.471	3.277	3.047	2.937	3.423	3.676	3.606	3.878	4.540	4.997	5.357	5.987	6.780	7.196	7.142	8.240	8.090	8.610	8.091	8.296	7.839	7.282	7.010	6.675	6.806
345.0	701.1	 1200	 1325	 1099	911.9	774.7	763.5	840.1	982.5	 1201	 1409	 1637	 1774	 1758	 1615	 1316	 1075	 1058	976.2	550.6	412.5	332.0	338.0	 1000	 5353	9999.9	751.8	37.78	8.982	6.720	5.126	3.889	3.249	2.671	2.082	2.067	1.886	2.098	2.475	2.344	2.276	2.517	3.425	3.356	4.060	5.179	5.527	5.613	4.693	4.125	4.460	3.831	3.630	3.635	3.224	3.141	3.705	3.685	3.666	3.976	4.600	4.707	5.269	5.637	6.088	6.153	7.055	7.964	7.029	8.404	7.816	8.015	7.664	7.116	6.847	6.628	5.954
350.0	615.7	 1013	 1207	 1097	998.9	887.7	875.2	930.5	 1035	 1203	 1385	 1560	 1683	 1679	 1556	 1315	 1088	951.5	959.3	856.0	558.3	392.5	321.0	408.1	 1383	 5602	 8636	 3152	52.91	9.259	6.106	4.983	3.665	3.122	2.377	2.244	2.040	2.114	2.354	2.204	2.368	2.587	2.698	3.300	3.830	4.495	5.064	5.037	4.567	4.126	4.085	4.103	3.831	3.872	3.806	3.656	4.100	3.836	4.107	4.383	4.668	4.758	5.376	5.520	5.848	6.372	6.722	7.537	7.325	7.767	7.696	7.554	7.399	7.175	6.446	6.495	6.501
355.0	508.5	879.9	 1058	 1086	 1089	 1010	 1000	 1025	 1133	 1267	 1414	 1519	 1623	 1634	 1533	 1311	 1134	991.4	891.6	920.8	853.5	536.3	409.1	357.5	503.9	 1391	 2947	 9290	 4826	70.68	9.667	6.146	4.775	3.077	2.766	2.444	2.245	2.395	1.827	2.217	2.176	2.372	2.711	3.297	3.440	3.999	4.570	4.811	4.342	3.977	3.748	4.377	4.125	4.363	4.016	4.166	4.249	4.082	4.278	4.469	5.017	5.009	5.237	5.945	6.290	6.387	6.532	7.106	7.048	7.614	7.201	7.193	7.410	7.379	6.918	6.279	6.364
360.0	460.5	791.6	 1036	 1077	 1119	 1083	 1108	 1127	 1186	 1307	 1420	 1522	 1583	 1597	 1524	 1340	 1161	 1039	923.5	869.1	980.0	744.8	500.3	405.1	365.2	488.5	795.7	 4055	9999.9	 3616	49.98	8.396	5.680	3.895	3.468	2.997	2.275	2.440	2.270	2.520	2.500	2.298	2.367	2.967	3.335	3.776	4.156	4.708	4.033	3.704	3.970	4.352	3.988	4.366	4.099	4.492	4.310	4.579	5.073	4.877	4.558	5.348	5.357	5.644	6.209	6.056	6.330	6.641	7.232	7.087	7.350	7.013	7.370	7.130	7.066	6.769	6.994
365.0	416.1	718.6	966.8	 1073	 1161	 1165	 1156	 1199	 1268	 1368	 1461	 1511	 1546	 1560	 1495	 1341	 1194	 1071	974.7	883.9	923.6	942.2	643.6	475.2	384.6	340.9	342.2	 1063	 5736	9999.9	664.9	28.25	7.724	5.051	4.091	3.163	2.769	2.395	2.119	2.764	2.055	2.417	2.523	3.101	2.956	3.762	3.681	3.953	4.012	3.566	3.639	4.481	4.432	5.054	4.498	4.825	5.115	4.997	4.666	5.242	5.000	5.505	6.269	5.835	6.532	6.130	6.505	6.833	6.991	7.337	6.712	7.355	6.970	6.992	7.546	7.182	6.799
370.0	395.7	652.3	908.7	 1077	 1175	 1208	 1256	 1265	 1327	 1416	 1489	 1527	 1540	 1550	 1475	 1356	 1247	 1151	 1045	959.9	923.0	948.9	894.0	647.3	483.6	387.9	307.9	398.7	 1474	 5204	 8242	 2727	43.56	7.836	5.202	3.731	3.040	2.675	2.474	2.861	2.268	2.532	2.655	2.903	2.867	3.143	3.431	3.793	3.758	3.602	3.461	4.509	4.662	5.071	4.950	5.265	5.176	5.039	5.341	5.365	5.509	5.563	5.866	6.418	6.390	5.882	6.505	6.819	6.829	7.283	7.377	6.577	6.785	7.161	7.404	7.141	6.855
375.0	377.7	593.7	861.4	 1030	 1159	 1289	 1324	 1331	 1393	 1467	 1504	 1537	 1538	 1516	 1457	 1365	 1281	 1195	 1107	 1050	984.1	947.7	957.7	911.8	639.1	498.3	386.6	318.1	486.8	 1269	 3094	 9184	 4010	54.01	8.522	5.477	4.282	3.097	2.959	2.396	2.316	2.734	2.498	2.681	3.003	2.884	3.015	3.745	3.755	3.640	3.499	4.494	4.492	5.866	4.668	5.158	5.642	5.727	5.323	5.446	5.139	5.748	5.607	5.928	6.359	5.782	6.130	6.795	6.561	6.912	7.338	7.301	6.889	7.291	7.083	7.415	7.105
380.0	366.2	572.1	837.3	 1017	 1172	 1286	 1369	 1371	 1426	 1490	 1519	 1545	 1543	 1516	 1453	 1366	 1287	 1233	 1149	 1098	 1032	987.5	941.0	984.2	819.9	601.6	457.9	355.3	312.9	420.2	807.8	 4343	 9903	 2840	35.32	6.840	5.416	3.870	3.504	3.106	2.553	2.719	2.670	2.777	2.865	2.841	2.849	3.924	3.502	3.543	3.711	4.663	4.559	5.407	4.633	5.228	5.959	5.737	5.516	6.006	5.453	6.347	5.644	5.989	6.359	6.333	6.557	6.443	7.171	7.296	6.925	7.264	7.338	7.205	7.232	7.684	6.817
385.0	324.2	559.9	807.2	 1013	 1219	 1323	 1362	 1379	 1412	 1478	 1537	 1501	 1529	 1518	 1445	 1364	 1299	 1256	 1182	 1129	 1072	 1023	960.5	951.1	962.4	720.2	519.7	404.6	312.6	268.6	303.7	 1130	 5935	 9124	510.1	18.15	6.413	4.355	3.833	3.236	2.625	2.659	2.858	3.173	2.731	2.889	3.075	3.478	3.267	3.489	3.757	4.282	4.993	4.958	4.859	5.393	6.233	5.301	5.748	6.045	5.968	6.003	5.949	6.431	6.195	5.787	6.523	6.901	6.676	6.740	6.407	7.077	7.192	7.651	7.012	7.539	7.324
390.0	341.0	533.0	792.2	999.0	 1167	 1286	 1355	 1389	 1435	 1472	 1499	 1497	 1508	 1481	 1434	 1359	 1307	 1258	 1210	 1164	 1118	 1070	 1001	941.3	941.4	884.6	669.2	492.1	381.1	293.6	234.5	367.2	 1521	 4993	 6788	 2078	33.18	6.963	4.810	3.488	3.106	2.867	2.691	3.079	2.746	3.025	2.944	3.603	3.333	3.322	3.518	4.339	4.750	5.135	5.307	5.466	5.580	5.243	5.662	5.731	5.716	6.030	6.074	6.279	6.255	6.142	6.421	6.222	6.514	6.340	6.431	6.860	7.094	7.269	6.976	7.732	7.415
395.0	339.1	499.0	736.4	994.7	 1155	 1301	 1380	 1406	 1416	 1436	 1441	 1473	 1469	 1448	 1395	 1328	 1286	 1257	 1220	 1176	 1140	 1099	 1043	978.1	928.3	898.8	852.2	621.0	468.5	361.1	273.4	245.5	445.8	 1193	 2741	 7645	 3102	42.79	7.148	4.114	3.580	3.035	2.863	2.872	2.805	3.116	3.206	3.291	3.408	3.272	3.300	4.073	4.523	4.980	5.464	5.459	5.546	5.361	6.263	5.948	5.643	5.799	6.328	6.092	6.304	5.978	6.118	6.261	6.743	6.497	6.477	6.501	6.660	7.175	7.234	7.479	7.509
400.0	337.1	507.6	736.1	979.6	 1140	 1283	 1352	 1387	 1411	 1428	 1443	 1458	 1443	 1411	 1378	 1321	 1277	 1250	 1208	 1180	 1152	 1117	 1050	 1001	936.7	882.1	891.6	754.1	535.8	413.2	319.4	243.8	234.2	359.4	700.6	 3838	 7878	498.2	27.55	5.879	4.052	3.501	3.264	2.791	2.866	3.139	3.088	3.279	3.434	3.425	3.379	4.069	4.668	4.621	4.877	5.300	5.399	5.410	5.646	5.849	5.952	5.365	6.117	5.875	6.188	6.008	6.099	6.484	6.588	6.531	6.779	6.862	6.693	6.627	7.244	7.267	7.877
405.0	355.6	496.0	725.7	939.1	 1109	 1254	 1300	 1387	 1382	 1389	 1439	 1412	 1408	 1397	 1349	 1282	 1254	 1228	 1195	 1176	 1139	 1114	 1061	 1009	951.7	889.5	856.7	832.9	631.8	465.0	363.2	279.8	216.2	196.4	235.2	999.5	 4940	 6555	421.0	13.33	5.459	4.089	3.470	3.191	2.853	3.272	3.013	3.081	3.755	3.279	3.188	4.261	4.660	4.790	5.047	4.922	5.377	5.454	5.219	5.510	6.011	5.601	5.930	5.442	5.908	6.045	5.993	6.231	6.937	6.087	6.470	6.293	6.070	6.410	7.043	7.291	6.897
410.0	337.2	483.8	717.7	915.9	 1066	 1209	 1276	 1361	 1384	 1390	 1391	 1386	 1366	 1357	 1304	 1244	 1217	 1190	 1173	 1145	 1119	 1095	 1052	 1003	955.5	902.9	835.3	798.8	746.0	573.1	421.7	329.2	250.3	190.3	154.9	295.3	 1269	 3900	 4576	 1660	28.32	5.743	4.394	3.898	3.144	3.330	2.909	3.189	3.404	3.334	3.434	4.217	4.321	4.508	4.625	5.122	5.568	5.636	5.757	5.701	5.796	5.830	5.748	5.772	5.686	5.890	6.179	5.729	6.314	6.110	6.249	5.935	5.926	6.498	6.526	6.493	7.106
415.0	322.8	458.4	704.0	881.1	 1040	 1160	 1252	 1326	 1348	 1364	 1363	 1342	 1316	 1292	 1242	 1210	 1155	 1132	 1138	 1114	 1078	 1069	 1035	996.9	966.8	901.6	834.4	768.9	736.3	690.3	511.5	380.7	292.2	219.1	164.7	158.7	347.1	918.6	 2066	 6067	 2517	36.99	6.397	4.272	3.732	3.541	3.265	3.161	3.294	3.418	3.199	3.931	4.107	4.584	4.601	5.176	5.250	5.301	6.227	5.855	5.572	5.618	5.623	5.517	6.094	5.681	5.776	5.969	6.106	6.015	5.907	5.651	5.706	6.172	6.920	6.870	6.733
420.0	313.5	449.2	681.2	845.1	 1004	 1126	 1226	 1296	 1328	 1343	 1320	 1317	 1286	 1251	 1212	 1147	 1112	 1093	 1090	 1064	 1050	 1041	 1012	967.8	954.9	899.3	833.4	761.2	711.7	700.1	591.1	427.7	323.9	247.1	182.2	141.0	155.5	258.4	523.0	 3122	 6170	460.1	22.12	5.063	4.354	3.332	3.450	3.146	3.308	3.073	3.419	3.692	3.838	4.574	4.504	5.115	5.333	5.092	5.726	5.521	5.372	5.993	5.408	5.355	5.639	5.443	5.562	5.958	6.016	5.496	5.771	5.737	5.552	5.998	6.211	6.811	6.296
425.0	290.8	432.1	642.4	827.5	945.9	 1118	 1247	 1270	 1304	 1317	 1305	 1272	 1231	 1210	 1168	 1106	 1075	 1045	 1049	 1038	 1010	 1005	984.7	947.2	928.7	893.8	830.2	763.7	713.8	665.7	643.7	492.0	353.7	269.6	207.0	153.8	123.8	119.7	162.8	810.8	 3924	 5182	384.4	10.45	4.790	4.155	3.698	3.176	3.232	3.296	3.283	3.899	3.850	4.612	4.388	4.769	4.946	5.299	5.549	5.267	5.452	6.162	5.434	5.481	5.693	5.898	4.796	5.767	5.446	5.574	5.641	5.876	5.491	5.703	5.961	6.651	6.257
430.0	445.3	413.5	606.7	786.4	928.0	 1059	 1187	 1222	 1282	 1297	 1279	 1238	 1201	 1152	 1112	 1055	 1021	 1002	996.3	992.6	971.1	956.9	941.4	914.5	899.8	872.2	823.1	762.0	702.9	651.4	615.4	559.4	424.1	304.9	235.7	181.1	137.3	108.2	95.56	223.7	 1004	 3089	 3894	 1448	25.90	5.742	4.279	3.773	3.464	3.185	3.169	3.548	3.468	3.975	4.528	4.547	4.878	5.114	5.355	5.713	5.116	5.765	5.366	5.193	5.422	5.574	5.255	5.336	5.445	5.540	5.690	5.460	5.239	5.608	5.678	6.342	6.265
435.0	947.4	404.5	588.3	751.5	886.4	982.9	 1113	 1204	 1250	 1282	 1215	 1195	 1145	 1090	 1052	991.1	971.9	939.4	944.6	933.2	924.1	903.1	894.5	879.6	869.3	839.5	810.8	755.3	712.2	650.6	585.6	542.5	498.6	364.3	267.5	210.2	162.4	123.7	97.44	105.3	264.4	721.7	 1714	 4944	 2224	34.37	5.543	4.665	4.098	3.282	3.535	3.660	3.814	3.769	4.124	4.729	4.530	4.782	5.378	5.114	4.905	5.941	5.447	5.116	5.442	4.934	4.932	5.294	5.251	4.589	5.276	5.236	5.706	5.266	5.299	5.458	5.953
440.0	 1208	630.5	554.9	743.9	860.2	930.3	 1082	 1190	 1230	 1230	 1197	 1162	 1112	 1073	 1024	950.2	929.1	900.2	892.9	889.4	875.2	867.9	858.2	841.7	831.4	812.4	793.4	746.2	704.9	644.0	580.3	522.2	495.8	415.5	293.7	225.5	179.1	139.6	104.9	88.56	105.8	197.0	427.3	 2490	 5235	417.1	22.06	5.533	3.903	3.705	3.535	3.953	3.906	4.178	4.107	4.666	4.495	4.393	4.846	5.255	4.864	5.475	5.699	5.228	5.413	5.086	5.028	4.990	5.366	4.570	5.248	4.671	5.131	5.043	5.093	5.789	5.328
445.0	 1018	 1130	537.3	684.6	804.2	903.9	 1043	 1156	 1183	 1213	 1190	 1127	 1075	 1028	971.7	920.1	879.2	863.4	843.2	837.0	837.6	826.3	815.6	805.0	802.8	786.0	767.7	730.0	685.5	635.7	581.8	514.8	466.2	445.3	333.4	238.6	192.9	152.7	116.9	93.77	79.78	86.61	127.9	637.6	 3237	 4542	336.9	12.72	5.113	4.205	3.712	3.713	3.628	4.186	3.945	4.489	4.439	4.761	5.041	5.096	4.758	5.373	5.247	4.736	4.493	4.863	4.688	5.074	5.102	4.893	4.604	4.978	4.755	4.520	5.314	5.541	5.411
450.0	533.1	 1573	995.2	643.2	763.1	863.2	971.7	 1084	 1139	 1161	 1125	 1076	 1030	969.0	910.4	851.8	823.0	799.6	788.3	781.9	775.9	772.4	762.0	751.4	753.8	740.2	730.4	694.1	655.4	619.6	571.0	510.5	445.8	411.6	367.5	281.2	209.6	167.6	133.0	107.3	86.83	71.76	68.58	173.6	820.4	 2641	 3397	 1347	23.68	5.076	4.140	4.211	3.871	3.761	4.041	3.960	4.294	4.567	4.658	4.767	4.690	5.198	5.105	4.658	4.646	4.509	4.730	4.912	4.760	4.606	4.452	4.885	4.394	4.458	4.718	5.207	5.027
455.0	279.4	 1089	 2336	685.9	709.0	825.3	911.8	 1001	 1086	 1086	 1058	 1017	941.5	905.1	856.0	788.2	763.4	733.0	718.8	712.7	704.9	701.5	710.1	687.0	694.2	681.9	682.1	652.8	627.1	587.3	550.9	499.8	434.8	382.7	349.2	317.4	242.1	182.5	148.3	119.8	97.91	79.08	63.05	75.07	209.7	614.0	 1387	 4458	 2062	29.16	5.277	4.717	4.375	4.146	4.182	3.801	3.907	4.699	4.414	4.646	4.881	4.772	4.989	4.470	4.809	4.641	4.816	4.763	4.774	4.143	4.290	5.077	4.533	4.504	4.328	4.518	4.877
460.0	211.8	578.0	 3023	 1215	676.3	754.9	848.1	947.0	 1030	 1037	 1029	965.0	896.4	857.7	782.3	744.4	706.3	683.3	672.0	663.6	645.8	648.7	647.9	646.9	641.0	637.1	631.1	615.0	593.3	568.0	527.2	481.0	422.1	374.5	323.5	316.8	275.2	199.5	155.8	127.4	103.0	85.94	67.21	58.42	78.93	162.9	340.5	 2104	 4584	 1490	20.43	4.960	4.458	4.294	3.734	4.114	3.822	4.375	3.851	4.339	4.788	4.831	4.416	4.462	4.566	4.164	4.226	4.349	4.555	4.136	4.162	4.430	4.016	4.323	4.131	4.362	4.380
465.0	183.5	365.2	 2455	 2364	640.8	718.3	785.7	915.7	969.2	981.3	977.4	914.6	878.4	807.2	759.1	700.4	666.4	640.0	625.5	619.4	611.3	604.5	612.1	598.1	600.4	595.9	594.8	581.5	558.1	542.4	503.9	465.9	416.4	358.6	313.6	288.4	279.3	217.5	163.2	131.5	110.0	90.47	71.74	59.57	53.90	66.23	99.27	525.6	 2622	 4418	297.9	14.32	5.175	4.520	3.602	3.860	4.101	4.437	4.177	4.149	4.494	4.335	4.192	4.153	4.208	3.838	4.250	3.960	4.331	4.210	4.048	3.677	3.866	4.655	4.277	4.325	4.378
470.0	185.1	276.2	 1101	 3049	 1341	662.3	742.9	827.7	889.9	906.8	886.4	862.0	809.8	748.7	692.0	641.7	605.2	585.4	568.3	557.5	546.7	545.1	545.9	542.6	539.1	541.0	542.2	526.1	515.5	498.6	470.7	435.7	393.6	339.6	298.8	266.5	250.2	234.5	184.2	141.4	116.6	95.67	78.34	62.64	52.02	47.32	49.09	139.2	649.9	 2245	 2512	 1352	24.01	5.357	3.995	3.969	4.012	3.969	4.019	3.938	4.125	4.321	4.107	3.829	4.020	3.936	3.869	4.141	3.801	3.662	3.712	3.738	3.847	3.737	3.737	3.685	3.999
475.0	184.8	242.9	506.1	 1926	 2996	677.2	681.3	736.1	791.9	842.3	806.2	786.6	735.8	679.0	628.7	582.4	546.9	518.3	508.8	498.9	488.2	482.5	480.8	484.3	479.9	489.6	483.8	473.1	466.5	456.9	434.5	403.9	364.5	322.5	285.2	253.1	222.1	212.8	198.6	152.5	120.9	98.69	83.45	68.26	55.83	47.35	41.54	55.28	165.3	516.7	932.3	 2946	 1704	34.40	4.885	4.154	4.083	4.191	4.254	3.743	4.144	3.828	3.690	3.373	3.525	3.631	3.438	3.619	3.446	3.714	3.576	3.232	3.311	3.302	3.179	3.585	3.554
480.0	162.1	247.7	364.2	948.1	 3648	 1055	632.2	680.6	732.9	790.1	761.9	721.6	678.8	632.4	579.3	540.9	504.4	475.9	471.4	458.7	448.0	446.9	447.2	436.8	444.6	446.5	451.5	443.2	432.3	422.8	407.6	382.7	342.3	307.4	272.9	241.0	214.0	192.7	195.6	168.4	126.1	99.80	84.51	73.00	61.13	51.71	41.83	40.12	58.08	132.3	226.2	 1250	 3215	 1238	22.61	4.771	4.309	4.269	3.596	3.839	3.599	3.815	3.660	3.411	3.247	3.241	3.272	3.504	3.144	3.243	3.638	3.320	3.325	3.086	3.367	3.438	3.129
485.0	151.6	253.9	298.8	519.9	 2869	 2619	601.9	651.9	692.3	730.5	723.1	688.4	642.0	600.5	556.5	510.7	467.4	448.1	437.9	419.4	419.6	412.5	412.6	408.4	406.1	413.2	415.2	405.2	403.4	397.0	377.9	361.1	325.1	287.8	260.9	231.3	206.1	184.8	178.2	171.7	137.4	104.8	87.64	76.22	63.03	53.08	45.00	37.65	35.60	48.88	66.43	308.2	 1695	 3013	336.3	12.35	4.575	4.044	3.595	4.068	3.591	3.727	3.181	3.341	3.322	3.278	3.186	3.334	3.066	3.074	3.590	3.100	2.541	2.610	3.043	3.261	3.360
490.0	128.4	218.3	296.2	365.2	 1261	 3463	 1265	600.5	639.7	660.8	660.7	631.1	586.0	548.6	497.0	458.7	423.0	410.4	395.5	383.9	377.8	372.1	371.3	370.1	367.8	371.2	374.7	367.1	365.6	358.3	347.8	332.9	300.7	271.4	245.1	220.0	195.9	175.5	159.8	155.0	143.6	114.5	89.58	76.11	64.08	56.36	47.26	39.68	33.74	31.50	31.19	82.24	413.7	 1401	 2299	 1260	25.61	5.080	3.955	3.842	3.349	3.484	3.386	3.348	3.092	3.123	3.187	3.045	2.955	3.266	3.182	2.833	2.897	2.745	2.647	3.002	3.062
495.0	114.5	176.2	274.5	315.5	575.3	 2069	 2807	646.9	587.3	597.3	591.8	582.8	536.4	488.5	450.6	417.2	384.1	362.1	346.8	337.6	336.0	330.7	330.0	332.5	327.6	330.3	331.5	328.3	326.5	322.6	315.0	299.4	277.0	247.1	225.4	203.4	185.1	166.2	148.0	137.4	130.6	121.9	98.61	74.82	65.58	57.62	49.20	41.25	35.87	29.14	24.55	32.64	104.6	323.3	786.2	 2579	 1689	35.56	4.335	4.186	3.131	3.056	3.068	3.134	2.934	3.004	2.640	2.896	2.611	3.018	2.635	2.851	2.552	2.437	2.486	2.988	2.604
500.0	110.7	165.5	254.9	301.4	378.4	926.6	 3391	850.4	541.2	548.5	541.6	530.3	489.5	463.3	413.8	373.7	350.7	322.7	319.6	309.4	310.8	296.5	297.1	297.1	299.1	299.8	301.8	298.7	298.8	294.2	290.9	273.6	259.0	228.6	210.7	186.9	174.0	154.9	138.3	127.3	118.1	117.7	104.0	77.06	65.10	57.42	49.15	42.94	36.83	30.38	23.83	22.98	35.96	82.81	187.7	 1079	 2988	 1197	23.93	4.879	3.547	3.318	2.855	2.913	2.801	2.735	2.630	2.725	2.478	2.568	2.698	2.609	2.276	2.350	2.203	2.568	2.413
505.0	100.2	132.0	216.5	303.2	307.3	478.7	 2574	 2218	522.6	506.7	506.8	486.6	446.7	426.1	384.6	343.1	326.8	296.3	290.6	279.9	280.6	278.4	270.5	269.1	272.6	271.5	273.2	270.9	272.1	270.9	265.6	251.7	238.1	212.2	196.7	178.5	162.6	147.9	133.8	120.5	108.4	106.2	105.3	82.84	65.01	57.43	49.54	43.40	37.06	30.71	25.19	21.06	21.69	29.72	51.85	262.3	 1527	 2924	360.0	12.36	4.122	3.384	3.139	2.841	2.850	2.570	2.811	2.669	2.512	2.503	2.247	2.367	2.208	2.510	2.248	2.371	2.569
510.0	85.67	126.3	190.7	291.0	291.8	340.1	 1092	 3369	 1168	461.5	457.9	442.8	412.6	378.3	339.2	310.0	287.8	266.5	257.3	248.6	244.8	244.0	239.9	234.2	235.2	239.7	240.4	241.5	241.8	239.8	233.8	225.2	210.3	193.1	174.8	160.5	147.1	132.1	121.0	109.3	99.02	90.73	91.88	86.14	69.10	56.87	48.81	43.25	37.05	31.64	26.19	21.03	18.96	18.42	21.64	67.85	370.8	 1365	 2076	 1301	24.87	3.666	3.184	2.720	2.695	2.499	2.414	2.310	2.205	2.104	2.060	2.237	1.951	2.036	1.934	2.044	2.216
515.0	79.52	115.5	155.0	248.5	281.2	282.3	480.8	 2151	 2742	515.5	394.4	381.0	364.5	336.5	291.5	282.4	250.1	231.6	227.9	216.5	213.2	210.3	209.0	204.5	207.6	207.7	214.7	209.8	208.9	208.6	202.7	199.1	182.9	169.3	155.2	143.6	130.6	121.5	110.7	101.6	90.74	81.11	77.31	77.94	74.81	57.97	47.38	41.78	34.84	30.73	25.52	22.59	18.53	15.97	15.18	24.68	91.03	311.9	718.5	 2778	 1309	32.91	3.386	2.860	2.768	2.562	2.114	2.073	2.112	1.985	2.020	1.928	1.764	1.708	1.775	2.060	1.990
520.0	63.88	101.9	139.5	214.1	291.0	259.7	318.2	932.1	 3148	 1036	366.0	340.4	341.9	306.0	274.4	252.2	230.5	210.7	207.6	196.3	195.9	188.3	183.3	184.4	184.1	188.3	187.0	187.4	185.3	188.7	183.3	179.0	167.8	155.0	144.3	133.1	121.8	110.9	102.7	92.69	85.81	76.42	69.84	67.27	70.74	62.09	47.72	40.78	34.12	30.97	25.74	22.62	18.28	15.33	15.41	14.29	28.00	76.93	171.1	 1198	 2323	396.6	20.59	3.288	2.882	2.291	2.269	2.015	1.926	2.259	1.950	1.993	2.017	1.950	1.765	1.711	1.905
525.0	64.57	91.59	133.8	178.9	281.5	248.5	263.2	430.8	 2320	 2256	381.4	318.1	298.5	272.1	248.5	224.5	205.6	194.9	184.5	179.8	175.8	170.3	166.7	168.6	166.2	164.6	169.2	167.1	167.1	170.4	169.4	163.4	151.7	139.3	129.0	120.1	110.0	101.9	95.79	84.19	79.64	70.94	64.26	58.31	62.32	63.45	49.01	40.13	34.66	30.01	25.81	22.48	18.80	16.21	14.23	12.43	14.96	24.69	45.26	289.3	 1213	 2034	320.0	7.719	3.081	2.229	2.259	2.106	1.845	2.085	1.741	1.752	2.146	1.567	1.559	1.727	1.884
530.0	61.29	86.77	117.9	151.9	219.8	254.9	232.9	285.4	956.4	 2977	 1335	285.2	265.6	245.0	216.3	194.8	183.0	171.3	164.6	156.9	153.7	151.5	147.1	147.3	145.1	147.3	149.6	146.7	148.4	147.7	146.5	142.7	135.5	121.1	114.7	106.1	97.84	90.93	84.25	75.50	71.02	64.15	58.65	52.74	52.38	53.99	52.30	41.55	33.35	27.81	24.45	21.41	18.15	16.03	14.73	12.57	11.84	13.08	16.93	70.81	294.9	997.7	 1524	677.3	22.02	2.451	2.163	1.951	1.849	1.802	1.668	1.634	1.876	1.506	1.395	1.628	1.618
535.0	53.33	79.40	91.86	125.5	168.8	251.3	221.0	229.2	396.2	 1701	 3589	339.4	231.0	211.6	193.1	171.6	156.1	147.3	144.9	135.6	131.8	129.5	126.6	126.0	123.7	127.0	127.0	126.7	128.4	128.1	125.3	124.5	115.7	107.0	98.28	91.34	86.21	80.23	74.98	66.14	63.90	58.75	53.04	46.54	45.01	43.98	44.59	42.90	34.01	27.05	22.84	19.77	17.57	15.02	13.89	12.13	11.34	10.89	10.25	22.27	70.75	227.3	545.6	 1607	412.2	26.35	2.470	1.825	1.817	1.410	1.528	1.597	1.232	1.425	1.322	1.655	1.340
540.0	51.58	69.22	92.11	114.2	139.5	204.9	222.9	202.5	245.0	705.3	 3910	821.0	207.8	187.3	173.7	151.1	138.5	133.4	129.6	119.7	120.4	115.8	114.0	111.1	110.0	112.6	112.3	112.1	113.6	112.2	112.1	111.4	102.9	95.13	90.76	82.17	76.96	74.15	66.77	63.15	57.20	52.63	49.37	44.08	40.28	39.21	38.50	40.40	36.18	26.50	22.64	18.42	16.94	14.80	13.43	11.90	11.53	10.39	8.829	10.83	21.31	55.30	129.0	724.1	 1580	357.0	10.85	2.116	1.694	1.497	1.650	1.382	1.296	1.311	1.259	1.614	1.385
545.0	46.79	57.84	87.55	100.2	114.1	164.8	239.2	175.8	207.5	328.9	 2616	 1976	201.6	176.6	160.7	135.8	128.4	115.9	117.2	111.0	104.2	105.9	101.4	99.12	97.75	99.84	103.0	101.2	102.3	104.7	100.1	98.17	90.49	83.11	79.97	74.44	68.21	65.41	60.41	56.73	51.54	48.80	43.57	40.97	37.91	34.97	33.38	36.45	36.58	27.35	21.13	17.35	15.54	13.91	12.57	11.65	11.03	9.748	8.588	8.118	10.05	16.53	32.83	176.5	924.0	 1433	55.11	4.552	2.195	1.696	1.460	1.240	1.170	1.232	1.342	1.361	1.338
550.0	47.60	49.13	71.84	94.58	100.4	126.3	206.7	188.0	172.3	213.3	957.5	 2705	737.9	149.5	133.4	117.4	109.4	101.6	97.54	93.27	89.67	88.00	85.94	83.69	83.16	85.30	85.02	85.34	88.51	86.52	83.36	83.69	76.88	72.14	67.57	63.78	59.15	55.90	51.86	48.70	45.34	41.58	38.55	35.94	31.73	30.34	28.24	28.31	30.83	27.80	20.61	16.19	13.81	12.58	11.48	11.27	10.01	8.970	7.684	7.206	7.108	7.960	11.32	42.92	228.2	746.4	 1051	234.5	17.28	1.841	1.617	1.335	1.378	1.220	1.261	1.150	1.209
555.0	43.82	60.92	72.01	70.93	86.21	100.0	150.4	202.2	148.6	156.6	329.6	 1436	 2294	177.1	114.7	102.7	90.21	81.96	78.72	74.91	74.42	70.04	71.36	70.47	66.86	70.28	68.56	70.01	70.69	70.58	70.13	66.83	62.75	59.71	56.45	53.17	48.64	46.68	43.61	40.30	37.22	35.43	31.61	30.43	26.77	26.70	23.73	23.01	22.36	23.52	20.66	15.51	11.97	11.20	10.44	9.663	8.406	8.255	7.504	6.628	5.527	5.642	6.111	12.82	54.36	169.7	410.3	 1090	367.8	16.44	1.435	1.283	1.225	1.123	1.201	1.189	1.033
560.0	49.17	58.12	70.26	66.13	73.41	81.75	112.7	198.9	152.1	144.2	179.6	532.5	 2804	347.8	95.10	85.63	79.37	72.22	67.78	64.78	62.14	61.60	58.85	58.77	58.86	59.74	58.94	58.57	60.45	59.48	59.81	55.91	53.59	49.44	47.35	44.96	42.02	39.17	37.04	33.51	32.59	30.45	26.11	26.29	23.47	22.62	20.29	19.03	18.26	19.47	19.83	15.37	11.34	9.866	9.289	8.640	7.541	7.920	7.806	6.473	5.184	5.098	4.662	6.032	15.15	40.29	97.67	530.4	 1048	267.8	5.399	1.712	1.237	1.060	1.277	1.005	0.956
565.0	46.66	50.62	67.28	60.85	65.13	75.15	89.79	152.4	167.6	123.8	134.2	219.3	 1911	 1624	91.06	70.12	66.78	61.20	59.89	56.07	53.13	52.71	50.71	50.17	50.31	50.04	51.10	49.75	50.34	48.79	51.19	49.11	47.28	43.43	39.07	38.68	35.16	34.06	31.95	29.11	27.49	27.29	23.18	22.38	21.40	19.79	17.56	17.25	16.02	15.11	16.82	15.53	11.60	8.890	7.923	8.067	7.617	6.958	6.865	5.837	5.538	4.384	4.394	4.488	6.996	11.55	24.19	132.5	651.1	901.4	50.78	2.183	1.554	1.023	0.957	1.034	0.824
570.0	44.81	54.65	62.57	58.05	57.39	64.17	73.52	104.7	178.3	124.6	116.9	133.5	657.4	 2410	536.1	59.82	53.44	50.09	48.69	45.53	44.42	42.10	40.86	40.73	40.72	40.10	40.32	40.17	39.49	40.24	40.07	38.50	37.90	33.95	31.80	31.33	27.59	27.18	25.29	23.54	23.16	21.05	19.19	18.15	17.07	16.19	15.04	13.97	12.95	11.73	12.34	13.19	11.68	8.728	7.110	6.933	6.680	6.280	5.697	5.079	5.353	4.510	3.896	3.545	4.645	4.925	7.563	31.67	163.1	506.8	519.5	199.0	11.08	1.087	0.926	1.009	0.896
575.0	46.13	45.21	55.60	58.18	53.92	51.73	63.43	76.49	145.2	149.7	106.1	102.3	217.5	 1217	 1919	85.22	42.22	40.36	35.42	36.12	34.66	33.99	32.76	33.69	31.49	30.28	31.38	30.93	32.33	33.01	32.82	30.83	29.48	28.03	25.54	24.88	23.41	21.54	19.79	19.09	18.63	16.71	14.40	14.50	13.14	12.26	12.33	12.07	10.41	9.699	8.694	9.562	10.39	8.550	6.695	5.991	5.710	5.336	4.439	4.689	4.439	4.500	3.832	3.149	4.227	3.679	3.581	9.084	38.39	115.7	236.6	640.0	251.5	6.568	0.932	0.889	0.924
580.0	42.70	38.76	57.32	52.99	51.44	53.58	57.78	64.86	102.5	171.6	102.8	103.7	116.5	410.3	 2374	233.2	39.43	32.80	31.08	29.89	28.48	27.59	27.36	26.64	25.78	24.51	27.12	26.11	26.14	28.56	25.97	24.97	24.66	23.37	21.57	20.69	19.26	18.45	17.31	16.41	15.27	14.19	12.34	12.53	11.19	11.04	10.06	9.248	8.946	8.122	7.386	7.210	8.217	8.837	6.383	5.171	5.101	4.774	3.522	3.798	3.795	4.095	3.968	3.037	3.953	2.860	2.951	3.721	10.11	27.42	57.33	327.7	604.4	53.91	2.731	0.848	0.967
585.0	38.16	33.65	50.29	52.27	47.67	45.91	50.84	57.63	85.18	162.4	118.8	93.58	89.42	144.3	 1569	 1197	41.61	30.04	26.67	25.29	24.84	24.78	24.19	23.31	23.24	22.28	22.62	23.32	22.48	23.71	22.38	22.42	19.55	20.20	18.56	16.41	15.87	14.80	14.89	13.77	13.62	11.82	11.52	11.22	9.607	9.528	8.552	8.338	7.633	7.342	6.454	6.335	6.539	7.773	6.557	4.937	4.344	3.884	3.442	3.636	3.682	3.506	3.509	3.554	3.269	3.020	2.642	2.487	3.940	7.489	14.27	83.81	398.2	430.1	41.75	1.079	1.040
590.0	39.56	42.60	52.64	40.36	45.00	44.31	51.07	52.82	66.81	116.3	151.3	92.01	79.79	79.10	504.2	 1774	346.8	25.25	23.12	20.74	21.70	19.69	19.56	18.84	19.39	18.32	19.35	18.67	17.61	19.28	18.07	17.43	17.15	16.32	15.19	14.02	13.43	12.35	12.47	11.03	10.70	9.764	9.113	8.739	8.282	7.762	7.539	7.176	6.383	6.002	5.444	4.978	4.942	5.783	5.964	5.297	4.374	3.664	3.140	3.240	3.219	3.021	3.148	3.228	3.050	2.509	2.612	2.098	2.493	2.968	4.401	19.94	101.7	281.7	355.1	123.2	5.686
595.0	42.21	38.81	47.76	40.91	45.89	40.36	40.22	53.00	63.87	82.15	154.0	106.4	80.65	66.77	151.0	838.4	 1326	43.80	19.32	17.63	17.56	15.89	15.73	14.91	14.92	15.56	15.65	14.34	14.71	15.95	14.50	14.27	12.75	12.97	12.62	11.00	10.84	10.21	10.08	8.947	8.279	7.811	8.205	7.116	6.703	6.215	6.364	5.227	5.211	4.695	4.229	4.087	3.574	4.104	4.579	5.001	4.572	3.362	3.178	3.070	2.633	2.489	2.610	2.417	2.883	2.209	2.105	1.807	2.156	1.929	2.535	5.756	23.66	64.90	162.2	385.1	58.61
600.0	39.42	39.95	37.47	41.70	48.44	42.33	47.63	47.89	66.76	74.42	134.5	125.2	83.11	67.20	69.46	267.6	 1614	165.0	16.94	15.29	15.11	13.40	14.24	12.13	13.45	12.69	12.81	12.03	12.94	12.58	11.98	11.50	10.41	10.41	9.832	9.423	8.934	8.847	8.636	7.422	6.684	6.720	6.735	6.201	5.716	5.238	5.239	4.977	4.536	4.084	3.953	3.242	2.745	3.174	3.654	4.405	4.263	3.817	2.987	2.709	2.177	2.203	2.247	2.198	2.427	2.155	2.226	1.785	1.981	1.547	1.776	2.382	6.425	15.67	39.99	217.0	332.6
605.0	38.58	43.08	43.04	39.78	44.41	39.97	44.86	48.86	58.25	67.27	101.7	149.3	85.38	66.89	52.68	90.59	 1063	828.4	18.80	13.11	13.71	12.80	12.15	10.23	10.48	11.35	11.22	10.16	10.67	10.57	10.07	10.17	9.518	9.325	8.515	8.048	8.235	7.882	7.021	6.833	5.723	6.432	5.363	5.019	5.065	4.844	4.514	4.050	3.870	3.485	3.331	3.072	2.697	2.755	2.937	3.284	3.812	3.695	2.500	2.358	2.026	1.884	2.010	2.005	2.104	2.041	1.919	1.770	1.531	1.363	1.245	1.615	2.356	4.186	9.687	57.45	244.6
610.0	36.77	38.36	46.36	42.94	37.78	38.02	46.96	49.36	58.97	67.58	85.50	132.3	103.3	64.93	46.93	46.70	333.3	 1229	246.0	11.47	10.97	10.45	10.17	9.030	9.678	9.257	8.689	8.124	9.110	8.626	8.673	8.575	8.517	7.898	6.701	6.864	6.767	6.307	5.777	5.417	5.120	5.205	4.440	4.050	4.085	3.775	3.589	3.438	3.185	2.910	2.719	2.582	2.524	2.445	2.186	2.580	3.069	3.535	2.677	1.981	1.897	1.833	1.871	1.826	1.897	1.786	1.861	1.882	1.408	1.179	1.223	1.245	1.176	1.729	2.867	13.66	64.12
615.0	28.57	41.47	39.53	36.38	38.15	35.22	40.40	47.21	51.79	64.61	77.25	97.21	125.9	71.72	43.48	34.77	93.18	581.6	979.6	25.79	9.389	8.998	7.932	7.249	8.142	7.339	7.080	6.772	6.895	7.155	7.093	6.602	6.562	6.416	5.663	5.747	5.609	4.896	5.045	4.369	4.154	3.598	3.212	3.289	3.303	2.952	2.942	2.888	2.571	2.330	2.340	2.145	2.247	1.879	1.946	1.879	2.117	2.662	2.386	2.056	1.579	1.485	1.602	1.625	1.582	1.336	1.301	1.757	1.526	1.045	1.168	1.096	1.210	1.043	1.311	3.582	14.98
620.0	31.87	36.21	41.47	40.14	38.19	33.35	37.54	43.80	53.54	62.12	68.86	79.15	127.9	80.63	44.45	32.99	39.65	178.4	 1217	126.3	7.991	7.334	7.091	6.623	6.933	6.194	6.337	5.759	5.685	6.145	6.796	5.678	5.957	4.796	4.800	4.907	4.645	4.029	4.068	3.952	3.548	3.349	3.112	3.041	3.120	2.828	2.401	2.594	2.435	2.169	1.999	1.822	1.753	1.676	1.539	1.477	1.646	2.271	2.299	2.083	1.688	1.262	1.434	1.343	1.489	1.400	1.213	1.197	1.347	1.291	1.037	1.180	0.807	0.882	0.873	1.442	3.980
625.0	32.75	34.90	35.31	39.72	34.91	34.72	37.77	46.14	51.34	60.50	65.83	76.03	110.4	96.67	48.03	31.60	27.73	54.50	792.6	635.8	10.70	6.695	5.645	5.951	5.885	5.793	4.887	5.114	5.079	5.125	6.295	4.545	4.729	4.558	3.928	3.981	3.850	3.379	3.295	3.361	2.973	2.711	2.921	2.704	2.360	2.576	2.087	2.310	2.259	1.946	1.809	1.601	1.339	1.401	1.599	1.519	1.567	1.782	1.938	1.836	1.903	1.220	1.265	1.310	1.389	1.184	1.150	1.088	1.328	1.365	1.145	0.991	0.976	0.919	0.885	1.044	1.511
630.0	33.09	41.84	37.29	33.93	34.17	32.71	36.86	43.09	49.78	61.41	68.41	72.87	91.63	109.0	57.44	36.43	26.72	26.16	243.5	962.4	184.2	6.758	5.027	4.892	4.739	4.581	4.437	4.706	4.244	4.046	4.331	4.083	3.714	3.617	3.392	3.564	3.093	3.103	2.558	2.774	2.700	2.525	2.145	2.146	2.001	2.347	2.046	1.899	1.721	1.460	1.524	1.434	1.279	1.408	1.345	1.365	1.376	1.290	1.505	1.637	1.878	1.428	1.230	1.226	1.107	1.156	1.099	1.075	1.030	1.058	1.167	1.004	0.916	0.735	1.007	0.850	0.795
635.0	45.10	51.23	50.84	38.69	29.09	34.50	37.41	40.88	50.73	64.15	73.77	79.29	86.85	105.9	86.85	46.49	32.14	23.95	68.21	458.9	742.1	20.00	4.538	4.730	3.868	4.016	3.435	3.756	3.786	3.511	3.739	3.434	2.966	2.993	2.558	3.042	2.778	2.645	2.282	2.323	2.304	2.346	2.117	1.852	1.767	1.853	1.628	1.581	1.289	1.288	1.232	1.192	1.108	1.374	1.186	1.231	1.343	1.217	1.208	1.204	1.739	1.225	1.141	1.350	1.070	0.968	1.089	1.001	0.902	1.146	1.297	1.072	0.845	0.672	0.899	0.931	0.706
640.0	48.07	67.67	63.83	41.74	31.03	37.26	32.58	40.99	50.42	62.23	71.12	84.71	90.47	102.2	103.3	59.91	38.23	25.73	31.66	141.1	949.1	107.1	4.885	4.384	3.673	3.554	3.429	3.620	3.183	2.946	2.653	3.000	2.638	2.467	2.552	2.465	2.287	2.411	2.106	1.831	2.157	1.933	2.027	1.456	1.368	1.693	1.439	1.546	1.290	1.267	1.262	1.152	0.946	0.906	1.023	0.957	1.156	1.083	1.191	1.233	1.405	1.272	1.038	1.329	1.254	1.032	1.080	0.858	1.044	1.186	1.174	1.139	1.016	0.740	0.796	1.060	0.753
645.0	45.33	71.29	63.46	41.59	30.36	34.52	31.33	41.96	52.52	62.60	72.68	82.32	92.10	90.07	106.1	63.18	37.75	27.72	21.32	43.74	624.5	493.3	6.212	4.092	3.300	2.996	3.123	2.898	2.733	2.570	2.562	2.431	2.852	2.467	2.125	2.119	2.085	1.892	1.809	1.761	1.758	1.554	1.765	1.541	1.451	1.623	1.313	1.339	1.222	0.872	1.101	0.930	0.964	0.923	1.053	0.818	0.905	1.108	0.960	0.972	1.131	1.126	1.095	1.166	1.086	0.903	1.227	0.947	1.097	0.947	0.861	1.181	1.031	0.936	0.939	0.731	0.690
650.0	58.72	75.79	62.56	41.42	31.66	31.87	31.65	38.21	48.24	60.98	68.93	75.67	83.12	85.58	92.79	68.62	38.24	26.28	19.22	19.65	234.9	809.6	44.06	3.318	2.845	2.909	2.572	2.630	2.632	2.162	2.288	1.749	2.436	1.740	1.889	1.947	1.770	1.737	1.481	1.625	1.470	1.484	1.349	1.543	1.326	1.451	1.311	1.343	0.987	0.978	1.097	0.811	0.856	0.826	0.813	0.855	0.871	1.021	0.955	0.808	0.938	1.222	1.072	1.293	1.082	0.963	0.801	0.987	1.035	0.924	0.771	1.104	0.945	0.910	1.062	0.687	0.684
