Sample:	'1
File name:	5ºÅÇå2±¶.FD3
Run date:	'14:57:50, 05/15/2024
Operator:	horiz
Comment:	'

Instrument
Model:	F-2700 FL Spectrophotometer
Serial number:	23B8-004
ROM Version:	4J14000 07

Instrument parameters
Measurement type:	3-D scan
Data mode:	Fluorescence
EX  Start WL:	220.0 nm
EX  End WL:	600.0 nm
EX Sampling interval:	5.0 nm
EM  Start WL:	230.0 nm
EM  End WL:	650.0 nm
EM Sampling interval:	5.0 nm
Scan speed:	12000 nm/min
EX Slit:	5.0 nm
EM Slit:	5.0 nm
PMT Voltage:	700 V
Response:	Auto 
Corrected spectra:	Off
Contour interval:	50.000

Peak integration
Integration method:	Rectangular
Sensitivity:	1
Threshold:	1.000

Peaks
No.	ApexEX/EM(nm)	Height(Data)
1	230.0/345.0	7495
2	235.0/365.0	6952
3	265.0/585.0	199.3
4	270.0/300.0	3339
5	270.0/595.0	207.4
6	275.0/305.0	3681
7	275.0/610.0	172.2
8	280.0/355.0	3905
9	460.0/345.0	13.26
10	480.0/370.0	16.93
11	505.0/275.0	-6.434
12	540.0/295.0	3.578
13	545.0/300.0	5.007
14	555.0/305.0	5.094
15	565.0/355.0	6.254
16	580.0/365.0	6.427
17	585.0/360.0	6.127

Wavelength data
No.	EX/EM(nm)	Height(Data)	

Data points
	220.0	225.0	230.0	235.0	240.0	245.0	250.0	255.0	260.0	265.0	270.0	275.0	280.0	285.0	290.0	295.0	300.0	305.0	310.0	315.0	320.0	325.0	330.0	335.0	340.0	345.0	350.0	355.0	360.0	365.0	370.0	375.0	380.0	385.0	390.0	395.0	400.0	405.0	410.0	415.0	420.0	425.0	430.0	435.0	440.0	445.0	450.0	455.0	460.0	465.0	470.0	475.0	480.0	485.0	490.0	495.0	500.0	505.0	510.0	515.0	520.0	525.0	530.0	535.0	540.0	545.0	550.0	555.0	560.0	565.0	570.0	575.0	580.0	585.0	590.0	595.0	600.0
230.0	-766.7	940.4	4871	1823	-115.3	-155.4	-131.2	-111.0	-94.51	-83.42	-73.51	-65.08	-55.55	-47.58	-40.03	-34.89	-30.44	-27.22	-24.73	-22.78	-21.21	-19.93	-18.92	-17.84	-17.24	-16.64	-16.31	-16.05	-16.00	-15.68	-15.28	-14.68	-13.89	-13.32	-12.52	-11.77	-11.67	-11.69	-11.31	-11.23	-10.83	-10.87	-10.68	-10.52	-10.29	-10.17	-7.844	0.303	10.35	7.537	-1.499	-7.834	-8.916	-9.024	-9.173	-9.117	-9.795	-9.875	-9.987	-9.991	-10.07	-10.14	-10.20	-10.32	-10.39	-10.39	-10.49	-10.54	-10.64	-10.77	-10.84	-10.89	-10.97	-11.02	-11.09	-11.28	-11.55
235.0	-732.1	-186.1	2131	4833	2189	-2.288	-128.2	-109.5	-94.30	-83.03	-73.50	-63.67	-54.94	-47.22	-39.88	-34.29	-29.97	-26.80	-24.80	-22.76	-21.14	-20.02	-18.71	-17.87	-17.22	-16.48	-16.29	-15.97	-16.08	-15.90	-15.20	-14.66	-13.93	-13.34	-12.52	-11.79	-11.61	-11.70	-11.35	-11.21	-10.88	-10.94	-10.77	-10.40	-10.03	-10.07	-8.908	-7.086	-2.282	4.372	10.54	11.00	1.171	-6.736	-9.101	-9.101	-9.771	-9.859	-9.975	-9.989	-10.07	-10.13	-10.19	-10.30	-10.32	-10.35	-10.52	-10.56	-10.68	-10.71	-10.84	-10.87	-10.94	-11.03	-11.09	-11.26	-11.54
240.0	-677.2	-393.3	280.7	3092	5385	1941	-51.95	-107.4	-92.64	-81.68	-73.16	-63.75	-55.28	-47.04	-39.68	-34.32	-29.93	-27.07	-24.83	-22.83	-21.08	-20.00	-18.70	-17.69	-16.92	-16.51	-16.29	-15.94	-15.99	-15.73	-15.31	-14.53	-13.75	-13.32	-12.47	-11.66	-11.69	-11.62	-11.31	-11.11	-10.93	-11.01	-10.85	-10.42	-9.995	-9.734	-8.892	-8.785	-7.232	-4.633	0.495	11.76	19.73	12.78	-1.109	-8.013	-9.693	-9.831	-9.944	-9.949	-10.03	-10.17	-10.18	-10.28	-10.35	-10.38	-10.49	-10.57	-10.70	-10.72	-10.82	-10.94	-10.97	-11.02	-11.03	-11.25	-11.50
245.0	-708.0	-385.7	-156.7	709.4	4560	6259	320.4	-81.70	-91.16	-80.42	-71.77	-62.98	-54.66	-46.61	-39.62	-34.46	-29.72	-26.93	-24.65	-22.77	-20.87	-19.96	-18.81	-17.87	-17.05	-16.52	-16.25	-16.01	-15.93	-15.67	-15.23	-14.67	-13.81	-13.26	-12.52	-11.79	-11.69	-11.61	-11.24	-11.08	-10.92	-10.96	-10.92	-10.61	-10.17	-9.792	-8.626	-8.806	-8.219	-7.060	-5.556	-2.447	7.911	22.66	21.37	10.50	-4.308	-9.461	-9.971	-9.920	-10.07	-10.07	-10.18	-10.29	-10.37	-10.37	-10.45	-10.53	-10.63	-10.67	-10.82	-10.92	-10.99	-11.05	-11.05	-11.27	-11.56
250.0	-769.7	-462.2	-168.3	50.10	1131	4367	6716	1543	32.05	-76.03	-69.89	-61.85	-53.17	-45.97	-38.90	-34.12	-29.84	-26.94	-24.52	-22.47	-21.03	-19.81	-18.84	-17.73	-16.91	-16.51	-16.23	-16.06	-15.91	-15.61	-15.11	-14.55	-13.80	-13.29	-12.51	-11.76	-11.61	-11.68	-11.23	-11.13	-10.92	-11.01	-10.89	-10.58	-10.25	-10.03	-8.955	-8.911	-7.979	-7.057	-6.732	-7.121	-4.988	0.217	7.431	18.60	22.89	23.29	5.515	-4.235	-9.577	-9.973	-10.18	-10.27	-10.31	-10.38	-10.45	-10.53	-10.63	-10.69	-10.78	-10.86	-10.94	-11.02	-11.07	-11.24	-11.52
255.0	-775.7	-526.9	-264.5	35.48	197.5	905.3	3606	9720	2383	73.84	-63.87	-58.70	-51.42	-44.29	-38.49	-33.29	-29.08	-26.55	-24.25	-22.20	-20.88	-19.41	-18.68	-17.64	-16.98	-16.35	-16.16	-15.93	-15.56	-15.71	-15.11	-14.55	-13.65	-13.26	-12.48	-11.70	-11.66	-11.62	-11.19	-11.17	-10.82	-11.01	-10.92	-10.55	-10.27	-10.12	-9.066	-9.216	-8.435	-7.200	-6.527	-7.475	-7.618	-6.808	-5.372	-2.702	0.941	17.08	40.94	46.85	14.11	-3.664	-9.889	-10.24	-10.25	-10.31	-10.41	-10.50	-10.59	-10.68	-10.81	-10.84	-10.91	-10.93	-11.05	-11.23	-11.59
260.0	-795.1	-543.7	-331.5	-54.64	124.2	146.4	832.2	6062	9999.9	1962	20.32	-53.59	-48.61	-43.27	-37.25	-33.00	-28.32	-25.88	-23.83	-22.21	-20.67	-19.56	-18.44	-17.57	-16.84	-16.28	-15.93	-15.84	-15.61	-15.62	-15.08	-14.44	-13.73	-13.27	-12.49	-11.72	-11.68	-11.64	-11.20	-11.17	-10.85	-11.02	-10.91	-10.61	-10.26	-10.19	-9.073	-9.249	-8.607	-7.585	-6.930	-7.340	-7.265	-7.808	-8.094	-7.514	-7.285	-3.157	9.292	35.18	58.55	23.37	9.464	-7.205	-10.18	-10.25	-10.37	-10.49	-10.59	-10.65	-10.78	-10.83	-10.86	-10.90	-11.10	-11.22	-11.58
265.0	-792.1	-556.5	-351.6	-177.2	106.2	117.0	127.6	1619	9017	9999.9	1482	-27.61	-44.03	-40.77	-36.28	-31.80	-27.73	-25.81	-23.52	-22.09	-20.56	-19.21	-18.06	-17.40	-16.67	-16.22	-15.88	-15.82	-15.74	-15.52	-15.04	-14.33	-13.59	-13.22	-12.42	-11.79	-11.64	-11.63	-11.33	-11.13	-10.85	-11.10	-10.90	-10.54	-10.25	-10.18	-9.111	-9.345	-8.623	-7.696	-7.238	-8.229	-7.629	-7.165	-7.679	-8.364	-9.084	-8.268	-5.417	2.060	21.41	50.05	71.12	20.38	2.153	-9.369	-10.27	-10.42	-10.55	-10.65	-10.76	-10.81	-10.92	-10.82	-11.08	-11.22	-11.54
270.0	-634.9	-468.7	-325.6	-220.6	-63.48	175.9	201.1	379.4	2492	8580	9999.9	4901	32.82	-34.74	-32.84	-29.82	-27.11	-24.92	-23.30	-21.76	-20.21	-19.17	-17.91	-17.37	-16.64	-16.23	-15.78	-15.66	-15.71	-15.32	-15.01	-14.35	-13.62	-13.07	-12.22	-11.53	-11.38	-11.33	-11.05	-10.87	-10.55	-10.70	-10.53	-10.19	-9.895	-9.859	-8.933	-9.096	-8.571	-7.610	-7.230	-8.506	-8.435	-8.104	-7.794	-7.230	-7.887	-8.546	-8.478	-6.934	-2.472	6.472	25.10	42.22	60.65	49.47	9.634	-0.773	-9.259	-10.56	-10.63	-10.78	-10.82	-10.93	-10.99	-11.20	-11.48
275.0	-65.24	-89.56	-159.1	-171.7	-105.8	20.97	381.5	353.6	762.6	2263	6469	9999.9	6695	58.29	-26.39	-26.68	-25.22	-23.52	-22.54	-20.85	-19.71	-18.93	-17.70	-17.13	-16.36	-15.96	-15.76	-15.56	-15.47	-15.15	-15.00	-14.24	-13.57	-12.80	-11.54	-10.33	-10.44	-10.35	-10.18	-9.981	-9.625	-9.450	-9.590	-9.145	-8.900	-8.743	-8.087	-8.307	-8.142	-7.385	-7.079	-8.365	-8.578	-8.592	-8.562	-7.971	-7.635	-6.434	-7.030	-7.825	-7.116	-4.895	-0.609	3.255	10.12	28.51	70.85	94.60	21.05	2.502	-9.714	-10.61	-10.75	-10.89	-10.93	-11.18	-11.48
280.0	676.6	453.9	128.7	-71.49	-55.74	29.56	285.4	779.7	762.3	1117	2284	9981	9999.9	1222	25.61	-23.05	-22.56	-22.64	-21.39	-20.36	-19.24	-18.48	-17.48	-16.91	-16.26	-15.81	-15.66	-15.50	-15.47	-15.19	-14.81	-14.15	-13.48	-12.60	-11.07	-9.457	-8.944	-8.729	-8.913	-8.915	-8.562	-8.443	-8.127	-7.909	-7.312	-7.237	-6.966	-7.369	-7.364	-6.792	-6.873	-8.142	-8.296	-8.348	-8.484	-8.021	-8.230	-7.030	-5.729	-5.232	-6.338	-6.450	-5.256	-4.179	-2.671	1.761	16.49	53.50	90.19	94.45	16.63	-3.132	-10.47	-10.79	-10.84	-11.14	-11.33
285.0	1294	1098	464.5	90.07	33.83	112.6	285.5	789.6	1249	1237	1617	3594	9999.9	9999.9	888.2	-3.023	-18.90	-20.85	-20.29	-19.18	-18.87	-18.21	-17.25	-16.51	-15.98	-15.40	-15.53	-15.36	-15.37	-15.13	-14.67	-14.11	-13.19	-12.24	-10.47	-8.788	-7.273	-7.372	-7.891	-7.905	-7.502	-7.592	-7.129	-6.433	-6.018	-5.818	-5.466	-6.054	-6.178	-6.172	-6.417	-7.866	-7.924	-8.022	-8.165	-7.896	-7.968	-7.460	-6.491	-4.752	-3.361	-4.096	-4.551	-4.291	-4.077	-2.785	-0.213	8.403	26.25	70.72	104.0	26.14	11.21	-7.200	-10.72	-10.97	-11.17
290.0	1955	1696	913.1	334.1	187.0	250.9	417.3	756.4	1415	2026	2065	2374	3748	9999.9	9999.9	3278	24.02	-16.13	-17.55	-18.13	-17.77	-17.45	-16.80	-16.14	-15.63	-15.20	-15.06	-15.08	-15.16	-14.96	-14.54	-13.92	-13.13	-12.00	-9.924	-7.682	-6.399	-6.204	-6.669	-6.641	-6.680	-6.479	-5.732	-4.981	-4.496	-4.095	-3.488	-4.211	-4.667	-5.148	-5.602	-7.140	-7.370	-7.497	-7.463	-7.364	-7.418	-6.890	-6.525	-5.294	-3.851	-1.915	-0.648	-0.682	-1.384	-1.311	-1.303	0.225	2.939	12.48	29.36	41.23	71.07	57.53	51.63	4.439	-6.725
295.0	2202	2108	1232	562.6	351.1	395.4	546.9	868.1	1391	2266	3026	2647	2271	2968	6506	9999.9	4645	37.08	-12.63	-15.37	-16.37	-16.11	-16.15	-15.63	-15.30	-14.82	-14.91	-14.88	-15.04	-14.77	-14.38	-13.76	-12.90	-11.83	-9.692	-7.538	-6.023	-5.690	-5.849	-6.032	-6.104	-5.868	-5.692	-4.285	-3.744	-2.979	-2.670	-2.689	-3.320	-4.235	-4.889	-6.228	-6.793	-6.989	-6.911	-6.695	-6.693	-6.203	-5.428	-5.104	-4.144	-2.575	-1.316	1.373	3.578	2.552	0.848	0.146	-0.131	0.263	2.717	3.865	10.19	15.85	60.76	105.1	89.23
300.0	2224	2147	1453	727.8	460.7	497.4	672.3	993.5	1499	2215	3339	3210	2270	1578	1938	9321	9999.9	712.7	16.35	-11.90	-14.28	-15.25	-15.17	-14.84	-14.72	-14.74	-14.70	-14.84	-14.76	-14.67	-14.30	-13.81	-12.76	-11.95	-9.739	-7.669	-6.336	-5.686	-5.779	-6.190	-5.982	-5.930	-5.776	-4.471	-3.458	-2.777	-2.167	-2.505	-2.810	-3.606	-4.525	-5.807	-6.259	-6.381	-6.590	-6.093	-6.164	-5.617	-5.210	-4.701	-3.666	-2.292	-1.098	0.667	2.700	5.007	3.557	2.684	0.275	-1.015	-2.466	-3.587	-3.451	-2.925	8.145	36.20	89.72
305.0	2173	2104	1557	816.4	569.4	577.8	774.2	1109	1585	2269	3159	3681	2570	1464	944.3	2648	9999.9	9999.9	551.0	-0.781	-11.66	-13.85	-13.97	-14.34	-14.61	-14.37	-14.51	-14.55	-14.62	-14.50	-14.22	-13.52	-12.87	-11.75	-10.04	-7.655	-6.548	-6.103	-5.925	-6.153	-6.350	-6.085	-5.940	-4.693	-3.693	-2.929	-2.133	-2.362	-2.555	-3.400	-3.975	-5.619	-5.882	-6.169	-5.923	-5.752	-5.736	-5.341	-4.689	-3.941	-3.055	-2.155	-0.575	0.576	1.817	3.430	4.667	5.094	2.609	-0.368	-2.533	-4.184	-5.642	-6.742	-4.636	1.042	16.92
310.0	1856	1950	1512	880.0	611.4	625.6	830.4	1154	1587	2209	2935	3338	2999	1772	892.5	935.0	2910	9962	9999.9	2274	16.59	-9.805	-12.54	-13.15	-13.67	-13.88	-14.17	-14.18	-14.31	-14.26	-13.94	-13.62	-12.86	-11.80	-10.27	-8.355	-7.246	-6.983	-6.832	-6.832	-6.683	-6.637	-6.422	-5.305	-4.446	-3.705	-2.910	-2.663	-2.855	-3.285	-3.846	-5.264	-5.723	-5.823	-5.734	-5.548	-5.311	-5.124	-4.087	-3.582	-3.033	-1.722	-0.754	0.686	1.525	2.310	2.701	3.528	3.405	1.864	-0.773	-3.167	-5.408	-6.663	-6.990	-6.386	-3.379
315.0	1772	2109	1744	1016	695.1	701.4	879.7	1173	1579	2125	2766	3028	2825	2297	1179	727.7	964.9	2433	6028	9999.9	3346	26.11	-8.305	-11.10	-12.67	-13.01	-13.22	-13.62	-13.95	-13.78	-13.65	-13.26	-12.61	-11.85	-10.25	-8.738	-7.816	-7.752	-7.488	-7.576	-7.233	-6.901	-6.685	-5.746	-4.842	-4.036	-2.429	-2.334	-2.527	-2.539	-3.568	-4.830	-5.365	-5.588	-5.414	-5.367	-5.133	-4.713	-4.211	-3.538	-2.890	-1.807	-0.802	0.139	0.651	1.505	1.841	1.676	1.747	1.255	0.519	-0.002	-2.891	-5.239	-6.412	-7.252	-7.072
320.0	2216	3071	2748	1553	898.3	817.1	929.8	1236	1645	2192	2842	3152	2916	2549	1820	967.8	713.1	855.4	1650	8360	9999.9	517.8	11.93	-7.889	-10.50	-11.98	-12.84	-13.18	-13.71	-13.49	-13.31	-13.09	-12.33	-11.98	-10.44	-8.741	-7.946	-8.071	-7.674	-7.697	-7.110	-6.983	-6.254	-5.284	-3.795	-2.383	-0.304	0.585	0.892	-0.437	-1.926	-3.676	-4.511	-5.267	-4.988	-4.915	-4.829	-4.546	-3.711	-3.391	-2.547	-1.373	-0.383	0.434	1.255	1.623	1.963	2.462	2.470	1.363	0.806	0.534	0.072	-1.633	-4.583	-6.040	-6.841
325.0	2888	4534	4529	2664	1317	962.1	1039	1331	1734	2323	3047	3421	3270	2811	2386	1530	897.7	664.7	675.0	2411	9999.9	9999.9	414.5	1.622	-7.945	-10.22	-12.28	-13.07	-13.01	-13.38	-13.38	-12.99	-12.48	-11.78	-10.70	-9.117	-8.514	-8.292	-7.795	-7.411	-7.181	-6.715	-5.686	-4.575	-2.877	-0.449	2.675	4.730	5.405	4.018	1.213	-1.024	-3.195	-4.057	-4.283	-4.374	-4.264	-3.974	-3.621	-2.968	-2.054	-1.087	0.060	0.714	2.060	2.710	3.347	3.812	3.939	2.768	2.239	1.296	1.486	1.453	-0.440	-3.040	-5.305
330.0	3329	5482	5872	3892	2041	1290	1172	1395	1798	2391	3121	3554	3524	3108	2577	2054	1353	834.3	615.1	860.5	2942	8654	8327	1798	15.11	-5.590	-9.879	-11.68	-12.22	-12.92	-12.75	-12.54	-12.20	-11.52	-10.59	-9.306	-8.852	-8.417	-8.231	-7.682	-7.050	-6.683	-5.663	-3.946	-2.080	0.785	4.514	7.709	9.152	7.593	5.044	2.515	-0.218	-1.970	-2.851	-3.324	-3.721	-3.328	-3.359	-2.591	-1.800	-0.650	0.507	1.432	2.070	2.776	4.011	4.616	4.564	4.164	3.679	2.992	2.473	1.572	0.729	-0.307	-1.654
335.0	3535	5999	6664	4748	2735	1735	1432	1529	1893	2423	3196	3669	3668	3346	2775	2181	1774	1157	752.2	655.5	1007	2223	5676	9999.9	2747	23.19	-5.186	-9.091	-11.31	-12.16	-12.16	-12.18	-11.82	-11.45	-10.43	-9.455	-9.054	-8.632	-8.010	-7.796	-6.857	-6.679	-5.257	-3.456	-1.475	1.947	5.659	9.097	10.94	10.05	7.226	5.642	2.884	0.561	-0.861	-1.410	-2.201	-2.488	-2.464	-2.263	-1.219	-0.827	0.677	1.479	2.140	3.295	4.148	5.197	4.914	5.228	4.485	4.238	3.561	2.261	1.277	0.027	-0.714
340.0	3613	6279	7272	5451	3418	2266	1755	1714	2007	2518	3285	3754	3819	3556	3006	2361	1900	1507	966.5	728.0	699.3	864.6	1681	8150	9999.9	430.6	12.14	-6.302	-9.151	-10.92	-11.65	-12.06	-11.76	-11.17	-10.42	-9.411	-9.202	-8.687	-8.086	-7.713	-6.833	-6.442	-5.425	-3.387	-1.158	2.758	6.236	10.24	12.91	11.68	9.249	8.573	5.472	3.334	1.076	0.173	-0.823	-1.455	-1.468	-1.334	-1.217	-0.010	1.118	2.225	2.772	3.533	4.728	4.972	5.024	5.577	5.029	4.920	5.078	3.547	2.219	0.713	0.295
345.0	3593	6194	7495	6071	4187	2878	2154	1918	2128	2608	3312	3788	3895	3674	3169	2549	1989	1679	1286	904.3	772.8	688.2	754.8	2498	9999.9	9915	359.1	1.545	-7.493	-9.946	-11.19	-11.55	-11.39	-11.03	-10.38	-9.449	-9.322	-8.620	-8.290	-7.869	-6.787	-6.325	-5.561	-3.656	-1.367	2.125	5.746	10.24	13.26	12.40	11.36	10.83	8.272	6.303	3.760	2.559	1.141	-0.112	-0.709	-0.373	-0.423	0.873	1.320	2.272	3.418	3.842	4.414	5.932	5.432	6.063	5.945	5.161	5.066	4.974	3.265	2.395	1.114
350.0	3399	5924	7311	6600	5122	3756	2763	2259	2306	2734	3345	3773	3891	3735	3299	2724	2166	1759	1541	1249	996.2	851.6	729.2	991.6	3062	8084	7007	1538	12.29	-6.868	-9.560	-10.62	-10.93	-10.92	-10.35	-9.403	-9.321	-8.875	-8.296	-7.891	-7.130	-6.559	-5.533	-3.990	-1.711	1.474	4.875	9.342	12.35	12.92	12.31	13.10	11.35	9.375	7.761	5.800	3.898	2.183	1.158	0.706	0.619	1.547	1.780	2.922	3.287	3.865	4.406	5.561	5.281	5.909	6.100	5.971	5.936	5.108	3.992	2.937	1.751
355.0	3211	5463	7082	6854	5802	4516	3353	2615	2574	2894	3423	3791	3905	3775	3411	2892	2370	1923	1651	1553	1329	1076	916.9	831.5	1091	2089	5109	9999.9	2337	17.97	-6.180	-9.693	-9.870	-10.30	-10.22	-9.203	-8.948	-8.745	-8.305	-7.803	-7.093	-6.458	-5.660	-4.135	-2.548	0.466	4.191	8.340	11.42	12.57	12.40	14.63	14.30	13.26	11.10	8.378	7.160	4.701	2.896	2.108	2.054	2.261	2.817	3.702	3.538	4.090	4.966	5.864	5.519	6.254	6.152	5.873	6.056	5.187	4.663	3.364	3.193
360.0	3053	5179	6860	6935	6225	4994	3700	2875	2743	3009	3465	3779	3877	3773	3450	2978	2504	2067	1761	1648	1584	1285	1086	906.0	751.8	765.9	1470	7513	9999.9	395.7	7.743	-7.405	-8.935	-9.755	-9.758	-8.939	-8.946	-8.566	-8.137	-7.859	-7.009	-6.575	-5.715	-4.225	-2.432	0.153	3.518	7.473	10.60	12.31	12.87	15.78	15.61	14.74	13.18	10.49	8.297	6.048	3.615	2.770	2.954	3.391	3.438	4.094	3.575	3.899	4.896	5.123	5.520	5.876	5.902	5.742	6.089	6.127	4.910	4.087	3.046
365.0	2913	4858	6586	6952	6512	5281	3936	3013	2849	3068	3465	3756	3832	3749	3462	3022	2597	2169	1864	1709	1695	1521	1246	1031	771.3	554.5	547.8	2228	9357	8542	326.1	-0.812	-7.295	-8.913	-9.296	-8.821	-8.896	-8.598	-8.225	-7.772	-7.114	-6.765	-5.873	-4.222	-2.567	-0.107	3.026	6.750	9.668	11.73	12.81	16.15	16.61	15.47	14.14	12.17	9.251	7.129	4.795	3.340	3.276	3.767	3.447	4.158	4.089	4.324	4.319	4.951	5.223	6.082	5.579	5.875	6.427	5.555	4.519	4.250	3.710
370.0	2654	4524	6127	6710	6590	5457	4142	3147	2911	3095	3429	3658	3734	3645	3399	3015	2638	2271	1991	1825	1749	1690	1510	1222	914.2	639.1	442.0	688.4	2738	7277	6400	1367	10.13	-6.095	-7.921	-8.099	-8.444	-8.285	-7.969	-7.601	-7.036	-6.668	-5.870	-4.486	-3.051	-0.809	2.113	5.471	8.653	10.91	12.31	15.88	16.93	16.43	14.96	12.67	10.51	7.568	5.144	4.020	3.682	4.012	4.138	4.115	3.825	3.991	4.127	4.802	4.550	4.918	5.141	5.474	5.809	5.509	4.559	4.342	3.515
375.0	2478	4163	5649	6323	6369	5396	4182	3173	2920	3036	3330	3514	3548	3468	3253	2949	2627	2330	2075	1913	1829	1725	1685	1455	1074	764.4	504.4	413.9	774.3	1797	4723	9412	2005	14.56	-5.237	-7.001	-7.723	-7.959	-8.073	-7.575	-7.127	-6.606	-5.938	-4.693	-3.395	-1.428	0.765	4.041	7.660	9.456	10.98	14.45	15.60	15.57	14.58	12.76	10.15	8.226	5.382	4.377	4.089	3.995	3.879	3.925	3.511	3.790	3.580	4.063	4.033	4.338	4.232	4.390	5.115	5.168	3.938	4.011	3.218
380.0	2294	3806	5148	5932	6089	5260	4093	3112	2840	2921	3214	3354	3395	3312	3117	2860	2591	2315	2106	1959	1866	1753	1698	1590	1202	856.1	581.4	403.0	383.2	544.5	1310	6714	8304	330.4	6.011	-4.563	-6.807	-7.365	-7.623	-7.380	-7.110	-6.598	-6.019	-4.776	-3.422	-1.829	0.367	3.219	6.329	7.626	9.729	13.65	14.40	14.93	13.43	12.29	10.20	7.406	5.235	3.708	3.466	3.440	3.366	3.421	3.402	2.956	3.066	3.534	3.276	3.560	3.715	4.220	4.116	4.143	3.833	2.969	3.194
385.0	2091	3494	4757	5499	5669	5083	3954	3020	2734	2806	3097	3194	3208	3167	2976	2749	2523	2284	2109	1973	1883	1776	1686	1609	1337	955.2	661.4	460.2	350.3	308.5	410.5	1964	7560	6421	260.2	0.901	-4.464	-6.452	-7.006	-7.100	-6.993	-6.914	-6.092	-5.011	-3.865	-2.527	-0.240	2.399	5.495	7.330	8.760	12.09	13.09	13.64	12.44	10.89	9.899	6.727	5.255	3.472	3.006	2.815	2.960	3.136	3.114	2.535	2.278	2.500	2.959	3.127	2.775	3.218	3.342	3.290	3.109	2.376	2.824
390.0	1915	3166	4294	5024	5187	4685	3712	2913	2622	2653	2863	2970	2965	2945	2794	2596	2409	2218	2055	1948	1869	1774	1682	1577	1397	1116	786.5	565.0	429.5	342.2	275.2	554.6	2196	5478	4748	1073	11.52	-1.388	-4.820	-6.228	-6.697	-6.800	-6.291	-5.266	-4.304	-2.849	-0.907	1.391	3.667	5.626	7.360	9.949	11.24	11.84	11.29	9.605	8.393	6.139	4.576	2.922	2.615	2.370	1.891	2.446	2.166	1.492	1.611	1.918	2.004	1.880	2.052	2.483	2.456	2.543	2.429	1.906	2.055
395.0	1630	2790	3863	4475	4669	4213	3473	2754	2482	2482	2654	2741	2727	2696	2581	2437	2284	2136	1992	1896	1822	1749	1672	1563	1383	1209	944.5	689.7	542.5	434.4	329.1	314.3	633.9	1376	3500	6723	1633	20.15	1.970	-4.095	-5.567	-6.420	-6.171	-5.337	-4.555	-2.972	-1.413	0.268	2.683	4.350	5.818	8.531	9.836	10.13	9.534	8.192	7.208	5.127	3.588	2.888	2.013	1.567	1.634	1.535	0.969	1.220	0.567	1.271	0.853	0.610	0.892	1.666	1.896	1.707	1.316	1.371	1.348
400.0	1583	2588	3543	4060	4311	3918	3291	2684	2425	2371	2545	2581	2571	2535	2429	2293	2177	2041	1930	1850	1780	1713	1656	1558	1387	1214	1047	816.8	646.3	533.1	421.9	343.9	366.0	490.1	1050	4729	6145	291.3	18.06	0.855	-4.317	-5.624	-6.059	-5.715	-4.898	-3.875	-1.871	-0.079	1.862	3.675	4.885	6.920	8.446	8.306	8.208	7.334	6.247	4.774	2.865	2.092	1.890	1.274	1.336	0.721	0.631	0.462	0.471	0.262	0.399	0.058	0.243	0.389	1.055	0.816	0.921	0.785	0.550
405.0	1493	2349	3240	3727	4015	3680	3183	2618	2409	2332	2462	2469	2448	2407	2309	2185	2076	1964	1864	1790	1731	1666	1624	1545	1391	1224	1077	946.0	764.7	644.9	538.9	438.6	405.0	386.1	472.6	1503	5389	4916	245.0	11.33	-1.323	-4.951	-5.694	-5.748	-4.796	-3.960	-2.339	-0.989	1.069	2.854	3.963	5.933	6.934	7.027	6.697	6.797	5.746	4.475	2.939	2.323	1.218	1.122	0.627	0.273	0.341	0.373	-0.372	-0.264	-0.303	-0.705	-0.357	-0.127	0.222	-0.033	0.239	-0.134	-0.203
410.0	1333	2105	2885	3372	3609	3385	2993	2580	2366	2288	2370	2343	2279	2230	2152	2030	1939	1841	1761	1697	1646	1597	1567	1501	1380	1240	1091	1008	917.0	787.1	674.3	584.5	533.4	478.8	445.1	635.0	1696	3959	3669	1100	14.92	-1.607	-4.607	-5.010	-4.717	-4.040	-2.713	-1.523	0.066	1.789	3.143	4.325	5.536	5.731	5.653	5.288	4.632	3.823	2.853	2.066	1.293	1.023	0.691	0.082	-0.068	-0.331	-0.734	-1.014	-0.798	-0.925	-1.252	-0.449	-0.784	-0.647	-0.493	-0.935	-1.045
415.0	1184	1868	2577	2980	3232	3057	2763	2501	2294	2218	2257	2192	2115	2053	1964	1868	1777	1706	1645	1587	1539	1513	1494	1432	1346	1227	1096	1002	973.6	903.4	764.1	663.8	612.4	547.9	493.4	491.1	670.6	1126	2392	4976	1507	16.60	-2.143	-4.043	-4.636	-4.063	-2.933	-1.890	-0.783	0.973	2.082	3.363	3.964	4.505	4.414	3.969	3.910	3.255	2.563	1.371	0.675	0.976	0.186	0.053	-0.825	-1.099	-1.292	-1.577	-1.944	-1.398	-2.061	-1.352	-1.401	-1.231	-1.503	-1.282	-1.519
420.0	1084	1753	2351	2728	2947	2826	2591	2397	2218	2115	2141	2059	1977	1916	1828	1731	1662	1594	1542	1490	1455	1428	1425	1378	1309	1208	1088	998.1	956.4	940.8	816.4	692.9	631.4	568.0	510.8	462.1	447.2	477.9	746.2	3144	4630	274.8	9.267	-2.771	-4.103	-4.116	-3.178	-2.181	-1.062	0.200	1.209	1.982	3.088	3.348	3.715	2.856	3.379	2.280	1.621	1.298	0.896	0.484	-0.145	-0.408	-1.296	-1.321	-1.841	-2.166	-2.307	-2.072	-2.394	-2.034	-1.906	-2.004	-2.292	-1.999	-2.304
425.0	981.7	1597	2159	2516	2677	2626	2470	2301	2120	2010	2038	1952	1867	1795	1707	1612	1551	1488	1443	1410	1372	1355	1360	1319	1263	1182	1072	997.4	936.4	918.8	852.0	718.0	637.4	569.4	508.2	449.7	392.2	330.7	319.2	919.8	3521	3721	229.5	2.203	-2.901	-3.931	-3.697	-2.790	-1.507	-0.181	0.702	1.824	2.090	2.578	2.309	2.273	2.099	1.599	1.201	0.829	0.318	0.174	-0.721	-1.042	-1.459	-1.476	-2.121	-2.392	-2.354	-2.854	-2.696	-2.450	-2.389	-2.755	-2.664	-2.667	-2.783
430.0	1224	1461	1952	2266	2436	2392	2309	2185	2039	1917	1914	1812	1727	1652	1563	1479	1421	1368	1333	1299	1275	1264	1263	1242	1201	1140	1052	982.6	932.3	888.7	837.7	751.8	655.2	569.3	502.7	440.3	378.1	296.4	226.2	301.3	968.5	2581	2870	950.6	10.18	-2.488	-2.969	-2.808	-2.015	-0.909	0.048	0.753	1.283	1.691	1.345	1.473	1.638	1.311	0.766	0.219	-0.036	-0.330	-0.859	-1.327	-1.819	-2.216	-2.421	-2.863	-3.179	-3.105	-3.208	-3.332	-2.970	-3.222	-3.384	-3.591	-3.571
435.0	2187	1312	1721	2048	2231	2185	2148	2102	1970	1841	1791	1713	1605	1526	1443	1358	1294	1255	1223	1197	1177	1170	1177	1171	1139	1090	1021	966.2	919.9	872.7	804.7	745.7	686.5	576.7	497.9	434.2	374.6	291.0	215.2	175.7	283.5	628.9	1569	3964	1487	15.59	-1.525	-2.568	-1.936	-1.498	-0.673	-0.079	0.469	0.836	0.822	0.544	1.017	0.499	0.126	-0.067	-0.332	-0.618	-0.897	-1.740	-2.374	-2.520	-2.906	-3.334	-3.835	-3.572	-4.112	-3.800	-3.728	-3.784	-4.113	-3.950	-3.994
440.0	3046	1541	1624	1887	2080	2064	2059	2017	1917	1780	1745	1647	1514	1430	1350	1269	1200	1173	1141	1125	1105	1094	1115	1110	1089	1049	993.3	949.6	903.9	857.6	784.5	714.9	682.1	589.3	494.3	427.9	364.1	290.9	216.1	153.1	137.7	190.4	413.4	2302	4035	259.8	8.995	-2.004	-1.838	-1.431	-1.027	-0.430	0.095	0.043	0.038	0.083	1.002	0.004	-0.188	-0.404	-0.535	-1.268	-1.337	-2.083	-2.858	-2.902	-3.434	-3.400	-4.083	-3.914	-4.357	-4.035	-4.215	-4.232	-4.824	-4.871	-4.738
445.0	2753	2366	1480	1745	1910	1954	1953	1933	1840	1717	1668	1556	1441	1341	1256	1181	1121	1089	1070	1046	1034	1027	1044	1052	1033	1006	952.7	915.1	880.2	836.0	765.4	688.2	647.6	588.9	493.6	415.4	351.2	288.3	216.2	153.0	109.1	97.20	129.9	617.4	2818	3434	210.6	4.346	-1.240	-1.227	-1.043	-0.934	-0.437	-0.506	-0.220	-0.333	0.285	-0.365	-0.192	-0.971	-0.626	-1.860	-2.141	-2.322	-3.101	-3.389	-3.961	-4.004	-4.082	-4.012	-4.826	-4.788	-4.629	-4.642	-5.073	-5.146	-5.366
450.0	1358	3534	1797	1525	1717	1768	1807	1801	1713	1588	1548	1427	1308	1221	1138	1066	1011	985.5	965.1	945.8	938.8	934.4	953.2	961.1	955.6	932.1	891.9	860.2	830.5	793.8	728.2	649.8	599.3	547.3	488.8	403.7	336.9	274.6	211.2	153.5	109.0	81.77	72.34	166.7	732.7	2134	2404	958.8	9.614	-0.783	-0.955	-1.496	-1.030	-1.145	-0.858	-0.964	-0.720	-0.899	-0.927	-1.446	-1.596	-2.060	-2.505	-2.767	-3.371	-3.748	-4.483	-4.626	-4.779	-4.975	-5.341	-5.149	-5.055	-5.329	-5.535	-5.726	-6.097
455.0	510.0	2888	3261	1412	1499	1572	1613	1650	1574	1455	1409	1296	1178	1096	1009	945.9	889.5	870.8	855.0	837.7	835.3	830.7	852.0	856.0	859.8	845.9	817.6	790.6	771.8	738.5	678.1	610.2	554.7	492.5	447.5	401.4	325.5	260.5	205.5	154.4	115.4	85.71	65.76	70.68	185.4	494.9	1109	3114	1299	13.62	-0.136	-1.477	-1.465	-1.532	-1.550	-1.641	-1.122	-2.034	-1.377	-1.873	-1.983	-2.554	-2.887	-3.620	-4.073	-4.314	-5.005	-4.807	-5.333	-5.682	-5.771	-5.464	-5.697	-5.979	-6.137	-6.272	-6.748
460.0	249.7	1547	4270	1717	1367	1420	1490	1513	1474	1365	1309	1201	1085	1002	923.5	850.1	805.9	781.2	771.4	762.1	755.3	754.4	776.2	788.3	786.3	778.4	760.9	736.2	723.2	692.8	641.7	574.7	521.1	461.6	414.2	383.9	322.8	253.8	202.6	155.8	119.4	90.78	68.55	52.93	67.02	127.4	271.7	1568	3082	922.8	9.751	-0.579	-1.738	-1.747	-2.150	-2.025	-2.036	-2.337	-1.941	-2.360	-2.238	-2.813	-3.304	-3.830	-4.452	-4.939	-5.013	-5.375	-5.485	-6.045	-6.153	-5.983	-6.216	-6.302	-6.406	-6.731	-6.838
465.0	142.9	804.6	3842	2738	1242	1310	1386	1406	1392	1273	1222	1106	1007	921.0	843.5	779.2	733.9	705.0	699.6	689.5	692.1	687.8	708.2	723.1	727.1	716.6	703.2	686.3	676.6	649.0	599.2	540.4	491.1	436.0	388.4	354.0	318.2	255.3	200.3	157.3	122.8	94.30	72.22	52.14	43.12	47.89	73.42	394.2	1953	2662	180.8	5.500	-1.189	-2.121	-2.537	-2.618	-2.653	-2.518	-2.729	-3.157	-2.827	-3.710	-3.959	-4.290	-4.870	-4.879	-5.308	-6.059	-6.365	-6.324	-6.476	-6.314	-6.508	-6.847	-7.082	-6.835	-7.246
470.0	54.05	458.9	1939	3996	1675	1145	1217	1263	1231	1138	1103	998.7	893.3	819.0	745.2	680.0	641.8	622.6	605.6	601.0	596.2	601.9	622.5	631.1	641.4	636.5	623.5	611.7	606.5	587.8	545.3	492.6	446.8	396.8	349.9	312.7	286.0	251.8	199.6	153.7	122.1	96.73	75.11	56.25	41.56	33.79	33.06	99.52	490.5	1439	1898	877.3	10.66	-1.513	-2.380	-2.801	-3.008	-3.318	-3.295	-3.573	-3.648	-4.060	-4.465	-4.885	-5.221	-5.594	-6.040	-6.410	-6.795	-6.776	-6.886	-6.965	-7.019	-7.104	-7.480	-7.420	-7.714
475.0	-13.43	315.7	855.1	2987	3298	1064	1053	1103	1090	1029	978.6	888.3	798.3	715.4	648.2	586.4	551.0	531.0	521.0	513.8	513.1	514.5	536.8	543.9	557.9	555.7	547.8	538.8	537.3	520.9	484.0	438.8	401.1	356.6	319.3	281.2	252.9	228.7	200.1	156.3	121.2	97.75	79.30	59.65	45.17	34.18	28.02	35.88	118.6	329.4	659.8	1898	1177	16.87	-2.044	-2.978	-3.366	-3.990	-3.974	-4.120	-4.379	-4.555	-5.003	-5.526	-5.693	-6.364	-6.352	-6.595	-7.104	-7.095	-7.278	-7.360	-7.509	-7.674	-7.942	-7.739	-8.359
480.0	-101.4	238.3	579.5	1610	4265	1474	948.5	999.2	997.8	937.1	905.9	814.7	734.5	661.2	591.3	529.3	498.5	478.7	466.8	459.7	463.7	461.9	478.8	491.6	499.8	500.9	495.8	491.6	490.1	474.5	444.6	404.9	373.6	332.8	294.6	263.0	235.6	208.9	193.1	161.6	123.4	98.96	78.79	63.50	47.65	38.46	28.50	24.19	37.94	82.27	157.2	789.3	2155	942.5	11.69	-2.466	-3.557	-4.124	-3.993	-4.241	-4.922	-4.963	-5.464	-5.653	-6.154	-6.218	-6.778	-7.069	-7.238	-7.505	-7.711	-7.799	-7.691	-7.704	-8.074	-8.405	-8.635
485.0	-179.0	205.5	479.6	876.7	3636	2644	895.4	939.9	918.1	864.3	835.5	753.0	681.0	607.9	540.6	488.7	457.9	435.9	430.4	421.7	422.0	423.1	437.0	450.9	457.9	460.1	454.1	453.2	450.6	439.6	415.8	381.3	348.4	313.4	279.2	250.4	224.4	198.6	178.7	161.6	129.7	101.5	82.35	65.27	52.46	41.14	31.77	24.58	22.89	29.02	43.58	192.0	1144	2038	222.4	6.847	-2.523	-3.541	-4.189	-4.731	-5.064	-5.340	-5.621	-5.955	-6.160	-6.389	-6.989	-7.310	-7.322	-7.634	-7.509	-8.001	-8.142	-7.968	-8.263	-8.502	-8.800
490.0	-261.1	141.2	401.4	603.0	1832	3866	1472	843.5	848.4	794.2	767.0	698.5	620.1	547.1	484.2	434.7	404.4	389.2	384.8	373.9	375.6	377.5	386.8	400.2	409.9	411.0	405.8	410.4	407.2	400.7	379.1	347.7	320.8	290.9	260.3	234.7	212.0	187.9	167.0	152.4	135.0	108.7	85.75	69.23	57.59	46.39	38.08	29.23	23.41	21.47	22.08	51.39	277.8	938.5	1570	915.5	12.80	-2.370	-3.938	-4.802	-5.192	-5.529	-5.904	-6.194	-6.481	-6.763	-7.224	-7.325	-7.749	-7.653	-8.000	-8.134	-8.320	-8.352	-8.583	-8.777	-9.115
495.0	-337.5	45.96	357.8	482.9	826.5	2866	3133	842.0	743.9	724.1	696.2	641.8	558.8	490.5	428.2	385.4	353.4	343.7	337.9	328.6	329.1	331.6	342.8	352.9	359.2	362.8	359.0	361.7	363.7	360.7	340.2	315.8	295.6	264.5	238.9	215.5	196.7	177.7	157.9	140.9	128.6	115.0	91.81	74.17	61.58	51.29	43.29	34.90	26.98	23.86	20.91	24.25	71.86	216.8	519.2	1679	1322	20.63	-3.009	-4.149	-5.314	-5.818	-6.205	-6.387	-6.908	-7.046	-7.527	-7.535	-7.726	-7.884	-8.299	-8.479	-8.512	-8.728	-8.850	-8.922	-9.315
500.0	-355.8	-33.55	298.8	431.9	552.2	1507	4249	1276	688.6	676.7	646.8	594.0	510.3	441.5	385.1	345.1	319.1	306.1	298.7	295.4	292.8	295.8	306.9	316.5	323.9	326.8	325.7	327.5	328.4	326.7	310.1	288.3	271.8	245.1	221.4	203.0	186.4	167.2	148.9	132.4	121.3	112.3	97.11	77.30	64.90	54.50	46.95	37.95	31.63	27.48	23.39	20.29	27.86	58.43	125.6	651.7	1951	977.0	14.64	-3.925	-5.113	-6.007	-6.209	-6.733	-7.192	-7.177	-7.763	-7.867	-7.964	-8.437	-8.333	-8.611	-8.771	-8.883	-9.138	-9.248	-9.418
505.0	-393.1	-79.22	231.8	387.7	458.2	750.9	3759	2459	653.6	622.8	613.4	543.1	468.4	402.2	346.3	309.6	283.9	276.7	267.8	264.9	264.1	266.7	279.7	286.3	290.9	291.7	296.5	297.5	300.5	298.2	284.9	266.1	249.6	225.1	206.4	188.3	174.0	157.0	140.9	125.4	114.3	104.9	99.14	81.29	66.32	55.93	49.53	41.09	34.64	30.59	25.93	20.61	19.48	24.44	37.85	158.2	904.8	1875	244.8	7.472	-4.970	-5.871	-6.352	-6.954	-7.036	-7.560	-7.742	-8.034	-8.235	-8.469	-8.565	-8.771	-8.737	-9.176	-9.284	-9.355	-9.659
510.0	-446.1	-142.4	135.3	329.4	377.0	485.2	1794	3976	1150	545.2	543.8	481.7	417.1	356.4	300.0	264.9	244.6	236.8	231.4	230.3	229.4	230.9	239.4	245.4	253.9	255.7	257.1	258.5	263.8	261.7	251.8	234.2	220.7	201.8	184.6	170.4	157.5	144.2	129.7	117.1	105.8	94.27	90.93	83.15	69.89	57.62	50.21	42.35	36.65	32.58	28.39	23.31	19.80	19.34	20.07	44.56	216.3	775.4	1251	732.6	11.32	-5.158	-6.310	-6.932	-7.267	-7.901	-8.006	-7.877	-8.395	-8.663	-8.840	-8.996	-8.951	-9.280	-9.515	-9.639	-9.841
515.0	-493.9	-194.2	54.47	273.1	341.8	358.6	698.3	3181	2607	540.7	476.8	423.5	362.8	309.8	253.8	225.5	206.0	202.8	192.9	197.0	196.9	195.8	204.1	208.6	216.1	220.1	220.4	224.1	227.2	227.1	218.7	204.6	193.3	178.3	163.4	150.0	140.4	130.1	116.8	106.6	96.69	85.45	80.75	77.42	71.31	60.14	50.48	43.13	37.72	33.85	29.54	24.51	21.68	19.51	16.69	19.68	54.80	176.9	384.7	1219	958.7	18.62	-5.662	-7.143	-7.466	-8.081	-7.978	-8.222	-8.644	-8.864	-9.160	-9.168	-9.354	-9.521	-9.624	-9.874	-10.08
520.0	-509.1	-222.1	-4.679	195.1	312.5	301.9	402.4	1582	4213	922.1	429.6	385.8	324.2	276.4	229.0	198.9	181.8	175.6	170.6	169.9	170.3	171.3	177.4	184.8	189.9	194.4	194.1	199.3	204.1	202.3	195.0	184.7	174.7	159.5	148.1	136.5	127.7	118.3	108.3	98.79	89.42	80.59	73.10	69.52	69.21	61.57	50.76	41.97	36.06	33.21	29.42	24.34	22.31	19.31	15.51	14.42	19.18	43.62	88.78	455.3	1352	692.2	11.80	-6.635	-7.594	-8.002	-8.354	-8.638	-9.004	-9.089	-9.087	-9.455	-9.549	-9.666	-9.674	-9.981	-10.25
525.0	-532.2	-264.5	-39.48	113.7	273.2	265.1	315.6	673.2	4069	2023	395.9	342.2	298.1	246.1	203.7	172.7	161.3	154.5	151.8	148.1	150.1	151.7	158.0	166.0	169.1	172.7	174.6	177.8	183.4	180.4	177.5	165.5	157.4	145.3	134.4	124.2	115.3	107.0	100.2	92.13	83.21	75.25	68.15	62.97	63.84	60.16	50.83	41.11	35.78	31.84	28.42	24.32	21.24	19.17	14.66	12.50	10.22	14.12	21.83	105.0	612.5	1284	238.7	3.368	-7.532	-8.130	-8.270	-8.731	-8.895	-9.107	-9.132	-9.514	-9.634	-9.807	-9.752	-10.10	-10.42
530.0	-577.3	-307.2	-78.18	53.74	199.7	242.4	251.4	367.6	1966	3965	842.1	297.3	258.1	211.0	168.8	147.6	133.7	129.2	128.2	126.6	127.8	128.6	134.5	139.7	142.7	147.2	147.9	151.1	157.1	156.2	151.2	143.4	135.9	125.8	115.9	108.1	100.7	93.92	87.27	81.55	74.39	67.37	61.22	57.54	54.49	53.22	50.09	40.80	33.81	29.70	26.78	23.09	19.46	17.41	14.03	11.18	7.856	6.557	6.031	23.19	140.9	519.8	907.8	530.0	9.230	-7.458	-8.338	-8.784	-8.958	-9.286	-9.461	-9.620	-9.819	-9.935	-9.933	-10.24	-10.68
535.0	-604.4	-344.8	-135.8	20.91	111.8	216.0	209.1	255.4	648.0	3413	2102	289.8	207.3	173.9	141.5	122.9	111.3	105.1	105.8	103.0	104.1	106.2	113.3	114.6	119.8	121.9	123.0	126.8	131.7	129.7	124.8	121.2	115.1	105.3	98.30	92.71	87.44	81.57	75.71	69.67	64.80	58.46	54.11	50.29	46.77	44.89	44.45	39.44	32.32	27.12	24.64	21.03	17.43	15.65	12.95	9.935	6.926	4.330	1.876	4.315	29.32	112.5	267.8	830.7	667.9	16.86	-8.058	-8.753	-9.063	-9.574	-9.540	-9.683	-9.955	-9.918	-10.10	-10.42	-10.68
540.0	-634.8	-360.4	-151.6	-17.30	69.64	169.1	189.4	198.3	315.3	1665	4215	529.5	183.6	148.9	121.0	104.0	93.37	88.90	89.51	86.39	87.54	88.78	96.66	98.56	103.5	105.0	106.3	107.8	111.7	113.2	109.1	103.9	99.13	92.06	86.16	81.06	75.61	71.94	67.41	61.68	55.67	51.53	48.03	45.05	41.47	38.21	38.32	36.93	30.09	25.64	22.47	18.99	15.63	13.94	11.34	9.594	5.316	2.690	0.646	-0.250	4.186	21.98	56.22	300.3	918.3	257.8	9.200	-8.576	-9.078	-9.591	-9.548	-9.807	-10.06	-10.18	-10.19	-10.47	-10.76
545.0	-623.7	-375.6	-183.8	-44.93	28.17	109.7	174.8	165.2	219.9	616.6	4336	1423	162.9	127.3	105.8	87.81	80.99	75.65	74.19	72.79	75.78	76.15	81.90	85.00	89.34	89.46	90.38	93.43	94.91	96.96	94.56	89.65	85.94	79.21	74.77	70.18	65.70	63.02	58.82	54.43	49.70	45.87	42.51	39.83	37.28	33.64	32.14	31.29	28.80	24.34	20.05	16.67	13.63	11.93	9.735	7.523	5.359	1.863	-0.371	-1.780	-1.884	1.133	8.284	64.54	395.8	815.5	222.6	0.254	-9.090	-9.571	-9.722	-9.800	-10.10	-10.25	-10.29	-10.60	-10.79
550.0	-607.1	-388.9	-203.5	-80.06	-12.53	49.43	144.9	148.6	172.5	279.5	2047	3535	382.1	103.6	82.68	67.38	61.26	58.88	58.37	58.04	59.40	59.37	63.91	66.71	69.91	70.97	72.81	75.08	77.42	77.73	77.00	72.15	69.87	64.23	61.01	56.52	53.56	49.93	47.32	44.13	40.99	37.48	35.25	32.91	30.56	28.54	26.61	24.97	24.14	22.08	18.40	14.17	11.32	9.560	7.575	5.540	3.520	1.247	-1.185	-2.649	-3.362	-3.670	-2.648	9.479	85.88	322.8	577.1	368.5	7.747	-8.952	-9.760	-10.02	-10.21	-10.27	-10.35	-10.65	-10.83
555.0	-579.5	-364.4	-227.9	-105.8	-37.51	-0.985	89.07	153.8	146.7	191.7	617.0	3446	1450	90.02	60.60	47.80	42.29	43.11	42.75	42.75	43.99	44.37	48.60	50.81	52.38	53.92	54.53	57.31	59.31	59.09	57.82	55.86	53.11	49.61	46.51	44.38	42.20	39.86	36.90	34.61	31.82	29.92	28.02	26.23	24.08	23.10	20.61	18.72	18.01	18.25	16.64	11.83	8.832	7.214	5.294	3.640	0.957	0.027	-1.650	-3.135	-4.072	-5.010	-5.187	-3.145	13.61	66.30	159.0	505.3	266.7	14.89	-9.314	-10.02	-10.25	-10.40	-10.56	-10.72	-10.97
560.0	-567.0	-354.2	-222.9	-126.3	-59.31	-15.86	48.25	152.9	145.2	167.7	280.0	1770	3351	140.1	46.03	35.24	33.43	32.06	31.19	33.46	33.41	35.22	37.44	39.13	41.15	41.96	43.76	45.96	46.56	46.09	45.48	44.88	43.24	38.91	35.72	34.88	33.89	31.22	29.59	28.65	26.34	23.89	23.11	20.99	19.56	17.85	16.78	15.06	13.67	14.03	14.16	9.809	6.320	5.090	3.885	2.172	-0.182	-1.464	-2.066	-3.136	-4.811	-5.580	-6.081	-5.865	-2.777	9.092	29.68	171.2	516.2	244.5	6.477	-9.983	-10.22	-10.43	-10.59	-10.76	-11.15
565.0	-547.2	-344.1	-215.1	-142.9	-75.61	-35.36	22.41	128.6	145.2	151.5	200.7	623.3	3905	781.8	32.56	25.54	23.77	23.58	25.03	24.28	25.25	26.73	29.83	30.69	32.74	34.46	34.13	35.26	37.38	38.89	38.50	36.67	35.15	31.98	30.62	29.37	27.15	25.79	24.62	22.65	21.98	19.25	18.03	17.10	16.03	14.46	13.64	11.24	10.48	10.84	11.41	8.486	5.096	3.335	2.154	1.162	-1.199	-2.383	-3.192	-3.573	-4.962	-5.817	-6.281	-6.729	-6.313	-3.996	0.445	32.95	213.0	498.9	191.8	-2.892	-10.08	-10.51	-10.58	-10.89	-11.18
570.0	-528.3	-325.5	-219.8	-147.5	-93.60	-49.06	-2.335	79.08	159.2	151.7	183.5	263.5	2031	2578	83.80	15.44	13.47	12.88	14.29	15.15	16.00	17.76	20.29	21.69	22.77	24.63	24.74	25.90	27.51	28.00	27.75	26.69	26.05	23.83	23.30	22.05	21.28	20.69	18.98	16.59	15.38	14.11	12.54	12.20	11.38	10.27	10.00	8.243	7.241	7.099	6.980	5.642	3.868	2.283	0.351	-0.462	-2.255	-3.340	-4.296	-4.821	-5.326	-6.056	-6.709	-7.107	-7.178	-6.891	-6.136	0.800	42.44	185.0	339.8	147.0	5.279	-10.03	-10.52	-10.89	-11.20
575.0	-532.5	-321.0	-222.9	-147.0	-105.3	-61.74	-22.50	43.10	157.6	168.0	180.7	183.3	569.1	2960	886.3	11.00	6.155	4.580	6.544	7.453	8.181	10.10	12.42	13.48	14.55	16.40	16.83	17.17	18.68	19.22	19.61	17.87	18.92	16.14	16.09	16.37	16.21	15.72	13.47	11.27	9.917	9.471	8.052	7.608	7.403	6.926	6.982	4.755	4.251	4.356	3.900	2.421	1.975	1.001	-0.743	-1.899	-3.764	-4.370	-5.128	-5.689	-5.750	-6.114	-6.839	-7.370	-7.532	-7.637	-7.731	-6.308	2.637	34.14	85.44	265.2	240.6	11.42	-10.27	-10.82	-11.17
580.0	-507.6	-319.1	-214.0	-154.4	-112.6	-69.99	-28.72	26.70	127.8	184.2	182.3	175.6	214.7	1654	2281	54.97	-0.783	0.709	1.995	2.042	3.694	5.205	6.673	8.040	9.746	11.20	10.76	12.22	13.44	14.26	13.63	13.25	13.06	12.40	11.80	12.30	13.29	11.88	9.626	7.850	6.841	6.683	5.700	5.107	4.788	4.333	4.217	2.689	2.385	2.736	2.110	0.475	0.226	0.195	-1.575	-2.774	-4.361	-4.531	-5.686	-6.096	-6.305	-6.512	-6.698	-7.618	-7.616	-7.850	-8.033	-7.838	-6.138	0.386	12.01	84.50	306.1	190.7	2.548	-10.73	-11.17
585.0	-518.6	-335.6	-217.8	-161.0	-118.4	-75.22	-39.93	13.15	93.22	199.3	188.9	174.3	135.0	539.7	2924	352.1	-3.961	-3.618	-2.861	-0.913	0.367	1.081	3.309	5.147	5.105	6.159	7.271	7.103	8.477	8.622	8.612	8.993	8.544	8.613	8.275	8.919	9.118	8.453	6.871	5.237	4.345	3.855	3.646	2.638	2.519	2.186	2.259	1.299	1.014	0.953	0.744	-0.953	-1.344	-0.918	-1.979	-3.424	-4.898	-5.305	-6.159	-6.418	-6.661	-7.044	-6.925	-7.469	-7.770	-7.999	-8.281	-8.468	-8.143	-7.035	-4.510	11.86	114.3	296.3	127.7	-5.392	-11.14
590.0	-538.3	-325.6	-224.0	-170.1	-123.0	-84.49	-44.27	1.470	61.25	165.7	198.5	166.7	118.2	158.5	1601	1454	30.67	-7.566	-6.774	-4.859	-3.598	-2.464	-0.940	0.352	1.747	1.313	2.574	3.026	4.033	4.088	4.231	3.974	4.565	4.252	3.823	4.699	4.536	4.091	3.153	2.275	1.285	0.838	0.509	0.519	0.411	-0.041	0.363	-0.348	-0.750	-0.497	-0.446	-2.214	-2.929	-2.802	-3.091	-3.808	-5.411	-5.942	-6.670	-6.731	-7.282	-7.577	-7.553	-7.417	-7.767	-8.267	-8.533	-8.670	-8.833	-8.672	-8.433	-4.980	18.67	99.08	200.4	113.7	3.720
595.0	-568.2	-344.0	-231.7	-173.6	-124.3	-94.31	-51.68	-9.954	44.94	117.6	207.4	160.3	108.0	70.21	400.0	2062	456.4	-9.649	-10.05	-8.365	-7.125	-6.215	-4.774	-3.650	-2.116	-2.339	-1.615	-1.125	-0.014	-0.022	0.353	0.623	0.153	0.208	0.742	1.105	1.288	0.181	-0.157	-0.738	-1.145	-1.581	-1.678	-1.526	-1.828	-1.812	-1.028	-2.262	-2.218	-1.693	-1.770	-3.484	-4.244	-4.506	-4.496	-4.540	-5.521	-6.401	-7.166	-7.148	-7.598	-7.760	-8.101	-7.816	-8.049	-8.212	-8.634	-8.689	-9.127	-9.189	-9.338	-8.662	-3.634	14.16	45.75	148.2	157.6
600.0	-587.4	-371.3	-239.9	-176.8	-130.6	-94.51	-57.78	-15.99	28.99	91.77	191.2	161.7	102.5	52.03	94.23	1287	1280	9.131	-12.19	-11.60	-10.17	-9.023	-7.172	-6.329	-5.218	-4.214	-3.668	-4.107	-3.388	-2.346	-1.978	-2.113	-1.674	-2.060	-1.478	-0.758	-1.080	-1.835	-2.234	-2.253	-3.021	-3.428	-3.322	-3.182	-3.477	-3.087	-2.559	-3.642	-3.135	-2.731	-2.706	-4.323	-5.017	-5.199	-5.513	-5.322	-6.163	-6.449	-7.571	-7.602	-8.027	-8.009	-8.011	-8.136	-8.326	-8.084	-8.375	-8.782	-9.038	-9.409	-9.592	-9.682	-8.639	-4.770	2.130	40.89	176.2
605.0	-589.3	-370.8	-244.7	-180.0	-138.8	-97.28	-64.07	-24.90	27.06	80.96	160.3	168.3	104.9	48.40	25.95	434.6	1864	69.93	-13.33	-12.64	-11.08	-10.57	-8.771	-7.815	-7.209	-6.139	-5.441	-5.670	-4.869	-4.495	-4.355	-3.945	-3.051	-3.307	-2.456	-1.924	-2.839	-2.932	-3.313	-3.465	-3.913	-4.436	-4.514	-4.262	-4.246	-4.290	-3.674	-4.217	-3.790	-3.641	-3.156	-5.026	-5.597	-5.910	-6.207	-5.715	-6.455	-6.805	-7.628	-7.989	-8.276	-8.220	-8.302	-8.415	-8.619	-8.310	-8.474	-9.067	-9.209	-9.579	-9.703	-9.943	-9.855	-9.083	-7.706	1.022	58.57
610.0	-612.8	-402.3	-256.4	-189.0	-140.7	-100.0	-68.88	-28.14	18.30	66.55	127.5	172.2	102.6	44.67	12.21	96.35	1191	880.4	4.518	-14.02	-13.01	-12.23	-10.78	-9.474	-8.635	-7.730	-7.792	-7.192	-6.684	-6.243	-5.748	-5.266	-3.844	-3.600	-3.099	-2.419	-3.088	-3.639	-4.592	-4.878	-5.217	-5.749	-5.722	-5.572	-5.261	-5.427	-4.644	-5.121	-4.889	-4.277	-4.050	-5.753	-6.234	-6.359	-6.691	-6.533	-6.979	-7.017	-7.677	-8.177	-8.460	-8.533	-8.556	-8.553	-8.789	-8.637	-8.704	-8.867	-9.130	-9.501	-9.756	-10.01	-10.12	-10.04	-9.970	-8.190	4.860
615.0	-645.3	-419.1	-267.9	-193.3	-143.5	-105.1	-68.46	-31.94	10.11	51.90	104.5	145.2	111.7	43.02	10.39	14.61	307.2	1431	215.7	-14.91	-14.67	-13.73	-12.24	-11.11	-10.65	-9.811	-9.513	-8.867	-8.097	-7.572	-7.310	-6.380	-5.195	-4.581	-3.827	-3.111	-3.670	-4.541	-5.458	-6.235	-6.390	-6.693	-6.966	-6.629	-6.434	-6.414	-5.747	-5.998	-5.547	-4.751	-4.724	-6.331	-6.838	-6.917	-7.219	-7.115	-7.702	-7.519	-7.963	-8.327	-8.637	-8.706	-8.764	-8.699	-8.946	-8.747	-8.930	-9.074	-9.143	-9.633	-9.682	-10.12	-10.15	-10.35	-10.50	-10.22	-7.465
620.0	-679.0	-429.9	-284.1	-197.7	-146.6	-112.4	-73.52	-35.82	0.946	42.50	84.73	120.0	119.8	42.42	9.061	-1.466	62.09	1012	651.9	-10.19	-15.24	-14.93	-12.98	-12.48	-11.74	-10.49	-10.70	-10.15	-9.839	-8.986	-8.408	-7.788	-7.061	-6.169	-5.158	-4.250	-4.714	-5.512	-6.528	-6.973	-7.148	-7.377	-7.765	-7.395	-7.186	-7.070	-6.453	-6.589	-6.244	-5.361	-5.345	-6.749	-7.099	-7.232	-7.499	-7.468	-8.104	-8.031	-8.125	-8.419	-8.705	-8.811	-8.882	-8.916	-9.055	-9.112	-9.066	-9.280	-9.197	-9.493	-9.499	-10.08	-10.17	-10.37	-10.65	-10.64	-10.35
625.0	-670.8	-449.2	-292.2	-197.1	-151.9	-117.1	-81.80	-44.02	-9.361	35.75	70.59	95.24	117.4	44.77	9.759	-4.887	5.350	375.7	1245	37.49	-15.71	-14.87	-14.05	-13.28	-12.56	-11.68	-11.69	-11.61	-10.69	-10.64	-9.793	-9.335	-8.315	-7.904	-6.697	-5.716	-6.318	-6.812	-7.262	-7.366	-7.837	-8.176	-8.274	-7.837	-7.646	-7.364	-6.803	-7.009	-6.531	-5.743	-5.390	-6.972	-7.262	-7.586	-7.682	-7.661	-8.441	-8.526	-8.292	-8.436	-8.771	-8.949	-9.276	-9.063	-9.271	-9.276	-9.260	-9.388	-9.332	-9.513	-9.741	-10.01	-10.30	-10.45	-10.70	-10.71	-10.91
630.0	-683.5	-457.8	-293.6	-201.6	-156.3	-119.6	-85.08	-50.09	-17.36	22.36	60.03	79.51	92.78	54.78	9.920	-5.454	-7.708	79.21	916.2	471.8	-8.706	-15.74	-15.23	-14.01	-13.37	-12.72	-12.63	-12.36	-12.28	-11.92	-11.17	-10.70	-9.653	-9.135	-8.179	-7.475	-7.703	-7.964	-8.255	-8.529	-8.625	-8.818	-8.851	-8.456	-8.192	-8.063	-7.230	-7.445	-7.022	-6.178	-5.957	-7.352	-7.645	-7.781	-8.038	-8.032	-8.712	-8.836	-8.707	-8.750	-8.932	-9.061	-9.373	-9.266	-9.423	-9.443	-9.486	-9.520	-9.595	-9.664	-9.787	-10.07	-10.29	-10.47	-10.62	-10.79	-11.11
635.0	-711.2	-461.3	-288.8	-203.6	-156.7	-123.3	-87.60	-54.73	-21.31	12.06	49.30	61.98	68.03	62.11	16.70	-4.298	-9.488	6.826	250.2	1040	48.97	-16.25	-15.90	-14.92	-14.37	-13.78	-13.47	-13.07	-13.02	-12.72	-11.95	-11.32	-10.76	-9.723	-9.038	-8.347	-8.770	-8.876	-9.176	-9.174	-9.223	-9.127	-9.243	-8.977	-8.853	-8.522	-7.671	-7.974	-7.371	-6.534	-6.336	-7.728	-7.969	-7.982	-8.299	-8.275	-8.878	-9.137	-9.100	-8.950	-9.044	-9.060	-9.219	-9.445	-9.582	-9.554	-9.630	-9.632	-9.770	-9.877	-9.939	-10.08	-10.22	-10.40	-10.56	-10.88	-11.10
640.0	-702.5	-446.1	-279.8	-203.5	-156.3	-120.3	-89.31	-55.63	-24.86	7.353	39.64	61.99	59.81	61.08	24.87	-1.516	-7.417	-7.396	47.57	825.7	437.1	-13.54	-16.51	-15.57	-15.14	-14.17	-13.98	-13.73	-13.55	-13.31	-12.59	-11.75	-11.03	-10.26	-9.587	-9.162	-9.207	-9.358	-9.524	-9.573	-9.577	-9.530	-9.554	-9.244	-9.026	-8.791	-7.850	-8.179	-7.545	-6.809	-6.438	-7.775	-8.199	-8.273	-8.356	-8.291	-9.016	-9.333	-9.243	-9.229	-9.217	-9.226	-9.284	-9.380	-9.516	-9.485	-9.713	-9.640	-9.902	-10.01	-10.01	-10.04	-10.13	-10.46	-10.61	-10.86	-11.06
645.0	-699.8	-414.8	-253.2	-190.2	-151.0	-123.2	-92.08	-57.06	-24.60	6.157	38.66	55.89	60.13	55.57	35.63	5.162	-4.752	-9.622	0.730	345.0	861.7	19.03	-16.63	-15.43	-15.25	-14.96	-14.22	-14.21	-13.90	-13.76	-13.19	-12.30	-11.53	-10.81	-9.983	-9.591	-9.713	-9.744	-9.816	-9.991	-9.748	-9.699	-9.640	-9.462	-9.257	-8.959	-8.079	-8.381	-7.549	-6.856	-6.632	-7.901	-8.375	-8.379	-8.540	-8.437	-9.189	-9.320	-9.380	-9.336	-9.382	-9.341	-9.398	-9.522	-9.651	-9.659	-9.719	-9.801	-9.820	-9.986	-10.18	-10.21	-10.11	-10.29	-10.63	-10.92	-11.20
650.0	-685.5	-397.6	-227.9	-175.2	-145.5	-122.0	-90.20	-57.24	-24.27	4.400	37.48	57.55	62.36	53.17	47.84	13.66	-1.170	-8.641	-8.335	83.41	903.9	200.2	-16.04	-15.66	-15.50	-15.13	-14.58	-14.36	-14.51	-14.14	-13.38	-12.85	-11.98	-11.20	-10.27	-9.936	-10.22	-9.925	-9.997	-10.15	-9.953	-10.03	-9.849	-9.736	-9.331	-9.090	-8.117	-8.377	-7.731	-6.904	-6.583	-8.017	-8.372	-8.543	-8.543	-8.579	-9.278	-9.226	-9.456	-9.306	-9.471	-9.556	-9.424	-9.564	-9.748	-9.724	-9.775	-9.781	-9.919	-10.04	-10.06	-10.29	-10.19	-10.33	-10.63	-10.79	-11.16
