Sample:	'1
File name:	Default_20230428_133030.FD3
Run date:	'13:24:09, 04/28/2023
Operator:	user
Comment:	'

Instrument
Model:	F-2700 FL Spectrophotometer
Serial number:	2190-003
ROM Version:	4J14000 07

Instrument parameters
Measurement type:	3-D scan
Data mode:	Fluorescence
EX  Start WL:	220.0 nm
EX  End WL:	600.0 nm
EX Sampling interval:	5.0 nm
EM  Start WL:	230.0 nm
EM  End WL:	650.0 nm
EM Sampling interval:	5.0 nm
Scan speed:	12000 nm/min
EX Slit:	5.0 nm
EM Slit:	5.0 nm
PMT Voltage:	700 V
Response:	Auto 
Corrected spectra:	Off
Contour interval:	50.000

Peak integration
Integration method:	Rectangular
Sensitivity:	1
Threshold:	1.000

Peaks
No.	ApexEX/EM(nm)	Height(Data)
1	225.0/260.0	54.22
2	225.0/280.0	57.74
3	225.0/295.0	69.49
4	225.0/555.0	49.44
5	225.0/610.0	43.52
6	225.0/630.0	46.26
7	230.0/325.0	121.8
8	230.0/540.0	57.95
9	230.0/550.0	58.97
10	230.0/565.0	49.81
11	230.0/605.0	38.48
12	235.0/340.0	144.7
13	235.0/585.0	38.21
14	235.0/625.0	35.75
15	240.0/520.0	113.4
16	240.0/570.0	38.89
17	240.0/580.0	37.59
18	240.0/620.0	35.88
19	245.0/265.0	206.1
20	245.0/530.0	124.5
21	245.0/605.0	35.15
22	250.0/405.0	319.1
23	250.0/545.0	122.8
24	250.0/585.0	34.09
25	255.0/280.0	342.1
26	255.0/555.0	108.5
27	260.0/285.0	432.6
28	260.0/565.0	93.08
29	260.0/625.0	23.57
30	265.0/290.0	457.4
31	265.0/430.0	348.4
32	265.0/575.0	92.92
33	270.0/295.0	638.8
34	270.0/590.0	87.26
35	275.0/305.0	748.1
36	275.0/420.0	361.6
37	275.0/440.0	371.8
38	275.0/600.0	82.47
39	280.0/250.0	11.14
40	280.0/310.0	750.2
41	280.0/340.0	429.8
42	280.0/395.0	375.6
43	280.0/610.0	62.68
44	285.0/315.0	731.5
45	285.0/355.0	406.5
46	285.0/375.0	384.2
47	285.0/390.0	370.9
48	285.0/625.0	57.54
49	290.0/320.0	726.6
50	290.0/635.0	45.38
51	300.0/335.0	417.4
52	305.0/340.0	436.0
53	305.0/395.0	322.9
54	310.0/345.0	407.8
55	315.0/350.0	327.6
56	315.0/405.0	317.1
57	320.0/360.0	354.5
58	325.0/365.0	361.8
59	330.0/370.0	331.9
60	335.0/375.0	333.2
61	340.0/385.0	333.5
62	345.0/390.0	301.5
63	350.0/395.0	292.3
64	355.0/405.0	291.2
65	360.0/410.0	262.9
66	365.0/415.0	250.9
67	370.0/425.0	232.8
68	385.0/445.0	170.9
69	400.0/465.0	106.2
70	415.0/485.0	63.95
71	430.0/505.0	40.30
72	435.0/510.0	34.24
73	445.0/525.0	25.65
74	450.0/530.0	21.47
75	455.0/535.0	17.98
76	460.0/545.0	14.93
77	505.0/275.0	2.923
78	515.0/285.0	3.148
79	530.0/290.0	2.835
80	540.0/295.0	3.361
81	545.0/300.0	3.662
82	550.0/305.0	4.217
83	560.0/310.0	3.574
84	570.0/315.0	3.712
85	575.0/320.0	3.640
86	580.0/325.0	3.330

Data points
	220.0	225.0	230.0	235.0	240.0	245.0	250.0	255.0	260.0	265.0	270.0	275.0	280.0	285.0	290.0	295.0	300.0	305.0	310.0	315.0	320.0	325.0	330.0	335.0	340.0	345.0	350.0	355.0	360.0	365.0	370.0	375.0	380.0	385.0	390.0	395.0	400.0	405.0	410.0	415.0	420.0	425.0	430.0	435.0	440.0	445.0	450.0	455.0	460.0	465.0	470.0	475.0	480.0	485.0	490.0	495.0	500.0	505.0	510.0	515.0	520.0	525.0	530.0	535.0	540.0	545.0	550.0	555.0	560.0	565.0	570.0	575.0	580.0	585.0	590.0	595.0	600.0
230.0	38.03	66.17	619.8	580.8	69.34	19.47	16.97	12.54	13.75	10.87	10.58	10.53	8.539	7.333	6.863	5.850	5.254	4.728	4.434	3.644	3.186	3.223	3.170	2.848	2.540	2.695	2.252	2.241	2.146	2.073	2.279	2.074	1.796	1.820	2.031	1.941	1.831	1.886	1.461	1.752	1.675	1.455	1.337	1.456	1.351	1.552	1.218	1.566	2.518	3.107	1.941	1.332	1.069	1.058	1.035	1.021	1.009	1.033	0.973	1.059	1.050	0.929	1.097	1.077	0.960	0.935	0.936	0.867	0.858	0.969	1.030	0.931	0.750	0.943	0.847	0.928	0.925
235.0	46.58	48.41	272.2	 1135	 1082	100.9	18.25	13.48	14.72	9.712	10.01	9.535	8.302	8.378	6.825	6.203	5.535	4.465	4.688	3.654	4.226	3.861	3.048	2.876	2.682	3.336	2.675	2.304	2.010	2.185	2.401	2.151	1.482	2.082	1.622	1.483	1.842	1.528	1.598	1.626	1.685	1.442	1.646	1.418	1.390	1.863	1.179	0.837	1.610	3.101	4.085	5.831	3.440	1.422	0.999	0.967	0.933	1.498	0.957	0.973	0.888	0.923	1.037	0.986	0.942	1.273	1.156	1.089	0.951	1.027	0.833	1.086	0.846	0.811	0.986	0.622	0.867
240.0	36.77	45.76	92.21	612.4	 2073	 1173	74.19	16.77	13.08	12.27	12.80	8.983	9.861	9.976	7.318	6.357	5.369	5.218	4.780	3.179	3.647	3.068	3.035	2.538	2.833	3.468	2.469	2.294	1.955	1.981	2.438	1.849	1.923	2.063	1.652	1.575	2.126	1.910	1.982	1.480	1.408	1.376	1.592	1.525	1.586	1.753	1.441	0.757	1.374	1.738	2.524	7.081	8.671	7.543	3.101	1.218	1.017	1.148	1.141	0.965	0.909	0.855	1.042	0.908	0.846	1.285	0.998	0.790	1.205	0.966	0.778	1.375	0.754	0.664	0.916	0.806	1.008
245.0	40.15	43.93	61.49	173.4	 1262	 2819	 1065	43.77	12.85	16.52	13.07	10.90	10.32	8.570	6.357	6.813	5.060	4.775	4.673	4.112	3.406	3.016	3.350	2.084	2.983	3.237	2.855	2.460	2.868	2.092	2.532	2.438	1.883	1.656	1.570	1.757	1.426	1.784	1.889	1.824	1.662	1.632	1.481	1.758	1.312	1.449	1.442	1.136	1.255	1.152	1.367	2.819	5.897	10.83	11.26	6.423	2.148	0.906	0.988	1.056	1.061	0.932	0.954	0.866	0.893	1.092	1.053	0.799	1.347	0.880	0.878	0.969	0.875	1.011	0.888	1.002	0.782
250.0	40.26	43.81	73.48	101.3	339.3	 1519	 3357	 2654	348.3	17.38	13.50	9.347	11.14	8.733	7.752	6.302	6.238	5.141	4.235	4.727	3.919	3.303	3.466	2.632	2.964	3.214	2.722	2.183	2.151	2.421	2.431	2.074	2.053	1.462	1.577	1.702	1.554	1.677	1.537	1.627	1.660	1.300	1.736	1.552	1.465	1.455	1.143	1.307	1.327	1.372	1.088	1.652	2.304	4.097	7.018	11.40	14.01	12.42	6.554	2.356	0.983	0.970	0.987	1.124	0.882	1.028	1.167	0.985	1.110	1.011	0.931	1.006	0.877	1.003	1.050	0.965	0.981
255.0	37.81	44.46	56.48	129.5	152.2	368.1	 1251	 5340	 4242	419.0	16.59	11.91	9.921	9.536	9.732	9.204	5.925	4.880	4.578	4.543	3.650	3.532	4.318	2.798	2.978	2.610	2.337	2.060	2.235	1.967	2.805	1.890	2.200	1.770	1.525	1.993	1.843	1.605	1.428	1.710	1.605	1.653	1.611	1.682	1.613	1.415	1.082	1.272	1.329	1.304	1.331	1.772	1.542	1.859	2.599	3.479	6.748	13.53	24.13	21.16	8.768	1.990	1.044	1.280	0.901	1.297	0.967	0.848	0.843	1.118	0.819	0.894	0.961	0.974	0.856	0.818	0.996
260.0	51.18	54.22	36.83	83.12	181.2	149.7	319.4	 2446	 6662	 3881	263.9	14.60	13.76	12.75	9.403	8.183	5.572	5.335	5.852	4.461	4.420	3.160	2.829	3.132	2.654	3.056	3.060	3.073	2.518	2.397	2.038	2.408	1.817	1.963	2.020	1.689	1.707	1.974	1.598	1.660	1.810	1.820	1.689	1.622	1.358	1.470	1.157	1.195	1.216	1.106	0.903	1.692	1.767	1.650	1.645	1.669	2.457	4.790	11.96	23.12	29.31	18.98	5.813	1.017	0.852	1.266	0.986	1.144	0.749	0.828	0.992	0.973	0.973	0.729	1.075	0.828	1.369
265.0	41.83	43.14	39.48	45.00	140.2	206.1	121.4	629.6	 3404	 7935	 1106	113.7	19.23	11.80	11.34	9.231	6.465	5.874	5.504	4.565	4.374	2.893	3.169	3.110	2.844	3.417	2.193	2.754	2.538	2.504	2.324	1.990	1.648	1.756	2.024	1.769	1.537	1.441	1.394	1.436	1.522	1.606	1.529	1.778	1.139	1.406	1.369	1.487	1.151	0.945	1.117	1.341	1.867	1.960	1.789	1.071	1.566	2.074	3.981	7.672	17.89	32.89	30.02	13.94	2.313	1.115	0.857	1.106	0.854	1.017	0.988	0.813	0.647	0.980	0.890	0.960	0.840
270.0	47.38	46.05	37.05	31.25	62.11	161.4	238.2	217.3	842.8	 3576	 7368	 4162	368.6	16.99	14.14	9.171	6.655	6.773	4.779	4.965	5.758	3.187	3.001	3.443	2.954	3.126	3.019	2.799	2.435	2.638	2.096	2.261	2.173	1.801	1.672	1.635	1.806	1.708	1.488	1.534	1.627	1.483	1.662	1.538	1.649	1.380	1.468	1.534	1.367	0.930	1.035	1.359	1.404	1.496	1.947	1.990	1.921	1.665	1.938	2.644	5.136	10.59	17.79	26.75	30.05	23.32	10.17	2.195	0.920	0.971	0.977	0.899	1.101	1.052	0.827	0.865	0.940
275.0	56.30	49.20	38.21	30.05	35.00	63.62	191.8	333.6	261.2	832.1	 2410	9999.9	 6302	431.8	17.81	11.93	8.707	7.432	4.966	5.282	4.960	3.560	3.987	3.985	3.584	3.323	2.832	2.568	2.448	2.598	2.590	2.448	1.826	2.151	2.123	1.541	1.731	1.805	1.360	1.676	1.511	1.304	1.351	1.632	1.396	1.424	1.381	1.223	1.320	1.173	1.268	1.037	1.029	1.302	1.161	1.541	2.636	2.923	2.045	1.458	2.292	3.192	4.866	7.224	11.89	27.63	44.21	33.76	10.48	1.211	1.119	0.861	0.941	1.055	1.022	0.616	1.096
280.0	43.06	57.74	38.84	42.83	37.49	35.28	84.63	342.1	322.8	231.6	597.9	 3879	9999.9	 5133	252.6	14.90	10.44	8.315	4.772	6.181	4.946	3.868	4.446	3.516	3.910	2.996	2.667	2.157	2.863	2.376	2.562	2.181	1.949	1.854	1.955	2.253	1.528	1.563	1.123	1.584	1.217	1.255	1.421	1.529	1.514	1.913	1.250	1.087	1.393	1.171	1.155	1.280	1.129	1.033	1.193	1.203	1.678	2.156	2.696	2.705	1.700	1.864	1.933	2.566	3.823	8.187	21.37	40.78	45.13	23.13	4.720	1.192	0.703	1.300	0.813	0.550	0.897
285.0	50.50	46.35	45.42	50.55	44.38	35.30	46.11	169.1	432.6	227.9	186.7	975.1	 4724	9999.9	 3593	102.5	13.23	7.714	6.537	6.609	4.805	4.436	3.423	3.868	2.818	2.532	3.081	2.852	2.670	2.576	2.680	2.493	1.891	2.197	1.975	2.095	1.444	1.307	1.288	1.858	1.410	1.315	1.615	1.440	1.509	1.513	1.370	1.159	1.339	1.303	1.174	1.398	0.984	1.279	1.219	1.313	1.542	1.402	2.083	3.148	2.648	1.786	1.392	1.299	2.221	3.001	5.968	13.55	31.14	47.97	38.70	12.61	2.038	1.125	1.186	0.690	1.148
290.0	48.14	53.93	61.57	53.93	41.79	36.97	45.42	75.74	226.4	457.4	314.6	329.7	 1208	 4728	 9299	 5333	229.3	13.65	9.061	7.030	5.711	5.339	4.326	3.892	3.593	3.121	3.189	2.702	2.576	2.888	2.409	2.769	2.071	2.161	1.921	1.737	1.442	1.711	1.464	1.452	1.378	1.517	1.464	1.380	1.335	1.426	1.177	1.296	1.340	1.277	1.153	1.185	1.144	1.084	1.208	1.100	1.445	1.389	1.548	1.678	2.129	2.633	2.835	2.457	1.876	1.599	2.430	4.186	8.133	16.03	26.60	33.31	35.73	24.58	9.362	2.120	1.294
295.0	54.20	69.49	64.67	64.55	49.18	46.56	57.97	66.91	118.9	274.2	638.8	395.5	421.2	 1189	 2728	 9409	 8091	284.8	11.93	9.572	6.819	4.937	4.247	3.560	3.712	3.263	3.620	3.066	2.323	2.882	2.546	2.549	2.438	2.017	1.861	1.364	1.690	2.152	1.851	1.576	1.418	1.534	1.356	1.324	1.377	1.251	1.361	1.360	1.483	1.177	1.162	1.527	1.336	1.396	1.084	1.173	1.267	1.431	1.448	1.223	1.461	1.589	2.547	3.240	3.361	2.226	1.748	2.063	3.156	4.606	6.973	8.712	15.61	32.97	48.66	35.12	10.33
300.0	69.66	61.72	74.57	79.99	55.11	46.59	56.46	66.10	104.9	176.5	500.6	738.9	357.8	418.1	724.6	 3446	9999.9	 3181	182.4	10.72	7.649	7.111	4.527	4.701	4.108	3.913	2.888	3.054	2.601	2.687	3.511	3.023	2.481	1.879	1.554	1.975	2.014	1.622	1.685	1.455	1.505	1.245	1.391	1.386	1.147	1.669	1.012	1.714	1.612	1.661	1.188	1.545	1.005	1.554	1.139	1.378	1.137	1.511	1.164	1.523	1.166	1.850	1.769	2.668	3.357	3.662	2.428	1.841	1.953	2.359	2.536	2.925	4.875	10.07	24.98	50.53	49.85
305.0	57.25	51.62	83.26	104.1	61.63	56.52	65.99	82.75	111.9	156.7	311.1	748.1	624.9	299.7	290.5	870.2	 4672	9999.9	 2509	91.70	10.71	7.748	5.714	4.943	4.617	3.980	3.431	3.355	2.983	3.055	3.071	3.233	2.535	2.006	1.481	1.877	1.868	1.544	1.934	1.733	1.442	1.393	1.268	1.401	1.440	1.543	1.243	1.353	1.290	1.474	1.361	1.170	1.353	1.295	1.265	1.250	1.504	1.560	1.638	1.366	1.554	1.762	1.863	2.074	2.278	3.249	4.217	2.934	2.157	1.747	1.603	1.617	2.279	3.360	6.638	17.74	36.99
310.0	54.16	62.01	91.15	106.6	78.18	71.21	78.24	99.50	125.1	174.1	261.7	463.9	750.2	592.7	253.2	289.6	 1145	 4471	 8771	 5403	165.1	12.14	7.476	5.758	4.942	3.600	3.952	3.458	2.915	3.323	2.829	3.002	2.669	2.409	1.802	1.694	1.893	1.711	1.854	1.577	1.567	1.383	1.431	1.580	1.388	1.590	1.355	1.262	1.213	1.358	1.364	1.485	1.515	1.464	1.563	1.194	1.412	1.373	1.527	1.543	1.990	1.636	2.000	1.987	1.901	2.323	2.854	3.295	3.574	2.943	2.213	1.617	1.745	1.526	2.545	4.827	9.854
315.0	66.81	70.90	109.6	109.8	71.71	78.18	83.59	115.8	139.7	193.9	265.9	373.2	465.3	731.5	523.6	205.2	323.2	 1040	 2607	 9023	 7455	222.5	10.66	7.516	5.792	4.232	4.320	3.546	3.009	2.945	2.943	3.253	2.493	2.601	2.412	2.030	1.676	1.977	2.227	1.406	1.559	1.685	1.266	1.317	1.274	1.230	1.409	1.335	1.315	1.253	1.080	1.577	1.313	1.731	1.412	1.408	1.711	1.342	1.393	1.549	1.922	1.647	1.839	1.926	1.839	2.009	2.348	2.171	2.541	3.409	3.712	2.938	1.962	1.297	1.859	2.258	3.225
320.0	53.98	65.10	110.5	118.3	78.36	89.63	90.40	121.6	169.7	209.0	284.8	349.2	395.2	543.7	726.6	306.1	148.5	284.1	624.4	 3403	9999.9	 2293	148.1	8.918	7.706	5.289	4.640	4.338	3.909	3.902	3.449	3.416	2.842	2.435	2.362	1.845	1.877	2.010	1.864	1.573	1.896	1.568	1.390	1.650	1.275	1.216	1.863	1.482	1.319	1.150	1.292	1.238	1.152	1.390	1.421	1.416	1.695	1.290	1.262	1.563	2.095	1.432	1.797	1.971	1.839	2.087	2.322	2.195	2.278	2.241	3.206	3.640	2.602	1.824	1.683	1.706	1.678
325.0	55.87	79.43	121.8	121.5	75.27	80.98	102.4	127.3	167.1	220.0	285.8	346.4	406.5	422.5	612.7	541.5	167.5	123.5	178.8	822.3	 4757	9999.9	 1963	78.58	8.192	6.464	4.146	4.373	4.446	3.807	3.285	3.089	2.790	2.063	2.176	1.684	2.012	1.642	1.463	1.506	1.529	1.524	1.730	1.347	1.464	1.548	1.498	1.423	1.645	1.275	1.115	1.058	1.194	1.340	1.288	1.434	1.423	1.839	1.440	1.597	1.698	1.953	1.918	2.036	1.968	2.039	2.326	2.202	2.189	2.060	2.330	3.123	3.330	3.057	2.141	1.528	1.282
330.0	55.52	75.84	117.1	129.8	105.7	96.90	113.6	139.0	179.5	233.1	315.9	369.4	408.8	403.1	409.1	502.5	407.5	156.4	96.05	224.1	 1139	 4366	 8119	 4954	131.7	10.67	6.542	5.654	4.521	4.072	2.934	3.157	2.755	2.449	2.604	2.013	1.893	1.782	1.708	1.837	1.635	1.623	1.551	1.374	1.454	1.563	1.424	1.314	1.447	1.359	1.346	1.325	1.341	1.623	1.503	1.817	1.396	1.704	1.648	1.608	1.847	1.989	1.803	1.823	1.912	2.251	2.199	2.087	2.138	2.225	2.203	2.314	2.582	2.497	2.966	2.419	2.125
335.0	66.78	78.11	121.2	136.5	116.5	111.2	127.5	140.0	189.2	239.7	327.2	381.6	402.0	414.9	367.8	330.1	417.4	379.1	123.2	101.8	295.6	 1008	 2530	 8893	 7138	179.9	9.252	6.808	5.879	4.211	4.728	3.598	3.263	2.542	2.507	2.158	2.065	1.995	1.513	2.180	1.696	1.742	1.190	1.782	1.516	1.478	1.311	1.330	1.508	1.205	1.422	1.488	1.411	1.206	1.756	1.694	1.532	1.544	2.204	1.779	1.858	2.307	1.946	2.309	1.970	2.010	2.260	1.984	2.164	2.596	2.427	2.237	2.155	1.759	2.037	2.636	3.401
340.0	61.73	76.23	123.2	144.7	130.4	134.5	139.3	169.5	207.5	247.7	341.5	376.0	429.8	417.0	355.0	290.5	287.9	436.0	262.7	97.69	119.7	268.1	604.0	 3502	9999.9	 5049	128.2	8.434	6.896	4.939	4.261	3.889	3.769	3.147	2.755	2.040	2.269	2.212	1.587	1.955	1.547	1.765	1.540	1.631	1.611	1.555	1.460	1.490	1.404	1.182	1.437	1.318	1.547	1.499	1.593	1.613	1.946	1.956	2.289	1.925	1.943	2.330	2.337	2.162	2.372	2.068	2.511	2.112	2.246	2.616	2.293	2.526	2.107	1.619	2.077	1.963	2.354
345.0	63.53	76.83	125.9	138.0	140.2	135.1	150.9	180.3	210.7	256.2	340.6	386.1	426.1	409.7	363.7	281.0	227.7	319.0	407.8	162.3	93.99	108.6	177.3	842.9	 5085	9999.9	 1626	65.22	8.292	6.683	5.054	3.857	3.831	3.100	2.569	2.513	2.161	1.926	2.136	1.658	1.932	1.821	1.554	1.556	1.949	1.513	1.394	1.707	1.351	1.273	1.575	1.586	1.446	1.618	1.608	1.464	1.838	1.747	1.901	2.066	1.810	2.372	1.984	2.234	2.261	2.155	2.215	2.436	2.058	2.780	1.951	2.032	1.860	1.985	2.068	1.942	2.009
350.0	60.21	76.57	123.4	133.5	159.9	155.1	157.2	188.4	217.7	258.8	308.3	375.6	403.1	393.0	363.3	287.1	229.0	218.6	322.3	327.6	163.2	97.33	96.29	232.5	 1242	 4630	 7814	 4429	110.9	9.730	6.656	4.422	4.111	3.190	2.746	3.031	2.455	2.180	1.969	1.787	1.932	1.769	1.473	1.532	1.524	1.577	1.428	1.855	1.678	1.586	1.360	1.653	1.580	1.833	1.550	1.495	1.463	1.756	2.010	2.008	1.941	2.105	2.352	2.361	2.319	2.125	2.321	2.369	2.303	2.431	2.195	2.231	1.657	1.968	1.749	2.015	1.836
355.0	58.38	77.87	122.0	141.8	170.5	174.6	167.6	201.8	224.7	259.3	306.6	360.3	400.5	406.5	368.3	304.2	249.9	210.7	226.0	299.0	334.3	155.8	100.5	111.6	325.5	 1068	 2606	 8464	 6076	152.5	8.345	5.988	5.005	3.528	2.572	2.982	2.778	2.522	2.366	1.901	2.234	1.923	1.759	1.535	1.738	1.801	1.672	1.742	1.630	1.446	1.573	1.764	1.559	1.763	1.621	1.698	1.669	1.524	1.946	2.272	2.269	1.997	2.324	2.469	2.121	2.433	2.601	2.154	2.272	1.977	2.115	2.526	1.805	2.161	1.803	1.990	2.134
360.0	63.98	73.11	122.3	157.9	165.3	182.7	189.3	197.4	234.7	267.5	313.9	346.3	381.0	385.7	357.5	308.9	255.4	228.5	209.6	228.5	354.5	272.8	128.1	96.72	133.6	284.1	625.1	 3570	 9935	 4366	102.0	8.037	5.351	3.893	2.924	3.270	2.775	2.945	2.336	1.957	2.421	2.012	1.422	1.674	1.865	1.589	1.888	1.810	1.298	1.327	1.868	1.587	1.829	1.771	1.785	1.823	1.914	1.807	1.666	1.921	1.886	2.321	2.361	2.120	2.262	2.248	2.602	2.207	1.940	1.813	2.373	2.708	2.085	2.271	1.648	1.918	2.030
365.0	52.03	67.19	126.6	155.2	178.1	201.7	188.2	212.1	239.6	266.9	306.7	343.6	382.5	386.7	354.4	317.3	265.3	241.7	221.7	211.5	273.4	361.8	211.5	114.0	106.2	121.3	181.7	871.9	 5080	9999.9	 1415	50.89	6.321	5.746	4.145	3.697	2.695	3.219	2.201	2.201	2.084	2.176	1.446	1.950	1.515	1.429	1.720	1.836	1.414	1.369	1.751	1.761	1.877	1.807	1.607	2.064	2.481	2.025	1.881	1.884	1.948	2.292	2.264	2.029	2.205	2.269	2.068	2.338	2.181	2.211	2.313	2.361	2.302	2.242	1.729	2.018	1.785
370.0	47.48	62.08	103.4	155.6	198.5	224.0	222.5	240.1	256.7	283.2	311.5	355.7	380.0	376.3	353.9	325.7	283.2	263.7	253.4	233.6	237.9	296.6	331.9	202.4	127.4	103.1	100.2	239.3	 1240	 4822	 7823	 4142	89.06	7.615	4.871	4.140	3.085	2.791	2.351	2.358	1.920	2.288	1.526	1.772	1.545	1.666	1.657	1.444	1.447	1.389	1.436	2.014	1.764	1.986	1.544	2.122	2.089	1.882	1.797	2.172	2.102	2.346	2.174	2.154	2.191	2.097	2.270	2.249	2.386	2.334	2.288	1.838	2.420	2.324	1.817	2.291	1.941
375.0	42.70	82.66	105.0	161.2	211.3	217.0	238.6	247.8	268.2	291.4	320.8	352.1	369.7	384.2	360.4	336.5	302.9	290.0	271.9	253.5	255.2	256.3	296.0	333.2	197.2	119.9	101.5	113.6	321.2	 1107	 2822	 8950	 5392	116.6	7.009	5.102	4.497	3.106	2.904	2.229	2.029	1.987	1.941	1.808	1.581	1.599	1.623	2.028	1.563	1.549	1.666	2.054	1.984	1.983	1.869	1.981	2.255	2.172	2.210	2.271	1.566	2.097	2.173	2.138	2.189	1.639	2.262	2.571	2.270	2.058	1.994	2.161	2.510	2.003	2.047	2.405	2.007
380.0	63.00	74.22	118.8	179.4	227.6	234.4	252.5	257.1	281.8	284.2	322.7	338.8	374.1	372.5	362.6	332.9	315.1	296.2	288.0	281.4	260.7	250.7	256.1	331.9	275.6	152.6	114.1	95.44	124.7	285.6	675.0	 4118	 9813	 1300	68.66	6.287	5.215	4.053	3.031	2.417	2.341	2.531	2.136	1.761	1.575	1.806	1.573	1.865	1.606	1.695	1.643	2.162	1.902	2.227	1.879	2.045	1.743	2.267	2.027	2.649	1.743	2.012	1.908	2.304	1.997	2.436	2.629	2.502	2.466	2.247	2.402	2.014	2.456	2.204	2.258	2.264	2.140
385.0	51.21	76.83	136.4	182.2	226.8	231.2	274.8	287.4	295.8	300.4	321.4	337.0	359.9	367.2	360.7	327.3	327.4	304.2	298.3	288.9	281.3	263.4	253.1	276.9	333.5	227.8	131.0	103.4	94.54	110.7	187.7	 1014	 5627	 8611	 1071	22.65	5.368	4.163	3.400	3.149	2.901	2.628	2.324	2.574	1.858	1.747	1.578	1.977	1.514	1.875	1.518	2.059	1.972	2.034	2.318	2.121	1.674	1.919	1.939	2.201	1.926	2.313	2.134	2.494	1.983	2.190	2.297	2.430	2.465	2.378	2.197	2.080	2.436	1.998	1.924	1.988	2.183
390.0	50.44	79.16	129.4	185.9	221.3	256.1	283.2	292.5	297.3	304.9	325.0	338.2	358.9	370.9	362.1	331.1	324.7	317.9	314.8	303.6	295.3	280.6	265.7	256.7	282.9	301.5	205.3	128.5	105.1	88.27	89.65	259.9	 1398	 4669	 7107	 2738	63.97	5.323	4.363	3.484	2.799	2.854	2.198	2.168	1.800	1.576	1.384	1.912	1.524	1.641	1.601	2.006	1.934	1.876	2.165	2.320	1.935	2.267	1.801	2.085	2.082	2.155	2.264	2.201	2.335	1.853	2.182	2.398	2.458	2.299	2.359	2.056	2.116	2.183	2.121	2.081	2.262
395.0	52.98	76.30	145.7	201.5	239.7	290.1	281.2	303.5	306.6	320.6	322.0	357.5	375.6	356.5	353.8	324.4	315.8	322.9	314.6	312.6	304.2	296.7	280.3	261.3	251.4	272.7	292.3	189.9	124.8	102.5	80.93	100.7	345.6	 1068	 2967	 7687	 3800	79.25	5.620	4.099	3.176	2.705	2.593	2.385	1.649	1.931	1.981	1.673	1.686	1.960	1.390	1.996	1.885	2.042	2.230	2.072	2.000	2.651	2.005	2.353	2.171	2.027	2.202	1.832	2.038	1.927	2.204	2.197	2.380	2.301	2.280	2.118	2.229	2.422	1.928	2.579	2.354
400.0	67.11	78.60	120.6	186.1	241.4	272.0	293.5	304.5	313.4	324.2	327.3	349.0	367.1	362.3	354.7	341.0	322.9	310.4	312.8	313.0	307.9	300.1	288.0	263.9	249.4	243.2	286.9	248.0	157.1	113.1	89.62	75.81	114.8	267.0	712.6	 4026	 7933	 1046	45.43	5.244	3.395	3.042	2.878	2.683	2.273	2.039	1.822	1.682	1.690	2.018	1.474	2.185	2.116	2.192	1.978	2.142	2.173	2.394	1.902	2.228	2.189	2.278	1.951	1.917	2.169	2.019	2.142	2.441	2.690	2.251	1.976	2.229	2.251	1.608	1.961	2.565	2.031
405.0	62.12	77.42	133.0	178.1	252.9	283.7	319.1	296.2	325.3	326.3	347.2	353.2	347.8	355.5	354.0	330.2	326.0	310.3	311.9	317.1	312.7	302.0	289.1	275.3	257.5	241.1	251.4	291.2	215.3	133.1	102.8	80.49	74.04	92.19	183.4	 1027	 5017	 6726	844.5	15.48	4.665	3.434	2.598	2.621	1.987	1.990	1.969	1.722	1.763	1.749	1.439	2.020	1.980	2.637	1.866	2.186	2.475	1.894	1.612	2.205	2.208	2.206	2.207	2.270	2.104	2.210	1.878	2.417	1.996	1.879	2.034	2.258	2.007	1.824	2.188	2.264	2.406
410.0	58.42	74.08	122.1	182.2	242.5	283.2	303.8	322.8	328.7	347.2	349.3	352.6	346.4	352.6	337.5	331.8	316.8	310.3	312.5	309.2	309.2	301.1	290.3	279.3	264.1	246.5	232.7	246.7	262.9	191.9	124.1	94.49	72.46	63.45	71.97	251.4	 1282	 4033	 5514	 2136	52.21	4.620	3.588	2.892	2.133	2.113	2.062	1.953	1.883	1.550	1.752	1.995	2.017	2.226	2.267	2.164	2.590	2.010	1.985	2.326	2.175	2.378	2.470	2.328	1.959	2.224	2.057	2.484	2.122	2.191	2.031	2.446	2.133	2.033	2.103	2.117	2.271
415.0	64.15	84.15	118.9	187.1	227.5	275.1	291.9	318.6	312.0	333.1	357.5	354.8	348.0	345.6	330.2	325.2	305.6	302.9	304.2	300.0	300.4	300.3	286.8	277.8	264.3	252.1	235.4	227.5	233.8	250.9	171.4	109.5	83.54	62.86	54.21	83.03	306.1	921.3	 2420	 6180	 2941	68.68	4.308	3.299	2.883	2.489	2.404	1.909	1.780	1.690	1.844	1.857	1.904	2.307	2.102	2.257	2.389	2.247	2.422	2.236	2.074	2.350	2.185	2.115	2.067	2.071	1.593	2.391	1.777	2.299	2.096	2.291	2.061	2.042	1.813	2.304	2.517
420.0	59.43	62.48	115.3	181.0	220.7	263.9	304.9	316.7	331.0	341.1	358.7	361.6	344.2	342.0	320.8	306.0	298.6	292.3	290.5	295.6	292.5	290.8	286.3	274.7	265.0	251.0	234.4	218.7	214.2	245.2	217.5	132.1	94.52	69.79	55.82	50.02	90.22	222.1	583.5	 3366	 6360	923.8	33.23	3.845	3.600	2.794	2.217	1.972	2.111	1.720	1.745	2.072	1.905	2.373	2.200	2.243	2.664	2.364	2.823	2.558	2.208	2.464	2.336	2.330	2.325	2.037	2.020	2.126	1.900	2.362	1.934	2.404	1.985	2.023	1.968	2.081	2.721
425.0	60.91	71.95	120.0	186.4	224.6	258.3	297.7	316.3	344.8	346.5	340.9	343.2	344.7	334.3	325.3	294.6	292.7	277.7	281.7	283.7	279.0	288.1	279.6	269.8	261.7	256.8	238.5	221.6	210.6	214.8	232.8	172.8	108.8	80.39	60.40	48.28	47.68	69.31	146.6	871.3	 4164	 5446	693.5	10.29	4.505	3.292	2.228	2.471	1.883	1.728	2.207	2.046	1.991	2.295	2.045	2.383	2.454	1.977	2.323	2.338	2.270	2.057	2.086	1.901	2.277	2.301	2.243	2.048	2.331	1.979	2.003	2.130	1.992	2.133	2.035	1.997	2.017
430.0	53.63	70.70	119.3	175.2	226.3	259.1	292.2	324.6	345.4	348.4	343.5	347.5	347.2	327.7	311.3	289.3	276.5	272.7	275.9	270.1	268.3	278.0	273.2	263.7	259.9	253.1	239.9	226.6	213.6	200.5	206.7	206.4	145.2	95.58	69.91	55.07	43.92	40.91	50.86	209.1	 1069	 3307	 4467	 1703	45.65	4.350	3.169	2.965	2.208	1.648	1.918	1.983	1.850	2.141	2.336	2.339	2.318	2.438	2.503	2.282	2.168	2.381	2.304	2.332	2.239	2.411	1.965	2.135	2.285	2.017	2.066	2.160	2.085	1.946	1.991	2.110	2.031
435.0	68.07	71.68	118.2	183.3	214.8	266.5	295.9	308.1	338.1	332.4	354.0	368.1	350.0	319.4	297.3	282.2	265.6	267.5	263.0	260.5	263.9	264.9	260.2	258.4	257.1	246.1	242.6	229.1	216.3	206.0	191.3	189.2	186.9	127.8	83.90	62.92	48.89	39.28	34.95	63.69	252.4	754.2	 2115	 5328	902.2	56.71	4.494	3.126	2.578	1.920	1.940	2.031	2.115	2.175	2.275	2.414	2.631	2.301	2.286	2.500	2.060	2.305	2.345	2.470	2.137	2.518	1.998	2.019	2.327	2.147	2.461	2.309	2.428	1.585	1.994	2.348	1.749
440.0	71.14	77.76	129.6	161.5	225.1	269.5	304.3	326.6	352.0	348.1	358.2	371.8	338.9	330.3	309.1	276.0	265.3	256.8	254.2	255.1	253.8	250.2	256.0	251.2	250.6	243.3	239.9	230.9	218.9	205.4	184.5	171.6	186.1	157.6	101.7	68.85	54.25	44.66	34.55	33.48	72.33	180.9	514.9	 3047	 5278	807.0	27.80	3.770	2.998	2.266	2.027	2.093	2.550	2.199	2.470	2.326	2.538	2.664	2.436	2.477	2.077	2.513	2.218	2.139	2.227	2.420	2.243	2.308	2.238	2.089	2.280	2.090	2.311	1.601	1.891	1.661	2.191
445.0	89.46	97.11	130.0	167.5	222.6	255.1	272.0	311.5	336.5	350.2	357.3	368.3	332.6	322.7	295.9	265.1	258.8	241.5	242.6	246.7	243.1	244.7	248.3	246.2	239.1	237.5	235.3	226.9	222.3	202.9	192.2	166.4	165.8	170.9	122.6	78.99	57.94	48.10	36.66	29.96	34.60	55.06	127.3	796.6	 3813	 4938	581.7	9.912	3.362	2.629	2.272	2.498	2.375	2.427	2.321	2.276	2.706	2.983	2.663	2.586	2.178	2.264	1.846	1.964	1.901	2.053	2.380	2.030	1.857	1.938	2.208	2.251	1.854	1.812	1.829	2.088	2.233
450.0	62.06	151.4	151.2	154.8	202.0	253.0	264.2	293.2	325.9	341.8	343.6	350.6	330.4	305.5	290.5	257.5	245.1	228.8	232.8	227.2	228.5	227.4	230.8	225.1	229.4	226.6	223.7	218.0	212.9	199.5	188.8	164.9	151.1	148.5	143.8	102.4	66.99	52.00	40.21	31.89	28.50	28.95	41.45	189.0	993.0	 3209	 4359	 1605	37.36	3.554	2.742	2.684	2.646	2.284	2.250	2.395	2.532	2.556	2.329	2.423	2.278	2.271	2.271	2.338	2.047	2.279	2.244	2.068	2.175	2.176	2.020	2.164	1.831	2.036	2.149	2.089	2.074
455.0	53.60	139.4	289.1	156.4	182.5	239.6	239.0	284.8	315.2	327.1	341.3	336.2	324.1	293.3	271.4	244.1	224.1	212.7	211.5	209.9	212.0	205.7	212.3	209.2	211.0	213.0	210.9	207.6	204.4	194.5	181.4	165.8	148.0	128.5	130.7	122.3	86.20	58.62	46.08	35.53	30.04	26.44	22.84	53.85	230.4	733.3	 2033	 4999	727.5	39.94	3.705	3.295	2.567	2.426	2.458	2.640	2.476	2.436	2.475	2.279	2.360	2.095	2.271	2.513	2.148	1.863	2.344	1.865	2.258	1.928	1.757	2.038	1.676	1.970	1.966	2.462	1.650
460.0	54.69	98.87	384.7	245.3	185.8	221.7	240.7	272.9	305.7	317.0	333.4	323.5	304.6	286.8	259.7	232.9	213.5	204.1	197.6	201.4	193.1	194.2	194.9	199.8	200.6	199.3	202.3	195.6	197.3	189.7	179.1	166.9	142.0	128.3	113.6	119.9	102.5	65.17	47.64	38.90	33.21	26.98	20.57	24.86	61.70	172.7	493.0	 2887	 4611	583.8	21.22	4.015	2.655	2.701	2.449	2.591	2.158	2.178	2.491	2.512	2.258	2.344	2.479	2.399	2.651	1.875	2.352	1.876	2.210	2.081	1.671	1.759	1.520	2.054	1.554	1.852	2.064
465.0	56.04	83.30	377.0	439.8	196.3	215.6	237.0	253.9	281.9	302.0	311.9	301.6	295.3	274.5	239.5	219.8	206.1	193.7	187.2	181.8	187.8	183.9	185.6	184.2	190.4	190.5	188.4	182.7	185.5	185.3	167.0	158.1	138.3	120.8	104.8	101.7	106.2	79.44	52.01	41.02	34.21	28.65	22.46	19.71	25.34	48.53	118.6	755.7	 3422	 3942	470.7	7.443	3.170	2.838	2.623	2.770	2.307	2.227	3.018	2.122	1.956	1.961	2.410	2.359	2.566	1.785	2.206	2.060	1.879	1.957	1.996	1.863	1.915	1.936	1.757	1.744	1.882
470.0	48.61	67.94	186.9	688.0	462.8	207.3	216.6	235.1	272.9	278.4	287.1	284.5	279.8	251.3	221.2	204.8	181.3	175.8	169.4	167.2	168.2	164.8	164.5	168.7	173.9	172.0	176.9	171.3	172.1	167.7	159.7	148.6	129.7	115.0	100.2	88.60	88.44	87.90	64.99	44.31	35.01	28.53	23.77	20.67	17.72	20.93	34.97	176.4	888.1	 2671	 3224	 1169	32.74	3.360	2.941	3.023	2.784	2.570	2.491	2.247	2.048	2.026	2.074	2.047	2.250	2.190	1.938	1.751	1.980	2.056	1.873	1.788	2.057	1.375	1.761	1.643	2.115
475.0	46.79	60.18	117.2	461.0	 1072	243.6	201.6	216.2	251.0	262.2	269.0	275.4	255.4	235.4	210.1	183.3	172.2	154.0	146.0	147.8	146.6	147.1	145.5	152.4	153.8	153.8	152.3	156.3	157.3	151.5	145.9	134.6	122.6	109.4	95.31	84.20	74.96	77.99	76.10	52.78	36.46	29.89	24.43	20.70	17.12	15.58	17.21	47.30	204.5	608.3	 1542	 3468	696.5	39.74	3.293	2.878	3.106	2.508	2.160	2.187	2.190	2.138	1.964	1.879	1.860	1.773	1.822	1.839	1.896	1.912	1.798	1.678	1.749	1.600	1.660	1.585	1.690
480.0	54.38	70.97	76.87	241.7	 1249	522.9	189.8	204.8	225.7	266.2	253.3	258.9	245.2	223.9	203.3	177.3	158.9	143.5	145.3	139.5	137.6	138.4	136.7	142.4	142.0	139.7	145.4	142.0	148.0	141.8	139.9	130.2	116.2	101.5	91.20	78.11	69.04	66.37	72.22	60.68	40.67	30.76	25.60	21.69	18.13	15.29	13.60	18.77	52.61	141.7	375.9	 1967	 3334	625.0	16.63	3.095	3.202	2.439	2.178	2.454	1.818	1.690	2.116	1.761	1.890	1.686	1.563	1.795	1.898	1.571	1.839	1.594	1.954	1.618	1.609	1.591	1.459
485.0	55.85	69.37	81.56	143.9	889.0	 1066	213.2	194.2	217.1	236.6	247.9	248.9	235.4	218.1	188.8	167.4	143.0	136.2	128.5	130.6	128.4	131.3	133.0	132.2	131.0	132.3	132.5	134.1	138.2	136.4	131.6	125.0	112.7	98.04	88.98	78.50	68.03	58.86	62.26	63.95	46.28	32.00	27.13	21.90	18.37	15.67	13.82	14.10	18.36	37.86	90.44	516.9	 2431	 3098	97.11	6.079	3.248	2.630	2.719	2.108	2.060	1.906	2.090	1.769	1.692	1.909	1.804	1.563	1.702	1.721	1.755	1.661	1.992	1.569	1.692	1.883	1.586
490.0	56.14	68.35	80.65	111.3	381.3	 1350	783.7	188.9	208.1	224.7	228.5	230.7	213.3	197.1	174.0	153.8	137.9	127.1	118.6	120.1	116.5	118.5	118.8	117.4	117.7	121.8	123.0	122.6	126.8	125.2	119.1	114.8	106.1	94.77	83.15	72.84	63.63	57.13	53.37	55.29	53.80	40.55	27.99	22.95	19.91	16.62	15.03	13.06	12.21	15.01	25.85	121.0	626.8	 1941	 2625	 1054	34.22	3.257	3.100	2.294	2.167	1.909	1.884	1.910	1.790	2.003	1.757	1.746	1.760	1.823	2.079	1.774	1.734	1.642	1.680	1.560	1.685
495.0	40.21	55.31	90.90	100.0	176.1	766.5	 1859	328.9	196.3	198.0	207.1	212.4	195.4	172.6	158.0	139.8	121.9	120.5	110.5	110.6	110.2	102.4	104.9	104.4	106.8	111.5	114.2	111.9	112.6	114.8	110.5	104.9	95.32	88.24	78.49	71.14	58.73	54.92	47.64	45.76	46.28	46.46	32.35	23.30	21.21	17.85	14.88	13.22	11.20	10.54	11.76	32.61	144.1	440.8	 1248	 3213	746.3	40.98	3.011	2.345	2.692	2.352	1.998	2.308	1.835	1.679	1.671	1.496	1.791	1.782	1.621	2.160	1.671	1.527	1.453	1.301	1.400
500.0	37.64	49.20	76.49	96.79	124.3	318.8	 1985	860.4	177.5	196.0	185.1	193.4	175.0	161.2	145.2	131.7	115.9	112.5	99.23	101.2	98.23	94.84	95.55	95.74	98.41	100.8	103.3	101.4	104.2	101.9	104.5	95.76	91.87	82.15	72.45	67.30	57.94	52.35	44.25	40.90	39.94	45.06	39.19	25.59	21.25	17.83	15.58	13.25	11.04	9.492	8.491	13.13	36.70	103.0	301.2	 1788	 3224	629.2	16.46	2.966	2.620	2.377	2.153	2.301	1.738	1.880	2.057	1.837	1.717	1.595	1.712	1.917	1.545	1.353	1.218	1.617	1.579
505.0	39.62	48.67	75.60	111.1	108.2	173.9	 1250	 1637	214.3	180.8	175.1	187.2	170.1	153.9	137.9	117.8	111.9	99.59	98.81	89.51	90.24	86.83	85.79	86.46	88.06	92.89	93.89	94.37	93.58	93.92	95.00	88.32	81.29	76.53	68.95	62.12	55.43	48.26	44.77	38.44	36.46	38.31	40.30	30.05	22.23	17.03	15.78	13.39	11.19	9.560	8.157	8.464	13.06	27.31	72.19	458.8	 2285	 2971	101.6	5.603	3.059	2.646	2.476	1.961	2.134	1.897	1.707	1.476	1.538	1.783	1.461	1.638	1.291	1.661	1.323	1.823	1.331
510.0	41.92	50.83	63.92	96.24	111.1	122.3	463.3	 1939	907.7	167.0	164.8	162.6	159.4	138.5	124.2	107.8	98.63	87.80	83.34	79.46	76.31	76.65	77.33	77.26	80.35	80.00	83.57	81.84	83.17	85.48	83.66	79.20	73.16	67.81	60.91	56.22	50.67	46.24	40.21	35.44	32.98	31.20	33.78	34.24	25.49	17.64	14.87	13.74	11.29	10.08	8.510	7.289	8.518	10.46	20.30	106.3	586.2	 1814	 2349	892.3	31.89	2.855	2.753	2.054	2.101	1.854	1.690	1.443	1.689	1.340	1.451	1.411	1.626	1.320	1.222	1.512	1.150
515.0	50.90	44.67	49.59	83.45	106.2	103.3	187.5	922.1	 2075	355.8	138.7	145.1	138.4	124.8	106.1	95.65	80.65	78.63	73.41	71.20	70.96	68.20	67.81	69.58	69.17	72.56	71.66	70.68	73.31	74.21	71.56	68.12	64.42	59.48	54.17	48.69	45.34	42.41	36.10	33.44	29.73	26.70	26.58	29.96	28.53	21.32	15.32	13.52	11.73	9.750	8.911	7.784	6.953	7.054	8.091	27.59	134.5	411.2	 1058	 2651	715.1	34.38	2.780	2.029	1.808	1.867	1.446	1.671	1.236	1.416	1.417	1.483	1.619	1.153	1.288	1.472	1.094
520.0	59.60	53.83	32.65	67.67	113.4	98.60	126.1	344.6	 2071	985.8	131.9	131.4	134.7	115.7	96.08	88.25	78.92	74.10	69.01	65.24	62.21	60.99	61.65	62.17	63.85	64.39	65.41	64.02	64.26	70.17	63.13	62.53	58.71	55.27	49.55	45.96	38.57	36.01	34.66	30.50	27.49	25.36	25.14	24.71	27.94	24.98	16.76	12.68	10.67	10.23	8.924	7.189	6.157	6.122	5.945	10.40	33.16	95.40	254.6	 1437	 2488	560.4	11.83	2.305	2.093	1.824	1.755	1.769	1.520	1.010	1.699	1.075	1.509	1.132	1.389	1.527	1.277
525.0	50.49	53.61	45.63	69.54	109.3	114.5	98.37	159.7	 1225	 1910	206.0	114.9	117.5	109.3	91.85	79.86	72.89	66.07	60.77	59.45	53.87	58.89	54.17	54.33	58.02	58.34	56.53	57.38	59.93	59.84	59.41	56.13	54.80	47.68	44.33	41.02	36.05	34.37	31.73	28.50	26.34	23.14	22.24	20.15	22.93	25.65	19.04	12.28	11.26	9.428	8.569	6.919	6.625	5.766	5.346	6.491	10.94	24.87	60.09	364.0	 1692	 2180	98.37	4.151	2.594	2.076	1.646	1.584	1.863	1.429	1.487	1.275	1.141	1.038	1.207	1.288	1.379
530.0	40.55	50.66	51.59	61.11	86.83	124.5	93.10	105.8	404.7	 1941	 1200	121.0	98.09	93.18	81.93	69.21	62.93	57.20	55.84	51.04	49.98	53.11	49.69	49.60	48.48	50.32	49.98	49.31	50.80	51.41	51.38	49.98	47.42	44.28	40.31	36.46	33.67	31.11	28.98	25.55	23.67	21.28	19.68	18.08	17.35	20.80	21.47	15.07	10.94	8.926	7.795	6.934	6.617	5.680	5.035	5.405	6.173	8.695	16.66	84.29	426.9	 1297	 1687	418.4	27.18	2.317	1.840	1.618	1.682	1.551	1.583	1.141	1.142	1.189	1.162	1.214	1.303
535.0	36.75	48.76	46.70	48.05	62.95	107.4	104.3	93.43	160.1	790.2	 2451	404.2	87.19	89.44	72.67	61.42	55.06	55.69	46.94	46.46	43.35	43.18	41.04	42.27	43.64	42.43	45.11	43.94	46.04	45.79	44.03	42.90	42.15	37.26	36.56	31.80	30.02	29.41	26.74	22.61	20.50	19.42	18.32	15.72	14.46	15.52	16.88	17.98	12.32	9.216	7.581	6.833	6.129	5.722	5.323	5.608	4.730	5.261	6.712	21.73	97.46	293.2	738.0	 1831	643.7	23.93	2.193	1.535	1.385	1.588	1.255	1.344	1.406	1.441	1.429	1.315	1.198
540.0	47.42	39.75	57.95	49.36	58.58	79.64	117.5	76.97	103.8	266.2	 2243	995.6	85.25	81.87	66.16	59.64	50.34	43.05	43.36	40.81	38.64	39.47	37.11	39.25	39.93	37.47	38.96	40.13	39.69	42.60	38.58	37.96	36.82	33.46	30.80	28.66	26.80	25.50	22.76	21.96	19.04	17.86	16.12	14.56	12.63	13.39	14.22	17.95	14.10	9.723	7.193	6.648	6.061	5.514	5.606	5.225	5.178	4.368	4.245	7.469	24.34	67.44	175.6	984.2	 1800	452.7	7.334	1.779	1.424	1.338	1.608	1.388	1.496	1.233	1.351	1.213	1.148
545.0	56.14	38.17	50.98	46.01	52.56	63.06	122.8	80.32	75.67	118.5	 1149	 2201	182.2	71.73	62.59	50.19	44.19	40.18	41.08	34.88	34.92	34.21	33.98	34.13	33.27	34.22	35.67	36.19	34.55	35.93	34.15	33.78	31.99	29.66	26.78	25.78	24.63	22.91	21.40	18.10	17.54	16.83	15.36	13.33	12.21	12.12	11.92	14.30	14.93	10.37	6.826	6.443	5.705	4.716	4.890	4.507	5.009	4.581	3.501	4.266	7.713	17.40	41.87	250.4	 1224	 1529	89.08	2.687	1.657	1.502	1.322	1.073	1.373	1.024	1.235	1.023	1.199
550.0	49.18	41.58	58.97	40.60	46.56	58.44	93.89	103.9	68.13	76.38	348.0	 2008	 1157	72.86	50.39	45.78	39.36	36.56	34.29	33.47	30.65	30.25	30.09	29.17	27.87	30.15	30.03	29.61	29.33	30.96	29.48	28.87	28.21	25.55	22.94	21.66	19.82	19.12	17.07	16.00	14.83	13.88	12.91	11.79	11.22	10.25	10.08	10.26	12.22	11.38	7.851	6.219	4.996	4.463	4.266	4.104	4.314	4.173	3.404	3.269	3.823	5.886	11.48	57.80	311.9	936.6	984.0	355.8	18.52	1.640	1.623	1.185	1.283	1.456	1.114	1.001	1.256
555.0	45.05	49.44	42.34	40.06	43.67	47.71	60.88	108.5	80.22	61.69	120.0	713.3	 2246	345.7	44.13	39.71	34.12	30.52	27.80	28.71	26.83	26.89	24.89	24.88	24.42	25.46	24.36	25.14	24.17	23.86	24.83	25.47	22.92	20.88	19.73	18.36	17.07	16.49	15.53	14.73	12.61	11.18	10.61	9.761	8.881	9.367	8.396	7.914	8.133	9.817	8.676	6.285	4.355	4.142	4.129	3.867	3.924	3.468	3.392	3.006	2.634	3.284	4.643	14.52	71.34	212.3	496.5	 1234	459.8	12.07	1.467	1.442	1.364	1.285	1.170	1.463	1.336
560.0	52.03	40.25	46.82	43.84	37.38	40.11	47.95	90.52	88.88	57.42	66.81	216.9	 1902	789.4	43.99	36.70	29.34	26.77	25.12	23.50	22.88	22.56	20.91	22.51	20.87	20.95	22.38	22.41	21.10	20.82	20.23	20.21	18.63	18.44	16.21	16.44	14.74	13.75	12.96	12.22	11.13	10.82	9.294	8.369	8.204	7.796	7.284	6.744	6.009	7.390	8.196	6.991	4.714	3.982	3.769	3.599	3.463	3.571	3.170	2.975	2.859	2.769	2.709	5.068	17.62	48.93	120.8	705.7	 1130	96.67	4.071	1.597	1.254	1.391	1.521	1.315	0.966
565.0	45.85	39.58	49.81	43.41	36.29	41.17	40.97	72.02	93.08	54.32	58.52	86.42	909.7	 1963	119.1	31.31	24.27	23.98	22.62	21.87	20.16	18.36	19.77	20.20	19.48	17.04	17.77	18.66	18.63	18.09	17.57	17.77	17.00	16.34	14.83	13.86	13.93	11.78	11.58	10.50	9.613	9.922	8.394	8.237	7.024	7.043	6.804	5.737	5.304	5.619	6.526	7.003	4.715	3.763	3.382	2.989	3.115	3.126	2.845	3.250	2.526	2.075	1.937	2.840	5.636	12.14	28.79	187.2	812.4	780.1	72.20	1.927	1.454	1.417	1.531	1.389	1.265
570.0	48.64	33.34	37.74	34.15	38.89	34.92	33.41	43.00	90.33	67.64	47.28	53.35	258.0	 1704	883.5	32.73	21.47	21.20	18.48	17.81	15.79	15.76	16.01	15.93	16.02	15.00	15.06	15.41	15.71	15.32	14.67	14.33	13.74	13.39	11.95	11.40	11.27	10.08	9.174	8.523	8.099	7.603	7.049	6.970	6.356	6.003	5.541	4.925	4.832	4.473	4.744	5.703	5.212	3.665	2.718	2.819	2.501	2.566	2.426	2.597	2.641	2.501	1.897	2.223	2.833	4.223	7.902	43.18	212.1	559.6	670.5	220.2	9.784	1.275	1.422	1.159	1.316
575.0	41.00	39.19	40.03	34.13	28.76	30.04	31.68	39.32	58.10	92.92	38.21	44.95	86.59	560.9	 1687	235.6	19.04	17.64	16.70	15.01	13.31	14.38	12.72	12.41	12.78	13.10	12.34	12.66	12.90	12.98	13.19	11.39	11.66	10.38	9.961	9.126	9.565	8.156	7.675	7.044	6.688	5.914	5.327	5.360	5.430	4.835	4.993	4.013	4.299	3.347	3.790	3.824	5.037	4.152	2.900	2.288	2.469	2.311	2.449	1.908	2.322	2.354	1.926	1.912	1.800	2.229	2.961	10.83	48.72	127.8	340.2	732.2	101.1	5.972	1.018	1.020	1.041
580.0	53.87	38.37	34.68	30.10	37.59	30.12	32.23	31.39	39.46	85.10	54.61	39.48	46.57	158.5	 1382	579.2	19.21	14.31	14.10	14.07	11.57	11.66	10.01	11.91	10.88	10.61	11.64	11.38	10.72	10.92	9.439	10.76	9.098	9.603	9.221	7.799	8.070	7.868	6.369	6.243	6.330	5.580	4.989	4.973	4.900	4.655	4.142	3.923	3.476	2.932	3.198	3.114	3.477	4.345	3.297	2.436	2.630	2.128	2.029	1.733	1.944	2.045	2.308	1.547	1.890	1.794	1.921	3.636	11.98	29.88	84.78	442.8	625.5	81.96	2.312	1.358	1.071
585.0	36.57	31.91	30.94	38.21	32.73	28.81	34.09	29.05	30.47	70.70	75.01	38.46	42.89	56.30	664.3	 1403	76.37	14.31	12.92	11.02	11.03	9.935	10.38	9.410	9.717	9.012	9.819	9.363	8.981	9.415	8.882	8.992	8.239	8.253	7.626	6.839	6.304	6.137	5.729	5.627	5.157	4.791	4.725	4.621	3.871	3.321	3.750	3.316	3.472	3.124	2.834	2.579	2.958	3.976	3.576	2.479	2.277	2.219	2.045	1.778	1.992	1.842	2.011	1.851	2.156	1.501	1.696	1.963	4.166	7.865	20.34	120.3	494.8	500.2	54.42	1.563	1.298
590.0	40.61	39.47	32.62	37.13	30.93	28.87	28.07	25.06	26.02	48.42	87.26	49.21	34.90	35.81	184.9	 1186	644.0	16.65	12.58	10.69	10.50	10.24	8.935	8.798	8.266	8.024	8.897	8.255	7.720	8.506	7.402	7.885	6.846	7.050	6.054	6.262	5.452	5.548	5.088	4.983	4.526	4.511	4.129	4.170	3.526	3.517	3.677	3.055	2.821	2.669	2.547	2.382	2.486	2.760	3.406	3.071	2.322	2.265	1.894	1.710	1.529	1.623	1.625	1.632	1.984	1.468	1.476	1.467	2.093	2.891	6.041	28.02	133.3	355.3	398.7	64.04	5.393
595.0	38.73	35.93	33.72	34.17	27.31	29.09	22.75	22.25	29.08	35.58	68.50	67.57	34.46	29.90	58.15	395.0	 1273	142.8	11.55	11.63	9.873	8.007	7.756	6.845	7.718	6.955	7.579	6.323	6.690	6.764	6.539	6.581	5.834	6.545	5.284	4.839	5.363	4.424	4.496	4.107	3.495	3.388	3.341	4.000	3.154	2.996	3.051	2.710	2.344	2.602	1.987	2.405	2.100	1.808	2.651	3.052	2.613	2.049	1.674	1.628	1.235	1.447	1.861	1.785	1.577	1.415	1.514	1.318	1.523	1.742	2.680	7.473	30.72	81.86	212.3	429.8	90.91
600.0	34.19	36.28	33.75	31.02	28.12	33.51	24.91	21.64	25.77	28.31	43.95	82.47	36.36	30.65	32.46	107.1	 1045	424.2	11.43	10.25	8.213	7.424	7.363	6.472	6.367	7.584	5.712	5.919	6.295	5.951	5.962	6.277	4.817	5.630	5.066	4.606	4.729	3.860	4.182	3.737	3.387	3.258	2.963	3.181	2.671	2.496	2.598	2.205	1.909	1.777	2.073	2.230	2.066	1.827	1.923	2.613	2.550	2.481	1.798	1.760	1.597	1.603	1.688	1.514	1.630	1.973	1.573	1.186	1.393	1.760	1.660	2.583	7.815	19.86	54.32	278.3	373.2
605.0	38.24	37.21	38.48	26.33	22.23	35.15	23.54	22.12	21.35	26.00	34.65	74.47	46.74	24.63	22.30	35.71	481.9	970.9	47.76	7.917	7.326	6.415	6.770	6.607	6.789	6.039	4.286	6.516	5.854	5.641	6.009	4.676	4.373	5.247	4.313	3.806	4.577	3.752	3.488	3.315	3.009	3.683	2.606	2.853	2.551	2.458	2.583	1.818	1.861	1.740	1.681	1.714	1.694	1.550	1.677	2.171	2.087	2.262	1.729	1.600	1.208	1.415	1.561	1.263	1.404	1.838	1.619	1.495	1.565	1.585	1.576	1.466	2.684	5.647	13.09	78.17	306.0
610.0	34.99	43.52	36.33	29.71	29.95	27.13	20.02	22.47	22.23	25.33	29.69	54.03	62.68	27.97	21.51	19.01	130.1	842.1	450.4	10.19	6.672	6.074	5.974	5.804	5.471	5.142	4.988	5.561	4.945	5.120	5.479	4.113	4.097	4.370	4.056	3.800	3.841	3.614	3.055	2.700	3.119	2.879	2.443	2.657	2.155	2.153	2.168	1.878	1.786	1.690	1.581	1.568	1.450	1.749	1.424	1.725	1.760	2.067	1.903	1.530	1.598	1.551	1.501	1.379	1.560	1.558	1.507	1.700	1.479	1.552	1.335	1.249	1.545	2.326	3.920	18.55	84.12
615.0	33.17	37.84	37.58	31.97	26.19	23.57	23.51	19.81	23.63	23.64	23.81	38.67	60.86	34.30	20.36	15.67	37.84	288.2	925.8	101.1	7.249	5.920	4.499	4.800	4.808	4.177	4.347	4.430	4.330	4.795	4.860	4.707	3.781	3.556	4.075	3.495	2.933	3.407	3.238	2.868	2.689	2.433	2.298	2.123	1.629	1.736	1.634	2.005	1.810	1.426	1.571	1.569	1.440	1.900	1.447	1.784	1.923	1.832	2.110	1.863	1.514	1.535	1.413	1.325	1.469	1.483	1.501	1.185	1.369	1.421	1.362	1.018	1.155	1.349	1.768	4.843	19.64
620.0	40.61	35.61	29.56	34.41	35.88	23.82	22.97	15.35	19.76	24.25	26.89	27.55	56.83	50.04	18.88	13.10	14.46	76.95	789.5	336.0	8.442	6.007	4.702	5.464	4.291	4.268	3.565	3.932	4.195	5.166	4.311	3.729	3.443	3.377	3.500	3.172	2.993	3.177	2.789	3.038	2.054	2.101	1.962	1.904	1.903	1.866	1.643	1.862	1.680	1.411	1.576	1.263	1.478	1.598	1.343	1.419	1.603	1.524	2.083	1.701	1.451	1.450	1.436	1.505	1.457	1.388	1.248	1.122	1.226	1.436	1.153	1.130	1.121	1.316	1.257	2.030	5.534
625.0	34.03	33.35	33.60	35.75	29.60	25.05	24.77	17.89	23.57	21.04	25.47	29.41	39.69	57.54	23.04	13.07	10.72	24.86	388.0	763.1	33.04	5.959	5.275	4.638	3.337	4.505	3.994	3.946	3.523	4.494	3.884	4.222	3.195	3.096	3.434	2.616	2.927	2.771	2.690	2.547	1.922	2.061	2.123	1.849	1.794	2.098	1.524	1.876	1.437	1.369	1.236	1.177	0.872	1.461	1.275	1.350	1.322	1.539	1.604	1.789	1.657	1.565	1.386	1.416	1.331	1.166	0.801	1.191	1.320	1.431	1.229	1.212	1.015	1.156	0.813	1.624	2.196
630.0	33.94	46.26	33.67	30.10	24.64	20.48	20.90	19.62	20.86	20.77	23.91	24.62	31.36	52.53	32.87	14.00	11.23	12.47	104.3	705.4	347.7	7.661	4.411	4.359	3.541	3.931	4.386	3.256	3.497	3.347	3.216	3.288	3.021	2.934	2.760	2.620	2.802	2.985	2.411	2.489	1.968	1.721	1.933	1.851	1.562	1.874	1.609	1.536	1.300	1.256	1.203	1.200	1.131	1.362	1.142	1.318	1.311	1.380	1.266	1.688	1.641	1.538	1.187	1.179	1.324	1.085	1.189	0.945	1.233	1.261	1.343	1.133	1.034	1.088	1.007	1.393	1.372
635.0	27.07	37.50	37.25	32.88	26.77	27.98	26.61	15.88	19.07	22.29	22.68	23.52	26.85	40.21	45.38	15.49	9.622	8.857	28.93	250.8	735.9	70.84	4.642	3.896	3.069	3.910	3.344	2.546	3.700	2.795	3.140	3.557	2.746	2.450	2.619	2.394	2.406	2.651	2.182	2.441	1.995	2.167	1.902	1.538	1.665	1.631	1.521	1.476	1.163	1.159	1.178	1.082	1.306	0.944	0.999	1.308	1.264	1.189	1.182	1.438	1.315	1.526	1.148	1.144	1.334	0.793	1.127	1.249	0.953	1.337	1.391	1.159	1.261	0.996	1.139	1.078	1.052
640.0	37.20	34.96	36.62	27.20	19.57	20.45	23.01	18.75	18.12	17.25	21.51	23.15	23.71	30.79	44.73	21.01	10.46	8.263	12.37	67.65	659.0	262.4	5.386	3.621	3.408	3.544	3.090	3.117	3.365	3.118	3.442	3.501	2.699	2.448	2.643	2.286	2.376	2.116	2.009	2.166	1.656	2.073	1.805	1.691	1.642	1.534	1.616	1.438	1.402	1.156	1.424	1.482	1.160	1.165	1.094	1.197	1.083	1.182	1.446	1.161	1.042	1.327	1.350	1.178	1.294	1.147	1.143	1.021	1.061	1.274	0.972	1.084	1.403	0.823	0.929	0.928	1.191
645.0	44.14	34.94	37.45	31.48	25.80	19.97	19.48	22.68	16.47	20.76	24.74	26.34	24.45	23.15	40.70	26.24	11.18	8.160	7.457	19.67	346.8	597.6	21.40	4.322	3.886	3.102	3.218	2.636	3.286	3.217	2.894	3.025	2.473	2.472	2.861	2.595	2.308	2.225	2.266	1.944	2.009	1.961	1.872	1.702	1.637	1.546	1.585	1.158	1.287	1.208	1.139	1.316	1.202	1.048	1.222	1.319	1.090	1.119	1.189	1.006	1.064	1.319	1.356	1.007	1.098	1.002	1.203	1.034	0.972	1.212	1.176	0.977	1.361	1.005	1.038	0.929	0.953
650.0	43.27	41.49	38.87	30.34	23.05	20.83	19.02	19.30	18.24	17.68	23.51	24.28	23.98	23.73	28.13	34.56	10.00	7.556	6.332	8.307	107.9	684.4	136.4	4.170	3.493	2.610	3.438	2.507	2.935	2.902	2.815	3.024	2.457	2.687	2.711	2.793	2.221	2.700	2.215	1.924	2.114	1.734	1.493	1.346	1.593	1.325	1.535	1.344	1.408	1.028	1.005	1.029	1.236	1.132	1.327	1.248	1.506	1.140	1.275	1.144	1.163	1.216	1.340	1.138	1.106	1.105	1.067	0.966	1.232	0.900	1.363	1.149	1.097	1.067	0.924	0.999	1.012
