Sample:	'1
File name:	w2025091005º«ÐÅ¹µ Ï¡ÊÍ5±¶.FD3
Run date:	'15:02:54, 09/11/2025
Operator:	Administrator
Comment:	'

Instrument
Model:	F-2700 FL Spectrophotometer
Serial number:	23C7-004
ROM Version:	4J14000 07

Instrument parameters
Measurement type:	3-D scan
Data mode:	Fluorescence
EX  Start WL:	220.0 nm
EX  End WL:	600.0 nm
EX Sampling interval:	5.0 nm
EM  Start WL:	230.0 nm
EM  End WL:	650.0 nm
EM Sampling interval:	5.0 nm
Scan speed:	12000 nm/min
EX Slit:	5.0 nm
EM Slit:	5.0 nm
PMT Voltage:	700 V
Response:	Auto 
Corrected spectra:	Off
Contour interval:	50.000

Peak integration
Integration method:	Rectangular
Sensitivity:	1
Threshold:	1.000

Peaks
No.	ApexEX/EM(nm)	Height(Data)
1	225.0/620.0	70.33
2	230.0/340.0	4260
3	235.0/260.0	345.1
4	240.0/265.0	376.7
5	240.0/525.0	279.7
6	245.0/270.0	357.2
7	250.0/275.0	460.9
8	250.0/455.0	1195
9	250.0/550.0	180.3
10	255.0/285.0	523.6
11	255.0/560.0	141.2
12	260.0/290.0	513.8
13	260.0/575.0	107.6
14	265.0/295.0	677.1
15	265.0/590.0	86.83
16	270.0/605.0	85.56
17	275.0/615.0	122.6
18	280.0/625.0	123.9
19	285.0/320.0	2615
20	285.0/335.0	2578
21	285.0/640.0	114.7
22	325.0/370.0	533.4
23	330.0/375.0	510.5
24	335.0/380.0	496.5
25	350.0/400.0	436.2
26	430.0/505.0	29.12
27	440.0/520.0	19.65
28	455.0/540.0	10.55
29	465.0/555.0	6.708
30	475.0/340.0	12.39
31	505.0/275.0	2.569
32	510.0/280.0	3.170
33	510.0/455.0	4.688
34	515.0/285.0	3.231
35	525.0/290.0	2.928
36	535.0/295.0	4.157
37	575.0/320.0	13.32
38	575.0/335.0	13.01
39	580.0/325.0	13.40

Data points
	220.0	225.0	230.0	235.0	240.0	245.0	250.0	255.0	260.0	265.0	270.0	275.0	280.0	285.0	290.0	295.0	300.0	305.0	310.0	315.0	320.0	325.0	330.0	335.0	340.0	345.0	350.0	355.0	360.0	365.0	370.0	375.0	380.0	385.0	390.0	395.0	400.0	405.0	410.0	415.0	420.0	425.0	430.0	435.0	440.0	445.0	450.0	455.0	460.0	465.0	470.0	475.0	480.0	485.0	490.0	495.0	500.0	505.0	510.0	515.0	520.0	525.0	530.0	535.0	540.0	545.0	550.0	555.0	560.0	565.0	570.0	575.0	580.0	585.0	590.0	595.0	600.0
230.0	142.8	1891	2180	269.1	9.396	4.984	3.424	3.153	2.872	2.390	2.321	2.506	2.028	2.014	1.547	1.350	1.419	0.995	0.879	0.784	0.669	0.643	0.596	0.505	0.540	0.482	0.434	0.483	0.410	0.427	0.331	0.318	0.380	0.304	0.268	0.222	0.243	0.176	0.217	0.226	0.456	0.648	0.525	0.257	0.193	0.316	2.206	6.682	7.391	4.666	0.874	0.211	0.091	0.126	0.142	0.121	0.135	0.142	0.100	0.120	0.130	0.108	0.121	0.134	0.121	0.102	0.126	0.105	0.145	0.168	0.121	0.107	0.108	0.119	0.103	0.122	0.139
235.0	133.0	552.2	1926	1997	326.6	8.802	4.037	3.886	3.708	2.806	2.912	2.904	2.090	1.737	1.628	1.428	1.265	1.146	0.740	0.747	0.729	0.674	0.589	0.549	0.508	0.446	0.410	0.463	0.392	0.499	0.366	0.394	0.388	0.299	0.243	0.206	0.218	0.224	0.158	0.225	0.296	0.352	0.684	0.547	0.356	0.390	0.639	1.836	3.649	6.816	8.936	5.410	1.628	0.257	0.126	0.118	0.154	0.122	0.114	0.119	0.111	0.111	0.143	0.176	0.151	0.102	0.101	0.109	0.190	0.124	0.100	0.112	0.117	0.108	0.130	0.103	0.112
240.0	243.9	189.2	662.1	2342	2181	248.1	5.571	4.059	3.855	3.168	2.483	2.715	2.460	1.968	1.756	1.472	1.387	1.148	0.923	0.772	0.857	0.782	0.509	0.511	0.544	0.445	0.485	0.432	0.339	0.479	0.300	0.389	0.340	0.271	0.288	0.262	0.223	0.227	0.179	0.186	0.225	0.232	0.346	0.477	0.703	0.691	0.332	0.554	0.971	2.389	6.881	11.10	8.950	4.448	1.158	0.179	0.105	0.109	0.138	0.126	0.196	0.127	0.117	0.117	0.161	0.118	0.116	0.203	0.123	0.101	0.099	0.085	0.176	0.147	0.072	0.130	0.168
245.0	212.7	247.2	188.1	949.7	3357	1841	148.0	5.572	4.761	3.958	2.502	3.220	2.558	2.321	1.871	1.679	1.560	1.022	0.988	0.948	0.840	0.737	0.658	0.583	0.530	0.433	0.370	0.438	0.410	0.413	0.405	0.337	0.256	0.277	0.319	0.210	0.214	0.181	0.230	0.147	0.219	0.206	0.217	0.282	0.446	0.825	0.750	0.581	0.398	0.679	1.895	4.536	8.728	11.80	10.33	3.555	0.749	0.172	0.133	0.175	0.176	0.135	0.097	0.154	0.114	0.168	0.106	0.114	0.139	0.112	0.110	0.112	0.080	0.164	0.091	0.127	0.122
250.0	83.19	226.8	253.4	275.2	1267	2542	2458	664.7	26.73	5.681	4.027	3.419	2.353	2.692	1.840	1.766	1.705	1.230	0.948	0.868	0.865	0.807	0.753	0.667	0.603	0.460	0.425	0.458	0.452	0.450	0.383	0.347	0.348	0.245	0.321	0.254	0.224	0.248	0.224	0.205	0.197	0.198	0.179	0.229	0.260	0.401	0.602	0.833	0.887	0.694	0.734	1.178	2.349	4.750	8.794	11.82	14.14	9.692	3.809	0.736	0.210	0.134	0.124	0.127	0.143	0.128	0.104	0.170	0.131	0.101	0.130	0.092	0.103	0.130	0.174	0.119	0.144
255.0	36.43	72.80	223.9	318.9	331.5	681.0	2664	4234	268.1	19.07	5.859	4.128	3.037	2.988	2.315	1.894	1.798	1.341	1.190	0.736	0.915	0.817	0.631	0.647	0.550	0.551	0.437	0.374	0.435	0.541	0.431	0.435	0.374	0.252	0.296	0.297	0.180	0.224	0.187	0.243	0.204	0.199	0.242	0.163	0.232	0.224	0.268	0.314	0.496	1.008	1.184	1.065	0.776	1.215	2.128	3.149	7.465	16.29	21.29	14.27	4.793	0.684	0.151	0.135	0.129	0.124	0.105	0.145	0.126	0.135	0.116	0.141	0.113	0.120	0.133	0.176	0.110
260.0	23.34	24.16	95.37	345.1	261.5	182.0	864.7	4426	4769	210.0	9.571	6.155	4.357	3.363	2.491	2.040	2.128	1.507	1.399	0.896	1.120	0.958	0.702	0.569	0.554	0.440	0.436	0.413	0.477	0.525	0.516	0.467	0.380	0.322	0.329	0.270	0.222	0.219	0.201	0.206	0.157	0.278	0.251	0.197	0.173	0.187	0.191	0.205	0.280	0.460	0.905	1.686	1.195	0.741	0.632	0.905	1.955	4.876	12.18	21.82	22.98	12.95	2.889	0.224	0.167	0.170	0.118	0.183	0.234	0.153	0.112	0.167	0.171	0.176	0.148	0.187	0.159
265.0	17.56	17.80	35.77	176.6	376.7	160.4	220.2	1654	6220	1887	151.0	9.782	4.818	4.171	3.103	2.074	2.521	1.436	1.178	0.869	1.020	0.856	0.776	0.660	0.607	0.556	0.427	0.435	0.616	0.544	0.410	0.419	0.445	0.365	0.306	0.246	0.264	0.220	0.172	0.214	0.173	0.219	0.232	0.182	0.170	0.198	0.100	0.178	0.207	0.223	0.376	0.937	1.635	1.731	0.877	0.402	0.577	1.328	3.147	7.814	19.06	31.22	23.85	9.523	1.190	0.187	0.151	0.157	0.169	0.153	0.132	0.178	0.135	0.144	0.120	0.173	0.211
270.0	26.17	24.61	21.36	55.60	211.4	357.2	208.5	408.7	2094	5218	4034	671.8	29.73	5.750	3.981	2.589	2.827	1.807	1.441	1.298	1.299	1.077	0.853	0.757	0.673	0.557	0.525	0.493	0.545	0.497	0.412	0.420	0.433	0.344	0.337	0.240	0.272	0.279	0.313	0.201	0.226	0.208	0.252	0.186	0.217	0.208	0.140	0.164	0.169	0.172	0.196	0.346	0.642	1.153	1.528	1.737	1.179	0.756	0.931	1.917	4.933	10.99	19.08	24.39	26.84	15.90	6.876	1.140	0.213	0.168	0.143	0.185	0.162	0.134	0.143	0.135	0.175
275.0	78.23	52.51	33.02	25.84	61.79	192.9	460.9	251.3	503.2	1347	4171	9726	856.4	22.19	5.724	3.781	3.339	2.166	1.846	1.481	1.347	1.101	1.054	0.694	0.792	0.598	0.672	0.540	0.514	0.641	0.462	0.459	0.438	0.377	0.382	0.412	0.312	0.383	0.335	0.216	0.282	0.338	0.332	0.277	0.365	0.295	0.259	0.225	0.209	0.212	0.161	0.188	0.284	0.430	0.596	1.110	2.150	2.569	1.365	0.767	1.297	2.647	4.583	6.331	12.38	26.74	40.67	23.47	7.637	0.957	0.200	0.280	0.185	0.122	0.151	0.142	0.139
280.0	130.2	90.26	51.51	26.15	28.04	69.34	343.8	475.3	207.0	349.5	1235	9495	6722	132.3	10.76	4.761	4.432	2.751	2.119	1.531	1.492	1.362	1.065	0.908	0.952	0.627	0.635	0.534	0.589	0.525	0.481	0.509	0.472	0.405	0.447	0.538	0.497	0.476	0.432	0.390	0.316	0.389	0.359	0.357	0.374	0.411	0.292	0.315	0.269	0.259	0.203	0.254	0.253	0.248	0.276	0.429	0.933	2.211	3.170	1.872	0.847	0.869	1.337	1.754	3.156	7.496	20.67	37.86	31.19	18.61	4.444	0.373	0.242	0.200	0.174	0.203	0.181
285.0	187.0	132.3	87.36	40.46	26.61	35.26	139.3	523.6	300.8	158.1	351.4	3083	8249	5510	93.37	7.391	5.789	3.225	2.186	1.729	1.653	1.301	1.107	0.887	0.871	0.689	0.645	0.679	0.665	0.511	0.521	0.636	0.572	0.412	0.592	0.600	0.623	0.576	0.516	0.450	0.391	0.529	0.410	0.480	0.563	0.451	0.449	0.389	0.310	0.269	0.302	0.289	0.288	0.211	0.198	0.340	0.347	0.834	1.924	3.231	2.605	1.170	0.626	0.728	1.035	2.057	5.188	12.15	26.75	44.85	30.04	13.47	1.233	0.240	0.214	0.185	0.231
290.0	236.1	200.1	126.6	64.54	46.41	42.08	71.55	232.7	513.8	425.3	211.8	802.6	2541	6267	5126	382.2	24.98	5.209	3.246	2.223	2.169	1.500	1.370	1.229	1.022	0.838	0.674	0.742	0.668	0.609	0.475	0.613	0.625	0.479	0.710	0.713	0.740	0.676	0.586	0.513	0.459	0.597	0.537	0.639	0.596	0.636	0.610	0.583	0.487	0.396	0.361	0.356	0.286	0.224	0.265	0.315	0.364	0.441	0.781	1.413	2.324	2.928	2.876	1.674	0.952	1.019	1.718	3.236	6.853	14.41	27.67	38.12	31.96	18.49	9.783	1.683	0.274
295.0	316.8	280.4	205.2	114.7	86.39	77.11	88.98	142.6	265.5	677.1	583.0	352.9	711.4	1584	4341	5898	570.1	25.26	5.056	3.407	2.805	1.797	1.595	1.418	1.018	0.895	0.892	0.848	0.669	0.636	0.595	0.763	0.660	0.495	0.706	0.850	0.860	0.760	0.779	0.664	0.603	0.594	0.647	0.745	0.817	0.812	0.783	0.691	0.665	0.516	0.529	0.475	0.458	0.442	0.410	0.449	0.461	0.541	0.588	0.829	1.075	1.377	2.919	4.157	3.436	1.843	1.306	1.518	2.461	4.206	6.931	9.633	12.32	29.25	53.58	28.91	13.95
300.0	443.8	437.6	342.2	223.6	166.7	159.1	177.7	203.9	268.0	551.4	1034	638.0	517.9	648.9	1350	5562	5353	419.8	14.64	4.615	3.253	2.445	2.051	1.699	1.209	1.055	0.959	0.878	0.915	0.782	0.589	0.631	0.621	0.578	0.821	0.918	0.940	0.873	0.748	0.811	0.737	0.806	0.812	1.008	0.932	1.058	1.041	1.117	1.076	0.894	0.819	0.786	0.700	0.666	0.693	0.614	0.774	0.919	1.076	0.872	1.086	1.356	2.039	3.129	4.769	4.800	3.393	2.277	2.316	2.498	3.011	3.674	4.128	8.610	24.05	46.06	66.81
305.0	662.8	711.0	602.1	409.6	312.7	312.9	365.1	353.6	538.8	761.1	1255	1444	1016	852.7	878.5	2006	9999.9	4318	66.36	8.971	4.905	2.866	2.080	1.931	1.519	1.230	1.056	0.884	0.954	0.914	0.681	0.687	0.764	0.645	0.843	0.932	1.167	1.070	1.030	1.080	1.068	1.023	1.197	1.263	1.429	1.662	1.710	1.852	1.935	1.449	1.338	1.425	1.282	1.338	1.207	1.184	1.540	1.721	1.683	1.910	2.253	2.523	3.076	3.903	4.779	6.429	7.166	6.241	4.947	4.243	4.505	4.264	4.137	4.943	8.109	15.28	42.24
310.0	1025	1155	1020	712.1	562.9	539.0	657.6	722.2	822.8	1084	1450	1960	2020	1505	1186	1180	3516	5165	4597	268.4	19.76	4.406	3.058	2.413	1.843	1.484	1.209	1.044	1.038	0.936	0.776	0.661	0.818	0.670	0.943	1.020	1.266	1.340	1.450	1.361	1.423	1.405	1.566	1.878	1.983	2.379	2.514	2.938	2.955	2.433	2.072	2.280	1.988	2.116	2.004	2.248	2.566	2.936	3.009	3.267	3.421	3.651	4.536	5.230	5.597	6.496	7.824	9.744	10.48	8.909	7.974	6.890	6.474	6.648	6.072	7.213	13.48
315.0	1363	1671	1442	1028	790.0	743.8	904.3	944.8	992.8	1257	1634	2045	2394	2316	1627	1196	1532	1602	3007	6040	436.0	19.73	4.628	3.458	2.164	1.680	1.657	1.398	1.211	1.117	0.860	0.778	0.768	0.802	0.939	1.123	1.437	1.658	1.478	1.543	1.649	1.751	1.887	2.316	2.585	3.400	3.671	4.233	4.054	3.294	2.817	3.263	3.062	2.936	2.865	2.976	3.624	4.012	3.910	3.945	3.900	4.639	5.275	5.987	6.508	7.355	8.475	9.173	10.53	12.12	12.41	11.12	9.100	7.978	6.676	6.641	7.886
320.0	1641	2010	1747	1214	933.4	874.5	1008	1073	1077	1358	1750	2186	2430	2615	2068	1330	1174	827.7	882.6	4398	7081	344.2	9.749	4.482	2.534	1.796	1.713	1.594	1.411	1.293	0.760	0.939	1.026	0.848	1.091	1.070	1.447	1.629	1.692	1.887	1.995	2.202	2.112	2.556	3.148	3.868	4.285	5.055	4.893	4.038	3.623	3.840	3.317	3.329	3.174	3.506	4.015	4.344	4.588	4.524	4.148	4.838	5.609	6.427	6.862	7.921	8.787	9.380	10.48	11.70	12.57	13.32	12.17	10.09	7.538	7.224	6.678
325.0	1959	2347	2120	1441	1069	952.4	1069	1153	1119	1404	1803	2232	2453	2501	2364	1529	1128	687.8	372.4	1265	6711	3390	50.85	7.399	3.853	2.188	1.751	1.568	1.356	1.358	0.952	0.968	1.007	0.791	1.032	1.180	1.492	1.949	1.823	1.935	2.112	2.433	2.579	2.807	3.543	4.352	5.110	6.108	6.089	4.739	4.348	4.360	3.918	3.557	3.641	3.388	3.991	4.477	4.757	4.846	4.562	4.901	5.656	6.519	7.083	7.733	9.078	9.741	10.70	11.53	11.76	12.45	13.40	12.53	9.624	7.539	7.145
330.0	2316	2989	2878	2203	1580	1166	1112	1178	1131	1393	1795	2227	2460	2429	2238	1818	1297	738.5	359.7	436.4	1906	3503	4146	1103	18.40	3.745	2.515	1.931	1.681	1.584	1.103	0.984	1.116	0.948	1.071	1.224	1.530	1.860	2.048	2.162	2.220	2.566	2.997	3.109	4.172	5.364	6.078	7.737	7.895	7.020	6.218	6.669	5.892	5.226	4.431	4.081	4.148	4.674	4.958	5.002	4.824	4.969	5.631	6.456	7.183	8.085	8.954	9.987	10.99	11.47	11.67	11.96	12.10	11.60	10.82	9.996	8.669
335.0	2779	3671	3901	3400	2674	1685	1289	1277	1219	1441	1842	2290	2564	2578	2297	1900	1682	1031	538.9	394.5	654.2	970.8	2645	5648	364.2	18.70	3.636	2.640	2.020	2.051	1.375	1.233	1.268	0.999	1.128	1.374	1.786	2.050	2.100	2.208	2.668	3.042	3.447	3.852	5.140	6.361	7.440	9.462	9.997	9.473	9.465	10.66	9.603	9.155	6.993	5.154	5.147	5.242	5.561	5.154	5.059	5.535	6.101	6.497	7.387	7.861	9.313	10.47	11.54	12.35	12.46	13.01	12.37	12.22	10.60	10.43	10.58
340.0	2950	3923	4260	3842	3060	1884	1329	1296	1222	1422	1809	2225	2502	2538	2281	1843	1648	1257	656.6	429.7	414.0	420.5	817.3	3771	4767	305.9	8.259	3.660	2.692	2.203	1.446	1.337	1.325	1.093	1.278	1.504	1.673	1.845	2.148	2.101	2.716	3.132	3.440	4.190	5.325	6.638	8.002	10.04	11.00	10.02	10.15	12.39	11.32	10.51	7.710	5.685	5.279	5.160	5.484	5.362	5.282	5.437	6.110	6.428	7.407	8.239	9.061	9.609	11.03	11.90	12.28	12.65	12.52	11.72	10.17	9.959	9.987
345.0	2825	3819	4155	3770	2938	1809	1280	1211	1167	1324	1671	2049	2278	2320	2101	1696	1427	1225	780.6	448.0	358.7	305.5	353.1	1122	4150	2826	43.89	5.373	3.477	2.718	1.535	1.525	1.235	1.156	1.268	1.369	1.627	1.858	2.203	2.210	2.583	2.984	3.472	4.034	5.040	6.701	7.920	9.622	10.78	9.923	10.09	12.22	11.14	10.30	7.670	5.742	5.077	5.011	5.174	5.197	4.680	5.010	5.772	5.786	6.952	7.341	8.477	9.147	9.698	10.82	11.16	11.52	11.75	10.55	9.790	9.049	9.198
350.0	2658	3531	3928	3675	2972	1800	1186	1116	1080	1214	1513	1817	2032	2072	1894	1565	1286	1042	856.4	597.9	397.5	314.3	277.4	391.0	1166	2681	2875	968.8	14.83	3.680	2.144	1.686	1.516	1.110	1.237	1.368	1.751	1.778	1.934	2.162	2.463	2.944	3.290	3.724	4.830	6.169	7.185	8.770	9.955	9.816	9.739	12.04	10.86	10.02	7.474	5.572	4.761	4.646	4.608	4.730	4.550	4.735	5.340	5.461	6.286	6.663	7.368	8.139	8.836	9.678	10.13	10.15	10.43	9.695	9.030	8.386	8.040
355.0	2385	3168	3613	3461	2890	1757	1124	1045	988.7	1114	1364	1611	1796	1836	1700	1430	1199	948.8	751.0	709.0	522.6	351.0	294.0	259.1	344.3	655.3	1664	4350	333.9	17.16	3.201	2.328	2.121	1.280	1.279	1.457	1.576	1.739	1.919	2.200	2.391	2.866	2.772	3.564	4.383	5.495	6.457	8.054	8.756	8.964	8.940	11.56	10.73	9.774	7.321	5.276	4.604	4.536	4.443	4.190	4.208	4.517	4.718	5.123	5.215	6.095	6.552	7.248	7.747	8.429	8.658	9.216	9.513	8.864	8.322	7.777	7.790
360.0	2107	2825	3176	3070	2575	1594	1039	952.2	919.4	1021	1202	1410	1571	1607	1497	1289	1088	867.5	681.0	629.4	623.4	415.2	306.7	237.2	177.5	204.9	448.5	2790	4431	296.9	7.584	2.771	2.482	1.475	1.401	1.460	1.430	1.621	1.859	2.014	2.052	2.594	2.684	3.230	3.882	4.984	5.874	7.308	8.059	7.692	7.916	10.15	9.529	8.790	6.708	4.669	4.277	3.975	4.160	3.815	3.896	3.932	4.273	4.643	4.879	5.392	5.982	6.537	6.973	7.587	7.535	8.063	8.338	7.836	6.982	7.134	7.001
365.0	1875	2431	2782	2711	2297	1463	968.3	869.9	854.9	934.1	1089	1261	1381	1416	1337	1151	988.5	802.7	644.8	559.8	596.3	508.4	336.6	244.4	160.0	123.2	151.0	781.0	3971	2716	41.28	5.201	3.326	1.909	1.478	1.455	1.525	1.782	1.750	1.842	2.050	2.295	2.571	2.970	3.516	4.374	5.158	6.593	6.710	6.950	6.914	8.867	8.277	8.035	6.213	4.248	3.965	3.598	3.658	3.861	3.651	3.602	3.898	4.393	4.790	4.974	5.354	5.867	6.590	6.728	6.723	6.875	7.349	6.964	6.362	6.429	6.493
370.0	1613	2121	2363	2358	2036	1324	890.9	809.5	780.0	850.8	981.3	1114	1211	1241	1166	1033	904.7	765.1	631.4	546.5	517.8	533.4	461.3	295.8	191.2	136.8	113.2	231.6	1105	3027	2768	871.6	15.91	3.448	1.954	1.785	1.624	1.740	1.662	1.814	1.984	2.174	2.216	2.565	2.977	3.774	4.269	5.568	5.873	6.068	6.193	7.808	7.050	7.118	5.401	4.071	3.655	3.367	3.401	3.377	3.414	3.568	3.604	3.953	4.257	4.305	4.586	5.273	5.459	5.738	5.993	6.115	6.348	6.131	5.703	5.851	5.654
375.0	1406	1808	2006	2011	1767	1213	825.1	750.2	724.7	780.2	905.1	1008	1087	1099	1033	922.2	823.9	723.1	620.7	548.2	502.8	478.8	510.5	424.6	256.9	186.9	156.6	155.2	319.6	746.7	1659	3980	1413	17.55	3.044	2.265	1.667	1.895	1.676	1.565	1.709	2.047	2.075	2.396	2.590	3.315	3.628	4.410	4.985	5.039	5.305	6.583	6.177	6.174	4.881	3.891	3.586	3.068	3.368	2.973	3.251	3.303	3.464	3.344	3.798	3.903	4.047	4.470	4.949	5.088	5.423	5.448	5.591	5.256	5.274	5.265	5.124
380.0	1217	1570	1768	1773	1593	1113	792.5	719.3	698.9	747.9	861.0	940.1	1029	1010	931.5	837.6	768.1	681.8	605.9	552.9	510.7	474.0	478.6	496.5	345.6	237.9	201.9	174.4	176.3	253.8	497.9	2655	4717	254.6	6.525	2.721	1.992	1.904	1.626	1.678	1.564	2.041	1.782	2.044	2.412	2.923	3.164	3.918	4.266	4.426	4.635	5.590	5.374	5.470	4.479	3.578	3.408	2.943	2.968	3.048	3.013	3.085	3.331	3.558	3.563	3.709	3.891	4.002	4.629	5.032	4.972	5.040	4.966	5.041	4.949	4.708	4.634
385.0	1129	1384	1557	1573	1462	1071	777.4	706.8	682.2	725.1	824.1	883.2	976.7	950.2	857.4	785.0	723.6	662.8	590.8	549.7	513.0	485.7	459.5	481.8	434.5	294.2	243.5	209.0	169.3	166.9	217.2	811.0	4058	2244	33.72	4.127	2.473	2.135	1.687	1.571	1.625	1.930	2.012	2.141	2.222	2.835	3.028	3.639	3.869	3.948	4.298	5.020	5.020	5.057	4.100	3.419	3.339	2.870	2.743	2.877	3.069	2.993	3.210	3.210	3.427	3.739	3.726	3.818	4.260	4.804	4.500	4.769	4.672	4.868	4.558	4.440	4.323
390.0	1023	1213	1354	1388	1300	994.4	755.8	680.1	646.8	688.1	759.1	818.4	882.1	871.6	787.4	727.4	677.5	626.3	583.7	546.0	518.4	490.8	464.4	439.2	436.9	387.9	290.7	231.4	183.4	158.0	156.3	266.7	1139	2076	2156	677.4	10.83	2.714	2.060	1.648	1.671	1.785	1.913	1.895	2.103	2.484	2.649	3.169	3.393	3.443	3.670	4.554	4.377	4.625	3.862	3.419	3.132	2.885	2.659	2.873	2.939	2.843	2.908	2.979	3.268	3.358	3.319	3.622	4.060	4.272	4.298	4.372	4.357	4.434	4.059	4.112	4.143
395.0	921.9	1094	1187	1233	1154	935.1	744.3	676.6	642.6	670.9	727.8	778.4	823.6	816.7	743.5	684.6	646.7	600.3	567.8	539.9	520.7	500.8	479.8	447.3	413.6	417.1	388.8	281.7	215.4	179.0	161.6	159.7	308.7	503.1	1289	3115	241.9	11.32	2.671	1.950	1.989	1.823	1.916	1.852	1.814	2.202	2.363	2.659	3.201	3.130	3.240	4.020	3.877	3.957	3.506	3.284	3.135	2.843	2.910	2.645	2.961	2.811	2.864	2.907	3.126	3.261	3.263	3.436	3.659	3.857	4.085	3.925	4.101	4.033	3.818	3.915	4.441
400.0	815.7	987.5	1104	1128	1087	906.0	744.0	679.4	648.8	673.8	735.7	764.3	819.0	794.6	720.5	660.8	620.3	587.8	559.6	540.7	529.3	512.0	493.2	466.9	424.4	410.2	436.2	354.4	253.5	211.6	189.7	156.0	138.3	152.5	347.6	2082	1990	206.1	5.347	2.590	2.055	2.032	1.899	1.840	2.054	2.346	2.119	2.822	2.855	2.838	2.996	3.605	3.570	3.869	3.753	3.206	2.984	2.861	2.765	2.662	2.825	2.802	2.739	2.959	2.900	3.005	3.051	3.502	3.459	3.561	3.980	3.851	3.808	3.908	3.786	3.904	4.275
405.0	825.3	959.0	1062	1059	1025	885.6	769.2	683.0	665.6	679.8	737.4	759.2	817.3	792.1	711.1	651.2	611.1	571.6	555.8	539.7	531.2	520.9	506.9	486.4	446.3	414.8	430.4	422.3	305.3	245.2	216.1	173.3	115.8	84.82	111.7	593.3	1913	1830	29.57	3.369	2.367	2.344	2.006	2.108	1.907	2.033	2.172	2.652	2.776	2.693	2.832	3.518	3.351	3.737	3.465	3.341	3.170	2.842	2.924	2.733	2.735	2.764	2.828	2.929	2.845	3.124	3.020	3.211	3.562	3.439	3.947	3.823	3.745	3.681	3.679	3.735	3.815
410.0	791.2	913.6	957.3	976.6	974.9	875.6	772.7	704.3	667.7	676.6	733.4	755.1	787.4	764.3	696.6	635.1	589.2	555.9	540.1	525.6	522.3	516.5	508.9	491.3	459.1	425.3	409.5	412.4	372.1	287.1	233.8	187.0	123.5	83.42	69.47	165.3	540.0	1509	1637	415.4	9.624	2.859	2.169	2.091	1.942	2.089	2.244	2.546	2.437	2.475	2.655	3.353	3.338	3.516	3.179	3.067	3.154	2.913	2.955	2.852	2.707	2.660	2.879	2.979	2.930	3.102	3.018	3.086	3.488	3.337	3.633	3.693	3.498	3.544	3.586	3.624	3.688
415.0	745.6	846.3	872.0	902.1	930.3	866.8	786.0	724.8	678.7	668.1	704.1	723.9	743.2	720.5	663.7	612.2	566.5	532.1	517.4	509.1	504.7	500.0	495.3	480.6	458.5	427.3	400.9	378.0	369.5	341.1	254.2	192.3	133.4	92.69	69.68	75.90	147.1	360.1	970.3	1732	225.4	10.66	2.534	2.414	2.147	1.923	1.963	2.345	2.179	2.204	2.536	3.094	3.162	3.154	3.210	3.015	3.122	3.148	3.130	2.858	2.868	2.842	2.911	2.636	2.763	3.036	3.060	2.967	3.060	3.475	3.216	3.481	3.193	3.542	3.348	3.285	3.321
420.0	733.2	803.2	857.0	872.4	888.8	871.3	802.8	744.5	685.7	654.4	684.4	700.5	708.0	691.2	632.0	587.1	542.5	513.4	504.5	498.7	491.3	482.0	479.3	472.8	451.3	425.7	393.6	367.9	342.8	347.3	288.6	201.5	140.6	101.7	73.92	59.57	63.11	99.94	254.9	1118	1836	207.4	4.806	2.541	2.060	2.050	1.948	2.062	2.113	2.204	2.420	2.922	2.948	2.984	3.102	3.088	3.293	3.165	2.992	3.050	2.898	3.053	2.643	2.792	2.794	2.856	2.769	2.952	2.923	3.132	3.386	3.273	3.316	3.214	3.209	3.168	3.412
425.0	713.6	788.3	852.6	842.5	887.8	872.8	818.7	777.6	692.3	663.6	668.4	684.2	689.5	666.6	619.7	570.1	527.3	501.8	492.6	484.6	474.6	465.6	461.1	459.8	439.5	421.7	391.7	367.2	332.4	326.6	319.8	230.1	152.1	110.6	82.54	62.48	48.14	44.42	71.03	312.9	1633	1824	28.66	3.027	2.159	1.991	1.848	2.129	2.076	2.222	2.195	2.868	2.875	3.096	3.248	3.183	3.332	3.214	3.296	2.988	2.970	2.811	2.605	2.770	2.725	2.808	2.807	2.989	3.051	2.994	3.137	3.301	3.004	2.922	3.157	3.183	3.215
430.0	778.6	780.6	812.7	836.9	890.7	918.3	908.4	855.9	741.1	677.5	656.9	660.4	670.8	642.7	599.2	559.9	517.3	496.1	485.3	472.5	459.3	446.0	442.9	444.3	429.0	410.9	392.2	369.0	337.7	313.2	305.3	268.1	182.0	126.1	96.29	72.29	53.63	38.25	33.46	82.04	443.5	1520	1595	462.9	9.121	2.383	1.970	2.114	2.139	2.192	2.249	2.708	2.864	3.316	3.297	3.348	3.670	3.544	3.621	3.160	3.258	2.893	2.778	2.746	2.638	2.637	2.648	2.887	2.912	2.797	3.041	2.937	2.949	3.040	3.029	3.295	3.205
435.0	1293	785.5	798.8	833.3	916.5	975.4	1014	940.9	807.2	693.3	650.4	645.9	640.3	619.0	590.8	554.1	515.9	492.3	483.6	463.8	443.6	427.2	423.2	423.0	416.4	398.8	384.4	368.3	342.2	314.4	287.2	266.7	226.5	153.3	111.5	85.41	62.54	43.82	31.18	33.34	110.2	352.8	838.3	1839	213.2	9.902	2.444	2.193	2.146	2.209	2.291	2.955	2.931	3.230	3.470	3.793	4.036	4.116	3.879	3.705	3.666	3.191	2.948	2.669	2.568	2.772	2.582	2.649	2.817	2.720	2.693	2.712	2.924	3.030	2.986	3.211	3.110
440.0	2033	838.1	796.2	863.6	929.5	1033	1098	1007	847.4	703.0	633.8	629.6	625.1	611.2	580.4	549.1	517.7	493.2	485.6	462.8	429.3	406.7	407.3	405.9	401.8	390.9	379.1	361.6	342.2	319.0	286.2	254.3	236.7	181.9	122.8	93.53	69.38	48.25	34.15	24.81	37.15	88.16	210.8	1159	1598	176.3	4.058	2.394	2.448	2.241	2.316	2.904	3.245	3.361	3.638	3.980	4.278	4.526	4.299	3.888	3.710	3.424	3.147	2.669	2.475	2.508	2.754	2.520	2.554	2.582	2.480	2.868	3.159	3.028	3.153	3.159	3.336
445.0	2449	1145	782.4	847.2	969.4	1069	1152	1064	864.5	700.2	612.6	608.6	599.1	590.1	569.1	537.2	512.3	493.4	478.1	454.3	414.5	391.6	387.6	389.8	388.1	378.4	366.9	357.7	339.3	316.9	285.1	249.2	219.6	197.8	141.1	99.68	74.76	51.97	37.18	26.24	22.47	30.15	55.41	315.8	1318	1267	23.92	3.023	2.548	2.344	2.428	3.026	3.063	3.561	3.800	3.913	4.386	4.363	4.459	4.238	3.776	3.376	3.091	2.886	2.434	2.352	2.557	2.259	2.639	2.650	2.592	2.761	2.999	2.655	2.912	2.998	3.220
450.0	1742	1938	872.4	840.0	970.2	1100	1186	1100	881.0	683.4	584.9	567.9	567.0	554.5	537.5	512.1	492.1	475.1	463.9	436.1	390.8	360.7	356.8	360.7	359.1	354.3	348.4	339.2	329.2	307.5	280.1	243.5	207.1	186.0	161.2	115.1	79.73	56.25	40.46	28.69	21.93	18.95	21.62	77.75	357.0	909.3	958.7	283.0	8.276	2.736	2.529	3.142	3.239	3.594	3.874	3.977	4.677	4.671	4.679	4.378	3.891	3.274	3.088	2.685	2.383	2.361	2.313	2.384	2.374	2.451	2.686	2.622	2.880	2.746	2.913	2.791	3.064
455.0	945.3	2266	1410	804.9	951.1	1092	1195	1115	871.1	670.0	551.9	530.0	525.5	518.1	499.4	484.3	465.5	451.0	442.6	415.3	362.7	328.2	321.2	327.7	325.5	323.2	321.8	316.0	309.4	294.2	271.2	237.7	200.7	168.6	153.6	133.3	89.96	60.26	43.62	31.87	23.93	18.50	15.77	25.59	86.20	210.9	473.9	1019	173.1	10.00	2.640	3.256	3.123	3.646	3.827	4.227	4.570	4.507	4.688	4.315	3.746	3.314	2.909	2.552	2.286	2.170	2.016	2.181	2.246	2.266	2.491	2.438	2.646	2.552	2.569	2.736	2.889
460.0	722.1	1693	2115	816.9	919.9	1073	1175	1099	852.1	631.2	525.2	500.1	494.4	484.0	471.4	454.1	442.4	429.2	421.9	388.8	335.6	303.7	297.7	300.6	303.1	300.6	302.0	299.2	292.6	282.3	263.0	229.8	194.0	161.2	140.2	131.3	103.2	64.87	45.98	34.32	25.30	19.50	15.44	14.49	26.49	53.25	118.4	602.1	925.8	148.0	5.870	3.260	3.114	3.686	3.972	4.104	4.605	4.422	4.484	4.386	3.795	3.421	2.901	2.451	2.233	2.101	2.090	2.115	2.231	2.141	2.237	2.320	2.426	2.374	2.448	2.814	2.740
465.0	604.7	1034	2395	1105	892.2	1028	1132	1049	815.6	606.5	497.0	462.8	460.1	457.4	442.5	430.6	416.7	405.6	393.1	362.0	312.7	280.0	273.1	277.1	280.1	280.6	281.5	280.9	277.7	267.9	248.8	220.5	186.7	156.7	131.3	118.4	107.7	72.96	47.00	35.09	26.65	20.26	16.16	13.36	13.80	18.43	31.84	161.3	706.8	1213	121.5	3.948	3.286	3.678	3.883	4.088	4.238	4.593	4.422	4.096	3.696	3.133	2.674	2.408	2.088	2.048	1.946	2.006	1.988	2.222	2.128	2.494	2.214	2.388	2.442	2.532	2.528
470.0	571.9	683.4	1629	1871	912.3	948.7	1037	967.1	753.2	546.6	446.3	420.8	417.5	407.5	400.5	387.3	377.5	364.6	353.8	327.5	280.3	248.1	242.0	245.1	249.3	251.0	252.1	252.4	251.2	242.9	227.9	202.0	172.8	146.9	121.5	103.2	94.72	80.19	53.68	35.96	27.53	21.60	17.15	14.11	11.89	11.26	12.89	40.97	187.0	893.8	1002	295.8	9.178	3.546	3.650	3.742	4.142	4.293	4.178	3.807	3.361	2.880	2.477	2.115	2.005	1.811	1.820	1.894	1.913	2.008	1.849	2.001	2.143	2.176	2.057	2.231	2.409
475.0	577.8	550.8	797.9	2021	1431	857.8	926.8	870.9	683.7	493.4	400.4	375.9	367.1	359.3	353.7	341.5	330.8	324.7	314.1	286.3	244.6	215.6	209.3	213.4	214.9	217.8	220.1	222.0	221.3	217.2	205.0	181.3	157.5	134.1	111.2	93.52	78.32	72.40	61.92	40.60	28.74	22.06	17.62	14.57	12.25	10.31	9.226	14.40	45.94	204.5	432.1	985.1	173.9	11.34	3.517	3.436	3.673	3.786	3.486	3.410	2.878	2.773	2.247	2.008	1.798	1.513	1.536	1.630	1.724	1.845	1.629	1.797	1.887	1.821	2.023	2.037	2.176
480.0	557.6	527.8	552.9	1410	2154	848.5	851.0	799.6	621.3	451.7	366.2	339.3	335.9	326.6	320.3	311.9	302.7	294.3	284.7	259.8	222.2	193.4	188.0	190.7	192.1	196.9	198.3	202.8	204.3	196.1	187.8	167.6	146.1	124.0	103.9	88.17	72.14	63.48	60.98	46.13	29.71	22.35	18.17	15.06	12.97	10.67	8.760	8.593	14.50	49.49	104.7	556.7	926.6	163.8	5.691	3.245	3.443	3.516	3.447	3.018	3.013	2.576	2.150	2.033	1.736	1.491	1.325	1.427	1.495	1.576	1.585	1.733	1.745	1.729	1.787	1.682	2.142
485.0	520.4	506.9	479.2	824.7	2484	1099	805.1	736.5	580.2	418.4	332.8	316.2	309.0	303.0	293.0	286.8	275.7	269.6	263.0	240.4	203.7	176.9	172.7	175.7	177.5	180.9	184.3	188.0	186.5	181.0	173.1	156.0	137.4	117.8	98.81	82.58	68.35	57.11	53.42	49.86	34.61	22.98	18.77	15.68	13.25	10.92	9.511	7.787	7.563	15.05	27.02	147.3	724.0	933.3	25.07	3.545	3.432	3.302	3.231	2.876	2.789	2.516	1.959	1.708	1.652	1.444	1.351	1.556	1.411	1.385	1.503	1.583	1.443	1.617	1.751	1.492	1.906
490.0	422.3	508.6	427.8	536.2	1691	1804	796.8	649.8	511.0	377.3	305.8	282.8	278.0	274.8	264.1	254.2	249.3	242.4	234.7	212.5	181.0	158.2	152.7	155.6	158.4	159.9	163.1	166.1	166.0	163.6	155.2	140.7	124.6	107.9	91.96	77.02	64.01	52.78	45.14	44.23	39.99	27.69	19.51	16.14	13.53	11.38	9.819	8.365	6.644	7.436	9.669	36.17	190.0	590.8	781.5	270.8	10.11	3.151	3.173	2.802	2.573	2.150	1.848	1.542	1.374	1.379	1.185	1.383	1.322	1.329	1.462	1.410	1.346	1.464	1.459	1.408	1.561
495.0	351.3	453.2	424.5	425.7	782.5	1910	1232	572.5	451.8	336.8	269.6	255.3	245.8	239.9	230.1	225.3	217.8	210.0	204.8	182.5	155.7	140.0	134.3	135.2	137.1	139.1	140.6	144.2	145.5	143.9	137.4	125.0	110.8	96.81	82.85	69.21	58.39	48.43	40.54	36.35	36.21	33.19	22.58	16.64	14.51	12.04	9.975	8.906	7.248	5.913	5.951	11.55	45.38	135.9	369.2	832.1	198.6	11.19	2.919	2.498	2.380	1.884	1.847	1.292	1.313	1.186	1.181	1.155	1.182	1.197	1.164	1.169	1.257	1.153	1.287	1.408	1.435
500.0	297.2	382.7	423.5	370.3	497.2	1350	1857	564.4	402.1	306.7	248.4	236.7	223.8	216.6	205.8	200.2	194.7	188.0	182.2	165.6	139.8	123.6	120.4	121.1	122.7	124.9	126.0	129.6	130.6	128.1	123.7	112.8	100.7	87.56	76.66	64.06	54.46	45.16	37.79	32.84	30.94	33.09	26.53	17.46	14.29	11.98	10.11	8.893	7.331	5.859	5.034	5.826	13.21	33.31	89.46	443.4	840.5	166.8	4.472	2.346	2.067	1.886	1.675	1.256	1.158	1.136	1.108	0.995	1.147	1.141	1.174	1.276	1.106	1.042	1.160	1.219	1.313
505.0	275.0	305.1	401.6	353.4	391.9	747.2	2144	802.7	358.0	273.5	226.5	210.1	202.2	191.1	185.3	181.0	175.4	167.1	162.2	148.1	126.1	111.7	106.2	108.3	109.0	111.5	113.1	116.1	116.5	116.7	111.7	102.2	93.27	80.83	69.66	59.92	50.42	42.93	35.68	30.63	26.30	28.82	29.12	19.67	14.32	11.89	9.977	8.887	7.456	6.425	4.893	4.661	6.132	10.29	22.91	115.3	590.9	756.7	26.65	2.616	1.955	1.669	1.372	1.169	1.103	1.088	0.933	0.896	0.999	0.946	1.093	1.023	1.079	1.053	1.075	1.097	1.236
510.0	220.6	245.6	323.6	342.2	331.0	443.6	1400	1677	393.9	239.0	195.2	183.9	173.8	167.1	159.6	152.0	150.1	143.7	138.2	125.2	106.5	95.07	90.53	92.96	93.26	94.35	97.15	98.38	100.5	98.86	95.17	88.85	78.54	70.17	61.11	52.40	44.94	38.35	31.80	27.57	23.19	22.68	25.38	23.15	16.49	12.15	9.575	8.483	7.343	6.116	5.124	4.436	4.379	5.010	7.937	28.18	153.2	465.0	557.7	114.9	7.859	1.578	1.256	1.139	1.009	0.968	0.900	0.906	0.910	0.916	0.938	0.812	0.829	0.969	0.922	0.973	1.079
515.0	188.9	207.3	234.7	327.1	285.4	327.2	602.3	1994	877.6	199.4	164.7	155.0	148.8	144.0	134.0	130.7	125.1	121.1	113.8	103.1	89.04	80.65	77.32	76.89	78.02	78.31	79.69	82.81	84.26	84.20	79.82	75.45	66.97	59.17	51.81	45.18	38.79	33.91	27.88	23.83	21.06	19.14	19.13	21.51	19.41	13.41	9.177	7.878	6.723	5.864	5.003	4.615	3.875	4.019	4.083	8.481	36.53	106.8	267.6	587.3	172.5	5.891	1.334	1.075	1.017	0.837	0.969	0.899	0.787	0.797	0.910	0.690	0.863	0.883	0.843	0.790	0.954
520.0	164.0	174.4	194.2	275.9	273.2	271.9	356.5	1361	1666	225.5	146.3	136.4	131.6	125.3	117.5	114.3	108.7	105.3	99.80	89.39	78.40	68.69	67.46	66.80	67.50	68.03	70.70	72.10	74.17	73.96	70.91	65.56	59.66	51.83	46.11	40.31	34.89	29.91	26.08	22.34	19.56	17.69	16.09	17.79	19.65	15.02	9.734	7.803	6.403	5.785	4.810	4.680	3.939	3.519	3.201	4.056	10.29	25.96	65.52	335.5	549.7	29.17	2.133	1.068	0.919	0.819	0.923	0.681	0.619	0.698	0.684	0.688	0.692	0.858	0.719	0.781	0.874
525.0	137.3	154.8	165.2	215.9	279.7	239.4	272.1	647.5	2164	464.5	130.4	121.1	118.7	109.1	104.4	100.6	94.65	93.37	87.46	78.44	67.93	61.29	59.79	58.50	60.14	60.34	61.96	62.84	65.45	63.87	61.52	57.44	52.69	46.96	41.14	36.74	31.35	26.81	23.13	20.41	17.66	16.22	14.29	14.27	16.65	16.32	10.77	7.495	6.214	5.326	4.633	4.394	4.275	3.414	2.792	3.006	4.205	7.724	16.53	87.83	395.6	430.4	24.33	1.172	0.803	0.768	0.812	0.571	0.654	0.645	0.694	0.661	0.675	0.689	0.667	0.655	0.815
530.0	119.8	136.3	141.2	161.5	251.6	226.3	211.7	297.0	1402	1470	164.3	105.7	99.21	96.07	88.82	85.01	79.85	77.63	73.48	66.72	57.86	51.83	49.88	50.85	51.76	51.39	52.43	53.52	54.98	54.25	52.82	49.99	44.56	39.85	35.66	31.69	27.55	23.68	20.85	18.37	16.05	14.16	12.98	11.82	12.46	14.68	12.97	8.501	5.858	5.082	4.313	3.770	3.634	3.542	3.024	2.735	2.785	3.372	5.271	21.04	103.1	291.4	319.9	98.20	4.593	0.759	0.685	0.656	0.601	0.586	0.571	0.600	0.562	0.544	0.567	0.701	0.641
535.0	110.2	107.8	110.8	125.2	182.0	231.6	182.2	186.8	469.3	2039	574.5	94.08	84.34	80.92	74.09	71.89	66.79	63.22	61.10	55.99	48.71	43.56	42.03	43.47	42.89	42.62	43.85	45.23	45.37	46.26	44.62	40.65	37.73	33.84	30.78	27.41	23.86	20.52	18.41	15.92	13.95	12.30	11.10	10.45	9.780	10.49	12.29	10.33	6.450	4.886	4.199	3.716	3.117	3.229	3.114	2.783	2.410	2.377	2.675	5.918	24.17	66.85	181.9	416.1	133.8	3.193	0.690	0.584	0.576	0.643	0.536	0.487	0.447	0.456	0.487	0.514	0.511
540.0	90.97	103.2	93.45	106.3	141.1	219.2	165.5	146.9	199.6	1424	1248	109.0	72.32	72.83	64.30	61.02	58.66	55.81	52.72	47.87	42.77	39.23	36.78	37.15	37.23	36.46	38.19	39.64	39.84	39.48	38.91	36.45	33.37	29.71	27.07	23.62	21.42	18.27	16.19	14.43	12.90	11.30	10.17	9.642	8.670	8.186	10.00	10.55	7.208	4.718	3.708	3.530	2.994	2.964	3.019	2.857	2.211	1.976	2.101	2.586	6.523	15.97	45.23	259.6	414.7	27.39	1.156	0.622	0.602	0.527	0.526	0.530	0.422	0.509	0.412	0.432	0.569
545.0	88.35	88.12	85.32	91.27	113.9	194.4	172.0	127.6	126.4	566.3	1719	195.9	65.29	64.32	57.04	54.45	52.64	49.48	46.44	43.33	37.77	34.22	33.07	32.87	33.08	32.84	33.37	33.65	35.46	34.95	33.72	32.11	29.16	26.40	23.63	21.10	18.67	16.72	14.74	13.26	12.25	10.43	9.254	8.735	8.069	7.191	7.389	9.710	8.366	5.370	3.779	3.353	2.817	2.687	2.745	2.828	2.492	1.982	1.855	1.752	2.533	4.548	11.10	70.23	335.2	233.4	19.85	0.773	0.521	0.542	0.490	0.387	0.431	0.482	0.360	0.504	0.390
550.0	77.18	77.89	76.00	78.11	92.74	132.2	180.3	113.0	94.64	189.9	1114	1056	90.64	55.67	49.16	45.86	44.15	41.83	38.23	35.65	32.42	29.41	28.14	28.09	27.82	28.09	28.35	28.74	30.06	29.34	28.61	27.08	24.62	22.83	20.07	18.36	16.42	14.37	12.71	11.58	10.45	9.201	8.304	7.546	6.714	6.485	5.999	7.118	8.077	6.635	4.061	3.114	2.663	2.556	2.347	2.372	2.387	2.051	1.711	1.655	1.534	1.948	3.435	16.52	89.78	216.8	241.7	80.42	2.379	0.514	0.455	0.379	0.345	0.389	0.300	0.449	0.371
555.0	65.21	70.34	61.56	66.45	72.28	87.12	153.2	123.0	75.84	91.53	330.1	1573	378.1	47.09	40.98	38.85	35.02	33.61	31.00	30.21	26.97	24.23	23.43	23.37	23.86	23.30	23.36	24.40	24.57	24.81	24.40	22.70	20.92	18.74	16.96	15.34	13.66	12.12	10.69	10.01	8.883	7.915	7.359	6.576	6.032	5.610	4.973	5.165	5.893	6.708	5.031	3.117	2.453	2.169	2.215	2.025	1.955	2.204	1.939	1.466	1.250	1.296	1.481	4.414	20.63	49.90	134.2	320.1	29.48	1.642	0.442	0.418	0.374	0.377	0.314	0.360	0.299
560.0	59.05	55.44	58.16	59.32	58.92	72.49	116.0	141.2	67.58	65.06	118.0	1113	950.6	53.34	36.76	34.27	31.48	30.01	28.16	26.06	23.58	21.00	20.91	20.41	20.14	20.59	19.86	21.40	20.82	21.46	20.84	19.71	17.57	16.33	14.74	13.22	11.90	11.06	9.650	8.537	7.884	7.129	6.522	6.089	5.528	5.125	4.475	4.235	4.295	5.621	5.581	3.637	2.319	1.930	1.975	1.856	1.636	1.887	1.880	1.495	1.180	1.069	1.176	1.657	5.315	11.72	33.84	209.5	238.3	23.92	0.650	0.435	0.338	0.332	0.385	0.347	0.319
565.0	54.37	56.45	53.95	53.01	51.44	59.95	82.52	141.1	68.27	53.83	65.25	439.5	1433	124.4	32.63	29.94	27.27	25.34	24.73	23.03	20.52	18.67	17.74	18.11	17.57	17.15	17.33	18.01	18.06	18.67	18.23	17.46	15.12	14.34	13.15	11.97	10.71	9.714	8.476	7.531	6.668	6.263	5.714	5.254	5.100	4.493	4.075	3.814	3.428	4.211	4.995	4.295	2.463	1.853	1.856	1.776	1.575	1.580	1.846	1.565	1.184	0.995	0.956	1.077	1.813	3.230	8.153	58.04	225.6	199.9	16.52	0.517	0.333	0.323	0.278	0.331	0.271
570.0	49.42	54.38	46.84	45.42	45.06	49.74	55.28	108.0	90.96	45.75	47.30	135.0	968.5	758.7	43.06	24.18	22.67	21.02	19.77	18.14	17.04	15.11	14.26	14.47	14.37	13.99	14.10	14.50	14.92	14.87	14.64	13.80	12.42	11.32	10.77	9.793	8.744	8.055	7.254	6.349	5.819	5.175	4.898	4.455	4.311	3.874	3.551	3.331	2.813	2.698	3.477	3.951	2.962	1.970	1.653	1.509	1.406	1.326	1.341	1.556	1.261	1.016	0.870	0.831	1.048	1.334	2.355	13.54	62.46	161.4	206.8	17.36	0.914	0.373	0.244	0.259	0.274
575.0	50.78	45.96	35.48	36.94	34.94	36.78	41.20	61.29	107.6	48.47	38.36	57.64	277.9	1208	118.1	19.32	17.53	17.08	15.30	13.74	12.91	11.76	12.03	11.05	11.05	11.02	10.71	11.43	11.27	11.83	10.95	10.62	10.06	8.793	7.908	7.693	6.839	6.256	5.526	5.018	4.754	4.159	3.929	3.663	3.643	2.797	2.884	2.558	2.252	1.987	2.163	2.815	3.016	2.397	1.436	1.207	1.234	1.199	0.990	1.051	1.240	1.176	0.843	0.712	0.636	0.737	1.015	3.421	14.37	37.45	127.2	176.9	23.44	0.564	0.246	0.254	0.241
580.0	50.66	44.07	36.20	31.57	29.17	31.36	33.86	38.15	97.46	63.77	34.98	35.97	84.44	862.7	611.8	21.46	14.97	13.81	12.06	11.64	10.25	9.779	9.340	8.795	9.199	9.185	8.829	9.027	8.734	9.193	9.043	8.616	8.014	7.197	6.686	6.244	5.435	4.971	4.585	4.029	3.965	3.375	3.440	3.114	2.861	2.356	2.343	2.210	1.859	1.703	1.639	1.944	2.541	2.457	1.562	1.144	1.059	0.991	0.821	0.829	0.885	1.255	0.950	0.662	0.607	0.688	0.713	1.197	3.713	8.748	32.95	133.0	127.5	15.47	0.292	0.272	0.248
585.0	42.64	39.60	32.52	29.78	25.06	28.71	28.62	29.77	68.23	82.30	33.54	30.67	37.49	339.6	980.3	67.73	12.11	11.05	10.20	9.799	8.018	8.219	7.763	7.307	7.267	7.126	7.571	7.174	7.524	7.714	7.484	7.198	6.359	5.834	5.516	5.074	4.627	4.052	3.747	3.462	3.345	2.922	2.825	2.509	2.386	2.145	1.909	1.785	1.656	1.418	1.306	1.278	2.014	2.296	1.689	1.128	0.953	0.839	0.757	0.683	0.806	1.023	1.028	0.693	0.573	0.576	0.622	0.656	1.205	2.301	7.780	39.01	128.4	95.03	6.092	0.296	0.282
590.0	41.20	38.44	30.86	23.41	22.68	23.73	22.74	26.71	40.06	86.83	46.56	28.86	27.10	96.35	684.6	470.8	20.65	8.788	7.745	7.396	6.740	6.206	5.903	5.537	5.640	5.506	5.592	5.580	5.916	5.990	5.722	5.363	5.077	4.512	4.287	3.952	3.525	3.120	2.959	2.769	2.572	2.246	2.137	2.019	1.824	1.766	1.509	1.402	1.371	1.180	1.009	0.956	1.189	1.564	1.760	1.320	0.896	0.702	0.729	0.651	0.591	0.697	0.847	0.877	0.610	0.507	0.473	0.504	0.587	0.840	2.041	9.025	37.17	87.95	67.74	13.75	0.459
595.0	35.58	40.59	28.93	21.69	19.42	18.94	19.57	22.41	27.12	62.47	70.46	29.64	26.70	39.06	193.7	773.9	84.16	8.370	6.132	6.062	5.215	4.825	4.338	4.648	4.207	4.400	4.313	4.363	4.321	4.482	4.062	4.119	4.001	3.531	3.199	3.066	2.806	2.411	2.362	2.194	2.048	1.653	1.586	1.569	1.484	1.302	1.261	1.075	1.025	0.909	0.814	0.814	0.857	0.933	1.350	1.489	0.920	0.582	0.575	0.509	0.553	0.542	0.653	0.759	0.826	0.557	0.442	0.423	0.439	0.457	0.776	2.353	8.529	20.84	54.42	95.76	16.03
600.0	41.35	41.27	33.11	23.19	20.86	20.49	19.44	20.53	24.28	43.29	82.45	38.37	28.65	27.18	59.68	565.6	499.9	10.33	5.295	5.199	4.029	3.938	3.873	3.449	3.279	3.692	3.513	3.582	3.604	3.616	3.390	3.513	3.064	2.777	2.514	2.486	2.269	2.037	1.820	1.613	1.612	1.469	1.513	1.352	1.222	1.125	1.139	0.885	0.825	0.787	0.684	0.681	0.713	0.619	0.913	1.339	1.076	0.716	0.444	0.459	0.457	0.422	0.474	0.562	0.744	0.596	0.434	0.344	0.440	0.400	0.445	0.773	2.094	4.889	14.58	76.97	73.57
605.0	41.79	43.37	32.38	27.25	22.83	21.59	22.72	23.81	26.04	35.79	85.56	55.98	36.42	30.68	33.16	233.0	870.4	47.67	5.202	4.209	3.837	3.519	3.298	3.090	3.106	2.831	3.042	2.918	3.010	2.923	2.992	2.877	2.663	2.283	2.111	2.240	2.146	1.717	1.690	1.527	1.324	1.365	1.236	1.157	1.161	0.979	0.999	0.853	0.919	0.722	0.606	0.609	0.600	0.563	0.703	1.041	1.090	0.757	0.521	0.478	0.427	0.397	0.455	0.417	0.570	0.786	0.510	0.444	0.470	0.363	0.357	0.498	0.702	1.346	3.506	23.86	81.08
610.0	50.63	51.16	42.46	31.53	26.98	26.80	31.05	32.05	38.12	49.77	82.83	102.6	63.74	50.53	43.94	81.95	666.0	401.8	9.378	3.618	3.137	2.920	2.704	2.452	2.416	2.129	2.401	2.277	2.452	2.310	2.330	2.194	1.980	1.828	1.839	1.688	1.633	1.527	1.309	1.191	1.178	1.142	0.967	0.941	0.995	0.778	0.810	0.738	0.715	0.634	0.603	0.605	0.556	0.511	0.481	0.718	0.891	0.797	0.650	0.513	0.435	0.475	0.502	0.489	0.489	0.645	0.771	0.686	0.529	0.514	0.479	0.456	0.532	0.657	1.120	5.635	24.42
615.0	56.58	60.11	51.94	38.79	31.22	32.64	34.55	42.15	49.39	61.49	81.72	122.6	92.21	68.48	56.41	53.14	211.7	689.7	59.14	3.111	2.614	2.496	2.362	2.035	1.969	1.781	1.861	1.854	1.935	1.716	1.806	1.809	1.551	1.347	1.418	1.303	1.346	1.345	1.209	0.839	0.903	0.897	0.808	0.824	0.796	0.805	0.732	0.624	0.633	0.489	0.538	0.516	0.513	0.484	0.372	0.482	0.596	0.803	0.785	0.545	0.415	0.519	0.495	0.495	0.511	0.532	0.725	0.898	0.697	0.561	0.593	0.490	0.493	0.475	0.585	1.687	5.686
620.0	58.50	70.33	55.28	40.19	31.94	31.88	40.62	44.09	48.52	62.38	77.67	111.9	110.8	74.55	61.50	46.88	79.65	505.5	261.2	4.085	2.420	1.900	2.008	1.840	1.657	1.649	1.627	1.691	1.640	1.317	1.537	1.436	1.442	1.095	1.274	1.135	1.119	1.017	0.903	0.884	0.877	0.759	0.781	0.663	0.730	0.610	0.626	0.575	0.522	0.429	0.469	0.484	0.494	0.363	0.379	0.416	0.500	0.660	0.683	0.774	0.465	0.417	0.460	0.488	0.455	0.451	0.516	0.832	0.841	0.562	0.501	0.451	0.483	0.472	0.450	0.705	1.515
625.0	61.72	64.37	59.89	42.79	33.81	34.04	39.77	44.14	47.32	57.44	75.47	95.89	123.9	79.89	64.50	47.10	48.96	211.5	447.8	27.49	2.478	1.884	1.607	1.723	1.610	1.307	1.532	1.358	1.432	1.316	1.322	1.405	1.372	0.943	1.047	0.954	0.861	0.759	0.821	0.974	0.678	0.627	0.660	0.629	0.667	0.557	0.513	0.614	0.566	0.437	0.384	0.370	0.411	0.396	0.385	0.456	0.450	0.510	0.695	0.698	0.468	0.405	0.487	0.520	0.487	0.505	0.518	0.663	0.851	0.693	0.472	0.489	0.476	0.510	0.447	0.503	0.651
630.0	66.15	75.61	65.51	48.61	37.88	35.07	42.14	46.62	46.92	58.54	74.77	90.07	119.0	96.35	68.25	49.17	42.92	68.52	330.5	244.6	6.383	1.716	1.446	1.583	1.310	1.038	1.231	1.200	1.274	1.243	1.183	1.040	1.040	0.832	0.924	0.740	0.691	0.653	0.704	0.740	0.678	0.549	0.572	0.516	0.524	0.518	0.510	0.478	0.448	0.412	0.383	0.384	0.364	0.362	0.348	0.373	0.411	0.400	0.480	0.610	0.586	0.461	0.416	0.481	0.405	0.517	0.575	0.584	0.714	0.782	0.669	0.536	0.519	0.497	0.479	0.464	0.456
635.0	72.43	79.49	67.28	52.72	37.09	37.42	42.88	46.24	47.98	57.37	76.42	87.45	104.1	112.7	72.96	51.77	41.93	33.45	95.85	431.2	53.78	1.703	1.296	1.359	1.132	0.996	0.968	0.964	1.096	0.937	0.904	0.935	0.862	0.665	0.807	0.677	0.607	0.523	0.491	0.538	0.614	0.649	0.521	0.451	0.407	0.399	0.425	0.438	0.382	0.385	0.336	0.353	0.344	0.291	0.352	0.283	0.382	0.389	0.433	0.449	0.510	0.468	0.471	0.412	0.488	0.516	0.573	0.503	0.700	0.640	0.732	0.671	0.521	0.431	0.442	0.546	0.362
640.0	69.68	81.58	71.74	53.38	38.68	41.46	44.38	44.91	47.69	57.26	73.92	86.14	97.25	114.7	82.06	51.97	41.66	26.76	27.87	325.1	309.2	2.355	1.217	1.006	1.140	0.800	0.885	0.910	0.860	0.738	0.696	0.728	0.669	0.601	0.599	0.640	0.574	0.429	0.475	0.466	0.511	0.642	0.469	0.433	0.411	0.350	0.396	0.374	0.398	0.409	0.334	0.331	0.291	0.298	0.349	0.259	0.322	0.406	0.358	0.395	0.475	0.516	0.559	0.432	0.431	0.471	0.560	0.620	0.620	0.545	0.700	0.729	0.670	0.432	0.486	0.466	0.403
645.0	69.78	92.94	76.54	49.88	40.73	38.65	44.34	42.43	46.66	56.71	71.45	85.39	93.11	105.6	90.09	52.69	41.25	25.13	12.42	135.0	514.0	18.75	1.319	1.055	0.947	0.929	0.792	0.780	0.883	0.745	0.608	0.664	0.467	0.570	0.506	0.466	0.525	0.488	0.455	0.375	0.444	0.597	0.471	0.374	0.435	0.398	0.356	0.354	0.355	0.379	0.275	0.345	0.363	0.338	0.297	0.349	0.315	0.323	0.366	0.347	0.352	0.444	0.582	0.362	0.410	0.458	0.517	0.444	0.626	0.582	0.742	0.698	0.717	0.564	0.500	0.465	0.423
650.0	75.17	90.96	78.92	48.71	39.55	34.38	38.26	43.88	43.89	52.99	66.38	80.68	88.79	95.28	89.60	54.80	41.01	23.70	9.832	37.91	479.6	112.0	1.335	0.945	0.929	0.798	0.550	0.584	0.669	0.725	0.653	0.712	0.476	0.519	0.490	0.557	0.502	0.385	0.373	0.311	0.414	0.473	0.414	0.356	0.348	0.353	0.400	0.406	0.347	0.357	0.256	0.388	0.325	0.313	0.267	0.312	0.333	0.318	0.332	0.376	0.280	0.388	0.464	0.457	0.423	0.513	0.511	0.457	0.532	0.525	0.621	0.623	0.638	0.551	0.551	0.428	0.351
