Sample:	'1
File name:	G2025080606月四会四泵站.FD3
Run date:	'11:10:38, 08/07/2025
Operator:	Administrator
Comment:	'

Instrument
Model:	F-2700 FL Spectrophotometer
Serial number:	23B8-004
ROM Version:	4J14000 07

Instrument parameters
Measurement type:	3-D scan
Data mode:	Fluorescence
EX  Start WL:	220.0 nm
EX  End WL:	600.0 nm
EX Sampling interval:	5.0 nm
EM  Start WL:	230.0 nm
EM  End WL:	650.0 nm
EM Sampling interval:	5.0 nm
Scan speed:	12000 nm/min
EX Slit:	5.0 nm
EM Slit:	5.0 nm
PMT Voltage:	700 V
Response:	Auto 
Corrected spectra:	Off
Contour interval:	50.000

Peak integration
Integration method:	Rectangular
Sensitivity:	1
Threshold:	1.000

Peaks
No.	ApexEX/EM(nm)	Height(Data)
1	225.0/570.0	53.74
2	225.0/625.0	44.53
3	230.0/250.0	259.8
4	230.0/340.0	1962
5	230.0/500.0	346.1
6	235.0/255.0	350.0
7	235.0/510.0	314.9
8	240.0/265.0	395.7
9	240.0/525.0	288.8
10	245.0/270.0	414.9
11	245.0/535.0	238.9
12	250.0/275.0	532.8
13	250.0/445.0	973.0
14	250.0/550.0	197.0
15	255.0/280.0	681.4
16	255.0/560.0	160.0
17	260.0/285.0	656.1
18	260.0/575.0	136.9
19	265.0/585.0	118.0
20	270.0/300.0	1188
21	270.0/405.0	896.2
22	270.0/600.0	106.4
23	275.0/305.0	1382
24	275.0/610.0	98.17
25	280.0/310.0	1275
26	280.0/340.0	1220
27	280.0/625.0	88.52
28	285.0/320.0	1319
29	285.0/635.0	66.84
30	290.0/325.0	1232
31	320.0/365.0	663.3
32	440.0/520.0	25.00
33	460.0/340.0	4.965
34	475.0/260.0	1.665
35	475.0/355.0	4.668
36	485.0/265.0	2.159
37	495.0/270.0	2.103
38	505.0/275.0	3.113
39	515.0/280.0	3.284
40	515.0/435.0	3.910
41	520.0/285.0	3.889
42	520.0/445.0	3.774
43	530.0/290.0	3.574
44	540.0/295.0	5.026
45	545.0/300.0	5.510
46	555.0/305.0	5.857
47	565.0/310.0	5.701
48	570.0/315.0	5.920
49	580.0/320.0	5.797
50	585.0/325.0	6.162

Data points
	220.0	225.0	230.0	235.0	240.0	245.0	250.0	255.0	260.0	265.0	270.0	275.0	280.0	285.0	290.0	295.0	300.0	305.0	310.0	315.0	320.0	325.0	330.0	335.0	340.0	345.0	350.0	355.0	360.0	365.0	370.0	375.0	380.0	385.0	390.0	395.0	400.0	405.0	410.0	415.0	420.0	425.0	430.0	435.0	440.0	445.0	450.0	455.0	460.0	465.0	470.0	475.0	480.0	485.0	490.0	495.0	500.0	505.0	510.0	515.0	520.0	525.0	530.0	535.0	540.0	545.0	550.0	555.0	560.0	565.0	570.0	575.0	580.0	585.0	590.0	595.0	600.0
230.0	47.92	438.4	1281	497.6	23.56	6.148	4.980	3.936	3.490	3.475	2.883	2.614	2.519	1.909	1.749	1.438	1.244	1.189	1.046	1.026	0.890	0.832	0.707	0.722	0.676	0.655	0.677	0.599	0.597	0.535	0.488	0.499	0.451	0.397	0.359	0.385	0.418	0.340	0.357	0.334	0.356	0.453	0.541	0.382	0.324	0.298	0.556	1.918	3.677	3.086	1.433	0.400	0.237	0.210	0.228	0.233	0.253	0.245	0.268	0.229	0.231	0.230	0.244	0.247	0.261	0.243	0.244	0.241	0.230	0.250	0.242	0.267	0.225	0.266	0.227	0.260	0.258
235.0	130.9	142.7	695.5	1344	524.3	41.70	4.708	5.340	4.474	3.900	2.894	2.659	2.279	2.279	1.624	1.423	1.325	1.178	1.073	0.933	0.824	0.794	0.742	0.633	0.772	0.678	0.687	0.613	0.673	0.678	0.558	0.451	0.398	0.526	0.407	0.446	0.391	0.426	0.359	0.294	0.307	0.343	0.479	0.644	0.451	0.369	0.358	0.689	1.379	2.396	3.643	4.445	2.403	0.696	0.233	0.223	0.238	0.231	0.269	0.245	0.248	0.220	0.283	0.343	0.247	0.243	0.238	0.265	0.219	0.250	0.260	0.238	0.225	0.226	0.229	0.276	0.234
240.0	174.2	142.8	212.0	965.9	1501	435.5	21.62	5.726	3.881	3.351	3.791	2.371	2.267	2.419	1.814	1.458	1.309	1.290	0.996	0.932	0.863	0.763	0.722	0.787	0.785	0.651	0.646	0.617	0.636	0.721	0.481	0.486	0.444	0.482	0.306	0.336	0.380	0.442	0.341	0.323	0.323	0.318	0.397	0.450	0.502	0.734	0.570	0.420	0.525	0.768	1.746	4.303	6.063	4.884	1.957	0.478	0.258	0.237	0.254	0.225	0.222	0.211	0.230	0.265	0.230	0.223	0.207	0.240	0.265	0.259	0.277	0.216	0.219	0.237	0.252	0.246	0.302
245.0	121.8	240.5	132.6	306.6	1311	1573	302.7	9.787	4.545	3.838	3.831	3.098	2.881	2.250	1.918	1.524	1.353	1.223	1.001	0.978	0.874	0.897	0.846	0.729	0.666	0.639	0.609	0.604	0.578	0.592	0.565	0.467	0.449	0.477	0.378	0.341	0.355	0.300	0.324	0.261	0.401	0.315	0.277	0.306	0.378	0.630	0.770	0.769	0.452	0.344	0.578	1.441	3.428	6.753	7.192	4.491	1.702	0.376	0.315	0.223	0.262	0.243	0.234	0.258	0.215	0.232	0.209	0.250	0.284	0.230	0.241	0.241	0.258	0.236	0.222	0.268	0.341
250.0	49.59	152.8	259.8	186.3	409.5	1243	1738	756.3	52.39	5.074	4.711	3.796	2.967	2.455	2.226	1.749	1.562	1.194	1.232	1.009	0.880	0.910	0.736	0.769	0.720	0.696	0.618	0.587	0.608	0.561	0.540	0.542	0.438	0.472	0.355	0.392	0.385	0.376	0.393	0.319	0.322	0.302	0.313	0.262	0.354	0.351	0.488	0.792	0.882	0.837	0.629	0.641	1.034	2.136	3.591	5.882	7.665	7.509	4.741	1.642	0.408	0.255	0.256	0.253	0.277	0.257	0.295	0.230	0.263	0.277	0.264	0.237	0.241	0.264	0.247	0.249	0.274
255.0	31.40	51.94	170.2	350.0	219.2	316.0	1076	2547	375.4	49.66	5.274	4.070	3.262	3.132	2.056	1.921	1.419	1.501	1.358	1.311	1.068	1.018	0.745	0.904	0.698	0.677	0.599	0.649	0.554	0.546	0.558	0.467	0.495	0.454	0.425	0.348	0.319	0.404	0.343	0.337	0.274	0.402	0.303	0.299	0.304	0.304	0.327	0.403	0.475	0.757	1.412	1.420	0.848	0.704	1.064	1.618	2.406	5.375	10.56	12.09	7.132	1.973	0.419	0.250	0.324	0.248	0.288	0.220	0.249	0.229	0.260	0.245	0.223	0.236	0.243	0.267	0.255
260.0	27.60	25.86	62.84	273.9	360.7	145.1	312.1	1717	2726	317.8	24.42	4.442	4.017	3.124	2.180	2.314	1.457	1.489	1.072	1.298	1.177	1.069	0.963	0.799	0.697	0.768	0.637	0.732	0.614	0.482	0.604	0.536	0.529	0.370	0.419	0.326	0.402	0.376	0.336	0.337	0.262	0.362	0.299	0.280	0.293	0.335	0.279	0.307	0.327	0.397	0.817	1.665	1.627	1.109	0.655	0.694	0.810	1.540	3.879	8.554	13.61	12.75	6.441	1.215	0.314	0.267	0.274	0.266	0.239	0.227	0.257	0.233	0.207	0.296	0.257	0.253	0.276
265.0	32.47	24.20	25.86	118.4	395.7	289.5	108.5	535.9	2415	2455	242.9	10.54	4.673	3.322	2.542	2.140	1.792	1.756	1.338	1.225	1.173	0.952	0.994	0.871	0.699	0.800	0.675	0.721	0.582	0.560	0.526	0.510	0.553	0.388	0.389	0.355	0.438	0.332	0.296	0.310	0.296	0.290	0.358	0.282	0.354	0.348	0.280	0.321	0.251	0.287	0.346	0.787	1.426	2.159	1.843	0.814	0.437	0.613	1.179	2.522	5.884	12.53	17.48	12.44	4.039	0.671	0.261	0.243	0.297	0.275	0.283	0.214	0.268	0.320	0.296	0.269	0.306
270.0	43.90	32.01	23.42	42.02	169.4	414.9	321.8	181.1	728.7	2179	2825	874.7	47.49	4.324	3.292	2.549	2.144	1.814	1.502	1.293	1.145	1.048	1.017	0.940	0.840	0.803	0.818	0.713	0.619	0.638	0.623	0.556	0.591	0.482	0.383	0.420	0.399	0.402	0.317	0.386	0.311	0.343	0.404	0.348	0.342	0.336	0.327	0.355	0.280	0.244	0.244	0.363	0.568	1.103	1.605	2.103	1.952	1.164	0.656	0.905	1.674	3.502	6.994	10.65	14.16	13.61	8.884	3.315	0.711	0.300	0.278	0.226	0.239	0.266	0.296	0.275	0.311
275.0	103.9	85.94	50.09	31.36	55.58	169.4	532.8	368.6	235.7	579.8	1740	4237	1138	37.66	3.958	3.021	2.442	1.859	1.637	1.342	1.432	1.038	0.903	0.989	0.742	0.747	0.858	0.757	0.684	0.652	0.591	0.592	0.536	0.534	0.582	0.536	0.591	0.487	0.356	0.401	0.429	0.445	0.392	0.484	0.498	0.440	0.445	0.377	0.409	0.257	0.277	0.328	0.386	0.502	0.573	0.886	2.002	3.113	2.412	1.224	0.762	1.169	2.037	2.814	4.006	7.113	14.37	19.75	13.96	3.484	0.489	0.262	0.271	0.254	0.280	0.248	0.274
280.0	164.1	129.3	83.15	47.76	37.26	67.48	310.4	681.4	286.7	225.2	545.1	2777	4136	186.4	15.29	3.869	2.864	1.968	1.804	1.437	1.534	0.994	1.144	1.037	0.867	0.794	0.891	0.725	0.699	0.684	0.589	0.594	0.595	0.588	0.766	0.529	0.679	0.543	0.470	0.590	0.615	0.542	0.473	0.519	0.534	0.606	0.500	0.452	0.474	0.369	0.377	0.313	0.327	0.368	0.403	0.448	0.791	1.732	3.175	3.284	1.810	0.936	0.927	1.347	1.452	2.237	4.549	10.59	19.38	19.85	10.57	2.019	0.345	0.332	0.341	0.264	0.274
285.0	224.2	184.4	131.4	70.67	47.61	52.10	141.0	561.3	656.1	236.4	259.4	894.7	3501	3323	135.7	8.280	3.588	2.860	2.094	1.534	1.546	1.149	1.061	0.943	1.028	0.890	0.901	0.664	0.742	0.690	0.618	0.505	0.559	0.558	0.778	0.798	0.753	0.673	0.537	0.605	0.569	0.664	0.594	0.574	0.672	0.676	0.571	0.629	0.547	0.455	0.412	0.375	0.334	0.326	0.385	0.384	0.553	0.840	1.610	3.064	3.889	2.545	1.184	0.898	0.968	1.363	1.781	3.161	6.831	14.21	21.15	16.85	6.600	0.947	0.323	0.275	0.337
290.0	292.0	272.2	198.8	123.4	83.49	82.26	119.3	274.5	652.7	705.1	365.5	406.5	1098	2695	2385	509.3	27.69	3.854	2.578	2.096	1.596	1.553	1.278	1.007	1.020	0.948	0.908	0.749	0.808	0.657	0.616	0.572	0.543	0.716	0.891	0.884	0.983	0.803	0.591	0.618	0.657	0.696	0.690	0.724	0.781	0.917	0.690	0.806	0.734	0.557	0.477	0.499	0.486	0.471	0.488	0.585	0.608	0.679	0.894	1.425	2.218	3.198	3.574	3.145	2.006	1.310	1.338	1.701	2.452	4.138	7.354	11.44	15.29	15.81	11.29	5.008	1.028
295.0	343.4	360.8	274.2	188.3	139.3	144.4	169.7	224.4	372.6	800.5	922.1	451.4	501.9	790.3	1585	3647	674.7	23.09	3.846	2.506	1.919	1.406	1.411	0.957	0.927	1.003	0.866	0.861	0.935	0.694	0.641	0.700	0.573	0.712	0.887	0.977	1.068	0.799	0.633	0.737	0.715	0.785	0.764	0.791	0.978	0.967	0.890	0.917	0.852	0.722	0.687	0.666	0.587	0.656	0.698	0.736	0.714	0.846	0.946	1.108	1.345	1.795	2.227	4.056	5.026	3.596	2.108	1.818	1.841	2.030	2.617	3.556	4.413	6.274	13.07	20.26	16.08
300.0	385.2	403.8	325.3	246.0	184.4	191.8	225.4	276.6	360.2	605.3	1188	836.0	490.8	436.9	561.1	2432	3349	106.6	10.23	3.210	2.392	1.789	1.432	1.362	1.272	1.211	0.964	0.853	0.876	0.691	0.777	0.541	0.650	0.740	0.882	0.920	1.171	0.842	0.949	0.781	0.838	0.780	0.833	0.812	1.025	1.095	0.945	1.107	1.058	0.880	0.742	0.918	0.792	0.756	0.824	0.800	0.883	1.129	1.132	1.295	1.532	1.798	1.872	2.471	3.913	5.510	4.693	3.034	2.203	2.025	1.943	2.157	2.013	2.436	4.189	8.926	17.55
305.0	434.1	460.6	387.7	288.2	236.5	252.5	302.9	364.8	434.8	595.2	1021	1382	759.1	491.6	398.5	826.3	2974	2668	82.56	5.722	2.937	2.170	1.542	1.522	1.293	1.297	0.999	0.915	0.898	0.790	0.777	0.740	0.748	0.755	0.779	0.965	1.008	1.043	0.902	0.819	0.870	0.835	0.849	0.865	1.071	1.207	1.136	1.276	1.016	0.987	0.892	1.053	0.970	0.924	0.906	1.140	1.214	1.323	1.502	1.741	1.865	2.007	2.260	2.371	2.897	4.025	5.804	5.857	4.293	2.996	2.514	2.241	1.984	2.030	2.212	3.049	5.761
310.0	457.7	522.0	460.2	349.6	304.3	313.8	376.9	449.4	527.2	651.0	861.4	1243	1275	737.9	460.4	425.2	984.3	2239	2350	335.3	17.53	2.897	2.095	1.713	1.472	1.374	1.069	1.093	0.955	0.820	0.730	0.784	0.724	0.721	0.851	0.949	0.912	1.049	0.901	0.852	0.924	0.847	0.904	0.944	1.103	1.213	1.245	1.423	1.368	1.182	1.067	1.249	1.170	1.174	1.168	1.358	1.474	1.699	1.793	1.952	2.048	2.280	2.550	2.679	2.975	3.315	4.145	4.967	5.555	5.701	4.442	3.233	2.619	2.393	2.099	1.977	2.447
315.0	548.1	603.6	552.8	437.0	352.3	352.1	424.2	501.2	593.6	710.0	868.5	1036	1226	1224	642.8	408.9	456.2	653.0	1458	2818	465.0	12.07	2.969	1.910	1.633	1.460	1.273	1.117	1.049	0.836	0.882	0.735	0.753	0.736	0.923	0.884	0.889	0.988	0.913	0.919	0.906	0.760	0.899	1.151	1.264	1.484	1.496	1.768	1.502	1.230	1.177	1.516	1.371	1.449	1.584	1.557	1.711	1.960	1.924	2.055	2.148	2.505	2.702	3.025	3.341	3.482	3.859	4.100	4.443	4.831	5.920	5.633	4.206	2.955	2.233	1.936	1.955
320.0	678.0	875.4	798.1	558.2	413.2	394.5	453.8	544.8	643.3	785.2	945.4	1070	1114	1319	995.8	504.6	398.3	323.7	456.4	1992	2482	74.63	6.407	2.680	1.976	1.603	1.362	1.298	1.066	1.023	0.927	0.806	0.830	0.812	0.822	0.891	0.911	1.029	0.892	0.877	0.845	0.918	1.038	1.270	1.465	1.662	2.126	2.510	1.950	1.833	1.538	1.578	1.477	1.671	1.520	1.699	1.927	2.174	2.126	2.160	2.249	2.777	3.050	3.095	3.580	3.716	4.018	4.031	4.236	4.409	4.616	5.427	5.797	4.815	3.245	2.360	2.101
325.0	854.4	1230	1227	788.7	488.8	441.0	490.4	586.3	691.1	837.0	1021	1138	1134	1158	1232	713.3	432.0	288.9	219.4	622.7	2325	1918	58.65	4.758	2.436	1.856	1.485	1.380	1.207	0.997	0.903	0.846	0.777	0.723	0.930	0.837	0.914	1.011	0.925	0.863	0.991	1.088	1.084	1.375	1.739	2.180	2.580	3.257	3.074	2.844	2.155	2.158	1.874	1.828	1.508	1.819	1.934	2.084	2.209	2.466	2.769	2.997	3.281	3.456	3.607	4.043	4.259	4.147	4.711	4.527	4.337	4.747	5.184	6.162	5.340	3.407	2.615
330.0	968.0	1479	1556	1114	672.5	526.5	515.2	617.3	714.4	871.4	1040	1179	1176	1095	1083	990.3	626.2	349.8	221.0	252.2	722.0	1733	1435	258.2	14.43	2.659	1.861	1.468	1.310	1.133	1.010	0.939	0.863	0.808	0.913	0.840	0.901	0.949	1.003	0.948	0.953	1.123	1.282	1.475	2.062	2.561	3.197	3.744	4.107	3.560	3.050	2.979	2.500	2.119	1.927	1.914	2.110	2.214	2.329	2.685	2.903	3.036	3.231	3.551	3.696	4.038	4.379	4.452	4.598	4.730	4.545	4.580	4.707	4.710	4.740	4.727	4.657
335.0	1071	1652	1822	1343	904.8	629.1	574.3	645.9	731.4	905.8	1061	1202	1212	1128	999.3	911.0	911.3	531.2	292.0	227.2	281.4	486.5	1173	2303	376.7	10.95	2.717	1.821	1.430	1.183	1.005	1.088	0.778	0.868	0.844	0.815	0.979	0.910	1.072	0.896	1.029	1.224	1.443	1.711	2.254	2.680	3.517	4.390	4.609	4.260	3.769	3.897	3.065	2.832	2.399	2.222	2.183	2.377	2.388	2.590	2.868	2.934	3.502	3.563	3.706	4.164	4.264	4.793	4.790	4.545	4.834	4.796	4.736	4.339	4.295	4.168	4.740
340.0	1074	1722	1962	1492	1006	710.4	603.0	641.0	742.2	905.6	1067	1215	1220	1142	999.4	850.1	880.8	752.3	389.8	265.3	220.2	219.8	380.9	1712	2079	61.98	5.987	2.184	1.634	1.556	1.317	0.991	0.893	0.852	0.812	0.915	0.969	0.917	0.991	0.922	1.065	1.223	1.379	1.632	2.151	2.928	3.646	4.685	4.965	4.572	3.808	4.002	3.578	3.304	2.624	2.374	2.448	2.611	2.487	2.713	2.902	2.928	3.419	3.566	3.667	3.757	4.529	4.736	4.741	4.767	4.901	4.522	4.445	4.445	4.408	3.952	4.101
345.0	1032	1667	1956	1551	1079	756.7	634.7	657.9	741.8	894.7	1039	1184	1185	1132	996.8	841.7	770.2	814.0	564.0	319.4	239.5	190.5	181.3	547.9	1987	1616	50.47	4.054	2.294	1.596	1.471	1.042	0.854	0.970	0.744	0.864	0.822	0.983	0.947	0.990	1.080	1.177	1.381	1.559	2.130	2.811	3.401	4.509	4.844	4.756	3.932	4.449	3.823	3.234	2.798	2.469	2.488	2.528	2.580	2.735	2.878	3.051	3.258	3.432	3.730	3.893	4.337	4.884	4.492	4.859	4.899	4.621	4.424	4.297	4.270	3.859	3.980
350.0	913.3	1491	1773	1554	1157	842.1	687.3	681.8	749.6	863.4	1003	1118	1144	1103	992.1	857.8	749.4	710.7	703.7	504.9	318.0	236.3	182.4	213.8	615.0	1448	1160	222.4	12.50	2.591	1.568	1.180	1.041	0.935	0.912	0.882	0.919	0.965	0.977	0.882	0.994	1.083	1.264	1.564	1.987	2.703	3.245	4.068	4.444	4.538	4.059	4.546	3.982	3.616	3.075	2.657	2.646	2.727	2.772	2.776	2.927	3.008	3.216	3.568	3.744	3.908	3.967	4.460	4.290	4.495	4.715	4.629	4.640	4.300	4.367	3.967	3.991
355.0	860.1	1348	1657	1517	1211	911.5	743.9	729.2	782.3	877.8	990.2	1074	1106	1077	979.7	875.3	778.4	689.6	641.2	673.9	489.8	309.4	231.6	179.6	219.2	389.8	943.4	1845	329.7	9.459	2.420	1.444	1.217	1.009	0.979	1.028	0.970	0.895	0.968	0.875	1.072	0.955	1.202	1.439	1.900	2.537	2.998	3.744	4.167	3.927	3.929	4.668	4.076	3.851	3.274	2.856	3.094	2.819	2.761	2.832	3.067	3.173	3.233	3.442	3.654	3.694	4.027	4.208	4.309	4.291	4.545	4.506	4.556	4.447	4.566	4.169	4.143
360.0	786.6	1261	1544	1454	1223	960.6	802.6	768.1	796.2	879.2	974.5	1057	1069	1050	980.3	888.7	800.9	708.9	631.6	648.5	639.6	406.7	280.9	203.8	161.4	159.6	295.2	1391	1744	56.08	5.088	2.242	1.458	1.218	1.004	0.962	1.014	1.082	0.986	1.048	0.964	1.026	1.145	1.395	1.620	2.504	2.590	3.285	3.709	3.853	3.865	4.319	4.064	3.978	3.405	3.105	3.216	3.047	2.939	3.064	3.014	3.167	3.357	3.542	3.518	3.779	4.008	4.127	4.049	4.255	4.480	4.579	4.453	4.388	4.234	4.502	4.289
365.0	746.3	1145	1442	1406	1213	999.1	851.7	801.6	818.3	879.8	973.4	1039	1056	1032	974.2	889.7	813.7	736.8	652.1	609.4	663.3	545.5	341.2	241.7	174.1	130.6	130.5	441.2	1700	1411	45.89	3.694	1.809	1.541	1.046	0.957	1.145	0.983	0.976	1.041	0.924	1.112	1.168	1.424	1.690	2.055	2.539	3.137	3.583	3.574	3.558	4.234	4.138	3.939	3.502	3.222	3.371	3.168	3.024	2.960	3.019	3.429	3.599	3.390	3.413	3.757	3.780	3.749	4.240	4.251	4.395	4.350	4.217	4.456	4.399	4.266	4.299
370.0	679.7	1053	1336	1326	1218	1029	898.5	847.3	832.1	890.2	965.8	1011	1025	995.5	947.4	885.8	824.0	757.7	687.3	625.7	603.7	612.8	490.7	314.8	222.1	164.7	124.2	163.6	521.6	1297	1373	198.4	10.93	2.070	1.303	1.185	1.139	1.033	0.915	0.933	0.930	1.022	1.172	1.312	1.616	2.078	2.381	2.938	3.274	3.480	3.562	4.248	4.177	4.088	3.593	3.386	3.409	3.209	3.213	3.299	3.363	3.231	3.362	3.350	3.539	3.712	3.902	3.901	3.935	3.959	4.002	4.343	4.057	4.381	4.166	4.192	4.227
375.0	647.3	974.6	1224	1262	1206	1068	942.4	880.8	858.2	894.7	959.7	983.2	986.6	966.5	918.4	858.6	818.1	761.8	713.4	651.2	600.9	563.1	579.5	453.2	287.4	213.2	160.5	132.0	180.7	345.1	938.3	1631	282.9	8.528	2.040	1.359	1.137	1.007	1.019	0.960	0.831	0.997	1.071	1.238	1.443	1.902	2.240	2.845	3.052	3.167	3.118	4.032	4.071	4.141	3.566	3.636	3.593	3.305	3.595	3.432	3.305	3.422	3.536	3.526	3.755	3.563	3.792	3.762	3.764	4.045	3.984	3.802	4.020	4.076	3.984	4.096	4.128
380.0	631.3	904.4	1145	1228	1174	1060	961.2	900.9	879.1	896.9	938.1	950.9	963.8	932.8	887.6	838.8	809.3	759.7	713.8	670.9	616.0	561.9	550.4	546.7	374.9	259.0	195.8	147.3	124.1	134.8	281.5	1222	1451	46.38	4.653	2.072	1.455	1.238	1.067	1.031	0.969	1.083	1.028	1.204	1.471	1.951	2.110	2.674	2.842	2.901	3.104	4.125	4.050	3.946	3.810	3.521	3.629	3.727	3.228	3.357	3.331	3.543	3.577	3.671	3.809	3.656	3.607	4.007	3.923	3.854	4.009	3.875	3.839	4.454	4.167	3.997	4.256
385.0	581.5	872.1	1091	1165	1132	1070	970.3	897.5	881.9	884.0	924.6	942.3	927.5	901.3	860.0	810.1	788.9	755.9	713.1	673.1	622.8	567.0	522.6	542.2	473.8	313.8	231.2	177.2	132.7	102.9	111.6	381.4	1370	1106	36.79	3.206	2.063	1.449	1.166	1.020	1.069	1.001	1.277	1.260	1.311	1.782	2.081	2.311	2.849	2.677	2.987	3.833	3.740	3.800	4.024	3.755	3.502	3.522	3.408	3.404	3.419	3.564	3.340	3.282	3.718	3.739	3.399	3.615	3.665	3.701	3.816	3.860	3.932	3.986	4.011	3.913	4.027
390.0	587.0	828.2	1035	1080	1103	1051	977.1	911.7	883.3	875.8	902.0	908.1	885.8	863.0	822.9	779.3	752.4	734.7	700.8	668.3	626.9	579.3	530.9	500.7	499.5	426.0	294.1	217.6	167.7	126.1	97.73	134.6	412.6	981.2	1022	158.7	10.41	2.460	1.427	1.363	1.087	1.065	1.145	1.236	1.411	1.760	1.923	2.269	2.619	2.537	2.854	3.696	3.663	3.674	3.859	3.892	3.816	3.526	3.473	3.511	3.422	3.400	3.331	3.405	3.434	3.472	3.542	3.477	3.382	3.637	3.526	3.659	3.735	3.785	3.707	3.956	3.718
395.0	573.5	790.0	986.8	1055	1076	1043	971.2	916.4	873.5	874.9	883.0	880.1	863.4	837.8	796.6	752.0	721.2	699.8	682.1	658.0	624.1	592.8	550.5	507.6	469.3	480.1	407.4	283.8	217.2	173.0	130.4	105.4	143.7	263.3	664.3	1214	241.9	9.644	2.429	1.760	1.272	1.120	1.181	1.274	1.427	1.687	1.869	2.114	2.559	2.478	2.605	3.589	3.481	3.606	3.591	3.898	3.849	3.712	3.537	3.694	3.503	3.333	3.394	3.419	3.609	3.469	3.293	3.313	3.381	3.399	3.473	3.542	3.497	3.431	3.851	3.802	3.708
400.0	532.2	772.4	936.4	1018	1045	1036	966.9	934.0	877.6	882.5	893.7	875.0	863.2	831.9	775.1	732.6	705.5	676.6	663.5	644.9	622.9	598.5	566.3	523.7	483.1	471.5	477.0	370.6	271.9	218.4	171.4	128.3	105.0	110.8	206.9	861.1	1096	40.91	5.463	2.285	1.485	1.234	1.219	1.355	1.516	1.607	1.853	2.173	2.455	2.439	2.707	3.629	3.394	3.483	3.583	3.599	3.716	3.939	3.602	3.512	3.266	3.280	3.319	3.653	3.465	3.427	3.289	3.141	3.029	3.195	3.450	3.339	3.315	3.550	3.585	3.506	3.616
405.0	535.7	731.7	916.2	975.6	1034	1026	987.6	930.8	896.6	885.4	896.2	888.7	861.8	819.2	769.4	717.5	682.1	660.7	647.8	633.3	619.4	604.5	575.8	547.3	510.4	478.9	487.0	462.8	343.6	268.5	216.2	166.0	123.1	96.75	99.24	275.9	968.3	863.9	34.57	3.392	1.782	1.434	1.193	1.401	1.529	1.405	1.766	2.007	2.262	2.395	2.489	3.365	3.403	3.573	3.437	3.650	3.742	3.882	3.588	3.545	3.398	3.401	3.341	3.362	3.487	3.316	3.295	3.082	3.182	3.128	3.278	3.300	3.517	3.496	3.269	3.342	3.552
410.0	507.7	696.5	852.0	946.0	982.6	992.9	980.5	937.5	898.9	888.5	882.7	874.6	851.7	801.3	750.8	695.8	652.4	629.9	618.2	610.9	600.4	593.5	576.4	559.5	528.7	499.6	477.7	479.4	437.3	336.3	263.3	205.7	155.7	117.0	93.73	115.4	295.5	706.2	773.0	149.5	9.204	1.908	1.504	1.345	1.379	1.478	1.772	2.052	2.167	2.243	2.475	3.205	3.286	3.401	3.334	3.538	3.801	3.731	3.644	3.610	3.474	3.460	3.395	3.410	3.374	3.210	3.083	3.167	3.244	3.066	3.213	3.173	3.361	3.257	3.173	3.325	3.226
415.0	490.2	680.3	812.6	880.1	936.8	953.0	953.8	919.7	885.8	860.4	848.9	844.4	807.5	754.3	695.8	656.5	608.8	593.1	581.6	576.4	570.4	565.2	555.4	541.9	523.4	495.1	466.5	446.4	446.4	405.9	299.1	229.3	174.0	132.4	100.5	84.53	105.3	186.6	446.8	882.3	220.0	7.991	1.962	1.585	1.596	1.628	1.769	1.859	2.263	2.172	2.416	3.061	3.161	3.244	3.328	3.414	3.657	3.696	3.645	3.343	3.360	3.203	3.349	3.260	3.255	3.135	3.223	3.045	3.158	2.978	2.904	3.276	3.176	3.171	3.030	3.061	3.161
420.0	467.6	636.0	769.7	831.7	894.5	931.8	926.9	908.0	864.5	843.3	835.1	808.2	768.9	714.5	660.5	619.5	579.8	558.9	550.3	545.5	539.6	540.3	538.2	525.0	509.8	485.2	460.3	430.7	413.7	421.1	339.4	241.6	183.7	139.6	107.1	81.69	66.96	67.67	126.3	563.0	824.5	38.05	3.651	1.824	1.718	1.660	1.647	1.853	2.323	2.084	2.198	3.010	3.204	3.184	3.385	3.437	3.508	3.784	3.501	3.364	3.184	3.482	3.402	3.140	3.350	3.245	3.011	2.884	2.946	2.944	2.811	2.981	3.011	2.921	3.062	2.887	2.950
425.0	469.2	617.8	747.2	836.0	886.8	931.7	928.0	919.9	863.6	826.2	811.2	782.0	748.3	692.0	632.3	583.3	551.5	529.6	526.2	521.7	516.8	514.7	517.8	510.4	495.1	479.4	454.5	428.2	399.4	399.6	372.8	268.0	195.2	148.6	112.9	87.41	61.97	44.14	47.04	162.1	640.6	663.9	32.46	2.619	1.728	1.649	1.578	1.849	1.968	2.117	2.106	2.918	2.963	3.046	3.331	3.296	3.648	3.615	3.398	3.284	3.380	3.425	3.241	3.109	3.311	3.007	2.925	2.845	2.761	2.804	2.688	2.908	2.852	2.724	3.009	2.814	2.711
430.0	518.8	591.5	704.3	806.2	872.2	922.8	930.3	930.9	866.4	816.4	798.2	763.0	725.8	662.6	608.7	563.7	527.6	510.0	501.1	495.3	490.0	487.7	494.3	494.2	485.9	472.9	456.1	433.8	404.6	382.7	367.2	321.0	229.9	167.7	128.4	99.06	70.21	47.03	33.91	51.54	177.1	475.8	467.5	141.2	9.814	2.094	1.694	1.929	2.006	1.996	2.103	2.965	2.749	3.095	3.268	3.292	3.608	3.633	3.757	3.556	3.414	3.309	3.340	3.246	3.087	3.040	2.855	2.862	2.782	2.701	2.680	2.789	2.644	2.743	2.744	2.598	2.783
435.0	725.3	586.2	691.9	766.2	850.5	910.8	960.5	952.1	869.8	811.2	779.9	742.9	696.2	647.5	589.2	546.3	507.0	488.5	480.7	475.4	462.8	464.8	472.2	472.5	469.1	463.2	450.6	433.6	409.1	381.1	351.5	325.6	278.5	193.9	144.9	111.9	82.31	54.87	37.42	30.89	53.19	118.1	270.9	720.0	222.1	11.62	2.118	2.089	1.883	1.921	2.087	2.793	2.702	3.092	3.324	3.319	3.687	3.720	3.818	3.910	3.513	3.577	3.293	3.278	3.137	3.028	2.799	2.880	2.848	2.500	2.670	2.825	2.551	2.692	2.441	2.580	2.689
440.0	890.4	623.1	647.2	750.3	826.7	919.3	949.0	947.9	868.4	798.1	756.1	722.8	671.8	622.3	563.4	526.1	485.2	467.5	462.8	450.5	442.1	439.5	445.7	452.5	452.6	447.5	438.9	426.9	403.3	378.6	342.1	306.3	282.1	222.7	154.2	117.2	88.30	60.13	41.02	29.99	28.26	38.54	75.02	417.8	724.9	175.3	5.487	2.427	2.200	1.932	2.146	2.601	2.746	3.035	3.318	3.316	3.804	3.710	3.690	3.726	3.511	3.358	3.037	2.921	3.021	2.937	2.625	2.770	2.562	2.555	2.479	2.563	2.562	2.606	2.491	2.566	2.664
445.0	856.9	809.3	631.6	748.3	829.7	919.1	973.0	958.2	854.2	786.2	720.1	686.5	639.2	585.6	536.8	497.9	465.7	448.2	443.1	427.5	420.2	411.1	420.3	427.1	427.3	427.9	417.7	409.2	392.3	367.0	333.3	289.1	259.9	238.2	169.7	121.5	91.22	63.11	44.47	32.52	25.26	22.68	27.03	115.7	509.2	655.8	30.11	3.547	2.352	2.039	2.248	2.718	2.898	3.056	3.397	3.309	3.753	3.745	3.713	3.516	3.774	3.226	2.976	2.979	2.955	2.844	2.583	2.585	2.562	2.398	2.567	2.558	2.410	2.773	2.371	2.400	2.598
450.0	606.1	1066	708.6	699.9	789.9	896.3	946.0	938.1	838.6	752.1	675.9	632.4	595.4	540.3	500.0	461.8	434.9	419.0	410.2	397.3	381.4	379.7	383.0	391.7	392.5	393.3	384.9	377.6	365.7	346.1	313.1	271.7	234.3	215.4	186.8	134.1	94.58	67.82	48.81	36.30	27.01	21.35	18.89	35.53	136.6	405.2	532.0	131.2	10.50	2.251	2.261	2.563	2.776	3.092	3.041	3.401	3.531	3.533	3.634	3.616	3.505	3.307	2.976	2.879	2.906	2.641	2.532	2.525	2.357	2.334	2.413	2.216	2.157	2.290	2.219	2.488	2.434
455.0	403.1	991.0	1018	662.9	741.2	828.8	909.6	885.4	795.7	697.5	617.8	585.2	549.5	500.9	455.4	423.9	400.3	382.8	376.7	364.4	347.7	342.3	344.4	353.0	354.2	355.9	352.3	348.1	338.7	320.0	291.7	255.6	219.4	186.1	173.0	152.6	103.1	69.63	52.13	40.02	30.16	23.67	19.14	19.83	38.99	98.31	220.7	576.1	198.3	12.16	2.310	2.553	2.680	2.786	2.987	3.118	3.441	3.669	3.420	3.615	3.190	3.173	2.874	2.877	2.478	2.485	2.316	2.358	2.057	2.136	2.092	2.232	1.831	1.992	2.308	2.221	2.215
460.0	348.6	717.5	1314	722.0	719.5	799.3	864.7	848.7	768.1	659.6	592.8	552.9	509.5	465.8	422.7	396.4	373.7	360.6	348.6	334.5	323.0	312.9	315.2	325.5	326.1	329.3	325.7	326.5	316.8	302.0	277.1	244.6	209.3	175.0	155.5	148.3	116.6	74.80	53.94	42.13	32.54	25.85	20.96	17.01	19.16	29.51	57.79	292.5	581.8	153.2	7.630	2.682	2.695	2.801	3.074	3.030	3.378	3.449	3.221	3.507	3.195	2.843	2.655	2.521	2.313	2.393	2.150	2.288	2.088	2.176	2.098	2.058	1.857	1.938	2.119	1.973	2.051
465.0	329.7	498.2	1252	937.6	663.6	751.3	822.8	825.1	723.8	626.4	557.5	511.2	475.4	435.8	398.3	368.4	349.9	332.9	324.9	313.4	297.1	289.9	291.3	301.4	301.1	304.7	302.1	303.4	297.3	283.7	262.5	230.8	197.2	166.9	142.8	130.6	122.9	83.30	55.96	43.18	33.88	27.63	22.50	17.82	15.42	15.07	19.84	78.54	368.2	507.0	117.6	4.470	2.802	2.783	2.773	2.844	3.132	3.208	3.245	3.393	2.878	2.994	2.606	2.355	2.286	2.101	2.019	2.054	2.081	1.938	1.901	1.938	1.935	1.814	2.016	1.941	1.879
470.0	320.7	396.3	813.7	1279	737.8	675.0	746.4	745.0	658.8	568.9	502.5	459.8	426.5	390.6	359.0	329.1	311.5	299.8	292.0	280.3	261.9	254.9	258.4	264.9	266.3	269.0	270.7	269.5	264.7	257.0	236.0	211.0	181.2	152.9	130.2	112.7	105.8	91.47	62.72	44.84	35.03	28.21	23.33	18.79	15.37	13.15	11.93	23.89	96.25	278.3	389.5	125.8	11.42	2.745	2.572	2.660	2.895	3.063	2.953	2.737	2.795	2.605	2.335	2.301	2.089	2.012	1.922	1.810	1.712	1.656	1.792	1.677	1.858	1.702	1.803	1.866	1.735
475.0	316.3	352.8	473.9	1143	1091	615.9	663.5	659.8	589.3	508.6	460.6	413.7	380.9	344.3	319.3	289.5	274.0	264.4	257.4	245.1	229.1	220.3	220.9	228.6	230.5	233.1	236.4	233.1	231.5	223.4	210.8	188.6	163.3	140.2	119.4	101.0	87.47	81.76	71.95	50.11	35.40	29.28	24.37	19.40	16.01	13.84	11.10	11.88	26.95	66.84	144.5	373.2	187.0	14.35	2.619	2.622	2.852	2.788	2.662	2.594	2.397	2.332	2.210	2.058	1.863	2.078	1.818	1.692	1.531	1.642	1.500	1.597	1.614	1.648	1.563	1.756	1.572
480.0	312.9	355.7	390.2	783.8	1385	675.9	601.4	609.5	547.5	468.1	408.4	387.3	352.6	321.0	290.3	268.1	253.6	243.5	233.0	221.8	210.0	199.2	201.4	205.7	210.9	212.1	213.9	213.3	209.2	205.5	193.6	173.2	151.2	130.2	111.4	94.81	79.70	70.03	70.95	57.19	37.59	30.27	24.80	20.16	16.80	14.58	11.64	10.05	11.86	19.80	37.42	173.4	418.6	162.1	7.014	2.490	2.673	2.654	2.768	2.391	2.256	2.356	1.990	1.716	1.882	1.816	1.566	1.699	1.537	1.425	1.608	1.452	1.484	1.449	1.388	1.587	1.403
485.0	297.2	381.7	355.5	519.3	1332	915.9	582.4	566.3	506.0	431.6	386.1	360.1	326.4	298.6	268.4	246.0	234.4	224.0	214.7	205.8	193.5	186.1	187.7	187.4	193.4	194.5	195.7	194.4	193.9	188.7	178.3	161.7	142.3	121.6	105.2	88.40	75.67	63.99	62.52	60.63	43.39	30.43	25.15	21.13	17.04	14.78	11.76	9.941	8.937	9.684	12.63	46.22	243.3	406.8	30.84	4.243	2.560	2.592	2.496	2.309	2.174	2.176	1.981	1.667	1.691	1.616	1.501	1.594	1.557	1.301	1.474	1.399	1.479	1.393	1.261	1.451	1.358
490.0	224.5	359.4	341.9	385.1	845.8	1298	637.5	505.0	455.9	401.2	355.4	325.6	299.2	267.5	239.9	221.6	209.6	201.4	193.0	184.2	173.0	164.3	167.5	170.0	170.9	172.9	174.4	173.9	174.5	170.7	161.2	147.5	129.7	111.9	95.93	82.40	69.94	60.34	52.54	53.15	49.64	35.38	25.94	21.34	17.68	15.32	12.95	10.71	8.876	7.801	7.605	14.27	62.64	203.8	318.7	128.7	12.84	2.740	2.305	2.229	1.974	1.957	1.730	1.594	1.567	1.575	1.425	1.384	1.406	1.231	1.263	1.289	1.229	1.309	1.229	1.255	1.286
495.0	183.4	294.4	342.5	337.1	476.1	1187	965.2	448.0	399.0	347.3	322.1	284.9	264.6	235.4	216.8	198.2	188.8	178.6	171.5	161.8	152.9	143.4	146.5	148.8	150.3	150.1	152.1	152.5	154.7	152.1	144.7	129.0	115.6	100.1	86.92	76.29	65.22	56.03	47.13	43.12	45.89	42.32	28.37	21.73	17.74	15.63	12.97	11.31	9.387	7.771	6.751	7.909	17.63	49.03	120.2	344.0	211.6	16.29	2.341	2.057	2.032	1.596	1.753	1.454	1.562	1.410	1.365	1.129	1.142	1.279	1.213	0.974	1.147	1.166	1.092	1.310	1.200
500.0	160.7	248.3	346.1	301.2	346.1	798.3	1300	485.1	360.3	319.2	284.6	263.6	236.7	212.8	198.0	178.8	168.8	161.3	153.8	147.8	136.6	129.0	131.5	132.7	133.9	135.5	136.9	136.9	137.4	135.7	131.2	118.7	105.1	93.17	81.87	70.12	61.56	51.63	44.44	39.34	38.24	41.37	33.92	22.62	18.49	15.55	13.52	11.32	10.32	8.254	6.804	6.513	7.526	14.46	30.86	150.2	393.3	173.2	8.729	2.059	1.866	1.625	1.478	1.423	1.409	1.261	1.331	1.151	1.199	1.068	1.135	1.097	1.111	1.038	1.010	1.006	1.068
505.0	156.2	201.2	332.5	310.2	291.7	480.6	1318	691.6	329.2	291.0	262.3	237.8	221.6	198.8	171.8	161.4	151.6	143.3	140.0	131.9	122.7	116.6	116.2	118.6	118.9	123.0	124.5	123.8	124.6	122.2	117.9	107.8	94.45	86.06	76.22	65.04	57.47	48.33	41.84	36.14	32.93	36.09	36.00	25.27	18.24	15.46	13.60	11.47	10.36	8.619	6.828	6.247	5.722	6.702	10.46	38.88	206.1	378.9	33.91	4.276	1.762	1.607	1.219	1.384	1.293	1.336	1.133	1.217	1.103	1.016	1.005	1.003	1.075	1.004	0.987	0.947	0.878
510.0	132.8	167.1	263.5	314.9	265.0	330.1	817.4	1108	363.5	259.9	236.0	213.3	197.0	173.5	153.5	141.8	131.3	124.0	119.5	114.5	106.5	100.5	100.9	103.0	103.7	106.2	107.2	106.3	108.2	106.2	102.8	93.24	83.57	76.36	66.62	58.06	51.01	43.56	37.44	32.97	29.81	28.17	31.13	28.49	20.99	15.83	13.36	11.31	9.966	8.687	7.355	6.449	5.449	5.197	5.639	11.91	52.39	172.6	234.9	129.6	12.40	1.670	1.346	1.256	1.191	1.143	1.102	1.121	1.010	0.918	0.881	0.984	0.920	0.906	0.908	0.918	0.897
515.0	114.4	154.5	184.0	293.4	260.4	252.6	406.8	1109	694.7	232.0	209.7	184.4	168.9	149.8	134.7	119.2	113.3	107.2	103.7	97.63	90.54	86.29	87.89	87.34	89.75	89.33	90.33	90.69	91.99	91.17	86.68	80.26	71.44	65.51	58.76	50.36	43.91	38.63	33.67	30.27	26.57	24.11	24.03	26.86	24.57	16.98	12.92	10.65	9.419	8.579	7.071	6.728	5.733	4.869	4.902	6.204	14.84	41.28	83.11	262.0	189.8	15.07	1.420	1.266	1.204	0.925	1.024	0.842	0.938	0.848	0.822	0.848	0.831	0.831	0.749	0.752	0.812
520.0	104.7	130.3	165.4	251.6	275.3	217.8	269.6	734.3	1050	270.2	187.3	168.9	150.0	132.7	118.5	108.2	102.7	93.98	91.27	85.24	79.54	76.96	76.18	78.47	78.62	78.08	79.66	80.21	80.74	79.98	76.19	70.28	64.48	57.50	51.20	45.49	40.07	35.30	30.98	27.36	24.34	22.13	20.44	22.17	25.00	19.56	12.80	10.26	9.076	8.179	6.966	6.368	6.050	5.064	4.371	4.437	6.574	11.64	21.44	109.3	289.6	136.6	7.250	1.231	1.034	0.918	0.905	0.785	0.897	0.785	0.845	0.828	0.796	0.720	0.760	0.726	0.661
525.0	94.13	116.0	145.0	200.7	288.8	211.4	222.5	381.7	1192	372.6	167.1	151.0	138.5	119.5	106.4	97.45	91.52	84.67	81.65	75.14	71.91	68.96	69.17	69.09	68.98	72.13	71.01	72.08	72.65	71.70	68.93	62.87	58.11	51.87	46.78	41.88	36.52	32.31	28.44	25.51	22.08	20.15	18.16	17.64	21.39	21.18	13.80	9.861	8.861	7.397	7.092	5.950	5.952	5.231	4.420	4.121	4.156	5.257	7.223	27.89	142.0	271.4	34.09	3.199	1.129	0.891	0.873	0.737	0.841	0.760	0.806	0.758	0.761	0.668	0.685	0.635	0.675
530.0	86.35	105.8	120.2	149.8	247.0	223.1	183.0	222.0	740.7	914.5	207.8	132.1	118.0	104.8	92.37	80.97	78.16	71.58	69.10	65.28	61.53	59.36	59.33	58.52	59.70	59.90	60.82	60.78	61.96	61.24	59.01	54.73	50.13	45.54	40.37	35.75	32.41	28.74	25.11	22.55	20.01	18.01	16.37	15.01	16.28	18.56	16.73	11.41	8.504	6.879	6.364	5.559	5.461	5.077	4.547	4.014	3.793	3.639	3.864	8.143	35.43	118.9	184.9	105.9	11.17	0.935	0.849	0.831	0.760	0.680	0.725	0.744	0.692	0.663	0.561	0.709	0.587
535.0	73.65	84.87	102.1	114.7	169.8	238.9	166.2	158.2	300.1	1016	508.7	114.8	102.9	88.76	79.16	70.37	67.16	60.62	59.25	55.50	51.28	49.56	51.19	50.37	49.61	50.85	50.96	51.10	52.15	52.05	51.14	46.37	43.14	37.88	34.43	30.37	27.82	24.33	22.13	20.11	17.54	16.02	14.43	12.99	12.65	13.05	15.83	13.53	8.923	6.764	5.782	5.308	5.055	4.643	4.707	4.016	3.493	3.035	2.891	3.830	9.395	27.91	59.22	184.5	139.5	12.63	0.780	0.791	0.650	0.635	0.661	0.640	0.623	0.606	0.575	0.611	0.580
540.0	72.61	73.35	86.01	93.91	127.7	224.4	175.6	135.5	164.6	638.8	902.4	134.8	91.20	79.19	69.77	61.66	57.57	54.12	50.80	48.32	45.37	43.35	43.88	44.29	43.13	43.44	44.55	44.71	44.37	44.55	43.94	40.62	36.99	34.00	29.75	27.73	24.10	21.44	19.24	17.69	15.40	14.63	13.05	11.88	11.26	10.44	12.41	13.51	9.816	6.681	5.455	4.754	4.419	4.123	3.921	4.079	3.412	2.902	2.453	2.753	3.677	7.658	14.63	71.84	201.7	100.1	5.728	0.693	0.610	0.587	0.618	0.523	0.511	0.527	0.495	0.477	0.490
545.0	64.50	76.70	78.67	91.75	97.81	185.7	194.4	117.8	119.4	294.9	1078	244.0	78.83	70.69	59.68	54.74	50.00	46.37	45.91	41.79	40.55	38.28	38.02	38.19	38.33	38.30	39.44	38.58	39.18	39.97	37.32	35.93	32.15	29.17	26.77	24.29	21.15	19.05	17.77	15.95	13.69	13.05	11.39	10.92	9.996	9.307	9.380	11.94	11.01	7.176	5.326	4.594	3.999	3.786	3.669	3.974	3.479	2.608	2.283	2.134	2.290	2.888	4.268	17.76	91.87	188.0	33.13	2.502	0.620	0.562	0.574	0.523	0.502	0.535	0.560	0.512	0.436
550.0	63.14	62.83	69.41	75.63	80.84	117.2	197.0	119.8	97.85	137.9	643.5	710.4	100.3	58.20	50.14	46.56	41.41	38.41	38.55	34.77	33.51	30.67	31.68	31.10	31.41	31.61	31.83	32.19	32.11	32.84	30.92	29.25	26.81	24.01	21.48	20.26	18.11	16.05	14.76	13.97	11.66	11.00	10.08	9.286	8.513	8.108	7.624	8.092	9.808	8.010	5.562	4.115	3.511	3.488	3.292	3.212	3.238	2.788	2.360	1.798	1.761	1.783	1.939	4.871	22.32	77.33	126.1	75.79	9.897	0.687	0.539	0.560	0.571	0.448	0.474	0.426	0.417
555.0	52.38	58.42	61.55	60.66	63.94	73.50	158.1	144.8	80.13	85.20	224.5	867.4	225.1	49.09	41.14	37.58	33.62	31.30	30.80	27.33	26.30	25.24	25.15	25.54	25.22	24.39	25.42	24.60	26.38	26.42	24.48	23.05	21.47	19.95	17.66	16.78	14.67	13.21	12.18	11.14	9.781	9.346	8.454	7.379	6.636	6.455	6.116	5.693	6.632	7.880	5.998	4.064	3.190	2.913	2.767	2.543	2.551	2.592	2.394	1.802	1.410	1.412	1.421	1.904	5.791	17.83	38.26	113.4	95.96	9.465	0.547	0.628	0.450	0.455	0.456	0.418	0.448
560.0	54.41	51.39	52.01	55.07	51.44	63.19	106.3	160.0	81.67	72.23	102.1	560.0	624.4	58.11	34.82	31.43	28.96	26.21	25.73	23.70	21.98	21.26	21.24	20.94	21.42	20.81	20.75	20.12	21.31	21.06	20.62	19.08	18.21	16.06	14.99	13.66	12.44	11.59	10.13	9.489	8.622	7.789	7.192	6.327	5.618	5.665	5.048	4.755	4.861	6.249	6.299	4.285	2.974	2.691	2.513	2.230	1.927	2.215	2.205	1.980	1.357	1.219	1.060	1.274	2.183	4.561	9.233	41.73	123.8	36.22	4.212	0.485	0.423	0.508	0.423	0.374	0.389
565.0	61.05	49.21	49.28	47.63	46.59	54.61	69.42	153.0	94.57	63.45	68.81	232.8	833.7	135.3	30.90	26.79	24.69	22.44	21.82	19.60	19.30	18.58	17.79	17.42	17.58	17.56	18.41	17.12	17.75	17.91	17.09	16.58	15.05	13.86	13.12	11.67	10.75	9.593	9.018	8.043	7.418	6.376	5.610	5.368	5.090	5.083	4.424	4.216	3.748	4.442	5.478	4.812	2.978	2.335	2.099	1.989	1.836	1.671	1.905	2.025	1.686	1.133	1.064	0.968	1.118	1.597	2.724	10.24	52.93	109.5	31.09	1.893	0.456	0.438	0.490	0.410	0.449
570.0	53.14	53.74	49.08	40.78	39.22	43.81	49.13	112.1	124.6	59.76	56.93	93.51	513.8	471.7	44.37	21.57	19.13	18.66	16.96	15.95	15.59	14.62	14.45	14.69	14.19	14.25	14.17	13.72	14.47	14.50	13.70	13.43	12.05	11.03	10.50	9.513	8.614	7.961	7.182	6.409	5.924	5.369	4.944	4.478	4.425	4.135	3.686	3.471	3.031	3.153	3.709	4.115	3.467	2.428	1.756	1.758	1.606	1.573	1.472	1.530	1.612	1.363	0.922	0.774	0.821	0.932	1.170	2.803	12.76	43.11	73.56	48.51	6.873	0.480	0.429	0.365	0.404
575.0	62.51	48.62	39.70	38.56	34.71	37.41	40.47	64.58	136.9	74.04	49.71	54.67	164.2	619.6	144.7	18.68	16.19	14.33	13.84	12.19	12.39	11.54	11.41	11.54	11.59	11.70	10.87	11.21	11.49	10.73	11.09	10.46	9.993	8.732	7.795	7.628	6.724	5.939	5.656	5.437	4.882	4.257	4.151	3.784	3.699	3.433	3.121	2.764	2.574	2.390	2.282	3.054	3.563	2.722	1.761	1.498	1.367	1.338	1.255	1.124	1.297	1.464	1.003	0.757	0.774	0.663	0.806	1.209	3.298	10.12	21.30	64.17	36.57	6.767	0.513	0.392	0.449
580.0	56.63	47.88	39.64	36.51	31.91	33.11	34.70	43.89	114.2	100.4	48.95	46.04	66.88	404.5	410.8	23.91	13.21	11.96	12.28	10.39	9.731	9.481	9.971	9.172	9.669	9.223	9.301	9.269	9.807	9.881	8.937	8.663	8.302	7.464	6.873	6.180	5.810	5.127	5.058	4.349	4.052	4.015	3.492	3.250	3.084	2.954	2.589	2.428	2.221	1.993	1.770	2.138	2.686	2.784	2.011	1.460	1.199	1.263	1.097	1.096	0.969	1.234	1.185	0.812	0.833	0.603	0.615	0.829	1.150	2.673	5.205	22.56	66.71	33.37	3.332	0.331	0.370
585.0	50.52	50.67	41.87	32.08	31.71	31.45	30.51	35.71	81.27	118.0	51.97	44.64	43.80	165.3	568.2	67.52	11.86	9.916	10.97	9.663	9.063	8.237	8.230	7.684	8.384	8.174	7.728	8.207	8.204	8.033	7.843	7.122	6.968	6.257	5.845	5.087	4.840	4.337	4.190	3.771	3.517	3.382	3.297	3.007	2.586	2.579	2.251	2.162	1.867	1.812	1.476	1.604	2.123	2.545	2.331	1.574	1.153	1.038	1.013	0.927	0.870	0.961	1.177	1.091	0.739	0.625	0.541	0.659	0.699	1.043	1.577	5.528	27.30	66.04	26.03	1.381	0.361
590.0	51.28	50.91	38.55	31.49	28.62	29.64	28.68	33.21	51.01	110.2	75.84	44.06	36.27	60.00	353.7	255.3	18.32	8.446	8.359	7.673	6.930	7.129	6.833	6.402	6.868	6.682	6.186	6.529	6.498	6.448	6.205	5.958	5.720	5.088	4.811	4.311	4.023	3.593	3.555	3.271	2.885	2.750	2.465	2.340	2.248	2.050	1.895	1.735	1.487	1.474	1.241	1.285	1.366	1.896	2.221	1.809	1.207	0.981	0.836	0.877	0.731	0.829	0.842	1.113	0.886	0.680	0.581	0.581	0.546	0.708	0.818	1.632	6.689	24.53	45.11	26.47	4.767
595.0	56.17	48.88	33.61	27.93	28.72	28.11	28.39	28.94	38.22	74.87	102.7	45.49	35.10	34.78	107.7	396.7	84.47	8.050	7.016	6.532	5.255	5.619	5.256	5.421	5.436	5.101	5.210	5.214	5.247	4.934	5.048	4.761	4.551	4.090	3.799	3.338	3.034	2.750	2.708	2.689	2.476	2.287	2.096	1.999	1.965	1.774	1.894	1.492	1.440	1.226	1.095	1.079	1.109	1.277	1.743	1.732	1.383	0.992	0.806	0.696	0.694	0.633	0.741	0.764	0.885	0.742	0.646	0.545	0.634	0.579	0.532	0.736	1.834	5.824	12.33	35.76	33.92
600.0	55.38	47.84	34.50	32.62	25.48	25.71	27.17	28.25	35.86	52.88	106.4	54.73	35.63	28.72	39.76	269.0	240.7	10.84	6.009	5.745	4.776	4.560	4.488	4.712	4.707	4.361	4.259	4.094	4.417	4.356	4.469	3.962	3.754	3.546	3.435	2.731	2.476	2.547	2.474	2.136	1.964	1.955	1.831	1.705	1.841	1.586	1.486	1.361	1.173	1.061	0.948	1.031	0.913	0.872	1.134	1.623	1.404	1.019	0.741	0.670	0.650	0.619	0.607	0.627	0.772	0.955	0.815	0.445	0.540	0.448	0.515	0.512	0.738	1.683	3.107	12.03	40.30
605.0	51.51	48.05	39.83	30.74	23.51	27.26	27.20	29.82	33.70	43.85	92.09	73.52	39.55	28.39	24.62	108.9	350.2	36.28	5.027	4.332	4.448	4.192	4.045	3.788	3.734	3.834	3.533	3.624	3.752	3.806	3.658	3.254	3.211	2.842	2.878	2.296	2.300	2.245	2.064	1.813	1.717	1.572	1.541	1.440	1.547	1.344	1.223	1.148	1.122	0.919	0.894	0.861	0.779	0.791	0.786	1.143	1.487	1.261	0.782	0.681	0.522	0.634	0.537	0.560	0.659	0.878	0.934	0.527	0.518	0.434	0.447	0.483	0.582	0.678	0.978	3.047	15.54
610.0	50.18	47.59	34.97	26.11	22.87	27.00	28.20	31.15	37.29	45.37	70.12	98.17	51.02	33.74	25.05	40.95	234.0	168.7	9.325	3.677	3.678	3.175	3.370	3.089	3.197	2.988	2.916	2.964	3.086	3.104	2.935	2.710	2.822	2.405	2.253	1.876	1.885	1.754	1.651	1.573	1.388	1.347	1.224	1.155	1.192	1.084	1.032	0.993	0.843	0.837	0.771	0.677	0.815	0.639	0.660	0.778	1.212	1.251	0.923	0.733	0.517	0.626	0.548	0.578	0.535	0.609	0.809	0.687	0.528	0.452	0.491	0.424	0.437	0.496	0.557	1.006	3.883
615.0	44.10	44.02	39.70	24.72	23.51	23.56	29.42	32.24	37.30	44.68	56.94	93.46	67.79	37.07	26.44	22.59	76.26	272.6	54.42	3.242	3.126	2.753	2.609	2.404	2.551	2.327	2.142	2.539	2.372	2.578	2.307	2.222	2.099	1.979	1.715	1.661	1.457	1.360	1.396	1.201	1.122	1.184	1.112	1.020	1.009	0.988	0.891	0.989	0.635	0.713	0.684	0.661	0.588	0.567	0.584	0.589	0.771	1.138	1.065	0.711	0.554	0.482	0.455	0.519	0.601	0.513	0.712	0.773	0.795	0.520	0.476	0.484	0.391	0.489	0.425	0.449	1.176
620.0	45.18	41.07	41.11	27.54	22.60	24.15	27.75	32.11	35.89	37.68	47.78	76.17	80.95	39.96	27.06	18.87	29.01	188.7	158.0	4.673	2.585	2.449	2.543	2.210	2.213	2.024	1.822	2.211	2.211	1.997	1.738	2.010	1.780	1.723	1.343	1.282	1.284	1.209	1.320	0.954	0.931	0.982	1.026	0.917	0.880	0.920	0.836	0.786	0.616	0.627	0.585	0.627	0.558	0.554	0.520	0.479	0.573	0.796	0.903	0.748	0.578	0.419	0.488	0.463	0.456	0.490	0.491	0.589	0.704	0.591	0.502	0.486	0.420	0.411	0.438	0.376	0.516
625.0	39.74	44.53	36.15	27.83	22.11	25.45	25.00	28.26	32.93	37.87	43.10	59.96	88.52	43.95	27.27	19.17	17.37	79.34	244.8	19.55	2.379	2.312	2.319	2.043	1.875	1.760	1.746	1.671	2.052	1.889	1.591	1.636	1.491	1.313	1.241	1.168	1.229	1.039	1.002	0.898	0.822	0.796	0.815	0.722	0.706	0.699	0.699	0.683	0.547	0.521	0.547	0.522	0.540	0.477	0.461	0.499	0.495	0.584	0.775	0.770	0.696	0.467	0.482	0.552	0.431	0.506	0.486	0.518	0.548	0.737	0.532	0.440	0.444	0.502	0.423	0.351	0.357
630.0	41.07	40.03	32.43	24.29	21.83	24.28	23.47	28.94	32.52	38.58	42.99	51.49	75.85	55.99	29.02	19.11	15.13	26.98	171.5	115.2	4.640	1.996	1.717	1.717	1.751	1.441	1.526	1.425	1.637	1.558	1.370	1.420	1.303	1.076	1.037	0.965	0.947	0.853	0.860	0.787	0.736	0.690	0.699	0.673	0.670	0.565	0.564	0.599	0.517	0.441	0.453	0.458	0.439	0.418	0.449	0.423	0.444	0.480	0.570	0.714	0.723	0.535	0.490	0.483	0.457	0.459	0.475	0.469	0.467	0.591	0.619	0.533	0.399	0.431	0.473	0.410	0.347
635.0	42.93	42.69	33.95	27.10	24.70	24.18	24.69	29.08	30.46	37.98	43.17	47.94	58.33	66.84	32.61	19.01	16.67	13.33	52.33	193.7	32.74	1.846	1.505	1.420	1.377	1.217	1.179	1.385	1.303	1.427	1.140	1.124	1.006	0.930	0.913	0.755	0.779	0.783	0.744	0.664	0.713	0.562	0.637	0.593	0.572	0.472	0.509	0.499	0.506	0.319	0.438	0.373	0.386	0.337	0.348	0.360	0.444	0.437	0.464	0.519	0.726	0.564	0.499	0.415	0.448	0.469	0.450	0.493	0.385	0.528	0.474	0.598	0.521	0.407	0.347	0.296	0.350
640.0	50.04	48.02	39.45	25.99	25.82	23.49	22.56	28.10	30.36	33.24	42.41	45.65	47.24	66.07	42.45	21.05	17.27	11.43	16.89	141.4	81.99	2.945	1.432	1.350	1.358	1.137	1.250	1.228	1.171	1.252	1.081	0.880	0.852	0.856	0.779	0.645	0.709	0.784	0.605	0.697	0.646	0.655	0.569	0.563	0.427	0.498	0.544	0.487	0.424	0.303	0.346	0.399	0.403	0.305	0.349	0.337	0.353	0.371	0.428	0.435	0.491	0.602	0.512	0.365	0.374	0.480	0.415	0.453	0.380	0.441	0.431	0.549	0.534	0.410	0.414	0.348	0.394
645.0	46.95	56.60	52.74	30.43	25.09	23.46	24.65	26.45	29.87	34.69	41.94	47.56	46.23	57.87	51.48	22.68	16.89	10.71	8.525	60.27	164.0	12.26	1.465	1.206	1.212	1.133	1.256	0.977	0.959	1.013	0.923	0.830	0.839	0.724	0.738	0.594	0.609	0.607	0.472	0.622	0.516	0.610	0.607	0.475	0.510	0.433	0.525	0.477	0.378	0.369	0.384	0.356	0.366	0.342	0.382	0.365	0.369	0.359	0.387	0.389	0.442	0.517	0.492	0.462	0.394	0.457	0.378	0.453	0.402	0.455	0.425	0.372	0.559	0.558	0.395	0.389	0.309
650.0	50.98	58.79	51.53	36.19	23.64	20.79	22.80	26.34	28.95	36.05	40.10	45.97	45.93	47.60	56.89	24.92	16.89	11.42	6.350	20.26	156.6	53.61	1.693	1.209	1.105	1.058	0.909	0.861	1.113	0.918	0.891	0.844	0.772	0.656	0.653	0.559	0.585	0.503	0.466	0.565	0.495	0.490	0.475	0.416	0.440	0.457	0.472	0.425	0.418	0.335	0.337	0.437	0.356	0.305	0.338	0.348	0.349	0.395	0.362	0.430	0.430	0.440	0.572	0.540	0.405	0.452	0.395	0.510	0.390	0.461	0.439	0.479	0.420	0.620	0.419	0.374	0.289
