Sample:	'1
File name:	H2025090812碑廓一村南大桥.FD3
Run date:	'15:16:12, 09/10/2025
Operator:	Administrator
Comment:	'

Instrument
Model:	F-2700 FL Spectrophotometer
Serial number:	23C7-003
ROM Version:	4J14000 07

Instrument parameters
Measurement type:	3-D scan
Data mode:	Fluorescence
EX  Start WL:	220.0 nm
EX  End WL:	600.0 nm
EX Sampling interval:	5.0 nm
EM  Start WL:	230.0 nm
EM  End WL:	650.0 nm
EM Sampling interval:	5.0 nm
Scan speed:	12000 nm/min
EX Slit:	5.0 nm
EM Slit:	5.0 nm
PMT Voltage:	700 V
Response:	Auto 
Corrected spectra:	Off
Contour interval:	50.000

Peak integration
Integration method:	Rectangular
Sensitivity:	1
Threshold:	1.000

Peaks
No.	ApexEX/EM(nm)	Height(Data)
1	225.0/595.0	39.51
2	225.0/635.0	33.17
3	230.0/340.0	489.9
4	230.0/620.0	34.87
5	235.0/375.0	528.7
6	240.0/395.0	576.6
7	245.0/405.0	582.9
8	245.0/535.0	154.1
9	250.0/410.0	582.0
10	250.0/545.0	127.3
11	255.0/280.0	368.0
12	255.0/560.0	109.2
13	260.0/285.0	395.5
14	260.0/425.0	563.6
15	260.0/570.0	94.49
16	265.0/585.0	90.53
17	270.0/300.0	1005
18	270.0/395.0	577.9
19	270.0/595.0	96.31
20	275.0/305.0	1215
21	275.0/610.0	86.96
22	280.0/310.0	1106
23	280.0/385.0	592.2
24	280.0/620.0	74.23
25	285.0/635.0	48.33
26	300.0/335.0	457.9
27	305.0/345.0	425.1
28	310.0/350.0	392.3
29	315.0/355.0	396.7
30	320.0/360.0	409.5
31	325.0/370.0	400.7
32	505.0/275.0	2.107
33	510.0/280.0	2.549
34	535.0/270.0	32.76
35	545.0/300.0	5.624
36	550.0/305.0	6.330
37	560.0/310.0	6.129
38	565.0/315.0	5.415
39	575.0/290.0	48.38
40	575.0/320.0	4.800
41	580.0/325.0	4.231

Data points
	220.0	225.0	230.0	235.0	240.0	245.0	250.0	255.0	260.0	265.0	270.0	275.0	280.0	285.0	290.0	295.0	300.0	305.0	310.0	315.0	320.0	325.0	330.0	335.0	340.0	345.0	350.0	355.0	360.0	365.0	370.0	375.0	380.0	385.0	390.0	395.0	400.0	405.0	410.0	415.0	420.0	425.0	430.0	435.0	440.0	445.0	450.0	455.0	460.0	465.0	470.0	475.0	480.0	485.0	490.0	495.0	500.0	505.0	510.0	515.0	520.0	525.0	530.0	535.0	540.0	545.0	550.0	555.0	560.0	565.0	570.0	575.0	580.0	585.0	590.0	595.0	600.0
230.0	25.59	475.4	1865	826.8	42.09	7.299	5.448	4.728	4.258	3.895	3.501	3.330	2.938	2.510	2.323	1.984	1.645	1.748	1.524	1.440	1.307	1.237	1.167	0.952	0.905	0.868	0.863	0.773	0.733	0.782	0.660	0.666	0.624	0.564	0.550	0.508	0.461	0.450	0.425	0.433	0.414	0.448	0.431	0.383	0.360	0.381	0.737	3.288	7.057	6.546	2.819	0.737	0.345	0.296	0.307	0.271	0.307	0.299	0.312	0.310	0.309	0.301	0.302	0.305	0.281	0.300	0.292	0.304	0.282	0.306	0.323	0.303	0.317	0.315	0.309	0.303	0.292
235.0	54.99	135.4	926.7	2191	460.3	75.30	6.930	5.930	5.133	4.291	4.032	3.705	3.336	2.685	2.167	2.044	1.779	1.557	1.460	1.467	1.265	1.220	1.166	1.135	0.909	0.857	0.840	0.825	0.830	0.715	0.783	0.713	0.691	0.546	0.575	0.584	0.578	0.472	0.459	0.418	0.427	0.364	0.408	0.474	0.489	0.419	0.443	1.144	2.513	5.204	7.874	9.267	5.173	1.225	0.309	0.305	0.338	0.269	0.320	0.273	0.304	0.281	0.310	0.303	0.298	0.292	0.302	0.249	0.308	0.325	0.324	0.351	0.340	0.359	0.368	0.276	0.279
240.0	73.08	84.72	249.5	1458	2673	393.4	35.79	6.812	4.874	4.325	3.756	4.002	3.591	2.834	2.284	2.103	1.819	1.744	1.653	1.518	1.342	1.328	1.100	1.063	0.996	0.870	0.842	0.743	0.742	0.761	0.700	0.733	0.737	0.582	0.585	0.511	0.487	0.453	0.490	0.464	0.448	0.383	0.402	0.438	0.465	0.593	0.557	0.560	0.815	1.623	3.900	10.07	14.05	10.19	3.827	0.761	0.337	0.323	0.278	0.355	0.295	0.354	0.278	0.348	0.262	0.304	0.335	0.283	0.331	0.308	0.305	0.332	0.291	0.391	0.363	0.283	0.268
245.0	52.65	107.4	107.4	423.8	2213	2887	306.0	16.01	6.196	5.348	4.384	5.295	3.858	2.971	2.810	2.364	2.005	1.692	1.532	1.570	1.348	1.396	1.043	1.137	1.022	0.909	0.935	0.794	0.743	0.737	0.768	0.815	0.617	0.688	0.580	0.536	0.529	0.528	0.445	0.407	0.437	0.435	0.400	0.386	0.398	0.495	0.678	0.645	0.599	0.653	1.097	3.248	8.845	15.31	15.95	9.785	2.563	0.504	0.329	0.359	0.299	0.334	0.320	0.325	0.342	0.336	0.269	0.307	0.299	0.366	0.275	0.346	0.234	0.324	0.293	0.340	0.282
250.0	31.89	70.70	142.7	164.3	624.6	2147	2982	1125	83.28	7.248	5.593	4.967	4.270	3.437	2.790	2.270	1.939	1.810	1.637	1.706	1.416	1.348	1.182	1.141	1.090	0.997	0.929	0.936	0.773	0.802	0.804	0.658	0.613	0.651	0.537	0.525	0.512	0.476	0.419	0.477	0.416	0.465	0.419	0.372	0.357	0.439	0.468	0.631	0.835	0.735	0.636	0.999	2.368	4.889	9.358	14.44	17.48	15.16	8.474	2.751	0.566	0.341	0.342	0.301	0.334	0.305	0.339	0.323	0.306	0.354	0.286	0.376	0.265	0.356	0.276	0.297	0.293
255.0	23.52	30.37	80.42	196.8	218.4	510.9	1731	4580	1673	103.2	8.015	5.542	4.356	3.708	2.755	2.278	2.398	1.917	1.667	1.533	1.463	1.295	1.172	1.093	1.053	0.994	0.904	0.905	0.856	0.737	0.829	0.684	0.633	0.617	0.538	0.461	0.497	0.535	0.386	0.464	0.556	0.417	0.393	0.396	0.328	0.397	0.413	0.397	0.523	0.643	0.836	1.107	1.045	1.363	2.459	3.632	6.498	15.19	25.88	23.73	12.98	2.995	0.508	0.367	0.325	0.384	0.297	0.360	0.287	0.376	0.307	0.320	0.331	0.386	0.306	0.283	0.306
260.0	21.80	23.87	35.44	142.4	218.3	161.9	455.6	2888	5529	1317	61.54	6.911	5.601	4.469	3.495	2.758	2.577	1.934	1.875	1.710	1.416	1.314	1.287	1.400	1.090	1.038	0.876	0.940	0.808	0.785	0.834	0.709	0.625	0.581	0.544	0.504	0.476	0.521	0.409	0.469	0.505	0.427	0.424	0.464	0.380	0.377	0.406	0.374	0.403	0.372	0.620	1.116	1.316	1.019	0.889	1.112	1.830	4.267	11.87	25.38	34.96	22.63	9.518	1.471	0.436	0.329	0.377	0.368	0.347	0.348	0.329	0.290	0.356	0.299	0.346	0.313	0.316
265.0	24.36	21.45	18.83	57.60	199.4	187.0	130.8	814.9	4281	6043	1012	23.20	7.548	5.272	4.426	3.457	2.429	2.414	1.999	1.697	1.584	1.487	1.244	1.315	1.237	0.928	1.027	0.932	0.924	0.857	0.818	0.680	0.715	0.674	0.534	0.522	0.412	0.598	0.489	0.500	0.480	0.470	0.415	0.437	0.343	0.423	0.343	0.352	0.321	0.297	0.389	0.591	1.118	1.511	1.131	0.726	0.750	1.263	3.067	7.680	20.17	36.40	41.06	19.56	4.910	0.497	0.450	0.368	0.363	0.339	0.302	0.284	0.341	0.305	0.307	0.348	0.338
270.0	29.53	22.41	17.80	24.41	79.94	216.5	203.2	225.2	1186	4314	6677	2611	61.78	8.224	5.719	4.005	2.979	2.419	2.266	1.926	1.769	1.556	1.409	1.324	1.213	1.020	1.020	0.959	0.913	0.824	0.785	0.740	0.781	0.677	0.567	0.508	0.499	0.515	0.450	0.489	0.461	0.478	0.456	0.474	0.402	0.403	0.362	0.357	0.333	0.284	0.321	0.373	0.567	0.917	1.219	1.408	1.279	0.948	1.078	2.066	5.091	11.04	21.76	32.76	32.08	32.08	12.50	4.585	0.755	0.404	0.381	0.344	0.324	0.342	0.375	0.366	0.328
275.0	41.25	35.68	26.05	21.16	32.63	85.26	267.7	251.2	312.6	1035	3582	9506	3725	73.32	8.249	5.518	4.285	3.172	2.487	2.412	2.135	1.629	1.354	1.467	1.252	1.116	1.062	0.885	1.100	0.837	1.009	0.870	0.912	0.654	0.592	0.588	0.618	0.473	0.558	0.450	0.429	0.403	0.529	0.494	0.414	0.391	0.391	0.420	0.417	0.332	0.311	0.329	0.413	0.488	0.548	0.875	1.712	2.107	1.617	1.102	1.547	2.871	5.311	8.068	11.99	30.55	54.45	51.99	18.62	4.006	0.563	0.374	0.433	0.408	0.345	0.432	0.308
280.0	52.64	51.82	46.02	33.71	25.89	40.84	154.4	368.0	213.3	293.5	975.1	5897	9282	870.7	39.61	6.844	4.722	3.796	3.009	2.841	1.993	1.947	1.481	1.568	1.444	1.200	1.114	1.095	1.119	0.872	0.964	0.889	0.749	0.756	0.622	0.615	0.667	0.472	0.632	0.495	0.500	0.512	0.517	0.465	0.498	0.450	0.459	0.499	0.414	0.356	0.353	0.368	0.403	0.437	0.360	0.549	0.839	1.643	2.549	1.993	1.261	1.175	1.745	2.348	3.307	8.368	22.71	50.12	67.57	27.13	12.41	1.624	0.392	0.389	0.461	0.421	0.432
285.0	70.36	81.92	77.25	55.16	33.25	36.65	75.47	279.5	395.5	194.9	332.7	1718	7769	7249	602.6	16.94	6.306	4.455	3.470	2.808	2.120	2.108	1.752	1.637	1.405	1.290	1.247	1.060	1.054	1.135	0.851	0.842	0.702	0.737	0.674	0.726	0.613	0.595	0.590	0.443	0.530	0.473	0.539	0.495	0.456	0.505	0.579	0.552	0.477	0.418	0.426	0.427	0.403	0.486	0.471	0.486	0.588	0.828	1.531	2.408	2.511	1.628	1.171	1.252	1.509	2.588	6.015	14.77	35.71	61.75	69.29	22.37	6.558	0.736	0.482	0.430	0.451
290.0	123.8	153.8	153.1	102.3	62.30	55.93	75.88	157.9	381.6	493.0	358.6	655.7	2285	6338	7647	2076	36.25	7.106	4.617	3.479	2.646	2.279	2.057	1.794	1.500	1.447	1.411	1.258	1.074	1.084	1.003	0.886	0.846	0.841	0.649	0.743	0.650	0.646	0.654	0.511	0.538	0.523	0.564	0.624	0.628	0.679	0.724	0.738	0.721	0.639	0.551	0.533	0.502	0.585	0.519	0.579	0.606	0.754	0.898	1.399	2.122	2.800	2.833	2.404	1.826	1.999	2.753	4.726	9.601	18.71	35.21	48.38	41.98	46.93	14.10	5.546	0.817
295.0	185.1	244.8	244.5	164.0	97.01	84.89	103.0	152.2	277.6	596.0	804.5	633.9	911.5	1683	4197	9999.9	2875	42.68	7.016	4.754	3.261	2.634	2.416	2.004	1.841	1.576	1.468	1.327	1.242	1.206	0.898	1.088	0.751	0.946	0.763	0.719	0.800	0.686	0.707	0.504	0.612	0.578	0.656	0.704	0.669	0.835	0.964	1.033	1.061	0.845	0.710	0.710	0.674	0.703	0.613	0.660	0.651	0.808	0.918	1.172	1.591	1.910	2.885	4.356	4.665	3.244	2.897	3.476	4.360	6.102	9.493	12.12	14.34	39.53	70.96	74.57	21.82
300.0	218.5	312.4	304.3	203.0	119.2	105.2	129.6	179.1	279.6	505.6	1005	897.6	708.0	670.1	1147	6166	9999.9	509.7	25.29	6.283	4.386	3.202	2.780	2.233	2.000	1.649	1.519	1.356	1.228	1.218	1.042	0.996	0.883	0.782	0.788	0.806	0.838	0.747	0.720	0.666	0.651	0.665	0.743	0.680	0.756	0.961	1.069	1.236	1.207	1.050	0.917	0.824	0.826	0.733	0.698	0.748	0.817	0.892	0.998	1.121	1.597	1.748	2.383	3.312	4.991	5.624	4.607	3.696	3.537	3.838	3.944	4.089	4.422	10.36	25.72	63.13	89.53
305.0	238.7	339.8	348.0	234.3	142.8	123.2	149.1	203.8	312.4	492.3	866.2	1215	815.9	503.8	407.2	1667	7911	8463	370.4	12.51	5.590	4.035	3.120	2.554	2.004	1.716	1.535	1.388	1.423	1.268	1.111	1.013	0.819	0.900	0.728	0.806	0.757	0.730	0.780	0.666	0.601	0.656	0.811	0.703	0.859	1.028	1.183	1.349	1.384	1.202	0.964	0.918	0.964	0.755	0.857	0.797	0.939	1.024	1.020	1.332	1.690	2.057	2.494	2.988	3.911	5.482	6.330	5.680	4.136	3.787	3.111	2.547	2.207	3.281	6.597	16.93	41.13
310.0	252.1	370.0	363.0	242.4	154.9	136.2	169.3	230.8	338.6	504.7	751.5	1064	1106	598.8	282.6	466.2	2068	6159	6199	1546	26.08	5.291	4.015	3.246	2.278	2.015	1.683	1.572	1.448	1.303	1.267	1.123	1.016	0.962	0.773	0.835	0.792	0.841	0.798	0.758	0.745	0.714	0.729	0.750	0.880	1.008	1.141	1.466	1.354	1.202	0.986	1.052	0.926	0.859	0.922	0.956	1.024	1.191	1.267	1.538	1.797	2.140	2.542	2.938	3.496	4.326	4.861	5.716	6.129	5.315	3.798	2.481	1.930	1.893	2.351	4.517	10.05
315.0	242.0	373.4	378.2	252.9	163.2	143.1	174.3	248.9	340.9	499.4	699.4	865.7	966.3	860.5	345.6	226.9	535.5	1445	3505	8979	2233	29.88	5.735	4.226	2.951	2.512	2.120	1.744	1.619	1.339	1.302	1.095	0.997	0.897	0.776	0.810	0.806	0.820	0.821	0.611	0.694	0.712	0.766	0.691	0.983	1.026	1.190	1.473	1.417	1.241	1.120	1.018	0.837	0.889	0.903	1.025	1.130	1.260	1.463	1.475	1.801	2.273	2.437	2.994	3.247	3.750	4.071	4.360	4.902	5.415	5.246	4.053	2.508	1.738	1.543	1.856	3.010
320.0	240.5	378.1	385.2	263.7	175.8	156.2	181.5	246.0	339.5	484.9	676.3	792.9	810.3	835.7	546.4	215.8	213.2	382.2	887.0	5316	8480	378.4	17.79	5.378	3.708	2.887	2.117	1.858	1.699	1.534	1.314	1.244	1.098	1.000	0.867	0.906	0.837	0.731	0.767	0.657	0.704	0.685	0.733	0.811	0.933	1.155	1.256	1.483	1.624	1.313	1.055	1.108	0.947	1.055	1.031	0.994	1.166	1.282	1.510	1.485	1.862	2.178	2.421	2.823	3.117	3.535	3.769	3.950	4.041	4.064	4.502	4.800	4.009	2.677	1.712	1.391	1.491
325.0	237.5	390.3	400.4	288.7	191.2	169.5	194.1	254.0	340.9	475.8	652.2	753.9	747.3	659.8	664.5	330.9	165.6	161.7	248.0	1392	6482	6789	290.4	9.856	4.556	3.381	2.662	2.078	1.754	1.641	1.562	1.264	1.170	1.027	0.924	0.887	0.838	0.699	0.792	0.709	0.682	0.628	0.765	0.816	0.896	1.172	1.163	1.516	1.579	1.355	1.127	1.100	0.980	0.927	0.942	0.949	1.172	1.294	1.368	1.465	1.817	2.204	2.278	2.720	2.955	3.361	3.898	3.970	3.759	3.885	3.609	3.819	4.231	3.983	2.669	1.868	1.516
330.0	250.1	399.4	440.4	334.7	224.1	189.0	203.4	259.7	342.6	459.9	612.8	707.2	700.4	581.9	516.7	490.1	292.8	147.1	126.2	364.3	1681	4980	5048	1306	22.10	4.965	3.350	2.593	1.991	1.864	1.534	1.445	1.226	1.109	0.987	0.841	0.805	0.780	0.708	0.759	0.748	0.668	0.786	0.889	0.936	1.152	1.323	1.595	1.696	1.544	1.291	1.310	1.137	1.093	1.063	0.998	1.237	1.249	1.434	1.604	1.817	2.174	2.384	2.670	2.875	3.204	3.583	3.664	3.592	3.490	3.440	3.203	3.132	3.422	3.607	3.467	2.675
335.0	260.5	405.1	463.7	380.2	273.2	214.4	225.5	271.3	341.5	455.9	582.8	675.4	672.9	563.6	451.5	401.7	457.9	261.2	135.1	160.7	434.0	1168	2846	7546	2040	27.35	4.965	3.336	2.610	2.136	1.768	1.489	1.260	1.100	1.033	0.931	0.848	0.768	0.794	0.820	0.825	0.736	0.720	0.863	0.956	1.114	1.428	1.560	1.798	1.634	1.418	1.400	1.208	1.222	1.211	1.182	1.319	1.292	1.459	1.623	1.840	1.954	2.145	2.628	2.974	3.149	3.242	3.418	3.494	3.382	3.363	3.114	3.107	2.823	2.598	2.907	3.524
340.0	256.8	411.3	489.9	407.0	307.9	253.0	252.1	285.3	339.2	445.5	563.0	650.9	650.3	570.5	454.3	370.6	407.2	415.6	194.5	138.0	175.6	321.3	728.3	4392	7364	341.6	18.03	4.175	3.311	2.379	1.803	1.688	1.363	1.224	1.106	1.008	0.800	0.931	0.783	0.715	0.819	0.791	0.791	0.966	1.030	1.262	1.404	1.850	1.919	1.747	1.488	1.580	1.550	1.324	1.434	1.338	1.389	1.345	1.597	1.646	1.795	2.004	2.265	2.632	2.798	3.046	3.113	3.346	3.269	3.345	3.435	3.251	2.987	2.886	2.671	2.462	2.875
345.0	248.1	405.1	483.0	432.8	331.9	275.4	271.4	298.5	351.5	440.2	550.9	626.4	631.6	565.6	469.7	380.6	347.0	425.1	323.7	168.3	140.2	150.8	220.9	1153	5339	5943	282.7	9.140	4.016	2.981	2.145	1.909	1.429	1.352	1.090	0.947	0.899	0.949	0.767	0.802	0.844	0.773	0.766	0.925	1.041	1.136	1.471	1.708	1.858	1.843	1.453	1.688	1.575	1.497	1.457	1.436	1.544	1.487	1.520	1.628	1.926	2.036	2.174	2.814	2.653	2.863	3.033	3.256	3.376	3.337	3.315	3.206	2.996	2.718	2.692	2.522	2.569
350.0	238.1	394.2	481.1	447.6	367.2	315.1	305.1	322.1	367.8	439.0	529.6	595.0	606.6	563.1	484.2	407.2	356.4	352.5	392.3	306.7	185.8	148.2	137.5	319.9	1381	3958	4077	1214	20.53	4.382	2.852	2.127	1.705	1.420	1.139	1.035	0.951	0.980	0.807	0.888	0.811	0.720	0.778	0.876	0.980	1.201	1.372	1.726	1.838	1.811	1.666	1.716	1.755	1.631	1.579	1.527	1.639	1.647	1.635	1.838	2.011	2.152	2.273	2.506	2.732	2.797	2.879	3.039	3.114	3.211	3.209	3.206	3.101	3.032	2.871	2.771	2.728
355.0	243.5	383.5	472.4	470.6	413.4	370.8	351.6	358.7	393.4	453.3	522.2	578.4	596.6	561.3	502.7	441.2	390.1	358.2	350.6	396.7	317.8	194.4	154.5	164.0	369.6	931.4	2070	5904	1972	26.57	4.353	2.980	2.075	1.659	1.340	1.208	1.016	0.851	0.848	0.884	0.712	0.781	0.824	0.862	0.982	1.310	1.339	1.493	1.825	1.743	1.578	1.851	1.915	1.781	1.741	1.766	1.714	1.846	1.871	1.988	2.066	2.129	2.447	2.409	2.770	2.860	2.933	3.029	2.862	3.314	3.139	3.173	3.270	3.026	3.129	3.125	2.983
360.0	227.9	380.5	470.9	469.6	432.8	403.0	391.7	387.2	422.0	472.8	526.5	574.5	588.0	568.3	518.9	461.9	420.2	388.0	356.5	373.3	409.5	271.3	186.8	151.0	164.8	263.7	526.0	3167	6173	331.6	18.04	4.024	2.587	1.836	1.413	1.386	1.060	0.944	0.855	1.001	0.793	0.818	0.785	0.903	1.021	1.255	1.375	1.525	1.838	1.851	1.749	1.921	2.013	1.947	1.859	1.908	1.742	1.860	1.980	2.072	2.153	2.179	2.453	2.359	2.773	2.658	2.837	2.867	2.919	3.308	3.232	3.322	3.271	3.127	3.225	3.155	3.157
365.0	233.4	362.6	489.5	492.3	464.7	440.5	423.3	421.1	447.9	488.1	539.5	584.1	587.6	570.8	532.7	485.2	447.6	417.6	383.0	363.9	406.0	375.9	237.1	174.6	139.1	130.3	167.0	817.0	4093	5334	282.9	9.586	3.128	2.290	1.808	1.331	1.177	0.944	0.818	0.975	0.879	0.771	0.816	0.932	1.068	1.126	1.401	1.573	1.839	1.884	1.699	1.993	1.967	2.044	1.824	1.897	1.918	2.081	2.086	2.162	2.095	2.369	2.532	2.698	2.782	2.650	2.871	2.846	3.190	3.221	3.139	3.324	3.199	3.326	3.353	3.375	3.175
370.0	234.3	369.9	467.3	500.8	498.4	478.2	462.8	460.7	475.5	512.8	550.2	582.5	587.2	570.2	541.3	503.2	476.0	450.8	421.7	393.6	384.4	400.7	349.9	232.9	166.3	127.8	107.8	232.0	1039	3244	4497	1170	19.35	3.671	2.280	1.744	1.385	1.139	0.991	0.973	0.982	0.850	0.838	0.894	1.030	1.233	1.302	1.639	1.869	1.840	1.676	2.120	2.062	2.179	2.144	2.128	2.261	2.265	2.423	2.280	2.308	2.443	2.562	2.704	2.760	2.684	2.848	2.971	3.111	3.226	3.138	3.258	3.278	3.253	3.418	3.430	3.448
375.0	230.7	361.4	474.1	528.7	522.1	511.3	495.6	494.0	502.1	531.6	557.6	588.0	590.9	571.8	546.8	518.1	494.1	474.4	453.7	426.9	401.1	381.4	386.4	341.0	218.4	158.5	121.9	123.9	281.6	761.9	1791	4980	1901	25.48	3.810	2.085	1.738	1.347	1.139	0.984	0.939	0.939	0.909	0.953	1.087	1.218	1.211	1.597	1.750	1.827	1.814	2.150	2.252	2.299	2.266	2.345	2.560	2.376	2.469	2.772	2.554	2.640	2.658	2.775	2.788	2.674	2.797	3.045	3.156	3.132	3.110	3.409	3.046	3.325	3.377	3.456	3.512
380.0	224.3	362.3	478.9	526.0	539.9	536.9	528.8	512.3	522.8	539.2	567.1	588.0	590.8	572.5	550.1	524.5	507.2	491.2	472.6	451.4	421.1	390.5	367.9	387.3	286.8	191.4	143.7	118.2	127.7	215.6	446.2	2381	5060	1386	17.64	3.086	2.089	1.629	1.295	1.106	0.933	0.906	0.950	0.997	1.034	1.200	1.268	1.734	1.766	1.774	1.823	2.160	2.309	2.367	2.403	2.413	2.385	2.416	2.838	2.729	2.599	2.782	2.694	2.690	2.756	2.823	2.872	2.670	2.925	2.962	3.237	3.343	3.075	3.478	3.373	3.493	3.677
385.0	232.0	350.7	480.2	523.0	553.1	544.8	545.8	535.0	533.6	553.7	571.5	588.5	592.2	574.4	550.2	519.6	508.9	497.1	481.4	461.7	437.5	403.3	371.7	369.4	351.1	236.1	168.1	134.5	109.9	105.9	141.0	604.5	2907	4458	252.4	10.28	2.557	1.827	1.270	1.126	1.196	0.962	1.167	0.882	1.052	1.180	1.365	1.706	1.815	1.876	1.901	2.309	2.459	2.366	2.520	2.427	2.571	2.658	2.714	2.679	2.801	2.604	2.685	2.831	2.892	2.688	3.048	2.891	3.017	2.958	3.275	3.183	3.185	3.667	3.428	3.534	3.526
390.0	234.5	357.1	489.6	537.3	555.7	565.0	561.2	546.0	545.3	557.8	574.2	585.2	583.1	566.9	543.4	519.3	507.3	499.1	486.7	467.5	447.5	419.0	386.1	356.1	345.1	312.9	224.9	164.9	129.5	103.1	90.01	176.9	720.3	2288	3239	1056	17.47	3.099	1.819	1.441	1.250	1.052	1.144	1.030	1.102	1.240	1.340	1.674	1.801	1.810	1.911	2.271	2.541	2.488	2.492	2.446	2.655	2.504	2.655	2.654	2.805	2.489	2.774	2.719	2.755	2.776	2.812	2.910	3.018	3.004	3.201	3.236	3.326	3.427	3.393	3.585	3.683
395.0	228.8	384.2	483.1	538.7	576.6	572.7	568.6	561.8	553.4	565.3	577.9	575.7	574.8	561.1	537.1	515.8	501.1	493.8	486.2	471.0	454.3	428.2	401.1	369.3	334.3	321.4	300.8	213.4	159.1	127.2	98.17	95.68	197.9	536.5	1120	3377	1650	24.17	2.799	1.800	1.503	1.165	1.194	1.103	1.224	1.146	1.511	1.670	1.952	1.949	1.898	2.253	2.577	2.420	2.520	2.540	2.483	2.524	2.742	2.908	2.738	2.736	2.807	2.818	2.783	2.895	2.939	2.793	3.018	2.849	2.882	3.203	3.305	3.282	3.321	3.507	3.751
400.0	231.2	368.8	483.1	545.9	568.0	573.8	576.5	575.8	558.6	565.7	571.4	568.6	558.9	549.3	533.1	507.1	492.1	489.8	476.1	464.0	453.6	433.2	410.4	378.3	339.9	312.4	316.0	268.5	190.8	148.5	115.0	91.59	90.63	150.9	276.2	1411	3604	1265	17.08	2.671	1.725	1.507	1.335	1.134	1.187	1.389	1.477	1.670	1.896	1.838	1.863	2.250	2.474	2.488	2.568	2.627	2.683	2.664	2.748	2.873	2.860	2.597	2.744	2.913	2.840	2.778	2.936	2.689	3.036	2.969	2.931	3.164	3.044	3.216	3.213	3.366	3.808
405.0	235.7	357.4	477.2	537.3	566.4	582.9	576.7	572.0	565.8	571.8	572.2	567.5	558.5	541.0	524.7	498.4	481.7	477.7	471.1	460.2	449.4	430.4	411.9	383.3	351.0	316.6	302.1	304.4	233.2	168.0	132.0	100.8	76.50	71.16	87.67	347.8	1780	3386	232.0	11.16	2.058	1.834	1.379	1.257	1.323	1.435	1.469	1.733	1.891	1.818	1.881	2.321	2.327	2.513	2.707	2.521	2.758	2.663	2.634	2.964	2.825	2.847	2.948	2.768	2.796	2.907	2.972	2.911	2.793	2.789	2.953	3.062	3.033	3.196	3.262	3.488	3.567
410.0	233.7	355.7	471.3	533.5	558.7	580.1	582.0	573.3	564.5	564.8	563.5	555.8	543.5	527.0	505.4	481.7	467.2	459.9	452.6	446.1	434.8	421.8	408.1	386.6	354.7	322.5	296.8	290.6	277.6	213.2	155.4	117.3	86.98	65.56	54.21	101.3	431.5	1527	2348	984.0	16.75	2.710	1.706	1.518	1.488	1.399	1.459	1.649	1.867	1.753	1.822	2.104	2.392	2.439	2.514	2.558	2.686	2.822	2.742	2.843	2.819	2.824	2.916	2.683	2.867	2.767	2.758	2.852	2.864	2.660	2.853	3.061	2.993	3.085	3.113	3.294	3.509
415.0	228.3	352.0	467.8	511.4	554.2	573.2	576.5	568.4	555.8	561.6	552.4	544.4	527.2	512.5	486.0	458.1	443.9	438.8	434.7	426.3	416.7	408.6	398.3	380.4	357.0	328.1	300.0	279.1	269.2	261.3	191.1	137.0	102.2	74.47	56.08	52.58	117.3	355.2	737.2	2370	1511	23.84	2.592	1.750	1.586	1.541	1.533	1.634	1.906	1.738	1.868	2.142	2.384	2.391	2.500	2.484	2.635	2.735	2.816	2.688	2.775	2.720	2.690	2.657	2.952	2.728	2.715	2.702	2.801	2.855	2.914	2.813	2.977	2.974	3.111	3.082	3.247
420.0	231.3	347.6	441.7	499.5	553.6	561.4	571.9	562.5	557.8	553.8	543.6	536.9	515.2	490.7	465.8	438.8	424.6	416.3	415.8	410.6	399.5	394.8	386.0	370.0	351.4	326.4	302.1	278.8	258.8	258.3	225.8	153.7	113.3	83.82	62.28	48.13	52.00	96.90	179.0	894.0	2648	1163	17.47	2.475	1.878	1.598	1.497	1.621	1.714	1.675	1.772	2.292	2.376	2.305	2.459	2.405	2.743	2.654	2.674	2.753	2.756	2.895	2.762	2.799	2.835	2.733	2.584	2.610	2.728	2.714	2.837	2.551	2.788	2.807	2.967	3.059	3.004
425.0	211.5	339.9	444.4	490.5	533.3	548.5	565.5	557.8	563.6	545.8	534.6	522.3	504.7	475.6	451.5	423.6	411.0	400.5	399.3	393.7	388.5	382.9	374.9	360.1	346.1	324.5	301.9	278.0	258.3	245.1	238.5	182.1	124.2	91.09	69.63	52.11	41.14	42.84	54.63	216.7	1166	2597	226.0	11.67	2.327	1.949	1.654	1.857	1.717	1.671	1.746	2.193	2.300	2.299	2.477	2.382	2.707	2.566	2.632	2.788	2.647	2.742	2.618	2.789	2.420	2.566	2.576	2.704	2.687	2.618	2.738	2.646	2.587	2.914	2.666	2.949	2.960
430.0	250.6	325.0	417.6	475.2	515.6	536.9	553.9	548.7	549.4	536.2	526.6	511.5	485.1	460.3	432.3	404.8	390.0	377.7	376.4	371.7	367.5	361.6	357.7	346.3	332.3	316.2	297.4	279.5	259.0	238.6	221.4	201.9	153.4	105.7	79.72	59.56	45.40	36.13	31.41	62.83	278.5	1070	1605	921.2	16.22	2.861	1.970	2.010	1.913	1.800	1.787	2.097	2.277	2.432	2.399	2.276	2.550	2.687	2.582	2.700	2.619	2.605	2.858	2.664	2.605	2.507	2.468	2.633	2.595	2.491	2.689	2.763	2.650	2.742	2.635	2.830	2.972
435.0	384.8	320.7	405.3	469.4	507.9	520.7	530.6	539.8	540.2	529.6	518.0	501.9	470.3	447.3	411.6	383.6	366.2	359.0	356.0	351.4	347.0	343.9	341.7	331.6	320.3	305.0	291.0	275.4	257.9	236.8	212.0	191.3	174.8	128.2	91.25	69.77	53.62	40.29	31.84	31.87	75.72	248.8	491.5	1969	1426	22.85	2.674	2.263	2.080	1.724	1.653	2.121	2.158	2.216	2.279	2.119	2.470	2.564	2.515	2.551	2.720	2.801	2.390	2.610	2.466	2.479	2.428	2.501	2.534	2.456	2.518	2.469	2.543	2.609	2.574	2.691	2.763
440.0	524.1	365.8	405.8	459.3	493.0	505.6	522.3	532.6	531.2	516.4	516.6	488.6	459.3	429.3	394.2	369.6	349.0	345.1	339.2	334.2	332.4	326.9	327.2	318.7	310.6	294.8	283.5	271.6	256.9	237.2	212.1	185.2	172.1	148.6	103.4	75.98	59.33	46.15	35.64	28.50	33.00	67.82	120.3	726.9	2349	1105	15.66	2.698	2.254	2.057	1.763	2.081	2.131	2.523	2.324	2.357	2.474	2.486	2.487	2.408	2.749	2.734	2.615	2.765	2.346	2.467	2.239	2.429	2.437	2.444	2.516	2.479	2.384	2.549	2.573	2.539	2.557
445.0	505.7	557.7	387.6	445.8	473.7	494.9	514.1	519.6	524.5	516.6	502.8	477.5	447.8	419.0	386.2	357.4	336.9	328.2	324.5	318.1	314.2	310.3	310.2	305.0	295.6	287.3	276.9	265.6	254.4	234.4	211.7	182.3	161.2	152.1	119.9	84.35	63.76	50.08	39.22	30.62	25.51	29.12	38.02	174.9	1013	2393	192.6	10.34	2.404	2.079	1.840	2.048	2.195	2.286	2.301	2.168	2.415	2.326	2.449	2.405	2.601	2.507	2.505	2.535	2.430	2.472	2.357	2.528	2.420	2.238	2.414	2.406	2.317	2.465	2.435	2.454	2.516
450.0	322.6	917.1	558.0	416.0	441.7	468.1	488.0	496.1	502.6	490.9	481.1	461.9	428.2	393.7	362.8	329.6	314.0	302.4	297.4	292.6	289.1	287.7	286.8	283.1	276.7	269.9	260.9	253.5	243.0	226.7	207.3	179.1	154.6	138.3	128.0	100.9	71.25	56.00	44.18	35.40	27.65	23.68	21.92	49.45	240.6	978.3	1610	788.6	13.58	2.539	2.076	2.086	2.146	2.273	2.262	2.175	2.362	2.420	2.398	2.352	2.518	2.496	2.428	2.385	2.383	2.335	2.252	2.366	2.307	2.332	2.277	2.279	2.263	2.359	2.187	2.352	2.419
455.0	202.3	783.7	1117	421.9	418.4	443.3	453.1	466.2	473.7	465.5	463.3	438.2	405.9	370.3	336.6	309.1	288.0	276.9	273.1	267.5	264.3	261.4	259.1	259.1	256.1	249.0	242.5	234.2	227.9	215.1	198.1	175.5	150.4	128.6	115.5	111.5	85.59	60.74	48.03	39.42	31.37	25.39	20.55	23.43	63.22	225.4	479.3	1546	1083	16.31	2.489	2.209	2.164	2.249	2.248	2.142	2.273	2.204	2.348	2.349	2.505	2.346	2.398	2.438	2.304	2.184	2.304	2.195	2.150	2.151	2.084	2.107	2.147	2.186	2.043	2.141	2.327
460.0	168.4	489.3	1519	596.5	392.1	415.6	433.0	446.3	446.1	451.4	437.7	419.8	384.8	347.7	318.6	290.7	270.0	258.2	254.0	245.9	242.9	239.2	239.0	240.8	237.8	230.9	226.3	220.0	215.2	204.1	188.7	167.0	146.9	126.4	109.0	104.9	94.12	66.06	51.34	41.08	33.85	27.37	22.30	19.24	24.93	58.68	114.5	572.4	1748	709.5	11.19	2.574	2.300	2.057	2.301	2.161	2.242	2.134	2.274	2.321	2.449	2.405	2.276	2.314	2.200	2.034	2.143	2.024	2.090	1.995	2.064	1.975	2.075	2.149	1.964	2.158	2.136
465.0	158.4	286.6	1367	1138	382.1	398.0	412.8	417.3	418.4	428.5	417.7	395.5	363.5	330.0	298.0	272.7	252.2	240.3	237.1	231.3	224.3	221.2	221.6	222.5	216.9	214.5	209.9	205.4	201.0	194.0	180.5	160.9	141.8	123.4	106.4	95.53	93.47	75.45	54.67	43.79	35.23	28.93	23.46	19.45	17.29	22.35	32.90	137.1	797.2	1608	148.8	7.454	2.391	2.262	2.120	2.081	2.206	2.204	2.044	2.217	2.137	2.192	2.089	2.053	2.007	2.087	2.029	2.146	2.110	1.892	2.064	1.996	2.058	2.007	1.833	1.902	1.993
470.0	161.3	217.3	719.5	1720	694.4	360.1	380.5	387.6	387.1	393.5	387.2	366.5	333.0	302.7	271.0	247.2	230.9	218.4	212.0	205.5	202.9	199.2	199.7	200.2	195.0	192.2	189.5	186.2	185.2	177.8	166.4	149.4	133.0	116.8	101.3	88.47	81.34	78.75	62.39	46.10	36.97	30.73	25.02	20.57	17.21	15.31	15.55	37.28	189.7	704.5	1012	580.3	12.15	2.547	2.211	2.040	2.031	2.079	1.949	2.019	2.011	2.123	1.974	1.985	1.952	1.984	1.905	1.973	1.853	1.810	1.844	1.793	1.878	1.817	1.845	1.798	1.927
475.0	157.7	198.1	348.3	1255	1592	380.6	347.9	361.0	358.7	366.1	356.9	335.4	308.0	276.4	248.0	226.9	206.8	195.7	188.8	184.5	180.4	178.5	178.7	177.7	175.4	172.6	171.6	168.5	168.3	162.0	151.4	139.4	124.4	109.0	95.82	83.91	74.12	68.65	66.14	52.00	39.20	31.45	26.74	22.28	18.50	14.93	12.50	15.91	47.98	161.9	318.2	1067	708.4	15.82	2.453	2.091	2.139	1.995	1.849	2.030	1.941	1.888	1.879	1.816	1.751	1.773	1.712	1.743	1.852	1.845	1.662	1.639	1.855	1.650	1.687	1.647	1.766
480.0	148.9	195.7	254.1	662.8	2027	631.9	319.1	332.4	335.9	341.1	337.1	313.9	283.9	260.4	230.5	209.7	192.1	181.6	173.5	168.9	165.0	164.3	164.1	162.4	161.7	159.1	158.1	156.8	155.1	151.4	144.2	131.7	117.9	103.7	91.10	79.90	71.48	62.96	62.66	56.28	41.94	32.28	27.67	22.42	19.76	15.25	12.93	11.64	17.47	40.83	75.96	412.9	1267	185.5	10.14	2.498	2.052	1.986	1.761	1.909	1.785	1.888	1.815	1.722	1.835	1.778	1.774	1.492	1.661	1.717	1.711	1.644	1.570	1.550	1.634	1.490	1.528
485.0	139.6	197.3	226.6	349.0	1712	1239	311.7	311.1	324.2	323.1	314.3	300.8	269.6	241.4	215.7	198.0	181.8	170.8	161.7	159.4	156.4	152.0	151.3	150.1	149.9	147.3	146.8	144.3	144.3	141.0	135.3	123.9	110.2	99.29	87.43	77.98	68.11	60.01	57.18	56.64	46.87	34.03	28.26	23.19	19.79	16.40	13.91	11.11	10.71	14.48	21.68	99.64	652.2	1174	155.6	4.489	2.118	1.910	1.719	1.918	1.720	1.642	1.719	1.827	1.750	1.615	1.589	1.525	1.552	1.482	1.692	1.571	1.480	1.430	1.546	1.387	1.381
490.0	113.3	195.4	213.5	255.8	817.2	1897	593.8	293.5	297.8	298.4	293.2	277.6	251.7	225.1	199.2	180.0	167.6	158.5	150.5	144.7	140.1	138.0	136.8	136.8	136.2	135.0	132.8	132.2	130.8	129.5	125.1	115.5	104.2	93.41	83.10	73.60	65.49	57.60	52.13	50.18	48.05	38.58	29.74	24.21	20.58	17.33	14.46	12.22	9.836	9.128	9.885	26.63	156.9	569.7	985.4	447.1	11.60	2.207	1.904	1.809	1.747	1.685	1.836	1.625	1.633	1.532	1.532	1.518	1.453	1.401	1.419	1.495	1.424	1.415	1.395	1.431	1.363
495.0	97.56	163.2	215.5	220.8	358.6	1382	1504	301.8	274.8	271.8	271.5	252.2	230.9	207.9	185.2	161.9	150.9	141.5	134.6	130.4	125.4	123.7	122.3	122.0	119.6	118.5	117.9	118.5	118.7	115.6	113.3	103.8	95.04	85.35	76.41	69.71	61.55	54.42	48.74	44.16	42.37	41.52	33.29	25.31	21.81	17.90	15.10	12.76	10.50	8.736	7.679	10.46	38.98	130.6	360.5	1093	599.1	14.00	2.030	1.910	1.804	1.704	1.629	1.474	1.406	1.482	1.376	1.472	1.296	1.382	1.409	1.237	1.283	1.388	1.249	1.343	1.302
500.0	91.57	130.6	218.7	206.8	242.7	698.3	2042	510.1	251.6	252.9	251.2	234.7	218.5	192.5	172.3	152.3	137.9	130.7	123.8	117.8	114.6	111.4	110.6	111.5	110.1	108.9	107.8	108.1	108.2	106.0	103.3	97.40	88.72	79.79	71.63	65.63	57.96	52.19	45.79	41.86	37.77	38.59	36.02	25.69	21.59	17.88	15.45	12.83	11.07	9.014	7.416	7.047	12.58	32.69	85.37	483.7	1180	185.4	7.084	1.947	1.719	1.602	1.524	1.450	1.509	1.464	1.263	1.384	1.217	1.358	1.314	1.231	1.184	1.462	1.137	1.178	1.269
505.0	81.30	118.1	203.0	208.5	199.8	334.4	1836	1072	237.2	233.1	228.3	219.2	200.2	181.9	158.3	139.8	126.5	119.4	113.1	107.4	102.9	101.0	101.6	100.6	99.18	100.3	97.34	98.66	99.39	98.36	94.59	88.79	82.55	72.87	66.39	60.71	55.33	48.75	43.74	39.32	34.91	33.91	35.52	28.91	21.48	18.31	15.27	13.00	10.95	9.083	7.500	6.343	6.719	10.88	22.41	117.5	666.0	987.0	134.7	2.781	1.830	1.627	1.406	1.387	1.312	1.366	1.201	1.401	1.195	1.207	1.186	1.109	1.245	1.277	1.132	1.161	1.247
510.0	74.72	107.4	164.5	200.6	179.0	210.8	882.8	1857	464.4	211.0	205.2	197.9	178.2	158.5	141.1	124.0	112.6	105.9	101.1	94.90	91.22	90.41	89.07	88.69	86.94	86.59	86.37	85.97	85.57	85.56	83.18	78.68	72.34	65.45	59.24	54.01	49.57	45.24	40.03	35.76	31.77	29.54	29.90	29.59	22.94	17.79	14.74	12.62	11.02	9.079	7.765	6.357	5.865	6.201	8.547	29.27	163.1	540.8	755.3	271.6	9.328	1.659	1.421	1.362	1.232	1.301	1.172	1.161	1.191	1.083	1.115	1.141	1.091	1.124	1.005	1.057	1.077
515.0	72.40	91.86	123.0	187.8	183.3	165.9	327.6	1524	1366	206.5	179.2	172.9	159.5	141.8	124.2	107.9	99.02	93.10	87.00	83.03	81.35	77.43	75.29	75.77	75.61	74.29	73.69	73.89	74.36	74.20	73.38	67.78	63.47	57.10	52.18	48.02	43.94	39.72	36.28	31.94	28.95	26.19	24.54	25.30	24.56	18.34	14.79	12.09	10.30	8.920	7.559	6.601	5.785	5.257	5.396	9.518	38.93	123.4	303.2	791.2	189.8	8.986	1.651	1.342	1.190	1.059	1.092	1.061	0.987	0.981	0.907	0.977	1.034	1.038	0.893	0.942	1.024
520.0	66.91	83.17	106.4	147.4	181.7	153.4	186.9	778.9	2074	368.8	161.8	157.6	142.1	125.3	111.2	97.23	87.91	82.61	78.68	74.67	71.47	69.02	68.31	66.29	66.06	65.48	65.37	65.44	64.99	65.89	64.23	61.34	56.46	50.98	47.80	43.65	39.42	35.79	32.33	29.53	26.52	24.48	22.04	20.94	23.17	20.13	14.95	12.09	9.764	8.652	7.309	6.801	5.802	4.908	4.532	5.075	11.48	29.83	72.12	396.3	732.8	145.7	3.276	1.426	1.137	1.058	1.070	1.007	0.933	0.925	0.826	0.982	0.943	0.940	0.928	1.008	1.046
525.0	63.90	73.67	95.06	120.5	170.0	143.6	140.5	325.0	1992	913.3	152.7	143.5	126.9	110.7	99.20	87.53	79.94	73.06	70.13	66.55	64.85	62.51	61.46	60.56	59.26	58.80	58.38	58.73	58.82	58.25	58.10	54.48	50.83	46.28	42.99	39.07	36.22	32.70	29.51	27.26	23.92	22.42	20.53	19.05	20.17	20.07	15.52	11.51	10.01	8.260	6.993	6.380	5.701	5.076	4.279	4.109	5.229	8.952	18.40	98.82	479.1	623.0	24.97	1.702	1.212	1.034	1.049	1.033	0.875	0.876	0.883	0.874	0.873	0.735	0.907	0.989	0.873
530.0	52.44	69.81	84.58	98.30	145.5	151.2	120.5	166.4	968.6	1856	343.4	126.3	112.8	99.17	86.20	76.52	70.99	64.89	62.11	57.60	55.50	53.54	53.31	52.23	50.96	50.48	50.17	51.30	51.24	50.24	50.40	47.33	43.51	40.47	37.34	34.23	31.84	28.97	26.44	24.42	21.78	19.85	18.32	16.84	16.34	17.21	15.94	12.26	9.504	7.859	6.594	5.970	5.341	5.133	4.428	3.906	3.597	4.221	6.077	23.97	119.9	377.7	473.0	108.2	6.677	1.119	0.983	0.920	0.900	0.932	0.844	0.831	0.814	0.825	0.830	0.898	0.834
535.0	50.13	55.77	74.32	83.36	105.6	154.1	116.5	119.0	310.7	1692	1209	122.3	98.90	88.00	76.22	66.40	60.86	56.25	52.89	49.80	47.60	46.67	45.10	44.41	44.01	44.12	43.24	43.53	43.94	43.64	42.23	40.67	37.83	34.29	31.76	30.36	27.63	25.69	23.17	20.99	19.21	17.48	16.27	15.29	14.01	13.35	14.46	13.35	9.773	7.462	6.167	5.537	5.337	5.013	4.545	4.074	3.339	3.159	3.307	7.023	28.34	86.28	212.9	528.5	162.2	5.005	1.022	0.931	0.828	0.816	0.838	0.711	0.762	0.785	0.781	0.809	0.848
540.0	46.41	56.91	63.29	74.81	83.56	135.2	122.1	99.77	145.9	877.6	2041	177.7	89.81	78.31	67.46	58.80	54.67	50.61	47.25	45.10	42.38	41.00	40.02	39.79	38.95	38.74	37.99	37.87	38.27	38.00	37.33	36.63	34.14	30.34	28.89	27.11	24.67	23.05	20.95	19.37	17.82	16.14	14.51	13.96	12.64	11.70	12.06	12.85	10.65	7.241	6.154	5.522	4.928	4.352	4.232	4.109	3.453	2.745	2.737	3.261	7.952	20.80	51.27	291.7	508.0	27.69	2.007	0.917	0.829	0.910	0.762	0.681	0.657	0.710	0.647	0.732	0.774
545.0	44.27	56.30	61.59	68.44	72.76	111.6	127.3	91.44	103.8	326.4	2122	701.8	83.54	70.68	61.24	55.69	49.11	44.94	41.80	39.85	37.34	36.42	36.28	35.27	35.30	34.77	34.37	34.51	33.42	34.60	34.02	32.54	30.36	28.13	26.22	24.09	22.18	20.86	19.08	17.38	15.88	14.85	13.42	12.34	11.71	10.96	10.27	10.90	10.63	7.684	5.756	4.927	4.747	4.049	3.968	3.778	3.548	2.665	2.362	2.382	3.247	6.076	12.79	74.58	352.1	401.8	22.56	1.183	0.810	0.798	0.752	0.746	0.620	0.628	0.577	0.719	0.693
550.0	43.50	47.04	56.54	58.35	62.11	80.49	124.2	90.63	86.01	137.2	1044	1661	220.5	61.92	53.71	47.64	43.84	39.46	36.57	34.77	32.81	31.86	30.66	30.25	30.50	29.53	29.79	29.94	29.56	29.53	29.28	28.05	26.08	24.24	22.38	20.76	19.36	17.95	16.50	15.41	14.32	12.86	12.37	11.00	10.39	9.690	8.627	8.478	9.170	8.144	5.974	4.725	4.255	4.085	3.551	3.318	3.387	2.753	2.391	2.134	2.150	2.725	4.127	17.79	89.53	266.0	280.5	96.46	4.806	0.923	0.704	0.715	0.624	0.602	0.590	0.608	0.669
555.0	40.88	39.07	47.44	49.68	54.12	62.34	93.01	104.2	72.56	85.66	303.9	1703	922.6	61.93	47.28	39.99	36.85	33.83	31.65	30.03	28.76	27.17	26.57	26.18	25.43	25.39	25.05	25.04	25.47	25.33	24.81	23.79	22.36	20.58	19.40	17.88	17.11	15.70	14.08	13.38	12.10	11.20	10.63	9.919	9.022	8.737	7.531	7.059	7.081	7.402	6.587	4.682	3.835	3.697	3.303	3.118	2.928	2.850	2.487	2.056	1.944	1.940	2.091	5.008	20.92	60.89	143.3	369.0	128.5	3.330	0.700	0.762	0.666	0.548	0.596	0.585	0.686
560.0	41.43	35.57	43.82	46.92	52.01	52.16	68.73	109.2	74.04	67.40	119.6	896.5	1780	111.2	42.71	35.92	32.54	29.96	27.71	25.88	25.31	24.35	23.92	23.36	22.83	22.16	21.65	21.88	21.91	21.67	22.22	21.52	19.68	18.42	17.40	15.91	14.82	13.81	12.87	11.88	10.58	10.35	9.521	8.772	8.154	7.664	6.744	5.971	5.932	6.426	6.515	5.111	3.829	3.285	3.220	2.959	2.833	2.427	2.428	2.155	1.695	1.750	1.572	2.105	5.582	14.44	35.19	205.4	350.7	26.18	1.260	0.637	0.659	0.611	0.678	0.645	0.614
565.0	37.60	38.65	42.84	46.67	46.02	47.04	57.37	101.2	80.51	62.08	74.01	310.5	1980	463.0	39.67	32.00	29.67	26.72	24.77	23.26	22.93	21.22	20.24	19.40	19.54	19.66	19.03	19.25	19.35	18.90	18.66	18.17	17.07	15.59	14.88	13.94	12.99	12.34	11.39	10.60	9.472	9.272	8.465	8.088	7.291	7.178	6.262	5.756	5.022	5.320	5.948	5.189	3.985	3.032	2.881	2.847	2.443	2.268	2.168	2.113	1.614	1.561	1.327	1.490	2.224	4.234	8.736	52.77	245.4	221.1	19.68	0.847	0.577	0.615	0.684	0.534	0.573
570.0	33.16	37.02	36.05	40.90	39.52	40.43	43.97	73.38	94.49	59.19	61.30	114.8	974.3	1322	79.02	27.09	24.50	22.30	20.28	19.06	18.95	17.15	17.06	16.27	15.66	15.58	15.52	16.10	15.71	15.69	15.59	14.96	14.16	12.98	12.17	11.34	10.62	10.25	9.418	8.775	8.137	7.576	7.130	6.721	6.119	5.885	5.302	4.864	4.364	4.039	4.261	4.554	4.050	2.973	2.511	2.444	2.146	1.953	1.911	1.859	1.817	1.436	1.252	1.325	1.372	1.743	2.778	12.52	62.35	168.1	208.6	68.72	3.089	0.582	0.554	0.497	0.539
575.0	31.86	34.16	35.54	36.61	31.72	34.41	35.59	46.04	88.80	70.80	55.51	67.16	270.2	1483	617.9	26.05	20.05	17.10	16.50	15.74	15.10	13.89	13.98	13.15	12.51	12.50	12.07	12.54	12.27	12.85	12.02	11.94	11.11	10.32	9.706	9.276	8.512	8.002	7.466	7.221	6.423	6.050	5.832	5.523	4.898	4.851	4.302	3.775	3.469	3.189	2.951	3.278	3.676	3.112	2.458	2.181	1.877	1.657	1.564	1.547	1.560	1.469	1.277	1.029	1.180	1.104	1.385	3.580	14.63	38.49	97.23	226.0	28.57	2.024	0.537	0.522	0.476
580.0	31.83	39.41	34.57	32.93	28.54	29.11	33.16	38.39	70.37	84.37	56.38	58.28	99.54	772.1	1357	61.38	16.79	15.06	14.28	12.64	12.13	11.16	10.80	11.13	10.39	10.32	9.872	10.15	10.08	10.43	9.957	9.432	9.003	8.489	7.886	7.321	6.915	6.304	6.223	5.652	5.083	5.103	4.668	4.361	4.284	3.929	3.647	3.259	2.797	2.701	2.364	2.433	3.094	2.944	2.372	1.937	1.658	1.413	1.430	1.339	1.337	1.541	1.316	1.037	0.970	0.934	1.031	1.555	3.827	9.303	23.73	123.5	187.0	23.19	0.893	0.626	0.528
585.0	40.52	39.29	31.79	29.47	27.03	28.50	28.50	33.03	51.90	90.53	58.49	56.68	60.62	255.3	1606	287.8	14.78	12.55	11.64	10.70	9.865	9.170	9.460	9.105	8.692	8.562	8.112	8.587	8.326	7.959	8.241	8.149	7.233	6.988	6.408	5.945	5.959	5.185	5.372	4.603	4.391	4.252	3.788	3.936	3.585	3.325	2.975	2.668	2.285	2.230	1.962	1.973	2.427	2.679	2.317	1.839	1.338	1.379	1.166	1.188	1.161	1.303	1.272	1.067	1.100	0.900	0.910	1.109	1.499	2.736	5.891	31.62	133.5	145.1	15.71	0.663	0.517
590.0	35.72	39.45	34.15	28.95	24.90	25.36	25.00	28.94	39.57	79.90	77.59	57.41	53.17	85.83	790.6	945.8	45.86	10.82	9.289	8.340	8.035	7.536	7.523	7.050	6.740	6.777	6.659	6.628	6.417	6.308	6.551	6.293	5.793	5.261	5.136	4.816	4.475	4.063	3.943	3.722	3.398	3.391	3.061	3.033	2.807	2.690	2.459	2.194	2.018	1.825	1.624	1.658	1.651	1.904	2.026	1.791	1.254	1.160	1.067	1.049	1.002	0.925	1.116	1.221	1.004	0.849	0.907	0.915	1.060	1.250	1.913	7.619	33.91	92.73	107.9	18.41	1.823
595.0	28.65	39.51	34.38	28.31	20.48	22.59	22.23	26.64	32.77	56.34	96.31	62.55	53.79	45.28	202.2	1061	417.0	10.74	7.380	7.037	6.250	6.134	5.657	5.517	5.450	5.131	5.271	5.178	5.208	4.822	5.033	4.659	4.364	4.070	4.009	3.755	3.488	3.218	3.026	2.866	2.735	2.539	2.381	2.222	2.185	2.108	1.885	1.707	1.522	1.483	1.389	1.239	1.336	1.327	1.632	1.665	1.342	1.016	0.975	1.020	0.913	0.815	0.739	0.995	1.041	0.828	0.822	0.838	0.878	0.815	0.961	2.195	7.941	21.35	46.68	110.3	26.25
600.0	26.73	38.75	35.51	28.21	19.61	18.02	20.54	24.80	29.96	46.42	93.28	69.16	51.21	36.74	59.41	543.3	922.1	32.06	6.467	5.921	5.538	5.326	4.995	4.830	4.673	4.172	4.300	3.998	4.205	4.242	4.182	3.846	3.592	3.588	3.405	3.140	2.769	2.881	2.541	2.361	2.310	2.153	1.958	1.917	1.776	1.817	1.835	1.486	1.282	1.292	1.186	1.062	1.075	1.133	1.319	1.364	1.370	0.929	0.903	0.849	0.882	0.785	0.710	0.910	0.964	1.044	0.765	0.741	0.755	0.753	0.759	1.013	2.176	5.135	11.38	59.91	96.93
605.0	25.93	35.15	35.17	27.78	19.20	17.87	18.84	22.16	27.71	40.04	77.96	79.34	50.73	34.42	27.31	166.6	1068	178.1	5.970	5.133	4.561	4.457	4.032	3.963	3.933	3.592	3.559	3.604	3.489	3.546	3.502	3.377	3.370	3.124	2.688	2.539	2.518	2.224	2.281	2.086	1.908	1.855	1.682	1.691	1.481	1.512	1.383	1.398	1.154	1.174	0.948	1.038	0.990	0.908	1.047	1.123	1.275	0.949	0.854	0.738	0.904	0.708	0.796	0.837	0.783	1.092	0.893	0.758	0.753	0.780	0.751	0.672	0.853	1.543	3.034	15.33	65.84
610.0	30.99	35.15	33.32	25.24	17.43	15.75	18.67	20.85	28.42	37.51	61.64	86.96	54.59	33.37	19.54	46.59	519.1	658.2	28.56	4.528	3.950	3.680	3.663	3.360	3.208	3.015	2.946	2.979	2.963	2.852	2.928	2.764	2.773	2.424	2.345	2.113	2.095	1.871	1.834	1.708	1.631	1.490	1.350	1.372	1.369	1.330	1.189	1.137	1.100	0.956	0.907	0.810	0.815	0.789	0.753	0.888	1.010	0.989	0.899	0.695	0.739	0.673	0.758	0.768	0.739	0.945	0.929	0.774	0.776	0.766	0.617	0.652	0.616	0.685	1.076	3.782	16.78
615.0	39.75	33.61	34.73	22.17	16.57	15.20	16.89	18.82	26.13	35.05	51.66	77.29	66.59	32.00	17.94	17.97	128.4	729.6	274.5	5.079	3.502	3.145	3.062	2.865	2.739	2.489	2.440	2.575	2.560	2.374	2.484	2.337	2.205	2.032	2.064	1.871	1.683	1.620	1.580	1.397	1.399	1.288	1.090	1.126	1.122	1.151	0.946	0.969	0.833	0.818	0.791	0.754	0.680	0.706	0.679	0.621	0.729	0.847	0.887	0.733	0.651	0.553	0.644	0.658	0.647	0.754	0.700	0.885	0.814	0.669	0.559	0.608	0.503	0.502	0.607	1.187	4.092
620.0	31.81	33.37	34.87	22.23	15.51	14.10	15.15	17.40	25.65	33.33	46.60	60.41	74.23	32.45	16.74	11.41	34.78	375.9	546.6	18.50	3.144	2.621	3.030	2.441	2.413	2.393	2.099	2.288	2.193	2.188	2.237	2.103	1.904	1.756	1.851	1.731	1.446	1.464	1.394	1.171	1.157	1.134	0.982	0.952	0.955	0.962	0.857	0.873	0.807	0.705	0.712	0.645	0.634	0.647	0.602	0.619	0.682	0.768	0.772	0.808	0.654	0.592	0.569	0.672	0.609	0.673	0.564	0.834	0.808	0.658	0.564	0.558	0.438	0.437	0.532	0.577	1.253
625.0	30.05	32.44	28.73	19.86	14.14	13.11	13.08	16.67	23.57	31.87	41.30	50.36	71.74	36.69	16.52	10.32	13.38	115.4	755.3	59.69	3.246	2.387	2.599	2.384	1.916	1.993	1.869	2.103	1.789	1.933	1.812	1.724	1.670	1.606	1.409	1.431	1.379	1.249	1.143	1.099	0.994	0.890	0.897	0.959	0.953	0.814	0.775	0.793	0.762	0.596	0.663	0.559	0.613	0.652	0.537	0.547	0.559	0.561	0.665	0.706	0.668	0.600	0.536	0.595	0.560	0.583	0.555	0.598	0.767	0.759	0.651	0.557	0.428	0.469	0.526	0.460	0.627
630.0	27.43	30.64	27.77	19.51	15.07	12.70	14.46	16.90	22.21	29.72	38.21	45.56	57.44	44.57	16.88	9.576	8.067	30.56	390.5	482.8	20.96	2.376	2.126	2.052	1.618	1.599	1.488	1.752	1.504	1.533	1.578	1.504	1.378	1.323	1.221	1.228	1.124	1.161	0.921	0.965	0.917	0.809	0.774	0.771	0.749	0.756	0.715	0.653	0.650	0.546	0.552	0.553	0.491	0.490	0.447	0.513	0.511	0.503	0.597	0.695	0.659	0.544	0.543	0.549	0.587	0.556	0.572	0.548	0.646	0.734	0.714	0.510	0.473	0.417	0.494	0.397	0.463
635.0	26.69	33.17	23.83	18.70	15.45	12.61	13.76	16.84	19.21	27.92	36.52	40.55	43.49	48.33	20.86	9.635	6.639	10.58	96.25	563.1	203.2	2.814	2.021	1.829	1.741	1.502	1.506	1.414	1.396	1.226	1.348	1.351	1.260	1.071	1.078	1.108	0.912	0.911	0.881	0.764	0.655	0.726	0.736	0.594	0.575	0.726	0.646	0.616	0.627	0.483	0.532	0.555	0.494	0.463	0.438	0.413	0.421	0.511	0.617	0.578	0.617	0.557	0.512	0.499	0.579	0.549	0.611	0.491	0.571	0.571	0.743	0.553	0.522	0.452	0.392	0.382	0.423
640.0	24.20	29.68	24.10	17.25	15.05	11.10	12.14	14.48	18.02	24.23	32.56	37.99	37.11	42.58	26.12	10.76	6.856	6.129	24.86	307.7	450.2	11.65	1.961	1.678	1.795	1.418	1.274	1.250	1.167	1.162	1.244	1.191	1.151	1.035	0.982	0.850	0.764	0.852	0.786	0.735	0.710	0.744	0.651	0.526	0.545	0.616	0.547	0.574	0.554	0.440	0.475	0.432	0.434	0.449	0.414	0.407	0.438	0.447	0.459	0.485	0.530	0.511	0.495	0.545	0.553	0.590	0.513	0.471	0.527	0.500	0.578	0.600	0.485	0.422	0.392	0.367	0.426
645.0	26.53	30.73	25.16	18.71	14.05	11.49	12.28	12.97	17.97	23.71	31.03	36.50	33.61	33.57	30.78	11.93	7.563	5.434	8.582	96.66	570.2	48.17	2.044	1.855	1.433	1.253	1.110	1.287	1.063	1.071	1.156	1.059	1.007	0.971	0.958	0.704	0.694	0.863	0.704	0.761	0.599	0.641	0.562	0.542	0.634	0.548	0.472	0.620	0.508	0.430	0.429	0.382	0.417	0.399	0.393	0.380	0.449	0.418	0.535	0.435	0.506	0.490	0.480	0.484	0.464	0.499	0.507	0.489	0.505	0.544	0.569	0.574	0.528	0.487	0.404	0.408	0.474
650.0	27.06	28.33	25.10	18.18	12.98	11.95	11.40	13.84	17.48	22.40	29.46	33.46	30.07	27.65	33.31	13.68	7.215	5.579	5.044	25.53	405.8	262.1	3.479	1.693	1.201	1.186	1.063	1.072	1.000	1.090	1.046	0.886	0.894	0.858	0.839	0.657	0.691	0.704	0.723	0.679	0.658	0.568	0.622	0.591	0.577	0.535	0.457	0.516	0.405	0.439	0.378	0.469	0.396	0.398	0.371	0.344	0.373	0.388	0.448	0.367	0.458	0.504	0.456	0.546	0.579	0.459	0.437	0.487	0.513	0.448	0.486	0.521	0.540	0.553	0.471	0.364	0.455
