Sample:	'1
File name:	t2025042304Ð¡¸Õ¸«¶«ÄÏÇÅ.FD3
Run date:	'10:40:16, 04/24/2025
Operator:	Administrator
Comment:	'

Instrument
Model:	F-2700 FL Spectrophotometer
Serial number:	23B8-004
ROM Version:	4J14000 07

Instrument parameters
Measurement type:	3-D scan
Data mode:	Fluorescence
EX  Start WL:	220.0 nm
EX  End WL:	600.0 nm
EX Sampling interval:	5.0 nm
EM  Start WL:	230.0 nm
EM  End WL:	650.0 nm
EM Sampling interval:	5.0 nm
Scan speed:	12000 nm/min
EX Slit:	5.0 nm
EM Slit:	5.0 nm
PMT Voltage:	700 V
Response:	Auto 
Corrected spectra:	Off
Contour interval:	50.000

Peak integration
Integration method:	Rectangular
Sensitivity:	1
Threshold:	1.000

Peaks
No.	ApexEX/EM(nm)	Height(Data)
1	225.0/570.0	51.99
2	225.0/615.0	38.36
3	225.0/630.0	28.07
4	230.0/345.0	1038
5	230.0/560.0	64.72
6	230.0/585.0	52.82
7	230.0/620.0	38.23
8	235.0/510.0	255.2
9	240.0/265.0	350.4
10	240.0/390.0	832.1
11	240.0/520.0	237.6
12	245.0/270.0	346.6
13	245.0/535.0	201.4
14	250.0/275.0	460.7
15	250.0/545.0	160.0
16	255.0/280.0	551.0
17	255.0/560.0	139.1
18	260.0/290.0	529.3
19	260.0/575.0	109.7
20	265.0/585.0	107.3
21	270.0/300.0	960.6
22	270.0/595.0	91.36
23	275.0/305.0	1083
24	275.0/335.0	835.9
25	275.0/610.0	80.45
26	280.0/310.0	975.4
27	280.0/340.0	844.3
28	280.0/625.0	71.23
29	285.0/315.0	919.4
30	285.0/635.0	51.30
31	290.0/325.0	855.3
32	305.0/345.0	549.6
33	315.0/355.0	437.8
34	320.0/360.0	424.5
35	330.0/375.0	381.7
36	335.0/380.0	376.8
37	445.0/525.0	17.89
38	460.0/545.0	9.618
39	485.0/265.0	1.971
40	495.0/270.0	2.055
41	505.0/275.0	2.899
42	510.0/280.0	3.589
43	520.0/285.0	3.707
44	530.0/290.0	3.608
45	535.0/270.0	35.81
46	540.0/295.0	5.046
47	545.0/300.0	5.903
48	550.0/305.0	5.923
49	565.0/310.0	5.359
50	575.0/315.0	5.397
51	580.0/320.0	5.554
52	585.0/325.0	5.520

Data points
	220.0	225.0	230.0	235.0	240.0	245.0	250.0	255.0	260.0	265.0	270.0	275.0	280.0	285.0	290.0	295.0	300.0	305.0	310.0	315.0	320.0	325.0	330.0	335.0	340.0	345.0	350.0	355.0	360.0	365.0	370.0	375.0	380.0	385.0	390.0	395.0	400.0	405.0	410.0	415.0	420.0	425.0	430.0	435.0	440.0	445.0	450.0	455.0	460.0	465.0	470.0	475.0	480.0	485.0	490.0	495.0	500.0	505.0	510.0	515.0	520.0	525.0	530.0	535.0	540.0	545.0	550.0	555.0	560.0	565.0	570.0	575.0	580.0	585.0	590.0	595.0	600.0
230.0	27.87	489.0	1452	506.0	25.19	5.336	3.777	3.632	3.031	2.791	2.694	2.373	2.119	1.837	1.594	1.266	1.208	1.060	0.999	0.913	0.724	0.663	0.638	0.574	0.566	0.513	0.513	0.513	0.438	0.441	0.414	0.391	0.395	0.351	0.377	0.343	0.341	0.309	0.295	0.341	0.305	0.330	0.338	0.281	0.257	0.246	0.790	3.091	5.659	4.037	1.517	0.360	0.198	0.186	0.182	0.171	0.188	0.188	0.196	0.200	0.181	0.198	0.180	0.188	0.168	0.171	0.182	0.186	0.194	0.217	0.218	0.194	0.174	0.165	0.188	0.215	0.207
235.0	59.56	146.4	972.2	1927	496.7	41.90	4.468	4.602	3.158	2.989	3.075	2.239	2.389	1.964	1.885	1.301	1.034	1.132	0.840	0.960	0.847	0.729	0.632	0.650	0.535	0.565	0.575	0.501	0.444	0.459	0.429	0.404	0.370	0.330	0.381	0.334	0.364	0.283	0.350	0.316	0.358	0.260	0.356	0.386	0.431	0.346	0.331	0.927	2.469	4.529	6.820	6.940	3.182	0.616	0.205	0.157	0.208	0.169	0.209	0.156	0.201	0.199	0.194	0.208	0.206	0.159	0.196	0.223	0.171	0.195	0.210	0.178	0.222	0.166	0.182	0.230	0.213
240.0	94.63	92.52	303.0	1695	2428	396.6	20.34	5.291	3.551	3.980	3.572	2.589	2.530	1.932	1.910	1.884	1.300	1.203	1.043	0.893	0.990	0.607	0.705	0.669	0.619	0.504	0.620	0.471	0.562	0.417	0.423	0.434	0.360	0.331	0.314	0.373	0.360	0.268	0.304	0.312	0.262	0.303	0.303	0.373	0.493	0.494	0.382	0.417	0.730	1.478	4.031	10.40	12.32	8.275	2.419	0.380	0.214	0.167	0.194	0.184	0.211	0.191	0.198	0.199	0.232	0.150	0.152	0.187	0.176	0.216	0.167	0.184	0.205	0.195	0.185	0.220	0.196
245.0	77.40	143.4	120.8	585.4	2627	2490	286.3	9.670	5.323	4.508	4.005	3.063	2.740	2.212	2.144	1.519	1.364	1.164	1.157	1.218	0.979	0.761	0.772	0.714	0.600	0.580	0.598	0.548	0.508	0.469	0.350	0.378	0.327	0.352	0.342	0.341	0.382	0.304	0.280	0.321	0.284	0.307	0.291	0.314	0.339	0.523	0.657	0.539	0.373	0.514	1.090	3.829	9.489	15.88	14.27	6.898	1.411	0.254	0.208	0.221	0.222	0.170	0.223	0.190	0.207	0.200	0.172	0.207	0.189	0.221	0.184	0.202	0.178	0.186	0.259	0.177	0.177
250.0	37.58	109.5	196.7	213.5	843.7	2486	3167	1053	60.14	5.945	4.802	3.886	3.265	2.659	2.324	1.712	1.438	1.219	1.067	1.074	0.997	0.743	0.787	0.667	0.706	0.622	0.585	0.546	0.538	0.536	0.468	0.431	0.363	0.355	0.339	0.338	0.361	0.327	0.289	0.328	0.295	0.298	0.340	0.296	0.283	0.339	0.466	0.694	0.869	0.737	0.609	1.110	2.466	5.438	9.754	14.99	18.21	15.26	7.197	1.742	0.305	0.270	0.238	0.221	0.233	0.222	0.184	0.231	0.229	0.207	0.220	0.213	0.205	0.203	0.213	0.201	0.202
255.0	24.57	42.84	143.5	296.4	273.1	629.8	2491	5019	1463	59.62	7.142	5.768	3.998	3.001	2.842	1.993	1.435	1.391	1.254	1.194	1.120	0.860	0.918	0.696	0.703	0.653	0.612	0.546	0.565	0.487	0.457	0.477	0.448	0.395	0.319	0.332	0.300	0.300	0.298	0.284	0.310	0.326	0.338	0.251	0.288	0.285	0.307	0.381	0.465	0.830	1.206	1.183	0.937	1.407	2.389	3.838	7.885	18.39	29.66	24.79	10.54	1.850	0.296	0.307	0.260	0.198	0.188	0.244	0.233	0.211	0.188	0.203	0.201	0.193	0.227	0.177	0.202
260.0	23.29	23.57	63.63	250.0	297.6	196.5	753.2	4124	5647	248.4	27.11	7.313	5.259	3.998	3.245	2.052	2.064	1.700	1.402	1.218	1.017	0.927	0.961	0.851	0.644	0.776	0.748	0.659	0.570	0.558	0.552	0.482	0.416	0.457	0.374	0.381	0.310	0.294	0.328	0.272	0.333	0.324	0.330	0.280	0.317	0.312	0.305	0.293	0.280	0.436	0.850	1.590	1.491	0.947	0.834	1.110	2.096	5.280	14.54	30.23	31.59	22.18	7.845	0.898	0.281	0.242	0.273	0.234	0.211	0.202	0.216	0.215	0.215	0.225	0.203	0.213	0.209
265.0	27.43	21.00	27.27	113.5	350.4	234.9	204.6	1354	5888	5451	201.0	13.63	6.948	4.433	3.773	2.344	2.115	1.756	1.395	1.203	1.200	1.061	0.860	0.822	0.824	0.783	0.677	0.577	0.541	0.659	0.598	0.460	0.402	0.440	0.419	0.444	0.310	0.358	0.363	0.310	0.311	0.303	0.344	0.362	0.328	0.342	0.281	0.283	0.232	0.306	0.368	0.854	1.644	1.971	1.310	0.673	0.722	1.485	3.565	9.477	22.77	41.32	31.20	18.98	3.937	0.409	0.263	0.296	0.230	0.202	0.275	0.231	0.206	0.210	0.298	0.261	0.201
270.0	39.21	33.71	33.72	46.78	165.2	346.6	263.0	354.6	1814	5382	6748	784.3	47.32	7.043	5.229	3.387	2.771	2.100	1.751	1.348	1.326	1.040	0.977	0.919	0.791	0.752	0.765	0.631	0.637	0.616	0.562	0.536	0.544	0.512	0.479	0.434	0.376	0.410	0.405	0.367	0.354	0.349	0.331	0.338	0.354	0.367	0.285	0.342	0.300	0.293	0.263	0.392	0.736	1.125	1.770	2.055	1.592	1.032	1.162	2.428	5.682	12.77	21.37	35.81	35.49	34.79	13.42	4.091	0.553	0.265	0.318	0.259	0.224	0.286	0.251	0.252	0.278
275.0	77.72	96.82	82.80	52.53	62.82	156.2	460.7	319.8	453.7	1327	4616	9728	1107	44.27	7.855	4.849	3.482	2.828	2.183	1.768	1.572	1.501	1.047	1.141	0.978	0.824	0.808	0.768	0.683	0.724	0.573	0.619	0.531	0.536	0.494	0.526	0.411	0.384	0.442	0.448	0.371	0.459	0.410	0.401	0.455	0.479	0.390	0.450	0.514	0.422	0.321	0.388	0.465	0.515	0.721	1.176	2.407	2.899	2.114	1.170	1.580	3.276	5.150	8.559	12.33	30.56	56.80	32.16	20.91	3.864	0.493	0.311	0.361	0.327	0.287	0.254	0.290
280.0	118.5	156.4	144.5	96.80	55.72	70.12	283.6	551.0	260.3	363.3	1294	7178	9048	781.1	21.39	6.761	4.365	3.135	2.888	2.124	1.861	1.658	1.245	1.282	0.960	0.879	0.868	0.863	0.709	0.769	0.602	0.622	0.631	0.569	0.615	0.500	0.504	0.503	0.447	0.491	0.440	0.532	0.479	0.430	0.573	0.611	0.638	0.748	0.594	0.593	0.480	0.418	0.461	0.462	0.445	0.639	1.091	2.137	3.589	2.948	1.456	1.303	1.620	2.368	3.320	8.050	21.19	41.63	65.73	31.14	16.59	1.849	0.384	0.343	0.332	0.278	0.262
285.0	173.9	231.8	216.2	135.4	69.34	56.80	128.7	464.6	513.3	208.7	395.5	2146	9031	7155	115.7	11.19	6.315	4.395	3.128	2.460	2.409	1.573	1.445	1.271	1.016	0.914	0.834	0.830	0.820	0.730	0.668	0.635	0.597	0.655	0.679	0.596	0.541	0.562	0.476	0.467	0.461	0.427	0.570	0.531	0.552	0.740	0.791	0.941	0.802	0.704	0.635	0.534	0.533	0.480	0.515	0.438	0.589	0.927	1.975	3.610	3.707	2.112	1.218	1.149	1.280	2.438	5.491	11.61	29.25	53.42	68.71	27.41	10.18	0.920	0.394	0.319	0.370
290.0	230.6	330.8	300.3	202.5	106.7	77.10	98.86	222.3	529.3	499.0	322.4	650.1	2626	6704	7777	1618	28.80	6.022	4.186	2.986	2.445	2.111	1.609	1.463	1.188	0.966	0.952	0.927	0.843	0.830	0.768	0.703	0.700	0.806	0.820	0.717	0.681	0.647	0.540	0.564	0.506	0.468	0.601	0.650	0.704	0.907	0.905	1.162	1.070	0.957	0.664	0.709	0.635	0.544	0.538	0.552	0.575	0.745	0.980	1.579	2.557	3.405	3.608	2.800	1.709	1.572	2.125	3.570	7.528	14.43	27.77	38.72	50.67	43.79	18.66	8.767	1.330
295.0	268.5	380.2	394.8	272.4	146.0	114.4	126.0	172.9	298.6	631.4	763.0	441.2	807.3	1688	4780	8909	654.1	27.64	5.756	3.820	2.896	2.363	1.862	1.568	1.351	1.267	1.025	1.131	0.847	0.801	0.757	0.697	0.696	0.748	0.829	0.854	0.823	0.718	0.734	0.685	0.539	0.683	0.618	0.669	0.803	1.013	1.042	1.386	1.241	1.109	0.949	1.023	0.843	0.742	0.723	0.696	0.791	0.792	0.993	1.103	1.409	1.746	2.663	4.327	5.046	3.425	2.019	2.193	3.172	4.480	7.223	9.551	13.55	23.20	48.56	66.84	30.23
300.0	282.5	422.8	435.0	309.0	186.5	152.3	168.5	198.8	266.2	453.1	960.6	695.2	480.8	575.3	1319	6158	5689	491.4	12.55	5.037	3.636	2.771	2.187	1.816	1.665	1.438	1.091	1.164	1.021	0.908	0.820	0.841	0.755	0.840	0.875	0.828	0.813	0.730	0.768	0.684	0.626	0.652	0.600	0.718	0.797	0.976	1.130	1.403	1.414	1.252	0.974	1.160	1.047	0.872	0.809	0.819	0.914	0.932	1.118	1.113	1.407	1.562	1.875	2.810	4.517	5.903	4.416	2.910	2.343	2.659	2.923	3.286	4.077	6.277	14.50	34.94	60.15
305.0	300.7	428.6	478.7	341.0	221.8	195.4	216.1	251.8	312.2	425.1	760.9	1083	587.3	396.2	465.2	1789	6772	4785	72.15	8.397	4.673	3.324	2.618	2.088	1.987	1.430	1.250	1.140	1.111	0.909	0.882	0.860	0.896	0.801	0.873	0.736	0.910	0.789	0.858	0.620	0.630	0.652	0.787	0.742	0.912	1.180	1.180	1.358	1.495	1.472	1.187	1.317	1.202	0.937	0.970	1.081	1.096	1.253	1.482	1.405	1.609	1.718	1.975	2.433	3.100	4.188	5.923	5.479	3.698	2.745	2.548	2.162	2.343	2.633	4.260	9.041	20.31
310.0	301.2	440.0	480.3	366.6	258.4	232.5	257.4	308.0	369.2	461.1	623.7	916.7	975.4	550.5	333.3	526.5	1943	4926	5194	1276	20.93	4.713	3.416	2.528	1.971	1.652	1.387	1.307	1.236	1.051	0.888	0.857	0.903	0.922	0.948	0.878	0.789	0.840	0.702	0.707	0.707	0.699	0.696	0.722	0.831	1.141	1.200	1.504	1.550	1.533	1.193	1.328	1.202	1.112	1.100	1.199	1.287	1.401	1.610	1.670	1.869	1.938	2.162	2.465	2.794	3.132	4.043	4.877	5.299	5.359	4.053	2.695	2.215	1.959	2.114	2.933	5.408
315.0	313.0	440.3	479.7	381.8	288.8	266.4	296.4	349.0	415.1	506.0	622.9	738.7	863.2	919.4	442.8	292.4	548.4	1201	3238	6691	487.3	20.83	4.929	3.543	2.296	1.972	1.671	1.540	1.280	1.187	0.872	0.877	0.971	0.921	0.922	0.902	0.837	0.736	0.700	0.733	0.718	0.722	0.720	0.763	0.861	1.104	1.273	1.583	1.596	1.521	1.248	1.269	1.441	1.283	1.229	1.313	1.576	1.610	1.816	1.751	2.048	2.204	2.466	2.579	2.849	3.182	3.301	3.721	3.815	4.557	5.328	5.397	3.451	2.446	1.932	1.777	2.299
320.0	339.2	482.2	555.9	433.1	332.2	301.2	333.7	376.8	455.9	553.2	655.6	737.3	759.8	908.8	720.7	314.5	280.9	375.1	870.6	4462	4150	389.8	10.87	4.513	2.840	2.389	1.846	1.727	1.634	1.133	1.068	1.082	0.846	0.929	0.907	0.761	0.798	0.684	0.667	0.768	0.686	0.710	0.806	0.854	0.970	1.257	1.344	1.715	1.834	1.688	1.472	1.483	1.526	1.281	1.529	1.352	1.681	1.667	1.827	1.907	2.106	2.388	2.626	2.613	3.060	3.302	3.498	3.419	3.614	3.638	4.151	5.175	5.554	4.410	2.891	1.927	1.871
325.0	367.1	591.6	678.5	543.6	380.4	339.1	359.8	401.4	487.8	583.3	692.3	766.1	759.3	763.5	855.3	490.8	265.8	220.5	281.7	1262	4785	3712	57.20	7.095	3.675	3.053	2.096	1.737	1.462	1.318	1.185	1.150	0.974	0.894	0.874	0.872	0.800	0.739	0.681	0.734	0.659	0.706	0.691	0.877	1.084	1.341	1.470	2.030	2.109	2.118	1.842	1.649	1.609	1.404	1.614	1.509	1.673	1.666	1.859	2.124	2.148	2.536	2.605	3.018	3.318	3.402	3.705	3.676	3.905	3.809	3.813	3.925	4.971	5.520	4.413	3.055	2.127
330.0	391.5	659.7	856.7	728.9	477.5	394.6	399.3	436.2	519.5	621.0	728.8	801.8	799.1	739.2	714.9	676.8	428.0	233.8	181.7	365.7	1367	3600	4023	1130	18.05	4.159	2.935	2.132	1.659	1.488	1.344	1.222	1.017	0.965	0.915	0.812	0.818	0.812	0.789	0.647	0.721	0.702	0.814	0.912	1.046	1.579	1.726	2.473	2.750	2.462	2.358	2.202	1.924	1.723	1.746	1.611	1.890	1.972	2.142	2.295	2.466	2.526	2.897	3.161	3.376	3.541	3.798	3.909	3.793	3.855	3.876	3.813	4.042	4.220	4.398	4.330	4.133
335.0	412.0	743.6	965.5	851.1	579.8	454.0	437.8	473.7	552.0	639.4	759.3	835.9	832.8	762.0	677.9	600.7	630.1	380.0	206.3	198.9	378.3	869.6	2476	5364	411.0	20.75	4.411	2.699	2.290	1.716	1.458	1.275	1.099	1.013	1.052	0.869	0.857	0.816	0.848	0.706	0.623	0.753	0.886	0.907	1.093	1.647	1.792	2.645	3.045	2.654	2.634	2.646	2.354	2.015	1.970	1.911	2.197	2.070	2.367	2.220	2.618	2.480	3.011	3.298	3.453	3.576	3.773	4.088	4.004	4.192	3.974	4.164	3.862	3.972	4.051	3.748	4.011
340.0	442.5	749.1	1025	912.5	661.7	495.9	469.5	482.6	565.2	657.2	765.1	834.5	844.3	783.4	687.8	561.0	574.0	547.3	276.5	185.4	177.3	253.9	655.9	3488	4705	355.6	10.74	3.615	2.533	1.843	1.556	1.312	1.212	1.091	1.025	0.918	0.839	0.861	0.852	0.853	0.707	0.822	0.856	0.899	1.176	1.482	1.901	2.727	3.042	3.011	2.680	2.830	2.552	2.311	2.284	2.089	2.217	2.108	2.284	2.285	2.623	2.711	2.996	3.398	3.589	3.489	3.838	3.976	4.313	4.232	3.975	4.204	3.891	3.978	3.754	3.449	3.315
345.0	435.2	727.1	1038	949.0	697.8	541.8	502.3	502.6	563.0	657.7	751.3	827.8	831.6	783.2	689.0	558.4	497.1	549.6	410.6	216.4	150.3	133.2	199.2	973.4	4059	3182	51.52	5.892	3.221	2.050	1.818	1.466	1.494	1.301	0.977	1.035	0.849	0.861	0.749	0.814	0.738	0.917	0.826	0.906	1.259	1.618	1.979	2.595	3.029	3.142	2.762	2.953	2.728	2.489	2.167	2.222	2.322	2.320	2.326	2.634	2.415	2.731	3.208	3.326	3.378	3.566	3.822	3.941	4.188	3.988	4.123	4.057	4.168	3.955	3.721	3.553	3.250
350.0	412.3	720.7	985.9	952.7	750.0	594.6	536.1	525.6	582.3	656.6	732.9	799.4	814.5	768.0	686.6	575.5	490.3	461.6	470.2	352.9	192.8	138.1	122.0	273.1	1127	2836	3302	992.9	17.29	3.386	2.281	1.769	1.494	1.282	1.120	0.986	0.893	0.884	0.781	0.855	0.753	0.884	0.902	1.044	1.148	1.606	2.010	2.445	3.082	2.931	2.892	3.076	2.929	2.508	2.442	2.372	2.539	2.350	2.481	2.568	2.577	2.862	3.087	3.254	3.294	3.483	3.722	3.778	3.879	3.978	3.944	3.978	3.713	4.055	3.740	3.554	3.417
355.0	392.8	670.7	919.3	917.1	787.9	651.0	584.2	576.3	602.1	662.6	726.6	774.1	790.8	750.8	688.0	587.6	510.6	449.1	407.3	437.8	322.4	180.7	136.6	140.6	306.1	681.9	1928	4172	381.4	21.24	3.229	2.529	1.856	1.427	1.000	0.961	1.019	0.904	0.831	0.723	0.756	0.821	0.911	0.885	1.199	1.356	1.780	2.226	2.895	2.848	2.756	3.075	3.041	2.905	2.647	2.420	2.723	2.621	2.798	2.846	2.786	2.876	3.289	3.195	3.313	3.497	3.576	3.769	3.842	3.971	3.861	3.881	3.789	4.032	3.851	3.767	3.596
360.0	381.3	642.0	886.2	896.6	805.7	692.8	629.9	606.0	631.2	678.2	738.6	769.2	777.5	747.4	688.4	605.0	529.0	461.0	401.6	405.2	424.5	258.0	164.8	133.6	140.1	199.5	505.9	2648	3135	343.5	10.77	2.950	1.940	1.565	1.252	1.078	0.957	0.926	0.871	0.734	0.861	0.837	0.889	0.921	1.068	1.456	1.587	2.178	2.664	2.800	2.652	3.049	2.938	2.898	2.778	2.593	2.928	2.704	3.038	2.884	2.757	3.169	3.335	3.277	3.455	3.476	3.545	3.589	3.587	3.928	3.855	4.020	3.973	4.088	3.916	4.059	3.744
365.0	377.1	627.0	864.4	890.0	810.5	729.2	655.7	628.8	650.3	698.5	741.7	765.8	764.8	737.5	680.2	613.8	544.7	480.6	423.9	387.5	417.5	365.2	211.4	153.6	122.6	106.9	155.3	736.0	3105	2940	48.96	5.748	2.483	2.018	1.522	1.145	1.143	0.874	0.926	0.840	0.839	0.844	0.880	0.928	1.082	1.333	1.618	2.101	2.616	2.803	2.491	3.046	3.166	2.949	2.924	2.753	2.936	3.036	3.034	2.973	3.129	3.217	3.224	3.392	3.383	3.540	3.602	3.386	3.596	3.777	3.915	3.889	3.848	4.142	3.920	3.859	3.931
370.0	358.5	596.9	805.7	870.7	829.5	749.5	687.7	660.2	680.6	703.7	741.3	750.6	748.7	725.4	668.9	616.0	560.0	508.3	452.9	408.4	379.6	393.0	330.7	209.2	148.8	111.0	96.87	206.8	867.0	2438	2920	928.7	16.43	2.678	1.837	1.525	1.134	1.004	0.932	0.852	0.824	0.832	0.851	0.960	1.114	1.362	1.583	1.969	2.564	2.508	2.532	3.023	3.338	3.070	3.129	2.870	3.036	3.024	2.988	3.232	3.100	3.292	3.173	3.311	3.503	3.682	3.599	3.510	3.632	3.642	3.623	3.812	3.802	3.914	3.759	3.726	4.006
375.0	349.2	573.3	766.6	853.2	825.5	770.2	722.7	683.2	690.3	707.2	738.0	743.0	732.0	715.4	656.1	610.4	574.3	531.2	479.8	435.7	389.2	362.6	381.7	317.5	193.4	140.3	109.5	108.4	236.0	585.2	1641	3605	335.3	19.74	2.678	1.900	1.359	1.044	0.918	0.793	0.873	0.767	0.850	0.929	1.085	1.370	1.477	1.990	2.347	2.396	2.572	3.058	3.208	3.198	3.139	3.038	3.120	3.120	3.165	3.232	3.141	3.309	3.315	3.146	3.436	3.303	3.277	3.329	3.550	3.402	3.534	3.672	3.743	3.999	3.725	3.722	3.841
380.0	355.9	546.9	745.6	829.6	827.1	782.2	737.9	714.1	707.0	714.6	738.1	727.0	724.1	700.0	653.4	602.0	573.1	532.3	492.9	452.6	404.9	363.2	358.2	376.8	259.9	169.0	127.8	102.3	107.6	169.7	431.0	2242	2714	291.9	9.569	2.463	1.733	1.345	1.082	0.911	0.885	0.870	0.898	0.954	0.961	1.305	1.423	1.825	2.386	2.379	2.475	3.097	3.082	3.065	3.032	3.145	3.216	3.209	3.429	3.283	3.128	3.276	3.478	3.354	3.361	3.560	3.461	3.369	3.353	3.696	3.545	3.684	3.580	3.839	3.845	3.700	3.798
385.0	350.6	538.3	721.1	801.0	831.3	789.4	750.1	719.6	706.6	713.8	726.3	723.4	717.6	688.0	648.2	600.4	563.4	535.4	500.2	463.0	422.0	380.5	348.7	362.9	336.0	213.6	151.0	116.7	94.39	89.64	131.9	616.6	2458	2440	217.9	4.538	2.218	1.530	1.266	1.029	0.908	0.813	0.968	0.881	1.012	1.357	1.537	1.901	2.355	2.260	2.308	2.953	3.070	3.130	3.105	3.288	3.171	3.113	3.225	3.196	3.295	3.292	3.367	3.424	3.326	3.281	3.414	3.442	3.285	3.826	3.472	3.486	3.508	3.641	3.626	3.533	3.734
390.0	338.1	528.5	718.3	806.4	832.1	796.2	751.0	721.2	709.3	704.6	710.3	708.7	695.5	661.3	629.3	588.4	554.8	532.9	500.0	472.4	437.0	398.4	364.0	343.3	347.0	299.4	203.8	145.5	114.3	90.68	79.41	172.2	678.1	1861	2219	715.8	13.96	2.128	1.616	1.173	1.089	0.912	0.953	1.014	1.070	1.266	1.469	1.884	2.185	2.150	2.357	2.729	3.130	3.066	3.159	3.138	3.105	3.258	3.302	3.167	3.291	3.345	3.428	3.353	3.378	3.357	3.283	3.562	3.373	3.618	3.508	3.416	3.547	3.615	3.693	3.627	3.845
395.0	313.5	509.6	686.1	791.4	804.7	787.3	748.0	719.9	705.1	705.7	696.3	689.5	678.3	649.3	614.1	574.7	543.4	520.2	494.1	472.1	443.1	410.2	382.2	352.7	323.5	325.1	287.7	193.0	144.2	114.2	86.97	87.65	183.3	444.0	1205	2640	278.3	16.25	2.265	1.528	1.175	1.051	0.919	1.025	1.026	1.339	1.467	1.859	2.171	2.237	2.174	2.765	2.995	2.962	3.074	3.062	3.410	3.264	3.184	3.302	3.168	3.221	3.240	3.285	3.367	3.335	3.199	3.182	3.259	3.439	3.362	3.510	3.553	3.567	3.255	3.232	3.858
400.0	307.9	500.4	686.9	778.1	800.5	794.5	765.0	729.1	700.7	692.5	690.2	679.3	667.8	636.8	606.4	567.5	534.6	513.2	492.8	474.6	447.0	416.9	390.4	361.6	327.4	311.3	325.9	246.8	171.2	136.5	102.2	79.34	81.29	126.9	316.2	1626	2213	244.9	8.602	1.863	1.479	1.216	0.957	1.084	1.099	1.347	1.460	1.874	2.027	2.106	2.277	2.952	3.079	2.907	3.204	2.858	3.352	3.332	3.199	3.375	3.342	3.426	3.127	3.062	3.384	3.264	3.215	3.134	3.221	3.507	3.152	3.257	3.422	3.567	3.559	3.432	3.398
405.0	311.9	494.5	650.5	758.5	798.6	785.0	762.6	723.3	708.5	694.6	681.5	669.0	662.2	626.7	589.7	547.8	523.1	503.6	486.3	464.3	440.8	420.9	392.4	371.8	338.0	310.3	315.1	301.8	210.4	158.1	120.3	90.24	68.94	63.80	94.73	444.6	1819	1988	186.8	3.718	1.689	1.421	1.070	1.256	1.227	1.268	1.482	1.779	2.099	2.052	2.223	2.810	2.933	2.881	3.128	3.061	3.332	3.233	3.205	3.173	3.331	3.358	3.075	3.528	3.324	3.164	3.136	3.167	3.411	3.358	3.242	3.447	3.192	3.483	3.371	3.450	3.520
410.0	302.8	478.5	638.5	734.4	774.3	767.1	743.6	726.8	697.9	680.0	671.8	657.5	640.4	606.5	575.0	532.0	503.3	487.5	467.7	451.6	432.4	415.4	396.5	376.1	348.3	318.6	299.7	301.3	273.9	198.8	146.0	109.3	79.72	60.14	53.28	121.9	494.3	1406	1740	588.5	12.80	1.872	1.312	1.199	1.323	1.394	1.449	1.825	1.945	2.035	2.233	2.761	2.920	2.827	3.009	3.082	3.270	3.305	3.258	3.256	3.187	3.277	3.111	3.281	3.246	3.102	3.303	3.104	3.202	3.110	3.265	3.378	3.438	3.247	3.418	3.241	3.505
415.0	284.3	453.0	609.4	709.6	752.1	745.4	733.3	715.4	682.4	674.7	669.0	636.5	617.3	579.3	547.3	510.1	478.0	466.8	448.7	433.4	414.0	406.5	391.7	374.4	355.1	328.1	303.4	281.2	281.8	252.2	176.0	125.3	93.14	69.09	52.15	55.78	129.7	332.0	888.4	2012	253.5	15.38	2.029	1.381	1.410	1.423	1.391	1.785	1.968	1.971	2.168	2.803	2.935	2.914	3.084	2.949	3.085	3.377	2.914	3.170	3.152	3.174	3.358	3.286	3.357	3.014	2.965	3.029	2.994	2.892	3.155	3.385	3.278	2.990	3.108	3.187	3.316
420.0	280.7	438.1	582.3	678.6	722.0	728.6	715.4	708.8	678.6	665.4	654.9	630.9	599.4	562.8	529.9	480.6	454.3	445.3	428.7	419.5	402.9	392.9	382.6	368.5	349.9	326.5	302.9	276.4	266.2	273.1	211.8	142.1	104.5	78.37	56.17	45.04	51.67	89.86	226.5	1184	1816	225.0	7.706	1.711	1.517	1.409	1.495	1.773	1.940	1.875	1.974	2.524	2.790	2.766	3.103	2.904	3.047	3.137	3.124	3.286	2.981	3.039	3.035	3.443	3.290	3.047	2.850	2.932	2.971	3.005	3.161	2.988	3.196	2.893	3.221	3.132	2.941
425.0	266.5	424.1	565.5	677.2	711.1	696.5	711.9	702.2	675.1	653.1	644.6	618.5	583.6	542.7	509.0	460.6	438.9	428.9	411.6	398.3	387.7	375.9	370.8	359.9	344.3	325.1	302.3	278.7	259.4	256.5	240.3	166.4	113.8	84.83	63.94	47.32	37.97	38.86	62.87	315.5	1356	1594	171.2	3.202	1.786	1.586	1.370	1.925	1.825	2.099	1.934	2.680	2.843	2.822	2.897	2.847	3.139	3.117	2.976	3.372	3.157	3.012	3.023	3.244	3.262	3.070	2.719	2.957	2.865	3.135	3.064	2.872	3.109	2.732	3.165	3.023	2.911
430.0	281.7	410.2	542.9	650.5	697.6	691.5	696.4	686.7	660.6	644.0	630.4	598.2	563.9	520.8	483.8	441.1	418.6	403.9	389.3	375.6	368.2	358.9	356.2	349.1	338.9	323.7	302.7	283.1	261.1	242.5	232.6	203.8	138.6	97.55	74.17	55.78	41.51	31.66	29.75	81.81	356.4	1044	1381	497.4	11.96	1.960	1.586	1.846	1.883	1.974	1.995	2.447	2.774	2.697	2.727	2.684	3.095	3.125	3.057	3.080	3.115	3.039	2.967	3.140	3.113	3.058	2.783	2.838	2.682	2.955	2.824	2.862	2.987	2.779	2.919	2.871	2.764
435.0	353.7	399.0	532.1	622.9	664.5	672.6	676.1	670.8	658.7	644.8	631.8	595.0	546.1	503.3	464.0	420.6	392.8	376.6	368.6	360.2	348.6	345.3	342.8	330.9	327.2	313.2	299.1	280.7	262.7	240.1	219.3	205.1	175.2	116.2	83.85	65.07	49.07	35.73	26.80	33.02	89.70	243.3	667.9	1654	239.4	15.53	2.176	2.047	1.903	2.069	1.859	2.307	2.642	2.571	2.861	2.612	2.901	2.946	3.207	3.121	3.044	3.168	2.978	3.052	3.035	2.841	2.901	2.778	2.945	2.697	2.681	2.510	2.839	2.706	2.683	2.688	2.782
440.0	422.2	410.6	503.4	596.7	643.4	662.6	668.7	664.4	656.1	640.2	616.3	579.2	523.5	487.3	447.2	401.6	379.5	362.1	349.9	342.4	332.0	331.4	329.1	318.4	317.0	306.0	293.5	278.0	265.8	239.4	215.0	193.7	184.4	139.3	94.89	71.05	54.85	40.53	29.93	24.53	32.54	63.50	167.8	949.4	1606	213.8	8.117	2.342	2.026	1.976	1.878	2.448	2.601	2.664	2.796	2.795	2.696	3.172	2.930	3.229	2.855	3.263	3.148	3.012	2.953	2.812	2.797	2.612	2.899	2.783	2.583	2.609	2.573	2.485	2.634	2.703	2.583
445.0	466.8	536.0	488.7	575.3	618.3	635.0	654.0	642.7	634.2	626.5	600.7	563.3	509.9	468.1	427.0	389.4	359.9	346.3	332.7	325.1	316.6	312.5	311.6	308.2	306.6	296.3	283.8	274.9	259.0	240.3	214.9	186.9	172.2	156.4	109.5	77.00	58.77	45.06	33.19	25.25	21.65	24.85	45.96	251.0	1174	1484	152.2	4.124	2.346	2.053	1.943	2.411	2.487	2.519	2.486	2.810	2.724	3.090	2.969	3.202	2.891	3.003	3.036	2.944	2.991	2.896	2.854	2.764	2.872	2.654	2.500	2.561	2.612	2.345	2.485	2.540	2.348
450.0	352.7	799.3	576.4	545.8	587.1	604.5	611.5	622.8	611.8	599.8	578.3	539.5	488.5	444.7	396.3	360.2	334.7	317.6	307.3	301.1	292.1	289.9	288.6	286.7	285.2	277.5	268.5	261.0	248.7	232.0	210.3	182.1	158.1	146.0	127.2	89.94	63.99	48.87	37.32	28.64	21.99	18.41	20.19	63.38	305.4	936.1	1276	464.7	10.87	2.289	2.019	2.330	2.292	2.467	2.491	2.481	2.848	3.059	2.859	2.927	2.865	2.962	2.892	2.865	2.701	2.683	2.652	2.531	2.572	2.688	2.502	2.238	2.533	2.285	2.368	2.400	2.284
455.0	228.9	828.5	940.6	527.6	551.7	579.1	576.0	584.9	577.1	566.3	545.6	513.5	461.9	409.5	365.1	333.5	306.4	292.4	280.7	273.4	266.4	263.6	263.0	263.9	262.2	254.4	248.1	242.1	235.0	221.0	200.8	176.4	149.6	130.2	120.3	106.2	74.53	52.32	40.65	31.99	25.66	19.61	16.15	22.92	74.69	216.5	565.3	1414	202.9	12.43	2.459	2.411	2.453	2.414	2.414	2.560	2.647	2.916	2.946	2.836	2.782	2.641	2.737	2.758	2.632	2.642	2.487	2.426	2.459	2.197	2.437	2.187	2.241	2.258	2.110	2.166	2.118
460.0	183.6	606.4	1377	626.7	509.2	547.2	540.1	551.1	546.8	541.9	515.2	478.4	431.1	390.7	339.8	307.9	284.2	274.5	258.9	251.0	247.8	241.3	241.1	242.8	241.3	236.5	233.3	226.2	221.5	211.3	193.0	168.8	145.9	122.6	109.8	107.2	85.41	56.61	43.69	33.91	27.42	21.28	16.61	15.07	24.49	54.50	137.9	748.3	1304	167.0	7.559	2.566	2.333	2.342	2.442	2.469	2.360	2.611	2.633	2.644	2.493	2.450	2.784	2.558	2.410	2.470	2.444	2.213	2.326	2.329	2.317	2.125	2.099	1.963	1.998	2.097	2.256
465.0	164.7	369.8	1449	867.6	482.5	505.8	512.8	520.6	512.5	511.6	479.8	456.4	412.2	366.3	324.3	284.6	268.6	250.1	242.2	233.8	228.1	225.3	223.5	225.8	224.4	219.4	217.5	212.5	208.5	198.5	184.5	161.9	140.0	119.0	101.7	96.76	91.14	64.43	45.72	35.42	28.20	22.54	18.37	14.64	13.91	19.33	36.66	191.8	922.2	1149	130.2	4.625	2.552	2.232	2.296	2.257	2.440	2.556	2.506	2.392	2.477	2.321	2.592	2.533	2.315	2.375	2.365	2.255	2.153	2.218	2.100	2.081	2.046	1.927	2.142	1.796	2.137
470.0	165.8	271.3	906.6	1636	603.2	457.0	468.8	475.5	476.1	468.6	446.2	414.7	376.4	329.7	292.5	260.5	240.2	227.5	214.5	208.6	201.2	199.6	200.4	201.3	199.0	197.9	195.7	191.8	188.5	180.1	169.4	150.7	130.0	112.0	95.96	84.38	80.23	71.46	51.98	37.59	29.86	24.04	19.27	15.99	12.59	12.14	14.44	48.06	236.5	693.7	925.2	380.8	11.32	2.494	2.289	2.218	2.253	2.270	2.192	2.268	2.285	2.365	2.185	2.325	2.245	2.143	2.126	2.099	1.943	2.038	1.889	1.892	1.867	1.878	1.873	1.801	1.861
475.0	170.4	227.9	437.4	1551	1381	432.3	430.7	433.1	434.9	420.9	404.5	374.1	333.0	301.0	259.3	234.5	212.6	200.3	190.2	182.4	177.4	176.0	175.7	173.9	173.4	172.8	173.0	170.8	167.9	163.7	152.2	138.4	119.4	104.9	89.14	76.60	68.46	64.92	59.87	42.10	30.60	25.36	20.38	16.66	13.47	11.65	10.32	16.66	57.46	159.5	357.1	961.3	205.6	14.12	2.350	2.118	2.164	2.092	2.235	2.095	2.185	2.219	2.158	2.067	2.129	2.087	1.940	1.780	1.823	1.788	1.624	1.615	1.679	1.669	1.646	1.450	1.684
480.0	166.1	227.8	303.6	973.9	1979	536.4	390.6	399.4	397.4	391.5	380.5	352.5	307.8	275.1	241.4	213.3	193.6	184.5	173.3	168.1	163.4	161.4	160.3	159.0	159.4	157.8	155.8	157.8	154.1	151.6	139.8	127.1	111.3	99.15	84.70	72.50	63.29	57.00	58.08	48.32	33.18	25.81	21.14	16.87	14.59	12.16	10.14	10.10	17.82	39.92	86.13	437.5	951.4	190.4	8.887	2.221	2.279	2.266	2.071	2.050	2.048	2.172	2.089	1.962	1.713	1.938	1.805	1.706	1.673	1.685	1.712	1.523	1.512	1.565	1.524	1.346	1.502
485.0	151.8	221.4	257.3	521.2	1955	1101	367.7	376.2	372.5	364.6	352.5	329.5	292.2	257.7	222.3	198.7	182.8	171.5	163.0	155.4	150.2	147.2	147.2	146.9	148.6	145.5	145.0	143.0	141.7	142.4	130.6	119.2	105.7	93.83	81.15	70.66	61.05	53.07	50.79	51.17	38.07	26.90	20.86	17.81	15.13	12.74	10.70	8.978	9.314	13.48	23.22	109.0	600.5	944.5	152.6	4.161	2.186	2.256	1.837	1.959	1.956	1.878	1.992	1.956	1.907	1.896	1.636	1.733	1.661	1.697	1.530	1.526	1.520	1.549	1.392	1.341	1.398
490.0	118.2	231.2	252.1	331.8	1109	1926	581.7	337.3	342.9	333.2	323.3	304.8	270.1	234.0	204.5	181.1	164.8	155.6	147.3	139.9	134.0	132.6	133.8	133.2	133.2	131.7	132.0	130.3	129.2	127.5	121.2	109.7	97.79	87.34	76.09	66.29	57.42	49.86	44.55	44.79	41.88	30.87	22.52	18.35	15.37	13.24	11.07	9.409	8.044	7.920	9.102	27.83	149.8	487.4	777.6	377.1	12.92	2.366	1.965	1.849	1.793	1.668	1.834	1.872	1.651	1.647	1.561	1.493	1.533	1.507	1.486	1.471	1.428	1.374	1.278	1.274	1.357
495.0	102.8	191.3	280.9	264.2	476.9	1734	1412	327.9	312.5	296.1	292.9	269.9	244.1	211.5	183.2	162.9	144.9	139.9	132.4	125.6	120.3	117.3	117.3	117.1	115.6	116.5	116.1	115.6	115.9	113.4	108.2	99.12	88.63	78.07	69.57	61.41	53.69	45.72	41.36	37.06	38.32	36.31	25.79	18.74	16.29	13.47	11.72	9.841	8.102	7.072	6.425	10.03	36.69	111.8	291.8	889.5	229.1	17.13	2.108	1.743	1.660	1.683	1.697	1.631	1.550	1.448	1.608	1.310	1.329	1.367	1.278	1.252	1.151	1.224	1.154	1.153	1.240
500.0	86.13	162.6	274.5	239.7	306.9	1038	2120	390.6	291.3	275.8	271.9	247.8	225.0	195.1	166.7	148.8	135.2	126.6	118.6	112.9	108.5	107.5	105.1	106.4	105.8	104.5	104.5	103.9	105.8	102.3	97.55	91.75	82.69	72.30	64.24	57.82	50.44	43.59	38.07	34.70	32.51	35.55	29.57	20.57	16.41	13.86	11.81	10.00	8.661	6.923	5.971	5.912	11.31	27.97	69.45	379.2	897.5	216.0	11.36	1.849	1.747	1.656	1.619	1.516	1.517	1.436	1.435	1.241	1.305	1.175	1.168	1.054	1.113	1.104	1.090	1.158	1.171
505.0	76.57	145.2	262.7	252.1	238.4	494.4	2137	992.5	269.7	257.5	244.8	231.7	201.9	179.1	152.6	136.8	123.7	115.7	107.7	101.7	98.85	97.39	95.42	96.54	95.34	94.79	95.04	93.63	96.07	93.76	89.09	84.09	74.96	67.36	60.69	53.92	46.84	41.69	36.42	32.08	28.97	30.73	30.73	22.86	16.80	13.84	11.82	10.06	8.589	7.189	5.872	5.153	5.769	9.221	18.09	92.05	478.4	880.3	180.0	5.325	1.787	1.583	1.469	1.468	1.399	1.340	1.261	1.163	1.275	1.114	1.172	1.014	1.116	1.051	1.044	1.178	1.068
510.0	74.54	115.6	199.1	255.2	217.0	266.6	1161	1989	458.3	226.1	214.9	204.1	181.3	157.4	135.9	119.0	107.8	102.4	93.74	89.14	85.87	84.30	84.08	83.97	82.81	82.67	81.69	82.46	82.42	82.34	78.36	73.09	66.73	59.58	53.99	47.57	42.46	37.22	33.32	29.34	26.60	24.70	26.10	24.92	18.66	13.88	11.33	9.725	8.474	7.210	6.315	5.393	4.674	4.874	6.573	22.95	115.6	403.1	650.2	321.7	13.64	1.713	1.383	1.434	1.349	1.246	1.198	1.180	1.171	1.072	0.943	0.998	0.936	0.882	0.945	0.947	0.898
515.0	56.46	94.57	140.7	235.4	219.0	194.8	421.9	1873	1353	221.1	190.3	177.3	156.9	133.6	117.9	104.4	93.57	86.06	81.65	76.82	75.21	73.47	72.19	71.09	71.87	70.38	69.42	70.70	70.50	70.83	69.20	63.00	56.66	51.84	47.19	41.78	37.67	33.31	30.38	26.66	23.38	21.68	20.11	21.87	21.23	15.18	11.54	9.323	8.209	6.948	5.786	5.485	4.610	3.906	3.991	7.512	27.89	91.97	203.9	632.5	236.6	19.17	1.622	1.359	1.285	1.195	1.100	1.001	0.941	0.961	0.785	0.961	0.859	0.849	0.788	0.875	0.831
520.0	62.79	84.53	118.1	196.3	237.6	168.5	223.3	1052	2207	283.4	170.6	159.2	143.6	122.1	105.1	91.19	83.58	78.28	72.82	69.25	67.05	64.76	65.16	62.39	62.31	62.39	62.35	61.69	63.44	62.36	60.52	56.26	51.93	46.03	42.00	37.49	34.27	30.15	26.83	23.72	21.54	19.96	18.18	17.95	20.63	17.58	11.81	9.209	7.605	6.786	5.649	5.654	4.889	3.797	3.360	3.796	8.370	22.53	47.83	243.5	650.5	222.1	12.82	1.336	1.167	1.071	0.989	0.973	0.933	0.966	0.839	0.882	0.792	0.814	0.724	0.828	0.783
525.0	56.07	69.43	107.5	162.0	237.4	167.2	163.0	439.3	2340	903.1	162.0	143.3	125.3	112.5	94.09	80.31	74.48	69.25	66.71	62.63	60.46	57.42	57.33	56.01	56.88	55.54	56.07	57.05	55.94	55.20	53.95	50.16	46.34	42.13	38.00	35.00	30.73	27.63	25.00	22.27	19.84	18.25	16.59	15.27	17.08	17.89	13.00	9.002	7.363	6.484	5.687	5.100	4.995	3.849	3.361	3.102	4.038	7.055	12.37	58.17	307.1	640.5	181.8	5.549	1.194	1.045	0.951	0.952	0.822	0.871	0.884	0.838	0.731	0.721	0.693	0.761	0.680
530.0	45.92	64.02	92.53	117.5	189.6	185.6	140.9	208.0	1208	2048	358.0	127.6	111.5	97.77	82.39	71.58	65.68	60.80	56.17	54.66	51.19	50.55	48.89	49.35	49.18	47.48	48.56	47.94	48.47	47.80	46.39	43.69	40.55	36.68	33.33	30.23	27.06	24.88	22.71	19.55	17.74	16.02	14.67	13.51	13.00	14.56	14.46	10.20	7.458	6.299	5.258	4.623	4.296	4.170	3.583	3.143	3.076	3.460	4.508	14.57	72.87	260.7	463.5	247.9	14.48	1.212	0.923	0.927	0.800	0.806	0.761	0.771	0.654	0.709	0.656	0.666	0.695
535.0	44.05	59.21	82.52	96.12	131.6	201.4	132.2	136.3	380.1	1930	1296	127.6	98.95	85.57	71.92	61.73	56.19	50.38	48.12	45.46	43.35	43.21	41.13	41.31	41.71	41.08	40.49	40.17	41.40	40.90	39.24	37.54	34.14	31.32	28.19	26.70	23.74	21.43	19.47	17.63	15.19	14.29	12.86	12.01	10.79	10.84	12.47	11.70	7.788	5.730	4.613	4.484	3.776	3.943	3.560	3.062	2.673	2.612	2.633	4.663	17.67	59.49	133.0	413.7	241.9	20.33	1.143	0.844	0.763	0.711	0.659	0.656	0.616	0.655	0.617	0.635	0.578
540.0	39.02	53.48	72.52	81.46	98.96	177.0	145.5	110.8	168.8	983.7	2243	195.5	87.43	73.12	64.39	55.62	48.77	44.96	42.40	40.41	38.67	37.50	35.42	36.49	35.65	35.34	34.87	35.07	35.51	35.67	34.75	32.06	29.50	26.85	24.89	23.14	21.07	19.26	17.16	16.13	14.01	12.92	11.74	10.85	9.426	9.105	9.729	11.24	9.086	6.064	4.497	4.135	3.626	3.376	3.060	3.197	2.792	2.113	2.151	2.430	5.212	14.57	31.13	144.4	456.5	220.0	13.34	0.895	0.834	0.640	0.619	0.606	0.596	0.548	0.533	0.589	0.508
545.0	33.48	49.92	67.39	77.45	81.89	137.2	160.0	99.78	110.0	362.1	2323	707.4	79.94	66.14	56.51	49.34	43.70	41.02	36.61	35.51	34.67	33.46	31.37	32.10	31.34	30.30	30.94	30.89	31.20	31.63	30.21	28.28	25.60	23.73	22.14	20.31	18.57	16.94	15.16	14.22	12.68	11.65	10.48	9.632	8.453	8.065	7.782	9.119	9.618	6.371	4.389	3.941	3.304	2.994	2.990	2.857	2.906	2.208	1.886	1.901	2.475	4.530	8.061	34.13	191.4	450.4	170.9	5.676	0.837	0.623	0.625	0.633	0.547	0.565	0.600	0.477	0.489
550.0	37.87	51.27	57.76	65.60	68.23	93.68	154.6	103.1	89.32	145.2	1104	1789	138.2	56.38	47.59	41.95	37.20	34.45	31.13	29.88	29.11	27.48	26.02	26.39	25.91	25.32	25.06	25.45	25.71	26.81	25.11	23.55	21.66	19.86	18.54	17.03	15.52	14.31	12.95	11.89	10.65	9.709	9.185	8.089	7.457	6.994	6.364	6.693	7.790	7.061	4.942	3.563	3.011	2.780	2.532	2.495	2.660	2.602	1.809	1.776	1.722	2.018	2.777	8.605	44.91	169.6	316.8	139.6	14.13	0.966	0.665	0.569	0.495	0.540	0.518	0.435	0.430
555.0	43.42	45.46	59.98	60.00	58.34	64.06	115.6	128.3	74.21	82.66	314.9	1771	868.4	52.02	38.44	35.02	29.98	28.84	25.62	24.83	22.55	21.55	21.65	21.32	21.29	21.07	20.25	20.55	20.55	20.81	20.06	19.39	17.61	16.72	14.89	14.04	12.80	11.79	10.43	9.875	9.143	8.306	7.403	6.713	5.902	5.916	5.334	5.062	5.310	6.563	5.590	3.509	2.821	2.433	2.228	2.180	2.058	2.212	1.889	1.514	1.318	1.354	1.570	2.782	10.90	38.46	87.23	255.6	228.0	19.26	0.729	0.487	0.557	0.428	0.439	0.401	0.458
560.0	44.87	45.14	64.72	56.70	49.85	51.59	80.00	139.1	72.95	61.98	117.6	883.3	1716	105.5	33.52	29.01	25.96	24.05	21.34	20.79	19.04	18.68	18.08	18.16	17.45	17.48	17.26	17.48	16.98	17.13	16.87	16.03	14.58	13.42	12.88	11.52	10.76	9.662	9.401	8.231	7.883	7.084	6.157	5.700	5.214	5.324	4.656	4.452	4.097	4.896	5.229	3.994	2.745	2.092	1.904	1.711	1.753	1.799	1.948	1.786	1.300	1.182	1.172	1.531	3.250	9.281	20.35	86.73	289.8	185.9	11.12	0.609	0.490	0.444	0.350	0.466	0.452
565.0	38.36	50.38	54.79	50.17	44.58	43.29	56.81	127.1	85.04	54.76	68.29	302.7	1945	416.4	31.02	25.98	21.90	19.24	18.97	17.99	16.26	15.96	15.79	15.18	15.14	15.03	14.83	14.10	14.80	14.86	14.41	13.68	12.88	11.80	10.63	9.554	9.598	8.291	7.914	7.205	6.749	6.079	5.495	4.998	4.727	4.433	3.959	3.864	3.375	3.632	4.436	4.046	3.045	2.017	1.820	1.806	1.579	1.652	1.518	1.833	1.286	1.034	1.029	1.063	1.540	2.825	5.210	20.54	112.3	281.1	122.3	4.631	0.449	0.484	0.461	0.390	0.420
570.0	40.15	51.99	47.98	44.47	38.21	37.00	44.41	83.97	108.1	53.31	51.75	104.7	964.0	1287	75.17	21.05	18.37	16.08	15.46	13.98	13.35	12.97	12.69	12.15	12.09	11.91	11.88	11.89	12.07	11.88	11.18	10.91	9.990	9.436	8.461	7.720	7.385	6.926	6.312	5.828	5.510	4.893	4.629	4.377	4.024	3.862	3.405	3.199	2.726	2.729	2.964	3.497	3.122	2.194	1.656	1.451	1.418	1.363	1.325	1.390	1.569	1.254	0.982	0.944	1.014	1.369	1.808	5.278	26.32	98.85	187.4	113.2	13.16	0.649	0.450	0.359	0.410
575.0	35.29	47.98	48.97	42.77	34.04	32.21	34.68	47.88	109.7	68.69	43.50	54.72	262.1	1379	544.3	19.02	15.11	13.25	12.11	10.87	11.11	10.21	10.22	9.514	9.794	9.413	9.665	9.670	9.212	9.391	8.852	8.400	8.054	7.440	6.931	6.401	5.780	5.593	4.948	5.024	4.415	4.218	3.664	3.539	3.427	2.960	2.777	2.611	2.302	2.237	1.974	2.370	2.919	2.443	1.676	1.286	1.276	1.220	1.128	1.123	1.194	1.424	1.071	0.932	0.831	0.900	1.003	1.880	6.524	22.62	49.37	143.6	155.9	17.49	0.608	0.476	0.385
580.0	36.28	45.45	51.34	41.78	30.97	28.75	29.77	37.08	88.79	95.06	44.21	43.90	86.55	720.6	1035	44.86	12.79	12.13	10.80	9.137	9.000	8.982	8.591	8.411	8.292	8.298	7.724	8.396	7.673	8.056	7.653	7.376	6.432	6.349	5.778	5.390	4.857	4.871	4.534	4.120	3.803	3.612	3.202	2.977	3.090	2.570	2.566	2.236	2.101	1.997	1.609	1.720	2.360	2.324	1.776	1.245	1.112	1.054	1.076	0.970	0.940	1.192	1.343	0.962	0.858	0.768	0.874	1.139	2.023	5.680	11.72	45.53	167.8	119.7	9.007	0.434	0.378
585.0	36.85	42.89	52.82	38.88	28.25	25.83	28.02	32.16	60.71	107.3	49.84	42.25	46.98	241.0	1349	109.6	11.59	10.23	9.496	8.160	7.996	7.385	7.600	7.429	7.108	6.708	6.764	6.846	6.501	7.078	6.463	6.372	5.869	5.393	5.032	4.576	4.218	4.260	3.899	3.398	2.999	2.951	2.880	2.608	2.673	2.275	2.222	1.973	1.901	1.697	1.470	1.502	1.768	2.045	1.902	1.438	1.157	0.894	0.910	0.813	0.860	0.942	1.322	1.083	0.752	0.715	0.622	0.914	1.051	1.815	3.155	10.86	60.17	163.5	35.06	3.855	0.443
590.0	33.80	43.58	47.06	36.43	27.22	23.84	24.94	27.97	40.68	90.26	71.26	40.13	37.28	75.86	695.8	765.7	35.58	8.427	8.101	7.045	6.534	6.052	6.147	6.022	5.876	5.744	5.607	5.346	5.348	5.427	5.445	4.962	4.794	4.506	4.204	3.871	3.604	3.423	3.165	2.727	2.619	2.428	2.252	2.115	1.964	1.984	1.788	1.662	1.629	1.459	1.262	1.223	1.187	1.431	1.879	1.660	1.194	0.863	0.784	0.737	0.799	0.867	0.909	1.015	0.971	0.723	0.617	0.843	0.687	1.004	1.204	2.908	14.05	54.35	98.59	74.99	12.27
595.0	33.99	40.03	40.81	37.50	25.61	22.58	23.42	26.53	31.88	57.72	91.36	43.19	35.17	36.40	185.5	907.3	267.5	7.933	7.021	5.937	5.453	5.198	4.820	4.669	4.877	4.496	4.469	4.409	4.167	4.120	4.395	3.996	3.854	3.749	3.386	2.894	3.033	2.665	2.384	2.411	2.154	2.125	1.837	1.968	1.577	1.647	1.603	1.421	1.246	1.180	1.030	1.026	0.935	0.995	1.365	1.583	1.327	1.013	0.652	0.681	0.751	0.646	0.684	0.786	1.018	0.940	0.577	0.604	0.567	0.740	0.760	1.040	3.523	12.51	25.52	80.23	98.98
600.0	29.51	40.39	39.61	30.85	24.07	21.61	21.92	26.73	28.06	40.08	89.62	53.41	34.47	26.04	55.72	517.8	650.2	17.57	6.254	5.066	4.765	4.108	4.137	4.062	3.812	3.661	3.759	3.673	3.762	3.744	3.574	3.294	3.229	2.966	2.692	2.587	2.392	2.424	2.095	2.078	1.843	1.715	1.530	1.609	1.496	1.350	1.342	1.375	1.173	1.006	0.861	0.861	0.755	0.744	0.960	1.356	1.416	1.017	0.702	0.591	0.631	0.661	0.557	0.709	0.776	0.985	0.808	0.540	0.512	0.559	0.612	0.612	1.226	3.096	6.117	23.91	95.75
605.0	28.61	34.60	38.76	29.48	22.81	19.87	22.09	25.48	27.31	34.89	75.49	67.77	34.23	25.72	26.30	176.2	839.4	71.43	5.243	4.564	4.316	3.657	3.592	3.469	3.157	3.107	3.055	3.219	3.473	3.260	2.978	3.087	2.893	2.549	2.456	2.287	2.164	2.000	1.759	1.754	1.726	1.501	1.358	1.396	1.378	1.294	1.069	1.106	1.070	0.960	0.821	0.694	0.782	0.709	0.710	0.946	1.275	1.049	0.710	0.519	0.540	0.705	0.563	0.569	0.625	0.788	0.867	0.620	0.462	0.579	0.510	0.424	0.648	0.983	1.714	5.656	32.41
610.0	34.26	33.72	36.92	28.16	21.80	20.51	20.86	24.26	27.14	32.61	52.89	80.45	40.99	25.82	19.98	50.92	491.3	436.5	15.01	3.795	3.788	3.439	2.997	3.043	2.640	2.574	2.613	2.635	2.694	2.779	2.546	2.410	2.343	2.236	2.037	1.899	1.781	1.674	1.416	1.440	1.428	1.294	1.183	1.154	1.053	1.006	0.878	0.925	0.918	0.740	0.697	0.604	0.677	0.624	0.601	0.655	0.983	1.050	0.789	0.608	0.533	0.576	0.558	0.494	0.547	0.570	0.762	0.716	0.616	0.540	0.500	0.440	0.493	0.524	0.634	1.496	7.598
615.0	33.38	38.36	34.90	29.37	21.61	18.69	19.90	22.82	26.51	31.86	39.84	69.94	56.06	26.14	18.65	19.62	136.0	603.5	74.39	3.679	3.242	3.019	2.621	2.418	2.200	2.164	2.351	2.224	2.194	2.223	2.147	1.820	1.845	1.738	1.654	1.583	1.423	1.365	1.232	1.162	1.052	1.067	0.938	0.978	0.908	0.889	0.780	0.790	0.746	0.600	0.572	0.575	0.535	0.572	0.479	0.478	0.634	0.735	0.792	0.705	0.513	0.424	0.508	0.474	0.559	0.492	0.547	0.719	0.706	0.528	0.455	0.388	0.383	0.369	0.443	0.580	1.952
620.0	29.16	31.59	38.23	25.69	21.13	17.70	18.43	19.98	26.34	30.91	35.16	53.40	67.25	29.53	18.62	13.39	38.17	396.2	353.9	6.638	2.745	2.696	2.109	2.033	2.012	1.991	1.935	2.028	1.910	2.108	1.981	1.712	1.622	1.587	1.409	1.357	1.318	1.204	1.037	1.087	0.875	0.990	0.935	0.876	0.775	0.789	0.717	0.697	0.712	0.542	0.547	0.516	0.489	0.539	0.419	0.443	0.504	0.688	0.716	0.774	0.507	0.426	0.452	0.407	0.449	0.447	0.529	0.584	0.776	0.554	0.496	0.390	0.414	0.359	0.366	0.388	0.656
625.0	22.96	25.76	31.95	24.20	19.06	15.31	17.51	20.37	24.17	29.65	34.24	43.26	71.23	33.31	17.70	11.69	14.60	149.2	543.2	38.13	2.497	2.050	2.146	1.923	1.633	1.687	1.755	1.896	1.521	1.635	1.534	1.526	1.482	1.550	1.251	1.198	1.072	1.171	0.939	0.951	0.824	0.845	0.793	0.786	0.720	0.664	0.647	0.585	0.568	0.474	0.463	0.499	0.467	0.491	0.421	0.366	0.436	0.559	0.617	0.750	0.521	0.438	0.417	0.438	0.393	0.407	0.496	0.449	0.623	0.628	0.499	0.473	0.348	0.366	0.333	0.374	0.412
630.0	22.37	28.07	28.03	24.66	17.83	16.10	18.71	20.12	23.24	28.20	32.23	36.85	55.64	44.26	18.63	11.23	9.524	40.40	365.7	263.5	6.318	1.829	1.644	1.756	1.601	1.400	1.442	1.560	1.312	1.362	1.334	1.175	1.151	1.144	1.147	1.080	0.971	0.860	0.843	0.780	0.719	0.698	0.641	0.591	0.579	0.644	0.558	0.509	0.487	0.395	0.374	0.426	0.388	0.401	0.404	0.334	0.358	0.462	0.521	0.592	0.603	0.477	0.409	0.381	0.380	0.403	0.376	0.431	0.475	0.560	0.581	0.504	0.367	0.355	0.312	0.343	0.300
635.0	20.45	26.91	26.10	24.07	15.63	17.10	17.02	19.98	22.53	25.73	30.56	34.28	40.92	51.30	22.13	12.31	9.249	13.94	104.5	436.8	51.43	2.172	1.694	1.548	1.232	1.057	1.244	1.183	1.062	1.203	1.046	1.062	1.102	1.031	1.013	0.893	0.844	0.769	0.751	0.706	0.642	0.637	0.502	0.523	0.460	0.511	0.519	0.429	0.430	0.382	0.370	0.370	0.343	0.417	0.321	0.347	0.350	0.367	0.366	0.414	0.500	0.530	0.541	0.311	0.362	0.398	0.386	0.347	0.439	0.483	0.521	0.490	0.443	0.348	0.350	0.293	0.315
640.0	22.36	25.85	25.55	22.41	15.87	17.36	17.54	19.85	22.34	26.53	29.83	32.78	34.41	48.92	28.88	13.13	9.237	8.121	28.36	325.9	218.8	3.048	1.571	1.263	1.141	1.152	1.143	1.119	0.908	1.072	1.046	0.835	0.910	0.812	0.884	0.924	0.786	0.649	0.674	0.674	0.616	0.602	0.521	0.472	0.452	0.452	0.438	0.450	0.446	0.369	0.360	0.352	0.314	0.310	0.307	0.327	0.385	0.322	0.362	0.350	0.458	0.497	0.470	0.377	0.341	0.412	0.391	0.395	0.401	0.401	0.429	0.450	0.563	0.358	0.327	0.270	0.304
645.0	24.97	28.85	28.86	24.50	17.93	15.92	16.79	18.50	22.09	25.46	29.84	31.35	33.77	39.32	38.10	14.22	10.00	7.155	10.41	137.2	372.3	18.74	1.437	1.291	1.146	1.138	1.024	0.877	0.962	0.914	0.908	0.816	1.002	0.771	0.692	0.711	0.799	0.674	0.557	0.609	0.527	0.503	0.388	0.476	0.429	0.409	0.381	0.424	0.370	0.342	0.314	0.341	0.333	0.294	0.296	0.309	0.299	0.330	0.342	0.283	0.375	0.492	0.455	0.509	0.368	0.448	0.360	0.401	0.386	0.410	0.387	0.355	0.484	0.481	0.305	0.233	0.276
650.0	22.01	29.74	29.13	25.46	17.21	14.61	16.46	18.31	20.93	24.88	29.88	31.18	32.29	33.33	41.13	17.15	10.26	7.529	6.591	39.24	360.6	63.58	1.378	1.286	1.066	1.054	0.939	0.875	0.872	0.905	0.881	0.807	0.829	0.795	0.725	0.669	0.793	0.671	0.566	0.549	0.547	0.444	0.424	0.405	0.410	0.428	0.413	0.396	0.323	0.332	0.266	0.299	0.289	0.247	0.307	0.281	0.302	0.305	0.308	0.311	0.336	0.394	0.443	0.441	0.327	0.372	0.334	0.395	0.406	0.313	0.372	0.357	0.380	0.529	0.303	0.344	0.295
