Sample:	'1
File name:	W2025090905-狮子口社区桥.FD3
Run date:	'10:18:12, 09/11/2025
Operator:	Administrator
Comment:	'

Instrument
Model:	F-2700 FL Spectrophotometer
Serial number:	23C7-004
ROM Version:	4J14000 07

Instrument parameters
Measurement type:	3-D scan
Data mode:	Fluorescence
EX  Start WL:	220.0 nm
EX  End WL:	600.0 nm
EX Sampling interval:	5.0 nm
EM  Start WL:	230.0 nm
EM  End WL:	650.0 nm
EM Sampling interval:	5.0 nm
Scan speed:	12000 nm/min
EX Slit:	5.0 nm
EM Slit:	5.0 nm
PMT Voltage:	700 V
Response:	Auto 
Corrected spectra:	Off
Contour interval:	50.000

Peak integration
Integration method:	Rectangular
Sensitivity:	1
Threshold:	1.000

Peaks
No.	ApexEX/EM(nm)	Height(Data)
1	245.0/400.0	2936
2	250.0/410.0	2936
3	255.0/285.0	354.5
4	270.0/300.0	931.2
5	275.0/310.0	1077
6	275.0/610.0	98.00
7	280.0/315.0	1110
8	280.0/625.0	77.43
9	285.0/320.0	1142
10	285.0/635.0	59.15
11	305.0/405.0	2493
12	525.0/415.0	11.42
13	530.0/435.0	11.52
14	550.0/305.0	5.178
15	560.0/310.0	5.467

Data points
	220.0	225.0	230.0	235.0	240.0	245.0	250.0	255.0	260.0	265.0	270.0	275.0	280.0	285.0	290.0	295.0	300.0	305.0	310.0	315.0	320.0	325.0	330.0	335.0	340.0	345.0	350.0	355.0	360.0	365.0	370.0	375.0	380.0	385.0	390.0	395.0	400.0	405.0	410.0	415.0	420.0	425.0	430.0	435.0	440.0	445.0	450.0	455.0	460.0	465.0	470.0	475.0	480.0	485.0	490.0	495.0	500.0	505.0	510.0	515.0	520.0	525.0	530.0	535.0	540.0	545.0	550.0	555.0	560.0	565.0	570.0	575.0	580.0	585.0	590.0	595.0	600.0
230.0	138.4	2122	2506	322.9	9.360	5.374	4.590	4.031	3.930	4.186	3.459	3.907	3.303	3.229	2.983	2.682	2.546	2.474	2.187	2.082	1.951	1.853	1.752	1.586	1.511	1.493	1.241	1.146	1.178	1.128	0.988	0.937	0.815	0.739	0.604	0.531	0.551	0.408	0.398	0.365	0.382	0.489	0.428	0.317	0.272	0.423	2.652	8.275	10.06	4.939	1.188	0.308	0.222	0.197	0.217	0.171	0.191	0.209	0.197	0.178	0.165	0.174	0.155	0.154	0.145	0.165	0.138	0.147	0.189	0.140	0.122	0.137	0.136	0.147	0.126	0.160	0.138
235.0	76.60	614.5	2437	2655	372.1	10.37	5.145	4.671	4.823	4.109	3.831	3.903	3.355	3.165	3.142	2.628	2.563	2.422	2.278	1.941	2.031	1.901	1.863	1.652	1.588	1.564	1.320	1.221	1.113	1.205	0.854	0.967	0.803	0.738	0.726	0.593	0.537	0.496	0.409	0.363	0.348	0.375	0.463	0.482	0.341	0.375	0.808	2.335	4.955	8.479	10.22	8.312	2.601	0.410	0.176	0.201	0.192	0.231	0.184	0.128	0.148	0.198	0.188	0.140	0.167	0.186	0.138	0.141	0.144	0.184	0.162	0.151	0.147	0.188	0.216	0.177	0.105
240.0	100.4	170.6	846.0	3297	2788	293.5	7.978	5.365	4.921	5.522	4.124	4.766	4.068	3.448	3.513	2.829	2.623	2.836	2.123	2.129	2.161	2.126	1.778	1.508	1.628	1.560	1.376	1.315	1.227	1.080	0.954	0.938	0.778	0.776	0.721	0.533	0.630	0.476	0.420	0.383	0.348	0.338	0.382	0.459	0.453	0.437	0.449	0.744	1.368	2.923	7.311	15.72	15.15	7.943	1.772	0.279	0.237	0.253	0.188	0.162	0.197	0.166	0.184	0.145	0.166	0.198	0.176	0.144	0.134	0.208	0.132	0.160	0.147	0.120	0.248	0.139	0.113
245.0	95.13	117.2	214.3	1395	4228	2687	202.7	7.778	6.013	5.582	4.955	4.629	5.154	3.615	3.462	3.051	2.599	2.685	2.552	2.416	2.386	2.206	1.841	1.904	1.906	1.638	1.348	1.341	1.334	1.147	0.943	0.894	0.845	0.698	0.637	0.533	0.535	0.426	0.477	0.440	0.347	0.420	0.423	0.370	0.437	0.494	0.602	0.518	0.513	0.836	1.961	6.712	14.89	21.66	16.51	6.520	1.047	0.227	0.256	0.232	0.204	0.202	0.166	0.154	0.146	0.189	0.201	0.175	0.159	0.240	0.163	0.153	0.131	0.150	0.149	0.145	0.149
250.0	41.81	104.0	143.1	355.2	1609	4032	4114	914.9	40.11	7.415	6.548	5.839	5.674	4.363	3.984	3.480	2.967	2.893	2.844	2.440	2.311	2.310	1.998	1.962	1.755	1.538	1.324	1.392	1.314	1.117	1.029	0.927	0.899	0.836	0.601	0.624	0.591	0.500	0.496	0.475	0.390	0.372	0.340	0.329	0.362	0.350	0.465	0.529	0.605	0.574	0.689	1.720	3.948	8.365	14.44	20.14	23.57	14.53	7.189	1.495	0.268	0.214	0.191	0.184	0.174	0.166	0.173	0.170	0.178	0.190	0.160	0.167	0.131	0.109	0.152	0.167	0.168
255.0	24.25	42.24	120.2	195.3	387.3	1084	4733	7181	1336	30.62	8.455	7.690	6.129	5.224	4.134	4.098	3.545	2.848	3.118	2.346	2.180	2.414	2.190	2.285	1.849	1.662	1.557	1.360	1.366	1.244	1.159	0.980	0.890	0.761	0.724	0.621	0.561	0.452	0.474	0.482	0.360	0.345	0.329	0.432	0.300	0.301	0.358	0.311	0.412	0.575	0.651	0.837	1.143	2.161	3.449	5.294	12.57	29.23	44.14	24.00	10.29	1.294	0.256	0.246	0.202	0.174	0.200	0.156	0.202	0.187	0.195	0.165	0.187	0.126	0.238	0.150	0.166
260.0	19.42	23.85	52.87	173.6	184.2	266.3	1532	7736	7857	229.4	18.24	10.69	8.743	6.585	5.041	4.634	4.114	3.154	3.184	2.625	2.420	2.609	2.115	1.974	1.941	1.778	1.608	1.383	1.320	1.306	1.176	1.072	0.933	0.738	0.746	0.603	0.596	0.556	0.456	0.441	0.430	0.448	0.327	0.418	0.325	0.362	0.334	0.264	0.281	0.332	0.546	0.875	0.819	0.816	0.986	1.413	3.168	8.778	25.60	47.59	55.32	21.36	6.000	0.520	0.290	0.183	0.206	0.168	0.186	0.264	0.190	0.155	0.178	0.180	0.218	0.097	0.141
265.0	19.80	19.10	25.97	90.70	198.5	129.5	370.7	2909	9999.9	7546	179.6	14.77	10.52	7.484	6.070	4.910	4.390	3.536	3.617	2.883	2.583	2.305	2.197	2.173	1.890	1.927	1.787	1.461	1.272	1.142	1.218	0.984	0.901	0.710	0.723	0.797	0.644	0.543	0.504	0.455	0.410	0.461	0.325	0.405	0.385	0.317	0.306	0.302	0.284	0.251	0.308	0.632	0.968	0.952	0.676	0.614	0.953	2.278	6.362	17.31	43.98	68.10	28.92	17.09	2.529	0.295	0.244	0.246	0.262	0.247	0.236	0.164	0.130	0.201	0.282	0.217	0.121
270.0	38.69	25.29	21.31	34.84	112.4	199.9	176.0	693.5	3535	9999.9	9999.9	754.2	47.49	12.01	8.170	6.251	5.349	4.257	3.998	3.278	3.082	2.629	2.471	2.479	2.034	1.842	1.994	1.543	1.436	1.395	1.315	1.111	0.965	0.923	0.786	0.748	0.681	0.586	0.597	0.500	0.495	0.495	0.437	0.418	0.415	0.379	0.301	0.339	0.278	0.273	0.253	0.354	0.496	0.756	1.052	1.102	0.850	0.885	1.652	4.136	10.91	24.29	37.94	61.85	55.28	47.08	11.10	2.818	0.345	0.242	0.258	0.240	0.198	0.204	0.267	0.240	0.231
275.0	93.84	66.42	45.31	29.73	43.81	118.4	277.8	260.0	834.4	2550	9999.9	9999.9	1109	48.94	14.13	8.860	7.004	5.515	4.902	4.050	3.316	2.953	2.904	2.623	2.427	1.845	1.889	1.862	1.635	1.719	1.411	1.217	1.302	0.907	0.836	0.879	0.770	0.699	0.666	0.553	0.517	0.546	0.592	0.515	0.536	0.423	0.420	0.291	0.336	0.302	0.311	0.320	0.379	0.343	0.526	0.850	1.398	1.580	1.144	1.291	2.733	5.700	8.892	15.27	27.66	72.47	110.9	29.78	16.20	2.136	0.319	0.317	0.266	0.250	0.334	0.256	0.245
280.0	170.3	138.8	76.28	42.75	32.70	57.33	216.0	325.8	280.9	651.1	2973	9999.9	9947	807.8	25.87	12.09	8.908	7.247	5.541	4.483	3.951	3.111	3.023	2.732	2.626	2.007	2.198	1.957	1.687	1.669	1.263	1.399	1.147	1.145	1.067	0.909	0.915	0.878	0.765	0.678	0.762	0.717	0.865	0.712	0.705	0.673	0.589	0.527	0.499	0.349	0.328	0.330	0.342	0.247	0.389	0.407	0.848	1.422	1.943	1.416	1.211	1.674	2.422	3.974	6.937	19.93	56.75	104.3	125.5	27.51	9.571	0.784	0.368	0.265	0.328	0.274	0.255
285.0	289.2	219.6	128.0	65.46	38.86	43.64	110.6	354.5	293.3	271.2	809.0	4008	9999.9	8184	111.5	18.73	12.02	8.552	6.480	5.036	4.372	3.826	3.358	3.030	2.468	2.172	2.148	2.152	1.687	1.612	1.488	1.381	1.346	1.224	1.241	1.125	1.228	1.130	1.168	0.882	0.944	0.798	0.952	0.919	0.922	0.883	0.738	0.712	0.735	0.434	0.437	0.402	0.377	0.354	0.404	0.454	0.467	0.717	1.281	2.235	2.095	1.358	1.114	1.610	2.130	5.196	13.99	33.76	89.85	139.7	120.6	22.39	3.670	0.536	0.428	0.345	0.329
290.0	438.1	355.5	229.9	119.0	74.14	68.34	100.2	218.7	421.4	420.8	433.6	1153	4193	9999.9	9999.9	2252	37.71	13.15	9.089	7.030	5.282	4.431	3.907	3.615	2.869	2.604	2.564	2.166	1.874	1.819	1.575	1.428	1.301	1.212	1.332	1.326	1.416	1.402	1.379	1.096	1.146	1.098	1.133	1.126	1.231	1.092	1.018	1.013	0.927	0.746	0.573	0.554	0.575	0.487	0.474	0.512	0.530	0.646	0.870	1.294	1.927	2.429	2.420	1.880	1.710	2.290	4.345	8.708	22.19	45.03	81.56	108.5	87.20	84.37	14.02	5.111	0.674
295.0	543.7	494.4	343.7	191.7	124.0	118.2	149.3	210.2	323.8	639.8	674.1	658.3	1275	2666	9999.9	9999.9	654.6	41.59	14.46	9.683	7.577	5.997	5.052	4.127	3.549	3.068	2.869	2.703	2.067	1.932	1.806	1.681	1.331	1.277	1.527	1.684	1.737	1.567	1.448	1.358	1.246	1.146	1.197	1.323	1.505	1.375	1.170	1.360	1.167	1.047	0.742	0.832	0.741	0.667	0.653	0.703	0.664	0.800	1.030	1.154	1.478	1.790	2.467	3.601	3.294	2.701	2.815	3.793	6.734	11.67	19.62	26.45	37.93	108.5	170.9	134.2	22.57
300.0	588.7	545.4	402.3	240.5	165.1	161.3	192.1	241.9	325.7	548.8	931.2	739.9	730.4	915.0	2913	9999.9	9999.9	535.4	27.23	13.23	9.392	6.961	5.812	4.208	4.277	3.638	3.163	2.662	2.452	2.400	1.795	1.749	1.489	1.501	1.484	1.649	1.797	1.699	1.576	1.403	1.214	1.273	1.223	1.473	1.534	1.513	1.422	1.440	1.292	1.070	0.867	0.947	0.902	0.777	0.771	0.872	0.939	0.950	1.011	1.311	1.431	1.649	2.076	2.988	4.211	4.504	3.503	3.136	3.618	4.729	6.208	7.573	10.04	28.22	74.26	162.7	190.2
305.0	647.0	607.3	459.6	291.2	200.9	198.2	242.0	291.8	366.2	511.5	874.0	1067	745.2	610.0	905.1	3663	9999.9	9999.9	391.4	19.00	12.66	8.475	6.480	5.192	4.542	3.886	3.303	2.917	2.687	2.414	1.856	1.958	1.525	1.498	1.591	1.608	1.795	1.629	1.573	1.434	1.548	1.338	1.383	1.336	1.531	1.639	1.546	1.678	1.467	1.246	1.050	0.968	0.985	0.819	0.939	1.041	1.076	1.200	1.226	1.351	1.712	1.785	2.162	2.568	3.342	4.319	5.178	4.402	3.549	3.538	3.584	3.668	3.986	7.709	18.01	46.62	114.7
310.0	644.3	625.2	500.6	333.3	252.3	244.8	286.6	348.6	431.1	560.6	778.3	1077	1069	704.4	547.1	1004	3744	9999.9	9999.9	1805	31.45	12.53	9.201	6.932	5.316	4.557	3.792	3.361	3.110	2.554	2.217	2.006	1.682	1.665	1.726	1.577	1.835	1.767	1.599	1.638	1.552	1.420	1.370	1.461	1.496	1.717	1.679	1.783	1.541	1.357	1.149	1.206	1.180	1.057	1.129	1.232	1.250	1.473	1.603	1.673	1.932	2.012	2.371	2.691	3.063	3.617	4.281	4.988	5.467	4.825	3.983	3.376	3.233	3.386	5.370	11.54	27.25
315.0	652.7	645.6	549.4	380.8	291.9	288.0	335.4	401.4	490.4	621.8	794.0	957.2	1110	1044	597.5	481.1	989.5	2435	9999.9	9999.9	2844	35.86	13.51	9.297	6.869	5.632	4.523	4.066	3.362	2.701	2.382	2.263	1.837	1.711	1.841	1.678	1.703	1.673	1.685	1.477	1.600	1.492	1.468	1.597	1.492	1.744	1.657	1.958	1.679	1.336	1.310	1.363	1.331	1.256	1.311	1.301	1.447	1.693	1.641	1.947	2.062	2.256	2.640	2.765	3.176	3.665	3.858	4.318	4.854	5.507	5.741	4.957	3.678	2.866	2.835	4.061	7.495
320.0	709.7	747.2	623.7	444.1	335.4	328.9	366.6	445.0	525.2	670.3	845.1	963.6	1046	1142	830.7	445.9	428.8	679.0	2635	9999.9	9999.9	420.9	25.84	12.38	9.065	6.483	5.388	4.174	4.037	3.179	2.775	2.165	2.104	2.070	1.720	1.774	1.820	1.649	1.697	1.511	1.474	1.635	1.556	1.630	1.560	2.093	1.861	2.186	1.973	1.490	1.387	1.583	1.308	1.443	1.403	1.508	1.616	1.846	2.006	2.021	2.296	2.564	2.850	3.126	3.338	3.832	3.952	4.318	4.431	4.850	5.624	5.995	5.358	3.669	2.682	2.956	3.320
325.0	799.2	866.7	791.2	538.9	390.4	365.4	406.3	490.8	584.0	730.1	893.7	1049	1076	1085	1052	600.0	381.8	341.1	719.2	3185	9999.9	9999.9	344.5	18.53	11.16	7.959	6.074	4.968	4.124	3.861	2.985	2.675	2.176	2.043	1.786	1.753	1.732	1.772	1.695	1.545	1.717	1.441	1.634	1.694	1.710	2.236	2.143	2.487	2.241	2.118	1.794	1.840	1.567	1.608	1.445	1.609	1.910	1.867	2.076	2.365	2.341	2.647	3.233	3.342	3.649	3.925	4.388	4.690	4.727	4.814	5.219	5.115	5.792	5.607	3.959	2.963	2.814
330.0	892.0	1018	1014	732.3	537.2	462.5	480.2	559.0	664.3	817.0	995.1	1135	1184	1131	1064	893.0	587.1	386.1	379.3	866.3	3282	9999.9	9999.9	1531	28.20	11.93	8.503	6.059	5.005	4.273	3.472	2.954	2.504	2.265	2.052	1.854	1.928	1.936	1.728	1.699	1.703	1.602	1.774	1.865	2.059	2.259	2.415	2.735	2.776	2.595	2.393	2.375	2.121	1.914	1.855	1.931	2.064	2.095	2.283	2.582	2.678	3.101	3.422	3.667	4.096	4.377	4.752	5.066	5.201	5.420	5.533	5.211	5.504	5.646	5.438	5.069	4.300
335.0	979.2	1193	1197	979.3	717.1	598.5	596.4	652.8	757.4	899.7	1092	1228	1298	1252	1134	979.5	913.5	593.9	417.8	442.3	913.0	2434	8520	9999.9	2625	33.06	13.18	8.754	6.265	5.050	4.302	3.549	2.875	2.529	2.255	1.908	2.181	1.953	1.763	1.704	1.837	1.740	2.032	2.067	2.200	2.455	2.635	3.214	3.219	3.194	2.832	3.029	2.859	2.518	2.440	2.351	2.369	2.320	2.548	2.802	3.186	3.451	3.856	4.234	4.620	4.583	5.216	5.475	5.612	6.077	6.313	6.417	5.712	5.570	5.581	5.571	5.849
340.0	1051	1300	1337	1149	895.8	758.0	705.3	741.0	829.7	980.7	1174	1324	1401	1371	1248	1062	1000	864.2	555.8	437.3	460.4	735.5	2278	9999.9	9999.9	2030	25.68	12.18	8.364	5.986	4.608	3.913	3.206	2.826	2.442	2.138	2.081	2.091	1.801	1.743	1.905	2.006	2.038	2.157	2.480	2.564	2.920	3.489	3.638	3.336	3.126	3.631	3.351	2.990	2.936	2.682	2.904	2.774	3.035	3.255	3.529	3.718	4.157	4.568	4.950	5.091	5.547	5.745	6.017	6.620	6.965	6.634	6.415	6.250	6.145	5.753	6.058
345.0	1097	1371	1461	1326	1073	933.8	855.8	848.9	911.1	1073	1267	1415	1501	1478	1379	1185	1054	1027	783.8	543.1	451.1	434.4	709.9	3052	9999.9	9999.9	318.3	18.78	10.81	7.721	5.541	4.208	3.256	3.033	2.586	2.370	2.330	2.075	1.873	1.882	1.950	2.063	2.043	2.311	2.657	2.690	3.062	3.771	3.889	3.711	3.571	4.199	3.741	3.842	3.583	3.432	3.412	3.508	3.325	3.646	3.871	3.970	4.191	4.927	5.237	5.605	5.614	6.028	6.736	6.868	7.397	7.117	7.168	6.556	6.710	6.264	6.215
350.0	1182	1471	1600	1530	1339	1193	1091	1028	1059	1190	1371	1528	1609	1622	1543	1378	1229	1130	1056	844.6	629.6	526.4	491.0	929.2	3193	9999.9	9999.9	1383	26.80	11.75	8.002	5.506	4.346	3.409	2.873	2.498	2.395	2.312	2.186	2.003	2.106	2.095	2.114	2.447	2.721	2.993	3.194	3.991	4.094	3.955	4.198	4.715	4.622	4.893	4.429	4.422	4.375	4.278	4.120	4.217	4.269	4.685	4.893	5.268	5.790	6.078	6.114	6.559	7.136	7.172	7.771	7.821	7.972	7.447	7.754	7.527	7.580
355.0	1247	1583	1753	1743	1633	1523	1380	1252	1249	1362	1524	1677	1757	1779	1710	1596	1455	1331	1216	1163	960.8	748.4	624.3	581.5	999.3	2483	7506	9999.9	2425	32.22	12.14	7.809	5.415	3.913	3.315	2.964	2.732	2.803	2.515	2.267	2.314	2.248	2.327	2.621	2.763	3.086	3.601	4.181	4.462	4.313	4.655	5.612	5.318	6.007	5.563	5.236	5.505	5.262	5.205	5.193	5.360	5.453	5.664	5.847	6.446	6.476	6.673	6.930	7.888	8.094	8.181	8.295	9.047	8.683	8.643	8.550	8.876
360.0	1340	1656	1877	1938	1852	1773	1597	1444	1423	1518	1653	1798	1878	1909	1855	1752	1638	1514	1385	1312	1242	979.5	797.4	652.2	615.4	829.8	2062	9999.9	9999.9	1931	25.12	10.60	6.781	4.763	3.773	3.208	2.911	2.962	2.672	2.380	2.578	2.458	2.472	2.588	2.911	3.469	3.681	4.575	4.880	4.758	5.022	6.159	6.183	6.607	6.439	6.332	6.590	6.168	5.788	5.691	5.984	5.998	6.442	6.542	6.795	6.826	6.967	7.584	8.227	8.695	8.993	9.100	9.898	9.089	8.894	9.603	10.08
365.0	1437	1770	1994	2090	2049	1976	1814	1639	1605	1661	1795	1923	1994	2025	1978	1898	1801	1693	1570	1448	1403	1259	1002	804.0	652.9	555.7	712.4	2977	9999.9	9999.9	302.5	17.72	9.553	6.095	4.385	3.597	3.182	3.113	2.728	2.670	2.480	2.825	2.604	2.859	3.105	3.459	3.660	4.598	4.873	4.921	5.319	6.840	6.806	7.082	6.968	6.556	7.199	6.931	6.568	6.514	6.916	6.468	7.055	7.065	6.949	7.313	7.514	8.057	8.659	8.899	9.269	9.510	10.06	9.800	9.722	10.12	11.07
370.0	1536	1884	2097	2255	2262	2226	2076	1882	1819	1862	1966	2074	2139	2158	2132	2062	2000	1905	1800	1687	1591	1524	1339	1069	860.9	668.6	545.6	932.1	3131	9999.9	9999.9	1263	23.79	9.889	6.161	4.617	3.586	3.470	3.165	2.946	2.784	2.775	2.928	3.071	3.351	3.840	4.088	5.060	5.174	5.288	5.560	7.328	7.192	7.723	7.796	7.538	8.057	7.753	7.540	7.478	7.550	7.397	7.629	7.837	7.973	8.354	8.357	8.408	8.959	9.552	9.751	10.26	10.84	10.55	10.58	11.14	11.96
375.0	1588	1960	2272	2408	2481	2455	2306	2107	2029	2047	2138	2212	2258	2289	2264	2215	2171	2113	2029	1931	1829	1718	1627	1421	1121	881.5	677.3	609.7	974.2	2470	7094	9999.9	2129	27.53	9.314	6.336	4.744	3.857	3.735	3.333	3.121	3.091	3.299	3.307	3.711	4.153	4.398	5.423	5.306	5.464	6.024	7.990	7.871	8.411	8.482	8.501	9.161	8.835	8.366	8.288	8.571	8.271	8.557	8.821	8.472	8.922	8.683	9.181	9.597	10.31	10.31	11.09	11.49	11.48	11.70	12.08	12.77
380.0	1694	2043	2328	2515	2601	2602	2493	2278	2174	2176	2247	2318	2350	2363	2346	2304	2279	2242	2173	2093	1998	1879	1766	1646	1354	1065	827.0	643.1	577.5	792.9	1933	9681	9999.9	1616	20.08	9.136	5.897	4.750	3.826	3.383	3.415	3.334	3.403	3.368	3.621	4.192	4.592	5.496	5.784	5.590	6.247	8.264	8.382	8.922	8.929	9.100	9.281	9.331	9.474	8.844	8.747	8.681	9.100	9.188	9.140	9.173	9.227	9.952	10.03	10.27	10.87	11.47	11.94	11.59	11.78	12.19	13.37
385.0	1744	2140	2424	2576	2690	2718	2599	2421	2295	2293	2342	2391	2423	2428	2401	2371	2353	2337	2275	2209	2128	2020	1898	1779	1579	1255	979.6	757.3	583.9	490.9	639.2	2864	9999.9	9999.9	240.8	13.94	7.527	5.505	4.583	3.777	3.356	3.218	3.518	3.528	3.752	4.389	4.801	5.509	6.160	5.583	6.275	8.468	8.487	9.042	9.379	9.442	9.868	9.500	9.518	9.222	9.239	9.619	9.431	9.832	9.738	9.583	9.732	9.835	10.36	10.77	10.84	11.70	11.72	11.97	12.55	12.89	13.41
390.0	1882	2233	2488	2665	2787	2814	2742	2568	2439	2406	2439	2467	2479	2487	2458	2425	2425	2422	2395	2334	2269	2175	2068	1920	1755	1521	1209	956.7	743.3	562.1	453.9	839.3	2948	8899	9999.9	997.0	19.58	8.514	5.662	4.726	4.036	3.840	3.800	3.763	4.039	4.568	4.887	5.814	6.202	5.786	6.594	8.663	8.623	9.563	9.818	9.614	10.08	10.14	10.15	9.695	9.759	9.975	9.942	9.787	10.19	10.11	10.11	10.08	10.62	10.77	11.01	11.71	11.97	12.27	12.46	12.93	13.41
395.0	1999	2330	2538	2707	2836	2878	2856	2702	2569	2500	2531	2534	2536	2515	2490	2458	2474	2482	2457	2426	2376	2301	2194	2069	1897	1713	1470	1164	932.9	725.3	535.6	475.2	844.3	2149	5869	9999.9	1731	22.65	9.059	6.088	4.910	4.364	4.301	4.213	4.579	4.902	4.989	5.842	6.443	6.275	6.501	8.806	8.972	9.554	9.786	9.794	10.65	10.38	10.49	10.46	10.50	10.38	10.58	9.897	10.09	10.41	10.50	10.55	10.59	11.58	11.33	11.90	12.43	12.27	12.84	13.68	14.41
400.0	2002	2365	2592	2739	2848	2936	2904	2784	2662	2588	2578	2567	2560	2517	2489	2469	2482	2489	2480	2464	2419	2359	2279	2161	1986	1800	1615	1346	1074	848.5	635.1	467.3	429.4	636.8	1570	7500	9999.9	251.3	16.43	8.198	6.096	5.034	4.617	4.376	4.652	5.108	5.210	6.111	6.539	6.134	6.658	8.730	8.864	9.519	9.604	10.09	10.69	10.58	11.09	10.76	10.74	10.64	10.96	10.50	10.47	10.46	10.59	10.79	10.88	11.23	11.90	12.06	12.55	12.40	12.94	13.53	14.46
405.0	2033	2384	2592	2725	2847	2909	2925	2837	2708	2639	2622	2591	2548	2524	2483	2451	2468	2493	2482	2469	2447	2391	2328	2221	2056	1870	1684	1492	1216	964.0	741.1	526.8	393.8	339.8	478.4	2153	8869	8065	209.2	11.74	7.541	5.574	5.182	4.336	4.864	5.289	5.476	6.000	6.252	6.227	6.814	8.617	9.054	9.340	9.995	10.49	10.52	10.76	10.63	10.92	10.94	11.03	11.18	11.04	10.76	10.94	10.47	10.58	10.94	11.12	11.82	12.03	12.17	12.45	12.09	13.31	14.09
410.0	2043	2379	2552	2734	2845	2907	2936	2854	2758	2685	2642	2598	2538	2488	2438	2411	2418	2450	2455	2443	2430	2389	2340	2254	2112	1942	1753	1592	1391	1124	877.6	644.2	469.6	342.1	287.1	599.6	2473	6525	7171	931.3	17.66	7.842	6.111	5.099	5.084	5.302	5.526	6.107	6.589	6.231	6.698	8.713	8.988	9.624	9.783	10.29	10.69	10.99	11.08	10.98	11.13	11.39	11.05	10.94	10.89	10.83	10.38	10.55	10.76	10.99	11.59	11.75	11.98	12.35	12.36	12.91	13.81
415.0	2011	2367	2508	2668	2791	2891	2904	2866	2792	2721	2642	2571	2504	2434	2380	2329	2345	2372	2392	2393	2382	2345	2317	2261	2135	1984	1811	1645	1485	1290	1013	765.1	567.6	411.9	302.2	297.5	659.4	1556	4116	8223	1532	20.65	8.115	6.333	5.706	5.476	5.586	6.364	6.442	6.222	6.688	8.603	8.442	9.358	9.563	10.02	10.57	11.10	11.25	11.03	11.09	11.42	11.18	11.23	10.76	10.60	10.35	10.53	10.79	10.67	11.39	11.37	11.62	12.10	12.03	12.53	13.67
420.0	2000	2284	2501	2601	2710	2824	2885	2852	2811	2715	2622	2551	2454	2385	2317	2277	2280	2292	2307	2317	2314	2288	2280	2227	2123	1988	1834	1679	1520	1362	1116	847.5	636.7	471.7	341.5	262.4	279.5	437.5	1082	5440	7489	236.2	15.29	7.689	6.421	6.029	5.510	6.198	6.139	5.971	6.737	8.374	8.580	9.376	9.173	9.846	9.945	10.73	11.08	11.29	10.88	11.33	11.37	11.22	10.31	10.38	10.78	10.28	10.85	10.45	11.06	11.43	11.79	11.76	11.70	12.06	12.99
425.0	1928	2224	2418	2559	2682	2776	2831	2830	2802	2699	2610	2500	2404	2318	2251	2209	2200	2200	2228	2232	2243	2225	2220	2172	2087	1974	1841	1693	1543	1384	1196	920.6	697.4	526.6	386.8	283.4	220.9	206.1	315.8	1541	6224	5932	199.9	10.95	7.771	6.761	5.897	6.393	6.343	6.008	6.316	8.062	8.339	8.766	8.919	9.458	10.20	10.58	10.94	11.03	11.11	11.32	10.98	11.16	10.25	10.23	10.41	9.946	10.26	10.70	10.82	11.10	11.40	11.34	11.52	11.68	13.05
430.0	1959	2156	2372	2462	2579	2679	2781	2814	2772	2689	2592	2458	2342	2243	2170	2109	2104	2107	2136	2141	2145	2146	2137	2104	2033	1939	1827	1702	1567	1412	1234	1015	786.1	597.0	448.4	334.3	249.8	189.1	170.5	414.0	1707	4569	5417	876.1	17.31	8.303	6.669	6.752	6.446	5.880	6.276	8.004	8.136	8.694	8.571	9.392	10.10	10.24	11.00	11.10	10.70	11.34	10.97	10.90	10.34	10.46	10.17	9.862	10.42	10.26	10.37	10.68	10.85	10.72	11.13	11.25	12.55
435.0	2278	2111	2295	2369	2463	2586	2699	2763	2741	2677	2553	2429	2286	2179	2089	2026	1997	2014	2029	2038	2047	2047	2045	2022	1971	1892	1803	1699	1579	1441	1261	1071	876.4	676.5	513.8	393.7	297.7	221.4	168.5	186.1	446.9	1084	2950	6741	1466	21.06	8.724	7.635	6.565	5.824	6.283	7.883	7.684	8.523	8.825	9.304	10.18	10.15	10.55	10.88	10.91	11.27	11.52	10.90	10.89	10.04	9.978	9.592	10.07	9.959	10.25	10.11	10.33	10.71	10.68	10.94	11.66
440.0	2890	2076	2185	2305	2393	2537	2659	2736	2749	2655	2544	2405	2261	2122	2029	1952	1921	1932	1951	1955	1970	1973	1975	1962	1918	1842	1766	1681	1580	1450	1281	1086	915.9	734.6	559.5	432.2	334.5	251.7	188.8	152.4	180.4	301.7	766.6	4274	6623	1116	15.18	8.771	7.057	5.937	6.358	7.917	7.841	8.222	9.006	9.217	9.858	10.14	10.16	10.89	11.11	11.20	11.20	10.92	10.13	9.977	9.697	9.689	9.708	9.843	9.873	10.31	9.913	10.30	10.11	10.70	11.22
445.0	3286	2329	2144	2209	2330	2470	2607	2707	2695	2646	2521	2361	2192	2070	1965	1878	1856	1861	1879	1883	1883	1892	1901	1892	1853	1800	1718	1651	1567	1450	1287	1100	920.1	775.3	603.6	465.6	364.2	279.4	213.3	162.2	135.2	138.0	225.0	1184	5272	5640	176.1	11.96	8.184	6.372	6.409	7.790	7.628	7.910	8.565	8.702	9.011	10.04	10.13	10.83	10.54	11.18	10.78	10.53	10.15	10.05	9.562	9.377	9.576	9.370	9.433	9.515	9.857	9.740	10.04	10.04	10.63
450.0	2685	3236	2147	2081	2225	2346	2480	2580	2615	2562	2450	2272	2108	1976	1858	1765	1739	1741	1748	1760	1762	1769	1782	1771	1742	1697	1640	1578	1514	1417	1270	1098	924.6	783.3	649.1	508.3	400.2	313.0	242.9	188.1	145.0	118.2	117.1	314.9	1431	4064	4795	782.0	15.68	7.707	6.913	7.949	7.505	7.759	8.025	8.302	9.033	9.510	9.722	10.25	10.20	10.49	10.54	10.27	9.939	9.695	9.681	9.059	9.451	8.938	9.123	9.206	9.452	9.505	9.526	9.532	10.47
455.0	1797	3520	2683	1965	2075	2197	2321	2432	2497	2456	2330	2154	2000	1852	1733	1648	1604	1609	1605	1612	1612	1628	1635	1632	1609	1575	1535	1485	1431	1359	1230	1076	915.0	772.9	657.7	545.6	432.0	342.6	272.2	214.2	165.6	130.9	108.0	133.2	366.3	953.7	2371	5376	1227	16.37	8.028	8.294	7.545	7.747	7.833	7.999	8.431	8.946	9.234	9.717	9.923	10.37	10.16	9.813	9.709	9.328	9.143	8.766	8.542	8.439	8.886	8.769	8.961	8.988	8.743	8.804	9.418
460.0	1522	2832	3550	1916	1952	2067	2194	2326	2381	2367	2220	2062	1906	1755	1640	1558	1511	1506	1499	1502	1502	1513	1520	1521	1503	1477	1444	1406	1362	1306	1191	1048	899.7	765.0	644.1	553.2	456.2	361.8	289.4	229.0	181.7	144.7	114.2	99.99	135.7	253.2	599.0	3202	5000	852.3	13.58	8.848	7.720	7.775	7.571	7.547	8.153	8.532	9.145	8.746	9.353	9.913	9.503	9.150	9.730	8.521	8.619	8.411	8.117	8.227	8.403	8.441	8.246	8.564	8.248	8.878	8.699
465.0	1355	1971	3926	2215	1839	1946	2061	2192	2272	2242	2125	1965	1808	1675	1556	1463	1424	1405	1402	1398	1404	1408	1418	1418	1408	1383	1355	1323	1295	1241	1145	1013	875.2	747.1	634.7	543.7	467.3	375.8	299.6	240.1	194.3	156.1	124.7	99.17	91.10	103.7	168.9	861.8	3825	4015	150.1	11.38	7.768	7.810	7.341	7.449	7.867	8.145	8.505	8.582	9.315	9.471	9.103	9.076	9.070	8.133	7.999	8.397	7.687	7.875	8.081	8.020	7.680	7.817	7.758	8.137	8.651
470.0	1231	1486	2878	3320	1813	1780	1899	2022	2089	2063	1980	1821	1669	1540	1420	1334	1291	1266	1262	1262	1261	1264	1269	1276	1269	1252	1228	1208	1186	1147	1065	952.5	828.8	712.9	611.6	521.3	453.0	385.2	311.4	249.7	205.1	167.4	135.8	109.5	89.67	77.78	79.89	224.4	1017	2761	3158	730.0	15.58	8.636	7.482	7.155	7.395	7.707	7.956	8.086	8.454	8.528	8.692	8.577	8.157	7.883	7.715	7.517	7.283	7.378	7.278	7.403	7.185	7.164	7.151	7.214	7.905
475.0	1128	1275	1726	3566	2449	1597	1704	1830	1892	1879	1812	1672	1515	1396	1281	1197	1158	1134	1131	1121	1115	1121	1123	1130	1128	1109	1101	1082	1072	1039	970.4	876.3	768.7	672.0	581.9	495.0	428.8	375.4	318.9	257.4	211.6	173.9	145.7	120.5	98.35	79.52	65.46	87.89	254.8	642.4	1421	3413	1089	18.95	7.891	7.411	7.178	7.191	7.189	7.580	7.740	7.664	7.875	7.585	7.521	7.489	6.894	6.566	7.027	6.694	6.738	6.458	6.708	6.243	6.109	6.487	6.683
480.0	1065	1139	1346	2654	3441	1589	1596	1711	1768	1774	1699	1566	1410	1295	1202	1105	1064	1048	1038	1027	1028	1027	1031	1033	1031	1015	1014	999.2	990.8	966.7	910.1	825.3	727.5	637.8	560.2	481.2	415.7	361.2	318.7	266.6	216.6	179.4	150.9	124.8	102.6	84.02	66.49	60.50	88.96	166.8	353.5	1865	3526	882.7	13.82	7.540	7.352	6.760	6.760	7.268	7.297	7.177	7.435	7.231	7.236	6.924	6.826	6.286	6.354	6.495	6.428	6.431	6.200	5.962	6.043	6.362	6.472
485.0	993.0	1105	1201	1730	3869	1969	1504	1603	1670	1668	1611	1487	1342	1229	1132	1045	997.2	976.1	962.9	951.8	952.3	955.9	962.5	963.2	959.1	947.9	943.0	933.2	932.2	913.4	857.2	780.0	698.1	612.9	538.3	463.9	406.4	353.5	311.2	272.9	223.4	183.4	154.8	130.0	108.5	88.76	70.19	58.01	53.80	63.59	99.97	494.4	2581	3258	172.3	9.346	7.633	6.827	6.639	6.851	6.925	6.850	7.097	7.155	6.806	6.692	6.364	5.886	6.194	5.970	6.039	5.976	6.066	5.747	5.635	5.882	6.433
490.0	858.2	1042	1083	1241	2732	3306	1529	1471	1543	1558	1495	1380	1257	1147	1047	969.7	923.7	895.8	882.0	867.3	868.8	868.7	870.4	874.0	873.0	859.4	860.3	856.9	852.1	839.4	794.8	726.4	652.4	579.7	509.9	446.8	392.7	343.2	299.9	262.3	228.4	189.2	159.5	134.9	113.6	94.79	76.68	61.02	50.68	43.84	46.31	129.2	677.1	2029	2270	733.8	15.97	7.411	6.343	6.660	6.809	6.667	6.612	6.698	6.145	6.153	5.962	5.618	5.607	5.646	5.537	5.421	5.489	5.417	5.447	5.440	5.666
495.0	775.5	928.5	1007	1042	1475	3620	2306	1358	1420	1431	1373	1269	1155	1049	957.0	883.2	830.9	810.0	792.5	786.7	777.3	777.8	775.8	777.2	777.7	767.3	770.8	772.3	768.1	758.3	723.9	664.7	601.8	533.2	477.5	422.0	370.9	328.7	285.4	250.3	222.4	194.3	162.1	138.1	117.5	98.49	82.07	66.17	54.38	42.98	36.89	49.90	167.4	469.6	1225	3313	1200	19.08	6.965	6.667	6.548	6.507	6.542	6.017	5.737	5.459	5.520	5.298	5.196	5.321	5.050	5.072	5.234	5.012	4.883	4.885	5.167
500.0	714.2	827.9	914.7	929.3	1084	2599	3381	1334	1291	1314	1270	1186	1067	970.9	877.1	815.0	768.5	744.2	727.1	715.0	709.7	708.7	706.8	709.2	708.9	699.8	702.6	705.3	705.2	693.6	667.3	614.5	557.9	498.7	446.5	393.7	350.6	312.7	272.5	238.9	210.9	191.4	165.0	137.5	117.5	99.32	82.55	68.14	56.54	44.53	36.15	33.46	55.15	119.7	303.5	1815	3363	217.1	13.08	6.655	6.416	5.751	5.668	5.544	5.288	5.297	4.795	5.070	4.926	4.926	4.731	4.695	4.736	4.544	4.442	4.404	4.630
505.0	670.8	755.7	855.5	866.1	937.7	1535	4074	1713	1185	1213	1172	1094	982.6	897.0	814.1	748.7	705.3	677.5	667.0	651.9	646.2	643.0	642.0	643.5	642.2	639.5	638.7	640.4	643.6	636.4	615.0	565.3	515.9	462.7	415.8	368.5	327.8	295.3	260.7	229.3	200.8	181.3	163.6	137.7	116.1	98.93	83.48	68.91	56.78	45.08	36.71	31.39	31.06	42.47	81.59	472.4	2329	2732	183.6	8.032	6.225	5.838	5.557	5.202	5.228	5.029	4.574	4.693	4.570	4.308	4.220	4.385	4.099	4.224	4.015	4.327	4.275
510.0	589.9	669.3	759.7	783.4	809.7	979.2	2803	3197	1191	1072	1041	965.9	877.6	795.7	718.8	660.1	622.8	595.6	584.7	572.4	564.2	560.7	558.2	562.9	559.0	556.9	557.2	561.7	564.9	562.0	540.7	500.5	458.4	413.2	374.0	333.2	298.9	269.1	239.0	210.9	185.1	165.5	152.7	135.6	114.4	96.89	81.26	67.76	56.04	46.21	37.65	31.62	26.77	26.82	32.82	118.0	604.5	1720	1940	670.8	14.53	5.935	5.447	4.845	4.654	4.399	4.349	4.415	4.046	3.949	3.825	3.818	3.783	3.800	3.631	3.843	3.806
515.0	494.2	561.8	637.3	698.7	699.2	771.3	1301	3920	1998	936.8	914.4	845.7	771.8	690.6	629.3	577.4	539.9	512.7	507.0	493.0	485.6	483.7	482.2	483.4	476.6	476.9	477.2	482.1	485.3	484.7	467.6	434.6	398.2	362.9	326.5	296.0	265.2	240.1	215.3	189.7	169.2	151.2	136.2	126.3	112.8	93.00	77.33	66.31	55.38	45.77	37.59	32.02	26.94	23.63	22.25	39.58	146.0	396.1	952.0	2364	880.1	16.05	5.429	4.414	4.270	3.977	4.009	3.557	3.587	3.559	3.432	3.481	3.578	3.287	3.239	3.250	3.331
520.0	453.7	503.9	553.7	622.1	638.6	679.2	824.6	2831	3455	932.8	819.6	759.8	696.8	626.1	565.3	518.8	483.9	462.1	448.5	436.3	435.0	427.8	427.9	425.2	424.6	425.8	424.6	426.5	431.6	431.3	417.1	389.5	361.2	326.6	297.9	267.6	243.5	219.6	196.2	176.1	155.4	139.6	125.9	115.3	108.0	91.57	75.39	64.52	54.66	44.91	36.96	31.75	26.68	23.65	20.00	22.36	44.22	98.32	234.5	1320	2239	207.1	8.467	4.802	4.038	3.788	3.460	3.372	3.372	3.286	3.274	3.147	3.208	3.026	3.226	2.986	2.934
525.0	394.4	459.7	494.1	551.0	593.5	602.1	671.7	1473	4438	1371	735.1	689.2	632.3	569.1	512.8	465.0	439.7	417.5	406.6	392.2	388.6	381.8	384.8	384.4	380.0	381.4	378.8	385.7	387.0	385.9	375.0	350.2	323.8	295.6	270.5	245.0	222.2	201.6	180.6	163.0	143.9	129.4	117.6	105.8	100.4	89.04	73.61	61.91	52.36	43.74	36.30	31.23	26.66	23.33	19.93	18.30	21.61	31.80	61.25	344.5	1595	1669	30.06	5.044	4.004	3.705	3.268	3.168	2.978	2.939	2.993	2.798	2.858	2.788	2.690	2.697	2.689
530.0	351.0	391.2	428.3	464.3	518.5	536.1	568.5	792.9	3047	3056	777.1	601.0	548.1	498.0	448.5	409.0	381.0	362.3	351.4	340.7	337.9	331.4	332.5	331.7	329.2	329.2	328.0	333.4	334.4	335.6	325.3	305.9	281.3	257.6	236.1	214.3	196.2	178.7	161.2	145.4	130.1	115.9	106.2	96.55	89.13	81.29	71.68	59.12	48.76	41.45	35.03	30.35	26.18	23.21	20.21	17.42	16.98	17.18	22.51	84.47	417.0	1160	1380	423.1	10.63	3.642	3.097	3.064	2.763	2.650	2.473	2.617	2.598	2.434	2.418	2.336	2.316
535.0	281.5	326.6	380.2	406.2	440.9	478.6	483.1	557.7	1194	4319	1581	526.6	470.1	428.9	385.6	353.2	327.9	314.5	303.8	295.3	289.5	286.8	282.6	282.6	281.7	280.2	281.8	282.5	287.9	286.7	278.4	261.7	241.5	224.2	203.2	186.4	171.1	156.7	141.6	126.7	113.3	104.2	94.59	86.51	78.17	71.53	66.00	57.70	46.13	38.33	33.08	29.08	25.09	22.48	20.14	16.87	15.89	13.81	13.84	26.17	99.11	267.1	708.9	1587	215.9	10.06	3.030	2.759	2.592	2.389	2.178	2.429	2.175	2.240	2.168	2.186	2.200
540.0	267.4	290.0	335.4	357.2	370.3	435.5	433.7	474.6	644.6	3055	3488	533.2	420.7	385.9	350.9	314.8	293.4	283.4	270.1	261.9	259.5	253.1	253.2	249.9	247.9	246.0	249.2	250.0	253.8	252.5	246.9	233.2	216.7	198.9	183.7	167.1	154.6	141.9	127.4	115.9	105.4	94.22	87.18	79.35	71.85	65.20	59.85	54.51	44.73	36.89	31.41	27.77	24.20	21.06	19.21	17.04	15.07	13.00	11.59	13.32	28.00	64.86	176.0	969.4	1387	172.1	4.155	2.701	2.300	2.177	2.101	2.058	1.975	1.987	2.033	1.952	1.985
545.0	242.0	270.8	299.8	318.3	336.4	392.1	407.1	423.3	478.7	1378	4801	919.8	388.3	346.5	316.4	283.0	265.5	255.1	242.4	237.1	230.3	228.5	225.1	224.1	222.1	222.5	220.8	223.0	227.1	226.1	222.5	209.7	195.0	179.7	163.1	150.9	139.3	127.2	115.5	104.3	95.70	87.42	80.61	72.71	66.81	60.05	54.17	50.02	43.25	35.64	29.63	25.98	22.94	20.19	18.46	17.01	14.52	12.56	10.93	10.17	12.51	19.62	43.93	260.0	1151	1128	27.98	2.907	2.371	2.222	1.989	1.796	1.862	1.829	1.841	1.735	1.976
550.0	226.7	244.2	257.7	273.4	276.1	323.3	372.2	365.2	390.3	610.6	3202	2715	419.2	303.0	275.2	249.0	229.7	218.6	209.5	204.2	197.6	194.9	193.7	191.3	191.4	190.8	189.8	191.9	194.5	195.1	190.1	180.3	167.1	155.1	141.4	130.5	121.5	111.4	101.4	92.43	84.22	77.30	70.96	64.78	59.52	53.66	47.86	43.46	40.09	33.88	28.07	24.18	21.16	19.27	17.38	16.00	14.22	12.35	10.40	9.378	8.795	9.572	14.53	62.16	310.6	846.2	928.4	123.9	7.639	2.010	1.929	1.749	1.784	1.647	1.579	1.477	1.605
555.0	197.3	221.7	215.5	238.0	239.4	262.9	316.6	325.9	328.0	390.7	1062	4337	1090	258.3	231.1	210.5	196.8	185.0	176.6	171.8	169.0	164.4	164.2	161.7	162.8	160.9	160.1	159.2	162.6	164.5	162.4	152.4	139.2	131.9	121.2	111.8	103.8	95.74	86.87	79.94	73.76	67.23	61.63	55.81	51.90	47.27	42.96	37.35	34.32	31.82	26.78	22.38	18.78	17.43	16.12	15.00	12.91	11.99	10.07	8.614	7.517	7.222	7.627	17.49	72.60	194.9	530.6	1048	191.1	5.173	1.975	1.609	1.499	1.439	1.394	1.440	1.312
560.0	181.3	191.5	200.4	203.3	215.5	227.1	266.6	305.1	288.5	307.3	469.7	3123	2898	267.3	203.8	186.2	172.4	162.6	157.3	149.6	146.7	144.0	144.1	142.6	141.0	140.1	139.6	139.0	144.1	142.2	139.5	132.5	123.1	114.5	106.9	98.15	90.55	82.92	77.35	71.57	64.22	59.56	54.83	49.69	46.95	42.09	38.65	33.50	30.04	28.47	25.16	21.82	18.46	16.19	14.97	13.91	12.18	11.25	9.499	8.356	7.029	6.463	5.790	7.634	19.57	46.42	134.5	724.0	918.6	30.58	2.167	1.610	1.463	1.393	1.351	1.433	1.296
565.0	170.2	172.2	163.9	175.9	185.7	192.9	224.8	280.1	258.0	265.9	302.8	1299	4384	542.6	179.3	164.7	150.2	143.7	136.7	131.9	129.1	128.5	125.4	126.4	123.3	120.5	121.2	122.0	125.5	124.4	122.0	115.6	107.6	100.8	93.42	85.58	79.45	73.34	68.41	62.81	57.67	52.55	48.92	45.03	41.61	37.93	33.82	30.06	27.01	25.18	22.65	20.75	17.31	15.02	14.13	12.77	11.31	10.29	9.095	7.891	6.768	5.670	5.169	5.277	7.616	13.24	32.62	204.0	833.1	670.3	22.84	1.620	1.406	1.322	1.089	1.270	1.047
570.0	150.7	158.3	146.2	147.4	157.6	166.5	182.1	225.8	233.6	219.1	234.8	460.2	3033	2173	198.9	135.6	125.6	118.8	112.6	107.7	105.2	104.1	102.9	101.2	100.8	99.30	99.13	99.45	102.3	102.1	100.1	94.28	88.83	82.01	76.56	70.54	65.11	60.56	55.86	51.70	47.74	43.53	40.78	37.82	34.65	31.39	28.44	25.53	22.80	20.06	18.65	17.47	15.25	13.33	12.10	11.22	9.954	8.932	7.987	7.223	6.403	5.259	4.759	4.467	4.366	5.413	9.559	47.66	231.7	574.3	463.3	101.4	3.250	1.360	1.028	1.048	0.969
575.0	117.9	137.4	123.6	118.0	121.3	131.2	143.2	167.7	207.6	188.5	185.6	230.6	904.5	3788	708.0	108.2	99.86	93.79	88.62	84.20	82.70	81.78	80.30	79.47	78.81	76.97	76.17	77.68	78.70	79.69	76.99	73.68	68.10	63.57	58.50	54.65	51.06	46.67	43.63	40.22	37.39	34.97	32.31	30.01	28.53	24.52	22.98	20.86	18.14	15.65	14.42	14.04	13.24	11.48	10.13	9.293	8.418	7.662	6.652	5.852	5.878	4.784	4.186	3.624	3.595	3.464	4.052	12.50	53.25	133.4	341.8	605.7	30.88	1.944	0.956	0.959	0.943
580.0	104.2	114.9	109.7	102.4	101.4	105.5	116.8	131.0	178.5	170.3	158.1	162.7	307.8	2758	2244	105.8	82.24	77.22	73.01	70.04	66.82	66.07	64.69	64.23	64.87	62.04	62.85	62.59	63.63	63.57	62.75	59.68	55.67	51.74	48.05	44.84	41.33	38.53	35.64	32.88	30.70	28.26	26.60	23.90	22.90	20.60	19.01	17.07	15.34	13.27	12.20	11.36	11.33	10.40	8.979	8.229	7.066	6.560	5.785	5.206	4.607	4.124	3.871	3.239	3.136	2.655	2.685	4.463	13.50	31.13	90.41	454.9	446.5	24.73	0.994	0.776	0.699
585.0	98.90	94.97	91.08	84.83	85.76	88.75	98.48	112.8	144.4	160.6	136.1	134.6	157.2	1092	3584	272.2	67.81	64.25	59.98	56.59	55.28	55.00	53.42	52.55	52.21	50.35	52.14	51.06	52.62	51.96	51.62	49.06	45.03	42.30	39.48	37.45	34.16	31.53	29.58	27.29	24.85	23.42	21.54	20.17	18.86	17.69	15.29	14.32	12.55	11.15	10.21	9.147	9.107	8.897	7.942	6.907	6.354	5.420	4.882	4.669	3.961	3.940	3.402	3.099	2.741	2.503	2.306	2.577	4.459	8.162	21.46	133.7	463.4	237.3	15.21	0.874	0.733
590.0	90.69	87.15	78.36	67.84	67.23	70.17	79.00	87.10	107.0	143.7	125.1	113.9	109.6	318.5	2503	1552	71.80	49.29	46.31	44.76	42.42	41.94	41.02	40.76	39.90	38.98	39.41	39.64	40.24	40.03	39.28	37.25	34.93	32.77	30.03	28.65	26.17	24.70	22.74	21.11	19.54	18.26	16.69	16.12	14.82	13.90	12.43	11.23	9.972	8.910	7.975	7.351	6.854	6.937	6.776	5.916	5.226	4.424	4.029	3.704	3.211	3.159	2.866	2.740	2.296	2.278	2.025	1.891	2.167	3.111	5.846	30.89	135.1	285.5	259.7	18.58	1.398
595.0	78.17	81.34	64.55	57.60	52.33	58.20	64.88	69.80	81.12	111.7	125.3	99.38	88.80	124.1	706.1	2865	448.3	38.88	35.79	34.01	33.27	32.11	32.07	30.60	30.66	29.44	29.28	29.43	30.35	30.43	30.66	28.29	26.60	24.63	23.18	21.40	20.00	18.90	17.21	16.14	14.29	13.74	12.81	12.36	11.21	10.46	9.773	8.833	7.816	6.962	6.347	5.610	5.080	5.320	5.586	5.100	4.462	3.646	3.029	2.889	2.884	2.400	2.392	2.325	2.195	1.908	1.615	1.547	1.598	1.695	2.265	7.679	30.82	67.67	190.9	256.9	27.05
600.0	76.98	68.76	60.32	49.23	44.15	50.20	54.39	60.93	69.89	85.96	118.5	91.19	81.02	74.77	200.5	2124	1512	42.61	30.36	28.87	26.61	26.00	25.65	25.50	25.83	23.86	24.35	24.57	24.35	24.56	24.68	23.13	21.64	19.75	18.97	17.12	16.53	15.20	14.28	13.04	12.23	11.08	10.21	10.02	9.112	8.712	7.978	7.151	6.547	5.567	5.099	4.615	4.393	4.217	4.360	4.390	3.978	3.453	2.694	2.538	2.488	2.131	2.033	1.811	1.843	1.774	1.548	1.424	1.361	1.288	1.319	2.515	7.611	15.72	51.85	229.7	214.3
605.0	64.93	63.97	59.57	45.22	39.88	44.12	49.12	51.72	61.28	72.51	106.5	92.12	71.88	63.46	81.65	844.5	2503	81.15	25.95	24.09	22.56	22.52	21.11	20.83	21.35	20.49	20.18	19.55	20.86	20.30	20.42	19.62	17.48	16.35	15.62	14.50	13.62	12.60	11.87	10.71	9.808	9.034	8.810	8.225	7.682	7.261	6.824	6.270	5.363	4.773	4.209	4.083	3.805	3.559	3.489	3.617	3.589	3.134	2.416	2.172	2.065	2.013	1.648	1.629	1.711	1.621	1.589	1.181	1.232	1.165	1.250	1.148	2.386	4.183	12.24	71.24	240.3
610.0	61.20	57.38	49.10	39.82	34.01	36.97	40.69	46.26	53.02	60.83	84.27	98.00	69.14	56.24	50.45	222.9	1816	1110	34.81	19.42	18.89	17.67	16.92	17.25	16.74	16.16	15.78	15.93	16.16	16.45	16.03	15.46	13.70	12.94	12.10	11.51	10.53	10.24	9.273	8.686	7.830	7.248	7.119	6.474	6.149	5.665	5.344	4.809	4.423	3.879	3.406	3.169	3.030	2.873	2.823	2.766	2.897	2.702	2.199	1.965	1.693	1.549	1.403	1.447	1.278	1.412	1.327	1.157	1.095	0.976	1.077	0.905	1.118	1.444	3.251	16.53	72.22
615.0	50.08	48.53	46.45	33.98	30.81	33.23	34.87	41.14	45.13	53.20	65.83	90.48	72.11	50.87	41.84	70.66	506.2	2092	317.4	16.00	14.93	13.98	13.24	13.49	12.43	12.71	12.61	11.99	12.54	12.91	11.82	11.74	10.49	9.812	9.171	8.570	8.019	8.187	7.065	6.523	5.941	5.755	5.450	5.103	4.846	4.599	4.258	3.819	3.535	2.975	2.772	2.651	2.320	2.307	2.320	2.111	2.181	2.238	1.890	1.655	1.438	1.394	1.285	1.119	1.259	1.117	1.122	1.061	0.886	0.905	0.859	0.750	0.880	0.828	1.130	4.125	16.55
620.0	49.90	45.74	39.81	29.91	26.69	27.01	33.52	37.00	41.96	49.09	59.11	76.23	74.12	49.86	37.13	34.28	130.4	1552	1122	17.22	12.52	12.22	11.65	10.90	10.72	10.45	10.24	9.850	10.34	9.980	9.696	9.858	8.908	7.885	7.800	7.218	6.611	6.581	5.694	5.361	4.996	4.971	4.652	4.265	3.989	3.643	3.434	3.290	2.736	2.487	2.287	2.106	1.932	1.995	1.859	1.816	1.563	1.739	1.655	1.648	1.272	1.065	1.074	1.085	1.041	1.027	1.010	0.974	1.018	0.790	0.743	0.719	0.712	0.628	0.670	1.296	4.092
625.0	46.32	45.95	40.92	30.73	25.51	25.03	29.83	34.00	39.16	46.77	54.30	64.04	77.43	48.60	33.64	26.57	43.54	622.4	1900	54.96	10.95	10.07	9.844	9.362	9.342	8.723	8.544	8.490	8.922	8.449	7.970	8.263	7.048	6.969	6.666	5.814	5.528	5.265	4.922	4.705	4.269	4.090	3.840	3.587	3.252	3.107	2.664	2.951	2.402	2.161	1.915	1.866	1.687	1.660	1.677	1.573	1.409	1.515	1.426	1.425	1.176	0.942	1.086	1.035	0.969	0.892	0.842	0.836	1.027	0.919	0.660	0.697	0.795	0.525	0.603	0.563	1.298
630.0	40.54	44.16	37.39	28.79	23.86	23.89	25.76	30.24	34.02	41.94	49.49	53.53	71.36	53.76	33.02	23.03	21.88	156.9	1402	830.7	18.50	8.747	8.135	7.783	7.528	6.752	6.602	6.923	6.805	6.785	6.387	6.170	5.816	5.470	5.045	4.745	4.495	4.093	3.877	3.637	3.407	3.147	3.078	2.852	2.463	2.645	2.236	2.292	1.889	1.696	1.540	1.474	1.370	1.288	1.306	1.265	1.177	1.184	1.096	1.228	1.087	0.887	0.924	0.801	0.847	0.798	0.807	0.769	0.805	0.802	0.687	0.647	0.614	0.546	0.473	0.444	0.674
635.0	37.27	37.95	36.36	25.67	20.37	22.25	23.29	27.91	31.79	36.47	42.78	49.77	57.00	59.15	32.88	21.04	17.04	44.43	391.1	1630	224.7	7.587	6.562	6.609	5.804	5.268	5.482	5.238	5.893	5.487	5.166	4.801	4.409	4.154	4.000	3.814	3.349	3.127	3.154	2.810	2.862	2.565	2.567	2.189	1.922	2.014	1.581	1.677	1.512	1.322	1.252	1.108	1.006	1.064	0.980	0.981	1.008	0.936	0.901	0.968	0.982	0.830	0.786	0.682	0.737	0.715	0.685	0.751	0.686	0.734	0.686	0.675	0.545	0.542	0.421	0.366	0.404
640.0	41.82	38.20	30.40	25.40	19.39	20.01	22.27	24.93	29.15	35.85	40.95	44.23	48.89	56.61	36.03	20.75	15.45	18.92	97.19	1251	824.8	9.550	5.746	5.579	4.803	5.007	4.673	4.580	4.401	4.514	4.143	4.010	3.764	3.659	3.334	3.087	2.864	2.599	2.596	2.351	2.267	2.004	1.905	1.778	1.682	1.604	1.475	1.422	1.240	1.064	1.025	0.981	0.888	0.825	0.888	0.898	0.911	0.749	0.665	0.753	0.854	0.756	0.729	0.653	0.672	0.639	0.648	0.670	0.540	0.612	0.608	0.726	0.558	0.422	0.455	0.376	0.379
645.0	38.27	42.22	28.40	23.20	19.09	19.79	23.40	22.99	27.06	34.32	39.95	43.45	46.31	51.83	42.97	21.90	15.38	13.22	29.29	527.5	1436	42.77	5.437	4.610	4.126	4.251	3.816	3.888	3.650	3.616	3.470	3.360	3.149	2.870	2.793	2.544	2.369	2.123	2.085	1.915	1.949	1.788	1.635	1.524	1.371	1.434	1.240	1.270	0.981	0.920	0.899	0.863	0.675	0.720	0.791	0.701	0.735	0.655	0.657	0.609	0.644	0.597	0.661	0.582	0.562	0.542	0.667	0.538	0.481	0.580	0.563	0.662	0.493	0.391	0.476	0.392	0.344
650.0	41.09	43.44	34.97	25.28	18.27	17.97	21.48	21.78	28.48	31.81	38.45	42.41	42.92	46.02	46.66	22.61	16.08	12.20	13.72	140.1	1398	356.2	5.375	4.232	3.781	3.643	3.472	3.447	3.243	3.222	3.060	3.000	2.623	2.439	2.420	2.202	1.949	1.951	1.752	1.611	1.614	1.539	1.561	1.268	1.230	1.147	0.981	1.010	0.833	0.804	0.714	0.690	0.623	0.632	0.646	0.604	0.681	0.588	0.616	0.526	0.569	0.521	0.606	0.573	0.510	0.503	0.549	0.517	0.410	0.581	0.441	0.580	0.567	0.529	0.374	0.335	0.358
