Sample:	'1
File name:	t2025061913Ìï»ªË®Îñ.FD3
Run date:	'15:47:48, 06/23/2025
Operator:	Administrator
Comment:	'

Instrument
Model:	F-2700 FL Spectrophotometer
Serial number:	23B8-004
ROM Version:	4J14000 07

Instrument parameters
Measurement type:	3-D scan
Data mode:	Fluorescence
EX  Start WL:	220.0 nm
EX  End WL:	600.0 nm
EX Sampling interval:	5.0 nm
EM  Start WL:	230.0 nm
EM  End WL:	650.0 nm
EM Sampling interval:	5.0 nm
Scan speed:	12000 nm/min
EX Slit:	5.0 nm
EM Slit:	5.0 nm
PMT Voltage:	700 V
Response:	Auto 
Corrected spectra:	Off
Contour interval:	50.000

Peak integration
Integration method:	Rectangular
Sensitivity:	1
Threshold:	1.000

Peaks
No.	ApexEX/EM(nm)	Height(Data)
1	225.0/580.0	44.69
2	230.0/300.0	271.7
3	230.0/500.0	235.1
4	230.0/555.0	54.18
5	235.0/260.0	312.3
6	235.0/510.0	215.0
7	240.0/265.0	392.7
8	240.0/410.0	612.3
9	240.0/525.0	203.9
10	245.0/270.0	422.9
11	245.0/540.0	172.9
12	250.0/275.0	553.9
13	250.0/550.0	150.5
14	255.0/285.0	567.3
15	255.0/560.0	125.4
16	260.0/290.0	514.9
17	260.0/575.0	103.6
18	265.0/295.0	627.8
19	265.0/585.0	91.57
20	270.0/300.0	822.8
21	270.0/600.0	77.49
22	275.0/305.0	803.4
23	275.0/610.0	61.97
24	280.0/310.0	654.3
25	280.0/625.0	52.06
26	285.0/315.0	618.6
27	285.0/635.0	38.95
28	290.0/325.0	565.3
29	295.0/330.0	435.6
30	300.0/335.0	429.7
31	305.0/345.0	399.3
32	310.0/350.0	365.7
33	315.0/355.0	377.7
34	315.0/395.0	481.9
35	320.0/365.0	397.5
36	320.0/400.0	485.0
37	325.0/370.0	408.1
38	325.0/405.0	483.7
39	330.0/375.0	427.7
40	335.0/385.0	444.4
41	440.0/520.0	19.09
42	495.0/270.0	2.109
43	505.0/275.0	3.132
44	510.0/280.0	3.812
45	515.0/285.0	3.674
46	530.0/290.0	3.133
47	540.0/295.0	4.288
48	545.0/300.0	4.639
49	550.0/305.0	4.757
50	560.0/310.0	3.809
51	570.0/315.0	3.696
52	580.0/320.0	3.888
53	585.0/325.0	3.500

Data points
	220.0	225.0	230.0	235.0	240.0	245.0	250.0	255.0	260.0	265.0	270.0	275.0	280.0	285.0	290.0	295.0	300.0	305.0	310.0	315.0	320.0	325.0	330.0	335.0	340.0	345.0	350.0	355.0	360.0	365.0	370.0	375.0	380.0	385.0	390.0	395.0	400.0	405.0	410.0	415.0	420.0	425.0	430.0	435.0	440.0	445.0	450.0	455.0	460.0	465.0	470.0	475.0	480.0	485.0	490.0	495.0	500.0	505.0	510.0	515.0	520.0	525.0	530.0	535.0	540.0	545.0	550.0	555.0	560.0	565.0	570.0	575.0	580.0	585.0	590.0	595.0	600.0
230.0	67.61	919.9	1418	274.6	11.98	5.864	5.463	4.005	3.239	2.864	2.706	2.134	2.035	1.774	1.475	1.349	1.118	1.092	0.967	0.925	0.824	0.853	0.724	0.664	0.629	0.629	0.549	0.564	0.566	0.523	0.489	0.440	0.418	0.414	0.411	0.411	0.370	0.393	0.384	0.374	0.344	0.367	0.361	0.352	0.304	0.328	1.351	4.240	5.189	2.837	0.812	0.332	0.254	0.267	0.235	0.244	0.260	0.254	0.256	0.249	0.285	0.263	0.249	0.272	0.242	0.262	0.282	0.246	0.272	0.266	0.247	0.257	0.270	0.265	0.278	0.256	0.279
235.0	74.80	290.8	1258	1682	372.4	18.29	5.682	5.042	3.433	2.733	2.729	2.170	2.100	1.764	1.671	1.479	1.088	0.967	0.960	0.930	0.932	0.759	0.714	0.675	0.617	0.672	0.542	0.559	0.568	0.528	0.420	0.442	0.388	0.388	0.376	0.394	0.475	0.405	0.407	0.328	0.309	0.421	0.390	0.380	0.486	0.335	0.547	1.319	2.836	4.594	6.211	5.039	1.824	0.471	0.246	0.234	0.223	0.269	0.235	0.266	0.215	0.302	0.256	0.293	0.245	0.262	0.310	0.218	0.244	0.234	0.231	0.327	0.277	0.283	0.249	0.240	0.268
240.0	118.2	115.2	450.7	1924	1785	280.6	11.69	5.108	4.017	3.527	2.886	2.447	2.050	1.878	1.724	1.269	1.139	0.958	1.094	0.901	0.795	0.702	0.784	0.689	0.629	0.560	0.542	0.596	0.539	0.489	0.433	0.495	0.434	0.390	0.411	0.354	0.372	0.419	0.427	0.361	0.316	0.417	0.373	0.369	0.505	0.452	0.480	0.558	0.873	1.716	4.418	8.869	9.063	4.970	1.573	0.318	0.262	0.277	0.333	0.285	0.242	0.216	0.212	0.292	0.277	0.268	0.286	0.245	0.297	0.233	0.309	0.281	0.269	0.240	0.244	0.280	0.257
245.0	110.9	146.9	148.3	789.0	2547	1666	180.1	6.340	5.148	4.153	2.873	2.658	2.392	1.950	1.791	1.503	1.263	1.044	1.123	0.928	0.840	0.766	0.785	0.820	0.643	0.552	0.684	0.568	0.526	0.518	0.507	0.467	0.425	0.432	0.477	0.319	0.376	0.367	0.365	0.347	0.383	0.354	0.359	0.320	0.455	0.543	0.606	0.606	0.456	0.568	1.271	3.717	8.698	11.86	9.349	4.128	0.975	0.318	0.321	0.340	0.241	0.286	0.285	0.266	0.283	0.258	0.256	0.255	0.283	0.278	0.307	0.236	0.298	0.287	0.293	0.266	0.281
250.0	52.42	145.4	194.0	247.7	940.6	2322	2275	584.4	24.83	5.289	3.908	3.175	2.581	2.056	1.810	1.725	1.262	1.017	1.077	0.875	0.945	0.904	0.794	0.722	0.646	0.628	0.597	0.603	0.566	0.552	0.522	0.494	0.488	0.437	0.424	0.357	0.360	0.372	0.396	0.362	0.359	0.407	0.401	0.353	0.394	0.393	0.489	0.743	0.787	0.726	0.614	1.059	2.325	4.729	7.886	11.31	12.71	9.469	4.699	1.049	0.316	0.278	0.264	0.293	0.278	0.273	0.276	0.261	0.251	0.286	0.296	0.271	0.286	0.271	0.284	0.269	0.306
255.0	27.63	57.43	182.4	286.8	282.5	655.1	2424	2805	284.1	21.33	5.283	3.860	3.299	2.490	1.807	1.611	1.464	1.315	1.073	0.851	0.979	0.791	0.701	0.683	0.717	0.687	0.572	0.621	0.540	0.594	0.447	0.469	0.425	0.430	0.465	0.369	0.417	0.341	0.389	0.378	0.388	0.375	0.366	0.323	0.418	0.319	0.351	0.413	0.502	0.969	1.136	1.010	0.922	1.385	2.042	3.078	6.058	13.24	21.08	16.02	6.296	1.147	0.329	0.278	0.284	0.356	0.276	0.251	0.295	0.296	0.308	0.246	0.278	0.262	0.322	0.290	0.303
260.0	29.68	28.88	84.77	312.3	273.7	200.9	833.6	3424	2319	217.0	11.00	5.043	3.531	2.750	2.033	1.673	1.543	1.473	1.251	0.979	1.064	0.939	0.851	0.857	0.721	0.691	0.594	0.584	0.511	0.578	0.627	0.499	0.470	0.524	0.451	0.444	0.442	0.380	0.373	0.396	0.349	0.379	0.340	0.353	0.346	0.323	0.317	0.329	0.343	0.506	0.956	1.493	1.451	1.005	0.841	1.054	1.713	4.018	11.69	20.14	23.55	14.67	4.244	0.560	0.294	0.307	0.281	0.268	0.313	0.280	0.307	0.256	0.226	0.317	0.279	0.298	0.328
265.0	32.99	23.26	38.24	170.4	392.7	217.9	238.1	1362	4231	1963	158.7	7.194	4.148	3.244	2.240	1.880	1.769	1.518	1.310	0.995	1.285	1.016	0.902	0.827	0.865	0.700	0.650	0.660	0.534	0.595	0.611	0.557	0.472	0.524	0.452	0.343	0.518	0.406	0.346	0.338	0.352	0.371	0.341	0.342	0.369	0.391	0.368	0.328	0.290	0.323	0.438	1.020	1.790	1.876	1.297	0.714	0.765	1.276	3.091	6.813	16.24	25.44	23.81	11.06	2.097	0.336	0.385	0.280	0.324	0.256	0.361	0.249	0.321	0.276	0.316	0.281	0.362
270.0	38.51	31.99	32.70	69.45	232.4	422.9	279.4	371.3	1542	3613	3445	643.4	24.55	4.489	3.053	2.322	1.638	1.648	1.407	1.201	1.147	1.000	1.001	0.745	0.789	0.648	0.681	0.688	0.710	0.628	0.567	0.585	0.510	0.623	0.511	0.403	0.404	0.377	0.396	0.331	0.357	0.329	0.369	0.370	0.355	0.399	0.399	0.326	0.320	0.265	0.306	0.472	0.861	1.335	2.018	2.109	1.877	1.099	1.093	1.878	4.166	8.232	14.45	20.69	22.70	17.95	9.101	2.072	0.415	0.313	0.308	0.315	0.387	0.309	0.305	0.298	0.342
275.0	65.34	76.12	67.68	66.27	109.2	272.9	553.9	300.7	391.1	984.6	3448	5300	829.2	18.63	4.562	3.011	2.363	1.895	1.644	1.525	1.312	1.100	1.040	0.932	0.922	0.804	0.674	0.653	0.652	0.645	0.674	0.589	0.551	0.586	0.504	0.464	0.466	0.372	0.436	0.315	0.396	0.330	0.454	0.396	0.440	0.482	0.444	0.425	0.390	0.352	0.341	0.394	0.531	0.678	0.918	1.465	2.775	3.132	2.095	1.039	1.350	2.266	3.624	5.205	8.158	17.74	30.53	27.35	11.65	1.928	0.383	0.326	0.417	0.309	0.262	0.296	0.357
280.0	92.48	131.8	122.1	95.27	99.62	157.4	420.4	562.0	214.8	278.6	1097	4801	4673	137.7	8.964	4.024	3.096	2.112	1.774	1.497	1.284	1.314	1.022	1.063	0.929	0.932	0.696	0.862	0.685	0.675	0.627	0.550	0.622	0.556	0.497	0.431	0.449	0.460	0.438	0.417	0.373	0.345	0.421	0.412	0.452	0.533	0.601	0.628	0.564	0.484	0.484	0.524	0.540	0.643	0.688	1.000	1.401	2.551	3.812	3.004	1.518	0.929	1.254	1.620	2.337	5.102	12.28	25.32	32.47	24.19	7.762	0.873	0.464	0.315	0.299	0.341	0.407
285.0	133.8	176.3	175.5	130.7	100.7	116.9	210.4	567.3	333.0	154.6	316.9	1660	5405	3512	96.00	5.929	3.919	2.626	2.092	1.953	1.407	1.402	1.116	1.101	0.856	0.818	0.728	0.776	0.703	0.682	0.660	0.547	0.535	0.546	0.518	0.474	0.448	0.445	0.447	0.410	0.420	0.404	0.512	0.550	0.471	0.628	0.611	0.714	0.806	0.595	0.597	0.614	0.533	0.687	0.634	0.685	0.951	1.268	2.225	3.674	3.605	1.923	0.990	0.977	1.005	1.645	3.298	7.281	16.63	29.26	32.22	18.13	3.905	0.563	0.307	0.365	0.353
290.0	162.3	225.1	240.3	173.3	115.9	103.9	127.8	261.1	514.9	445.7	202.0	464.7	1717	3852	2839	399.7	17.83	3.369	2.438	2.011	1.611	1.447	1.357	1.108	0.885	0.880	0.772	0.796	0.750	0.766	0.742	0.620	0.592	0.588	0.558	0.521	0.557	0.498	0.488	0.479	0.535	0.461	0.489	0.600	0.554	0.717	0.703	0.792	1.008	0.805	0.744	0.745	0.619	0.664	0.646	0.638	0.765	0.863	1.027	1.613	2.420	3.034	3.133	2.352	1.373	1.015	1.353	2.237	4.358	8.289	14.56	20.86	23.71	21.58	11.98	3.765	0.666
295.0	183.3	248.8	256.2	192.4	126.4	106.6	110.3	142.9	245.8	627.8	553.1	254.3	483.4	989.5	2541	4342	543.9	11.72	3.581	2.693	1.890	1.651	1.521	1.207	1.097	0.795	0.923	0.912	0.797	0.772	0.704	0.711	0.633	0.554	0.622	0.513	0.564	0.564	0.564	0.438	0.489	0.498	0.465	0.573	0.621	0.693	0.735	0.856	0.947	0.831	0.818	0.903	0.747	0.705	0.649	0.687	0.784	0.796	0.767	0.917	1.143	1.478	1.930	3.463	4.288	2.356	1.290	1.341	1.731	2.445	3.795	5.268	6.907	13.07	25.06	29.58	16.96
300.0	191.4	264.4	271.7	207.4	135.0	113.9	119.6	134.2	181.2	391.3	822.8	425.1	242.7	312.2	755.5	3487	3764	82.14	6.232	3.084	2.303	1.970	1.501	1.261	1.272	0.943	0.858	0.881	0.934	0.658	0.853	0.766	0.643	0.721	0.593	0.606	0.613	0.645	0.605	0.476	0.515	0.505	0.538	0.627	0.588	0.693	0.764	0.998	0.959	0.851	0.857	0.887	0.719	0.697	0.588	0.678	0.797	0.713	0.745	0.940	1.018	1.133	1.253	2.078	3.786	4.639	3.548	1.916	1.291	1.310	1.560	1.850	2.175	3.608	8.466	19.20	30.26
305.0	183.5	255.1	262.5	198.3	136.9	121.0	141.6	157.1	191.0	279.2	613.5	803.4	296.1	190.1	249.6	1102	3909	2874	62.58	4.255	2.732	2.186	1.758	1.428	1.184	0.951	0.984	1.000	0.944	0.898	0.943	0.793	0.631	0.659	0.748	0.596	0.530	0.536	0.553	0.552	0.568	0.566	0.526	0.618	0.593	0.707	0.674	0.938	0.839	0.792	0.901	1.004	0.708	0.734	0.728	0.690	0.807	0.891	0.875	1.029	1.038	1.194	1.208	1.552	1.987	3.030	4.757	3.823	2.456	1.410	1.172	1.221	1.324	1.458	2.427	5.116	11.64
310.0	176.3	216.9	239.3	190.3	142.6	130.6	146.6	174.7	201.6	256.4	368.1	641.0	654.3	282.8	159.2	316.6	1171	2776	2729	284.3	13.63	2.812	2.154	1.695	1.267	1.187	1.095	0.989	0.930	0.897	0.867	0.699	0.653	0.719	0.710	0.553	0.539	0.600	0.546	0.510	0.486	0.589	0.540	0.597	0.520	0.687	0.746	0.875	0.845	0.720	0.782	0.873	0.753	0.784	0.729	0.740	0.841	0.873	0.996	1.103	1.103	1.230	1.292	1.371	1.567	1.825	2.486	3.167	3.809	3.562	2.489	1.439	1.310	1.115	1.234	1.800	3.278
315.0	157.7	203.2	218.8	179.4	151.3	140.2	149.4	179.1	205.8	250.8	303.1	375.1	540.8	618.6	219.6	154.9	322.8	683.5	1819	3279	418.0	10.61	2.864	1.896	1.666	1.401	1.240	1.143	0.875	0.935	0.936	0.772	0.739	0.657	0.624	0.594	0.547	0.644	0.640	0.578	0.558	0.493	0.526	0.606	0.579	0.643	0.667	0.818	0.854	0.763	0.737	0.858	0.742	0.758	0.717	0.771	0.874	0.903	1.059	1.042	1.055	1.179	1.332	1.389	1.545	1.531	1.748	1.928	2.300	2.515	3.696	3.398	2.140	1.261	1.119	1.119	1.391
320.0	166.9	210.0	214.4	179.3	144.4	139.2	158.9	178.1	214.0	245.1	284.7	315.9	363.4	593.9	437.1	153.6	145.3	198.4	498.1	2367	2846	63.30	5.431	2.525	1.913	1.532	1.343	1.006	1.017	0.943	0.887	0.874	0.701	0.594	0.618	0.738	0.582	0.562	0.602	0.545	0.512	0.486	0.497	0.530	0.581	0.649	0.661	0.773	0.859	0.801	0.764	0.836	0.747	0.667	0.718	0.744	0.883	1.019	1.025	1.022	1.113	1.169	1.366	1.382	1.534	1.389	1.493	1.640	1.689	1.830	2.461	3.275	3.888	2.681	1.535	1.105	0.984
325.0	180.9	228.3	241.2	197.9	149.3	143.0	158.7	177.4	209.7	246.7	286.6	304.0	302.7	391.2	565.3	274.0	119.0	99.90	147.6	688.8	2667	2215	52.26	3.907	2.146	1.679	1.501	1.160	1.179	0.983	0.881	0.829	0.627	0.622	0.726	0.624	0.578	0.539	0.655	0.531	0.455	0.432	0.504	0.531	0.526	0.592	0.693	0.797	0.822	0.802	0.774	0.914	0.805	0.736	0.760	0.860	0.905	1.026	0.991	1.055	1.229	1.089	1.228	1.323	1.470	1.332	1.367	1.561	1.645	1.660	1.612	2.124	2.863	3.500	2.948	1.749	0.984
330.0	182.9	249.4	277.6	244.2	185.2	161.6	165.8	192.7	212.8	251.4	286.7	303.1	295.5	298.4	381.6	435.6	248.0	104.5	85.46	191.0	769.1	1962	2069	235.8	12.93	2.496	1.774	1.457	1.183	1.117	1.000	0.821	0.757	0.819	0.685	0.671	0.628	0.654	0.533	0.561	0.445	0.546	0.505	0.565	0.547	0.698	0.752	0.941	0.943	0.874	0.859	0.996	0.839	0.852	0.772	0.854	1.038	0.983	0.962	1.060	1.193	1.225	1.414	1.371	1.338	1.454	1.543	1.586	1.609	1.545	1.531	1.583	1.905	2.172	2.642	3.007	2.749
335.0	203.4	250.3	309.0	291.0	223.6	196.4	185.4	201.7	222.8	259.9	295.1	313.3	299.8	286.8	278.5	319.5	429.7	219.4	93.39	100.8	214.4	484.1	1321	2552	362.6	11.43	2.471	1.876	1.563	1.297	1.144	0.981	0.838	0.924	0.675	0.708	0.599	0.661	0.570	0.577	0.512	0.532	0.513	0.540	0.636	0.819	0.791	1.011	1.094	0.966	0.884	0.992	1.003	1.052	0.986	1.056	1.015	1.031	1.197	1.212	1.244	1.286	1.252	1.509	1.382	1.431	1.559	1.672	1.642	1.432	1.638	1.800	1.699	1.710	1.680	1.891	2.599
340.0	209.2	284.5	331.5	322.8	253.5	217.0	207.3	219.4	245.9	277.9	301.3	320.9	309.2	296.4	267.0	255.1	364.8	379.1	154.7	100.4	107.7	151.3	366.9	1801	2243	55.56	5.262	2.557	1.864	1.504	1.175	1.018	0.961	0.788	0.675	0.625	0.679	0.668	0.601	0.558	0.586	0.623	0.510	0.600	0.622	0.751	0.743	0.990	1.112	1.024	1.149	1.094	1.166	1.182	1.015	1.123	1.062	1.224	1.262	1.160	1.289	1.329	1.432	1.477	1.408	1.657	1.647	1.598	1.674	1.604	1.666	1.720	1.683	1.655	1.588	1.515	1.883
345.0	209.0	293.9	358.1	345.9	289.6	246.3	238.7	252.3	275.0	297.3	316.5	324.8	322.5	307.7	280.4	247.8	274.0	399.3	288.3	132.6	103.6	93.15	125.3	528.9	2065	1758	46.92	3.598	2.177	1.572	1.136	1.064	0.924	0.883	0.741	0.642	0.596	0.666	0.602	0.527	0.549	0.494	0.458	0.658	0.735	0.812	0.842	1.103	1.131	1.160	1.171	1.249	1.242	1.204	1.077	1.092	1.269	1.232	1.233	1.377	1.292	1.416	1.650	1.561	1.653	1.734	1.831	1.719	1.758	1.732	1.667	1.634	1.732	1.635	1.709	1.443	1.634
350.0	218.6	306.0	367.9	371.7	332.8	285.6	283.6	294.2	312.9	329.1	341.7	346.2	344.2	328.5	305.5	277.1	265.7	302.7	365.7	272.6	149.4	113.4	98.01	167.6	605.6	1498	1590	212.6	12.30	2.093	1.496	1.136	0.976	0.837	0.782	0.698	0.627	0.663	0.650	0.560	0.562	0.578	0.532	0.605	0.693	0.797	0.839	1.085	1.288	1.088	1.163	1.339	1.360	1.310	1.266	1.296	1.361	1.318	1.423	1.475	1.599	1.703	1.690	1.717	1.624	1.718	1.681	1.760	1.643	1.809	1.753	1.820	1.845	1.832	1.826	1.747	1.897
355.0	211.3	308.3	385.4	396.2	369.5	325.5	317.9	331.0	344.7	363.4	369.5	364.6	360.5	355.6	332.7	313.5	292.1	287.4	304.1	377.7	280.2	162.8	126.7	116.6	187.5	381.7	1002	1907	322.2	10.33	2.025	1.528	1.208	1.008	0.899	0.770	0.621	0.648	0.658	0.611	0.565	0.547	0.506	0.624	0.768	0.783	0.826	1.134	1.237	1.104	1.291	1.425	1.460	1.637	1.497	1.489	1.592	1.376	1.480	1.574	1.732	1.913	1.750	1.802	1.884	1.726	1.790	1.890	1.790	2.027	1.859	1.798	2.093	1.912	2.026	1.872	1.898
360.0	232.6	309.7	410.0	419.9	394.4	361.5	348.7	364.8	371.5	389.4	389.8	379.7	376.2	367.7	357.9	338.0	319.7	307.8	301.1	350.4	388.6	240.4	164.5	130.0	119.4	136.1	286.8	1368	1785	52.11	4.712	1.807	1.315	1.087	0.950	0.761	0.667	0.707	0.578	0.593	0.634	0.513	0.523	0.586	0.750	0.681	0.914	1.103	1.262	1.182	1.277	1.590	1.650	1.671	1.589	1.539	1.677	1.558	1.705	1.801	1.831	1.870	1.939	1.921	2.073	1.808	2.100	2.022	1.878	2.254	1.780	2.121	2.181	2.036	2.001	2.053	2.281
365.0	224.6	311.6	405.3	444.9	422.1	399.8	389.9	388.9	391.5	412.1	414.7	405.2	397.7	384.2	375.1	357.5	345.2	340.3	327.3	329.2	397.5	356.5	218.5	161.1	127.0	102.1	111.8	417.8	1658	1459	43.30	3.231	1.748	1.206	0.989	0.757	0.694	0.606	0.749	0.573	0.567	0.665	0.667	0.551	0.750	0.722	0.934	1.129	1.129	1.254	1.349	1.642	1.730	1.597	1.650	1.671	1.650	1.858	1.814	1.759	1.845	2.064	1.953	2.099	2.211	1.859	2.190	1.906	2.038	2.009	2.057	2.158	2.170	2.194	2.058	2.191	2.546
370.0	233.7	329.9	429.6	470.2	466.6	450.3	438.2	430.9	436.0	440.9	443.5	432.1	422.6	412.6	395.4	386.2	383.0	377.8	373.2	359.0	370.0	408.1	349.4	230.7	169.9	130.6	102.7	148.6	497.6	1280	1377	187.5	11.28	2.032	1.166	1.015	0.751	0.690	0.680	0.669	0.666	0.617	0.614	0.605	0.762	0.833	0.946	1.119	1.259	1.250	1.344	1.694	1.686	1.832	1.698	1.897	2.036	1.835	1.987	1.928	2.049	2.221	1.878	2.227	2.215	2.215	2.051	2.188	2.199	2.122	2.188	2.339	2.203	2.388	2.322	2.302	2.563
375.0	241.5	365.9	460.0	501.4	515.1	487.1	478.6	463.5	467.4	472.1	468.4	466.3	458.9	440.3	417.0	411.7	412.9	413.7	409.3	399.6	391.9	389.3	427.7	359.3	233.5	177.6	141.1	122.4	171.7	338.3	916.4	1606	273.3	8.494	1.662	1.195	0.939	0.838	0.734	0.688	0.636	0.598	0.696	0.677	0.814	0.875	1.066	1.119	1.307	1.324	1.484	1.934	1.797	1.989	1.878	1.876	2.232	1.997	2.102	2.237	2.139	2.126	2.141	2.376	2.279	2.377	2.272	2.163	2.253	2.340	2.330	2.493	2.224	2.418	2.347	2.548	2.710
380.0	263.0	364.9	485.3	530.1	542.3	527.1	496.2	491.7	493.3	493.1	492.1	487.3	482.1	458.6	436.5	422.9	425.1	430.1	439.4	427.1	419.3	401.7	414.6	437.5	311.4	220.8	176.7	140.6	118.3	133.3	282.9	1205	1411	42.93	3.924	1.554	1.235	0.983	0.759	0.733	0.745	0.626	0.719	0.760	0.761	0.983	0.968	1.276	1.377	1.409	1.440	1.868	2.103	2.012	2.009	2.128	2.360	2.097	2.187	2.329	2.458	2.232	2.475	2.430	2.430	2.338	2.253	2.298	2.446	2.361	2.651	2.338	2.546	2.417	2.497	2.710	2.708
385.0	272.3	378.2	495.1	545.3	566.6	541.9	523.2	520.6	513.2	508.5	511.9	502.2	496.8	472.2	446.8	431.9	441.8	442.0	454.5	450.5	439.4	425.8	415.6	444.4	400.3	273.4	212.7	167.9	125.8	101.5	121.9	382.7	1331	1072	33.86	2.464	1.570	1.176	0.713	0.734	0.778	0.679	0.692	0.777	0.710	0.948	1.077	1.193	1.401	1.407	1.524	1.964	1.889	2.043	2.249	2.206	2.388	2.284	2.399	2.548	2.495	2.358	2.345	2.482	2.491	2.381	2.410	2.314	2.550	2.482	2.556	2.413	2.353	2.591	2.558	2.824	2.952
390.0	263.3	401.8	494.7	574.7	581.4	560.9	550.5	546.7	529.9	532.6	524.5	513.2	506.3	476.9	449.5	440.3	443.8	453.8	465.5	470.2	464.5	451.8	432.5	425.8	427.7	369.4	266.1	203.7	154.9	118.8	99.58	136.7	404.3	967.8	966.8	143.3	7.855	1.578	1.030	0.926	0.791	0.756	0.742	0.721	0.871	0.970	1.072	1.318	1.497	1.469	1.556	2.052	2.120	2.221	2.213	2.108	2.540	2.534	2.472	2.535	2.532	2.493	2.424	2.491	2.454	2.458	2.457	2.350	2.482	2.481	2.540	2.465	2.567	2.583	2.682	2.600	3.031
395.0	269.7	399.1	527.4	575.0	604.5	591.1	563.2	558.7	555.8	555.7	549.1	528.8	508.7	486.1	458.6	443.4	445.9	454.7	467.9	481.9	480.8	472.7	454.2	436.2	415.4	411.0	357.4	253.2	194.5	152.3	119.5	99.58	129.4	249.4	680.8	1143	211.0	5.345	1.506	1.061	0.840	0.738	0.744	0.623	0.854	0.906	1.062	1.561	1.523	1.499	1.640	2.155	2.152	2.217	2.392	2.266	2.625	2.449	2.423	2.652	2.471	2.536	2.543	2.476	2.524	2.584	2.419	2.418	2.436	2.498	2.598	2.466	2.705	2.689	2.506	2.757	2.972
400.0	283.2	406.4	542.8	595.8	603.8	607.8	588.3	577.8	564.6	555.4	555.2	536.4	520.1	488.6	462.6	440.5	444.3	460.1	466.2	480.5	485.0	482.8	469.2	447.4	416.6	401.0	403.8	313.1	225.2	178.7	142.7	106.8	81.89	88.75	200.1	888.4	996.9	35.57	2.800	1.244	1.069	0.916	0.812	0.742	0.879	1.039	1.052	1.446	1.618	1.575	1.706	2.297	2.148	2.412	2.262	2.296	2.574	2.568	2.544	2.579	2.653	2.624	2.455	2.512	2.367	2.785	2.654	2.567	2.668	2.483	2.767	2.545	2.587	2.567	2.620	2.907	2.905
405.0	273.4	397.7	532.8	587.1	610.6	609.8	598.7	585.6	567.7	573.8	558.5	542.1	523.5	487.0	455.7	436.7	436.5	452.4	459.0	480.6	480.5	483.7	472.0	455.0	427.2	397.6	402.6	373.9	262.9	204.4	166.4	124.4	82.30	60.14	71.64	274.8	974.4	787.9	27.90	1.870	1.189	0.979	0.890	0.790	0.913	1.121	1.086	1.369	1.625	1.490	1.743	2.059	2.243	2.248	2.246	2.332	2.493	2.566	2.644	2.608	2.631	2.613	2.436	2.412	2.709	2.569	2.655	2.496	2.460	2.429	2.717	2.756	2.776	2.528	2.555	2.889	2.994
410.0	286.8	399.5	519.9	595.4	612.3	609.5	598.0	590.4	578.2	577.3	563.9	539.2	521.8	478.4	445.8	427.1	425.9	430.1	448.2	461.9	472.4	478.2	470.7	461.3	432.0	402.7	379.9	376.8	330.0	244.9	190.8	144.1	97.69	69.00	52.62	86.87	294.6	787.2	573.5	125.1	5.782	1.224	0.997	0.813	1.007	1.107	1.111	1.367	1.457	1.550	1.686	2.195	2.301	2.259	2.339	2.280	2.523	2.526	2.568	2.618	2.753	2.682	2.575	2.550	2.674	2.704	2.504	2.543	2.585	2.584	2.739	2.534	2.540	2.493	2.600	2.630	2.828
415.0	266.7	387.8	504.9	580.0	594.2	603.7	596.4	584.9	577.7	569.6	566.9	538.0	503.7	470.5	435.0	412.0	409.5	411.8	431.2	446.2	450.9	460.7	459.4	451.9	430.9	407.8	376.2	350.6	345.7	299.8	220.4	163.0	118.2	83.30	58.48	51.86	87.02	199.3	469.7	813.9	170.5	4.000	1.288	1.016	0.990	1.132	1.148	1.465	1.611	1.604	1.686	2.075	2.196	2.284	2.424	2.401	2.561	2.733	2.562	2.644	2.618	2.800	2.650	2.588	2.611	2.563	2.542	2.385	2.686	2.557	2.538	2.619	2.566	2.339	2.520	2.541	2.686
420.0	254.5	376.9	505.2	570.9	583.3	605.4	580.8	586.9	576.1	561.9	551.7	530.1	497.9	457.8	420.9	397.4	385.5	400.0	409.2	424.5	433.2	440.8	446.0	443.8	427.5	400.6	372.0	346.1	327.9	324.5	250.9	177.2	130.1	95.48	66.78	49.85	44.26	60.55	136.5	631.8	725.6	31.99	2.163	1.170	1.081	1.060	1.121	1.448	1.560	1.431	1.557	1.994	2.062	2.318	2.335	2.307	2.345	2.725	2.540	2.682	2.553	2.781	2.502	2.545	2.608	2.564	2.601	2.440	2.359	2.653	2.367	2.409	2.293	2.403	2.331	2.543	2.774
425.0	241.6	384.5	463.5	551.0	573.2	574.7	570.5	575.1	566.6	561.9	549.0	529.2	490.4	447.6	407.8	380.1	373.0	379.1	392.4	409.3	414.7	422.5	430.1	424.1	415.5	396.3	372.5	340.5	317.7	312.1	283.4	197.4	138.9	103.3	74.84	53.67	39.16	33.35	43.31	194.2	704.0	544.8	24.61	1.609	1.208	1.310	1.223	1.288	1.501	1.435	1.541	1.964	2.154	2.220	2.331	2.394	2.418	2.454	2.376	2.411	2.649	2.619	2.590	2.605	2.562	2.508	2.658	2.473	2.178	2.704	2.288	2.300	2.282	2.500	2.373	2.540	2.770
430.0	289.0	365.1	470.2	532.5	564.2	560.4	565.1	564.6	557.2	555.1	540.1	510.5	476.5	431.4	394.2	364.3	355.3	357.0	367.8	380.5	391.1	400.0	408.1	407.3	398.1	383.7	363.0	337.2	309.2	288.6	276.7	233.7	160.3	114.5	84.30	61.88	44.57	32.00	26.53	54.85	208.5	508.6	457.1	111.8	5.266	1.462	1.206	1.431	1.470	1.380	1.495	1.926	2.049	2.117	2.249	2.263	2.496	2.413	2.462	2.515	2.616	2.524	2.566	2.540	2.451	2.593	2.625	2.357	2.434	2.457	2.339	2.205	2.265	2.361	2.283	2.410	2.367
435.0	485.4	353.9	453.3	499.2	534.4	540.8	537.8	551.8	558.9	546.2	526.0	495.0	463.0	414.3	379.1	344.5	333.7	330.6	345.4	354.1	365.1	373.0	382.7	384.5	379.2	366.4	348.8	326.9	305.6	281.3	252.8	235.7	194.1	129.3	93.83	70.62	50.72	36.98	26.61	26.09	56.65	126.0	352.2	663.3	158.7	4.150	1.433	1.523	1.488	1.366	1.469	1.824	1.895	1.957	2.094	2.013	2.172	2.494	2.482	2.465	2.555	2.566	2.488	2.540	2.502	2.471	2.426	2.264	2.305	2.592	2.397	2.394	2.251	2.412	2.196	2.245	2.097
440.0	742.1	373.4	436.3	482.6	518.6	530.3	536.0	534.2	546.8	530.3	513.6	482.6	448.7	399.0	365.7	329.9	320.8	319.0	325.4	332.0	344.5	354.0	364.5	369.2	359.5	352.3	337.1	320.8	301.2	276.0	242.3	219.4	202.5	149.5	102.0	76.29	55.32	40.84	29.68	22.31	24.21	36.46	100.4	506.0	618.7	29.64	2.363	1.570	1.474	1.360	1.513	1.962	1.987	2.043	2.128	2.016	2.216	2.259	2.362	2.410	2.535	2.475	2.194	2.704	2.444	2.376	2.523	2.297	2.233	2.363	2.300	2.266	2.104	2.253	2.013	1.979	2.079
445.0	895.6	515.2	429.2	477.8	508.9	516.3	515.2	517.4	529.5	514.8	503.1	471.5	432.1	384.3	355.8	315.4	302.4	301.0	306.6	314.1	325.6	335.2	339.8	346.5	342.2	335.2	325.6	308.6	292.6	266.1	237.3	205.0	190.1	167.4	113.0	80.16	59.92	45.24	32.68	24.47	19.08	18.01	30.05	154.4	593.6	496.2	22.22	2.034	1.539	1.442	1.565	1.927	1.820	1.997	2.102	2.026	1.975	2.365	2.314	2.531	2.467	2.414	2.434	2.835	2.325	2.145	2.444	2.241	2.277	2.157	2.392	2.241	2.117	2.121	2.026	2.000	1.938
450.0	623.6	938.2	467.0	441.9	477.2	483.0	490.6	497.0	502.5	497.0	485.5	446.9	406.3	365.9	326.3	296.3	281.6	278.7	280.5	289.2	296.8	306.2	312.9	317.6	314.7	309.6	301.4	286.6	274.5	253.8	228.3	196.9	170.5	157.9	131.2	89.60	65.04	48.72	36.87	27.46	20.45	16.22	15.65	41.29	173.4	444.8	461.0	103.4	5.263	1.535	1.550	1.807	1.795	1.993	1.963	1.919	2.057	2.291	2.360	2.285	2.371	2.296	2.320	2.433	2.315	2.330	2.237	2.105	2.122	2.096	2.149	2.058	2.088	1.906	1.880	2.016	2.015
455.0	300.5	1102	825.8	418.6	436.5	445.4	458.1	464.4	471.5	465.6	450.6	419.3	380.6	340.4	301.6	273.5	255.1	254.4	253.0	260.1	266.7	273.1	282.8	285.4	285.2	279.8	273.2	264.8	252.8	237.4	217.9	185.3	157.9	136.9	128.6	107.3	72.39	51.56	39.48	30.98	23.10	18.00	14.23	17.32	44.67	108.3	333.7	550.8	134.6	4.320	1.548	1.742	1.679	1.788	1.835	1.755	1.959	2.159	2.160	2.092	2.267	2.152	2.080	2.398	2.162	2.136	2.171	2.061	1.940	1.855	1.794	1.922	1.986	1.709	1.783	1.877	1.837
460.0	197.0	771.8	1273	452.3	408.2	418.9	428.8	429.8	441.4	442.1	427.3	393.3	357.7	319.4	279.6	250.2	237.3	234.2	231.8	238.8	244.5	248.6	257.7	261.1	261.9	257.7	249.3	243.5	236.3	220.9	203.8	175.2	149.3	126.1	114.0	109.0	82.68	55.82	42.30	33.13	24.80	19.66	15.22	12.97	16.84	29.71	90.32	379.0	491.4	23.01	2.545	1.839	1.607	1.719	1.825	1.712	1.866	1.824	2.111	2.095	2.013	2.165	2.120	2.218	2.017	1.986	1.820	1.837	1.987	1.925	1.660	1.850	1.576	1.714	1.864	1.765	1.724
465.0	165.5	435.3	1518	701.6	389.8	400.0	403.2	404.8	419.2	417.5	404.8	371.6	335.5	295.1	261.3	232.1	220.4	214.5	217.5	216.2	222.4	227.3	234.5	236.2	241.3	236.1	233.5	224.5	219.4	207.4	191.4	165.8	142.4	121.0	103.4	99.70	89.25	61.05	44.25	34.27	26.37	21.16	16.02	12.82	11.64	12.67	25.40	109.6	437.6	383.3	20.00	2.223	1.769	1.740	1.600	1.635	1.703	1.756	1.895	2.022	2.046	1.889	2.149	2.102	2.039	1.951	1.833	1.807	1.768	1.624	1.655	1.681	1.696	1.621	1.704	1.719	1.581
470.0	162.5	268.4	1011	1387	438.7	357.3	364.3	371.8	381.7	376.3	369.4	335.2	301.5	269.2	234.9	210.9	197.7	191.2	192.3	191.5	195.0	201.2	205.9	208.5	211.2	207.6	203.8	200.2	195.6	185.1	171.6	152.7	131.5	112.0	95.51	84.53	81.79	69.90	49.49	35.12	27.88	22.61	17.85	14.38	11.53	10.07	11.35	29.24	122.9	300.5	339.5	100.9	6.167	1.779	1.524	1.501	1.668	1.735	1.709	1.779	1.805	1.801	1.943	1.810	1.812	1.852	1.755	1.717	1.521	1.597	1.516	1.538	1.523	1.550	1.423	1.545	1.434
475.0	158.4	198.6	456.1	1543	711.9	319.9	329.4	335.8	339.9	341.2	327.1	305.6	274.8	240.2	208.2	187.9	173.7	169.7	167.1	167.0	170.9	174.6	176.8	180.4	181.7	178.9	177.9	175.4	171.5	163.8	152.5	137.1	119.4	104.7	88.93	75.70	67.44	66.36	56.97	37.92	28.44	23.45	19.01	15.08	12.32	10.01	8.754	11.29	31.44	71.55	167.7	373.4	131.4	5.856	1.709	1.529	1.558	1.651	1.611	1.453	1.546	1.683	1.668	1.571	1.574	1.720	1.621	1.640	1.394	1.376	1.431	1.338	1.383	1.355	1.437	1.420	1.357
480.0	177.3	195.5	276.2	1022	1474	376.3	304.1	311.6	315.9	316.1	301.9	283.1	252.4	222.3	195.6	172.2	158.5	154.0	150.8	152.8	154.6	156.2	160.0	163.7	164.3	162.7	161.7	158.3	157.4	148.5	140.4	126.3	111.6	96.80	83.55	71.51	61.78	57.65	59.47	43.84	30.01	23.38	18.89	16.19	12.74	10.95	8.606	7.820	11.42	19.45	43.14	207.4	366.4	28.21	3.016	1.567	1.583	1.505	1.530	1.440	1.513	1.543	1.680	1.471	1.530	1.620	1.621	1.529	1.357	1.307	1.439	1.306	1.356	1.331	1.352	1.312	1.192
485.0	158.2	199.2	235.1	560.8	1706	573.2	285.9	286.7	296.3	294.3	281.7	266.9	236.5	205.6	184.1	159.5	147.3	142.2	138.9	141.7	138.6	142.4	145.7	147.6	148.5	150.6	146.8	145.1	144.2	138.7	132.6	117.7	104.6	91.38	79.66	68.43	58.45	51.48	54.17	49.07	34.11	24.14	19.37	15.94	13.10	11.30	9.328	7.286	6.931	7.936	12.54	56.07	266.6	318.7	24.48	1.971	1.573	1.610	1.410	1.444	1.549	1.371	1.712	1.402	1.405	1.296	1.430	1.428	1.312	1.412	1.356	1.162	1.231	1.302	1.169	1.301	1.133
490.0	126.1	205.2	209.6	304.0	1080	1391	355.7	261.6	271.6	266.6	263.1	244.1	215.2	187.6	165.5	145.5	133.1	127.4	126.0	125.1	124.5	127.5	131.7	131.0	132.9	131.6	130.6	129.9	127.8	124.2	117.5	107.0	96.76	85.10	75.04	64.67	55.49	48.35	44.95	44.82	40.31	27.64	20.58	16.78	14.23	11.80	9.627	8.057	6.221	5.462	5.878	15.11	70.27	197.9	250.6	107.6	8.614	1.569	1.436	1.449	1.425	1.393	1.474	1.395	1.416	1.395	1.326	1.259	1.279	1.405	1.256	1.107	1.119	1.072	1.057	1.143	1.177
495.0	95.60	180.0	224.9	222.4	452.2	1473	835.8	242.5	241.9	245.4	238.9	219.4	192.2	167.7	149.5	129.2	119.0	113.3	111.7	108.9	108.5	112.1	112.0	113.8	116.9	115.0	115.8	114.9	113.4	110.3	105.1	94.96	86.90	77.75	68.49	58.85	51.67	45.20	40.26	36.40	37.85	32.11	22.56	16.59	14.19	11.83	9.991	8.743	6.733	5.333	4.543	6.090	17.86	46.50	118.3	327.3	169.1	9.663	1.498	1.396	1.301	1.282	1.329	1.277	1.287	1.356	1.123	1.157	1.076	1.206	1.102	1.253	1.018	0.981	1.056	1.011	1.056
500.0	89.34	160.7	235.1	203.6	260.8	959.3	1424	282.1	220.7	221.8	217.6	199.3	177.7	153.0	134.7	117.1	106.9	100.5	97.83	97.26	97.50	99.61	100.1	101.9	103.5	103.5	102.9	103.6	102.1	100.4	94.67	87.05	79.09	71.45	62.64	55.47	48.06	42.34	37.68	33.15	32.32	32.82	25.92	18.19	14.58	11.98	9.785	8.232	6.994	5.568	4.179	4.043	6.217	12.44	29.69	157.6	353.9	126.3	4.433	1.390	1.312	1.155	1.293	1.319	1.214	1.326	1.002	1.030	1.043	1.123	1.044	1.053	0.978	1.027	0.895	0.939	1.030
505.0	74.59	130.1	228.8	200.2	188.6	478.8	1581	405.8	203.2	203.2	191.1	179.6	162.9	139.3	124.9	109.1	98.62	92.40	90.02	88.68	87.30	90.37	90.15	92.12	92.80	91.41	92.66	92.58	90.47	89.70	84.62	79.54	72.66	65.42	57.23	51.15	45.17	39.99	35.24	30.67	27.44	29.10	28.41	19.64	14.19	11.91	9.884	8.030	7.121	5.621	4.229	3.880	3.615	4.797	8.562	40.13	203.0	324.9	29.47	2.491	1.217	1.160	1.147	1.171	1.087	1.106	0.969	1.003	1.035	0.895	1.023	0.862	0.966	0.985	0.951	0.928	0.880
510.0	65.16	102.1	193.9	215.0	166.4	240.7	964.4	1187	250.7	182.2	175.4	157.6	141.4	124.0	107.2	94.58	86.48	81.32	78.96	77.67	75.85	77.39	76.87	78.50	78.98	78.37	80.29	79.89	78.87	78.61	74.39	69.50	63.71	57.05	50.36	45.29	40.13	35.94	31.86	27.34	24.17	23.43	25.10	22.54	16.17	11.64	9.748	7.930	6.531	5.620	4.490	3.734	3.191	3.159	3.693	10.62	50.57	159.3	224.4	111.9	9.543	1.149	1.051	1.154	0.935	1.054	0.898	0.899	0.953	0.867	0.906	0.884	0.887	0.829	0.862	0.818	0.823
515.0	63.72	86.47	135.1	209.8	170.4	166.9	374.3	1325	674.6	158.3	152.6	139.1	123.4	106.5	94.93	82.17	74.48	69.76	67.37	66.73	65.75	65.46	65.52	66.41	66.81	66.62	67.29	66.74	66.27	67.36	63.07	60.65	54.72	49.09	44.63	39.69	35.66	32.05	28.11	25.06	22.40	20.11	18.96	20.89	18.93	12.37	9.115	8.002	6.384	5.405	4.527	4.155	3.279	2.613	2.654	4.214	12.88	36.95	82.91	236.9	156.8	11.21	1.108	0.998	0.889	0.955	0.888	0.765	0.827	0.871	0.767	0.776	0.752	0.701	0.753	0.825	0.781
520.0	54.16	79.01	108.4	190.6	186.5	134.7	191.6	846.9	1230	193.9	135.3	122.2	109.1	96.64	85.89	74.07	67.15	63.20	59.50	58.33	57.68	56.77	58.99	60.57	58.97	59.14	57.65	58.57	59.41	58.07	56.72	53.45	47.99	43.67	39.44	36.19	32.34	29.60	25.73	22.75	20.42	18.38	16.44	17.23	19.09	14.82	9.546	7.497	6.047	4.966	4.364	3.957	3.589	2.527	2.234	2.589	4.478	9.682	20.12	98.02	253.2	111.6	4.681	0.989	0.975	0.820	0.836	0.733	0.768	0.698	0.725	0.723	0.696	0.727	0.663	0.663	0.670
525.0	51.28	65.93	92.83	143.4	203.9	133.8	142.2	408.8	1461	296.5	123.2	112.9	101.7	87.28	74.43	65.97	60.46	55.48	52.92	51.54	50.11	51.23	51.81	52.54	51.71	51.60	51.46	52.81	52.11	51.08	51.23	47.19	44.21	38.89	35.90	33.30	28.99	27.16	22.79	21.07	18.49	16.31	14.80	14.15	16.52	15.84	10.97	7.204	5.869	4.978	4.078	3.647	3.671	2.808	2.308	2.130	2.387	3.623	5.742	24.15	123.8	236.8	30.57	2.341	1.013	0.935	0.877	0.857	0.733	0.768	0.701	0.646	0.747	0.656	0.592	0.594	0.567
530.0	45.69	60.98	76.40	106.8	188.7	152.9	114.2	179.6	879.7	1043	169.0	98.13	86.75	74.82	64.97	55.97	52.15	47.38	45.03	44.72	43.67	43.59	44.23	44.86	44.03	45.13	44.34	44.71	44.31	44.73	43.24	40.78	37.88	33.61	31.47	28.91	25.37	23.88	20.81	18.50	16.70	14.57	13.19	11.80	12.47	14.05	12.15	8.214	5.935	4.756	3.958	3.319	3.021	2.910	2.527	1.974	1.907	2.112	2.391	6.444	30.08	101.3	158.9	92.23	9.881	0.894	0.805	0.795	0.699	0.721	0.643	0.598	0.651	0.627	0.550	0.609	0.623
535.0	40.19	54.97	67.01	82.76	134.0	172.2	107.0	113.4	306.1	1190	564.3	85.12	74.42	64.21	55.36	47.73	42.80	40.78	37.84	38.29	36.96	36.98	37.17	37.31	35.68	37.34	37.32	36.77	36.22	37.76	35.89	34.39	32.58	28.67	26.40	24.28	22.20	19.84	17.94	16.29	14.43	12.96	11.41	10.29	9.763	10.08	11.33	10.08	6.193	4.483	3.591	3.029	2.760	2.489	2.659	2.301	1.766	1.611	1.586	2.400	7.606	23.47	49.23	156.0	121.9	10.87	0.733	0.660	0.670	0.642	0.596	0.594	0.636	0.545	0.546	0.546	0.644
540.0	42.30	53.10	61.38	67.13	97.06	172.9	115.4	90.61	135.0	721.3	1070	114.5	65.79	55.20	48.64	41.98	37.19	35.49	34.28	33.18	32.37	32.41	31.37	32.26	32.36	31.63	32.46	32.06	32.60	33.14	31.67	30.07	28.00	24.89	23.49	20.70	19.32	17.57	16.64	14.34	13.24	11.70	10.50	9.592	8.317	8.199	9.012	10.05	7.047	4.445	3.442	2.959	2.428	2.153	2.455	2.471	1.864	1.572	1.341	1.575	2.572	6.048	11.98	58.30	172.4	87.43	4.809	0.693	0.632	0.609	0.615	0.574	0.565	0.435	0.562	0.478	0.516
545.0	41.94	49.34	51.64	60.30	76.52	138.5	137.9	80.79	84.58	304.9	1239	210.2	57.55	48.64	43.74	37.23	33.28	30.81	29.97	28.88	28.99	28.19	27.41	28.07	27.18	28.46	28.01	27.81	27.92	28.89	27.12	25.78	23.61	22.50	20.15	19.13	17.56	15.35	14.35	13.05	11.68	10.73	9.410	8.599	7.768	6.860	7.154	8.689	7.819	4.881	3.594	2.700	2.441	2.099	2.077	2.307	2.158	1.615	1.412	1.293	1.439	2.090	3.501	14.33	77.09	162.4	30.78	1.932	0.580	0.521	0.593	0.584	0.462	0.431	0.446	0.451	0.438
550.0	39.63	40.10	51.44	53.66	60.55	92.13	150.5	84.07	68.65	120.9	709.5	801.9	87.24	42.00	35.65	30.44	28.52	25.64	25.54	23.73	23.45	22.71	22.75	22.75	23.26	23.33	22.56	23.37	23.00	23.77	22.85	21.57	20.08	18.55	17.40	15.76	14.59	13.22	11.91	10.82	9.773	9.027	7.880	7.215	6.713	5.739	5.532	5.981	6.847	5.747	3.773	2.641	2.206	2.022	1.861	1.757	1.925	1.855	1.407	1.113	1.009	1.180	1.450	3.822	18.61	66.29	112.9	64.07	8.373	0.604	0.551	0.505	0.442	0.393	0.405	0.437	0.502
555.0	45.42	42.97	54.18	46.79	52.53	56.67	122.1	105.7	56.79	66.98	224.4	956.2	342.2	36.23	28.82	24.02	23.35	22.12	20.71	19.11	18.58	18.35	18.62	18.75	18.88	18.36	18.26	18.78	18.44	18.17	18.91	16.77	16.28	14.70	13.48	12.74	11.72	11.24	9.944	8.961	8.367	7.390	6.579	6.165	5.638	4.773	4.531	4.299	4.870	5.292	4.754	3.075	2.082	1.777	1.562	1.540	1.404	1.705	1.605	1.123	0.936	0.795	0.937	1.466	4.705	15.32	34.73	98.89	87.04	7.171	0.553	0.409	0.448	0.387	0.407	0.405	0.489
560.0	40.21	46.77	51.93	45.21	41.96	47.44	86.51	125.4	55.99	50.49	88.26	582.2	709.2	51.26	25.30	21.48	19.00	18.05	17.47	16.43	15.86	15.39	15.73	15.09	15.96	15.50	15.02	15.56	15.79	15.21	15.05	14.35	14.06	12.71	11.52	10.54	9.989	9.450	8.243	7.532	7.189	6.192	5.658	5.245	4.841	4.310	3.868	3.637	3.666	4.221	4.577	3.234	1.953	1.607	1.363	1.328	1.250	1.288	1.646	1.379	0.930	0.690	0.790	0.967	1.600	3.909	8.408	36.98	119.3	33.44	2.945	0.525	0.503	0.368	0.344	0.376	0.435
565.0	37.41	45.75	46.19	40.75	40.86	41.12	58.96	123.2	65.37	43.71	50.94	231.6	900.5	130.3	21.92	19.69	16.27	15.41	14.52	13.60	14.22	13.27	13.28	13.28	13.04	13.20	13.06	13.48	13.44	13.36	12.89	12.21	11.26	10.85	9.337	8.937	8.576	7.751	7.231	6.608	5.813	5.484	4.787	4.413	4.132	3.976	3.401	3.238	2.929	2.838	3.879	3.613	2.244	1.414	1.265	1.262	1.098	1.092	1.322	1.417	1.053	0.841	0.773	0.809	0.839	1.346	2.283	8.996	51.62	93.84	27.23	1.150	0.476	0.404	0.378	0.334	0.418
570.0	39.77	43.47	46.64	38.84	33.82	35.24	38.81	88.18	94.80	40.63	38.84	79.47	526.0	529.1	37.63	15.53	12.99	12.44	11.55	11.29	10.74	11.05	10.65	10.42	10.58	10.90	10.55	10.76	10.72	10.73	10.20	9.752	9.383	8.642	7.797	7.182	6.723	6.271	5.597	5.229	4.930	4.628	4.073	3.698	3.473	3.112	2.872	2.680	2.315	2.072	2.705	3.116	2.518	1.511	1.173	1.167	1.017	0.972	1.048	1.008	1.271	0.942	0.682	0.675	0.578	0.724	0.953	2.535	12.43	37.84	64.96	40.03	5.103	0.422	0.366	0.371	0.344
575.0	37.73	41.77	42.04	36.29	28.85	28.93	28.88	49.74	103.6	51.19	33.17	41.22	160.0	654.6	124.8	13.60	10.67	9.938	9.509	9.298	8.570	8.489	8.204	8.431	8.205	8.527	8.663	8.689	8.471	8.424	7.993	8.071	7.093	6.630	6.296	5.751	5.490	5.116	4.708	4.290	4.103	3.697	3.443	2.930	2.880	2.658	2.268	2.176	1.985	1.669	1.716	2.100	2.537	1.947	1.219	1.024	0.907	0.852	0.827	0.759	0.865	1.118	0.773	0.560	0.522	0.503	0.574	0.963	3.152	8.786	19.37	56.55	33.60	4.854	0.379	0.406	0.372
580.0	39.32	44.69	43.91	35.33	27.58	26.77	25.28	32.83	89.71	70.91	31.69	29.85	54.82	400.5	436.8	20.35	9.585	8.442	8.298	7.895	7.256	6.500	6.962	7.335	6.790	6.759	6.960	7.039	7.055	6.610	6.683	6.673	6.128	5.464	5.315	4.942	4.736	4.312	3.882	3.743	3.382	2.963	2.786	2.606	2.412	2.240	1.980	1.871	1.685	1.536	1.478	1.492	2.058	1.982	1.348	1.001	0.836	0.842	0.710	0.739	0.770	0.939	0.978	0.631	0.552	0.547	0.620	0.584	1.060	2.289	4.706	20.86	58.25	29.56	2.147	0.493	0.384
585.0	41.74	44.01	40.46	29.49	28.80	23.02	22.14	24.75	60.46	91.57	33.79	26.85	28.76	154.8	583.6	71.48	8.135	7.144	6.889	6.604	6.289	5.975	5.700	6.193	5.692	5.862	5.942	6.061	6.152	5.853	5.505	5.784	5.558	5.072	4.338	4.017	4.071	3.772	3.518	3.279	3.040	2.495	2.367	2.235	2.157	1.990	1.843	1.699	1.457	1.259	1.228	1.188	1.412	1.778	1.543	0.947	0.804	0.697	0.704	0.689	0.653	0.738	1.040	0.775	0.553	0.458	0.517	0.508	0.562	0.848	1.357	5.128	25.82	58.21	21.27	0.990	0.350
590.0	35.88	38.71	36.73	28.25	24.99	19.30	19.20	20.78	35.14	87.13	50.77	24.90	22.11	49.22	344.5	308.4	16.08	5.956	5.939	5.384	5.123	5.065	4.946	5.053	4.892	4.679	4.986	4.861	4.802	4.868	4.673	4.563	4.343	3.974	3.717	3.413	3.184	3.132	2.843	2.548	2.316	2.276	2.008	1.868	1.836	1.700	1.538	1.443	1.268	1.091	1.000	0.957	1.055	1.253	1.543	1.266	0.825	0.663	0.589	0.594	0.541	0.541	0.745	0.906	0.805	0.508	0.434	0.480	0.440	0.497	0.578	1.439	6.312	22.81	39.68	23.11	3.463
595.0	35.43	33.33	33.09	29.84	20.26	18.15	17.24	17.70	22.21	57.19	72.94	25.67	18.49	21.99	99.45	410.3	81.31	5.539	4.911	4.358	4.935	4.433	4.095	3.983	3.885	3.871	4.050	3.861	3.842	4.106	3.894	3.560	3.477	3.043	2.839	2.980	2.554	2.714	2.279	2.090	1.889	1.772	1.758	1.579	1.388	1.424	1.190	1.154	1.005	0.974	0.818	0.788	0.823	0.886	1.173	1.352	0.935	0.680	0.550	0.531	0.470	0.494	0.545	0.670	0.779	0.639	0.462	0.438	0.413	0.426	0.472	0.610	1.736	5.376	11.53	33.53	28.71
600.0	30.88	32.40	34.71	28.14	19.98	17.02	15.53	18.30	19.69	36.12	77.49	32.86	18.04	15.38	31.62	263.5	246.0	8.579	4.326	4.080	3.911	3.606	3.748	3.257	3.295	3.357	3.472	3.425	3.195	3.318	3.298	3.216	2.870	2.619	2.367	2.399	2.181	2.297	1.898	1.807	1.713	1.560	1.431	1.428	1.311	1.269	1.021	0.919	0.839	0.797	0.720	0.743	0.652	0.685	0.812	1.204	1.081	0.813	0.557	0.542	0.437	0.467	0.518	0.521	0.674	0.844	0.500	0.419	0.392	0.388	0.368	0.433	0.608	1.535	2.884	12.09	36.14
605.0	29.57	30.99	30.30	23.98	15.14	14.86	15.03	16.61	19.58	26.00	65.75	47.28	18.37	13.85	15.14	102.2	351.4	33.25	4.144	3.546	3.391	2.973	3.189	2.777	2.942	2.984	2.832	2.832	2.699	2.969	2.694	2.821	2.670	2.360	2.050	2.111	1.960	1.641	1.636	1.626	1.463	1.386	1.251	1.221	1.072	1.044	0.943	0.875	0.763	0.644	0.692	0.703	0.642	0.600	0.609	0.946	1.079	0.916	0.481	0.461	0.406	0.434	0.430	0.478	0.486	0.785	0.679	0.520	0.359	0.348	0.386	0.421	0.397	0.607	0.910	3.092	14.92
610.0	27.09	30.77	25.75	21.85	15.97	13.20	14.68	16.94	18.67	22.77	44.69	61.97	22.80	13.78	11.33	30.76	228.9	158.9	7.232	2.869	2.798	2.693	2.650	2.506	2.306	2.339	2.200	2.376	2.310	2.593	2.345	2.145	2.048	1.862	1.777	1.709	1.554	1.385	1.367	1.366	1.122	1.179	1.022	1.031	0.987	0.857	0.819	0.757	0.688	0.565	0.586	0.563	0.553	0.516	0.550	0.599	0.828	0.913	0.694	0.489	0.424	0.385	0.418	0.410	0.392	0.538	0.664	0.600	0.464	0.363	0.335	0.353	0.379	0.429	0.500	0.951	3.698
615.0	27.19	27.11	25.60	20.03	15.60	12.55	14.18	16.76	17.41	20.07	26.81	58.10	34.07	13.05	10.10	12.04	68.21	263.6	47.52	2.582	2.420	2.125	2.041	2.218	2.047	2.015	2.073	1.944	1.890	1.966	1.738	1.557	1.594	1.676	1.457	1.120	1.263	1.193	1.071	1.204	1.053	0.994	0.784	0.738	0.899	0.682	0.720	0.635	0.611	0.539	0.458	0.489	0.425	0.479	0.489	0.410	0.615	0.812	0.950	0.522	0.448	0.420	0.336	0.385	0.353	0.407	0.459	0.641	0.510	0.372	0.346	0.350	0.353	0.323	0.365	0.475	1.118
620.0	27.22	22.71	22.98	17.77	13.45	12.62	13.20	14.00	16.89	16.79	20.84	44.71	46.07	14.81	9.492	7.960	21.29	192.4	145.0	3.734	2.183	1.986	1.978	1.945	1.795	1.730	1.525	1.683	1.570	1.804	1.460	1.296	1.477	1.431	1.404	1.139	0.994	1.064	0.986	0.918	0.873	0.827	0.685	0.779	0.755	0.719	0.595	0.575	0.542	0.431	0.418	0.442	0.392	0.438	0.460	0.396	0.498	0.622	0.858	0.618	0.487	0.434	0.320	0.376	0.350	0.382	0.417	0.474	0.654	0.455	0.331	0.365	0.337	0.316	0.353	0.351	0.469
625.0	24.68	21.57	20.17	16.60	11.82	13.19	12.79	13.14	17.52	16.16	18.00	30.37	52.06	17.55	9.492	6.802	9.060	79.65	234.6	14.72	2.051	1.670	1.794	1.841	1.527	1.468	1.720	1.533	1.502	1.512	1.316	1.235	1.233	1.157	1.087	1.000	0.872	0.928	0.767	0.864	0.815	0.698	0.576	0.734	0.614	0.629	0.590	0.510	0.478	0.491	0.359	0.399	0.354	0.377	0.400	0.388	0.416	0.499	0.702	0.613	0.582	0.431	0.389	0.322	0.423	0.369	0.347	0.416	0.553	0.579	0.422	0.385	0.345	0.358	0.317	0.358	0.372
630.0	24.30	22.55	19.01	15.70	11.20	12.24	12.60	13.03	14.41	16.36	16.54	20.39	42.98	28.14	9.443	7.098	6.023	23.24	172.2	104.1	3.342	1.595	1.551	1.536	1.425	1.299	1.323	1.227	1.379	1.244	1.135	1.110	0.943	0.991	0.966	0.855	0.785	0.805	0.687	0.694	0.732	0.638	0.603	0.607	0.588	0.517	0.490	0.472	0.432	0.372	0.346	0.389	0.330	0.298	0.411	0.363	0.393	0.394	0.505	0.551	0.547	0.423	0.393	0.310	0.329	0.356	0.310	0.412	0.407	0.455	0.501	0.397	0.395	0.297	0.374	0.329	0.332
635.0	21.04	22.41	18.65	16.02	12.17	12.24	10.81	12.98	12.82	15.69	16.12	17.20	25.73	38.95	12.23	6.900	5.658	8.233	54.31	188.3	25.61	1.475	1.239	1.233	1.103	1.079	1.082	1.242	1.081	1.114	0.984	0.902	0.915	0.885	0.810	0.664	0.650	0.657	0.681	0.536	0.652	0.605	0.456	0.547	0.472	0.434	0.417	0.458	0.430	0.348	0.329	0.423	0.324	0.345	0.345	0.343	0.353	0.314	0.353	0.410	0.463	0.429	0.428	0.353	0.396	0.299	0.332	0.346	0.394	0.383	0.527	0.606	0.447	0.418	0.394	0.330	0.297
640.0	24.65	22.61	19.31	14.59	11.37	12.47	11.72	12.15	12.73	14.60	14.34	14.78	17.42	37.38	17.95	6.841	5.274	4.718	15.56	148.9	69.01	1.897	1.254	1.300	1.067	1.021	1.025	1.069	0.887	0.963	0.795	0.868	0.652	0.773	0.629	0.608	0.600	0.602	0.556	0.497	0.542	0.588	0.488	0.475	0.451	0.440	0.426	0.420	0.408	0.321	0.275	0.363	0.352	0.287	0.332	0.323	0.340	0.364	0.353	0.386	0.422	0.467	0.414	0.306	0.305	0.362	0.392	0.298	0.377	0.408	0.489	0.522	0.495	0.391	0.315	0.294	0.339
645.0	23.71	26.84	20.73	16.89	10.76	10.59	11.20	10.69	12.09	13.23	13.27	14.64	15.19	28.62	24.63	7.867	5.480	4.010	5.755	69.88	152.0	7.930	1.278	1.193	1.056	0.902	0.861	0.936	0.822	0.889	0.772	0.859	0.594	0.655	0.606	0.649	0.606	0.567	0.458	0.581	0.476	0.447	0.421	0.423	0.343	0.443	0.366	0.345	0.354	0.288	0.268	0.313	0.340	0.289	0.319	0.272	0.320	0.360	0.349	0.344	0.354	0.393	0.427	0.382	0.302	0.344	0.296	0.344	0.360	0.382	0.347	0.454	0.479	0.407	0.322	0.266	0.322
650.0	27.37	23.75	17.31	14.21	9.357	9.940	10.93	11.14	10.43	12.57	12.51	13.77	13.76	20.01	28.44	9.483	5.137	3.711	3.287	21.96	161.6	39.73	1.153	1.132	1.047	0.849	0.907	0.737	0.780	0.797	0.691	0.694	0.647	0.566	0.625	0.573	0.605	0.463	0.432	0.448	0.440	0.454	0.439	0.367	0.323	0.402	0.307	0.398	0.314	0.236	0.348	0.328	0.249	0.320	0.322	0.280	0.304	0.312	0.313	0.263	0.305	0.460	0.428	0.351	0.319	0.340	0.401	0.269	0.310	0.358	0.305	0.373	0.408	0.454	0.431	0.263	0.427
