Sample:	'1
File name:	Default_20240602_153142.FD3
Run date:	'15:25:21, 06/02/2024
Operator:	dsjg
Comment:	'

Instrument
Model:	F-2700 FL Spectrophotometer
Serial number:	2198-001
ROM Version:	4J14000 07

Instrument parameters
Measurement type:	3-D scan
Data mode:	Fluorescence
EX  Start WL:	220.0 nm
EX  End WL:	600.0 nm
EX Sampling interval:	5.0 nm
EM  Start WL:	230.0 nm
EM  End WL:	650.0 nm
EM Sampling interval:	5.0 nm
Scan speed:	12000 nm/min
EX Slit:	5.0 nm
EM Slit:	5.0 nm
PMT Voltage:	700 V
Response:	Auto 
Corrected spectra:	Off
Contour interval:	50.000

Peak integration
Integration method:	Rectangular
Sensitivity:	1
Threshold:	1.000

Peaks
No.	ApexEX/EM(nm)	Height(Data)
1	225.0/555.0	54.94
2	225.0/585.0	73.71
3	225.0/605.0	68.86
4	225.0/640.0	37.57
5	260.0/570.0	78.78
6	275.0/305.0	 2829
7	275.0/605.0	166.5
8	445.0/305.0	3.547
9	555.0/305.0	14.25

Data points
	220.0	225.0	230.0	235.0	240.0	245.0	250.0	255.0	260.0	265.0	270.0	275.0	280.0	285.0	290.0	295.0	300.0	305.0	310.0	315.0	320.0	325.0	330.0	335.0	340.0	345.0	350.0	355.0	360.0	365.0	370.0	375.0	380.0	385.0	390.0	395.0	400.0	405.0	410.0	415.0	420.0	425.0	430.0	435.0	440.0	445.0	450.0	455.0	460.0	465.0	470.0	475.0	480.0	485.0	490.0	495.0	500.0	505.0	510.0	515.0	520.0	525.0	530.0	535.0	540.0	545.0	550.0	555.0	560.0	565.0	570.0	575.0	580.0	585.0	590.0	595.0	600.0
230.0	25.78	693.7	 1509	405.4	12.40	2.386	2.796	2.020	2.345	2.053	2.380	2.036	1.567	1.544	1.112	1.072	0.770	0.707	0.656	0.624	0.687	0.661	0.602	0.596	0.524	0.559	0.482	0.501	0.440	0.414	0.411	0.425	0.355	0.400	0.303	0.409	0.471	0.442	0.326	0.328	0.333	0.313	0.341	0.242	0.225	0.228	0.406	2.010	5.243	5.764	2.945	0.653	0.203	0.129	0.112	0.127	0.093	0.105	0.058	0.055	0.040	0.038	0.048	0.026	0.022	0.038	0.032	0.009	0.016	0.020	-0.018	-0.004	-0.009	-0.013	0.022	0.001	0.029
235.0	24.24	184.1	884.3	 1423	371.0	22.84	3.915	2.297	2.270	2.072	1.977	2.242	1.708	1.711	1.246	1.264	0.861	0.805	0.767	0.649	0.746	0.620	0.565	0.588	0.561	0.702	0.405	0.487	0.350	0.365	0.463	0.304	0.326	0.368	0.392	0.383	0.396	0.452	0.378	0.271	0.381	0.267	0.328	0.298	0.338	0.235	0.337	0.585	1.585	3.191	5.061	6.698	4.896	1.272	0.193	0.136	0.086	0.144	0.005	0.094	0.017	0.031	0.060	0.066	0.054	0.031	0.026	0.040	0.084	0.070	0.013	0.059	0.005	0.029	-0.004	0.010	0.036
240.0	24.39	52.44	263.9	 1186	 1669	306.7	12.24	3.301	3.211	3.282	3.096	2.440	1.796	2.105	1.406	0.857	0.866	0.847	0.933	0.714	0.770	0.695	0.736	0.442	0.645	0.595	0.385	0.591	0.500	0.371	0.471	0.451	0.477	0.361	0.356	0.355	0.409	0.435	0.278	0.316	0.392	0.332	0.302	0.234	0.290	0.366	0.363	0.338	0.445	0.912	2.074	5.474	9.835	9.209	4.460	0.684	0.100	0.152	0.085	0.122	0.011	0.041	-0.010	0.087	0.031	0.094	0.084	0.008	0.036	0.079	0.038	0.035	0.052	0.007	0.000	0.025	-0.005
245.0	26.12	46.87	75.21	422.3	 1821	 1939	230.6	7.585	4.478	3.044	3.226	2.755	2.098	1.729	1.138	1.048	0.990	0.867	1.072	0.922	0.874	0.570	0.683	0.526	0.656	0.710	0.628	0.639	0.562	0.415	0.487	0.434	0.390	0.325	0.299	0.251	0.292	0.346	0.436	0.442	0.431	0.232	0.328	0.240	0.249	0.360	0.446	0.343	0.304	0.308	0.573	1.719	4.894	10.43	14.27	9.733	3.127	0.397	0.118	0.126	0.037	-0.022	0.071	0.079	0.056	0.031	0.069	0.130	-0.066	0.066	0.099	0.019	0.037	0.047	0.014	-0.044	-0.053
250.0	15.59	39.33	61.17	114.9	615.3	 1956	 2621	970.0	59.93	4.859	4.491	3.428	2.679	2.491	1.618	1.143	1.158	1.037	1.002	1.022	0.824	0.765	0.728	0.611	0.562	0.625	0.474	0.615	0.569	0.517	0.442	0.445	0.339	0.348	0.365	0.331	0.324	0.322	0.310	0.419	0.438	0.413	0.403	0.236	0.286	0.256	0.301	0.313	0.383	0.387	0.347	0.521	1.274	3.094	6.755	11.62	16.23	16.16	10.24	3.552	0.364	0.041	0.090	0.075	0.056	0.018	0.048	0.079	0.031	0.041	0.073	0.050	0.066	0.035	0.009	0.017	0.029
255.0	3.244	15.92	50.02	82.05	158.5	505.0	 2017	 4168	 1478	78.49	6.497	4.810	4.327	2.630	1.988	1.463	1.482	1.349	1.239	0.869	1.020	0.777	0.674	0.709	0.690	0.461	0.579	0.662	0.533	0.571	0.444	0.349	0.353	0.362	0.352	0.294	0.268	0.256	0.242	0.337	0.376	0.365	0.392	0.356	0.210	0.288	0.295	0.270	0.305	0.281	0.452	0.517	0.578	0.806	1.687	2.795	5.372	12.79	24.88	25.64	16.35	4.144	0.367	0.039	0.115	0.110	0.137	0.036	0.055	0.111	0.095	0.023	0.059	0.073	-0.044	-0.012	0.047
260.0	7.792	8.736	22.15	73.30	92.14	129.5	619.4	 3206	 4777	 1187	40.94	7.204	4.931	3.286	2.672	2.156	1.652	1.335	1.099	1.037	1.061	0.910	0.857	0.762	0.670	0.569	0.675	0.584	0.556	0.627	0.586	0.480	0.453	0.370	0.467	0.331	0.295	0.243	0.146	0.340	0.352	0.399	0.409	0.282	0.282	0.295	0.249	0.247	0.269	0.209	0.359	0.517	0.626	0.544	0.540	0.768	1.412	3.388	9.920	21.83	33.84	24.63	12.76	2.109	0.167	0.121	0.091	0.053	0.074	0.105	0.081	0.089	-0.015	0.053	0.041	-0.031	0.090
265.0	12.03	12.41	14.03	36.68	94.85	81.28	154.0	 1069	 4410	 4923	901.3	19.25	6.106	4.344	3.009	1.989	2.135	1.304	1.079	1.194	1.026	0.981	0.969	0.974	0.798	0.542	0.662	0.572	0.648	0.538	0.505	0.590	0.469	0.405	0.417	0.434	0.281	0.299	0.187	0.324	0.258	0.338	0.450	0.339	0.310	0.382	0.259	0.200	0.223	0.197	0.253	0.350	0.551	0.660	0.638	0.447	0.586	1.006	2.454	6.289	16.59	31.41	39.63	22.34	7.977	0.753	0.065	0.118	0.120	0.084	0.098	0.124	0.122	0.014	0.006	0.037	0.069
270.0	62.25	48.65	35.63	23.55	51.69	100.0	107.9	277.5	 1362	 3857	 5065	 2167	61.27	7.655	4.768	3.031	2.556	1.940	1.557	1.476	1.209	1.200	0.957	1.066	0.771	0.796	0.842	0.597	0.564	0.621	0.602	0.662	0.462	0.464	0.458	0.434	0.446	0.467	0.420	0.387	0.458	0.424	0.471	0.523	0.461	0.467	0.350	0.331	0.278	0.273	0.268	0.274	0.310	0.372	0.567	0.780	0.823	0.667	0.778	1.660	4.103	8.962	17.31	26.80	28.01	32.33	15.68	7.792	1.182	0.107	0.197	0.087	0.086	0.023	0.028	0.067	0.046
275.0	146.5	134.3	94.94	39.90	29.32	62.62	146.5	180.0	373.1	994.8	 2937	 6316	 3520	79.08	7.658	4.489	3.047	2.346	2.229	1.828	1.396	1.655	1.093	0.929	1.126	0.938	0.843	0.627	0.823	0.663	0.761	0.802	0.521	0.533	0.613	0.485	0.548	0.539	0.620	0.618	0.558	0.613	0.677	0.612	0.610	0.680	0.616	0.743	0.573	0.489	0.356	0.323	0.331	0.262	0.391	0.438	0.728	1.022	1.239	1.091	1.291	2.457	4.156	6.505	8.701	21.50	43.08	59.18	25.29	10.46	0.834	0.206	0.211	0.093	0.078	0.085	0.035
280.0	277.4	247.6	169.7	65.58	32.25	47.64	122.3	225.5	238.1	351.6	933.4	 4002	 6979	944.7	51.62	6.743	4.391	3.374	2.477	2.360	1.630	1.503	1.258	1.090	1.139	0.928	0.940	0.636	0.904	0.757	0.564	0.729	0.597	0.661	0.682	0.654	0.743	0.918	0.673	0.802	0.669	0.797	0.835	0.788	0.927	0.964	0.976	1.097	0.931	0.764	0.546	0.392	0.386	0.308	0.286	0.351	0.551	0.765	1.349	1.499	1.315	1.293	1.733	2.364	2.669	6.045	15.56	38.68	64.63	69.03	21.93	5.699	0.358	0.293	0.121	0.212	0.132
285.0	421.5	399.4	244.1	97.29	45.74	56.06	111.3	244.8	354.3	281.7	534.1	 1516	 5071	 6486	747.1	29.08	6.015	4.187	3.115	2.798	1.874	1.516	1.612	1.171	1.263	0.990	0.838	0.852	1.020	0.739	0.711	0.759	0.672	0.835	0.763	0.847	0.910	1.031	0.878	0.821	0.902	0.939	1.060	1.105	1.231	1.317	1.457	1.557	1.293	1.019	0.632	0.510	0.466	0.352	0.369	0.362	0.456	0.726	1.012	1.718	2.018	1.978	1.770	2.056	2.296	3.287	5.323	11.91	28.53	62.11	85.11	29.41	15.87	1.531	0.293	0.094	0.175
290.0	690.2	643.9	383.7	164.5	83.27	94.19	159.7	312.4	566.0	807.3	 1010	 1290	 2219	 4378	 5620	 2701	41.30	6.459	4.297	3.390	2.660	2.143	1.948	1.498	1.397	1.157	1.032	1.114	0.951	0.855	0.822	0.723	0.759	0.879	0.975	1.278	1.110	1.189	1.198	1.219	1.261	1.396	1.472	1.576	1.791	2.167	2.090	2.211	1.898	1.435	0.976	0.707	0.604	0.536	0.525	0.659	0.774	1.027	1.267	1.899	2.566	3.289	4.045	4.600	4.782	5.561	5.772	7.325	10.96	20.02	35.73	50.33	76.89	64.29	53.80	10.51	1.586
295.0	 1008	897.9	534.0	231.7	123.6	145.0	239.9	443.2	779.3	 1289	 1673	 1970	 1950	 1947	 2897	 6310	 3933	49.21	7.044	4.545	3.295	2.921	2.323	1.938	1.720	1.503	1.326	1.304	0.963	0.914	1.052	0.828	0.868	0.975	1.346	1.727	1.466	1.532	1.501	1.658	1.608	1.802	1.900	2.147	2.507	3.023	2.996	2.806	2.611	1.805	1.229	0.980	0.905	0.756	0.701	0.887	1.104	1.542	1.927	2.648	3.362	4.444	5.901	7.205	8.979	9.444	9.887	9.756	10.24	11.32	13.85	15.28	23.20	39.65	90.90	126.8	29.70
300.0	 1132	 1010	611.9	269.6	154.0	181.5	297.5	538.0	941.5	 1525	 2189	 2522	 2202	 1568	 1147	 3398	 7559	 2903	34.63	6.397	4.340	3.159	2.831	2.545	1.898	1.595	1.450	1.346	1.137	0.930	1.116	0.977	0.855	1.061	1.548	1.715	1.744	1.659	1.753	1.631	1.970	1.999	2.172	2.693	2.879	3.191	3.237	3.049	2.775	2.014	1.452	1.113	0.927	0.856	0.855	1.009	1.362	1.671	2.326	2.985	3.993	5.008	6.783	8.470	10.53	12.12	12.79	12.29	11.72	11.14	9.707	8.248	7.764	11.06	30.84	76.02	124.9
305.0	 1190	 1064	647.6	291.3	173.0	201.9	336.2	599.8	 1034	 1643	 2368	 2829	 2449	 1595	708.3	 1087	 4428	 7758	492.2	18.56	5.935	4.317	3.502	2.897	2.438	1.839	1.634	1.433	1.215	1.247	0.832	0.940	0.889	1.277	1.640	1.831	1.739	1.743	1.904	1.811	2.087	2.072	2.329	2.614	2.976	3.547	3.460	3.145	2.905	2.132	1.621	1.189	1.085	0.924	0.960	1.157	1.477	1.871	2.551	3.199	4.384	5.782	7.349	8.791	10.90	12.71	14.06	14.25	13.12	11.55	9.575	7.076	4.732	3.847	7.959	20.64	51.33
310.0	 1144	 1036	624.5	298.0	190.8	230.4	363.0	620.3	 1049	 1651	 2318	 2757	 2539	 1668	649.9	387.9	 1247	 3999	 6299	 2019	30.04	6.780	4.695	3.485	2.840	2.225	2.075	1.646	1.384	1.308	1.047	1.071	1.039	1.330	1.484	1.824	1.772	1.753	1.810	1.825	2.002	2.149	2.293	2.490	2.799	3.258	3.198	3.206	2.705	2.092	1.464	1.289	1.090	1.031	1.025	1.230	1.613	2.059	2.668	3.594	4.648	5.822	7.274	9.014	10.64	12.28	13.59	14.19	13.87	12.40	10.32	7.034	4.196	2.826	3.024	5.426	12.45
315.0	 1047	944.9	567.2	291.7	199.7	243.2	377.6	623.0	 1000	 1540	 2136	 2498	 2309	 1662	692.6	262.2	357.2	968.2	 2473	 6754	 3155	38.13	6.666	4.796	3.412	2.812	2.340	1.949	1.905	1.414	1.455	1.321	1.196	1.230	1.299	1.822	1.610	1.598	1.624	1.748	1.680	1.955	1.957	2.272	2.502	2.958	2.906	2.844	2.464	2.042	1.395	1.128	1.074	1.159	1.238	1.445	1.623	1.976	2.649	3.545	4.191	5.478	6.739	8.456	9.683	11.22	12.44	12.71	12.41	11.45	10.08	7.559	4.284	2.575	1.871	2.214	3.649
320.0	947.7	862.5	560.6	298.3	218.7	249.6	379.4	609.6	955.6	 1436	 1957	 2273	 2089	 1535	768.8	278.4	181.9	275.4	660.5	 3190	 8246	 2386	26.00	5.910	4.467	3.344	2.670	2.369	2.043	1.571	1.529	1.486	1.274	1.332	1.297	1.793	1.525	1.686	1.592	1.534	1.702	1.755	1.830	2.166	2.329	2.800	2.614	2.730	2.560	1.716	1.314	1.243	1.179	1.261	1.318	1.484	1.792	2.150	2.712	3.460	4.214	5.167	6.409	7.555	8.840	10.39	11.24	11.42	11.01	10.23	9.071	7.166	4.981	3.151	2.053	1.654	1.811
325.0	859.1	832.0	577.8	319.9	225.8	262.2	381.8	590.0	908.5	 1331	 1793	 2063	 1897	 1384	783.0	374.4	174.2	141.5	199.0	888.2	 4618	 8334	383.2	15.49	5.821	3.970	2.929	2.678	2.223	1.746	1.568	1.357	1.327	1.340	1.343	1.519	1.580	1.497	1.460	1.495	1.483	1.622	1.772	1.915	2.263	2.675	2.661	2.700	2.459	1.879	1.532	1.324	1.213	1.255	1.364	1.533	1.762	2.160	2.708	3.197	4.232	5.076	5.944	7.193	8.392	9.232	10.26	10.53	9.959	9.314	8.137	6.300	4.991	3.840	2.727	1.736	1.534
330.0	785.5	816.4	608.1	381.5	270.0	280.9	388.6	569.1	854.0	 1210	 1589	 1820	 1690	 1256	735.1	459.4	277.7	149.0	118.2	249.2	 1217	 4285	 6484	 1652	25.68	5.906	4.359	3.156	2.552	2.118	1.742	1.608	1.417	1.373	1.443	1.483	1.474	1.483	1.501	1.462	1.479	1.606	1.705	1.821	2.044	2.369	2.478	2.596	2.488	2.131	1.691	1.591	1.440	1.255	1.423	1.596	1.823	2.172	2.675	3.262	3.984	4.726	5.598	6.675	7.589	8.468	9.017	9.252	8.739	8.259	7.419	5.873	4.535	3.541	3.086	2.801	2.329
335.0	749.4	803.6	628.4	428.3	314.3	300.3	392.3	553.3	809.7	 1116	 1429	 1591	 1514	 1164	717.9	446.0	372.0	232.3	126.5	126.2	323.6	 1017	 2494	 7635	 2654	32.14	6.178	4.349	3.296	2.619	2.150	1.922	1.668	1.499	1.442	1.218	1.397	1.389	1.434	1.398	1.341	1.604	1.582	1.672	2.087	2.363	2.236	2.461	2.520	2.132	1.765	1.820	1.624	1.512	1.472	1.734	1.947	2.262	2.676	3.187	3.691	4.486	5.124	6.021	6.871	7.628	7.843	7.915	7.844	7.612	6.798	5.615	4.417	3.793	3.063	2.817	2.843
340.0	719.0	776.6	645.7	465.6	342.9	326.5	404.4	555.2	766.4	 1047	 1316	 1464	 1409	 1114	725.0	456.4	357.3	317.6	170.8	116.1	139.4	281.0	645.8	 3604	 8635	 2049	23.03	5.535	4.061	3.188	2.316	2.062	1.707	1.599	1.533	1.443	1.397	1.331	1.253	1.199	1.412	1.420	1.446	1.724	1.815	2.140	2.269	2.377	2.447	2.045	1.893	1.964	1.752	1.495	1.576	1.653	1.969	2.274	2.796	3.192	3.574	4.330	4.982	5.491	6.515	6.995	7.282	7.219	7.064	7.191	6.519	5.542	4.577	3.760	3.249	2.650	2.631
345.0	708.4	755.1	653.9	480.2	365.1	341.1	417.5	553.1	750.8	993.1	 1229	 1363	 1311	 1070	741.2	478.7	346.7	325.2	254.6	139.4	117.2	131.4	195.6	963.9	 5213	 8043	334.3	13.79	4.612	3.719	2.689	2.297	2.085	1.551	1.544	1.422	1.268	1.314	1.274	1.213	1.336	1.341	1.346	1.582	1.863	2.085	2.201	2.472	2.436	2.288	1.903	2.147	2.008	1.775	1.680	1.740	2.134	2.385	2.733	3.087	3.567	3.947	4.602	5.451	5.925	6.536	6.482	6.746	6.719	6.483	6.199	5.362	4.527	3.827	3.243	2.669	2.658
350.0	652.4	724.0	634.7	508.6	395.7	385.5	437.4	566.7	738.2	949.1	 1142	 1250	 1212	 1021	745.9	506.7	362.1	299.3	296.7	233.2	148.8	125.2	117.4	270.5	 1344	 4464	 6465	 1490	23.18	5.851	4.070	2.819	2.179	1.799	1.654	1.579	1.466	1.348	1.197	1.369	1.372	1.322	1.437	1.572	1.687	1.920	2.108	2.356	2.402	2.221	1.976	2.171	2.012	1.874	1.831	1.963	2.222	2.527	2.676	3.180	3.661	3.998	4.541	4.934	5.423	5.801	6.195	6.316	6.128	5.772	5.867	5.028	4.728	3.863	3.229	2.975	2.724
355.0	625.3	685.9	605.6	517.6	425.0	432.8	476.0	598.4	755.9	924.0	 1079	 1156	 1133	978.7	748.9	536.0	393.0	316.3	277.9	291.7	239.1	159.0	128.1	139.0	357.7	 1049	 2572	 7265	 2439	30.39	5.872	3.929	2.669	2.188	1.953	1.586	1.434	1.349	1.294	1.318	1.219	1.176	1.361	1.532	1.687	1.969	1.966	2.281	2.171	2.107	2.009	2.158	2.246	2.144	2.091	2.224	2.361	2.853	2.642	3.276	3.780	3.892	4.662	4.743	5.082	5.365	5.623	5.915	5.637	5.747	5.531	5.009	4.454	3.932	3.384	3.406	3.011
360.0	622.2	650.3	605.1	509.6	458.5	465.3	519.4	633.6	770.1	929.5	 1058	 1123	 1088	953.3	754.8	557.4	419.4	340.7	291.9	284.3	303.8	213.8	153.4	129.3	154.2	285.0	647.3	 3553	 8178	 1925	21.46	5.287	3.442	2.768	2.149	1.596	1.569	1.350	1.452	1.318	1.256	1.256	1.219	1.530	1.609	1.855	1.789	2.127	2.129	2.050	2.036	2.204	2.290	2.096	2.250	2.284	2.631	2.776	3.101	3.399	3.780	3.885	4.701	4.743	5.118	5.262	5.476	5.704	5.357	5.425	5.408	5.186	4.513	4.156	3.680	3.422	2.999
365.0	577.3	632.4	579.0	510.0	482.0	504.9	549.1	645.5	776.9	929.1	 1026	 1095	 1060	935.8	757.3	570.4	447.3	368.2	317.3	289.0	310.2	287.7	191.0	146.1	127.4	128.0	186.0	927.4	 5183	 7834	318.9	13.14	4.434	3.401	2.489	1.890	1.667	1.581	1.473	1.402	1.356	1.458	1.360	1.508	1.595	1.807	1.839	2.138	2.122	2.092	1.939	2.389	2.356	2.462	2.259	2.500	2.711	2.870	3.332	3.457	3.819	3.924	4.643	4.802	4.860	5.177	5.477	5.547	5.440	5.350	5.368	4.987	4.640	4.087	3.813	3.648	3.117
370.0	553.6	618.8	558.2	517.1	512.5	534.1	582.2	672.4	789.5	920.3	 1008	 1054	 1021	911.1	758.1	586.5	478.1	404.3	356.4	322.2	307.5	320.5	281.9	196.4	151.6	119.0	104.8	251.1	 1328	 4534	 6430	 1385	20.47	4.704	3.227	2.505	1.936	1.728	1.523	1.454	1.396	1.434	1.459	1.493	1.538	1.805	1.841	2.111	2.207	1.982	1.958	2.287	2.446	2.545	2.556	2.701	2.990	3.101	3.390	3.551	3.879	4.081	4.546	4.900	4.832	4.870	5.219	5.248	5.179	5.267	4.961	4.738	4.697	4.146	3.706	3.590	3.351
375.0	524.2	580.2	545.1	530.9	530.4	562.4	620.7	696.3	798.4	910.1	976.4	 1019	989.8	891.1	760.7	608.8	506.7	446.0	398.9	366.1	339.8	323.6	329.0	285.6	196.4	146.7	112.6	120.2	339.9	 1053	 2632	 7109	 2171	26.44	4.594	3.339	2.440	1.985	1.646	1.637	1.426	1.432	1.494	1.593	1.429	1.862	1.907	2.107	2.139	2.056	1.850	2.181	2.552	2.620	2.934	2.863	3.132	3.369	3.435	3.827	3.919	4.238	4.478	4.896	4.828	4.918	5.022	4.982	4.890	5.043	4.875	4.858	4.630	4.314	3.981	3.715	3.539
380.0	527.0	560.2	541.7	529.1	545.6	600.6	631.4	710.4	804.6	902.2	959.6	992.7	964.2	877.7	759.5	623.9	531.3	470.5	428.8	398.1	366.3	343.8	326.4	335.4	255.5	177.4	132.6	105.7	132.8	274.4	649.0	 3499	 7363	 1700	18.59	4.094	3.076	2.290	1.851	1.901	1.407	1.647	1.516	1.583	1.563	1.822	1.958	2.053	1.974	2.044	1.883	2.214	2.534	2.610	3.066	2.846	3.076	3.346	3.519	3.721	4.076	4.344	4.520	4.629	4.741	4.809	4.867	5.003	4.730	4.731	4.870	4.565	4.705	4.404	4.022	3.882	3.840
385.0	508.8	537.0	535.8	524.4	561.9	608.1	648.8	707.8	794.4	887.9	941.9	973.2	937.0	862.0	746.3	629.2	546.2	495.3	455.4	418.0	394.2	367.0	336.3	334.6	313.1	214.7	155.9	120.6	102.2	112.6	181.7	900.7	 4651	 6673	267.3	10.60	3.777	2.763	2.168	1.935	1.501	1.822	1.483	1.561	1.665	1.755	1.805	2.050	1.997	1.915	2.034	2.329	2.591	2.976	3.038	3.072	3.436	3.404	3.694	3.760	3.942	4.256	4.446	4.547	4.927	4.670	4.762	4.945	4.633	4.810	4.793	4.428	4.360	4.268	4.187	3.790	3.774
390.0	490.4	520.4	519.4	519.5	562.7	616.4	658.1	717.4	791.3	858.7	909.0	931.8	911.3	838.7	746.2	640.8	565.2	521.5	484.1	451.6	427.8	398.7	363.3	337.1	327.0	285.1	202.5	150.4	118.0	97.24	93.32	237.6	 1179	 3733	 5019	 1132	18.17	4.025	2.790	2.441	1.786	1.744	1.697	1.727	1.724	1.769	1.861	1.928	1.933	1.905	1.911	2.418	2.676	3.013	3.046	3.172	3.509	3.456	3.815	3.803	3.959	4.055	4.306	4.314	4.597	4.531	4.638	4.706	4.687	4.662	4.561	4.456	4.594	4.455	4.228	4.100	3.921
395.0	472.9	517.9	502.3	518.7	570.6	630.5	666.1	719.8	776.3	827.6	870.9	888.8	872.4	811.4	736.6	644.4	582.0	543.5	512.8	478.3	453.2	425.2	390.0	360.9	329.1	309.2	274.1	193.6	147.2	115.0	92.54	104.0	297.1	862.1	 1977	 5553	 1846	24.84	4.263	3.149	2.428	2.126	1.807	1.791	1.749	1.810	1.764	1.954	2.017	1.919	1.874	2.395	2.699	2.986	3.081	3.300	3.406	3.734	3.682	3.777	3.736	4.248	4.285	4.307	4.404	4.112	4.388	4.595	4.646	4.504	4.630	4.294	4.549	4.261	4.492	4.132	4.134
400.0	466.2	504.4	496.1	515.3	560.0	625.4	675.0	715.3	764.5	814.3	838.2	862.5	842.4	794.5	726.5	643.4	589.1	553.1	526.8	498.8	468.1	442.5	407.8	375.1	341.0	307.8	302.0	239.6	172.7	135.0	105.4	85.38	110.1	223.1	482.2	 2657	 5776	 1492	18.22	3.842	2.741	2.204	2.062	1.820	1.795	1.909	1.795	1.930	2.035	1.981	1.833	2.384	2.761	2.885	3.072	3.140	3.379	3.749	3.746	3.852	3.787	4.177	4.157	4.199	4.199	4.150	4.191	4.382	4.414	4.437	4.519	4.185	4.343	4.275	4.514	4.277	4.312
405.0	454.3	494.7	484.2	508.6	560.1	629.3	676.2	706.4	757.2	800.4	821.7	832.9	810.8	774.6	708.1	639.9	597.5	561.7	534.3	506.8	479.3	451.4	420.2	389.0	354.1	314.6	292.1	279.7	207.1	154.4	120.9	93.02	77.84	87.58	134.6	668.6	 3360	 5328	242.9	11.84	3.181	2.389	2.181	1.919	2.027	1.784	1.845	1.837	2.106	1.920	1.777	2.235	2.928	2.796	2.981	3.187	3.468	3.644	3.809	3.962	3.943	4.112	3.932	3.953	4.082	4.217	4.099	4.206	4.392	4.248	4.389	4.415	4.378	4.269	4.381	4.055	4.431
410.0	437.6	476.5	464.2	494.6	546.4	608.0	663.0	696.5	738.5	768.7	793.7	799.4	777.9	737.0	685.3	624.7	590.4	560.7	537.1	513.0	484.0	457.8	429.3	400.7	364.7	326.0	292.4	279.4	254.7	193.0	144.3	111.1	85.31	68.26	65.65	175.0	831.4	 2813	 3977	 1051	16.80	3.606	2.694	2.270	2.057	1.963	1.838	1.961	2.005	1.979	1.894	2.294	2.769	2.869	2.926	3.139	3.563	3.602	3.756	3.816	3.932	3.867	3.774	3.957	4.039	3.988	4.029	3.990	4.056	4.118	4.119	4.236	4.326	4.141	4.183	4.027	4.122
415.0	420.3	428.9	459.5	475.9	522.3	589.3	639.1	685.6	708.5	738.2	763.1	756.3	740.4	702.5	651.6	605.6	576.5	553.1	532.0	505.6	482.7	457.1	429.8	402.6	372.8	335.6	300.9	272.4	261.7	241.2	177.2	130.3	99.69	77.28	60.40	72.88	209.3	647.6	 1486	 4222	 1659	23.26	3.896	2.558	2.346	2.153	1.939	2.022	1.947	1.958	1.810	2.327	2.555	2.854	3.055	3.090	3.309	3.586	3.824	3.567	3.815	3.826	3.803	3.802	3.755	3.800	3.923	3.762	3.919	4.162	3.837	4.035	4.142	3.893	4.076	4.034	4.149
420.0	399.0	425.0	441.0	466.9	515.2	578.7	632.7	675.5	694.3	717.0	729.2	723.0	711.2	667.3	630.5	586.3	560.9	542.4	522.4	496.9	478.0	451.6	429.2	400.6	376.1	339.6	308.7	276.8	254.6	250.4	210.3	148.1	112.8	86.37	65.27	55.27	75.60	165.2	357.7	 1892	 4484	 1379	18.06	3.467	2.678	2.370	2.002	1.917	1.897	1.987	1.836	2.278	2.491	2.790	3.108	2.997	3.483	3.453	3.594	3.478	3.707	3.639	3.899	3.824	3.613	3.748	3.791	3.743	3.842	3.866	3.695	3.948	3.936	3.871	3.850	3.946	4.207
425.0	377.4	419.0	419.2	446.1	512.2	570.5	627.1	657.2	684.1	697.8	708.9	700.5	675.7	641.0	603.9	568.6	541.8	522.0	509.8	488.1	469.2	444.4	422.8	402.0	373.9	343.0	310.9	282.9	255.3	241.2	231.1	173.1	123.6	95.42	74.32	56.63	50.80	61.70	98.41	467.5	 2520	 4223	232.7	11.05	3.220	2.597	2.305	2.037	2.008	1.936	1.876	2.241	2.443	2.581	3.086	2.877	3.351	3.256	3.518	3.445	3.614	3.590	3.792	3.804	3.581	3.563	3.493	3.560	3.741	3.587	3.618	3.574	3.854	3.811	3.718	3.810	3.838
430.0	385.3	400.2	399.5	427.2	491.4	554.3	604.1	646.0	660.5	677.2	683.3	667.8	643.1	605.9	574.2	542.9	519.1	503.2	488.9	472.2	454.2	433.8	413.9	393.6	368.6	340.7	312.7	287.1	263.6	239.2	224.9	200.9	150.5	109.6	85.14	67.04	54.06	45.86	45.92	122.9	623.0	 2127	 3174	981.1	15.98	3.756	2.683	2.294	2.108	1.838	1.908	2.172	2.444	2.650	2.843	2.855	3.336	3.227	3.270	3.453	3.578	3.672	3.664	3.650	3.502	3.433	3.508	3.350	3.508	3.427	3.522	3.399	3.657	3.645	3.555	3.650	3.829
435.0	559.3	380.7	380.8	404.3	467.4	534.5	583.8	630.3	643.4	652.6	655.7	637.1	609.5	577.9	543.5	514.1	495.5	479.7	469.5	451.6	436.8	420.9	404.1	383.6	360.9	336.1	310.4	291.5	266.5	243.2	220.3	200.4	180.0	130.9	99.65	78.66	63.28	50.83	42.41	52.28	157.9	491.0	 1140	 3496	 1568	22.01	4.017	2.986	2.490	1.996	2.031	2.345	2.472	2.439	2.736	2.737	3.229	3.275	3.381	3.299	3.295	3.588	3.582	3.641	3.473	3.128	3.315	3.406	3.223	3.223	3.141	3.231	3.343	3.154	3.398	3.471	3.520
440.0	857.4	368.4	371.2	396.2	455.8	512.3	574.9	616.9	625.2	642.1	629.2	623.4	587.8	548.3	518.3	490.2	473.7	465.3	446.6	434.6	420.9	406.1	390.2	374.4	356.5	331.0	309.5	287.4	269.9	246.2	222.4	195.5	184.8	153.4	110.9	87.75	71.09	57.70	47.22	40.47	59.09	128.4	276.7	 1616	 4047	 1203	15.10	3.626	2.627	2.185	1.998	2.411	2.328	2.403	2.928	2.970	3.211	3.224	3.340	3.270	3.178	3.485	3.268	3.449	3.257	3.102	3.190	3.310	3.100	3.004	2.861	3.140	3.138	3.210	3.216	3.392	3.348
445.0	 1087	464.1	364.7	392.1	447.0	500.1	558.6	598.3	614.1	623.7	617.7	593.5	555.6	524.2	498.8	468.5	448.7	442.5	426.2	420.9	406.1	389.6	378.1	361.2	346.5	321.9	303.2	285.7	267.7	245.6	221.7	194.5	177.6	165.2	127.3	95.99	79.20	65.40	53.54	45.65	42.78	52.70	80.57	405.4	 2345	 3794	194.1	9.922	3.334	2.337	2.130	2.373	2.191	2.373	2.574	2.691	3.080	3.216	3.207	3.324	3.307	3.270	3.264	3.529	3.307	3.177	3.177	3.242	3.133	2.735	2.952	3.023	2.999	3.069	3.194	3.212	3.246
450.0	913.1	841.3	371.0	370.9	413.3	473.5	534.5	578.9	591.9	602.4	586.8	559.1	521.2	491.6	461.3	434.3	418.5	411.0	399.3	391.1	379.3	367.2	353.8	342.9	327.8	311.5	292.5	275.5	263.0	244.1	221.0	195.7	172.0	158.2	144.8	113.9	90.57	76.11	64.45	55.87	48.48	43.93	43.19	109.7	580.0	 1973	 2968	862.7	13.84	3.239	2.449	2.383	2.411	2.443	2.549	2.601	2.996	3.041	3.235	3.243	3.166	3.258	3.063	3.127	3.022	3.092	3.012	2.938	2.868	2.816	2.801	2.843	2.962	2.846	2.967	3.039	3.217
455.0	462.6	 1077	571.6	342.5	372.8	449.3	496.8	547.2	564.6	571.8	547.7	518.5	481.9	452.4	426.6	396.6	384.7	375.1	366.1	356.0	350.6	339.6	328.0	319.9	305.8	292.1	278.0	263.7	252.7	236.9	216.5	194.9	170.0	151.2	140.2	133.1	107.2	86.53	75.22	66.05	57.85	49.40	41.45	48.49	146.7	454.1	 1065	 3062	 1322	17.12	3.226	2.658	2.610	2.545	2.500	2.406	2.974	2.731	3.180	3.001	2.938	3.085	3.027	2.928	3.037	2.875	2.659	2.722	2.750	2.681	2.703	2.737	2.848	2.636	2.746	2.761	2.953
460.0	301.1	893.9	853.3	336.2	367.5	427.9	473.7	518.9	539.8	540.4	526.1	489.1	456.5	418.8	398.1	372.2	361.3	347.3	341.8	331.7	324.5	316.2	307.6	298.6	288.9	276.4	264.7	250.2	242.8	229.8	212.3	192.5	169.7	149.2	133.7	134.4	119.6	94.24	81.34	73.01	63.70	54.84	44.66	37.98	52.82	115.5	253.1	 1380	 3393	961.6	12.18	3.064	2.836	2.538	2.651	2.578	2.872	2.845	3.153	2.817	2.768	2.796	2.881	2.920	2.931	2.768	2.583	2.508	2.572	2.503	2.515	2.437	2.556	2.537	2.479	2.481	2.691
465.0	234.3	545.0	 1063	436.5	349.9	401.3	452.3	501.8	518.9	516.8	495.8	461.6	427.4	393.7	368.7	351.9	336.1	326.5	317.4	310.5	304.7	297.2	289.8	281.5	273.3	261.7	252.1	241.0	233.1	220.7	205.4	185.8	165.7	146.6	132.1	126.8	123.6	104.2	85.42	77.67	68.38	58.75	48.05	37.68	33.45	41.18	67.67	339.9	 1999	 3078	155.9	7.498	2.939	2.572	2.647	2.696	2.857	2.970	2.931	2.605	2.875	2.826	2.638	2.946	2.724	2.640	2.440	2.380	2.446	2.370	2.631	2.521	2.285	2.458	2.222	2.518	2.564
470.0	211.4	306.3	841.9	798.3	361.1	370.6	423.9	461.4	478.0	480.3	462.0	424.1	386.3	360.8	335.9	316.5	303.9	294.1	286.4	280.4	275.1	268.0	262.3	256.7	249.0	241.2	231.9	224.1	216.9	205.8	193.8	176.9	159.1	142.2	127.3	118.5	114.5	109.6	94.05	80.54	71.29	61.06	50.20	39.64	30.53	25.89	27.37	84.99	492.9	 1639	 2237	754.4	12.72	3.065	2.645	2.567	2.758	2.732	2.732	2.760	2.672	2.651	2.613	2.672	2.533	2.407	2.251	2.319	2.243	2.134	2.216	2.191	2.366	2.278	2.202	2.197	2.295
475.0	196.2	233.3	423.2	 1037	524.6	337.0	384.7	421.2	433.4	436.7	421.4	385.7	351.1	327.7	305.1	282.5	270.3	263.5	254.8	252.5	245.2	240.0	236.9	229.8	225.7	218.7	210.0	205.8	201.1	192.1	179.2	165.3	148.9	135.4	122.6	112.3	106.2	101.5	99.37	84.96	71.23	61.33	51.43	40.78	30.67	24.24	19.12	29.25	117.4	372.7	795.6	 2284	 1114	16.42	3.145	2.768	2.789	2.658	2.451	2.652	2.513	2.478	2.380	2.608	2.492	2.398	2.111	2.011	1.976	2.001	2.097	1.848	2.103	2.020	2.035	2.132	2.039
480.0	176.5	199.8	249.0	842.4	913.8	348.5	360.1	392.3	409.6	409.3	396.0	359.7	330.3	302.7	284.8	260.7	250.2	243.0	236.8	231.9	226.9	220.6	218.3	212.6	208.0	204.4	197.2	193.3	188.9	181.4	168.8	158.2	142.9	129.0	118.5	108.1	102.4	95.32	97.05	89.14	72.68	61.21	50.81	41.39	31.18	24.24	18.60	17.45	34.33	89.83	187.7	 1010	 2509	835.5	11.38	3.129	2.925	2.653	2.428	2.466	2.451	2.494	2.562	2.313	2.367	2.177	1.962	1.984	1.772	1.862	2.032	1.947	1.947	1.922	1.997	1.926	2.071
485.0	163.5	191.4	205.9	505.8	 1187	444.4	339.6	372.4	387.4	383.1	369.4	340.1	309.3	285.0	262.3	245.4	234.2	223.8	219.9	215.6	207.4	205.1	204.0	197.6	194.6	190.4	185.9	181.2	177.3	170.2	161.8	147.9	137.6	123.9	113.0	105.4	97.93	90.66	88.83	89.64	74.62	60.56	51.43	40.93	32.19	24.57	19.09	15.22	17.01	27.60	48.21	247.1	 1497	 2444	175.0	5.960	3.139	2.696	2.711	2.347	2.311	2.447	2.241	2.206	2.200	1.881	1.783	1.879	1.684	1.862	1.709	1.689	1.808	1.746	1.817	1.906	1.843
490.0	145.4	174.7	182.3	274.4	940.4	 1008	358.0	342.6	357.8	359.0	339.4	311.9	286.7	260.9	239.2	222.8	211.0	202.9	197.3	193.8	188.9	186.1	183.5	181.1	177.1	173.2	169.0	165.2	161.6	155.8	148.5	137.7	127.5	115.9	107.4	99.24	93.26	85.31	81.81	79.38	75.90	63.93	49.96	40.64	32.57	25.83	20.22	16.09	14.04	14.45	17.85	60.92	368.2	 1293	 1683	683.8	12.83	3.202	2.624	2.415	2.366	2.183	2.163	2.063	2.038	1.845	1.745	1.679	1.542	1.647	1.570	1.703	1.654	1.703	1.700	1.755	1.637
495.0	138.4	160.9	164.7	196.1	444.2	 1322	718.5	312.8	321.6	320.6	305.6	281.3	255.9	232.3	214.4	201.3	188.8	180.9	178.1	171.6	168.7	167.5	162.6	160.4	157.4	154.4	150.7	148.6	146.2	142.2	135.2	127.1	116.4	108.2	99.18	93.31	86.22	79.51	75.91	70.91	69.16	65.15	51.91	40.72	32.69	26.35	21.00	17.32	14.46	12.38	11.76	20.16	87.37	294.3	725.2	 2175	 1065	16.66	2.871	2.335	2.190	2.148	1.931	1.805	1.908	1.611	1.638	1.587	1.497	1.341	1.256	1.416	1.426	1.642	1.572	1.624	1.507
500.0	118.6	143.0	163.6	171.2	249.8	 1034	 1238	329.2	293.7	295.3	285.4	259.2	232.4	215.6	196.9	181.3	170.2	163.9	160.6	153.3	151.9	149.1	147.6	146.0	142.6	141.6	136.5	135.3	133.9	131.2	124.3	116.2	108.2	100.6	92.92	86.22	80.60	74.86	70.18	66.47	62.67	61.35	53.61	40.63	32.60	25.87	21.49	17.62	14.66	12.47	10.50	11.48	25.12	70.57	172.8	 1035	 2387	209.1	10.76	2.646	2.237	1.957	1.935	1.883	1.741	1.488	1.561	1.429	1.395	1.399	1.298	1.300	1.248	1.505	1.341	1.405	1.429
505.0	102.1	124.6	150.1	155.2	190.4	592.3	 1584	571.2	270.6	269.3	260.7	235.6	216.3	199.1	179.2	165.4	155.2	151.6	146.6	141.1	136.7	136.0	133.4	134.3	130.3	128.6	126.0	124.4	122.9	120.6	114.6	108.3	99.39	93.16	86.13	80.46	75.39	70.89	66.89	61.84	57.41	55.46	52.02	41.27	31.98	25.90	21.59	18.10	14.94	12.99	10.95	9.699	11.79	20.92	43.32	256.0	 1469	 1694	177.4	4.777	2.299	1.946	1.823	1.789	1.506	1.536	1.406	1.378	1.242	1.262	1.275	1.361	1.217	1.325	1.309	1.202	1.203
510.0	88.95	107.5	134.1	142.1	158.2	280.7	 1138	 1282	335.2	243.0	231.7	211.7	193.6	173.6	158.2	146.6	137.0	132.5	127.9	123.4	121.5	118.9	117.4	116.5	114.5	112.2	111.2	110.2	108.7	106.0	101.9	95.92	88.09	82.48	76.98	72.10	67.64	63.67	60.27	55.97	51.98	48.26	45.74	41.30	32.74	25.02	21.23	17.87	15.24	12.97	11.25	9.756	8.903	10.09	14.51	61.38	364.1	 1073	 1552	624.5	11.95	2.140	1.927	1.699	1.485	1.417	1.330	1.389	1.215	1.079	1.183	1.176	1.046	1.192	1.135	1.227	1.130
515.0	72.68	81.59	108.7	126.7	137.4	182.1	467.6	 1525	821.7	218.3	203.4	186.3	168.7	153.1	138.6	127.6	120.5	113.9	110.6	106.8	104.1	101.8	100.3	100.4	99.33	96.59	96.05	95.18	93.49	91.20	88.55	84.04	78.46	72.36	67.92	62.95	60.49	56.83	54.21	50.67	46.56	42.59	39.24	36.50	32.80	25.44	20.13	17.43	14.89	12.76	11.32	9.728	8.287	7.779	8.247	17.77	84.80	243.7	618.2	 1749	825.3	14.78	2.002	1.753	1.461	1.416	1.278	1.174	1.185	0.966	1.051	1.094	0.986	0.851	0.977	1.163	0.905
520.0	74.68	79.54	98.87	113.4	129.2	149.3	233.2	 1066	 1436	243.6	183.4	166.9	153.8	138.3	124.7	114.2	107.2	103.1	99.44	95.34	93.96	90.36	89.57	90.52	87.79	86.11	85.92	85.10	84.75	83.73	80.46	76.12	70.48	65.18	61.34	58.32	54.81	50.46	49.22	45.58	42.75	38.86	34.62	32.12	31.23	27.15	20.41	17.02	14.62	12.47	11.23	9.761	8.677	7.276	6.756	8.236	22.74	57.53	146.1	856.2	 1788	200.1	7.049	1.579	1.552	1.414	1.152	1.049	1.042	1.001	0.954	0.901	0.904	0.879	0.922	1.080	0.758
525.0	61.86	74.57	83.35	95.69	124.9	134.1	161.4	539.7	 1693	571.3	172.3	153.6	139.6	127.2	112.2	104.6	96.74	91.50	90.64	85.30	85.03	82.10	81.47	80.90	79.34	78.22	77.87	77.50	76.75	75.85	72.09	68.66	63.63	59.54	55.93	52.36	50.00	46.55	44.07	41.94	39.42	35.16	32.44	28.38	27.39	26.74	21.12	16.43	14.05	12.33	10.96	9.499	8.552	7.114	6.430	5.896	8.761	16.13	35.47	212.5	 1109	 1469	156.1	3.039	1.500	1.368	1.125	0.953	1.005	0.979	0.882	0.901	0.851	0.792	0.807	0.725	0.827
530.0	60.99	66.74	72.23	79.96	110.1	119.7	133.7	238.6	 1078	 1313	271.9	137.1	122.8	110.1	99.07	91.76	84.44	80.12	77.81	74.58	74.03	71.19	70.40	71.28	68.50	68.98	68.50	67.29	67.52	66.33	64.01	59.75	55.93	52.64	49.13	45.79	44.05	41.31	39.16	37.46	35.05	31.34	28.73	24.98	23.31	22.95	21.51	16.94	13.56	11.96	10.17	9.252	7.936	7.066	6.364	5.438	5.657	6.814	10.65	49.95	274.4	854.4	 1175	456.2	10.21	1.473	1.097	1.032	0.915	0.851	0.853	0.861	0.815	0.693	0.754	0.771	0.694
535.0	53.21	61.27	59.56	68.31	89.74	116.0	111.2	143.5	400.0	 1369	847.9	124.7	107.7	95.69	86.93	77.74	72.16	69.61	66.09	64.10	63.23	60.77	60.47	60.37	58.62	59.36	58.70	57.65	58.41	57.20	54.21	52.38	48.16	45.53	41.67	40.18	37.83	35.99	34.48	32.45	30.01	27.62	24.86	21.84	20.83	18.96	18.81	17.84	13.67	11.02	9.337	8.441	7.391	6.549	5.948	5.338	4.638	4.478	5.167	13.34	63.27	193.4	463.7	 1314	218.2	12.69	1.224	1.034	0.862	0.868	0.848	0.769	0.742	0.691	0.712	0.755	0.678
540.0	50.44	54.29	55.53	60.61	77.86	103.1	106.5	117.4	185.4	870.0	 1383	173.2	97.53	86.91	75.38	68.78	65.21	60.83	59.47	57.67	56.14	54.43	53.72	53.64	52.02	52.13	51.56	51.64	51.37	51.45	48.71	47.53	42.46	40.98	37.69	35.81	33.88	32.04	30.33	28.56	26.63	25.14	23.01	20.54	18.60	16.90	16.31	16.95	14.19	10.98	9.193	8.171	7.310	6.433	5.414	5.229	4.528	4.004	3.585	5.103	16.23	44.91	109.1	638.1	 1288	196.1	6.111	1.074	0.992	0.845	0.835	0.777	0.681	0.662	0.556	0.704	0.552
545.0	49.50	56.83	56.31	52.96	65.46	93.03	102.8	105.4	125.8	411.6	 1439	549.4	89.60	78.09	68.33	62.54	58.05	54.84	53.49	51.09	50.45	48.80	47.92	48.09	46.89	47.30	46.60	46.14	45.89	45.61	43.75	42.52	38.93	36.16	34.22	32.21	30.62	29.01	28.02	26.33	24.46	22.59	20.53	18.94	17.23	15.18	14.04	14.94	13.83	11.25	8.794	7.655	6.801	6.165	5.374	4.882	4.362	3.664	3.265	3.201	5.570	11.69	26.11	158.1	837.6	 1183	28.34	2.329	1.103	0.868	0.724	0.682	0.565	0.538	0.618	0.593	0.535
550.0	51.08	51.38	50.01	50.16	54.59	74.59	93.82	96.60	100.4	172.6	811.4	 1158	210.3	68.14	60.24	54.78	50.49	47.67	45.57	44.51	43.09	41.86	41.70	41.23	40.40	39.97	39.79	39.64	39.01	39.15	37.48	36.07	33.02	30.84	29.63	27.50	26.53	24.98	23.83	22.51	21.38	19.92	18.18	16.27	15.00	13.53	12.26	11.77	12.16	11.40	8.926	7.294	6.105	5.572	5.020	4.563	4.058	3.677	3.043	2.725	3.093	4.219	7.248	36.62	207.5	684.0	964.6	415.8	10.23	1.052	0.772	0.737	0.597	0.625	0.496	0.523	0.416
555.0	50.22	54.94	47.24	46.02	47.63	60.76	83.29	91.80	83.13	102.4	281.5	 1031	758.9	64.74	52.22	46.09	42.07	40.37	38.10	38.30	36.30	34.97	35.24	35.01	33.95	33.17	32.72	32.32	33.21	33.05	31.67	29.99	27.93	26.54	24.97	23.85	22.11	20.53	19.95	18.72	18.05	16.73	14.77	13.49	12.83	11.62	10.35	9.882	9.480	9.915	8.918	6.955	5.464	5.207	4.575	4.183	3.632	3.282	2.985	2.551	2.360	2.438	2.995	9.410	47.44	154.4	374.4	 1148	224.0	12.96	0.965	0.709	0.583	0.576	0.483	0.539	0.474
560.0	49.29	51.26	40.26	39.88	42.87	50.82	67.51	86.97	75.81	79.40	124.9	596.6	 1151	118.5	45.72	39.44	36.69	34.64	33.39	32.47	31.36	30.01	30.37	30.44	29.26	28.55	28.32	27.72	28.38	28.79	26.59	25.51	23.90	22.96	21.14	20.43	19.09	17.93	17.63	15.88	15.68	14.52	13.18	12.31	11.03	10.46	9.194	8.734	7.853	8.085	8.403	7.190	5.321	4.544	4.148	3.683	3.333	3.101	2.849	2.537	2.036	2.156	1.900	3.440	11.81	35.37	87.48	536.9	 1182	200.4	6.619	0.882	0.681	0.543	0.547	0.459	0.492
565.0	52.01	52.70	41.38	35.73	37.30	43.83	55.52	79.89	78.57	76.11	85.08	263.4	 1076	494.6	41.54	34.86	31.79	30.24	29.39	27.60	26.92	25.73	26.32	26.47	24.28	24.56	24.43	24.70	24.38	24.45	23.54	22.04	21.03	19.54	18.21	17.37	16.69	15.75	14.91	14.15	13.31	12.84	11.69	10.76	9.780	8.986	7.820	7.736	6.847	6.512	7.129	6.751	5.068	4.164	3.572	3.455	3.110	2.841	2.312	2.346	1.905	1.845	1.680	1.979	3.649	8.874	20.50	130.8	723.8	 1095	154.4	2.390	0.811	0.606	0.504	0.395	0.459
570.0	60.93	59.21	41.33	32.35	29.23	35.78	45.27	63.61	78.78	76.11	78.23	121.0	559.8	925.7	177.4	28.50	25.81	24.38	22.73	21.58	21.40	20.77	20.86	19.98	19.52	19.70	19.41	19.71	19.17	19.41	18.65	17.58	17.06	15.69	14.56	13.72	13.16	12.44	11.90	11.49	10.79	10.18	9.453	8.472	7.782	7.226	6.585	6.191	5.571	5.162	5.257	5.434	4.727	3.925	3.096	2.805	2.628	2.369	2.047	1.882	1.809	1.566	1.419	1.435	1.799	2.878	5.491	29.96	176.5	590.4	870.3	366.2	10.21	0.794	0.602	0.432	0.384
575.0	64.52	57.59	45.32	26.11	26.39	30.44	39.38	52.90	77.73	84.77	90.46	103.9	212.1	714.8	657.1	31.00	20.57	19.06	17.64	16.86	15.80	16.54	16.20	15.78	15.16	15.32	14.98	15.03	15.04	14.84	14.13	13.51	13.01	11.94	11.13	10.82	10.37	9.879	9.325	8.943	8.568	7.921	7.425	6.557	6.139	5.658	5.206	4.964	4.242	4.089	3.908	3.966	3.954	3.801	2.661	2.254	2.190	1.920	1.818	1.582	1.489	1.500	1.263	1.202	1.329	1.532	2.015	7.452	40.08	132.9	313.5	932.9	227.9	12.88	0.710	0.442	0.463
580.0	66.67	65.19	43.71	25.60	23.32	24.38	34.99	48.72	77.25	96.45	103.7	111.6	125.0	404.2	925.2	84.62	17.68	16.07	14.61	14.01	13.32	13.48	13.16	12.84	13.17	12.57	12.55	12.48	11.66	12.19	11.36	11.04	10.34	9.453	9.280	8.757	8.262	7.962	7.654	7.319	6.806	6.592	6.057	5.406	5.075	4.705	4.351	4.214	3.713	3.384	3.208	3.022	3.260	3.221	2.858	2.044	1.779	1.680	1.429	1.383	1.313	1.306	1.233	1.176	1.221	1.124	1.228	2.399	9.869	30.29	72.77	413.2	952.5	200.2	5.672	0.602	0.435
585.0	73.48	73.71	42.97	29.00	21.14	22.41	31.74	45.70	72.01	104.7	118.6	124.1	117.2	195.2	764.3	438.3	15.62	13.51	12.85	11.97	11.80	11.47	11.59	11.10	11.36	10.81	10.56	10.13	10.27	10.10	9.340	9.219	8.487	7.938	7.829	7.382	6.936	6.750	6.360	6.013	5.638	5.271	4.874	4.669	4.476	4.068	3.796	3.610	3.255	2.878	2.635	2.515	2.479	2.944	2.514	2.045	1.704	1.494	1.270	1.220	1.294	1.146	1.248	1.142	1.124	1.147	1.177	1.353	3.041	7.752	17.01	99.24	548.8	882.7	30.16	2.195	0.512
590.0	74.40	68.09	47.00	24.66	19.20	22.82	30.71	44.79	70.38	109.8	141.1	142.4	127.2	113.5	359.5	723.2	146.8	11.18	10.48	10.01	9.452	9.031	9.205	8.967	8.718	8.480	8.135	8.205	8.122	7.952	7.722	7.511	6.985	6.365	6.140	5.726	5.347	5.467	5.124	4.975	4.629	4.172	4.061	3.722	3.433	3.373	3.122	2.954	2.617	2.347	2.155	1.962	1.838	2.068	2.152	1.979	1.537	1.292	1.103	1.116	1.129	1.018	1.086	1.186	1.125	1.032	1.048	1.131	1.491	2.528	4.512	22.76	131.9	439.1	651.1	304.6	10.60
595.0	76.39	67.41	42.67	23.18	16.73	20.82	30.98	42.46	68.15	107.6	147.8	153.8	138.4	98.72	119.4	473.1	554.8	17.04	8.023	7.505	7.617	6.942	6.834	7.030	6.681	6.420	6.384	6.654	6.420	6.333	6.103	5.526	5.445	5.121	4.903	4.739	4.279	4.159	4.175	3.814	3.511	3.390	3.304	2.903	2.707	2.642	2.438	2.388	2.079	1.949	1.677	1.587	1.371	1.418	1.688	1.774	1.508	1.165	0.871	1.053	0.957	1.045	1.056	0.976	1.002	1.143	1.058	1.061	1.231	1.245	1.633	5.615	29.78	98.74	220.6	697.3	238.0
600.0	78.55	67.86	48.95	22.36	16.96	19.78	28.73	43.24	66.91	102.9	147.5	162.7	143.6	96.56	56.65	225.1	725.0	65.66	7.255	5.808	6.177	5.905	5.610	5.924	5.813	5.638	5.331	5.101	5.293	5.462	5.127	4.630	4.563	4.448	3.844	4.015	3.758	3.612	3.329	3.240	3.049	2.843	2.622	2.505	2.304	2.317	2.252	2.108	1.795	1.652	1.523	1.377	1.133	1.247	1.229	1.477	1.401	1.191	1.030	0.839	0.908	0.886	0.932	0.952	1.005	1.114	1.139	1.173	1.034	1.012	0.977	1.690	7.012	22.25	50.54	287.7	730.0
605.0	65.61	68.86	44.12	23.30	14.65	18.44	28.63	44.50	66.30	100.7	142.2	166.5	142.4	92.45	42.86	83.39	543.9	379.4	7.724	5.523	5.234	4.995	4.860	4.846	4.649	4.771	4.679	4.491	4.511	4.544	4.025	3.968	4.210	3.883	3.522	3.293	3.261	2.984	2.759	2.774	2.486	2.361	2.247	2.134	2.106	1.799	1.768	1.787	1.607	1.505	1.218	1.106	0.949	1.024	0.870	1.055	1.492	1.087	0.982	0.748	0.876	0.919	0.884	0.883	1.002	1.179	1.026	1.070	0.988	0.941	0.771	0.914	2.011	5.188	11.67	68.07	386.8
610.0	65.92	58.22	39.14	21.67	12.86	15.66	26.87	40.52	62.81	96.16	134.9	162.6	140.2	89.20	37.66	30.24	224.0	580.0	127.5	4.994	4.487	4.165	3.992	3.892	4.074	3.821	3.726	3.608	3.630	3.554	3.468	3.402	3.344	3.188	2.803	2.764	2.554	2.503	2.241	2.143	1.999	1.911	1.877	1.703	1.793	1.492	1.574	1.433	1.322	1.139	1.095	0.884	0.786	0.769	0.761	0.804	1.058	1.009	0.995	0.779	0.677	0.655	0.775	0.746	0.929	0.912	0.979	1.045	1.001	0.822	0.754	0.638	0.795	1.419	2.841	15.45	91.57
615.0	60.79	50.48	32.80	17.24	12.92	14.87	24.33	36.69	57.63	86.65	122.8	146.8	137.4	85.19	34.75	16.68	59.99	340.0	467.7	13.82	3.863	3.678	3.492	3.185	3.152	2.986	3.017	3.105	2.781	2.748	2.630	2.605	2.720	2.443	2.291	2.176	1.942	1.936	1.689	1.618	1.526	1.606	1.478	1.426	1.289	1.301	1.194	1.141	1.057	0.922	0.789	0.757	0.675	0.634	0.571	0.600	0.726	0.689	0.884	0.710	0.675	0.671	0.672	0.801	0.798	0.888	0.883	0.989	0.968	0.809	0.711	0.500	0.529	0.596	0.867	3.615	20.62
620.0	54.70	49.40	34.10	17.63	11.87	13.11	23.51	33.35	55.72	84.22	113.1	135.8	127.2	82.22	33.45	12.99	18.80	144.3	578.4	58.44	3.248	3.133	3.102	2.601	2.826	2.444	2.566	2.570	2.280	2.253	2.361	2.116	2.217	1.907	2.112	1.806	1.751	1.487	1.463	1.376	1.306	1.380	1.227	1.231	1.148	1.079	1.055	1.030	0.885	0.793	0.657	0.639	0.560	0.562	0.460	0.500	0.626	0.510	0.821	0.832	0.574	0.629	0.630	0.633	0.695	0.711	0.771	0.967	0.855	0.702	0.686	0.478	0.412	0.267	0.358	0.992	4.838
625.0	52.96	48.20	32.36	17.29	10.88	13.47	20.31	33.01	50.00	79.07	106.2	123.3	119.1	79.15	32.93	12.54	9.250	47.81	404.7	351.1	4.350	2.462	2.532	2.496	2.381	2.111	2.181	2.081	2.194	1.929	1.876	1.955	1.794	1.728	1.650	1.624	1.624	1.310	1.163	1.312	0.973	1.171	0.932	1.051	1.021	0.901	0.878	0.855	0.734	0.671	0.561	0.595	0.571	0.491	0.326	0.379	0.474	0.448	0.622	0.606	0.538	0.520	0.600	0.629	0.731	0.618	0.678	0.728	0.768	0.653	0.560	0.370	0.416	0.193	0.274	0.292	1.255
630.0	47.20	40.77	28.52	14.17	10.52	12.07	17.85	27.89	46.83	70.83	94.24	108.9	103.9	75.69	31.26	11.36	7.037	14.45	151.4	492.4	117.6	2.339	2.107	1.966	1.912	1.677	1.779	1.714	1.913	1.617	1.514	1.557	1.394	1.482	1.419	1.242	1.185	1.088	0.975	1.065	0.903	1.017	0.763	0.764	0.769	0.756	0.707	0.639	0.598	0.556	0.502	0.528	0.446	0.373	0.384	0.316	0.360	0.422	0.457	0.523	0.502	0.463	0.499	0.581	0.543	0.580	0.625	0.616	0.617	0.560	0.529	0.409	0.324	0.176	0.177	0.173	0.399
635.0	46.10	32.12	25.08	14.96	10.80	11.17	17.31	24.44	41.64	60.02	84.15	96.01	88.28	68.02	31.31	11.40	6.524	6.610	38.40	252.1	414.4	11.05	2.144	1.673	1.649	1.380	1.551	1.492	1.562	1.384	1.140	1.223	1.093	1.096	1.236	0.975	0.896	0.889	0.817	0.973	0.683	0.788	0.707	0.684	0.508	0.637	0.577	0.572	0.512	0.404	0.376	0.344	0.315	0.328	0.349	0.285	0.217	0.281	0.308	0.364	0.478	0.497	0.556	0.529	0.511	0.538	0.575	0.598	0.457	0.513	0.355	0.420	0.313	0.152	0.107	0.069	0.261
640.0	34.94	37.57	23.41	13.25	9.003	12.22	17.28	23.05	37.19	56.28	75.88	85.06	77.92	59.80	31.64	12.97	6.590	4.828	11.20	96.20	489.1	50.76	1.990	1.379	1.216	1.185	1.335	1.134	1.263	1.162	1.087	1.067	1.015	0.982	0.836	0.855	0.752	0.680	0.675	0.711	0.693	0.637	0.585	0.605	0.557	0.522	0.492	0.425	0.425	0.360	0.341	0.319	0.239	0.272	0.266	0.238	0.301	0.219	0.334	0.360	0.399	0.414	0.435	0.533	0.428	0.654	0.497	0.531	0.400	0.514	0.309	0.319	0.334	0.143	0.075	0.123	0.089
645.0	32.69	31.74	18.61	12.63	8.008	11.18	15.32	23.18	34.39	51.16	69.95	75.99	72.20	52.15	31.97	13.40	6.856	4.703	4.835	29.36	322.4	297.0	3.245	1.319	1.246	1.102	1.181	0.905	0.951	1.168	0.925	0.967	0.876	0.844	0.824	0.723	0.733	0.698	0.574	0.600	0.523	0.449	0.636	0.549	0.536	0.477	0.415	0.418	0.386	0.313	0.327	0.378	0.265	0.220	0.218	0.209	0.301	0.227	0.312	0.367	0.319	0.378	0.410	0.449	0.398	0.467	0.423	0.517	0.424	0.454	0.286	0.333	0.256	0.201	0.156	0.137	0.073
650.0	29.59	27.89	21.86	12.00	7.905	10.12	13.74	21.58	30.15	44.88	62.24	69.32	64.18	47.19	29.04	15.50	6.930	4.803	4.056	8.974	137.3	451.9	32.08	1.412	1.030	0.994	1.101	0.901	0.956	1.066	0.976	0.881	0.797	0.790	0.711	0.653	0.719	0.602	0.627	0.535	0.638	0.410	0.508	0.476	0.400	0.403	0.348	0.419	0.330	0.307	0.280	0.270	0.266	0.205	0.279	0.211	0.230	0.249	0.223	0.253	0.237	0.292	0.406	0.337	0.334	0.419	0.422	0.360	0.315	0.414	0.323	0.325	0.138	0.366	0.102	0.079	0.102
