Sample:	'1
File name:	Default_20231008_194146.FD3
Run date:	'19:35:25, 10/08/2023
Operator:	dsjg
Comment:	'

Instrument
Model:	F-2700 FL Spectrophotometer
Serial number:	2198-001
ROM Version:	4J14000 07

Instrument parameters
Measurement type:	3-D scan
Data mode:	Fluorescence
EX  Start WL:	220.0 nm
EX  End WL:	600.0 nm
EX Sampling interval:	5.0 nm
EM  Start WL:	230.0 nm
EM  End WL:	650.0 nm
EM Sampling interval:	5.0 nm
Scan speed:	12000 nm/min
EX Slit:	5.0 nm
EM Slit:	5.0 nm
PMT Voltage:	700 V
Response:	Auto 
Corrected spectra:	Off
Contour interval:	50.000

Peak integration
Integration method:	Rectangular
Sensitivity:	1
Threshold:	1.000

Peaks
No.	ApexEX/EM(nm)	Height(Data)
1	225.0/350.0	 1774
2	230.0/355.0	 1752
3	245.0/300.0	 1684
4	245.0/365.0	 1722
5	245.0/580.0	157.7
6	250.0/560.0	154.0
7	270.0/300.0	 2523
8	275.0/345.0	 1870
9	405.0/300.0	5.823
10	535.0/270.0	43.09
11	540.0/295.0	14.71

Data points
	220.0	225.0	230.0	235.0	240.0	245.0	250.0	255.0	260.0	265.0	270.0	275.0	280.0	285.0	290.0	295.0	300.0	305.0	310.0	315.0	320.0	325.0	330.0	335.0	340.0	345.0	350.0	355.0	360.0	365.0	370.0	375.0	380.0	385.0	390.0	395.0	400.0	405.0	410.0	415.0	420.0	425.0	430.0	435.0	440.0	445.0	450.0	455.0	460.0	465.0	470.0	475.0	480.0	485.0	490.0	495.0	500.0	505.0	510.0	515.0	520.0	525.0	530.0	535.0	540.0	545.0	550.0	555.0	560.0	565.0	570.0	575.0	580.0	585.0	590.0	595.0	600.0
230.0	218.2	 2729	 3528	518.1	21.38	11.67	9.079	7.935	7.168	6.287	5.890	5.428	4.424	3.854	3.296	2.939	2.533	2.297	2.133	2.087	1.943	1.804	1.776	1.710	1.624	1.518	1.471	1.394	1.403	1.374	1.328	1.332	1.221	1.148	1.104	1.119	1.110	1.051	1.016	0.972	0.977	1.042	1.048	0.904	0.848	0.843	1.947	8.110	16.76	14.83	6.254	1.461	0.690	0.590	0.622	0.650	0.612	0.664	0.637	0.606	0.622	0.605	0.612	0.591	0.566	0.578	0.603	0.610	0.619	0.608	0.591	0.584	0.576	0.573	0.596	0.647	0.645
235.0	106.8	851.4	 2997	 3353	381.9	23.54	10.78	9.053	7.696	6.815	5.996	5.674	4.722	3.655	3.014	2.822	2.801	2.410	2.176	2.066	2.063	1.948	1.757	1.598	1.748	1.586	1.532	1.558	1.387	1.300	1.340	1.325	1.221	1.156	1.178	1.135	1.023	1.069	0.990	1.015	0.906	0.963	0.916	1.078	0.936	0.870	1.078	2.467	5.879	10.49	15.73	17.72	9.002	2.095	0.682	0.622	0.667	0.617	0.656	0.594	0.632	0.655	0.616	0.536	0.592	0.619	0.590	0.571	0.645	0.574	0.618	0.573	0.577	0.549	0.594	0.610	0.589
240.0	109.4	233.6	 1126	 3739	 3011	277.3	16.13	9.251	8.890	7.356	6.596	6.045	4.956	3.970	3.362	2.823	2.706	2.565	2.396	2.124	1.886	1.887	1.718	1.586	1.540	1.563	1.511	1.529	1.298	1.358	1.335	1.319	1.233	1.175	1.185	1.054	1.088	1.103	1.018	0.991	0.897	0.872	0.915	0.870	0.918	1.036	1.014	1.108	1.843	3.299	7.608	18.25	23.91	17.88	6.312	1.169	0.732	0.652	0.663	0.644	0.633	0.653	0.613	0.609	0.663	0.649	0.638	0.550	0.618	0.605	0.638	0.582	0.554	0.552	0.566	0.531	0.568
245.0	100.5	129.6	293.9	 1714	 4486	 2493	190.9	12.27	10.06	8.347	7.518	6.162	5.153	4.294	3.548	3.012	2.717	2.459	2.332	2.176	1.937	1.975	1.627	1.737	1.745	1.543	1.535	1.480	1.346	1.401	1.511	1.389	1.152	1.150	1.135	1.034	1.036	1.033	1.048	1.001	0.898	0.863	0.932	0.872	0.863	0.907	1.032	1.004	1.016	1.264	2.268	6.391	15.48	26.40	24.87	14.85	3.910	0.820	0.701	0.687	0.661	0.660	0.609	0.623	0.591	0.613	0.662	0.586	0.688	0.593	0.676	0.648	0.577	0.608	0.587	0.615	0.623
250.0	59.99	111.4	143.2	438.7	 1861	 4093	 3575	810.5	37.58	10.01	8.607	7.537	5.883	4.558	3.720	3.415	2.997	2.692	2.419	2.242	2.027	2.052	1.847	1.620	1.744	1.704	1.612	1.541	1.526	1.439	1.373	1.397	1.201	1.223	1.159	1.083	1.033	1.028	1.032	1.014	0.949	0.926	0.895	0.889	0.881	0.869	0.928	1.002	1.054	1.051	1.090	1.994	4.205	8.943	15.23	23.50	26.72	24.00	11.51	3.963	0.863	0.676	0.636	0.661	0.630	0.600	0.607	0.627	0.659	0.608	0.676	0.615	0.614	0.661	0.625	0.661	0.641
255.0	40.65	55.22	118.0	181.1	442.7	 1285	 4356	 5595	 1170	33.27	10.44	8.890	7.091	5.351	4.195	3.635	3.431	3.007	2.537	2.171	2.439	2.065	1.892	1.744	1.819	1.778	1.726	1.643	1.547	1.552	1.462	1.381	1.292	1.186	1.194	0.975	0.959	1.019	0.975	0.947	0.957	0.941	0.923	0.979	0.916	0.875	0.791	0.822	0.849	0.862	1.038	1.358	1.672	2.532	3.964	6.139	11.40	25.39	41.50	27.52	17.80	4.049	0.821	0.663	0.737	0.606	0.612	0.603	0.655	0.659	0.628	0.620	0.650	0.630	0.631	0.674	0.642
260.0	40.30	38.77	64.81	136.0	161.8	313.5	 1688	 6072	 5636	196.8	20.60	10.39	8.168	6.423	4.592	4.035	3.659	3.221	2.438	2.304	2.387	2.124	1.876	1.767	1.926	1.887	1.741	1.687	1.560	1.648	1.584	1.391	1.331	1.210	1.141	1.099	1.043	1.018	0.980	1.029	0.903	0.979	0.966	0.934	1.000	0.877	0.874	0.818	0.756	0.767	0.800	1.324	1.423	1.270	1.459	1.987	3.187	7.625	20.12	37.64	51.47	26.33	13.42	2.024	0.796	0.686	0.665	0.613	0.679	0.654	0.644	0.672	0.602	0.690	0.597	0.692	0.577
265.0	42.32	31.57	36.06	82.38	133.3	119.2	418.4	 2655	 7514	 5055	160.1	15.12	9.396	7.010	5.743	4.199	3.869	3.289	2.667	2.649	2.417	2.269	2.105	1.930	1.997	1.781	1.826	1.808	1.611	1.641	1.512	1.479	1.305	1.206	1.158	1.028	1.098	1.002	1.003	0.991	1.014	0.903	1.016	0.921	1.025	0.936	0.836	0.831	0.721	0.662	0.740	0.958	1.205	1.296	1.216	1.112	1.433	2.321	5.358	12.69	32.41	51.97	57.61	23.09	6.820	0.888	0.794	0.670	0.566	0.666	0.722	0.623	0.627	0.631	0.665	0.652	0.624
270.0	57.14	46.96	41.70	57.69	110.0	151.6	173.4	670.9	 2895	 6619	 6602	 2020	51.20	10.36	7.697	5.155	4.601	3.808	3.277	2.902	2.644	2.434	2.240	2.136	2.020	1.905	1.885	1.771	1.706	1.627	1.609	1.579	1.466	1.290	1.303	1.160	1.224	1.082	1.114	1.025	1.073	0.980	1.067	1.025	1.077	0.985	0.935	0.846	0.782	0.745	0.733	0.852	0.933	1.105	1.273	1.493	1.533	1.457	1.912	3.588	8.375	17.03	31.38	43.09	39.11	41.24	15.26	6.776	1.152	0.752	0.731	0.642	0.687	0.658	0.663	0.658	0.668
275.0	156.1	173.3	214.0	279.3	341.1	359.2	335.9	387.6	859.5	 2295	 6515	 9404	 1021	60.07	11.31	6.753	5.687	4.452	3.869	3.496	2.891	2.823	2.474	2.174	2.138	2.083	1.820	1.842	1.914	1.838	1.646	1.628	1.468	1.464	1.527	1.840	1.995	2.030	1.853	1.566	1.390	1.397	1.288	1.166	1.263	1.269	1.219	1.327	1.283	1.345	1.390	1.788	1.920	2.325	2.343	2.631	2.996	3.201	2.960	2.859	4.073	6.325	9.818	12.92	18.15	39.96	64.47	67.23	23.60	6.751	1.022	0.729	0.716	0.682	0.640	0.720	0.758
280.0	306.7	376.8	484.9	579.5	726.1	759.2	755.1	754.0	913.2	 1416	 3077	 8751	 8064	815.0	36.50	9.405	7.103	5.461	4.599	3.882	3.527	3.214	2.664	2.466	2.318	2.297	2.035	1.927	2.025	1.884	1.569	1.661	1.628	1.557	1.837	2.623	2.855	2.997	2.944	2.364	1.962	1.753	1.591	1.544	1.597	1.724	1.557	1.873	1.971	2.115	2.206	2.971	3.502	3.866	4.133	4.247	4.323	4.696	4.707	4.802	5.018	5.728	6.911	8.052	10.29	15.76	31.39	60.87	76.02	31.16	17.57	2.603	0.805	0.725	0.811	0.753	0.861
285.0	455.0	561.5	703.6	854.7	 1028	 1066	990.2	 1013	 1203	 1517	 1961	 4216	 9107	 6794	616.4	17.21	8.979	6.335	5.113	4.630	3.906	3.285	2.971	2.576	2.671	2.285	2.179	2.033	1.987	1.947	1.793	1.628	1.663	1.918	2.665	3.275	3.932	4.036	3.817	3.011	2.535	2.095	1.851	1.962	1.863	2.153	1.997	2.405	2.517	2.743	2.899	3.939	4.421	5.133	5.373	5.408	5.985	5.399	5.471	5.852	6.754	6.927	7.917	8.338	10.44	10.71	13.68	25.06	42.10	63.54	76.33	27.99	10.28	1.260	0.936	0.827	0.906
290.0	707.0	857.3	 1009	 1208	 1411	 1464	 1336	 1296	 1605	 1977	 2177	 2529	 3661	 6679	 7032	 2334	37.30	9.631	6.979	5.426	4.416	3.677	3.218	3.104	2.866	2.537	2.259	2.358	1.989	2.095	1.828	1.833	1.906	2.106	2.959	3.885	4.972	5.153	4.914	3.911	3.189	2.704	2.481	2.440	2.506	2.722	2.877	3.213	3.500	3.690	4.063	5.297	6.027	6.833	6.980	7.126	7.893	7.272	6.699	6.968	7.919	9.092	10.42	11.41	12.74	12.00	11.75	15.42	15.89	21.52	37.38	49.15	61.66	49.63	17.34	7.689	1.285
295.0	949.4	 1092	 1192	 1370	 1582	 1638	 1506	 1427	 1703	 2207	 2440	 2309	 1711	 2016	 4747	 9409	 3654	44.68	9.981	7.269	5.564	4.678	4.082	3.593	3.181	2.896	2.589	2.415	2.364	2.155	2.220	1.934	1.937	2.174	3.187	4.436	5.299	5.678	5.327	4.271	3.807	3.363	2.982	3.048	2.790	3.185	3.352	3.687	4.174	4.336	4.678	5.607	6.622	7.438	7.532	8.388	8.649	8.056	7.377	7.839	8.485	9.894	11.06	12.57	14.71	13.38	12.03	14.40	10.89	8.607	11.19	13.27	20.91	38.66	71.63	81.30	25.97
300.0	 1080	 1189	 1289	 1420	 1619	 1684	 1550	 1483	 1721	 2192	 2523	 2349	 1385	884.3	 1584	 6173	9999.9	 2700	30.75	8.852	7.115	5.564	4.384	3.844	3.422	3.097	2.679	2.571	2.277	2.282	2.129	2.073	1.920	2.234	3.236	4.527	5.559	5.823	5.371	4.576	3.879	3.427	3.203	3.441	3.262	3.307	3.843	4.150	4.423	4.599	4.810	6.096	6.946	7.494	7.757	8.507	8.826	7.946	7.976	8.027	8.599	9.525	10.75	12.15	14.36	13.93	12.90	14.16	10.00	6.885	5.979	5.673	6.795	11.65	29.03	62.88	88.64
305.0	 1112	 1246	 1268	 1372	 1549	 1609	 1515	 1459	 1661	 2068	 2396	 2339	 1389	718.9	610.4	 2055	 7361	9999.9	460.0	18.70	8.572	6.976	5.171	4.457	3.662	3.369	2.960	2.814	2.676	2.563	2.275	2.133	1.952	2.201	3.233	4.372	5.153	5.594	5.129	4.351	3.723	3.548	3.076	3.280	3.417	3.683	3.780	4.195	4.397	4.290	4.612	5.994	6.658	7.106	7.559	7.863	8.308	7.945	7.631	8.021	8.462	9.227	10.27	11.31	13.22	12.94	12.66	14.02	9.833	6.797	5.280	4.256	3.963	4.356	8.182	19.25	43.30
310.0	 1127	 1215	 1174	 1222	 1360	 1431	 1356	 1333	 1529	 1856	 2122	 2132	 1486	820.8	484.1	646.0	 2227	 6326	 8542	 1834	31.54	9.457	6.925	5.314	4.567	3.673	3.371	3.097	2.718	2.565	2.494	2.219	2.097	2.164	3.131	3.924	4.648	4.976	4.681	4.002	3.533	3.319	3.195	3.352	3.386	3.757	3.811	4.242	4.277	4.069	4.182	5.233	5.969	6.365	6.650	7.148	7.499	7.294	7.148	7.524	7.763	8.607	9.489	10.22	11.63	11.49	11.28	12.72	10.26	7.809	6.099	4.598	3.889	3.297	3.685	5.899	11.55
315.0	 1175	 1188	 1083	 1067	 1159	 1242	 1206	 1231	 1397	 1680	 1917	 1924	 1488	 1020	602.6	418.9	667.7	 1599	 3927	 9829	 3184	38.86	9.772	7.111	5.476	4.183	3.680	3.486	3.188	2.922	2.673	2.370	2.183	2.408	2.963	3.547	4.017	4.265	4.105	3.720	3.285	3.333	3.299	3.313	3.646	3.938	3.718	4.303	4.139	3.672	3.893	4.833	5.068	5.702	6.055	6.324	6.720	6.469	6.479	6.723	7.313	8.094	8.629	9.343	10.23	10.52	10.52	11.24	9.598	7.980	7.311	6.102	4.694	3.606	3.206	3.379	4.377
320.0	 1255	 1255	 1089	991.6	 1052	 1124	 1120	 1180	 1333	 1591	 1822	 1846	 1491	 1122	777.4	455.2	383.4	519.1	 1144	 5179	9999.9	 2467	29.76	8.819	6.807	5.248	4.413	3.972	3.462	2.904	2.758	2.520	2.499	2.337	3.003	3.306	3.770	3.984	3.797	3.601	3.299	3.180	3.425	3.483	3.824	4.102	4.065	4.433	4.138	3.847	3.527	4.303	4.792	5.124	5.389	5.912	6.155	6.199	6.074	6.629	7.231	7.593	8.278	9.072	9.948	10.31	9.945	10.66	9.626	7.949	7.482	7.038	6.194	4.732	3.820	3.312	3.217
325.0	 1319	 1333	 1135	973.2	960.6	 1044	 1076	 1144	 1300	 1541	 1765	 1807	 1529	 1178	906.2	597.4	396.6	333.9	408.1	 1538	 6649	9999.9	387.5	20.03	8.662	6.462	4.920	4.430	3.656	3.573	2.940	2.602	2.393	2.422	2.716	3.095	3.521	3.636	3.693	3.458	3.280	3.316	3.526	3.563	4.158	4.591	4.445	4.723	4.543	3.866	3.546	4.275	4.542	4.745	5.117	5.380	5.833	5.972	6.197	6.673	6.861	7.543	7.880	8.889	9.535	10.13	9.844	10.32	9.882	8.317	7.618	6.856	6.353	6.183	4.967	3.725	3.598
330.0	 1393	 1439	 1228	 1024	973.3	 1043	 1085	 1155	 1309	 1539	 1750	 1801	 1595	 1282	995.9	767.9	547.2	383.5	314.9	492.5	 1849	 5815	 9125	 4222	28.93	9.199	6.795	5.596	4.209	3.878	3.490	2.879	2.763	2.395	2.702	3.164	3.329	3.529	3.483	3.381	3.110	3.257	3.552	3.846	4.222	4.777	4.689	5.013	4.936	4.306	3.995	4.368	4.645	4.837	4.984	5.403	5.927	5.894	6.312	6.506	6.764	7.452	8.045	8.728	9.403	9.705	9.809	10.36	9.690	8.806	8.094	7.477	6.946	6.305	5.970	5.214	4.733
335.0	 1499	 1616	 1401	 1160	 1091	 1135	 1175	 1233	 1380	 1578	 1771	 1830	 1694	 1416	 1117	866.0	719.7	530.4	371.1	316.1	547.3	 1416	 3631	9999.9	 2812	36.99	9.401	7.246	5.286	4.210	3.989	3.300	2.886	2.676	2.726	3.095	3.321	3.442	3.510	3.444	3.169	3.472	3.774	3.812	4.231	4.845	5.231	5.491	5.297	4.787	4.537	4.823	5.145	5.078	5.485	5.887	6.318	6.299	6.754	6.972	7.179	7.791	8.015	8.929	9.789	9.805	9.842	10.43	9.814	9.778	8.944	8.295	7.564	7.026	6.253	5.952	5.734
340.0	 1575	 1704	 1525	 1313	 1239	 1261	 1305	 1332	 1441	 1611	 1795	 1869	 1754	 1503	 1218	937.9	771.0	654.2	451.0	318.5	290.7	426.0	960.5	 4937	9999.9	 2324	28.51	8.883	6.727	4.903	4.176	3.738	3.278	2.775	2.971	2.979	3.313	3.513	3.573	3.338	3.126	3.575	3.691	3.950	4.273	5.017	5.153	5.583	5.757	5.098	4.938	5.698	5.540	5.514	5.761	6.126	6.679	6.671	7.007	7.247	7.754	7.912	8.445	8.825	9.501	9.896	10.04	10.32	10.01	10.24	9.516	8.735	8.460	7.850	6.995	6.599	5.960
345.0	 1557	 1765	 1649	 1465	 1390	 1390	 1419	 1414	 1481	 1635	 1790	 1870	 1784	 1561	 1287	 1000	803.9	703.8	555.7	364.8	264.9	232.4	306.2	 1344	 7248	9999.9	346.0	20.12	7.643	6.276	5.106	3.791	3.523	2.885	3.033	3.091	3.341	3.472	3.417	3.236	3.111	3.484	3.624	3.953	4.514	4.906	5.365	5.723	5.750	5.364	5.235	5.862	5.806	6.295	6.096	6.721	7.231	7.364	7.481	7.833	8.187	8.168	8.764	9.256	9.273	9.694	9.977	10.21	10.14	10.19	9.838	9.041	8.568	8.157	7.368	6.727	6.225
350.0	 1529	 1774	 1743	 1598	 1554	 1553	 1554	 1526	 1540	 1635	 1780	 1854	 1791	 1593	 1337	 1067	860.8	718.6	623.0	474.5	316.6	231.1	194.5	387.8	 1899	 6002	 8949	 4239	26.80	8.576	6.408	4.655	3.896	3.460	3.321	3.164	3.437	3.468	3.358	3.210	3.104	3.258	3.574	3.989	4.439	4.998	5.240	5.994	6.038	5.508	5.576	6.525	6.620	6.815	7.041	7.228	7.506	7.888	8.039	7.991	8.548	8.258	8.713	9.320	9.480	9.601	9.987	9.887	10.10	10.05	9.870	9.286	8.841	8.421	7.830	7.244	6.565
355.0	 1441	 1746	 1752	 1700	 1670	 1666	 1637	 1587	 1558	 1629	 1739	 1809	 1752	 1586	 1354	 1103	906.5	750.3	631.3	547.0	419.7	277.0	207.3	204.5	502.7	 1413	 3411	9999.9	 2617	35.44	8.834	6.211	4.841	4.050	3.596	3.442	3.534	3.381	3.244	3.285	3.330	3.266	3.440	3.779	4.258	4.864	5.064	5.912	5.942	5.706	5.786	6.832	7.066	7.323	7.474	7.715	8.145	8.508	8.394	8.442	8.552	8.507	9.011	9.088	9.413	9.481	9.542	9.898	9.737	9.837	9.757	9.382	9.238	8.407	7.691	7.426	7.165
360.0	 1423	 1700	 1741	 1729	 1707	 1717	 1690	 1583	 1534	 1589	 1686	 1749	 1706	 1555	 1343	 1110	927.3	776.4	646.8	555.9	485.8	339.7	235.9	184.7	212.5	382.2	855.8	 4933	9999.9	 2239	26.98	7.569	6.209	4.495	3.794	3.755	3.513	3.649	3.225	3.443	3.075	3.309	3.610	3.557	4.028	4.617	4.869	5.685	5.880	5.537	5.881	7.046	7.307	7.616	7.736	7.933	8.379	8.446	8.576	8.651	8.524	8.610	8.947	8.822	8.958	9.251	9.432	9.426	9.427	9.594	9.503	9.123	8.928	8.247	7.807	7.326	7.287
365.0	 1376	 1642	 1718	 1725	 1709	 1722	 1685	 1566	 1507	 1556	 1627	 1681	 1645	 1512	 1319	 1106	936.8	792.8	673.7	563.6	496.4	410.7	278.7	203.7	167.8	169.8	248.8	 1279	 6662	9999.9	329.2	17.28	7.257	5.164	4.238	3.900	3.800	3.617	3.636	3.321	3.230	3.172	3.560	3.413	3.899	4.555	4.651	5.569	5.793	5.576	5.734	6.958	7.473	7.825	7.584	7.840	8.371	8.183	8.827	8.353	8.729	8.344	8.524	8.746	8.705	8.857	9.086	9.199	9.015	9.410	9.096	8.906	8.772	8.148	7.496	7.409	7.210
370.0	 1267	 1546	 1657	 1683	 1692	 1688	 1632	 1533	 1464	 1476	 1533	 1584	 1547	 1445	 1271	 1084	936.1	807.5	695.7	594.6	504.4	447.8	370.3	260.6	191.5	150.7	136.7	341.4	 1709	 6031	 8939	 3648	23.81	7.146	5.258	4.297	3.918	3.730	3.766	3.408	3.265	3.200	3.398	3.492	3.838	4.385	4.536	5.209	5.606	5.418	5.688	6.965	7.422	7.607	7.586	7.720	8.203	8.120	8.422	8.279	8.184	7.856	8.056	8.432	8.306	8.596	8.521	8.859	8.943	9.028	8.804	8.561	8.350	8.058	7.429	7.469	7.114
375.0	 1212	 1455	 1560	 1597	 1626	 1628	 1557	 1464	 1375	 1378	 1430	 1465	 1439	 1348	 1205	 1044	920.2	813.3	711.7	624.3	531.0	455.9	415.7	350.2	240.2	180.1	138.5	154.3	434.6	 1398	 3588	9999.9	 2303	29.05	6.819	5.309	4.534	3.870	3.636	3.350	3.169	3.144	3.328	3.450	3.802	4.232	4.286	5.141	5.490	5.325	5.490	6.704	6.956	7.227	7.204	7.684	8.247	8.191	7.994	7.751	7.639	7.735	7.514	7.894	7.850	7.883	7.766	8.219	8.030	8.340	8.098	8.439	8.110	7.465	7.430	6.965	7.023
380.0	 1154	 1376	 1490	 1522	 1583	 1555	 1484	 1368	 1304	 1297	 1343	 1378	 1353	 1280	 1149	 1009	902.9	806.3	720.4	634.4	549.7	472.8	416.3	388.0	294.4	206.6	155.5	125.3	163.4	359.6	880.2	 4994	9999.9	 1846	20.74	6.848	5.362	4.609	3.944	3.551	3.302	3.328	3.319	3.443	3.829	4.071	4.026	4.976	5.205	5.124	5.188	6.411	6.592	7.256	7.130	7.413	7.896	7.780	7.789	7.543	7.162	7.192	7.115	7.321	7.363	7.536	7.313	7.788	7.963	7.729	7.605	7.708	7.608	7.297	7.441	7.062	6.774
385.0	 1105	 1316	 1415	 1469	 1510	 1473	 1406	 1300	 1239	 1226	 1271	 1295	 1274	 1205	 1095	973.5	884.8	796.2	716.3	640.5	562.8	490.7	422.2	389.4	343.5	240.4	176.3	134.4	115.8	138.7	237.4	 1289	 6945	 9118	268.6	11.76	6.104	4.780	4.269	3.833	3.351	3.194	3.339	3.577	3.758	3.912	4.044	4.988	5.144	5.113	5.015	6.230	6.398	7.080	6.927	7.058	7.405	7.321	7.275	7.132	7.019	6.751	6.974	6.934	7.020	7.359	7.178	7.361	7.596	7.678	7.637	7.435	7.420	7.217	6.982	6.958	6.538
390.0	 1027	 1234	 1324	 1384	 1413	 1385	 1330	 1212	 1148	 1132	 1166	 1192	 1180	 1114	 1024	919.1	844.8	772.6	706.7	640.7	575.2	501.9	440.6	388.6	354.3	302.5	219.3	161.5	126.2	107.4	108.1	325.2	 1776	 5464	 7130	 2700	19.02	6.228	5.032	4.256	3.615	3.425	3.430	3.604	3.675	3.862	4.123	4.502	4.855	4.809	4.957	6.069	6.181	6.431	6.592	6.714	7.004	6.924	6.710	6.806	6.587	6.409	6.562	6.566	6.343	6.890	6.671	6.695	6.868	7.172	6.987	6.809	6.990	7.062	6.734	6.554	6.507
395.0	968.2	 1160	 1261	 1287	 1308	 1284	 1225	 1130	 1062	 1034	 1068	 1084	 1076	 1029	951.8	860.6	801.0	745.2	691.3	637.2	572.4	515.5	455.8	402.1	354.5	321.6	279.8	201.0	151.3	118.6	95.21	123.4	429.6	 1254	 3068	 8378	 1860	23.39	6.780	4.711	4.043	3.844	3.603	3.565	3.500	3.825	3.875	4.356	4.579	4.546	5.045	5.842	6.096	6.231	6.452	6.296	6.772	6.583	6.605	6.357	6.200	5.908	6.005	5.965	6.174	6.396	5.948	5.962	6.369	6.527	6.489	6.272	6.532	6.335	6.167	6.393	6.315
400.0	921.2	 1071	 1212	 1234	 1249	 1231	 1162	 1065	996.2	977.7	997.6	 1015	 1005	957.6	891.1	817.1	766.9	718.7	674.5	625.3	572.2	516.4	463.8	412.7	360.3	318.6	305.1	246.4	176.1	135.7	105.5	87.51	136.8	307.9	747.0	 4361	 8158	 1472	17.14	5.638	4.607	4.117	3.625	3.664	3.643	3.694	3.749	4.168	4.428	4.489	4.682	5.455	5.998	6.257	5.904	6.216	6.626	6.207	6.224	6.085	5.765	5.634	5.773	5.507	5.795	5.933	5.630	5.682	5.986	6.253	6.185	6.051	6.021	6.293	6.038	6.077	6.206
405.0	889.8	 1030	 1148	 1172	 1200	 1187	 1109	 1019	950.4	930.6	931.5	964.2	948.0	904.2	844.2	781.3	735.4	691.5	653.6	609.2	563.8	512.8	464.9	417.0	370.7	322.7	298.0	279.3	206.3	152.1	117.5	89.13	81.14	102.6	192.7	 1125	 5506	 7058	232.0	9.933	5.171	4.498	3.847	3.831	3.573	3.583	3.723	4.156	4.207	4.422	4.559	5.529	5.626	6.041	5.806	6.112	6.373	6.244	6.073	5.844	5.557	5.530	5.384	5.510	5.369	5.611	5.211	5.651	5.793	6.034	5.962	5.807	5.741	5.757	5.661	5.755	5.628
410.0	833.0	968.3	 1060	 1118	 1129	 1122	 1053	967.7	893.6	866.0	872.7	889.0	877.2	839.0	781.0	730.1	684.7	654.2	620.5	583.2	542.0	500.0	462.4	418.2	375.3	330.6	295.5	277.3	248.8	186.1	138.4	102.8	79.48	67.29	75.09	275.0	 1413	 4507	 5743	943.9	16.50	5.424	4.388	4.003	3.737	3.635	3.600	4.082	4.048	4.052	4.257	5.165	5.371	5.476	5.635	5.750	5.979	5.961	5.740	5.586	5.483	5.418	5.295	5.157	5.094	5.142	5.167	5.067	5.333	5.546	5.482	5.485	5.614	5.533	5.580	5.558	5.412
415.0	751.0	905.0	995.3	 1029	 1051	 1046	990.5	898.4	835.4	810.5	810.5	814.3	803.1	767.1	724.4	672.5	639.7	612.3	581.8	550.9	515.6	484.0	448.9	412.4	374.9	338.7	302.5	270.4	253.7	226.4	166.6	117.6	90.93	68.94	56.78	91.08	337.6	 1035	 2696	 6366	 1571	20.39	5.227	4.695	3.981	4.084	3.507	3.905	3.962	3.896	3.987	4.824	5.214	5.196	5.378	5.414	5.767	5.610	5.605	5.282	5.081	5.050	5.058	4.783	4.795	4.596	4.718	4.817	5.025	5.252	5.101	4.847	5.100	4.990	5.247	5.054	5.184
420.0	732.4	855.0	937.4	980.4	 1001	 1006	938.1	855.6	795.7	765.3	772.1	770.2	757.6	721.5	678.1	632.2	600.1	575.3	554.3	525.2	494.8	465.6	435.7	402.7	371.0	337.2	304.0	271.4	246.6	240.0	194.7	133.2	100.0	75.33	58.56	54.88	101.8	250.1	658.5	 3594	 6323	 1218	14.16	5.194	4.540	4.222	3.856	4.111	4.069	3.896	4.048	4.648	4.899	5.042	5.193	5.073	5.635	5.441	5.295	5.259	5.159	4.830	4.699	4.531	4.472	4.537	4.626	4.856	4.800	4.715	4.854	4.932	4.934	4.762	4.924	4.868	4.757
425.0	683.8	812.3	892.9	943.1	955.9	962.0	907.8	816.6	767.3	737.5	741.5	731.5	716.0	679.6	640.9	600.1	567.3	546.7	524.3	499.1	473.3	449.0	422.4	393.0	365.1	333.5	303.5	274.6	245.3	230.7	214.1	154.5	109.7	82.25	63.03	49.96	52.26	77.58	164.2	946.0	 4633	 5547	209.2	7.653	4.851	4.174	3.950	4.075	3.880	3.835	3.861	4.779	4.767	5.103	4.947	5.041	5.357	5.226	4.908	5.127	4.819	4.747	4.588	4.579	4.380	4.398	4.380	4.368	4.447	4.305	4.454	4.545	4.517	4.577	4.650	4.529	4.590
430.0	673.0	765.3	843.0	889.2	908.9	913.4	872.8	792.1	730.7	707.2	699.5	690.9	669.0	637.3	596.6	556.0	527.1	509.7	489.3	470.1	445.5	425.8	403.1	381.6	354.0	329.2	303.2	277.2	250.0	224.4	206.3	180.9	130.6	94.63	72.33	56.45	47.69	44.06	56.50	226.1	 1223	 3830	 4503	852.3	14.42	4.962	4.108	4.158	3.973	3.704	3.822	4.488	4.716	4.856	4.880	4.820	5.207	5.017	4.822	4.971	4.766	4.514	4.444	4.376	4.399	4.328	4.397	4.315	4.360	4.173	4.352	4.309	4.508	4.288	4.482	4.269	4.367
435.0	861.7	713.8	808.7	828.9	851.6	865.2	845.1	756.9	699.9	675.9	668.6	650.3	631.0	595.2	552.1	514.8	489.9	469.8	453.3	436.5	417.3	398.0	380.5	362.4	340.3	320.7	297.7	274.6	251.2	226.1	200.4	180.2	157.5	113.4	82.00	64.51	52.22	42.11	37.17	68.12	285.6	878.3	 2275	 5487	 1389	17.24	4.864	4.495	4.106	3.781	3.800	4.191	4.417	4.512	4.617	4.734	5.090	5.091	4.785	4.525	4.407	4.498	4.269	4.246	4.133	4.132	4.123	4.056	3.976	3.996	4.204	3.967	4.155	4.060	4.052	4.072	4.199
440.0	 1283	689.8	752.1	789.5	820.2	832.2	796.6	733.2	677.5	655.4	640.6	628.3	592.2	564.1	525.6	483.3	460.5	442.7	429.0	413.8	396.2	379.3	364.2	350.2	329.1	311.7	291.2	271.7	250.1	226.4	198.9	175.2	162.8	130.1	91.80	71.23	56.82	44.53	34.89	35.31	78.60	207.9	565.4	 3467	 5541	216.1	10.23	4.910	4.448	4.001	3.694	4.282	4.355	4.544	4.509	4.594	5.103	4.836	4.741	4.518	4.288	4.273	4.177	4.209	4.089	3.925	3.974	4.033	4.052	3.920	4.039	3.888	4.126	3.797	3.996	3.732	3.872
445.0	 1752	794.9	713.0	756.1	774.5	794.3	769.2	702.5	656.9	637.6	617.8	599.1	571.7	534.9	493.5	453.5	437.8	417.7	404.6	390.9	375.5	360.2	345.3	332.5	318.6	303.7	283.9	266.1	247.4	225.5	201.5	172.0	154.5	141.1	103.5	75.62	60.35	47.38	36.89	29.88	34.72	59.44	137.4	963.5	 4613	 4353	160.2	6.541	4.559	3.980	3.904	4.090	4.241	4.462	4.305	4.664	5.134	4.745	4.485	4.399	4.438	4.167	4.156	4.169	3.886	4.007	3.895	3.986	3.873	3.559	3.760	3.957	3.750	3.719	3.693	3.823	3.806
450.0	 2033	 1447	688.0	702.0	721.8	740.3	722.0	658.8	623.6	597.7	581.6	562.9	525.3	492.8	454.2	418.5	400.6	383.1	369.8	357.8	344.4	331.0	320.9	309.6	296.8	283.2	269.5	253.7	236.2	220.0	196.8	170.0	145.7	132.4	116.6	86.69	65.20	51.40	40.47	31.50	26.96	28.66	42.65	225.5	 1248	 3534	 3177	737.8	12.36	4.439	4.006	4.201	4.175	4.378	4.115	4.347	4.684	4.490	4.348	4.285	4.171	4.067	3.904	3.854	3.754	3.883	3.701	3.646	3.666	3.732	3.524	3.552	3.547	3.527	3.582	3.565	3.546
455.0	 1255	 2440	861.5	631.5	658.0	684.8	670.5	609.2	575.7	557.5	540.5	518.4	483.1	452.1	409.0	378.3	358.9	345.0	335.3	320.8	310.1	299.0	292.0	283.4	271.0	261.0	249.9	239.1	223.7	208.9	189.6	164.8	139.8	121.7	111.2	99.86	73.37	55.61	44.05	34.90	27.84	23.62	23.59	61.21	286.8	816.0	 1977	 4742	 1158	13.73	4.442	4.437	4.247	4.101	3.899	4.078	4.315	4.089	3.964	4.186	3.899	3.826	3.655	3.639	3.575	3.487	3.331	3.403	3.362	3.287	3.290	3.195	3.299	3.281	3.184	3.296	3.320
460.0	687.6	 2475	 1525	606.8	617.6	636.8	623.7	581.2	545.6	525.5	511.5	487.4	454.6	419.7	378.0	352.1	332.4	318.5	305.5	292.4	286.5	276.7	269.5	262.8	255.0	245.4	235.3	224.0	212.7	201.5	182.5	160.1	137.1	118.2	103.4	99.55	82.92	58.93	45.98	36.72	29.28	23.97	20.28	25.39	73.57	190.4	494.1	 2988	 4703	167.6	9.430	4.733	4.160	4.001	3.860	3.941	4.116	4.023	4.011	3.729	3.796	3.610	3.655	3.584	3.523	3.300	3.195	3.214	3.292	3.145	3.037	3.084	3.150	2.996	2.881	2.929	2.884
465.0	459.0	 1779	 2338	662.0	565.1	597.2	586.5	542.8	517.1	490.7	485.2	463.4	424.4	391.2	351.9	325.1	308.2	292.7	284.2	275.9	264.7	255.9	248.7	243.8	236.7	227.9	217.7	210.9	200.0	191.6	173.7	154.5	133.4	114.6	99.49	91.75	87.16	65.32	48.16	38.25	30.87	24.88	20.59	18.65	26.75	51.47	118.2	819.9	 3962	 3484	138.3	6.078	4.389	4.161	3.968	3.883	4.012	4.019	3.952	3.693	3.554	3.490	3.577	3.410	3.317	3.253	3.186	3.048	2.907	3.149	3.102	2.970	2.960	2.582	2.865	2.920	2.809
470.0	374.5	843.0	 2402	 1465	559.8	543.3	529.0	497.2	471.1	454.7	439.1	418.3	383.3	351.5	317.7	289.5	273.8	263.1	253.3	244.9	234.3	227.9	223.8	219.4	211.9	205.8	198.3	192.4	184.2	175.4	161.6	144.7	127.0	109.8	94.38	83.53	77.88	70.54	53.16	39.99	32.07	26.27	21.32	18.06	17.56	21.31	34.38	190.4	 1077	 2800	 3117	682.0	11.83	4.437	4.036	3.907	3.924	3.802	3.643	3.656	3.374	3.279	3.292	3.179	3.172	3.011	3.023	2.887	2.810	2.885	2.842	2.740	2.734	2.626	2.602	2.602	2.602
475.0	321.7	468.4	 1337	 2495	832.5	480.6	474.8	443.9	426.1	415.0	399.2	376.9	346.6	318.0	282.5	256.9	244.4	232.0	222.7	215.0	206.9	200.7	198.9	194.5	189.1	183.6	179.0	172.4	165.6	159.0	148.1	132.8	117.2	103.1	89.32	76.74	69.18	65.60	58.33	44.00	33.18	27.42	22.70	19.02	16.38	15.03	16.29	49.89	246.1	641.7	 1546	 3437	984.8	13.99	4.363	3.885	3.995	3.442	3.320	3.208	3.202	3.172	3.064	2.939	2.860	2.639	2.840	2.740	2.571	2.596	2.465	2.535	2.359	2.506	2.440	2.315	2.326
480.0	313.6	360.3	659.5	 2388	 1503	463.4	447.3	411.6	397.3	385.9	371.6	349.5	326.9	292.4	263.8	236.9	224.1	210.5	203.0	197.1	189.5	183.7	181.6	179.4	173.3	169.2	163.8	159.1	154.7	148.4	138.3	125.3	111.0	97.54	85.03	74.04	65.77	59.24	57.88	48.54	34.94	27.56	23.30	19.58	16.68	13.82	12.76	18.62	61.36	148.7	379.4	 1985	 3277	190.8	9.854	4.156	3.841	3.482	3.423	3.038	3.108	3.074	2.920	2.726	2.837	2.629	2.729	2.445	2.560	2.444	2.543	2.370	2.353	2.238	2.294	2.165	2.359
485.0	291.4	323.2	408.1	 1591	 2296	591.4	409.4	386.3	370.2	362.2	350.2	329.7	299.7	272.2	246.5	220.9	206.2	195.3	187.6	182.3	175.2	170.3	168.2	164.1	159.7	156.3	152.3	148.6	143.9	137.2	130.8	117.9	106.3	93.92	81.85	71.86	62.51	54.78	52.58	50.26	39.54	29.02	23.95	19.95	17.19	14.15	12.46	12.36	20.65	38.93	90.11	522.7	 2604	 2812	159.6	5.483	3.931	3.570	3.260	2.952	2.997	2.771	2.889	2.795	2.532	2.419	2.478	2.431	2.367	2.350	2.330	2.198	2.383	2.089	2.216	2.329	2.101
490.0	261.0	301.7	321.3	710.0	 2211	 1440	410.1	351.5	342.9	331.7	316.8	298.9	273.3	245.0	220.4	199.4	184.5	175.5	167.7	162.0	157.4	151.6	149.0	145.3	142.3	139.1	137.6	132.7	130.1	126.1	118.8	108.6	97.65	87.38	76.81	67.53	59.49	52.24	46.96	45.79	42.39	32.16	24.68	20.14	17.95	14.82	13.05	11.27	11.73	14.90	25.51	121.7	684.0	 1992	 2234	701.4	12.50	3.843	3.326	3.031	2.892	2.690	2.741	2.528	2.534	2.276	2.365	2.238	2.268	2.192	2.106	2.091	2.109	2.047	2.033	2.127	2.032
495.0	225.5	279.7	278.1	380.8	 1149	 2382	734.4	316.2	310.4	296.9	289.3	270.8	244.4	220.4	196.2	177.5	163.6	156.9	148.8	142.4	138.8	134.0	131.8	127.7	127.2	122.8	119.4	118.1	115.8	112.4	107.0	98.81	88.48	79.41	69.66	62.93	55.79	48.51	43.51	39.07	38.86	36.07	26.92	20.41	17.73	15.06	13.02	11.59	10.47	9.876	11.43	32.38	157.0	456.8	 1296	 3197	 1066	15.17	3.546	2.962	2.820	2.666	2.655	2.442	2.228	2.242	2.207	2.182	2.054	2.093	2.124	1.916	1.930	1.966	1.952	1.855	2.091
500.0	202.8	252.3	263.7	282.1	528.2	 2218	 1455	312.9	278.1	273.5	265.2	244.4	224.3	200.2	177.9	160.6	149.1	139.7	136.4	128.9	123.9	119.3	118.5	115.5	115.1	110.7	107.5	106.6	104.6	102.3	96.62	89.61	82.13	73.64	65.19	58.82	51.92	45.84	41.04	36.31	34.74	35.02	28.97	21.19	17.87	15.62	13.72	11.83	10.28	8.903	8.498	12.53	39.81	106.4	318.8	 1811	 3143	207.5	10.06	3.371	2.775	2.569	2.612	2.246	2.190	2.171	2.014	2.109	2.001	2.103	1.896	1.927	1.805	1.836	1.735	1.776	1.853
505.0	178.0	213.2	253.1	247.3	316.9	 1398	 2245	485.5	255.2	250.6	240.5	223.9	204.8	184.0	161.4	146.1	134.1	127.8	123.5	115.9	112.3	108.9	107.3	105.1	103.9	100.5	98.18	97.40	94.76	93.28	88.40	81.59	75.56	66.70	59.85	54.94	48.22	43.27	38.36	33.91	30.88	30.51	29.90	22.89	17.93	15.36	13.59	11.87	10.02	8.760	7.805	8.137	13.72	28.30	75.58	470.8	 2287	 2606	176.2	4.636	2.908	2.607	2.492	2.224	2.060	2.091	1.963	1.902	1.959	1.747	1.744	1.756	1.638	1.759	1.531	1.734	1.705
510.0	159.2	183.3	214.7	223.0	236.3	567.4	 2013	 1426	255.4	219.4	212.6	197.5	179.7	160.7	140.4	127.3	118.8	112.7	108.1	101.8	97.46	95.43	92.73	90.01	89.24	87.00	86.08	84.52	83.05	80.69	77.66	72.12	66.50	60.10	54.08	49.07	43.62	38.96	35.10	31.25	28.19	26.33	26.36	24.51	19.36	15.11	13.23	11.74	10.24	8.936	7.854	7.167	7.674	10.56	20.97	109.0	589.8	 1700	 1952	697.4	12.48	2.720	2.453	2.110	2.121	1.973	1.910	1.759	1.742	1.625	1.561	1.698	1.609	1.549	1.541	1.621	1.533
515.0	143.5	159.5	177.9	204.1	195.6	276.8	914.1	 2278	702.7	191.4	184.1	174.0	157.0	140.6	122.5	110.5	101.1	95.35	92.74	87.84	83.47	82.25	79.30	77.43	76.88	74.03	74.01	72.62	71.66	70.31	68.07	62.08	58.61	52.68	48.19	43.71	38.82	35.25	32.25	29.00	25.31	22.90	21.09	22.39	21.10	15.58	12.95	11.11	9.954	8.742	7.855	7.001	6.585	6.472	8.452	28.03	134.8	385.7	907.3	 2379	989.0	15.42	2.579	2.118	2.089	1.935	1.676	1.702	1.636	1.594	1.566	1.562	1.386	1.480	1.287	1.632	1.437
520.0	130.7	140.7	156.7	186.2	176.7	192.9	380.3	 1953	 1522	206.2	166.7	155.3	142.1	123.4	110.6	98.07	90.44	85.04	81.23	79.02	74.23	72.99	70.96	69.53	68.88	66.44	64.40	64.41	63.74	62.64	60.84	56.11	52.02	47.52	42.39	39.33	35.47	32.32	29.42	26.36	23.26	20.93	19.30	19.36	20.66	17.43	13.04	10.73	9.552	8.544	7.532	6.843	6.066	5.559	5.864	9.721	33.39	88.96	217.9	 1256	 2347	210.8	8.369	2.317	2.017	1.755	1.778	1.623	1.541	1.521	1.404	1.375	1.373	1.398	1.278	1.342	1.298
525.0	121.1	122.4	135.5	164.2	168.7	168.6	213.1	 1105	 2234	453.7	154.2	140.7	131.2	113.1	99.32	87.77	82.04	77.60	72.68	70.43	67.11	65.22	63.12	62.20	61.10	58.70	57.83	57.39	56.63	56.52	54.85	50.74	46.71	43.53	39.01	35.67	32.63	29.77	27.34	24.19	21.63	19.62	17.79	16.93	18.40	17.99	14.13	10.84	9.302	8.171	7.112	6.344	5.901	5.342	4.947	5.605	10.73	22.81	51.66	318.0	 1548	 1724	170.2	3.759	2.047	1.724	1.809	1.573	1.470	1.403	1.319	1.300	1.250	1.363	1.181	1.249	1.171
530.0	107.8	109.1	119.4	135.2	154.1	150.0	155.1	409.6	 1808	 1379	175.2	123.6	112.4	98.55	86.30	77.13	71.51	67.56	63.49	61.23	58.74	56.86	54.27	53.42	51.84	51.35	50.50	49.63	49.41	49.20	47.48	43.59	40.92	37.77	34.46	31.36	29.17	25.89	24.47	22.03	20.01	17.90	16.17	15.19	14.86	15.67	15.00	11.35	9.024	7.738	6.851	6.064	5.594	5.192	4.638	4.552	5.394	7.901	14.14	73.40	388.6	 1126	 1535	572.9	11.61	1.994	1.754	1.483	1.536	1.430	1.306	1.233	1.201	1.202	1.163	1.281	1.158
535.0	93.38	95.38	106.0	110.4	127.3	136.6	125.5	182.3	727.9	 2085	795.8	110.0	97.57	86.77	76.18	66.76	60.13	58.20	54.16	52.17	50.43	48.60	46.57	45.58	44.63	43.56	43.31	42.17	41.84	41.40	40.37	37.91	35.78	32.85	30.33	27.56	25.43	22.81	21.07	19.18	17.54	16.07	14.71	13.85	13.17	12.30	13.49	12.31	9.464	7.228	6.646	5.627	5.503	4.948	4.545	4.261	4.058	4.489	5.666	18.66	88.62	255.1	627.3	 1712	799.2	14.47	1.998	1.583	1.417	1.338	1.293	1.128	1.126	1.128	1.200	1.103	1.125
540.0	89.91	86.86	97.59	96.39	107.2	127.3	113.8	124.7	270.3	 1608	 1493	148.2	88.63	78.56	68.30	59.77	54.60	51.03	48.45	46.42	44.71	43.01	41.80	40.27	39.39	39.07	39.26	37.53	37.87	37.62	35.58	34.51	31.21	29.35	27.02	24.45	22.68	20.73	19.14	17.72	16.38	14.90	13.72	12.64	11.64	10.94	11.28	11.87	9.980	7.153	6.250	5.610	5.061	4.574	4.157	4.078	3.655	3.611	3.666	6.355	21.83	58.97	148.2	846.3	 1775	210.3	7.485	1.699	1.459	1.336	1.275	1.181	1.168	1.020	1.117	1.074	1.018
545.0	86.19	85.35	88.86	87.39	94.76	118.0	110.8	105.6	140.2	849.8	 2055	495.8	80.65	69.98	60.87	54.36	49.50	45.67	43.48	41.67	40.15	38.69	37.07	36.81	36.24	35.28	33.95	33.82	34.56	33.14	32.72	30.32	28.76	26.06	24.60	22.58	20.68	19.23	17.39	16.11	15.05	13.41	12.36	11.44	10.89	10.02	9.733	10.28	10.30	7.767	6.178	5.326	4.603	4.293	4.043	3.796	3.469	3.321	3.028	3.474	7.009	15.20	34.99	211.0	 1103	 1447	165.3	3.012	1.486	1.565	1.332	1.238	1.096	1.066	1.020	1.001	1.042
550.0	79.35	82.55	84.08	89.92	95.22	114.3	118.5	106.8	115.4	319.6	 1440	 1415	117.4	61.41	53.50	46.86	43.50	40.23	36.97	35.98	34.19	33.24	31.92	31.33	30.98	30.06	29.27	29.43	29.21	28.58	28.00	26.32	24.65	22.93	21.27	19.71	18.21	16.81	15.48	14.34	12.79	11.85	11.28	10.26	9.711	8.806	8.319	8.207	9.021	8.259	6.466	5.106	4.317	4.156	3.783	3.681	3.470	3.292	2.853	2.825	3.503	5.268	9.588	48.88	273.3	843.2	 1109	426.7	10.97	1.516	1.274	1.172	1.122	0.971	1.073	0.955	1.015
555.0	83.95	92.22	103.4	113.9	131.5	145.9	153.3	141.3	148.8	210.2	593.8	 1722	791.2	57.74	45.34	39.68	36.41	34.04	31.56	30.12	28.80	27.72	26.97	25.81	25.94	24.98	24.80	24.77	24.71	23.88	22.48	21.99	20.66	19.17	17.86	16.83	15.38	14.62	13.30	12.56	11.30	10.55	9.650	9.007	8.059	7.813	7.381	6.922	6.872	7.677	7.025	5.257	4.317	3.913	3.631	3.570	3.493	3.112	2.975	2.744	2.788	3.081	4.042	12.83	62.77	191.0	422.3	 1162	234.9	13.53	1.517	1.145	0.996	0.921	0.965	0.921	0.862
560.0	88.56	88.24	108.1	127.2	146.6	152.7	154.0	147.6	158.5	191.1	295.5	 1219	 1474	102.8	39.10	34.75	31.93	30.16	27.39	25.60	24.72	24.49	23.61	22.89	22.34	21.35	21.85	20.98	20.82	20.24	20.31	19.22	17.94	17.22	15.98	14.79	13.41	12.91	11.96	10.81	9.928	9.468	8.800	7.986	7.429	7.256	6.461	6.310	5.603	6.197	6.628	5.687	4.154	3.711	3.686	3.292	3.144	3.088	2.994	2.766	2.494	2.597	2.662	4.800	15.88	44.33	99.43	548.1	 1103	201.3	6.104	1.180	1.041	0.976	0.911	0.945	0.958
565.0	89.38	91.50	103.4	123.0	141.2	150.0	146.2	143.7	156.5	177.9	206.3	629.8	 1663	482.2	35.55	30.27	27.34	25.95	23.79	22.70	21.49	20.97	20.67	20.02	19.15	18.68	18.14	18.02	18.02	17.79	17.83	17.08	15.73	14.67	14.08	12.78	11.60	11.17	10.60	9.414	8.908	8.301	7.438	7.136	6.760	6.172	5.800	5.661	5.179	5.016	5.722	5.389	4.248	3.584	3.229	3.066	2.975	3.011	2.813	2.483	2.422	2.509	2.337	2.835	5.455	11.62	23.85	134.8	679.7	962.4	31.42	2.269	1.061	1.066	1.109	0.961	0.952
570.0	94.10	95.43	105.0	124.3	142.3	151.8	142.0	144.4	164.9	185.7	201.4	296.3	 1019	 1133	160.0	25.35	22.55	21.13	19.24	18.63	17.35	16.63	16.60	16.08	15.60	15.21	14.66	14.90	14.82	14.56	14.27	13.59	12.69	11.89	11.29	10.38	9.730	9.183	8.717	7.916	7.455	6.832	6.400	6.034	5.669	5.166	4.948	4.797	4.399	4.150	4.237	4.624	4.317	3.525	3.066	2.895	2.771	2.754	2.515	2.405	2.376	2.378	2.294	2.395	3.047	4.321	7.024	31.91	167.5	530.1	681.8	133.8	9.330	1.092	0.910	0.916	0.880
575.0	96.13	109.8	116.1	133.5	155.3	157.4	145.0	139.7	177.9	199.8	215.1	215.3	372.3	 1145	700.1	25.80	18.41	16.55	15.34	15.03	14.00	13.02	12.99	12.72	12.12	12.33	11.77	11.48	11.32	11.62	11.09	10.91	10.41	9.436	8.978	8.123	7.789	7.587	7.170	6.591	6.010	5.708	5.168	4.746	4.721	4.527	4.174	3.941	3.709	3.194	3.237	3.534	3.887	3.480	2.935	2.700	2.643	2.632	2.247	2.162	2.192	2.342	2.285	2.161	2.511	2.726	3.222	8.787	38.71	119.8	257.2	637.8	216.6	9.194	1.033	1.011	0.879
580.0	105.5	108.0	124.4	139.7	155.9	157.7	148.0	140.2	175.9	202.4	213.7	195.4	160.4	702.3	 1202	76.19	16.23	14.43	13.59	13.35	11.67	11.19	11.10	10.54	10.20	10.10	9.957	9.912	9.739	9.448	8.988	8.758	8.643	8.200	7.534	7.075	6.757	6.240	6.103	5.573	5.167	4.787	4.333	4.270	3.952	3.726	3.646	3.271	3.167	2.894	2.840	3.009	3.282	3.404	2.814	2.434	2.499	2.308	2.174	2.080	2.048	2.244	2.286	2.283	2.270	2.137	2.231	3.760	10.14	27.77	60.62	304.3	620.4	158.0	3.154	0.962	0.908
585.0	105.2	107.8	119.0	132.6	149.1	154.5	140.0	136.2	163.1	195.1	201.5	182.9	109.5	313.4	 1175	462.9	14.65	12.37	11.61	11.02	10.55	9.982	9.614	8.909	9.049	8.926	8.432	8.362	8.295	8.268	8.252	7.343	7.054	6.886	6.466	6.205	5.850	5.299	5.137	4.717	4.512	4.260	3.791	3.788	3.541	3.415	3.227	2.932	2.704	2.722	2.377	2.523	2.810	3.108	2.975	2.630	2.264	2.132	1.998	1.949	1.796	2.045	2.050	2.089	2.136	2.076	2.047	2.327	3.560	7.279	14.63	75.05	377.2	531.7	29.71	1.361	0.887
590.0	102.1	108.6	112.1	125.2	136.6	143.5	129.6	123.3	145.1	180.1	192.1	171.2	96.80	109.6	606.4	968.7	143.5	10.81	9.804	9.192	8.370	7.825	7.950	7.495	7.604	7.128	6.973	6.972	6.985	6.740	6.576	6.238	5.732	5.512	5.400	5.155	4.840	4.758	4.179	3.941	3.794	3.592	3.318	3.298	3.093	2.853	2.708	2.576	2.312	2.309	2.128	2.245	2.305	2.533	2.670	2.575	2.156	2.003	1.863	1.691	1.687	1.784	1.849	1.958	2.028	1.932	1.772	1.987	1.988	2.657	4.224	17.55	93.10	288.9	307.3	120.6	6.922
595.0	101.7	103.8	102.9	117.6	125.9	128.2	120.2	113.7	128.1	164.5	181.3	163.2	92.84	57.54	182.7	766.4	582.6	14.92	8.256	7.974	7.113	6.916	6.405	6.365	6.355	5.827	5.911	5.758	5.758	5.576	5.460	5.214	4.781	4.368	4.458	4.117	3.987	4.017	3.578	3.356	3.200	3.047	2.648	2.554	2.592	2.415	2.243	2.250	2.028	1.892	1.939	1.827	1.806	2.058	2.226	2.363	2.417	1.727	1.723	1.643	1.657	1.623	1.758	1.645	1.982	1.782	1.639	1.793	1.446	1.492	1.765	4.807	21.50	65.49	129.4	362.8	163.7
600.0	96.43	98.65	96.86	109.0	115.3	117.5	113.5	105.3	118.7	149.8	170.9	156.8	89.89	45.34	60.36	410.0	962.7	60.70	7.398	7.303	6.338	6.081	5.646	5.386	5.236	5.165	5.019	5.021	4.913	4.852	4.652	4.634	4.309	3.828	3.811	3.903	3.602	3.462	3.104	2.939	2.690	2.659	2.483	2.424	2.335	2.194	2.115	1.905	1.874	1.725	1.598	1.677	1.704	1.787	1.841	2.083	2.309	1.895	1.564	1.615	1.553	1.624	1.689	1.524	1.793	1.763	1.579	1.757	1.563	1.240	1.224	1.797	5.421	15.29	30.86	173.6	352.0
605.0	95.63	93.36	95.20	97.38	109.4	112.2	100.2	100.0	112.7	136.1	156.7	147.3	89.48	44.22	32.67	160.9	848.9	410.6	7.949	6.163	5.549	5.428	4.879	4.763	4.912	4.578	4.301	4.334	4.392	4.248	4.154	3.865	3.609	3.624	3.335	3.240	3.301	2.987	2.763	2.685	2.520	2.348	2.279	2.062	2.040	1.961	1.910	1.783	1.724	1.605	1.515	1.559	1.596	1.662	1.593	1.774	2.042	1.996	1.498	1.411	1.480	1.442	1.578	1.518	1.668	1.519	1.539	1.600	1.337	1.202	1.104	1.145	1.904	4.175	7.594	43.21	212.9
610.0	87.81	89.01	85.35	86.72	94.33	97.84	90.03	87.47	99.46	118.5	132.5	135.4	84.27	42.74	26.75	50.17	390.0	788.4	137.4	5.829	5.054	4.805	4.343	4.153	4.252	3.695	3.764	3.738	3.800	3.491	3.612	3.443	3.284	2.871	3.073	2.831	2.711	2.674	2.534	2.273	2.133	2.035	1.968	1.878	1.825	1.790	1.643	1.570	1.593	1.414	1.339	1.441	1.415	1.465	1.371	1.481	1.682	1.822	1.623	1.370	1.351	1.357	1.344	1.403	1.456	1.501	1.408	1.555	1.311	1.164	1.002	1.020	1.154	1.624	2.355	10.29	52.98
615.0	86.99	80.26	77.87	79.90	82.48	87.76	79.75	79.03	84.90	103.3	115.9	120.1	82.02	43.30	25.66	23.21	109.6	550.8	505.2	12.32	4.585	4.236	3.698	3.545	3.701	3.405	3.321	3.114	3.195	3.060	3.125	3.045	2.923	2.648	2.605	2.374	2.363	2.106	2.136	1.912	1.874	1.725	1.799	1.658	1.530	1.579	1.476	1.484	1.410	1.220	1.217	1.366	1.210	1.255	1.216	1.251	1.435	1.439	1.657	1.338	1.301	1.329	1.161	1.331	1.469	1.343	1.289	1.382	1.179	1.187	1.009	0.928	0.918	1.052	1.173	2.916	12.48
620.0	84.17	77.79	69.76	70.11	73.38	78.27	70.78	73.43	78.15	93.26	103.8	108.2	78.37	43.37	25.65	17.44	32.67	264.3	807.5	55.42	4.080	3.773	3.377	3.143	3.325	2.931	2.933	2.760	2.768	2.748	2.681	2.723	2.638	2.551	2.339	2.198	2.175	1.961	1.973	1.841	1.723	1.614	1.660	1.464	1.518	1.462	1.320	1.269	1.278	1.176	1.083	1.178	1.118	1.058	1.113	1.123	1.171	1.331	1.426	1.412	1.183	1.210	1.187	1.257	1.271	1.203	1.198	1.317	1.159	1.183	1.016	0.920	0.851	0.832	0.889	1.269	3.341
625.0	80.86	77.97	65.11	66.89	67.88	70.54	62.14	63.57	72.42	84.74	95.67	95.68	75.08	45.49	27.04	16.48	15.48	96.41	647.9	388.8	5.030	3.758	2.985	2.937	3.080	2.787	2.784	2.655	2.408	2.444	2.492	2.350	2.332	2.205	2.221	1.892	1.811	1.798	1.795	1.749	1.708	1.530	1.382	1.343	1.407	1.432	1.214	1.204	1.113	1.030	0.944	1.103	1.043	1.037	1.088	1.066	1.066	1.289	1.283	1.258	1.187	1.177	1.052	1.115	1.158	1.196	1.198	1.259	1.213	1.086	0.969	0.897	0.808	0.836	0.747	0.882	1.287
630.0	74.29	69.97	61.31	60.28	61.22	59.98	58.74	59.23	66.69	77.78	86.01	86.49	69.55	48.57	27.88	17.27	12.77	29.41	266.3	668.3	126.7	3.357	2.977	2.828	2.724	2.473	2.456	2.414	2.393	2.244	2.217	1.975	2.084	2.022	1.933	1.777	1.716	1.644	1.509	1.446	1.516	1.408	1.267	1.259	1.266	1.255	1.178	1.153	1.017	0.947	0.955	1.049	0.973	0.982	0.997	0.992	1.029	1.079	1.086	1.119	1.172	1.189	1.092	1.138	1.114	1.114	1.139	1.239	1.074	1.068	0.927	0.917	0.772	0.795	0.714	0.803	0.905
635.0	77.18	68.03	55.16	52.93	50.96	50.71	52.54	54.72	62.34	68.92	77.25	77.77	63.66	49.72	30.75	18.47	13.27	14.15	71.48	403.8	446.6	10.45	2.682	2.514	2.371	2.359	2.075	2.121	2.083	2.004	1.966	1.796	1.761	1.836	1.693	1.688	1.524	1.481	1.416	1.419	1.431	1.309	1.220	1.218	1.155	1.227	1.118	1.089	0.992	0.940	0.824	0.993	0.871	0.894	0.937	0.916	0.872	0.965	0.929	0.987	1.133	1.128	1.081	1.018	1.120	0.998	0.955	1.090	0.974	1.009	0.965	0.972	0.880	0.776	0.670	0.757	0.816
640.0	79.56	69.38	55.97	48.39	46.97	46.64	49.21	50.55	58.54	65.57	71.41	75.10	59.69	47.16	34.51	19.97	13.89	11.64	21.92	173.0	672.2	49.91	2.772	2.363	2.378	2.154	2.079	1.991	1.961	1.984	1.818	1.654	1.724	1.698	1.586	1.616	1.423	1.525	1.256	1.236	1.290	1.285	1.108	0.965	1.053	1.113	0.982	1.025	0.941	0.865	0.765	0.849	0.915	0.872	0.880	0.812	0.921	0.929	0.871	0.872	1.063	1.167	1.066	0.988	1.025	1.020	0.954	1.079	0.965	0.882	0.850	0.976	0.864	0.791	0.739	0.747	0.714
645.0	81.02	64.14	52.67	47.36	44.56	48.54	45.27	45.69	52.73	60.55	69.26	70.96	57.10	45.43	36.68	21.50	14.78	11.60	11.59	57.69	502.0	348.7	3.912	2.260	2.257	2.242	1.815	2.005	1.981	1.866	1.670	1.653	1.592	1.419	1.332	1.449	1.440	1.290	1.279	1.170	1.162	1.182	1.109	0.974	1.043	0.952	0.924	0.932	0.915	0.870	0.752	0.855	0.792	0.803	0.827	0.796	0.891	0.914	0.859	0.878	0.955	0.956	0.998	1.092	0.996	0.959	0.877	1.013	0.916	0.945	0.811	0.884	0.904	0.843	0.754	0.690	0.764
650.0	75.68	62.86	54.54	45.35	43.31	42.10	44.51	45.27	48.88	56.92	65.69	65.45	56.26	43.91	36.92	24.67	15.84	11.95	9.374	19.21	239.7	594.6	30.56	2.527	2.157	2.082	1.863	1.867	1.798	1.700	1.715	1.719	1.545	1.449	1.420	1.319	1.313	1.225	1.222	1.127	1.123	1.095	1.034	1.065	1.039	0.955	0.925	0.986	0.862	0.828	0.795	0.756	0.678	0.832	0.795	0.783	0.892	0.827	0.829	0.841	0.897	0.966	0.963	1.111	1.009	0.853	0.928	0.982	0.971	0.961	0.823	0.867	0.818	0.887	0.770	0.684	0.703
