Sample:	'1
File name:	S2025062002Íä¹µºÓ518¹úµÀÇÅ.FD3
Run date:	'10:58:07, 06/23/2025
Operator:	Administrator
Comment:	'

Instrument
Model:	F-2700 FL Spectrophotometer
Serial number:	23B8-004
ROM Version:	4J14000 07

Instrument parameters
Measurement type:	3-D scan
Data mode:	Fluorescence
EX  Start WL:	220.0 nm
EX  End WL:	600.0 nm
EX Sampling interval:	5.0 nm
EM  Start WL:	230.0 nm
EM  End WL:	650.0 nm
EM Sampling interval:	5.0 nm
Scan speed:	12000 nm/min
EX Slit:	5.0 nm
EM Slit:	5.0 nm
PMT Voltage:	700 V
Response:	Auto 
Corrected spectra:	Off
Contour interval:	50.000

Peak integration
Integration method:	Rectangular
Sensitivity:	1
Threshold:	1.000

Peaks
No.	ApexEX/EM(nm)	Height(Data)
1	240.0/265.0	322.2
2	245.0/270.0	376.4
3	245.0/400.0	1390
4	250.0/275.0	489.5
5	255.0/280.0	493.9
6	260.0/290.0	463.6
7	260.0/570.0	137.0
8	265.0/295.0	599.5
9	265.0/585.0	117.0
10	270.0/300.0	849.4
11	270.0/600.0	100.2
12	275.0/305.0	893.4
13	275.0/610.0	79.26
14	280.0/625.0	61.21
15	285.0/320.0	737.5
16	285.0/635.0	44.98
17	290.0/325.0	647.3
18	305.0/345.0	484.1
19	310.0/350.0	448.7
20	315.0/355.0	457.6
21	505.0/275.0	2.892
22	510.0/280.0	3.163
23	515.0/285.0	2.941
24	530.0/290.0	2.848
25	530.0/425.0	5.885
26	540.0/295.0	3.839
27	540.0/445.0	5.627
28	545.0/300.0	4.716
29	550.0/305.0	4.997
30	560.0/310.0	4.419
31	570.0/315.0	4.362
32	575.0/320.0	4.353
33	585.0/325.0	4.091

Data points
	220.0	225.0	230.0	235.0	240.0	245.0	250.0	255.0	260.0	265.0	270.0	275.0	280.0	285.0	290.0	295.0	300.0	305.0	310.0	315.0	320.0	325.0	330.0	335.0	340.0	345.0	350.0	355.0	360.0	365.0	370.0	375.0	380.0	385.0	390.0	395.0	400.0	405.0	410.0	415.0	420.0	425.0	430.0	435.0	440.0	445.0	450.0	455.0	460.0	465.0	470.0	475.0	480.0	485.0	490.0	495.0	500.0	505.0	510.0	515.0	520.0	525.0	530.0	535.0	540.0	545.0	550.0	555.0	560.0	565.0	570.0	575.0	580.0	585.0	590.0	595.0	600.0
230.0	63.98	882.5	1405	313.6	14.10	6.335	5.754	4.398	4.098	3.626	3.207	3.122	2.445	2.074	1.934	1.669	1.484	1.408	1.343	1.092	1.018	1.012	0.875	0.940	0.817	0.841	0.744	0.710	0.686	0.698	0.712	0.615	0.599	0.461	0.517	0.472	0.447	0.408	0.404	0.433	0.458	0.454	0.417	0.389	0.381	0.382	1.207	3.775	4.985	3.035	1.011	0.356	0.278	0.276	0.231	0.261	0.271	0.246	0.262	0.253	0.269	0.246	0.279	0.259	0.260	0.259	0.271	0.258	0.266	0.294	0.268	0.291	0.266	0.248	0.257	0.301	0.277
235.0	83.46	267.0	1217	1571	387.1	19.77	6.972	4.926	3.601	4.512	3.303	3.016	2.427	1.945	2.282	1.514	1.490	1.240	1.355	1.392	1.048	1.025	0.968	0.981	0.902	0.919	0.818	0.769	0.674	0.577	0.767	0.512	0.586	0.571	0.497	0.446	0.457	0.377	0.438	0.421	0.399	0.444	0.468	0.529	0.489	0.328	0.536	1.189	2.634	4.233	5.723	5.415	2.285	0.473	0.240	0.264	0.284	0.276	0.255	0.305	0.262	0.259	0.231	0.284	0.279	0.278	0.260	0.286	0.269	0.259	0.255	0.280	0.280	0.266	0.327	0.309	0.303
240.0	115.3	106.6	429.8	1727	1713	296.3	12.52	6.336	5.046	3.971	3.752	3.159	2.959	2.120	2.118	1.833	1.469	1.470	1.366	1.495	0.957	1.169	1.072	0.912	0.878	0.864	0.772	0.830	0.799	0.650	0.709	0.557	0.472	0.545	0.522	0.423	0.486	0.496	0.436	0.374	0.414	0.463	0.403	0.544	0.555	0.508	0.398	0.500	0.820	1.536	3.878	8.309	9.059	5.394	1.625	0.377	0.294	0.255	0.279	0.249	0.252	0.272	0.282	0.249	0.249	0.257	0.265	0.252	0.285	0.238	0.281	0.326	0.273	0.225	0.297	0.340	0.261
245.0	106.6	141.4	136.3	735.4	2346	1682	199.5	7.381	5.265	4.790	4.074	3.549	2.710	2.487	2.303	1.902	1.599	1.587	1.424	1.206	1.048	1.101	1.053	0.923	0.783	0.838	0.821	0.831	0.830	0.643	0.861	0.710	0.469	0.562	0.453	0.402	0.426	0.513	0.444	0.352	0.375	0.567	0.487	0.401	0.399	0.524	0.596	0.582	0.473	0.560	1.169	3.415	8.064	11.83	10.21	4.441	1.101	0.372	0.241	0.273	0.257	0.331	0.290	0.237	0.264	0.258	0.298	0.266	0.285	0.294	0.276	0.342	0.254	0.247	0.250	0.277	0.264
250.0	48.71	129.3	174.0	223.5	872.2	2237	2364	668.8	29.82	6.353	4.518	4.140	3.412	2.752	2.305	1.977	1.808	1.597	1.477	1.157	1.246	0.959	0.923	0.890	0.903	0.776	0.765	0.747	0.865	0.718	0.798	0.687	0.486	0.557	0.465	0.432	0.460	0.491	0.387	0.395	0.436	0.483	0.445	0.408	0.408	0.451	0.518	0.696	0.732	0.639	0.601	1.045	2.224	4.424	7.745	10.81	13.77	11.03	5.368	1.340	0.345	0.294	0.268	0.280	0.282	0.278	0.291	0.294	0.262	0.273	0.294	0.325	0.288	0.293	0.250	0.271	0.285
255.0	36.45	50.97	155.1	248.0	253.6	638.1	2507	2879	290.7	26.92	6.227	5.515	4.155	3.781	2.797	2.127	1.969	2.043	1.686	1.301	1.178	0.988	0.899	1.126	0.816	0.780	0.825	0.795	0.896	0.913	0.839	0.623	0.509	0.598	0.566	0.423	0.492	0.472	0.403	0.387	0.428	0.423	0.444	0.441	0.339	0.391	0.347	0.428	0.500	0.805	1.041	1.015	0.956	1.288	2.058	2.912	6.375	14.27	22.68	19.12	7.773	1.183	0.329	0.277	0.275	0.346	0.283	0.290	0.282	0.280	0.294	0.265	0.270	0.260	0.284	0.248	0.345
260.0	28.88	29.53	73.86	246.3	238.3	199.5	876.5	3659	2362	231.7	14.26	6.160	4.382	3.414	2.691	2.594	2.311	1.905	1.714	1.497	1.224	1.111	0.991	1.088	0.946	0.958	0.845	0.820	0.882	0.902	0.770	0.546	0.669	0.533	0.553	0.471	0.455	0.487	0.448	0.476	0.445	0.452	0.418	0.399	0.382	0.366	0.325	0.323	0.341	0.450	0.808	1.296	1.261	0.955	0.880	1.006	1.830	4.444	11.82	23.21	27.80	18.32	5.444	0.614	0.357	0.307	0.382	0.318	0.348	0.312	0.257	0.333	0.257	0.272	0.252	0.220	0.310
265.0	32.60	27.39	35.21	146.9	322.2	198.9	261.3	1486	4865	2023	173.6	8.891	5.740	4.373	3.269	2.723	2.546	1.906	1.834	1.739	1.268	1.107	1.354	1.166	1.135	0.975	0.826	0.875	0.850	0.779	0.899	0.640	0.717	0.499	0.533	0.455	0.509	0.549	0.444	0.473	0.363	0.393	0.491	0.389	0.393	0.384	0.387	0.342	0.349	0.291	0.435	0.889	1.401	1.687	1.202	0.768	0.825	1.428	3.220	7.815	18.23	31.13	28.78	14.58	2.759	0.433	0.363	0.291	0.311	0.338	0.311	0.314	0.319	0.280	0.308	0.264	0.309
270.0	41.99	30.91	28.07	68.13	214.4	376.4	270.4	407.8	1795	4426	4415	708.2	32.26	6.174	4.318	3.591	2.789	2.311	1.992	1.701	1.514	1.415	1.272	1.196	1.215	0.950	0.931	0.995	0.957	0.839	0.909	0.780	0.798	0.674	0.559	0.473	0.520	0.611	0.489	0.458	0.468	0.434	0.454	0.398	0.420	0.405	0.358	0.378	0.354	0.314	0.346	0.568	0.789	1.208	1.752	1.828	1.536	1.222	1.254	2.178	4.703	9.970	17.85	26.92	29.46	20.85	11.88	3.063	0.438	0.305	0.335	0.327	0.323	0.322	0.309	0.307	0.326
275.0	67.24	52.14	41.18	51.97	122.7	268.7	489.5	293.5	451.0	1191	4577	7669	945.6	26.02	6.422	4.722	3.247	2.815	2.152	2.021	1.434	1.684	1.333	1.289	1.215	1.017	1.066	0.968	1.065	0.809	0.887	0.808	0.767	0.820	0.626	0.693	0.631	0.610	0.571	0.581	0.452	0.410	0.436	0.428	0.540	0.468	0.464	0.385	0.346	0.353	0.342	0.536	0.559	0.810	1.000	1.392	2.404	2.892	2.030	1.152	1.471	2.608	4.393	6.563	10.44	23.06	43.72	31.57	17.72	2.831	0.430	0.356	0.376	0.357	0.352	0.352	0.347
280.0	101.5	84.51	55.49	55.86	101.8	179.3	393.2	493.9	214.8	321.6	1431	7033	7110	142.7	13.32	6.233	4.302	3.505	2.630	2.099	2.001	1.602	1.482	1.422	1.261	1.228	1.101	1.065	0.966	0.782	0.958	0.854	0.740	0.766	0.718	0.756	0.651	0.632	0.624	0.459	0.506	0.470	0.449	0.492	0.547	0.597	0.557	0.500	0.423	0.408	0.366	0.452	0.496	0.751	0.829	0.990	1.349	2.360	3.163	2.456	1.236	0.999	1.502	1.938	2.828	6.281	16.88	34.57	52.77	29.18	12.38	1.456	0.448	0.398	0.345	0.306	0.330
285.0	140.9	122.4	84.79	66.51	95.44	141.8	229.5	486.7	323.7	163.0	400.6	2354	8422	5608	104.7	9.104	5.586	4.014	3.166	2.626	2.009	1.815	1.795	1.495	1.373	1.357	1.077	0.849	1.048	0.981	1.028	0.812	0.906	0.868	0.843	0.830	0.710	0.737	0.645	0.470	0.529	0.535	0.613	0.596	0.697	0.560	0.577	0.605	0.518	0.434	0.437	0.609	0.485	0.569	0.777	0.871	0.964	1.282	2.144	2.941	2.632	1.609	1.021	0.920	1.336	1.981	4.470	9.816	24.85	44.51	53.74	24.59	7.350	0.694	0.388	0.427	0.315
290.0	202.8	204.3	161.1	104.7	107.1	127.5	153.4	245.9	463.6	412.6	249.6	677.0	2656	6296	6065	433.7	24.94	5.786	4.032	3.199	2.624	2.182	1.804	1.582	1.456	1.425	1.186	1.007	1.010	1.037	1.010	0.868	0.941	0.946	0.899	0.911	0.852	0.808	0.730	0.627	0.599	0.605	0.632	0.651	0.735	0.755	0.753	0.859	0.711	0.585	0.517	0.657	0.669	0.581	0.713	0.821	0.834	0.818	1.153	1.403	2.086	2.614	2.848	2.192	1.397	1.353	1.880	3.106	6.491	12.40	22.70	33.72	33.39	37.12	16.97	7.087	0.888
295.0	263.6	291.3	241.8	164.4	122.8	132.8	138.2	162.4	274.0	599.5	587.1	405.5	789.1	1622	4566	6601	617.7	21.55	5.740	4.348	3.108	2.568	2.194	1.939	1.626	1.557	1.582	1.251	1.218	1.154	1.052	0.906	1.013	1.145	1.162	1.106	0.955	0.806	0.711	0.743	0.717	0.635	0.701	0.595	0.837	0.844	0.989	0.967	0.985	0.774	0.664	0.707	0.798	0.708	0.653	0.766	0.878	0.896	0.881	1.034	1.233	1.449	2.286	3.658	3.839	2.822	1.862	2.000	2.675	3.954	6.101	8.490	9.632	21.21	44.97	57.35	27.85
300.0	322.1	380.5	314.1	204.1	157.7	140.1	152.3	165.1	234.6	437.3	849.4	555.1	435.5	527.5	1308	6000	5656	88.21	11.06	5.608	3.880	2.872	2.272	2.055	1.835	1.595	1.511	1.447	1.148	1.204	1.083	0.953	1.053	1.006	1.116	1.134	1.060	0.951	0.846	0.775	0.669	0.671	0.770	0.692	0.956	0.952	1.067	1.115	1.168	0.874	0.871	0.972	0.823	0.856	0.805	0.788	0.897	0.983	1.002	1.026	1.242	1.310	1.611	2.530	3.808	4.716	3.773	2.454	2.003	2.287	2.563	3.000	3.014	5.620	13.78	33.19	56.11
305.0	346.0	402.0	363.7	250.0	179.7	162.8	167.8	195.9	251.8	369.5	709.0	893.4	473.0	330.7	406.6	1845	6989	4581	70.19	7.484	4.789	3.666	2.710	2.502	2.023	1.696	1.708	1.472	1.397	1.140	1.131	1.152	0.977	1.100	1.015	1.193	0.989	1.084	0.968	0.847	0.714	0.766	0.856	0.917	1.017	1.051	1.121	1.223	1.218	0.990	0.985	1.093	0.881	0.936	0.946	0.905	0.928	0.966	1.101	1.120	1.321	1.418	1.585	1.891	2.610	3.618	4.997	4.648	3.084	2.179	2.009	1.999	1.753	2.145	3.878	8.424	19.77
310.0	361.1	432.2	393.4	286.3	207.2	185.8	195.9	229.2	291.5	383.9	536.9	802.5	788.8	416.6	245.5	497.7	2055	5098	5231	1226	20.16	5.081	3.778	2.831	2.474	1.945	1.905	1.597	1.392	1.435	1.242	1.158	1.086	1.057	1.170	1.082	1.051	1.059	1.024	0.870	0.867	0.847	0.893	1.002	1.038	1.127	1.216	1.420	1.423	1.167	1.030	1.184	0.953	0.998	0.947	0.963	1.087	1.112	1.197	1.357	1.522	1.599	1.767	2.145	2.187	2.646	3.350	4.187	4.419	4.094	3.203	2.249	1.628	1.474	1.743	2.643	5.139
315.0	371.5	443.8	417.0	310.6	242.5	209.9	229.8	269.1	328.1	408.1	504.8	607.7	735.3	726.0	298.3	221.0	526.5	1224	3563	6908	493.2	20.29	4.877	3.707	2.889	2.161	1.912	1.710	1.582	1.366	1.441	1.152	1.069	1.171	1.219	1.288	1.088	1.005	0.954	0.951	0.865	0.876	0.862	1.052	1.097	1.234	1.238	1.409	1.439	1.156	1.111	1.181	1.243	1.027	1.064	1.193	1.145	1.226	1.273	1.383	1.695	1.699	1.884	2.265	2.253	2.600	2.802	3.238	3.167	3.571	4.362	4.239	2.880	1.668	1.315	1.417	1.879
320.0	396.8	497.7	472.5	345.4	267.0	233.3	253.0	295.2	361.3	440.8	523.5	574.7	610.9	737.5	504.5	201.1	202.9	328.2	946.5	4889	4279	388.1	10.20	4.729	3.573	2.685	2.320	2.003	1.707	1.533	1.391	1.155	1.066	1.037	1.213	1.090	1.104	0.926	1.079	1.028	0.844	1.003	0.839	1.070	1.160	1.336	1.217	1.423	1.474	1.185	1.100	1.201	1.193	1.212	1.198	1.266	1.255	1.354	1.458	1.649	1.816	1.794	2.016	2.178	2.262	2.514	2.558	2.957	2.674	2.903	3.157	4.353	4.295	2.973	1.662	1.478	1.245
325.0	458.9	559.8	557.5	412.9	300.6	271.7	292.5	327.5	389.5	462.0	538.1	592.5	587.0	594.0	647.3	321.5	159.3	144.3	261.1	1388	5267	3810	58.24	7.455	4.124	3.216	2.556	2.162	1.851	1.725	1.431	1.375	1.057	1.108	1.176	1.058	1.103	0.956	1.024	1.004	0.959	0.958	0.957	0.975	1.113	1.295	1.489	1.753	1.741	1.458	1.334	1.482	1.405	1.266	1.185	1.303	1.374	1.523	1.696	1.705	1.944	2.005	2.115	2.457	2.535	2.631	2.588	2.924	2.980	2.801	2.818	3.106	3.815	4.091	3.210	2.008	1.589
330.0	486.9	644.4	661.4	535.4	402.8	354.9	354.3	389.1	444.2	507.4	574.6	623.7	611.1	547.3	535.2	504.9	288.3	148.4	135.1	363.6	1517	4046	4411	1168	18.65	4.908	3.361	2.787	2.029	1.874	1.735	1.467	1.291	1.229	1.216	1.198	1.096	1.000	0.975	1.026	0.905	0.903	0.983	1.115	1.262	1.416	1.620	2.001	2.058	1.812	1.656	1.822	1.586	1.585	1.562	1.650	1.796	1.872	1.800	2.059	2.222	2.129	2.386	2.612	2.609	2.762	2.820	2.975	3.029	3.034	2.953	2.828	2.955	2.989	3.242	3.494	2.890
335.0	534.6	754.4	783.3	674.6	517.3	465.5	448.3	478.3	515.0	563.4	619.8	660.4	648.0	581.6	494.3	450.5	489.7	271.9	150.7	166.8	398.6	975.9	2901	6111	424.6	20.35	4.565	3.661	2.597	2.191	1.962	1.461	1.379	1.477	1.258	1.101	1.183	1.052	0.976	1.041	1.001	0.919	1.123	1.147	1.426	1.690	1.765	2.204	2.363	2.099	1.923	2.358	1.959	2.070	2.093	2.056	2.087	2.176	2.224	2.289	2.371	2.507	2.746	2.827	2.741	3.051	3.038	3.023	3.084	3.212	3.194	3.208	2.891	2.944	2.748	2.928	3.000
340.0	562.6	784.4	881.9	763.7	629.5	573.6	550.9	545.7	576.5	616.8	649.1	687.4	690.0	618.7	518.8	435.1	467.4	436.3	214.2	152.4	173.1	276.3	778.5	4225	5355	354.1	10.47	4.613	3.318	2.552	2.010	1.699	1.559	1.429	1.398	1.285	1.052	1.131	0.987	1.067	0.962	0.988	1.150	1.196	1.389	1.769	2.051	2.362	2.436	2.364	2.292	2.625	2.259	2.451	2.428	2.490	2.610	2.620	2.482	2.580	2.693	2.604	2.804	2.824	3.039	3.275	3.067	3.019	3.239	3.210	3.322	3.122	3.261	3.135	2.954	2.664	2.540
345.0	599.4	818.7	926.3	862.0	736.0	670.2	633.8	622.9	634.8	657.6	688.5	718.1	707.7	655.8	559.5	462.2	420.4	484.1	351.2	187.1	148.9	145.7	234.9	1207	4956	3295	52.68	7.142	4.296	2.866	2.481	1.908	1.847	1.447	1.215	1.365	1.031	1.260	0.966	1.014	0.975	1.033	1.147	1.241	1.455	1.935	2.176	2.404	2.797	2.571	2.454	2.951	2.670	2.920	2.707	2.773	2.973	2.979	2.751	2.930	2.987	2.881	3.184	3.057	3.198	3.341	3.230	3.431	3.481	3.447	3.368	3.242	3.417	3.259	3.035	2.723	2.726
350.0	641.5	861.6	975.2	961.1	858.1	795.5	760.5	724.0	708.6	714.2	725.8	744.4	728.5	693.2	606.0	514.3	444.1	430.9	448.7	333.4	204.3	159.5	148.7	341.0	1418	3472	3801	1041	18.06	3.950	3.302	2.217	1.869	1.562	1.383	1.213	1.205	1.126	0.934	1.039	1.001	1.047	1.164	1.331	1.495	1.891	2.184	2.483	2.721	2.545	2.618	3.299	3.196	3.148	3.146	3.172	3.270	3.331	3.342	3.218	3.215	3.343	3.333	3.452	3.467	3.341	3.229	3.456	3.610	3.475	3.601	3.642	3.680	3.460	3.327	3.111	3.066
355.0	653.4	901.4	1042	1052	965.6	916.3	885.7	842.7	795.2	793.5	784.0	788.1	767.1	734.1	662.7	581.1	508.3	457.4	425.8	457.6	341.5	222.0	175.2	182.7	391.3	850.9	2491	5086	393.4	19.33	4.308	3.041	2.044	1.651	1.559	1.322	1.145	1.085	1.129	1.045	0.959	0.938	1.164	1.318	1.698	1.848	2.162	2.684	2.882	2.829	2.876	3.610	3.460	3.701	3.577	3.556	3.773	3.835	3.740	3.508	3.889	3.615	3.782	3.802	3.609	3.794	3.510	3.678	3.633	3.770	3.786	3.697	3.966	3.519	3.660	3.607	3.643
360.0	668.7	917.1	1082	1109	1050	1018	964.1	921.1	871.8	859.7	834.5	819.5	802.2	759.0	702.8	628.0	560.9	502.2	447.6	453.9	460.5	303.7	218.8	181.2	189.0	263.0	677.0	3583	4647	334.9	10.55	3.645	2.884	1.971	1.653	1.388	1.195	1.190	1.107	0.996	1.166	1.160	1.281	1.483	1.525	1.878	2.255	2.712	3.130	2.873	2.962	3.781	3.858	3.865	3.908	4.008	4.104	4.212	4.303	3.956	3.993	3.728	4.019	4.070	3.804	3.772	3.901	3.700	4.127	3.808	3.465	3.797	3.983	4.006	3.553	3.569	3.868
365.0	662.9	908.5	1112	1148	1129	1070	1046	977.4	929.8	919.3	878.0	856.4	837.6	795.7	738.9	669.0	605.4	550.8	489.4	455.6	485.1	420.3	280.1	216.3	175.5	153.7	216.5	1048	4412	3071	49.09	5.902	3.496	2.451	1.770	1.575	1.256	1.218	1.060	1.028	1.105	1.262	1.214	1.359	1.604	2.046	2.264	2.727	2.990	3.083	3.020	3.889	3.959	4.180	4.141	4.300	4.398	4.172	4.595	4.372	4.002	3.955	4.255	4.216	4.115	3.978	3.821	3.801	4.041	4.347	3.848	3.946	4.045	4.123	3.936	3.984	3.957
370.0	677.0	925.9	1134	1187	1185	1172	1123	1056	1005	975.6	931.3	902.9	871.3	836.2	779.0	713.9	662.6	610.5	556.0	505.9	485.8	496.4	418.4	293.2	221.2	172.8	147.8	301.0	1276	3255	3574	938.4	15.83	3.750	2.327	1.871	1.554	1.362	1.201	1.088	1.172	1.282	1.378	1.395	1.721	1.996	2.292	2.772	2.976	2.961	3.125	4.001	4.158	4.490	4.408	4.374	4.617	4.882	4.668	4.582	4.473	4.392	4.488	4.513	4.351	4.166	4.165	3.934	4.109	4.401	4.137	4.189	4.350	4.313	4.259	4.306	4.282
375.0	712.0	941.4	1132	1242	1257	1238	1192	1125	1074	1035	998.4	956.0	902.7	870.4	820.2	761.3	710.3	672.0	624.2	570.2	528.5	500.1	507.9	423.7	295.9	225.4	173.1	167.3	351.0	798.3	2434	4538	336.4	16.51	3.483	2.475	1.769	1.468	1.192	1.225	1.287	1.407	1.515	1.501	1.836	2.159	2.444	2.792	3.093	3.073	3.217	4.307	4.191	4.713	4.526	4.884	4.739	4.782	4.808	5.016	4.781	4.884	4.615	4.855	4.553	4.475	4.331	4.334	4.350	4.397	4.685	4.271	4.563	4.637	4.135	4.592	4.536
380.0	726.5	958.7	1162	1252	1283	1276	1250	1170	1121	1070	1039	996.7	951.3	901.1	851.6	794.0	753.7	711.6	669.8	619.3	571.7	529.1	516.3	511.8	375.8	273.0	210.3	163.7	166.7	239.5	667.8	3311	2817	273.6	7.841	3.239	2.180	1.695	1.447	1.466	1.295	1.381	1.272	1.527	1.913	2.090	2.395	2.878	3.067	3.218	3.438	4.284	4.250	4.834	5.016	4.782	5.062	5.236	4.849	5.209	4.973	5.025	4.863	4.803	4.890	4.936	4.397	4.585	4.661	4.526	4.625	4.565	4.952	4.789	4.529	4.539	4.962
385.0	739.3	1008	1150	1262	1308	1307	1281	1190	1151	1100	1062	1018	975.7	924.3	886.4	824.6	784.7	747.7	707.6	662.2	611.2	567.0	529.6	525.5	474.1	332.3	251.9	191.8	150.7	134.4	203.9	975.9	3436	2523	39.56	4.952	2.834	2.083	1.684	1.504	1.390	1.453	1.331	1.556	1.900	2.101	2.311	2.872	2.973	3.196	3.368	4.467	4.587	4.884	5.158	4.742	5.279	5.579	5.087	5.086	5.198	4.976	5.185	5.032	4.867	4.832	4.387	4.742	4.651	4.661	4.594	4.858	4.556	5.064	4.596	4.837	5.232
390.0	747.5	1011	1193	1282	1343	1350	1310	1243	1191	1145	1086	1052	1006	952.5	908.7	853.0	815.0	783.2	750.0	706.7	662.4	617.4	571.7	533.9	515.8	444.6	319.7	245.4	190.5	146.5	125.8	272.2	1018	2584	2620	670.1	12.73	3.066	2.079	1.712	1.459	1.522	1.464	1.584	1.951	2.139	2.466	3.001	3.249	3.293	3.482	4.465	4.547	4.945	5.046	4.936	5.436	5.508	5.333	5.249	5.345	5.220	5.269	5.067	5.006	4.894	4.695	4.789	4.719	4.815	4.716	4.955	5.018	5.072	4.754	4.911	5.108
395.0	781.2	1054	1221	1332	1327	1369	1327	1256	1225	1187	1140	1084	1024	977.6	925.3	877.6	843.3	816.3	785.6	749.0	707.6	664.7	618.1	571.4	525.2	503.7	426.9	309.8	240.8	189.3	142.7	139.6	280.3	637.3	1874	3265	277.2	12.57	3.111	2.233	1.895	1.519	1.577	1.575	2.005	2.313	2.358	3.093	3.259	3.290	3.590	4.566	4.597	4.959	5.247	4.925	5.722	5.551	5.301	5.556	5.527	5.435	5.310	5.250	5.259	5.101	4.903	4.908	5.070	4.829	5.041	5.118	5.169	5.357	5.098	5.126	5.328
400.0	754.1	1052	1218	1331	1356	1390	1351	1298	1255	1203	1154	1100	1043	988.8	937.7	889.0	854.3	833.5	800.6	769.5	727.6	687.4	645.9	598.8	546.7	508.0	486.7	377.3	286.8	224.3	169.9	131.7	131.3	190.4	527.3	2482	2294	216.7	6.160	2.784	2.132	1.703	1.656	1.806	1.969	2.365	2.398	3.162	3.225	3.365	3.487	4.456	4.835	4.968	4.992	5.043	5.714	5.275	5.153	5.704	5.540	5.397	5.560	5.306	5.606	5.441	4.916	4.962	4.808	4.813	5.182	4.856	5.319	5.110	5.008	5.230	5.511
405.0	740.9	1065	1228	1303	1362	1385	1345	1320	1256	1220	1164	1108	1055	1006	938.7	885.0	858.9	842.1	812.9	783.8	746.4	709.1	673.3	622.9	573.3	520.7	493.8	450.9	335.9	262.6	203.6	150.7	115.4	104.2	159.4	746.1	2598	1983	34.53	4.163	2.472	1.858	1.954	1.793	1.905	2.362	2.697	3.132	3.124	3.362	3.498	4.487	4.766	5.017	4.987	5.122	5.543	5.445	5.511	5.798	5.685	5.389	5.707	5.226	5.359	5.307	4.854	4.835	5.090	4.956	5.174	4.965	5.141	5.164	5.151	5.207	5.307
410.0	774.4	1031	1215	1316	1351	1364	1356	1326	1281	1233	1186	1127	1063	997.5	939.9	889.2	859.8	838.3	814.1	786.8	758.5	723.5	688.6	645.6	600.8	546.7	501.2	474.3	418.7	321.4	246.5	186.8	140.5	104.6	92.60	206.1	775.6	1939	1946	487.4	11.00	2.696	2.216	2.049	2.086	2.327	2.743	3.090	3.199	3.410	3.528	4.488	4.859	5.073	4.873	5.183	5.612	5.636	5.625	5.726	5.655	5.372	5.681	5.399	5.455	5.233	4.960	4.910	5.085	5.056	5.234	4.759	5.131	5.350	5.143	5.231	5.289
415.0	751.6	1020	1210	1304	1334	1338	1340	1308	1279	1220	1191	1126	1053	977.5	921.4	868.4	842.4	826.9	808.6	777.4	754.7	724.2	693.1	658.0	617.8	568.7	514.4	472.0	450.8	394.7	293.0	220.7	167.4	125.3	93.47	99.19	209.1	478.6	1375	2222	242.1	10.69	2.993	2.352	2.279	2.418	2.586	3.093	3.272	3.337	3.371	4.255	4.729	4.812	4.883	5.164	5.619	5.486	5.593	5.460	5.498	5.773	5.683	5.610	5.467	5.071	4.804	4.850	4.945	4.996	5.206	4.954	5.050	5.467	5.170	5.243	5.349
420.0	769.9	995.8	1184	1256	1307	1324	1333	1316	1273	1228	1174	1114	1032	973.7	908.9	850.5	825.0	812.0	790.7	770.3	742.3	717.7	695.4	662.2	622.2	578.2	525.9	478.6	447.7	430.4	337.5	244.9	187.0	142.1	104.7	84.04	89.36	136.5	384.3	1741	1925	191.7	5.407	2.837	2.372	2.389	2.596	3.183	3.154	3.240	3.541	4.093	4.529	4.681	4.993	5.073	5.309	5.419	5.645	5.539	5.573	5.675	5.614	5.199	5.419	5.356	4.841	4.932	4.737	4.835	5.105	5.063	4.862	5.453	5.072	4.857	5.214
425.0	754.7	980.7	1162	1213	1297	1302	1305	1287	1272	1209	1175	1098	1028	958.9	881.5	835.0	809.1	798.1	766.5	754.4	730.6	710.6	688.6	655.8	617.7	577.1	537.1	489.2	446.1	426.4	378.2	277.0	208.1	159.4	120.5	91.44	70.81	66.74	111.1	529.2	1915	1560	32.17	4.035	2.907	2.567	2.714	3.165	3.330	3.228	3.499	4.120	4.544	4.486	4.796	5.073	5.207	5.172	5.514	5.421	5.625	5.534	5.885	4.991	5.364	5.309	5.087	4.755	4.631	4.907	4.930	4.938	4.960	5.020	4.941	4.898	5.090
430.0	749.5	948.7	1103	1199	1259	1267	1287	1269	1259	1210	1155	1092	1010	936.9	867.4	813.8	784.6	766.1	743.9	732.3	715.7	698.3	677.3	651.1	618.6	580.5	541.6	502.4	459.2	421.3	389.7	326.3	241.0	184.1	142.6	108.6	82.61	63.94	59.59	143.4	564.4	1418	1473	139.8	10.94	3.521	2.993	3.206	3.274	3.095	3.410	4.143	4.245	4.521	4.684	4.823	5.282	5.288	5.492	5.361	5.603	5.427	5.547	5.144	5.280	5.285	5.018	4.960	4.637	4.679	4.851	4.617	4.755	4.874	4.849	4.635	4.914
435.0	920.8	929.1	1094	1158	1221	1239	1248	1258	1231	1202	1146	1085	990.6	914.6	843.5	790.1	755.9	735.5	723.6	705.0	693.8	679.1	662.3	642.7	615.3	582.4	548.6	505.3	475.0	434.6	385.4	346.6	286.1	211.5	163.0	127.7	101.1	77.48	59.58	66.44	151.1	348.0	1027	1819	227.6	11.76	3.821	3.622	3.334	3.122	3.302	4.164	4.099	4.518	4.609	4.876	5.173	5.423	5.121	5.423	5.569	5.280	5.249	5.243	5.310	4.969	4.943	5.286	4.589	4.580	4.785	4.806	4.785	4.763	4.686	4.622	5.099
440.0	1155	892.1	1042	1145	1187	1213	1240	1240	1224	1182	1136	1076	975.4	888.5	824.5	764.9	731.6	713.7	702.0	688.5	676.4	663.7	649.6	632.2	607.5	576.3	546.0	507.4	477.1	439.2	390.1	343.6	305.1	242.4	180.3	142.7	113.0	87.87	67.66	56.95	64.02	100.4	289.3	1404	1699	182.6	6.753	4.078	3.494	3.164	3.237	4.165	3.930	4.219	4.528	4.699	5.004	5.302	5.268	5.666	5.483	5.237	5.105	5.413	5.369	5.103	4.800	4.898	4.834	4.878	4.717	4.563	4.337	4.597	4.429	4.819	4.614
445.0	1282	1021	1030	1088	1157	1176	1204	1213	1193	1159	1120	1051	957.1	874.9	799.7	743.9	707.8	693.7	676.0	666.3	656.0	639.9	633.0	613.6	592.8	565.9	537.3	505.4	476.5	436.5	395.7	338.7	305.5	265.7	199.3	155.0	123.8	99.38	78.64	62.66	52.52	51.67	86.72	426.7	1636	1408	28.36	5.509	4.091	3.271	3.314	3.916	4.009	4.414	4.230	4.551	4.729	5.132	5.240	4.959	5.444	5.230	5.277	4.898	5.627	4.692	4.843	4.743	4.613	4.572	4.823	4.713	4.338	4.620	4.451	4.557	4.303
450.0	1011	1406	1023	1035	1074	1115	1150	1161	1158	1130	1080	1014	924.9	839.1	758.3	701.3	664.2	652.9	640.3	626.2	613.9	605.9	596.4	584.7	563.3	542.9	518.2	489.3	464.8	432.7	391.0	338.4	294.5	267.0	225.5	176.1	138.6	112.3	90.79	73.72	59.65	48.82	48.07	118.4	478.5	1232	1333	366.8	10.45	3.783	3.411	3.845	4.006	4.157	4.156	4.309	4.597	4.791	5.065	5.013	5.073	4.938	5.062	5.006	5.180	4.798	4.746	4.594	4.448	4.504	4.401	4.241	4.253	4.229	4.325	4.388	4.299
455.0	672.5	1557	1290	966.1	1011	1048	1073	1095	1105	1080	1028	953.9	866.3	786.1	705.6	655.9	617.9	604.4	591.3	581.9	571.3	565.9	556.4	544.6	531.5	511.8	491.0	467.3	444.2	416.4	380.0	336.3	290.0	252.8	230.8	199.5	153.6	122.9	102.6	85.72	69.76	56.91	47.25	55.27	128.9	302.7	807.4	1555	192.0	10.66	3.874	4.007	3.864	4.110	3.869	4.136	4.412	4.363	4.663	4.616	4.701	4.659	4.922	4.842	4.685	4.576	4.390	4.685	4.512	4.000	4.122	4.237	4.109	3.995	3.960	4.002	4.126
460.0	533.7	1243	1710	987.4	955.4	981.5	1029	1041	1041	1027	985.2	921.2	825.5	750.1	665.5	617.1	582.2	568.8	550.8	542.3	536.2	528.0	523.4	513.9	499.7	482.7	461.6	447.9	424.6	402.6	369.9	327.2	283.4	246.1	222.4	205.7	167.2	132.5	109.8	91.83	77.59	62.70	51.49	45.10	54.87	86.95	219.0	1060	1326	147.8	6.929	4.064	3.856	4.065	3.813	3.875	4.391	4.564	4.425	4.601	4.671	4.504	4.529	4.705	4.619	4.559	4.200	4.085	4.049	4.156	3.814	3.637	3.763	3.966	3.779	3.941	4.022
465.0	501.6	890.1	1894	1181	903.7	936.6	955.4	1004	1001	979.6	950.4	873.7	787.5	714.2	636.0	576.6	547.1	533.8	516.2	507.2	499.8	492.9	488.0	484.3	472.7	452.9	439.6	423.0	405.6	388.0	354.4	316.7	274.6	241.6	213.6	196.7	176.2	139.6	114.7	96.45	82.36	66.94	55.62	45.32	40.34	41.14	65.05	305.0	1194	1087	23.77	5.532	3.984	3.873	3.928	3.756	4.147	4.128	4.139	4.295	4.428	4.403	4.589	4.319	4.396	4.346	4.067	4.010	4.149	3.901	3.925	3.801	3.563	3.818	3.491	3.586	3.785
470.0	464.6	667.1	1452	1734	924.2	861.2	884.5	911.8	913.5	907.9	876.7	806.7	731.5	653.5	584.9	534.4	497.3	482.8	466.7	461.4	453.6	447.4	440.5	439.2	429.7	414.9	400.3	390.0	377.2	359.3	331.6	297.8	262.5	232.3	202.3	181.0	169.7	148.3	118.7	99.90	84.69	70.48	59.75	48.52	39.67	32.85	32.98	82.20	335.4	835.7	931.9	327.9	11.50	4.190	4.066	3.617	3.875	3.909	4.028	4.002	4.069	4.087	4.242	4.177	4.118	3.975	3.833	3.681	3.647	3.659	3.565	3.536	3.475	3.531	3.212	3.305	3.281
475.0	431.8	556.6	864.5	1841	1305	786.0	797.4	830.3	835.3	835.5	797.1	736.0	669.4	591.3	531.4	483.7	453.0	438.2	418.3	411.0	404.5	399.7	395.2	390.7	380.4	373.5	363.8	351.1	346.6	327.3	308.5	277.4	246.3	220.1	192.9	172.0	155.2	145.1	127.5	103.3	85.84	72.63	61.85	51.62	42.56	33.81	28.87	34.23	87.20	199.0	458.5	1027	198.0	13.23	4.089	3.546	3.820	3.792	3.811	3.618	3.758	3.794	3.985	3.826	3.686	3.462	3.594	3.388	3.331	3.211	3.050	3.259	3.301	3.141	2.924	3.007	2.889
480.0	424.3	503.1	655.3	1397	1828	795.8	752.6	762.1	791.7	779.9	756.2	693.4	630.4	558.0	493.7	454.5	417.7	401.7	386.7	381.9	373.3	364.9	367.1	361.1	353.9	345.3	338.2	325.7	320.5	310.3	290.2	261.0	233.7	208.4	185.8	167.2	147.2	135.3	128.0	107.4	87.45	73.15	63.12	52.16	44.42	35.43	29.45	25.20	32.93	55.25	118.5	567.8	962.7	179.7	8.437	3.842	3.887	3.694	3.700	3.571	3.576	3.404	3.816	3.745	3.481	3.331	3.261	3.147	2.985	3.105	2.803	3.040	3.047	2.895	2.762	2.783	2.740
485.0	396.3	500.7	557.0	928.3	2025	1051	706.0	733.8	745.8	734.1	711.1	660.4	594.8	527.8	470.3	425.3	394.6	379.2	361.8	357.3	350.9	345.8	341.4	335.5	329.8	323.1	316.4	307.6	301.3	292.9	275.5	252.1	224.4	200.6	179.2	160.9	142.3	127.0	123.7	111.1	90.31	73.98	64.28	53.94	46.37	37.46	31.10	24.81	22.76	25.18	35.89	154.3	717.4	902.1	29.18	5.357	4.024	3.653	3.358	3.344	3.451	3.125	3.531	3.498	3.531	3.282	3.243	3.048	3.008	2.958	2.977	3.053	2.933	2.796	2.863	2.607	2.796
490.0	339.1	486.1	523.7	644.4	1454	1697	757.9	681.8	686.3	684.6	660.8	613.5	552.0	493.7	438.5	394.3	363.2	349.5	332.7	325.7	319.4	313.2	311.0	305.6	300.9	297.2	288.5	282.6	279.1	270.6	253.7	233.4	212.7	191.1	169.8	153.4	137.4	122.5	113.9	106.5	95.86	78.13	64.68	56.03	48.39	40.28	33.15	27.13	22.30	19.65	19.16	44.05	190.7	547.2	765.7	337.0	13.95	3.927	3.585	3.226	3.288	3.126	3.274	3.203	3.332	3.012	2.735	2.849	2.791	2.860	2.801	2.748	2.638	2.677	2.562	2.469	2.614
495.0	290.9	464.5	525.6	535.5	780.6	1858	1214	626.9	635.6	627.5	605.6	562.1	506.8	456.2	398.8	358.3	328.9	317.0	303.9	293.7	286.4	280.2	280.3	276.1	271.4	267.5	260.1	254.7	253.5	246.5	233.4	215.9	197.9	177.1	159.7	143.4	129.6	117.5	106.2	97.78	92.54	82.53	66.91	55.85	48.40	41.94	34.90	29.30	23.96	19.81	17.69	20.68	51.51	130.9	341.3	911.9	232.2	17.70	3.880	3.668	2.930	3.127	2.940	3.123	2.970	2.739	2.814	2.699	2.451	2.564	2.514	2.387	2.563	2.352	2.262	2.389	2.371
500.0	259.6	394.4	505.9	486.0	554.6	1361	1786	640.7	592.6	579.8	560.1	532.7	473.8	422.5	370.6	332.8	305.1	290.6	277.9	271.0	261.3	256.8	257.4	253.3	248.9	243.8	241.2	234.9	233.6	225.5	219.3	201.6	181.9	165.6	150.4	136.5	124.5	111.8	100.3	91.70	85.75	81.71	70.11	57.21	48.36	41.50	35.90	30.47	25.70	20.62	17.67	16.32	21.21	37.67	86.86	437.9	913.4	211.9	11.97	3.637	3.123	3.002	2.901	3.049	2.751	2.505	2.704	2.607	2.528	2.464	2.177	2.365	2.287	2.086	2.038	2.208	2.214
505.0	233.0	348.4	458.2	463.9	462.0	825.0	2040	893.8	541.0	535.2	519.0	490.9	439.8	389.5	345.2	305.2	283.8	266.5	257.4	247.4	239.9	234.5	235.1	230.8	227.0	223.9	220.0	218.7	216.1	208.8	200.0	188.3	169.9	153.3	138.7	129.6	116.4	105.2	95.38	85.98	79.51	75.57	70.41	58.32	48.53	42.28	36.19	31.27	25.78	21.99	18.87	15.71	15.04	17.49	27.20	112.8	542.9	861.0	170.8	6.298	3.215	2.739	2.813	2.757	2.556	2.533	2.429	2.473	2.447	2.264	2.082	2.164	2.191	2.144	2.115	2.003	2.057
510.0	221.2	295.4	406.2	448.8	416.8	510.8	1401	1639	578.4	479.8	468.2	439.2	393.8	350.7	307.0	277.3	252.2	239.9	226.6	219.9	211.4	208.2	206.1	203.4	200.4	198.0	193.8	193.2	192.4	185.8	179.5	167.9	152.2	140.5	127.4	116.9	107.0	96.87	87.96	79.66	72.44	66.70	64.89	59.27	49.03	41.51	35.99	31.25	26.21	22.87	19.77	16.70	14.61	13.67	14.42	32.63	138.3	431.7	646.2	294.9	14.62	3.015	2.725	2.590	2.456	2.528	2.277	2.188	2.147	2.156	1.979	1.929	1.891	1.795	1.902	1.888	1.934
515.0	174.3	248.9	323.7	404.5	391.7	394.4	669.6	1880	1056	435.6	419.7	387.9	352.9	313.0	274.2	246.0	220.9	212.5	198.8	192.6	188.3	181.8	179.0	176.5	177.7	172.4	169.1	168.4	167.7	164.1	157.5	147.4	134.5	122.6	112.8	105.4	94.78	87.40	79.65	72.77	66.56	59.41	55.88	54.96	49.48	40.55	34.64	30.81	25.87	22.86	20.13	17.21	15.07	12.94	12.27	15.19	37.80	102.3	224.3	636.0	237.9	18.97	2.964	2.408	2.435	2.394	2.033	1.872	1.879	1.961	1.715	1.719	1.617	1.651	1.750	1.565	1.736
520.0	151.7	226.2	279.1	365.8	374.3	360.1	414.6	1359	1715	469.4	386.7	353.8	318.5	285.5	252.0	221.1	202.4	191.4	180.5	173.5	169.8	163.9	162.7	159.4	157.5	155.2	153.1	153.1	149.9	150.0	142.8	134.1	122.4	112.9	103.7	95.26	88.18	80.86	72.86	67.89	61.87	56.71	50.76	49.06	48.59	41.81	34.60	29.26	25.54	22.68	20.24	17.43	15.47	13.09	11.98	11.94	15.62	28.73	56.13	266.3	642.0	214.2	12.52	2.466	2.409	2.054	2.102	1.861	1.696	1.684	1.683	1.678	1.487	1.485	1.660	1.580	1.597
525.0	160.2	217.5	260.8	314.7	368.3	329.0	341.5	739.2	2075	736.4	348.1	327.8	297.1	263.7	226.8	201.7	183.8	173.7	164.3	157.7	152.5	148.8	147.2	143.7	143.9	139.7	139.9	136.5	135.7	134.9	130.5	120.9	112.8	103.1	95.37	87.27	80.19	74.25	68.25	62.91	56.95	52.33	47.80	44.58	44.57	41.61	35.20	28.62	25.11	22.33	19.57	17.32	15.82	13.31	12.19	11.36	10.94	12.74	18.16	67.18	326.4	611.0	170.4	6.107	2.251	1.982	1.978	1.910	1.627	1.624	1.526	1.536	1.562	1.448	1.409	1.572	1.454
530.0	147.4	183.5	221.7	263.7	327.9	314.6	298.0	403.0	1376	1638	410.5	286.3	258.2	229.6	198.4	178.7	161.6	152.4	144.5	138.9	132.5	129.1	129.3	124.3	124.3	121.7	120.9	120.7	119.3	116.8	114.5	106.9	98.80	91.43	83.95	77.81	71.76	66.60	61.25	56.36	52.02	47.38	43.47	40.51	38.67	37.80	34.96	28.06	23.72	20.94	18.60	16.94	15.06	13.82	12.18	10.87	9.952	9.266	9.317	19.54	80.66	267.3	444.9	234.4	14.65	2.166	1.910	1.660	1.547	1.549	1.415	1.419	1.406	1.367	1.266	1.320	1.416
535.0	132.1	160.4	191.0	222.4	263.4	313.0	260.8	290.6	571.1	1901	929.7	256.8	227.3	195.3	172.8	156.9	142.4	134.2	123.5	120.3	114.5	112.0	110.2	107.5	107.1	104.8	103.9	102.8	102.1	101.5	99.62	92.84	86.81	78.10	73.24	69.21	63.32	57.45	53.81	49.63	45.94	41.61	38.36	35.93	33.79	32.02	31.82	28.34	23.49	19.97	17.79	16.03	14.48	13.00	12.33	10.70	9.689	8.310	7.319	9.162	21.85	63.28	136.6	424.4	237.7	18.92	1.910	1.728	1.458	1.455	1.358	1.179	1.255	1.136	1.096	1.072	1.197
540.0	112.5	140.0	171.0	185.2	213.5	282.7	255.2	240.9	313.9	1262	1694	282.4	201.6	176.5	156.5	137.7	126.5	116.6	109.3	105.0	100.9	97.83	96.42	94.14	94.22	91.74	89.84	90.30	89.97	90.42	87.99	82.19	76.05	70.81	64.89	60.22	55.48	52.01	48.54	43.99	40.86	38.42	34.89	32.08	30.50	28.37	27.96	27.03	23.53	19.18	16.71	14.73	13.21	11.97	11.31	10.73	9.334	7.886	6.924	6.703	8.614	17.38	33.67	159.2	436.3	203.0	11.75	1.575	1.480	1.253	1.322	1.154	1.228	1.059	1.041	0.970	1.134
545.0	100.6	130.5	149.5	171.9	180.8	247.4	254.5	211.0	231.5	592.6	2079	518.6	182.5	158.5	139.3	121.3	113.2	103.9	98.31	94.24	88.66	86.37	86.41	84.14	83.09	80.71	81.64	79.65	81.60	80.58	78.78	72.91	68.17	63.08	57.89	53.29	50.10	46.91	43.93	39.23	37.41	34.32	31.84	29.26	27.35	25.91	24.92	25.06	22.27	18.79	15.82	13.37	12.16	11.30	11.02	10.08	9.123	7.811	6.891	5.998	5.844	7.161	10.53	39.19	199.9	423.2	144.0	4.733	1.468	1.253	1.117	1.082	1.155	1.071	1.029	0.908	1.003
550.0	88.92	104.4	131.2	141.4	148.9	191.8	234.6	189.5	185.1	277.8	1268	1373	190.3	134.2	115.5	103.3	95.58	89.79	84.00	79.50	76.29	73.78	72.12	71.63	69.89	67.75	67.18	67.34	67.50	67.47	65.60	60.98	56.04	53.02	49.41	45.75	42.31	39.60	37.15	34.47	31.68	29.57	27.43	25.60	24.23	22.27	20.70	20.10	19.48	17.94	14.93	12.45	11.27	10.47	9.553	8.979	8.621	7.607	6.587	5.501	4.963	4.656	5.054	10.94	48.35	173.0	295.1	136.5	13.28	1.340	1.028	1.072	1.001	1.020	0.954	0.937	0.868
555.0	85.44	88.44	114.0	116.7	121.6	141.6	196.2	184.1	149.0	175.8	442.7	1700	602.1	114.5	94.28	86.98	78.84	73.89	69.75	64.81	62.31	61.07	58.18	58.55	54.96	55.96	55.76	55.38	55.88	54.14	52.94	49.44	46.31	43.14	40.56	38.02	35.63	33.43	30.75	28.33	26.49	24.50	22.56	21.71	20.38	18.63	17.67	16.38	15.61	15.56	14.10	11.30	10.05	9.216	8.396	7.795	7.587	6.880	6.212	5.071	4.136	3.549	3.687	4.482	12.65	40.12	88.05	255.5	201.7	15.92	1.102	0.911	0.831	0.873	0.784	0.828	0.697
560.0	79.73	83.56	93.30	101.0	105.8	115.6	150.6	186.5	134.1	136.1	202.6	1081	1293	129.5	82.05	75.12	67.76	62.40	58.79	56.09	52.96	50.68	49.47	49.84	48.46	47.63	45.92	47.20	47.99	45.98	44.90	41.99	39.97	36.71	34.73	31.98	30.16	28.00	26.45	24.09	22.31	21.33	19.67	18.64	17.86	16.21	14.90	13.53	13.35	13.25	12.88	10.44	9.088	8.093	7.779	7.152	6.795	5.805	5.814	5.002	3.895	3.669	3.159	3.017	4.698	10.51	21.29	94.79	274.0	141.9	7.550	0.943	0.731	0.843	0.770	0.692	0.775
565.0	67.42	78.23	82.96	88.57	91.64	98.24	120.4	180.3	128.5	116.3	132.0	452.9	1697	298.5	73.08	65.49	58.74	52.89	49.32	48.05	44.13	44.16	42.14	42.06	40.93	40.24	40.43	40.70	40.87	39.52	38.70	35.89	34.80	31.62	29.53	27.61	26.10	23.88	22.59	20.80	19.25	18.42	17.48	16.49	15.24	14.20	12.98	11.57	11.43	10.97	11.11	10.48	8.521	7.308	6.943	6.257	6.187	5.048	4.965	4.747	3.670	3.180	2.746	2.464	2.923	3.695	6.082	23.02	119.8	253.4	34.22	2.868	0.863	0.734	0.707	0.628	0.712
570.0	59.47	70.66	75.62	74.99	76.27	80.21	88.91	135.1	137.0	99.60	101.2	177.4	1038	984.9	92.50	52.84	47.54	43.90	40.69	39.39	36.52	36.05	34.43	33.88	32.94	32.79	32.85	32.92	32.96	32.14	31.75	29.74	27.92	26.07	24.25	22.41	21.27	19.30	18.46	17.18	16.00	15.18	14.39	13.24	12.94	11.78	10.96	10.09	9.577	8.804	8.724	8.905	7.965	6.739	5.866	5.324	5.117	4.555	4.477	3.934	3.660	3.091	2.520	2.157	2.051	2.193	2.582	6.241	28.64	100.4	160.2	93.86	10.86	0.886	0.716	0.734	0.649
575.0	63.71	61.02	69.08	66.04	66.96	69.17	72.32	87.93	134.6	98.78	83.51	97.56	328.0	1325	384.9	45.75	38.68	34.76	33.56	31.70	30.04	28.77	28.46	27.41	26.41	25.92	26.35	26.11	25.36	25.77	25.75	24.23	22.19	21.41	19.50	17.99	17.27	15.59	15.00	14.13	12.93	12.22	11.52	11.12	10.75	9.762	9.534	8.346	7.717	7.270	6.979	6.794	7.030	5.912	5.237	4.698	4.362	4.082	3.534	3.330	3.057	2.965	2.286	2.218	1.854	1.799	1.634	2.495	7.382	23.27	47.53	146.9	121.3	11.20	0.778	0.663	0.541
580.0	58.56	66.73	61.73	59.92	57.73	57.95	65.01	68.91	120.3	106.8	74.91	77.22	125.7	844.8	919.6	54.03	32.39	31.21	28.84	26.30	26.29	24.79	23.28	23.18	23.20	22.23	22.77	21.89	21.39	21.97	21.13	21.01	18.82	18.06	16.16	15.24	14.45	13.57	12.76	11.98	10.83	10.10	9.789	9.266	8.996	8.393	8.070	7.211	6.940	6.153	5.850	5.493	6.056	5.579	4.946	4.410	3.926	3.595	3.120	3.013	2.640	2.630	2.589	2.075	1.675	1.655	1.492	1.676	2.519	6.099	11.44	53.70	159.9	85.41	4.763	0.736	0.493
585.0	58.99	61.13	59.24	49.79	53.70	51.29	52.49	59.93	92.09	117.0	74.34	67.24	72.23	330.7	1243	107.7	28.29	25.77	25.24	23.04	21.97	21.61	19.59	20.32	19.98	18.70	19.03	18.85	18.62	18.53	17.95	17.77	16.07	14.90	13.78	13.43	12.59	11.84	10.94	10.30	9.316	9.230	8.683	7.908	7.878	7.159	6.711	6.193	6.068	5.397	4.992	4.840	4.997	5.192	4.894	4.223	3.643	3.418	2.834	2.567	2.469	2.309	2.396	1.974	1.615	1.491	1.446	1.284	1.459	2.195	3.385	12.99	68.01	148.1	32.27	1.779	0.662
590.0	53.18	56.74	52.96	46.14	44.02	43.07	45.96	49.37	64.35	106.9	79.42	59.55	56.39	112.2	750.5	646.9	40.89	21.76	20.33	18.45	18.38	17.49	16.57	16.49	15.67	15.65	15.03	14.72	15.56	15.45	14.66	14.06	13.39	12.24	11.38	10.98	10.21	9.635	9.004	8.630	7.812	7.493	7.145	6.868	6.596	5.956	5.779	5.355	4.990	4.451	4.067	3.935	3.810	3.967	4.162	3.815	3.199	2.922	2.563	2.316	2.113	1.904	1.959	1.903	1.654	1.446	1.310	1.184	1.120	1.224	1.398	3.596	16.25	57.73	96.08	60.08	8.272
595.0	50.14	54.01	46.09	43.94	36.18	39.01	39.44	40.81	50.55	79.18	97.61	54.09	47.66	55.04	218.6	907.9	207.7	18.20	15.90	14.72	14.42	14.17	13.97	13.32	13.03	12.88	12.55	11.62	11.88	12.14	11.61	11.63	10.81	10.32	9.188	9.016	8.387	7.939	7.010	7.155	6.199	6.128	5.827	5.428	5.237	4.951	4.463	4.424	4.004	3.820	3.343	3.108	3.137	3.089	3.137	3.286	2.996	2.651	2.259	2.038	1.726	1.754	1.666	1.515	1.579	1.426	1.186	1.072	1.055	0.909	0.871	1.381	4.209	13.36	27.45	85.36	74.54
600.0	51.36	49.08	46.76	38.56	32.30	32.82	35.64	37.93	43.60	57.77	100.2	59.76	46.06	40.79	71.07	600.7	555.0	23.51	14.34	13.28	12.40	12.28	11.79	11.66	11.34	10.45	10.58	10.17	10.18	10.38	9.473	9.198	9.054	8.559	7.877	7.803	6.859	6.540	6.527	6.059	5.305	5.216	4.838	4.835	4.715	4.191	3.829	3.902	3.299	3.146	2.956	2.596	2.509	2.702	2.855	2.790	2.823	2.506	1.898	1.815	1.664	1.495	1.431	1.306	1.394	1.495	1.214	1.078	0.881	0.886	0.814	0.870	1.454	3.443	6.627	30.90	93.54
605.0	47.35	50.64	44.51	37.72	29.15	30.61	31.35	35.65	38.18	45.70	88.45	68.09	43.20	34.94	35.45	232.8	809.4	67.22	12.23	11.04	10.95	9.779	9.621	9.164	9.398	8.849	8.995	9.129	8.956	8.444	8.547	8.053	8.167	7.370	6.696	6.603	6.258	5.604	5.572	4.944	4.688	4.522	4.173	4.300	4.070	3.742	3.278	3.380	2.767	2.817	2.556	2.592	2.222	2.268	2.217	2.425	2.549	2.170	1.736	1.603	1.511	1.399	1.374	1.119	1.358	1.276	1.156	1.060	0.870	0.879	0.741	0.756	0.900	1.271	1.884	7.522	39.22
610.0	46.67	46.08	43.85	34.05	30.42	27.11	28.60	31.13	36.51	40.46	63.55	79.26	44.96	31.02	25.63	69.65	540.8	409.8	18.29	9.381	9.032	8.356	8.175	7.930	7.517	7.374	7.178	7.355	7.037	7.093	6.899	6.522	6.426	5.935	5.530	5.096	4.893	4.611	4.479	3.954	3.888	3.662	3.318	3.420	3.122	3.008	2.855	2.787	2.409	2.387	2.203	2.043	1.897	1.899	1.774	1.872	2.024	1.980	1.549	1.423	1.298	1.231	1.106	1.045	1.030	1.063	1.082	1.121	0.819	0.719	0.765	0.616	0.723	0.733	0.870	2.046	9.438
615.0	50.07	44.17	36.29	32.49	24.53	23.49	26.85	29.39	32.40	35.72	46.56	74.70	50.87	28.86	20.89	26.70	161.6	648.6	73.88	8.071	7.262	6.994	6.964	6.428	6.226	5.726	5.743	5.800	5.898	5.663	5.300	5.235	4.851	4.807	4.301	3.896	3.991	3.600	3.466	3.376	3.146	3.009	2.815	2.777	2.616	2.516	2.336	2.141	1.965	1.919	1.801	1.772	1.604	1.584	1.506	1.334	1.550	1.663	1.410	1.364	1.268	0.986	0.988	0.931	0.929	0.789	0.988	0.929	0.926	0.598	0.668	0.648	0.597	0.545	0.531	0.867	2.460
620.0	41.19	41.43	38.06	30.64	24.29	21.37	25.10	24.64	28.36	32.98	38.31	60.23	59.89	29.20	19.76	16.06	47.34	467.5	340.0	9.820	6.495	6.175	5.813	5.107	5.022	5.119	5.311	5.093	5.046	4.885	4.729	4.197	4.155	3.614	3.909	3.416	3.371	3.023	3.156	2.792	2.701	2.516	2.316	2.174	2.348	2.015	1.861	1.990	1.611	1.795	1.472	1.481	1.296	1.314	1.328	1.244	1.235	1.262	1.480	1.323	0.975	0.895	0.922	0.828	0.886	0.732	0.752	0.799	0.872	0.692	0.610	0.645	0.517	0.504	0.473	0.592	0.876
625.0	40.70	39.59	37.14	28.72	23.72	24.24	22.89	24.45	27.87	29.96	35.18	47.05	61.21	30.96	17.68	12.43	18.28	195.7	571.6	34.66	5.655	5.339	5.039	4.414	4.274	4.396	4.248	4.276	4.416	4.005	4.134	3.529	3.504	3.389	3.201	3.085	2.831	2.589	2.577	2.486	2.242	2.099	1.883	1.895	1.997	1.722	1.649	1.692	1.421	1.426	1.301	1.248	1.069	1.199	1.010	1.059	1.216	1.087	1.237	1.230	1.037	0.814	0.800	0.778	0.746	0.624	0.718	0.631	0.717	0.856	0.676	0.599	0.515	0.506	0.451	0.583	0.558
630.0	40.40	36.52	34.66	26.94	21.78	20.89	20.39	21.33	25.80	29.11	32.73	37.37	53.49	38.20	17.45	11.37	11.22	54.31	426.2	263.8	8.036	4.184	4.203	3.957	3.772	3.323	3.547	3.371	3.582	3.332	3.242	3.076	2.968	2.840	2.606	2.520	2.286	2.098	2.096	2.048	1.874	1.673	1.643	1.612	1.579	1.515	1.426	1.321	1.212	1.183	1.060	1.058	0.965	0.947	0.913	0.877	0.996	0.977	0.949	1.035	1.048	0.858	0.748	0.663	0.667	0.555	0.624	0.578	0.594	0.750	0.735	0.538	0.475	0.464	0.472	0.477	0.447
635.0	37.76	37.79	28.57	23.44	17.31	19.07	19.12	19.65	23.28	23.93	29.54	33.73	39.73	44.98	19.42	11.14	9.015	16.89	132.4	483.8	49.50	3.929	3.619	3.510	2.942	2.794	2.977	2.861	2.770	2.775	2.754	2.546	2.613	2.046	2.085	1.840	1.978	1.614	1.722	1.516	1.515	1.380	1.364	1.342	1.246	1.157	1.173	0.991	1.002	0.992	0.827	0.918	0.721	0.769	0.761	0.785	0.824	0.843	0.726	0.751	0.818	0.770	0.655	0.695	0.578	0.511	0.506	0.564	0.612	0.600	0.634	0.620	0.497	0.479	0.435	0.408	0.392
640.0	40.07	34.74	26.83	22.61	18.37	17.97	17.76	20.04	21.79	24.57	28.68	31.48	32.97	42.20	22.73	11.09	8.084	7.840	36.83	391.2	214.1	4.350	3.270	2.918	2.623	2.428	2.300	2.294	2.366	2.199	2.233	2.140	2.159	1.720	1.651	1.566	1.614	1.378	1.489	1.397	1.266	1.215	1.100	1.157	1.029	1.107	0.940	0.905	0.882	0.797	0.793	0.712	0.730	0.754	0.713	0.619	0.743	0.646	0.644	0.604	0.744	0.661	0.775	0.705	0.559	0.549	0.484	0.568	0.521	0.440	0.542	0.674	0.542	0.479	0.338	0.466	0.426
645.0	36.98	32.95	27.25	23.78	16.01	17.68	17.05	19.29	21.43	22.68	27.26	28.08	29.36	36.24	28.88	11.32	7.527	5.974	12.12	179.9	400.0	17.20	2.852	2.546	2.407	2.100	2.284	1.982	1.942	1.907	1.998	1.958	1.912	1.452	1.637	1.495	1.433	1.519	1.303	1.275	1.167	1.104	1.014	0.981	0.906	0.879	0.851	0.796	0.682	0.678	0.655	0.683	0.679	0.570	0.681	0.628	0.629	0.590	0.597	0.598	0.580	0.686	0.659	0.583	0.545	0.485	0.515	0.550	0.451	0.511	0.498	0.540	0.624	0.496	0.351	0.420	0.394
650.0	33.29	36.07	27.82	21.87	18.01	15.66	15.88	18.27	21.05	21.91	24.80	27.70	25.55	28.61	32.99	12.75	7.516	5.896	6.010	54.33	420.3	62.67	2.733	2.315	1.977	1.994	1.906	1.930	1.787	1.718	1.664	1.680	1.501	1.335	1.426	1.300	1.216	1.199	1.304	0.972	1.011	1.028	1.028	0.909	0.719	0.796	0.716	0.769	0.687	0.616	0.648	0.684	0.591	0.581	0.540	0.590	0.535	0.519	0.522	0.536	0.566	0.562	0.641	0.524	0.552	0.443	0.477	0.551	0.447	0.481	0.366	0.464	0.576	0.508	0.369	0.350	0.432
