Sample:	'1
File name:	Default_20230303_090146.FD3
Run date:	'08:55:25, 03/03/2023
Operator:	user
Comment:	'

Instrument
Model:	F-2700 FL Spectrophotometer
Serial number:	2190-003
ROM Version:	4J14000 07

Instrument parameters
Measurement type:	3-D scan
Data mode:	Fluorescence
EX  Start WL:	220.0 nm
EX  End WL:	600.0 nm
EX Sampling interval:	5.0 nm
EM  Start WL:	230.0 nm
EM  End WL:	650.0 nm
EM Sampling interval:	5.0 nm
Scan speed:	12000 nm/min
EX Slit:	5.0 nm
EM Slit:	5.0 nm
PMT Voltage:	700 V
Response:	Auto 
Corrected spectra:	Off
Contour interval:	50.000

Peak integration
Integration method:	Rectangular
Sensitivity:	1
Threshold:	1.000

Peaks
No.	ApexEX/EM(nm)	Height(Data)
1	230.0/335.0	213.1
2	245.0/385.0	489.9
3	245.0/530.0	-94.43
4	250.0/395.0	486.4
5	250.0/405.0	484.8
6	250.0/420.0	461.8
7	250.0/540.0	-68.38
8	255.0/280.0	200.2
9	255.0/375.0	460.6
10	255.0/400.0	484.1
11	255.0/415.0	466.8
12	255.0/425.0	447.9
13	255.0/550.0	-89.22
14	260.0/285.0	314.0
15	260.0/420.0	437.8
16	260.0/565.0	-74.48
17	265.0/290.0	380.7
18	265.0/580.0	-65.07
19	270.0/295.0	611.7
20	270.0/425.0	471.0
21	270.0/590.0	-52.44
22	275.0/305.0	843.0
23	275.0/600.0	-34.03
24	280.0/310.0	856.6
25	280.0/335.0	718.2
26	280.0/615.0	-30.43
27	285.0/315.0	818.1
28	285.0/625.0	-27.03
29	290.0/320.0	777.0
30	290.0/390.0	632.8
31	290.0/645.0	-25.92
32	305.0/340.0	504.0
33	305.0/395.0	596.9
34	310.0/345.0	449.7
35	315.0/355.0	400.7
36	320.0/360.0	448.2
37	325.0/365.0	444.1
38	330.0/375.0	434.2
39	335.0/380.0	452.4
40	340.0/385.0	442.5
41	350.0/400.0	420.1
42	355.0/405.0	412.6
43	415.0/485.0	57.06
44	430.0/505.0	29.59
45	440.0/515.0	18.33
46	445.0/525.0	14.27
47	450.0/530.0	11.48
48	460.0/540.0	6.250
49	465.0/550.0	3.479
50	470.0/555.0	1.524
51	540.0/300.0	-6.067
52	550.0/305.0	-5.753
53	560.0/310.0	-5.910
54	570.0/315.0	-5.959
55	580.0/325.0	-6.029

Data points
	220.0	225.0	230.0	235.0	240.0	245.0	250.0	255.0	260.0	265.0	270.0	275.0	280.0	285.0	290.0	295.0	300.0	305.0	310.0	315.0	320.0	325.0	330.0	335.0	340.0	345.0	350.0	355.0	360.0	365.0	370.0	375.0	380.0	385.0	390.0	395.0	400.0	405.0	410.0	415.0	420.0	425.0	430.0	435.0	440.0	445.0	450.0	455.0	460.0	465.0	470.0	475.0	480.0	485.0	490.0	495.0	500.0	505.0	510.0	515.0	520.0	525.0	530.0	535.0	540.0	545.0	550.0	555.0	560.0	565.0	570.0	575.0	580.0	585.0	590.0	595.0	600.0
230.0	-873.4	-409.0	 1816	 1275	-235.0	-276.8	-230.1	-204.7	-182.7	-159.5	-141.5	-119.0	-100.1	-82.02	-65.79	-54.30	-46.63	-40.01	-34.45	-30.31	-27.17	-25.24	-22.99	-20.84	-19.84	-18.71	-17.91	-17.13	-16.76	-16.56	-15.64	-14.84	-13.85	-13.10	-12.10	-10.85	-10.70	-10.68	-10.17	-9.880	-9.488	-9.783	-9.648	-9.122	-8.828	-8.560	-7.418	-6.039	-2.698	-2.361	-4.725	-7.195	-7.027	-7.580	-7.230	-7.606	-7.802	-7.714	-7.746	-7.735	-7.814	-7.856	-7.929	-7.959	-7.934	-8.099	-7.991	-8.149	-8.260	-8.281	-8.251	-8.173	-8.258	-8.385	-8.394	-8.714	-8.985
235.0	-844.2	-595.5	366.9	 2411	 1625	-141.2	-236.3	-206.7	-181.2	-156.5	-140.7	-120.3	-102.2	-83.54	-67.88	-54.97	-46.06	-39.41	-34.33	-31.46	-27.13	-24.96	-22.91	-21.16	-19.71	-18.67	-18.00	-16.76	-16.22	-16.59	-15.75	-14.87	-13.75	-13.05	-12.15	-10.86	-10.89	-10.96	-10.34	-10.01	-9.504	-9.853	-9.669	-9.207	-8.874	-8.438	-7.460	-7.290	-5.294	-3.029	-1.265	-2.487	-4.703	-7.283	-7.050	-7.602	-7.942	-7.711	-7.651	-7.786	-7.629	-7.788	-8.042	-8.012	-8.063	-8.075	-7.947	-8.144	-7.972	-8.441	-8.245	-8.250	-8.382	-8.383	-8.609	-8.837	-9.008
240.0	-860.5	-660.1	-330.7	 1007	 3311	 1427	-160.0	-205.0	-178.0	-161.5	-138.0	-121.1	-97.16	-82.28	-65.99	-53.92	-44.89	-39.64	-34.50	-30.19	-27.30	-25.06	-23.17	-21.51	-19.73	-19.14	-17.75	-16.62	-16.57	-16.37	-15.88	-14.89	-13.73	-13.27	-12.21	-11.00	-10.84	-10.56	-10.09	-9.873	-9.721	-9.482	-9.708	-9.257	-8.468	-8.518	-7.509	-7.551	-6.717	-5.267	-3.999	-1.513	1.129	-1.716	-5.610	-7.567	-7.635	-7.663	-7.728	-7.780	-7.783	-7.865	-8.010	-7.979	-7.849	-7.772	-8.056	-7.916	-8.209	-8.433	-8.255	-8.320	-8.273	-8.373	-8.491	-8.628	-9.008
245.0	-864.9	-646.9	-476.8	-48.56	 1916	 4129	 1094	-182.9	-175.2	-162.4	-136.6	-121.3	-100.2	-82.42	-66.77	-53.05	-46.29	-38.88	-34.70	-30.33	-27.80	-25.09	-23.10	-21.82	-19.46	-18.87	-17.48	-16.92	-17.01	-16.66	-15.78	-14.89	-13.97	-12.88	-12.11	-10.87	-10.64	-10.19	-9.864	-9.681	-9.627	-9.700	-9.492	-9.032	-8.469	-8.559	-7.361	-7.545	-6.990	-6.026	-5.593	-5.466	-1.925	1.893	1.265	-3.222	-6.714	-7.424	-7.990	-7.855	-7.630	-7.776	-8.177	-8.065	-7.912	-7.934	-7.875	-7.991	-7.980	-8.352	-8.142	-8.199	-8.472	-8.187	-8.411	-8.826	-8.925
250.0	-845.1	-677.8	-437.2	-256.8	244.1	 2047	 4110	 2651	177.2	-156.3	-133.5	-116.6	-98.94	-80.84	-65.72	-52.99	-45.33	-39.41	-34.02	-29.83	-27.48	-24.41	-22.59	-21.28	-19.70	-18.71	-17.56	-17.38	-16.75	-16.35	-15.39	-14.74	-14.07	-12.79	-12.21	-11.01	-10.61	-10.61	-9.918	-10.05	-9.638	-9.500	-9.319	-8.974	-8.714	-8.604	-7.372	-7.627	-6.718	-5.767	-5.956	-6.739	-6.018	-4.623	-2.067	0.556	2.709	0.889	-3.449	-7.137	-7.652	-7.818	-7.984	-8.005	-7.979	-8.010	-8.090	-8.072	-8.152	-8.286	-8.214	-8.257	-8.307	-8.320	-8.462	-8.850	-8.989
255.0	-819.9	-692.2	-519.5	-229.4	-113.9	257.1	 1400	 5531	 4693	275.1	-133.9	-113.3	-96.64	-79.88	-64.29	-53.18	-45.18	-39.13	-34.37	-29.43	-27.49	-24.87	-23.09	-21.63	-19.90	-18.69	-18.28	-16.93	-16.79	-16.36	-15.75	-14.85	-13.93	-12.73	-12.23	-11.11	-10.91	-10.57	-10.33	-10.06	-9.724	-9.771	-9.456	-8.721	-8.877	-8.597	-7.383	-7.605	-6.911	-5.825	-5.805	-6.820	-6.574	-6.888	-6.017	-5.736	-4.058	1.669	9.314	8.001	-0.598	-7.190	-7.843	-7.802	-7.985	-8.010	-8.130	-8.058	-8.327	-8.203	-8.238	-8.214	-8.473	-8.076	-8.531	-8.796	-9.071
260.0	-877.1	-711.1	-533.9	-312.5	-85.59	-79.13	153.0	 2474	 7757	 1636	61.23	-112.8	-95.78	-78.65	-63.88	-53.73	-44.51	-39.10	-33.11	-30.09	-27.60	-24.90	-23.09	-21.46	-20.11	-18.39	-17.05	-16.93	-16.60	-16.50	-15.37	-14.53	-14.07	-12.60	-11.89	-10.95	-11.03	-10.75	-10.39	-10.10	-9.549	-9.550	-9.267	-8.875	-8.857	-8.765	-7.481	-7.725	-6.888	-5.995	-5.974	-6.787	-6.508	-7.254	-6.742	-7.025	-6.778	-5.339	-0.013	9.024	14.81	6.061	-3.541	-7.778	-7.895	-8.049	-8.087	-8.292	-8.179	-8.335	-8.114	-8.168	-8.268	-8.222	-8.577	-8.826	-8.929
265.0	-838.3	-746.2	-544.6	-372.4	-131.6	-40.62	-109.6	480.2	 4024	 8829	 1330	-61.55	-94.29	-79.60	-61.97	-53.73	-44.55	-39.01	-32.09	-30.40	-26.76	-24.55	-23.10	-21.44	-20.13	-18.39	-17.27	-16.89	-16.83	-16.48	-15.21	-14.28	-13.65	-13.26	-12.09	-10.96	-10.90	-10.77	-10.17	-10.20	-9.165	-9.665	-9.487	-9.198	-8.857	-8.807	-7.538	-7.861	-6.973	-5.915	-5.922	-7.054	-6.666	-6.907	-6.399	-7.251	-7.441	-7.237	-5.839	-2.699	5.941	16.47	16.20	2.043	-6.627	-8.008	-8.030	-8.068	-8.289	-7.863	-8.159	-8.160	-8.286	-7.958	-8.652	-8.725	-8.815
270.0	-785.0	-693.3	-528.7	-396.3	-271.0	-78.11	12.22	10.11	858.3	 4004	 8704	 5204	291.3	-75.18	-60.55	-51.06	-44.35	-38.18	-32.99	-29.82	-26.81	-24.66	-23.09	-20.78	-19.35	-18.53	-17.32	-16.69	-16.45	-16.22	-15.50	-14.68	-13.67	-12.90	-12.26	-11.14	-10.75	-10.83	-10.13	-9.970	-9.673	-9.914	-9.494	-9.160	-8.767	-8.636	-7.505	-7.669	-6.995	-6.003	-5.913	-7.060	-6.877	-7.176	-6.684	-6.895	-7.017	-7.313	-7.220	-6.623	-4.280	-0.382	5.458	11.96	15.27	11.58	-0.017	-6.889	-8.242	-8.059	-8.340	-8.182	-8.285	-8.247	-8.556	-8.749	-8.770
275.0	-790.0	-682.7	-485.1	-384.1	-303.5	-208.9	11.41	155.8	126.4	811.2	 2770	9999.9	 7681	365.1	-56.12	-50.40	-41.84	-37.45	-32.60	-29.04	-26.12	-23.90	-23.15	-20.88	-19.66	-18.36	-17.03	-17.16	-16.23	-16.02	-15.71	-14.51	-12.72	-12.87	-12.30	-11.03	-10.59	-10.82	-10.41	-9.917	-9.943	-9.836	-9.423	-9.092	-8.654	-8.325	-7.157	-7.447	-6.666	-5.829	-5.925	-7.239	-6.986	-7.007	-7.015	-7.234	-6.822	-6.241	-6.999	-7.401	-7.010	-6.197	-4.719	-3.061	0.835	14.13	31.14	21.96	1.260	-7.660	-8.396	-7.835	-8.252	-8.192	-8.256	-8.833	-8.861
280.0	-756.3	-594.8	-466.3	-381.7	-307.9	-249.2	-124.3	200.2	167.5	121.7	608.0	 3930	9999.9	 5791	164.8	-44.89	-40.85	-34.61	-32.37	-28.24	-26.53	-23.98	-21.75	-21.02	-20.08	-18.02	-17.10	-17.23	-16.66	-15.91	-15.43	-14.58	-12.79	-13.07	-11.96	-11.02	-10.55	-10.39	-10.50	-9.933	-9.996	-9.740	-9.484	-9.222	-8.693	-8.380	-7.068	-7.454	-6.615	-5.985	-5.882	-7.223	-6.984	-7.249	-7.084	-7.436	-7.583	-6.942	-6.284	-6.797	-7.051	-7.355	-6.912	-6.486	-5.853	-1.813	9.210	27.43	34.35	13.54	-4.630	-7.833	-8.103	-8.048	-8.326	-8.817	-8.759
285.0	-738.7	-579.1	-400.8	-362.4	-298.1	-255.5	-171.0	13.81	314.0	121.0	126.0	950.7	 5373	9999.9	 4068	29.20	-38.28	-33.82	-31.20	-28.10	-25.40	-24.15	-22.16	-20.97	-19.85	-17.64	-17.51	-17.42	-16.44	-15.94	-15.15	-14.24	-13.25	-12.57	-11.70	-10.51	-10.51	-10.44	-10.29	-9.747	-9.768	-9.668	-9.622	-9.321	-8.462	-8.303	-7.219	-7.154	-6.789	-5.953	-5.912	-7.013	-7.064	-7.163	-7.068	-7.151	-7.487	-7.220	-6.898	-6.778	-6.378	-7.285	-7.374	-7.445	-7.320	-6.409	-3.767	2.937	19.81	35.18	30.07	5.853	-7.065	-8.168	-8.643	-8.804	-8.481
290.0	-740.7	-531.4	-338.0	-279.0	-270.3	-217.8	-171.6	-80.14	145.9	380.7	259.2	325.9	 1374	 5009	9999.9	 6541	185.3	-30.08	-29.27	-26.39	-24.39	-23.12	-21.44	-20.29	-19.23	-17.74	-17.01	-16.82	-16.55	-15.92	-15.19	-14.42	-12.95	-12.55	-11.65	-10.71	-10.50	-10.54	-10.30	-9.734	-9.623	-9.505	-9.458	-9.140	-8.365	-8.334	-7.076	-7.190	-6.576	-5.468	-5.968	-7.075	-6.818	-7.041	-7.031	-7.257	-7.383	-7.499	-7.328	-7.133	-6.848	-6.729	-6.652	-7.098	-7.316	-7.229	-6.746	-5.348	-1.226	5.724	16.58	25.18	26.28	15.27	0.871	-7.387	-8.687
295.0	-660.5	-473.3	-252.6	-248.5	-240.1	-172.5	-135.9	-72.08	25.79	253.2	611.7	398.2	502.2	 1259	 3065	9999.9	 9527	255.3	-24.37	-24.80	-23.90	-22.27	-20.91	-19.10	-19.28	-16.97	-17.06	-16.66	-16.22	-15.47	-14.86	-13.84	-12.63	-12.44	-11.43	-10.95	-10.52	-10.56	-10.18	-9.890	-9.739	-9.535	-9.263	-9.134	-8.544	-8.393	-7.209	-7.029	-6.487	-5.454	-5.626	-6.924	-6.778	-7.155	-7.072	-7.202	-7.739	-7.225	-7.293	-7.309	-7.136	-7.160	-6.805	-6.345	-6.210	-6.874	-6.972	-6.924	-6.048	-4.328	-2.029	0.130	5.264	23.12	40.85	27.09	1.657
300.0	-639.9	-421.5	-227.5	-214.9	-191.0	-149.4	-128.7	-35.29	21.90	193.5	553.7	769.6	431.9	480.0	791.3	 3868	9999.9	 3346	158.8	-21.78	-21.12	-21.89	-20.56	-19.60	-18.46	-16.98	-16.38	-16.15	-15.59	-15.75	-14.94	-14.53	-13.25	-12.91	-11.75	-10.60	-10.73	-10.49	-9.919	-9.670	-9.464	-9.129	-9.523	-8.987	-8.398	-8.249	-7.172	-7.058	-6.321	-5.493	-5.505	-6.849	-6.734	-7.000	-7.047	-7.351	-7.491	-7.503	-7.389	-7.029	-7.161	-7.109	-7.004	-7.032	-6.067	-6.202	-6.438	-6.849	-7.085	-6.823	-6.528	-6.125	-4.662	1.073	15.77	40.04	44.20
305.0	-680.6	-396.2	-210.4	-163.5	-158.9	-115.6	-78.69	-3.761	67.27	177.5	402.7	843.0	699.5	359.8	327.1	955.7	 5168	9999.9	 2624	60.70	-19.23	-19.95	-20.47	-19.40	-18.14	-16.76	-16.64	-16.22	-15.58	-15.28	-14.95	-14.51	-13.54	-12.78	-12.06	-10.21	-10.48	-10.40	-9.685	-9.595	-9.716	-9.228	-9.512	-9.065	-8.374	-8.071	-6.982	-7.144	-6.311	-5.411	-5.525	-6.521	-6.813	-7.015	-7.001	-7.218	-7.224	-7.338	-7.461	-7.092	-7.053	-7.045	-6.978	-6.885	-6.466	-6.051	-5.753	-5.999	-7.066	-7.194	-7.003	-7.248	-6.871	-5.636	-2.448	7.482	29.16
310.0	-599.4	-363.8	-197.6	-129.2	-143.4	-98.16	-47.42	13.02	105.6	207.0	374.2	608.1	856.6	631.1	299.9	316.6	 1255	 4880	9999.9	 6235	132.1	-15.51	-17.87	-18.52	-17.40	-16.50	-16.06	-15.49	-15.65	-15.53	-14.82	-13.91	-13.25	-12.21	-11.70	-10.47	-10.46	-9.969	-10.01	-9.647	-9.540	-9.366	-9.594	-8.992	-8.420	-8.280	-7.105	-7.242	-6.358	-5.569	-5.477	-6.680	-6.737	-6.987	-6.715	-7.112	-7.175	-7.133	-7.017	-7.139	-7.082	-7.094	-6.985	-6.918	-6.701	-6.479	-6.441	-6.193	-5.910	-6.580	-6.699	-7.528	-7.355	-7.277	-6.813	-4.886	0.483
315.0	-627.6	-389.5	-147.9	-83.48	-106.8	-69.75	-11.86	56.95	166.9	258.2	391.3	529.1	674.3	818.1	556.0	236.3	356.2	 1133	 2989	9999.9	 8648	193.0	-13.90	-17.10	-16.87	-16.18	-15.81	-15.11	-15.29	-15.42	-14.29	-13.90	-13.21	-12.14	-11.77	-10.73	-10.34	-10.25	-9.935	-9.884	-9.467	-9.175	-9.447	-9.059	-8.488	-8.426	-7.142	-6.828	-6.471	-5.588	-5.425	-6.475	-6.497	-7.027	-6.607	-7.119	-7.010	-7.104	-7.051	-6.933	-7.150	-6.796	-6.636	-7.067	-6.756	-6.274	-6.517	-6.540	-6.124	-6.015	-5.959	-6.718	-7.405	-7.714	-7.601	-7.557	-6.637
320.0	-594.8	-299.0	-87.00	-34.54	-66.62	-48.99	20.84	82.69	186.3	274.3	465.5	531.9	624.7	679.1	777.0	350.2	191.5	311.0	701.1	 3908	9999.9	 6345	121.2	-12.80	-15.17	-14.69	-15.32	-15.07	-15.13	-15.65	-14.82	-13.68	-12.91	-11.31	-11.22	-10.56	-10.00	-10.62	-9.689	-9.696	-9.571	-9.300	-9.564	-8.666	-8.629	-7.880	-6.951	-6.924	-6.299	-5.419	-5.583	-6.911	-6.450	-6.888	-6.613	-7.034	-7.164	-7.264	-6.812	-7.032	-6.931	-6.942	-6.445	-6.808	-6.678	-6.260	-6.632	-6.615	-6.552	-6.539	-6.273	-6.133	-6.670	-7.395	-7.707	-8.088	-7.941
325.0	-616.9	-186.3	73.63	36.19	-27.97	-18.61	32.60	122.8	217.0	334.4	480.8	588.4	662.9	622.5	735.1	577.2	225.0	158.3	203.7	934.1	 5143	9999.9	 1912	58.60	-12.66	-12.86	-15.60	-14.27	-15.06	-15.05	-14.97	-13.57	-12.91	-11.72	-11.39	-10.74	-10.05	-10.31	-9.939	-9.600	-9.507	-9.434	-9.269	-8.705	-8.643	-7.513	-6.433	-7.042	-6.153	-5.512	-5.519	-6.508	-6.202	-6.811	-6.812	-7.083	-7.086	-7.002	-6.518	-7.159	-6.667	-6.851	-6.687	-6.975	-6.647	-6.640	-6.454	-6.338	-6.583	-6.420	-6.516	-6.196	-6.029	-6.313	-7.530	-8.324	-8.046
330.0	-538.0	-151.7	141.2	104.3	23.51	22.52	74.27	143.4	236.9	357.1	505.3	613.8	687.0	636.7	616.3	586.6	452.9	204.3	128.5	256.8	 1237	 4737	 9425	 5610	104.0	-8.771	-13.33	-13.89	-14.28	-14.01	-13.80	-13.73	-12.60	-11.94	-11.01	-10.41	-9.912	-10.10	-9.763	-9.578	-9.167	-9.423	-9.463	-8.847	-8.483	-7.643	-6.746	-6.779	-6.119	-5.168	-5.242	-6.568	-6.283	-6.640	-6.378	-6.851	-7.064	-7.070	-6.864	-7.025	-6.847	-6.807	-6.585	-6.573	-6.626	-6.460	-6.345	-6.433	-6.574	-6.292	-6.626	-6.392	-6.386	-6.376	-6.500	-7.025	-7.769
335.0	-492.0	-108.3	213.1	178.4	104.6	94.73	124.6	213.6	283.4	400.0	554.3	616.1	718.2	665.0	600.7	494.8	512.4	407.2	164.5	136.9	329.9	 1091	 2961	9999.9	 8151	154.4	-9.261	-11.61	-12.45	-13.83	-13.38	-12.99	-12.44	-11.63	-11.30	-9.987	-10.26	-10.31	-9.697	-9.567	-9.322	-9.225	-9.101	-8.659	-8.424	-7.513	-6.649	-6.317	-5.708	-4.852	-5.269	-6.450	-6.104	-6.569	-6.391	-6.906	-6.982	-6.868	-6.789	-6.420	-6.565	-6.406	-6.542	-6.348	-6.523	-6.284	-6.321	-6.427	-6.568	-6.567	-6.398	-6.582	-6.631	-6.508	-6.742	-7.175	-6.597
340.0	-483.9	-93.52	193.3	236.9	142.1	153.2	160.4	225.6	323.9	442.9	555.2	629.5	717.1	679.2	625.0	485.6	436.1	504.0	301.3	140.4	151.6	298.2	699.7	 3966	9999.9	 6172	109.3	-9.474	-11.60	-11.98	-13.22	-12.51	-11.97	-11.71	-10.91	-9.712	-10.08	-10.08	-9.446	-9.772	-9.109	-9.268	-9.084	-8.594	-8.158	-7.626	-6.673	-6.379	-5.645	-4.780	-5.017	-5.584	-6.020	-6.635	-6.306	-6.678	-6.726	-6.496	-6.523	-6.493	-6.261	-6.307	-6.280	-6.696	-6.362	-6.406	-6.534	-6.207	-6.388	-6.383	-6.375	-6.566	-6.836	-6.650	-6.912	-7.280	-7.214
345.0	-517.2	-131.5	218.2	245.7	166.0	202.1	188.0	233.4	326.7	425.6	567.4	634.3	715.6	682.4	624.5	509.7	406.5	429.7	449.7	220.1	133.3	138.5	208.8	953.7	 5354	9999.9	 1532	55.26	-9.337	-10.64	-12.14	-12.66	-12.05	-11.78	-10.91	-9.834	-9.819	-9.750	-9.523	-9.357	-8.965	-8.982	-9.072	-8.413	-8.123	-8.033	-6.536	-6.298	-5.860	-4.697	-5.036	-5.602	-5.779	-6.457	-6.084	-6.785	-6.737	-6.575	-6.517	-6.688	-6.169	-6.313	-6.347	-6.683	-6.405	-6.462	-6.632	-6.299	-6.553	-6.016	-6.261	-6.230	-6.670	-6.993	-7.174	-7.166	-7.545
350.0	-514.4	-163.1	185.6	283.2	264.8	243.3	221.9	284.8	335.3	418.0	544.5	618.9	705.5	669.7	647.5	522.6	416.6	374.5	417.4	380.6	223.7	145.9	132.4	271.2	 1306	 5058	 9746	 5499	88.48	-6.863	-10.45	-11.61	-10.97	-10.78	-10.64	-9.796	-9.772	-9.909	-9.235	-9.415	-8.832	-8.975	-9.136	-8.295	-8.055	-7.974	-6.534	-6.205	-5.706	-4.790	-4.898	-5.943	-5.932	-6.426	-6.163	-6.636	-6.624	-6.580	-6.542	-6.517	-6.420	-6.470	-6.341	-6.412	-6.408	-6.374	-6.235	-6.147	-6.362	-6.288	-6.366	-6.278	-6.192	-6.874	-7.063	-7.106	-7.524
355.0	-517.0	-153.4	253.2	290.5	273.7	282.0	298.7	310.9	355.9	447.2	513.8	603.3	676.0	660.2	654.1	537.6	473.8	399.8	372.2	400.7	395.7	228.6	156.0	152.9	353.5	 1173	 3289	9999.9	 7379	127.4	-7.582	-9.490	-10.71	-10.35	-10.71	-9.937	-9.464	-9.796	-9.311	-9.090	-9.118	-8.631	-9.174	-8.424	-8.057	-7.786	-6.599	-6.435	-5.961	-5.030	-5.187	-6.394	-5.620	-6.513	-6.103	-6.277	-6.421	-6.679	-6.525	-6.054	-6.199	-6.602	-6.441	-6.438	-6.456	-6.403	-6.326	-6.317	-6.139	-6.096	-6.353	-6.274	-6.512	-6.711	-6.651	-7.367	-7.346
360.0	-543.5	-175.7	254.4	324.9	325.5	311.5	362.4	340.5	377.6	464.2	514.7	582.4	656.1	627.9	647.9	567.1	481.1	440.1	397.7	376.8	448.2	355.4	201.0	157.7	166.2	318.9	783.4	 4337	9999.9	 5368	82.76	-7.610	-8.939	-9.623	-10.01	-9.724	-9.615	-10.17	-9.687	-8.889	-8.939	-8.839	-8.961	-8.561	-8.016	-7.783	-6.798	-6.251	-5.710	-4.883	-4.992	-6.125	-5.951	-6.193	-5.957	-6.105	-6.547	-6.588	-6.504	-5.845	-6.108	-6.475	-6.302	-6.569	-6.459	-6.611	-6.440	-6.354	-6.333	-6.332	-6.321	-6.159	-6.816	-6.205	-6.849	-7.156	-7.090
365.0	-597.3	-195.1	163.6	328.5	343.1	341.8	393.8	372.3	402.7	444.1	491.8	546.9	643.9	644.0	650.4	567.4	502.9	462.4	432.7	391.4	408.7	444.1	270.6	187.4	147.3	148.2	228.2	 1059	 5663	9999.9	 1319	39.84	-7.384	-9.163	-9.454	-9.393	-9.967	-9.949	-9.207	-9.251	-8.999	-9.163	-8.780	-8.841	-8.227	-7.921	-6.827	-6.506	-5.549	-4.913	-4.832	-6.147	-5.803	-6.033	-5.827	-6.387	-5.988	-6.373	-6.235	-6.286	-6.202	-6.272	-6.351	-6.402	-6.398	-6.449	-6.402	-6.495	-6.008	-6.365	-6.200	-5.976	-6.338	-6.657	-6.817	-7.003	-7.206
370.0	-564.7	-221.5	117.8	330.3	391.2	374.7	425.8	413.1	412.9	447.7	497.0	545.5	624.2	621.1	644.5	586.9	535.0	503.6	485.0	437.5	413.3	437.7	422.0	290.0	188.0	149.5	135.4	288.2	 1390	 5302	 9148	 4763	67.88	-6.581	-7.851	-8.547	-8.933	-9.337	-9.040	-8.987	-9.041	-8.933	-8.657	-8.652	-7.924	-7.726	-6.605	-6.528	-5.642	-5.079	-4.838	-5.726	-5.689	-5.450	-5.904	-6.229	-6.181	-6.282	-6.603	-6.334	-6.531	-6.198	-6.480	-6.571	-6.329	-6.502	-6.344	-6.575	-6.132	-6.506	-6.254	-6.630	-6.379	-6.689	-6.586	-6.993	-7.211
375.0	-562.0	-228.9	124.8	306.3	384.2	415.8	451.9	460.6	422.0	436.1	497.0	552.8	603.5	608.8	635.0	582.8	559.0	547.4	525.5	481.8	456.9	423.9	434.2	426.0	280.0	189.8	147.8	144.9	361.6	 1217	 3329	9999.9	 6446	94.39	-5.675	-6.871	-7.591	-8.989	-8.557	-8.790	-8.706	-9.190	-8.385	-8.190	-8.162	-7.572	-6.482	-6.638	-5.634	-4.791	-4.934	-5.886	-5.386	-5.901	-5.431	-6.040	-6.212	-6.282	-6.691	-6.258	-6.257	-6.190	-6.663	-6.245	-6.688	-6.424	-6.504	-6.483	-6.578	-5.915	-6.190	-6.709	-6.285	-6.891	-6.823	-6.847	-6.586
380.0	-610.8	-255.7	125.0	296.7	414.0	477.4	469.6	445.7	428.5	441.9	482.0	533.7	596.9	591.9	614.0	600.1	572.3	561.2	545.6	523.9	478.3	442.6	423.0	452.4	382.7	229.4	174.6	134.4	150.1	314.2	789.9	 4691	9999.9	 4327	55.37	-5.081	-7.149	-8.340	-8.265	-8.630	-8.544	-8.769	-8.874	-8.245	-8.156	-7.901	-6.614	-6.219	-5.645	-4.989	-4.717	-5.786	-5.550	-5.760	-5.587	-5.744	-6.206	-6.101	-6.384	-6.452	-6.394	-6.209	-6.374	-6.330	-6.245	-6.318	-6.870	-6.149	-6.817	-6.330	-6.316	-6.565	-6.270	-6.354	-6.479	-6.719	-6.916
385.0	-579.5	-250.7	117.0	309.2	409.3	489.9	482.0	447.9	455.6	471.6	489.6	512.5	588.1	582.9	629.1	594.8	583.3	572.9	560.5	533.0	499.2	475.2	432.4	426.8	442.5	312.8	210.5	156.1	124.6	131.0	214.1	 1156	 6271	 9893	990.5	15.81	-6.199	-7.945	-8.089	-8.496	-8.188	-8.897	-8.532	-8.230	-7.800	-7.676	-6.549	-6.268	-5.673	-5.058	-4.629	-5.849	-5.443	-5.677	-5.729	-5.675	-6.351	-6.583	-6.178	-6.324	-6.483	-6.248	-6.536	-6.403	-6.337	-6.201	-6.551	-6.337	-6.525	-6.744	-6.522	-6.591	-6.500	-6.459	-6.400	-6.645	-6.981
390.0	-566.0	-270.3	79.21	312.9	404.3	466.5	479.9	464.7	444.9	439.0	496.9	514.6	559.9	587.8	632.8	593.9	580.9	575.1	576.7	561.6	540.2	508.3	460.8	428.4	420.5	405.3	307.5	204.4	156.3	122.1	108.7	297.1	 1566	 5452	 7518	 3380	48.61	-5.496	-6.728	-7.513	-7.985	-8.364	-8.378	-7.931	-7.748	-7.519	-6.813	-6.248	-5.733	-4.999	-4.764	-5.609	-5.589	-6.060	-5.740	-5.920	-6.110	-6.110	-6.193	-6.360	-6.630	-6.420	-6.441	-6.574	-6.659	-6.433	-6.538	-6.380	-6.695	-6.442	-6.485	-6.414	-6.432	-6.234	-6.407	-6.665	-6.982
395.0	-568.1	-274.5	43.18	324.0	418.7	439.1	486.4	454.6	453.2	465.5	465.1	507.8	556.5	561.0	616.8	596.7	577.2	596.9	580.4	573.4	538.0	528.2	490.9	448.0	412.7	413.2	410.3	286.3	203.1	149.9	116.6	124.9	385.0	 1243	 3121	 8717	 4448	65.40	-5.113	-6.473	-6.884	-8.006	-8.062	-7.993	-7.747	-7.516	-6.402	-6.467	-5.869	-4.815	-4.742	-5.598	-5.616	-5.914	-5.653	-5.926	-6.358	-6.134	-6.242	-6.402	-6.498	-6.397	-6.802	-6.581	-6.902	-6.725	-6.587	-6.339	-6.636	-6.307	-6.731	-6.261	-6.185	-6.183	-6.014	-6.907	-7.068
400.0	-578.4	-295.5	35.12	303.0	403.9	423.3	456.5	484.1	449.5	438.5	469.0	491.9	555.7	561.7	610.5	581.5	562.9	586.9	586.6	574.0	554.0	525.1	504.1	463.6	424.2	396.4	420.1	371.9	241.9	182.5	136.0	103.7	133.2	306.3	744.8	 4440	 8932	934.6	36.94	-5.314	-7.087	-7.869	-7.980	-7.665	-7.608	-7.180	-5.997	-6.440	-5.674	-4.921	-4.883	-5.916	-5.476	-5.969	-5.861	-5.999	-6.166	-6.135	-6.414	-6.272	-6.378	-6.334	-6.574	-6.251	-6.753	-6.777	-6.733	-6.718	-6.314	-6.270	-6.809	-6.248	-6.298	-6.527	-6.552	-6.987	-6.790
405.0	-562.9	-306.3	18.43	293.8	391.4	453.3	484.8	466.0	457.2	433.5	479.7	492.1	545.1	536.6	585.3	577.4	562.6	574.3	578.8	577.8	556.2	523.2	501.7	477.2	435.2	405.9	401.9	412.6	308.6	221.1	159.2	111.7	89.91	105.3	187.7	 1121	 5488	 7295	791.2	13.68	-6.540	-7.416	-7.813	-7.522	-7.706	-7.457	-6.188	-6.543	-5.547	-4.861	-4.651	-5.890	-5.743	-5.997	-5.712	-5.786	-5.790	-6.064	-6.309	-6.253	-6.232	-6.404	-6.688	-6.343	-6.751	-6.618	-6.591	-6.685	-6.782	-6.605	-6.712	-6.619	-6.290	-6.457	-6.382	-6.571	-6.570
410.0	-609.1	-280.8	36.70	294.2	382.7	435.4	449.2	449.5	435.2	424.1	478.4	484.0	527.8	523.9	574.9	549.0	538.6	555.0	561.9	555.1	529.7	516.9	501.1	487.2	449.2	419.8	404.6	389.2	374.7	284.3	191.0	138.4	98.91	73.47	74.04	270.0	 1388	 4402	 6078	 2833	40.12	-5.931	-6.749	-7.090	-7.162	-7.392	-6.302	-6.288	-5.796	-4.871	-4.827	-5.757	-5.861	-5.909	-5.825	-5.799	-6.350	-6.408	-6.155	-6.125	-6.447	-6.392	-6.447	-6.363	-6.605	-6.478	-6.617	-6.446	-6.711	-6.454	-6.537	-6.578	-6.458	-6.273	-6.508	-6.939	-7.015
415.0	-563.5	-287.3	23.61	228.9	335.3	412.8	454.5	466.8	401.6	411.8	438.3	458.2	509.1	504.0	559.7	524.7	521.1	528.6	537.7	526.0	511.4	508.7	500.4	479.4	462.0	428.0	416.0	378.7	362.0	350.8	252.0	162.4	121.9	82.04	61.04	87.36	325.9	997.9	 2627	 6827	 3526	59.78	-5.284	-6.617	-7.307	-7.166	-6.210	-6.278	-5.997	-4.685	-4.825	-5.887	-5.708	-5.751	-5.826	-6.149	-6.463	-6.272	-5.769	-6.079	-6.282	-6.492	-6.465	-6.667	-6.630	-6.560	-6.706	-6.506	-6.561	-6.743	-6.463	-6.688	-6.770	-6.654	-6.812	-7.093	-7.010
420.0	-598.1	-327.8	6.153	232.3	351.6	412.4	461.8	425.2	437.8	417.5	440.7	463.1	488.6	478.2	528.0	500.8	488.3	491.1	509.0	510.0	485.1	491.9	476.8	469.9	447.3	437.5	409.8	383.8	349.4	345.4	295.6	186.8	133.7	91.54	63.86	52.53	93.06	234.4	628.7	 3505	 7057	837.2	26.70	-6.052	-6.553	-6.877	-5.682	-6.075	-5.629	-4.673	-4.922	-5.600	-5.542	-5.982	-5.736	-5.914	-6.361	-6.220	-6.311	-6.336	-6.361	-6.506	-6.725	-6.731	-6.576	-6.725	-6.850	-6.789	-6.814	-6.631	-6.710	-6.606	-6.455	-6.707	-6.878	-7.001	-6.649
425.0	-590.1	-334.6	-21.38	233.9	370.5	405.8	390.8	447.9	422.1	421.5	471.0	442.1	479.1	482.9	507.9	493.8	480.0	472.4	480.2	481.7	472.7	469.5	462.7	463.5	442.5	436.0	412.3	383.0	338.2	319.2	313.0	229.1	144.5	102.9	72.82	52.21	46.31	68.32	150.0	881.8	 4353	 5904	684.4	1.658	-5.868	-6.176	-5.508	-6.053	-5.447	-4.967	-4.864	-5.786	-5.416	-5.973	-5.887	-5.806	-6.113	-6.175	-6.325	-6.425	-6.313	-6.392	-6.439	-6.449	-6.391	-6.871	-6.807	-6.423	-6.819	-6.995	-6.834	-6.339	-6.524	-6.504	-6.728	-7.168	-7.006
430.0	-536.3	-330.2	-45.87	200.4	344.6	358.5	361.8	408.6	391.2	403.3	433.5	433.7	445.3	460.7	476.6	457.7	447.7	450.0	455.3	447.7	445.2	444.8	443.9	437.1	430.4	415.0	415.9	378.8	341.5	309.6	292.8	264.1	183.9	120.3	87.16	59.79	45.34	36.79	47.19	205.2	 1096	 3391	 4804	 1847	33.06	-5.431	-5.013	-5.619	-5.219	-4.591	-4.916	-5.708	-5.629	-6.070	-6.016	-5.981	-6.215	-6.160	-6.318	-6.230	-6.586	-6.619	-6.499	-6.740	-6.371	-6.714	-6.668	-6.714	-6.798	-6.708	-6.659	-6.792	-6.603	-6.442	-6.638	-7.150	-7.385
435.0	-366.5	-333.7	-47.26	156.8	313.2	352.5	353.5	379.9	398.3	412.5	415.2	407.5	446.5	424.4	461.0	421.2	414.7	415.3	418.1	412.7	410.1	412.9	414.1	418.1	407.8	398.3	402.3	372.3	339.4	316.7	275.4	246.1	226.2	149.1	95.73	72.79	51.17	37.18	29.95	57.83	251.2	765.3	 2138	 5633	 2800	44.34	-4.485	-5.327	-5.083	-4.296	-4.745	-5.872	-5.620	-6.165	-5.688	-6.349	-6.293	-6.314	-6.416	-6.575	-6.527	-6.429	-6.583	-6.571	-6.523	-6.694	-6.518	-6.852	-7.029	-6.981	-6.627	-6.791	-6.793	-6.748	-7.121	-7.396	-7.260
440.0	-189.7	-252.2	-89.17	110.1	287.4	302.3	330.7	376.0	390.7	400.9	410.7	410.6	430.6	412.0	436.0	400.4	395.8	395.7	394.4	396.6	392.7	398.3	397.5	393.4	393.7	381.3	386.4	367.9	336.3	315.5	272.6	231.3	218.0	180.9	110.6	78.87	56.78	41.92	30.51	28.91	64.74	175.2	509.3	 3185	 6049	725.1	19.06	-4.273	-4.711	-4.193	-4.464	-5.725	-5.737	-5.938	-5.790	-6.122	-6.169	-6.260	-6.313	-6.527	-6.124	-6.464	-6.821	-6.403	-6.745	-6.682	-6.707	-6.929	-6.796	-6.867	-6.494	-7.239	-6.805	-7.034	-7.030	-7.157	-7.211
445.0	-197.0	-25.48	-113.7	84.92	249.0	272.2	325.3	365.9	362.1	365.9	412.0	390.0	408.8	399.4	398.8	371.7	361.9	373.2	375.4	369.9	366.5	373.0	379.2	377.3	373.7	365.6	371.8	354.5	330.6	306.8	269.0	226.9	201.7	188.5	137.2	88.06	63.96	46.43	33.81	24.07	25.77	45.91	117.6	826.2	 3997	 5320	535.2	2.120	-4.008	-3.781	-3.878	-5.644	-5.483	-6.202	-5.587	-6.196	-5.994	-6.542	-6.403	-6.611	-6.293	-6.627	-6.361	-6.674	-6.667	-6.721	-6.824	-6.991	-6.932	-6.683	-6.934	-6.882	-6.889	-6.888	-7.034	-7.296	-7.087
450.0	-457.5	371.6	148.6	75.05	222.4	276.1	313.2	330.9	345.0	339.4	381.8	368.6	375.1	358.3	378.0	346.0	338.1	331.8	343.4	338.3	338.1	342.3	343.7	345.9	345.2	340.9	344.2	332.3	312.8	292.3	259.1	222.5	191.0	168.2	152.4	106.6	71.35	52.42	38.14	27.93	20.54	19.11	32.11	187.7	 1024	 3392	 4611	 1678	25.69	-3.323	-3.701	-5.404	-5.108	-5.956	-5.934	-6.163	-6.100	-6.199	-6.414	-6.466	-6.359	-6.561	-6.779	-6.792	-6.684	-6.655	-6.696	-7.075	-6.796	-6.934	-7.013	-6.999	-6.858	-7.125	-7.327	-7.382	-7.450
455.0	-626.0	208.4	911.8	99.87	151.3	221.8	276.0	273.0	314.7	321.3	345.7	337.6	345.8	324.2	345.7	313.8	291.3	296.6	302.0	306.9	303.2	310.9	312.0	312.6	311.1	313.3	318.2	309.6	288.3	274.4	241.4	211.8	178.7	150.9	141.1	126.0	88.76	57.82	43.25	31.85	22.78	16.86	15.04	46.87	231.0	767.8	 2166	 5260	 2204	30.79	-3.176	-4.748	-4.962	-5.797	-5.664	-5.973	-6.094	-6.492	-6.522	-6.415	-6.456	-6.764	-6.880	-6.656	-6.838	-6.874	-6.801	-7.037	-7.112	-6.742	-7.008	-7.192	-7.102	-7.144	-7.193	-7.308	-7.781
460.0	-661.5	-214.8	 1281	388.8	108.2	202.8	255.4	249.7	282.7	284.4	311.0	308.5	330.2	318.2	314.2	286.5	270.0	270.2	280.2	271.8	273.4	280.5	286.7	282.4	288.0	290.7	292.8	284.6	265.6	255.6	229.0	201.1	171.5	141.2	126.4	122.3	101.8	64.64	44.76	33.28	24.27	17.42	11.32	17.62	55.30	173.6	521.9	 3043	 5137	510.5	15.04	-4.309	-4.803	-5.238	-5.698	-6.227	-6.215	-6.422	-6.599	-6.637	-6.452	-6.954	-6.714	-6.976	-7.013	-6.846	-6.947	-7.212	-6.771	-7.153	-7.131	-7.057	-7.003	-7.007	-7.172	-7.337	-7.818
465.0	-721.2	-437.8	953.2	 1016	118.6	184.4	202.7	226.5	274.4	273.3	281.9	297.5	293.5	284.6	272.9	264.7	255.2	250.9	253.4	246.6	248.5	254.1	255.7	256.4	266.9	265.0	268.9	263.5	251.1	238.5	216.2	195.0	161.2	137.6	113.3	108.1	106.5	74.29	48.41	36.96	27.12	18.92	12.12	10.42	16.60	42.36	119.1	794.0	 3658	 3991	433.6	-0.425	-4.360	-4.879	-5.305	-6.174	-6.309	-6.406	-6.247	-6.676	-6.460	-6.878	-6.834	-6.972	-6.478	-7.297	-6.953	-6.854	-7.126	-7.328	-7.083	-7.238	-7.224	-7.314	-7.353	-7.306	-7.846
470.0	-737.7	-458.8	222.8	 1570	575.7	103.1	145.6	187.6	228.4	238.4	257.4	255.2	257.9	246.8	242.8	235.2	217.6	216.6	214.9	217.6	221.9	219.4	223.4	223.7	230.1	233.5	238.2	233.8	224.4	215.4	199.8	177.1	153.1	127.8	105.6	93.63	88.29	81.82	59.16	38.00	28.04	20.41	13.63	9.697	9.797	12.56	29.08	178.6	942.5	 2700	 3344	 1217	22.29	-4.939	-5.138	-5.947	-6.035	-6.255	-6.373	-6.597	-6.693	-6.677	-6.910	-6.892	-6.825	-7.168	-7.186	-6.948	-7.248	-7.330	-7.206	-7.300	-7.321	-7.464	-7.211	-7.779	-7.677
475.0	-692.8	-483.9	-178.3	865.1	 1592	177.3	116.1	133.2	173.7	198.1	213.5	227.2	226.1	204.9	206.3	195.2	183.9	186.8	184.7	188.9	185.1	192.2	189.8	195.7	198.4	200.8	207.3	202.3	197.7	186.5	178.0	159.8	141.1	121.0	97.56	83.29	72.98	71.05	66.26	47.07	29.82	20.07	15.33	10.40	9.431	7.394	9.949	41.61	210.4	609.7	 1536	 3583	595.4	29.97	-4.940	-5.684	-6.030	-6.523	-6.759	-6.678	-6.830	-6.815	-7.024	-7.048	-6.990	-7.188	-6.974	-7.254	-7.321	-7.469	-7.321	-7.394	-7.471	-7.183	-7.389	-8.048	-7.985
480.0	-730.0	-515.9	-267.2	192.9	 1870	600.3	89.86	118.6	148.3	168.3	190.9	197.7	198.1	186.1	180.9	177.9	165.0	170.5	168.8	167.1	161.4	176.1	166.8	175.0	177.1	184.5	191.5	187.2	181.3	175.4	166.2	147.4	132.1	109.1	93.72	79.20	68.36	61.17	62.52	55.42	33.88	20.30	16.81	11.25	9.021	6.903	5.407	11.10	48.65	136.6	366.0	 2044	 3432	550.7	7.942	-5.164	-5.985	-6.065	-6.537	-6.366	-6.820	-7.234	-6.949	-6.940	-6.822	-6.909	-7.021	-7.190	-7.158	-7.585	-7.405	-7.590	-7.433	-7.223	-7.513	-7.874	-8.032
485.0	-751.6	-520.2	-300.9	-56.14	 1338	 1455	85.53	103.1	145.5	141.9	161.8	174.9	190.3	161.6	174.0	159.1	148.2	145.4	151.4	142.0	147.5	150.1	154.6	159.5	164.3	168.2	171.7	170.4	166.9	160.0	154.9	138.8	121.0	104.4	88.65	77.88	65.27	54.49	53.54	57.06	39.77	22.76	17.52	12.26	9.217	8.205	5.506	5.072	12.44	31.60	82.50	533.8	 2552	 3149	391.9	-1.666	-5.271	-5.803	-6.465	-6.330	-6.717	-6.688	-6.943	-6.902	-7.392	-7.198	-6.991	-7.262	-7.070	-7.403	-7.427	-7.509	-7.310	-7.630	-7.988	-7.854	-8.018
490.0	-768.3	-539.0	-300.9	-136.3	401.8	 1968	730.3	92.24	103.4	133.7	143.9	146.2	153.7	139.5	147.0	138.5	132.0	129.3	133.8	127.1	130.3	130.6	137.1	140.1	143.6	146.5	152.9	150.7	151.4	144.7	139.4	128.3	110.7	97.74	81.48	74.53	62.72	52.21	46.22	47.31	43.85	30.76	19.00	13.26	9.977	7.887	6.590	3.832	4.669	8.172	18.59	117.8	656.2	 1999	 2808	 1084	22.69	-5.573	-6.204	-6.343	-6.591	-6.697	-6.902	-7.110	-7.004	-7.117	-7.438	-7.493	-7.420	-7.202	-7.531	-7.464	-7.414	-7.535	-7.984	-8.118	-8.162
495.0	-802.7	-557.3	-297.1	-194.4	39.24	 1034	 2040	170.1	77.84	110.2	119.1	116.4	122.0	126.6	129.2	118.0	107.0	109.4	110.3	110.8	114.9	112.7	119.4	123.0	124.3	125.9	129.9	131.4	132.1	127.9	125.4	114.2	99.39	87.47	75.36	67.92	56.82	48.83	40.97	38.19	37.27	36.44	24.48	14.12	11.03	9.002	7.958	4.615	3.969	2.963	4.766	25.38	143.9	448.7	 1336	 3302	649.3	28.69	-5.598	-6.255	-6.500	-6.656	-6.961	-6.831	-7.178	-7.010	-7.609	-7.484	-7.349	-7.357	-7.463	-7.744	-7.691	-7.591	-8.037	-8.098	-8.093
500.0	-771.9	-585.3	-307.1	-193.8	-106.4	280.3	 2263	720.4	74.79	99.28	83.13	101.1	107.2	99.90	111.3	113.0	96.64	95.03	100.5	97.15	98.43	98.87	102.5	108.1	108.7	114.0	118.6	116.5	114.8	117.0	111.9	103.5	91.77	81.08	70.39	62.22	53.16	46.58	40.34	33.21	30.96	33.38	29.10	16.29	11.37	8.007	7.569	4.366	2.995	2.767	2.208	4.999	29.92	98.19	316.6	 1841	 3312	556.8	8.272	-5.540	-6.381	-6.711	-6.955	-7.060	-7.280	-7.475	-7.263	-7.346	-7.662	-7.467	-7.689	-7.604	-7.672	-7.814	-7.875	-8.329	-8.225
505.0	-785.6	-573.2	-331.2	-175.8	-145.7	7.408	 1504	 1764	69.66	57.32	81.40	76.08	96.72	90.64	98.16	88.11	80.69	82.10	85.67	89.89	79.79	88.33	92.13	95.68	94.05	100.9	102.6	104.1	103.8	104.7	100.6	90.28	82.50	74.09	63.24	57.07	47.65	41.10	37.89	32.03	26.23	26.72	29.59	19.58	11.86	8.112	7.433	4.264	3.007	2.967	2.106	0.426	5.239	20.17	68.62	470.4	 2362	 2919	79.52	-3.221	-6.287	-6.617	-6.843	-7.132	-7.312	-7.273	-7.375	-7.375	-7.503	-7.745	-7.609	-7.607	-7.634	-7.784	-7.959	-8.265	-8.374
510.0	-802.5	-620.6	-396.5	-212.4	-151.8	-76.00	415.4	 2205	922.2	46.57	62.60	59.10	72.25	71.52	82.56	70.03	65.53	69.88	71.19	72.43	71.79	73.52	77.66	76.46	81.98	84.20	89.60	89.20	88.96	88.12	84.61	79.54	71.88	63.03	55.47	50.22	43.40	36.70	33.32	27.62	24.20	20.60	22.84	22.13	15.05	8.636	7.043	5.088	3.323	2.314	1.621	-0.424	-0.034	2.136	12.63	102.5	600.9	 1790	 2241	834.7	19.58	-6.296	-6.736	-7.118	-7.233	-7.153	-7.471	-7.414	-7.521	-7.561	-7.562	-7.791	-7.634	-7.714	-8.011	-8.452	-8.426
515.0	-816.8	-648.3	-422.6	-234.4	-154.3	-121.5	32.64	998.7	 2450	213.8	30.91	38.39	49.75	50.81	61.78	55.92	55.12	55.65	58.55	56.93	58.16	59.60	60.66	62.12	69.98	67.82	74.22	73.87	74.68	72.68	71.01	66.77	62.04	53.98	46.81	42.02	37.08	33.00	28.43	24.38	19.72	16.92	15.19	17.14	18.33	11.34	6.976	5.119	3.142	2.541	0.609	-1.016	-1.753	-1.725	-0.088	19.79	130.3	398.9	 1017	 2498	615.7	22.15	-6.141	-6.650	-7.248	-7.209	-7.380	-7.303	-7.748	-7.819	-7.627	-7.842	-7.682	-7.690	-7.970	-8.270	-8.237
520.0	-775.6	-662.5	-454.1	-273.2	-148.0	-130.5	-74.29	257.5	 2479	 1078	13.43	12.18	28.61	41.58	45.84	45.92	45.20	48.54	48.90	44.77	46.58	51.23	53.33	52.62	57.97	56.60	65.13	63.84	63.05	63.06	65.79	59.14	52.90	48.43	40.09	38.55	32.01	26.96	24.40	21.36	17.97	13.65	12.18	11.79	15.76	13.75	7.099	4.162	2.748	2.665	1.325	-1.008	-1.961	-2.677	-2.318	0.802	25.60	85.45	239.0	 1365	 2300	488.8	2.230	-6.462	-6.813	-7.373	-7.362	-7.442	-7.829	-7.626	-8.124	-7.980	-7.779	-7.368	-8.123	-8.211	-8.658
525.0	-819.8	-651.6	-453.2	-299.9	-157.5	-118.8	-110.2	-0.693	 1470	 2377	67.38	7.875	18.80	32.99	32.35	34.76	39.83	36.97	37.26	36.19	40.49	41.33	46.26	45.04	48.13	49.07	55.45	55.57	56.08	57.53	53.99	50.30	44.79	41.32	36.57	35.05	28.74	25.42	21.87	18.33	16.78	13.93	10.39	9.587	11.19	14.27	9.895	3.910	3.167	2.523	0.661	-1.386	-2.322	-2.974	-3.326	-2.821	2.214	15.25	49.65	341.7	 1559	 2002	75.88	-4.948	-6.682	-7.307	-7.379	-7.599	-7.730	-7.748	-8.006	-7.940	-8.039	-7.687	-7.901	-8.287	-8.657
530.0	-836.7	-668.4	-447.6	-311.6	-210.7	-94.43	-121.3	-70.84	375.9	 2454	992.8	-6.031	9.148	14.48	17.88	21.32	24.92	25.43	25.34	29.12	31.57	33.04	35.97	34.28	39.82	39.33	45.53	48.72	46.76	46.81	42.51	42.37	37.94	35.81	30.95	29.65	24.59	21.60	18.02	16.16	14.12	11.03	8.338	6.601	7.190	10.04	11.48	5.436	2.423	2.062	0.493	-1.863	-2.121	-2.958	-3.552	-4.026	-2.925	-0.581	6.949	72.04	389.7	 1197	 1514	354.9	15.39	-6.987	-7.346	-7.517	-7.592	-7.746	-7.841	-7.872	-7.887	-8.046	-8.101	-8.473	-8.517
535.0	-847.9	-668.5	-487.4	-326.2	-233.0	-114.0	-101.2	-94.10	31.57	900.3	 2703	245.4	-4.216	3.847	10.83	11.07	12.14	14.96	17.06	18.07	20.40	23.50	26.35	25.89	27.24	27.61	35.96	36.53	35.96	36.00	35.91	35.35	31.96	28.45	25.39	21.89	19.82	16.83	14.97	13.08	10.17	7.715	6.655	3.847	4.562	5.855	8.505	8.282	4.532	1.655	-0.281	-2.096	-2.772	-3.500	-3.525	-4.549	-4.422	-3.989	-2.564	11.40	82.36	264.1	659.9	 1639	553.3	12.24	-6.560	-7.506	-7.488	-8.015	-7.684	-7.666	-7.984	-7.867	-8.271	-8.634	-8.511
540.0	-845.4	-667.8	-485.5	-330.1	-258.9	-150.9	-68.38	-109.2	-63.11	194.0	 2470	 1080	-11.58	-8.480	4.532	7.568	5.337	9.297	11.84	10.68	15.37	18.12	19.82	21.49	23.75	25.61	28.59	30.00	29.11	30.42	27.72	28.52	25.34	23.24	21.01	18.65	16.39	14.74	12.25	8.820	8.641	5.487	5.384	3.786	3.108	2.664	4.306	6.178	6.250	1.867	-0.601	-2.794	-2.536	-3.367	-3.999	-4.594	-5.086	-4.791	-4.998	-2.126	13.75	54.05	150.7	878.9	 1592	396.2	-2.283	-7.485	-7.823	-8.173	-7.837	-7.676	-7.931	-7.774	-8.116	-8.395	-8.547
545.0	-858.5	-666.1	-499.7	-331.8	-263.2	-179.1	-82.48	-97.40	-97.34	-12.45	 1270	 2495	65.36	-14.54	-1.545	-0.009	-2.004	5.733	5.810	7.136	7.295	11.94	13.99	15.01	18.45	20.76	23.48	24.76	25.24	22.64	23.85	23.35	21.89	18.98	17.34	15.07	13.35	11.95	9.119	6.992	6.610	4.037	3.173	2.213	1.498	1.687	2.229	4.376	5.587	3.228	0.017	-2.858	-2.761	-3.942	-4.062	-4.652	-4.689	-5.326	-5.520	-5.121	-1.391	7.185	28.84	217.2	 1087	 1355	69.56	-6.399	-7.584	-7.837	-7.615	-7.987	-7.544	-8.099	-8.095	-8.503	-8.678
550.0	-845.4	-657.5	-486.4	-363.9	-268.7	-209.9	-121.9	-89.22	-111.6	-69.92	284.8	 2297	 1194	-13.21	-11.28	-11.36	-7.091	-1.441	-1.584	0.555	2.975	4.442	8.549	9.485	13.43	12.84	16.94	16.99	17.06	17.57	17.88	16.01	16.46	12.92	11.80	12.22	9.637	7.847	6.601	5.238	3.794	2.922	1.391	0.292	0.373	0.187	0.116	1.411	2.944	3.479	0.684	-2.828	-3.162	-4.301	-4.490	-4.900	-4.937	-5.569	-5.840	-6.058	-5.230	-3.515	1.443	43.58	270.3	814.8	843.4	305.5	7.186	-7.651	-7.643	-7.841	-7.719	-8.094	-8.158	-8.400	-8.755
555.0	-784.8	-640.8	-488.0	-376.1	-278.1	-213.9	-167.8	-98.09	-108.5	-95.30	1.184	753.1	 2594	239.4	-25.78	-18.97	-12.12	-8.471	-7.072	-4.664	-3.434	-1.701	2.092	6.514	6.742	7.340	9.630	9.337	8.319	12.41	10.82	10.35	10.30	8.136	7.841	8.475	5.658	4.079	3.451	3.046	1.875	1.008	0.040	-0.699	-1.080	-1.181	-1.277	-0.742	-0.560	1.487	1.524	-2.114	-3.995	-4.622	-4.666	-4.912	-5.701	-5.703	-5.873	-6.455	-6.249	-5.917	-4.946	4.168	54.70	177.7	421.7	 1062	391.8	1.074	-7.575	-7.906	-7.976	-7.455	-8.283	-8.753	-8.874
560.0	-809.3	-662.8	-496.2	-380.6	-290.0	-227.5	-182.3	-101.0	-86.48	-107.8	-61.33	139.8	 2221	843.8	-24.47	-23.22	-18.42	-14.43	-9.873	-8.239	-6.430	-5.090	-2.149	0.894	1.436	2.229	2.571	4.766	5.790	6.172	7.513	5.747	4.811	3.907	3.669	5.874	3.796	1.768	0.562	0.619	-0.570	-1.326	-1.711	-2.185	-2.205	-2.395	-2.206	-2.126	-1.916	-0.371	0.792	-1.593	-3.610	-5.226	-5.123	-5.615	-6.097	-6.132	-5.821	-6.634	-6.823	-6.397	-6.556	-4.440	7.017	34.16	95.76	602.1	965.6	76.22	-5.926	-8.057	-7.999	-7.784	-8.214	-8.528	-8.569
565.0	-863.7	-635.6	-493.8	-393.0	-299.6	-237.7	-183.8	-142.0	-74.48	-100.9	-82.35	-25.66	 1039	 2124	40.89	-30.06	-21.83	-18.85	-14.71	-11.65	-9.208	-8.769	-5.814	-3.114	-1.695	-1.322	-0.301	2.270	2.544	2.464	3.763	3.835	3.398	2.276	1.376	2.345	0.632	-0.364	-0.368	-0.993	-1.410	-1.649	-2.762	-3.101	-3.273	-2.617	-3.235	-2.884	-2.767	-1.859	-0.480	-1.903	-3.971	-5.084	-4.898	-5.652	-6.090	-6.433	-6.230	-6.402	-6.645	-7.034	-6.783	-6.574	-3.829	1.942	15.95	151.5	699.7	662.1	52.89	-7.655	-7.748	-8.010	-8.342	-8.516	-8.468
570.0	-834.8	-665.3	-495.4	-384.8	-309.3	-245.7	-200.0	-159.5	-91.81	-94.02	-99.61	-64.01	224.3	 1875	 1012	-28.47	-27.47	-22.94	-18.81	-14.75	-13.48	-10.57	-9.911	-8.015	-5.459	-4.090	-3.506	-1.961	-0.734	-1.155	-0.087	0.180	-0.410	-0.435	-0.928	-1.162	-1.055	-1.919	-2.511	-2.581	-3.183	-3.128	-3.619	-4.488	-3.841	-4.141	-3.802	-3.841	-3.646	-2.883	-2.457	-2.910	-3.324	-4.951	-5.296	-6.143	-6.314	-6.446	-6.508	-6.500	-6.687	-6.901	-6.915	-6.937	-6.282	-5.293	-1.903	28.11	176.2	474.0	566.9	182.4	-0.849	-7.950	-8.375	-8.470	-8.669
575.0	-862.0	-646.9	-498.7	-380.3	-304.5	-243.6	-206.0	-173.8	-124.2	-71.62	-98.46	-77.47	3.200	601.2	 2159	188.9	-31.34	-24.89	-20.14	-19.11	-16.86	-13.61	-11.59	-10.32	-8.803	-6.459	-6.794	-5.125	-4.376	-5.050	-2.601	-3.471	-4.239	-3.347	-3.784	-2.695	-3.141	-4.335	-3.689	-4.188	-4.152	-4.995	-5.192	-5.165	-4.556	-5.275	-4.711	-4.654	-4.217	-3.509	-3.517	-4.525	-3.788	-5.190	-5.074	-6.366	-6.741	-6.831	-6.985	-6.759	-6.934	-6.824	-7.231	-6.992	-7.169	-6.745	-6.075	0.317	33.17	101.4	284.6	619.1	78.42	-4.486	-8.109	-8.434	-8.571
580.0	-821.5	-697.4	-514.1	-395.2	-311.6	-255.5	-216.7	-186.0	-145.3	-65.07	-78.28	-79.01	-43.52	111.0	 1790	587.1	-30.60	-28.30	-24.06	-20.41	-18.68	-14.53	-12.54	-12.50	-11.24	-9.563	-8.501	-7.034	-6.435	-6.861	-5.053	-5.854	-5.474	-5.164	-4.625	-4.616	-4.449	-4.891	-4.823	-5.349	-4.843	-5.751	-5.861	-6.024	-5.688	-5.998	-4.929	-5.401	-4.882	-4.003	-3.954	-5.188	-4.660	-4.840	-5.123	-6.274	-7.053	-6.921	-6.947	-6.986	-6.930	-7.137	-7.309	-6.910	-7.178	-7.478	-7.369	-5.890	1.476	16.67	63.83	369.5	515.0	61.81	-7.183	-8.443	-8.905
585.0	-807.0	-699.3	-496.5	-389.6	-325.6	-258.0	-222.9	-183.9	-149.3	-85.66	-67.67	-86.16	-54.21	-13.04	806.8	 1672	21.87	-29.87	-27.26	-22.76	-20.27	-16.73	-15.08	-14.16	-12.97	-11.37	-10.13	-9.401	-8.795	-8.444	-7.093	-6.235	-6.893	-6.374	-6.529	-5.468	-5.796	-6.082	-5.913	-5.891	-5.884	-6.113	-6.649	-5.823	-6.329	-6.102	-5.429	-5.950	-5.232	-4.189	-4.371	-5.764	-5.258	-5.406	-5.337	-6.108	-6.964	-6.779	-6.764	-7.031	-7.096	-7.333	-7.345	-7.045	-7.380	-7.560	-7.585	-7.104	-5.363	-2.193	8.319	93.77	409.4	411.0	37.58	-8.108	-8.527
590.0	-843.1	-676.5	-514.6	-394.6	-314.7	-259.9	-220.7	-185.8	-154.2	-109.3	-52.44	-80.51	-57.31	-43.86	171.6	 1423	696.8	-26.25	-28.08	-23.69	-21.47	-19.04	-16.71	-15.66	-13.88	-12.69	-11.85	-10.71	-10.01	-9.978	-8.901	-8.314	-7.452	-7.810	-7.563	-6.416	-6.495	-7.255	-6.831	-6.813	-6.683	-6.942	-7.031	-6.875	-6.826	-6.580	-5.554	-6.074	-5.476	-4.746	-4.741	-6.336	-5.633	-5.842	-5.336	-5.667	-6.899	-6.852	-6.921	-7.120	-7.251	-7.475	-7.426	-7.252	-7.366	-7.604	-7.602	-7.517	-7.233	-6.434	-4.284	14.88	103.1	290.0	328.0	46.94	-4.733
595.0	-876.9	-692.9	-516.4	-413.9	-304.0	-270.6	-224.2	-181.4	-158.0	-126.2	-58.37	-56.98	-63.17	-47.46	4.670	428.8	 1444	112.3	-28.81	-25.00	-22.44	-20.46	-17.48	-16.19	-15.26	-13.78	-13.37	-11.52	-11.76	-11.15	-11.06	-9.777	-8.646	-8.330	-8.112	-7.755	-7.326	-7.809	-7.017	-7.247	-7.472	-7.664	-7.705	-7.289	-7.244	-6.779	-6.169	-6.341	-5.791	-4.938	-5.174	-6.322	-6.177	-6.419	-6.021	-5.484	-6.464	-6.976	-7.000	-7.289	-7.118	-7.520	-7.467	-7.407	-7.582	-7.658	-7.656	-7.847	-7.791	-7.770	-7.053	-2.734	16.80	60.03	169.1	354.7	70.59
600.0	-919.3	-690.3	-501.2	-404.7	-325.4	-248.1	-224.7	-188.4	-164.7	-127.1	-87.13	-34.03	-60.34	-49.97	-32.29	69.24	 1178	409.1	-27.72	-25.71	-23.37	-21.18	-18.61	-18.19	-16.39	-14.32	-13.95	-11.96	-12.29	-12.29	-11.46	-10.51	-9.189	-9.022	-8.490	-7.465	-8.301	-7.663	-7.564	-7.670	-7.758	-7.989	-8.068	-7.806	-7.526	-7.277	-6.139	-6.712	-5.887	-4.904	-5.337	-6.518	-6.283	-6.778	-6.251	-6.468	-6.653	-6.838	-7.241	-7.079	-7.331	-7.392	-7.850	-7.676	-7.640	-7.573	-7.604	-7.598	-7.903	-7.890	-7.529	-6.807	-2.470	7.441	35.94	224.3	306.9
605.0	-821.9	-694.0	-502.9	-396.6	-329.9	-265.0	-229.8	-188.3	-161.0	-129.3	-103.8	-41.09	-50.65	-51.82	-43.38	-15.70	529.3	 1117	13.43	-24.80	-23.54	-21.46	-19.71	-17.79	-16.58	-15.02	-15.14	-14.12	-12.77	-13.10	-11.78	-11.69	-10.64	-9.854	-9.341	-8.624	-8.934	-8.458	-8.409	-7.958	-7.301	-8.146	-8.247	-7.974	-7.790	-7.377	-6.617	-6.854	-6.318	-5.060	-5.259	-6.533	-6.718	-6.862	-6.793	-6.590	-6.770	-6.372	-7.353	-7.172	-7.582	-7.220	-7.638	-7.560	-7.507	-7.569	-7.681	-7.715	-8.051	-7.775	-7.862	-7.927	-6.831	-4.608	1.679	55.76	250.6
610.0	-839.3	-687.6	-514.9	-388.0	-318.0	-261.1	-224.5	-185.4	-158.5	-132.6	-107.4	-58.89	-36.34	-50.86	-43.45	-35.89	107.7	976.3	493.5	-23.73	-24.22	-22.74	-19.93	-18.67	-17.67	-16.38	-14.59	-14.51	-13.93	-14.07	-12.69	-11.87	-11.33	-10.87	-9.693	-9.153	-8.957	-9.114	-8.638	-8.778	-8.193	-8.698	-8.621	-8.142	-7.713	-7.688	-7.029	-6.806	-6.262	-5.363	-5.370	-6.709	-6.718	-7.132	-6.976	-7.050	-7.166	-6.824	-7.167	-7.232	-7.635	-7.446	-7.772	-7.624	-7.701	-7.641	-7.639	-7.749	-8.041	-7.956	-7.909	-8.039	-7.873	-7.336	-6.094	6.013	62.08
615.0	-862.1	-668.0	-537.8	-393.0	-320.0	-263.1	-224.8	-192.6	-162.6	-129.6	-106.5	-72.23	-30.43	-42.51	-44.28	-41.42	-5.648	311.5	 1063	78.07	-24.08	-23.93	-20.52	-19.30	-17.87	-16.41	-15.95	-14.82	-14.43	-14.80	-14.15	-12.71	-11.46	-11.00	-10.41	-9.486	-9.524	-9.333	-9.028	-9.053	-8.807	-8.974	-8.496	-8.557	-7.978	-7.930	-7.108	-7.146	-6.343	-5.560	-5.682	-7.119	-6.444	-7.059	-7.152	-7.139	-7.438	-7.439	-7.227	-7.216	-7.668	-7.810	-7.768	-7.712	-7.557	-7.580	-7.897	-7.917	-7.702	-8.026	-7.963	-8.152	-7.710	-7.814	-7.865	-5.161	6.798
620.0	-881.6	-684.2	-543.8	-399.3	-323.0	-260.7	-216.9	-193.7	-160.7	-133.5	-113.1	-81.14	-33.84	-36.84	-46.91	-42.37	-30.72	52.52	894.7	312.9	-23.52	-22.85	-20.70	-19.67	-17.67	-17.00	-16.42	-15.50	-15.48	-15.01	-14.34	-12.78	-12.03	-11.51	-10.62	-9.507	-9.345	-9.544	-9.183	-9.284	-9.161	-8.857	-8.753	-8.258	-8.402	-7.541	-7.164	-7.224	-6.357	-5.607	-5.715	-7.005	-6.757	-7.171	-7.150	-7.275	-7.540	-7.496	-7.064	-7.100	-7.481	-7.598	-7.530	-7.774	-7.695	-7.776	-7.935	-8.148	-7.817	-7.889	-8.194	-7.983	-8.137	-8.096	-8.306	-8.078	-5.194
625.0	-900.0	-673.5	-535.4	-396.3	-320.0	-260.5	-216.3	-185.9	-158.6	-141.5	-115.0	-88.80	-48.51	-27.03	-45.22	-43.18	-35.70	-14.02	424.5	855.7	2.799	-22.96	-21.19	-19.76	-18.18	-18.04	-16.46	-15.54	-15.99	-15.50	-13.97	-13.16	-12.43	-11.95	-10.77	-9.996	-9.761	-10.01	-9.365	-9.567	-9.131	-9.343	-8.856	-8.521	-8.388	-8.026	-7.373	-7.326	-6.359	-5.794	-5.758	-7.175	-6.888	-7.300	-6.967	-7.131	-7.543	-7.419	-7.150	-7.341	-7.501	-7.722	-7.752	-7.601	-7.702	-7.774	-7.702	-8.028	-8.043	-8.161	-8.081	-8.254	-8.210	-8.164	-8.136	-8.661	-8.093
630.0	-891.2	-709.8	-520.6	-399.1	-329.8	-268.1	-222.4	-187.4	-164.5	-140.6	-113.6	-93.42	-63.27	-28.81	-35.43	-43.01	-37.68	-29.70	87.26	790.7	367.2	-20.57	-21.35	-20.05	-18.46	-17.67	-16.94	-15.49	-15.55	-15.13	-14.24	-13.32	-12.81	-12.03	-11.39	-10.47	-10.07	-10.16	-9.448	-9.546	-9.082	-9.364	-9.181	-8.682	-8.440	-8.166	-7.273	-7.475	-6.702	-5.776	-5.897	-7.131	-7.068	-7.357	-7.033	-7.211	-7.624	-7.649	-7.414	-7.340	-7.281	-7.611	-7.701	-7.766	-7.771	-7.687	-7.878	-8.023	-7.912	-8.033	-8.003	-8.043	-8.250	-8.142	-8.274	-8.651	-8.629
635.0	-846.5	-707.8	-539.9	-413.3	-330.2	-260.9	-219.8	-191.5	-166.4	-135.3	-113.7	-89.10	-70.62	-42.07	-26.93	-40.73	-37.58	-33.59	-4.004	260.7	844.4	53.52	-21.23	-19.96	-18.58	-17.74	-16.51	-16.48	-15.59	-15.16	-14.99	-13.56	-12.76	-12.11	-11.63	-10.96	-10.10	-9.983	-9.714	-9.408	-9.165	-9.392	-9.321	-8.837	-8.825	-8.279	-7.281	-7.572	-6.685	-5.624	-5.881	-7.184	-7.076	-7.387	-7.049	-7.457	-7.749	-7.529	-7.627	-7.644	-7.420	-7.416	-7.752	-7.979	-7.876	-7.810	-8.164	-8.131	-7.865	-8.217	-8.311	-8.074	-8.086	-8.223	-8.468	-8.433	-8.435
640.0	-859.0	-674.2	-505.7	-404.4	-324.6	-266.7	-224.8	-190.3	-173.0	-140.3	-110.1	-89.69	-67.09	-49.57	-26.64	-34.68	-37.04	-33.17	-24.43	43.98	739.7	253.5	-20.98	-20.30	-18.81	-17.91	-17.22	-16.41	-15.78	-15.77	-14.96	-14.25	-13.07	-12.32	-11.47	-10.92	-10.52	-10.40	-9.717	-9.756	-9.369	-9.539	-9.211	-8.956	-8.780	-8.444	-7.534	-7.578	-6.731	-5.789	-5.702	-7.276	-7.212	-7.472	-7.098	-7.609	-7.517	-7.547	-7.577	-7.688	-7.541	-7.607	-7.789	-8.090	-7.821	-7.782	-8.115	-8.095	-7.858	-8.104	-8.253	-8.065	-8.096	-8.310	-8.391	-8.642	-8.873
645.0	-855.2	-672.3	-521.2	-389.7	-330.9	-265.1	-233.8	-190.1	-168.8	-143.0	-114.7	-93.27	-77.06	-50.67	-25.92	-27.15	-35.82	-34.18	-30.06	-11.49	371.6	681.9	-3.790	-19.81	-18.77	-17.68	-17.65	-16.38	-16.07	-16.27	-14.71	-14.43	-13.47	-12.40	-11.71	-10.75	-10.53	-10.59	-10.03	-9.614	-9.742	-9.705	-9.451	-9.120	-8.637	-8.151	-7.724	-7.624	-6.814	-5.787	-6.049	-7.219	-7.109	-7.414	-7.147	-7.586	-7.720	-7.679	-7.695	-7.810	-7.678	-7.685	-7.927	-7.834	-7.673	-8.071	-8.047	-8.053	-7.948	-8.071	-8.321	-8.097	-8.172	-8.262	-8.312	-8.470	-8.821
650.0	-809.3	-713.0	-521.6	-385.1	-324.0	-270.3	-223.1	-187.4	-168.1	-140.9	-115.7	-94.55	-68.92	-56.28	-33.46	-23.80	-36.63	-32.87	-30.35	-23.29	95.49	782.8	132.1	-19.69	-18.55	-17.12	-17.51	-16.46	-16.34	-15.64	-15.24	-14.61	-13.24	-12.24	-11.57	-10.81	-10.46	-10.48	-10.15	-9.963	-9.467	-9.535	-9.478	-9.018	-8.980	-8.437	-7.623	-7.747	-6.874	-5.998	-6.031	-7.189	-6.894	-7.449	-7.102	-7.622	-7.678	-7.700	-7.870	-7.599	-7.588	-7.508	-7.759	-7.918	-7.878	-8.004	-8.151	-8.017	-8.159	-8.340	-7.822	-8.259	-8.077	-7.991	-8.656	-8.582	-8.699
