Sample:	'1
File name:	W110406山东铝都循环水.FD3
Run date:	'13:39:47, 11/05/2024
Operator:	horiz
Comment:	'

Instrument
Model:	F-2700 FL Spectrophotometer
Serial number:	23B8-004
ROM Version:	4J14000 07

Instrument parameters
Measurement type:	3-D scan
Data mode:	Fluorescence
EX  Start WL:	220.0 nm
EX  End WL:	600.0 nm
EX Sampling interval:	5.0 nm
EM  Start WL:	230.0 nm
EM  End WL:	650.0 nm
EM Sampling interval:	5.0 nm
Scan speed:	12000 nm/min
EX Slit:	5.0 nm
EM Slit:	5.0 nm
PMT Voltage:	700 V
Response:	Auto 
Corrected spectra:	Off
Contour interval:	50.000

Peak integration
Integration method:	Rectangular
Sensitivity:	1
Threshold:	1.000

Peaks
No.	ApexEX/EM(nm)	Height(Data)
1	225.0/590.0	66.09
2	225.0/620.0	75.64
3	230.0/635.0	72.29
4	235.0/345.0	2469
5	240.0/265.0	344.0
6	245.0/270.0	349.8
7	245.0/535.0	231.0
8	250.0/275.0	467.8
9	250.0/550.0	182.2
10	255.0/280.0	519.5
11	255.0/560.0	150.0
12	260.0/575.0	122.0
13	265.0/585.0	122.3
14	275.0/310.0	2897
15	275.0/615.0	184.7
16	280.0/380.0	1211
17	280.0/625.0	158.7
18	425.0/500.0	40.17
19	475.0/345.0	7.654
20	505.0/275.0	2.699
21	510.0/280.0	3.171
22	520.0/285.0	3.395
23	535.0/270.0	35.98
24	560.0/310.0	13.08

Wavelength data
No.	EX/EM(nm)	Height(Data)	

Data points
	220.0	225.0	230.0	235.0	240.0	245.0	250.0	255.0	260.0	265.0	270.0	275.0	280.0	285.0	290.0	295.0	300.0	305.0	310.0	315.0	320.0	325.0	330.0	335.0	340.0	345.0	350.0	355.0	360.0	365.0	370.0	375.0	380.0	385.0	390.0	395.0	400.0	405.0	410.0	415.0	420.0	425.0	430.0	435.0	440.0	445.0	450.0	455.0	460.0	465.0	470.0	475.0	480.0	485.0	490.0	495.0	500.0	505.0	510.0	515.0	520.0	525.0	530.0	535.0	540.0	545.0	550.0	555.0	560.0	565.0	570.0	575.0	580.0	585.0	590.0	595.0	600.0
230.0	42.94	614.9	1603	515.1	25.73	6.462	4.930	4.657	4.014	3.978	3.367	3.035	2.961	2.393	2.202	1.710	1.546	1.389	1.202	1.179	1.049	0.917	0.923	0.911	0.764	0.793	0.773	0.679	0.653	0.675	0.637	0.622	0.549	0.504	0.491	0.459	0.447	0.440	0.398	0.404	0.407	0.382	0.437	0.359	0.358	0.330	0.818	3.625	6.245	4.765	1.831	0.491	0.305	0.281	0.274	0.278	0.292	0.287	0.272	0.262	0.251	0.273	0.267	0.272	0.272	0.274	0.280	0.251	0.255	0.281	0.301	0.266	0.257	0.274	0.258	0.297	0.315
235.0	76.71	186.8	1044	1929	482.1	37.88	6.489	5.608	4.335	4.018	3.628	3.516	3.014	2.410	2.221	1.797	1.832	1.392	1.282	1.089	1.006	0.958	1.050	0.978	0.848	0.678	0.760	0.662	0.618	0.686	0.673	0.584	0.552	0.494	0.466	0.428	0.449	0.455	0.459	0.396	0.442	0.383	0.413	0.448	0.454	0.390	0.453	1.101	2.529	5.004	7.971	7.720	3.510	0.750	0.284	0.308	0.295	0.286	0.284	0.259	0.270	0.277	0.268	0.272	0.304	0.278	0.284	0.239	0.252	0.277	0.296	0.305	0.282	0.253	0.238	0.271	0.301
240.0	119.2	107.3	335.5	1728	2098	386.1	16.49	6.770	4.960	3.851	3.526	3.714	3.163	2.552	1.895	1.707	1.696	1.722	1.363	1.051	1.155	0.971	0.932	1.008	0.862	0.764	0.671	0.762	0.636	0.683	0.671	0.601	0.602	0.491	0.503	0.531	0.413	0.446	0.433	0.414	0.436	0.417	0.434	0.366	0.512	0.562	0.482	0.577	0.808	1.682	4.633	10.42	13.01	8.438	2.679	0.579	0.295	0.308	0.262	0.272	0.335	0.267	0.287	0.298	0.316	0.274	0.251	0.275	0.274	0.318	0.270	0.287	0.306	0.295	0.246	0.265	0.276
245.0	87.71	158.1	127.8	609.2	2389	2329	252.8	9.460	4.480	5.192	4.283	4.090	3.225	2.868	2.255	1.921	1.627	1.644	1.397	1.231	1.130	1.081	0.893	0.889	0.888	0.777	0.734	0.825	0.716	0.713	0.710	0.606	0.595	0.531	0.471	0.486	0.421	0.465	0.429	0.360	0.423	0.386	0.335	0.402	0.443	0.560	0.650	0.593	0.507	0.630	1.298	3.808	9.969	16.44	15.21	8.012	1.655	0.393	0.322	0.295	0.315	0.283	0.268	0.271	0.346	0.313	0.265	0.313	0.282	0.313	0.290	0.261	0.288	0.270	0.270	0.232	0.287
250.0	44.74	121.8	206.2	215.7	805.0	2490	2657	884.9	42.90	6.375	5.210	4.410	3.611	2.917	2.494	2.112	1.792	1.727	1.233	1.250	1.126	0.940	0.863	0.793	0.848	0.843	0.808	0.820	0.692	0.760	0.608	0.612	0.604	0.573	0.485	0.476	0.492	0.485	0.444	0.390	0.399	0.404	0.417	0.360	0.393	0.401	0.497	0.692	0.841	0.751	0.699	1.174	2.656	5.612	10.48	15.58	19.05	15.51	8.001	2.069	0.437	0.354	0.324	0.330	0.320	0.306	0.322	0.335	0.306	0.327	0.314	0.268	0.284	0.300	0.317	0.302	0.300
255.0	39.44	53.76	159.6	280.8	256.2	659.9	2346	4214	287.9	34.88	7.182	5.575	4.673	3.448	2.496	2.253	1.816	1.579	1.594	1.304	1.250	1.108	1.076	1.146	0.975	0.750	0.890	0.855	0.747	0.713	0.701	0.658	0.561	0.606	0.559	0.522	0.518	0.410	0.490	0.400	0.440	0.493	0.402	0.388	0.384	0.407	0.416	0.475	0.585	0.877	1.053	1.085	1.103	1.535	2.644	4.011	8.213	18.98	31.45	24.57	12.40	2.045	0.368	0.356	0.321	0.343	0.324	0.341	0.320	0.310	0.313	0.259	0.304	0.371	0.339	0.270	0.280
260.0	40.60	33.49	68.98	259.6	272.2	198.9	754.0	3874	4124	235.7	17.25	6.694	5.278	4.066	2.887	2.500	2.164	1.930	1.602	1.277	1.219	1.116	1.064	1.101	1.042	0.847	0.800	0.905	0.669	0.823	0.803	0.744	0.581	0.610	0.577	0.536	0.503	0.455	0.479	0.443	0.422	0.499	0.420	0.398	0.449	0.416	0.392	0.342	0.378	0.454	0.816	1.569	1.595	1.069	0.957	1.238	2.226	5.596	15.39	30.39	39.31	23.03	8.624	1.156	0.348	0.398	0.387	0.315	0.335	0.366	0.346	0.292	0.325	0.366	0.327	0.292	0.281
265.0	38.06	25.20	30.51	132.5	344.0	212.2	205.8	1419	5082	3893	171.5	10.82	6.081	5.107	3.391	2.798	2.547	1.904	1.638	1.505	1.360	1.437	1.201	1.174	1.023	0.980	0.806	0.931	0.797	0.699	0.778	0.686	0.673	0.588	0.582	0.595	0.562	0.571	0.439	0.471	0.513	0.436	0.509	0.452	0.422	0.413	0.408	0.354	0.324	0.319	0.451	0.973	1.595	1.832	1.155	0.698	0.878	1.603	3.969	9.753	24.79	42.37	30.90	20.10	4.486	0.575	0.399	0.323	0.324	0.393	0.382	0.292	0.268	0.332	0.325	0.326	0.270
270.0	45.12	33.86	27.92	50.41	178.6	349.8	252.6	370.0	1746	4683	4163	684.8	32.24	6.590	4.424	3.515	2.879	2.320	1.839	1.644	1.555	1.543	1.219	1.142	1.084	1.064	0.997	0.963	0.818	0.880	0.758	0.722	0.678	0.656	0.595	0.567	0.573	0.540	0.496	0.491	0.456	0.453	0.491	0.449	0.448	0.443	0.386	0.363	0.347	0.294	0.325	0.509	0.751	1.125	1.657	1.853	1.528	1.113	1.384	2.549	6.269	13.01	21.18	35.98	35.69	35.12	13.66	4.575	0.661	0.389	0.370	0.340	0.334	0.336	0.364	0.324	0.336
275.0	69.97	64.14	48.51	46.07	68.55	184.7	467.8	286.0	440.9	1254	4332	7114	909.3	23.82	6.881	4.648	3.540	2.863	2.558	1.867	1.565	1.296	1.246	1.403	1.167	1.110	0.906	0.969	1.007	0.965	0.882	0.647	0.739	0.676	0.635	0.568	0.590	0.546	0.561	0.565	0.442	0.529	0.528	0.530	0.499	0.542	0.468	0.426	0.412	0.359	0.414	0.419	0.463	0.553	0.823	1.137	2.181	2.699	1.937	1.288	1.804	3.431	5.207	8.918	12.91	31.54	55.77	58.16	21.80	4.806	0.607	0.421	0.368	0.317	0.345	0.350	0.398
280.0	120.8	117.3	101.6	73.35	55.46	90.01	326.3	519.5	238.4	359.7	1439	6670	6570	131.1	12.33	6.117	4.177	3.561	2.628	2.139	1.995	1.449	1.615	1.487	1.247	1.090	0.982	1.066	0.933	0.981	0.940	0.733	0.746	0.745	0.660	0.704	0.679	0.655	0.638	0.572	0.510	0.599	0.556	0.501	0.593	0.661	0.562	0.594	0.603	0.498	0.489	0.448	0.464	0.525	0.597	0.705	1.095	2.302	3.171	2.636	1.489	1.379	1.792	2.517	3.648	8.605	21.83	48.49	66.02	30.70	16.42	2.128	0.445	0.382	0.336	0.421	0.402
285.0	169.0	212.1	175.8	112.8	74.23	72.10	163.0	514.4	329.5	231.6	475.7	2459	8191	4812	90.92	8.800	5.508	4.163	3.135	2.659	2.011	1.699	1.612	1.557	1.486	1.236	1.148	1.061	0.957	0.897	0.915	0.826	0.771	0.857	0.748	0.674	0.744	0.733	0.663	0.617	0.634	0.616	0.532	0.562	0.611	0.667	0.705	0.797	0.833	0.618	0.571	0.589	0.522	0.556	0.549	0.585	0.770	1.100	2.036	3.204	3.395	2.139	1.163	1.319	1.690	2.776	5.795	13.78	31.76	55.85	69.76	27.05	9.920	0.975	0.465	0.429	0.424
290.0	271.4	337.7	311.7	192.0	118.8	102.9	133.4	299.0	602.6	645.2	487.8	908.5	2895	6015	5057	383.3	20.05	6.033	4.269	3.224	2.278	2.050	1.885	1.657	1.699	1.392	1.324	1.186	1.047	1.082	0.963	0.906	0.761	0.809	0.843	0.844	0.726	0.783	0.725	0.619	0.680	0.675	0.724	0.643	0.760	0.959	1.008	1.080	1.052	0.954	0.772	0.765	0.639	0.649	0.619	0.700	0.813	0.911	1.213	1.699	2.653	3.511	3.737	3.183	2.252	2.214	3.029	4.644	8.814	16.32	30.42	42.84	54.23	46.30	18.29	8.488	1.279
295.0	366.6	496.9	473.2	290.2	190.4	167.4	194.9	292.5	499.6	988.9	1035	841.2	1135	1751	4806	5858	526.9	19.05	6.222	4.195	3.097	2.522	2.342	1.934	1.845	1.630	1.471	1.112	1.142	1.190	1.046	1.060	0.928	1.010	0.848	0.897	0.808	0.827	0.773	0.695	0.675	0.724	0.819	0.842	1.007	1.190	1.221	1.559	1.334	1.216	0.971	1.064	0.926	0.865	0.862	0.922	1.069	1.137	1.262	1.491	1.959	2.378	3.534	5.281	5.641	4.209	3.564	3.599	4.553	5.962	8.818	11.14	15.50	28.39	57.55	74.64	29.01
300.0	451.2	635.6	617.0	414.1	284.4	266.7	326.8	387.1	647.0	1064	1664	1335	1055	859.2	1679	6269	4915	78.14	13.06	5.541	4.024	3.078	2.830	2.233	2.160	1.686	1.655	1.176	1.361	1.190	1.107	1.035	0.985	1.023	1.027	1.052	0.927	0.935	0.887	0.891	0.815	0.765	0.855	0.972	1.057	1.244	1.636	1.756	1.818	1.534	1.346	1.298	1.155	1.245	1.162	1.198	1.500	1.840	1.969	2.331	2.712	3.003	3.973	4.839	6.764	8.214	7.301	5.447	5.157	4.992	4.855	4.859	5.510	8.328	19.33	45.31	72.73
305.0	530.6	826.7	805.4	580.2	426.9	434.1	575.4	773.3	1108	1547	2194	2450	1432	1118	1060	2566	7505	3911	63.10	9.247	5.649	4.062	3.093	2.816	2.179	1.955	1.774	1.387	1.491	1.259	1.274	1.242	0.979	0.936	1.106	1.145	1.143	1.045	0.911	0.978	0.868	0.923	0.915	1.196	1.256	1.626	1.962	2.180	2.236	1.933	1.694	1.949	1.613	1.627	1.629	1.957	2.300	2.843	3.253	4.175	4.373	4.959	6.166	6.977	8.134	10.04	11.06	10.60	9.270	7.817	6.778	6.008	5.151	5.866	8.057	13.97	29.25
310.0	659.1	1022	1025	780.4	617.4	623.7	820.4	1095	1454	1936	2458	2897	2537	1663	1248	1280	3012	5523	4768	269.9	16.87	5.535	3.905	3.164	2.685	2.258	2.162	1.706	1.636	1.427	1.303	1.296	1.086	1.107	1.112	1.151	1.195	1.099	1.092	0.952	0.989	1.020	1.202	1.244	1.540	1.924	2.211	2.712	2.768	2.409	2.247	2.414	2.362	2.385	2.506	2.759	3.205	3.891	4.548	5.133	5.846	6.564	7.963	8.793	9.699	10.45	11.90	12.62	13.08	12.51	10.38	8.332	7.175	7.049	6.876	7.383	10.39
315.0	745.1	1148	1211	981.7	781.0	772.4	978.0	1232	1579	2030	2514	2817	2761	2230	1484	1092	1413	1708	4198	6164	409.2	14.67	5.933	4.071	3.274	2.628	2.293	2.005	1.933	1.786	1.369	1.368	1.154	1.030	1.213	1.127	1.210	1.166	1.130	1.068	1.131	1.120	1.310	1.443	1.566	2.048	2.643	3.292	3.079	2.919	2.789	3.055	2.841	3.028	2.947	3.155	3.765	4.603	5.331	5.661	6.264	7.299	8.172	9.196	10.16	11.02	11.72	12.37	12.80	12.74	12.50	11.70	9.213	8.734	7.215	6.960	6.706
320.0	762.5	1277	1411	1107	879.9	842.3	1062	1300	1606	2062	2528	2793	2676	2386	1786	1149	1112	790.2	1288	5438	3791	60.03	9.705	5.291	3.968	2.891	2.576	2.387	2.023	1.648	1.581	1.410	1.236	1.202	1.334	1.111	1.206	1.160	1.090	1.064	1.086	1.147	1.282	1.435	1.730	2.136	3.013	3.527	3.586	3.421	3.119	3.431	3.167	3.297	3.073	3.455	4.161	4.907	5.511	6.129	6.282	7.190	8.531	9.402	9.878	10.59	11.64	12.16	12.43	12.30	11.77	11.76	11.78	10.21	8.391	7.104	6.112
325.0	833.0	1421	1635	1312	958.6	874.2	1055	1280	1525	1943	2368	2642	2507	2200	1956	1250	1027	591.4	423.2	1782	5835	3206	51.06	7.619	4.841	3.913	2.824	2.345	2.126	1.828	1.749	1.622	1.428	1.336	1.424	1.268	1.055	1.157	1.080	1.087	1.227	1.050	1.235	1.339	1.844	2.404	3.148	3.960	4.317	3.790	3.613	3.794	3.450	3.328	3.200	3.555	4.323	5.119	5.440	5.875	6.164	6.672	7.943	8.343	9.775	10.51	10.93	11.36	11.78	11.60	11.13	10.89	11.10	11.41	9.914	7.937	6.066
330.0	913.7	1614	2063	1817	1292	987.0	1021	1211	1413	1739	2135	2391	2307	1999	1745	1411	1065	568.5	283.6	509.4	1875	4422	4346	970.2	16.76	5.241	3.568	2.970	2.648	2.156	1.877	1.740	1.621	1.396	1.295	1.254	1.164	1.113	1.036	1.111	1.117	1.090	1.257	1.464	1.873	2.735	3.429	4.647	5.247	4.977	4.970	5.511	4.804	4.106	3.624	3.587	4.213	4.774	5.225	5.319	5.864	6.117	7.003	7.624	8.697	9.423	9.951	10.32	10.72	10.50	10.11	10.17	9.503	9.608	9.289	8.848	7.446
335.0	960.9	1748	2364	2266	1684	1146	1026	1155	1298	1576	1907	2139	2097	1851	1557	1291	1210	661.7	318.8	274.8	532.2	1147	3638	6052	374.9	17.10	4.734	3.798	2.859	2.507	2.216	1.768	1.548	1.298	1.347	1.349	1.169	1.119	1.112	1.068	1.138	1.141	1.292	1.540	2.043	2.872	3.508	5.016	5.778	5.593	6.008	6.915	6.206	5.291	4.550	3.828	4.403	4.456	4.826	5.133	5.517	5.930	6.276	7.227	7.732	8.668	9.194	9.075	9.756	9.801	9.224	9.517	8.455	8.879	7.973	7.553	7.592
340.0	932.1	1735	2408	2398	1832	1237	1041	1100	1218	1443	1720	1933	1915	1714	1446	1158	1124	806.7	379.3	256.7	264.0	366.5	1070	4928	5242	307.5	9.262	4.747	3.403	2.715	2.496	1.924	1.786	1.604	1.341	1.350	1.159	1.141	1.077	0.991	1.067	1.033	1.314	1.512	2.000	2.865	3.432	4.919	5.806	6.166	6.323	7.447	6.485	5.836	4.791	4.124	4.338	4.465	4.581	4.958	5.170	5.491	5.875	6.580	7.384	7.976	8.140	8.483	8.833	9.005	8.669	8.521	7.679	7.907	7.489	6.943	6.602
345.0	906.3	1670	2409	2469	1906	1281	1044	1060	1161	1326	1555	1739	1743	1576	1352	1094	974.2	844.5	515.4	302.2	237.5	220.4	338.7	1552	5597	2987	46.82	6.617	4.229	3.315	2.692	2.166	1.821	1.585	1.493	1.278	1.229	1.132	1.182	1.045	1.117	1.084	1.206	1.457	1.846	2.559	3.397	4.764	5.979	6.164	6.276	7.654	6.913	6.041	5.162	4.291	4.489	4.585	4.510	4.759	4.943	5.141	5.665	6.309	6.699	7.234	7.322	7.741	8.406	7.999	8.258	7.495	7.429	7.746	6.878	6.476	6.221
350.0	829.7	1530	2260	2445	1987	1374	1094	1056	1098	1224	1397	1533	1544	1432	1258	1043	899.9	751.5	643.7	463.5	305.0	245.3	222.1	442.3	1693	3787	3906	1012	17.76	4.701	3.409	2.626	2.145	1.697	1.518	1.291	1.247	1.124	1.183	1.053	1.089	1.089	1.332	1.396	1.764	2.420	3.205	4.455	5.670	5.897	6.299	7.554	6.910	6.435	5.183	4.472	4.588	4.409	4.617	4.594	4.667	5.041	5.085	5.621	5.888	6.400	6.446	6.938	7.074	7.280	7.440	6.803	6.998	6.964	6.542	6.186	5.993
355.0	756.4	1398	2057	2298	1982	1434	1159	1082	1073	1167	1278	1381	1387	1316	1170	1011	887.9	730.2	619.2	618.6	455.8	315.0	251.5	241.6	469.5	943.4	2795	5453	365.6	21.63	4.539	3.399	2.704	1.943	1.559	1.347	1.293	1.187	1.103	1.050	1.059	1.160	1.239	1.399	1.602	2.270	3.069	4.120	5.118	5.545	5.960	7.579	7.034	6.474	5.495	4.937	5.040	4.377	4.822	4.293	4.628	4.914	4.893	5.337	5.566	5.924	5.734	6.143	6.456	6.253	6.374	6.678	6.291	6.504	6.240	5.631	5.887
360.0	715.2	1268	1896	2170	1931	1467	1210	1113	1079	1148	1227	1297	1299	1239	1120	990.2	882.2	746.2	631.0	624.2	594.1	406.4	300.4	232.2	227.8	293.0	772.4	3876	5070	331.3	13.76	4.396	3.034	2.297	1.770	1.447	1.508	1.253	1.238	1.036	1.107	1.074	1.276	1.260	1.625	2.299	2.587	3.847	4.766	5.235	5.574	6.988	6.644	6.175	5.651	4.798	4.764	4.571	4.794	4.381	4.780	4.950	5.099	5.291	5.480	5.605	5.836	5.619	6.052	5.946	6.111	6.419	6.141	6.008	5.914	5.788	5.803
365.0	653.4	1171	1801	2073	1921	1511	1241	1127	1101	1123	1187	1226	1239	1188	1085	972.9	887.2	768.3	667.8	617.7	626.7	523.5	363.3	268.9	204.7	173.5	247.0	1132	4657	2936	267.1	8.139	4.243	2.928	1.934	1.693	1.521	1.324	1.100	1.081	1.190	1.012	1.139	1.240	1.485	2.033	2.617	3.416	4.324	4.598	5.321	6.804	6.331	6.252	5.576	5.013	4.859	4.853	4.823	4.834	4.700	4.940	5.001	5.056	5.287	5.382	5.236	5.452	5.718	5.418	6.108	5.909	6.037	5.819	5.673	5.661	5.750
370.0	629.1	1092	1656	1937	1868	1535	1296	1164	1110	1122	1153	1191	1200	1144	1056	967.2	896.5	806.3	717.1	655.2	617.7	608.1	504.7	349.4	256.2	195.2	170.0	335.4	1339	3336	3862	1080	19.75	4.956	2.736	2.128	1.712	1.530	1.277	1.245	1.178	1.121	1.216	1.216	1.513	2.035	2.340	3.340	4.103	4.077	4.879	6.082	6.188	6.364	5.563	5.221	5.227	5.191	4.938	4.807	4.653	4.840	4.927	5.027	5.213	5.219	5.238	5.453	5.469	5.426	5.644	5.716	5.665	5.819	5.650	5.853	5.661
375.0	588.7	1067	1492	1806	1806	1569	1320	1195	1125	1142	1170	1175	1200	1126	1021	949.0	898.6	831.5	756.9	701.2	646.2	605.8	596.7	474.6	336.4	257.3	216.3	215.3	392.7	839.7	2481	5238	1562	23.68	4.560	2.679	2.147	1.736	1.397	1.309	1.212	1.224	1.303	1.288	1.552	1.821	2.200	3.161	3.714	3.893	4.673	5.884	6.170	6.184	5.556	5.322	5.367	5.349	5.061	4.862	4.971	4.898	4.926	4.973	5.208	5.021	5.254	5.060	5.643	5.498	5.432	5.478	5.802	5.516	5.724	5.773	5.508
380.0	556.0	1001	1447	1741	1782	1581	1345	1218	1151	1145	1177	1176	1211	1107	999.2	935.6	896.7	843.5	783.1	729.2	677.2	617.6	590.9	572.4	422.6	313.6	270.9	225.8	213.6	286.1	721.6	3437	4957	297.4	13.62	3.754	2.529	2.010	1.643	1.514	1.298	1.175	1.429	1.237	1.593	1.795	2.333	3.111	3.690	3.917	4.601	5.716	6.151	6.175	6.068	5.452	5.512	5.123	5.177	4.905	4.932	5.046	5.116	5.181	5.293	4.970	5.376	5.348	5.546	5.933	5.757	5.618	5.464	5.667	5.436	5.599	5.479
385.0	563.0	970.9	1366	1663	1729	1567	1353	1224	1151	1144	1175	1165	1198	1091	976.2	921.9	884.5	843.1	791.0	744.0	693.0	639.2	588.2	580.5	514.9	374.3	310.5	257.7	199.7	182.3	278.5	1023	3927	4045	234.3	7.340	3.320	2.538	1.839	1.576	1.422	1.226	1.181	1.286	1.447	1.710	2.248	2.880	3.499	3.680	4.006	5.249	5.499	5.979	5.913	5.434	5.748	5.323	5.083	5.130	4.839	5.131	4.975	5.254	5.224	5.233	5.312	4.929	5.373	5.787	5.908	5.420	5.241	5.532	5.286	5.366	5.572
390.0	543.1	887.5	1275	1538	1634	1504	1328	1225	1148	1126	1137	1126	1139	1050	943.2	895.4	859.8	831.9	786.5	746.7	700.8	653.5	598.9	556.5	526.1	459.8	354.4	282.2	214.0	174.7	181.5	323.5	1075	2885	3036	927.4	16.30	3.285	2.394	1.740	1.590	1.380	1.281	1.438	1.472	1.937	2.016	2.855	3.447	3.424	3.983	5.018	5.249	5.507	5.541	5.444	5.578	5.195	4.921	5.019	4.906	5.158	5.058	5.015	4.878	5.146	5.114	4.874	5.197	5.463	5.544	5.228	5.051	5.300	4.943	5.257	5.348
395.0	540.0	863.1	1217	1424	1543	1483	1321	1227	1141	1116	1110	1092	1083	1010	914.5	862.2	830.9	808.0	772.2	736.1	703.8	659.1	612.5	559.6	505.5	484.5	439.4	330.1	247.6	200.2	182.3	183.6	301.0	688.1	1713	4132	1437	20.01	3.463	2.374	1.899	1.492	1.385	1.568	1.463	1.990	2.045	2.662	2.893	3.349	3.976	4.750	5.140	5.359	5.349	5.212	5.340	5.184	4.924	4.892	5.031	5.038	4.957	4.865	4.946	4.944	4.904	4.660	5.074	5.103	5.194	5.050	4.948	4.949	4.851	5.209	5.116
400.0	531.4	855.3	1174	1381	1496	1451	1287	1208	1138	1115	1108	1075	1063	983.5	882.0	836.9	805.6	790.7	754.5	723.5	698.9	654.3	618.0	572.6	512.0	473.3	483.0	392.5	280.3	227.1	204.2	172.0	141.9	193.5	442.1	2447	4004	261.9	13.17	2.902	2.132	1.771	1.526	1.603	1.605	1.798	2.014	2.591	2.974	3.136	3.531	4.625	4.987	5.149	5.164	5.000	5.388	5.276	4.903	4.803	5.106	4.894	4.973	5.051	4.957	4.742	4.702	4.520	4.935	4.941	5.140	4.773	4.920	4.885	4.805	4.928	5.102
405.0	514.2	803.1	1137	1345	1442	1389	1278	1202	1122	1096	1093	1047	1042	961.2	857.3	809.4	781.6	764.9	734.1	708.8	679.8	646.1	609.7	576.3	520.1	473.6	467.6	442.8	322.4	249.9	225.3	179.9	114.2	91.55	128.5	655.5	2894	3303	221.4	6.730	2.643	1.887	1.693	1.799	1.703	1.841	1.919	2.459	3.152	3.119	3.305	4.353	4.627	4.975	5.144	4.796	5.308	5.114	4.947	4.620	5.015	4.819	4.766	4.942	4.773	4.866	4.644	4.503	4.724	4.925	5.095	4.819	4.478	5.141	4.802	4.571	5.083
410.0	501.4	756.9	1050	1260	1340	1319	1246	1173	1100	1062	1055	1001	984.1	900.8	819.7	767.2	742.3	723.5	702.4	679.5	651.7	624.5	592.9	559.5	513.4	465.0	439.5	424.5	370.4	282.0	230.6	181.4	116.8	79.14	66.77	171.4	761.8	2224	2498	852.8	14.85	2.729	2.065	1.843	1.722	1.792	2.011	2.507	2.811	2.844	3.203	4.194	4.436	4.688	4.765	4.648	4.961	4.966	4.925	4.687	4.835	4.582	4.781	4.898	4.777	4.545	4.554	4.380	4.545	4.577	4.910	4.682	4.570	4.570	4.777	4.504	4.571
415.0	460.9	708.2	997.5	1158	1246	1240	1193	1128	1083	1029	995.6	950.9	926.9	845.2	773.1	722.1	695.2	678.3	661.4	642.7	615.1	596.9	570.1	538.0	498.9	457.4	424.5	389.4	369.6	328.7	248.9	185.9	126.0	86.41	61.52	69.94	191.7	518.7	1316	3225	1238	18.41	2.879	2.214	2.007	1.894	1.962	2.397	2.649	2.697	3.052	4.147	4.377	4.305	4.397	4.465	4.788	4.642	4.912	4.553	4.600	4.401	4.490	4.565	4.507	4.382	4.272	4.265	4.141	4.435	4.637	4.410	4.146	4.310	4.235	4.324	4.708
420.0	409.5	693.0	949.5	1107	1171	1184	1148	1099	1058	1002	970.4	915.9	878.3	810.3	735.0	685.7	655.6	642.8	624.0	608.3	586.0	566.3	549.2	522.1	489.3	445.1	416.7	380.7	347.3	341.3	279.9	197.1	132.9	94.52	65.76	52.17	68.03	132.9	332.3	1871	3193	243.5	11.58	2.841	2.248	1.855	2.067	2.432	2.610	2.579	3.010	3.989	4.255	4.240	4.111	4.223	4.692	4.762	4.506	4.540	4.583	4.593	4.585	4.371	4.318	4.427	4.210	4.105	4.117	4.174	4.364	4.074	3.914	4.324	4.036	4.189	4.371
425.0	408.1	661.6	889.6	1053	1128	1133	1121	1075	1041	986.6	942.5	898.8	843.9	778.2	702.4	655.2	625.9	609.4	593.7	579.2	560.6	542.8	527.2	506.4	475.5	440.6	411.5	377.5	336.7	320.4	303.4	219.4	143.4	103.4	72.56	53.50	44.76	50.59	89.54	491.9	2255	2027	204.8	5.378	2.661	2.075	2.139	2.387	2.470	2.675	2.881	3.684	3.947	4.329	3.908	4.194	4.470	4.546	4.438	4.456	4.463	4.622	4.451	4.330	4.346	4.206	4.050	4.118	4.101	4.082	3.952	3.930	3.797	3.947	4.036	3.946	4.099
430.0	442.7	606.0	847.3	984.9	1065	1074	1073	1050	1005	963.7	918.6	862.2	806.8	736.4	666.4	614.0	590.4	570.9	559.2	541.8	525.7	512.0	498.5	481.8	455.2	429.6	399.9	372.6	334.1	306.0	288.6	249.8	168.4	116.2	83.75	61.93	46.83	37.85	39.21	123.8	590.4	1666	2184	754.2	13.51	2.788	2.451	2.468	2.485	2.530	2.837	3.624	3.648	4.085	3.815	3.971	4.396	4.403	4.348	4.516	4.304	4.479	4.393	4.221	4.127	4.049	3.953	3.833	3.698	3.888	3.765	3.788	3.746	3.881	3.725	3.878	3.770
435.0	610.1	597.4	777.4	937.0	998.3	1014	1033	1014	978.4	941.9	890.6	827.2	766.7	696.6	630.0	583.9	547.0	532.4	528.0	503.4	492.2	481.2	469.6	455.7	432.0	413.5	384.8	366.0	332.9	298.5	268.2	244.3	201.7	133.8	96.60	72.39	54.52	39.93	32.55	45.22	144.5	387.9	1156	2935	1121	17.29	3.011	2.787	2.639	2.741	2.724	3.380	3.327	3.838	3.689	3.658	4.332	4.333	4.433	4.405	4.063	4.521	4.303	4.105	4.135	3.970	3.679	3.766	3.678	3.833	3.690	3.560	3.500	3.571	3.588	3.756	3.752
440.0	786.2	589.8	747.5	886.0	939.8	973.8	988.9	984.9	945.8	914.2	862.4	804.4	743.0	671.1	597.3	559.9	524.2	507.2	495.6	479.4	464.4	451.3	446.5	434.6	416.4	398.6	373.8	354.1	325.7	293.8	260.3	229.5	206.1	157.1	106.2	80.55	60.81	45.01	34.51	30.45	47.92	98.22	293.0	1799	3037	222.0	10.23	3.063	2.815	2.570	2.722	3.393	3.452	3.899	3.801	3.980	4.284	4.074	4.120	4.343	4.220	4.175	4.173	4.041	3.773	3.945	3.711	3.494	3.692	3.351	3.624	3.596	3.567	3.359	3.446	3.454	3.429
445.0	809.4	761.0	723.0	840.7	903.5	941.6	956.7	966.2	922.9	904.1	843.4	783.6	710.2	643.1	574.6	531.1	497.7	481.7	468.7	456.9	439.4	428.7	424.5	413.1	398.0	383.0	361.2	340.9	319.7	290.0	258.0	219.6	194.5	172.5	121.0	85.40	65.24	50.81	38.42	29.61	28.59	35.44	76.07	482.7	2290	1860	168.9	5.606	3.045	2.608	2.649	3.350	3.409	3.431	3.718	3.620	4.097	3.993	4.332	4.066	4.027	4.016	3.862	4.000	3.842	4.037	3.557	3.417	3.477	3.458	3.332	3.270	3.474	3.149	3.448	3.391	3.272
450.0	595.7	1089	773.4	790.2	842.2	876.4	899.1	901.0	881.3	859.2	805.8	741.6	667.6	603.4	535.5	491.5	459.0	445.6	427.5	417.6	405.0	396.4	389.4	381.4	369.7	355.6	340.7	325.0	305.4	280.2	249.7	213.7	179.5	163.0	140.2	99.13	72.27	56.07	43.93	34.16	27.53	24.08	29.81	117.8	606.8	1662	2069	676.7	11.66	3.138	2.846	3.334	3.258	3.374	3.559	3.532	3.764	3.896	3.941	3.949	3.794	3.925	3.737	3.801	3.683	3.522	3.452	3.477	3.192	3.399	3.171	3.177	3.157	3.110	3.114	3.218	3.151
455.0	361.7	1124	1140	739.6	766.2	814.3	821.7	850.5	821.1	804.6	763.0	693.5	616.9	551.0	493.7	450.5	420.2	405.1	385.8	376.1	367.9	359.1	353.7	344.7	336.8	324.2	314.4	301.3	288.7	264.8	239.1	206.9	173.8	148.3	135.5	117.4	83.55	60.44	48.29	38.37	30.91	24.65	21.30	37.54	143.9	385.9	1091	2655	928.0	13.39	3.023	3.234	3.220	3.248	3.340	3.399	3.697	3.634	3.723	3.782	3.707	3.644	3.570	3.443	3.469	3.375	2.976	3.306	2.996	3.251	2.866	2.915	2.967	3.005	2.773	2.800	2.788
460.0	285.8	821.4	1505	777.3	722.3	765.4	776.0	800.2	780.9	764.1	714.4	656.9	577.4	515.2	459.6	412.1	389.9	373.0	357.9	347.2	337.3	329.8	324.7	317.3	310.3	302.5	294.3	283.6	271.4	254.0	229.2	198.3	167.8	141.3	124.3	118.4	94.59	65.34	51.32	40.93	32.84	26.68	20.61	20.28	41.92	94.52	271.8	1578	2618	167.2	9.103	3.638	3.171	3.166	3.314	3.213	3.355	3.471	3.573	3.424	3.452	3.466	3.527	3.432	3.250	3.202	3.066	3.136	3.004	3.088	2.709	2.732	2.766	2.966	2.781	2.654	2.686
465.0	258.7	574.9	1626	942.6	667.1	705.2	734.3	751.3	736.9	711.4	677.8	623.9	546.7	485.6	428.9	385.5	361.7	344.3	332.9	319.9	310.5	305.0	299.9	294.0	289.0	279.8	273.7	264.2	253.4	237.2	216.3	190.3	162.1	136.2	116.3	108.5	101.5	73.75	53.72	42.81	34.58	28.13	22.46	17.91	20.18	30.18	68.48	420.7	2028	2062	144.1	5.572	3.350	3.277	3.225	3.191	3.355	3.304	3.276	3.318	3.277	3.513	3.325	3.336	3.174	2.944	2.881	2.988	2.760	2.905	2.689	2.716	2.485	2.528	2.597	2.494	2.443
470.0	238.6	396.2	1111	1583	697.5	640.0	664.1	680.0	678.1	656.3	625.7	570.0	497.8	444.5	386.0	347.2	323.0	306.1	295.4	285.6	275.8	270.8	267.3	264.6	261.5	251.4	245.4	237.6	228.8	217.2	201.5	175.7	151.6	128.3	109.7	96.03	90.64	81.03	59.79	44.13	36.05	29.21	23.66	18.94	16.34	16.45	23.21	100.6	539.8	1465	1553	607.6	11.87	3.574	3.026	3.048	3.219	3.042	3.042	3.026	3.084	3.242	3.173	3.052	2.998	2.821	3.002	2.703	2.540	2.586	2.412	2.336	2.504	2.366	2.339	2.272	2.357
475.0	239.3	324.8	588.4	1572	1253	571.6	588.3	602.0	609.2	597.7	560.1	517.0	451.8	402.8	346.4	307.4	288.4	273.3	259.1	253.2	242.7	237.9	235.8	231.3	227.8	220.8	217.8	210.7	206.0	197.4	181.3	160.5	140.7	120.5	103.6	87.44	77.48	74.96	67.34	47.73	36.75	29.87	24.38	19.88	16.64	13.72	13.51	29.07	126.3	336.2	771.4	1954	734.5	15.35	3.225	2.900	2.877	2.942	2.861	2.922	3.046	2.973	2.924	2.728	2.672	2.612	2.573	2.529	2.193	2.360	2.270	2.250	2.270	2.298	2.072	1.958	2.167
480.0	221.7	305.8	424.9	1092	1790	606.6	541.2	557.6	573.5	552.2	518.9	481.7	416.9	370.7	318.5	286.9	264.3	250.6	236.6	228.6	222.2	216.6	212.6	212.0	205.9	201.9	198.3	194.5	190.0	181.7	169.6	150.1	132.8	113.7	99.10	83.22	72.85	66.33	67.40	54.43	38.25	30.50	25.04	20.32	16.79	13.56	12.22	14.11	34.22	79.98	190.1	1080	1720	195.6	9.091	3.087	3.028	2.961	2.730	2.702	2.806	2.567	2.773	2.628	2.578	2.409	2.285	2.358	2.245	2.267	2.296	1.961	1.999	2.207	1.884	1.923	2.011
485.0	203.8	312.0	371.0	682.5	1913	964.5	506.9	525.4	530.0	515.4	491.9	456.1	391.7	346.5	299.8	267.0	245.3	231.8	221.7	210.3	204.9	197.7	198.1	192.4	190.8	185.2	182.8	180.7	176.3	167.9	158.0	140.9	125.5	108.3	94.09	80.70	70.54	61.76	61.20	58.30	42.07	32.10	25.27	21.48	17.86	14.54	12.73	11.32	14.07	23.06	47.22	285.8	1416	1588	157.3	4.989	3.256	2.874	2.793	2.668	2.653	2.534	2.734	2.523	2.397	2.411	2.411	2.326	2.225	2.118	2.102	1.990	1.983	2.023	1.803	1.818	1.949
490.0	182.4	306.6	350.8	458.0	1266	1664	599.0	476.9	488.1	468.9	454.4	411.8	361.4	316.6	271.5	242.0	223.0	210.3	200.2	189.5	185.7	178.8	177.9	175.8	172.6	168.9	166.7	163.2	160.0	155.7	144.9	131.0	114.9	101.7	88.89	76.83	66.38	58.92	53.53	52.09	47.14	35.36	26.31	21.94	18.31	15.30	13.16	11.25	10.19	10.74	15.25	68.11	373.5	1121	1566	612.8	12.94	3.084	2.833	2.727	2.644	2.547	2.363	2.406	2.176	2.241	2.288	2.149	2.095	2.168	1.928	1.862	1.793	1.829	1.818	1.777	1.698
495.0	152.6	272.3	348.7	361.4	605.9	1701	1093	438.4	442.6	422.4	410.0	371.2	328.1	286.4	243.5	216.9	199.8	187.1	176.7	169.3	163.6	158.8	157.3	155.0	152.1	150.2	146.0	145.3	145.8	139.6	131.3	119.9	103.8	93.38	81.75	71.51	63.60	55.76	48.30	44.29	44.23	40.09	28.77	22.23	18.60	16.37	13.71	11.45	9.572	8.430	8.359	19.74	87.15	257.2	802.0	2017	852.0	16.51	3.136	2.579	2.537	2.419	2.361	2.214	2.118	2.126	2.049	2.067	1.960	1.879	1.837	1.654	1.538	1.607	1.623	1.642	1.641
500.0	136.0	231.4	340.4	328.2	383.8	1167	1642	485.8	404.4	393.7	378.7	344.0	304.0	262.5	222.3	199.9	182.3	170.6	161.0	154.2	147.1	143.2	143.5	140.9	138.7	135.6	133.9	132.6	130.4	127.3	119.0	108.8	96.69	86.03	75.29	67.48	58.38	51.69	44.69	40.40	38.38	40.17	31.61	22.69	18.78	15.93	13.65	11.48	9.763	8.040	6.879	9.019	23.27	60.92	196.9	1105	1930	215.9	10.34	2.748	2.361	2.394	2.048	2.080	2.148	1.893	1.928	1.852	1.871	1.666	1.828	1.562	1.529	1.643	1.416	1.434	1.492
505.0	126.0	202.3	315.8	313.8	325.4	649.0	1814	764.3	368.9	359.7	346.2	319.5	282.3	239.8	207.1	181.5	167.2	153.1	145.6	137.6	133.1	129.6	128.7	127.5	125.2	123.3	123.2	122.2	118.5	115.9	109.1	100.3	89.41	80.20	70.52	61.96	54.37	48.47	42.50	38.29	34.73	35.17	33.66	25.06	18.76	15.52	12.97	11.44	9.831	8.157	6.743	6.432	8.946	17.10	47.46	287.7	1395	1713	178.7	5.393	2.389	2.318	2.117	2.127	1.925	1.749	1.758	1.746	1.629	1.662	1.620	1.484	1.439	1.529	1.292	1.217	1.256
510.0	114.5	172.2	261.9	320.7	283.2	369.0	1203	1508	413.0	317.3	306.2	280.0	243.3	210.5	181.2	158.6	146.6	134.4	127.7	122.4	116.5	112.9	112.0	110.0	108.5	108.7	107.2	105.5	104.0	102.0	96.07	89.11	79.25	71.27	62.87	56.11	49.71	43.79	38.52	34.30	30.62	28.88	29.73	27.40	19.81	15.42	12.91	11.19	9.616	8.262	6.999	6.005	5.741	7.221	13.75	67.18	359.9	1075	1441	553.9	13.19	2.473	2.160	1.944	1.814	1.679	1.679	1.650	1.494	1.452	1.527	1.334	1.360	1.391	1.248	1.149	1.269
515.0	97.23	132.9	196.9	290.3	272.9	271.5	526.4	1731	860.8	281.0	273.0	243.4	214.0	182.2	158.2	137.9	127.5	117.6	110.2	104.1	99.37	96.20	95.24	95.31	92.31	91.89	92.36	90.52	89.32	88.03	83.56	76.42	68.94	62.22	54.82	48.98	43.65	39.25	35.16	30.88	27.44	24.64	23.44	24.54	23.57	16.39	12.83	10.78	8.944	7.944	6.492	6.159	5.152	5.024	6.343	17.84	83.14	244.6	616.5	1605	777.1	17.79	2.275	2.067	1.791	1.465	1.463	1.340	1.256	1.278	1.168	1.270	1.233	1.158	1.149	1.123	1.176
520.0	84.07	120.5	163.7	252.1	275.5	235.6	299.7	1210	1462	292.7	242.4	221.5	192.3	164.3	141.5	123.1	112.5	104.6	98.93	92.78	89.12	86.81	84.20	84.16	82.13	82.31	81.09	80.47	78.40	77.51	74.11	69.13	61.07	55.89	49.38	45.10	39.87	35.93	32.27	28.03	24.77	22.89	20.56	20.77	22.61	18.63	12.90	10.24	8.889	7.554	6.577	6.059	5.286	4.325	4.517	6.768	21.02	57.48	147.1	800.6	1636	223.2	12.43	2.067	1.789	1.512	1.498	1.351	1.290	1.210	1.090	1.163	1.195	1.060	1.044	1.082	1.011
525.0	76.84	105.1	143.4	214.7	270.0	223.4	224.6	617.5	1785	549.4	216.8	196.0	172.6	148.5	128.8	113.0	102.4	92.54	87.49	84.25	80.41	78.64	74.94	75.86	73.32	72.30	72.15	71.49	71.64	69.39	66.07	61.52	56.20	51.19	44.61	40.59	36.66	32.20	29.37	26.08	22.96	20.48	18.58	17.71	19.67	19.19	14.09	10.61	8.354	7.471	6.332	5.731	5.430	4.439	3.887	4.192	7.483	15.30	35.45	199.4	971.9	1398	194.7	5.944	1.985	1.470	1.389	1.317	1.268	1.219	1.228	1.070	1.110	1.017	0.985	0.976	0.979
530.0	72.11	98.31	128.5	167.8	238.7	221.6	189.5	294.4	1183	1306	235.6	169.6	150.5	128.1	112.3	98.42	87.34	81.05	75.48	71.66	68.79	67.29	66.00	64.73	64.34	62.56	62.24	61.25	59.99	60.59	57.48	52.58	48.72	44.01	39.58	35.12	32.08	28.34	26.04	23.23	20.74	18.37	16.53	15.42	15.28	17.00	15.22	10.98	7.956	6.789	5.973	5.233	4.976	4.681	3.877	3.535	4.209	5.806	10.06	46.79	240.5	743.0	1101	489.8	14.63	1.737	1.395	1.252	1.097	1.248	1.101	1.013	0.983	0.930	0.853	0.897	0.846
535.0	76.78	87.86	117.2	132.3	175.8	231.0	165.0	188.8	463.1	1571	688.8	148.5	130.0	112.0	94.25	82.76	74.43	69.04	64.63	60.37	57.87	56.56	55.02	54.18	53.02	53.48	51.90	51.97	51.42	50.34	47.86	45.77	40.27	37.31	34.17	30.56	27.42	24.86	22.23	20.12	18.61	15.96	15.00	13.28	12.34	12.77	13.95	12.06	8.195	6.373	5.384	4.838	4.208	4.132	3.951	3.648	3.423	3.546	4.268	12.34	55.61	168.1	388.9	1143	727.1	20.34	1.590	1.254	1.127	1.128	0.948	0.877	0.834	0.894	0.919	0.877	0.763
540.0	63.72	80.98	101.3	107.1	134.2	215.4	165.1	150.7	218.3	1054	1314	171.1	115.2	98.00	82.17	72.80	65.65	59.44	57.19	52.93	50.85	49.80	48.44	47.71	46.89	45.39	44.64	44.96	44.04	43.76	41.71	39.79	35.79	32.34	29.53	26.85	24.07	22.12	20.33	17.75	16.24	14.30	13.47	11.89	11.11	10.12	11.46	11.61	9.204	6.359	5.071	4.380	3.985	3.628	3.718	3.867	3.091	2.886	2.984	4.447	14.23	39.21	90.48	482.6	1218	234.1	15.06	1.439	1.108	1.084	0.916	0.889	0.815	0.823	0.735	0.865	0.742
545.0	56.48	77.09	84.19	92.85	109.9	172.7	180.3	129.9	149.1	489.3	1636	365.9	102.2	88.23	72.31	64.80	57.09	52.43	49.84	47.07	45.24	42.82	42.30	41.69	40.74	39.32	39.77	39.41	38.08	38.36	36.75	34.65	31.52	28.49	26.08	23.65	21.26	19.80	18.15	15.45	14.89	12.86	11.76	10.71	9.819	8.659	8.798	10.73	9.636	6.543	4.774	4.211	3.763	3.470	3.426	3.596	3.219	2.634	2.549	2.544	4.760	10.57	22.02	115.0	597.5	1066	211.2	8.749	1.138	1.089	0.910	0.812	0.781	0.761	0.712	0.776	0.690
550.0	54.95	62.15	76.05	83.03	91.99	119.6	182.2	122.7	115.3	199.0	1021	1071	124.5	73.19	60.86	54.16	47.60	44.74	41.68	38.51	36.90	36.12	34.69	34.33	33.36	32.66	32.20	32.22	31.95	31.77	30.61	28.29	25.75	23.74	21.05	19.79	17.82	16.43	14.82	13.59	12.23	10.97	10.24	9.163	8.519	7.485	7.374	7.533	8.318	7.195	5.028	3.912	3.286	3.063	2.924	2.939	2.871	2.618	2.322	2.135	2.457	3.720	6.260	27.06	141.7	467.6	772.7	466.6	16.56	1.563	0.876	0.851	0.803	0.702	0.716	0.687	0.645
555.0	53.56	62.04	64.16	68.51	73.64	85.65	142.1	137.9	96.66	112.1	350.8	1342	442.2	59.40	51.87	43.78	38.93	36.91	34.82	31.59	28.76	28.14	28.03	26.77	27.79	26.69	25.42	25.63	25.96	25.46	24.38	22.73	20.74	18.83	17.01	15.94	14.40	13.33	12.00	10.71	10.08	9.334	8.263	7.294	7.221	6.342	6.079	5.556	5.864	6.506	5.300	3.877	2.955	2.665	2.614	2.456	2.404	2.315	2.326	1.837	1.721	2.013	2.601	7.237	32.73	105.5	232.5	719.8	594.8	24.19	1.204	0.849	0.678	0.700	0.640	0.628	0.542
560.0	45.77	55.15	60.73	65.11	63.66	70.48	103.7	150.0	88.83	82.28	141.4	882.6	980.0	75.27	43.86	37.41	32.98	30.49	28.29	26.59	24.42	24.43	24.27	22.79	23.03	22.06	22.30	21.59	22.11	21.52	20.06	18.92	17.39	16.12	15.05	13.31	11.97	11.40	10.03	9.297	8.546	7.657	7.308	6.563	6.280	5.528	4.989	4.721	4.439	5.280	5.210	3.923	2.646	2.395	2.235	2.331	2.075	2.003	2.320	1.895	1.496	1.555	1.592	2.717	8.279	24.66	53.60	258.6	775.9	245.0	17.74	0.885	0.694	0.740	0.571	0.569	0.573
565.0	45.67	53.09	55.64	58.72	55.95	58.91	74.91	140.8	94.57	72.27	87.71	374.6	1321	141.3	36.99	30.83	29.16	26.59	23.53	22.31	21.23	20.55	19.97	19.40	19.36	18.50	18.84	18.29	18.31	18.43	16.54	16.02	15.03	13.71	12.62	11.42	10.37	9.427	8.635	7.973	7.172	6.620	6.006	5.452	5.277	5.007	4.370	3.940	3.668	3.955	4.558	4.145	2.677	2.312	2.026	2.024	1.812	1.774	1.955	1.885	1.595	1.324	1.329	1.575	2.728	6.476	12.96	60.38	320.1	690.8	215.3	9.981	0.786	0.664	0.582	0.598	0.558
570.0	50.69	53.60	55.54	53.71	47.44	48.46	56.08	101.6	116.8	69.26	70.62	140.6	828.1	748.3	56.70	25.62	23.85	21.34	19.01	18.19	17.15	16.25	16.15	15.57	15.37	14.89	14.89	14.82	14.72	14.74	13.60	13.07	11.88	10.81	10.17	9.017	8.512	7.722	7.198	6.559	5.994	5.413	5.192	4.594	4.432	4.097	3.756	3.322	3.040	2.933	3.186	3.681	3.055	2.312	1.739	1.786	1.580	1.449	1.518	1.679	1.794	1.359	1.212	1.193	1.498	2.277	3.716	14.41	74.26	262.0	478.2	344.4	17.35	1.296	0.700	0.605	0.549
575.0	50.62	55.73	54.03	46.69	42.36	40.54	45.03	64.75	122.0	82.42	69.11	81.73	266.0	1003	282.1	23.43	18.39	17.46	15.12	15.21	13.43	12.39	12.87	12.55	12.04	11.88	11.50	11.57	11.90	11.49	10.91	10.36	9.552	8.812	8.106	6.858	6.748	6.237	5.713	5.220	4.866	4.356	4.146	3.720	3.498	3.262	3.124	2.830	2.402	2.329	2.268	2.442	2.731	2.557	1.626	1.472	1.342	1.372	1.293	1.270	1.415	1.347	1.314	1.018	1.122	1.261	1.574	3.996	17.28	59.15	127.7	399.3	425.3	25.73	1.032	0.661	0.577
580.0	50.68	61.79	54.91	50.09	39.28	38.59	41.05	51.18	104.4	101.6	70.01	70.90	106.2	646.5	684.7	31.17	16.70	14.82	12.39	12.49	11.41	10.81	10.93	10.77	10.04	10.65	9.689	9.799	9.735	9.445	8.962	8.759	7.906	7.168	6.516	5.795	5.959	5.276	4.880	4.470	4.302	3.826	3.517	3.265	3.035	2.867	2.733	2.440	2.158	1.903	1.827	1.912	2.301	2.537	1.850	1.442	1.223	1.286	1.228	1.145	1.043	1.379	1.374	1.152	0.965	0.938	1.149	1.470	4.571	13.80	29.44	127.2	457.4	245.4	19.63	0.870	0.582
585.0	53.47	64.37	61.67	45.36	36.85	34.46	39.33	46.03	83.16	122.3	77.49	73.06	68.73	265.2	937.8	87.61	14.42	12.17	11.32	10.88	10.28	9.845	9.169	8.952	8.475	8.200	8.385	8.462	7.958	8.081	7.812	7.234	6.963	6.026	5.831	5.258	4.938	4.369	4.160	3.972	3.705	3.292	2.902	2.922	2.604	2.490	2.371	2.126	1.896	1.625	1.668	1.569	1.868	2.375	2.150	1.403	1.130	1.157	1.069	0.890	0.956	1.155	1.284	1.288	0.940	0.848	1.017	1.099	1.652	3.716	7.184	29.47	167.8	444.9	210.2	11.28	0.742
590.0	52.90	66.09	55.97	44.66	35.57	31.24	36.99	40.89	63.29	117.5	99.30	75.44	61.56	93.80	581.5	482.5	25.60	10.33	9.320	9.116	8.241	8.019	7.506	7.503	7.258	6.955	6.787	6.634	6.773	6.681	6.353	5.885	5.443	5.004	4.715	4.358	3.911	3.643	3.479	3.179	2.806	2.656	2.522	2.402	2.130	2.044	1.934	1.808	1.675	1.447	1.355	1.293	1.407	1.613	1.952	1.618	1.128	1.071	0.887	0.960	0.936	0.969	1.083	1.239	1.091	0.909	0.860	0.899	0.945	1.452	2.131	7.123	38.65	151.3	315.8	249.3	18.07
595.0	46.95	58.91	55.24	40.54	34.30	30.06	36.39	41.13	54.20	90.93	126.8	82.75	63.75	49.89	176.5	679.3	87.60	9.796	7.627	7.705	6.665	6.455	5.951	5.746	5.454	5.698	5.472	5.287	5.054	5.381	5.116	4.636	4.591	4.095	3.696	3.449	3.157	3.179	2.906	2.560	2.331	2.196	2.044	1.949	1.740	1.654	1.589	1.504	1.340	1.205	1.199	1.050	1.087	1.295	1.562	1.690	1.224	1.014	0.832	0.931	0.820	0.865	1.070	1.002	1.174	0.972	0.843	0.733	0.851	0.939	1.069	2.064	9.132	34.20	81.00	245.8	256.3
600.0	55.14	60.99	55.70	43.11	34.90	32.83	34.17	41.19	56.11	78.57	138.8	93.68	72.88	46.22	61.42	464.2	395.5	14.93	6.926	6.780	5.607	5.643	5.315	5.279	4.977	5.130	4.785	4.379	4.501	4.293	4.468	4.260	3.613	3.472	3.212	2.811	2.779	2.587	2.440	2.218	1.936	1.886	1.811	1.635	1.497	1.553	1.460	1.237	1.196	1.036	0.998	0.961	0.930	0.991	1.141	1.468	1.370	1.066	0.809	0.853	0.778	0.728	0.932	0.808	0.938	1.123	0.996	0.774	0.734	0.788	0.779	0.984	2.492	8.091	18.63	74.43	281.1
605.0	52.83	65.74	58.39	43.13	37.16	34.82	40.65	47.41	62.67	85.12	144.0	128.0	87.31	56.05	45.30	197.0	599.2	54.51	6.192	6.082	5.110	4.811	4.705	4.359	4.192	4.362	4.229	3.794	3.907	3.827	3.936	3.673	3.265	2.951	2.895	2.374	2.487	2.241	2.012	1.919	1.955	1.613	1.495	1.464	1.549	1.427	1.297	1.230	1.175	1.029	0.875	0.862	0.862	0.794	0.885	1.176	1.261	1.182	0.898	0.781	0.728	0.828	0.787	0.751	0.958	1.044	1.029	0.993	0.798	0.777	0.727	0.790	1.026	2.327	4.634	17.30	98.73
610.0	61.26	68.62	63.30	51.25	39.60	42.52	51.28	62.64	83.88	114.6	150.3	175.9	123.9	81.88	61.62	84.98	434.1	319.1	13.64	4.965	4.315	4.014	3.842	3.767	3.562	3.402	3.282	3.402	3.374	3.255	3.230	2.820	2.568	2.393	2.210	2.060	1.977	1.862	1.705	1.626	1.472	1.456	1.251	1.249	1.165	1.220	1.247	1.069	0.967	0.860	0.786	0.805	0.759	0.801	0.751	0.919	1.105	1.212	0.995	0.754	0.798	0.918	0.884	0.928	1.001	1.035	1.185	1.328	1.020	0.928	0.809	0.853	0.800	1.053	1.557	4.387	22.79
615.0	63.74	74.02	64.88	53.46	42.89	45.01	53.91	70.92	91.54	119.7	147.0	184.7	147.2	93.85	70.42	58.35	162.2	496.0	64.32	4.506	3.585	3.684	3.135	3.085	2.955	2.710	2.637	2.983	2.595	2.732	2.566	2.417	1.908	2.004	1.890	1.703	1.664	1.566	1.561	1.320	1.204	1.169	1.191	0.990	0.969	1.030	1.051	0.888	0.885	0.732	0.665	0.699	0.622	0.674	0.668	0.695	0.910	1.089	1.023	0.877	0.849	0.918	0.831	0.835	0.842	1.034	1.128	1.158	1.248	1.066	0.889	0.854	0.733	0.821	0.934	1.519	5.639
620.0	51.54	75.64	72.59	51.53	44.62	42.07	52.79	69.14	85.80	113.9	135.4	169.6	155.2	92.55	70.00	50.92	75.64	365.4	263.1	6.667	3.370	3.326	2.710	2.574	2.566	2.391	2.383	2.349	2.248	2.135	1.931	2.018	1.842	1.629	1.664	1.510	1.382	1.370	1.302	1.213	1.052	1.042	1.025	0.881	0.943	0.885	0.851	0.734	0.808	0.668	0.664	0.664	0.618	0.610	0.639	0.621	0.815	0.904	1.081	0.946	0.814	0.863	0.792	0.902	0.863	0.986	0.972	1.098	1.199	1.093	0.828	0.887	0.679	0.666	0.742	0.816	1.735
625.0	53.05	66.93	68.96	52.64	41.71	42.54	53.34	69.91	85.29	107.6	129.7	150.0	158.7	97.26	71.59	48.29	55.11	168.0	429.3	29.75	2.774	2.632	2.507	2.285	2.195	2.281	2.161	2.038	1.950	1.933	1.704	1.710	1.556	1.483	1.537	1.294	1.251	1.233	1.036	0.970	0.934	0.868	0.887	0.957	0.808	0.901	0.782	0.756	0.751	0.621	0.599	0.594	0.583	0.579	0.583	0.678	0.693	0.667	0.995	0.949	0.832	0.783	0.808	0.762	0.898	0.906	0.891	1.041	1.072	1.156	0.895	0.979	0.717	0.810	0.724	0.599	0.846
630.0	53.71	64.74	70.22	51.90	43.91	41.92	53.57	64.23	78.87	102.2	124.4	137.0	144.8	106.1	71.18	49.81	47.66	61.12	323.6	211.6	6.040	2.440	2.314	1.962	1.907	1.781	1.807	1.656	1.689	1.498	1.723	1.436	1.334	1.180	1.229	1.135	0.969	0.998	0.918	0.855	0.822	0.734	0.710	0.775	0.679	0.782	0.696	0.742	0.693	0.622	0.531	0.595	0.561	0.505	0.543	0.565	0.604	0.628	0.775	0.827	0.822	0.788	0.756	0.807	0.815	0.912	0.943	0.868	0.879	1.026	0.958	0.822	0.792	0.722	0.669	0.600	0.627
635.0	56.86	61.26	72.29	53.78	43.84	47.30	54.26	62.29	77.31	98.16	117.3	131.8	130.6	114.6	72.79	50.69	47.35	32.45	105.4	377.1	44.82	2.384	2.020	1.699	1.562	1.549	1.471	1.409	1.427	1.416	1.282	1.234	1.199	1.101	1.046	0.955	0.987	0.810	0.775	0.667	0.701	0.683	0.636	0.640	0.628	0.610	0.586	0.602	0.661	0.559	0.478	0.595	0.538	0.529	0.523	0.522	0.614	0.690	0.568	0.668	0.854	0.834	0.752	0.710	0.786	0.786	0.903	0.810	0.844	0.947	0.784	0.954	0.742	0.674	0.724	0.700	0.635
640.0	55.61	66.01	69.88	51.42	44.24	43.85	48.94	61.62	76.23	93.36	111.9	128.5	120.6	112.5	78.29	49.68	46.34	25.19	31.12	306.2	178.9	3.417	1.720	1.762	1.441	1.468	1.342	1.265	1.258	1.352	1.238	1.024	1.019	1.028	0.831	0.819	0.785	0.698	0.699	0.665	0.609	0.688	0.588	0.562	0.557	0.548	0.606	0.575	0.592	0.474	0.449	0.539	0.483	0.504	0.539	0.439	0.521	0.582	0.521	0.600	0.737	0.806	0.729	0.744	0.800	0.724	0.819	0.826	0.870	0.900	0.820	0.872	0.807	0.704	0.702	0.660	0.570
645.0	55.62	74.00	69.06	51.92	41.35	39.51	48.57	58.16	67.75	87.32	108.2	117.9	112.8	103.1	83.31	48.57	44.34	24.26	13.09	143.7	318.4	16.83	1.754	1.690	1.276	1.311	1.282	1.115	1.116	1.211	1.132	0.960	0.895	0.877	0.685	0.705	0.582	0.536	0.601	0.660	0.635	0.611	0.534	0.494	0.488	0.528	0.596	0.524	0.541	0.489	0.420	0.435	0.486	0.514	0.493	0.457	0.505	0.486	0.500	0.545	0.619	0.740	0.736	0.722	0.683	0.801	0.686	0.857	0.844	0.889	0.734	0.756	0.757	0.761	0.647	0.634	0.591
650.0	55.60	69.15	67.91	46.96	45.64	38.17	45.71	55.81	62.79	79.23	97.15	110.6	103.8	91.25	87.05	49.58	41.59	22.93	8.791	46.34	334.1	57.16	2.054	1.418	1.287	1.141	1.247	1.050	1.038	1.083	1.003	0.834	0.931	0.708	0.746	0.633	0.545	0.563	0.628	0.591	0.544	0.559	0.515	0.502	0.588	0.535	0.488	0.471	0.523	0.480	0.450	0.423	0.426	0.468	0.457	0.478	0.431	0.500	0.517	0.611	0.595	0.669	0.723	0.764	0.624	0.742	0.713	0.710	0.827	0.821	0.617	0.758	0.753	0.814	0.625	0.614	0.538
