Sample:	'1
File name:	l2025070319 阳光铝业原水 10倍.FD3
Run date:	'16:32:20, 07/07/2025
Operator:	Administrator
Comment:	'

Instrument
Model:	F-2700 FL Spectrophotometer
Serial number:	23B8-004
ROM Version:	4J14000 07

Instrument parameters
Measurement type:	3-D scan
Data mode:	Fluorescence
EX  Start WL:	220.0 nm
EX  End WL:	600.0 nm
EX Sampling interval:	5.0 nm
EM  Start WL:	230.0 nm
EM  End WL:	650.0 nm
EM Sampling interval:	5.0 nm
Scan speed:	12000 nm/min
EX Slit:	5.0 nm
EM Slit:	5.0 nm
PMT Voltage:	700 V
Response:	Auto 
Corrected spectra:	Off
Contour interval:	50.000

Peak integration
Integration method:	Rectangular
Sensitivity:	1
Threshold:	1.000

Peaks
No.	ApexEX/EM(nm)	Height(Data)
1	240.0/265.0	195.3
2	255.0/285.0	620.7
3	255.0/455.0	3841
4	260.0/575.0	167.9
5	265.0/585.0	160.1
6	270.0/600.0	162.3
7	275.0/305.0	2207
8	275.0/405.0	854.8
9	275.0/610.0	151.6
10	300.0/455.0	1149
11	315.0/355.0	408.7
12	320.0/365.0	415.9
13	325.0/370.0	416.7
14	330.0/375.0	419.7
15	335.0/380.0	419.0
16	360.0/450.0	555.7
17	440.0/520.0	19.76
18	505.0/275.0	2.739
19	510.0/280.0	3.587
20	510.0/460.0	18.07
21	535.0/270.0	50.87
22	545.0/300.0	10.44
23	550.0/305.0	11.72
24	560.0/310.0	10.89
25	570.0/315.0	9.960

Data points
	220.0	225.0	230.0	235.0	240.0	245.0	250.0	255.0	260.0	265.0	270.0	275.0	280.0	285.0	290.0	295.0	300.0	305.0	310.0	315.0	320.0	325.0	330.0	335.0	340.0	345.0	350.0	355.0	360.0	365.0	370.0	375.0	380.0	385.0	390.0	395.0	400.0	405.0	410.0	415.0	420.0	425.0	430.0	435.0	440.0	445.0	450.0	455.0	460.0	465.0	470.0	475.0	480.0	485.0	490.0	495.0	500.0	505.0	510.0	515.0	520.0	525.0	530.0	535.0	540.0	545.0	550.0	555.0	560.0	565.0	570.0	575.0	580.0	585.0	590.0	595.0	600.0
230.0	33.68	316.8	760.3	138.5	9.806	5.513	4.945	4.810	4.876	4.397	3.894	3.725	3.452	2.859	2.226	1.962	1.733	1.609	1.434	1.320	1.130	1.121	0.988	0.966	0.886	0.841	0.774	0.739	0.680	0.667	0.725	0.625	0.545	0.547	0.453	0.462	0.458	0.401	0.405	0.411	0.373	0.414	0.435	0.369	0.308	0.314	0.820	2.110	2.472	1.421	0.573	0.289	0.254	0.277	0.300	0.277	0.298	0.269	0.287	0.250	0.264	0.277	0.235	0.261	0.298	0.266	0.273	0.267	0.256	0.286	0.283	0.267	0.285	0.290	0.267	0.295	0.259
235.0	41.20	92.78	596.2	603.5	237.5	10.77	5.486	4.876	4.763	4.798	4.511	4.010	3.717	3.026	2.265	2.300	1.744	1.453	1.407	1.500	1.271	1.039	0.951	0.840	0.965	1.009	0.807	0.802	0.791	0.634	0.677	0.559	0.612	0.531	0.489	0.517	0.475	0.447	0.523	0.343	0.379	0.411	0.355	0.462	0.312	0.305	0.359	0.690	1.396	1.888	2.623	2.397	1.036	0.446	0.310	0.264	0.279	0.283	0.346	0.252	0.244	0.293	0.302	0.272	0.285	0.278	0.300	0.237	0.222	0.319	0.239	0.262	0.242	0.302	0.296	0.234	0.283
240.0	54.01	48.39	195.7	652.4	618.8	196.0	10.21	6.177	4.860	5.327	4.814	4.411	3.695	2.790	2.420	2.179	1.820	1.580	1.506	1.311	1.252	1.067	1.101	0.893	0.975	0.896	0.824	0.824	0.679	0.743	0.650	0.665	0.526	0.540	0.558	0.495	0.474	0.500	0.430	0.387	0.407	0.415	0.365	0.408	0.473	0.372	0.292	0.451	0.540	0.806	2.041	4.036	4.505	3.167	1.124	0.329	0.294	0.366	0.310	0.275	0.231	0.277	0.287	0.273	0.311	0.317	0.344	0.254	0.245	0.266	0.266	0.248	0.288	0.303	0.327	0.248	0.293
245.0	45.41	58.32	67.23	261.3	1271	1140	173.3	8.661	6.305	6.133	4.869	4.776	4.222	3.023	2.494	2.070	1.896	1.546	1.800	1.289	1.194	1.051	0.939	0.931	0.956	0.830	0.900	0.741	0.752	0.764	0.679	0.642	0.647	0.490	0.505	0.472	0.475	0.478	0.434	0.371	0.341	0.412	0.368	0.390	0.427	0.482	0.444	0.445	0.432	0.422	0.678	1.770	4.008	7.354	7.101	4.513	1.223	0.333	0.317	0.285	0.283	0.262	0.243	0.279	0.296	0.260	0.313	0.245	0.269	0.246	0.245	0.265	0.312	0.303	0.285	0.248	0.308
250.0	34.62	50.96	76.81	90.21	503.5	1805	2269	818.6	42.46	7.811	6.254	5.596	4.365	3.484	2.895	2.294	1.823	1.882	1.642	1.370	1.350	1.199	0.972	1.172	1.058	0.962	0.811	0.732	0.782	0.748	0.750	0.671	0.576	0.489	0.506	0.456	0.503	0.496	0.407	0.426	0.449	0.490	0.422	0.354	0.399	0.422	0.359	0.427	0.510	0.445	0.428	0.660	1.229	2.896	5.635	10.94	14.03	13.09	7.955	2.240	0.429	0.289	0.335	0.295	0.283	0.311	0.285	0.281	0.276	0.274	0.267	0.288	0.296	0.353	0.287	0.263	0.332
255.0	32.65	29.26	76.43	113.5	148.0	556.3	3128	5376	1254	41.72	8.689	6.775	5.926	4.384	3.148	2.547	2.167	2.123	1.818	1.500	1.430	1.345	1.063	1.187	1.034	0.940	0.866	0.811	0.858	0.748	0.742	0.721	0.607	0.618	0.546	0.490	0.425	0.486	0.461	0.382	0.469	0.405	0.431	0.359	0.384	0.400	0.407	0.381	0.428	0.529	0.578	0.649	0.691	0.900	1.561	3.042	6.428	17.40	32.27	26.58	13.94	2.408	0.494	0.327	0.359	0.288	0.262	0.318	0.348	0.299	0.324	0.278	0.262	0.338	0.297	0.347	0.306
260.0	35.24	23.94	42.37	132.2	138.4	156.8	1201	6128	6332	239.1	23.03	8.756	6.998	5.390	3.902	2.990	2.721	2.182	1.723	1.675	1.561	1.219	1.296	1.033	1.025	0.944	0.891	0.909	0.825	0.705	0.889	0.719	0.616	0.573	0.671	0.521	0.440	0.492	0.507	0.465	0.460	0.505	0.497	0.398	0.345	0.475	0.442	0.357	0.362	0.389	0.500	0.898	0.947	0.693	0.659	1.034	1.766	5.327	16.56	35.17	48.44	25.66	11.32	1.360	0.425	0.429	0.325	0.365	0.342	0.368	0.338	0.278	0.294	0.290	0.278	0.316	0.329
265.0	41.10	28.43	29.30	78.00	195.3	129.7	309.0	2626	9045	6114	187.1	14.33	9.535	6.114	4.943	3.562	2.842	2.405	1.955	1.781	1.693	1.263	1.321	1.028	0.985	1.060	0.922	0.931	0.810	0.867	0.921	0.695	0.686	0.615	0.636	0.584	0.617	0.533	0.489	0.487	0.475	0.503	0.528	0.460	0.368	0.475	0.456	0.425	0.359	0.331	0.350	0.663	1.012	1.028	0.918	0.630	0.731	1.588	4.309	11.92	31.96	54.95	59.88	22.88	6.254	0.889	0.444	0.359	0.337	0.400	0.333	0.351	0.282	0.371	0.325	0.358	0.375
270.0	78.90	54.74	35.59	39.92	122.4	257.5	224.0	668.1	3404	8649	8783	768.8	43.09	9.989	5.938	5.032	3.756	2.862	2.481	1.884	1.684	1.601	1.371	1.409	1.196	1.137	1.112	0.989	0.926	0.974	0.943	0.854	0.799	0.803	0.798	0.783	0.668	0.756	0.708	0.641	0.674	0.607	0.637	0.627	0.490	0.474	0.462	0.417	0.403	0.373	0.299	0.459	0.529	0.900	1.319	1.576	1.442	1.151	1.424	3.205	8.103	17.77	34.66	50.87	47.03	49.44	15.49	5.940	0.769	0.404	0.377	0.377	0.322	0.343	0.363	0.359	0.405
275.0	181.2	118.3	64.93	37.29	60.43	172.5	427.7	360.5	855.5	2408	8658	9999.9	1045	35.87	9.973	6.727	4.929	3.714	2.501	2.425	1.952	1.899	1.741	1.470	1.363	1.360	1.316	1.067	1.066	1.059	0.899	1.059	0.941	1.202	0.998	0.955	0.913	0.955	1.109	0.986	0.912	0.873	0.906	0.903	0.742	0.652	0.552	0.586	0.504	0.412	0.376	0.519	0.449	0.593	0.733	1.116	2.157	2.739	2.087	1.626	2.485	4.669	8.415	12.50	18.43	46.65	81.28	81.94	24.48	5.763	0.633	0.399	0.424	0.412	0.445	0.427	0.359
280.0	271.1	160.7	97.13	50.19	52.35	93.76	356.9	561.8	385.6	701.3	2851	9999.9	9367	146.0	20.29	9.439	6.329	4.793	3.464	2.731	2.455	1.939	1.815	1.787	1.397	1.146	1.279	1.196	1.050	1.184	0.960	1.042	1.002	1.431	1.214	1.227	1.353	1.233	1.243	1.222	1.145	1.186	1.079	0.985	0.951	0.895	0.784	0.747	0.595	0.417	0.370	0.537	0.471	0.570	0.750	0.688	1.273	2.268	3.587	3.076	1.865	1.889	2.881	3.720	5.101	12.95	33.48	72.12	98.99	33.58	18.75	2.267	0.716	0.546	0.404	0.378	0.469
285.0	369.2	237.1	139.2	67.44	53.35	75.28	212.5	620.7	592.3	389.9	926.1	3982	9999.9	7108	110.4	14.30	7.790	5.824	4.248	2.950	2.681	2.272	1.918	1.637	1.563	1.276	1.365	1.179	1.087	1.067	0.920	1.052	1.204	1.537	1.580	1.615	1.450	1.381	1.587	1.416	1.380	1.655	1.438	1.207	1.135	1.124	0.935	0.916	0.789	0.511	0.470	0.509	0.466	0.507	0.597	0.656	0.910	1.299	2.440	3.907	3.917	2.779	2.284	2.319	2.799	4.457	9.114	21.43	49.21	80.08	99.71	30.16	12.06	1.152	0.530	0.549	0.490
290.0	551.3	364.6	224.6	101.3	75.63	96.72	193.3	436.2	871.0	922.7	842.6	1480	3979	9999.9	8876	437.7	27.69	8.000	5.913	4.096	3.381	2.852	2.512	1.991	1.697	1.581	1.514	1.421	1.201	1.149	1.125	1.205	1.428	1.662	1.907	1.870	1.837	1.658	1.875	1.827	1.746	1.730	1.689	1.684	1.396	1.457	1.195	1.202	0.957	0.706	0.619	0.625	0.536	0.563	0.640	0.771	0.925	1.167	1.734	2.515	3.545	4.790	5.234	4.777	4.128	4.082	4.959	7.699	13.79	24.10	44.44	59.66	77.11	61.53	19.66	9.033	1.245
295.0	737.3	495.6	318.6	151.4	107.6	135.8	232.8	426.7	764.6	1387	1494	1291	1587	2850	7766	9999.9	623.2	24.35	8.105	5.471	4.233	3.132	2.816	2.325	2.021	1.725	1.803	1.395	1.333	1.450	1.181	1.195	1.579	1.920	2.198	2.237	2.014	1.843	2.106	1.986	2.017	2.031	2.023	1.959	1.739	1.873	1.590	1.632	1.257	0.936	0.728	0.755	0.707	0.714	0.828	0.955	1.135	1.447	1.868	2.597	2.938	4.055	5.101	7.663	8.674	6.724	5.998	6.312	7.413	8.898	12.75	15.58	22.37	41.14	81.80	99.71	30.85
300.0	835.3	601.0	380.9	189.0	135.9	162.4	290.8	488.7	806.1	1350	2005	1618	1257	1144	2404	9910	5833	88.01	13.39	7.488	4.901	4.034	3.176	2.699	2.058	1.964	1.820	1.481	1.427	1.402	1.324	1.316	1.669	2.027	2.467	2.297	2.352	2.269	2.277	2.205	2.112	2.110	2.098	2.077	2.131	1.984	1.635	1.765	1.425	1.113	0.888	0.872	0.758	0.888	0.846	1.088	1.361	1.570	2.304	2.954	3.319	4.143	5.382	6.859	9.145	10.44	9.633	7.663	7.022	6.675	6.631	6.343	7.027	11.24	26.90	63.73	97.96
305.0	860.3	684.1	431.1	222.8	163.8	199.1	342.0	577.2	911.6	1369	2017	2207	1424	896.2	837.2	3331	9999.9	4782	69.88	11.12	6.554	5.012	3.639	3.240	2.469	2.321	2.241	1.605	1.721	1.469	1.323	1.319	1.767	2.096	2.428	2.550	2.414	2.389	2.378	2.511	2.370	2.205	2.286	2.127	2.281	2.218	1.868	1.927	1.491	1.222	1.021	1.048	0.988	1.123	1.016	1.144	1.520	2.039	2.607	2.971	3.871	4.605	5.494	6.680	8.157	10.03	11.72	11.48	8.742	7.043	6.309	5.228	4.178	4.509	7.510	16.84	38.59
310.0	877.0	678.4	456.1	253.6	189.8	234.7	391.7	638.5	983.8	1412	1839	2185	1866	1035	576.9	950.0	3273	7620	6944	305.6	21.20	6.399	4.709	3.720	2.981	2.580	2.275	1.999	1.716	1.590	1.384	1.452	1.740	2.149	2.399	2.449	2.522	2.366	2.305	2.372	2.346	2.365	2.281	2.323	2.258	2.223	1.974	2.050	1.632	1.250	1.063	1.108	0.998	1.094	1.104	1.401	1.740	2.128	2.706	3.279	4.081	4.847	5.801	6.808	8.350	8.806	10.26	10.78	10.89	9.778	7.947	5.700	4.190	3.506	3.557	5.178	10.04
315.0	860.9	681.7	464.4	265.6	210.1	265.3	425.0	675.0	1010	1391	1733	1909	1835	1410	643.1	457.8	886.9	1912	5848	9056	476.7	18.79	6.517	4.785	3.544	2.875	2.364	2.265	1.889	1.798	1.437	1.477	1.684	2.251	2.285	2.567	2.375	2.284	2.289	2.349	2.206	2.567	2.293	2.299	2.149	2.073	1.899	1.939	1.661	1.248	1.008	1.185	0.990	1.192	1.289	1.454	1.987	2.148	2.734	3.520	4.138	4.991	6.019	6.663	8.007	8.141	8.897	9.113	9.380	9.106	9.960	8.482	5.471	3.800	3.051	3.043	3.662
320.0	859.8	680.1	464.7	276.6	222.4	291.8	443.4	686.8	1001	1363	1689	1805	1656	1476	881.3	395.2	383.1	524.1	1628	7637	7514	368.9	11.22	6.231	4.372	3.347	2.537	2.222	2.055	1.923	1.552	1.403	1.752	2.041	2.249	2.453	2.275	2.270	2.426	2.413	2.255	2.394	2.228	2.274	2.079	2.049	1.963	1.828	1.689	1.327	1.051	1.128	1.127	1.257	1.324	1.681	1.956	2.323	2.771	3.772	4.110	4.736	5.848	6.735	7.683	8.068	8.468	8.368	8.718	8.462	8.558	8.160	7.679	5.681	3.604	2.859	2.467
325.0	854.8	726.2	493.0	298.4	245.9	312.4	458.9	708.2	994.8	1334	1639	1747	1588	1304	1080	507.9	284.8	224.5	419.4	2356	8491	3831	56.38	8.219	5.124	4.244	3.167	2.420	2.342	2.077	1.787	1.531	1.851	1.866	2.131	2.139	2.122	2.215	2.159	2.255	2.268	2.172	2.079	2.251	2.268	2.213	1.997	1.921	1.829	1.389	1.117	1.254	1.085	1.219	1.411	1.688	2.096	2.667	2.996	3.694	4.186	4.994	5.576	6.732	7.598	7.571	7.838	8.288	8.406	8.062	7.562	6.953	7.293	7.173	5.062	3.282	2.385
330.0	872.4	752.0	544.0	359.4	293.8	344.9	491.8	716.9	987.8	1299	1582	1683	1543	1230	971.1	720.5	392.1	192.1	174.4	585.3	2547	5728	5492	1158	18.86	5.794	4.103	2.980	2.545	2.111	1.918	1.730	1.770	1.892	2.072	2.070	2.063	2.241	2.135	2.188	2.049	2.195	1.984	2.250	2.177	2.201	2.029	2.037	1.935	1.568	1.257	1.508	1.255	1.372	1.538	1.779	2.161	2.480	2.993	3.628	4.291	4.755	5.606	6.420	7.240	7.506	7.652	8.332	7.823	7.941	7.120	6.663	6.279	6.211	5.002	4.736	4.134
335.0	906.9	778.4	586.6	427.4	372.9	392.9	522.7	727.7	985.4	1277	1515	1643	1528	1239	903.5	663.5	601.9	296.1	157.1	215.4	629.9	1400	4510	7716	415.1	19.38	5.486	4.172	3.236	2.447	2.223	2.029	1.732	1.946	2.057	1.851	1.875	2.185	2.085	2.203	2.085	2.016	2.209	2.205	2.089	2.257	2.094	2.054	2.003	1.511	1.466	1.530	1.551	1.623	1.807	1.907	2.286	2.581	3.387	3.612	4.403	4.783	5.381	6.248	7.050	7.291	7.641	7.842	8.023	7.661	7.326	6.971	6.136	5.458	4.744	4.208	4.083
340.0	898.5	790.5	598.0	448.0	393.2	411.5	539.1	731.2	971.2	1244	1463	1584	1494	1225	899.6	599.8	571.6	457.7	199.2	156.0	221.7	374.7	1241	6149	6450	344.0	10.48	5.039	3.725	2.955	2.340	2.212	1.802	1.798	2.037	1.916	1.837	2.240	2.099	2.093	1.935	2.094	2.233	2.345	2.285	2.177	2.169	1.972	2.028	1.593	1.526	1.693	1.653	1.669	1.688	1.967	2.332	2.715	3.131	3.637	4.089	4.871	5.306	6.237	6.926	7.137	7.528	7.457	7.687	7.403	7.263	6.446	6.236	5.300	4.618	3.873	3.647
345.0	876.3	734.1	610.3	451.9	405.7	421.5	536.3	711.3	938.7	1193	1410	1509	1440	1197	890.0	589.9	471.7	506.0	321.7	166.0	143.2	159.0	331.9	1836	6829	3320	51.12	7.046	4.459	3.372	2.654	2.261	1.842	1.916	1.821	1.776	1.871	2.014	2.025	1.941	2.023	2.174	2.151	2.128	2.263	2.266	1.994	1.983	1.844	1.578	1.532	1.767	1.697	1.877	1.706	2.018	2.339	2.781	3.223	3.638	4.054	4.751	5.425	5.848	6.336	6.670	6.939	7.236	7.133	7.136	7.084	6.315	6.297	5.693	4.483	3.971	3.423
350.0	828.6	692.3	558.3	452.1	417.3	444.1	533.8	687.2	900.5	1111	1306	1401	1333	1143	874.5	600.5	447.9	410.8	419.8	294.1	173.8	138.5	153.3	461.9	1995	4458	4447	1104	18.11	4.681	3.248	2.728	2.053	2.011	1.774	1.902	1.938	1.997	2.061	1.940	1.972	2.074	2.109	2.060	2.130	2.199	1.919	2.076	1.980	1.578	1.497	1.635	1.797	1.819	1.864	2.109	2.336	2.842	3.060	3.546	3.917	4.558	5.145	5.509	6.004	6.177	6.600	6.657	6.808	6.834	6.324	6.232	5.926	5.455	4.514	3.752	3.560
355.0	788.8	656.4	520.8	444.5	420.1	447.2	534.1	676.4	850.4	1040	1202	1284	1230	1083	852.9	602.8	461.1	387.2	360.6	408.7	293.3	174.2	146.1	182.7	496.0	1067	3170	6184	397.1	21.19	4.530	3.281	2.436	2.184	2.017	1.820	1.868	1.941	1.965	1.681	2.004	2.031	1.973	1.831	1.926	1.889	2.062	1.882	1.924	1.479	1.338	1.778	1.674	1.954	1.901	2.137	2.479	2.686	3.007	3.501	3.826	4.313	4.814	5.244	5.678	5.936	6.082	5.949	6.197	6.202	6.015	5.788	5.776	5.201	4.410	3.957	3.517
360.0	742.5	613.6	484.4	426.8	431.4	453.1	538.8	665.9	824.1	1002	1130	1193	1165	1030	822.2	609.0	478.5	401.4	358.7	384.0	401.3	246.6	172.2	145.3	183.9	288.3	837.9	4417	5533	352.4	11.90	3.967	3.125	2.547	2.443	2.057	1.841	1.938	1.873	1.782	1.867	1.755	2.090	1.731	1.940	1.866	1.932	1.830	1.801	1.508	1.306	1.627	1.682	1.858	2.093	2.175	2.688	2.598	2.938	3.253	3.669	4.065	4.512	4.831	5.338	5.435	5.519	5.477	5.799	5.750	5.903	5.639	5.425	5.185	4.324	3.715	3.774
365.0	661.4	579.8	463.9	416.8	429.3	467.6	538.4	666.1	799.6	957.7	1076	1123	1090	983.8	812.7	612.4	500.2	432.9	384.7	360.6	415.9	360.5	222.5	162.1	135.2	132.8	232.5	1247	5189	3193	50.50	6.429	3.483	2.848	2.582	2.198	1.953	1.990	1.801	1.838	1.903	1.710	1.718	1.709	1.832	1.917	1.770	1.747	1.773	1.460	1.450	1.645	1.738	1.767	2.024	2.081	2.566	2.597	2.816	3.127	3.367	3.802	4.520	4.731	5.083	5.149	5.215	5.527	5.439	5.526	5.464	5.480	5.362	4.917	4.398	3.888	3.857
370.0	658.1	550.0	442.7	407.3	423.3	477.7	554.3	660.2	771.3	895.9	999.9	1049	1015	924.1	785.1	618.2	526.5	472.4	429.9	396.0	392.2	416.7	349.7	225.4	162.0	128.3	118.0	321.4	1453	3637	3964	1081	17.59	3.933	2.778	2.462	2.141	1.891	1.865	1.844	1.907	1.855	1.851	1.788	1.841	1.659	1.666	1.648	1.683	1.375	1.386	1.724	1.701	1.755	2.049	2.143	2.578	2.683	2.885	3.155	3.674	3.719	4.263	4.305	4.746	4.764	4.928	5.078	5.299	5.168	5.009	4.894	4.929	4.551	4.337	3.683	3.912
375.0	614.8	507.5	419.5	396.5	431.7	496.4	592.2	668.4	758.1	852.0	934.0	966.2	954.8	878.9	762.3	625.0	560.9	510.6	479.3	444.3	422.2	401.9	419.7	346.8	216.4	157.4	117.6	134.4	362.9	859.7	2500	5276	1496	20.62	3.638	2.922	2.304	2.037	2.159	1.840	1.798	1.829	1.754	1.780	1.707	1.551	1.565	1.665	1.566	1.393	1.497	1.769	1.746	1.960	2.015	2.243	2.458	2.735	2.840	3.382	3.415	3.712	3.879	3.935	4.476	4.389	4.437	4.614	4.756	5.108	4.640	4.581	4.764	4.582	4.284	4.103	4.073
380.0	593.5	488.7	415.3	389.9	439.3	509.3	596.5	676.3	747.4	823.7	894.1	925.0	907.9	846.8	750.1	640.3	573.1	544.0	513.1	484.7	455.8	417.7	409.9	419.0	290.1	188.3	135.9	107.5	130.3	227.5	647.7	3488	4795	304.7	11.27	3.414	2.555	2.348	2.403	1.847	2.015	1.813	1.810	1.827	1.763	1.615	1.479	1.729	1.555	1.333	1.281	1.577	1.837	1.891	2.068	2.420	2.658	3.154	2.975	3.359	3.506	3.716	3.776	3.883	4.410	4.162	4.397	4.603	4.392	4.965	4.647	4.641	4.444	4.412	4.436	4.138	4.036
385.0	561.7	490.5	400.1	390.2	461.2	541.2	623.1	699.8	752.1	812.1	862.7	892.9	879.7	824.5	741.9	648.8	600.1	571.6	545.2	516.0	491.4	447.3	410.7	416.0	372.5	235.9	163.0	120.1	95.73	97.77	178.2	954.3	3916	2672	230.7	5.537	3.347	2.613	2.655	2.095	2.024	1.856	1.915	1.574	1.747	1.578	1.475	1.581	1.526	1.239	1.343	1.716	1.865	2.141	2.331	2.605	2.675	3.154	2.992	3.153	3.411	3.684	3.899	3.976	4.065	4.264	4.238	4.381	4.192	4.646	4.654	4.546	4.602	4.459	4.064	4.384	4.080
390.0	556.1	482.8	396.4	406.3	473.8	582.3	678.2	738.5	761.3	806.0	843.7	863.9	847.5	809.0	735.8	661.4	620.5	597.5	579.5	550.5	520.4	484.3	440.8	403.0	389.9	334.7	221.7	153.9	117.6	92.93	90.61	247.9	1063	2617	2970	866.6	15.50	3.776	3.141	2.336	2.021	1.958	1.916	1.754	1.729	1.648	1.509	1.536	1.550	1.279	1.334	1.628	1.826	2.089	2.360	2.622	3.063	3.228	3.385	3.416	3.605	3.623	3.726	3.790	4.115	4.102	4.195	4.354	4.345	4.552	4.432	4.484	4.591	4.382	4.084	4.358	4.115
395.0	545.9	465.2	419.6	423.0	510.3	638.0	750.0	798.9	793.3	804.7	833.8	853.5	829.1	797.6	732.3	677.8	645.5	620.5	608.1	581.3	550.6	519.0	475.0	427.2	386.0	369.2	317.3	211.8	156.4	122.6	98.71	109.4	275.0	624.8	1756	3761	1190	18.62	4.491	2.768	2.346	2.044	2.103	1.819	1.735	1.592	1.412	1.618	1.560	1.228	1.302	1.618	2.030	2.246	2.667	2.908	3.230	3.513	3.684	3.527	3.821	3.885	3.871	3.860	4.008	4.159	4.044	4.207	4.208	4.265	4.032	4.411	4.301	4.084	4.182	4.348	4.267
400.0	550.4	467.0	406.4	430.5	543.8	688.4	808.1	854.9	823.2	815.2	842.2	843.0	824.7	796.7	749.4	684.3	654.0	637.1	627.6	603.0	576.2	542.8	504.6	453.6	408.0	373.2	368.5	284.9	199.3	156.9	124.2	99.31	116.0	178.3	462.8	2389	3468	260.6	13.40	3.625	2.754	2.444	2.208	1.794	1.873	1.703	1.563	1.669	1.576	1.324	1.344	1.661	2.135	2.454	2.585	2.950	3.478	3.672	3.939	3.955	4.051	3.862	3.882	3.910	3.940	4.035	4.050	4.045	4.384	4.177	4.171	4.561	4.289	4.071	4.477	4.384	4.601
405.0	553.9	477.9	418.6	440.2	560.5	732.5	879.4	898.3	863.2	841.9	849.6	854.8	824.8	799.4	749.3	697.1	668.7	650.4	640.4	616.0	589.3	561.6	521.4	480.2	434.0	392.7	373.7	355.1	253.7	194.3	156.6	119.4	98.01	92.98	143.3	663.4	2760	2241	224.7	5.731	3.206	2.646	2.315	2.016	1.841	1.673	1.597	1.647	1.491	1.352	1.405	1.870	2.105	2.469	2.693	3.168	3.741	3.848	4.087	4.466	4.021	4.398	4.061	3.874	4.036	3.892	3.999	4.259	4.384	4.372	4.140	4.488	4.225	4.537	4.536	4.386	4.607
410.0	549.8	481.8	410.8	453.1	599.0	792.5	975.1	1004	927.8	879.1	857.5	848.1	826.7	797.7	754.5	707.9	677.8	662.4	654.6	630.8	599.8	571.2	537.9	501.6	460.5	416.2	381.5	371.2	334.4	255.0	196.7	154.1	118.8	94.18	86.97	189.0	755.3	1947	2821	710.4	14.15	3.241	2.503	2.211	1.914	1.814	1.590	1.651	1.550	1.439	1.467	1.843	2.185	2.670	3.042	3.389	4.045	4.459	4.511	4.798	4.388	4.357	4.320	4.085	4.005	3.914	3.923	3.934	4.098	4.360	4.172	4.337	4.319	4.444	4.533	4.190	4.699
415.0	553.4	475.8	444.8	482.5	660.6	908.1	1127	1165	1035	900.6	843.0	836.0	814.4	798.6	755.6	723.6	698.8	682.0	669.0	639.7	598.6	569.3	535.3	502.7	469.5	433.8	396.3	361.6	357.7	328.7	244.2	185.2	143.5	110.5	86.78	92.37	202.6	465.6	1595	2732	263.2	15.71	3.105	2.410	2.111	1.919	1.689	1.649	1.568	1.512	1.470	1.976	2.386	2.788	3.450	4.045	4.586	5.157	5.648	5.521	5.035	4.985	4.463	4.044	4.006	3.847	3.938	4.075	4.187	4.239	4.105	4.615	4.452	4.357	4.463	4.320	4.936
420.0	561.9	481.2	430.1	509.6	726.2	1036	1321	1322	1142	952.3	846.5	824.9	813.5	797.8	765.1	740.9	724.6	707.8	696.8	654.1	601.5	557.6	527.4	501.8	475.7	439.9	407.3	374.6	356.3	358.0	295.1	214.9	165.4	125.8	96.71	77.53	85.98	130.4	407.5	1741	2129	228.7	8.494	3.046	2.376	2.007	1.765	1.896	1.659	1.475	1.636	2.222	2.505	3.149	3.793	4.423	5.393	6.159	6.475	6.227	5.817	5.089	4.914	4.408	4.179	4.029	3.856	4.104	3.994	4.006	4.141	4.381	4.416	4.469	4.775	4.467	4.777
425.0	565.4	499.2	468.7	553.2	819.1	1201	1566	1590	1298	1008	859.9	820.1	817.2	810.5	792.3	772.1	767.4	750.8	729.0	680.0	604.6	556.5	521.4	501.3	483.6	451.1	425.4	396.3	371.9	364.1	346.6	258.6	190.4	147.5	114.8	87.78	68.08	61.24	112.0	477.1	1912	1936	35.09	4.554	2.916	2.146	1.996	1.804	1.679	1.547	1.823	2.442	2.688	3.558	4.276	5.334	6.439	7.747	7.767	7.489	6.792	5.837	4.863	4.475	4.408	4.098	3.975	3.694	3.925	4.330	3.998	4.354	4.667	4.739	4.689	5.102	5.211
430.0	701.3	555.2	514.6	639.7	987.3	1502	2021	2057	1607	1131	895.2	839.5	841.2	851.3	847.6	848.8	850.4	834.5	809.4	735.1	621.1	550.5	519.4	505.9	497.2	479.7	461.1	442.2	420.9	397.7	382.8	335.1	249.9	188.4	148.1	111.8	79.41	56.48	53.10	124.3	523.8	1508	1785	554.7	12.37	3.008	2.293	2.092	2.145	1.769	1.955	2.828	3.340	4.352	5.223	6.672	8.377	9.307	9.831	9.172	8.454	7.068	6.101	5.128	4.527	4.005	3.952	3.746	4.271	4.280	4.461	4.637	4.765	4.961	5.315	5.471	5.821
435.0	1010	605.5	576.9	742.2	1187	1877	2581	2620	1977	1295	933.8	863.0	878.8	899.9	918.9	940.2	955.6	943.7	915.3	808.9	648.0	548.3	518.1	512.2	517.2	509.5	501.3	493.4	479.3	455.8	420.2	383.9	326.5	240.4	186.1	139.4	100.6	68.25	48.19	51.50	132.2	354.7	1041	2262	243.5	13.83	2.814	2.545	2.526	1.912	2.131	3.131	3.852	5.089	6.284	8.181	10.34	11.77	12.04	11.68	10.40	9.006	7.574	5.596	5.010	4.452	4.121	4.141	4.361	4.949	4.794	4.818	5.170	5.333	5.692	5.897	6.509
440.0	1272	696.0	622.3	807.6	1338	2178	2997	3027	2248	1401	948.9	880.4	910.0	934.4	976.9	1011	1039	1026	989.5	863.9	667.8	545.3	516.8	508.7	522.1	525.1	521.5	524.7	515.0	498.0	456.0	408.7	367.1	284.9	211.4	160.8	115.7	79.13	53.31	38.93	47.62	91.51	272.2	1527	1940	203.9	6.997	2.909	2.633	2.142	2.482	3.611	4.309	5.880	7.348	9.251	12.08	13.56	14.31	13.22	11.89	9.948	8.023	5.871	5.114	4.334	4.150	4.206	4.514	4.759	4.787	5.123	5.468	5.542	6.111	6.239	6.556
445.0	1273	855.1	660.8	870.2	1473	2421	3351	3364	2467	1486	974.5	888.3	918.0	966.5	1011	1069	1095	1082	1048	901.4	677.5	536.6	504.0	504.3	522.0	529.0	533.8	540.9	541.0	524.2	487.9	428.0	379.8	324.4	239.4	177.5	128.3	87.90	58.89	40.47	31.44	35.03	71.73	428.3	1774	1708	29.22	4.583	3.250	2.432	2.641	3.805	4.662	6.616	7.894	10.16	13.25	14.83	15.75	14.57	13.54	10.63	8.829	6.173	5.214	4.179	4.355	4.166	4.203	4.658	4.936	5.162	5.621	5.931	6.507	6.826	7.023
450.0	1043	1090	730.1	914.0	1567	2619	3658	3704	2672	1537	966.2	875.3	917.5	979.0	1037	1110	1145	1129	1094	923.8	671.8	517.3	480.0	486.7	509.4	527.5	539.3	550.4	555.7	544.3	511.0	450.7	386.5	333.3	274.4	200.5	140.6	97.32	66.29	45.75	32.48	25.34	28.92	105.5	490.2	1380	1592	476.6	11.13	2.912	2.870	4.028	5.061	6.864	8.707	10.79	14.48	16.16	16.97	16.31	14.68	11.58	9.161	6.559	5.170	4.264	4.121	4.028	4.507	4.589	4.727	5.190	5.678	6.153	6.508	7.157	7.655
455.0	865.8	1092	977.7	925.6	1644	2737	3811	3841	2766	1547	937.5	837.1	897.3	961.3	1034	1114	1149	1139	1100	923.4	650.4	487.6	450.0	460.7	483.3	506.5	530.5	546.0	554.7	550.6	516.1	458.1	393.9	327.7	279.1	223.0	154.3	104.2	72.28	50.44	35.34	26.47	21.31	34.24	117.8	322.7	885.9	1834	206.5	11.30	3.223	4.298	5.324	7.166	9.132	11.19	15.14	17.15	17.81	17.31	15.12	11.93	9.419	6.544	4.964	4.087	4.144	4.061	4.571	4.559	4.782	5.106	5.627	5.955	6.410	6.997	7.626
460.0	755.7	914.2	1133	957.4	1605	2691	3828	3839	2744	1537	901.1	812.6	861.0	922.2	995.7	1088	1128	1121	1077	900.5	623.6	459.4	423.2	436.1	459.8	482.9	510.9	529.4	541.3	541.5	509.0	454.0	386.9	321.1	269.0	226.4	167.2	108.4	74.95	53.62	37.81	28.13	21.12	19.68	35.47	79.26	225.6	1192	2545	159.9	7.124	4.519	5.232	6.958	9.258	11.35	15.37	17.04	18.07	16.71	14.68	12.26	9.012	6.441	4.901	4.046	3.895	3.974	4.448	4.535	4.659	4.958	5.460	5.861	6.329	6.705	7.081
465.0	732.4	753.4	1159	1005	1563	2633	3718	3743	2671	1491	869.5	768.9	818.5	885.1	965.7	1042	1090	1077	1026	862.4	593.3	430.1	396.0	410.8	433.0	458.8	483.5	507.6	522.9	522.2	496.6	442.3	376.0	313.5	254.8	211.8	172.5	115.2	77.20	53.93	38.75	29.47	21.51	17.47	17.81	25.09	56.68	327.2	2270	1294	127.7	5.793	5.410	6.885	8.852	11.43	14.88	16.49	17.35	16.72	14.40	11.66	8.631	6.438	4.713	3.838	3.902	3.743	4.079	4.068	4.602	4.802	5.397	5.765	6.132	6.393	7.133
470.0	668.3	633.7	868.2	1156	1478	2427	3450	3482	2484	1376	793.0	703.8	746.0	809.5	883.2	961.5	1003	989.5	944.7	783.4	538.0	385.5	353.9	369.5	391.8	417.9	443.0	465.7	481.4	480.8	456.8	409.6	351.7	292.8	236.1	191.4	156.9	118.9	79.72	54.31	39.23	29.65	22.24	17.52	14.06	13.25	18.85	78.24	619.6	1003	1154	390.3	12.43	6.857	8.570	10.78	13.68	15.49	15.87	15.53	13.42	10.79	8.362	5.836	4.422	3.589	3.606	3.511	3.761	3.899	4.212	4.840	4.794	5.345	5.675	5.771	6.735
475.0	603.6	555.2	600.3	1131	1509	2201	3117	3148	2221	1240	715.2	629.6	671.9	729.2	789.6	864.5	886.4	881.0	843.0	695.8	475.1	341.4	308.2	324.3	344.9	370.2	392.0	416.6	433.6	432.5	411.4	369.1	318.9	267.3	216.5	172.3	134.7	108.7	83.77	55.58	38.58	29.22	22.40	17.76	13.78	11.24	10.44	22.80	142.6	231.3	570.0	1267	203.4	15.40	7.932	10.17	12.41	14.30	14.36	14.09	12.19	9.671	7.558	5.120	4.019	3.414	3.388	3.082	3.124	3.312	3.810	4.284	4.258	4.872	4.867	5.394	5.958
480.0	548.6	517.7	482.5	923.9	1646	2035	2842	2888	2051	1126	654.9	569.4	606.1	665.6	713.7	790.1	809.5	804.7	769.8	635.4	429.1	306.4	278.8	294.0	311.9	338.1	357.1	376.9	392.3	395.3	378.8	338.3	294.8	245.4	201.1	159.2	124.0	96.98	81.93	58.89	39.32	29.12	23.08	17.63	14.34	11.31	8.998	10.46	36.35	55.65	141.5	725.7	1181	183.7	13.64	9.647	11.89	13.07	13.52	13.13	11.20	8.779	6.999	4.710	3.917	3.127	2.984	3.031	3.114	3.101	3.683	3.784	3.993	4.469	4.628	5.148	5.625
485.0	501.9	486.1	437.1	735.2	1723	2003	2599	2641	1875	1037	597.6	528.9	561.2	617.9	656.6	720.9	743.9	738.5	706.2	581.2	394.9	276.1	253.1	265.7	287.9	307.2	331.0	343.8	358.2	365.9	348.2	313.2	271.9	226.6	185.8	146.1	115.6	87.93	73.20	61.46	42.07	28.19	23.55	17.80	14.54	11.15	9.414	8.119	12.90	16.56	35.45	195.4	935.1	1076	165.0	9.746	10.92	12.04	12.69	12.11	10.13	8.026	6.512	4.431	3.718	2.769	2.670	2.868	2.861	3.046	3.376	3.618	3.602	4.084	4.438	4.679	5.221
490.0	430.8	424.1	386.2	571.7	1394	2261	2352	2338	1664	920.3	534.6	473.4	501.0	543.9	582.3	632.8	656.5	649.6	621.1	511.5	346.4	244.2	222.0	234.2	252.4	271.4	291.9	307.5	319.4	323.4	309.2	280.6	244.3	203.1	167.8	134.1	104.6	79.16	63.33	55.40	46.27	31.62	22.96	18.19	14.82	12.04	9.727	8.014	8.299	8.133	11.91	47.89	248.1	706.9	1154	403.2	17.81	10.98	11.50	10.43	9.373	7.564	5.738	4.077	3.277	2.550	2.453	2.546	2.669	2.731	2.965	3.137	3.363	3.664	3.903	4.217	4.631
495.0	389.2	377.7	349.9	459.9	952.2	2348	2391	2013	1432	802.4	472.7	415.6	436.3	468.1	507.5	543.1	560.7	552.2	538.0	440.7	300.9	214.1	193.9	202.9	218.9	235.8	254.4	267.2	277.1	279.3	268.5	244.7	213.4	180.6	147.5	119.4	93.84	71.02	55.96	45.03	42.33	36.66	25.35	17.78	15.18	12.61	10.19	8.268	7.942	6.584	7.069	15.16	59.73	164.4	538.9	1278	232.4	20.00	9.975	8.852	8.222	6.494	4.802	3.766	2.831	2.376	2.353	2.198	2.268	2.440	2.604	2.828	2.962	3.202	3.445	3.546	4.046
500.0	337.8	326.6	316.8	399.3	751.9	1988	2757	1805	1259	716.5	427.4	370.2	393.0	421.4	448.9	481.8	494.8	490.7	470.1	386.4	262.6	189.0	173.9	179.0	195.8	210.4	223.4	234.8	244.8	246.6	239.7	216.9	190.9	160.3	132.9	107.8	85.65	65.77	51.02	39.90	37.51	37.17	28.05	18.56	14.94	12.47	10.53	8.615	7.834	6.493	5.982	7.755	17.70	41.26	133.7	703.4	1134	205.3	14.41	8.655	7.142	5.807	4.273	3.398	2.653	1.868	2.105	2.024	2.227	2.072	2.331	2.402	2.436	2.821	2.984	3.243	3.404
505.0	320.1	271.8	294.4	361.0	639.9	1451	3076	1870	1110	630.6	377.5	338.0	354.0	373.8	395.4	428.3	435.6	432.8	415.5	341.1	231.0	166.6	152.3	158.8	172.5	184.2	199.8	208.7	215.2	220.2	211.6	192.9	167.7	142.3	118.7	96.46	77.33	60.08	46.84	37.06	32.15	32.88	29.57	20.30	15.05	12.50	10.43	9.090	7.810	6.802	6.255	6.105	8.414	13.53	34.70	185.5	793.9	1028	159.2	9.334	6.506	5.194	3.897	3.049	2.419	1.746	1.928	1.812	2.016	2.146	2.060	2.278	2.269	2.517	2.552	2.777	2.967
510.0	262.3	238.0	237.1	317.2	519.1	982.6	2521	2616	1016	532.2	325.6	286.6	306.1	313.7	332.4	360.0	365.4	358.6	343.7	284.9	192.0	139.5	129.8	134.3	145.7	155.2	167.3	178.4	181.8	186.1	179.3	163.0	143.1	122.1	102.2	83.81	67.23	52.14	41.39	33.61	28.85	26.12	26.71	23.55	16.34	12.55	10.38	9.125	8.062	6.846	6.515	6.096	6.206	7.279	12.31	46.12	206.2	609.9	818.6	324.0	15.13	4.671	3.531	2.746	2.176	1.719	1.667	1.688	1.739	1.840	1.888	2.049	2.118	2.250	2.322	2.446	2.696
515.0	219.2	201.6	185.8	273.1	432.7	728.7	1462	3205	1478	449.8	279.3	243.7	251.7	265.6	272.1	292.6	299.1	293.0	278.6	232.2	161.5	117.3	106.8	111.3	120.2	127.8	136.8	146.1	151.8	153.8	149.0	136.8	120.6	102.0	84.97	70.27	56.77	44.68	36.68	29.96	24.91	22.11	20.53	22.30	19.55	13.27	10.38	8.601	8.335	7.115	6.441	5.833	5.493	5.913	7.040	14.46	50.55	141.6	339.9	875.9	237.3	17.08	3.289	2.441	1.961	1.675	1.537	1.641	1.490	1.453	1.551	1.676	1.781	1.890	1.923	2.196	2.351
520.0	189.4	162.9	148.0	236.2	377.7	602.0	967.2	2580	2350	464.2	248.6	215.5	217.5	231.0	235.7	253.1	256.5	253.2	238.2	196.6	138.5	99.44	93.46	97.43	103.5	111.7	118.4	125.9	129.1	132.7	127.3	116.9	101.8	87.49	73.89	61.52	49.68	40.58	32.96	26.59	22.93	20.01	18.10	18.17	19.76	15.24	10.59	8.505	8.155	7.019	6.376	5.905	5.347	5.304	5.509	7.182	15.72	35.93	83.42	423.9	838.2	209.5	10.19	2.448	1.742	1.536	1.304	1.418	1.291	1.362	1.423	1.510	1.596	1.675	1.663	1.711	1.908
525.0	168.2	147.0	129.1	197.9	343.3	526.8	753.7	1565	3219	798.7	220.3	190.7	191.3	196.3	206.3	219.0	217.5	216.8	208.2	170.4	120.5	89.03	80.52	84.01	90.78	95.40	102.1	108.8	112.7	115.4	112.0	101.1	88.55	75.91	65.77	54.60	43.74	36.16	29.55	24.86	21.05	18.55	16.43	15.80	17.61	16.39	11.84	8.954	7.765	6.881	5.979	5.709	5.535	5.137	5.173	5.371	7.663	12.16	22.54	106.7	498.5	773.0	165.3	4.682	1.850	1.451	1.311	1.188	1.243	1.307	1.293	1.427	1.491	1.470	1.464	1.587	1.684
530.0	143.0	129.6	111.5	151.6	296.9	444.8	600.0	822.3	2430	2193	295.8	164.2	163.8	164.3	171.5	178.7	181.3	175.5	167.8	138.9	99.79	74.71	68.43	71.82	75.28	79.99	85.39	89.29	92.57	94.50	92.23	84.87	74.04	63.75	54.70	46.21	37.19	31.31	26.20	22.02	18.58	16.22	14.27	13.24	13.42	14.67	13.20	9.753	7.500	6.517	5.875	5.603	5.116	5.074	4.880	4.641	5.193	6.166	8.317	26.96	124.2	391.9	585.7	290.1	14.63	1.464	1.183	1.100	1.121	1.207	1.207	1.252	1.247	1.288	1.308	1.360	1.483
535.0	117.3	107.1	93.25	117.2	223.4	388.8	482.1	529.2	983.2	3026	1013	141.9	137.1	136.2	138.6	143.9	143.6	142.9	135.1	111.4	81.38	59.37	57.22	58.86	61.51	64.78	69.39	72.81	77.45	77.20	74.81	68.87	61.20	52.73	45.17	37.92	31.52	26.52	22.11	18.94	16.84	14.49	12.53	12.02	10.89	11.67	12.65	11.60	7.596	6.357	5.479	4.985	4.518	4.455	4.662	4.385	4.495	4.244	5.051	8.648	30.20	89.68	202.3	682.9	579.5	17.33	1.199	1.130	1.067	1.030	0.992	1.173	1.061	1.094	1.169	1.042	1.302
540.0	96.95	93.33	79.69	102.7	174.9	335.5	409.5	411.0	460.7	2149	1880	179.6	119.7	113.5	118.6	122.2	120.5	119.1	111.1	93.24	68.63	51.54	48.21	50.18	52.79	55.98	58.88	61.67	65.14	65.57	63.55	58.34	52.88	45.08	39.18	33.17	27.13	22.95	19.17	16.68	14.71	13.04	11.76	10.42	9.910	9.384	10.62	11.17	8.450	6.361	5.079	4.945	4.262	4.021	4.125	4.184	4.124	3.731	3.946	4.309	9.165	21.86	47.77	292.7	893.9	214.3	10.66	1.154	1.044	0.932	1.080	1.006	1.097	0.999	1.178	1.052	1.134
545.0	90.91	81.01	65.31	88.95	144.7	279.0	365.8	341.5	298.0	949.1	3002	514.7	106.1	99.46	99.68	104.0	100.3	100.3	94.58	79.44	58.26	44.51	41.35	43.01	44.26	47.44	50.06	51.64	55.23	55.26	53.87	49.42	43.97	38.18	33.52	28.16	23.50	19.70	17.19	14.83	12.72	11.83	10.53	9.516	8.638	8.047	8.225	9.924	9.299	6.701	4.804	4.352	3.832	3.968	3.823	4.096	4.059	3.424	3.318	3.194	4.073	6.546	12.18	70.06	411.7	556.0	165.3	4.667	1.147	0.982	0.922	0.943	0.923	0.927	0.962	0.840	0.817
550.0	90.97	72.45	58.69	68.80	111.4	199.2	319.7	284.1	221.4	333.3	1925	1883	139.3	81.60	79.07	82.69	81.14	78.06	74.47	62.19	46.34	36.33	33.10	34.59	35.42	38.12	40.88	40.48	43.67	43.54	42.99	39.47	35.57	30.95	27.53	22.90	19.38	16.22	14.26	12.41	10.99	9.894	8.752	7.926	7.478	6.911	6.476	7.445	8.234	7.006	4.966	4.035	3.595	3.364	3.248	3.270	3.480	3.296	2.850	2.733	2.570	2.987	4.018	16.71	96.99	233.9	390.1	208.1	15.96	1.117	0.873	0.902	0.797	0.741	0.768	0.858	0.791
555.0	77.51	65.55	49.64	56.24	78.69	148.5	254.3	252.1	169.1	160.2	596.0	2574	747.5	69.34	63.38	64.12	61.37	60.22	57.06	47.75	35.20	28.05	25.98	26.84	27.99	29.23	31.35	31.59	33.70	34.02	32.32	29.58	27.51	24.30	21.12	17.96	15.27	13.18	11.82	10.31	9.208	8.037	6.920	6.859	6.466	5.929	5.311	5.456	5.670	6.763	5.735	3.787	3.055	2.967	2.852	2.822	2.646	2.808	2.804	2.341	1.931	1.821	1.954	4.871	22.78	53.16	115.9	344.5	258.4	19.15	1.002	0.689	0.751	0.664	0.612	0.738	0.685
560.0	78.63	60.23	41.27	47.97	67.84	111.8	191.6	237.9	146.3	114.7	199.4	1639	1837	99.83	51.09	53.02	50.30	48.83	46.06	38.82	29.39	23.00	21.82	21.78	22.35	24.18	26.13	26.06	27.74	27.43	26.82	24.20	22.73	20.09	16.83	14.78	13.37	11.46	9.730	8.460	7.660	7.095	6.360	5.643	5.313	5.177	4.747	4.532	4.296	5.342	5.426	4.374	2.853	2.719	2.438	2.347	2.312	2.379	2.563	2.214	1.748	1.510	1.547	2.082	6.030	12.70	27.07	122.8	492.0	197.1	11.34	0.747	0.754	0.648	0.684	0.676	0.603
565.0	76.32	55.25	41.90	37.74	59.18	93.35	147.3	217.7	141.5	99.01	103.0	636.7	2485	352.2	44.95	43.09	41.19	40.22	36.97	31.82	24.65	20.05	18.37	19.36	19.48	20.03	21.16	21.65	22.44	22.75	22.50	20.47	18.33	16.29	14.31	12.16	11.01	9.411	8.489	7.630	6.956	5.909	5.269	5.207	4.940	4.302	4.189	3.893	3.524	4.077	4.555	4.545	3.123	2.240	2.285	2.203	2.090	1.947	2.099	2.191	1.698	1.376	1.359	1.421	2.261	3.680	6.835	28.78	198.2	340.4	137.6	4.996	0.689	0.653	0.646	0.571	0.620
570.0	80.30	55.95	40.83	34.06	46.15	73.18	109.3	164.7	158.4	91.35	85.66	211.3	1480	1417	78.90	34.56	32.85	31.71	29.29	25.38	19.00	15.78	14.18	14.92	15.50	15.79	16.17	17.03	17.46	17.77	17.37	16.02	14.11	13.03	11.50	9.682	8.897	7.584	6.917	6.262	5.489	4.958	4.428	4.416	4.109	3.629	3.526	3.203	2.956	2.922	3.256	3.878	3.183	2.364	1.945	1.919	1.862	1.673	1.748	1.848	1.864	1.537	1.184	1.145	1.325	1.546	2.289	7.151	46.03	125.4	221.1	132.7	13.83	0.858	0.591	0.597	0.535
575.0	77.30	54.87	36.56	31.83	37.31	56.95	83.93	113.3	167.9	109.7	88.14	113.2	445.3	1863	532.1	29.74	25.67	24.16	22.68	19.24	14.94	12.52	10.91	12.03	12.49	12.27	13.35	13.46	13.34	14.23	13.27	12.46	11.12	9.955	8.799	7.550	7.071	6.304	5.523	4.649	4.391	4.195	3.859	3.638	3.349	2.968	3.072	2.715	2.401	2.311	2.365	2.667	3.119	2.495	1.853	1.577	1.570	1.434	1.442	1.496	1.572	1.673	1.429	1.079	1.077	1.050	1.248	2.312	11.06	28.51	60.03	179.7	184.1	18.52	0.676	0.500	0.488
580.0	78.52	61.47	39.45	26.52	36.64	48.72	71.16	87.39	146.3	134.1	93.14	96.72	158.3	1154	1320	47.84	21.25	20.10	18.82	16.06	12.88	10.42	9.595	9.633	10.29	10.38	10.55	11.37	10.94	11.38	10.97	10.33	9.594	8.608	7.420	6.523	6.014	5.484	4.497	4.318	3.690	3.339	3.161	3.170	2.898	2.595	2.661	2.236	2.211	1.861	1.947	1.905	2.641	2.496	2.005	1.541	1.402	1.148	1.264	1.172	1.248	1.456	1.558	1.019	1.154	0.988	1.183	1.285	3.287	7.052	14.06	59.84	209.5	136.1	9.123	0.541	0.476
585.0	72.37	60.25	39.65	25.25	28.80	43.59	59.45	78.23	116.2	160.1	107.9	102.8	93.23	445.2	1738	110.4	18.09	16.47	15.49	13.06	10.63	9.017	8.209	8.291	8.816	8.685	8.469	9.199	8.944	9.709	9.053	9.171	8.237	7.289	6.209	5.797	4.810	4.743	3.899	3.580	3.273	2.939	2.629	2.873	2.582	2.247	2.199	2.048	1.841	1.762	1.548	1.575	2.003	2.361	2.069	1.579	1.381	1.186	1.167	1.086	1.068	1.228	1.501	1.316	1.025	1.011	1.064	1.095	1.405	2.263	3.709	14.35	79.37	203.2	90.51	3.739	0.523
590.0	78.07	61.63	40.22	24.91	26.07	35.52	51.47	68.86	91.18	156.0	131.7	105.6	85.21	147.3	1025	877.9	38.31	14.35	12.49	10.35	8.923	7.242	6.728	6.840	6.902	7.107	7.257	7.319	7.542	7.629	7.557	7.078	6.639	6.073	5.100	4.718	3.999	3.714	3.364	2.961	2.803	2.598	2.402	2.230	2.141	1.967	1.921	1.729	1.582	1.441	1.318	1.254	1.437	1.699	1.958	1.732	1.277	1.142	0.998	1.070	1.052	1.042	1.168	1.394	1.284	1.049	1.031	1.009	1.002	1.200	1.380	3.728	18.59	71.91	136.9	86.57	12.17
595.0	74.03	56.13	37.46	24.74	24.22	30.94	45.22	60.59	79.59	124.4	159.1	109.8	83.42	72.06	294.6	1202	277.8	12.10	10.45	8.953	7.365	5.946	5.439	5.742	5.602	5.729	6.101	5.557	5.713	5.911	6.212	5.555	5.145	4.709	4.110	3.521	3.282	3.013	2.675	2.469	2.319	2.108	1.962	1.724	1.749	1.566	1.618	1.567	1.417	1.277	1.033	1.077	1.130	1.190	1.586	1.706	1.383	1.106	0.983	0.925	0.897	0.952	0.984	1.116	1.486	1.319	0.944	1.015	0.988	0.884	0.816	1.325	4.717	16.45	36.59	108.7	113.4
600.0	75.43	56.88	36.78	23.46	23.88	28.63	43.32	56.11	70.69	105.5	162.3	121.1	85.66	55.89	88.59	776.2	719.2	21.10	8.710	7.321	6.705	4.996	4.782	5.140	5.204	4.957	5.152	4.900	4.936	5.091	5.151	4.770	4.386	3.982	3.623	3.082	2.978	2.651	2.342	2.200	1.891	2.002	1.764	1.696	1.651	1.480	1.409	1.272	1.339	1.137	1.041	0.943	0.873	0.859	1.085	1.431	1.414	1.135	0.910	0.876	0.828	0.904	0.963	0.964	1.295	1.377	1.080	1.009	0.999	0.816	0.801	0.771	1.522	4.119	8.662	35.48	124.6
605.0	66.08	52.43	34.34	22.13	22.40	23.30	40.43	54.83	71.84	100.2	152.7	135.9	90.35	53.96	40.98	297.0	1062	73.91	7.760	6.906	5.015	4.802	4.417	4.320	4.582	4.425	4.244	4.182	4.626	4.275	4.655	4.194	3.960	3.457	3.287	3.079	2.764	2.385	2.030	1.817	1.588	1.547	1.550	1.348	1.323	1.230	1.143	1.183	1.087	1.015	0.922	0.891	0.796	0.782	0.922	1.153	1.407	1.205	0.882	0.824	0.827	0.905	0.832	0.895	1.075	1.240	1.192	0.976	0.953	0.767	0.823	0.669	0.785	1.356	2.358	8.498	46.73
610.0	69.99	57.39	33.97	19.75	20.19	25.19	35.71	49.47	69.77	94.51	128.6	151.6	96.48	57.13	32.03	87.40	686.5	531.3	18.49	5.517	4.444	3.786	3.508	3.612	3.511	3.502	3.690	3.629	3.599	3.677	3.627	3.500	3.345	3.169	2.713	2.515	2.274	1.975	1.714	1.526	1.492	1.244	1.373	1.209	1.196	1.125	1.008	0.991	0.963	0.785	0.793	0.834	0.760	0.713	0.718	0.829	1.053	1.221	0.918	0.806	0.787	0.772	0.837	0.841	0.961	1.052	1.148	1.174	1.055	0.762	0.789	0.673	0.616	0.750	0.900	2.354	11.05
615.0	59.56	52.55	31.88	22.00	18.55	20.67	31.82	46.57	65.07	89.07	109.6	144.8	104.6	55.58	30.19	32.59	201.9	850.3	77.97	5.025	3.692	3.112	2.901	2.928	2.975	2.979	3.082	3.062	2.951	3.228	2.763	2.706	2.664	2.669	2.278	2.195	1.753	1.776	1.441	1.214	1.229	1.208	1.186	0.995	1.079	0.991	0.897	0.830	0.870	0.682	0.666	0.702	0.611	0.661	0.661	0.620	0.870	0.982	0.972	0.968	0.759	0.727	0.804	0.815	0.912	0.866	0.941	1.059	1.129	0.759	0.724	0.630	0.639	0.616	0.579	0.894	2.803
620.0	58.66	40.25	29.58	21.16	16.44	20.57	29.60	44.42	62.90	81.60	101.9	127.7	115.2	56.44	30.28	21.12	58.37	601.9	451.8	8.949	3.250	2.698	2.790	2.556	2.306	2.360	2.644	2.373	2.351	2.703	2.652	2.318	2.077	2.160	1.858	1.913	1.477	1.303	1.436	1.248	1.206	0.985	0.870	1.031	0.954	0.889	0.805	0.669	0.808	0.600	0.607	0.553	0.527	0.588	0.593	0.516	0.646	0.815	0.949	0.935	0.851	0.685	0.682	0.846	0.754	0.811	0.786	0.885	1.147	0.937	0.700	0.622	0.525	0.559	0.467	0.519	0.945
625.0	63.31	40.57	27.84	18.66	16.09	20.33	28.53	40.88	56.20	78.38	93.93	108.0	115.0	57.74	30.28	17.49	23.25	245.5	730.6	45.21	3.279	2.831	2.639	2.320	1.921	2.185	2.220	1.975	2.042	2.226	2.189	2.221	1.774	1.683	1.578	1.549	1.310	1.156	1.209	1.054	1.050	0.944	0.891	0.826	0.893	0.723	0.672	0.673	0.662	0.609	0.578	0.469	0.516	0.526	0.467	0.528	0.547	0.644	0.864	0.848	0.790	0.693	0.654	0.721	0.754	0.794	0.757	0.887	0.942	1.024	0.921	0.572	0.558	0.499	0.416	0.458	0.530
630.0	61.40	46.32	27.58	18.69	12.95	19.76	28.19	39.49	52.38	69.93	87.21	94.92	104.1	68.10	30.19	17.01	14.75	66.57	520.0	352.6	8.250	2.737	2.257	1.960	1.870	1.756	1.777	1.745	1.844	1.860	1.803	1.586	1.564	1.507	1.305	1.294	1.110	1.038	0.989	0.935	0.984	0.811	0.747	0.720	0.740	0.660	0.601	0.574	0.630	0.511	0.491	0.555	0.450	0.496	0.492	0.459	0.476	0.490	0.614	0.753	0.799	0.661	0.702	0.735	0.705	0.738	0.765	0.822	0.831	0.873	0.907	0.692	0.506	0.467	0.502	0.435	0.447
635.0	65.03	39.93	29.09	16.85	12.26	19.30	25.76	38.06	51.34	65.03	81.36	83.43	85.53	75.24	33.83	16.76	13.07	20.79	155.3	606.3	59.33	2.607	1.847	1.945	1.708	1.532	1.732	1.643	1.508	1.568	1.583	1.426	1.315	1.253	1.098	1.073	0.992	1.004	0.894	0.763	0.921	0.686	0.633	0.648	0.602	0.576	0.572	0.488	0.519	0.344	0.389	0.491	0.404	0.470	0.450	0.394	0.441	0.461	0.486	0.575	0.647	0.747	0.697	0.697	0.643	0.611	0.705	0.683	0.774	0.606	0.745	0.705	0.578	0.428	0.427	0.487	0.426
640.0	54.55	39.60	27.73	18.99	14.94	16.06	25.36	34.69	48.11	63.11	75.76	80.01	75.12	72.35	37.83	18.16	12.30	10.32	40.84	464.6	281.7	3.810	1.686	1.751	1.548	1.353	1.556	1.322	1.482	1.290	1.417	1.122	1.221	1.108	1.107	0.943	0.779	0.830	0.721	0.708	0.665	0.754	0.543	0.624	0.587	0.559	0.508	0.452	0.468	0.411	0.353	0.447	0.400	0.352	0.363	0.414	0.405	0.475	0.474	0.531	0.666	0.652	0.706	0.612	0.591	0.608	0.674	0.694	0.721	0.617	0.669	0.721	0.617	0.415	0.382	0.384	0.447
645.0	56.35	39.88	25.93	17.98	15.38	15.87	26.52	31.72	45.77	61.39	70.86	74.83	69.32	65.76	45.32	18.02	12.49	8.288	13.34	205.8	505.8	23.77	1.880	1.591	1.456	1.565	1.316	1.206	1.366	1.310	1.368	1.161	1.011	1.027	1.017	0.798	0.798	0.683	0.630	0.669	0.585	0.828	0.607	0.646	0.573	0.472	0.496	0.453	0.459	0.368	0.345	0.399	0.385	0.389	0.393	0.342	0.446	0.451	0.455	0.461	0.590	0.658	0.616	0.602	0.589	0.724	0.730	0.690	0.665	0.588	0.577	0.581	0.584	0.513	0.416	0.355	0.421
650.0	61.88	40.45	23.76	17.79	14.39	17.60	23.73	31.17	45.00	56.72	66.85	70.44	65.99	55.90	49.47	19.06	11.76	7.463	6.559	61.57	510.7	67.26	1.983	1.619	1.224	1.385	1.136	1.172	1.188	1.177	1.241	1.014	0.951	0.911	0.829	0.848	0.736	0.746	0.686	0.583	0.457	0.710	0.531	0.581	0.486	0.393	0.418	0.459	0.408	0.351	0.334	0.325	0.420	0.310	0.414	0.345	0.444	0.387	0.406	0.472	0.539	0.584	0.605	0.685	0.642	0.624	0.619	0.732	0.568	0.516	0.505	0.537	0.588	0.555	0.413	0.402	0.373
