Sample:	'1
File name:	T2025041705 人民政府南桥.FD3
Run date:	'10:21:58, 04/21/2025
Operator:	Administrator
Comment:	'

Instrument
Model:	F-2700 FL Spectrophotometer
Serial number:	23B8-004
ROM Version:	4J14000 07

Instrument parameters
Measurement type:	3-D scan
Data mode:	Fluorescence
EX  Start WL:	220.0 nm
EX  End WL:	600.0 nm
EX Sampling interval:	5.0 nm
EM  Start WL:	230.0 nm
EM  End WL:	650.0 nm
EM Sampling interval:	5.0 nm
Scan speed:	12000 nm/min
EX Slit:	5.0 nm
EM Slit:	5.0 nm
PMT Voltage:	700 V
Response:	Auto 
Corrected spectra:	Off
Contour interval:	50.000

Peak integration
Integration method:	Rectangular
Sensitivity:	1
Threshold:	1.000

Peaks
No.	ApexEX/EM(nm)	Height(Data)
1	225.0/560.0	53.14
2	225.0/580.0	56.05
3	230.0/345.0	1101
4	230.0/500.0	294.9
5	230.0/570.0	55.76
6	235.0/400.0	729.4
7	235.0/510.0	257.2
8	240.0/265.0	354.9
9	240.0/525.0	228.8
10	245.0/270.0	357.3
11	245.0/535.0	192.4
12	250.0/275.0	456.1
13	250.0/545.0	150.2
14	255.0/280.0	574.6
15	255.0/560.0	133.5
16	260.0/285.0	585.1
17	260.0/575.0	108.5
18	265.0/585.0	108.7
19	270.0/300.0	940.4
20	270.0/400.0	590.2
21	270.0/600.0	88.79
22	275.0/305.0	1127
23	275.0/610.0	82.38
24	280.0/310.0	999.4
25	280.0/340.0	817.7
26	280.0/625.0	68.28
27	285.0/315.0	932.5
28	285.0/635.0	52.53
29	290.0/325.0	839.1
30	305.0/345.0	517.2
31	315.0/355.0	409.1
32	320.0/360.0	382.5
33	325.0/370.0	365.2
34	330.0/375.0	356.1
35	335.0/380.0	347.9
36	340.0/390.0	319.8
37	350.0/400.0	302.5
38	430.0/505.0	29.21
39	445.0/525.0	17.45
40	460.0/340.0	3.027
41	465.0/345.0	2.894
42	500.0/270.0	1.943
43	505.0/275.0	2.933
44	520.0/285.0	3.578
45	530.0/290.0	3.512
46	540.0/295.0	4.731
47	545.0/300.0	5.483
48	550.0/305.0	5.627
49	560.0/310.0	5.146
50	570.0/315.0	5.242
51	580.0/320.0	5.215
52	585.0/325.0	4.937

Data points
	220.0	225.0	230.0	235.0	240.0	245.0	250.0	255.0	260.0	265.0	270.0	275.0	280.0	285.0	290.0	295.0	300.0	305.0	310.0	315.0	320.0	325.0	330.0	335.0	340.0	345.0	350.0	355.0	360.0	365.0	370.0	375.0	380.0	385.0	390.0	395.0	400.0	405.0	410.0	415.0	420.0	425.0	430.0	435.0	440.0	445.0	450.0	455.0	460.0	465.0	470.0	475.0	480.0	485.0	490.0	495.0	500.0	505.0	510.0	515.0	520.0	525.0	530.0	535.0	540.0	545.0	550.0	555.0	560.0	565.0	570.0	575.0	580.0	585.0	590.0	595.0	600.0
230.0	31.97	587.4	1947	732.1	42.00	4.331	3.682	3.227	2.850	2.203	2.331	2.137	1.771	1.593	1.345	1.118	0.923	0.862	0.781	0.608	0.626	0.577	0.487	0.452	0.473	0.444	0.375	0.364	0.366	0.371	0.319	0.324	0.303	0.253	0.263	0.233	0.257	0.207	0.205	0.229	0.263	0.299	0.322	0.247	0.191	0.216	0.650	3.347	6.746	5.695	2.368	0.505	0.176	0.149	0.149	0.116	0.131	0.127	0.117	0.150	0.128	0.125	0.120	0.130	0.120	0.139	0.134	0.129	0.124	0.131	0.116	0.125	0.107	0.146	0.111	0.165	0.119
235.0	92.22	172.8	1073	2243	589.9	68.99	5.099	3.989	3.443	2.286	2.395	2.159	1.857	1.804	1.425	1.448	1.084	0.940	0.834	0.702	0.637	0.765	0.612	0.466	0.484	0.484	0.397	0.402	0.369	0.340	0.348	0.342	0.301	0.293	0.251	0.234	0.261	0.196	0.282	0.201	0.235	0.282	0.252	0.366	0.343	0.312	0.321	0.946	2.485	4.763	7.465	8.730	4.615	1.000	0.203	0.180	0.140	0.105	0.163	0.168	0.147	0.158	0.114	0.141	0.127	0.144	0.119	0.127	0.125	0.149	0.108	0.116	0.108	0.138	0.166	0.151	0.109
240.0	137.3	138.1	308.1	1665	2648	472.7	40.34	4.646	3.586	2.553	2.648	2.360	2.591	2.235	1.740	1.410	1.207	0.958	0.869	0.712	0.609	0.539	0.597	0.605	0.479	0.483	0.536	0.398	0.343	0.375	0.338	0.364	0.320	0.248	0.237	0.210	0.212	0.217	0.279	0.242	0.244	0.249	0.238	0.306	0.438	0.572	0.422	0.420	0.745	1.372	3.685	8.977	13.42	9.725	4.028	0.726	0.177	0.121	0.161	0.176	0.153	0.189	0.138	0.139	0.122	0.129	0.135	0.211	0.133	0.176	0.117	0.139	0.142	0.145	0.165	0.134	0.118
245.0	95.85	200.2	141.9	521.0	2416	2886	365.2	17.05	4.696	3.758	2.911	2.652	2.403	1.932	1.896	1.346	1.072	1.018	1.024	0.722	0.684	0.688	0.536	0.507	0.500	0.432	0.422	0.456	0.341	0.411	0.452	0.384	0.358	0.259	0.291	0.195	0.243	0.243	0.221	0.228	0.259	0.230	0.203	0.243	0.330	0.505	0.617	0.623	0.465	0.418	1.027	2.620	7.765	13.60	16.77	10.12	2.786	0.392	0.198	0.175	0.164	0.165	0.135	0.108	0.158	0.114	0.153	0.147	0.135	0.222	0.136	0.135	0.123	0.157	0.118	0.135	0.140
250.0	39.14	127.7	235.0	224.3	721.7	2277	3268	1290	92.41	5.591	4.263	3.710	3.119	2.273	2.030	1.538	1.149	1.126	1.054	1.000	0.727	0.551	0.604	0.589	0.468	0.515	0.483	0.459	0.391	0.378	0.385	0.343	0.319	0.258	0.273	0.192	0.271	0.258	0.228	0.246	0.249	0.225	0.232	0.262	0.238	0.331	0.416	0.662	0.791	0.793	0.712	0.803	1.968	4.118	8.643	13.03	17.40	16.64	9.928	3.020	0.413	0.189	0.198	0.131	0.153	0.114	0.164	0.155	0.156	0.153	0.132	0.151	0.139	0.118	0.132	0.140	0.174
255.0	23.07	46.39	142.7	330.1	278.1	558.4	1999	4956	1839	105.7	6.655	4.970	3.617	3.062	2.747	1.315	1.190	1.015	1.111	1.206	0.848	0.761	0.771	0.626	0.523	0.619	0.504	0.418	0.380	0.330	0.418	0.352	0.359	0.354	0.278	0.305	0.258	0.236	0.201	0.241	0.268	0.224	0.249	0.240	0.228	0.326	0.319	0.325	0.366	0.699	1.183	1.305	0.999	1.130	2.126	3.114	5.498	12.82	25.66	27.64	15.89	3.466	0.363	0.157	0.154	0.168	0.139	0.132	0.154	0.164	0.124	0.160	0.149	0.138	0.127	0.135	0.218
260.0	20.30	23.33	55.93	251.1	349.3	192.7	562.6	3290	5884	1432	57.43	7.072	4.997	3.899	3.048	1.938	1.736	1.406	1.301	1.244	0.906	0.855	0.790	0.555	0.605	0.619	0.532	0.617	0.404	0.410	0.510	0.439	0.399	0.392	0.303	0.324	0.288	0.211	0.231	0.238	0.290	0.263	0.232	0.233	0.304	0.241	0.274	0.232	0.184	0.338	0.635	1.420	1.660	1.053	0.792	0.841	1.497	3.350	9.524	22.38	35.74	26.89	13.05	2.018	0.223	0.209	0.156	0.170	0.173	0.218	0.146	0.158	0.129	0.139	0.208	0.170	0.180
265.0	24.59	18.54	26.21	106.0	354.9	282.0	167.9	987.1	4875	6400	234.3	22.97	6.625	4.676	3.412	2.304	1.813	1.634	1.490	1.312	1.069	0.885	0.772	0.759	0.578	0.625	0.587	0.663	0.514	0.494	0.499	0.409	0.352	0.358	0.355	0.346	0.305	0.323	0.318	0.271	0.282	0.312	0.263	0.254	0.312	0.286	0.246	0.176	0.256	0.230	0.287	0.682	1.341	1.950	1.669	0.692	0.538	0.967	2.364	6.144	16.12	32.78	43.50	24.46	8.132	0.768	0.179	0.233	0.228	0.211	0.174	0.178	0.152	0.191	0.200	0.179	0.159
270.0	46.39	44.52	36.56	42.73	153.2	357.3	304.3	284.5	1394	4625	6721	2618	67.69	7.589	4.958	3.365	2.443	1.791	1.517	1.404	1.067	0.962	0.872	0.852	0.732	0.550	0.654	0.648	0.602	0.491	0.498	0.403	0.513	0.465	0.405	0.341	0.364	0.333	0.302	0.250	0.323	0.282	0.279	0.324	0.298	0.287	0.343	0.268	0.229	0.242	0.256	0.306	0.519	0.979	1.626	1.878	1.943	1.079	0.907	1.633	3.925	8.894	18.01	28.24	30.89	36.15	16.74	7.297	0.889	0.243	0.197	0.199	0.161	0.189	0.189	0.181	0.171
275.0	85.62	99.66	94.23	56.30	61.65	147.2	456.1	352.8	367.4	1112	3488	9597	1283	76.98	7.611	4.783	3.220	2.576	1.774	1.511	1.497	1.247	1.014	0.950	0.865	0.696	0.672	0.749	0.665	0.611	0.498	0.605	0.513	0.536	0.488	0.390	0.410	0.304	0.340	0.379	0.376	0.351	0.280	0.310	0.429	0.402	0.433	0.355	0.402	0.359	0.315	0.336	0.315	0.396	0.575	0.904	1.858	2.933	2.378	1.034	1.171	2.335	4.344	6.634	8.889	20.81	44.06	58.66	26.69	8.620	0.638	0.220	0.195	0.262	0.201	0.192	0.212
280.0	136.6	204.3	172.7	93.47	56.33	68.46	246.1	574.6	287.5	315.4	941.0	5516	9641	997.1	37.83	7.176	4.347	3.071	2.240	1.649	1.601	1.320	1.102	1.025	1.108	0.714	0.758	0.712	0.746	0.542	0.567	0.703	0.547	0.576	0.435	0.509	0.564	0.380	0.396	0.384	0.364	0.328	0.380	0.436	0.479	0.572	0.602	0.626	0.565	0.421	0.444	0.395	0.319	0.317	0.328	0.535	0.835	1.750	2.940	2.985	1.701	1.011	1.351	1.952	2.388	5.314	13.90	34.84	57.03	34.08	21.04	3.977	0.363	0.303	0.259	0.181	0.274
285.0	219.1	265.5	250.3	140.3	68.01	51.51	111.2	431.2	585.1	226.1	312.3	1562	7236	8224	665.9	15.96	6.080	3.866	2.981	2.261	1.692	1.423	1.177	1.225	1.082	0.712	0.792	0.671	0.613	0.748	0.609	0.671	0.592	0.508	0.554	0.625	0.640	0.440	0.484	0.513	0.413	0.384	0.448	0.466	0.495	0.778	0.749	0.823	0.752	0.631	0.478	0.543	0.379	0.467	0.320	0.369	0.462	0.822	1.433	2.999	3.578	2.378	1.260	0.977	1.132	1.807	3.765	8.889	20.81	40.57	63.61	31.33	15.10	1.531	0.326	0.253	0.271
290.0	290.0	351.9	341.1	204.2	101.6	73.19	87.35	202.2	516.8	612.0	329.5	518.7	1998	5656	7103	2184	37.41	5.995	4.345	2.805	2.217	1.729	1.401	1.361	1.256	0.838	0.813	0.734	0.713	0.743	0.682	0.711	0.643	0.712	0.663	0.663	0.692	0.587	0.504	0.533	0.473	0.532	0.556	0.560	0.632	0.876	0.870	1.129	1.033	0.885	0.644	0.689	0.563	0.469	0.407	0.438	0.440	0.573	0.827	1.355	1.987	3.080	3.512	2.650	1.733	1.442	1.671	2.854	5.558	10.56	21.82	31.35	46.33	41.78	20.87	10.62	1.826
295.0	333.7	448.9	406.2	264.7	147.4	107.9	114.0	160.3	278.6	614.3	803.8	437.9	669.0	1434	3363	8590	721.4	39.36	6.093	4.416	2.905	2.160	1.613	1.509	1.337	0.973	0.874	0.835	0.924	0.807	0.750	0.651	0.681	0.718	0.718	0.712	0.786	0.619	0.664	0.483	0.474	0.534	0.595	0.721	0.843	1.092	0.964	1.272	1.190	1.036	0.784	0.932	0.756	0.580	0.540	0.552	0.603	0.650	0.749	0.911	1.163	1.565	2.036	3.666	4.731	3.415	2.090	1.823	2.516	3.506	5.922	7.847	11.66	17.90	38.98	60.70	32.32
300.0	358.2	485.5	458.9	318.3	181.6	141.0	156.9	197.8	270.3	449.4	940.4	756.7	463.8	526.0	944.0	4829	7743	575.0	19.01	5.443	3.676	2.657	1.877	1.797	1.365	1.237	1.133	1.018	0.800	0.817	0.720	0.695	0.674	0.828	0.830	0.781	0.844	0.692	0.676	0.642	0.557	0.684	0.649	0.743	0.761	1.010	1.035	1.398	1.242	1.141	0.952	0.848	0.784	0.679	0.640	0.658	0.815	0.895	0.845	1.086	1.182	1.456	1.572	2.370	3.808	5.483	4.784	2.755	2.322	2.060	2.511	2.893	3.596	4.948	11.19	28.71	54.49
305.0	382.8	523.6	488.1	357.3	217.5	181.7	198.8	247.8	324.8	425.3	740.2	1127	630.6	392.7	380.6	1348	5971	5143	78.54	9.015	4.739	3.036	2.430	1.849	1.348	1.202	1.290	1.073	0.921	0.948	0.867	0.703	0.698	0.794	0.879	0.758	0.822	0.762	0.704	0.650	0.573	0.622	0.706	0.789	0.984	1.103	1.085	1.504	1.447	1.166	0.963	0.890	0.881	0.750	0.730	0.848	0.946	1.037	1.242	1.532	1.415	1.727	1.852	2.011	2.758	4.191	5.627	5.308	3.809	2.370	2.270	2.036	2.178	2.224	3.277	7.516	17.16
310.0	387.1	528.3	501.5	373.5	238.8	217.9	246.2	297.2	369.4	462.9	621.7	904.7	999.4	570.4	317.4	432.0	1639	4377	5079	1451	23.04	4.660	3.196	2.432	1.726	1.573	1.397	1.115	1.107	0.976	0.884	0.708	0.771	0.815	0.804	0.853	0.821	0.720	0.663	0.659	0.635	0.652	0.708	0.784	0.927	1.064	1.189	1.582	1.425	1.273	1.100	1.112	1.086	0.882	0.996	0.973	1.125	1.218	1.369	1.530	1.548	1.896	1.999	2.372	2.620	3.093	3.699	4.316	5.146	4.659	3.621	2.616	1.975	1.730	1.737	2.519	4.548
315.0	409.8	566.5	539.8	391.3	273.3	248.8	277.5	335.1	411.4	506.8	625.6	739.8	863.0	932.5	452.4	269.0	475.2	1065	2817	6504	506.9	20.99	4.620	3.165	2.148	1.878	1.686	1.196	1.511	0.923	0.958	0.735	0.821	0.806	0.806	0.956	0.734	0.769	0.699	0.645	0.625	0.705	0.764	0.897	0.941	1.078	1.221	1.490	1.535	1.337	1.041	1.234	1.170	0.974	1.143	1.120	1.339	1.392	1.462	1.770	1.784	2.045	2.261	2.549	2.830	3.036	3.208	3.316	3.563	4.174	5.242	4.947	3.511	2.083	1.684	1.594	1.936
320.0	448.5	602.9	613.3	430.4	300.0	276.8	306.0	362.0	437.9	533.4	648.2	726.6	762.1	900.5	722.5	302.7	253.6	331.1	761.9	4144	4213	395.2	9.355	4.393	2.719	2.199	1.738	1.313	1.468	1.029	1.049	0.829	0.905	0.771	0.920	0.787	0.721	0.717	0.750	0.626	0.657	0.765	0.665	0.866	0.989	1.226	1.565	1.694	1.840	1.636	1.236	1.291	1.320	1.125	1.163	1.248	1.324	1.457	1.513	1.822	1.939	1.998	2.271	2.742	2.879	3.162	3.275	3.370	3.513	3.452	3.932	5.027	5.215	3.636	2.516	1.591	1.649
325.0	503.9	691.8	734.9	538.4	348.9	305.8	327.0	388.3	472.7	563.7	673.6	751.0	751.5	750.3	839.1	473.0	239.4	192.9	242.5	1178	4613	3682	57.13	6.381	3.877	2.791	1.856	1.666	1.333	1.290	1.177	1.002	0.808	0.932	0.816	0.787	0.851	0.788	0.727	0.558	0.665	0.704	0.752	0.881	1.137	1.316	1.655	2.151	1.987	1.739	1.614	1.570	1.456	1.230	1.332	1.315	1.588	1.609	1.664	1.887	2.182	2.037	2.510	2.810	3.274	3.184	3.328	3.408	3.686	3.515	3.404	3.915	4.572	4.937	4.193	2.760	1.824
330.0	542.9	811.6	907.5	697.3	441.8	347.7	356.4	408.3	489.3	593.0	700.1	776.9	779.1	711.5	687.2	648.2	399.3	205.0	154.7	333.6	1326	3555	3903	1011	16.84	3.829	2.553	2.029	1.438	1.415	1.216	1.096	1.010	0.975	0.984	0.857	0.856	0.740	0.789	0.732	0.700	0.764	0.814	0.947	1.173	1.535	1.805	2.356	2.381	2.356	1.983	2.051	1.709	1.543	1.432	1.448	1.539	1.716	1.807	1.885	2.147	2.319	2.523	2.804	3.205	3.274	3.283	3.384	3.582	3.616	3.431	3.290	3.501	3.816	4.034	3.821	3.370
335.0	537.2	905.3	1012	817.1	543.1	401.8	385.0	428.8	513.6	611.2	717.9	800.2	803.8	732.8	644.1	557.3	587.0	343.8	176.4	172.6	357.3	859.7	2567	5130	404.4	15.92	3.883	2.608	1.873	1.524	1.369	1.232	1.053	0.964	1.001	0.876	0.815	0.755	0.746	0.703	0.736	0.831	0.888	1.112	1.286	1.621	1.882	2.462	2.718	2.590	2.127	2.245	2.003	1.690	1.540	1.635	1.828	1.660	1.842	1.951	2.203	2.375	2.612	2.842	3.117	3.236	3.578	3.355	3.603	3.697	3.551	3.559	3.451	3.547	3.063	3.113	3.835
340.0	582.8	895.7	1082	870.9	586.2	446.7	411.7	440.3	519.9	624.2	729.2	793.7	817.7	749.1	643.1	512.2	541.1	502.1	240.9	159.6	161.6	243.8	696.9	3704	3411	322.6	7.791	3.152	2.383	1.695	1.422	1.102	1.194	1.117	1.078	0.886	0.913	0.803	0.814	0.801	0.684	0.746	0.880	0.998	1.266	1.742	1.858	2.698	3.027	2.690	2.356	2.584	2.271	1.979	1.822	1.723	2.046	1.807	1.830	2.083	2.073	2.387	2.851	3.031	3.234	3.403	3.442	3.610	3.601	3.928	3.862	3.480	3.436	3.519	3.270	2.993	2.907
345.0	583.8	868.6	1101	908.0	633.9	463.5	435.9	451.2	511.7	613.5	709.0	781.8	804.6	739.8	636.0	510.8	458.3	517.2	370.6	182.7	131.2	121.1	203.2	1095	4096	2989	49.00	4.916	2.776	2.270	1.682	1.331	1.141	1.052	1.003	0.925	0.845	0.810	0.802	0.727	0.763	0.796	0.933	0.882	1.188	1.647	1.900	2.362	2.858	2.894	2.449	2.639	2.368	2.311	1.822	1.568	1.948	1.792	1.857	2.071	2.284	2.328	2.675	2.857	3.127	3.284	3.424	3.505	3.908	3.870	3.620	3.485	3.879	3.396	3.380	3.105	2.881
350.0	538.6	826.2	1042	910.0	653.7	498.0	462.8	468.2	521.3	599.0	690.2	754.0	770.9	725.3	632.6	521.7	438.0	414.2	435.7	311.5	166.6	120.7	111.5	291.5	1219	3035	3104	760.0	13.68	3.084	2.084	1.680	1.344	1.239	1.024	0.850	0.814	0.836	0.776	0.723	0.734	0.769	0.780	0.891	1.128	1.616	1.847	2.362	2.737	2.723	2.442	2.715	2.429	2.260	1.940	1.946	1.901	1.874	1.961	2.005	2.223	2.416	2.492	2.839	3.101	3.181	3.165	3.618	3.630	3.652	3.735	3.564	3.435	3.266	3.404	3.021	3.091
355.0	510.3	760.7	956.3	861.5	671.5	546.9	498.6	486.9	525.8	596.5	668.1	720.9	726.7	702.1	628.9	534.5	450.3	393.5	367.8	409.1	285.3	156.7	119.2	134.5	317.8	736.7	2190	3960	357.5	13.19	2.982	1.914	1.568	1.408	1.141	1.047	1.001	0.831	0.828	0.726	0.740	0.809	0.783	0.934	1.133	1.488	1.703	2.206	2.561	2.528	2.421	2.674	2.504	2.217	2.044	2.068	2.063	2.139	2.005	2.174	2.286	2.388	2.553	2.898	2.831	2.948	3.054	3.431	3.238	3.607	3.393	3.638	3.315	3.256	3.067	3.196	2.931
360.0	494.8	722.0	903.4	848.8	684.5	574.7	514.4	510.0	536.0	599.8	659.3	701.7	707.1	681.2	620.9	538.1	466.6	403.2	351.2	376.6	382.5	223.1	142.4	119.9	132.0	205.8	600.9	3039	3053	284.0	5.662	2.794	1.849	1.541	1.221	1.136	0.886	0.902	0.794	0.795	0.827	0.827	0.846	0.896	1.067	1.231	1.666	2.036	2.454	2.357	2.313	2.609	2.485	2.359	2.187	1.925	1.982	2.230	2.100	2.120	2.403	2.585	2.530	2.736	2.745	2.948	3.190	3.382	3.119	3.487	3.286	3.442	3.548	3.420	3.067	3.164	3.022
365.0	469.3	685.7	884.3	839.2	708.7	593.2	535.1	525.2	556.1	595.1	638.5	685.1	690.3	663.6	615.2	537.0	477.0	419.1	367.0	345.1	381.5	326.8	183.9	135.1	106.1	97.22	171.9	926.7	3542	2665	44.26	4.202	2.318	1.910	1.312	1.234	1.081	0.852	0.858	0.753	0.841	0.805	0.877	0.965	1.101	1.268	1.679	2.000	2.406	2.279	2.141	2.561	2.512	2.444	2.291	2.021	2.314	2.338	2.285	2.414	2.416	2.607	2.619	2.754	2.821	3.020	2.850	3.220	3.219	3.260	3.267	3.310	3.425	3.386	3.105	3.150	3.194
370.0	437.3	660.6	818.6	804.6	709.5	614.2	555.2	551.8	560.0	591.3	627.1	663.8	666.1	643.8	604.0	539.1	487.5	443.1	393.0	356.5	341.2	365.2	298.7	182.2	129.5	100.6	93.71	244.9	1069	2728	2781	195.0	12.48	2.407	1.704	1.366	1.123	1.006	0.918	0.798	0.767	0.729	0.866	0.931	1.118	1.167	1.494	1.922	2.195	2.160	2.065	2.408	2.521	2.433	2.175	2.078	2.144	2.314	2.274	2.362	2.422	2.564	2.529	2.680	2.826	2.876	2.788	3.025	3.074	3.049	3.101	3.271	3.239	3.193	3.174	3.140	3.152
375.0	406.9	627.1	764.1	781.9	715.6	637.0	575.3	573.8	575.3	593.9	614.3	641.7	644.5	623.1	585.5	539.3	495.3	458.7	415.9	381.6	343.6	327.6	356.1	284.9	170.1	124.5	96.26	108.7	275.9	665.9	2058	2875	307.2	11.49	2.552	1.741	1.354	1.098	1.011	0.913	0.870	0.766	0.770	0.882	1.139	1.154	1.463	1.852	2.192	2.074	2.050	2.549	2.482	2.430	2.534	2.226	2.238	2.340	2.499	2.358	2.425	2.614	2.511	2.843	2.563	2.683	2.843	3.159	3.012	3.044	2.918	3.137	3.057	3.020	3.198	2.902	3.007
380.0	397.8	611.3	731.5	765.7	715.0	641.3	594.6	566.9	568.6	583.0	609.4	633.6	632.7	611.3	577.2	534.4	499.7	463.4	430.8	397.7	360.2	325.4	328.0	347.9	229.9	149.3	114.0	93.66	110.5	183.7	570.2	2558	2610	238.7	5.328	2.235	1.611	1.152	0.930	0.914	0.748	0.816	0.846	0.884	1.087	1.218	1.288	1.875	1.973	1.940	2.024	2.396	2.647	2.330	2.512	2.167	2.300	2.403	2.483	2.381	2.538	2.455	2.478	2.712	2.561	2.776	2.675	2.865	2.779	2.953	2.936	2.915	3.053	3.011	3.242	2.936	3.199
385.0	400.8	573.6	712.0	749.7	716.7	659.1	606.7	575.2	570.7	596.5	603.5	620.0	623.0	601.0	565.2	524.1	497.6	472.8	440.7	410.6	378.8	339.6	313.4	337.9	307.9	188.6	136.0	104.9	86.64	85.40	159.7	781.1	2892	2202	37.25	3.276	1.915	1.415	0.979	1.034	0.908	0.916	0.810	0.905	0.995	1.304	1.332	1.796	1.796	1.780	2.015	2.347	2.726	2.462	2.433	2.299	2.565	2.333	2.746	2.555	2.598	2.516	2.575	2.527	2.733	2.657	2.728	2.885	2.767	2.849	2.819	2.956	2.981	2.918	3.182	2.953	3.169
390.0	383.6	549.7	709.6	742.2	708.8	668.8	619.8	584.6	580.8	590.1	595.7	604.0	601.1	581.0	552.3	515.8	489.7	468.2	443.5	419.8	387.6	355.3	323.8	309.3	319.8	272.8	179.0	131.6	103.4	80.50	80.01	205.8	848.6	2075	2114	548.6	11.21	2.096	1.311	1.106	1.035	0.914	0.939	0.946	1.052	1.173	1.391	1.675	1.735	1.835	1.940	2.291	2.564	2.400	2.424	2.389	2.635	2.461	2.617	2.433	2.489	2.452	2.607	2.749	2.672	2.644	2.777	2.756	2.700	2.797	2.872	2.961	2.828	3.059	3.032	3.032	3.078
395.0	373.9	536.0	676.4	713.7	704.3	664.3	616.1	596.6	588.9	577.0	585.6	588.3	582.0	565.8	539.8	500.9	483.0	462.7	442.3	424.0	394.0	369.3	341.9	314.0	295.1	302.3	259.2	171.5	129.5	101.9	79.71	88.64	217.7	501.2	1441	2381	264.4	11.71	1.851	1.496	1.151	0.961	0.955	1.002	1.140	1.273	1.367	1.608	1.822	1.738	1.851	2.345	2.477	2.390	2.479	2.603	2.658	2.567	2.521	2.422	2.645	2.604	2.530	2.750	2.583	2.675	2.526	2.625	2.589	2.761	2.759	2.819	2.596	2.806	3.031	2.954	2.826
400.0	374.8	538.6	658.4	729.4	704.0	667.1	631.6	604.7	590.2	583.4	590.2	583.6	574.5	555.7	530.8	494.9	469.9	458.2	439.5	420.6	394.9	375.0	349.6	326.3	294.4	285.0	302.5	225.8	154.0	119.5	92.04	72.78	84.68	136.5	389.8	1807	2162	218.2	5.569	1.782	1.296	1.167	1.009	1.017	1.114	1.211	1.320	1.598	1.752	1.642	1.844	2.252	2.394	2.429	2.571	2.517	2.634	2.456	2.600	2.425	2.444	2.548	2.547	2.622	2.611	2.606	2.457	2.703	2.683	2.581	2.777	2.840	2.749	2.811	2.831	3.015	2.909
405.0	381.8	523.2	657.9	703.8	698.7	665.9	637.5	612.6	593.0	578.1	581.9	576.5	558.8	546.1	516.8	480.7	461.3	446.5	434.1	415.9	398.2	380.2	354.7	330.6	303.4	280.3	289.5	276.1	188.5	138.2	108.6	80.73	63.41	60.89	108.2	519.5	2025	1853	34.43	3.069	1.672	1.317	1.124	1.114	1.119	1.341	1.339	1.624	1.863	1.749	1.872	2.179	2.414	2.218	2.441	2.516	2.621	2.615	2.522	2.415	2.417	2.570	2.468	2.704	2.776	2.632	2.501	2.538	2.713	2.591	2.634	2.854	2.818	2.590	3.068	2.702	2.937
410.0	354.6	530.6	639.7	684.5	690.2	656.2	639.5	605.8	595.9	576.3	579.4	567.6	547.3	532.8	501.7	466.5	445.3	429.5	417.5	403.4	389.9	374.8	359.0	337.4	313.5	287.9	270.1	274.0	249.3	176.3	128.5	96.10	70.00	53.50	51.67	135.4	565.8	1491	1669	509.8	11.25	1.693	1.376	1.163	1.168	1.365	1.330	1.662	1.745	1.670	1.858	2.187	2.436	2.423	2.517	2.546	2.603	2.699	2.624	2.704	2.508	2.646	2.589	2.613	2.628	2.614	2.486	2.463	2.513	2.496	2.620	2.780	2.676	2.754	2.865	2.759	2.719
415.0	327.4	487.7	608.0	634.7	683.8	660.8	617.9	605.1	595.2	562.2	556.9	557.8	528.8	504.6	483.9	442.9	424.6	409.0	400.4	385.0	374.4	366.1	351.0	336.4	318.4	294.4	269.2	253.7	258.2	232.3	157.0	111.0	83.15	61.77	46.75	55.17	142.7	353.4	953.3	1963	251.6	13.96	1.875	1.457	1.266	1.387	1.376	1.587	1.745	1.513	1.832	2.253	2.349	2.435	2.474	2.435	2.503	2.589	2.352	2.833	2.499	2.567	2.731	2.571	2.628	2.373	2.224	2.349	2.392	2.339	2.537	2.612	2.403	2.764	2.667	2.746	2.833
420.0	326.0	474.1	586.1	621.6	645.8	632.0	604.7	600.2	589.7	563.0	554.3	537.6	511.3	480.5	460.2	423.5	402.7	393.2	383.6	371.3	360.1	353.2	343.3	330.6	314.5	293.5	271.6	248.2	241.5	245.5	192.8	124.6	91.36	68.81	49.90	40.62	51.70	92.56	245.1	1221	1783	219.4	6.749	1.716	1.493	1.393	1.494	1.583	1.693	1.461	1.734	2.083	2.159	2.237	2.438	2.404	2.497	2.442	2.315	2.647	2.442	2.570	2.453	2.541	2.718	2.529	2.480	2.404	2.401	2.417	2.540	2.401	2.399	2.483	2.430	2.459	2.419
425.0	318.2	454.3	555.8	619.2	624.9	634.6	597.1	595.7	585.3	570.2	544.8	524.1	495.5	470.7	439.5	407.1	389.0	375.7	366.2	354.7	348.5	341.6	334.5	323.5	307.9	292.9	270.8	248.6	231.9	228.0	219.0	147.5	101.6	76.62	56.16	42.16	35.13	37.48	66.42	329.8	1393	1552	34.53	3.459	1.667	1.423	1.379	1.521	1.737	1.563	1.636	2.125	2.220	2.128	2.256	2.498	2.507	2.524	2.592	2.518	2.482	2.411	2.471	2.449	2.443	2.336	2.488	2.348	2.356	2.177	2.282	2.330	2.466	2.719	2.415	2.409	2.240
430.0	370.1	438.5	544.8	593.0	600.9	608.5	591.6	589.7	576.9	559.9	532.2	514.0	483.6	457.1	425.3	386.1	366.2	355.8	345.4	336.9	331.5	326.4	321.4	312.1	300.7	287.0	268.6	250.0	230.5	214.2	208.8	182.3	124.6	87.08	65.16	49.47	36.62	29.37	29.66	84.46	367.6	1047	1330	505.3	12.63	1.929	1.495	1.687	1.761	1.633	1.582	2.128	2.213	2.227	2.364	2.314	2.437	2.500	2.484	2.467	2.511	2.470	2.303	2.446	2.425	2.342	2.407	2.251	2.243	2.244	2.421	2.220	2.358	2.353	2.380	2.266	2.311
435.0	566.2	445.9	527.1	574.3	584.7	586.4	588.0	570.6	564.1	550.2	524.8	509.2	464.3	435.2	404.6	363.7	346.5	337.9	327.6	318.2	314.7	308.8	305.4	301.5	290.1	280.5	262.2	250.2	231.9	212.5	191.9	181.0	158.6	105.1	73.60	57.53	42.90	32.22	25.62	32.37	91.75	244.2	626.2	1653	246.8	17.82	2.221	1.764	1.818	1.707	1.659	2.074	2.173	2.115	2.354	2.310	2.368	2.459	2.490	2.367	2.508	2.481	2.406	2.479	2.555	2.252	2.370	2.275	2.221	2.174	2.242	2.150	2.273	2.065	2.116	2.158	2.262
440.0	714.8	524.5	497.2	563.9	577.6	568.0	582.8	564.2	553.2	543.5	521.4	495.7	452.0	422.6	382.8	348.3	333.7	321.7	313.1	303.6	303.4	292.3	293.7	287.9	279.9	270.8	259.6	245.5	230.9	213.3	187.5	169.3	164.4	128.8	83.69	62.77	48.48	36.76	27.97	23.26	32.01	63.83	155.7	892.2	1599	230.8	10.92	1.996	1.988	1.747	1.577	1.843	2.046	2.104	2.282	2.119	2.461	2.669	2.557	2.218	2.536	2.427	2.485	2.296	2.323	2.415	2.150	2.266	2.155	2.220	2.335	2.120	2.223	2.121	1.966	2.076	2.385
445.0	727.8	747.7	504.5	553.0	543.0	559.5	568.3	555.7	537.5	522.4	513.3	480.1	440.1	412.0	367.6	336.7	318.7	302.4	295.7	288.4	284.2	279.9	281.2	275.4	269.7	262.5	252.3	239.2	226.3	209.6	187.9	160.9	151.9	143.1	98.16	67.77	52.78	40.60	31.60	23.97	20.75	24.59	42.91	228.9	1075	1523	176.5	6.569	2.015	1.717	1.481	1.878	2.039	2.060	2.098	2.053	2.280	2.458	2.508	2.207	2.328	2.331	2.274	2.383	2.262	2.418	2.113	2.238	2.121	1.961	2.175	1.991	2.130	2.007	1.949	1.998	2.130
450.0	501.4	1106	664.6	514.1	524.2	537.0	528.1	523.3	513.9	504.8	486.2	455.9	420.3	381.5	346.8	313.2	292.7	279.9	273.6	267.1	260.7	258.6	258.8	254.8	251.6	243.8	237.4	225.9	215.8	201.0	181.9	156.7	137.9	129.7	115.5	82.41	57.47	44.96	34.92	26.95	21.23	18.25	19.23	58.38	272.1	860.6	1266	533.1	12.95	2.103	1.772	1.949	2.092	2.037	2.114	1.943	2.217	2.270	2.339	2.281	2.428	2.268	2.152	2.318	2.172	2.240	2.044	2.036	1.947	2.030	1.989	1.897	1.878	1.940	1.897	1.867	1.966
455.0	309.4	1064	1228	501.4	484.7	493.7	501.9	490.5	476.9	470.9	457.4	432.7	391.7	353.2	319.5	287.3	267.1	257.4	249.7	241.9	236.3	234.8	234.8	231.1	230.7	224.8	218.2	210.1	203.3	193.5	174.9	151.5	130.8	112.4	107.9	97.33	68.04	48.69	38.15	30.00	23.18	18.93	15.27	21.60	67.38	198.6	470.2	1339	754.0	17.06	2.084	2.035	2.084	1.984	2.058	2.034	2.094	2.187	2.150	2.140	2.326	2.050	2.325	2.308	2.060	2.085	1.894	1.820	1.927	1.887	1.899	1.913	1.897	1.758	1.869	1.678	1.656
460.0	239.1	694.6	1696	684.4	452.0	454.3	465.5	460.8	456.6	453.8	432.5	407.5	364.3	335.1	298.7	268.4	248.9	238.3	228.3	224.0	217.9	216.4	215.9	213.1	210.9	208.3	203.3	197.2	191.9	182.6	167.5	146.4	125.8	108.9	96.55	95.50	78.83	53.25	40.66	32.15	24.47	19.85	16.04	14.67	22.48	50.45	113.1	608.5	1431	184.9	12.29	2.430	2.057	2.068	1.916	1.810	2.030	2.152	2.161	1.975	1.971	2.052	2.393	2.118	1.883	2.254	1.859	1.866	1.758	1.727	1.903	1.835	1.723	1.640	1.783	1.606	1.613
465.0	226.7	418.9	1590	964.7	438.6	427.0	454.4	443.5	434.3	426.8	407.1	383.9	347.5	302.8	281.9	251.5	230.5	220.3	212.4	204.7	204.1	200.8	201.4	197.1	196.6	194.6	189.7	185.6	179.2	173.9	160.2	139.3	121.0	103.7	90.10	85.47	83.83	61.21	42.37	32.72	26.50	21.29	17.46	13.97	13.35	18.25	30.84	150.0	809.5	1204	159.7	8.834	2.230	2.086	1.898	1.916	1.977	2.066	1.968	1.861	1.818	1.885	2.056	1.873	1.881	2.063	1.903	1.636	1.664	1.760	1.716	1.604	1.595	1.595	1.538	1.526	1.625
470.0	227.1	286.8	932.8	1762	705.7	394.3	398.0	403.6	394.5	390.5	372.7	351.4	315.6	280.5	251.7	225.7	207.1	196.6	190.1	183.4	181.0	178.3	178.4	175.7	176.3	174.7	170.2	167.0	163.4	157.9	146.4	128.9	113.0	97.27	84.95	74.47	73.44	68.01	49.09	34.92	27.37	22.71	18.12	14.97	12.23	11.74	13.10	38.63	198.8	610.3	923.5	514.7	14.21	2.253	2.071	1.825	1.844	1.868	1.812	1.729	1.896	1.868	1.936	1.862	1.673	1.789	1.772	1.671	1.590	1.666	1.486	1.562	1.416	1.462	1.372	1.440	1.398
475.0	236.3	243.3	445.4	1524	1491	410.9	364.2	364.0	366.6	348.0	340.5	321.3	287.9	256.1	229.2	200.9	185.8	174.7	169.9	162.9	157.5	156.3	155.9	156.8	157.0	153.4	151.5	149.8	146.8	141.8	133.1	118.9	104.5	90.40	78.67	67.59	61.02	61.02	57.00	39.69	28.26	23.38	19.47	15.59	13.56	11.59	9.711	14.02	48.71	140.1	305.7	921.6	632.4	19.32	2.044	1.833	1.777	1.746	1.714	1.550	1.641	1.554	1.804	1.694	1.608	1.557	1.571	1.484	1.507	1.418	1.276	1.379	1.346	1.356	1.329	1.230	1.347
480.0	209.9	236.4	309.2	902.1	2003	562.1	333.2	338.9	342.1	326.4	318.6	301.4	270.7	238.7	209.9	187.8	171.0	162.2	154.2	149.6	143.9	143.1	141.8	141.8	144.1	140.1	138.6	135.8	135.9	130.8	124.0	111.2	97.60	87.15	75.83	65.41	57.14	52.01	55.25	46.50	31.10	24.20	19.75	16.34	13.89	11.60	9.251	9.016	15.69	35.33	72.98	369.3	1097	208.2	13.99	1.911	1.915	1.505	1.593	1.547	1.523	1.583	1.550	1.731	1.463	1.465	1.635	1.361	1.438	1.522	1.157	1.245	1.307	1.242	1.251	1.138	1.224
485.0	193.3	261.7	277.6	489.3	1889	1154	325.9	316.2	322.7	304.9	298.6	284.0	254.6	224.1	194.8	174.4	159.9	150.8	144.8	138.2	133.5	132.8	132.7	129.8	130.4	130.7	129.1	126.3	124.4	122.7	116.6	105.8	94.36	82.63	72.52	62.96	54.68	48.00	48.86	47.89	35.38	24.94	20.14	16.75	14.21	11.79	9.925	8.437	8.723	12.01	20.00	90.17	578.2	962.1	183.0	7.828	1.995	1.514	1.548	1.603	1.575	1.513	1.532	1.629	1.453	1.381	1.453	1.304	1.341	1.383	1.223	1.265	1.188	1.197	1.114	1.156	1.073
490.0	152.9	274.8	266.8	322.9	1040	1897	584.8	292.0	292.0	284.8	271.7	256.8	231.0	207.0	180.6	157.2	145.2	136.4	132.1	125.9	120.5	121.4	119.7	118.0	119.4	117.3	115.7	114.7	114.0	111.3	105.8	96.77	86.46	77.13	68.01	59.78	51.89	45.22	41.80	41.78	39.88	29.57	21.05	17.34	14.71	12.32	10.46	8.939	7.480	7.148	8.192	23.65	140.4	447.2	812.4	473.6	15.56	2.043	1.605	1.614	1.546	1.452	1.443	1.370	1.504	1.325	1.330	1.261	1.294	1.259	1.213	1.173	1.163	1.134	1.049	1.035	1.069
495.0	122.1	227.3	288.8	257.8	429.0	1621	1387	298.5	270.5	259.5	249.7	238.2	208.8	183.9	162.6	143.1	132.3	122.1	116.4	114.0	109.8	108.0	106.7	104.4	105.7	103.7	103.8	103.4	100.6	99.74	95.01	87.40	79.68	70.16	62.22	54.88	49.20	43.43	37.34	34.72	36.01	35.21	24.19	18.14	14.61	12.60	10.90	9.455	8.038	6.420	5.783	8.800	34.20	102.7	279.7	866.9	635.6	21.29	1.838	1.586	1.288	1.426	1.346	1.358	1.312	1.266	1.221	1.160	1.103	1.215	1.086	1.022	0.970	1.106	0.941	0.973	1.011
500.0	104.7	171.9	294.9	231.8	271.7	925.7	2040	406.4	241.1	238.8	235.5	217.5	195.0	170.1	148.7	132.4	118.9	112.1	106.7	103.5	97.36	96.42	95.36	95.89	94.87	93.70	92.91	94.87	92.41	90.49	87.09	80.97	72.77	64.02	58.64	51.42	45.62	40.32	35.15	31.68	30.26	33.37	27.60	19.13	15.07	12.76	11.03	9.688	8.316	6.696	5.461	5.221	10.58	25.56	66.47	344.9	1018	229.1	15.05	1.707	1.472	1.254	1.201	1.220	1.182	1.233	1.202	1.142	1.028	1.136	1.102	0.987	0.851	0.973	0.839	0.838	0.950
505.0	98.63	145.4	268.5	248.1	217.4	446.6	2006	1013	229.5	220.9	215.3	197.0	176.9	155.7	141.6	119.4	108.8	100.4	96.93	93.58	89.72	87.87	86.33	87.05	83.94	84.34	84.84	84.27	82.75	83.02	79.28	73.48	67.61	60.99	55.07	48.07	43.02	37.75	33.31	30.05	26.51	28.90	29.21	21.73	15.27	12.73	11.01	9.595	8.175	6.609	5.745	4.730	5.619	8.370	17.32	83.27	502.5	915.3	196.8	7.404	1.366	1.433	1.127	1.153	1.032	1.081	1.052	0.955	1.030	0.995	0.967	0.871	0.777	0.822	0.832	0.797	0.915
510.0	87.79	120.7	205.0	257.2	198.5	244.8	1070	1890	440.9	197.3	191.2	172.4	155.8	139.2	122.7	106.7	96.52	90.68	86.12	82.01	79.13	76.04	75.60	75.93	74.12	74.49	74.58	74.15	73.42	73.06	70.55	64.73	59.61	53.32	48.26	43.10	38.66	34.35	30.32	27.74	24.06	22.55	24.66	23.59	17.30	13.01	10.67	9.322	7.841	6.610	5.996	4.833	4.344	4.604	6.328	20.89	120.5	410.3	688.8	334.1	14.97	1.623	1.148	1.168	1.011	1.022	0.993	0.842	0.988	0.826	0.805	0.789	0.792	0.813	0.772	0.688	0.743
515.0	80.50	110.1	139.5	247.9	205.4	177.3	394.6	1753	1283	202.1	167.5	154.4	140.3	120.7	106.6	94.14	84.98	78.10	75.24	70.96	68.73	66.56	64.90	65.41	63.14	63.96	63.40	62.93	63.65	61.85	60.84	57.17	51.55	47.25	41.97	37.92	33.91	30.23	27.70	24.72	22.33	19.55	18.76	20.93	20.47	14.16	10.30	9.242	7.538	6.537	5.724	5.392	4.226	3.674	3.873	6.973	28.81	93.45	218.8	670.7	517.6	20.24	1.349	1.249	1.089	0.788	0.861	0.895	0.930	0.774	0.728	0.739	0.632	0.624	0.707	0.593	0.603
520.0	69.08	102.0	124.3	194.9	222.2	162.0	206.5	992.6	2067	284.2	153.0	140.7	124.5	108.8	96.29	85.57	75.83	71.65	66.93	62.57	61.50	60.35	58.05	57.57	57.04	57.31	57.13	56.84	57.38	55.71	54.28	51.21	46.71	42.75	38.96	34.75	30.89	28.00	25.74	21.95	20.50	18.28	16.84	16.58	19.51	16.72	11.09	8.701	7.249	6.301	5.773	5.104	4.283	3.678	3.194	3.891	8.460	22.70	51.30	271.2	808.0	222.2	12.58	1.290	1.034	0.901	0.843	0.692	0.843	0.788	0.678	0.679	0.702	0.573	0.685	0.658	0.558
525.0	63.65	82.20	109.7	155.1	228.8	152.2	153.9	421.4	2189	866.2	142.2	129.2	112.3	97.37	88.46	77.22	69.27	64.22	59.68	58.27	54.71	54.91	51.88	51.59	52.47	52.32	50.90	51.46	51.67	50.57	49.00	46.15	43.07	38.93	34.81	32.15	28.67	25.35	23.28	20.92	18.87	16.41	14.87	13.95	16.31	17.45	12.70	8.792	7.053	6.149	5.355	4.869	4.502	3.723	3.061	2.984	3.819	6.886	13.16	65.19	390.2	694.1	178.0	4.821	1.020	0.902	0.797	0.741	0.717	0.693	0.608	0.605	0.628	0.621	0.652	0.670	0.603
530.0	58.69	76.19	91.46	117.0	191.7	172.7	124.3	188.0	1181	1908	320.7	113.0	99.34	86.71	74.74	66.57	60.79	56.66	52.24	50.18	47.69	46.34	45.05	44.85	45.12	44.47	44.25	43.63	44.66	43.80	42.41	39.74	37.14	33.69	30.49	27.79	25.54	23.06	20.48	18.83	16.79	14.65	13.48	12.28	12.57	14.79	13.35	9.933	6.935	5.815	5.038	4.561	4.060	3.794	3.229	2.835	2.726	3.253	4.457	16.00	93.93	314.5	511.1	248.6	13.16	1.134	0.763	0.775	0.645	0.684	0.620	0.560	0.591	0.562	0.465	0.552	0.544
535.0	50.49	69.05	81.56	96.42	130.8	192.4	118.1	119.0	380.5	1852	1155	112.0	88.44	77.57	66.38	57.83	52.44	48.86	44.18	42.43	40.85	39.59	38.74	38.03	38.20	37.46	36.79	36.55	37.82	37.51	35.99	34.09	31.29	28.83	26.17	23.61	22.02	19.95	17.76	16.62	14.85	13.27	11.69	10.83	10.40	10.93	12.03	11.37	7.561	5.506	4.807	4.101	3.906	3.336	3.264	2.913	2.557	2.359	2.327	4.901	22.21	71.47	164.5	509.8	235.5	17.18	0.932	0.772	0.657	0.636	0.581	0.572	0.539	0.485	0.405	0.465	0.460
540.0	47.21	56.61	75.06	81.24	97.87	175.0	132.5	96.29	160.3	1011	1954	187.3	77.47	68.43	58.88	52.03	46.07	43.28	40.73	37.77	36.07	35.37	34.12	33.87	34.38	32.90	32.48	32.83	33.58	32.95	31.98	30.37	27.20	25.82	23.06	21.20	19.28	17.86	16.06	14.78	13.17	11.97	10.90	10.07	9.256	8.884	9.496	11.27	8.623	5.611	4.542	3.966	3.579	3.181	3.098	3.071	2.593	2.202	1.833	2.384	6.218	17.06	38.58	205.0	528.3	197.9	9.249	0.783	0.718	0.581	0.549	0.471	0.498	0.499	0.371	0.444	0.436
545.0	41.57	52.77	65.50	77.37	79.45	140.9	150.2	89.21	101.8	378.5	2178	638.0	73.23	61.97	51.41	45.49	40.43	38.06	35.72	32.56	31.83	30.87	30.00	29.61	29.47	28.79	28.64	28.26	29.00	29.31	26.80	26.89	23.82	23.07	20.85	18.98	16.93	15.68	14.28	12.91	11.83	10.95	9.661	8.693	8.137	7.501	7.419	9.527	9.197	6.118	4.207	3.584	3.303	2.871	2.783	2.824	2.927	2.140	1.836	1.838	2.543	4.912	9.709	49.15	262.8	498.2	141.0	3.287	0.657	0.594	0.482	0.498	0.468	0.501	0.416	0.440	0.457
550.0	34.86	47.53	58.31	63.50	65.34	89.31	148.7	96.19	77.80	141.7	1101	1680	133.9	53.47	44.00	38.63	33.76	31.97	29.13	27.31	26.56	25.27	25.15	24.61	24.44	24.01	24.20	23.76	23.81	24.27	22.76	22.42	20.44	19.14	17.44	15.65	14.54	13.54	11.92	11.37	10.15	9.178	8.299	7.795	6.848	6.678	5.959	6.504	7.704	6.688	4.727	3.406	2.897	2.618	2.461	2.305	2.559	2.371	1.867	1.630	1.557	2.123	3.124	12.01	63.01	222.0	357.0	136.3	11.91	0.765	0.528	0.480	0.469	0.504	0.368	0.358	0.381
555.0	43.61	49.66	50.80	55.43	51.33	60.33	113.8	126.2	69.68	76.28	317.1	1693	799.4	49.35	34.46	31.28	27.74	25.19	23.10	22.23	22.23	20.33	19.58	19.41	19.25	19.44	18.81	19.36	18.71	19.31	18.69	18.22	16.23	15.46	13.81	13.07	11.83	11.10	9.829	9.320	8.464	7.756	7.213	6.602	5.723	5.711	5.181	4.580	5.246	6.094	5.472	3.605	2.529	2.289	2.136	1.919	1.916	2.239	2.156	1.529	1.303	1.202	1.475	3.496	14.90	50.42	114.1	335.0	207.8	14.16	0.704	0.472	0.429	0.363	0.419	0.281	0.377
560.0	47.32	53.14	50.47	48.29	44.40	47.33	77.43	133.5	66.74	57.45	112.7	882.7	1461	96.12	32.49	26.65	23.96	21.56	19.92	18.79	18.75	17.58	17.44	16.82	16.11	16.52	15.99	16.30	16.69	16.27	16.03	15.01	14.22	12.80	11.80	10.90	10.06	9.670	8.303	7.691	7.228	6.541	6.152	5.814	5.223	4.755	4.498	3.971	3.980	4.629	5.259	3.897	2.358	2.118	1.893	1.683	1.610	1.834	2.041	1.691	1.132	1.034	1.172	1.538	4.056	11.93	26.57	134.3	344.5	153.2	6.318	0.555	0.478	0.396	0.400	0.329	0.353
565.0	37.54	51.42	50.06	49.27	40.70	38.81	53.90	116.9	76.58	51.82	62.18	306.4	1791	389.6	28.04	23.53	21.09	18.30	17.13	15.58	15.94	15.16	15.05	14.63	13.87	14.02	13.25	13.59	13.98	13.67	13.20	12.85	11.81	11.01	10.34	9.463	8.438	8.198	7.308	6.731	6.324	5.719	5.035	4.779	4.594	4.151	4.010	3.322	3.264	3.554	4.401	4.280	2.578	2.027	1.724	1.634	1.454	1.453	1.717	1.782	1.370	1.121	1.125	1.169	1.657	3.389	6.703	32.00	163.6	307.8	33.20	2.398	0.498	0.345	0.435	0.382	0.354
570.0	44.81	44.20	55.76	42.31	36.79	32.35	39.50	79.84	106.1	49.82	47.74	102.6	901.4	1229	73.03	18.95	16.70	15.40	13.68	13.25	12.54	12.55	11.92	11.53	11.51	11.70	10.95	10.97	10.86	10.97	10.56	10.04	9.747	8.479	8.327	7.687	6.711	6.587	5.726	5.426	5.140	4.621	4.212	4.115	3.730	3.435	3.289	2.924	2.683	2.592	2.891	3.399	3.045	2.058	1.556	1.486	1.299	1.262	1.241	1.487	1.501	1.322	1.058	1.025	1.140	1.531	2.224	7.822	39.05	130.1	196.8	108.1	10.54	0.531	0.438	0.342	0.334
575.0	40.08	48.25	52.21	39.96	31.03	28.30	30.28	43.91	108.5	67.04	41.05	52.34	247.1	1290	522.9	18.92	14.17	12.71	11.58	10.47	10.13	10.14	9.189	9.697	8.835	9.355	9.083	8.593	9.093	8.818	8.473	7.989	7.921	7.143	6.673	6.193	5.525	5.262	4.644	4.412	4.130	3.847	3.453	3.340	3.228	2.737	2.542	2.404	2.126	2.029	1.955	2.246	2.897	2.157	1.548	1.355	1.067	1.109	1.001	1.185	1.298	1.400	1.182	0.944	0.963	1.104	1.245	2.474	9.382	29.75	62.13	186.4	146.5	11.41	0.500	0.312	0.292
580.0	36.13	56.05	49.88	33.29	28.64	26.51	27.71	33.86	82.68	90.84	42.62	43.07	81.43	668.3	1036	44.92	12.36	10.66	9.562	8.730	8.930	8.299	7.839	8.096	7.798	7.667	7.874	7.266	7.625	7.522	7.110	6.972	6.410	6.091	5.646	5.316	4.788	4.385	3.888	3.937	3.439	3.400	3.152	2.788	2.826	2.571	2.189	2.054	1.814	1.767	1.565	1.632	2.293	2.437	1.810	1.267	1.033	1.028	0.934	1.001	1.150	1.291	1.365	0.993	0.860	1.065	0.923	1.330	2.956	7.381	14.89	71.51	209.7	98.13	4.736	0.397	0.301
585.0	38.28	46.99	45.46	32.69	25.50	25.62	24.27	28.11	56.32	108.7	48.27	40.35	44.70	226.6	1276	112.1	12.15	9.429	8.318	7.837	8.108	7.202	7.322	6.903	6.500	6.574	6.540	6.244	6.380	6.509	6.011	5.831	5.382	5.114	4.793	4.577	4.097	3.547	3.340	3.542	3.038	2.886	2.784	2.339	2.183	2.223	1.983	1.907	1.694	1.588	1.440	1.377	1.615	2.193	2.081	1.287	1.003	0.997	0.870	0.836	0.974	1.171	1.375	1.266	0.838	1.031	0.920	0.975	1.361	2.426	4.135	17.37	94.53	187.8	32.03	1.844	0.404
590.0	41.00	47.39	42.72	35.25	26.78	21.76	22.22	25.79	36.79	89.43	68.57	38.86	35.42	70.95	643.6	744.8	36.74	7.969	7.378	6.453	6.383	6.132	5.617	5.607	5.151	5.388	5.300	5.175	5.523	5.001	4.951	4.820	4.555	4.149	4.051	3.830	3.503	3.041	2.785	2.854	2.665	2.375	2.279	1.950	1.813	1.753	1.719	1.522	1.399	1.274	1.173	1.166	1.223	1.527	1.830	1.555	1.080	0.916	0.782	0.788	0.898	0.886	1.025	1.197	1.165	1.023	0.909	1.047	1.089	1.371	1.676	4.465	22.61	75.58	119.4	71.00	8.839
595.0	35.27	47.24	44.66	34.19	23.37	20.86	19.30	23.72	28.13	55.31	88.21	41.54	33.26	35.03	172.1	833.2	272.0	8.187	6.255	5.944	5.120	4.845	4.808	4.549	4.252	3.974	4.326	4.050	4.578	4.003	4.043	3.833	3.345	2.959	3.072	2.980	2.836	2.588	2.229	2.394	1.969	1.933	1.751	1.745	1.560	1.506	1.456	1.308	1.340	1.014	0.957	0.927	0.854	0.965	1.349	1.514	1.256	0.979	0.725	0.826	0.828	0.847	0.883	0.956	1.092	1.323	0.822	1.041	0.876	1.051	1.092	1.631	5.557	17.35	35.29	105.0	88.98
600.0	36.53	42.06	40.59	30.23	24.13	16.83	19.33	20.49	25.66	39.21	88.79	54.54	32.27	27.57	52.24	452.2	626.7	18.97	5.460	4.913	4.125	3.918	3.901	3.937	3.606	3.305	3.617	3.390	3.695	3.711	3.324	3.255	3.044	2.687	2.585	2.474	2.336	2.047	1.918	2.021	1.726	1.550	1.528	1.444	1.509	1.188	1.199	1.070	1.042	0.935	0.780	0.822	0.868	0.783	0.981	1.333	1.422	1.012	0.787	0.685	0.769	0.745	0.842	0.846	0.997	1.327	1.015	0.994	0.999	0.977	0.982	1.061	1.847	4.382	8.497	38.26	115.5
605.0	32.92	42.97	39.75	27.12	24.38	18.94	20.37	21.19	23.70	33.08	72.77	71.88	32.91	25.11	24.44	152.3	778.8	75.70	4.919	4.235	3.815	3.523	3.419	3.426	3.191	3.142	2.777	3.071	3.279	3.316	3.157	2.679	2.718	2.568	2.213	1.967	2.307	1.930	1.731	1.689	1.418	1.385	1.316	1.251	1.269	0.966	1.064	1.022	0.900	0.859	0.771	0.736	0.724	0.775	0.749	1.011	1.368	1.130	0.762	0.670	0.735	0.728	0.788	0.764	1.054	1.090	1.230	1.095	0.987	0.928	0.967	1.019	1.016	1.571	2.398	9.270	47.45
610.0	29.64	38.88	37.86	25.80	21.76	17.91	19.06	21.98	24.99	32.53	51.26	82.38	41.18	25.70	19.60	44.43	418.3	443.9	18.65	3.748	3.331	3.002	3.024	2.787	2.592	2.565	2.367	2.395	2.612	2.700	2.502	2.324	2.123	1.925	2.035	1.648	1.838	1.529	1.470	1.322	1.235	1.070	1.166	1.001	0.956	0.962	0.954	0.842	0.859	0.692	0.650	0.647	0.593	0.618	0.626	0.682	1.060	1.121	0.858	0.685	0.715	0.704	0.763	0.821	0.981	0.975	1.233	1.269	1.160	1.100	1.141	1.084	0.930	0.900	1.096	2.509	11.36
615.0	32.38	35.13	38.01	25.74	19.86	17.75	18.59	20.21	24.75	30.73	41.55	69.32	56.44	28.05	18.51	18.76	112.3	546.2	79.32	3.788	2.804	2.635	2.523	2.071	2.197	1.947	2.074	1.950	2.224	2.112	1.976	1.884	1.555	1.624	1.618	1.541	1.528	1.335	1.194	1.136	0.968	0.884	0.899	0.732	0.880	0.858	0.810	0.752	0.677	0.601	0.630	0.540	0.581	0.551	0.574	0.532	0.739	0.865	0.971	0.831	0.838	0.693	0.756	0.768	0.901	0.781	1.050	1.142	1.315	1.217	1.065	1.027	0.823	0.791	0.733	0.941	3.026
620.0	28.25	32.07	33.91	23.80	19.06	18.29	17.59	21.86	24.38	29.41	35.42	53.51	66.90	29.49	17.52	13.07	32.16	316.9	379.6	8.653	2.492	2.237	2.488	1.860	1.908	1.902	1.650	1.654	1.834	1.750	1.629	1.612	1.670	1.720	1.287	1.261	1.325	1.100	1.065	1.061	0.886	0.899	0.726	0.781	0.679	0.731	0.688	0.614	0.578	0.564	0.494	0.471	0.462	0.486	0.495	0.422	0.564	0.602	0.812	0.910	0.752	0.587	0.682	0.734	0.855	0.777	0.935	1.005	1.310	1.211	1.109	1.030	0.710	0.678	0.582	0.627	1.051
625.0	28.74	33.31	33.84	25.16	18.59	18.29	17.12	21.30	23.11	29.01	32.10	42.10	68.28	34.20	17.76	11.80	13.38	109.8	518.7	49.37	2.161	2.039	2.077	1.752	1.754	1.810	1.559	1.458	1.678	1.407	1.324	1.276	1.341	1.319	1.126	1.191	1.119	1.093	0.952	0.806	0.769	0.680	0.687	0.689	0.567	0.561	0.523	0.509	0.534	0.446	0.424	0.402	0.366	0.386	0.473	0.409	0.464	0.542	0.750	0.757	0.710	0.646	0.598	0.673	0.667	0.758	0.741	0.885	1.122	1.221	1.104	0.817	0.719	0.578	0.531	0.455	0.564
630.0	25.90	32.13	32.17	22.75	17.23	16.52	17.62	19.68	22.80	25.92	32.92	36.62	53.11	46.81	19.14	11.05	9.327	30.50	305.4	289.9	8.579	1.790	1.584	1.486	1.416	1.477	1.333	1.224	1.396	1.273	1.205	1.106	1.195	1.177	1.083	0.907	0.975	0.862	0.828	0.712	0.694	0.567	0.596	0.537	0.487	0.481	0.462	0.408	0.463	0.444	0.363	0.336	0.335	0.370	0.360	0.379	0.385	0.452	0.565	0.626	0.636	0.636	0.543	0.598	0.671	0.690	0.683	0.746	0.843	0.996	0.929	0.756	0.708	0.547	0.434	0.419	0.399
635.0	21.83	26.44	31.61	23.82	14.63	14.95	15.83	20.36	20.76	26.50	32.24	33.54	39.00	52.53	24.89	11.87	8.320	10.91	81.79	398.6	60.68	2.027	1.507	1.359	1.298	1.169	1.128	1.110	1.047	0.983	1.063	1.022	0.906	0.930	0.940	0.644	0.943	0.636	0.788	0.535	0.532	0.541	0.567	0.481	0.422	0.385	0.466	0.382	0.393	0.363	0.308	0.325	0.320	0.378	0.309	0.306	0.317	0.347	0.444	0.425	0.585	0.657	0.458	0.438	0.563	0.515	0.658	0.607	0.700	0.698	0.707	0.758	0.567	0.486	0.394	0.325	0.337
640.0	22.95	27.33	32.20	22.49	14.96	14.94	14.31	18.11	20.28	26.51	31.56	31.97	33.49	46.44	30.53	12.96	8.936	7.365	22.48	254.7	245.7	4.587	1.313	1.047	1.222	0.940	0.973	0.886	0.942	0.986	0.954	0.751	0.926	0.803	0.803	0.809	0.808	0.577	0.570	0.506	0.543	0.532	0.424	0.491	0.368	0.364	0.389	0.360	0.347	0.310	0.242	0.240	0.248	0.253	0.271	0.314	0.304	0.325	0.350	0.326	0.482	0.609	0.475	0.403	0.458	0.432	0.620	0.469	0.628	0.501	0.570	0.707	0.593	0.423	0.334	0.308	0.342
645.0	23.61	21.87	27.39	22.02	13.94	14.80	16.20	18.50	20.32	24.47	30.32	32.08	29.36	37.47	39.36	14.35	9.246	7.363	8.980	94.49	363.2	30.53	1.339	0.947	1.030	0.832	0.926	0.919	0.897	0.827	0.827	0.753	0.795	0.638	1.036	0.888	0.683	0.665	0.486	0.517	0.446	0.479	0.361	0.370	0.333	0.333	0.365	0.349	0.369	0.223	0.271	0.263	0.308	0.259	0.283	0.291	0.265	0.266	0.315	0.303	0.351	0.527	0.458	0.445	0.472	0.402	0.465	0.430	0.473	0.425	0.426	0.519	0.606	0.439	0.355	0.284	0.265
650.0	25.74	29.72	25.51	22.50	15.15	14.02	15.54	16.58	20.18	23.49	29.31	30.85	30.86	32.49	40.92	16.94	8.935	7.147	5.994	26.81	304.0	131.5	1.701	0.907	0.974	0.919	0.769	0.907	0.793	0.683	0.794	0.876	0.865	0.635	0.953	0.947	0.794	0.596	0.525	0.559	0.421	0.377	0.401	0.333	0.362	0.323	0.313	0.316	0.335	0.295	0.247	0.279	0.275	0.225	0.278	0.286	0.243	0.269	0.275	0.287	0.332	0.407	0.413	0.405	0.438	0.341	0.374	0.387	0.414	0.359	0.409	0.458	0.462	0.581	0.358	0.266	0.240
