Sample:	'1
File name:	t2025063004ÎÚºÓ02.FD3
Run date:	'09:48:10, 07/01/2025
Operator:	Administrator
Comment:	'

Instrument
Model:	F-2700 FL Spectrophotometer
Serial number:	23B8-004
ROM Version:	4J14000 07

Instrument parameters
Measurement type:	3-D scan
Data mode:	Fluorescence
EX  Start WL:	220.0 nm
EX  End WL:	600.0 nm
EX Sampling interval:	5.0 nm
EM  Start WL:	230.0 nm
EM  End WL:	650.0 nm
EM Sampling interval:	5.0 nm
Scan speed:	12000 nm/min
EX Slit:	5.0 nm
EM Slit:	5.0 nm
PMT Voltage:	700 V
Response:	Auto 
Corrected spectra:	Off
Contour interval:	50.000

Peak integration
Integration method:	Rectangular
Sensitivity:	1
Threshold:	1.000

Peaks
No.	ApexEX/EM(nm)	Height(Data)
1	225.0/305.0	951.1
2	225.0/560.0	96.49
3	230.0/345.0	3525
4	230.0/625.0	50.05
5	245.0/535.0	267.2
6	250.0/275.0	516.8
7	250.0/545.0	216.7
8	255.0/280.0	616.0
9	255.0/560.0	179.0
10	260.0/285.0	604.3
11	260.0/570.0	136.8
12	265.0/585.0	123.2
13	270.0/300.0	1041
14	270.0/595.0	108.3
15	275.0/305.0	1232
16	275.0/610.0	94.56
17	280.0/310.0	1123
18	280.0/345.0	1477
19	280.0/625.0	78.38
20	285.0/320.0	1062
21	285.0/635.0	58.23
22	460.0/345.0	9.783
23	475.0/350.0	9.435
24	505.0/275.0	3.546
25	520.0/285.0	4.092
26	530.0/290.0	3.984
27	530.0/385.0	7.967
28	540.0/295.0	5.493
29	545.0/300.0	6.432
30	555.0/305.0	6.601
31	560.0/310.0	6.297
32	565.0/350.0	7.540
33	570.0/315.0	5.982
34	570.0/345.0	7.382
35	580.0/360.0	7.288

Data points
	220.0	225.0	230.0	235.0	240.0	245.0	250.0	255.0	260.0	265.0	270.0	275.0	280.0	285.0	290.0	295.0	300.0	305.0	310.0	315.0	320.0	325.0	330.0	335.0	340.0	345.0	350.0	355.0	360.0	365.0	370.0	375.0	380.0	385.0	390.0	395.0	400.0	405.0	410.0	415.0	420.0	425.0	430.0	435.0	440.0	445.0	450.0	455.0	460.0	465.0	470.0	475.0	480.0	485.0	490.0	495.0	500.0	505.0	510.0	515.0	520.0	525.0	530.0	535.0	540.0	545.0	550.0	555.0	560.0	565.0	570.0	575.0	580.0	585.0	590.0	595.0	600.0
230.0	89.82	1973	3908	1062	38.93	6.743	6.067	4.467	3.917	3.714	3.345	3.104	2.738	2.316	1.911	1.578	1.573	1.280	1.038	1.037	0.821	0.873	0.789	0.752	0.656	0.596	0.553	0.507	0.561	0.519	0.457	0.456	0.415	0.386	0.347	0.372	0.329	0.347	0.331	0.311	0.357	0.446	0.473	0.349	0.302	0.317	1.965	8.069	12.98	8.279	2.609	0.530	0.227	0.186	0.184	0.193	0.207	0.204	0.210	0.194	0.204	0.220	0.207	0.194	0.215	0.198	0.216	0.192	0.158	0.175	0.177	0.189	0.168	0.195	0.220	0.196	0.185
235.0	111.9	557.3	2701	4185	557.7	70.93	7.029	5.270	4.563	4.796	3.636	3.246	2.777	2.502	1.979	1.978	1.517	1.254	1.056	0.940	0.928	0.848	0.742	0.775	0.559	0.623	0.591	0.556	0.487	0.562	0.542	0.503	0.409	0.405	0.347	0.325	0.368	0.400	0.377	0.302	0.297	0.355	0.479	0.558	0.487	0.340	0.660	2.212	5.248	9.132	13.41	12.94	5.334	1.173	0.205	0.246	0.219	0.234	0.227	0.208	0.212	0.179	0.194	0.252	0.200	0.215	0.188	0.243	0.235	0.209	0.221	0.145	0.186	0.180	0.183	0.210	0.190
240.0	176.7	214.7	833.2	3794	4168	454.3	34.77	7.151	5.889	4.836	3.821	4.029	3.015	2.595	2.496	2.198	1.730	1.388	1.117	1.015	1.023	1.037	0.863	0.820	0.784	0.635	0.602	0.574	0.475	0.569	0.651	0.437	0.433	0.383	0.341	0.366	0.322	0.409	0.370	0.314	0.298	0.315	0.354	0.440	0.553	0.621	0.530	0.776	1.379	2.760	7.565	18.02	21.35	13.77	4.980	0.726	0.242	0.233	0.213	0.271	0.211	0.185	0.181	0.192	0.240	0.238	0.179	0.237	0.196	0.180	0.239	0.169	0.206	0.169	0.163	0.195	0.186
245.0	131.9	222.4	254.1	1316	4934	3549	343.5	18.92	6.971	5.392	4.464	4.061	3.753	3.520	2.327	1.985	1.603	1.505	1.276	1.027	1.005	0.822	0.843	0.702	0.730	0.673	0.637	0.650	0.559	0.620	0.521	0.425	0.413	0.469	0.367	0.341	0.305	0.331	0.349	0.329	0.374	0.284	0.306	0.343	0.482	0.647	0.752	0.835	0.608	0.808	1.897	6.219	15.96	25.68	24.72	12.92	3.369	0.458	0.249	0.243	0.263	0.217	0.206	0.215	0.189	0.240	0.231	0.216	0.169	0.197	0.223	0.218	0.170	0.160	0.226	0.182	0.202
250.0	61.48	164.2	266.2	389.5	1593	4213	4730	1289	85.46	8.438	6.514	4.990	3.996	3.360	2.815	2.281	1.826	1.449	1.404	1.125	0.933	0.910	0.988	0.833	0.690	0.732	0.612	0.683	0.641	0.585	0.477	0.414	0.469	0.461	0.364	0.377	0.336	0.342	0.328	0.373	0.360	0.375	0.289	0.307	0.351	0.400	0.568	0.857	0.990	0.934	0.799	1.653	4.007	8.455	16.48	24.10	29.65	26.78	12.15	3.581	0.517	0.259	0.273	0.197	0.251	0.249	0.231	0.210	0.228	0.181	0.240	0.224	0.174	0.201	0.204	0.198	0.235
255.0	45.42	65.27	180.1	354.1	451.7	1076	3981	7571	1821	94.40	9.883	6.933	4.806	4.004	3.571	2.714	2.046	1.541	1.561	1.212	0.911	0.913	0.910	0.947	0.954	0.743	0.716	0.672	0.714	0.622	0.533	0.493	0.482	0.408	0.366	0.340	0.364	0.298	0.380	0.300	0.356	0.363	0.337	0.307	0.396	0.369	0.361	0.465	0.558	0.859	1.350	1.510	1.450	2.103	3.942	5.901	11.35	27.44	47.59	30.22	19.14	3.781	0.388	0.240	0.302	0.276	0.260	0.215	0.250	0.213	0.198	0.208	0.207	0.190	0.205	0.184	0.199
260.0	38.52	34.40	71.15	279.6	363.0	311.1	1194	6054	8091	1401	47.78	10.35	7.053	4.956	3.771	3.188	2.268	1.811	1.617	1.643	1.137	1.093	0.834	0.906	0.807	0.886	0.777	0.721	0.666	0.700	0.552	0.557	0.567	0.463	0.385	0.412	0.386	0.426	0.360	0.420	0.328	0.369	0.415	0.373	0.359	0.400	0.300	0.335	0.344	0.408	0.945	1.682	1.894	1.368	1.236	1.653	2.926	7.478	20.45	41.90	61.17	29.18	14.78	1.937	0.331	0.294	0.264	0.224	0.263	0.229	0.238	0.235	0.183	0.174	0.272	0.224	0.188
265.0	40.79	31.70	36.07	134.6	378.8	288.1	326.0	1979	8014	8138	226.0	23.31	8.582	5.576	4.085	3.560	2.506	1.768	1.727	1.402	1.303	1.076	1.138	1.016	0.876	0.787	0.828	0.654	0.697	0.663	0.573	0.563	0.515	0.483	0.423	0.370	0.414	0.387	0.390	0.405	0.302	0.405	0.424	0.375	0.351	0.337	0.332	0.320	0.334	0.331	0.414	0.819	1.596	2.049	1.759	0.886	1.024	2.093	5.090	12.57	33.82	60.27	69.99	26.20	9.388	0.827	0.384	0.414	0.241	0.286	0.264	0.228	0.246	0.215	0.208	0.303	0.283
270.0	80.99	66.81	52.40	65.80	199.7	406.1	331.8	521.4	2438	7084	8970	2973	65.61	9.373	5.468	4.305	3.066	2.175	2.112	1.777	1.456	1.277	1.082	1.057	1.069	0.917	0.896	0.778	0.764	0.728	0.672	0.619	0.595	0.612	0.514	0.463	0.428	0.454	0.406	0.462	0.392	0.424	0.425	0.483	0.514	0.402	0.465	0.394	0.344	0.318	0.333	0.494	0.698	1.166	1.848	2.166	1.967	1.592	1.688	3.238	8.174	17.39	33.77	49.64	62.87	51.79	17.59	7.907	0.995	0.383	0.283	0.309	0.267	0.270	0.232	0.263	0.268
275.0	203.8	196.6	134.0	84.10	104.7	216.9	516.8	394.6	620.1	1732	5467	9999.9	1276	75.45	10.26	6.117	3.995	3.061	2.609	1.937	1.754	1.551	1.179	1.299	1.049	0.987	1.062	0.869	0.783	0.721	0.747	0.654	0.633	0.665	0.587	0.605	0.553	0.600	0.553	0.507	0.552	0.496	0.486	0.623	0.651	0.639	0.609	0.591	0.570	0.474	0.414	0.586	0.408	0.702	0.964	1.327	2.335	3.546	2.784	1.672	2.354	4.399	7.956	11.78	18.55	37.90	74.20	88.66	27.88	9.682	0.788	0.466	0.308	0.301	0.302	0.292	0.290
280.0	340.5	344.6	228.1	122.2	93.16	134.4	331.5	616.0	345.0	484.6	1534	7530	9999.9	1005	42.68	7.946	5.292	3.982	3.261	2.203	1.577	1.876	1.266	1.330	1.018	1.060	0.921	0.978	0.666	0.726	0.878	0.674	0.830	0.735	0.801	0.854	0.853	0.767	0.703	0.723	0.606	0.640	0.618	0.654	0.909	0.905	0.902	0.928	0.810	0.643	0.561	0.556	0.483	0.665	0.724	0.892	1.334	2.251	3.218	3.231	2.011	1.740	2.441	3.258	4.886	9.756	25.44	60.60	88.43	81.10	23.60	4.759	0.446	0.343	0.292	0.309	0.335
285.0	509.1	528.7	355.9	184.9	112.9	120.8	192.4	507.9	604.3	292.1	490.5	2248	9387	8671	700.7	18.74	6.886	5.261	3.917	2.592	1.973	1.765	1.344	1.304	1.187	1.206	0.939	1.077	0.788	0.810	0.835	0.808	0.839	0.896	0.927	1.144	0.942	0.949	0.884	0.817	0.708	0.790	0.728	0.976	1.037	1.206	1.286	1.364	1.079	0.954	0.655	0.682	0.680	0.663	0.647	0.708	0.850	1.221	1.741	3.334	4.092	2.761	1.695	1.594	1.996	3.114	6.617	15.80	34.93	71.82	93.73	33.49	17.80	2.180	0.350	0.357	0.426
290.0	691.9	713.2	521.8	285.9	160.6	150.5	168.8	275.5	561.8	666.6	428.2	739.2	2721	7131	8317	2433	40.76	7.395	4.955	3.226	2.529	2.105	1.630	1.430	1.400	1.283	1.120	1.143	0.823	0.962	0.882	0.815	0.931	1.063	1.121	1.231	1.322	1.159	1.092	1.047	0.865	0.880	1.141	1.323	1.380	1.498	1.568	1.806	1.537	1.263	0.962	0.953	0.826	0.772	0.794	0.824	0.834	1.016	1.184	1.694	2.571	3.643	3.984	3.536	2.379	2.150	2.931	4.847	9.074	18.87	34.55	49.82	67.41	56.10	44.50	12.42	2.864
295.0	838.1	845.6	665.2	380.5	229.2	196.7	211.6	246.8	361.5	694.6	906.5	568.1	889.4	1809	4305	9999.9	3152	46.10	7.068	4.590	3.305	2.356	2.283	1.837	1.526	1.369	1.180	1.117	0.964	0.907	0.899	0.850	0.883	1.029	1.323	1.396	1.419	1.279	1.243	1.041	1.091	1.105	1.310	1.440	1.506	1.900	1.853	2.022	1.915	1.517	1.277	1.260	1.274	1.026	1.042	1.018	1.047	1.108	1.308	1.488	1.698	1.961	2.754	4.094	5.493	4.230	2.934	2.961	3.684	5.837	9.168	12.29	17.20	26.17	61.78	87.56	36.05
300.0	884.1	916.4	734.3	438.3	291.0	255.0	263.6	288.4	350.4	557.7	1041	876.4	590.6	652.1	1208	5972	9924	618.4	24.87	6.333	4.578	2.980	2.722	2.114	1.691	1.469	1.391	1.335	1.080	1.118	0.845	0.792	0.807	1.130	1.398	1.523	1.669	1.471	1.309	1.247	1.198	1.190	1.421	1.385	1.589	1.993	1.892	2.075	1.954	1.957	1.513	1.546	1.394	1.200	1.138	1.186	1.358	1.346	1.555	1.694	1.759	1.888	2.399	3.158	4.810	6.432	5.525	3.870	3.002	3.181	3.615	4.260	5.081	6.935	17.46	42.41	72.10
305.0	890.6	951.1	782.8	494.0	356.4	304.3	332.8	361.2	419.1	554.1	854.9	1232	743.9	477.8	470.4	1690	7452	5377	452.8	11.69	5.647	3.872	2.916	2.408	1.764	1.509	1.541	1.586	1.111	0.983	1.112	0.897	0.903	1.007	1.485	1.458	1.649	1.449	1.449	1.337	1.321	1.248	1.447	1.488	1.680	1.884	2.054	2.309	2.095	1.985	1.660	1.736	1.669	1.598	1.424	1.465	1.542	1.751	1.934	2.101	2.142	2.423	2.633	2.915	3.586	4.963	6.188	6.601	4.982	3.350	3.085	2.630	2.595	2.631	5.006	10.71	23.59
310.0	822.7	924.4	784.4	563.3	427.1	387.5	407.6	434.1	502.1	602.2	769.5	1038	1123	680.7	394.9	543.9	2046	5038	5971	1680	27.53	5.524	4.021	2.691	2.167	1.896	1.633	1.473	1.273	1.291	1.205	0.860	1.021	1.116	1.469	1.483	1.629	1.472	1.398	1.386	1.378	1.314	1.450	1.549	1.769	2.028	2.038	2.376	2.327	1.965	1.770	1.816	1.781	1.818	1.658	1.691	1.817	2.078	2.200	2.291	2.474	2.717	3.027	3.353	3.542	4.181	4.506	5.257	6.297	5.723	4.682	3.342	2.496	2.209	2.494	3.619	6.278
315.0	805.8	926.7	823.2	629.2	485.7	456.9	477.1	500.6	557.2	661.2	793.4	915.2	1022	1056	550.9	350.6	598.8	1238	3270	7633	2132	30.43	5.604	3.622	2.696	2.069	1.692	1.758	1.321	1.370	1.159	0.897	0.999	1.195	1.422	1.460	1.425	1.445	1.421	1.414	1.413	1.304	1.526	1.690	1.843	2.119	2.367	2.630	2.491	2.227	1.850	2.054	2.096	1.939	2.016	1.898	2.061	2.394	2.319	2.582	2.659	2.957	3.150	3.584	3.667	4.125	4.241	4.500	4.987	4.960	5.982	5.840	4.195	2.745	2.342	2.292	2.699
320.0	929.0	1193	1096	779.8	575.1	519.4	518.7	553.5	610.9	733.2	866.6	951.5	983.9	1062	862.9	401.6	324.0	399.2	872.9	4627	6983	453.4	15.59	4.859	3.603	2.669	1.979	1.982	1.495	1.439	1.204	1.064	1.178	1.141	1.282	1.248	1.385	1.306	1.466	1.350	1.508	1.511	1.654	1.895	2.077	2.738	3.059	3.565	3.407	2.805	2.264	2.413	2.331	2.148	2.242	2.091	2.240	2.560	2.604	2.946	2.998	3.227	3.159	4.096	4.166	4.448	4.297	4.566	4.516	4.768	4.915	5.518	5.846	4.968	3.364	2.381	2.299
325.0	1216	1678	1688	1197	699.2	605.6	588.0	629.8	698.2	831.6	974.8	1083	1086	1034	1046	641.6	336.0	260.4	301.1	1302	5604	3969	62.87	8.879	4.532	3.115	2.470	2.016	1.574	1.371	1.491	1.244	1.204	1.253	1.298	1.425	1.413	1.421	1.329	1.357	1.577	1.686	1.844	2.213	2.717	3.543	4.161	4.937	5.226	4.379	3.482	3.396	3.196	2.555	2.574	2.558	2.708	2.709	2.884	3.289	3.228	3.626	3.822	4.258	4.430	4.965	5.146	5.193	5.250	5.370	5.254	5.318	5.577	6.504	5.450	3.743	2.836
330.0	1560	2309	2527	1917	1177	806.0	718.8	731.9	803.8	948.7	1116	1260	1263	1161	1040	908.9	580.8	329.1	244.3	414.9	1576	3887	4466	1261	21.32	4.612	3.346	2.505	1.978	1.603	1.678	1.385	1.284	1.273	1.448	1.407	1.382	1.454	1.341	1.459	1.771	2.003	2.080	2.693	3.529	4.474	5.704	6.971	7.485	6.676	5.614	5.859	4.851	3.689	3.295	3.073	3.206	3.211	3.333	3.536	3.542	4.215	4.544	4.733	5.248	5.646	6.012	5.909	6.208	6.159	6.076	6.037	5.688	5.914	5.839	5.672	5.051
335.0	1844	2782	3059	2479	1585	1031	849.3	830.3	913.0	1047	1240	1376	1392	1293	1100	904.3	826.1	516.9	303.6	268.9	482.8	987.6	2741	6012	433.5	23.26	5.272	3.190	2.421	1.902	1.915	1.466	1.367	1.408	1.434	1.322	1.344	1.517	1.382	1.611	1.778	2.056	2.389	3.062	4.146	5.203	6.693	8.256	8.996	8.262	7.243	7.527	6.526	5.072	4.248	3.647	3.705	3.858	4.140	3.984	4.267	4.526	5.091	5.394	5.595	6.190	6.226	6.639	6.733	6.891	6.709	6.701	6.148	6.204	5.903	5.786	5.289
340.0	1969	3008	3403	2810	1827	1173	937.0	886.5	974.0	1095	1286	1415	1447	1357	1153	919.5	806.2	699.6	390.2	273.2	268.0	343.6	761.7	4018	5194	373.0	12.56	4.388	2.760	2.284	1.968	1.640	1.541	1.238	1.344	1.416	1.317	1.579	1.308	1.582	1.799	2.199	2.731	2.956	4.217	5.565	6.918	9.274	9.395	9.158	7.992	8.369	7.453	5.927	4.800	4.196	3.923	4.107	4.103	4.475	4.694	4.835	5.321	5.648	6.045	6.166	6.823	7.250	6.735	7.196	7.163	6.919	6.727	6.795	6.049	5.590	5.457
345.0	1939	3047	3525	2957	1986	1303	1030	955.9	1018	1150	1310	1436	1477	1391	1197	958.5	762.2	722.5	540.5	314.2	247.6	224.5	267.2	1164	4712	3290	54.10	7.002	3.787	2.856	2.124	1.760	1.599	1.273	1.396	1.474	1.487	1.650	1.379	1.636	1.875	2.116	2.499	3.295	4.162	5.718	6.570	9.161	9.783	9.564	8.619	9.097	7.660	6.472	5.385	4.539	4.386	4.441	4.249	4.372	4.624	5.217	5.520	5.756	6.000	6.584	6.736	7.125	7.062	7.200	7.382	6.944	6.832	6.539	6.350	5.779	5.329
350.0	1863	2843	3326	2935	2099	1443	1158	1070	1113	1200	1333	1428	1455	1375	1212	991.3	788.4	660.2	621.9	467.5	303.2	241.3	193.7	346.7	1369	3388	3711	1016	17.67	3.858	2.573	2.147	1.652	1.548	1.560	1.438	1.361	1.547	1.442	1.592	1.731	1.906	2.501	3.223	4.106	5.369	6.519	8.631	9.359	9.131	8.708	9.435	8.010	7.136	6.020	5.065	5.128	4.875	4.975	5.008	5.270	5.463	5.683	6.031	6.466	6.607	6.756	6.862	7.011	7.540	7.272	7.103	6.959	6.675	6.318	6.104	5.582
355.0	1751	2594	3125	2811	2134	1585	1319	1240	1239	1325	1382	1436	1438	1358	1216	1026	827.6	673.2	582.3	575.3	437.9	294.8	221.2	203.4	390.6	837.9	2517	4913	390.6	18.39	4.026	2.702	1.979	1.694	1.464	1.334	1.483	1.541	1.525	1.714	1.743	1.814	2.333	2.923	3.830	5.264	6.056	7.804	8.926	8.265	8.199	9.090	8.315	7.258	6.482	6.020	5.858	5.751	5.832	5.662	6.026	6.245	6.219	6.719	6.663	6.739	6.844	6.602	6.945	7.015	7.043	7.301	7.205	6.908	6.399	6.618	6.195
360.0	1640	2371	2907	2740	2160	1701	1458	1357	1363	1410	1439	1454	1441	1346	1219	1044	860.3	701.0	591.1	554.8	549.2	372.9	260.3	201.8	197.4	262.2	703.9	3620	3242	323.7	9.297	3.240	2.484	1.868	1.541	1.430	1.509	1.468	1.558	1.738	1.605	1.866	2.338	2.966	3.505	4.926	5.954	7.144	8.356	8.193	7.772	9.182	8.248	7.487	6.862	6.317	6.587	6.451	6.236	6.357	6.716	6.812	6.692	7.034	7.117	7.081	7.025	6.928	7.200	6.843	7.103	7.202	7.288	6.907	6.439	6.492	5.996
365.0	1536	2260	2722	2610	2152	1763	1563	1457	1468	1492	1501	1467	1426	1342	1211	1043	879.7	731.4	620.6	547.2	562.4	490.1	318.2	231.2	183.5	156.1	224.2	1092	4089	2980	48.23	5.922	3.100	2.252	1.894	1.693	1.570	1.441	1.541	1.467	1.568	1.758	2.159	2.657	3.574	4.330	5.483	6.790	7.637	7.544	7.475	8.484	7.959	7.720	6.970	6.559	6.900	7.262	6.828	6.867	7.156	7.141	6.797	7.268	7.285	7.183	7.031	7.085	7.238	6.966	7.281	7.031	6.916	6.916	6.504	6.541	6.348
370.0	1363	2040	2462	2407	2123	1813	1630	1557	1561	1565	1545	1484	1414	1327	1194	1046	902.9	767.7	659.8	579.0	538.2	543.5	444.6	302.7	226.1	173.8	148.7	310.1	1240	3204	3341	857.1	14.85	3.449	2.480	1.845	1.606	1.643	1.623	1.551	1.464	1.856	2.171	2.566	3.314	4.186	4.942	6.232	6.905	7.008	6.899	8.270	8.117	7.665	7.369	7.023	7.381	7.284	7.045	7.124	7.282	7.363	7.266	7.648	7.440	7.499	7.298	7.095	7.036	7.022	7.076	6.795	6.821	6.919	6.472	6.291	6.321
375.0	1261	1841	2242	2255	2050	1831	1693	1620	1612	1608	1562	1499	1416	1306	1169	1027	911.9	793.6	705.9	617.8	566.1	530.6	529.1	431.7	298.3	227.7	170.5	167.7	343.6	793.3	2434	4254	330.6	15.20	3.014	2.277	1.940	1.819	1.823	1.746	1.713	1.744	2.033	2.434	2.988	3.752	4.586	5.410	6.299	6.371	6.743	7.995	7.758	7.421	7.369	7.377	7.523	7.372	7.477	7.194	7.688	7.498	7.785	7.539	7.642	7.575	7.091	7.625	7.183	7.353	6.969	6.735	6.872	6.864	6.662	6.549	6.516
380.0	1190	1692	2080	2152	2011	1848	1712	1640	1622	1612	1566	1504	1398	1283	1159	1019	911.6	806.4	728.1	649.4	591.4	546.3	522.8	517.0	379.6	276.0	211.2	161.0	162.5	236.6	683.5	3243	2766	265.3	6.946	2.945	2.264	1.839	1.690	1.767	1.628	1.914	2.095	2.220	2.883	3.526	4.311	5.387	5.774	6.234	6.200	7.379	7.941	7.669	7.145	7.514	7.422	7.543	7.644	7.438	7.753	7.419	7.742	7.432	7.694	7.438	7.424	7.019	7.283	7.191	7.034	7.000	6.815	6.681	6.575	6.242	6.106
385.0	1165	1592	1925	2051	1955	1808	1713	1644	1627	1601	1556	1486	1384	1255	1138	1011	905.0	813.4	743.2	668.3	615.0	570.5	520.6	521.6	466.7	326.0	244.5	184.2	143.9	129.3	204.0	985.1	3395	2426	38.91	4.774	2.831	2.301	1.922	1.733	1.639	1.768	1.993	2.221	2.784	3.434	4.225	4.910	5.659	5.553	5.891	6.760	7.407	7.276	7.227	6.895	7.441	7.578	7.557	7.262	7.787	7.665	7.967	7.520	7.874	7.180	7.397	7.009	7.271	6.725	6.971	6.971	6.847	6.809	6.529	6.127	6.147
390.0	1106	1508	1784	1891	1868	1794	1685	1612	1580	1552	1507	1431	1330	1205	1100	982.3	890.4	809.3	742.8	680.3	631.3	589.2	536.0	501.8	491.0	417.6	298.4	222.4	169.2	131.3	116.5	266.8	1018	2487	2535	671.0	12.93	2.904	2.264	1.957	1.862	1.865	2.076	2.288	2.697	3.315	3.735	4.608	5.139	5.154	5.275	6.761	6.923	6.866	7.161	6.781	6.977	7.378	7.545	7.286	7.364	7.522	7.471	7.364	7.517	7.093	6.997	6.782	6.910	6.591	6.566	6.515	6.706	6.336	6.100	6.220	6.135
395.0	1022	1436	1661	1759	1756	1715	1646	1574	1536	1507	1460	1380	1276	1164	1049	951.8	867.5	799.0	741.7	682.8	640.3	600.6	558.3	514.2	470.8	458.3	383.1	269.8	204.7	158.7	118.8	123.1	268.2	608.5	1794	3187	276.6	14.30	3.062	2.272	2.132	2.157	2.076	2.045	2.592	3.126	3.619	4.255	4.826	4.838	4.658	6.307	6.491	6.598	6.799	6.958	7.126	7.380	7.138	7.030	7.382	7.202	7.141	7.356	7.235	6.889	6.643	6.711	6.342	6.352	6.525	6.233	6.163	5.959	6.095	5.661	6.175
400.0	948.5	1350	1580	1674	1713	1675	1602	1538	1482	1443	1414	1328	1236	1125	1019	920.9	845.6	782.2	732.8	676.7	639.2	604.1	569.3	521.0	475.3	445.0	426.9	323.4	234.0	181.0	134.8	105.0	111.7	169.5	494.9	2343	2297	232.0	7.320	2.812	2.250	2.184	2.151	2.054	2.466	2.863	3.516	4.121	4.443	4.422	4.612	5.911	6.071	6.544	6.505	6.634	7.050	7.264	6.997	6.710	7.217	7.357	7.002	6.902	7.040	6.576	6.647	6.312	6.153	5.992	6.117	6.001	5.902	5.654	5.725	5.794	5.756
405.0	944.8	1305	1522	1581	1636	1625	1543	1483	1432	1396	1357	1286	1195	1087	990.4	897.4	816.6	765.7	716.2	669.7	636.6	601.5	569.2	529.2	482.3	436.7	419.5	375.4	269.2	207.0	155.5	114.7	88.15	81.04	140.2	691.5	2500	2052	35.64	4.304	2.593	2.221	2.363	2.200	2.566	2.923	3.271	3.796	4.357	4.258	4.554	5.456	6.102	6.395	6.452	6.613	6.835	6.963	6.610	6.611	6.764	6.562	6.756	6.909	6.519	5.994	6.623	5.976	5.905	6.160	5.946	6.107	5.718	5.588	5.667	5.685	5.490
410.0	888.0	1204	1397	1503	1535	1528	1476	1429	1377	1340	1298	1227	1129	1032	940.9	852.9	788.0	735.9	692.5	651.7	618.3	592.1	560.3	528.1	484.8	438.2	400.4	380.4	331.8	243.3	181.9	135.6	100.2	74.98	71.35	182.2	726.9	1884	2023	575.3	12.21	2.695	2.576	2.460	2.535	2.844	3.088	3.718	4.113	4.054	4.332	5.272	5.612	6.001	6.283	6.302	6.458	6.563	6.409	6.529	6.639	6.428	6.500	6.459	6.054	5.864	6.073	5.770	5.346	5.603	5.476	5.605	5.479	5.558	5.307	5.214	5.290
415.0	853.0	1108	1314	1396	1411	1432	1406	1362	1319	1279	1217	1161	1071	970.3	883.8	800.7	743.6	697.8	660.4	625.7	595.5	574.8	546.7	518.3	479.8	439.0	396.1	360.6	348.7	302.0	213.8	156.7	116.4	86.48	65.82	75.63	186.4	454.0	1308	2272	254.2	13.51	2.991	2.533	2.640	2.944	2.866	3.393	3.913	3.987	4.030	4.765	5.147	5.506	5.794	5.961	6.371	6.071	6.169	6.075	6.207	6.090	5.860	6.142	6.130	5.802	5.918	5.594	5.473	5.412	5.628	5.209	5.290	5.070	5.115	5.047	5.152
420.0	804.8	1094	1258	1311	1363	1355	1357	1343	1278	1233	1172	1101	1027	937.9	835.3	766.1	707.5	666.8	629.9	603.0	570.3	555.2	533.0	503.6	472.6	435.3	392.8	353.3	331.6	321.9	251.0	173.2	130.2	97.59	72.28	57.72	70.36	122.1	350.7	1654	2047	217.7	7.019	2.891	2.772	2.888	2.852	3.310	3.720	3.805	3.781	4.723	5.206	5.222	5.426	5.544	6.103	5.765	6.186	5.761	6.007	6.052	5.758	5.632	5.898	5.463	5.519	5.165	5.514	5.254	4.886	5.058	4.808	4.619	4.761	4.804	4.946
425.0	797.4	1016	1168	1269	1296	1296	1312	1299	1235	1176	1132	1069	984.7	896.2	807.5	728.7	678.7	636.7	605.9	582.2	549.3	537.9	514.4	490.0	466.9	429.2	398.1	354.4	324.8	315.6	282.8	195.4	142.2	107.4	80.09	60.16	49.89	50.87	95.78	476.0	1865	1795	34.21	4.653	2.761	3.045	2.833	3.199	3.803	3.652	3.641	4.447	5.232	5.189	5.464	5.379	5.860	5.808	5.916	5.838	6.042	5.841	5.729	5.627	5.615	5.555	5.279	5.158	4.989	5.008	4.581	4.806	4.679	4.623	4.602	4.520	4.877
430.0	903.5	958.6	1124	1202	1224	1241	1252	1231	1197	1148	1090	1022	934.0	851.2	765.4	689.0	638.8	603.8	574.9	550.6	524.7	512.6	492.2	473.8	454.2	421.9	389.6	357.7	326.2	299.5	281.4	236.8	168.3	124.3	92.65	70.69	53.70	42.50	43.65	121.9	516.9	1396	1641	537.9	12.93	3.497	3.046	3.307	3.724	3.425	3.515	4.357	4.816	4.893	5.037	5.149	5.523	5.452	5.666	5.838	5.675	5.749	5.692	5.427	5.379	4.991	5.125	5.053	4.585	4.793	4.755	4.786	4.484	4.542	4.497	4.395	4.707
435.0	1557	942.6	1054	1129	1162	1180	1181	1203	1156	1117	1067	987.0	896.4	810.2	727.3	655.6	602.0	571.5	542.1	520.6	497.7	483.3	469.2	458.3	436.6	408.7	380.9	356.5	329.7	298.2	266.7	245.6	206.2	144.1	107.0	81.77	62.99	48.35	37.54	47.69	130.3	330.1	933.2	2054	246.2	16.82	3.764	3.374	3.635	3.300	3.347	4.065	4.850	4.498	4.526	4.709	5.230	5.192	5.335	5.628	5.305	5.707	5.260	5.286	5.336	4.950	4.956	4.784	4.660	4.560	4.343	4.204	4.352	4.379	4.115	4.227	4.177
440.0	2195	1062	998.9	1082	1126	1148	1152	1175	1142	1097	1029	957.0	861.9	780.6	698.0	629.7	575.1	545.5	517.3	495.3	478.2	467.5	450.0	441.5	421.8	397.7	376.8	351.0	326.2	300.3	266.9	236.0	219.8	168.7	118.3	90.99	71.91	53.64	40.43	34.99	46.51	86.47	241.7	1300	1935	224.2	10.56	3.864	3.509	3.273	3.195	3.983	4.567	4.223	4.603	4.489	5.227	5.167	5.243	5.421	5.449	5.325	5.324	5.154	5.072	4.812	4.640	4.633	4.204	4.328	4.267	4.246	4.107	4.183	4.142	4.245	4.316
445.0	2350	1571	943.0	1009	1062	1097	1106	1133	1103	1046	1001	919.6	827.4	743.7	669.4	598.6	548.2	520.9	494.9	472.9	456.5	443.5	430.1	419.6	406.4	387.4	363.0	346.3	323.3	299.5	267.0	231.9	210.9	186.6	133.0	97.37	77.06	60.44	45.69	35.99	30.88	34.55	66.08	355.7	1554	1784	166.4	6.794	3.691	3.345	3.333	3.876	4.345	4.190	4.634	4.323	4.783	5.002	5.046	5.319	5.187	5.023	4.906	5.121	4.807	4.808	4.605	4.236	4.327	4.464	4.064	4.248	4.004	3.902	3.850	4.025	4.028
450.0	1529	2572	1131	956.5	991.4	1015	1037	1065	1041	996.8	949.5	870.7	784.3	700.3	624.8	554.1	510.0	480.1	457.5	438.8	424.5	411.8	399.5	393.5	380.0	365.6	345.8	330.7	313.8	291.9	262.1	227.8	197.9	179.8	153.7	112.4	85.19	66.01	51.41	39.84	31.39	26.38	28.99	90.74	412.8	1197	1568	584.0	13.15	3.658	3.285	3.755	4.289	4.086	4.191	4.200	4.543	4.952	4.720	4.917	4.747	4.824	4.793	4.887	4.734	4.584	4.314	3.990	3.960	4.103	3.885	3.852	3.911	3.883	3.493	3.796	3.616
455.0	806.4	2553	2237	920.1	895.6	935.4	967.5	996.6	975.6	920.1	893.7	815.7	726.2	644.0	578.9	511.7	465.9	440.3	414.4	395.5	385.5	373.0	365.9	359.3	346.4	338.6	321.5	310.5	298.3	278.7	253.9	221.3	191.3	165.5	151.2	131.5	94.34	71.22	57.23	45.55	35.44	28.06	23.21	33.30	102.5	278.8	706.7	1765	768.5	16.21	3.640	3.667	3.839	3.641	3.896	4.271	4.133	4.512	4.334	4.702	4.514	4.385	4.443	4.630	4.280	4.160	4.138	3.793	3.815	3.768	3.486	3.632	3.761	3.488	3.362	3.544	3.500
460.0	565.6	1727	3212	1153	852.7	872.5	911.3	935.6	911.2	873.6	844.7	765.9	678.8	604.6	540.6	478.2	433.1	409.0	386.7	369.5	355.2	346.4	339.0	334.8	324.4	313.7	302.7	293.2	282.1	267.9	243.5	215.1	184.7	157.9	139.0	131.6	104.9	75.62	59.77	47.60	38.47	30.00	23.61	21.91	34.78	71.66	174.4	919.9	1745	183.4	12.16	4.218	3.596	3.467	3.858	3.835	4.151	4.114	4.348	4.420	4.284	4.094	4.279	4.378	4.056	3.949	4.024	3.787	3.727	3.676	3.296	3.426	3.449	3.316	3.161	3.208	3.185
465.0	475.5	1000	3249	1951	819.7	813.4	838.0	869.6	860.6	834.3	797.7	722.1	644.9	569.7	508.8	444.3	400.0	377.6	359.9	338.7	330.1	320.1	316.3	308.5	302.4	291.0	282.1	274.7	266.7	254.0	233.4	207.3	176.7	154.0	129.6	121.9	111.5	84.03	63.47	49.46	39.95	32.54	25.53	20.60	20.51	26.29	47.39	235.3	1128	1433	158.2	9.414	3.864	3.673	3.564	3.525	3.854	3.930	4.204	4.000	4.141	3.949	4.032	4.092	3.842	3.794	3.615	3.590	3.406	3.316	3.194	3.197	3.273	3.158	2.964	3.068	3.066
470.0	431.4	635.4	1949	3230	1153	736.7	769.5	792.5	790.1	757.7	728.7	660.5	591.9	517.1	458.0	400.0	362.7	339.6	320.1	301.5	293.1	287.8	283.9	276.9	271.4	262.6	256.5	247.8	241.5	232.4	215.7	193.2	167.9	145.5	123.9	110.2	102.0	90.36	69.89	51.95	42.70	34.73	27.15	22.95	19.43	17.71	19.91	60.56	284.9	808.5	1127	582.7	15.35	3.990	3.561	3.401	3.534	3.747	3.887	3.662	3.919	3.861	3.770	3.925	3.598	3.547	3.343	3.289	3.206	3.161	2.921	2.853	2.876	2.894	2.613	2.749	2.857
475.0	423.3	510.1	905.6	2841	2471	705.3	697.6	709.6	710.6	688.6	642.4	595.6	528.9	464.7	408.1	358.7	326.6	300.9	284.5	270.6	258.9	252.4	249.4	244.4	238.0	232.7	230.9	221.7	217.8	210.1	195.5	176.2	153.3	134.8	117.7	102.3	90.21	84.61	77.34	56.25	43.75	36.34	29.32	24.23	20.16	17.44	15.15	22.20	71.09	186.9	395.1	1131	696.2	20.93	3.801	3.156	3.189	3.311	3.537	3.482	3.457	3.439	3.413	3.431	3.437	3.178	3.163	2.937	3.212	3.069	2.612	2.714	2.503	2.720	2.473	2.423	2.651
480.0	383.5	462.2	578.7	1739	3409	992.2	639.2	651.9	657.0	647.0	597.0	552.3	495.2	434.4	375.9	332.5	297.0	277.1	261.4	247.8	236.9	230.8	225.8	223.8	217.6	213.6	210.3	206.7	202.2	193.8	184.5	168.5	145.5	127.1	111.5	97.97	85.38	77.05	75.27	62.70	47.32	36.72	30.86	26.00	22.14	18.76	15.16	14.25	23.67	48.03	96.03	469.5	1252	216.0	16.39	3.362	3.243	3.016	3.354	3.418	3.313	3.380	3.299	3.358	3.375	3.006	2.889	2.768	2.853	2.560	2.401	2.394	2.331	2.458	2.500	2.347	2.233
485.0	375.5	465.2	492.1	929.0	3275	1846	616.8	607.8	619.9	607.5	573.7	526.7	467.0	407.2	352.4	310.2	275.6	257.6	241.9	230.6	222.6	215.0	208.5	208.1	203.1	198.9	193.7	192.8	188.5	182.8	173.7	159.3	141.1	123.0	106.8	93.55	81.90	72.43	69.91	65.47	51.02	38.06	31.12	26.83	22.70	19.71	16.07	13.58	13.40	17.77	27.37	116.0	669.6	1149	196.0	10.14	3.487	3.136	3.121	3.105	2.885	3.280	3.203	3.045	2.810	3.058	2.826	2.520	2.567	2.502	2.214	2.260	2.212	2.197	2.225	2.078	2.012
490.0	315.3	457.5	458.7	574.1	1845	3014	958.5	560.7	574.2	553.2	526.4	473.8	426.4	374.4	326.1	282.9	253.7	235.3	220.0	210.2	200.5	194.7	189.2	189.0	183.9	180.1	176.5	174.5	173.0	168.3	159.3	147.2	131.3	115.4	102.0	89.88	78.76	68.38	62.85	60.63	55.88	43.00	33.13	27.54	23.78	20.78	17.44	15.16	12.66	11.69	12.67	31.69	163.7	528.7	940.1	584.4	17.89	3.666	3.360	2.996	2.932	3.003	2.931	2.894	2.732	2.709	2.473	2.459	2.305	2.157	2.042	2.148	2.064	2.108	1.998	1.963	1.805
495.0	266.4	394.0	464.5	458.1	783.4	2608	2154	560.9	515.7	507.3	477.3	435.1	383.3	339.7	294.0	256.8	228.0	211.4	199.0	187.9	179.9	176.2	168.8	168.6	164.0	160.5	160.1	156.1	155.6	153.2	146.0	133.0	121.3	106.2	95.45	82.91	74.22	64.91	58.20	53.01	51.57	48.17	36.02	28.58	24.88	22.06	18.97	16.07	13.29	11.20	9.819	12.97	41.78	122.9	311.7	1006	812.0	25.27	3.551	2.818	2.947	2.818	2.612	2.699	2.391	2.345	2.401	2.335	2.131	2.077	1.912	1.956	1.857	1.987	1.912	1.665	1.681
500.0	244.8	319.7	461.1	406.5	490.7	1575	3078	793.9	470.3	459.8	440.8	401.8	353.3	310.8	269.5	235.0	209.9	191.4	183.4	170.9	163.8	158.1	152.9	151.7	149.3	147.4	144.4	143.3	141.5	140.2	133.6	124.7	111.1	99.96	89.07	78.71	70.57	62.23	54.80	49.76	45.68	47.39	40.16	30.57	25.53	22.73	18.60	16.33	14.04	11.32	9.623	9.271	14.86	32.38	74.75	385.9	1190	613.3	19.18	3.177	2.864	2.689	2.268	2.418	2.421	2.308	2.166	1.931	1.902	1.929	1.737	1.961	1.810	1.762	1.671	1.636	1.627
505.0	220.7	291.3	415.7	400.1	399.9	783.3	3003	1515	447.2	420.8	404.9	372.3	328.3	284.9	245.0	215.3	191.9	178.5	167.3	156.1	148.0	145.6	141.0	138.4	134.4	134.0	131.5	132.4	128.3	127.9	122.5	113.4	102.7	92.57	82.33	74.09	66.91	59.34	52.17	46.88	42.27	42.77	42.12	32.98	25.22	22.40	18.99	16.88	14.35	11.64	10.07	8.688	9.158	12.33	21.15	93.86	555.0	1171	222.9	12.18	2.753	2.630	2.210	2.304	2.327	2.177	2.036	1.859	1.677	1.773	1.603	1.897	1.541	1.541	1.699	1.548	1.503
510.0	183.0	253.9	341.7	394.7	347.2	442.9	1702	2691	697.7	381.4	361.5	332.0	292.8	257.2	219.7	190.1	170.4	155.6	146.5	138.3	129.5	127.4	123.0	120.7	118.4	117.8	115.5	115.9	114.5	113.6	108.6	100.6	91.41	81.99	74.19	67.17	60.81	54.34	49.15	43.42	39.14	36.01	36.68	34.79	27.63	21.71	18.85	16.29	13.87	11.97	10.49	9.118	7.921	8.065	9.315	25.02	133.8	486.7	810.5	493.7	17.71	2.938	2.304	2.237	1.964	1.953	1.901	1.702	1.614	1.642	1.553	1.647	1.458	1.404	1.510	1.380	1.386
515.0	164.3	206.0	273.0	361.1	329.3	329.3	669.8	2464	1792	367.1	320.1	294.6	255.3	226.9	195.8	167.6	149.4	134.7	129.0	119.3	113.5	110.6	108.2	106.1	102.8	101.1	99.89	101.1	99.20	99.33	95.59	88.39	80.69	73.02	66.11	60.06	53.44	48.45	43.93	40.31	36.38	32.58	30.85	31.90	29.53	23.64	18.47	16.08	13.60	11.54	10.63	9.355	7.951	7.372	6.821	9.912	33.72	112.2	250.5	790.7	633.6	24.49	2.608	2.109	1.898	1.646	1.583	1.552	1.416	1.546	1.518	1.387	1.424	1.216	1.177	1.147	1.267
520.0	128.4	197.3	221.1	302.8	328.4	287.8	374.2	1440	2783	545.8	287.5	260.8	231.9	203.2	175.1	150.8	135.5	121.3	113.5	108.2	103.3	99.80	96.72	94.98	91.52	90.70	89.17	89.45	88.93	87.87	85.63	78.40	74.06	66.56	60.41	54.60	49.09	44.99	40.11	37.61	33.27	30.09	28.29	27.51	28.74	25.09	18.41	15.51	13.15	11.58	10.28	9.460	8.293	7.051	6.066	6.421	11.43	28.72	59.98	297.9	891.8	242.1	17.87	2.127	1.974	1.611	1.722	1.536	1.562	1.393	1.237	1.358	1.222	1.233	1.043	1.130	1.235
525.0	142.3	164.3	201.2	254.3	326.3	258.9	275.7	654.1	2875	1215	271.2	240.0	215.7	183.1	159.6	137.6	122.6	110.6	103.1	100.2	92.52	90.96	87.20	84.65	83.29	82.93	80.88	81.26	82.14	79.87	76.45	71.77	66.03	59.21	54.52	50.86	45.44	41.66	38.01	34.95	31.35	27.83	25.81	24.16	25.71	25.13	19.34	15.05	13.06	11.62	10.13	8.882	8.289	7.246	6.157	5.770	6.565	10.07	16.61	71.97	404.1	803.2	212.8	9.612	2.136	1.529	1.506	1.401	1.471	1.363	1.157	1.244	1.192	1.205	1.149	0.993	1.068
530.0	126.9	149.5	180.7	205.2	277.0	266.1	236.7	334.0	1535	2401	482.8	213.8	187.8	162.5	139.3	120.6	106.6	96.96	91.53	86.40	81.22	77.71	75.99	73.63	71.42	70.69	71.01	70.65	71.01	70.05	67.30	63.77	58.22	52.91	48.59	44.34	40.19	37.05	33.73	31.08	28.31	25.61	23.81	22.00	21.07	22.17	20.64	16.00	12.60	11.08	9.724	8.484	7.668	7.268	6.435	5.489	5.448	5.823	6.928	18.99	96.79	338.5	587.0	367.9	16.51	1.921	1.493	1.210	1.267	1.184	1.078	1.140	1.125	1.100	0.980	0.909	0.975
535.0	104.1	136.3	157.5	170.2	212.3	267.2	207.4	226.3	535.5	2272	1484	204.8	163.2	140.7	122.2	102.2	92.50	84.41	78.60	73.05	69.62	66.74	64.24	62.04	61.50	60.28	60.01	59.96	61.62	60.93	57.61	54.02	49.16	44.83	42.10	37.81	35.09	32.23	30.62	27.55	25.60	23.57	21.10	19.34	18.11	17.83	18.53	17.06	13.09	10.20	9.196	7.907	6.973	6.659	6.731	5.475	5.138	4.815	4.783	7.057	24.21	77.88	177.4	559.6	447.1	22.48	1.673	1.202	1.225	1.069	0.963	0.963	0.901	0.898	0.758	0.799	0.782
540.0	95.95	112.4	141.0	141.9	169.2	246.8	208.5	187.1	264.3	1221	2512	325.8	144.9	124.8	107.9	91.49	81.74	76.27	68.40	64.02	60.94	59.37	56.90	55.16	54.80	52.40	51.00	51.38	53.50	52.55	49.97	46.79	43.86	40.06	37.25	33.25	31.33	28.55	26.85	24.18	22.88	21.42	19.09	17.35	15.98	14.97	15.48	16.23	13.33	10.24	8.545	7.600	6.621	6.393	6.141	5.949	4.728	4.142	4.088	4.341	7.554	19.57	42.20	206.6	616.8	233.9	15.41	1.311	1.191	1.024	0.839	0.926	0.797	0.900	0.732	0.781	0.716
545.0	88.26	109.8	119.8	127.6	140.9	199.8	216.7	164.9	179.5	499.9	2567	842.3	129.6	111.5	94.77	80.81	72.69	66.47	62.49	56.94	54.62	52.15	49.99	49.48	48.52	47.25	45.33	45.12	46.93	45.77	45.65	41.18	38.29	35.91	33.15	30.54	28.12	25.90	24.20	22.02	20.20	18.49	17.56	16.25	14.50	13.26	13.35	14.25	13.68	10.38	7.916	7.219	6.164	5.376	5.633	5.390	4.920	4.213	3.879	3.366	3.882	6.579	11.47	49.28	273.1	564.3	186.2	6.499	1.108	0.953	0.869	1.020	0.820	0.773	0.766	0.747	0.785
550.0	92.32	104.3	108.4	110.4	120.5	142.4	212.0	156.1	145.1	222.6	1254	1908	253.4	95.30	79.38	69.40	60.62	54.95	52.50	47.48	45.88	43.81	42.57	41.18	40.32	39.70	38.79	38.41	39.23	38.08	37.71	34.69	32.67	30.17	27.91	25.36	24.31	21.89	20.25	19.23	17.69	15.73	14.76	13.93	12.92	11.48	11.23	10.84	11.89	10.45	8.048	6.512	5.647	5.034	4.837	4.672	4.608	4.419	3.503	3.117	2.882	3.436	4.516	12.71	64.95	229.5	401.8	211.9	15.36	1.335	0.890	0.846	0.723	0.707	0.655	0.656	0.669
555.0	86.53	91.65	91.96	95.97	97.19	109.7	169.0	173.5	121.4	138.1	390.4	1861	984.8	87.81	66.65	56.71	49.29	45.80	41.54	39.91	36.42	35.65	34.86	32.99	33.69	31.71	31.25	31.56	31.46	31.49	30.55	28.40	26.93	24.72	22.76	21.20	19.16	17.75	16.75	15.69	14.54	13.06	12.49	11.49	10.69	9.889	9.368	8.999	8.924	9.174	8.243	6.111	4.944	4.530	4.174	4.116	3.697	3.788	3.611	2.866	2.513	2.493	2.502	4.354	15.99	52.41	117.9	350.0	242.0	20.48	1.000	0.750	0.672	0.680	0.643	0.568	0.599
560.0	80.85	96.49	90.80	81.16	80.90	86.33	124.0	179.0	110.1	107.6	166.5	953.7	1815	134.8	56.06	48.74	42.68	39.06	35.87	33.30	31.32	31.52	28.68	27.64	28.65	26.99	25.80	26.45	26.85	27.01	25.50	24.18	22.09	21.17	19.17	17.92	16.90	15.28	13.93	13.27	12.23	11.10	10.73	9.760	9.393	9.144	8.087	7.407	7.305	7.563	7.715	6.265	4.503	4.073	3.934	3.732	3.511	3.356	3.347	3.104	2.395	2.139	2.199	2.431	4.816	12.91	27.73	128.0	375.1	202.3	12.13	0.833	0.600	0.607	0.540	0.519	0.527
565.0	89.44	95.59	88.33	81.47	69.59	73.15	93.32	167.1	120.9	94.43	107.6	353.3	1962	468.8	50.24	42.12	39.05	32.14	30.42	29.09	26.62	25.54	24.62	23.88	22.93	22.84	22.36	22.12	22.53	22.61	21.61	20.34	19.63	18.07	16.34	15.39	14.11	13.56	12.09	11.77	10.49	9.533	9.179	8.732	7.942	7.693	7.041	6.135	5.912	5.888	6.260	6.122	4.731	3.710	3.349	3.278	2.993	3.003	2.823	2.855	2.329	2.049	2.010	1.792	2.299	3.962	7.329	30.27	161.3	354.8	139.6	4.835	0.721	0.572	0.603	0.492	0.517
570.0	77.00	88.90	88.09	69.99	63.72	64.63	73.20	115.5	136.8	86.68	85.33	139.8	982.5	1303	91.21	35.39	30.51	27.24	25.54	22.94	21.70	21.32	19.98	19.88	18.70	18.60	18.41	17.99	17.87	18.21	17.90	16.30	15.87	14.68	13.09	12.62	11.60	10.56	9.832	9.353	8.554	8.149	7.606	7.323	6.775	6.259	6.004	5.321	4.862	4.571	4.733	5.331	4.622	3.633	3.041	2.761	2.571	2.557	2.188	2.363	2.374	1.982	1.690	1.542	1.577	1.947	2.685	7.763	38.26	140.2	256.0	135.7	13.07	0.773	0.501	0.507	0.420
575.0	76.04	86.97	80.60	63.38	53.79	55.96	58.59	77.16	132.1	96.43	71.95	83.86	286.7	1347	570.1	32.44	25.12	22.61	19.92	17.99	17.99	17.00	16.05	15.91	15.40	14.89	14.57	14.07	14.62	14.62	14.02	12.99	12.48	11.64	10.24	10.03	9.412	8.628	8.010	7.477	7.251	6.952	6.246	5.992	5.503	5.193	4.836	4.579	4.146	3.597	3.558	3.842	4.159	3.677	2.760	2.304	2.214	1.993	1.867	1.912	2.026	1.920	1.715	1.335	1.267	1.291	1.705	2.719	9.289	32.05	73.56	217.8	177.5	16.37	0.629	0.450	0.505
580.0	69.95	87.25	74.45	56.88	47.30	47.16	49.73	59.76	105.6	112.5	69.17	66.33	105.6	708.4	1065	57.30	21.35	19.45	18.13	15.93	15.69	13.79	13.44	13.39	13.34	13.02	12.18	12.27	12.63	11.61	11.25	11.10	10.95	10.09	8.811	8.445	7.872	7.637	7.030	6.172	6.042	5.646	5.205	5.201	4.350	4.524	4.195	4.059	3.435	3.310	2.953	2.904	3.537	3.504	2.681	2.225	2.045	1.872	1.669	1.782	1.807	1.798	1.723	1.337	1.239	1.233	1.285	1.472	2.907	7.913	17.33	79.92	231.0	129.6	7.742	0.441	0.452
585.0	73.52	85.61	70.19	54.23	47.04	41.84	45.51	48.77	78.42	123.2	72.54	61.54	65.16	250.5	1309	117.7	20.29	17.79	15.54	14.19	13.21	12.97	11.82	11.69	11.29	11.16	10.52	10.98	10.51	10.07	9.521	9.983	9.128	8.419	7.997	7.314	6.545	6.480	5.958	5.395	5.090	4.909	4.745	4.574	4.264	3.824	3.546	3.534	3.255	2.793	2.610	2.499	2.790	3.183	2.841	2.081	1.698	1.586	1.498	1.615	1.657	1.465	1.657	1.454	1.203	1.137	1.173	1.224	1.446	2.469	4.546	19.11	97.92	217.6	35.59	3.135	0.405
590.0	72.09	83.46	62.87	47.11	43.93	37.01	42.93	44.97	55.77	105.7	88.89	57.93	52.57	86.06	672.6	754.6	44.26	14.18	12.95	11.51	10.52	10.01	9.666	9.584	9.118	8.946	8.472	8.747	8.581	8.168	8.078	7.880	7.397	6.946	6.390	5.950	5.462	5.485	4.871	4.676	4.254	4.055	3.903	3.695	3.551	3.326	3.055	2.753	2.738	2.347	2.188	2.033	2.090	2.360	2.596	2.154	1.808	1.580	1.371	1.354	1.289	1.263	1.333	1.563	1.364	1.126	1.066	1.012	1.068	1.136	1.656	4.848	23.21	83.42	136.4	87.87	11.62
595.0	68.29	76.14	66.11	49.55	39.35	35.86	40.00	40.65	45.25	74.93	108.3	60.94	47.32	45.26	185.6	873.4	275.7	12.21	10.73	8.692	8.997	8.505	7.737	7.251	7.205	6.948	7.003	6.974	7.103	6.935	6.456	6.370	5.828	5.277	5.201	4.431	4.441	4.180	3.983	3.684	3.369	3.183	3.056	2.887	2.670	2.680	2.545	2.271	2.316	2.119	1.714	1.655	1.520	1.594	1.992	2.037	1.775	1.394	1.265	1.264	1.114	1.182	1.038	1.225	1.395	1.355	0.965	0.860	0.877	0.830	1.011	1.633	5.604	19.02	39.32	122.1	114.4
600.0	64.92	69.42	61.02	49.82	39.00	35.90	34.42	36.14	40.77	57.20	105.9	68.48	46.30	36.07	60.00	497.3	640.1	21.52	8.577	7.923	7.892	7.217	6.480	6.421	6.235	6.140	5.989	5.472	5.553	5.567	5.433	5.166	4.873	4.560	4.317	4.061	3.779	3.589	3.446	3.213	2.710	2.841	2.696	2.424	2.495	2.424	2.126	1.938	1.908	1.734	1.540	1.436	1.392	1.472	1.474	1.714	1.676	1.467	1.134	1.015	0.965	0.893	0.909	1.143	1.130	1.313	1.063	0.835	0.750	0.727	0.764	0.847	1.682	4.753	9.289	42.75	136.5
605.0	59.19	67.10	66.11	45.54	36.59	33.89	32.83	34.77	40.60	47.93	87.47	83.09	45.46	35.43	31.31	174.8	809.5	75.80	7.838	6.839	6.079	6.335	5.639	5.611	5.457	4.868	4.598	4.977	4.749	5.213	4.989	4.634	4.370	3.759	3.682	3.598	3.181	3.049	2.980	2.831	2.515	2.457	2.414	2.225	2.234	2.149	1.760	1.655	1.700	1.452	1.484	1.358	1.175	1.282	1.192	1.425	1.735	1.344	1.070	0.849	0.898	0.828	0.861	0.977	0.972	1.089	1.129	0.793	0.920	0.696	0.700	0.659	0.829	1.454	2.448	10.14	55.13
610.0	59.05	60.96	57.48	41.55	33.72	32.61	30.56	33.19	40.66	45.42	65.98	94.56	51.61	36.20	24.80	53.25	460.0	448.4	19.73	6.271	5.133	4.937	4.852	4.654	4.337	4.488	4.057	3.942	4.108	4.290	4.023	3.878	3.555	3.374	2.985	2.886	2.710	2.454	2.455	2.370	2.162	1.934	1.934	1.843	1.784	1.744	1.558	1.469	1.403	1.304	1.261	1.144	1.026	1.029	1.021	1.027	1.370	1.370	1.211	0.931	0.765	0.734	0.824	0.890	0.779	0.844	0.986	0.951	0.825	0.701	0.607	0.613	0.649	0.682	0.956	2.581	13.06
615.0	54.30	53.12	52.68	38.32	31.55	31.38	30.99	33.59	34.17	44.77	54.19	80.02	64.70	33.91	24.06	24.24	127.5	586.8	79.78	5.625	4.388	4.205	4.150	3.739	3.736	3.549	3.415	3.276	3.403	3.363	2.944	3.153	2.650	2.778	2.388	2.517	2.302	1.850	1.788	1.925	1.710	1.680	1.464	1.475	1.469	1.369	1.320	1.258	1.200	1.070	0.947	0.959	0.850	0.930	0.840	0.752	0.901	1.022	1.211	0.987	0.681	0.733	0.680	0.762	0.712	0.732	0.743	0.974	0.909	0.641	0.581	0.585	0.539	0.492	0.495	0.921	3.187
620.0	50.73	52.97	46.21	36.34	29.30	29.82	31.51	34.13	35.45	40.11	47.73	67.13	75.14	37.76	24.46	16.98	38.79	373.6	375.5	9.358	3.854	3.715	3.362	3.147	2.968	2.963	2.997	2.798	2.894	2.739	2.919	2.622	2.186	2.496	2.283	2.129	1.851	1.776	1.635	1.517	1.342	1.346	1.247	1.183	1.288	1.255	1.129	1.176	0.995	0.913	0.826	0.823	0.734	0.782	0.695	0.701	0.734	0.938	1.005	0.958	0.666	0.680	0.631	0.635	0.651	0.636	0.650	0.699	0.853	0.670	0.670	0.503	0.506	0.391	0.353	0.471	1.015
625.0	44.23	45.47	50.05	38.14	33.85	30.51	29.62	30.63	34.29	38.71	45.07	55.95	78.38	43.35	24.44	15.66	16.96	138.9	551.2	47.01	3.458	3.146	2.954	2.960	2.553	2.569	2.466	2.678	2.449	2.193	2.484	2.256	1.805	2.209	1.974	1.728	1.582	1.629	1.420	1.492	1.294	1.128	1.043	1.105	1.109	1.071	1.008	0.929	0.894	0.792	0.737	0.609	0.666	0.539	0.619	0.653	0.657	0.767	0.917	0.864	0.773	0.585	0.566	0.523	0.607	0.652	0.648	0.589	0.713	0.704	0.584	0.528	0.560	0.436	0.392	0.458	0.491
630.0	44.84	45.65	46.23	33.67	28.74	25.99	29.71	30.20	31.64	36.38	43.01	48.01	62.57	53.12	25.64	15.69	12.02	38.82	353.3	284.0	8.681	2.953	2.328	2.462	2.223	1.940	2.093	2.105	1.942	1.857	2.117	1.789	1.695	1.707	1.514	1.439	1.322	1.280	1.185	1.274	1.078	0.997	0.908	1.060	0.895	0.876	0.750	0.788	0.721	0.704	0.625	0.624	0.611	0.557	0.602	0.572	0.534	0.610	0.653	0.753	0.756	0.554	0.535	0.504	0.534	0.569	0.591	0.573	0.570	0.595	0.671	0.573	0.452	0.368	0.361	0.383	0.335
635.0	51.69	42.69	45.80	33.54	27.13	24.74	28.02	30.13	31.66	33.54	40.27	44.49	47.76	58.23	30.37	15.19	10.72	15.17	99.84	435.7	59.11	2.753	2.167	2.027	1.681	1.540	1.819	1.621	1.557	1.610	1.407	1.430	1.316	1.379	1.214	1.188	1.115	1.128	1.035	1.035	0.817	0.867	0.905	0.849	0.733	0.772	0.697	0.742	0.637	0.518	0.557	0.537	0.488	0.560	0.480	0.510	0.527	0.527	0.465	0.524	0.661	0.597	0.606	0.540	0.485	0.475	0.527	0.529	0.555	0.559	0.739	0.657	0.497	0.390	0.328	0.318	0.376
640.0	45.50	47.57	47.78	32.85	29.48	24.16	27.02	28.08	30.43	34.60	38.73	44.39	42.45	54.15	36.56	17.03	10.63	9.644	27.33	308.4	240.2	4.608	2.067	1.673	1.596	1.472	1.450	1.392	1.257	1.423	1.228	1.221	1.232	1.040	1.040	1.101	0.884	1.068	0.829	0.835	0.834	0.737	0.691	0.612	0.623	0.746	0.715	0.578	0.614	0.475	0.527	0.446	0.470	0.497	0.378	0.468	0.470	0.457	0.389	0.412	0.547	0.612	0.529	0.546	0.468	0.511	0.486	0.509	0.493	0.580	0.502	0.620	0.657	0.421	0.321	0.266	0.381
645.0	46.88	52.11	46.88	30.63	27.47	25.64	25.02	29.65	27.60	32.85	41.17	44.18	41.68	49.09	43.10	18.54	11.85	8.135	10.94	123.3	386.4	26.50	2.039	1.594	1.491	1.591	1.335	1.332	1.134	1.240	0.992	1.204	0.978	1.127	0.937	0.991	0.820	0.891	0.717	0.724	0.760	0.637	0.712	0.640	0.556	0.550	0.684	0.564	0.630	0.503	0.445	0.382	0.382	0.428	0.361	0.389	0.398	0.464	0.407	0.386	0.489	0.541	0.600	0.482	0.452	0.439	0.416	0.481	0.468	0.559	0.380	0.571	0.653	0.530	0.334	0.312	0.319
650.0	55.05	61.28	54.96	38.27	29.40	26.27	27.21	29.32	27.73	31.98	40.20	43.22	43.73	41.78	46.43	21.59	13.51	8.208	7.162	35.47	355.1	68.36	2.258	1.528	1.261	1.286	1.332	1.147	0.998	1.069	1.093	1.013	1.020	0.994	0.880	0.912	0.776	0.716	0.730	0.650	0.767	0.595	0.779	0.541	0.575	0.515	0.643	0.587	0.501	0.545	0.400	0.336	0.342	0.403	0.377	0.330	0.403	0.379	0.399	0.452	0.400	0.447	0.496	0.447	0.473	0.466	0.399	0.486	0.415	0.482	0.483	0.478	0.517	0.546	0.463	0.303	0.331
