Sample:	'1
File name:	t2025060613袁家屋子南闸入杏花河.FD3
Run date:	'15:52:23, 06/09/2025
Operator:	Administrator
Comment:	'

Instrument
Model:	F-2700 FL Spectrophotometer
Serial number:	23B8-004
ROM Version:	4J14000 07

Instrument parameters
Measurement type:	3-D scan
Data mode:	Fluorescence
EX  Start WL:	220.0 nm
EX  End WL:	600.0 nm
EX Sampling interval:	5.0 nm
EM  Start WL:	230.0 nm
EM  End WL:	650.0 nm
EM Sampling interval:	5.0 nm
Scan speed:	12000 nm/min
EX Slit:	5.0 nm
EM Slit:	5.0 nm
PMT Voltage:	700 V
Response:	Auto 
Corrected spectra:	Off
Contour interval:	50.000

Peak integration
Integration method:	Rectangular
Sensitivity:	1
Threshold:	1.000

Peaks
No.	ApexEX/EM(nm)	Height(Data)
1	225.0/590.0	99.39
2	225.0/615.0	79.19
3	230.0/345.0	5310
4	230.0/620.0	75.07
5	240.0/265.0	266.4
6	245.0/270.0	279.4
7	250.0/275.0	360.0
8	255.0/280.0	473.8
9	265.0/585.0	140.9
10	270.0/600.0	132.1
11	275.0/415.0	4997
12	275.0/610.0	145.7
13	280.0/340.0	3160
14	280.0/625.0	131.2
15	285.0/640.0	110.3
16	340.0/415.0	2865
17	460.0/345.0	14.37
18	475.0/350.0	14.39
19	505.0/275.0	2.500
20	510.0/280.0	2.632
21	565.0/415.0	17.71
22	570.0/410.0	17.43
23	575.0/340.0	15.54

Data points
	220.0	225.0	230.0	235.0	240.0	245.0	250.0	255.0	260.0	265.0	270.0	275.0	280.0	285.0	290.0	295.0	300.0	305.0	310.0	315.0	320.0	325.0	330.0	335.0	340.0	345.0	350.0	355.0	360.0	365.0	370.0	375.0	380.0	385.0	390.0	395.0	400.0	405.0	410.0	415.0	420.0	425.0	430.0	435.0	440.0	445.0	450.0	455.0	460.0	465.0	470.0	475.0	480.0	485.0	490.0	495.0	500.0	505.0	510.0	515.0	520.0	525.0	530.0	535.0	540.0	545.0	550.0	555.0	560.0	565.0	570.0	575.0	580.0	585.0	590.0	595.0	600.0
230.0	33.84	570.3	1461	636.0	40.90	6.969	5.417	4.716	4.235	4.131	4.043	4.305	3.539	3.069	2.796	2.294	1.885	1.749	1.499	1.475	1.390	1.269	1.402	1.267	1.141	1.146	1.065	1.042	0.997	0.857	0.834	0.746	0.662	0.512	0.566	0.476	0.405	0.419	0.400	0.343	0.309	0.353	0.351	0.330	0.299	0.282	0.513	2.372	4.927	4.498	1.938	0.514	0.245	0.199	0.207	0.227	0.199	0.203	0.202	0.196	0.202	0.177	0.192	0.215	0.211	0.209	0.236	0.180	0.203	0.207	0.219	0.201	0.237	0.203	0.215	0.193	0.207
235.0	74.23	173.4	820.1	1713	566.7	68.66	6.483	5.756	4.017	4.579	3.926	4.085	4.382	3.453	2.985	2.502	2.212	1.786	1.738	1.439	1.387	1.451	1.343	1.286	1.141	1.176	0.925	1.085	1.065	0.930	0.768	0.692	0.582	0.587	0.487	0.443	0.393	0.420	0.377	0.322	0.365	0.320	0.353	0.403	0.368	0.306	0.342	0.768	1.875	3.790	5.688	6.765	3.766	0.828	0.273	0.204	0.271	0.219	0.193	0.230	0.208	0.243	0.185	0.182	0.264	0.202	0.217	0.204	0.207	0.250	0.187	0.260	0.210	0.216	0.213	0.227	0.180
240.0	109.5	104.3	244.3	1288	2154	456.8	38.54	5.725	5.646	5.154	4.112	4.702	4.291	3.683	2.919	2.667	2.337	1.711	1.786	1.578	1.460	1.460	1.277	1.300	1.189	1.216	1.165	1.093	0.925	0.895	0.751	0.731	0.689	0.489	0.537	0.502	0.422	0.427	0.357	0.380	0.328	0.307	0.286	0.325	0.458	0.609	0.524	0.471	0.629	1.183	2.845	7.517	10.45	7.884	3.294	0.613	0.323	0.247	0.215	0.232	0.215	0.257	0.255	0.224	0.189	0.185	0.237	0.229	0.185	0.198	0.204	0.212	0.180	0.203	0.223	0.221	0.167
245.0	68.40	149.0	113.0	406.4	1988	2376	348.3	18.70	6.347	5.755	5.146	5.511	4.155	4.017	3.136	2.658	2.306	1.857	1.759	1.784	1.505	1.661	1.287	1.348	1.226	1.112	1.065	0.979	0.918	0.851	0.840	0.727	0.702	0.544	0.512	0.416	0.413	0.428	0.359	0.385	0.340	0.319	0.252	0.282	0.377	0.540	0.655	0.592	0.446	0.453	0.814	2.503	6.235	12.14	13.33	7.529	2.546	0.381	0.233	0.207	0.186	0.286	0.208	0.245	0.206	0.258	0.193	0.187	0.238	0.200	0.226	0.187	0.224	0.189	0.203	0.170	0.171
250.0	40.02	103.1	179.2	172.6	594.4	1939	2876	1173	82.64	7.787	6.354	5.541	5.053	4.371	3.385	2.902	2.393	2.064	1.752	1.687	1.601	1.448	1.417	1.450	1.343	1.147	1.288	1.039	0.948	1.012	0.831	0.862	0.753	0.575	0.555	0.474	0.485	0.374	0.398	0.384	0.423	0.321	0.314	0.314	0.352	0.376	0.394	0.635	0.767	0.645	0.572	0.809	1.665	3.705	7.175	11.28	14.99	14.38	9.085	2.561	0.394	0.248	0.217	0.243	0.200	0.267	0.246	0.199	0.224	0.237	0.217	0.209	0.196	0.180	0.199	0.183	0.199
255.0	27.83	41.16	117.6	237.3	224.6	478.3	1794	4386	1689	93.83	8.773	7.109	5.440	5.121	3.971	2.953	2.685	2.031	1.996	1.520	1.669	1.480	1.500	1.580	1.306	1.269	1.218	1.177	0.998	1.022	0.931	0.847	0.736	0.656	0.514	0.613	0.443	0.453	0.387	0.337	0.365	0.362	0.360	0.325	0.311	0.275	0.317	0.331	0.428	0.738	0.966	1.130	0.794	1.072	1.859	2.814	5.016	12.29	23.99	24.91	13.25	3.073	0.316	0.310	0.232	0.260	0.299	0.191	0.226	0.244	0.253	0.265	0.195	0.221	0.199	0.200	0.223
260.0	29.42	31.49	48.78	171.0	263.1	165.1	506.8	3021	5336	1312	47.08	9.295	6.109	5.574	4.433	3.366	2.963	2.232	1.862	2.067	1.842	1.581	1.739	1.548	1.210	1.275	1.243	1.245	0.949	0.994	1.060	0.818	0.739	0.687	0.588	0.594	0.429	0.467	0.504	0.459	0.318	0.403	0.408	0.351	0.280	0.284	0.272	0.318	0.312	0.353	0.645	1.141	1.478	0.843	0.763	0.872	1.378	3.310	9.455	21.36	31.08	25.15	10.33	1.762	0.271	0.245	0.297	0.259	0.271	0.262	0.270	0.196	0.247	0.202	0.235	0.230	0.189
265.0	32.97	30.03	26.48	85.14	266.4	211.0	149.5	925.1	4616	5787	227.6	20.75	8.019	6.363	5.187	3.579	2.862	2.415	1.974	1.941	1.799	1.658	1.578	1.427	1.325	1.182	1.277	1.170	1.135	0.970	0.931	0.924	0.704	0.679	0.558	0.544	0.500	0.510	0.423	0.403	0.360	0.376	0.354	0.339	0.295	0.266	0.292	0.257	0.302	0.270	0.339	0.616	1.195	1.475	1.244	0.630	0.614	1.014	2.437	6.015	15.42	31.06	32.48	22.84	6.707	0.725	0.304	0.303	0.322	0.269	0.283	0.238	0.239	0.223	0.226	0.289	0.303
270.0	56.46	47.78	39.74	41.43	119.3	279.4	237.1	258.6	1339	4518	6325	2179	60.49	9.303	6.484	4.916	3.786	3.090	2.399	2.038	1.724	1.790	1.739	1.547	1.458	1.440	1.213	1.263	1.246	0.994	1.063	0.906	0.830	0.854	0.619	0.597	0.511	0.499	0.385	0.374	0.418	0.415	0.390	0.383	0.378	0.389	0.362	0.350	0.346	0.298	0.271	0.407	0.521	0.830	1.323	1.426	1.517	0.977	0.909	1.612	3.872	8.720	16.11	28.22	30.42	33.31	15.78	6.304	0.838	0.324	0.327	0.305	0.268	0.260	0.285	0.288	0.272
275.0	111.2	130.9	100.8	58.72	58.27	125.1	360.0	297.5	359.2	1110	3611	9321	1217	66.59	8.369	5.516	4.581	3.717	3.026	2.505	2.139	2.107	1.781	1.644	1.737	1.543	1.467	1.366	1.229	1.269	1.169	1.066	0.927	0.799	0.857	0.741	0.626	0.646	0.583	0.440	0.465	0.516	0.526	0.496	0.471	0.554	0.595	0.527	0.583	0.477	0.300	0.328	0.396	0.439	0.645	0.751	1.537	2.500	1.713	0.996	1.356	2.325	4.017	6.841	8.793	20.91	43.85	55.91	24.82	6.973	0.615	0.324	0.351	0.296	0.237	0.241	0.280
280.0	185.7	226.8	198.4	118.3	68.46	80.88	232.8	473.8	265.5	354.8	1031	5926	9130	903.7	29.75	8.072	5.759	4.249	3.390	2.920	2.430	2.123	2.059	1.733	1.789	1.525	1.573	1.402	1.212	1.201	1.115	1.056	0.848	0.933	0.824	0.760	0.713	0.671	0.638	0.662	0.601	0.519	0.580	0.579	0.652	0.839	0.832	0.849	0.782	0.615	0.465	0.572	0.481	0.427	0.543	0.549	0.825	1.731	2.632	2.451	1.485	1.180	1.419	2.185	2.620	5.689	14.63	35.21	58.24	33.60	20.18	3.302	0.451	0.308	0.289	0.274	0.315
285.0	270.5	364.0	309.8	192.1	107.5	95.52	146.9	411.5	518.1	278.2	413.5	1780	7859	7665	125.3	15.19	7.614	5.055	3.863	3.207	2.452	2.338	2.027	1.945	1.917	1.567	1.510	1.424	1.365	1.189	0.981	1.006	0.840	0.994	0.961	0.923	0.832	0.749	0.698	0.742	0.699	0.659	0.720	0.671	0.836	1.069	1.020	1.171	1.089	0.901	0.753	0.681	0.662	0.607	0.633	0.553	0.668	0.975	1.636	2.789	3.075	2.059	1.458	1.423	1.627	2.304	4.301	9.658	22.46	42.95	65.04	30.72	14.08	1.450	0.379	0.383	0.318
290.0	410.2	542.8	485.8	325.4	194.9	157.2	179.0	287.7	567.5	663.5	497.6	739.8	2342	6248	7002	1823	34.80	7.353	5.063	4.030	3.267	2.748	2.362	2.058	2.098	1.662	1.744	1.490	1.457	1.382	1.145	1.130	0.985	1.011	0.997	1.135	1.067	0.966	0.874	0.866	0.729	0.822	0.889	0.912	1.133	1.419	1.359	1.617	1.547	1.320	1.093	0.957	0.874	0.813	0.820	0.820	0.880	1.071	1.253	1.807	2.480	3.184	3.679	3.404	2.392	2.281	2.748	3.846	6.776	11.92	23.29	33.96	47.43	44.16	20.91	10.86	1.990
295.0	539.3	711.8	672.7	461.1	296.1	252.3	272.9	339.6	477.5	820.9	1013	768.4	1003	1733	4010	8853	695.9	35.66	6.852	5.528	3.642	3.002	2.904	2.568	2.277	1.964	1.778	1.771	1.500	1.283	1.320	1.262	1.053	1.056	1.203	1.361	1.212	1.083	1.010	0.948	0.951	1.016	1.131	1.081	1.345	1.602	1.653	2.215	1.967	1.697	1.340	1.449	1.224	1.192	1.062	1.166	1.344	1.406	1.432	1.770	2.245	2.490	3.083	4.845	5.487	4.551	3.572	3.520	4.255	5.051	7.487	9.092	12.71	20.19	44.02	67.51	32.77
300.0	617.1	843.2	822.1	570.0	387.3	350.3	393.1	415.0	587.5	846.6	1366	1209	950.9	878.5	1297	5885	5856	528.4	18.56	6.888	4.459	3.615	3.271	2.806	2.636	2.337	1.813	1.672	1.510	1.654	1.368	1.192	1.142	1.130	1.169	1.272	1.306	1.259	1.021	1.077	1.002	1.140	1.112	1.205	1.487	1.793	2.051	2.598	2.294	2.088	1.675	1.814	1.640	1.522	1.491	1.504	1.702	1.798	2.054	2.149	2.463	3.213	3.335	4.539	6.079	7.423	6.718	5.221	4.970	4.801	4.807	4.637	5.081	6.520	13.50	32.56	58.06
305.0	727.5	980.0	955.1	708.4	507.0	475.3	548.6	649.9	842.1	1088	1528	1757	1379	998.3	838.1	1913	6845	4985	77.20	11.30	5.943	4.454	3.636	3.318	2.848	2.316	1.979	2.000	1.656	1.699	1.597	1.348	1.219	1.155	1.258	1.262	1.509	1.341	1.151	1.146	1.091	1.269	1.235	1.436	1.718	2.161	2.455	3.006	2.706	2.596	2.176	2.230	1.917	2.020	1.999	2.038	2.448	2.807	2.987	3.345	3.493	4.167	4.593	5.421	6.168	7.620	9.327	9.164	7.710	6.455	5.553	5.366	4.994	4.580	5.604	9.691	19.37
310.0	829.4	1087	1125	836.2	635.6	613.1	706.2	855.9	1045	1338	1672	2028	2040	1416	984.8	923.5	2248	5237	5422	1310	23.66	6.231	4.631	3.927	3.316	2.718	2.349	2.214	1.826	1.845	1.622	1.288	1.269	1.250	1.350	1.366	1.394	1.351	1.350	1.209	1.210	1.326	1.361	1.575	1.859	2.427	2.865	3.227	3.253	2.956	2.432	2.632	2.467	2.429	2.365	2.709	3.063	3.650	3.919	4.078	4.536	5.032	5.819	6.564	7.182	8.120	8.877	9.698	10.51	9.718	8.418	7.107	5.955	5.325	5.096	5.350	6.983
315.0	986.9	1333	1307	1003	772.9	742.3	843.7	1019	1205	1518	1840	2126	2226	2026	1315	894.3	995.7	1479	3658	7032	495.1	22.16	6.379	4.893	3.560	2.778	2.632	2.662	2.012	1.897	1.708	1.505	1.446	1.263	1.161	1.415	1.355	1.385	1.401	1.249	1.336	1.399	1.583	1.708	2.192	2.984	3.231	3.922	3.805	3.380	3.054	2.995	2.953	2.953	2.967	3.034	3.660	4.033	4.601	4.505	5.129	5.700	6.462	7.592	8.072	8.727	9.480	10.05	10.49	10.59	11.33	10.53	8.465	6.737	6.159	5.237	5.214
320.0	1284	1815	1715	1225	915.8	846.4	946.8	1138	1364	1698	2067	2363	2386	2312	1789	1101	864.5	694.9	1098	5167	4211	379.9	13.05	6.405	4.775	3.541	3.187	2.370	2.253	1.994	1.744	1.709	1.463	1.311	1.316	1.492	1.307	1.439	1.486	1.575	1.366	1.563	1.848	2.363	2.852	3.567	4.187	5.168	4.869	4.169	3.390	3.746	3.659	3.529	3.518	3.656	3.983	4.447	4.654	5.034	5.473	6.471	7.236	8.327	9.477	9.556	10.25	10.94	11.26	11.32	11.16	11.95	11.79	9.791	7.769	6.536	5.689
325.0	1675	2618	2518	1842	1214	1014	1061	1259	1520	1883	2292	2601	2606	2456	2174	1433	956.8	617.1	479.4	1617	5618	3665	58.64	10.21	5.962	4.493	3.355	2.644	2.532	2.378	1.846	1.858	1.519	1.396	1.453	1.389	1.487	1.524	1.441	1.395	1.553	1.784	2.004	2.676	3.640	5.111	6.016	7.063	7.343	6.106	5.063	5.022	4.374	4.160	3.892	3.893	4.562	4.887	5.583	5.904	6.293	7.002	7.835	8.970	9.781	10.67	11.32	11.84	12.77	12.35	12.41	12.13	12.68	12.26	10.46	8.367	6.862
330.0	2199	3462	3797	3038	1938	1359	1271	1434	1675	2073	2515	2851	2892	2693	2325	1868	1271	758.0	486.9	619.7	1807	4325	4437	1022	20.79	6.247	4.184	3.315	3.006	2.508	2.042	1.860	1.706	1.528	1.554	1.531	1.459	1.571	1.482	1.490	1.667	2.046	2.359	3.283	4.523	6.494	7.951	9.955	10.39	9.508	8.578	8.358	7.199	5.859	5.179	4.888	5.318	5.531	6.156	6.906	7.044	7.637	8.969	9.936	10.85	11.77	12.78	13.10	13.58	13.90	13.60	13.81	13.19	12.49	11.58	11.34	9.880
335.0	2488	4098	4744	4027	2729	1828	1520	1600	1822	2209	2668	3026	3089	2920	2501	2025	1658	1050	662.6	558.7	721.4	1250	3503	5920	407.3	21.89	6.522	4.397	3.515	2.819	2.250	2.170	1.860	1.716	1.525	1.522	1.628	1.652	1.655	1.679	2.002	2.403	2.624	3.737	5.089	7.453	9.112	11.76	13.27	12.29	11.17	11.98	9.857	8.102	7.067	6.220	6.494	6.497	6.922	7.352	7.710	8.583	9.592	10.79	11.19	12.22	13.93	13.89	14.58	14.90	14.76	14.80	14.56	14.02	12.57	11.85	11.94
340.0	2617	4339	5194	4531	3149	2105	1645	1678	1903	2274	2724	3072	3160	3014	2608	2106	1737	1318	827.1	638.0	559.0	588.5	1175	4715	3492	329.4	12.29	6.120	4.139	3.195	2.847	2.377	1.857	1.887	1.560	1.571	1.761	1.605	1.723	1.741	2.046	2.409	2.803	3.949	5.333	7.988	9.691	12.93	14.31	13.84	12.72	13.58	11.56	9.614	8.216	6.874	7.014	7.130	7.039	7.519	8.093	8.896	10.15	11.14	11.36	12.62	14.02	13.70	14.41	15.06	14.90	15.54	15.23	14.40	13.28	12.57	11.70
345.0	2671	4404	5310	4784	3392	2246	1781	1747	1968	2298	2727	3051	3128	3010	2627	2137	1708	1420	1029	731.6	589.1	508.0	559.7	1595	5203	3134	51.29	9.124	5.415	3.910	3.191	2.272	1.859	1.809	1.682	1.775	1.714	1.704	1.610	1.709	2.079	2.304	2.888	3.950	5.180	7.926	10.12	12.70	14.37	13.98	13.53	14.08	12.75	10.39	8.493	7.596	7.276	7.336	7.528	7.953	8.233	8.693	10.17	10.73	11.74	12.26	13.34	13.80	14.36	14.91	14.97	15.09	14.61	14.34	13.42	12.73	12.62
350.0	2531	4152	5071	4764	3583	2498	2013	1977	2090	2342	2670	2936	3018	2918	2598	2178	1771	1426	1208	957.5	721.2	596.8	518.0	632.7	1723	3764	3696	923.6	18.49	5.736	3.905	2.669	2.187	1.907	1.666	1.789	1.594	1.588	1.625	1.655	1.943	2.406	2.777	3.466	5.054	7.229	9.109	11.94	13.20	13.47	13.07	14.39	13.51	11.04	9.779	8.420	8.266	8.496	8.444	8.997	8.864	9.180	10.39	10.86	11.75	12.15	12.76	13.15	13.91	14.13	14.10	14.59	14.57	14.04	13.25	12.94	12.64
355.0	2292	3723	4726	4562	3591	2630	2193	2126	2185	2343	2602	2803	2863	2786	2537	2178	1842	1503	1270	1181	947.5	744.3	618.3	516.7	633.1	1036	2813	5115	379.2	21.72	6.052	3.776	2.605	1.920	1.842	1.642	1.755	1.570	1.635	1.748	1.915	2.431	2.727	3.450	4.740	6.586	8.430	10.74	12.38	12.73	12.24	14.27	13.30	11.53	10.22	8.872	9.072	9.074	9.455	9.246	9.302	10.02	10.41	10.65	11.32	11.87	12.05	12.39	13.17	13.47	13.50	14.04	14.06	13.65	13.18	12.44	12.67
360.0	2088	3415	4435	4367	3517	2674	2218	2173	2202	2333	2550	2699	2764	2682	2472	2164	1875	1572	1343	1245	1148	907.4	731.3	581.1	484.3	463.4	880.2	4025	3229	316.7	13.10	5.422	3.333	2.498	2.033	1.933	1.886	1.780	1.616	1.706	1.706	2.244	2.657	3.291	4.341	6.263	7.477	10.20	11.71	11.84	11.78	13.53	12.75	11.55	10.18	9.158	9.433	8.818	9.398	9.235	9.269	9.934	10.29	10.56	10.84	11.64	11.72	12.24	12.80	12.94	13.17	13.86	13.49	13.47	13.40	12.44	12.25
365.0	1992	3147	4140	4147	3440	2696	2261	2202	2218	2329	2505	2620	2662	2602	2406	2159	1898	1642	1438	1310	1271	1114	887.5	710.4	561.0	428.5	413.0	1331	4526	2996	49.00	9.599	4.592	3.001	2.246	2.212	2.004	1.719	1.540	1.712	1.867	2.173	2.498	3.233	3.947	5.656	7.118	9.615	10.77	11.10	11.44	12.80	12.51	11.42	10.36	9.158	9.480	9.289	9.593	9.423	9.878	9.771	10.06	10.76	10.78	11.51	11.38	11.64	12.68	12.19	12.89	12.79	13.50	12.82	13.01	12.47	12.62
370.0	1833	2908	3814	3952	3402	2761	2406	2347	2310	2365	2477	2570	2569	2511	2350	2139	1946	1740	1584	1468	1391	1341	1174	945.1	765.5	595.0	444.5	557.5	1501	3507	3513	906.6	17.79	4.977	3.217	2.487	2.126	1.941	1.903	1.814	1.887	2.096	2.511	3.028	3.891	5.298	6.680	8.775	10.27	10.59	10.56	12.63	12.46	11.32	10.45	9.530	9.920	9.815	9.939	10.10	9.858	9.974	10.61	11.01	10.82	11.20	11.06	11.36	11.91	11.99	12.27	12.52	12.85	12.41	12.68	12.55	12.44
375.0	1739	2690	3494	3758	3306	2742	2424	2348	2339	2371	2455	2513	2493	2426	2289	2110	1966	1818	1697	1615	1533	1472	1417	1236	993.9	801.9	607.5	502.9	594.1	978.7	2615	4682	331.8	18.69	5.798	3.449	2.945	2.287	2.195	2.136	2.026	2.224	2.329	3.142	3.776	4.963	6.141	8.102	9.171	9.531	10.03	11.87	11.96	11.41	10.48	9.586	9.946	10.08	10.21	10.29	10.22	10.36	10.47	10.87	10.58	10.96	10.74	11.06	11.38	11.86	12.00	12.29	12.42	12.28	12.32	12.05	12.68
380.0	1612	2542	3322	3534	3231	2730	2411	2350	2336	2352	2426	2466	2430	2368	2240	2080	1963	1849	1755	1693	1622	1563	1505	1411	1173	941.1	745.6	577.7	464.2	429.6	814.2	3572	2789	267.9	12.41	5.742	3.806	2.651	2.276	2.171	1.941	2.345	2.142	2.962	3.469	4.744	5.731	7.280	8.784	9.094	9.566	11.33	11.21	10.86	10.33	10.04	9.926	9.618	10.24	9.997	10.37	10.08	10.50	11.07	10.70	10.70	10.59	10.64	10.98	11.34	11.50	12.02	11.84	12.02	11.65	12.13	12.54
385.0	1533	2381	3144	3416	3133	2685	2415	2346	2348	2323	2412	2425	2406	2339	2215	2059	1955	1855	1792	1741	1692	1645	1561	1501	1339	1081	872.8	685.6	518.9	375.3	360.5	1142	3538	2474	41.45	10.98	5.940	3.538	2.525	2.117	1.957	2.266	2.375	2.871	3.438	4.589	5.451	6.977	8.218	8.801	9.313	10.77	11.09	10.65	10.28	9.527	9.933	9.476	10.20	10.13	10.00	10.01	10.02	10.53	10.39	10.72	10.73	10.80	10.96	11.55	11.89	11.90	11.73	12.10	11.83	12.03	12.35
390.0	1480	2270	2970	3234	3042	2678	2468	2425	2408	2432	2502	2525	2485	2425	2263	2100	1975	1887	1840	1817	1799	1771	1709	1633	1537	1348	1102	897.0	698.5	512.6	378.2	459.9	1135	2527	2679	797.0	21.37	9.154	4.512	2.799	2.352	2.204	2.538	2.964	3.381	4.368	5.061	6.683	7.939	8.380	8.541	10.75	10.79	10.52	10.19	9.626	10.31	10.03	10.10	10.37	10.40	10.11	10.77	10.87	10.81	10.79	10.67	10.85	11.20	11.67	12.04	11.73	11.70	12.02	11.90	12.18	12.16
395.0	1408	2131	2888	3134	3025	2759	2560	2587	2602	2680	2815	2907	2844	2728	2518	2260	2062	1959	1922	1934	1945	1960	1947	1902	1801	1692	1487	1234	1013	798.5	606.1	449.2	515.4	765.6	1846	3808	284.4	29.83	10.44	4.770	2.942	2.567	2.888	2.853	3.497	4.777	5.054	6.715	7.752	7.815	8.169	10.31	10.95	10.44	10.36	9.941	10.46	10.89	10.39	10.75	10.75	11.01	11.28	11.53	11.55	11.70	11.84	11.60	12.50	12.53	12.25	12.19	12.39	13.25	12.01	12.47	12.74
400.0	1411	2056	2773	3077	3020	2812	2715	2778	2863	3100	3314	3453	3394	3222	2901	2521	2211	2063	2024	2061	2114	2165	2200	2186	2109	1998	1857	1624	1364	1125	891.1	679.2	533.3	467.4	696.8	2715	3003	260.5	25.07	8.119	3.994	2.957	2.898	2.993	3.495	4.357	4.956	6.366	7.618	7.739	8.127	10.04	10.85	10.48	10.76	10.56	10.86	11.14	11.01	11.46	11.35	12.13	12.04	12.40	12.81	13.06	12.46	12.92	13.49	13.93	14.11	13.34	13.81	13.99	13.16	13.29	12.70
405.0	1419	2059	2663	3003	3028	2916	2898	3001	3198	3567	3953	4140	4068	3815	3407	2859	2410	2185	2150	2200	2286	2388	2481	2507	2463	2355	2221	2045	1760	1491	1222	965.0	731.3	565.9	513.5	996.8	2712	2174	207.2	14.59	5.865	3.788	3.323	3.259	3.697	4.510	5.119	6.350	7.588	7.696	8.173	9.795	10.76	10.63	11.12	11.06	11.75	11.94	12.07	12.19	12.38	13.05	13.34	13.80	14.44	14.75	14.55	15.10	15.66	15.51	16.02	15.12	15.49	15.38	14.42	14.26	13.16
410.0	1373	2005	2639	2966	3034	3012	3102	3277	3563	4067	4560	4837	4757	4405	3887	3174	2590	2297	2245	2317	2442	2591	2729	2804	2789	2708	2570	2417	2181	1888	1573	1276	980.1	753.6	600.2	599.2	974.7	1868	2144	723.5	18.12	5.231	3.997	3.770	3.898	4.657	5.166	6.425	7.646	7.730	8.155	10.12	11.03	10.88	11.38	11.28	12.63	12.35	12.76	13.35	13.45	13.98	14.79	15.20	15.90	16.12	16.26	16.98	16.95	17.30	17.43	16.73	16.70	16.37	15.57	14.81	14.25
415.0	1311	1963	2564	2895	2948	3023	3152	3374	3647	4163	4694	4997	4906	4540	3972	3208	2584	2273	2217	2296	2436	2604	2761	2863	2865	2797	2661	2506	2304	2063	1720	1401	1078	835.3	648.7	532.9	490.2	574.5	1197	2582	264.9	19.97	5.246	4.215	3.952	4.888	5.265	6.247	7.149	7.506	8.064	9.957	10.87	10.60	11.92	11.69	12.37	12.43	12.71	13.80	13.80	14.21	14.69	15.32	16.04	16.20	16.82	16.75	17.14	17.71	17.18	16.85	16.50	16.79	15.73	14.49	13.66
420.0	1260	1824	2431	2724	2892	2970	3138	3346	3626	4070	4617	4867	4791	4434	3842	3110	2503	2194	2134	2217	2347	2510	2676	2785	2791	2734	2617	2447	2264	2056	1745	1405	1087	840.1	658.1	512.7	378.2	280.2	360.1	1534	2122	244.9	13.56	4.795	4.486	4.799	5.006	6.218	7.006	7.238	7.899	9.575	10.70	10.57	11.19	11.56	12.51	12.80	12.81	13.90	13.87	13.68	14.29	15.17	15.90	16.29	16.14	16.54	15.81	17.06	16.90	16.37	16.74	15.94	15.17	14.22	14.01
425.0	1237	1771	2333	2626	2813	2943	3118	3364	3584	4026	4518	4761	4669	4325	3762	3023	2428	2133	2064	2147	2268	2433	2592	2706	2720	2679	2574	2420	2221	2030	1774	1432	1104	856.5	670.3	516.8	360.5	222.3	157.5	431.9	1636	1963	200.0	7.963	5.202	5.211	4.990	6.051	7.051	6.792	7.642	9.588	10.21	10.53	11.23	11.33	12.16	12.87	13.11	13.22	13.55	13.73	14.30	14.94	15.19	15.55	16.21	16.15	16.30	16.48	16.20	16.43	15.99	15.72	14.48	13.90	13.18
430.0	1221	1711	2219	2598	2790	2973	3193	3444	3676	4051	4532	4776	4684	4317	3766	3022	2395	2096	2025	2089	2214	2364	2532	2660	2693	2670	2580	2444	2257	2059	1820	1523	1183	919.2	727.1	564.2	395.8	234.4	131.3	148.5	444.9	1260	1728	657.1	16.91	5.788	5.325	6.287	6.857	6.724	7.304	9.322	10.25	10.72	11.17	11.79	13.10	13.21	13.90	13.87	13.71	13.96	14.42	15.26	15.34	15.31	16.42	16.00	16.08	16.25	16.27	16.22	15.48	15.40	14.34	13.49	12.96
435.0	1313	1669	2163	2553	2805	3020	3298	3532	3749	4065	4524	4751	4643	4284	3719	2988	2365	2053	1968	2029	2145	2292	2450	2587	2642	2624	2546	2432	2263	2070	1839	1569	1267	982.5	780.3	614.4	436.3	265.2	147.4	98.18	140.3	310.6	765.2	1983	993.5	22.87	6.091	6.597	6.876	6.815	7.158	9.163	9.980	11.02	11.45	11.74	12.88	13.89	14.00	14.11	14.32	14.28	14.34	15.08	15.15	15.19	15.43	16.03	15.37	15.49	16.21	15.39	15.30	15.11	14.21	13.16	12.94
440.0	1370	1676	2087	2438	2768	3038	3346	3533	3719	3974	4351	4567	4482	4117	3573	2874	2274	1988	1897	1948	2035	2168	2334	2451	2518	2506	2432	2342	2186	2010	1785	1525	1253	993.4	786.1	621.0	447.6	278.6	160.9	96.81	80.35	102.7	203.8	1031	2109	242.3	16.17	6.954	6.815	6.732	7.159	9.263	10.10	10.67	11.27	11.95	13.23	13.84	14.14	14.37	14.06	14.00	14.16	14.41	14.73	14.64	14.65	15.24	15.21	15.20	15.24	14.99	14.82	14.28	13.83	12.85	11.99
445.0	1357	1757	2003	2344	2669	2980	3314	3513	3607	3782	4067	4244	4164	3833	3326	2698	2149	1876	1791	1836	1904	2020	2167	2281	2333	2324	2256	2176	2048	1888	1682	1437	1178	964.4	767.8	601.6	437.1	279.8	168.9	103.9	72.46	62.28	74.15	273.4	1311	1897	194.1	12.49	6.967	6.701	6.922	8.883	10.02	10.16	11.39	11.45	13.00	13.74	13.93	14.15	14.10	13.57	13.34	13.76	13.98	14.20	14.09	14.08	13.88	14.35	13.91	14.40	14.30	13.32	13.03	12.52	11.54
450.0	1209	1977	1998	2230	2530	2874	3179	3341	3352	3408	3626	3754	3666	3370	2940	2403	1944	1701	1637	1657	1702	1785	1904	2011	2055	2049	2000	1928	1820	1688	1515	1293	1058	872.7	721.4	565.9	413.1	273.7	174.2	115.4	81.11	61.05	50.49	86.77	338.6	1052	1530	722.7	16.88	7.225	6.893	8.398	9.369	9.933	10.76	11.30	12.73	13.40	13.48	13.63	13.19	13.10	12.56	12.66	12.84	12.79	12.76	12.85	12.84	12.59	12.70	12.76	12.70	12.28	11.76	11.09	10.56
455.0	975.0	1850	2296	2096	2384	2704	2999	3145	3094	3088	3193	3283	3215	2953	2572	2126	1737	1519	1475	1469	1493	1554	1658	1748	1783	1777	1745	1688	1600	1495	1343	1162	956.3	787.1	656.7	540.8	399.5	266.7	179.2	123.7	90.97	67.33	52.01	50.15	97.89	253.0	567.0	1611	898.0	20.17	7.273	7.941	9.001	9.655	10.07	10.09	12.14	12.80	12.78	12.80	12.34	12.15	11.15	11.59	11.36	11.05	11.43	11.31	11.44	11.05	11.44	11.19	11.27	10.64	10.31	9.901	9.732
460.0	874.0	1502	2569	2125	2228	2555	2884	2972	2881	2840	2924	2993	2917	2683	2342	1930	1593	1401	1355	1342	1355	1411	1496	1571	1603	1602	1583	1526	1467	1372	1237	1073	889.5	732.9	612.3	514.8	395.1	266.8	181.4	127.8	96.55	74.57	56.99	45.74	48.31	75.97	145.1	726.3	1669	646.6	15.88	8.376	8.474	8.976	9.707	9.854	11.65	12.18	12.13	12.04	11.55	11.21	10.71	10.93	10.29	10.39	10.53	10.61	10.39	10.48	10.13	10.27	10.24	9.933	9.301	9.331	8.946
465.0	829.3	1244	2459	2370	2096	2390	2689	2793	2687	2622	2684	2731	2651	2444	2138	1757	1462	1292	1242	1239	1232	1278	1349	1422	1455	1449	1439	1392	1335	1258	1139	996.1	831.6	684.9	573.7	479.2	382.3	270.0	183.5	132.8	101.8	79.87	62.20	48.37	39.22	39.44	51.01	187.8	946.7	1533	165.3	14.42	8.706	8.590	9.467	9.527	10.58	11.11	11.64	11.36	10.99	10.17	9.784	9.826	9.741	9.781	9.710	9.750	9.553	9.898	9.880	9.471	9.379	9.275	8.347	8.663	8.396
470.0	738.4	1047	1771	2776	2102	2160	2421	2496	2407	2311	2360	2363	2294	2110	1846	1532	1279	1135	1090	1079	1072	1100	1164	1219	1249	1251	1234	1202	1155	1090	1003	878.2	735.5	612.9	516.6	429.6	346.0	261.6	183.6	134.4	104.0	83.17	66.27	52.58	41.81	35.37	32.53	59.80	241.5	768.0	1063	576.7	18.48	8.660	8.687	8.661	9.806	10.23	10.56	10.30	10.02	9.491	8.871	9.112	8.478	8.688	8.374	8.304	8.444	8.586	8.491	7.973	8.116	8.276	7.776	7.252	7.427
475.0	672.7	929.3	1276	2336	2572	1956	2139	2198	2088	1985	2009	2001	1921	1765	1560	1299	1097	983.1	932.8	925.9	906.4	925.9	978.2	1022	1045	1046	1032	1008	969.2	923.7	850.7	749.0	633.7	535.2	453.0	374.3	303.5	236.7	183.4	138.3	105.8	84.82	69.16	55.94	46.00	38.10	31.14	33.50	69.83	184.3	363.6	1067	673.4	22.89	8.443	8.338	9.071	9.363	9.654	8.857	8.657	8.291	7.965	7.799	7.431	7.419	7.630	7.303	7.041	7.490	7.411	6.910	7.288	7.027	6.722	6.505	6.142
480.0	613.5	839.5	1109	1731	2882	1977	1948	1993	1860	1775	1768	1757	1688	1550	1367	1147	976.4	874.8	839.8	819.8	801.0	814.2	858.6	892.2	912.9	910.8	901.3	882.8	849.1	813.0	753.4	665.5	570.9	480.6	409.0	340.1	276.9	216.7	174.6	141.9	107.1	86.33	71.51	58.71	48.22	39.49	33.26	29.54	33.11	54.67	94.09	443.3	1206	213.3	18.14	8.287	8.445	8.585	8.640	8.699	7.928	7.517	7.207	6.989	6.826	6.638	6.644	6.584	6.433	6.494	6.545	6.385	6.464	6.267	5.875	5.926	5.668
485.0	546.2	806.7	992.6	1333	2712	2318	1790	1832	1719	1615	1598	1577	1504	1377	1216	1034	882.6	793.8	765.2	742.5	722.5	727.9	760.1	790.7	811.7	813.2	801.0	784.6	761.0	725.9	675.1	595.0	513.1	435.7	374.0	313.9	258.1	201.9	165.3	141.0	110.9	87.41	72.75	60.52	49.95	42.35	35.74	29.92	26.60	27.79	33.76	115.0	656.3	1098	186.9	13.00	8.269	8.138	8.228	8.127	7.416	7.390	6.522	6.383	6.284	5.940	6.111	5.545	5.907	5.611	5.817	6.048	5.771	5.827	5.480	5.513	5.498
490.0	480.6	742.3	880.2	1085	1884	2843	1831	1636	1525	1417	1382	1374	1304	1204	1063	903.8	775.2	698.6	671.0	648.5	629.7	630.4	659.9	685.7	701.2	699.5	691.4	676.9	657.0	633.9	588.9	524.9	454.3	389.8	334.8	284.3	236.9	188.1	153.4	131.8	113.7	92.85	74.03	61.97	52.88	45.27	38.48	32.51	27.31	23.38	21.82	37.52	166.3	528.9	904.6	519.0	19.66	8.094	7.499	7.302	6.923	6.581	5.931	5.560	5.467	5.272	5.239	5.277	5.102	5.112	5.210	5.173	5.092	5.087	4.888	4.845	4.932
495.0	430.4	639.6	824.7	904.9	1240	2486	2356	1447	1335	1234	1205	1178	1128	1027	903.8	778.0	669.6	604.0	579.7	561.7	540.4	543.0	563.8	582.2	595.7	594.5	588.2	577.5	566.2	541.7	508.1	460.5	395.9	345.1	296.0	256.7	213.0	172.5	141.3	120.6	106.2	95.46	77.00	63.23	54.90	46.69	40.90	34.65	29.51	23.66	21.10	21.50	47.99	128.0	324.4	976.7	677.2	25.01	7.478	6.344	6.025	5.497	5.282	4.867	4.902	4.740	4.727	4.742	4.532	4.430	4.548	4.851	4.359	4.510	4.413	4.220	4.198
500.0	387.0	575.5	745.6	855.9	1010	1767	2839	1454	1201	1106	1071	1054	992.8	909.8	798.2	691.8	591.3	539.3	511.7	497.3	480.7	477.4	495.4	514.1	521.0	522.5	520.8	509.0	497.0	481.2	451.1	405.1	355.6	311.4	268.6	233.8	194.5	159.3	132.9	113.5	98.64	92.51	79.62	64.23	55.83	48.06	41.11	35.55	30.64	25.41	22.18	18.77	22.54	38.82	83.23	404.2	1098	233.6	19.00	6.385	5.883	5.182	4.889	4.683	4.647	4.342	4.134	4.093	3.996	4.056	3.982	4.030	3.921	4.010	3.575	3.748	3.562
505.0	335.2	496.4	691.5	782.5	885.7	1203	2753	1798	1085	987.1	966.8	948.4	882.7	811.7	715.5	608.7	528.8	477.0	456.8	444.5	425.5	419.2	437.1	454.3	461.6	460.4	453.2	448.3	440.0	429.7	401.0	362.9	318.2	281.0	242.8	211.8	179.8	148.8	123.3	107.7	92.78	85.90	79.25	65.53	55.15	47.70	42.34	36.80	30.60	26.51	22.89	19.27	18.02	19.39	28.73	103.7	555.3	1017	200.3	11.53	5.750	4.897	4.466	4.302	3.872	3.941	3.813	3.719	3.819	3.433	3.829	3.674	3.560	3.490	3.351	3.427	3.044
510.0	282.1	418.7	582.1	706.1	755.5	897.0	1775	2467	1115	843.7	820.9	798.4	743.5	682.8	603.6	516.7	450.9	409.1	390.0	377.4	359.9	358.7	368.8	379.3	388.8	383.8	380.9	376.4	370.5	360.7	339.1	307.6	272.9	240.3	209.3	182.9	158.1	133.3	112.6	97.93	84.87	76.56	72.52	66.90	56.27	47.19	41.46	36.24	31.78	27.51	24.17	20.31	17.76	16.64	17.20	32.77	140.3	471.6	749.7	410.0	17.49	5.015	4.328	3.936	3.532	3.553	3.360	3.192	3.309	3.140	3.225	3.155	2.998	3.004	2.967	2.861	2.729
515.0	253.5	361.7	483.6	609.1	667.1	721.2	1002	2311	1711	732.9	699.1	675.5	619.3	572.7	501.3	430.6	379.5	346.5	329.9	312.9	298.6	297.0	305.0	312.7	318.2	320.3	313.7	312.3	306.7	300.1	281.2	256.4	228.5	202.4	178.1	157.8	137.6	116.1	99.31	87.62	78.06	70.42	64.41	62.34	57.07	48.44	40.59	35.94	31.51	27.51	24.88	21.50	18.27	16.55	15.23	18.01	40.91	113.8	250.9	732.4	507.8	22.50	4.472	3.779	3.207	3.021	2.825	2.950	2.777	2.692	2.702	2.711	2.650	2.591	2.588	2.470	2.482
520.0	231.9	321.6	413.0	524.4	617.0	634.0	747.2	1526	2373	773.1	600.7	587.5	545.4	501.1	437.2	384.5	330.5	304.3	288.6	273.0	259.1	260.7	267.1	273.8	274.4	276.5	271.3	266.2	265.3	257.1	244.4	224.7	200.1	179.5	157.3	140.6	123.5	104.9	92.12	79.39	72.68	65.31	58.64	55.90	54.97	48.17	39.81	35.52	31.51	28.09	24.24	21.57	19.39	16.55	15.16	14.88	18.98	34.36	65.24	303.4	804.5	225.7	15.08	3.791	3.033	2.801	2.679	2.722	2.524	2.549	2.511	2.481	2.296	2.257	2.236	2.278	2.183
525.0	202.3	283.8	371.3	446.7	562.1	572.9	622.1	920.6	2527	1150	536.2	513.0	481.7	440.2	385.7	336.0	292.6	263.3	254.2	240.8	226.7	228.0	231.2	238.7	240.2	237.5	237.2	234.6	235.0	226.6	214.5	196.2	176.6	158.9	139.9	125.1	110.2	94.94	84.81	73.97	66.08	59.77	54.57	50.89	50.10	47.67	39.98	34.34	29.89	27.42	23.98	21.68	19.63	16.76	15.62	14.29	14.61	16.68	22.54	77.63	399.5	705.6	186.7	7.476	3.080	2.792	2.490	2.411	2.231	2.124	2.364	2.095	2.242	1.954	1.921	2.074	1.990
530.0	170.3	238.6	311.2	374.4	480.7	520.1	520.7	606.6	1561	2096	617.1	441.7	411.1	371.7	326.5	282.5	247.9	225.6	214.9	204.7	194.7	191.2	194.8	196.6	202.2	199.4	198.2	195.6	195.0	191.4	182.1	166.2	150.0	134.6	119.8	108.2	95.41	83.86	74.04	65.26	59.67	53.63	49.35	45.40	43.23	42.98	40.42	33.84	28.55	25.70	23.14	20.29	18.87	17.06	15.69	14.27	13.27	12.93	13.16	24.49	101.1	324.8	531.6	257.3	14.69	2.780	2.486	2.032	2.041	1.961	1.967	1.838	2.008	1.877	1.716	1.743	1.756
535.0	134.3	213.2	257.1	315.9	376.6	452.9	446.6	460.0	699.6	2136	1250	378.8	348.2	312.4	271.1	236.9	207.3	189.3	177.4	171.7	160.9	158.9	159.8	163.9	166.0	165.0	162.5	161.6	160.5	156.5	150.5	137.5	126.3	112.7	100.7	91.46	80.71	72.88	64.04	57.46	52.37	47.32	43.53	41.17	38.07	35.97	36.88	33.44	27.94	24.00	22.18	19.30	17.48	16.28	15.37	14.24	12.89	11.97	10.86	12.27	28.90	77.83	175.2	524.5	239.5	18.65	2.550	2.067	1.909	1.697	1.717	1.713	1.664	1.638	1.473	1.464	1.512
540.0	128.2	185.3	225.7	267.1	311.5	404.9	396.0	387.7	433.0	1316	1986	414.5	302.5	266.5	231.5	204.4	178.4	165.6	153.4	144.9	137.8	137.1	138.8	140.5	141.0	140.5	138.8	138.1	138.3	133.8	130.0	119.0	107.2	96.82	89.11	79.92	70.81	63.55	55.75	51.30	46.69	43.45	39.91	37.33	34.35	32.09	31.81	31.56	27.32	23.39	19.95	18.44	16.46	15.41	14.53	13.50	12.42	11.26	10.12	9.583	12.21	22.20	44.06	216.5	529.2	205.9	11.05	2.208	1.849	1.647	1.537	1.544	1.460	1.371	1.368	1.435	1.334
545.0	113.9	159.4	197.0	242.3	263.3	341.3	372.3	335.9	340.2	624.5	2347	712.9	263.6	231.9	208.6	175.9	157.4	140.4	133.6	125.9	120.9	120.3	119.5	122.9	120.5	120.1	120.6	119.5	118.2	117.3	111.8	102.4	93.32	83.01	77.99	69.63	62.82	56.24	50.18	46.11	42.78	38.27	36.29	33.23	32.07	29.26	27.69	27.88	26.23	22.09	18.86	17.01	15.31	14.39	13.48	13.07	12.43	10.92	9.523	8.655	8.532	9.841	14.17	54.45	265.6	505.7	151.4	4.863	1.764	1.670	1.317	1.424	1.326	1.279	1.155	1.280	1.172
550.0	104.5	148.7	168.1	199.2	217.8	259.2	326.3	289.5	274.8	330.7	1333	1708	299.5	193.1	167.6	144.0	128.5	116.9	110.6	103.4	99.30	96.65	97.62	99.83	98.46	98.48	97.65	97.16	95.79	94.34	91.16	84.99	77.45	69.41	62.75	57.25	52.14	46.30	42.62	39.31	35.52	32.69	30.33	28.61	27.45	25.63	23.75	22.87	22.49	20.28	17.69	15.20	13.67	12.71	12.33	11.55	11.21	10.36	8.839	7.653	7.087	6.527	7.233	15.63	65.47	223.9	361.5	138.6	13.31	1.600	1.255	1.326	1.168	1.217	1.126	1.079	0.948
555.0	89.63	129.6	145.2	164.0	180.0	202.9	247.4	260.5	218.5	221.9	474.6	1918	783.0	158.5	134.9	116.1	104.5	93.85	88.22	82.36	78.92	76.12	77.15	78.77	77.76	77.28	77.65	76.30	74.82	74.50	71.68	66.53	61.25	54.29	51.49	46.54	41.69	37.11	34.20	31.98	29.53	26.88	25.27	23.91	23.08	20.74	20.24	18.78	17.73	17.86	16.27	13.13	11.97	11.31	10.68	9.973	9.486	9.070	7.833	6.979	6.126	5.239	5.156	6.666	17.20	52.41	113.6	312.2	216.5	16.63	1.368	1.217	1.111	1.073	0.944	1.023	0.888
560.0	82.21	127.4	128.5	141.9	148.2	165.3	197.1	240.0	191.6	183.1	232.0	1124	1440	168.2	112.5	96.58	84.99	78.55	73.25	69.22	65.89	62.68	62.49	64.13	64.71	64.17	62.93	61.44	62.47	60.83	60.14	54.40	50.51	45.72	42.57	39.30	34.61	31.84	29.28	26.94	24.88	23.22	21.26	20.24	19.79	18.70	17.35	16.21	15.02	14.75	14.73	12.52	10.62	9.979	9.245	8.737	8.246	8.089	7.413	6.251	5.585	5.008	4.343	4.343	6.306	14.06	27.89	123.1	341.6	165.9	8.766	1.195	0.966	0.980	0.918	0.747	0.848
565.0	83.04	112.8	118.1	126.9	129.7	136.4	159.5	215.4	180.1	152.9	165.6	461.8	1938	376.2	96.45	80.30	71.42	64.57	61.59	59.44	55.53	52.99	53.12	53.90	53.57	53.39	52.72	51.79	52.07	51.86	50.51	46.21	42.09	38.62	35.68	32.89	29.44	27.08	24.94	23.25	20.84	20.01	18.23	17.21	16.56	16.59	15.08	13.81	12.90	12.15	12.43	11.73	9.776	9.055	8.027	7.873	7.176	7.053	6.575	6.169	5.170	4.364	3.928	3.593	3.843	5.377	8.074	30.27	156.1	313.0	34.51	3.403	0.971	0.848	0.840	0.774	0.754
570.0	80.28	102.4	103.2	107.3	107.3	114.0	126.5	160.7	177.6	132.7	135.7	198.0	1112	1225	111.4	65.81	57.42	52.28	49.70	47.65	44.22	42.90	41.81	41.56	43.01	41.62	41.51	40.85	41.31	40.52	39.53	36.60	33.52	30.98	27.86	25.71	23.84	21.80	19.95	18.53	17.00	16.16	14.93	14.21	14.12	13.20	12.25	11.45	10.83	10.09	9.955	9.865	9.036	7.856	7.012	6.797	6.274	6.125	5.546	5.318	4.879	4.173	3.414	3.158	2.935	3.228	3.563	8.463	37.84	125.7	196.8	117.2	12.06	0.887	0.742	0.608	0.575
575.0	82.00	99.04	96.65	89.00	89.59	92.43	94.71	116.3	167.4	129.3	113.3	124.4	351.6	1471	462.7	52.34	44.91	41.63	39.08	36.61	35.10	32.81	33.08	33.41	33.19	32.98	33.41	32.17	32.29	31.02	30.60	29.39	26.10	24.12	22.51	20.75	18.33	17.75	16.30	14.80	13.96	12.93	11.95	11.64	11.67	10.47	10.05	9.214	8.674	8.509	7.715	7.476	7.506	6.957	6.188	5.754	5.383	4.885	4.701	4.353	4.071	3.820	3.230	2.683	2.462	2.591	2.179	3.457	9.895	29.35	58.19	184.1	158.7	14.84	0.793	0.624	0.477
580.0	84.75	92.13	96.35	82.87	80.96	79.09	83.15	99.37	138.8	138.9	105.0	104.8	149.5	881.2	1003	66.15	38.85	35.31	31.68	30.16	28.72	27.89	27.12	27.74	27.86	27.55	27.32	25.95	26.26	26.29	25.52	23.86	21.27	20.16	18.55	16.97	15.48	14.94	13.45	12.37	11.61	11.00	10.30	10.08	9.829	9.069	8.413	8.091	7.504	7.181	6.669	6.472	6.432	5.957	5.486	4.974	4.926	4.435	3.904	3.813	3.614	3.733	3.165	2.693	2.375	2.209	2.023	2.176	3.581	7.698	14.18	66.35	203.8	119.5	6.986	0.652	0.502
585.0	84.43	98.77	88.47	81.53	73.28	71.39	79.87	84.91	112.5	140.9	105.8	98.91	98.59	334.0	1383	116.3	34.23	29.80	27.10	26.13	24.62	23.92	22.84	23.15	23.29	23.93	22.42	22.39	21.70	21.76	21.00	20.46	18.21	17.16	15.71	14.52	13.01	12.46	11.07	10.81	9.866	9.780	9.097	8.690	8.196	8.005	7.030	6.993	6.318	6.064	5.594	5.397	5.369	5.551	5.124	4.675	4.288	3.849	3.531	3.364	3.231	2.744	2.902	2.572	2.221	1.940	1.932	1.784	1.924	2.876	4.157	16.16	84.00	197.3	34.57	3.211	0.474
590.0	76.43	99.39	94.18	76.80	66.70	63.74	68.61	73.24	86.32	127.8	118.1	93.09	86.09	125.3	799.4	696.5	47.15	24.68	22.40	20.84	19.57	19.30	18.74	18.61	19.34	18.64	17.77	17.77	17.74	17.43	16.88	16.10	14.74	13.60	12.54	11.55	10.68	10.02	9.296	8.574	8.150	7.517	7.293	6.926	6.727	6.316	6.038	5.726	5.269	4.925	4.607	4.410	4.250	4.284	4.620	4.236	3.700	3.304	3.031	2.948	2.502	2.584	2.522	2.440	2.216	1.810	1.748	1.633	1.529	1.691	1.836	4.518	19.89	73.26	116.7	78.21	11.09
595.0	68.72	92.31	83.89	68.28	58.38	54.24	62.56	65.53	73.92	100.0	129.9	95.21	79.60	73.89	233.8	954.5	238.0	20.78	18.89	17.06	15.74	14.96	15.16	14.78	15.53	14.73	14.40	13.38	14.20	13.38	13.65	12.69	11.24	10.74	10.00	9.397	8.850	7.820	7.306	7.158	6.353	5.940	5.733	5.604	5.562	5.380	5.121	4.725	4.318	3.996	3.582	3.518	3.630	3.293	3.541	3.654	3.294	2.562	2.400	2.549	2.305	2.047	1.997	1.851	1.993	1.877	1.565	1.376	1.256	1.317	1.299	1.790	4.980	16.92	32.31	98.37	99.35
600.0	74.48	82.99	82.84	66.41	56.34	51.76	56.40	61.12	68.66	85.03	132.1	102.3	78.80	62.78	86.06	600.1	634.8	26.14	15.99	14.29	13.06	13.12	12.75	12.32	12.32	12.22	11.82	11.40	11.97	11.44	11.41	10.62	9.438	8.677	8.610	7.918	7.258	6.637	6.045	5.709	5.109	5.014	4.974	4.695	4.581	4.143	4.155	4.067	3.712	3.277	3.085	2.784	2.902	2.717	2.713	2.973	2.920	2.370	2.250	2.088	2.071	1.914	1.784	1.627	1.688	1.859	1.551	1.136	1.136	1.112	1.126	1.033	1.734	4.297	7.706	32.14	110.8
605.0	57.77	79.31	71.95	67.72	53.75	52.42	55.99	61.14	66.88	79.65	121.4	119.8	84.64	66.53	53.35	226.7	882.4	73.58	14.20	11.65	11.53	11.18	11.03	10.43	10.02	10.16	9.580	9.784	10.33	9.939	9.403	8.668	8.037	7.682	7.172	6.276	6.402	5.538	5.142	4.817	4.433	4.323	4.128	4.196	3.794	3.493	3.397	3.507	3.276	3.068	2.596	2.554	2.323	2.333	2.335	2.366	2.735	2.440	2.006	1.796	1.801	1.622	1.489	1.436	1.490	1.618	1.555	1.279	1.171	1.122	1.013	0.892	0.986	1.550	2.161	7.758	40.57
610.0	68.48	73.57	70.78	66.23	53.18	49.78	55.91	66.27	71.87	85.46	114.2	145.7	103.5	77.13	54.92	82.95	554.0	465.0	22.06	9.743	9.512	8.744	8.921	8.607	8.111	8.208	7.839	7.951	8.108	8.187	7.537	6.729	6.719	6.206	5.517	5.365	4.926	4.709	4.185	3.946	3.689	3.511	3.326	3.233	3.124	2.997	2.752	2.810	2.608	2.328	2.247	2.120	1.988	1.967	1.920	1.875	2.300	2.264	1.806	1.602	1.578	1.345	1.378	1.271	1.253	1.411	1.427	1.401	1.195	1.068	1.001	0.854	0.803	0.891	1.004	2.278	9.619
615.0	68.82	79.19	71.47	61.62	47.18	50.62	52.89	60.39	75.75	87.77	107.2	142.5	120.1	80.78	58.72	50.18	170.7	660.8	78.29	8.137	7.229	6.921	6.749	6.762	6.688	6.702	6.246	6.309	6.298	5.755	6.015	5.349	4.920	4.981	4.308	4.175	3.628	3.751	3.157	3.293	3.077	2.752	2.619	2.490	2.573	2.382	2.208	2.263	2.127	1.930	1.794	1.658	1.610	1.603	1.718	1.421	1.681	1.899	1.684	1.542	1.499	1.151	1.344	1.141	1.186	1.247	1.082	1.317	1.179	1.096	0.924	0.832	0.808	0.727	0.796	1.085	2.591
620.0	58.80	69.68	75.07	56.83	47.34	48.75	45.89	59.57	73.53	82.11	100.7	127.7	130.6	82.79	59.06	41.09	64.08	443.8	385.7	11.18	6.284	5.731	5.959	5.689	5.350	5.833	5.240	5.085	5.311	5.202	5.071	4.454	4.116	3.972	3.825	3.529	3.119	3.118	2.601	2.822	2.363	2.386	2.374	2.158	2.330	1.961	1.985	1.831	1.614	1.672	1.542	1.655	1.358	1.374	1.407	1.278	1.344	1.415	1.621	1.584	1.387	1.109	1.125	1.120	1.098	0.986	1.085	0.930	1.181	0.947	0.982	0.827	0.785	0.747	0.604	0.719	1.017
625.0	64.75	68.44	68.53	57.29	47.53	46.44	46.80	58.71	71.03	81.51	97.93	116.0	131.2	86.49	59.23	39.93	38.05	173.8	597.6	44.91	5.901	5.068	5.018	5.050	4.640	4.597	4.441	3.978	4.498	4.514	4.300	3.792	3.697	3.190	3.266	2.866	2.833	2.671	2.336	2.314	2.115	1.988	1.935	1.926	1.867	1.697	1.741	1.606	1.477	1.350	1.349	1.294	1.249	1.183	1.138	1.116	1.159	1.229	1.415	1.317	1.382	1.026	1.029	1.101	0.974	1.025	1.019	0.802	1.042	1.123	0.912	0.821	0.807	0.635	0.555	0.556	0.570
630.0	59.27	66.00	69.51	54.76	44.95	43.60	48.34	57.59	65.41	78.73	93.32	107.5	121.3	97.20	60.60	41.00	32.72	56.20	401.4	298.7	10.13	4.502	3.867	4.311	4.061	3.920	3.619	3.648	3.778	3.599	3.537	3.198	2.956	2.631	2.676	2.383	2.239	2.200	1.961	1.895	1.729	1.717	1.557	1.511	1.541	1.315	1.434	1.376	1.170	1.169	1.098	1.150	1.045	1.038	0.994	1.068	1.017	0.980	1.032	1.110	1.146	1.023	0.939	0.927	0.948	0.978	0.874	0.855	0.933	0.998	0.915	0.861	0.705	0.700	0.627	0.580	0.469
635.0	66.50	81.60	75.00	56.23	45.46	44.89	47.44	55.13	68.25	76.75	91.64	100.8	108.9	108.5	68.95	43.92	33.76	28.86	116.5	475.3	58.60	4.378	3.518	3.358	3.398	3.113	2.729	3.015	3.068	2.850	2.659	2.660	2.412	1.992	2.046	1.880	1.856	1.822	1.554	1.439	1.330	1.306	1.268	1.204	1.260	1.234	1.108	1.095	0.943	0.955	0.872	0.924	0.797	0.871	0.831	0.841	0.869	0.845	0.837	0.906	1.033	0.955	0.899	0.860	0.862	0.799	0.825	0.887	0.855	0.907	0.899	0.906	0.840	0.655	0.706	0.517	0.502
640.0	64.34	90.14	79.69	57.69	47.20	43.18	47.26	51.95	61.86	77.19	96.05	104.5	105.9	110.3	75.83	48.68	37.64	24.80	35.39	347.3	254.8	6.430	3.085	2.856	2.992	2.591	2.626	2.649	2.559	2.388	2.436	2.232	2.095	1.894	1.758	1.682	1.466	1.498	1.451	1.167	1.128	1.199	1.147	1.111	1.188	1.084	1.031	0.891	0.909	0.797	0.787	0.782	0.657	0.732	0.735	0.726	0.830	0.773	0.691	0.823	0.900	0.800	0.802	0.781	0.762	0.785	0.818	0.871	0.846	0.826	0.790	0.845	1.013	0.698	0.579	0.529	0.503
645.0	71.43	98.34	86.81	61.62	46.37	42.72	45.79	53.83	58.86	77.46	95.74	102.5	104.0	104.0	84.07	50.80	38.00	23.18	17.82	143.3	419.6	29.50	3.206	2.344	2.545	2.418	2.512	2.326	2.067	2.173	1.965	1.843	1.754	1.425	1.539	1.620	1.320	1.252	1.240	1.163	0.928	1.000	0.927	1.018	1.024	0.829	0.901	0.897	0.825	0.781	0.711	0.710	0.638	0.635	0.674	0.672	0.722	0.701	0.653	0.754	0.810	0.774	0.835	0.907	0.865	0.788	0.864	0.855	0.831	0.870	0.734	0.828	0.916	0.665	0.633	0.629	0.580
650.0	81.93	104.2	98.22	70.96	48.70	42.57	45.32	53.78	61.07	74.07	92.15	104.2	102.8	98.16	89.67	52.55	38.25	24.11	14.43	43.49	388.8	134.5	3.322	2.370	2.229	2.276	2.137	2.196	1.929	1.937	2.000	1.631	1.568	1.415	1.373	1.462	1.156	0.979	1.105	0.979	0.881	0.912	0.918	0.807	0.801	0.831	0.879	0.869	0.865	0.691	0.642	0.715	0.745	0.568	0.638	0.580	0.563	0.520	0.648	0.704	0.679	0.790	0.778	0.732	0.890	0.722	0.757	0.832	0.844	0.797	0.722	0.740	0.750	0.762	0.700	0.501	0.533
