Sample:	'1
File name:	T2025060603¶«Íõ¹«Ä¹.FD3
Run date:	'14:27:35, 06/09/2025
Operator:	Administrator
Comment:	'

Instrument
Model:	F-2700 FL Spectrophotometer
Serial number:	23B8-004
ROM Version:	4J14000 07

Instrument parameters
Measurement type:	3-D scan
Data mode:	Fluorescence
EX  Start WL:	220.0 nm
EX  End WL:	600.0 nm
EX Sampling interval:	5.0 nm
EM  Start WL:	230.0 nm
EM  End WL:	650.0 nm
EM Sampling interval:	5.0 nm
Scan speed:	12000 nm/min
EX Slit:	5.0 nm
EM Slit:	5.0 nm
PMT Voltage:	700 V
Response:	Auto 
Corrected spectra:	Off
Contour interval:	50.000

Peak integration
Integration method:	Rectangular
Sensitivity:	1
Threshold:	1.000

Peaks
No.	ApexEX/EM(nm)	Height(Data)
1	225.0/600.0	77.90
2	225.0/610.0	79.53
3	225.0/630.0	77.99
4	230.0/345.0	2744
5	240.0/265.0	292.4
6	245.0/270.0	305.2
7	250.0/275.0	378.6
8	255.0/280.0	513.9
9	255.0/555.0	174.9
10	260.0/285.0	534.5
11	260.0/570.0	131.8
12	265.0/585.0	120.4
13	270.0/600.0	111.4
14	275.0/410.0	1673
15	275.0/610.0	132.9
16	280.0/315.0	1966
17	280.0/620.0	120.9
18	285.0/635.0	96.13
19	330.0/415.0	967.7
20	460.0/340.0	7.468
21	475.0/350.0	7.056
22	505.0/275.0	2.645
23	515.0/280.0	2.812
24	520.0/285.0	3.529
25	560.0/310.0	9.605
26	570.0/315.0	9.765
27	580.0/320.0	9.705
28	585.0/325.0	9.436

Data points
	220.0	225.0	230.0	235.0	240.0	245.0	250.0	255.0	260.0	265.0	270.0	275.0	280.0	285.0	290.0	295.0	300.0	305.0	310.0	315.0	320.0	325.0	330.0	335.0	340.0	345.0	350.0	355.0	360.0	365.0	370.0	375.0	380.0	385.0	390.0	395.0	400.0	405.0	410.0	415.0	420.0	425.0	430.0	435.0	440.0	445.0	450.0	455.0	460.0	465.0	470.0	475.0	480.0	485.0	490.0	495.0	500.0	505.0	510.0	515.0	520.0	525.0	530.0	535.0	540.0	545.0	550.0	555.0	560.0	565.0	570.0	575.0	580.0	585.0	590.0	595.0	600.0
230.0	56.95	917.8	2088	749.1	40.13	5.556	4.619	3.754	3.428	2.716	2.912	2.767	2.652	2.307	2.114	1.659	1.383	1.275	1.171	1.071	0.960	0.836	0.853	0.811	0.683	0.658	0.645	0.641	0.529	0.615	0.431	0.467	0.453	0.378	0.408	0.372	0.367	0.316	0.312	0.310	0.408	0.546	0.523	0.378	0.249	0.275	0.825	4.003	7.423	5.823	2.239	0.523	0.198	0.196	0.170	0.197	0.203	0.203	0.183	0.194	0.191	0.186	0.165	0.161	0.166	0.185	0.157	0.179	0.186	0.184	0.161	0.176	0.186	0.187	0.179	0.213	0.178
235.0	136.4	258.1	1096	2043	560.1	63.41	6.147	4.015	3.790	3.308	3.463	2.890	2.975	2.634	2.141	1.638	1.459	1.323	1.129	0.950	0.953	0.859	0.813	0.747	0.709	0.760	0.627	0.727	0.489	0.650	0.422	0.404	0.489	0.434	0.375	0.328	0.367	0.361	0.281	0.317	0.274	0.374	0.438	0.507	0.452	0.372	0.377	1.111	2.697	4.605	6.872	7.457	3.516	0.953	0.179	0.231	0.239	0.180	0.151	0.165	0.163	0.155	0.161	0.166	0.172	0.154	0.155	0.183	0.171	0.156	0.193	0.169	0.158	0.208	0.198	0.174	0.145
240.0	175.9	171.6	308.3	1432	2206	443.2	31.97	4.958	4.483	4.311	3.188	3.021	3.209	2.750	2.406	1.757	1.746	1.372	1.161	1.066	0.930	0.725	0.817	0.811	0.678	0.614	0.728	0.697	0.559	0.621	0.425	0.457	0.439	0.373	0.384	0.436	0.317	0.304	0.357	0.279	0.294	0.306	0.326	0.407	0.525	0.737	0.475	0.451	0.813	1.346	3.276	8.433	10.84	8.164	3.170	0.580	0.243	0.222	0.234	0.173	0.165	0.179	0.171	0.172	0.144	0.147	0.187	0.183	0.209	0.147	0.178	0.207	0.137	0.217	0.171	0.212	0.157
245.0	106.4	218.2	141.4	445.9	1987	2350	332.9	16.11	5.672	4.087	3.871	3.873	3.600	2.848	2.009	1.889	1.640	1.358	1.169	1.143	0.995	0.874	0.880	0.829	0.766	0.802	0.777	0.717	0.586	0.568	0.498	0.519	0.447	0.431	0.387	0.349	0.345	0.302	0.353	0.325	0.283	0.298	0.266	0.349	0.330	0.632	0.795	0.777	0.578	0.479	0.927	2.599	6.642	12.10	13.15	7.511	2.400	0.327	0.213	0.183	0.202	0.177	0.193	0.262	0.134	0.213	0.166	0.216	0.163	0.152	0.240	0.201	0.177	0.200	0.209	0.202	0.162
250.0	46.07	137.7	215.7	203.2	593.6	1891	2770	1169	81.91	6.566	4.690	4.122	3.734	3.156	2.414	1.896	1.704	1.550	1.284	1.336	1.055	0.911	0.882	0.904	0.878	0.780	0.693	0.634	0.662	0.581	0.577	0.531	0.432	0.490	0.387	0.368	0.334	0.317	0.344	0.352	0.294	0.319	0.269	0.299	0.309	0.398	0.508	0.770	0.894	0.781	0.590	0.857	1.721	3.727	7.226	11.02	15.37	13.72	8.590	2.450	0.409	0.246	0.207	0.236	0.233	0.265	0.190	0.189	0.176	0.198	0.206	0.208	0.178	0.244	0.197	0.186	0.182
255.0	38.08	56.92	135.3	283.7	236.6	467.4	1681	4262	1678	97.28	7.179	5.859	4.019	3.623	2.414	2.269	1.737	1.564	1.299	1.339	1.251	0.935	0.946	1.029	0.871	0.714	0.661	0.734	0.594	0.655	0.537	0.604	0.484	0.498	0.343	0.472	0.436	0.339	0.309	0.361	0.345	0.344	0.258	0.335	0.241	0.333	0.318	0.334	0.437	0.731	0.981	1.218	0.901	1.065	1.806	2.737	4.981	11.42	22.42	26.05	13.83	3.202	0.362	0.230	0.333	0.244	0.216	0.219	0.178	0.180	0.210	0.213	0.214	0.233	0.194	0.162	0.191
260.0	30.05	29.61	54.32	209.5	292.1	169.1	474.9	2878	5172	1324	47.40	7.045	5.043	4.223	3.048	2.923	2.179	1.808	1.690	1.312	1.319	0.919	1.058	1.038	0.849	0.730	0.830	0.747	0.702	0.599	0.566	0.578	0.490	0.532	0.441	0.468	0.420	0.363	0.311	0.345	0.418	0.343	0.246	0.370	0.271	0.247	0.279	0.322	0.294	0.347	0.643	1.356	1.634	1.093	0.748	0.847	1.374	3.075	8.726	20.68	31.97	25.68	11.26	1.890	0.275	0.296	0.205	0.230	0.216	0.206	0.194	0.178	0.234	0.188	0.196	0.200	0.202
265.0	28.95	28.73	24.05	87.71	292.4	239.6	141.4	869.1	4359	5675	229.4	21.66	6.883	5.784	4.036	2.745	2.288	1.800	1.801	1.351	1.317	1.124	1.117	0.972	0.937	0.856	0.810	0.934	0.777	0.683	0.648	0.530	0.472	0.561	0.405	0.481	0.428	0.444	0.345	0.355	0.386	0.348	0.286	0.278	0.377	0.260	0.290	0.265	0.247	0.278	0.324	0.693	1.291	1.812	1.462	0.662	0.593	0.976	2.248	5.719	15.48	30.32	40.00	23.51	7.867	0.740	0.309	0.257	0.224	0.231	0.253	0.184	0.191	0.194	0.227	0.200	0.196
270.0	57.26	47.78	40.49	39.87	123.0	305.2	258.3	246.5	1254	4270	6229	2331	61.02	7.394	5.031	3.639	2.700	2.409	1.977	1.550	1.454	1.355	1.066	1.026	0.946	0.921	0.923	0.830	0.775	0.696	0.642	0.612	0.611	0.653	0.484	0.517	0.422	0.459	0.395	0.462	0.431	0.327	0.421	0.323	0.320	0.354	0.365	0.297	0.327	0.285	0.279	0.392	0.562	0.927	1.429	1.746	1.536	1.036	0.888	1.554	3.800	8.333	17.00	27.15	30.31	33.86	16.54	6.994	0.874	0.288	0.301	0.246	0.249	0.225	0.223	0.233	0.265
275.0	142.8	130.6	101.6	61.37	56.10	122.7	378.6	323.1	335.2	1040	3346	9211	1255	67.50	7.432	5.188	3.886	2.749	2.280	1.724	1.636	1.486	1.239	1.274	1.065	1.036	0.833	0.805	0.752	0.746	0.727	0.593	0.620	0.722	0.687	0.669	0.685	0.550	0.461	0.624	0.400	0.500	0.508	0.450	0.448	0.515	0.558	0.515	0.534	0.388	0.355	0.442	0.372	0.432	0.579	0.779	1.702	2.645	2.152	1.082	1.283	2.221	4.199	6.524	8.690	20.51	42.53	55.38	25.85	8.413	0.602	0.277	0.314	0.264	0.260	0.252	0.265
280.0	251.5	249.6	181.2	94.84	56.62	61.98	213.8	513.9	269.3	310.3	934.0	5518	9232	921.6	30.74	6.569	4.646	3.473	2.644	2.103	1.776	1.610	1.446	1.129	1.154	1.069	1.024	0.848	0.784	0.906	0.720	0.685	0.634	0.807	0.780	0.750	0.880	0.811	0.710	0.733	0.596	0.640	0.639	0.673	0.657	0.790	0.792	0.737	0.727	0.499	0.451	0.443	0.384	0.386	0.393	0.482	0.806	1.655	2.808	2.812	1.574	1.169	1.532	1.994	2.517	5.370	13.58	32.96	56.90	34.08	21.06	3.913	0.436	0.226	0.270	0.273	0.306
285.0	390.4	371.1	281.7	155.4	77.85	63.03	107.3	402.9	534.5	238.7	343.8	1610	7415	7829	126.3	14.23	6.187	4.460	3.514	2.246	2.174	1.890	1.650	1.394	1.253	1.169	1.106	0.872	0.843	0.741	0.863	0.683	0.657	0.792	1.060	1.014	1.096	1.027	0.823	0.759	0.728	0.926	0.869	0.952	1.074	1.149	1.017	0.959	1.078	0.775	0.620	0.584	0.539	0.475	0.476	0.402	0.613	0.823	1.459	2.722	3.529	2.460	1.235	1.155	1.232	1.856	3.751	8.655	20.47	40.31	63.12	31.51	15.43	1.792	0.356	0.333	0.346
290.0	525.7	537.9	415.0	246.0	128.5	98.12	113.5	223.4	512.7	615.6	379.0	593.9	2128	5883	6995	1971	35.72	6.725	4.489	3.190	2.420	2.140	1.815	1.652	1.498	1.218	1.418	0.965	1.015	0.972	0.825	0.805	0.804	0.872	1.225	1.274	1.375	1.342	1.294	1.092	1.058	1.138	1.157	1.219	1.264	1.441	1.318	1.383	1.337	1.039	0.816	0.793	0.681	0.612	0.590	0.569	0.714	0.754	0.998	1.364	2.259	3.103	3.187	3.113	1.945	1.666	2.074	3.231	5.706	10.85	21.80	31.77	46.21	42.13	33.57	11.25	2.142
295.0	657.9	702.7	570.3	344.1	209.1	164.5	179.7	240.1	363.3	698.9	888.7	577.0	821.2	1565	3686	8819	704.7	37.66	6.698	4.412	2.822	2.509	2.277	1.695	1.467	1.456	1.288	1.060	1.055	0.933	0.908	0.680	0.995	0.999	1.323	1.467	1.555	1.726	1.492	1.480	1.176	1.330	1.462	1.555	1.510	1.561	1.744	1.885	1.736	1.467	1.128	1.149	1.045	0.880	0.926	0.821	0.910	1.203	1.278	1.219	1.591	2.043	2.402	4.225	5.177	4.086	2.726	2.616	3.015	4.135	6.478	8.349	12.15	18.09	41.23	63.09	33.49
300.0	781.2	816.7	696.8	461.7	293.1	247.8	290.2	351.8	468.1	698.8	1216	1064	776.0	759.8	1176	5503	5887	547.1	20.27	6.106	4.002	2.867	2.536	2.034	1.611	1.530	1.247	1.293	1.114	0.982	0.933	0.910	0.941	1.112	1.433	1.753	1.828	1.781	1.625	1.710	1.391	1.531	1.446	1.718	1.878	1.879	2.157	2.206	2.224	1.701	1.318	1.394	1.249	1.067	1.189	1.209	1.302	1.642	1.763	1.828	2.125	2.467	2.854	3.791	5.340	6.623	6.128	4.591	3.844	3.847	4.013	4.054	4.649	5.636	12.38	29.43	53.91
305.0	945.7	1013	866.2	587.0	400.6	376.4	452.1	575.8	748.0	999.7	1414	1711	1278	923.3	808.5	1812	6490	5082	78.25	10.71	5.430	3.661	3.047	2.489	2.053	1.593	1.497	1.439	1.348	1.051	0.968	0.933	1.050	1.222	1.490	1.908	2.074	2.050	1.998	1.931	1.665	1.802	1.657	1.771	2.130	2.169	2.432	2.646	2.540	2.064	1.802	1.842	1.615	1.479	1.561	1.626	2.064	2.312	2.689	2.851	3.420	3.584	4.292	4.800	5.767	6.693	8.285	8.842	7.098	5.968	5.167	4.574	4.468	4.345	5.397	8.939	18.04
310.0	1050	1186	1054	729.7	520.9	505.2	616.0	759.6	950.1	1224	1520	1873	1918	1318	939.2	908.8	2167	5034	5307	1354	22.70	5.277	3.785	3.083	2.398	1.889	1.627	1.583	1.416	1.205	1.205	1.084	1.056	1.267	1.530	1.953	2.155	2.183	2.209	2.139	1.903	1.940	1.979	2.261	2.416	2.678	2.882	3.190	2.988	2.545	2.160	2.341	2.017	2.059	2.032	2.215	2.764	3.104	3.447	3.898	4.079	4.416	5.487	5.856	6.508	7.106	7.812	8.862	9.605	9.268	7.914	6.218	5.272	5.039	4.814	4.962	6.415
315.0	1190	1361	1260	863.7	647.8	629.9	740.6	894.2	1065	1330	1621	1861	1966	1835	1186	814.6	984.4	1433	3317	6852	498.4	21.35	5.265	3.839	2.923	2.138	2.015	1.820	1.463	1.213	1.439	1.061	1.275	1.286	1.617	1.793	2.050	2.203	2.040	2.205	2.179	2.067	2.390	2.400	2.744	3.255	3.177	3.752	3.498	3.083	2.461	2.714	2.583	2.507	2.523	2.645	3.121	3.428	3.769	4.297	4.619	5.055	5.895	6.287	7.076	7.592	7.954	8.282	9.075	9.453	9.765	8.741	7.629	6.200	5.174	4.709	4.713
320.0	1349	1568	1417	979.3	745.1	686.0	803.0	964.8	1132	1394	1696	1919	1944	1905	1504	892.9	776.6	645.8	948.2	4750	4208	385.3	10.88	4.923	3.134	2.524	2.286	1.975	1.584	1.317	1.488	1.132	1.240	1.356	1.691	1.725	1.981	2.127	2.306	2.334	2.274	2.201	2.321	2.494	3.051	3.519	3.605	4.267	3.964	3.301	2.830	3.150	2.934	2.651	2.887	2.787	3.171	3.706	4.224	4.423	4.870	5.459	6.077	7.148	7.153	7.722	8.337	8.617	8.948	9.257	9.084	9.238	9.705	8.362	6.321	5.192	4.450
325.0	1472	1817	1708	1211	834.7	740.5	838.4	987.6	1138	1391	1681	1911	1921	1767	1665	1057	758.8	493.2	352.5	1395	5204	3674	58.30	7.691	4.404	3.133	2.412	2.339	1.878	1.432	1.430	1.107	1.178	1.249	1.615	1.952	2.019	2.271	2.312	2.362	2.392	2.507	2.479	2.726	3.135	3.837	4.299	4.990	4.770	4.035	3.401	3.401	3.227	2.731	3.012	3.094	3.383	3.780	4.483	4.431	5.156	5.318	6.058	6.879	7.250	7.870	8.250	8.664	8.931	9.003	8.499	8.397	9.215	9.436	7.871	6.041	4.919
330.0	1672	2091	2197	1633	1109	868.4	875.1	1006	1134	1369	1645	1856	1888	1714	1530	1254	888.2	514.2	285.3	444.2	1571	3991	4166	1016	18.76	4.668	3.506	2.606	2.167	1.705	1.588	1.300	1.337	1.371	1.524	1.767	1.829	2.104	2.089	2.257	2.339	2.426	2.658	2.964	3.476	4.545	4.893	6.153	6.177	5.269	4.772	4.712	4.125	3.733	3.374	3.319	3.616	4.083	4.376	4.521	4.830	5.346	5.945	6.461	6.800	7.656	7.836	8.350	8.835	8.729	8.383	8.177	8.246	8.207	7.961	7.384	6.698
335.0	1891	2380	2523	2082	1490	1086	955.9	1026	1141	1359	1624	1813	1875	1723	1486	1198	1114	685.4	370.6	328.6	524.1	1060	3094	5596	405.6	18.95	5.145	3.254	2.672	2.100	1.789	1.501	1.266	1.420	1.513	1.713	1.917	2.360	2.157	2.145	2.346	2.708	2.842	3.303	3.869	4.647	5.351	6.793	7.050	6.337	5.781	6.169	5.256	5.005	4.265	3.986	4.144	4.148	4.112	4.685	4.812	5.461	5.744	6.473	6.994	7.351	7.795	8.091	8.288	8.765	8.549	8.105	8.447	7.902	7.227	6.815	6.843
340.0	1989	2513	2712	2286	1655	1198	1002	1049	1130	1332	1580	1758	1828	1701	1466	1165	1076	868.4	464.3	352.8	333.5	409.1	963.6	4303	3462	323.0	9.717	3.960	2.978	2.346	1.897	1.638	1.319	1.324	1.630	1.578	1.853	2.205	2.240	2.251	2.349	2.690	2.865	3.517	4.095	5.226	5.687	6.964	7.468	6.889	6.235	6.549	6.160	5.437	4.739	4.258	4.315	4.103	4.380	4.514	4.710	5.431	5.564	6.727	6.720	7.097	7.458	7.774	8.040	8.900	8.316	8.154	8.107	7.738	7.154	6.500	6.182
345.0	1950	2459	2744	2376	1753	1252	1033	1053	1120	1283	1519	1694	1759	1640	1437	1149	979.5	911.3	617.3	403.8	328.1	298.3	399.6	1388	4605	3049	49.83	6.446	3.813	2.888	2.174	1.667	1.611	1.534	1.605	1.474	1.821	1.990	2.069	2.072	2.180	2.582	3.030	3.423	4.040	5.292	5.525	6.984	7.310	6.941	6.366	6.904	6.445	5.369	4.622	4.243	4.147	4.288	4.398	4.548	4.868	5.132	5.602	5.813	6.190	6.747	7.370	7.118	7.634	8.133	8.096	7.987	7.848	7.632	6.855	6.480	6.215
350.0	1873	2360	2648	2389	1816	1315	1070	1062	1122	1256	1444	1590	1654	1578	1398	1151	962.5	836.0	743.8	564.3	406.7	337.7	322.5	482.1	1468	3369	3376	817.2	15.59	3.860	2.743	1.906	1.629	1.541	1.537	1.617	1.772	2.008	2.063	2.200	2.216	2.531	2.644	3.502	3.948	4.985	5.283	6.601	7.044	6.812	6.621	7.056	6.868	5.797	5.221	4.563	4.351	4.392	4.530	4.818	4.795	5.010	5.568	5.697	6.151	6.440	6.874	7.187	7.260	7.584	7.892	7.441	7.407	7.047	6.586	6.383	6.393
355.0	1724	2223	2471	2288	1837	1371	1147	1108	1144	1246	1394	1502	1556	1497	1366	1144	986.8	839.5	731.8	725.4	558.5	410.9	353.5	320.9	471.3	872.6	2485	4364	367.3	15.71	3.593	2.594	1.991	1.780	1.511	1.623	1.806	1.893	1.975	2.251	2.086	2.344	2.596	3.371	3.754	4.552	4.860	6.243	6.564	6.355	6.203	6.976	6.580	5.889	5.393	4.833	4.728	4.655	5.022	4.658	5.009	5.235	5.546	5.691	6.105	6.182	6.734	6.615	6.833	6.982	7.314	7.352	7.065	6.923	6.798	6.556	6.454
360.0	1646	2115	2315	2169	1814	1401	1180	1153	1166	1249	1365	1456	1497	1452	1332	1151	1006	867.3	743.9	726.4	695.2	498.3	395.9	317.1	279.2	309.1	711.6	3377	3150	301.5	7.788	3.475	2.266	2.073	1.796	1.733	1.793	1.931	1.932	2.037	2.018	2.158	2.528	3.098	3.522	4.173	4.468	5.675	6.091	6.014	5.877	6.892	6.642	5.947	5.431	4.765	4.819	4.843	4.879	5.071	4.848	5.243	5.865	5.599	5.924	5.882	6.500	6.459	6.641	6.669	6.796	7.124	6.860	6.703	6.647	6.579	6.569
365.0	1601	1962	2212	2066	1767	1432	1226	1172	1186	1262	1342	1410	1445	1399	1294	1145	1016	896.4	783.3	717.5	730.5	626.9	450.7	350.5	270.3	210.5	241.2	1052	3874	2819	46.41	5.488	2.751	2.282	2.027	1.887	1.946	1.927	1.912	2.225	2.174	2.175	2.454	3.025	3.408	3.805	4.404	5.332	5.592	5.552	5.798	6.352	5.973	5.710	5.410	5.023	4.979	5.019	5.091	4.975	5.064	5.575	5.851	5.580	5.657	6.259	5.831	6.202	6.288	6.296	6.585	6.930	6.867	6.852	6.623	6.523	6.565
370.0	1496	1826	2017	1947	1727	1459	1260	1216	1235	1277	1326	1380	1387	1356	1265	1137	1034	938.9	843.3	767.1	724.0	707.0	590.6	424.8	316.1	232.2	174.5	316.0	1195	2994	3077	772.2	14.02	3.323	2.375	2.285	2.013	2.033	1.959	2.123	2.021	2.409	2.414	2.793	3.171	3.596	4.272	4.923	5.269	5.250	5.311	6.031	6.430	5.721	5.374	5.089	5.182	5.036	5.138	5.204	5.306	5.486	5.502	5.761	5.697	5.854	5.813	6.189	6.142	6.221	6.449	6.606	6.503	6.691	6.446	6.374	6.405
375.0	1422	1717	1880	1835	1700	1470	1302	1249	1249	1289	1308	1345	1346	1307	1233	1127	1044	965.1	888.7	817.3	758.4	698.6	686.8	554.3	385.0	285.9	204.0	187.9	346.5	752.4	2235	3881	322.5	14.93	3.566	2.783	2.324	2.093	1.949	2.006	2.094	2.140	2.326	2.724	2.860	3.654	3.979	4.855	4.646	4.790	5.073	5.517	6.278	5.893	5.151	5.474	5.325	5.073	5.197	5.453	5.494	5.548	5.732	5.459	5.479	5.626	5.887	6.075	5.865	6.013	6.189	6.182	6.361	6.321	6.437	6.012	6.651
380.0	1368	1657	1789	1759	1639	1459	1314	1266	1254	1285	1290	1319	1310	1276	1202	1110	1043	978.3	916.6	852.3	783.6	715.9	682.0	642.0	467.3	334.5	245.6	189.6	179.7	236.0	632.2	2945	2734	258.4	7.633	3.503	2.681	2.216	1.999	1.933	2.146	2.259	2.499	2.664	2.788	3.345	3.738	4.434	4.658	4.497	4.774	5.552	6.042	5.848	5.528	5.250	5.438	5.470	4.997	5.365	5.315	5.317	5.572	5.415	5.717	5.580	5.692	5.837	5.735	6.278	6.159	6.095	5.941	6.354	6.305	5.956	6.660
385.0	1345	1535	1742	1714	1589	1437	1319	1266	1254	1273	1299	1303	1279	1251	1176	1098	1036	985.1	929.6	876.7	807.3	741.8	684.6	655.0	565.1	395.1	293.7	224.5	173.6	145.0	204.2	890.4	3114	2366	38.85	5.736	3.705	2.714	2.291	2.081	2.080	2.222	2.314	2.641	2.864	3.313	3.380	4.292	4.555	4.168	4.300	5.333	5.639	5.632	5.473	5.464	5.410	5.573	5.157	5.280	5.471	5.292	5.518	5.353	5.572	5.494	5.630	5.770	5.634	6.145	5.947	6.013	6.167	6.269	6.140	6.233	6.653
390.0	1307	1521	1663	1639	1581	1426	1344	1284	1266	1280	1291	1296	1273	1232	1162	1090	1030	989.9	940.2	897.3	837.0	784.3	724.3	662.5	621.3	519.2	378.5	293.5	229.0	178.6	148.8	271.2	930.7	2244	2348	659.4	15.19	4.314	2.904	2.283	2.387	2.331	2.375	2.528	2.916	3.430	3.351	4.083	4.375	4.125	4.313	5.214	5.539	5.498	5.394	5.314	5.639	5.634	5.502	5.032	5.451	5.545	5.706	5.579	5.789	5.447	5.431	5.642	5.567	5.799	5.672	5.882	6.128	5.955	5.935	6.261	6.432
395.0	1277	1472	1586	1604	1532	1446	1358	1327	1304	1328	1342	1350	1303	1267	1189	1095	1040	991.8	952.6	922.1	875.0	836.8	783.2	723.5	660.4	621.8	532.7	404.8	326.9	263.2	205.4	188.6	296.4	580.2	1547	2910	277.8	19.05	4.694	3.181	2.551	2.521	2.526	2.645	2.770	3.468	3.394	4.022	4.218	3.883	4.034	5.203	5.483	5.326	5.300	5.189	5.690	5.569	5.605	5.505	5.515	5.617	5.465	5.720	5.826	5.778	5.454	5.607	5.529	5.649	5.766	5.656	5.975	5.874	6.007	6.135	6.153
400.0	1283	1468	1545	1541	1512	1446	1390	1349	1357	1401	1433	1431	1396	1347	1246	1134	1055	1010	969.1	944.1	908.7	884.0	843.4	794.9	737.2	684.9	652.6	540.4	431.8	359.0	290.4	230.7	204.7	228.9	464.9	2002	2275	243.5	11.86	4.337	2.954	2.645	2.739	2.541	2.913	3.293	3.387	3.960	4.093	3.783	4.035	5.138	5.280	5.258	5.291	5.263	5.664	5.604	5.690	5.687	5.836	5.384	5.845	5.782	5.844	6.027	5.768	5.513	5.884	5.827	6.017	6.073	6.071	5.972	5.733	5.847	6.103
405.0	1250	1421	1524	1506	1503	1467	1418	1393	1420	1482	1539	1562	1515	1433	1324	1190	1084	1026	985.1	967.3	943.5	928.2	909.0	878.7	824.4	765.4	736.2	686.6	559.0	457.9	390.2	309.3	238.8	195.4	212.0	620.2	2160	2058	183.0	7.091	3.563	2.899	2.804	2.667	3.221	3.342	3.343	3.909	4.025	4.065	3.996	5.068	5.260	5.337	5.305	5.354	5.842	5.521	5.761	5.732	5.811	5.843	6.038	6.159	5.759	6.002	6.137	5.832	6.167	6.157	6.134	5.979	6.164	6.121	6.207	6.015	5.988
410.0	1209	1408	1478	1485	1481	1460	1410	1431	1480	1581	1652	1673	1620	1527	1399	1230	1099	1033	991.8	977.5	972.9	970.4	965.7	949.7	911.5	857.1	812.1	781.0	712.7	594.5	498.3	404.0	313.3	237.2	194.3	247.8	648.9	1616	1894	619.2	14.67	3.818	3.185	3.005	3.144	3.233	3.353	3.839	3.937	3.904	4.042	4.917	5.333	5.352	5.480	5.255	5.741	5.835	5.997	5.812	5.972	6.077	5.951	6.388	6.062	6.171	5.882	6.114	6.206	6.296	6.210	6.284	6.235	6.251	6.059	6.233	6.168
415.0	1193	1337	1383	1445	1449	1416	1403	1443	1496	1576	1659	1671	1620	1526	1381	1209	1063	995.9	968.9	950.6	955.7	964.2	967.7	958.3	931.0	884.6	837.6	794.7	756.4	683.6	560.0	451.0	351.4	267.6	206.7	177.8	226.5	414.8	1021	2201	260.6	17.84	3.938	3.473	3.134	3.507	3.371	3.701	3.922	3.769	3.783	4.541	5.153	4.995	5.401	5.218	6.037	5.712	5.863	6.071	5.892	5.859	6.172	6.434	6.031	6.002	6.089	5.968	6.139	5.983	6.132	6.292	6.174	6.233	5.879	5.989	5.825
420.0	1130	1288	1386	1385	1381	1401	1393	1429	1472	1549	1608	1622	1567	1475	1331	1158	1028	960.1	929.6	924.0	925.4	932.6	945.3	934.7	917.0	878.3	827.6	785.1	732.7	706.3	593.8	463.8	363.4	276.4	213.0	163.8	133.3	143.5	274.9	1300	1992	237.5	11.23	3.695	3.378	3.442	3.429	3.500	3.814	3.709	3.611	4.533	4.800	4.975	5.289	4.915	5.661	5.948	5.608	5.978	6.050	5.620	5.977	6.026	6.379	5.719	6.027	5.701	5.836	5.669	5.644	5.882	5.963	5.946	5.630	5.520	5.358
425.0	1146	1271	1337	1342	1363	1372	1364	1399	1441	1509	1574	1590	1523	1437	1286	1123	985.8	921.9	891.5	887.4	893.4	909.5	918.0	915.4	905.6	868.8	823.2	783.0	721.7	681.0	622.4	491.6	371.9	288.9	223.7	165.9	120.7	87.15	92.85	353.9	1475	1762	189.6	6.094	3.797	3.605	3.308	3.906	3.922	3.643	3.639	4.426	4.706	5.001	5.024	4.986	5.269	5.665	5.875	5.697	5.864	5.793	5.779	5.857	5.970	5.924	5.950	5.600	5.616	5.461	5.505	5.729	5.904	5.787	5.249	5.359	5.295
430.0	1265	1203	1298	1304	1325	1337	1352	1378	1420	1508	1579	1569	1514	1420	1263	1089	955.0	890.1	854.5	853.5	860.4	883.1	894.4	902.8	897.1	863.5	831.7	794.9	741.7	683.4	630.3	545.7	415.0	316.6	245.4	186.7	133.1	86.40	60.83	104.1	390.7	1116	1509	587.4	15.10	4.191	3.626	3.743	3.815	3.378	3.370	4.238	4.889	4.822	4.790	4.885	5.400	5.665	5.578	5.726	5.737	5.683	5.807	5.725	6.023	5.751	6.006	5.735	5.491	5.641	5.485	5.593	5.709	5.494	5.270	5.274	5.231
435.0	1802	1184	1209	1272	1276	1296	1330	1363	1421	1489	1568	1561	1483	1384	1232	1056	920.2	849.1	820.2	817.1	825.6	846.4	871.4	885.7	883.0	856.0	833.1	796.5	753.8	695.2	628.8	557.9	464.1	351.3	268.8	207.8	150.1	100.1	64.45	56.06	111.2	266.8	661.8	1767	878.7	20.51	4.212	3.872	3.846	3.446	3.526	4.074	4.652	4.642	4.977	5.002	5.361	5.472	5.612	5.542	5.686	5.834	5.768	6.068	5.576	5.525	5.752	5.617	5.305	5.180	5.482	5.411	5.413	5.114	5.476	5.063	4.948
440.0	2128	1306	1167	1215	1233	1253	1295	1331	1387	1457	1511	1511	1430	1336	1181	1010	883.5	814.8	786.7	781.0	792.6	813.5	831.7	850.0	851.0	827.8	806.3	774.2	737.7	683.3	612.9	536.6	465.7	372.8	278.2	216.8	159.0	107.6	71.79	51.52	51.93	79.41	169.8	905.4	1870	238.1	14.00	4.256	3.692	3.572	3.399	4.253	4.595	4.752	4.723	4.679	5.337	5.383	5.591	5.211	5.435	5.442	5.504	5.928	5.749	5.385	5.613	5.690	5.364	5.155	5.124	5.215	5.048	5.161	5.225	4.679	4.821
445.0	1998	1701	1155	1141	1187	1220	1252	1285	1338	1395	1435	1429	1347	1248	1106	960.0	831.8	771.6	745.5	737.9	744.3	762.4	783.7	799.7	799.7	781.5	765.6	734.2	700.7	651.1	591.5	511.1	439.3	372.7	286.8	218.7	162.5	112.4	77.15	55.67	43.43	41.26	54.94	234.9	1131	1661	186.9	9.854	4.158	3.566	3.385	4.026	4.587	4.273	4.551	4.502	5.093	5.298	5.499	5.259	5.327	5.286	5.390	5.449	5.547	5.147	5.586	5.212	5.204	4.867	5.129	5.082	5.026	4.972	5.072	4.730	4.549
450.0	1401	2182	1338	1074	1127	1140	1191	1216	1250	1294	1317	1306	1236	1131	999.0	866.7	760.5	702.7	676.7	668.7	675.9	689.2	705.4	722.1	718.3	706.7	694.5	664.9	636.3	597.3	544.7	474.6	399.1	341.4	289.4	223.0	162.8	117.8	83.92	62.32	47.57	37.71	34.10	69.21	288.2	896.0	1347	643.8	14.75	4.122	3.299	3.995	4.325	4.241	4.296	4.511	4.878	5.169	5.105	5.009	5.054	5.097	5.153	5.433	4.950	4.985	5.132	4.913	4.848	4.553	4.847	4.717	4.355	4.526	4.659	4.327	4.256
455.0	906.3	1864	1896	1025	1037	1064	1095	1129	1162	1188	1190	1179	1109	1011	899.7	775.1	683.6	630.7	606.6	601.2	602.9	613.5	629.7	644.1	642.4	634.6	620.1	592.9	575.6	545.2	494.1	434.4	365.5	310.1	269.0	228.8	170.3	122.5	89.96	68.67	53.60	42.66	33.17	35.49	79.39	211.8	484.1	1401	804.8	18.48	3.821	3.832	3.933	4.078	3.977	4.142	4.472	4.758	4.709	4.666	4.692	4.864	5.003	4.874	4.513	4.739	4.508	4.403	4.383	4.365	4.194	4.270	3.924	4.135	3.919	4.036	3.937
460.0	764.7	1277	2272	1183	960.6	996.8	1034	1069	1090	1104	1122	1103	1020	940.8	825.5	719.2	627.2	580.8	558.4	554.8	551.2	563.3	576.4	589.4	592.3	582.0	566.7	549.9	533.1	505.2	463.2	410.3	346.7	293.0	250.1	221.7	177.6	126.5	93.72	73.46	57.62	46.85	36.00	29.80	35.02	60.46	120.6	619.7	1475	185.9	13.24	4.181	4.019	3.689	3.712	3.900	4.169	4.324	4.613	4.668	4.771	4.610	4.524	4.624	4.417	4.363	4.380	4.043	4.352	4.014	3.886	3.998	3.679	3.938	3.655	3.892	3.687
465.0	700.7	927.8	2095	1638	901.5	926.5	972.4	994.6	1027	1033	1057	1017	956.9	861.2	760.4	663.5	579.2	534.9	513.1	510.9	504.6	513.7	528.8	541.0	538.6	534.0	523.8	506.8	492.7	467.0	431.7	384.4	329.5	279.1	236.5	207.9	179.7	132.5	96.07	76.08	61.01	48.86	39.64	30.77	26.45	28.39	38.94	156.5	816.8	1247	162.4	10.37	4.168	3.660	3.526	3.750	3.982	3.992	4.107	4.218	4.297	4.312	4.117	4.190	3.987	4.151	3.992	3.887	3.793	3.767	3.515	3.654	3.522	3.604	3.478	3.643	3.440
470.0	655.5	733.6	1320	2080	1083	835.7	867.0	900.2	915.6	929.7	943.2	910.0	847.4	773.3	678.7	589.0	517.1	479.3	459.4	449.8	445.2	455.0	464.1	472.9	472.8	468.0	460.9	450.9	438.2	416.9	387.9	347.8	299.7	255.5	217.4	185.4	162.0	137.1	101.8	78.00	62.70	51.44	41.44	33.66	27.16	22.75	21.89	45.53	203.7	629.4	938.6	508.5	15.25	3.977	3.589	3.276	3.775	3.826	3.791	3.861	4.059	3.904	4.070	3.726	3.734	3.816	3.704	3.456	3.460	3.389	3.208	3.342	3.202	3.170	3.227	3.111	3.194
475.0	622.7	660.8	796.0	1692	1721	777.2	777.4	805.3	815.2	820.2	831.5	792.6	736.0	675.8	594.7	515.6	453.8	418.6	399.1	393.7	387.2	392.2	401.6	410.1	406.7	402.2	398.0	390.3	379.7	363.6	341.2	306.1	266.0	230.7	196.5	168.0	142.7	124.1	107.3	82.23	64.38	52.73	42.57	34.99	29.51	23.48	19.73	22.48	55.09	147.7	311.4	910.7	586.4	19.95	3.782	3.260	3.359	3.574	3.453	3.419	3.608	3.686	3.637	3.497	3.279	3.370	3.336	3.167	3.011	2.987	2.935	2.971	2.830	2.611	2.921	2.814	2.935
480.0	586.2	634.8	626.0	1132	2156	933.6	710.0	733.3	747.2	757.5	748.3	726.8	670.7	608.6	538.1	468.6	410.4	381.7	366.2	353.4	346.7	353.0	359.3	363.3	364.6	358.6	356.8	349.0	342.3	327.2	307.2	280.7	243.5	210.9	183.2	158.3	132.5	114.0	104.1	87.33	66.88	53.09	44.08	37.04	29.98	25.32	20.59	17.98	22.47	40.95	77.12	366.4	1025	209.8	14.57	3.676	3.308	3.464	3.097	3.228	3.392	3.359	3.537	3.157	3.260	3.061	2.938	2.851	2.732	2.915	2.816	2.711	2.708	2.700	2.645	2.659	2.544
485.0	532.7	624.7	558.3	757.3	2062	1343	672.4	701.1	701.7	706.7	696.5	663.2	613.1	558.9	489.8	424.8	382.6	353.2	334.5	326.6	321.3	319.9	323.9	332.8	331.4	327.0	326.4	317.7	312.9	300.9	282.1	258.9	223.4	198.6	171.5	148.4	126.7	107.2	96.33	90.10	72.22	54.99	45.31	37.55	31.20	27.05	21.61	18.29	16.06	17.99	24.26	91.77	543.3	948.3	181.2	8.611	3.228	3.401	2.940	3.029	3.166	2.941	2.919	3.020	3.076	2.902	2.854	2.722	2.794	2.700	2.640	2.574	2.404	2.447	2.543	2.392	2.444
490.0	426.2	573.4	544.4	573.4	1268	1923	838.8	634.5	633.8	634.4	634.2	597.6	549.1	502.3	439.4	384.5	344.0	317.6	303.5	295.2	287.3	286.5	289.4	292.3	293.4	291.8	285.8	284.8	279.1	267.1	253.9	232.1	204.2	180.3	158.2	138.7	118.8	101.1	88.86	82.03	74.96	60.00	46.76	39.20	33.25	27.89	23.47	19.61	16.12	13.83	13.48	27.29	134.3	443.3	780.2	462.2	16.03	3.385	3.182	2.953	2.918	2.747	2.767	2.876	2.840	2.679	2.520	2.498	2.523	2.386	2.542	2.399	2.169	2.353	2.262	2.265	2.284
495.0	384.0	481.6	527.3	493.0	665.8	1669	1507	592.6	568.3	561.6	566.6	534.4	490.2	446.4	387.1	341.4	304.3	284.3	267.7	261.7	253.3	254.0	255.5	257.2	256.3	251.4	248.9	250.5	244.3	239.3	226.1	207.3	183.6	164.3	143.5	126.3	110.0	94.32	83.09	72.38	69.20	65.27	50.36	39.95	33.72	28.87	24.75	20.63	16.96	13.97	11.84	13.15	35.88	104.2	270.4	839.5	602.3	21.53	3.413	2.843	2.732	2.686	2.589	2.493	2.475	2.475	2.315	2.364	2.212	2.177	2.202	2.022	1.990	2.172	1.948	1.991	2.115
500.0	346.2	421.8	511.9	464.9	492.0	1068	2038	707.7	524.2	516.3	511.4	483.8	443.9	404.2	349.9	306.3	273.1	257.6	242.5	234.3	227.7	227.8	229.4	230.3	229.0	227.5	225.3	222.8	217.7	214.3	203.8	189.3	168.1	150.0	133.8	117.0	102.9	89.18	78.67	68.59	62.97	62.31	53.29	41.75	34.03	29.79	25.14	21.49	17.82	14.58	11.93	10.37	14.33	28.77	66.14	336.9	960.5	229.5	15.47	2.984	2.506	2.656	2.345	2.323	2.298	2.456	2.132	2.118	2.174	1.923	1.982	1.925	1.823	1.914	1.784	1.709	1.808
505.0	319.8	358.6	455.3	426.8	419.5	620.8	1978	1138	484.5	473.4	469.6	443.6	406.6	363.7	324.8	277.5	249.5	232.8	217.9	213.4	206.4	205.6	206.4	207.4	204.2	201.9	201.9	201.3	196.1	193.1	185.0	170.4	154.2	137.6	121.8	109.0	97.31	82.86	74.56	65.07	58.03	56.34	54.10	43.26	34.78	29.56	24.37	21.04	17.62	14.93	12.14	10.34	9.741	12.07	19.62	82.94	477.3	870.0	193.4	7.682	2.492	2.515	2.309	2.406	2.100	2.114	2.070	1.922	1.885	1.842	1.815	1.726	1.723	1.691	1.696	1.672	1.765
510.0	277.1	308.0	365.8	421.0	367.9	422.0	1158	1858	621.5	416.8	411.5	390.9	352.3	320.1	284.0	244.6	216.8	203.5	192.6	184.9	178.9	178.7	177.6	179.2	176.9	174.6	172.5	172.2	170.0	168.5	160.6	148.1	135.1	120.6	107.7	97.11	86.37	75.89	67.74	60.03	54.00	48.65	47.47	43.67	36.02	28.74	24.23	20.88	17.60	15.12	12.50	10.76	9.028	8.511	9.502	23.11	116.6	392.6	649.8	319.1	15.18	2.682	2.237	2.067	1.915	1.981	1.801	1.706	1.742	1.606	1.616	1.580	1.524	1.509	1.645	1.480	1.503
515.0	229.5	260.6	296.2	383.0	355.7	337.4	541.2	1741	1321	381.1	357.2	335.6	309.0	273.8	242.4	211.0	186.9	172.7	164.4	157.4	153.1	152.2	151.8	153.3	151.2	147.6	146.7	145.8	145.6	143.4	138.2	127.1	116.7	104.2	94.18	84.50	75.20	68.45	60.92	54.72	47.96	43.60	41.20	39.87	37.99	30.19	23.46	20.62	17.67	14.50	12.67	10.82	9.100	7.675	7.205	9.720	30.11	91.25	210.3	636.6	239.6	20.09	2.199	1.883	1.692	1.732	1.720	1.506	1.477	1.358	1.577	1.472	1.396	1.392	1.336	1.254	1.364
520.0	209.3	229.4	252.8	317.6	343.1	297.7	356.9	1079	2012	478.8	320.6	299.9	276.6	247.2	217.3	186.8	168.0	155.6	147.6	140.2	138.5	135.0	134.0	135.0	133.0	133.0	129.8	128.2	130.3	126.8	121.6	113.9	104.3	94.42	83.48	77.47	69.32	61.94	56.29	50.07	44.66	40.26	36.85	35.26	35.60	31.58	23.75	19.46	17.02	14.68	12.61	11.04	9.632	7.885	6.894	6.913	10.61	24.04	50.80	257.7	650.4	218.4	12.09	1.937	1.881	1.562	1.520	1.371	1.499	1.271	1.266	1.272	1.138	1.166	1.160	1.181	1.195
525.0	199.5	211.6	225.2	256.3	340.5	281.3	286.0	542.3	2161	915.9	288.4	270.6	246.6	219.5	193.0	167.4	147.7	139.9	132.6	125.2	121.4	121.8	118.0	120.4	118.9	118.0	116.5	115.5	115.3	112.1	108.3	100.8	92.66	84.56	76.21	69.66	63.84	56.66	51.81	45.91	41.54	37.84	34.09	31.11	31.93	30.56	24.49	19.72	16.41	14.13	12.20	10.36	9.281	7.881	6.749	6.025	6.507	8.934	14.47	63.01	326.2	629.9	173.1	5.408	1.898	1.642	1.413	1.320	1.357	1.326	1.282	1.363	1.163	1.127	1.091	1.245	1.151
530.0	167.4	193.3	203.2	219.0	288.7	282.5	241.1	310.9	1239	1882	418.5	238.2	215.3	192.6	168.6	145.5	128.5	122.1	113.4	109.3	103.3	103.4	102.6	102.9	101.8	100.4	98.70	98.58	98.82	97.79	94.00	88.01	80.33	73.71	67.55	60.95	56.01	50.31	45.66	41.75	36.99	33.89	30.92	28.02	26.78	27.21	25.08	20.07	15.61	13.22	11.64	10.13	9.016	8.192	7.105	6.061	5.465	5.276	6.301	16.91	79.90	280.3	464.7	224.7	13.45	1.757	1.370	1.333	1.207	1.162	1.083	1.198	1.095	1.093	1.026	1.016	0.976
535.0	143.0	163.1	172.0	183.8	214.8	266.1	220.3	227.5	472.4	1890	1145	214.0	185.0	163.4	141.3	126.2	112.9	105.7	98.67	93.65	89.26	88.46	86.01	86.41	84.22	83.27	82.69	84.07	81.57	80.85	79.51	74.00	68.51	62.05	58.50	51.82	48.57	43.78	39.71	37.19	32.66	29.92	27.24	25.19	23.19	22.19	22.62	20.72	15.01	12.30	10.97	9.484	8.576	7.379	7.005	6.146	5.285	4.817	4.416	6.826	20.18	64.97	148.7	440.2	231.8	16.94	1.590	1.354	1.089	1.065	0.866	0.955	0.917	0.941	0.791	0.902	0.898
540.0	130.6	145.5	150.9	159.3	167.3	246.7	215.5	193.0	254.6	1075	1930	238.5	167.9	145.1	124.9	112.2	98.59	92.56	85.84	81.33	78.11	78.71	76.89	76.62	72.29	73.75	71.58	73.31	70.95	70.85	68.34	64.05	61.60	54.59	49.88	46.14	43.36	38.77	35.81	33.30	29.18	27.04	24.72	22.31	20.74	19.65	19.51	19.04	15.70	12.28	10.46	9.006	7.901	7.128	6.522	6.055	5.140	4.621	4.140	4.312	6.905	16.91	35.94	174.7	459.0	195.1	9.743	1.355	0.953	1.107	0.807	0.805	0.763	0.907	0.783	0.760	0.801
545.0	120.7	131.8	130.6	134.4	148.6	203.9	216.5	170.8	182.3	467.9	2182	626.9	145.0	129.7	112.4	97.20	86.97	79.85	75.72	71.50	68.88	67.25	66.87	66.09	63.89	63.72	62.53	63.84	62.21	62.38	61.24	56.62	52.71	49.00	45.03	40.51	38.07	34.32	31.46	29.38	26.44	24.33	22.44	20.26	18.84	17.41	16.96	17.28	16.10	12.10	9.917	8.345	7.371	6.628	5.899	5.771	5.085	4.431	3.734	3.764	3.953	5.777	10.21	42.41	223.1	438.1	135.1	3.676	1.207	0.944	0.849	0.886	0.810	0.897	0.823	0.745	0.741
550.0	112.7	120.4	122.1	121.7	123.8	143.5	206.8	162.6	149.1	215.8	1159	1653	171.7	106.9	95.18	82.04	72.88	67.07	62.71	59.26	56.86	56.22	55.67	54.16	53.23	53.02	52.27	52.51	51.68	51.41	50.51	47.76	44.07	40.71	38.21	34.54	32.26	29.11	27.54	24.99	22.82	21.32	19.39	18.12	16.79	15.16	14.40	13.64	14.08	12.32	9.718	7.831	6.490	6.008	5.380	5.039	4.967	4.661	3.704	3.215	2.916	3.518	4.137	11.26	53.98	187.2	306.9	134.3	12.40	1.136	0.839	0.760	0.776	0.797	0.652	0.665	0.668
555.0	107.2	108.2	107.0	109.1	104.5	105.3	155.5	174.9	119.0	140.2	376.2	1779	764.3	93.55	78.09	66.95	60.65	54.65	50.93	48.39	46.28	44.75	45.49	43.95	42.75	41.96	42.22	41.94	42.55	41.01	40.78	38.45	35.71	32.82	30.53	28.39	26.19	24.56	21.96	20.70	18.84	17.81	16.34	14.80	13.65	12.32	11.59	10.90	10.58	11.07	9.444	7.447	6.117	5.454	4.996	4.344	4.408	3.917	3.630	2.943	2.518	2.769	2.635	4.108	13.45	43.16	95.08	267.5	199.8	14.79	0.913	0.714	0.698	0.731	0.580	0.523	0.580
560.0	95.85	104.5	94.59	94.11	89.70	92.37	117.2	174.5	112.3	110.3	164.0	991.0	1439	124.6	66.13	56.64	50.43	45.53	43.72	41.09	39.12	38.49	37.76	37.04	35.92	35.42	35.11	34.13	35.79	34.98	34.01	31.23	29.75	27.08	25.16	23.52	22.41	20.93	19.01	18.00	16.42	15.39	14.06	13.03	11.93	11.08	10.62	9.158	8.733	9.135	8.732	7.346	5.483	4.931	4.377	3.874	3.632	3.208	3.396	3.165	2.564	2.290	2.150	2.296	4.400	10.94	22.67	102.8	287.8	144.1	7.035	0.859	0.691	0.632	0.593	0.514	0.581
565.0	89.54	94.71	95.19	78.70	74.51	78.19	87.15	155.0	120.1	96.07	106.5	377.4	1834	360.8	58.40	49.22	43.56	38.98	36.52	34.80	33.60	31.76	31.39	31.91	30.41	29.51	28.85	29.74	29.60	29.12	30.05	26.44	25.22	22.80	22.02	20.22	19.09	17.42	16.40	14.88	14.39	13.32	12.13	11.28	10.19	9.631	9.230	8.014	7.433	7.175	7.630	7.139	5.514	4.408	3.740	3.446	3.535	3.011	2.994	2.933	2.490	2.208	2.102	1.939	2.337	3.516	6.206	25.07	127.7	266.0	33.63	2.712	0.601	0.520	0.517	0.459	0.533
570.0	95.06	90.37	85.85	69.53	62.52	63.54	69.71	112.5	131.8	84.83	86.08	145.6	1003	1204	88.20	39.64	35.29	32.23	29.84	28.00	27.31	26.17	25.61	25.15	24.52	24.39	23.57	23.80	24.10	23.70	23.29	21.50	19.87	18.61	17.44	16.36	15.61	14.28	13.33	12.35	11.73	10.95	9.830	9.070	8.708	7.930	7.470	6.650	6.145	5.533	5.489	6.105	5.056	4.085	3.381	3.153	2.933	2.577	2.578	2.494	2.496	2.149	1.871	1.715	1.695	1.854	2.426	6.738	30.53	105.4	164.0	98.40	10.84	0.669	0.528	0.425	0.473
575.0	87.41	87.42	75.28	65.24	53.02	56.40	59.93	76.28	128.6	90.37	71.82	85.82	297.0	1387	483.0	34.60	28.63	26.01	23.55	22.80	21.22	21.06	19.94	20.31	19.73	18.52	18.73	18.33	19.43	18.48	17.46	17.07	16.39	15.12	13.68	13.36	12.46	11.65	11.11	9.671	9.357	8.390	8.372	7.517	7.169	6.623	5.993	5.604	5.125	4.623	4.211	4.362	4.530	3.779	3.217	2.672	2.498	2.191	2.033	2.178	2.162	2.127	1.646	1.430	1.596	1.331	1.655	2.530	7.737	24.38	47.98	149.3	127.6	12.76	0.571	0.491	0.450
580.0	85.17	87.94	72.56	61.66	46.12	45.69	51.22	57.41	103.7	108.3	69.45	71.12	112.8	788.4	1020	50.20	24.96	22.00	19.92	18.01	17.69	17.94	16.35	16.03	16.31	15.48	15.70	15.71	16.01	15.21	15.01	14.80	13.85	12.62	12.00	10.97	10.72	9.641	8.990	8.582	7.751	7.190	7.154	6.757	6.134	6.154	5.537	4.911	4.399	3.912	3.485	3.636	3.759	3.722	3.230	2.585	2.196	2.102	1.899	1.889	1.849	1.819	1.730	1.428	1.289	1.424	1.252	1.385	2.607	6.235	11.62	52.67	163.0	94.80	5.839	0.467	0.363
585.0	91.32	88.85	71.36	59.60	42.61	43.76	43.82	51.28	73.98	120.4	72.67	65.83	67.94	286.3	1347	110.6	22.01	18.99	17.71	16.18	15.46	15.52	14.61	14.77	14.10	13.61	13.56	13.21	13.65	13.35	12.52	12.86	11.51	11.08	9.792	10.05	8.960	8.163	7.577	7.116	6.857	6.589	5.832	5.502	5.304	5.248	4.699	4.360	3.726	3.389	3.080	2.913	3.024	3.365	3.095	2.578	2.002	1.920	1.753	1.729	1.570	1.560	1.903	1.481	1.149	1.227	1.190	1.300	1.311	2.141	3.349	12.62	66.76	151.9	33.37	2.592	0.384
590.0	86.87	83.04	66.78	51.93	41.32	37.65	39.16	45.90	56.97	108.3	88.02	63.68	56.23	99.31	738.0	708.0	39.91	16.05	14.37	13.29	12.66	12.71	12.09	11.82	11.76	11.12	10.94	10.52	11.11	10.90	10.39	10.19	9.515	9.064	8.121	7.871	7.306	6.750	6.279	5.840	5.610	5.280	4.861	4.659	4.320	4.207	3.815	3.626	3.130	2.824	2.605	2.335	2.296	2.535	2.821	2.451	2.076	1.722	1.484	1.464	1.297	1.396	1.502	1.553	1.326	1.153	1.104	1.053	1.016	1.075	1.339	3.390	15.87	55.78	95.49	65.62	9.923
595.0	80.69	73.41	62.12	46.66	37.57	35.94	35.39	40.28	48.82	78.30	106.2	65.71	54.39	54.25	209.2	914.7	244.3	14.22	11.80	11.46	9.823	10.23	9.510	9.398	8.981	9.005	8.908	8.207	8.530	8.567	8.307	7.900	7.355	7.117	6.662	6.126	5.962	5.392	5.090	4.902	4.488	4.226	3.749	3.664	3.547	3.494	3.051	2.778	2.823	2.526	2.273	2.154	1.806	1.955	2.049	2.323	1.987	1.598	1.422	1.339	1.196	1.261	1.186	1.117	1.299	1.168	1.127	0.923	0.917	0.966	0.927	1.350	3.966	12.90	26.18	80.45	82.49
600.0	67.17	77.90	58.91	47.95	38.48	32.53	39.60	39.53	46.69	59.81	111.4	75.42	55.32	46.36	71.72	547.7	619.8	21.96	10.66	9.544	8.873	8.351	8.257	7.870	7.641	7.554	7.413	7.238	7.037	7.252	6.997	6.838	5.999	6.115	5.795	5.341	4.935	4.501	4.483	4.448	3.972	3.673	3.133	3.273	3.070	2.974	2.639	2.561	2.478	2.035	1.935	1.755	1.472	1.614	1.591	2.002	1.933	1.458	1.218	1.163	1.210	1.088	1.080	0.949	1.306	1.228	1.133	0.803	0.898	0.924	0.717	0.714	1.344	3.311	6.247	25.74	89.42
605.0	69.15	71.64	67.51	47.61	37.20	32.28	39.31	40.21	51.74	62.76	104.6	97.75	64.33	49.19	43.51	200.7	827.7	73.04	9.907	8.076	7.848	6.698	7.530	6.722	6.304	6.326	6.706	5.730	6.049	6.214	6.023	5.321	5.188	5.179	4.922	4.482	4.311	4.067	3.830	3.541	3.410	3.033	2.797	2.955	2.586	2.541	2.263	2.238	2.047	1.794	1.636	1.518	1.352	1.295	1.317	1.580	1.716	1.546	1.207	1.063	0.882	1.001	0.945	0.996	1.025	1.248	1.147	0.877	0.845	0.753	0.766	0.703	0.712	1.142	1.755	6.207	32.29
610.0	71.13	79.53	69.14	48.37	37.29	35.41	40.68	47.96	61.24	76.03	99.75	132.9	89.15	64.01	50.26	75.42	503.0	457.6	19.54	6.799	6.254	5.948	5.917	5.439	5.200	5.060	5.307	4.854	4.971	5.086	4.680	4.569	4.224	4.107	3.924	3.714	3.580	3.337	3.147	2.895	2.801	2.572	2.461	2.374	2.177	2.118	1.901	1.903	1.742	1.500	1.414	1.391	1.126	1.134	1.128	1.235	1.460	1.448	1.341	1.032	0.927	0.921	0.846	0.910	0.983	1.135	1.104	1.104	0.912	0.819	0.721	0.635	0.690	0.800	0.779	1.725	7.729
615.0	74.74	72.75	66.47	51.77	39.82	38.03	41.32	48.72	61.60	76.84	95.40	130.3	113.7	71.04	54.06	46.56	158.0	629.4	77.65	5.862	5.264	4.563	4.778	4.508	3.990	4.193	4.311	4.028	4.118	4.119	3.756	3.830	3.607	3.323	3.408	3.135	3.063	2.706	2.566	2.337	2.258	1.889	2.028	1.912	1.750	1.523	1.609	1.449	1.464	1.243	1.143	1.137	0.935	0.980	0.978	1.054	1.062	1.246	1.194	1.010	0.877	0.774	0.767	0.821	0.854	0.850	0.961	1.032	1.047	0.955	0.676	0.685	0.650	0.661	0.596	0.781	2.065
620.0	82.44	68.60	63.31	47.29	39.53	37.73	40.12	51.03	58.00	76.63	88.09	111.9	120.9	74.61	54.33	39.84	62.23	404.9	377.1	9.267	4.793	4.086	3.875	3.740	3.369	3.583	3.422	3.577	3.288	3.489	3.259	3.215	3.189	2.829	2.616	2.621	2.473	2.342	2.215	2.164	1.830	1.729	1.558	1.620	1.414	1.358	1.314	1.356	1.228	1.023	1.043	0.991	0.831	0.833	0.811	0.913	0.826	0.914	1.180	0.932	0.943	0.863	0.695	0.826	0.779	0.793	0.858	0.941	1.059	0.972	0.782	0.670	0.701	0.673	0.548	0.560	0.882
625.0	70.91	72.16	61.56	43.34	35.11	37.92	42.76	47.79	57.13	72.20	83.37	102.0	120.7	78.20	55.27	37.81	38.92	157.5	566.2	44.61	3.973	3.613	3.672	3.348	2.999	3.007	2.764	3.104	2.883	3.029	2.964	2.626	2.512	2.440	2.280	2.529	2.066	2.248	2.050	1.812	1.520	1.547	1.432	1.378	1.256	1.287	1.115	1.132	1.023	0.974	0.797	0.872	0.804	0.757	0.657	0.760	0.821	0.815	0.967	0.941	0.903	0.786	0.674	0.806	0.751	0.772	0.883	0.853	0.913	1.157	0.872	0.714	0.676	0.646	0.520	0.533	0.563
630.0	65.79	77.99	66.55	52.14	34.59	35.26	40.77	49.22	54.56	68.69	79.31	93.22	106.7	88.59	55.45	38.08	33.78	52.00	367.1	290.9	8.848	3.367	3.048	2.814	2.689	2.501	2.358	2.475	2.178	2.357	2.276	2.280	2.044	2.045	1.863	1.978	1.892	1.811	1.644	1.498	1.384	1.289	1.176	1.147	1.084	1.091	0.956	0.885	0.917	0.835	0.694	0.726	0.718	0.656	0.618	0.684	0.723	0.670	0.798	0.849	0.832	0.717	0.685	0.758	0.643	0.705	0.804	0.804	0.809	0.823	0.884	0.749	0.615	0.555	0.492	0.486	0.542
635.0	78.65	67.39	66.06	47.64	35.82	35.65	39.29	46.17	53.51	64.59	79.38	88.98	92.66	96.13	60.57	38.33	32.93	26.25	104.1	444.8	58.40	3.063	2.477	2.407	2.291	1.903	2.063	1.911	1.895	2.028	1.736	1.863	1.620	1.760	1.479	1.652	1.533	1.440	1.244	1.151	1.195	0.931	0.887	0.842	0.968	0.966	0.764	0.836	0.724	0.696	0.582	0.660	0.556	0.574	0.516	0.644	0.606	0.596	0.679	0.649	0.701	0.805	0.705	0.611	0.619	0.644	0.706	0.758	0.698	0.753	0.767	0.759	0.689	0.613	0.493	0.407	0.456
640.0	68.85	70.51	64.82	49.99	35.16	34.33	41.27	45.96	52.43	63.08	77.90	84.83	87.17	91.71	67.66	38.86	31.18	20.63	29.93	313.0	251.6	4.817	2.484	1.920	1.969	1.683	1.813	1.670	1.484	1.604	1.434	1.740	1.587	1.422	1.519	1.373	1.372	1.228	1.291	1.070	1.058	0.950	0.813	0.833	0.747	0.861	0.689	0.771	0.652	0.674	0.473	0.571	0.498	0.507	0.497	0.562	0.488	0.581	0.611	0.592	0.625	0.645	0.689	0.686	0.605	0.704	0.785	0.641	0.623	0.632	0.634	0.700	0.604	0.557	0.526	0.533	0.421
645.0	63.90	76.78	64.37	49.55	35.43	34.33	39.17	44.60	49.54	60.33	72.38	81.62	81.68	82.24	73.44	39.72	32.15	19.75	13.03	123.3	403.6	28.02	2.108	1.732	1.927	1.501	1.462	1.544	1.515	1.445	1.354	1.362	1.394	1.320	1.299	1.205	1.220	1.121	1.219	0.946	0.963	0.976	0.753	0.849	0.763	0.738	0.637	0.637	0.573	0.528	0.542	0.473	0.465	0.511	0.499	0.497	0.427	0.508	0.547	0.539	0.553	0.614	0.682	0.623	0.592	0.783	0.751	0.588	0.620	0.643	0.575	0.617	0.662	0.696	0.578	0.520	0.351
650.0	69.34	74.41	65.22	50.27	37.07	31.19	37.16	45.58	48.98	57.03	68.11	77.19	77.61	73.66	75.65	40.79	30.31	19.29	9.842	35.74	364.4	129.7	2.423	1.692	1.549	1.406	1.370	1.289	1.484	1.336	1.247	1.199	1.308	1.194	1.178	1.146	1.168	1.018	1.036	0.921	0.805	0.868	0.707	0.736	0.708	0.622	0.615	0.629	0.557	0.533	0.463	0.434	0.511	0.464	0.415	0.353	0.445	0.478	0.511	0.495	0.453	0.512	0.599	0.632	0.654	0.658	0.526	0.644	0.567	0.649	0.510	0.545	0.568	0.756	0.604	0.389	0.452
