Sample:	'1
File name:	J2025051401兴济河汇入口.FD3
Run date:	'15:47:00, 05/15/2025
Operator:	Administrator
Comment:	'

Instrument
Model:	F-2700 FL Spectrophotometer
Serial number:	23B8-004
ROM Version:	4J14000 07

Instrument parameters
Measurement type:	3-D scan
Data mode:	Fluorescence
EX  Start WL:	220.0 nm
EX  End WL:	600.0 nm
EX Sampling interval:	5.0 nm
EM  Start WL:	230.0 nm
EM  End WL:	650.0 nm
EM Sampling interval:	5.0 nm
Scan speed:	12000 nm/min
EX Slit:	5.0 nm
EM Slit:	5.0 nm
PMT Voltage:	700 V
Response:	Auto 
Corrected spectra:	Off
Contour interval:	50.000

Peak integration
Integration method:	Rectangular
Sensitivity:	1
Threshold:	1.000

Peaks
No.	ApexEX/EM(nm)	Height(Data)
1	225.0/305.0	451.7
2	225.0/555.0	61.94
3	225.0/565.0	60.90
4	225.0/585.0	58.21
5	230.0/340.0	1647
6	230.0/570.0	57.44
7	235.0/510.0	259.0
8	240.0/265.0	384.5
9	240.0/525.0	230.3
10	245.0/270.0	387.5
11	245.0/535.0	193.2
12	245.0/635.0	17.80
13	250.0/275.0	501.3
14	250.0/550.0	151.0
15	255.0/280.0	553.9
16	255.0/565.0	132.3
17	260.0/290.0	541.1
18	260.0/575.0	111.6
19	265.0/295.0	715.4
20	265.0/585.0	97.84
21	270.0/300.0	982.6
22	270.0/415.0	1166
23	270.0/435.0	1083
24	270.0/600.0	92.32
25	275.0/305.0	990.9
26	275.0/340.0	915.1
27	275.0/610.0	76.90
28	280.0/315.0	871.3
29	280.0/625.0	64.48
30	285.0/320.0	927.9
31	285.0/640.0	49.09
32	290.0/325.0	860.2
33	305.0/345.0	594.0
34	320.0/365.0	422.4
35	330.0/375.0	382.6
36	330.0/415.0	588.5
37	335.0/385.0	376.1
38	360.0/415.0	548.5
39	360.0/435.0	525.6
40	405.0/470.0	84.17
41	455.0/540.0	11.29
42	460.0/340.0	4.573
43	485.0/265.0	2.009
44	505.0/275.0	3.040
45	505.0/420.0	4.057
46	510.0/280.0	3.448
47	520.0/285.0	3.410
48	530.0/290.0	3.269
49	540.0/295.0	4.431
50	545.0/300.0	5.351
51	550.0/305.0	5.508
52	560.0/310.0	4.959
53	565.0/340.0	4.534
54	570.0/315.0	4.931
55	575.0/320.0	4.991
56	585.0/325.0	4.986

Data points
	220.0	225.0	230.0	235.0	240.0	245.0	250.0	255.0	260.0	265.0	270.0	275.0	280.0	285.0	290.0	295.0	300.0	305.0	310.0	315.0	320.0	325.0	330.0	335.0	340.0	345.0	350.0	355.0	360.0	365.0	370.0	375.0	380.0	385.0	390.0	395.0	400.0	405.0	410.0	415.0	420.0	425.0	430.0	435.0	440.0	445.0	450.0	455.0	460.0	465.0	470.0	475.0	480.0	485.0	490.0	495.0	500.0	505.0	510.0	515.0	520.0	525.0	530.0	535.0	540.0	545.0	550.0	555.0	560.0	565.0	570.0	575.0	580.0	585.0	590.0	595.0	600.0
230.0	42.09	573.3	1886	700.8	35.71	5.928	5.043	4.215	3.701	3.421	4.352	3.852	2.976	2.463	1.836	1.502	1.229	1.018	1.077	0.898	0.896	0.867	1.167	0.927	0.745	0.605	0.570	0.535	0.776	0.676	0.525	0.495	0.444	0.389	0.359	0.380	0.424	0.384	0.397	0.450	0.386	0.382	0.410	0.316	0.314	0.314	0.633	2.616	5.383	4.528	2.106	0.488	0.239	0.212	0.227	0.219	0.240	0.284	0.249	0.234	0.217	0.221	0.222	0.255	0.222	0.280	0.262	0.229	0.239	0.245	0.230	0.235	0.230	0.232	0.228	0.241	0.241
235.0	82.38	176.1	1072	2143	565.8	48.40	5.973	5.160	4.699	3.702	4.481	4.373	3.115	2.376	1.974	1.506	1.223	1.171	1.126	0.938	0.938	0.824	1.195	0.933	0.752	0.567	0.602	0.659	0.806	0.662	0.611	0.456	0.411	0.439	0.445	0.354	0.391	0.402	0.383	0.468	0.405	0.347	0.406	0.459	0.453	0.385	0.392	0.837	2.103	4.261	6.354	7.459	3.402	0.824	0.267	0.254	0.238	0.307	0.213	0.246	0.246	0.209	0.207	0.208	0.206	0.289	0.238	0.212	0.234	0.215	0.261	0.244	0.236	0.232	0.225	0.231	0.260
240.0	121.8	132.1	322.2	1718	2415	448.8	27.25	6.009	4.727	4.179	5.022	4.128	3.263	2.747	1.760	1.487	1.388	1.341	1.193	0.940	0.994	0.748	1.166	1.058	0.780	0.549	0.605	0.562	0.768	0.614	0.555	0.429	0.466	0.400	0.421	0.373	0.417	0.400	0.425	0.455	0.366	0.326	0.360	0.398	0.464	0.574	0.485	0.486	0.656	1.311	3.371	8.796	10.99	7.995	2.800	0.608	0.303	0.276	0.258	0.201	0.221	0.252	0.260	0.223	0.217	0.265	0.239	0.226	0.223	0.261	0.245	0.235	0.251	0.230	0.208	0.264	0.209
245.0	101.3	189.0	139.0	565.9	2458	2515	321.3	11.42	5.251	5.409	6.073	5.477	3.666	3.260	1.924	1.677	1.482	1.240	1.316	0.908	0.890	0.879	1.442	1.039	0.765	0.650	0.633	0.629	0.841	0.632	0.558	0.538	0.434	0.347	0.364	0.402	0.403	0.412	0.347	0.432	0.430	0.343	0.347	0.378	0.409	0.575	0.742	0.699	0.481	0.467	0.973	2.905	7.312	12.85	12.55	7.296	1.985	0.491	0.275	0.251	0.259	0.269	0.245	0.234	0.239	0.255	0.238	0.218	0.231	0.225	0.232	0.229	0.245	0.253	0.248	0.274	0.210
250.0	45.65	144.2	232.5	224.1	765.2	2328	3033	1068	59.70	6.878	7.773	6.877	4.386	3.149	2.232	1.750	1.494	1.298	1.168	0.960	0.931	0.867	1.270	1.078	0.862	0.695	0.581	0.695	0.820	0.627	0.575	0.519	0.424	0.464	0.395	0.348	0.374	0.393	0.392	0.467	0.439	0.324	0.363	0.316	0.316	0.425	0.482	0.697	0.874	0.752	0.706	0.960	1.926	4.125	7.616	11.77	15.60	20.48	10.40	2.153	0.413	0.303	0.265	0.276	0.238	0.282	0.244	0.221	0.250	0.254	0.220	0.247	0.252	0.253	0.265	0.261	0.275
255.0	39.95	53.00	172.4	328.1	260.1	593.3	2282	4607	1438	53.96	11.97	8.573	5.513	3.930	2.353	2.141	1.580	1.468	1.180	1.048	0.900	0.901	1.274	1.096	0.994	0.914	0.633	0.679	0.759	0.710	0.546	0.575	0.475	0.415	0.368	0.375	0.381	0.407	0.412	0.480	0.448	0.345	0.315	0.327	0.328	0.347	0.376	0.383	0.470	0.891	1.398	1.355	0.895	1.138	1.960	2.968	5.737	22.84	33.78	23.96	11.15	2.208	0.381	0.252	0.252	0.315	0.253	0.258	0.288	0.251	0.247	0.265	0.235	0.269	0.296	0.252	0.291
260.0	34.31	32.15	68.90	281.8	323.3	189.1	694.8	3789	5119	269.3	45.57	10.49	7.320	4.254	3.315	2.322	1.808	1.505	1.425	1.140	1.304	0.891	1.360	1.168	1.024	0.725	0.727	0.786	0.818	0.632	0.563	0.588	0.559	0.441	0.383	0.392	0.341	0.408	0.401	0.478	0.401	0.336	0.312	0.374	0.336	0.334	0.324	0.300	0.319	0.427	0.805	1.624	1.597	1.007	0.814	0.921	1.544	6.184	15.21	22.85	30.60	22.69	8.701	1.103	0.284	0.356	0.269	0.243	0.256	0.311	0.237	0.253	0.236	0.251	0.317	0.273	0.262
265.0	38.21	27.35	30.61	131.0	384.5	241.8	192.7	1268	5448	4873	236.1	20.06	9.577	5.800	3.367	2.331	1.850	1.546	1.594	1.200	1.259	0.924	1.464	1.261	1.008	0.769	0.726	0.837	0.987	0.890	0.595	0.566	0.519	0.465	0.424	0.462	0.374	0.361	0.414	0.566	0.432	0.383	0.424	0.397	0.327	0.349	0.291	0.275	0.303	0.261	0.413	0.856	1.635	2.009	1.289	0.634	0.619	1.741	3.818	6.702	16.93	31.89	31.94	19.77	4.787	0.714	0.343	0.342	0.223	0.302	0.270	0.258	0.209	0.224	0.287	0.278	0.223
270.0	51.62	43.29	37.68	52.90	192.4	387.5	271.0	332.4	1769	5288	9999.9	865.3	55.47	8.829	4.741	3.238	2.445	1.971	1.694	1.353	1.135	1.135	1.623	1.376	1.022	0.840	0.736	0.776	1.002	0.940	0.640	0.631	0.536	0.514	0.465	0.492	0.447	0.461	0.525	0.591	0.453	0.356	0.440	0.372	0.400	0.402	0.379	0.335	0.334	0.293	0.288	0.423	0.712	1.231	1.797	1.768	1.644	1.164	1.215	1.826	4.265	9.429	17.20	27.94	30.47	30.12	13.43	4.296	0.560	0.335	0.304	0.296	0.299	0.302	0.304	0.290	0.249
275.0	101.2	104.8	94.45	58.52	73.78	189.6	501.3	306.7	443.5	1354	9999.9	9999.9	1188	39.57	6.585	4.345	3.325	2.413	2.021	1.573	1.273	1.170	1.911	1.591	1.139	0.857	0.796	0.873	1.219	0.802	0.586	0.601	0.636	0.632	0.654	0.514	0.516	0.461	0.569	0.647	0.513	0.421	0.426	0.480	0.498	0.533	0.439	0.502	0.398	0.384	0.360	0.355	0.430	0.560	0.722	1.001	2.354	3.040	2.331	0.968	1.281	2.541	4.261	6.862	10.01	23.18	42.98	32.57	20.80	4.027	0.407	0.372	0.301	0.313	0.334	0.301	0.265
280.0	157.1	192.4	167.7	89.23	52.53	82.14	331.8	553.9	240.2	372.2	3086	9999.9	9999.9	151.5	12.71	5.626	4.059	2.666	2.405	1.901	1.671	1.313	1.905	1.620	1.207	0.842	0.757	0.811	1.192	0.900	0.722	0.680	0.610	0.688	0.744	0.632	0.605	0.557	0.552	0.730	0.508	0.441	0.438	0.534	0.561	0.605	0.636	0.676	0.515	0.471	0.452	0.374	0.435	0.410	0.502	0.541	1.049	2.349	3.448	2.497	1.208	1.060	1.453	2.127	2.792	6.188	15.63	33.29	52.58	30.83	14.71	1.863	0.425	0.322	0.307	0.320	0.298
285.0	202.6	252.4	224.6	125.3	60.90	57.43	149.6	531.1	353.0	201.8	811.5	3716	9999.9	7486	102.1	7.872	5.053	3.534	2.858	2.271	1.643	1.420	2.335	1.934	1.195	0.975	0.858	0.804	1.381	0.921	0.764	0.796	0.745	0.778	0.703	0.667	0.695	0.583	0.635	0.800	0.542	0.487	0.456	0.511	0.692	0.764	0.758	0.885	0.792	0.656	0.528	0.631	0.467	0.471	0.376	0.467	0.630	1.060	2.016	3.394	3.410	1.834	1.035	1.054	1.303	2.201	4.145	9.367	22.63	42.23	54.25	26.86	8.378	0.901	0.336	0.358	0.335
290.0	258.9	333.0	308.1	174.5	91.87	69.59	96.88	246.5	541.1	491.2	365.1	1001	3575	9999.9	6036	409.6	19.06	4.658	3.470	2.511	1.918	1.665	2.646	1.957	1.441	0.977	0.901	0.997	1.384	1.058	0.796	0.693	0.749	0.760	0.767	0.700	0.672	0.658	0.743	0.870	0.601	0.575	0.621	0.655	0.690	0.811	1.023	1.138	1.016	0.825	0.636	0.637	0.549	0.491	0.482	0.494	0.585	0.739	1.029	1.526	2.406	3.194	3.269	2.538	1.558	1.497	1.802	2.980	5.921	11.58	21.70	31.19	31.85	35.85	17.50	7.048	1.047
295.0	322.4	397.5	381.4	223.0	122.8	100.1	108.7	163.9	304.4	715.4	682.3	477.7	981.9	2497	5048	6292	543.5	13.57	4.858	3.385	2.461	2.200	3.158	2.286	1.416	1.139	1.007	1.104	1.530	1.153	0.811	0.804	0.660	0.837	0.823	0.789	0.718	0.689	0.857	1.055	0.667	0.518	0.584	0.761	0.746	0.929	1.098	1.258	1.251	0.955	0.725	0.804	0.662	0.565	0.569	0.629	0.712	0.771	0.840	1.044	1.317	1.573	2.440	4.178	4.431	3.118	1.631	1.807	2.447	3.620	5.688	7.897	8.937	19.53	38.28	49.77	27.58
300.0	341.2	416.5	416.3	264.1	147.6	130.0	147.7	184.8	263.8	506.1	982.6	584.6	464.8	725.8	1491	6082	5091	81.82	7.605	4.377	2.864	2.512	3.837	2.843	1.838	1.182	1.082	1.195	1.539	1.309	0.955	0.776	0.713	0.913	0.811	0.901	0.737	0.718	0.839	1.014	0.629	0.658	0.654	0.741	0.820	0.972	1.086	1.361	1.235	1.068	0.943	0.904	0.779	0.703	0.730	0.704	0.856	0.970	0.970	1.054	1.247	1.442	1.758	2.561	4.267	5.351	3.779	2.372	1.869	2.066	2.395	2.710	2.783	5.291	11.78	28.91	48.82
305.0	346.0	451.7	428.7	284.0	184.6	162.0	184.7	238.1	298.5	426.9	833.7	990.9	478.1	380.8	468.7	1998	6715	3740	58.85	6.290	4.204	3.097	4.056	3.029	1.835	1.243	1.213	1.191	1.631	1.257	0.937	0.738	0.682	0.902	0.856	0.896	0.847	0.754	1.034	0.982	0.649	0.603	0.728	0.679	0.848	1.071	1.117	1.423	1.258	1.153	0.968	0.954	0.899	0.764	0.906	0.795	0.957	1.058	1.205	1.257	1.427	1.795	1.759	2.139	2.825	4.486	5.508	4.938	3.266	2.039	1.887	1.899	1.608	2.152	3.449	7.606	17.30
310.0	347.2	451.0	438.9	315.3	213.9	194.9	235.1	281.9	345.1	438.2	616.2	926.5	857.4	436.5	286.5	552.5	2124	4678	4021	278.2	13.18	4.341	5.829	3.914	2.233	1.498	1.273	1.414	1.897	1.416	0.916	0.834	0.731	0.776	0.861	0.866	0.771	0.791	0.977	1.098	0.697	0.636	0.684	0.763	0.845	1.117	1.123	1.367	1.324	1.141	1.033	1.113	0.923	0.996	0.966	0.966	1.157	1.289	1.361	1.483	1.593	1.806	1.938	2.170	2.489	2.989	3.438	4.369	4.959	4.196	3.378	2.283	1.699	1.673	1.822	2.515	4.632
315.0	327.0	448.7	466.6	330.2	246.2	234.0	270.0	326.2	391.0	483.0	594.1	694.3	871.3	800.0	348.0	270.9	571.4	1181	3499	4361	392.6	9.852	8.703	5.171	2.927	1.874	1.375	1.556	2.072	1.522	1.052	0.846	0.807	0.831	0.817	0.797	0.844	0.830	1.011	1.057	0.769	0.664	0.788	0.913	0.858	0.958	1.309	1.423	1.478	1.171	1.122	1.214	1.125	1.177	0.907	1.081	1.296	1.478	1.702	1.705	1.833	2.061	2.031	2.359	2.514	2.640	2.791	3.185	3.337	4.003	4.931	4.574	2.932	2.035	1.550	1.676	1.919
320.0	378.7	597.5	639.9	426.0	296.4	279.1	307.2	360.8	449.4	536.3	638.6	701.5	747.5	927.9	594.7	276.8	279.8	362.0	1034	4329	3673	61.68	14.30	6.888	3.250	2.044	1.569	1.734	2.482	1.587	1.113	0.817	0.860	0.807	0.833	0.903	0.856	0.735	0.944	1.152	0.837	0.751	0.784	0.858	1.087	1.339	1.478	1.809	1.915	1.566	1.399	1.352	1.216	1.217	1.227	1.294	1.523	1.688	1.837	1.677	2.077	2.147	2.366	2.494	2.708	2.976	2.874	3.273	3.238	3.383	3.956	4.991	4.865	3.705	2.364	1.791	1.695
325.0	511.5	838.5	999.1	634.1	365.6	325.1	350.2	410.3	500.5	615.6	711.6	779.4	764.7	819.6	860.2	420.7	258.6	216.4	321.4	1455	4759	2982	59.11	9.695	4.195	2.304	1.865	2.014	2.611	1.638	1.130	0.908	0.960	0.884	0.961	0.836	0.925	0.767	0.913	1.186	0.866	0.855	0.834	0.949	1.241	1.685	1.920	2.783	2.765	2.455	1.727	1.699	1.433	1.288	1.412	1.393	1.688	1.865	1.982	1.955	2.301	2.473	2.655	2.782	3.181	3.423	3.218	3.664	3.532	3.559	3.544	4.087	4.602	4.986	4.070	2.812	2.156
330.0	637.6	1070	1279	851.9	490.7	392.8	401.1	453.2	549.7	658.5	782.0	848.3	817.6	765.6	770.0	675.2	385.6	226.6	191.8	412.6	1535	4034	8215	1145	13.74	3.042	2.439	2.476	3.160	2.191	1.252	1.096	0.892	0.844	0.969	0.820	0.897	0.788	1.038	1.181	0.852	0.801	0.843	0.939	1.236	1.929	2.393	3.279	3.778	3.090	2.377	2.305	1.903	1.652	1.702	1.646	1.804	1.933	2.086	2.090	2.348	2.677	2.919	3.226	3.484	3.615	3.633	3.789	3.831	3.912	3.803	3.913	3.875	4.012	4.423	4.228	3.697
335.0	665.0	1215	1497	1016	616.5	467.8	451.7	500.1	590.3	702.4	839.0	900.4	877.1	801.5	704.3	647.8	636.5	341.3	205.1	211.2	415.0	1020	7392	9999.9	357.9	7.779	3.099	3.102	3.802	2.655	1.306	1.175	0.941	0.878	0.983	0.833	0.816	0.843	1.086	1.310	0.950	0.752	0.923	1.175	1.325	2.028	2.685	3.609	4.188	3.546	2.856	2.670	2.254	2.116	1.927	1.886	2.089	2.163	2.147	2.505	2.541	2.809	3.075	3.279	3.556	3.653	3.810	3.863	4.170	4.234	4.255	3.955	4.016	3.828	3.700	3.790	4.153
340.0	732.2	1284	1647	1146	694.4	539.0	499.0	536.9	620.9	738.7	850.4	915.1	904.9	834.2	717.2	600.2	651.1	516.0	256.1	189.1	185.2	285.8	2042	9190	3462	52.11	5.253	3.797	4.693	2.821	1.492	1.412	1.047	1.068	1.007	0.890	0.786	0.975	1.076	1.225	0.925	0.771	1.030	1.222	1.446	2.305	2.922	3.843	4.573	4.249	3.258	3.093	2.450	2.295	2.104	2.115	2.201	2.433	2.277	2.565	2.617	2.845	3.123	3.291	3.736	3.848	3.819	3.775	4.069	4.534	4.413	4.191	3.939	4.105	3.712	3.643	3.490
345.0	720.9	1282	1621	1178	755.6	586.8	535.7	545.9	638.2	747.4	837.0	897.7	903.0	824.0	715.7	587.1	552.8	594.0	367.4	208.3	152.2	135.2	512.2	2910	5856	2371	41.76	5.460	5.821	3.589	1.804	1.581	1.236	1.062	0.945	0.941	0.826	0.844	0.999	1.104	0.828	0.854	1.063	1.199	1.463	2.262	2.815	3.690	4.300	4.067	3.343	3.160	2.688	2.452	2.179	2.201	2.371	2.653	2.412	2.468	2.673	2.840	3.048	3.390	3.442	3.943	4.045	3.788	4.034	4.269	4.212	4.186	4.350	3.765	3.585	3.438	3.620
350.0	665.3	1147	1478	1150	798.6	635.2	573.7	568.7	632.3	723.8	809.0	862.7	867.4	811.0	710.4	591.6	509.2	488.2	479.7	320.8	179.1	130.8	188.2	707.2	1810	2673	2406	219.0	16.53	4.575	1.977	1.613	1.244	1.141	1.024	0.835	0.910	0.858	1.085	1.166	0.823	0.889	0.975	1.112	1.297	1.899	2.474	3.370	3.827	3.630	3.167	3.161	2.886	2.754	2.390	2.331	2.499	2.509	2.622	2.503	2.791	2.839	3.136	3.355	3.271	3.792	3.612	3.604	4.045	4.150	4.108	3.843	4.022	3.901	3.748	3.573	3.370
355.0	596.5	1012	1349	1091	814.1	690.4	622.2	609.7	657.6	717.2	786.4	832.3	834.6	791.0	708.2	605.1	518.3	452.7	425.9	445.4	280.6	164.9	145.2	236.2	453.9	667.5	1976	5169	383.4	13.73	2.671	1.814	1.364	1.336	1.014	0.866	0.882	0.964	1.134	1.184	0.875	0.766	0.883	1.045	1.258	1.690	2.447	3.078	3.445	3.471	3.185	3.279	3.054	2.894	2.586	2.554	2.696	2.583	2.846	2.639	2.900	3.013	3.128	3.357	3.315	3.623	3.737	3.579	3.752	3.944	3.983	3.939	4.033	3.945	3.814	3.730	3.466
360.0	530.7	949.5	1236	1061	838.6	725.3	661.2	642.7	662.1	723.6	775.6	807.6	800.1	776.1	698.6	611.1	529.1	459.4	400.7	422.4	393.1	223.4	158.5	150.5	170.3	193.2	564.8	4134	8074	300.6	4.789	2.313	1.766	1.330	1.150	0.881	0.922	0.938	1.195	1.301	0.844	0.749	0.842	0.970	1.270	1.833	2.243	2.774	3.285	3.121	2.957	3.257	2.905	2.994	2.935	2.708	2.668	2.679	2.816	2.742	2.851	2.875	3.094	3.443	3.451	3.532	3.536	3.664	3.593	4.010	3.950	3.727	3.853	3.955	3.591	3.621	3.455
365.0	505.4	898.0	1132	1031	853.1	746.7	690.4	663.9	684.9	733.7	766.6	777.4	788.3	748.6	685.7	611.7	539.2	478.1	410.3	383.8	422.4	324.6	194.7	150.9	125.2	101.8	166.1	1222	8923	3089	43.42	3.641	2.147	1.559	1.179	1.068	0.911	0.914	1.284	1.363	0.840	0.812	0.894	0.968	1.075	1.697	1.985	2.543	3.011	2.909	2.892	3.430	3.018	3.279	2.943	2.957	2.757	2.780	3.002	2.783	2.933	3.216	3.240	3.312	3.042	3.241	3.341	3.608	3.693	3.808	3.700	3.833	3.996	3.813	3.625	3.458	3.325
370.0	469.8	789.6	1043	986.9	862.8	768.3	707.6	677.5	689.3	725.9	755.6	760.3	753.2	721.6	672.7	609.3	551.2	496.3	437.8	393.3	376.8	388.7	308.0	198.2	146.4	108.0	95.61	315.7	2617	4529	2309	196.1	11.80	2.189	1.612	1.260	1.034	0.906	1.382	1.417	0.827	0.831	0.849	0.936	1.112	1.456	1.826	2.200	2.725	2.671	2.656	3.303	3.077	3.102	2.914	2.891	2.828	3.046	3.000	2.880	2.858	3.131	3.172	3.226	3.276	3.193	3.540	3.392	3.590	3.733	3.457	3.554	3.722	3.602	3.591	3.493	3.580
375.0	447.4	742.3	927.4	927.4	849.4	794.9	724.1	688.7	712.1	727.2	751.0	745.1	724.9	703.5	655.0	609.2	562.0	507.8	461.5	416.3	377.0	362.5	382.6	301.1	189.5	137.4	105.6	130.6	626.1	1091	1664	2638	303.3	11.07	2.228	1.497	1.219	1.025	1.485	1.687	0.962	0.856	0.817	0.969	1.183	1.449	1.725	2.097	2.582	2.571	2.615	3.200	2.987	3.220	2.904	2.965	2.998	3.139	2.747	2.893	2.934	3.140	2.877	3.220	3.240	3.212	3.253	3.390	3.466	3.305	3.535	3.412	3.655	3.633	3.555	3.368	3.666
380.0	421.7	656.4	869.6	890.6	858.3	794.4	725.5	687.3	707.7	712.4	731.7	734.6	715.9	687.3	644.4	598.3	563.7	518.0	475.2	430.5	391.5	357.2	369.1	375.5	246.4	165.9	124.3	103.4	195.1	282.5	461.2	2013	2298	231.9	4.916	1.759	1.336	1.107	1.712	1.735	0.982	0.815	0.820	0.957	1.092	1.479	1.608	2.160	2.405	2.302	2.410	2.874	2.938	3.241	3.003	3.014	3.166	3.105	2.868	2.966	2.934	3.179	3.021	3.288	3.138	3.403	3.167	3.369	3.294	3.232	3.460	3.307	3.441	3.579	3.511	3.411	3.524
385.0	421.2	593.5	830.8	867.7	834.9	799.1	735.4	694.4	694.9	710.0	719.2	723.4	698.9	665.1	622.8	581.9	553.7	516.6	484.0	446.0	406.0	369.4	352.5	376.1	326.6	204.9	148.9	116.4	113.9	111.0	136.4	597.5	2186	1830	37.88	2.885	1.623	1.457	1.955	1.891	1.083	0.713	0.905	0.870	1.001	1.452	1.601	1.981	2.119	2.254	2.348	2.961	2.953	3.008	2.899	3.045	2.970	3.036	2.984	2.816	2.857	3.054	2.966	3.184	3.131	3.280	3.172	3.327	2.926	3.421	3.408	3.555	3.327	3.570	3.457	3.279	3.370
390.0	405.4	583.8	771.5	845.5	822.4	791.3	732.9	694.0	696.9	699.0	715.8	705.2	673.6	650.3	603.6	567.2	542.2	512.7	486.1	454.5	419.9	392.6	366.9	351.2	350.0	293.9	197.0	149.9	125.9	99.13	78.38	165.0	628.8	1546	1628	159.0	11.26	2.259	2.819	2.322	1.129	0.886	0.980	0.871	1.058	1.421	1.516	1.886	2.075	2.034	2.264	2.879	2.821	3.002	2.980	2.883	3.031	3.289	3.116	2.778	2.964	2.948	3.001	3.101	3.052	3.088	3.228	3.138	3.133	3.363	3.216	3.392	3.287	3.524	3.344	3.322	3.460
395.0	400.7	581.3	716.1	795.1	802.2	779.7	718.9	691.0	682.0	693.1	748.5	712.0	670.5	633.9	585.3	549.5	525.3	497.0	482.8	457.4	428.1	412.0	401.0	370.4	338.8	330.5	285.4	207.2	173.6	137.1	89.81	81.54	172.0	376.2	988.5	1854	268.7	13.71	5.294	3.641	1.387	1.066	0.979	0.866	1.076	1.467	1.513	1.783	1.961	1.971	2.244	2.685	2.815	3.037	2.906	3.017	3.126	3.285	3.258	2.881	3.104	2.836	2.942	2.792	2.745	3.077	2.998	2.908	2.970	3.047	2.926	3.149	3.246	3.220	3.168	3.209	3.189
400.0	374.2	564.5	694.4	766.5	795.7	773.5	717.0	685.7	668.0	693.0	817.7	759.1	694.0	642.7	577.8	536.7	508.1	486.5	472.3	453.2	430.9	428.1	442.1	411.1	355.0	321.4	327.8	289.0	238.9	192.5	112.4	79.98	78.78	111.3	266.0	1223	1694	229.0	15.88	5.160	1.765	1.067	1.018	0.890	1.085	1.522	1.509	1.684	1.930	1.872	2.125	2.682	2.648	2.993	2.772	3.041	3.112	3.492	3.006	2.814	2.918	2.936	2.970	2.977	2.887	3.097	2.968	2.843	2.919	3.064	2.949	3.013	2.905	3.204	3.145	3.089	3.138
405.0	344.8	542.7	690.0	747.2	770.4	751.2	715.0	683.5	662.2	719.2	944.8	840.0	737.0	657.9	576.9	520.1	495.3	480.8	461.2	445.5	422.6	444.2	496.4	459.2	388.3	322.5	321.9	383.3	341.4	264.4	142.6	92.74	70.32	59.45	82.80	339.7	1353	1793	230.7	9.602	2.135	1.185	0.969	0.966	1.100	1.376	1.332	1.655	1.973	1.907	1.983	2.584	2.590	2.816	2.875	2.560	3.214	3.521	3.411	2.863	2.817	2.899	3.051	2.936	3.114	3.061	2.871	2.860	2.766	2.713	2.703	2.878	2.964	2.978	2.970	2.960	3.281
410.0	351.0	502.6	644.4	727.3	731.3	721.1	699.9	665.6	649.2	750.8	1103	952.3	788.0	679.6	560.4	495.6	472.1	457.3	442.7	429.6	416.4	455.9	563.1	516.3	422.5	333.4	311.0	442.4	494.9	382.3	182.9	112.5	82.92	59.55	50.15	97.92	369.1	1248	3636	1006	12.98	1.510	1.236	1.089	1.086	1.423	1.636	1.639	1.830	1.714	1.993	2.472	2.508	2.665	2.819	2.594	3.130	3.821	3.455	2.842	2.926	2.805	2.876	2.960	2.960	3.138	2.845	2.735	2.826	2.964	2.733	2.851	2.973	2.931	2.949	2.976	3.160
415.0	337.6	485.5	617.7	699.3	698.0	704.1	677.3	653.2	635.0	750.2	1166	994.9	796.3	667.4	532.5	471.5	444.5	430.0	415.9	410.5	401.9	453.9	588.5	535.6	432.0	338.3	308.5	447.9	548.5	477.9	222.7	131.0	96.15	68.61	50.33	49.61	101.6	313.4	2069	5293	259.8	12.82	1.558	1.328	1.230	1.397	1.690	1.651	1.756	1.747	1.893	2.412	2.426	2.604	2.760	2.824	2.943	3.910	3.423	2.913	2.794	2.859	2.642	2.932	2.696	2.728	2.892	2.676	2.711	2.750	2.733	2.578	2.961	2.844	2.603	2.729	2.862
420.0	315.8	458.4	589.6	670.7	699.1	686.4	665.4	634.7	626.3	732.9	1140	968.5	775.7	639.0	514.6	449.4	419.3	410.1	400.9	391.0	382.9	436.8	570.0	519.1	426.1	337.3	307.7	441.2	525.6	489.1	257.2	144.8	106.6	78.04	56.09	43.66	44.92	103.2	536.4	3172	1992	206.8	5.933	1.638	1.299	1.464	1.656	1.569	1.757	1.647	1.874	2.297	2.436	2.544	2.606	2.717	2.911	4.057	3.477	2.808	2.790	2.665	2.681	2.900	2.547	2.838	2.697	2.820	2.676	2.552	2.554	2.487	2.816	2.613	2.756	2.728	2.895
425.0	269.4	456.0	558.9	641.3	671.9	664.7	654.8	626.7	609.0	713.9	1087	916.7	741.7	608.1	488.7	429.4	404.3	389.9	386.9	374.2	368.8	419.4	548.0	499.3	417.6	330.1	310.0	437.1	500.4	456.2	283.6	169.8	115.3	85.54	62.77	47.33	37.28	57.35	159.2	836.9	1517	1084	34.12	2.835	1.534	1.695	1.705	1.527	1.618	1.770	1.734	2.201	2.256	2.449	2.598	2.553	2.786	3.875	3.616	2.735	2.662	2.741	2.587	2.775	2.570	2.750	2.384	2.637	2.609	2.645	2.721	2.441	2.579	2.380	2.480	2.583	2.647
430.0	330.3	415.5	540.1	619.3	639.5	640.6	638.7	619.4	601.1	711.4	1074	903.4	726.0	586.9	465.3	406.4	380.9	368.0	359.7	351.7	348.2	402.5	534.8	491.5	408.9	326.3	306.0	440.3	503.6	440.8	272.7	204.5	141.9	96.94	73.16	54.88	41.62	52.78	77.42	205.9	396.9	693.1	889.7	331.6	11.32	1.953	1.879	1.669	1.699	1.703	1.714	2.307	2.171	2.421	2.505	2.597	2.596	3.889	3.459	2.700	2.637	2.669	2.707	2.738	2.769	2.579	2.494	2.501	2.524	2.485	2.554	2.526	2.627	2.558	2.320	2.572	2.492
435.0	470.9	409.7	527.1	592.3	626.4	617.4	628.7	611.4	583.7	703.3	1083	906.6	717.0	572.6	448.4	382.9	362.6	344.6	339.8	331.3	327.9	386.5	527.5	484.4	402.7	318.4	303.2	451.7	525.6	453.8	257.6	203.7	173.2	118.3	82.30	63.24	48.89	59.81	65.97	69.05	99.68	164.0	426.1	1080	237.8	14.88	2.358	1.716	1.786	1.567	1.727	2.219	2.100	2.312	2.356	2.508	2.542	3.840	3.348	2.729	2.740	2.611	2.764	2.707	2.616	2.677	2.503	2.543	2.246	2.427	2.354	2.637	2.587	2.360	2.442	2.271	2.350
440.0	606.6	446.2	505.3	565.2	601.5	604.4	608.3	594.7	577.1	688.8	1060	880.5	697.0	551.1	431.8	369.3	343.1	331.0	323.1	316.6	310.9	372.4	516.8	471.9	385.9	309.3	294.4	450.4	524.2	451.0	256.0	190.6	182.9	140.5	94.19	68.25	53.26	66.89	67.96	40.96	35.77	46.08	109.1	616.6	1257	220.7	8.960	1.909	1.814	1.588	1.681	2.171	2.119	2.265	2.093	2.281	2.555	3.932	3.389	2.697	2.635	2.411	2.727	2.467	2.494	2.492	2.495	2.336	2.164	2.190	2.229	2.377	2.286	2.335	2.298	2.272	2.293
445.0	651.8	602.2	487.0	535.6	580.6	595.5	591.2	580.5	567.8	677.7	1017	834.3	667.3	533.5	411.4	352.1	330.7	317.4	303.7	299.6	295.3	355.0	483.1	442.9	365.9	297.6	283.6	428.5	502.1	431.4	250.1	182.6	169.3	152.8	108.6	75.37	57.74	69.42	69.29	37.45	23.78	21.02	32.69	164.4	932.2	1635	168.6	3.390	1.954	1.611	1.656	2.165	2.221	2.138	2.207	2.117	2.549	3.703	3.420	2.616	2.699	2.443	2.508	2.238	2.453	2.687	2.379	2.335	2.324	2.042	2.287	2.251	2.379	2.229	2.136	2.189	2.210
450.0	471.3	1006	579.2	517.9	551.8	555.4	559.1	552.3	549.1	628.6	906.3	752.1	600.9	490.2	379.6	326.6	306.1	291.9	281.7	276.6	272.2	320.3	431.2	395.5	331.0	273.2	263.1	387.8	450.1	390.0	236.2	177.1	154.7	141.3	124.9	89.70	63.60	70.89	68.14	38.10	24.04	18.01	17.47	44.01	242.3	1103	1777	290.8	9.633	1.865	1.739	2.106	2.187	2.078	2.087	2.200	2.548	3.498	2.965	2.457	2.535	2.561	2.371	2.450	2.327	2.502	2.379	2.240	2.074	2.033	2.131	2.128	2.039	2.109	1.895	2.076	2.114
455.0	280.1	1054	1049	496.2	496.7	519.7	526.3	514.3	520.8	572.6	802.8	658.8	536.8	437.4	346.0	297.9	279.0	266.0	255.6	248.8	244.8	286.5	372.4	348.1	294.8	250.9	244.6	342.6	390.6	343.3	222.4	170.6	145.6	125.7	119.1	105.8	73.39	71.35	65.59	39.97	26.83	19.44	15.95	19.11	60.65	254.9	798.8	883.7	193.2	10.68	1.943	2.040	1.989	2.130	2.003	2.027	2.427	3.275	2.686	2.350	2.283	2.516	2.286	2.257	2.261	2.595	2.082	1.977	2.134	1.891	2.059	1.906	1.962	1.946	1.946	1.870	2.068
460.0	214.3	745.3	1543	591.2	479.3	483.7	497.5	497.8	482.2	536.1	730.4	608.0	487.7	404.6	320.5	279.1	259.5	245.1	237.4	227.3	223.9	261.7	335.7	315.3	272.9	232.6	229.0	316.6	360.6	316.8	210.0	164.1	140.8	119.7	107.7	104.7	84.83	72.90	63.63	41.32	28.70	20.96	17.01	14.45	21.62	63.74	193.0	478.8	806.6	149.5	5.989	2.142	2.078	2.079	1.979	1.976	2.254	3.179	2.535	2.242	2.231	2.269	2.135	2.369	2.302	2.301	2.151	1.873	1.975	1.736	1.794	1.919	1.615	1.808	1.840	1.773	1.808
465.0	203.4	454.1	1621	924.5	442.5	445.4	459.8	461.3	457.4	507.7	670.8	569.0	457.8	376.3	302.1	255.7	239.1	227.9	218.4	212.6	207.3	237.1	307.3	287.1	252.7	216.2	208.9	289.3	331.4	292.5	197.4	156.5	136.1	115.7	98.41	93.40	88.60	78.78	64.55	41.45	29.65	22.59	18.27	14.04	13.52	21.40	49.21	126.0	581.5	691.3	114.7	3.399	2.183	1.962	2.023	1.812	2.126	3.063	2.517	2.277	2.208	2.184	2.126	2.292	2.151	2.072	1.981	1.750	1.989	1.825	1.779	1.690	1.569	1.621	1.804	1.706	1.726
470.0	201.8	304.4	1007	1646	562.8	409.9	418.0	425.0	415.7	461.0	598.9	507.9	414.3	339.6	272.0	231.3	215.7	204.5	197.4	191.0	186.3	210.7	268.9	252.1	222.8	190.8	188.3	259.2	293.2	261.8	179.8	144.5	126.7	108.2	92.38	82.11	78.50	84.17	69.13	42.46	30.86	24.37	19.75	15.75	12.76	12.78	17.69	33.22	152.2	435.2	552.6	214.1	9.314	2.128	1.968	1.845	1.877	2.942	2.222	1.948	2.021	2.044	1.999	1.999	2.058	2.012	1.896	1.705	1.745	1.744	1.681	1.446	1.634	1.536	1.615	1.474	1.515
475.0	223.6	243.3	478.0	1569	1209	386.2	386.3	383.8	376.0	418.8	526.8	450.5	370.1	302.3	241.7	206.3	191.5	179.3	172.0	168.9	162.4	183.4	230.4	219.0	190.8	168.2	166.7	223.7	254.5	228.0	160.2	132.1	116.6	99.48	87.12	75.54	67.33	77.04	73.29	45.99	31.93	25.16	20.54	16.42	13.62	11.73	11.00	13.20	38.46	101.3	229.9	569.8	181.3	10.37	1.983	1.840	1.868	2.669	2.071	1.702	1.766	1.919	1.879	1.811	1.971	1.902	1.648	1.687	1.704	1.682	1.405	1.317	1.525	1.434	1.585	1.327	1.359
480.0	215.7	236.9	310.6	1025	1816	480.7	348.9	351.9	354.9	377.7	477.7	407.6	330.5	273.9	224.0	191.7	174.2	164.9	156.9	154.8	148.8	166.5	205.6	196.4	171.3	153.2	152.2	199.6	224.7	203.6	146.7	122.4	109.3	93.35	82.02	72.08	62.51	67.32	70.92	50.51	33.17	25.71	21.28	17.47	14.44	11.96	9.930	9.116	13.41	26.24	57.18	297.1	571.3	151.1	4.706	1.818	1.952	2.542	2.031	1.795	1.681	1.687	1.821	1.671	1.777	1.694	1.506	1.480	1.565	1.508	1.393	1.378	1.335	1.217	1.412	1.279	1.211
485.0	182.4	263.5	260.5	553.2	1918	882.0	331.9	338.6	332.0	357.7	434.5	373.3	303.3	255.8	206.4	179.2	163.1	154.2	146.3	141.4	140.9	154.1	184.8	178.0	156.9	141.8	138.5	178.9	204.0	182.5	138.9	113.8	101.9	89.22	78.04	70.00	60.04	61.49	62.52	53.44	37.54	27.05	21.75	17.98	15.07	12.65	10.51	8.378	7.999	10.05	16.31	78.53	402.2	530.3	27.29	2.595	2.017	2.601	1.993	1.697	1.773	1.649	1.610	1.496	1.672	1.640	1.643	1.484	1.447	1.487	1.255	1.295	1.234	1.210	1.386	1.214	1.228
490.0	145.4	259.5	262.6	325.5	1181	1675	419.2	303.2	308.1	322.1	387.4	331.8	274.9	229.5	188.4	165.1	148.2	140.1	135.2	129.6	125.3	138.0	161.4	154.1	139.1	126.8	125.2	157.6	176.4	159.3	123.7	106.1	93.68	82.96	73.77	65.71	58.24	57.18	53.55	48.10	42.24	30.52	22.46	18.67	16.08	13.51	11.12	9.064	7.475	6.785	7.465	20.85	105.3	318.4	442.7	119.6	10.53	3.106	1.921	1.579	1.624	1.514	1.612	1.535	1.525	1.592	1.425	1.281	1.277	1.383	1.199	1.348	1.218	1.157	1.206	1.147	1.101
495.0	117.6	220.5	278.5	256.9	503.2	1732	1049	285.6	278.7	288.8	342.2	290.2	244.8	207.0	168.3	149.7	133.7	125.2	120.3	115.0	112.1	122.1	137.5	131.8	120.1	112.6	111.3	138.0	152.8	139.3	109.6	94.73	86.08	76.49	68.99	61.18	53.03	52.75	48.07	39.41	39.37	35.68	24.76	19.53	16.27	13.59	11.76	9.958	8.076	6.580	5.712	8.036	26.60	74.29	208.5	515.2	216.1	20.16	2.127	1.611	1.403	1.506	1.345	1.297	1.407	1.557	1.398	1.192	1.248	1.229	1.097	1.156	0.985	0.987	1.099	1.096	1.148
500.0	104.2	188.7	277.5	240.4	296.4	1136	1738	351.0	253.2	261.1	303.4	265.7	222.2	184.6	154.3	137.4	120.9	115.6	108.3	106.4	100.4	109.1	125.5	118.1	108.6	101.5	100.5	123.5	134.3	123.9	99.86	87.01	78.60	71.42	63.46	56.00	50.35	49.34	44.83	35.54	33.66	35.45	28.66	20.10	16.01	13.35	11.81	10.06	8.303	7.065	5.620	5.430	9.124	19.46	52.24	271.9	660.0	237.5	6.084	1.659	1.248	1.285	1.202	1.307	1.162	1.369	1.239	1.253	1.029	1.225	1.070	1.033	1.060	1.021	0.937	0.968	1.048
505.0	93.68	157.0	269.1	240.7	231.6	569.1	2017	663.0	241.4	238.3	278.7	239.8	203.0	169.2	139.8	122.9	110.5	105.1	99.95	95.87	90.97	95.54	113.1	106.8	99.31	91.02	89.45	111.6	121.0	110.9	91.14	80.97	72.56	64.91	58.41	52.17	47.58	45.76	41.21	33.39	29.37	31.20	30.31	21.62	16.07	14.08	11.91	9.638	8.438	7.445	5.676	5.206	5.059	7.204	14.50	71.41	410.9	1887	30.66	2.622	1.452	1.379	1.157	1.210	1.323	1.215	1.067	1.155	1.060	1.041	0.987	1.040	0.945	1.046	0.925	0.922	0.917
510.0	85.66	127.9	215.4	259.0	199.5	278.0	1286	1574	287.5	211.2	240.4	210.0	175.5	148.8	122.9	110.0	97.07	92.07	86.11	83.67	78.52	84.64	96.73	91.49	85.11	79.03	78.22	96.58	104.3	96.15	79.03	71.43	64.26	58.55	52.26	46.77	42.76	41.07	37.84	30.80	26.34	25.18	26.29	24.39	18.07	13.73	11.48	9.543	8.190	7.256	5.979	4.985	4.434	4.635	5.838	18.37	104.4	1087	683.4	120.9	8.838	1.378	1.192	1.175	1.129	1.239	1.051	1.024	1.034	0.935	0.917	0.965	0.938	0.936	0.833	0.844	0.936
515.0	73.17	116.6	157.9	249.1	189.2	189.8	484.6	1882	840.0	190.9	208.0	178.7	152.9	128.8	105.6	94.25	85.42	80.78	75.13	71.67	68.19	74.00	80.40	77.46	71.65	67.48	67.70	81.19	86.39	81.18	67.00	61.20	55.34	50.52	45.42	42.09	37.70	36.01	33.57	27.77	24.19	21.23	20.84	22.79	20.88	14.89	11.07	9.160	7.711	6.958	5.710	5.545	4.255	4.015	3.877	6.429	25.39	246.3	310.0	389.1	179.1	9.324	1.160	1.039	1.127	1.150	0.942	0.936	0.904	0.969	0.821	0.919	0.830	0.766	0.705	0.795	0.733
520.0	71.30	97.21	123.7	203.6	207.9	159.4	230.0	1293	1638	233.6	192.6	160.3	137.9	116.5	95.18	84.87	74.93	72.49	67.72	63.39	61.71	64.06	71.25	68.04	63.46	59.99	59.59	69.02	75.40	70.63	60.44	54.01	50.25	45.67	40.85	37.60	33.98	32.77	30.14	25.25	22.85	19.11	17.90	18.87	20.58	16.42	11.14	9.001	7.439	6.446	5.338	5.465	4.593	4.014	3.577	3.889	7.773	57.44	75.07	193.8	391.1	126.2	4.089	1.099	1.025	1.118	0.842	0.812	0.795	0.850	0.802	0.808	0.806	0.857	0.800	0.668	0.746
525.0	60.71	83.71	108.5	162.9	230.3	148.1	161.2	603.0	2125	526.5	170.3	145.9	125.5	103.1	85.47	75.88	70.69	63.69	60.33	57.82	55.02	57.07	61.95	60.52	55.48	53.36	52.55	61.90	66.08	63.06	53.83	50.07	44.98	40.88	36.23	33.84	31.18	29.64	27.20	22.87	20.89	18.53	15.95	16.21	18.39	17.98	11.94	8.807	7.566	6.206	5.386	5.170	4.686	4.077	3.225	3.116	3.838	15.16	18.65	49.50	237.7	347.7	29.80	1.919	1.027	1.234	0.908	0.884	0.836	0.770	0.781	0.750	0.674	0.759	0.739	0.738	0.677
530.0	55.34	72.98	96.46	118.8	202.2	166.4	131.5	243.3	1425	1542	224.9	127.3	108.6	90.31	75.76	67.79	60.26	56.38	51.90	50.18	48.33	49.26	52.55	51.92	47.70	44.95	45.97	51.75	56.20	53.49	46.90	42.77	38.47	35.56	32.53	29.71	27.60	25.62	24.12	21.07	18.36	16.36	14.68	13.50	13.99	15.53	13.98	9.566	7.187	5.976	5.122	4.894	4.338	4.027	3.473	3.075	2.879	5.521	5.874	12.44	60.06	184.6	235.1	112.4	8.458	1.304	0.888	0.777	0.692	0.679	0.691	0.689	0.660	0.631	0.623	0.576	0.627
535.0	50.86	57.78	82.20	93.02	142.0	193.2	122.2	138.6	492.4	2032	1395	112.4	92.25	78.90	65.33	58.65	51.75	49.05	43.57	43.12	40.89	41.62	44.53	43.56	40.57	37.12	39.39	43.17	46.54	43.77	38.19	36.36	33.26	30.55	28.38	25.72	23.21	22.07	20.68	18.31	16.09	14.46	13.26	11.70	11.20	11.59	12.99	11.27	7.498	5.797	4.767	4.603	3.807	3.644	3.755	3.128	2.631	3.295	2.921	4.224	14.69	42.54	92.46	268.3	157.3	16.59	0.821	0.778	0.641	0.677	0.575	0.633	0.711	0.518	0.581	0.519	0.666
540.0	52.29	58.38	72.27	85.11	103.4	186.8	127.8	104.7	190.5	1396	3712	167.9	80.89	67.25	59.16	50.87	46.59	41.85	38.64	37.09	36.45	36.59	38.66	37.69	34.79	33.72	34.01	37.50	39.96	38.39	34.04	30.88	29.48	27.29	25.05	22.40	20.44	19.45	18.61	16.15	14.22	12.98	11.66	10.43	9.569	9.234	10.49	11.29	8.167	5.906	4.676	4.162	3.828	3.267	3.355	3.113	2.600	2.512	2.103	2.165	4.534	10.56	22.48	123.5	304.6	236.2	3.390	0.769	0.750	0.655	0.619	0.559	0.622	0.540	0.574	0.533	0.545
545.0	54.40	58.82	72.97	76.41	80.74	148.7	143.6	86.68	110.3	609.6	5279	485.3	73.74	59.87	51.05	44.24	41.39	37.13	34.47	32.41	32.16	31.22	33.78	32.62	30.96	29.92	29.87	32.74	34.50	33.58	29.28	27.65	25.57	24.05	21.89	20.26	18.36	16.97	16.41	13.86	12.77	11.67	10.44	9.745	8.398	8.343	8.461	10.05	8.667	6.138	4.377	3.816	3.550	3.057	2.807	2.929	2.729	2.447	1.919	1.907	2.165	3.529	6.070	30.75	169.3	1282	29.53	1.779	0.741	0.659	0.531	0.557	0.576	0.567	0.592	0.467	0.493
550.0	45.44	54.74	66.73	62.27	66.68	99.50	151.0	90.25	82.00	207.0	3450	1999	117.5	51.55	43.75	36.83	34.01	31.41	29.68	27.68	26.33	26.11	28.54	26.64	25.49	24.64	24.45	27.02	28.54	27.52	24.68	22.77	21.22	19.85	18.01	17.05	15.61	14.77	14.06	12.15	11.12	9.965	9.117	8.365	7.835	7.091	6.806	7.008	7.989	6.611	4.562	3.447	3.150	2.854	2.510	2.565	2.731	2.584	1.819	1.640	1.611	1.799	2.384	7.730	41.89	667.7	167.0	84.26	8.086	0.676	0.547	0.508	0.572	0.498	0.532	0.506	0.454
555.0	43.08	61.94	60.06	53.96	58.26	65.82	124.3	111.6	66.39	95.14	1016	3306	610.2	45.40	37.19	30.23	28.95	26.15	23.20	23.19	21.65	21.79	22.05	21.87	20.94	18.92	19.99	21.34	22.40	21.54	19.95	18.46	17.69	16.24	14.95	13.48	12.70	11.79	11.68	10.39	9.456	8.185	7.494	7.015	6.312	5.537	5.577	5.096	5.641	6.358	5.136	3.377	2.689	2.445	2.354	2.126	2.154	2.531	2.117	1.505	1.365	1.282	1.534	2.487	10.16	150.1	57.81	164.7	106.9	7.702	0.640	0.482	0.610	0.463	0.449	0.463	0.476
560.0	43.79	56.26	55.75	49.31	49.80	52.12	91.19	130.9	62.99	63.83	284.1	2515	1423	64.21	30.95	26.16	23.51	22.56	19.97	19.63	18.00	18.09	18.90	17.75	16.88	15.83	16.73	17.68	18.40	17.71	17.24	15.11	14.06	13.35	12.62	11.30	10.85	10.35	9.790	8.752	7.688	6.891	6.433	5.842	5.748	4.918	4.745	4.223	4.177	5.182	4.858	3.606	2.481	2.290	2.140	1.977	1.911	2.155	2.009	1.653	1.320	1.208	1.232	1.338	3.174	34.51	14.03	68.22	165.9	34.15	3.546	0.592	0.516	0.427	0.479	0.403	0.441
565.0	44.96	60.90	56.30	46.00	43.54	39.99	61.81	132.3	69.93	52.82	109.4	999.1	2716	148.8	26.95	22.23	20.41	18.43	17.18	16.17	14.77	15.75	15.32	15.72	14.28	13.50	14.08	15.07	15.23	15.03	14.60	12.95	12.29	11.37	10.41	9.618	9.091	8.518	7.963	7.332	6.463	6.037	5.627	5.440	4.904	4.515	4.021	3.786	3.359	3.827	4.414	3.903	2.740	2.219	1.857	1.727	1.800	1.778	1.760	1.990	1.427	1.234	1.079	1.048	1.483	8.714	3.917	16.66	78.23	140.3	29.26	1.529	0.553	0.480	0.481	0.383	0.440
570.0	49.70	56.93	57.44	42.85	36.52	34.47	43.90	94.17	99.51	48.18	62.43	272.1	1978	1316	45.02	18.63	16.95	14.70	13.65	13.04	12.87	12.26	12.60	12.67	11.97	11.06	11.59	12.25	12.60	12.10	11.30	10.76	9.798	9.136	8.338	7.793	7.374	7.202	6.518	5.999	5.469	4.938	4.472	4.267	3.934	3.732	3.536	2.940	2.682	2.625	3.134	3.517	2.871	2.144	1.653	1.559	1.466	1.487	1.339	1.611	1.715	1.297	1.097	1.052	1.089	2.879	1.636	4.416	19.00	60.66	96.98	58.59	7.598	0.562	0.425	0.403	0.380
575.0	50.84	56.02	55.78	40.22	31.33	30.13	36.31	54.56	111.6	57.23	49.12	93.57	566.2	2018	130.7	15.75	13.99	12.60	10.58	10.54	10.67	10.47	10.08	9.862	9.446	8.973	9.360	10.09	9.974	9.561	8.956	8.505	7.938	7.077	6.916	6.229	5.935	5.662	5.331	5.188	4.499	4.015	3.704	3.489	3.140	3.107	2.921	2.396	2.367	1.972	2.174	2.627	2.815	2.556	1.626	1.382	1.215	1.339	1.202	1.153	1.438	1.525	1.127	1.027	1.047	1.472	1.133	1.783	4.979	14.17	28.73	87.40	72.62	7.204	0.510	0.412	0.420
580.0	48.36	56.14	47.96	39.78	31.49	27.03	28.21	36.12	93.61	75.59	42.45	50.72	156.6	1337	742.5	23.06	11.87	10.36	9.874	8.782	9.023	8.530	8.966	8.829	7.753	7.876	7.305	8.293	8.189	7.791	7.818	7.065	6.520	5.904	5.559	5.367	4.851	4.667	4.501	4.210	3.785	3.507	3.273	3.036	2.730	2.752	2.382	2.288	2.214	1.787	1.750	1.870	2.338	2.493	1.714	1.289	1.083	1.271	1.225	1.050	1.090	1.384	1.400	1.020	0.929	1.067	0.955	1.161	1.733	3.799	7.097	31.13	91.29	34.02	3.506	0.525	0.372
585.0	45.05	58.21	49.69	37.71	28.53	27.67	25.76	29.34	64.39	97.84	44.61	41.39	59.52	488.6	1167	80.56	10.32	9.310	8.408	7.969	7.186	7.395	7.633	7.622	6.534	6.575	6.256	7.062	7.165	6.672	6.799	5.892	5.512	5.158	4.794	4.810	4.091	4.181	3.950	3.541	3.293	3.046	2.771	2.676	2.349	2.315	2.094	2.022	1.782	1.569	1.448	1.565	1.829	2.362	1.920	1.343	0.986	1.145	1.109	0.935	1.008	1.111	1.335	1.139	0.911	0.960	0.873	1.086	1.065	1.498	2.273	7.694	37.59	84.44	29.00	1.776	0.388
590.0	47.42	51.39	46.44	32.97	23.45	24.41	23.83	26.18	42.12	93.82	61.10	37.12	36.72	134.6	754.0	530.4	19.49	7.874	7.044	6.837	6.331	6.039	6.504	5.857	5.655	5.362	5.100	5.726	5.747	5.289	5.442	4.868	4.663	4.190	3.963	3.904	3.471	3.425	3.161	2.985	2.705	2.589	2.350	2.194	1.970	1.928	1.818	1.635	1.565	1.308	1.234	1.236	1.295	1.603	1.881	1.507	1.130	1.008	0.917	0.823	0.874	0.841	1.038	1.265	1.006	0.901	0.795	0.912	0.824	0.976	1.071	2.271	9.088	31.20	57.35	40.78	6.493
595.0	41.50	47.32	45.16	31.35	23.82	22.21	22.39	24.39	30.51	64.63	84.08	39.03	30.91	47.12	217.3	815.6	89.49	6.925	5.631	4.995	5.270	5.086	5.274	4.856	4.515	4.564	4.139	4.997	4.826	4.508	4.257	3.840	3.850	3.733	3.340	3.064	2.690	2.655	2.461	2.310	2.110	2.025	1.858	1.817	1.725	1.532	1.417	1.252	1.279	1.194	1.057	1.060	1.025	1.070	1.412	1.641	1.226	1.001	0.848	0.793	0.825	0.710	0.793	0.879	1.065	1.007	0.686	0.788	0.748	0.655	0.752	1.025	2.460	7.329	15.48	45.67	36.57
600.0	41.62	43.53	44.44	30.57	22.94	20.70	20.98	22.45	28.15	46.30	92.32	47.65	28.93	27.43	61.99	565.4	419.1	10.24	5.079	4.405	4.408	4.371	4.587	4.127	3.665	3.435	3.631	4.003	3.931	3.822	3.515	3.508	3.216	2.812	2.704	2.568	2.388	2.450	2.413	2.186	1.869	1.616	1.594	1.543	1.406	1.457	1.232	1.167	1.212	1.023	0.929	0.948	0.858	0.809	1.033	1.358	1.329	0.968	0.790	0.729	0.695	0.694	0.612	0.737	0.805	1.051	0.758	0.799	0.690	0.687	0.662	0.638	0.951	1.984	3.798	14.69	49.00
605.0	42.71	39.66	39.75	28.78	21.07	19.37	21.40	22.81	26.77	36.22	82.70	60.68	31.90	24.59	25.51	222.3	676.5	47.03	4.964	3.974	4.106	3.654	3.987	3.694	3.215	3.148	2.925	3.023	3.440	3.214	3.046	2.794	2.549	2.450	2.290	2.240	1.973	2.123	2.149	1.997	1.558	1.609	1.294	1.467	1.226	1.377	1.143	1.113	1.038	0.869	0.808	0.759	0.767	0.705	0.743	0.992	1.448	1.063	0.845	0.660	0.657	0.560	0.654	0.697	0.699	1.024	0.923	0.777	0.628	0.733	0.643	0.493	0.616	0.824	1.258	3.653	18.17
610.0	40.82	40.39	34.70	27.73	19.31	17.74	20.39	23.66	28.13	32.57	57.55	76.90	34.94	23.76	17.70	61.81	459.8	323.1	9.562	3.523	3.152	3.379	3.233	3.038	2.767	2.674	2.555	2.738	2.908	2.815	2.551	2.383	2.050	1.995	1.942	1.798	1.636	1.674	1.666	1.593	1.362	1.325	1.177	1.228	1.099	1.160	0.975	0.954	0.886	0.769	0.662	0.743	0.672	0.699	0.628	0.705	1.020	1.142	0.900	0.651	0.562	0.534	0.574	0.601	0.637	0.763	0.855	0.872	0.673	0.579	0.539	0.527	0.466	0.527	0.585	1.139	4.431
615.0	33.44	35.08	34.90	25.63	18.03	19.12	21.53	22.41	24.74	30.05	41.62	74.24	45.05	22.56	16.29	21.63	134.7	520.0	64.59	3.488	2.840	2.760	2.835	2.593	2.411	2.070	2.245	2.356	2.462	2.077	1.978	2.045	1.694	1.552	1.529	1.393	1.473	1.363	1.598	1.269	1.117	1.118	0.969	0.946	1.003	0.809	0.856	0.764	0.775	0.601	0.589	0.633	0.575	0.569	0.522	0.628	0.651	0.948	0.951	0.671	0.540	0.491	0.504	0.612	0.574	0.598	0.701	0.700	0.745	0.607	0.503	0.443	0.450	0.406	0.487	0.514	1.328
620.0	34.50	34.20	34.87	22.11	17.94	17.59	19.73	21.14	23.60	28.62	34.92	58.03	57.63	24.73	15.38	12.56	37.93	375.8	262.7	4.836	2.398	2.359	2.769	2.407	2.032	1.829	1.904	2.078	2.099	1.811	1.771	1.656	1.538	1.477	1.261	1.173	1.266	1.211	1.225	1.129	0.937	0.967	0.818	0.784	0.877	0.769	0.741	0.702	0.636	0.574	0.559	0.520	0.476	0.575	0.453	0.462	0.526	0.753	0.777	0.667	0.506	0.418	0.465	0.582	0.569	0.541	0.539	0.552	0.627	0.677	0.516	0.515	0.366	0.390	0.441	0.348	0.570
625.0	34.13	31.30	26.79	20.65	18.89	17.09	18.86	19.18	21.34	27.91	32.34	43.30	64.48	28.19	15.68	10.88	13.95	155.8	443.6	24.02	2.599	2.439	2.103	2.167	1.658	1.675	1.756	1.678	1.805	1.623	1.458	1.448	1.335	1.297	1.231	1.091	1.108	0.969	1.076	0.993	0.792	0.881	0.816	0.701	0.750	0.722	0.678	0.663	0.583	0.448	0.496	0.531	0.431	0.480	0.409	0.407	0.448	0.625	0.653	0.789	0.644	0.491	0.472	0.476	0.512	0.517	0.476	0.467	0.587	0.682	0.607	0.423	0.399	0.394	0.356	0.321	0.347
630.0	32.19	30.84	29.63	23.21	16.85	16.30	18.04	18.61	22.37	26.43	31.09	35.66	55.55	39.33	16.08	10.05	8.830	42.65	331.0	175.2	4.573	2.171	2.014	1.818	1.342	1.422	1.415	1.386	1.650	1.430	1.315	1.241	1.081	1.044	0.971	0.967	0.911	0.871	0.937	0.859	0.697	0.731	0.727	0.592	0.624	0.603	0.595	0.528	0.500	0.447	0.409	0.456	0.420	0.419	0.412	0.392	0.458	0.498	0.488	0.667	0.587	0.524	0.458	0.419	0.446	0.447	0.456	0.476	0.503	0.562	0.649	0.492	0.355	0.364	0.330	0.336	0.367
635.0	31.98	30.74	28.54	22.26	16.18	17.80	16.09	18.31	22.12	25.93	32.16	33.79	39.21	48.82	19.49	10.54	8.357	14.27	103.1	359.5	43.21	2.317	1.964	1.759	1.347	1.280	1.179	1.225	1.464	1.253	1.025	1.077	0.897	0.806	0.956	0.745	0.714	0.796	0.792	0.728	0.707	0.733	0.628	0.514	0.589	0.573	0.462	0.461	0.439	0.404	0.332	0.418	0.321	0.417	0.398	0.326	0.444	0.408	0.428	0.496	0.482	0.568	0.488	0.400	0.397	0.402	0.435	0.462	0.488	0.464	0.560	0.598	0.534	0.372	0.341	0.305	0.373
640.0	31.51	36.02	32.36	23.19	16.82	16.05	16.86	18.25	21.70	24.97	31.53	31.94	33.18	49.09	24.40	11.64	9.031	8.454	28.46	287.4	164.7	3.039	2.034	1.856	1.198	1.207	1.076	1.045	1.208	1.113	0.898	0.846	0.878	0.674	0.723	0.699	0.718	0.648	0.776	0.656	0.569	0.597	0.533	0.447	0.538	0.516	0.424	0.422	0.410	0.357	0.358	0.408	0.374	0.391	0.326	0.303	0.402	0.391	0.409	0.453	0.454	0.497	0.532	0.472	0.359	0.402	0.419	0.466	0.439	0.405	0.444	0.587	0.655	0.384	0.372	0.329	0.314
645.0	34.67	43.91	33.68	24.27	17.34	16.54	16.14	19.31	23.30	26.94	32.01	32.76	31.95	44.02	32.56	13.92	10.12	7.913	10.16	134.0	300.1	17.49	2.066	1.744	1.074	1.047	0.896	1.002	1.150	0.946	0.864	0.882	0.698	0.727	0.696	0.693	0.632	0.630	0.673	0.598	0.451	0.452	0.497	0.480	0.457	0.459	0.431	0.421	0.453	0.315	0.361	0.362	0.323	0.333	0.365	0.349	0.400	0.383	0.307	0.372	0.363	0.558	0.523	0.412	0.402	0.466	0.367	0.411	0.418	0.437	0.391	0.422	0.557	0.539	0.335	0.377	0.378
650.0	38.94	55.49	47.26	27.18	19.28	17.61	18.23	19.99	21.54	27.62	33.05	33.70	32.67	37.41	39.49	16.50	10.79	7.907	6.077	41.06	305.8	64.65	2.449	1.455	1.048	0.969	0.921	1.189	0.976	0.956	0.725	0.766	0.647	0.721	0.543	0.556	0.587	0.521	0.624	0.613	0.519	0.424	0.430	0.454	0.363	0.486	0.403	0.488	0.371	0.353	0.298	0.387	0.306	0.291	0.323	0.328	0.326	0.382	0.346	0.340	0.336	0.413	0.499	0.387	0.397	0.484	0.338	0.403	0.404	0.386	0.326	0.374	0.471	0.520	0.358	0.365	0.352
