Sample:	'1
File name:	t2025062313 ∑∂—Ù∫”»Î–¢∏æ∫”.FD3
Run date:	'15:41:10, 06/24/2025
Operator:	Administrator
Comment:	'

Instrument
Model:	F-2700 FL Spectrophotometer
Serial number:	23B8-004
ROM Version:	4J14000 07

Instrument parameters
Measurement type:	3-D scan
Data mode:	Fluorescence
EX  Start WL:	220.0 nm
EX  End WL:	600.0 nm
EX Sampling interval:	5.0 nm
EM  Start WL:	230.0 nm
EM  End WL:	650.0 nm
EM Sampling interval:	5.0 nm
Scan speed:	12000 nm/min
EX Slit:	5.0 nm
EM Slit:	5.0 nm
PMT Voltage:	700 V
Response:	Auto 
Corrected spectra:	Off
Contour interval:	50.000

Peak integration
Integration method:	Rectangular
Sensitivity:	1
Threshold:	1.000

Peaks
No.	ApexEX/EM(nm)	Height(Data)
1	225.0/595.0	47.95
2	225.0/615.0	53.82
3	230.0/345.0	2436
4	230.0/620.0	51.10
5	235.0/260.0	293.1
6	240.0/265.0	390.9
7	240.0/525.0	266.7
8	245.0/270.0	433.3
9	245.0/535.0	223.6
10	250.0/275.0	576.9
11	250.0/550.0	177.1
12	255.0/285.0	580.3
13	255.0/560.0	140.1
14	260.0/290.0	528.2
15	260.0/380.0	1008
16	260.0/575.0	115.3
17	265.0/295.0	681.8
18	265.0/585.0	90.94
19	270.0/605.0	94.10
20	275.0/310.0	1557
21	275.0/615.0	111.3
22	280.0/315.0	1579
23	280.0/625.0	95.22
24	285.0/320.0	1543
25	285.0/635.0	78.41
26	330.0/375.0	389.0
27	335.0/380.0	375.4
28	425.0/500.0	34.09
29	440.0/520.0	20.22
30	475.0/350.0	7.507
31	505.0/275.0	3.151
32	510.0/280.0	3.803
33	515.0/285.0	3.433
34	525.0/290.0	3.164
35	550.0/305.0	7.144
36	560.0/310.0	7.800
37	570.0/315.0	8.491
38	575.0/320.0	8.499
39	585.0/325.0	8.398

Data points
	220.0	225.0	230.0	235.0	240.0	245.0	250.0	255.0	260.0	265.0	270.0	275.0	280.0	285.0	290.0	295.0	300.0	305.0	310.0	315.0	320.0	325.0	330.0	335.0	340.0	345.0	350.0	355.0	360.0	365.0	370.0	375.0	380.0	385.0	390.0	395.0	400.0	405.0	410.0	415.0	420.0	425.0	430.0	435.0	440.0	445.0	450.0	455.0	460.0	465.0	470.0	475.0	480.0	485.0	490.0	495.0	500.0	505.0	510.0	515.0	520.0	525.0	530.0	535.0	540.0	545.0	550.0	555.0	560.0	565.0	570.0	575.0	580.0	585.0	590.0	595.0	600.0
230.0	63.09	910.6	1704	426.1	18.27	7.203	5.632	5.062	4.182	3.647	3.649	3.326	2.891	2.600	2.082	1.871	1.672	1.511	1.346	1.119	1.047	1.081	0.894	0.840	0.773	0.705	0.687	0.690	0.667	0.682	0.686	0.568	0.544	0.519	0.513	0.486	0.437	0.446	0.474	0.446	0.475	0.510	0.448	0.364	0.384	0.403	1.278	3.858	5.585	3.549	1.312	0.392	0.298	0.281	0.280	0.284	0.316	0.286	0.305	0.300	0.250	0.290	0.294	0.292	0.299	0.288	0.290	0.260	0.293	0.307	0.264	0.316	0.306	0.306	0.302	0.286	0.360
235.0	86.13	276.3	1358	1920	460.0	23.50	7.154	5.687	4.213	4.098	3.635	3.335	3.212	2.524	2.062	1.824	1.828	1.244	1.237	1.169	1.245	0.984	1.034	0.786	0.968	0.812	0.671	0.805	0.739	0.642	0.686	0.537	0.462	0.483	0.472	0.413	0.442	0.435	0.427	0.448	0.397	0.420	0.557	0.456	0.535	0.416	0.623	1.266	2.694	4.640	6.287	6.121	2.697	0.623	0.276	0.310	0.313	0.275	0.274	0.283	0.274	0.270	0.354	0.297	0.268	0.285	0.255	0.258	0.269	0.338	0.315	0.296	0.327	0.272	0.284	0.275	0.290
240.0	134.3	119.7	473.3	2027	2086	339.7	13.81	6.862	5.194	5.398	4.514	3.935	3.019	2.427	2.080	2.200	1.673	1.499	1.337	1.187	0.974	0.935	0.906	0.822	0.870	0.741	0.792	0.715	0.777	0.653	0.579	0.573	0.455	0.528	0.482	0.432	0.428	0.428	0.408	0.425	0.435	0.406	0.482	0.420	0.731	0.635	0.523	0.552	0.891	1.686	4.162	9.440	10.05	6.443	1.989	0.467	0.341	0.339	0.261	0.262	0.331	0.341	0.307	0.279	0.291	0.275	0.325	0.255	0.301	0.334	0.269	0.310	0.258	0.260	0.305	0.273	0.424
245.0	122.9	159.6	155.1	823.4	2684	2001	233.6	8.463	5.809	5.167	4.537	3.398	3.689	2.603	2.761	2.297	1.679	1.640	1.529	1.258	1.094	1.016	1.021	1.063	0.919	0.843	0.763	0.637	0.690	0.629	0.700	0.687	0.522	0.521	0.439	0.442	0.388	0.449	0.410	0.472	0.499	0.337	0.431	0.376	0.498	0.676	0.744	0.606	0.515	0.603	1.201	3.881	8.562	13.17	11.44	5.353	1.369	0.354	0.304	0.320	0.318	0.323	0.327	0.272	0.270	0.300	0.288	0.258	0.326	0.351	0.313	0.318	0.287	0.308	0.295	0.276	0.386
250.0	58.85	148.4	211.5	251.5	981.5	2506	2553	748.8	31.83	6.069	5.024	4.223	4.194	3.024	2.638	2.268	1.868	1.515	1.489	1.333	1.114	1.080	0.944	1.027	0.870	0.733	0.845	0.631	0.645	0.647	0.673	0.624	0.502	0.615	0.460	0.492	0.469	0.430	0.438	0.394	0.447	0.421	0.398	0.384	0.476	0.422	0.554	0.733	0.968	0.748	0.639	1.151	2.353	4.872	8.331	11.91	14.81	11.94	5.750	1.446	0.363	0.376	0.327	0.336	0.299	0.310	0.301	0.311	0.303	0.327	0.294	0.292	0.325	0.323	0.293	0.305	0.321
255.0	38.79	56.98	201.6	290.8	288.1	706.7	2714	4063	293.5	27.76	6.748	5.223	4.891	3.302	3.072	2.590	2.135	1.774	1.556	1.330	1.043	0.982	0.872	0.971	1.117	0.925	0.707	0.811	0.753	0.913	0.719	0.713	0.563	0.587	0.512	0.497	0.525	0.422	0.418	0.376	0.448	0.404	0.415	0.377	0.373	0.329	0.345	0.414	0.708	0.935	1.204	1.125	0.935	1.378	2.266	3.247	6.871	15.25	24.29	20.73	7.683	1.417	0.381	0.330	0.286	0.346	0.365	0.297	0.302	0.336	0.284	0.312	0.312	0.339	0.291	0.310	0.367
260.0	38.81	33.14	93.78	293.1	278.3	218.3	952.0	4212	2381	234.3	14.97	6.406	5.586	4.190	3.209	2.564	1.929	1.728	1.758	1.324	1.274	0.971	1.041	0.956	0.831	0.964	0.715	0.750	0.768	0.740	0.747	0.659	0.628	0.519	0.546	0.482	0.478	0.450	0.468	0.444	0.462	0.401	0.410	0.385	0.391	0.383	0.368	0.391	0.444	0.502	0.928	1.512	1.701	1.051	0.915	1.121	1.979	4.653	12.76	24.66	29.07	19.02	5.242	0.788	0.382	0.382	0.302	0.314	0.346	0.324	0.361	0.304	0.321	0.333	0.344	0.303	0.313
265.0	40.38	28.67	41.14	165.7	390.9	223.8	284.3	1672	5266	2030	171.3	10.16	6.372	4.686	3.782	2.763	2.196	1.795	1.918	1.510	1.133	0.962	1.126	1.055	0.914	0.963	0.810	0.761	0.866	0.754	0.760	0.699	0.615	0.627	0.622	0.578	0.469	0.510	0.499	0.398	0.466	0.460	0.485	0.368	0.418	0.399	0.309	0.373	0.395	0.352	0.484	0.972	1.797	1.952	1.348	0.770	0.932	1.570	3.467	8.168	19.80	33.34	28.62	15.07	2.707	0.588	0.325	0.379	0.385	0.314	0.353	0.417	0.376	0.422	0.357	0.304	0.335
270.0	42.55	36.52	32.92	80.28	259.7	433.3	303.4	457.5	1948	4845	4650	701.7	32.25	6.776	5.199	3.663	2.838	2.375	1.999	1.723	1.267	1.231	1.203	1.079	1.024	1.013	0.819	0.965	0.868	0.821	0.759	0.791	0.695	0.658	0.603	0.560	0.507	0.497	0.468	0.488	0.494	0.450	0.482	0.466	0.448	0.459	0.392	0.376	0.364	0.366	0.373	0.567	0.915	1.514	2.133	2.242	1.899	1.312	1.397	2.355	5.123	10.77	19.02	29.66	31.35	20.62	11.53	2.825	0.534	0.441	0.364	0.399	0.354	0.360	0.336	0.338	0.364
275.0	81.21	61.23	48.41	68.99	149.7	325.6	576.9	332.7	491.4	1310	5128	7889	915.3	24.55	7.061	5.121	3.390	2.818	2.344	2.130	1.628	1.346	1.459	1.206	1.114	0.934	0.979	0.972	0.898	0.919	0.888	0.845	0.723	0.723	0.783	0.679	0.547	0.613	0.584	0.562	0.463	0.432	0.527	0.484	0.490	0.540	0.446	0.518	0.405	0.330	0.409	0.527	0.657	0.914	1.233	1.735	3.074	3.151	2.290	1.283	1.583	2.915	4.674	7.312	11.53	26.47	48.60	31.38	16.84	2.560	0.516	0.443	0.361	0.363	0.346	0.408	0.343
280.0	105.5	98.33	85.00	75.71	121.6	211.4	468.3	553.4	227.9	352.6	1604	7752	7031	141.5	14.16	6.238	4.423	3.269	2.711	2.417	2.052	1.506	1.464	1.236	1.330	1.102	1.187	0.953	0.814	0.898	0.762	0.842	0.824	0.781	0.761	0.695	0.683	0.724	0.549	0.609	0.532	0.555	0.508	0.545	0.619	0.525	0.556	0.627	0.458	0.451	0.414	0.561	0.638	0.750	0.995	1.182	1.807	2.895	3.803	2.744	1.411	1.203	1.535	2.109	3.162	7.172	19.10	38.93	54.54	28.41	11.75	1.223	0.478	0.406	0.435	0.462	0.380
285.0	146.8	151.1	111.5	92.61	117.7	166.6	263.7	580.3	329.4	172.3	439.7	2631	9079	5320	103.0	8.975	5.610	3.886	3.158	2.220	2.100	1.744	1.524	1.232	1.372	1.186	1.198	1.032	0.799	0.970	0.954	0.904	0.807	0.860	0.749	0.700	0.782	0.674	0.626	0.691	0.687	0.613	0.625	0.586	0.641	0.730	0.662	0.705	0.726	0.527	0.504	0.550	0.816	0.700	0.888	0.933	1.262	1.488	2.317	3.433	3.260	1.760	0.991	1.035	1.382	2.214	4.940	11.06	27.33	48.68	56.20	24.24	6.344	0.649	0.412	0.493	0.419
290.0	203.5	213.5	175.6	128.6	124.3	147.8	176.7	296.6	528.2	434.7	251.1	724.5	2902	6594	5929	425.7	23.36	6.059	4.078	3.076	2.385	1.986	1.798	1.479	1.453	1.256	1.244	1.034	0.950	0.912	1.067	0.877	0.915	0.887	0.831	0.840	0.838	0.722	0.746	0.638	0.696	0.684	0.715	0.658	0.763	0.856	0.785	0.863	0.872	0.720	0.618	0.698	0.751	0.682	0.789	0.800	0.946	1.064	1.184	1.672	2.549	3.164	2.988	2.324	1.458	1.337	2.011	3.347	7.062	13.71	25.57	35.70	35.07	37.60	16.65	6.267	0.858
295.0	264.2	298.1	251.4	184.8	150.3	153.5	168.4	197.5	303.4	681.8	591.1	350.2	807.7	1695	4914	6505	595.0	22.31	5.538	3.523	3.201	2.815	2.108	1.748	1.508	1.305	1.356	1.028	1.065	0.961	0.864	0.882	0.852	0.804	0.912	0.887	0.908	0.903	0.819	0.712	0.748	0.624	0.809	0.803	0.957	0.983	0.833	1.080	1.053	0.875	0.842	0.877	0.775	0.703	0.851	0.871	0.956	1.113	1.016	1.321	1.535	1.780	2.545	4.028	4.448	2.741	1.735	1.915	2.861	4.113	6.606	8.994	10.51	23.77	47.64	58.13	26.35
300.0	333.4	383.0	343.5	248.2	211.5	202.1	230.3	255.2	324.1	588.8	1007	623.5	511.0	613.6	1490	6296	5467	88.13	12.97	4.928	3.819	2.877	2.306	2.029	1.661	1.310	1.494	1.218	1.119	1.082	0.898	0.797	0.926	0.838	0.930	1.012	1.064	0.992	0.870	0.724	0.802	0.852	0.691	0.846	0.973	1.146	1.055	1.296	1.359	1.190	1.052	1.104	1.054	1.007	1.059	0.997	1.196	1.303	1.521	1.543	1.728	1.740	2.069	2.979	4.517	5.540	4.247	2.827	2.574	2.760	3.204	3.488	3.698	6.679	15.63	36.27	58.64
305.0	447.9	521.2	475.6	367.6	286.1	310.7	363.2	399.5	565.7	762.5	1193	1355	838.3	629.7	716.2	2181	7246	4339	71.26	8.310	4.861	3.520	2.725	2.193	2.045	1.596	1.698	1.197	1.271	1.234	1.008	0.965	0.970	0.969	0.987	1.105	1.083	1.040	0.880	0.795	0.910	0.959	1.010	0.960	1.133	1.422	1.496	1.677	1.735	1.453	1.224	1.416	1.274	1.233	1.536	1.505	1.752	1.798	2.087	2.453	2.587	2.967	3.174	3.797	4.576	5.944	7.144	6.610	5.015	4.047	3.681	3.379	3.249	3.719	5.511	10.49	22.62
310.0	554.5	687.6	652.0	490.0	406.8	423.1	509.4	619.0	773.8	976.0	1225	1557	1467	945.2	731.5	887.3	2471	5146	4848	304.5	20.02	4.727	3.653	2.860	2.284	1.955	1.736	1.416	1.349	1.316	1.025	1.130	1.061	1.068	1.141	1.133	1.139	1.081	1.079	1.008	1.030	1.043	1.173	1.259	1.367	1.690	1.777	2.069	2.134	1.819	1.694	1.703	1.729	1.679	1.900	1.979	2.229	2.429	2.937	3.237	3.356	3.860	4.349	4.859	5.117	5.783	6.594	7.504	7.800	7.376	6.191	4.743	4.246	4.212	4.309	4.920	7.508
315.0	688.6	879.3	859.5	631.8	529.3	533.0	623.8	739.6	880.7	1080	1287	1462	1579	1414	901.7	682.0	960.2	1418	3555	6046	479.1	17.78	4.924	3.853	2.760	2.362	2.110	1.552	1.390	1.315	1.174	1.179	1.143	1.099	1.185	1.160	1.179	1.060	1.161	1.177	1.099	1.235	1.395	1.460	1.526	1.972	2.329	2.781	2.735	2.515	1.966	2.010	2.184	2.096	2.233	2.261	2.622	2.890	3.551	3.997	3.755	4.313	4.696	5.198	5.585	6.217	6.742	6.867	7.160	7.409	8.491	7.775	6.219	5.178	4.554	4.172	4.504
320.0	813.3	1047	1009	749.9	605.1	565.4	687.7	813.7	945.9	1139	1333	1495	1503	1543	1136	700.1	664.9	561.9	1004	4629	4206	363.0	10.01	4.673	3.298	2.745	2.269	2.009	1.509	1.368	1.350	1.303	1.108	1.190	1.276	1.078	1.186	1.173	1.250	1.163	1.172	1.196	1.389	1.637	1.882	2.244	2.557	3.199	3.026	2.549	2.455	2.573	2.499	2.376	2.491	2.654	3.158	3.176	3.709	3.920	4.060	4.566	4.824	5.519	5.870	6.378	6.765	6.726	7.010	7.114	7.407	8.499	8.217	7.141	5.229	4.537	4.072
325.0	919.7	1253	1257	936.6	703.1	636.3	717.6	845.0	950.4	1138	1334	1482	1466	1405	1360	831.7	613.1	394.8	330.7	1375	5020	3602	58.15	6.790	4.349	3.355	2.322	1.944	1.841	1.680	1.527	1.200	1.336	1.155	1.164	1.148	1.103	1.114	1.208	1.228	1.271	1.338	1.366	1.750	2.201	2.744	3.126	3.651	3.625	3.388	3.132	3.293	2.776	2.648	2.575	2.805	3.121	3.520	3.687	4.237	4.059	4.428	5.054	5.542	5.636	6.208	6.434	7.138	7.206	7.283	6.919	7.338	7.721	8.398	6.900	4.866	4.260
330.0	1079	1635	1789	1500	1044	771.1	749.7	850.6	942.6	1112	1308	1478	1470	1349	1237	1044	728.8	396.2	231.6	405.4	1502	3786	3968	1017	18.13	4.609	2.975	2.387	1.903	1.725	1.495	1.257	1.367	1.239	1.200	1.197	1.230	1.216	1.229	1.187	1.247	1.348	1.529	1.882	2.311	3.203	3.869	4.725	5.043	4.617	4.553	4.837	4.214	3.702	3.173	2.968	3.166	3.433	3.600	3.981	4.159	4.433	4.836	5.381	5.741	6.148	6.261	6.743	7.010	7.172	6.854	7.127	6.847	7.358	6.708	6.493	5.920
335.0	1277	1899	2244	2041	1542	973.0	796.2	856.1	938.9	1101	1284	1458	1462	1338	1171	980.6	931.1	529.2	271.9	236.7	439.8	954.8	2733	5314	416.3	18.14	4.600	3.115	2.084	1.850	1.845	1.511	1.259	1.416	1.257	1.368	1.258	1.234	1.192	1.196	1.277	1.352	1.649	1.964	2.652	3.531	4.244	5.519	5.802	5.907	6.032	6.728	6.142	5.152	4.244	3.466	3.220	3.686	3.738	4.093	4.318	4.602	4.596	5.451	5.522	5.875	6.366	6.758	6.958	7.038	6.831	6.758	6.487	6.627	5.918	5.669	6.214
340.0	1319	1987	2434	2251	1723	1069	839.4	856.1	926.0	1067	1228	1381	1410	1309	1132	905.4	859.7	680.7	332.3	220.6	220.9	307.4	770.8	3846	3514	337.8	8.956	4.220	2.785	2.241	1.904	1.705	1.403	1.510	1.341	1.352	1.283	1.356	1.097	1.282	1.270	1.629	1.825	2.259	2.557	3.516	4.455	5.630	6.191	6.326	6.528	7.279	6.655	5.740	4.544	3.560	3.495	3.773	3.966	4.009	4.238	4.599	4.639	5.066	5.805	5.695	6.252	6.428	6.698	6.809	6.872	6.716	6.492	6.204	5.990	5.143	5.566
345.0	1237	1947	2436	2284	1737	1103	844.9	849.3	901.6	1021	1160	1293	1332	1256	1086	854.0	734.7	690.0	451.3	244.3	191.3	176.9	252.3	1131	4203	3154	51.33	5.530	3.366	2.711	2.088	1.740	1.574	1.647	1.342	1.278	1.324	1.315	1.182	1.216	1.242	1.468	1.748	2.046	2.594	3.567	4.142	6.021	6.298	6.352	6.686	7.472	6.683	6.115	4.540	3.866	3.578	4.063	3.946	4.298	4.168	4.471	4.543	4.943	5.045	5.496	5.831	5.952	6.483	6.404	6.619	6.402	6.332	5.891	5.710	5.213	5.285
350.0	1200	1860	2355	2280	1843	1176	887.1	863.5	895.7	988.4	1104	1206	1231	1167	1032	834.6	690.8	579.5	530.0	376.1	228.2	178.4	164.0	321.2	1234	3163	3364	893.7	16.11	3.425	2.600	1.959	1.689	1.565	1.370	1.351	1.235	1.306	1.170	1.137	1.245	1.443	1.570	2.078	2.474	3.340	3.888	5.265	6.167	6.196	6.474	7.507	6.890	6.390	4.887	4.079	3.816	3.914	3.808	4.242	4.058	4.074	4.425	4.688	4.910	5.074	5.349	5.516	5.865	5.892	5.998	6.128	5.773	5.747	5.324	5.053	4.996
355.0	1108	1694	2146	2128	1810	1251	940.6	922.7	929.0	978.2	1056	1124	1142	1088	970.8	811.2	678.0	545.3	466.6	475.3	341.6	213.8	171.0	162.2	330.8	768.9	2262	4360	381.7	15.99	3.678	2.545	1.766	1.723	1.349	1.339	1.298	1.213	1.050	1.113	1.242	1.362	1.459	1.944	2.304	3.010	3.879	4.859	5.747	5.555	6.214	7.192	7.068	6.381	5.218	4.346	4.268	4.015	3.907	4.204	4.271	4.096	4.580	4.682	4.825	4.575	4.964	5.413	5.418	5.593	5.534	6.021	5.751	5.383	5.141	4.983	4.831
360.0	1054	1499	1952	2040	1753	1251	964.6	938.2	949.4	993.1	1035	1077	1082	1029	931.1	792.1	665.4	543.4	442.7	436.6	437.7	274.6	189.3	144.5	145.0	218.6	609.5	3166	3234	315.0	7.649	3.219	2.315	2.046	1.547	1.292	1.471	1.274	1.073	1.136	1.208	1.333	1.541	1.714	2.264	2.759	3.668	4.504	5.315	5.321	5.509	6.562	6.653	6.080	5.127	4.343	4.396	4.224	4.229	4.093	4.279	4.019	4.604	4.463	4.621	4.547	4.894	5.023	5.051	5.580	5.294	5.347	5.087	5.303	5.120	4.729	4.662
365.0	953.4	1396	1800	1912	1700	1248	996.0	957.7	963.5	992.6	1019	1039	1035	988.5	890.8	773.6	658.4	547.1	453.4	402.1	436.0	368.6	223.5	158.2	120.7	109.5	179.5	933.7	3708	2908	47.49	5.178	2.966	2.104	1.652	1.518	1.429	1.371	1.160	1.154	1.257	1.181	1.525	1.575	1.997	2.672	3.234	4.100	4.856	4.781	5.150	6.320	6.230	6.102	5.091	4.285	4.314	4.202	4.345	4.401	4.427	4.179	4.610	4.777	4.556	4.608	4.719	4.585	4.740	5.030	5.278	5.080	4.812	5.099	5.052	4.736	4.689
370.0	890.6	1297	1656	1751	1607	1240	1019	979.2	980.5	1009	1011	1002	988.1	936.2	853.7	750.9	657.8	560.2	473.2	410.9	391.2	403.6	332.3	205.8	143.3	111.0	100.1	251.5	1089	2908	3108	798.9	14.31	2.812	2.066	1.783	1.457	1.435	1.234	1.152	1.325	1.353	1.494	1.633	1.967	2.333	2.977	3.794	4.335	4.300	4.775	5.768	5.916	5.674	5.145	4.392	4.439	4.309	4.415	4.460	4.284	4.321	4.645	4.714	4.563	4.534	4.622	4.520	4.649	4.673	4.889	4.928	4.631	4.861	4.653	4.555	4.512
375.0	833.6	1186	1527	1594	1537	1232	1055	1013	991.1	1007	995.5	990.5	959.2	899.8	823.6	727.5	647.9	564.8	494.6	434.1	391.0	370.6	389.0	310.2	188.4	141.8	111.7	121.8	288.0	710.2	2151	3873	329.8	14.23	2.870	2.016	1.674	1.411	1.281	1.150	1.264	1.358	1.563	1.588	1.983	2.315	2.835	3.572	3.882	3.911	4.206	5.591	5.542	5.248	4.799	4.420	4.574	4.323	4.366	4.607	4.280	4.434	4.618	4.581	4.646	4.400	4.517	4.615	4.706	4.619	4.961	4.753	4.512	4.705	4.742	4.334	4.409
380.0	831.3	1112	1396	1521	1449	1225	1062	998.5	1008	1000	987.1	973.7	941.9	874.2	794.8	711.0	642.4	568.0	506.5	452.6	404.6	369.5	364.9	375.4	253.1	173.0	136.5	113.5	126.0	204.4	597.2	2909	2763	258.6	6.537	2.576	2.029	1.610	1.429	1.188	1.244	1.367	1.386	1.561	1.941	2.316	2.705	3.362	3.725	3.735	4.155	5.175	5.164	5.288	4.601	4.093	4.794	4.429	4.397	4.488	4.669	4.275	4.581	4.625	4.753	4.637	4.154	4.444	4.779	4.530	4.581	4.550	4.364	4.432	4.678	4.477	4.425
385.0	757.2	1050	1294	1445	1383	1207	1049	1010	1006	995.0	980.4	959.5	922.3	857.4	770.8	695.1	635.4	573.8	516.0	463.0	420.9	384.2	349.1	368.2	326.4	211.7	160.5	128.9	105.2	102.6	178.1	873.1	3108	2366	38.66	3.910	2.489	1.760	1.593	1.309	1.263	1.329	1.340	1.505	1.773	2.083	2.528	3.138	3.712	3.555	4.065	4.881	4.894	5.181	4.815	4.211	4.714	4.319	4.252	4.786	4.712	4.446	4.262	4.594	4.506	4.668	4.321	4.448	4.513	4.451	4.618	4.249	4.319	4.184	4.520	4.465	4.362
390.0	723.5	975.9	1219	1323	1320	1173	1052	1008	995.3	989.4	967.8	929.1	893.0	827.5	756.0	686.0	626.9	572.7	523.5	481.5	443.1	405.4	368.6	348.1	346.6	299.1	208.6	157.4	122.7	99.46	98.13	237.6	921.1	2318	2316	576.5	12.00	2.278	1.910	1.505	1.389	1.386	1.414	1.654	1.684	1.900	2.359	2.952	3.552	3.345	3.658	4.490	4.736	4.754	4.737	4.450	4.624	4.392	4.425	4.572	4.435	4.372	4.302	4.534	4.567	4.465	4.209	4.504	4.353	4.257	4.333	4.286	4.354	4.229	4.218	4.279	4.237
395.0	683.1	914.2	1142	1235	1245	1145	1049	1014	998.4	976.0	960.4	923.5	874.8	810.0	745.6	680.7	631.6	576.9	539.7	503.0	472.4	435.8	404.6	371.7	344.0	345.4	297.2	204.3	155.3	124.1	102.0	111.0	244.4	567.8	1676	2856	271.0	10.54	2.500	1.790	1.616	1.524	1.495	1.461	1.752	2.081	2.329	2.885	3.215	3.298	3.376	4.221	4.482	4.777	4.201	4.364	4.455	4.631	4.592	4.453	4.350	4.539	4.363	4.299	4.375	4.388	4.082	4.252	4.330	4.204	4.391	4.455	4.143	4.022	4.066	4.187	4.318
400.0	677.1	887.3	1117	1180	1190	1140	1052	1022	984.2	969.9	960.3	919.8	876.2	816.5	742.2	681.2	630.2	590.1	544.7	520.0	493.6	460.6	433.6	397.8	361.3	345.3	352.2	265.7	188.1	151.5	123.1	99.76	106.6	161.1	473.0	2216	2219	204.9	4.963	2.234	1.814	1.625	1.530	1.546	1.748	2.159	2.370	2.681	2.967	2.996	3.046	4.216	4.434	4.458	4.262	4.433	4.240	4.625	4.586	4.309	4.227	4.168	4.249	4.319	4.359	4.342	4.110	4.044	4.243	4.222	4.441	4.239	4.028	4.079	4.011	4.185	4.304
405.0	629.1	875.4	1074	1139	1179	1124	1039	1007	975.3	969.4	959.2	922.7	878.6	815.1	748.3	682.6	627.2	590.2	552.8	526.3	503.8	478.8	456.6	419.8	384.2	352.0	354.6	326.9	232.3	179.4	146.1	113.0	86.78	77.22	137.8	672.5	2379	1838	33.50	3.226	1.926	1.720	1.707	1.605	1.715	2.177	2.232	2.758	2.928	2.891	3.158	4.182	4.267	4.284	4.277	4.174	4.467	4.422	4.255	4.393	4.130	4.216	4.313	4.289	4.254	4.209	4.268	4.247	4.022	4.206	4.355	4.317	4.136	4.165	4.013	3.822	4.116
410.0	609.3	839.5	999.7	1074	1120	1080	1030	995.5	967.5	942.9	937.7	911.3	869.3	803.9	731.4	667.9	616.5	577.4	544.0	526.2	505.4	489.5	466.1	438.2	403.4	366.1	342.5	337.5	298.2	218.1	170.0	132.7	96.91	72.21	71.04	178.8	711.3	1774	1741	148.3	9.585	2.129	1.863	1.758	1.795	1.942	2.111	2.674	2.821	2.771	2.922	3.882	4.113	4.266	4.226	4.258	4.380	4.391	4.186	4.316	4.264	4.294	4.028	4.266	4.171	4.111	4.100	3.947	3.796	4.008	3.949	3.980	3.844	3.825	3.772	3.772	3.939
415.0	573.0	776.1	944.2	1017	1050	1045	1001	982.6	944.4	910.4	896.5	880.7	827.3	774.1	707.4	638.9	597.0	555.0	530.2	514.5	495.8	483.7	464.0	440.6	406.5	371.4	340.5	314.3	309.7	269.7	194.8	145.9	107.5	79.59	61.45	73.29	181.0	431.9	1267	2023	232.3	7.829	2.057	1.916	1.827	2.022	2.259	2.512	2.907	2.523	2.835	3.671	3.717	4.016	3.799	3.884	4.314	4.027	3.986	4.550	4.101	4.154	4.225	4.057	4.124	3.890	3.815	3.730	3.874	3.913	3.699	3.807	3.980	3.853	3.730	3.834	3.900
420.0	550.3	746.7	885.2	955.4	1013	1026	982.6	964.7	911.6	893.8	875.6	844.4	802.5	743.2	676.0	615.2	573.1	540.3	519.2	497.6	481.9	471.6	458.6	435.6	408.5	372.6	339.8	308.8	290.6	289.2	222.7	156.3	114.4	87.00	63.31	52.15	65.19	112.0	350.6	1609	1767	35.71	4.013	2.211	2.060	1.887	2.044	2.425	2.679	2.538	2.811	3.603	3.678	3.886	3.773	3.853	4.007	4.490	4.112	4.418	4.149	3.963	4.044	4.078	4.169	3.674	3.545	3.804	3.873	3.870	3.557	3.771	3.768	3.931	3.703	3.930	3.885
425.0	528.4	716.2	840.3	958.8	979.6	997.4	964.0	949.5	906.6	887.5	861.7	826.9	774.1	717.4	650.0	596.4	554.9	523.2	501.7	486.7	471.6	463.6	450.2	427.1	400.4	373.0	340.0	311.8	279.5	277.7	252.3	173.6	123.7	93.24	68.55	51.08	42.16	43.04	90.45	488.7	1776	1378	31.01	3.091	2.173	2.028	1.981	2.509	2.691	2.513	2.487	3.273	3.585	3.720	3.858	3.865	4.011	4.366	4.048	4.363	3.987	3.896	4.135	3.881	3.715	3.715	3.577	3.542	3.490	3.531	3.424	3.510	3.490	3.426	3.530	3.592	3.569
430.0	550.4	657.9	815.2	902.5	935.8	969.8	957.6	946.4	892.8	856.2	830.6	795.8	747.8	686.5	627.6	576.1	536.2	503.9	485.6	469.3	457.5	447.2	440.4	419.1	397.2	370.3	341.5	313.1	280.7	261.0	251.7	209.7	144.6	104.5	77.44	58.60	42.22	31.51	35.08	120.1	519.0	1308	1355	137.3	9.132	2.523	2.124	2.419	2.634	2.497	2.517	3.246	3.474	3.704	3.726	3.887	4.133	4.230	4.057	4.210	3.916	4.026	3.915	3.875	3.721	3.637	3.462	3.537	3.431	3.349	3.414	3.467	3.530	3.128	3.306	3.401	3.520
435.0	648.6	641.3	782.8	847.4	932.6	954.5	958.5	948.3	872.0	824.8	807.9	773.7	716.9	661.4	601.3	544.6	514.1	484.7	464.1	449.1	439.9	427.4	419.8	403.0	385.1	362.1	334.2	308.7	284.6	260.8	233.5	219.1	177.7	119.9	87.48	67.27	48.50	34.46	26.47	40.32	125.3	313.2	960.7	1693	223.4	9.204	2.618	2.547	2.537	2.431	2.421	3.033	3.281	3.513	3.695	3.845	4.271	4.046	4.190	4.052	3.702	3.976	3.813	3.782	3.539	3.620	3.527	3.261	3.181	3.377	3.302	3.257	3.100	3.195	3.115	3.274	3.612
440.0	820.0	662.9	757.2	828.5	884.2	923.8	958.5	943.5	862.9	812.4	790.9	741.7	688.4	630.5	577.0	527.5	496.0	470.5	451.1	433.0	420.8	408.3	401.4	387.9	375.4	350.3	327.2	304.6	283.8	257.7	228.0	206.0	190.3	140.7	95.47	72.63	53.45	37.97	27.88	24.71	39.39	78.29	263.0	1322	1574	174.4	4.393	2.736	2.714	2.559	2.532	3.153	3.306	3.201	3.490	3.620	3.884	3.841	4.216	4.115	3.792	4.016	3.867	3.574	3.662	3.340	3.325	3.176	3.342	3.274	3.377	3.293	3.099	2.929	3.179	3.223	3.311
445.0	996.5	792.2	709.4	805.0	853.8	906.4	943.8	931.8	851.8	796.2	750.6	707.4	661.9	605.8	548.3	509.9	473.8	445.8	428.8	413.8	398.5	388.9	380.9	371.3	359.8	335.4	316.2	296.2	276.8	252.7	225.3	195.6	179.1	156.6	106.0	75.53	57.01	41.64	30.72	22.90	21.81	27.39	66.91	399.2	1538	1306	27.16	3.574	2.866	2.480	2.522	3.171	3.314	3.252	3.563	3.601	4.026	3.914	4.145	4.012	3.970	3.743	3.905	3.635	3.482	3.233	3.081	3.022	3.027	3.022	3.178	3.141	3.083	2.924	2.914	3.033	3.075
450.0	813.7	1203	748.4	766.3	819.5	881.6	913.7	896.9	826.1	758.1	706.3	668.8	615.0	559.7	509.3	475.6	439.2	416.6	401.1	384.8	366.2	357.5	350.6	342.6	331.1	312.2	297.1	280.5	262.7	242.3	218.6	187.4	160.5	149.9	125.2	85.96	61.14	45.00	33.94	25.83	20.81	18.09	24.14	96.52	445.1	1163	1249	340.0	8.895	2.633	2.599	3.154	3.176	3.173	3.608	3.608	3.827	4.218	4.025	3.900	3.898	3.656	3.602	3.462	3.230	3.266	2.979	3.027	2.924	3.075	3.089	2.911	2.887	2.819	2.804	2.689	2.859
455.0	523.5	1359	1159	722.2	763.0	827.4	864.8	868.0	786.0	704.7	658.6	614.0	565.6	513.3	468.2	438.5	402.9	378.7	366.5	350.1	333.6	321.8	319.4	311.9	300.2	286.6	275.0	263.9	248.4	231.0	204.4	178.8	151.3	130.7	123.2	103.1	68.24	48.53	37.01	29.01	23.00	17.84	16.15	30.22	105.9	276.4	766.1	1468	188.5	8.544	2.733	3.088	3.190	3.072	3.109	3.516	3.822	3.915	4.077	3.699	3.616	3.349	3.064	3.114	3.061	3.077	2.823	2.847	2.875	2.735	2.896	2.631	2.760	2.575	2.582	2.836	2.613
460.0	393.6	1104	1650	747.7	714.3	802.8	835.6	811.4	735.8	659.8	620.4	574.7	529.3	480.5	437.5	405.1	376.4	351.9	334.5	323.5	305.0	298.0	294.3	286.6	277.1	269.2	254.9	245.5	233.1	217.9	198.6	172.4	146.4	124.2	111.3	105.8	77.74	50.55	39.06	30.45	23.98	19.50	15.54	16.30	31.45	68.02	200.8	1009	1255	144.2	5.357	3.014	2.988	3.117	3.119	3.448	3.820	3.827	3.620	3.644	3.299	3.400	3.107	2.915	2.969	2.818	2.840	2.543	2.691	2.681	2.526	2.514	2.803	2.404	2.652	2.422	2.342
465.0	328.7	714.8	1893	932.4	669.5	745.8	787.2	767.4	692.5	630.1	582.0	533.1	492.1	448.5	407.1	371.7	346.7	327.8	311.2	300.0	280.9	273.6	267.5	264.3	257.5	248.0	238.2	229.3	219.8	206.6	189.2	163.0	140.8	117.2	101.3	97.03	85.68	57.04	40.66	31.81	26.32	20.54	16.64	14.21	15.41	22.29	50.96	286.5	1148	1031	23.11	4.019	3.120	2.984	3.108	3.245	3.626	3.542	3.449	3.477	3.263	3.317	2.930	2.881	2.749	2.745	2.677	2.499	2.418	2.584	2.510	2.414	2.435	2.272	2.171	2.463	2.453
470.0	333.5	476.6	1361	1718	710.3	674.1	712.2	698.7	631.5	568.3	520.8	487.8	444.7	402.4	362.1	332.7	310.8	292.4	278.2	265.1	248.6	240.4	234.1	230.8	229.1	218.6	212.5	207.0	197.7	188.0	174.9	151.2	131.6	109.9	92.68	83.22	78.01	66.09	45.79	33.40	27.55	22.01	18.26	15.01	12.76	12.71	17.75	69.50	318.3	802.2	890.4	308.9	9.818	3.101	2.917	3.007	3.217	3.264	3.239	3.168	3.052	2.908	2.743	2.684	2.595	2.554	2.490	2.191	2.310	2.284	2.280	2.134	2.257	2.141	2.152	2.190	2.131
475.0	344.5	378.1	675.4	1858	1207	606.5	632.0	622.8	561.0	508.3	470.5	430.2	392.8	353.9	321.0	292.8	272.9	255.1	242.5	229.4	218.4	210.1	201.8	199.7	198.1	191.9	186.2	181.5	175.6	169.5	156.6	137.8	119.8	101.9	86.31	72.97	64.75	62.30	53.92	37.24	28.51	23.18	19.72	15.77	13.53	11.54	11.16	21.35	75.66	186.2	443.6	995.4	194.3	11.93	2.981	2.775	3.065	2.997	3.019	2.891	2.867	2.519	2.464	2.234	2.247	2.186	2.246	1.924	1.976	2.013	2.023	1.962	1.882	1.995	1.959	2.019	1.932
480.0	315.4	351.9	464.0	1321	1822	625.0	566.7	561.3	517.9	463.4	433.9	398.9	358.4	323.3	296.3	265.7	247.9	234.4	221.1	209.9	195.5	187.3	183.2	181.2	177.7	176.7	169.7	165.4	159.9	156.2	143.1	127.8	111.6	96.76	80.32	69.13	59.38	54.96	55.73	43.10	29.63	23.36	20.31	16.55	14.00	12.02	9.802	10.91	21.87	45.83	110.7	555.4	935.8	176.1	6.504	2.938	2.854	2.792	2.816	2.630	2.590	2.440	2.298	2.103	2.065	2.124	2.060	2.050	1.894	1.803	1.879	1.745	1.654	1.921	1.837	1.939	1.836
485.0	277.3	350.9	381.8	776.4	2087	930.5	539.3	528.6	483.3	432.1	399.7	376.1	330.9	298.0	270.8	245.1	225.9	215.4	204.5	192.3	178.6	173.1	169.8	165.6	163.4	159.9	156.3	153.3	147.5	144.0	134.5	120.4	104.2	90.21	77.17	66.67	57.23	50.32	49.34	47.04	33.77	24.57	19.82	16.91	13.88	12.37	10.63	8.964	9.983	14.66	28.58	147.4	704.3	871.7	28.68	4.081	2.873	2.768	2.816	2.561	2.253	2.457	2.049	2.317	2.028	2.009	1.915	1.876	1.750	1.887	1.679	1.657	1.835	1.720	1.668	1.869	1.730
490.0	238.3	343.3	350.6	462.5	1405	1686	607.6	477.9	444.4	393.7	363.2	339.3	303.9	274.5	242.8	222.3	204.8	192.3	181.3	170.5	160.2	153.9	151.7	148.7	146.1	143.3	139.5	138.1	135.0	130.2	121.7	109.3	97.24	83.60	72.67	63.29	54.37	47.53	42.27	43.44	38.82	27.82	21.01	17.70	14.96	12.88	11.04	9.425	8.023	7.971	10.47	36.64	183.7	533.6	746.4	328.4	12.83	2.922	2.527	2.334	2.200	2.137	1.982	2.012	1.984	1.940	1.921	1.725	1.557	1.699	1.642	1.592	1.566	1.722	1.471	1.725	1.499
495.0	198.6	319.5	348.3	354.5	657.4	1870	1116	427.8	386.3	353.1	327.1	305.4	274.9	246.1	218.9	197.9	182.3	169.8	159.7	150.6	140.4	132.7	131.8	130.5	127.1	124.6	122.9	121.0	120.1	116.9	109.3	98.51	87.77	76.81	66.97	59.17	49.86	44.46	38.61	35.86	36.52	33.37	23.59	18.62	15.26	13.19	11.19	9.756	8.280	6.648	6.715	11.88	44.20	123.0	335.5	895.6	232.5	16.13	2.560	2.429	2.333	2.027	1.992	1.746	1.807	1.576	1.550	1.691	1.501	1.665	1.499	1.427	1.425	1.420	1.419	1.414	1.336
500.0	178.4	263.7	348.4	325.5	408.0	1317	1752	469.9	358.0	325.2	298.7	276.2	249.6	221.3	196.4	175.3	161.0	151.4	146.8	136.1	128.0	120.7	118.7	116.7	113.7	112.9	110.4	109.3	108.2	104.5	98.60	89.78	79.97	70.18	61.66	55.44	47.62	41.52	36.07	32.09	31.74	34.09	26.82	19.18	15.46	13.58	11.63	9.732	8.358	6.865	6.063	6.453	13.29	30.56	81.51	431.3	901.5	209.2	10.31	2.484	2.127	1.824	1.843	1.776	1.559	1.466	1.536	1.507	1.546	1.461	1.463	1.346	1.308	1.350	1.246	1.223	1.307
505.0	159.1	239.5	328.0	312.0	315.1	710.3	2021	762.3	326.9	295.5	268.9	255.5	224.5	203.8	176.6	160.5	147.2	136.9	133.7	121.9	112.4	109.6	105.6	106.9	102.6	101.3	99.57	98.27	97.78	95.45	89.75	82.14	73.64	64.21	56.30	51.20	43.56	39.11	34.01	29.15	27.48	30.22	29.48	21.10	15.34	13.41	11.54	9.936	8.481	7.192	5.960	5.498	6.385	10.09	21.19	107.7	538.2	844.0	166.6	4.907	2.101	1.987	1.737	1.705	1.469	1.566	1.556	1.547	1.372	1.432	1.355	1.262	1.277	1.332	1.246	1.304	1.296
510.0	138.7	186.2	273.2	314.6	281.8	377.4	1333	1561	387.6	260.3	242.1	225.2	198.4	176.8	155.7	138.7	127.7	118.9	114.4	106.0	98.38	93.09	92.20	91.48	88.52	88.08	87.10	86.55	85.61	83.35	78.84	71.91	65.41	57.82	51.71	45.75	39.59	35.39	31.47	27.60	24.75	23.94	25.96	24.42	17.18	13.29	11.24	9.727	8.135	7.075	6.371	5.362	4.946	5.397	7.602	26.65	133.4	425.9	641.3	291.2	13.40	1.933	1.675	1.563	1.485	1.435	1.405	1.342	1.153	1.352	1.099	1.189	1.124	1.089	1.074	1.172	1.117
515.0	120.8	149.5	206.7	294.6	265.3	267.3	557.1	1836	899.1	233.4	211.0	196.1	174.3	153.5	136.2	119.6	108.9	102.1	95.88	91.39	83.29	79.96	78.37	76.90	75.77	74.29	73.37	73.44	72.21	71.54	67.32	62.68	57.76	50.48	44.74	40.06	35.21	32.23	28.41	24.79	22.12	20.86	19.94	22.52	19.97	13.82	10.84	9.265	8.076	6.840	6.226	5.393	4.741	4.307	4.648	8.400	32.38	97.28	222.6	639.0	238.2	17.61	1.872	1.546	1.402	1.277	1.210	1.213	1.165	1.153	1.164	1.006	1.079	0.899	0.951	1.061	0.962
520.0	109.3	138.2	179.9	248.3	259.9	228.9	298.1	1295	1623	277.6	190.8	174.6	156.9	137.0	120.4	105.6	96.76	92.52	85.30	80.02	75.45	70.53	69.05	68.09	65.80	64.84	65.25	64.29	63.49	62.65	60.69	55.51	51.53	45.02	40.49	36.25	33.56	29.46	25.98	23.75	20.20	19.10	17.15	19.10	20.22	15.86	11.03	9.091	7.949	6.629	5.825	5.472	5.171	4.284	4.019	4.399	9.798	23.93	52.94	268.3	644.1	214.8	11.01	1.634	1.296	1.250	1.044	1.106	1.058	1.090	1.069	0.896	0.944	0.855	0.951	1.038	0.986
525.0	89.13	130.1	151.6	200.1	266.7	205.1	221.7	629.9	2056	578.3	178.1	155.7	139.1	120.6	108.4	94.94	87.41	81.62	75.55	72.35	68.35	64.58	60.51	60.26	59.03	57.58	58.30	57.24	57.61	56.34	54.68	50.34	44.97	40.97	36.90	32.92	30.41	26.66	23.79	22.16	19.00	17.65	15.96	15.17	17.78	17.61	12.11	9.107	7.589	6.192	5.604	5.283	5.344	4.412	3.840	3.711	4.682	7.589	14.00	65.18	328.8	617.1	168.4	5.186	1.406	1.199	1.020	1.054	0.949	1.024	0.925	0.922	0.856	0.888	0.939	0.931	0.913
530.0	88.06	102.8	125.9	153.2	233.1	215.1	184.7	285.4	1353	1541	219.5	136.9	122.1	106.0	93.41	82.47	75.16	69.98	65.25	61.72	58.34	54.89	53.75	51.84	50.72	50.23	49.04	49.03	49.95	48.39	47.68	43.04	38.88	35.88	31.99	28.74	26.49	23.79	20.97	19.35	17.07	15.75	14.47	13.08	13.35	15.38	14.09	10.04	7.320	5.905	5.311	4.941	4.662	4.484	3.878	3.381	3.385	3.758	5.188	16.50	79.08	270.6	445.2	226.6	13.70	1.290	1.094	1.016	0.910	0.931	0.850	0.833	0.843	0.800	0.797	0.772	0.949
535.0	84.64	93.18	104.9	124.3	185.6	223.6	165.1	181.3	477.5	1909	785.7	124.1	106.4	90.46	79.39	69.51	64.48	60.64	55.66	52.53	48.78	46.32	44.81	44.17	43.85	42.03	41.27	41.63	41.54	42.06	40.45	36.33	33.54	30.29	27.55	24.68	22.82	20.55	18.56	17.32	15.61	14.24	13.29	11.52	10.78	11.50	12.69	11.45	8.001	5.679	5.204	4.626	4.216	3.963	3.993	3.718	3.113	2.795	3.061	5.413	19.40	61.71	136.3	417.9	237.9	18.22	1.442	1.034	0.851	0.901	0.823	0.802	0.764	0.706	0.751	0.702	0.743
540.0	70.20	81.80	95.02	103.0	136.5	211.1	165.9	139.1	207.5	1265	1609	165.8	94.85	82.49	69.93	63.24	56.27	54.30	47.22	46.00	42.09	40.31	38.79	38.35	37.41	37.30	36.19	36.63	36.94	36.95	35.48	31.99	29.78	26.79	24.70	22.20	20.21	19.04	16.16	15.65	14.05	12.84	12.01	10.38	9.661	9.213	10.68	11.39	8.746	5.868	4.732	4.402	4.011	3.662	3.663	3.649	3.233	2.562	2.566	2.926	6.096	15.21	32.27	159.5	446.0	201.1	11.00	1.096	0.920	0.878	0.729	0.689	0.734	0.681	0.646	0.730	0.666
545.0	69.27	80.07	85.47	97.16	106.5	177.8	174.1	120.0	130.1	536.7	2082	406.8	84.44	70.80	61.91	56.01	51.00	45.56	42.66	40.35	36.86	35.79	33.88	33.46	33.09	32.80	31.51	31.61	32.45	32.40	30.66	27.73	26.52	22.71	21.65	20.24	17.77	16.81	15.10	13.70	13.01	11.43	10.37	9.587	9.159	8.156	8.573	9.903	9.532	6.535	4.644	4.067	3.636	3.498	3.209	3.488	3.235	2.472	2.443	2.152	3.044	4.764	8.474	38.01	206.5	431.4	142.6	3.883	1.053	0.751	0.790	0.729	0.659	0.631	0.645	0.597	0.619
550.0	60.08	66.48	70.99	81.78	88.03	128.2	177.1	113.6	98.26	195.5	1291	1312	124.4	60.06	52.16	46.25	41.66	38.68	36.31	33.95	30.13	29.18	28.55	28.20	27.50	26.75	26.60	26.36	26.31	27.02	25.66	23.16	21.93	19.75	17.71	16.65	15.13	14.06	12.58	11.74	10.71	9.808	9.078	8.276	7.855	6.848	6.804	7.157	8.239	7.131	4.955	3.732	3.250	3.153	2.858	2.815	2.968	2.671	2.259	2.044	2.060	2.244	3.152	9.646	49.23	178.5	302.3	137.2	12.85	0.942	0.768	0.643	0.654	0.656	0.687	0.582	0.600
555.0	61.28	58.39	61.67	70.63	71.00	86.55	146.3	128.2	82.86	101.9	396.6	1760	517.1	53.53	43.30	38.28	34.09	31.56	28.55	26.49	24.46	24.01	22.74	21.84	22.35	22.32	22.27	21.50	21.34	21.82	21.06	18.70	17.60	16.40	14.56	13.39	12.44	11.27	10.33	9.230	8.803	8.363	7.509	7.039	6.357	5.799	5.464	5.165	5.686	6.593	5.504	3.738	2.889	2.842	2.444	2.502	2.619	2.503	2.273	1.908	1.595	1.593	1.916	3.123	11.92	40.78	90.54	261.8	201.7	15.52	0.786	0.692	0.590	0.641	0.612	0.481	0.551
560.0	54.64	52.78	57.21	59.48	60.54	69.14	107.5	140.1	74.13	71.32	141.1	1156	1227	76.69	36.33	31.14	29.34	26.87	23.81	23.52	21.38	20.93	19.49	19.07	18.62	18.68	18.39	18.29	18.24	17.70	17.40	15.90	14.71	13.54	12.53	11.58	10.38	9.766	9.100	7.684	7.617	7.219	6.608	5.972	5.579	5.094	4.897	4.316	4.262	5.195	5.545	3.973	2.811	2.529	2.325	2.135	2.194	2.094	2.294	1.994	1.454	1.424	1.525	1.717	3.563	10.09	21.31	98.98	285.9	143.3	7.259	0.735	0.659	0.594	0.561	0.534	0.501
565.0	54.91	53.83	50.87	54.02	54.16	58.40	75.77	134.9	77.69	59.03	73.37	459.0	1717	154.0	32.23	28.14	24.90	23.02	21.51	20.02	18.20	17.67	16.48	16.24	15.84	15.75	15.93	15.53	15.97	15.48	14.73	13.78	12.87	11.91	10.94	9.951	9.088	8.388	7.919	6.783	6.832	6.181	5.627	5.296	5.059	4.473	4.335	3.793	3.611	3.853	4.417	4.015	2.794	2.332	2.314	1.935	1.971	1.829	1.924	2.213	1.653	1.427	1.269	1.372	1.781	3.249	5.626	23.74	126.6	262.3	34.36	2.630	0.665	0.521	0.574	0.573	0.464
570.0	49.91	53.80	45.95	45.96	47.20	50.39	56.85	100.7	101.3	53.65	53.49	145.4	1099	921.7	60.00	23.30	20.53	19.47	16.92	15.86	15.20	14.23	13.54	13.68	13.35	12.67	12.73	12.47	12.85	12.71	11.90	10.95	10.56	9.463	8.741	8.100	7.595	6.822	6.217	5.875	5.488	5.108	4.912	4.369	4.368	3.875	3.674	3.115	2.958	2.878	3.235	3.659	3.261	2.363	1.997	1.752	1.790	1.662	1.662	1.840	1.793	1.437	1.190	1.214	1.352	1.610	2.096	6.199	30.00	104.4	165.8	97.29	10.22	0.634	0.543	0.498	0.477
575.0	56.45	51.61	42.51	40.14	38.44	40.67	43.75	63.40	115.3	58.91	46.34	63.12	320.1	1357	332.1	20.35	16.37	15.91	13.59	12.96	11.71	11.43	11.09	10.35	10.34	10.08	9.714	9.928	10.03	10.06	9.606	8.669	8.323	7.483	6.921	6.736	6.102	5.443	4.990	4.731	4.445	4.270	3.747	3.650	3.505	3.348	3.116	2.872	2.564	2.431	2.233	2.596	3.249	2.479	1.861	1.655	1.514	1.377	1.424	1.270	1.606	1.709	1.231	1.070	1.110	1.183	1.298	2.186	7.439	23.94	49.54	152.0	124.9	11.23	0.534	0.524	0.500
580.0	49.86	52.32	46.98	36.76	34.79	34.07	38.11	45.06	98.04	74.45	41.85	42.55	101.4	890.8	851.0	32.69	14.69	13.37	11.92	11.28	10.24	9.758	9.278	8.914	8.161	8.500	8.229	8.387	8.329	8.405	7.968	7.698	7.300	6.870	5.804	5.625	4.936	4.897	4.728	4.236	3.814	3.711	3.217	3.220	2.912	2.836	2.701	2.488	2.205	2.006	1.820	1.897	2.598	2.602	1.841	1.512	1.354	1.204	1.275	1.142	1.294	1.647	1.516	1.110	1.067	1.040	1.137	1.302	2.387	6.072	11.85	55.96	167.0	88.16	4.651	0.572	0.452
585.0	43.82	45.97	44.75	35.80	35.76	31.44	32.96	36.53	68.99	90.94	43.97	38.90	48.93	339.8	1229	95.56	13.32	11.65	10.81	10.15	9.081	8.029	8.105	7.996	7.301	7.414	7.258	7.274	7.089	6.975	6.876	6.427	5.972	5.581	5.096	4.775	4.542	4.241	3.907	3.609	3.412	3.375	2.803	2.836	2.587	2.481	2.277	2.181	1.938	1.701	1.609	1.620	1.787	2.545	1.940	1.509	1.151	1.169	1.109	1.132	1.066	1.240	1.562	1.211	1.099	1.065	0.972	0.898	1.149	2.069	3.375	13.44	71.88	157.1	32.27	1.838	0.509
590.0	52.16	47.06	40.13	33.58	29.21	27.25	28.68	30.09	44.70	90.64	57.12	35.67	35.56	99.85	781.2	596.8	26.62	9.481	9.057	8.178	7.263	7.120	6.468	6.452	6.294	6.214	6.104	5.816	5.568	5.774	5.668	5.222	4.921	4.571	4.311	3.945	3.729	3.424	3.190	2.901	2.888	2.693	2.295	2.303	2.228	2.134	1.894	1.807	1.618	1.454	1.457	1.314	1.365	1.777	1.978	1.700	1.218	1.089	0.978	1.015	0.887	0.982	1.193	1.255	1.138	0.956	0.886	0.872	0.886	1.023	1.388	3.608	17.05	61.52	101.5	63.69	8.317
595.0	47.84	47.95	41.78	30.96	28.36	24.53	26.84	29.19	34.40	65.88	81.63	37.94	31.46	40.92	225.6	895.4	95.93	8.148	6.995	6.614	5.949	5.407	5.234	5.149	5.272	4.922	5.112	4.826	4.714	4.806	4.807	4.531	4.005	3.691	3.634	3.145	2.869	2.849	2.652	2.573	2.318	2.087	1.963	2.026	1.844	1.828	1.737	1.491	1.435	1.236	1.187	1.196	1.115	1.121	1.559	1.761	1.352	0.976	0.839	0.845	0.874	0.815	0.912	0.953	1.123	0.922	0.822	0.777	0.670	0.761	0.904	1.317	4.227	14.17	29.73	93.21	77.62
600.0	46.83	44.55	44.86	32.39	25.31	24.93	27.29	28.15	32.14	50.84	90.61	46.52	33.13	29.21	66.29	618.9	479.2	14.24	6.696	5.657	5.235	5.092	4.776	4.540	4.513	4.172	4.264	4.000	3.998	4.147	3.830	3.562	3.559	3.291	2.986	2.608	2.593	2.379	2.051	2.114	2.017	1.895	1.861	1.803	1.799	1.516	1.530	1.392	1.235	1.046	1.085	1.029	1.031	0.914	1.160	1.587	1.374	1.020	0.770	0.800	0.815	0.828	0.814	0.799	0.982	1.188	0.758	0.723	0.622	0.639	0.744	0.696	1.396	3.678	7.038	33.11	101.1
605.0	46.01	47.09	38.09	37.72	23.98	26.99	25.69	30.78	35.17	44.33	94.10	69.01	40.86	30.69	33.86	247.6	745.3	57.41	6.469	5.259	4.765	4.693	4.109	3.962	3.774	3.547	3.592	3.697	3.506	3.651	3.492	3.040	3.086	2.759	2.626	2.301	2.255	2.041	1.862	1.821	1.752	1.535	1.553	1.468	1.446	1.323	1.303	1.230	1.061	0.999	0.949	0.839	0.861	0.921	0.932	1.214	1.414	1.187	0.858	0.794	0.823	0.783	0.814	0.737	0.782	1.149	1.134	0.766	0.724	0.681	0.730	0.610	0.717	1.335	2.026	8.056	42.60
610.0	47.53	50.53	42.98	36.01	29.06	28.02	34.29	39.53	47.11	55.22	86.06	100.8	59.75	43.17	36.66	81.31	540.1	360.2	12.09	4.689	3.970	3.813	3.360	3.382	3.140	2.944	3.121	2.969	2.935	2.993	2.993	2.663	2.495	2.411	2.223	1.919	1.804	1.809	1.719	1.604	1.396	1.339	1.346	1.281	1.258	1.284	1.133	1.020	0.949	0.950	0.831	0.768	0.846	0.826	0.851	0.904	1.077	1.244	0.965	0.805	0.804	0.719	0.779	0.880	0.833	0.928	1.035	1.086	0.841	0.779	0.714	0.693	0.671	0.831	0.880	2.268	10.15
615.0	45.43	53.82	48.92	38.42	33.19	32.29	34.29	41.92	52.18	61.30	77.97	111.3	80.99	51.50	41.49	41.43	175.2	602.8	67.01	4.160	3.275	3.229	2.893	2.752	2.521	2.285	2.358	2.509	2.392	2.363	2.448	2.332	2.053	1.844	1.759	1.629	1.605	1.523	1.388	1.319	1.190	1.174	1.018	0.964	1.063	0.989	0.934	0.872	0.869	0.797	0.697	0.750	0.763	0.687	0.752	0.764	0.820	1.047	1.183	0.854	0.804	0.722	0.830	0.771	0.753	0.726	0.879	1.071	0.920	0.811	0.717	0.657	0.645	0.672	0.657	0.914	2.732
620.0	43.09	49.44	51.10	35.68	33.00	31.24	33.11	43.95	52.91	59.55	71.05	100.6	93.90	52.94	41.41	32.28	61.98	460.0	287.9	6.329	3.051	3.031	2.662	2.554	2.546	2.207	2.036	2.145	1.862	2.115	1.961	2.010	1.897	1.613	1.457	1.430	1.568	1.357	1.271	1.172	0.900	1.166	0.949	0.889	0.938	0.804	0.859	0.797	0.811	0.740	0.614	0.632	0.670	0.625	0.641	0.670	0.669	0.944	0.944	0.877	0.775	0.813	0.924	0.709	0.701	0.672	0.818	0.895	0.936	0.861	0.687	0.626	0.613	0.556	0.643	0.599	1.038
625.0	52.56	45.98	43.83	37.47	31.52	29.94	35.19	41.17	50.28	59.13	65.09	84.81	95.22	57.00	41.26	29.49	34.53	203.9	500.9	25.87	2.598	2.559	2.376	2.329	2.286	2.196	1.835	1.989	1.889	1.909	1.867	1.596	1.647	1.400	1.357	1.260	1.258	1.175	1.060	0.967	0.867	0.942	0.810	0.808	0.910	0.719	0.799	0.745	0.730	0.679	0.607	0.606	0.727	0.583	0.557	0.587	0.676	0.777	0.823	0.952	0.732	0.773	0.770	0.625	0.731	0.656	0.663	0.788	0.823	0.973	0.751	0.684	0.559	0.571	0.575	0.630	0.646
630.0	44.37	50.58	45.76	39.84	31.60	30.01	34.99	42.06	46.10	55.39	63.54	73.43	89.75	66.64	41.52	29.57	27.56	61.96	396.1	189.9	5.208	2.297	2.146	2.063	1.865	1.743	1.629	1.628	1.626	1.547	1.615	1.447	1.512	1.260	1.210	1.211	1.038	1.051	0.998	0.842	0.848	0.892	0.729	0.734	0.704	0.735	0.646	0.670	0.610	0.587	0.510	0.551	0.603	0.521	0.567	0.587	0.606	0.576	0.722	0.816	0.849	0.703	0.644	0.655	0.645	0.656	0.684	0.711	0.734	0.786	0.799	0.655	0.580	0.572	0.573	0.472	0.523
635.0	48.93	54.98	50.35	40.82	33.53	29.15	34.97	38.00	44.64	52.27	61.88	69.31	78.17	78.41	45.19	29.74	27.35	25.70	127.5	418.7	43.53	2.150	2.134	1.822	1.559	1.623	1.487	1.553	1.597	1.347	1.354	1.343	1.222	1.240	1.061	0.951	0.944	0.887	1.012	0.793	0.906	0.754	0.676	0.688	0.595	0.615	0.623	0.641	0.589	0.545	0.492	0.506	0.579	0.541	0.472	0.551	0.527	0.578	0.519	0.641	0.696	0.697	0.756	0.596	0.608	0.652	0.697	0.604	0.670	0.685	0.781	0.835	0.629	0.594	0.591	0.462	0.514
640.0	43.61	57.34	48.34	38.04	33.41	31.36	35.83	38.43	43.19	52.61	60.24	66.44	66.38	74.79	49.73	30.78	26.18	17.29	35.94	355.6	177.6	2.957	1.877	1.440	1.590	1.435	1.361	1.301	1.191	1.314	1.145	1.061	1.071	1.113	0.933	0.877	0.830	0.877	0.789	0.779	0.726	0.724	0.669	0.622	0.540	0.628	0.612	0.510	0.470	0.517	0.466	0.539	0.475	0.418	0.463	0.459	0.480	0.516	0.489	0.656	0.576	0.659	0.743	0.641	0.537	0.598	0.700	0.579	0.673	0.666	0.656	0.815	0.738	0.581	0.489	0.458	0.568
645.0	43.20	61.47	46.59	40.72	32.59	30.35	35.79	34.34	43.55	51.45	59.44	62.46	64.18	69.15	55.01	31.37	24.53	15.61	12.85	171.6	343.2	13.17	1.783	1.504	1.320	1.238	1.160	1.162	1.149	1.196	1.130	0.884	0.996	1.082	0.853	0.778	0.818	0.847	0.756	0.675	0.667	0.703	0.559	0.605	0.548	0.543	0.569	0.583	0.507	0.466	0.392	0.499	0.387	0.472	0.504	0.445	0.471	0.519	0.464	0.525	0.569	0.652	0.724	0.668	0.502	0.614	0.715	0.654	0.667	0.592	0.553	0.686	0.795	0.564	0.519	0.437	0.551
650.0	53.29	58.07	54.71	42.43	32.73	31.87	35.30	35.30	42.40	49.61	54.97	58.82	59.87	59.46	58.11	32.37	24.83	14.76	7.834	52.75	372.3	57.61	1.870	1.205	1.366	1.135	1.154	1.068	0.973	1.021	1.015	0.981	0.894	1.053	0.798	0.835	0.789	0.683	0.649	0.641	0.611	0.635	0.524	0.530	0.484	0.467	0.522	0.541	0.469	0.378	0.408	0.510	0.441	0.517	0.484	0.472	0.394	0.514	0.425	0.466	0.545	0.583	0.656	0.660	0.587	0.471	0.604	0.625	0.678	0.647	0.587	0.591	0.809	0.706	0.531	0.477	0.584
