Sample:	'1
File name:	L20250808ÀûºÓÂ·ÇÅ.FD3
Run date:	'14:31:25, 08/09/2025
Operator:	Administrator
Comment:	'

Instrument
Model:	F-2700 FL Spectrophotometer
Serial number:	3064-004
ROM Version:	4J14000 07

Instrument parameters
Measurement type:	3-D scan
Data mode:	Fluorescence
EX  Start WL:	220.0 nm
EX  End WL:	600.0 nm
EX Sampling interval:	5.0 nm
EM  Start WL:	230.0 nm
EM  End WL:	650.0 nm
EM Sampling interval:	5.0 nm
Scan speed:	12000 nm/min
EX Slit:	5.0 nm
EM Slit:	5.0 nm
PMT Voltage:	700 V
Response:	Auto 
Corrected spectra:	Off
Contour interval:	50.000

Peak integration
Integration method:	Rectangular
Sensitivity:	1
Threshold:	1.000

Peaks
No.	ApexEX/EM(nm)	Height(Data)
1	225.0/585.0	47.11
2	235.0/350.0	 1207
3	235.0/615.0	34.02
4	235.0/625.0	32.17
5	235.0/640.0	25.28
6	245.0/265.0	300.3
7	245.0/635.0	26.27
8	250.0/540.0	294.9
9	255.0/280.0	582.1
10	255.0/555.0	247.8
11	260.0/285.0	787.2
12	260.0/565.0	212.3
13	265.0/290.0	921.9
14	265.0/580.0	195.8
15	270.0/295.0	 1336
16	270.0/395.0	 2041
17	270.0/590.0	157.7
18	275.0/305.0	 1723
19	275.0/385.0	 2045
20	275.0/605.0	156.3
21	280.0/310.0	 1777
22	280.0/380.0	 2033
23	280.0/615.0	135.9
24	285.0/315.0	 1782
25	285.0/630.0	108.7
26	290.0/325.0	 1681
27	290.0/640.0	86.26
28	500.0/420.0	7.619
29	505.0/275.0	2.668
30	510.0/280.0	3.390
31	520.0/285.0	4.052
32	530.0/290.0	4.012
33	540.0/295.0	5.550
34	545.0/300.0	6.918
35	550.0/305.0	7.739
36	560.0/310.0	7.849
37	560.0/385.0	9.076
38	570.0/315.0	8.426
39	575.0/320.0	7.943
40	580.0/325.0	7.897

Data points
	220.0	225.0	230.0	235.0	240.0	245.0	250.0	255.0	260.0	265.0	270.0	275.0	280.0	285.0	290.0	295.0	300.0	305.0	310.0	315.0	320.0	325.0	330.0	335.0	340.0	345.0	350.0	355.0	360.0	365.0	370.0	375.0	380.0	385.0	390.0	395.0	400.0	405.0	410.0	415.0	420.0	425.0	430.0	435.0	440.0	445.0	450.0	455.0	460.0	465.0	470.0	475.0	480.0	485.0	490.0	495.0	500.0	505.0	510.0	515.0	520.0	525.0	530.0	535.0	540.0	545.0	550.0	555.0	560.0	565.0	570.0	575.0	580.0	585.0	590.0	595.0	600.0
230.0	10.95	403.3	 3079	 1847	111.9	3.460	3.670	3.895	2.312	2.825	3.386	3.012	3.346	2.898	3.145	2.775	2.589	2.259	2.148	2.158	1.763	1.609	1.608	1.393	1.433	1.342	1.100	1.022	1.072	0.909	0.929	0.854	0.776	0.826	0.718	0.635	0.758	0.764	0.592	0.578	0.490	0.525	0.634	0.506	0.431	0.411	1.458	5.432	10.10	8.534	3.528	0.692	0.355	0.232	0.201	0.221	0.240	0.147	0.238	0.083	0.047	0.060	0.071	0.125	0.021	-0.036	0.091	0.011	-0.013	0.008	-0.051	-0.047	-0.044	-0.050	-0.038	-0.069	-0.014
235.0	33.66	106.4	 1246	 3342	 1109	162.6	7.618	3.215	2.623	4.340	4.876	1.995	3.470	3.458	3.392	2.117	2.972	1.954	2.228	2.552	1.776	2.133	1.397	1.514	1.228	1.175	1.398	1.335	0.964	0.623	0.868	0.939	0.665	0.653	0.516	0.610	0.655	0.730	0.515	0.495	0.559	0.303	0.643	0.490	0.470	0.644	0.708	1.634	3.791	7.193	9.782	10.26	5.528	1.207	0.171	0.165	0.248	0.166	0.128	0.304	-0.026	0.043	0.069	0.173	0.034	0.005	0.275	0.112	-0.024	-0.069	-0.028	-0.016	-0.095	-0.107	0.052	-0.056	-0.023
240.0	38.04	68.43	307.1	 1830	 4302	958.4	84.24	7.321	4.708	3.989	5.809	3.383	4.766	4.996	3.841	3.166	3.260	2.989	1.260	2.106	2.084	2.327	1.532	1.728	1.329	1.616	1.349	1.340	1.106	1.096	1.164	0.590	0.539	0.777	0.803	0.793	0.540	0.585	0.811	0.511	0.496	0.440	0.759	0.465	0.541	0.534	0.464	0.837	1.175	2.269	4.813	12.33	15.45	11.05	3.898	0.688	0.290	0.080	0.130	0.200	0.148	0.071	0.092	0.139	0.036	0.168	0.054	0.103	-0.072	-0.063	-0.009	-0.088	0.048	-0.094	-0.032	0.027	-0.090
245.0	20.47	80.95	122.1	476.8	 2873	 5128	784.0	40.93	5.844	5.422	5.961	3.508	5.647	5.006	3.977	3.184	2.839	3.096	1.406	2.889	2.244	1.772	1.851	1.640	1.578	1.471	1.632	1.317	1.589	1.221	1.160	0.720	0.726	0.890	0.663	0.674	0.612	0.461	0.904	0.555	0.562	0.553	0.674	0.566	0.766	0.573	0.606	0.836	0.675	0.790	1.559	4.098	9.771	17.03	18.10	10.09	2.670	0.283	0.037	0.331	0.251	0.086	0.093	0.099	0.026	0.078	-0.006	-0.013	-0.078	-0.066	-0.099	-0.058	-0.074	-0.114	-0.099	0.083	-0.140
250.0	5.862	43.25	125.6	191.9	747.1	 2940	 5307	 2849	229.7	9.347	6.563	5.842	6.514	5.898	3.970	3.002	3.428	2.295	2.170	2.510	2.203	1.784	2.097	1.451	1.751	1.352	1.518	1.378	1.379	1.386	1.079	0.826	1.051	0.740	0.607	0.690	0.652	0.535	0.798	0.535	0.767	0.576	0.657	0.482	0.567	0.423	0.353	0.778	0.786	0.915	0.959	1.350	2.418	5.124	10.29	15.23	20.07	17.32	9.739	3.069	0.463	0.140	0.146	0.148	0.086	0.063	0.039	0.169	0.002	0.060	-0.011	-0.070	-0.055	-0.007	-0.088	-0.017	-0.100
255.0	5.146	11.95	62.35	212.6	285.6	682.2	 2170	 7320	 4374	315.2	11.91	11.62	7.693	7.357	6.010	4.458	3.873	2.588	2.410	2.555	2.891	2.020	2.306	1.513	1.329	1.387	1.743	1.110	1.070	1.256	1.050	0.836	0.871	1.026	0.613	0.973	0.842	0.607	0.957	0.362	0.726	0.626	0.609	0.539	0.656	0.452	0.432	0.488	0.613	0.735	1.372	1.254	0.939	1.415	2.581	3.636	6.888	16.95	29.69	32.20	16.48	3.506	0.301	0.137	0.144	0.199	0.050	0.039	-0.055	0.017	0.026	-0.005	-0.034	0.072	-0.065	-0.117	-0.027
260.0	3.638	7.500	20.87	121.6	289.6	233.7	530.0	 3494	 9895	 3796	202.2	15.10	10.12	6.574	6.236	4.981	4.367	2.909	2.435	2.754	2.998	2.245	2.449	1.425	2.139	2.011	1.448	1.443	1.306	1.225	1.079	1.020	0.680	0.849	0.935	0.744	0.675	0.548	0.789	0.435	0.466	0.640	0.640	0.595	0.406	0.448	0.421	0.396	0.491	0.398	0.795	1.494	1.543	1.149	0.894	1.101	1.979	4.790	12.34	30.41	41.36	33.62	12.66	1.567	0.124	0.138	0.088	0.165	0.002	0.091	-0.008	0.177	0.047	-0.015	0.026	-0.106	0.047
265.0	5.237	9.371	9.024	43.74	220.2	300.3	164.8	895.0	 5591	9999.9	 3102	89.99	15.66	9.174	6.651	6.268	4.819	3.309	3.948	3.880	2.492	3.063	2.350	1.817	1.755	1.892	1.514	1.778	1.441	1.420	1.298	1.059	0.863	0.975	0.643	0.813	0.758	0.510	0.537	0.339	0.595	0.630	0.602	0.390	0.507	0.616	0.606	0.384	0.570	0.384	0.593	0.738	1.139	1.893	1.259	0.786	0.715	1.409	3.165	8.777	20.66	41.26	50.42	31.81	8.731	0.507	0.026	0.027	0.098	0.088	0.060	0.087	0.076	-0.006	-0.050	-0.050	-0.048
270.0	16.97	18.99	21.02	21.46	77.50	264.3	343.5	288.9	 1418	 5363	9999.9	 6945	189.9	16.26	10.97	7.509	6.576	4.192	4.076	3.523	2.654	3.173	2.503	2.309	2.104	1.896	2.002	1.811	1.752	1.351	1.250	1.235	1.140	0.992	0.846	0.823	0.684	0.876	0.702	0.572	0.482	0.588	0.608	0.559	0.562	0.664	0.635	0.462	0.572	0.530	0.520	0.366	0.510	0.954	1.487	1.885	1.713	1.095	1.143	2.266	5.062	11.68	23.51	39.79	46.64	46.67	23.10	6.647	0.483	0.148	0.173	0.054	0.071	0.071	0.071	-0.030	-0.037
275.0	58.69	69.46	45.43	34.21	40.54	89.74	333.6	486.0	431.0	 1309	 3723	9999.9	9999.9	239.4	18.99	12.02	6.958	6.087	5.122	4.792	2.968	3.471	2.899	2.583	2.587	2.532	2.264	2.095	1.947	1.917	1.627	1.472	1.295	1.245	1.062	1.259	0.846	0.780	0.810	0.602	0.735	0.593	0.854	0.701	0.804	0.781	0.776	0.571	0.662	0.647	0.414	0.474	0.409	0.501	0.532	1.031	1.624	2.668	2.593	1.316	1.535	3.063	5.734	9.666	14.47	34.65	73.80	53.79	32.85	6.615	0.352	0.042	0.300	0.158	0.047	0.060	0.022
280.0	102.8	113.0	102.4	60.90	42.27	48.26	170.5	582.1	491.2	440.6	 1036	 4698	9999.9	 9213	152.8	16.72	9.246	7.570	6.397	5.727	4.657	3.856	2.935	2.535	2.341	2.770	1.939	2.129	2.040	1.730	1.374	1.505	1.363	1.266	1.011	1.098	0.843	0.836	1.045	0.991	1.051	0.873	0.873	1.008	1.030	0.944	1.037	1.003	1.024	0.582	0.451	0.561	0.380	0.564	0.616	0.638	0.998	1.754	3.390	3.104	1.818	1.548	1.858	2.993	4.042	9.070	26.42	56.32	92.85	51.50	22.85	1.750	0.217	0.215	0.025	-0.005	0.152
285.0	133.1	173.2	149.1	110.1	61.15	67.81	115.1	360.2	787.2	442.3	479.8	 1361	 6579	9999.9	 2047	82.69	12.00	10.16	7.492	6.260	5.370	3.593	3.034	2.732	2.319	2.840	2.230	2.301	1.986	1.892	1.820	1.722	1.248	1.310	1.275	1.188	1.058	1.369	1.357	1.005	1.519	1.074	1.104	1.160	1.122	1.299	1.294	1.259	1.042	0.851	0.781	0.707	0.396	0.519	0.679	0.632	0.588	0.962	1.904	3.173	4.052	2.527	1.499	1.492	2.073	3.422	6.916	15.62	41.42	82.09	107.6	42.42	10.27	0.444	0.067	0.145	0.049
290.0	193.7	238.0	249.3	176.7	118.1	120.9	143.0	239.6	560.7	921.9	703.8	713.8	 1906	 6152	9999.9	 7670	116.2	16.98	10.93	7.693	5.975	4.846	3.918	3.488	2.970	2.840	2.610	2.328	2.300	2.049	1.714	1.558	1.611	1.259	1.340	1.202	1.332	1.738	1.411	1.209	1.288	1.374	1.209	1.343	1.365	1.483	1.562	1.665	1.411	1.254	0.988	0.860	0.797	0.669	0.864	0.680	0.900	0.937	1.334	1.668	2.778	3.456	4.012	3.267	2.696	2.553	3.130	5.190	10.94	22.45	45.09	63.41	63.14	70.88	26.83	10.13	0.635
295.0	240.5	306.1	327.5	260.9	200.3	197.3	201.4	253.3	411.7	737.1	 1336	912.5	950.8	 1738	 3344	9999.9	9999.9	154.3	16.32	10.51	7.235	6.124	5.654	3.793	3.570	3.127	3.319	3.004	2.511	2.057	1.817	1.723	1.573	1.416	1.428	1.533	1.564	1.462	1.598	1.441	1.341	1.412	1.479	1.456	1.649	1.834	1.875	1.954	2.029	1.431	1.293	1.057	1.086	1.020	1.079	0.836	1.187	0.969	1.241	1.733	2.186	2.460	2.937	4.649	5.550	4.850	3.070	3.712	4.334	7.032	11.36	15.48	18.68	48.84	109.2	128.1	40.31
300.0	263.7	319.9	358.5	317.8	235.3	248.6	262.8	322.6	427.5	634.4	 1251	 1527	947.5	881.8	 1069	 4246	9999.9	 8198	107.0	14.70	10.30	6.619	6.340	4.583	4.200	3.385	3.361	3.021	3.002	2.279	2.099	2.102	1.667	1.405	1.429	1.600	1.806	1.505	1.898	1.560	1.442	1.784	1.771	1.544	1.758	1.864	2.150	1.754	1.946	1.583	1.320	1.357	1.431	1.132	1.228	1.115	1.259	1.482	1.614	1.834	1.946	2.031	2.426	3.665	5.377	6.918	6.049	4.119	3.662	4.139	4.657	5.251	5.585	12.50	37.13	96.63	133.8
305.0	267.0	350.0	438.3	368.8	306.3	308.8	325.1	407.0	504.7	666.7	 1025	 1723	 1406	833.5	657.5	 1215	 6089	9999.9	 1290	69.80	14.25	8.676	7.660	5.606	4.065	4.015	4.211	3.415	2.369	2.633	2.115	1.891	1.835	1.502	1.314	1.389	1.642	1.708	1.929	1.720	1.726	1.840	1.636	1.738	1.843	1.939	2.058	1.904	2.062	1.757	1.439	1.540	1.583	1.678	1.417	1.561	1.585	1.968	2.039	1.743	1.855	2.439	2.813	3.455	4.320	5.726	7.739	7.506	4.846	4.247	3.854	3.282	2.944	4.036	9.363	24.59	57.97
310.0	265.4	378.9	471.6	424.0	347.2	359.4	383.7	470.8	583.4	750.3	 1005	 1373	 1777	 1335	732.0	617.7	 1618	 5708	9999.9	 9676	85.51	14.98	10.51	7.006	5.744	4.586	4.125	3.735	2.874	2.534	2.397	1.890	1.675	1.757	1.490	1.433	1.564	1.890	1.869	1.479	1.736	1.784	1.410	1.616	1.960	2.086	2.080	2.416	2.111	1.948	1.578	1.692	2.036	1.546	1.641	1.800	1.951	2.151	2.366	2.279	2.405	2.933	3.001	3.466	4.133	4.930	5.551	6.960	7.849	6.662	5.210	3.780	3.135	2.759	3.479	7.021	14.04
315.0	275.3	399.5	514.1	471.1	387.6	405.1	442.5	540.5	659.6	824.1	 1076	 1292	 1533	 1782	 1196	626.4	650.3	 1459	 3214	9999.9	 8015	111.8	16.44	10.30	7.268	5.221	4.615	4.050	3.657	3.107	2.986	2.462	1.362	1.744	1.534	1.381	1.871	1.849	2.032	1.763	1.379	1.584	1.882	1.826	2.158	2.180	2.193	2.180	2.075	1.955	1.612	1.754	2.042	1.704	1.651	2.008	1.970	2.090	2.121	2.811	2.707	2.984	3.588	3.898	3.945	4.905	5.190	5.672	6.333	6.724	8.426	6.951	4.363	3.232	2.944	3.447	4.654
320.0	340.2	508.6	629.7	541.1	446.8	432.7	472.9	595.1	716.5	894.3	 1144	 1367	 1509	 1631	 1681	850.7	507.3	563.1	889.2	 4449	9999.9	 6642	82.66	14.23	9.822	6.998	5.251	5.151	3.405	3.183	3.100	2.724	1.894	1.966	1.640	1.449	1.689	1.913	1.895	1.437	1.685	1.854	1.926	2.037	2.398	2.251	2.148	2.845	2.528	2.110	1.855	1.968	1.841	1.914	2.004	2.222	2.242	2.415	2.571	3.001	3.090	3.148	3.717	4.007	4.512	5.360	5.487	6.008	6.219	5.945	6.915	7.943	6.759	4.992	3.646	2.780	2.952
325.0	382.5	592.1	807.5	700.4	541.1	480.0	513.1	620.2	771.4	956.7	 1216	 1449	 1587	 1572	 1681	 1277	601.3	444.1	410.1	 1173	 6389	9999.9	 4865	54.21	13.25	8.582	6.440	5.337	4.491	3.518	3.185	2.742	2.241	2.200	1.673	1.880	1.849	1.903	1.993	1.711	1.655	2.072	1.988	1.877	2.046	2.661	2.739	3.400	3.336	2.922	2.457	2.381	1.858	2.197	2.272	2.235	2.634	2.651	2.787	2.966	3.395	3.366	3.688	4.692	5.085	4.885	6.260	6.165	6.417	6.782	6.611	6.875	7.897	7.421	6.019	3.334	2.913
330.0	387.4	667.2	931.8	885.0	675.4	553.5	561.8	674.2	823.7	 1012	 1268	 1515	 1645	 1622	 1515	 1397	 1026	565.0	397.1	477.0	 1638	 5928	9999.9	 8028	334.7	13.71	9.353	6.703	5.656	4.696	4.104	3.002	2.594	2.591	2.304	1.654	1.888	1.922	1.848	1.725	1.710	2.027	1.881	2.248	2.445	2.970	3.395	3.809	3.812	3.386	2.980	2.892	2.566	2.232	2.350	2.336	2.897	2.558	2.896	3.201	3.570	3.775	4.201	4.611	5.216	5.101	6.242	6.201	6.643	6.765	6.832	6.598	6.279	6.834	6.767	6.375	4.988
335.0	395.7	699.1	 1056	 1001	774.1	670.4	656.1	742.5	892.4	 1095	 1327	 1592	 1720	 1701	 1542	 1248	 1205	962.4	509.8	406.8	589.2	 1489	 3529	9999.9	 6531	89.99	15.81	10.39	7.463	5.569	4.734	3.995	2.965	2.579	2.508	1.951	2.473	1.982	2.003	1.783	1.895	2.177	2.178	2.098	2.638	3.258	3.639	4.133	4.285	3.481	3.860	3.398	2.942	2.631	2.676	2.326	2.857	3.110	2.788	3.359	3.986	3.949	4.385	5.238	5.829	5.593	5.991	6.527	6.549	7.590	7.192	6.845	6.431	5.747	6.114	5.981	6.581
340.0	390.3	704.8	 1065	 1085	888.9	800.4	757.1	824.1	931.7	 1148	 1384	 1606	 1730	 1751	 1584	 1274	 1106	 1163	750.7	471.8	420.2	551.0	960.6	 4809	9999.9	 5306	69.32	13.88	8.916	6.765	4.931	4.452	3.413	2.819	2.775	2.129	2.048	2.015	2.059	1.768	1.853	2.330	2.036	2.712	2.648	3.317	3.782	4.010	4.257	3.533	3.448	3.564	3.016	3.285	3.071	2.900	3.555	3.204	3.254	3.979	4.279	3.948	4.401	5.423	5.981	5.750	6.340	6.410	6.968	7.739	7.014	7.114	6.495	5.833	5.721	5.815	5.699
345.0	404.0	689.0	 1050	 1151	 1033	928.6	865.6	886.8	981.6	 1185	 1425	 1614	 1724	 1759	 1650	 1327	 1090	 1094	 1032	615.2	456.9	410.9	426.6	 1275	 7150	9999.9	 4027	48.00	11.80	8.584	6.119	4.754	3.825	3.050	2.786	2.562	2.005	2.209	1.963	2.107	2.042	2.155	2.247	2.583	2.780	3.471	3.851	4.171	4.615	3.851	4.200	3.738	3.628	3.664	3.383	3.180	3.651	3.289	3.336	4.277	4.351	4.294	5.081	5.379	5.902	5.797	6.457	6.172	7.535	7.108	7.051	7.189	7.227	6.484	6.412	5.631	5.299
350.0	383.1	692.6	 1020	 1207	 1156	 1066	 1042	 1056	 1131	 1282	 1466	 1644	 1762	 1775	 1686	 1426	 1189	 1055	 1068	962.9	653.5	497.2	416.9	526.6	 1858	 6386	9999.9	 7621	60.32	13.77	8.627	5.897	4.570	3.626	3.016	2.556	2.511	2.299	2.089	2.120	2.198	2.106	2.122	2.327	2.748	3.451	3.641	4.362	4.199	4.223	4.098	4.298	4.044	4.092	3.984	4.032	3.983	3.995	3.826	4.677	4.618	4.968	5.330	5.325	6.159	6.049	6.241	7.026	6.929	7.369	7.497	7.394	7.345	7.373	7.058	6.716	5.827
355.0	354.6	658.0	967.9	 1207	 1285	 1281	 1254	 1269	 1326	 1433	 1606	 1726	 1829	 1825	 1731	 1522	 1318	 1165	 1071	 1082	 1015	697.7	537.0	472.5	681.7	 1613	 3860	9999.9	 5683	81.06	13.63	9.371	6.595	4.070	4.018	2.790	2.708	2.621	2.398	1.937	2.204	2.363	2.340	2.562	2.540	3.101	3.371	3.947	4.215	4.061	4.136	4.647	4.865	4.898	4.858	4.959	5.373	5.011	4.235	4.840	5.466	5.598	5.633	6.242	5.854	6.433	6.686	7.216	7.109	7.744	8.171	7.846	7.688	7.558	7.601	7.849	6.185
360.0	347.8	637.0	 1009	 1201	 1317	 1389	 1396	 1424	 1467	 1588	 1713	 1795	 1883	 1851	 1785	 1613	 1423	 1262	 1150	 1083	 1176	939.9	661.8	540.1	488.2	607.7	 1053	 5803	9999.9	 4768	58.89	12.15	8.004	5.688	3.996	3.544	2.907	3.039	2.322	2.105	2.589	2.381	2.641	2.399	2.763	3.304	3.266	3.695	3.761	4.111	4.130	5.283	5.099	5.278	4.922	5.403	5.278	5.167	5.082	5.309	5.572	6.190	5.955	6.653	6.612	6.630	6.879	7.764	7.429	7.608	7.564	7.810	8.631	7.402	7.511	7.566	7.549
365.0	360.0	640.2	994.0	 1256	 1354	 1525	 1510	 1524	 1587	 1708	 1790	 1887	 1915	 1900	 1830	 1665	 1506	 1352	 1230	 1148	 1158	 1170	844.0	644.7	519.9	449.8	456.4	 1532	 8327	9999.9	704.4	38.70	10.56	7.413	4.478	3.790	3.556	3.005	2.413	2.477	2.652	2.479	2.975	2.494	2.934	3.067	3.318	3.755	4.432	4.205	4.455	5.299	5.618	5.434	5.012	5.870	5.801	5.606	5.931	6.289	6.464	7.019	6.211	6.351	7.205	7.172	7.328	7.314	7.782	7.613	7.857	7.792	7.921	8.500	8.174	7.862	8.089
370.0	369.1	604.7	975.5	 1258	 1423	 1606	 1636	 1664	 1712	 1811	 1919	 1931	 1954	 1938	 1862	 1725	 1582	 1473	 1374	 1274	 1203	 1211	 1126	852.1	652.6	520.2	414.4	562.2	 2156	 7391	9999.9	 6379	49.59	10.56	7.039	5.008	4.098	3.415	2.815	2.705	2.608	2.644	2.755	2.748	2.914	3.065	3.449	3.888	4.218	4.119	4.474	5.385	5.727	5.833	5.663	5.947	6.447	6.265	6.366	6.091	7.064	7.085	7.289	7.452	7.584	7.393	7.354	7.956	7.712	7.961	8.094	7.818	8.314	8.866	8.172	8.463	8.410
375.0	375.2	643.0	952.0	 1269	 1491	 1731	 1737	 1766	 1810	 1927	 1981	 2011	 2012	 1988	 1899	 1779	 1670	 1574	 1489	 1409	 1311	 1249	 1226	 1156	855.5	656.2	518.5	437.5	695.2	 1801	 4359	9999.9	 4692	62.68	10.78	7.015	5.205	4.240	3.385	2.811	3.167	2.752	2.977	2.795	3.127	3.189	3.448	3.930	4.347	3.862	4.300	5.520	6.309	5.777	6.397	6.462	6.739	6.424	6.317	6.525	7.263	7.156	7.513	7.867	8.328	7.548	7.703	8.008	8.170	7.840	8.870	7.607	8.498	8.600	8.738	8.339	8.924
380.0	373.9	628.4	972.3	 1310	 1510	 1736	 1804	 1830	 1894	 1976	 2013	 2025	 2033	 2000	 1916	 1805	 1698	 1626	 1560	 1490	 1392	 1317	 1246	 1268	 1079	796.2	619.5	482.0	432.6	589.9	 1138	 6201	9999.9	 3718	44.08	10.37	7.116	4.863	3.713	3.144	2.908	2.920	3.023	3.194	2.715	3.285	3.716	3.685	4.358	4.120	4.391	5.204	6.442	5.889	6.244	6.526	6.924	6.765	6.601	6.724	7.071	7.636	7.092	7.984	8.047	8.323	7.830	8.183	8.432	8.724	8.361	7.821	8.329	8.025	9.214	8.191	9.270
385.0	371.2	596.1	946.9	 1311	 1523	 1785	 1832	 1865	 1911	 1990	 2037	 2045	 2029	 2000	 1914	 1797	 1732	 1668	 1608	 1541	 1445	 1382	 1296	 1262	 1236	951.9	718.0	565.9	435.6	373.1	420.5	 1625	 8647	9999.9	559.3	27.39	9.055	6.239	4.494	3.492	3.528	3.436	3.260	3.289	2.808	3.668	3.726	4.129	3.975	4.133	4.076	5.055	6.595	6.303	6.411	6.835	7.004	6.632	7.051	6.810	7.060	7.440	7.525	7.899	7.694	8.398	7.996	7.996	9.076	8.708	8.894	7.914	8.187	9.176	8.974	8.890	9.414
390.0	395.6	593.1	944.9	 1263	 1539	 1772	 1853	 1880	 1938	 1984	 2040	 2028	 2028	 1967	 1906	 1821	 1740	 1699	 1651	 1589	 1515	 1446	 1355	 1282	 1239	 1157	898.9	680.6	533.3	409.3	323.3	525.4	 2241	 7401	9999.9	 5161	38.69	9.518	6.445	4.892	3.892	3.637	3.402	3.178	3.225	3.422	3.217	3.705	4.143	4.342	4.355	5.177	5.949	6.448	6.652	6.750	7.002	7.477	7.035	7.200	7.397	7.100	7.670	7.746	7.513	7.616	7.477	8.328	8.660	8.599	8.549	8.228	8.642	8.897	8.967	9.100	9.406
395.0	406.0	629.9	940.5	 1260	 1503	 1738	 1851	 1911	 1965	 1981	 2041	 2022	 2006	 1955	 1897	 1788	 1752	 1717	 1664	 1622	 1558	 1500	 1419	 1342	 1249	 1189	 1110	840.8	641.3	500.2	385.3	336.5	654.8	 1761	 4296	9999.9	 3786	49.98	9.854	6.598	5.334	4.490	3.636	3.490	3.734	3.603	3.513	3.847	3.653	4.136	4.503	5.323	5.858	6.355	6.371	6.834	7.225	7.611	6.849	6.873	7.572	7.180	8.315	7.419	7.792	7.867	7.460	8.016	8.451	7.748	8.280	8.437	8.759	8.973	8.875	9.355	9.239
400.0	393.2	604.4	931.0	 1223	 1463	 1728	 1841	 1905	 1968	 1983	 2004	 1975	 1986	 1916	 1866	 1776	 1730	 1718	 1671	 1643	 1574	 1520	 1458	 1383	 1285	 1185	 1165	999.0	737.9	576.5	446.6	339.6	330.4	518.4	 1089	 6227	9999.9	 2962	35.52	8.688	5.920	4.816	4.025	3.816	3.807	3.531	3.517	4.090	4.106	3.854	4.500	5.586	5.999	6.187	6.106	7.192	6.979	7.158	6.657	6.981	7.405	7.497	8.001	7.178	7.761	7.605	7.342	7.362	8.362	8.131	8.232	8.383	8.034	9.130	9.166	9.710	9.164
405.0	380.4	577.2	945.3	 1229	 1448	 1724	 1836	 1885	 1962	 1946	 1979	 1951	 1936	 1885	 1818	 1752	 1708	 1707	 1659	 1632	 1580	 1524	 1475	 1395	 1302	 1202	 1141	 1099	858.9	647.4	509.9	383.0	293.3	271.8	351.5	 1619	 8002	9999.9	470.8	20.73	7.937	5.630	4.591	4.135	3.564	3.883	3.596	4.102	4.139	4.023	4.247	5.135	5.624	5.827	6.602	6.905	6.828	6.881	6.873	6.826	7.661	7.862	7.299	7.761	7.432	7.314	7.958	7.733	7.788	7.858	8.214	8.050	8.684	8.275	8.595	9.117	9.110
410.0	380.9	590.9	898.3	 1162	 1422	 1646	 1792	 1866	 1923	 1950	 1953	 1910	 1888	 1830	 1760	 1691	 1662	 1663	 1632	 1601	 1555	 1508	 1463	 1396	 1325	 1225	 1145	 1082	993.7	785.7	596.0	457.3	342.5	261.7	219.7	461.1	 2061	 6502	 9926	 2041	32.60	8.221	5.996	5.144	4.179	4.163	3.606	3.772	4.131	4.025	4.208	5.325	5.380	5.421	6.231	6.494	6.840	6.872	7.111	7.257	7.402	7.477	7.466	7.510	7.254	7.498	7.478	7.806	7.809	8.167	8.083	7.603	8.385	8.251	8.193	8.471	9.016
415.0	372.8	593.5	863.6	 1141	 1348	 1569	 1776	 1844	 1889	 1893	 1915	 1863	 1815	 1767	 1693	 1638	 1590	 1590	 1584	 1560	 1527	 1483	 1438	 1384	 1314	 1243	 1171	 1063	 1000	931.1	709.1	532.4	404.2	302.7	230.2	231.9	547.5	 1521	 4105	9999.9	 3236	42.94	8.873	6.019	5.047	4.760	3.952	3.707	4.464	4.016	4.321	5.507	5.484	5.646	5.882	6.124	6.680	6.757	6.631	7.063	7.055	7.414	7.309	7.672	7.201	7.000	7.267	7.322	7.700	7.217	7.295	7.690	7.701	7.577	8.116	8.140	8.561
420.0	365.4	566.3	853.5	 1103	 1283	 1523	 1683	 1805	 1855	 1876	 1880	 1817	 1756	 1711	 1653	 1566	 1547	 1530	 1531	 1494	 1469	 1440	 1401	 1361	 1310	 1241	 1171	 1073	978.9	954.2	811.9	588.6	446.7	338.9	252.1	196.9	229.5	413.1	 1009	 5289	9999.9	 2582	30.26	8.292	5.428	4.667	4.284	3.941	4.329	3.840	4.271	5.285	5.519	5.749	5.713	6.141	7.619	6.559	6.919	6.961	7.584	7.260	7.272	7.031	7.061	6.729	7.372	7.201	7.262	6.755	7.109	7.675	7.479	7.418	7.754	7.889	8.654
425.0	349.9	526.2	793.2	 1070	 1317	 1491	 1650	 1792	 1854	 1852	 1822	 1790	 1720	 1654	 1605	 1540	 1477	 1465	 1477	 1452	 1426	 1395	 1371	 1342	 1291	 1233	 1161	 1081	984.0	915.4	870.4	666.0	488.3	375.1	283.2	212.1	179.8	182.0	289.6	 1362	 6669	9999.9	432.6	17.09	7.072	5.384	4.725	4.126	4.089	4.357	3.858	4.507	5.395	5.253	5.909	5.715	7.139	6.584	6.427	7.203	6.759	7.508	7.181	7.199	7.144	6.865	6.871	6.946	7.089	6.939	6.963	7.527	6.990	7.108	8.025	7.602	7.851
430.0	532.4	507.3	778.6	 1002	 1222	 1455	 1594	 1743	 1816	 1817	 1776	 1743	 1681	 1591	 1533	 1467	 1411	 1402	 1404	 1380	 1366	 1338	 1315	 1291	 1263	 1211	 1153	 1081	992.1	913.1	840.9	751.3	577.1	424.9	326.7	251.4	193.4	154.2	145.7	363.8	 1693	 5796	 7745	 1887	30.05	8.352	6.065	5.171	4.879	4.337	3.879	4.392	5.090	5.612	5.130	6.051	6.286	6.225	6.581	6.979	6.753	7.236	7.127	6.821	6.764	6.969	6.531	6.705	6.504	6.902	6.845	7.160	6.715	6.716	7.313	7.331	7.223
435.0	917.2	541.8	756.6	966.0	 1173	 1386	 1524	 1679	 1780	 1771	 1735	 1698	 1607	 1536	 1457	 1381	 1333	 1328	 1315	 1326	 1295	 1274	 1261	 1242	 1211	 1171	 1131	 1076	998.5	915.0	832.3	747.3	667.5	497.9	369.1	290.0	227.6	172.9	135.1	158.3	436.2	 1341	 3195	 9258	 2990	40.19	8.324	6.120	5.443	4.756	3.924	4.795	5.084	5.291	5.423	5.603	6.375	6.882	6.502	6.599	6.570	6.977	6.927	6.941	6.810	6.594	6.692	6.678	6.879	6.619	6.410	6.119	6.398	6.423	6.866	6.849	7.416
440.0	 1101	757.4	730.4	910.9	 1130	 1333	 1472	 1621	 1714	 1732	 1689	 1627	 1579	 1513	 1403	 1329	 1289	 1275	 1270	 1276	 1238	 1225	 1205	 1190	 1167	 1141	 1101	 1053	996.4	921.2	827.5	739.3	673.9	565.1	407.2	320.0	251.5	191.4	150.6	126.6	163.8	350.6	779.5	 4641	 9520	 2417	28.54	7.742	5.854	4.815	4.376	5.170	4.712	4.867	5.361	5.468	5.967	6.118	6.615	6.684	6.181	7.022	6.788	6.855	6.607	5.804	6.538	6.322	6.341	6.207	5.905	6.193	6.409	6.250	6.408	6.359	6.578
445.0	943.5	 1213	736.1	876.0	 1082	 1279	 1410	 1589	 1659	 1667	 1678	 1574	 1489	 1441	 1361	 1286	 1240	 1231	 1220	 1212	 1178	 1168	 1158	 1148	 1130	 1096	 1067	 1029	982.0	921.9	827.1	727.8	646.6	590.5	459.4	343.8	269.1	212.8	165.2	131.7	114.8	137.5	221.1	 1173	 5891	 9154	373.5	19.55	7.268	5.470	4.669	4.951	4.813	4.687	5.113	5.577	6.273	6.111	6.469	6.542	6.543	6.311	6.509	6.747	6.399	6.418	6.361	5.927	5.911	5.777	6.439	6.089	5.604	6.062	6.468	6.614	6.492
450.0	513.2	 1522	 1075	849.8	 1010	 1182	 1345	 1511	 1594	 1614	 1606	 1513	 1431	 1334	 1280	 1194	 1162	 1141	 1138	 1114	 1101	 1092	 1077	 1067	 1051	 1039	 1014	986.8	946.0	897.0	818.0	720.0	626.1	563.5	498.6	388.6	297.1	237.3	188.8	150.8	120.3	105.1	107.3	304.2	 1480	 5066	 7553	 3191	28.05	7.796	5.851	5.515	5.139	5.009	4.881	5.179	5.649	5.834	6.026	5.762	6.287	6.449	6.426	6.683	5.929	6.439	5.849	5.989	5.760	5.782	5.657	5.561	5.457	5.963	6.383	5.825	6.302
455.0	286.8	 1073	 1948	832.4	954.4	 1087	 1254	 1397	 1509	 1538	 1505	 1450	 1345	 1249	 1190	 1118	 1065	 1050	 1042	 1021	 1007	 1004	991.6	986.6	972.5	958.6	950.3	932.0	900.2	861.5	788.2	709.9	620.0	535.2	481.2	435.4	333.1	258.0	210.0	172.5	136.1	111.7	92.39	121.4	371.9	 1167	 2859	 8494	 2641	34.16	8.058	6.086	5.386	5.291	5.109	5.216	5.191	5.377	5.870	6.019	6.539	6.068	5.956	6.367	5.790	6.029	5.445	5.769	5.070	5.774	4.796	5.474	5.520	5.386	5.806	5.347	5.874
460.0	239.9	595.8	 2315	 1208	874.5	 1036	 1212	 1317	 1413	 1447	 1454	 1373	 1279	 1183	 1124	 1050	998.8	976.1	978.2	956.9	939.3	936.1	924.8	921.2	915.4	905.6	893.9	877.6	854.5	815.0	760.3	694.9	607.2	527.8	455.2	430.0	368.9	278.2	225.9	182.8	152.8	121.5	95.39	87.73	129.0	296.9	687.5	 3894	 8727	 2070	26.17	7.094	6.040	5.285	5.145	5.084	5.046	5.380	5.765	5.584	5.860	5.424	6.260	5.996	5.619	5.465	4.805	5.596	4.994	5.254	4.838	5.197	4.924	4.862	5.102	5.302	4.873
465.0	229.0	395.8	 1863	 2035	833.5	973.0	 1138	 1252	 1388	 1363	 1383	 1302	 1219	 1136	 1056	989.8	934.6	910.4	892.1	900.7	875.8	867.4	867.4	857.1	859.1	842.8	838.9	828.7	811.2	777.2	730.9	662.1	583.6	512.5	444.1	402.7	383.8	303.1	234.2	195.8	161.5	132.2	104.0	85.62	80.95	108.0	188.0	959.0	 5016	 8046	 1562	20.13	6.991	5.631	5.048	5.551	4.925	5.223	5.821	5.726	6.179	5.514	5.995	6.127	5.894	5.333	5.109	4.749	4.664	4.796	4.798	4.457	5.382	4.731	5.218	4.748	4.544
470.0	222.3	319.5	946.7	 2497	 1425	877.1	 1023	 1132	 1251	 1279	 1269	 1210	 1126	 1051	968.5	901.4	857.5	826.4	818.4	805.5	794.8	784.0	775.0	779.0	775.2	765.4	761.4	756.5	745.0	721.1	685.2	625.0	553.7	493.7	426.2	379.2	350.9	319.7	257.0	204.9	171.7	142.4	114.4	93.80	78.10	72.78	80.90	244.7	 1230	 4102	 5877	 2594	28.09	7.333	5.875	5.433	5.220	4.976	5.487	4.872	5.120	5.085	5.027	5.431	5.544	5.100	4.598	4.555	4.798	4.446	4.394	4.331	4.483	4.497	4.554	4.294	4.961
475.0	199.7	276.4	533.9	 1624	 2693	904.2	912.6	 1024	 1146	 1167	 1168	 1099	 1031	958.0	881.8	816.5	770.2	747.1	737.0	732.2	711.9	703.2	701.6	695.4	688.1	685.0	687.1	690.5	681.9	653.8	628.6	581.7	519.6	461.1	411.3	362.7	321.1	300.1	275.8	226.0	178.9	148.9	122.4	101.2	83.10	70.44	60.88	89.26	302.1	937.4	 2006	 5560	 2506	39.57	7.241	6.158	5.520	5.124	4.916	4.899	5.054	4.696	4.792	4.523	4.838	5.054	4.531	4.714	4.409	4.431	3.855	4.303	3.689	4.467	4.208	4.129	4.483
480.0	183.2	290.9	387.6	865.0	 3069	 1451	836.0	962.9	 1050	 1100	 1111	 1053	967.4	882.8	822.4	753.6	715.3	699.4	680.9	670.3	656.5	643.4	651.0	638.6	636.5	639.2	629.7	635.0	629.9	612.4	585.6	550.8	490.3	435.7	396.2	349.3	307.0	277.2	272.1	237.1	186.5	151.6	126.7	106.7	87.12	73.13	61.45	56.37	97.98	231.7	475.7	 2337	 5921	 2144	28.86	7.068	5.512	5.067	4.596	4.680	4.741	4.452	4.556	4.260	4.373	4.454	4.429	4.332	3.850	3.712	3.438	3.770	3.368	4.166	3.785	3.924	4.014
485.0	151.9	250.4	352.6	543.1	 2339	 2509	814.5	900.8	988.7	 1033	 1032	970.2	893.6	846.6	775.9	702.0	673.4	639.7	628.4	615.4	606.6	597.0	593.1	586.2	593.9	594.4	592.1	594.2	591.2	577.2	548.6	511.0	467.0	415.4	378.1	335.0	299.3	263.3	249.3	236.8	194.1	153.1	129.9	108.2	90.50	76.56	62.69	54.12	54.94	76.57	127.4	568.4	 3121	 5820	374.7	19.98	6.181	5.053	4.900	4.584	4.646	3.952	4.273	4.402	4.053	3.988	4.025	4.078	3.709	3.616	3.306	3.613	3.675	3.349	3.431	3.641	3.935
490.0	128.7	251.9	350.1	445.4	 1111	 3087	 1442	823.8	895.8	949.4	934.4	887.9	837.2	768.2	719.6	648.6	600.3	580.5	570.4	554.2	548.7	534.9	533.4	529.9	535.8	532.5	536.4	531.6	533.7	524.5	502.6	470.1	431.4	387.7	351.0	315.7	283.5	255.0	233.1	218.0	202.0	164.9	131.5	110.8	94.87	81.13	68.25	56.25	49.33	46.41	51.57	146.2	754.0	 2682	 4428	 1675	29.54	6.828	5.428	4.799	4.500	4.267	3.960	4.468	3.727	3.786	3.550	3.647	3.574	3.459	3.367	3.376	3.281	3.156	3.110	3.405	3.155
495.0	113.0	211.6	326.6	400.7	586.7	 1868	 3058	858.3	808.7	869.5	869.4	805.4	749.4	702.3	644.4	576.4	540.0	520.1	504.5	487.5	483.6	482.7	471.4	473.2	479.7	469.5	470.5	470.1	477.9	471.0	458.4	427.1	389.9	360.4	326.8	297.7	267.4	237.8	216.7	197.3	185.7	174.1	141.8	114.5	97.85	82.59	71.53	57.53	50.88	42.67	37.09	52.55	185.2	613.3	 1503	 5104	 2664	40.58	6.694	5.164	4.950	4.557	4.062	4.289	3.631	3.620	3.647	3.136	3.002	3.084	3.204	2.966	2.790	2.882	3.032	2.941	2.825
500.0	116.5	174.2	321.3	374.0	453.1	934.0	 3468	 1444	750.6	761.1	794.3	746.6	694.7	648.9	587.1	531.5	500.0	476.9	462.6	444.7	442.3	438.7	427.8	427.3	435.6	428.3	431.0	430.9	433.8	431.8	419.9	396.7	357.0	335.5	306.9	275.8	251.9	226.9	202.5	182.5	170.7	164.2	147.5	116.4	98.87	82.91	70.54	60.36	50.58	42.68	34.36	32.75	60.67	152.4	354.9	 2166	 5576	 2098	30.36	5.859	4.918	4.201	3.720	4.048	3.362	2.949	3.373	2.970	2.837	2.819	2.955	2.549	2.527	2.733	2.830	3.248	2.551
505.0	102.3	144.6	283.1	338.8	393.4	566.0	 2573	 2650	692.9	712.6	716.1	704.4	650.1	603.1	543.3	488.9	458.0	437.0	430.4	416.6	401.1	393.5	385.8	387.3	392.2	389.7	392.3	398.2	396.5	397.3	388.4	366.2	334.7	306.8	280.8	257.5	235.6	214.4	191.0	174.5	160.4	149.5	146.4	120.0	97.11	81.81	71.91	59.75	51.20	44.44	35.85	30.20	32.46	49.40	92.84	519.8	 2878	 5496	399.0	18.81	5.436	4.129	4.005	3.653	3.089	3.024	2.865	2.564	3.110	2.694	2.531	2.235	2.319	2.550	2.775	2.819	2.745
510.0	81.93	130.8	223.0	330.1	359.0	425.2	 1141	 3331	 1457	638.4	642.3	620.7	575.7	526.9	481.5	435.9	400.9	383.3	372.2	367.9	353.5	348.2	344.9	341.2	342.7	345.1	345.5	349.7	350.9	349.7	346.8	324.1	301.6	275.1	254.1	232.5	214.2	195.2	177.5	161.3	146.9	134.5	130.0	121.1	99.71	80.97	71.54	59.92	51.01	44.57	37.46	31.75	27.20	28.41	35.58	129.4	693.5	 2555	 3981	 1665	28.03	5.405	3.917	3.651	3.195	2.997	3.051	2.530	2.684	2.549	2.337	2.080	2.178	2.465	2.426	2.444	2.358
515.0	82.60	119.4	193.7	288.7	341.5	352.0	561.4	 2016	 3279	669.8	568.3	555.4	505.6	452.7	414.6	379.6	360.6	333.3	335.5	322.4	308.4	307.8	303.4	298.3	298.9	299.0	305.9	303.7	306.1	310.1	300.0	284.1	263.4	244.1	227.0	206.6	191.7	175.1	163.2	148.1	134.6	121.2	113.0	110.5	101.6	81.50	70.26	59.30	50.86	43.70	36.49	32.10	27.31	24.47	23.10	42.63	166.1	580.3	 1366	 4573	 2383	37.46	4.895	4.010	3.196	2.806	2.658	2.567	2.070	2.359	2.243	1.932	2.168	2.365	2.050	2.018	2.277
520.0	66.22	119.8	171.9	243.7	343.9	328.5	394.5	918.7	 3863	 1355	510.3	504.0	474.8	413.3	380.1	347.4	322.1	298.2	301.8	286.4	275.1	271.9	269.5	272.7	270.2	270.5	270.8	272.9	275.0	276.5	265.3	258.0	242.9	223.3	207.6	188.7	174.1	160.5	149.4	137.0	122.7	114.3	101.5	95.32	97.53	86.07	68.32	56.54	49.58	43.62	36.77	31.21	27.54	23.86	20.40	22.84	49.50	139.6	320.5	 1982	 4491	 1571	24.79	4.499	3.509	3.072	2.496	2.618	1.940	2.053	2.095	1.905	1.784	1.828	1.835	1.703	1.680
525.0	68.75	99.98	156.8	219.9	304.0	317.7	349.5	520.8	 2860	 2837	502.0	465.4	430.6	382.0	344.2	317.8	297.3	281.4	269.5	259.8	252.5	244.0	245.1	246.4	245.5	246.4	245.9	247.7	252.7	247.7	244.7	236.1	220.5	202.8	187.9	174.4	161.0	149.7	138.1	126.8	113.9	103.9	94.65	86.45	86.91	85.83	70.28	56.12	47.94	41.91	36.94	30.99	26.93	23.26	19.78	18.33	23.37	41.84	81.60	475.8	 2354	 4017	380.0	12.13	3.562	2.552	2.295	2.343	2.236	1.798	1.913	1.914	1.672	1.611	1.587	1.468	1.735
530.0	56.19	86.10	134.9	185.5	253.1	321.5	313.0	377.6	 1188	 3732	 1264	404.0	374.7	340.0	307.0	282.5	261.8	247.4	236.2	230.1	220.7	214.4	210.8	215.6	212.1	214.1	216.1	217.7	219.2	217.0	216.9	204.8	193.3	178.9	168.4	156.0	142.4	132.7	124.1	112.0	104.3	94.99	85.55	78.61	73.72	76.26	71.43	57.96	45.47	39.96	35.46	29.94	25.08	22.86	19.72	17.28	17.15	19.94	27.58	114.5	567.1	 1912	 2869	 1520	24.98	3.495	2.448	2.304	2.113	1.833	1.649	1.770	1.692	1.512	1.575	1.352	1.673
535.0	47.57	84.01	127.2	160.5	191.8	306.0	289.2	300.9	507.8	 2104	 3518	444.7	329.0	300.0	266.7	248.8	226.7	210.8	203.4	189.7	191.0	183.9	180.7	180.9	182.5	185.2	184.7	186.8	189.2	188.2	189.0	176.2	168.2	153.5	143.6	134.7	125.8	118.9	108.2	98.87	91.86	83.26	77.76	70.91	64.90	61.74	63.79	58.09	46.33	37.14	33.23	27.35	24.66	20.65	20.09	17.29	15.96	14.73	15.54	34.19	133.6	433.8	 1036	 3670	 1840	31.80	2.698	2.282	2.299	1.610	1.826	1.416	1.393	1.293	1.430	1.165	1.419
540.0	43.69	71.12	97.59	152.1	165.0	246.3	294.9	258.1	332.9	876.9	 4188	 1145	297.5	263.0	242.2	223.9	198.1	189.5	184.3	170.5	169.3	166.6	161.8	160.9	161.0	163.4	163.4	163.3	168.3	165.7	168.5	159.8	148.2	135.5	125.8	121.8	111.1	106.3	98.21	89.74	84.27	75.78	69.98	64.57	59.54	54.16	54.33	56.07	46.02	36.35	29.93	27.11	23.18	20.70	19.27	17.43	15.08	13.98	13.03	15.77	37.00	102.9	243.1	 1629	 3613	410.4	17.23	2.688	2.042	1.682	1.427	1.715	1.231	1.377	1.160	1.055	0.980
545.0	40.70	57.77	90.42	123.6	147.1	201.7	291.6	243.9	274.6	420.1	 2924	 2776	287.8	240.6	212.9	196.5	181.6	172.1	163.6	154.5	153.3	150.1	144.6	141.3	141.3	138.0	145.0	144.1	146.8	145.9	148.1	142.6	130.6	123.5	114.3	107.9	101.4	93.07	87.23	81.04	76.94	69.71	63.44	59.03	53.26	48.31	45.86	49.59	46.45	36.35	29.45	25.97	21.95	19.83	17.92	15.75	14.97	13.08	11.74	11.70	14.72	28.78	60.19	392.6	 2008	 2800	327.8	5.864	2.168	1.856	1.603	1.606	1.246	1.186	1.197	1.094	1.062
550.0	39.01	62.01	71.16	97.19	116.7	154.9	237.9	246.5	226.5	279.5	 1080	 3714	 1001	205.3	184.7	164.2	152.3	145.5	137.8	131.4	127.4	125.5	122.1	120.7	119.1	120.8	123.8	123.6	122.7	125.8	122.7	119.8	110.7	106.1	96.93	91.62	85.14	79.44	74.44	69.59	65.45	60.58	53.94	50.19	46.73	42.41	39.54	38.86	39.95	36.11	28.52	23.37	19.87	17.82	16.23	14.43	14.13	12.37	10.54	10.11	9.583	11.80	18.95	92.64	489.3	 1474	 2072	781.1	20.38	2.410	1.974	1.432	1.247	1.031	1.078	0.874	0.992
555.0	35.32	48.78	67.72	89.17	101.8	119.5	164.0	247.8	203.9	218.5	398.6	 1873	 3061	248.0	153.3	133.5	126.0	118.6	115.2	109.0	106.0	99.50	98.23	97.33	99.93	99.59	98.56	98.71	102.2	103.2	100.3	97.88	89.88	86.11	79.87	75.11	71.06	66.51	61.63	57.36	53.73	49.83	45.37	41.04	39.11	36.46	33.45	30.92	31.47	31.65	27.67	22.51	17.52	15.90	13.91	14.41	11.99	11.68	10.77	8.921	7.760	8.524	9.326	24.70	113.5	333.9	797.7	 2095	421.8	23.69	2.444	1.697	1.484	1.045	1.106	0.821	0.710
560.0	35.23	44.55	59.18	77.64	84.82	99.80	130.4	231.4	201.6	189.2	229.1	686.4	 3856	822.0	132.4	118.5	110.0	98.27	95.78	92.70	86.13	84.35	85.15	83.84	82.49	83.64	84.84	86.50	85.85	87.09	85.58	82.27	78.01	72.08	65.51	62.05	59.40	55.80	52.05	50.49	45.65	42.36	38.38	36.19	33.82	31.08	28.72	26.57	25.66	25.31	25.83	21.43	15.72	14.17	12.18	12.56	11.24	11.22	10.08	9.208	7.562	6.932	6.507	10.09	29.54	78.88	188.3	991.9	 1990	358.4	9.149	2.101	1.736	1.167	0.895	0.767	0.723
565.0	34.63	38.84	60.95	68.09	75.15	89.96	102.9	185.2	212.3	166.6	184.6	280.4	 2541	 2283	125.2	103.1	91.93	81.80	80.09	77.69	77.70	74.18	72.65	70.86	69.90	69.76	71.67	73.68	74.46	73.69	70.61	67.61	65.58	60.14	57.09	52.80	51.25	47.43	45.61	41.90	39.23	36.04	33.15	30.63	29.26	27.42	24.71	23.53	22.34	20.62	22.51	19.57	14.81	12.89	11.75	10.74	9.901	9.984	9.073	8.897	7.738	6.887	6.300	6.378	10.45	21.57	46.28	244.7	 1254	 1701	55.06	3.308	2.115	1.412	1.043	1.041	0.523
570.0	32.54	38.88	54.07	58.30	64.37	71.75	81.08	128.7	208.4	161.3	147.1	169.0	849.5	 3230	744.2	83.12	76.44	68.98	66.58	63.48	61.67	58.58	58.91	58.28	56.53	57.45	57.02	58.85	58.28	57.24	57.54	56.22	53.09	48.55	45.92	43.00	40.88	39.10	36.35	34.19	30.70	28.92	27.39	26.15	24.00	22.19	20.54	19.28	17.85	16.32	16.42	16.75	14.31	11.54	10.14	9.415	8.825	8.655	8.032	7.523	7.614	7.034	6.219	5.949	7.038	9.260	14.80	58.89	313.7	967.3	 1215	237.2	15.37	1.965	1.290	1.110	0.573
575.0	21.58	43.83	43.59	61.32	48.84	62.48	67.52	98.76	158.2	174.7	126.1	131.4	275.3	 1543	 2289	119.5	62.56	60.05	50.92	51.21	49.58	47.25	45.13	46.05	42.57	44.98	43.52	45.26	44.26	46.48	46.52	44.91	41.48	39.39	36.53	33.12	33.37	31.76	28.48	26.32	25.50	24.02	20.99	21.49	18.95	17.51	17.08	15.66	14.45	12.61	12.42	12.20	13.01	11.22	9.812	8.573	7.952	7.515	7.560	6.869	7.377	7.346	7.269	6.054	5.965	6.767	8.683	18.13	74.70	221.6	514.7	 1213	360.5	13.67	1.910	0.851	0.768
580.0	20.24	37.31	49.10	53.36	39.13	57.02	62.01	77.31	118.2	195.8	128.9	125.0	138.8	506.6	 3236	255.6	52.98	49.18	42.71	42.25	39.82	38.10	37.79	36.61	36.64	39.74	35.42	38.22	37.49	39.92	38.32	36.29	34.52	31.98	30.15	28.70	27.62	26.34	23.56	22.85	20.67	20.52	17.49	17.60	16.09	15.02	14.62	13.30	12.31	10.90	10.72	9.751	10.82	10.79	8.702	7.950	7.357	6.988	6.511	6.184	6.890	7.241	7.235	6.325	6.080	6.799	7.060	9.533	21.91	54.61	125.4	635.1	 1159	253.5	5.056	1.218	0.886
585.0	25.84	47.11	37.56	46.67	37.52	50.05	56.05	66.28	88.38	171.9	133.6	114.6	107.7	182.7	 2097	 1645	52.86	41.93	36.71	34.22	33.29	32.49	32.30	32.45	31.19	32.84	31.09	30.89	32.86	33.27	31.00	30.91	29.85	28.90	25.69	25.38	23.36	22.58	20.47	19.15	18.77	16.81	14.76	14.32	14.34	12.88	12.01	11.24	10.65	9.615	8.557	8.313	8.762	9.294	8.888	7.280	6.576	6.214	6.473	6.316	6.579	6.151	7.268	6.609	6.179	6.571	6.329	7.716	10.94	17.68	33.13	162.8	780.1	966.4	50.29	1.849	1.008
590.0	16.98	34.07	36.86	47.25	37.72	39.20	49.37	57.79	72.51	131.6	157.7	103.8	98.86	100.6	657.8	 2467	513.0	35.36	31.16	28.83	27.37	26.49	26.89	25.48	25.49	26.16	25.91	25.50	26.85	26.02	24.93	24.36	24.21	22.69	20.69	20.02	18.37	17.70	16.38	15.23	14.54	14.02	11.87	12.12	11.79	10.64	9.728	9.218	8.356	8.007	7.149	6.923	6.323	7.176	7.724	7.334	5.920	5.557	5.592	5.859	5.904	5.683	6.758	6.744	6.474	6.450	6.607	7.875	8.257	9.693	13.01	41.06	199.3	589.6	613.6	205.3	9.284
595.0	17.99	29.28	33.52	40.52	35.27	34.82	38.24	55.60	59.84	89.16	150.3	122.1	93.06	78.51	189.8	 1135	 1683	61.69	26.05	23.08	21.63	22.05	21.91	21.40	20.65	19.67	19.63	20.56	20.43	21.56	20.74	18.96	18.79	18.88	17.09	15.63	15.77	14.64	13.06	12.34	12.39	10.73	9.287	9.958	9.852	8.926	8.496	7.663	6.709	6.822	6.182	4.998	5.053	5.093	6.230	6.657	5.386	4.840	5.106	5.168	5.301	5.248	6.271	6.142	6.199	5.912	6.617	7.243	7.550	7.906	8.347	13.88	48.26	135.7	314.6	777.1	258.7
600.0	17.14	29.39	29.02	39.96	38.02	32.97	43.91	52.48	62.87	75.73	126.8	147.4	88.66	70.80	81.19	345.5	 2274	185.5	22.30	21.10	19.68	18.89	18.75	18.66	17.51	16.98	17.24	17.60	18.13	18.11	16.83	16.19	16.07	15.30	14.29	12.93	13.29	12.45	10.58	10.26	10.33	9.371	8.067	8.059	7.469	7.011	6.682	6.630	5.637	5.752	5.322	4.421	4.019	3.962	4.509	5.572	5.542	4.827	5.188	4.646	4.789	5.298	5.179	5.681	5.869	6.377	6.309	6.806	7.672	7.287	7.412	8.042	14.55	32.86	78.00	438.5	696.0
605.0	14.84	24.89	30.45	31.75	29.71	28.69	39.87	42.12	58.65	68.69	105.6	156.3	91.81	70.06	57.28	109.6	 1480	 1209	25.75	18.26	16.58	15.59	15.49	14.17	15.24	13.89	13.48	14.49	14.87	15.18	14.81	14.05	13.79	13.31	12.05	12.03	11.27	9.948	8.896	9.551	8.210	7.978	7.382	6.616	5.978	6.353	5.570	5.406	4.911	4.877	4.205	3.732	3.652	3.499	3.757	4.803	4.751	4.829	4.789	4.445	4.613	4.470	5.131	5.501	5.600	5.194	6.242	5.991	6.775	7.002	5.874	6.035	6.520	9.824	19.73	114.1	489.4
610.0	14.67	28.38	28.86	29.30	29.29	28.14	36.38	40.58	47.29	61.05	84.97	136.7	114.2	67.34	51.53	50.56	449.6	 1809	383.0	16.57	13.29	13.20	12.99	11.46	12.51	11.81	11.90	11.87	11.98	12.08	12.73	10.74	10.85	10.07	9.798	9.071	9.423	8.559	7.489	7.260	6.512	6.290	5.709	5.621	5.081	4.919	4.620	4.536	3.926	4.065	3.584	3.331	3.226	3.067	3.111	3.319	3.911	4.249	4.467	4.119	4.072	4.009	4.664	4.276	4.476	4.675	5.458	5.598	5.973	6.102	5.602	5.371	4.916	4.574	6.351	26.98	125.8
615.0	10.27	20.15	29.61	34.02	30.64	25.15	34.32	37.19	45.59	56.81	73.32	104.5	135.9	71.45	48.81	36.29	120.0	852.3	 1332	36.79	11.33	9.804	9.827	9.703	9.201	9.808	9.403	9.619	9.952	9.553	9.657	9.457	8.232	8.923	7.834	7.778	7.555	6.507	6.406	5.969	4.785	5.001	4.326	4.155	4.406	4.242	3.439	3.564	3.229	3.410	2.769	2.654	2.316	2.315	2.708	2.404	2.560	3.451	3.934	3.591	3.601	3.318	4.028	3.395	3.642	3.435	4.517	5.160	5.220	5.138	4.497	4.416	4.281	2.858	2.617	7.170	29.03
620.0	10.39	16.83	27.33	24.20	28.11	26.47	29.91	40.44	40.08	57.99	65.23	82.92	133.8	82.85	50.45	33.03	46.81	250.4	 1817	145.6	10.18	9.379	8.543	7.353	7.443	7.245	7.979	7.100	7.815	8.177	8.022	8.107	7.058	6.967	6.578	6.569	6.202	5.481	5.092	4.950	4.300	4.031	3.932	3.682	3.568	3.505	3.020	2.969	2.615	2.757	2.345	2.420	2.016	2.125	2.206	2.173	2.255	2.753	3.235	3.187	2.803	3.021	3.381	3.094	3.495	3.251	3.412	4.350	5.141	4.623	4.141	3.783	3.703	2.497	1.840	2.846	7.406
625.0	12.74	15.73	20.30	32.17	28.06	28.00	26.51	37.10	38.92	51.74	63.66	76.51	108.6	101.4	49.68	33.18	29.21	71.30	 1172	964.7	14.56	8.648	6.666	7.016	6.626	6.047	6.753	6.147	6.888	5.969	6.589	6.283	5.819	5.689	5.269	5.180	4.851	4.141	4.405	3.806	3.760	3.778	3.412	2.948	2.993	2.842	2.717	2.467	2.393	2.372	2.126	1.986	1.925	1.782	1.800	1.755	1.940	2.074	2.516	2.712	2.522	2.631	2.895	2.745	2.926	2.624	3.090	3.252	4.013	3.989	3.897	3.280	2.851	1.918	1.835	1.621	2.467
630.0	10.74	22.93	23.23	23.77	22.18	23.10	24.29	33.68	40.81	48.74	62.42	70.02	90.74	108.7	58.18	34.38	24.59	28.90	350.8	 1462	291.6	7.909	5.535	5.444	5.460	5.169	5.201	5.482	5.699	5.368	5.377	4.845	4.857	4.524	4.134	4.179	3.865	3.577	3.461	2.935	2.930	2.936	2.564	2.130	2.372	2.186	2.274	2.172	1.815	1.877	1.781	1.650	1.509	1.308	1.511	1.411	1.426	1.587	1.763	2.202	2.122	2.049	2.592	2.035	1.974	2.206	2.243	2.728	3.049	3.028	3.386	2.630	2.314	1.543	1.356	1.150	1.124
635.0	10.84	18.95	27.22	20.15	22.07	26.27	21.23	33.67	38.56	51.08	60.80	64.24	73.58	98.75	73.67	36.53	23.24	18.62	88.85	674.9	 1089	27.74	5.473	4.206	3.955	3.805	4.774	4.512	4.629	4.688	3.870	3.687	3.939	3.832	3.230	3.438	3.269	2.714	2.676	2.423	2.413	2.426	1.916	1.781	1.524	1.741	1.598	1.454	1.420	1.465	1.407	1.222	1.097	1.269	1.336	1.063	0.981	1.011	1.226	1.392	1.947	1.908	1.853	1.694	1.709	1.806	1.785	1.742	2.204	2.135	2.535	1.933	1.682	1.257	0.884	0.626	0.541
640.0	12.16	19.73	25.22	25.28	19.10	20.21	22.79	31.60	39.34	45.07	54.77	64.21	71.16	81.08	86.26	38.62	25.53	17.31	29.74	195.6	 1434	123.1	4.254	4.368	3.758	4.173	3.092	3.783	3.691	3.254	3.433	3.142	2.643	3.327	2.743	3.369	2.575	2.588	2.069	2.097	1.871	2.353	1.489	1.666	1.481	1.389	1.291	1.251	1.251	1.063	0.921	1.063	0.802	0.999	0.983	0.905	0.905	0.808	1.075	1.052	1.383	1.635	1.666	1.401	1.479	1.528	1.422	1.527	1.775	1.510	1.918	1.468	1.373	0.933	0.838	0.593	0.411
645.0	10.72	24.21	21.85	20.70	16.28	20.42	23.62	27.49	32.55	42.29	53.58	62.77	65.80	70.18	85.69	46.26	26.31	18.19	17.97	53.06	928.3	798.5	8.255	4.181	3.905	3.422	2.939	3.499	3.043	2.873	3.151	2.695	2.422	2.599	2.374	2.565	2.285	1.979	1.844	1.433	1.793	1.749	1.463	1.364	1.152	1.042	1.326	1.097	1.170	0.961	0.820	0.989	0.871	0.690	0.851	0.806	0.961	0.904	1.038	0.815	0.861	1.306	1.657	1.531	1.103	1.148	1.108	1.482	1.584	1.623	1.415	1.165	1.035	0.892	0.703	0.635	0.490
650.0	22.15	21.70	26.74	28.39	25.28	19.30	23.44	29.52	36.16	42.20	53.80	63.03	65.63	68.51	80.50	54.88	26.86	17.45	14.58	21.08	336.4	 1322	65.82	4.037	3.406	3.558	2.899	2.726	2.645	2.559	2.518	2.474	2.172	2.146	2.298	2.559	2.067	1.776	1.268	1.279	1.345	1.718	1.415	1.315	1.239	1.048	1.021	1.066	0.796	0.740	0.718	0.808	0.607	0.612	0.748	0.747	0.553	0.652	0.746	0.709	0.846	1.036	1.182	1.102	0.862	0.929	0.759	1.377	1.043	1.306	1.116	1.222	0.929	0.784	0.685	0.353	0.325
