Sample:	'1
File name:	G2025062408黄河十六路雨洪口.FD3
Run date:	'15:55:33, 06/26/2025
Operator:	Administrator
Comment:	'

Instrument
Model:	F-2700 FL Spectrophotometer
Serial number:	23B8-004
ROM Version:	4J14000 07

Instrument parameters
Measurement type:	3-D scan
Data mode:	Fluorescence
EX  Start WL:	220.0 nm
EX  End WL:	600.0 nm
EX Sampling interval:	5.0 nm
EM  Start WL:	230.0 nm
EM  End WL:	650.0 nm
EM Sampling interval:	5.0 nm
Scan speed:	12000 nm/min
EX Slit:	5.0 nm
EM Slit:	5.0 nm
PMT Voltage:	700 V
Response:	Auto 
Corrected spectra:	Off
Contour interval:	50.000

Peak integration
Integration method:	Rectangular
Sensitivity:	1
Threshold:	1.000

Peaks
No.	ApexEX/EM(nm)	Height(Data)
1	225.0/345.0	3738
2	225.0/580.0	257.9
3	255.0/285.0	618.4
4	260.0/570.0	157.3
5	265.0/585.0	149.8
6	270.0/600.0	139.5
7	275.0/345.0	2767
8	275.0/610.0	138.7
9	280.0/625.0	122.5
10	455.0/340.0	9.749
11	510.0/280.0	3.531
12	520.0/285.0	3.876
13	555.0/340.0	12.17
14	560.0/345.0	12.53

Data points
	220.0	225.0	230.0	235.0	240.0	245.0	250.0	255.0	260.0	265.0	270.0	275.0	280.0	285.0	290.0	295.0	300.0	305.0	310.0	315.0	320.0	325.0	330.0	335.0	340.0	345.0	350.0	355.0	360.0	365.0	370.0	375.0	380.0	385.0	390.0	395.0	400.0	405.0	410.0	415.0	420.0	425.0	430.0	435.0	440.0	445.0	450.0	455.0	460.0	465.0	470.0	475.0	480.0	485.0	490.0	495.0	500.0	505.0	510.0	515.0	520.0	525.0	530.0	535.0	540.0	545.0	550.0	555.0	560.0	565.0	570.0	575.0	580.0	585.0	590.0	595.0	600.0
230.0	214.1	3673	5685	1230	37.85	11.72	9.452	8.990	7.298	7.211	6.166	6.184	5.194	4.295	4.010	3.276	2.885	2.464	2.399	2.165	1.878	1.666	1.734	1.486	1.351	1.283	1.247	1.142	1.148	1.020	1.079	0.936	0.898	0.866	0.748	0.690	0.683	0.669	0.609	0.702	0.780	0.917	0.860	0.612	0.554	0.727	5.354	17.68	22.27	12.31	3.617	0.834	0.442	0.431	0.437	0.407	0.435	0.413	0.437	0.378	0.413	0.376	0.394	0.382	0.393	0.391	0.411	0.398	0.370	0.418	0.377	0.382	0.412	0.373	0.390	0.393	0.417
235.0	184.2	1034	4364	5609	597.4	54.29	12.56	10.24	9.368	7.985	6.665	6.126	5.713	4.810	4.552	2.973	3.171	2.523	2.300	2.009	1.891	1.798	1.701	1.492	1.439	1.287	1.244	1.211	1.149	1.146	1.087	1.056	0.848	0.868	0.784	0.715	0.668	0.750	0.625	0.555	0.677	0.739	0.885	0.901	0.842	0.719	1.552	4.988	10.24	16.65	21.46	18.37	7.009	1.340	0.401	0.449	0.457	0.440	0.508	0.425	0.405	0.421	0.416	0.423	0.373	0.365	0.413	0.430	0.448	0.387	0.381	0.407	0.349	0.347	0.351	0.348	0.447
240.0	260.2	336.0	1430	5828	4697	471.2	32.85	11.79	9.958	9.206	6.921	6.836	5.925	4.622	4.416	3.089	2.903	2.670	2.623	2.058	1.897	1.677	1.740	1.679	1.437	1.317	1.344	1.302	1.208	1.277	1.051	1.029	0.876	0.805	0.741	0.700	0.793	0.753	0.722	0.593	0.625	0.664	0.719	0.815	1.072	0.977	0.841	1.511	2.744	5.495	13.99	29.86	27.09	17.66	5.412	0.835	0.487	0.433	0.418	0.435	0.368	0.446	0.425	0.433	0.430	0.402	0.396	0.440	0.397	0.420	0.381	0.448	0.458	0.364	0.408	0.373	0.374
245.0	210.6	297.9	388.9	2264	7139	3915	346.4	18.34	11.75	11.40	8.912	7.975	6.520	5.161	3.769	3.635	3.314	2.740	2.585	2.338	2.092	1.904	1.865	1.776	1.438	1.406	1.366	1.387	1.309	1.128	1.139	1.069	0.847	0.848	0.776	0.796	0.723	0.698	0.689	0.559	0.607	0.613	0.635	0.608	0.785	0.980	1.124	1.133	1.070	1.527	3.716	11.63	25.71	40.64	27.40	14.85	3.458	0.570	0.453	0.472	0.441	0.466	0.445	0.499	0.401	0.440	0.435	0.470	0.414	0.414	0.424	0.405	0.383	0.389	0.415	0.360	0.517
250.0	100.5	230.2	287.3	594.8	2575	6553	6754	1352	76.26	14.30	10.98	9.079	8.067	6.217	4.962	4.125	3.442	3.053	2.725	2.443	2.145	1.956	1.939	1.930	1.727	1.606	1.514	1.391	1.256	1.206	1.110	1.015	0.973	0.947	0.774	0.751	0.780	0.770	0.696	0.590	0.566	0.606	0.664	0.604	0.691	0.701	0.848	1.113	1.281	1.114	1.294	3.034	6.571	14.15	23.92	37.19	39.32	36.08	13.30	4.195	0.665	0.499	0.495	0.477	0.408	0.479	0.486	0.486	0.405	0.390	0.417	0.427	0.440	0.435	0.454	0.423	0.433
255.0	65.59	94.25	226.0	384.7	651.3	1811	7446	9999.9	1867	80.70	14.78	11.93	8.490	7.779	6.005	4.418	4.117	3.488	3.048	3.145	2.575	1.996	2.019	1.860	1.641	1.564	1.432	1.566	1.334	1.293	1.138	0.989	0.998	0.914	0.839	0.818	0.765	0.795	0.824	0.617	0.632	0.596	0.618	0.648	0.633	0.637	0.598	0.644	0.850	1.081	1.526	1.755	2.099	3.582	5.753	9.583	18.46	44.99	72.61	31.33	20.20	4.195	0.536	0.571	0.479	0.506	0.431	0.447	0.480	0.403	0.400	0.387	0.416	0.396	0.428	0.407	0.428
260.0	53.81	53.36	108.9	324.6	349.4	460.2	2538	9999.9	9999.9	1395	39.60	16.89	10.83	8.578	7.194	4.831	4.389	4.073	3.265	3.387	2.335	2.160	1.959	1.839	1.676	1.795	1.663	1.618	1.498	1.362	1.323	1.224	1.127	0.990	0.978	0.812	0.762	0.793	0.826	0.775	0.588	0.615	0.604	0.575	0.632	0.563	0.527	0.619	0.554	0.670	1.074	1.926	1.911	1.601	1.773	2.604	4.758	13.02	36.31	67.82	90.13	30.23	16.28	2.131	0.568	0.551	0.556	0.584	0.563	0.384	0.520	0.470	0.463	0.494	0.487	0.447	0.523
265.0	62.79	54.99	61.05	172.3	377.6	253.8	625.4	4032	9999.9	9999.9	224.3	26.29	14.48	10.60	7.834	5.945	5.368	4.188	3.352	3.293	2.794	2.601	2.233	2.192	1.894	1.820	1.696	1.683	1.647	1.473	1.161	1.190	1.080	1.143	0.986	0.916	0.776	0.735	0.755	0.783	0.660	0.677	0.693	0.837	0.732	0.609	0.562	0.585	0.503	0.536	0.641	1.226	1.923	2.062	1.557	1.179	1.515	3.413	9.165	22.60	57.11	95.70	103.3	26.94	9.916	0.963	0.626	0.570	0.585	0.462	0.574	0.552	0.444	0.468	0.514	0.460	0.506
270.0	215.1	208.9	151.2	103.9	220.0	379.1	344.5	990.9	4149	9999.9	9999.9	3553	62.70	16.64	11.56	8.195	6.299	5.045	4.239	3.548	3.037	2.763	2.417	2.246	1.964	1.879	1.725	1.789	1.597	1.495	1.469	1.325	1.156	1.241	1.214	1.069	0.946	0.909	0.929	0.907	0.929	0.879	0.945	0.992	0.918	1.011	0.954	0.875	0.812	0.715	0.625	0.714	0.931	1.412	1.825	2.119	1.870	1.694	2.679	5.787	13.99	29.81	57.57	82.65	103.4	82.03	17.53	8.099	1.117	0.717	0.642	0.579	0.530	0.476	0.506	0.497	0.547
275.0	739.4	698.7	442.3	176.7	108.0	232.2	509.4	456.7	1032	2785	9999.9	9999.9	1267	66.03	17.53	11.02	8.542	6.231	5.018	4.024	3.478	2.914	2.892	2.501	2.327	2.244	2.180	1.948	1.571	1.595	1.647	1.428	1.333	1.290	1.595	1.569	1.235	1.398	1.195	1.266	1.273	1.321	1.550	1.564	1.604	1.975	1.987	2.079	1.690	1.294	0.826	0.762	0.745	0.875	1.075	1.476	2.564	3.323	2.457	2.373	3.879	7.507	13.80	19.85	33.70	75.74	135.4	143.4	28.18	9.509	0.894	0.656	0.669	0.574	0.640	0.639	0.599
280.0	1189	1192	779.7	289.1	109.7	134.9	389.9	602.4	435.9	777.7	3308	9999.9	9999.9	928.7	37.24	15.27	11.19	7.851	6.012	4.567	4.416	3.571	3.152	2.814	2.641	2.418	2.020	2.088	1.694	1.601	1.702	1.598	1.414	1.696	2.006	2.155	1.953	1.730	1.746	1.736	1.759	1.825	2.144	2.478	2.685	3.030	2.997	3.150	2.670	1.771	1.293	1.020	0.723	0.836	0.834	1.083	1.390	2.596	3.531	3.316	2.230	2.678	4.187	5.554	8.532	19.72	51.25	118.0	160.6	134.6	23.47	4.416	0.786	0.690	0.682	0.654	0.678
285.0	1702	1676	1115	416.9	138.2	124.9	237.8	618.4	602.6	400.7	977.3	4307	9999.9	9054	128.0	23.23	14.56	10.03	7.617	5.882	4.465	4.180	3.686	3.066	2.697	2.551	2.137	2.075	1.885	1.754	1.665	1.604	1.465	1.662	2.561	2.704	2.661	2.147	2.139	2.113	2.133	2.425	2.926	2.954	3.383	3.854	4.234	4.355	3.251	2.273	1.616	1.267	0.974	0.824	0.932	0.920	1.161	1.619	2.434	3.854	3.876	2.970	2.512	2.450	3.406	5.705	12.93	31.85	73.27	148.9	173.1	33.63	17.02	1.820	0.877	0.796	0.735
290.0	2095	2058	1395	552.1	196.5	159.0	221.8	404.5	745.3	767.7	667.0	1362	4235	9999.9	9999.9	2595	43.97	14.90	9.690	7.767	5.681	4.928	4.282	3.502	2.998	2.833	2.432	2.224	2.159	2.104	1.798	1.670	1.656	2.057	2.776	3.220	3.144	2.815	2.796	2.781	2.611	2.989	3.389	3.734	4.298	4.654	4.930	5.218	4.116	3.157	1.964	1.540	1.243	1.059	1.111	1.116	1.282	1.385	1.814	2.386	3.348	4.367	4.380	3.985	3.339	3.538	4.952	9.219	18.45	39.60	71.06	93.42	131.2	101.7	76.07	12.79	2.755
295.0	2263	2255	1563	669.4	286.8	240.2	280.5	394.2	610.8	1053	1130	945.6	1444	2765	9999.9	9999.9	738.2	48.27	14.69	10.37	7.762	5.687	5.152	4.085	3.608	3.248	2.841	2.557	2.373	2.142	1.916	1.718	1.670	2.133	2.895	3.504	3.590	3.344	3.293	3.029	3.123	3.166	3.609	3.922	4.489	5.435	5.563	5.481	4.624	3.478	2.329	1.928	1.537	1.373	1.337	1.385	1.432	1.595	2.005	2.307	2.706	3.523	4.006	5.851	6.496	5.338	4.395	5.191	7.098	11.63	18.18	22.92	34.78	60.07	141.2	184.9	35.97
300.0	2359	2299	1656	761.0	372.2	322.6	389.4	506.4	695.7	1017	1552	1249	1023	1064	2953	9999.9	9999.9	604.3	30.40	13.28	9.608	7.164	5.825	4.535	3.984	3.523	3.118	2.921	2.410	2.280	2.055	1.847	1.942	2.151	3.047	3.832	3.724	3.648	3.593	3.467	3.544	3.623	3.831	4.274	4.766	5.547	5.498	5.566	4.932	3.683	2.707	2.227	1.715	1.670	1.584	1.774	1.822	2.041	2.389	2.714	3.046	3.676	4.072	5.271	6.755	7.972	7.007	5.523	5.759	6.369	7.088	7.734	9.682	15.51	42.30	101.6	164.2
305.0	2408	2379	1674	849.3	460.4	422.5	523.8	687.9	904.0	1186	1652	1791	1285	902.2	1065	3516	9999.9	9999.9	83.75	21.01	12.74	9.315	6.601	5.697	4.339	3.929	3.476	3.134	2.871	2.526	2.310	1.912	1.958	2.232	3.074	3.706	4.104	3.791	3.693	3.675	3.910	3.829	4.014	4.523	4.972	5.394	5.343	5.713	4.976	3.758	2.987	2.440	2.162	2.054	1.833	2.184	2.425	2.766	2.890	3.648	4.044	4.674	5.009	5.666	6.899	7.790	9.288	8.588	7.517	6.423	5.557	5.038	5.184	5.981	11.58	25.61	57.33
310.0	2368	2283	1679	931.4	580.6	553.7	676.3	873.6	1104	1399	1698	2008	1864	1160	813.8	1128	3557	9999.9	9999.9	1999	34.06	12.86	9.163	6.944	5.375	4.485	3.856	3.429	3.097	2.812	2.394	2.133	2.186	2.274	2.995	3.835	4.278	4.078	3.967	3.904	4.018	3.948	4.244	4.496	4.767	5.507	5.299	5.575	5.142	3.842	3.091	2.997	2.461	2.331	2.402	2.746	3.044	3.360	3.740	4.236	4.798	5.490	5.954	6.584	7.348	7.742	8.674	9.136	9.700	9.197	7.626	5.693	5.071	4.859	5.290	8.134	14.89
315.0	2399	2332	1751	1030	710.6	683.7	820.7	1043	1283	1589	1865	2037	2018	1714	987.3	700.3	1121	2522	8238	9999.9	2982	39.31	13.46	9.174	6.824	5.248	4.766	4.201	3.368	2.959	2.560	2.428	2.249	2.406	2.843	3.665	4.074	4.321	4.063	3.820	4.088	4.322	4.352	4.664	5.039	5.562	5.453	5.642	4.936	4.070	3.232	3.185	2.850	2.825	2.874	3.385	3.632	3.794	4.337	4.825	5.541	6.106	6.586	7.633	7.960	8.606	8.933	8.989	8.968	9.576	10.00	9.159	7.028	5.413	4.507	4.624	5.823
320.0	2581	2489	1893	1175	799.0	767.7	924.7	1160	1415	1731	2033	2159	2060	1887	1338	723.8	646.5	805.9	2222	9999.9	9999.9	482.0	28.97	11.65	8.701	6.258	5.144	4.667	3.698	3.453	3.149	2.486	2.356	2.542	3.045	3.357	4.060	4.119	4.066	4.156	4.347	4.565	4.548	5.278	5.638	5.778	5.929	6.125	5.608	4.440	3.723	3.578	3.222	3.053	3.159	3.311	3.693	4.401	4.701	5.265	5.862	6.689	7.293	7.873	8.722	8.991	9.282	9.765	9.468	9.619	9.639	9.390	9.331	7.443	5.655	4.433	4.193
325.0	2747	2845	2260	1413	944.7	855.5	992.3	1228	1520	1865	2152	2305	2182	1872	1595	923.2	609.9	472.5	656.7	2958	9999.9	9999.9	384.4	17.60	10.99	7.772	5.798	5.028	4.168	3.654	3.275	2.675	2.419	2.573	2.935	3.097	4.026	3.940	4.145	4.347	4.244	4.456	4.982	5.783	5.877	6.444	6.336	6.915	6.369	5.324	4.490	4.512	3.787	3.463	3.659	3.632	4.018	4.779	5.181	6.058	6.449	6.875	7.534	8.292	9.273	9.319	9.948	10.22	10.28	9.718	9.425	9.026	9.070	9.205	7.469	5.622	4.541
330.0	3086	3237	2742	1888	1221	1018	1109	1353	1647	2008	2308	2482	2366	2008	1613	1222	784.2	493.7	382.1	816.8	3069	9999.9	9999.9	1714	30.29	11.13	7.933	6.258	4.782	4.242	3.393	3.000	2.864	2.540	3.176	3.227	3.940	4.153	4.264	4.468	4.537	4.857	5.317	5.960	6.513	7.330	7.300	7.975	7.612	6.524	5.721	5.769	4.884	4.460	4.143	4.078	4.642	5.368	5.427	6.344	6.924	7.368	8.264	8.969	9.822	10.14	10.84	10.85	11.11	10.75	10.50	9.622	9.039	8.348	7.941	7.749	6.565
335.0	3372	3526	3112	2302	1586	1250	1265	1497	1815	2159	2485	2650	2557	2219	1726	1294	1103	706.2	435.8	419.4	838.8	2393	7393	9999.9	2735	35.29	11.53	8.311	6.021	4.659	4.053	3.361	3.189	2.818	3.267	3.189	4.360	4.462	4.408	4.559	4.573	5.320	5.771	6.411	6.920	7.962	8.344	9.149	8.384	7.541	6.617	6.731	6.090	5.480	5.147	4.664	5.462	5.748	6.138	6.724	7.598	8.209	8.703	9.597	10.11	10.56	11.44	11.59	11.77	11.47	11.48	10.95	9.797	9.019	8.094	7.643	7.458
340.0	3559	3675	3343	2536	1772	1393	1393	1591	1925	2262	2568	2749	2660	2349	1850	1355	1159	942.9	549.7	391.3	387.5	669.8	1952	9594	9999.9	423.4	25.06	10.95	7.540	5.451	4.366	3.907	3.236	3.056	3.104	3.353	3.947	4.306	4.437	4.373	4.900	5.177	5.740	6.492	7.332	8.146	8.535	9.749	9.062	8.142	7.418	7.364	6.765	6.326	5.686	5.288	5.894	5.906	6.158	6.919	8.108	8.608	9.043	9.776	10.39	11.24	11.48	12.17	12.07	11.72	11.73	11.37	10.48	9.853	8.802	7.913	7.481
345.0	3626	3738	3480	2686	1909	1515	1494	1656	1990	2307	2591	2767	2687	2398	1909	1419	1133	1014	703.2	441.2	332.9	323.1	555.3	2739	9999.9	9999.9	356.7	15.82	9.281	6.505	5.097	4.084	3.477	3.258	3.103	3.585	3.741	4.262	4.710	4.546	4.842	5.349	5.961	6.475	7.573	8.039	8.598	9.662	8.969	8.485	7.578	8.224	7.461	6.607	6.001	5.936	6.198	6.018	6.824	7.394	8.172	8.808	9.587	10.33	10.52	10.95	11.62	12.04	12.53	12.28	12.07	11.75	11.00	10.07	9.146	8.487	7.747
350.0	3543	3658	3411	2729	2065	1687	1623	1764	2037	2328	2583	2736	2657	2404	1952	1484	1180	978.4	840.5	620.3	402.3	303.8	293.4	730.3	2943	9394	9999.9	1560	27.00	9.609	6.629	4.932	4.044	3.348	3.405	3.439	3.768	4.209	4.397	4.421	4.776	5.359	5.982	6.470	7.406	8.054	8.264	9.465	8.938	8.120	7.757	8.571	7.820	7.218	6.521	6.436	6.728	7.156	7.300	7.800	8.477	8.971	9.603	10.48	10.94	11.31	11.48	11.76	11.85	12.23	11.77	11.74	11.20	10.65	9.581	8.646	8.121
355.0	3449	3540	3297	2704	2204	1868	1817	1929	2134	2398	2586	2706	2621	2391	1991	1541	1262	1033	853.1	776.6	567.4	381.2	298.8	333.7	772.7	2229	6374	9999.9	2454	31.72	8.880	6.456	4.455	3.765	3.449	3.695	3.752	4.282	4.345	4.297	4.748	5.164	6.107	6.223	7.349	8.054	8.131	8.943	8.835	7.747	7.516	8.604	7.951	7.676	6.939	6.958	7.221	7.592	8.040	8.482	9.066	9.789	10.42	10.76	10.89	11.41	11.49	11.63	12.04	12.15	11.57	11.60	11.54	11.13	9.886	9.294	8.777
360.0	3311	3476	3177	2696	2279	1985	1918	2026	2206	2444	2596	2685	2595	2362	1997	1585	1319	1096	896.6	794.7	710.8	487.2	351.3	287.1	328.1	604.9	1662	8621	9999.9	395.2	21.17	8.527	5.831	4.511	4.005	3.811	4.044	4.308	4.336	4.587	4.775	5.155	5.811	6.076	7.167	7.759	7.669	8.610	7.968	7.842	7.796	8.668	8.184	7.870	7.595	7.277	7.867	8.070	8.279	9.018	9.526	9.989	10.22	10.31	10.99	10.78	11.76	11.89	11.59	11.58	11.64	11.54	11.24	11.05	9.963	9.231	8.951
365.0	3267	3390	3075	2710	2298	2082	2012	2101	2255	2432	2576	2620	2542	2325	1996	1613	1358	1144	951.4	810.1	754.1	601.5	426.0	322.7	268.5	272.1	465.3	2477	9999.9	9999.9	327.6	13.38	7.516	5.297	4.335	3.977	4.034	4.560	4.731	4.399	4.678	5.184	5.634	6.452	6.817	7.467	7.673	8.496	8.286	7.447	7.824	8.678	8.355	8.148	7.942	7.764	8.541	8.455	8.953	8.847	9.525	10.19	10.43	10.72	10.90	10.90	11.47	11.65	11.59	11.43	11.01	11.10	11.04	10.85	9.844	9.336	9.019
370.0	3155	3252	2957	2640	2346	2175	2086	2152	2270	2421	2528	2545	2459	2265	1959	1625	1396	1203	1026	878.9	773.7	713.2	592.0	421.1	319.7	251.0	239.5	645.8	2893	8875	9999.9	1383	22.84	7.827	5.455	4.547	4.618	4.740	4.583	4.777	4.910	5.114	5.610	6.118	6.586	7.423	7.284	8.139	7.820	7.069	7.404	8.639	8.426	8.393	8.381	8.204	8.603	8.626	8.815	9.302	9.750	9.995	10.13	10.52	10.95	10.74	11.22	11.09	11.37	11.11	10.95	11.06	10.90	10.30	9.707	9.394	9.309
375.0	3034	3062	2856	2569	2409	2256	2148	2168	2266	2386	2476	2474	2365	2191	1910	1624	1427	1261	1105	961.5	839.6	744.1	706.8	578.5	407.4	305.0	240.2	274.6	731.2	2098	6264	9999.9	2113	26.44	7.872	5.717	5.173	4.844	4.769	4.907	5.132	5.397	5.414	6.003	6.614	6.869	6.798	8.130	7.464	6.919	7.306	8.535	8.507	8.330	8.476	8.210	9.064	8.718	8.927	9.614	9.783	9.937	10.27	10.71	10.83	10.60	11.19	10.72	10.93	10.91	10.93	10.48	11.12	10.39	9.765	9.332	9.036
380.0	2875	2997	2779	2555	2405	2272	2176	2164	2241	2350	2410	2392	2295	2117	1868	1614	1431	1284	1142	1022	892.9	787.3	723.2	677.4	503.2	366.4	275.6	222.8	275.3	542.8	1642	8051	9999.9	330.7	17.36	7.381	5.789	5.120	5.084	5.163	4.981	5.228	5.507	5.898	6.246	6.805	7.192	7.620	7.424	6.794	6.905	8.701	8.306	8.359	8.568	8.690	8.975	8.996	9.206	9.552	9.537	10.07	10.05	10.43	10.28	10.32	10.79	10.26	10.72	10.77	10.65	10.16	10.34	10.04	9.630	9.208	9.097
385.0	2903	2868	2654	2479	2392	2274	2181	2169	2207	2279	2318	2308	2222	2048	1828	1588	1427	1304	1169	1054	935.7	836.0	745.7	701.4	609.2	433.0	324.8	243.4	204.2	218.5	433.8	2328	9468	8105	259.4	11.10	7.299	5.802	5.574	5.579	5.124	5.563	5.552	5.958	6.208	6.445	6.867	7.161	7.335	6.533	6.800	8.501	8.091	8.379	8.314	8.961	8.939	9.007	8.997	9.331	9.217	9.860	10.13	10.31	9.951	10.19	10.42	10.02	10.29	10.31	10.47	10.42	9.988	9.293	9.455	9.473	8.907
390.0	2812	2731	2569	2410	2363	2273	2180	2131	2132	2190	2224	2202	2091	1950	1761	1551	1415	1303	1188	1079	976.0	879.9	790.0	713.9	660.5	548.9	405.9	301.1	233.5	188.7	194.6	588.7	2683	7019	5672	1064	19.80	7.538	6.415	5.816	5.572	5.624	5.574	5.956	6.079	6.389	6.642	6.994	6.999	6.513	6.640	8.104	8.083	8.344	8.390	8.653	8.946	8.946	8.745	8.873	9.085	9.297	9.804	9.989	9.886	9.775	9.804	9.831	9.618	9.811	9.945	9.830	9.618	9.390	8.750	9.196	9.129
395.0	2543	2614	2435	2351	2311	2229	2155	2090	2069	2117	2134	2096	1994	1871	1692	1509	1392	1289	1185	1093	1002	923.2	832.3	751.3	678.2	629.0	520.8	371.9	291.9	228.2	183.4	229.2	665.0	1668	4478	8571	1648	22.25	7.853	6.649	6.173	5.827	5.670	5.871	6.268	6.197	5.997	6.530	6.663	6.264	6.116	7.809	7.987	8.475	8.324	8.176	8.795	8.873	8.534	8.873	9.086	9.060	9.618	9.219	9.653	9.388	9.176	9.293	9.312	9.157	9.379	9.009	9.309	9.071	9.118	8.747	8.839
400.0	2522	2519	2349	2273	2277	2178	2116	2049	2034	2054	2060	2017	1919	1807	1634	1467	1355	1280	1178	1101	1014	934.5	860.6	778.2	703.9	640.2	584.6	452.1	345.5	269.1	208.7	172.6	234.4	432.5	1224	6374	7473	276.5	14.95	7.516	6.919	5.868	5.877	5.435	5.932	6.154	6.210	6.537	6.505	6.142	6.070	7.352	8.261	8.382	8.158	8.354	8.917	8.678	8.720	8.712	8.733	9.052	9.053	9.105	9.386	9.186	8.933	8.741	9.240	9.032	8.857	8.712	9.067	8.704	8.575	8.654	8.792
405.0	2453	2433	2252	2220	2213	2167	2104	2014	1992	1987	2002	1952	1853	1744	1583	1435	1330	1244	1159	1086	1009	941.6	881.9	802.8	730.0	649.7	601.4	533.5	402.1	312.3	243.8	184.4	159.1	171.5	327.1	1851	7064	5701	218.2	10.16	7.359	6.246	6.018	5.671	5.754	6.056	6.124	6.593	6.530	5.807	6.139	7.562	7.856	8.339	8.172	8.240	8.834	8.681	8.708	8.591	8.647	8.914	8.585	8.827	8.826	8.636	8.898	8.609	8.679	8.754	8.871	8.448	8.932	8.369	8.552	8.377	8.101
410.0	2323	2284	2180	2158	2129	2113	2041	1977	1955	1929	1920	1867	1765	1655	1500	1371	1279	1197	1122	1056	994.0	933.0	875.7	816.0	748.7	673.9	606.4	562.3	485.4	375.4	290.3	223.1	170.7	135.7	142.6	462.5	2026	5168	4356	940.5	17.51	7.491	6.572	5.907	5.781	5.948	5.797	6.191	6.122	5.731	5.893	7.314	7.757	7.728	7.945	7.990	8.474	8.430	8.607	8.475	8.519	8.507	8.130	8.559	8.429	8.374	8.382	8.067	8.589	8.136	8.293	8.275	8.294	8.219	7.934	7.682	8.005
415.0	2219	2150	2084	2030	2042	2025	1982	1932	1893	1860	1827	1772	1645	1558	1416	1296	1206	1138	1064	1008	963.4	909.9	864.0	814.2	753.4	683.7	617.4	557.7	519.7	449.1	335.7	261.0	196.8	147.4	116.4	161.3	491.1	1230	3361	6193	1368	19.81	7.568	6.332	5.860	5.980	5.252	6.099	5.915	5.545	5.488	7.061	7.412	7.550	7.448	7.726	8.305	8.186	8.032	8.151	8.590	8.219	8.144	8.228	8.256	7.943	8.065	7.749	8.046	7.802	7.700	7.655	7.910	7.796	7.486	7.486	7.623
420.0	2070	2067	1968	1986	1959	1972	1941	1871	1833	1800	1768	1683	1573	1482	1357	1235	1153	1085	1022	965.6	924.8	882.0	845.0	801.4	743.0	687.1	624.8	557.1	511.7	485.8	382.8	285.7	214.7	162.1	121.2	103.3	156.6	306.4	907.8	4579	5506	253.1	13.25	7.058	6.154	5.909	5.361	5.722	5.668	5.363	5.496	6.953	6.929	7.351	7.719	7.594	8.213	7.831	7.642	7.740	7.884	7.941	8.225	8.248	7.880	7.812	7.596	7.578	7.907	7.446	7.536	7.711	7.706	7.410	7.052	7.492	7.329
425.0	1963	1963	1957	1905	1909	1928	1873	1825	1788	1729	1719	1620	1504	1408	1284	1182	1107	1043	981.0	928.9	889.9	853.1	825.5	782.1	732.5	681.6	624.5	566.3	509.2	483.0	421.4	313.5	231.1	177.4	129.9	99.72	89.93	107.2	230.2	1336	5099	4267	197.9	9.233	6.918	6.193	5.514	5.603	5.569	5.305	5.359	6.878	6.914	6.826	7.405	7.218	8.064	8.019	7.728	7.741	7.628	7.687	7.953	8.163	7.666	7.300	7.510	6.954	7.409	6.892	6.843	7.200	7.209	7.029	6.684	7.022	7.127
430.0	2217	1883	1814	1810	1798	1833	1823	1775	1732	1686	1647	1561	1423	1332	1212	1114	1042	987.5	928.8	878.2	843.3	813.4	791.5	754.6	716.2	672.1	624.6	573.0	520.7	477.9	434.5	363.6	266.0	200.1	151.6	113.8	88.36	72.31	86.62	324.4	1447	3776	3519	845.5	16.37	7.158	5.880	5.682	5.615	5.159	5.232	6.293	6.433	6.830	6.884	7.258	7.646	7.741	7.392	7.541	7.480	7.588	7.595	7.518	7.354	7.448	7.009	6.872	6.798	6.638	6.448	6.936	6.806	6.506	6.678	6.558	6.544
435.0	3557	1766	1749	1725	1728	1760	1782	1727	1689	1625	1584	1479	1350	1259	1139	1053	988.2	931.2	878.8	834.1	798.1	772.5	757.0	728.6	698.4	661.7	618.5	572.0	527.3	482.0	427.7	384.1	311.9	227.3	171.3	131.8	100.9	77.09	64.62	104.9	346.3	894.5	2606	5129	1268	19.00	6.609	6.034	5.871	5.260	5.128	6.127	6.000	6.692	6.674	6.943	7.225	7.615	7.597	7.500	7.134	7.345	7.618	7.448	6.920	7.077	6.677	6.607	6.428	6.298	6.114	6.461	6.437	6.045	6.345	6.203	6.259
440.0	5000	1931	1662	1648	1676	1716	1726	1713	1638	1586	1538	1425	1298	1201	1091	1001	935.1	879.9	836.0	793.7	761.7	744.9	720.9	704.4	677.3	646.5	606.7	568.3	528.7	483.6	428.0	375.4	329.5	255.9	186.0	144.7	111.5	84.52	66.83	61.52	106.2	221.7	705.6	3817	4844	233.6	12.76	6.862	6.010	5.407	5.133	6.096	6.217	6.609	6.482	6.711	7.096	7.432	7.537	7.466	7.114	7.250	7.581	6.982	6.835	6.924	6.484	6.537	6.090	5.904	6.006	6.039	6.314	5.991	5.984	6.027	6.167
445.0	5532	2831	1609	1602	1609	1632	1664	1670	1594	1556	1469	1374	1247	1147	1040	949.1	881.1	837.4	793.0	753.5	729.5	705.5	694.0	677.1	652.8	624.0	592.3	556.4	521.9	484.3	429.6	368.0	324.9	277.8	204.4	153.8	121.5	93.37	73.88	57.67	58.63	74.53	178.4	1121	4509	3857	174.2	9.385	6.355	5.362	5.093	6.032	5.985	6.338	6.473	6.293	7.455	7.245	7.145	7.154	7.186	7.236	7.233	6.939	6.706	6.785	6.521	6.293	5.892	6.044	5.940	5.877	5.953	5.763	5.397	5.632	5.852
450.0	3920	4686	1853	1504	1530	1535	1578	1584	1533	1473	1389	1276	1165	1064	961.4	875.0	813.9	772.6	730.1	697.9	671.0	651.7	643.1	627.9	610.9	588.8	562.1	533.5	506.2	468.9	421.5	365.9	313.9	277.0	229.7	171.5	133.7	103.9	83.18	65.96	54.62	47.57	64.82	270.0	1279	3368	3116	778.6	14.53	5.971	5.254	5.891	5.823	6.069	6.189	6.259	7.032	7.213	6.633	7.106	7.091	6.928	6.931	6.682	6.369	6.337	6.012	5.955	5.816	5.681	5.624	5.423	5.444	5.466	5.115	5.056	5.397
455.0	2074	5065	3228	1394	1401	1433	1490	1466	1428	1374	1278	1175	1065	977.2	877.1	794.0	744.6	699.5	666.5	632.2	610.2	593.7	587.8	578.7	563.9	544.9	525.5	501.8	479.9	449.2	408.9	358.1	303.8	264.7	232.1	193.4	147.8	114.2	92.48	75.40	61.15	47.98	43.45	82.52	302.4	793.2	2082	4320	1067	15.72	5.866	5.960	5.903	5.843	6.117	5.823	6.721	6.966	6.305	6.467	6.498	6.691	6.320	6.380	6.175	5.821	5.737	5.499	5.164	4.977	5.148	5.209	4.930	4.953	4.610	4.949	4.880
460.0	1421	3688	4902	1588	1328	1335	1389	1400	1340	1283	1198	1109	996.3	907.1	811.8	737.5	686.5	648.2	616.6	586.3	560.1	552.6	541.9	535.7	527.3	506.7	494.4	472.8	454.6	433.8	394.7	346.7	298.6	256.3	223.6	200.9	159.8	121.6	98.92	80.18	65.93	51.91	42.24	43.73	87.04	192.5	540.6	2926	3855	178.7	11.46	6.213	5.772	5.987	5.688	5.650	6.353	6.352	6.376	6.184	6.226	6.213	6.164	5.977	5.758	5.504	5.501	4.970	5.042	4.983	5.020	4.916	4.674	4.831	4.383	4.408	4.490
465.0	1207	2212	5516	2466	1244	1255	1306	1328	1278	1210	1118	1025	932.7	836.9	751.3	683.5	637.8	593.5	571.5	542.2	522.2	509.0	503.7	495.1	484.3	478.1	463.1	445.1	430.0	409.0	378.6	336.6	289.6	248.1	214.2	193.6	168.2	129.4	102.3	84.45	68.58	55.56	44.75	37.68	41.73	60.50	135.0	819.7	3368	3017	155.7	8.977	6.143	5.963	5.360	5.370	6.106	6.088	5.936	6.050	5.937	5.808	5.851	5.599	5.343	5.328	4.848	4.893	4.731	4.664	4.512	4.506	4.370	4.495	4.267	4.029	4.279
470.0	1085	1315	3767	4563	1472	1158	1186	1191	1161	1096	1027	934.1	843.9	755.6	675.6	609.0	565.3	529.0	504.0	480.9	462.6	452.7	447.8	443.9	435.7	428.9	416.6	405.0	390.8	376.5	350.9	313.8	272.5	235.7	203.0	176.7	160.3	139.6	108.2	86.69	72.28	58.31	47.55	38.90	33.56	32.52	45.63	195.7	921.4	2332	2123	744.7	14.99	6.157	5.399	5.136	5.561	5.398	5.482	5.461	5.676	5.331	5.355	5.300	4.984	4.767	4.637	4.544	4.534	4.322	4.147	4.148	4.152	4.232	3.944	3.700	3.996
475.0	990.8	1044	1716	4943	2911	1054	1056	1063	1052	981.9	926.1	832.5	745.5	668.6	599.2	536.1	499.3	467.1	442.3	420.4	407.1	398.7	393.6	390.8	385.8	379.1	370.0	362.8	354.3	338.7	318.3	287.3	250.3	219.4	190.7	165.3	145.4	134.2	116.7	90.17	73.27	61.60	50.51	40.74	33.81	27.91	26.74	56.99	216.2	537.0	1160	2873	1033	19.21	5.739	5.149	5.210	5.171	5.125	4.974	5.118	4.960	4.762	4.861	4.546	4.361	4.161	4.054	3.944	3.918	3.958	3.820	3.636	3.537	3.557	3.680	3.566
480.0	929.2	947.8	1081	3440	4643	1233	969.1	982.9	959.1	907.2	850.5	774.3	685.0	618.7	545.0	494.4	459.2	427.6	402.3	381.8	368.0	365.2	358.2	356.8	350.3	346.6	340.5	334.8	328.0	315.5	296.5	268.4	237.2	208.1	181.6	157.7	137.1	125.5	118.0	94.77	74.71	62.11	50.93	42.11	34.20	28.43	23.80	27.09	59.59	129.4	288.3	1581	2877	217.6	14.18	5.215	5.077	5.293	5.125	4.800	4.727	4.474	4.540	4.430	4.407	3.853	3.894	3.577	3.576	3.417	3.421	3.521	3.407	3.285	2.945	3.261	3.282
485.0	875.7	899.8	876.2	1867	5263	2124	904.9	910.8	907.9	842.9	797.1	716.2	636.3	574.9	510.8	457.7	419.2	393.1	368.8	354.0	339.4	333.1	329.9	328.3	322.8	320.2	314.5	307.0	303.4	292.6	277.7	252.7	225.8	197.9	174.6	151.2	133.6	117.9	110.6	99.36	77.30	62.65	51.90	43.02	35.89	29.15	24.40	21.00	26.00	39.08	73.15	414.1	2072	2526	190.5	9.045	5.474	5.136	4.630	4.467	4.377	4.284	4.471	4.213	4.092	3.578	3.713	3.406	3.414	3.343	3.343	3.242	3.109	3.028	3.158	2.817	3.030
490.0	735.4	846.2	771.9	1005	3498	4336	1171	842.1	820.6	773.4	728.1	660.5	584.5	517.0	463.9	414.0	379.3	356.7	333.6	322.2	306.9	299.2	297.3	296.5	290.6	287.7	284.8	277.3	275.7	267.3	254.4	234.5	209.7	185.4	164.6	144.2	127.9	112.9	101.0	94.60	82.74	65.63	53.42	44.68	37.27	31.27	26.28	21.98	19.31	19.73	26.27	101.2	533.4	1534	1983	797.8	17.61	5.641	4.727	4.548	4.314	4.016	4.035	4.008	3.733	3.418	3.460	3.233	3.237	3.040	3.125	3.028	2.913	2.714	2.808	2.713	2.791
495.0	624.5	721.9	734.0	712.7	1474	4905	2785	768.4	743.1	702.3	644.8	593.0	522.0	466.0	409.6	370.9	341.0	317.1	293.8	283.4	270.4	263.9	262.6	260.5	259.3	254.9	251.9	248.4	245.8	239.4	230.0	212.1	192.0	167.7	149.9	134.1	121.1	106.1	94.88	85.32	80.97	70.37	55.25	45.36	38.08	32.17	27.18	23.43	19.24	16.83	16.47	31.81	127.0	351.7	909.4	2571	1336	24.24	5.205	4.474	3.920	4.003	3.741	3.700	3.532	3.246	2.983	2.647	2.873	2.818	2.869	2.800	2.655	2.603	2.499	2.580	2.688
500.0	565.0	638.7	686.2	616.1	793.3	3369	4742	925.6	674.7	640.8	584.6	541.3	477.3	421.7	377.6	331.7	308.1	288.1	265.8	254.9	244.2	236.9	237.9	234.8	235.3	230.1	228.2	226.1	223.8	219.7	209.5	193.5	176.8	155.8	140.7	126.9	113.6	101.4	88.77	79.40	73.39	70.54	57.81	45.18	37.92	32.77	27.19	23.40	19.77	16.41	14.43	16.52	36.59	85.63	218.9	1218	2771	996.8	18.70	4.726	4.261	3.656	3.528	3.429	3.052	3.059	2.654	2.388	2.912	2.654	2.547	2.594	2.411	2.372	2.413	2.299	2.364
505.0	499.9	553.6	643.3	568.9	602.1	1684	5571	1824	615.2	584.8	540.0	488.5	432.6	390.2	340.9	301.8	278.9	259.7	243.0	232.4	220.9	216.4	213.5	215.2	213.2	207.7	208.0	206.1	202.9	201.2	191.4	176.2	162.5	145.3	130.3	117.2	106.7	94.90	83.90	75.35	68.15	64.49	59.33	46.48	37.42	32.68	27.44	23.04	20.53	17.04	14.36	13.32	16.62	26.94	56.09	300.7	1559	2557	232.7	12.01	4.308	3.592	3.428	3.252	2.961	2.920	2.862	2.407	2.573	2.394	2.350	2.406	2.308	2.189	2.168	2.203	2.247
510.0	460.1	477.8	539.1	539.1	494.0	775.5	3578	4025	861.4	512.8	479.0	433.0	389.8	343.3	300.6	264.0	241.7	224.9	211.4	201.5	194.1	189.0	188.3	185.0	183.2	181.6	179.1	179.1	178.4	175.7	166.4	156.2	141.7	129.0	117.2	104.7	94.95	85.74	76.87	68.63	61.68	56.39	54.29	48.06	38.63	31.63	26.86	22.63	19.68	17.04	14.96	13.25	12.46	13.92	19.52	73.64	380.9	1232	1711	891.5	18.39	4.112	3.318	3.100	2.889	2.625	2.573	2.326	2.413	2.383	2.107	2.123	2.106	2.023	1.819	2.028	2.041
515.0	380.6	403.6	439.3	513.0	442.7	498.2	1330	4970	2279	475.5	416.6	377.9	339.4	294.2	259.1	229.8	209.8	194.0	183.4	172.7	166.6	162.7	158.3	159.3	158.6	157.0	152.7	153.8	153.3	151.2	142.9	135.2	122.9	113.2	102.5	92.73	83.64	77.15	68.09	62.12	54.96	49.33	45.67	44.81	40.72	31.70	26.41	22.34	19.09	17.08	14.69	13.70	11.79	10.91	11.41	22.75	90.72	280.3	589.1	1847	1241	25.42	3.738	3.101	2.703	2.584	2.367	2.206	2.086	2.191	1.882	1.833	1.960	1.687	1.719	1.771	1.736
520.0	337.6	365.1	380.8	436.5	429.7	398.0	610.1	3325	4617	650.2	377.3	340.8	298.4	263.3	235.5	204.6	186.3	173.3	161.8	155.4	150.3	145.3	141.4	140.9	139.9	138.1	137.3	136.3	134.1	135.1	129.7	120.7	111.3	100.4	91.66	84.83	76.67	70.98	63.36	56.60	50.27	45.09	40.44	39.69	39.39	32.58	26.36	21.72	18.52	16.96	14.37	13.08	11.34	10.33	9.584	11.58	25.93	67.95	138.8	749.3	1993	872.9	19.35	3.294	2.699	2.641	2.337	2.007	2.006	1.932	1.767	1.674	1.796	1.501	1.607	1.662	1.592
525.0	318.0	333.6	336.0	371.4	410.4	361.3	407.1	1518	5776	1609	343.7	310.9	273.0	240.5	210.0	181.3	168.4	155.0	145.9	139.4	132.5	127.5	126.2	126.0	124.6	123.2	123.2	122.0	119.8	121.0	114.6	108.0	99.19	89.38	83.55	78.13	69.35	64.26	58.69	52.51	47.00	42.11	38.28	35.11	35.70	33.57	26.58	20.87	18.33	16.21	13.76	12.56	11.67	10.91	8.833	8.850	11.45	20.37	35.77	179.0	952.4	1829	240.5	12.48	2.806	2.399	2.077	1.945	1.868	1.692	1.664	1.539	1.630	1.565	1.695	1.669	1.504
530.0	287.8	294.0	281.1	298.1	362.4	341.7	321.8	600.2	3569	4500	639.9	273.2	238.7	207.6	182.8	160.5	143.8	135.2	127.1	119.9	114.3	111.6	109.4	108.2	106.9	105.7	104.5	104.7	103.7	103.5	98.81	93.71	86.21	78.62	73.26	66.71	60.73	56.72	51.44	46.53	42.18	37.83	34.28	31.39	29.61	29.79	26.86	21.05	17.30	15.06	13.29	11.97	10.94	10.05	9.062	8.369	8.172	9.438	12.36	43.92	226.0	770.5	1237	724.7	18.57	2.934	2.137	1.769	1.735	1.622	1.507	1.420	1.305	1.416	1.399	1.444	1.378
535.0	258.2	259.2	240.5	240.4	286.3	328.1	279.3	334.1	1176	5227	1865	253.3	206.0	180.6	156.8	134.5	123.5	116.4	106.0	100.2	97.95	94.30	91.88	92.80	89.60	90.43	89.35	88.88	87.75	86.98	84.49	79.55	73.48	67.15	61.71	57.51	52.89	47.56	44.80	40.87	36.72	34.00	30.34	27.26	25.06	24.49	24.31	21.68	16.92	14.15	12.21	11.02	9.903	9.254	9.016	7.943	7.209	6.895	7.239	13.47	53.73	175.0	372.3	1196	956.9	26.32	2.429	1.798	1.724	1.372	1.492	1.330	1.275	1.260	1.190	1.377	1.207
540.0	244.9	234.4	220.3	207.1	231.7	303.1	261.5	250.5	458.2	3203	4748	407.1	182.0	159.4	139.0	121.5	110.2	101.8	92.88	88.94	86.77	82.60	81.67	79.90	76.98	78.08	77.81	76.35	76.35	75.20	74.03	69.67	64.40	59.17	54.88	50.66	45.79	43.29	39.95	36.99	33.15	30.23	26.76	24.40	22.95	21.16	21.13	21.42	16.89	13.34	11.68	10.19	9.304	8.585	8.298	7.773	6.872	5.986	5.582	6.732	15.38	42.03	86.77	438.0	1337	687.3	19.09	2.152	1.760	1.563	1.418	1.278	1.302	1.274	1.188	1.224	1.132
545.0	229.0	228.8	223.6	192.0	197.3	253.7	266.7	218.6	272.4	1282	5886	1239	165.2	142.6	123.9	108.1	98.23	88.67	83.10	79.27	75.42	73.07	72.34	70.56	68.77	66.47	67.17	67.61	66.68	66.97	64.94	60.93	57.44	52.64	48.78	45.20	41.28	37.62	35.66	32.62	29.71	27.35	24.72	23.09	20.76	19.48	17.52	19.17	16.91	13.57	10.92	9.371	8.604	8.102	7.834	7.729	6.841	5.623	5.281	4.722	6.383	12.36	22.11	103.4	581.8	1270	239.8	10.99	1.866	1.469	1.374	1.241	1.085	1.144	1.070	1.105	1.075
550.0	250.7	238.6	210.7	171.4	161.1	183.9	248.2	196.7	198.0	441.7	3322	4219	343.4	119.9	101.2	90.05	82.97	74.20	71.10	66.10	62.70	61.41	59.55	58.60	57.40	56.12	55.75	56.71	55.79	55.83	53.47	50.73	46.90	43.68	40.07	37.31	34.87	31.74	29.74	27.16	25.07	22.79	21.21	19.43	18.04	16.73	14.95	15.15	14.79	13.45	10.60	8.623	7.899	7.307	6.919	6.628	6.388	5.779	5.066	4.185	4.417	5.421	7.523	25.50	136.7	502.1	830.6	507.4	17.95	1.886	1.353	1.271	1.068	1.094	1.035	0.997	1.006
555.0	250.3	240.3	204.8	152.5	128.4	135.2	203.3	201.1	158.0	214.4	978.0	5042	1305	107.3	84.87	74.84	66.48	59.85	56.53	53.82	51.66	50.06	47.91	47.23	46.14	45.94	45.44	44.82	44.46	44.85	43.02	40.76	37.01	35.34	33.06	30.64	27.99	26.02	24.49	22.52	20.59	18.90	17.57	16.24	15.12	14.18	12.87	12.04	11.91	12.02	10.57	7.936	7.348	6.529	6.132	5.622	5.471	5.219	4.920	3.989	3.605	3.662	3.984	7.783	32.41	113.8	243.3	766.3	613.5	24.20	1.558	1.262	1.080	1.029	0.856	1.018	0.930
560.0	274.8	256.3	193.2	143.3	114.6	118.8	155.4	198.7	143.3	154.3	324.5	2978	3828	156.1	74.65	64.01	57.34	51.55	48.64	46.12	43.40	41.61	40.47	39.67	37.83	37.45	38.10	38.55	38.49	37.92	36.66	34.15	31.87	28.84	27.91	25.94	24.03	22.34	20.83	19.72	17.72	16.65	14.92	13.79	13.41	12.39	11.16	10.30	9.790	10.45	9.612	7.884	6.373	6.020	5.374	5.238	4.739	4.783	4.395	3.787	3.443	3.119	2.925	3.621	9.077	27.12	56.51	274.5	826.1	258.1	16.43	1.397	1.052	0.948	0.765	0.889	0.942
565.0	291.5	265.2	199.2	125.6	101.8	101.5	120.4	186.5	142.7	129.0	162.0	1107	4960	764.3	65.69	54.72	48.91	45.40	42.23	38.63	37.33	35.00	34.75	33.26	33.53	32.96	31.45	31.78	33.53	32.18	30.61	28.95	26.94	24.61	23.37	21.47	20.53	19.38	17.41	16.49	14.96	14.40	13.25	12.27	11.56	10.95	9.905	8.869	8.278	8.042	8.401	7.636	5.988	5.623	4.778	4.713	4.295	4.221	3.863	3.777	3.256	2.606	2.652	2.711	3.702	7.469	14.29	64.42	349.1	727.6	215.0	7.328	1.132	0.982	0.845	0.822	0.858
570.0	271.4	264.3	202.7	119.8	85.12	85.49	96.70	144.2	157.3	115.7	117.9	339.8	2839	3140	106.4	46.48	41.17	36.72	33.98	31.58	30.03	28.95	28.12	27.44	26.37	26.58	26.08	25.58	26.68	25.83	24.36	23.28	21.82	20.52	18.69	17.69	16.90	16.15	14.77	13.49	12.55	11.88	11.02	10.17	9.484	9.010	8.266	7.521	7.004	6.411	6.595	6.747	5.794	4.797	4.296	4.007	3.692	3.737	3.309	3.247	3.192	2.840	2.378	2.351	2.485	3.169	4.523	15.67	81.82	287.9	514.7	262.9	16.14	1.279	0.994	0.787	0.895
575.0	269.1	253.4	187.6	103.4	74.12	70.77	79.15	103.8	157.3	117.6	104.6	148.1	800.2	3866	876.4	40.68	34.52	30.52	27.85	25.07	23.70	23.69	22.35	21.69	21.55	22.17	20.10	20.33	20.62	20.49	19.51	18.67	17.18	16.18	15.01	14.34	13.66	13.11	11.90	10.84	10.24	9.119	8.974	8.625	7.999	7.776	6.911	6.442	5.735	5.499	5.099	5.103	5.279	4.788	3.750	3.391	3.224	3.323	2.642	2.847	2.597	2.698	2.347	2.154	1.861	2.052	2.404	4.835	19.45	65.37	148.1	431.7	262.9	21.34	1.231	0.777	0.776
580.0	254.8	257.9	184.9	98.62	68.05	66.59	70.68	81.01	139.5	135.0	100.1	102.3	243.0	2270	2780	81.15	29.62	26.18	23.09	21.39	20.08	19.92	18.74	18.43	17.49	18.00	17.80	17.36	17.76	17.22	16.41	16.01	14.38	13.65	12.91	12.18	11.68	11.51	10.55	9.422	8.678	7.770	7.621	7.287	6.796	6.700	6.045	5.555	5.131	4.648	4.224	4.359	4.572	4.630	3.652	3.007	3.140	2.789	2.585	2.540	2.168	2.409	2.470	1.970	1.752	1.791	1.759	2.255	5.367	15.62	34.30	152.6	459.9	228.5	13.22	0.883	0.742
585.0	250.5	252.6	183.2	99.54	61.08	60.66	64.61	74.90	111.5	149.8	103.2	93.38	114.2	824.3	3688	422.0	26.75	22.93	19.94	19.11	17.47	17.03	15.77	15.80	15.00	15.16	15.64	15.00	14.52	14.46	14.36	13.93	12.78	11.94	11.12	10.62	10.14	9.403	8.812	8.154	7.535	7.047	6.682	6.352	6.316	5.824	5.486	5.155	4.623	3.983	3.848	3.580	3.947	3.904	3.403	2.966	2.759	2.508	2.471	2.377	1.874	2.113	2.244	2.233	1.696	1.552	1.506	1.672	2.347	4.608	8.699	35.79	194.3	445.7	166.5	4.960	1.020
590.0	237.1	228.6	165.4	95.30	56.16	54.55	59.81	67.09	86.11	137.8	115.5	90.00	83.42	240.0	2098	1979	59.13	19.31	17.73	15.84	15.01	14.35	13.41	13.16	12.81	12.41	12.24	12.37	12.02	12.22	11.61	11.07	10.06	9.979	9.056	8.976	8.595	7.694	7.166	6.751	6.269	5.945	5.658	5.216	5.174	4.965	4.618	4.302	3.853	3.457	3.344	3.041	2.872	3.073	3.320	3.024	2.591	2.318	2.047	1.989	1.884	1.818	1.883	2.204	1.801	1.515	1.494	1.464	1.476	2.054	2.852	8.845	45.46	170.0	308.5	151.2	15.00
595.0	216.2	204.5	153.1	87.56	53.15	47.55	54.63	60.82	70.83	111.6	134.7	91.20	78.34	95.16	578.2	2581	563.5	18.65	14.78	13.57	12.53	11.61	10.79	10.65	10.54	10.37	10.04	9.513	9.771	9.545	9.254	8.759	8.474	7.784	7.623	7.052	6.872	6.213	5.816	5.616	5.011	5.067	4.929	4.295	4.186	4.070	3.933	3.406	3.181	2.979	2.652	2.486	2.267	2.310	2.699	2.845	2.580	2.225	1.939	1.517	1.608	1.650	1.450	1.758	1.858	1.483	1.377	1.265	1.236	1.490	1.461	2.870	10.86	38.51	85.85	250.0	229.5
600.0	216.4	197.0	140.6	80.16	50.45	47.58	52.32	58.06	68.79	93.71	139.5	101.4	73.60	60.98	162.5	1609	1660	37.68	12.47	11.42	10.68	10.35	9.228	9.243	8.814	8.836	8.232	8.046	8.231	8.128	7.855	7.329	7.197	6.464	6.354	6.044	5.805	5.257	4.935	4.751	4.317	4.226	4.068	3.570	3.680	3.439	3.370	2.967	3.035	2.560	2.239	2.167	2.069	2.026	2.165	2.554	2.379	2.056	1.667	1.325	1.589	1.479	1.430	1.519	1.692	1.798	1.520	1.282	1.124	1.325	1.145	1.480	3.042	9.151	19.97	87.63	288.8
605.0	186.5	171.3	129.7	73.56	46.05	44.22	52.61	59.18	70.47	90.68	132.2	114.9	78.43	58.65	65.14	592.1	2312	91.20	12.27	9.866	9.577	8.515	8.305	7.918	7.424	7.638	6.977	7.039	7.186	7.385	7.133	6.341	6.254	5.487	5.634	5.148	5.392	4.483	4.038	4.070	3.673	3.456	3.771	3.299	3.354	2.987	2.818	2.506	2.632	2.226	2.128	1.900	1.755	1.775	1.831	1.958	2.131	2.173	1.552	1.425	1.290	1.384	1.170	1.219	1.348	1.605	1.588	1.211	1.012	1.186	0.985	1.077	1.220	2.658	5.261	20.70	116.2
610.0	165.9	161.4	124.6	70.20	48.24	44.03	50.69	60.43	73.56	91.62	120.4	138.7	91.08	64.73	47.53	167.1	1461	1100	32.92	8.874	8.186	7.395	6.731	6.988	6.612	6.272	5.744	5.896	5.732	6.157	6.202	5.423	5.135	4.671	4.871	4.428	4.296	4.050	3.645	3.272	3.031	2.916	3.005	2.717	2.713	2.690	2.381	2.408	2.105	1.806	1.798	1.688	1.595	1.547	1.534	1.662	1.830	2.054	1.592	1.406	1.279	1.352	1.231	1.301	1.271	1.337	1.499	1.274	1.193	1.249	0.946	1.017	0.940	1.242	1.788	5.202	27.23
615.0	159.5	147.1	114.2	67.83	45.08	40.93	49.14	58.78	72.12	91.34	108.0	136.5	107.2	66.75	44.41	59.79	417.1	1796	330.9	9.181	6.810	6.622	6.019	5.523	5.542	5.088	4.664	5.144	5.062	4.797	4.891	4.415	4.586	4.124	4.220	3.883	3.475	3.470	3.220	2.657	2.451	2.461	2.463	2.224	2.209	2.260	1.957	1.936	1.752	1.572	1.404	1.521	1.332	1.271	1.310	1.322	1.478	1.706	1.621	1.327	1.177	1.150	1.138	1.124	1.055	1.088	1.122	1.196	1.460	1.137	0.986	0.858	0.885	0.806	0.950	1.689	6.554
620.0	153.3	149.9	113.0	72.24	42.41	43.62	48.74	61.90	71.25	86.27	101.6	125.1	115.4	66.42	43.76	35.08	117.2	1254	1018	16.28	6.490	5.687	5.456	5.031	4.903	4.501	4.243	4.285	4.395	4.254	3.994	3.945	3.715	3.519	3.483	3.286	3.040	2.879	3.032	2.449	2.213	2.033	2.000	2.058	2.077	2.016	1.811	1.656	1.491	1.431	1.163	1.425	1.190	1.173	1.136	1.203	1.173	1.499	1.535	1.508	1.146	1.144	1.066	1.073	1.002	1.130	1.072	1.027	1.296	1.225	0.978	0.955	0.826	0.785	0.783	0.957	1.991
625.0	146.2	141.9	103.5	68.24	42.82	41.29	47.76	62.01	70.07	84.51	96.96	113.3	122.5	71.11	44.46	30.01	45.16	504.2	1611	63.31	6.004	5.219	4.786	4.363	4.420	4.157	3.831	3.791	3.606	4.117	3.557	3.403	3.225	2.746	3.101	2.634	2.588	2.579	2.551	2.303	1.834	1.966	1.792	1.957	1.747	1.688	1.620	1.418	1.411	1.227	1.145	1.113	1.091	1.031	0.999	1.097	1.046	1.120	1.308	1.496	1.132	1.012	0.951	1.100	1.095	1.088	0.853	1.064	1.139	1.173	0.866	0.777	0.781	0.836	0.663	0.727	1.005
630.0	139.9	129.3	101.6	63.73	43.67	41.21	47.80	55.58	68.36	85.08	95.85	103.0	113.2	81.68	46.21	29.53	27.46	135.9	1144	742.3	16.17	4.537	4.041	3.828	3.783	3.533	3.145	3.152	3.081	3.039	2.837	2.755	2.711	2.410	2.587	2.182	2.282	2.177	2.108	2.120	1.862	1.611	1.587	1.642	1.430	1.436	1.480	1.371	1.171	1.067	1.018	1.098	0.999	1.000	0.945	0.951	0.933	0.925	0.989	1.237	1.170	0.998	0.964	1.011	1.028	1.007	0.925	1.013	1.049	1.033	1.040	0.855	0.803	0.781	0.640	0.681	0.717
635.0	130.8	128.5	96.38	63.27	39.78	39.29	47.10	57.14	66.19	81.54	96.10	100.8	98.34	93.74	50.57	29.82	23.78	42.77	338.2	1322	69.32	4.680	3.925	3.307	2.923	2.970	2.858	2.596	2.442	2.486	2.502	2.349	2.028	1.999	2.060	1.995	1.877	2.002	1.651	1.613	1.731	1.749	1.188	1.314	1.352	1.331	1.224	1.222	1.064	0.930	0.918	0.893	0.839	0.915	0.905	0.859	0.917	0.775	0.799	1.036	0.936	1.060	0.999	0.970	1.059	0.875	1.002	1.032	1.034	0.947	1.042	0.881	0.799	0.741	0.644	0.699	0.632
640.0	121.3	115.8	88.67	55.52	45.60	38.80	45.32	57.22	66.70	80.20	94.27	98.94	93.51	93.27	56.10	30.91	23.73	22.27	88.45	1021	505.0	8.326	3.694	3.209	2.653	2.770	2.519	2.441	2.128	2.303	2.031	1.858	1.918	1.803	1.651	1.627	1.625	1.561	1.396	1.380	1.642	1.561	1.156	1.162	1.210	1.133	1.151	1.077	0.989	0.868	0.751	0.838	0.756	0.822	0.850	0.828	0.946	0.875	0.841	0.932	0.872	0.903	0.933	0.969	0.873	0.854	0.853	0.981	0.943	0.872	0.952	0.879	0.875	0.697	0.742	0.687	0.570
645.0	128.8	114.5	85.74	59.05	47.07	41.67	47.89	55.71	68.15	80.76	91.27	99.04	91.08	88.36	66.10	32.26	24.06	17.45	27.48	445.1	1096	44.19	3.932	2.986	2.724	2.526	2.343	2.317	2.152	2.125	1.988	1.789	1.824	1.763	1.655	1.584	1.451	1.461	1.224	1.340	1.171	1.532	1.369	1.099	1.149	1.011	1.048	1.023	0.859	0.793	0.728	0.755	0.737	0.629	0.781	0.719	0.877	0.792	0.727	0.793	0.806	0.948	0.982	0.924	0.871	0.839	0.828	0.991	0.822	0.831	0.829	0.861	1.015	0.705	0.637	0.669	0.588
650.0	137.0	126.4	93.14	62.80	42.41	40.80	46.59	54.96	65.62	79.96	87.05	94.76	86.66	82.43	70.51	35.76	25.11	16.40	13.56	129.5	1124	304.0	4.145	2.653	2.600	2.481	2.176	2.042	1.856	1.877	1.859	1.720	1.546	1.537	1.547	1.348	1.347	1.267	1.224	1.223	1.082	1.275	1.319	1.094	1.101	1.006	0.954	0.925	0.832	0.822	0.651	0.711	0.679	0.583	0.677	0.718	0.790	0.771	0.684	0.782	0.877	0.839	0.955	0.940	0.811	0.823	0.811	0.871	0.809	0.740	0.854	0.748	0.872	0.885	0.635	0.633	0.552
