Sample:	'1
File name:	t2025042303y277ге.FD3
Run date:	'10:33:06, 04/24/2025
Operator:	Administrator
Comment:	'

Instrument
Model:	F-2700 FL Spectrophotometer
Serial number:	23B8-004
ROM Version:	4J14000 07

Instrument parameters
Measurement type:	3-D scan
Data mode:	Fluorescence
EX  Start WL:	220.0 nm
EX  End WL:	600.0 nm
EX Sampling interval:	5.0 nm
EM  Start WL:	230.0 nm
EM  End WL:	650.0 nm
EM Sampling interval:	5.0 nm
Scan speed:	12000 nm/min
EX Slit:	5.0 nm
EM Slit:	5.0 nm
PMT Voltage:	700 V
Response:	Auto 
Corrected spectra:	Off
Contour interval:	50.000

Peak integration
Integration method:	Rectangular
Sensitivity:	1
Threshold:	1.000

Peaks
No.	ApexEX/EM(nm)	Height(Data)
1	225.0/580.0	48.05
2	225.0/625.0	27.70
3	230.0/345.0	966.4
4	230.0/565.0	53.25
5	230.0/575.0	52.38
6	230.0/585.0	50.53
7	230.0/640.0	29.48
8	235.0/510.0	244.6
9	240.0/265.0	337.2
10	240.0/390.0	783.6
11	240.0/520.0	220.4
12	245.0/270.0	334.5
13	245.0/535.0	183.0
14	250.0/275.0	436.1
15	250.0/545.0	144.3
16	255.0/280.0	534.1
17	255.0/560.0	129.2
18	260.0/290.0	511.9
19	260.0/575.0	104.3
20	265.0/585.0	105.7
21	270.0/300.0	949.6
22	270.0/600.0	88.86
23	275.0/305.0	1072
24	275.0/335.0	811.1
25	275.0/610.0	77.84
26	280.0/310.0	966.4
27	280.0/340.0	810.8
28	280.0/625.0	67.56
29	285.0/315.0	898.8
30	285.0/635.0	50.32
31	290.0/325.0	827.8
32	305.0/345.0	524.5
33	315.0/355.0	420.4
34	320.0/360.0	399.8
35	325.0/370.0	372.6
36	330.0/375.0	358.6
37	335.0/380.0	356.9
38	430.0/505.0	28.20
39	445.0/525.0	16.73
40	485.0/265.0	2.107
41	505.0/275.0	2.945
42	510.0/280.0	3.441
43	520.0/285.0	3.594
44	530.0/290.0	3.430
45	540.0/295.0	4.719
46	545.0/300.0	5.715
47	550.0/305.0	5.787
48	560.0/310.0	5.316
49	570.0/315.0	5.508
50	580.0/320.0	5.308
51	585.0/325.0	5.188

Data points
	220.0	225.0	230.0	235.0	240.0	245.0	250.0	255.0	260.0	265.0	270.0	275.0	280.0	285.0	290.0	295.0	300.0	305.0	310.0	315.0	320.0	325.0	330.0	335.0	340.0	345.0	350.0	355.0	360.0	365.0	370.0	375.0	380.0	385.0	390.0	395.0	400.0	405.0	410.0	415.0	420.0	425.0	430.0	435.0	440.0	445.0	450.0	455.0	460.0	465.0	470.0	475.0	480.0	485.0	490.0	495.0	500.0	505.0	510.0	515.0	520.0	525.0	530.0	535.0	540.0	545.0	550.0	555.0	560.0	565.0	570.0	575.0	580.0	585.0	590.0	595.0	600.0
230.0	26.96	578.8	1637	549.0	24.70	4.556	3.084	3.492	2.514	2.367	2.337	2.152	1.943	1.742	1.452	1.249	1.022	0.892	0.728	0.765	0.675	0.597	0.555	0.497	0.496	0.438	0.408	0.411	0.393	0.337	0.373	0.319	0.276	0.264	0.270	0.268	0.263	0.242	0.232	0.263	0.245	0.273	0.291	0.225	0.227	0.206	0.874	3.637	6.279	4.451	1.540	0.320	0.177	0.154	0.153	0.153	0.155	0.160	0.164	0.145	0.148	0.150	0.161	0.137	0.151	0.155	0.130	0.150	0.155	0.151	0.147	0.152	0.124	0.137	0.144	0.161	0.153
235.0	59.96	173.0	1125	2171	496.9	42.59	3.574	3.578	2.776	3.248	2.608	2.812	2.135	1.580	1.493	1.235	1.072	0.899	0.918	0.795	0.618	0.689	0.650	0.535	0.582	0.458	0.534	0.381	0.450	0.422	0.374	0.257	0.337	0.338	0.294	0.240	0.278	0.255	0.205	0.279	0.291	0.243	0.236	0.302	0.345	0.268	0.327	1.056	2.872	5.442	7.252	7.540	3.226	0.626	0.189	0.224	0.180	0.135	0.178	0.176	0.209	0.138	0.184	0.205	0.158	0.166	0.153	0.124	0.140	0.152	0.145	0.173	0.182	0.188	0.142	0.161	0.148
240.0	90.09	102.4	343.6	1951	2402	398.2	20.32	4.248	3.768	3.731	3.322	3.042	1.945	1.950	1.372	1.200	1.016	1.000	0.794	0.773	0.624	0.592	0.632	0.618	0.638	0.423	0.423	0.418	0.372	0.448	0.444	0.339	0.290	0.329	0.276	0.268	0.236	0.292	0.203	0.208	0.270	0.303	0.232	0.255	0.433	0.431	0.290	0.427	0.790	1.717	4.487	11.03	12.92	7.889	2.487	0.385	0.185	0.185	0.184	0.199	0.176	0.152	0.167	0.183	0.166	0.158	0.162	0.131	0.163	0.152	0.118	0.148	0.174	0.179	0.177	0.152	0.160
245.0	71.75	142.4	124.1	670.3	2650	2509	288.2	9.437	4.755	3.771	3.543	3.261	2.121	1.986	1.549	1.372	1.038	1.310	0.970	0.813	0.782	0.743	0.739	0.572	0.585	0.483	0.408	0.464	0.455	0.444	0.414	0.305	0.279	0.289	0.204	0.255	0.215	0.252	0.263	0.309	0.238	0.283	0.296	0.225	0.339	0.447	0.605	0.521	0.460	0.524	1.214	4.017	10.57	16.44	14.96	6.853	1.599	0.250	0.199	0.182	0.165	0.153	0.188	0.151	0.171	0.148	0.144	0.157	0.192	0.209	0.142	0.171	0.169	0.174	0.137	0.167	0.195
250.0	32.91	108.7	184.1	233.0	848.9	2501	3160	1036	59.58	5.365	4.361	3.690	2.603	2.222	1.663	1.620	1.323	1.270	1.055	1.007	0.759	0.785	0.721	0.571	0.552	0.531	0.507	0.510	0.451	0.447	0.397	0.345	0.316	0.316	0.305	0.304	0.263	0.246	0.262	0.310	0.267	0.253	0.351	0.222	0.272	0.289	0.396	0.615	0.819	0.745	0.590	1.112	2.696	5.563	10.35	15.12	19.09	15.48	7.701	1.621	0.262	0.176	0.197	0.221	0.171	0.198	0.167	0.156	0.174	0.191	0.158	0.183	0.153	0.161	0.161	0.165	0.183
255.0	25.73	40.92	144.8	296.8	271.8	634.6	2510	4918	1440	57.57	5.964	5.368	4.200	3.126	2.558	1.744	1.785	1.181	1.143	0.968	0.846	0.777	0.784	0.711	0.647	0.464	0.605	0.485	0.551	0.453	0.409	0.366	0.309	0.357	0.356	0.363	0.276	0.217	0.283	0.260	0.290	0.283	0.285	0.215	0.243	0.303	0.228	0.311	0.491	0.744	1.189	1.309	0.959	1.437	2.498	3.835	8.162	19.39	31.46	24.39	11.11	1.868	0.251	0.218	0.192	0.204	0.134	0.173	0.172	0.146	0.141	0.222	0.128	0.166	0.167	0.156	0.152
260.0	26.96	22.97	57.72	242.7	286.8	191.3	753.9	4101	5513	250.6	23.65	7.507	5.354	3.842	2.415	2.220	2.033	1.336	1.173	1.171	0.972	0.781	0.626	0.655	0.704	0.576	0.656	0.518	0.538	0.473	0.453	0.435	0.370	0.317	0.368	0.325	0.337	0.246	0.284	0.288	0.285	0.237	0.256	0.301	0.323	0.262	0.254	0.245	0.274	0.375	0.789	1.609	1.637	0.889	0.801	1.086	2.099	5.475	15.26	30.81	39.72	22.75	7.892	0.851	0.239	0.247	0.172	0.222	0.175	0.168	0.188	0.179	0.138	0.168	0.180	0.167	0.189
265.0	27.03	16.29	24.94	107.5	337.2	217.7	201.3	1363	5833	5311	195.9	13.17	6.428	4.201	3.266	2.839	1.985	1.565	1.176	1.375	1.128	0.877	0.794	0.692	0.750	0.626	0.776	0.584	0.601	0.493	0.442	0.401	0.416	0.392	0.356	0.326	0.320	0.247	0.285	0.335	0.250	0.283	0.300	0.324	0.356	0.266	0.264	0.268	0.252	0.248	0.328	0.776	1.765	2.107	1.247	0.573	0.696	1.416	3.802	9.789	24.85	41.52	31.43	19.37	4.109	0.392	0.252	0.225	0.185	0.166	0.205	0.207	0.164	0.197	0.207	0.184	0.216
270.0	33.19	32.09	29.50	43.12	157.1	334.5	258.1	351.4	1810	5298	6576	776.5	46.07	7.034	4.284	3.203	2.711	1.880	1.441	1.527	1.138	1.054	0.852	0.817	0.665	0.683	0.683	0.563	0.674	0.508	0.505	0.467	0.502	0.379	0.393	0.333	0.340	0.330	0.361	0.312	0.324	0.342	0.330	0.370	0.360	0.283	0.273	0.296	0.322	0.277	0.231	0.341	0.678	1.182	1.675	1.757	1.499	1.031	1.161	2.520	6.086	12.78	21.80	35.70	36.42	35.79	13.64	3.895	0.417	0.245	0.228	0.250	0.194	0.197	0.251	0.208	0.225
275.0	76.07	93.41	81.32	58.43	57.37	147.4	436.1	306.8	450.6	1313	4602	9462	1092	43.08	6.525	4.760	3.417	2.547	2.168	1.612	1.224	1.194	0.921	0.832	0.822	0.759	0.741	0.580	0.692	0.575	0.511	0.504	0.427	0.478	0.459	0.438	0.375	0.365	0.359	0.307	0.401	0.377	0.391	0.352	0.458	0.368	0.412	0.395	0.444	0.310	0.295	0.343	0.407	0.521	0.623	1.072	1.984	2.945	1.877	1.153	1.753	3.143	5.218	8.625	12.35	30.73	57.23	32.16	20.95	3.822	0.448	0.296	0.204	0.227	0.274	0.201	0.321
280.0	120.2	149.3	155.7	92.91	46.65	65.64	266.4	534.1	257.7	360.1	1304	7090	8872	773.5	18.69	6.019	4.285	3.112	2.414	1.871	1.351	1.192	1.236	0.899	0.843	0.822	0.775	0.678	0.732	0.702	0.473	0.545	0.541	0.493	0.504	0.512	0.437	0.468	0.512	0.350	0.407	0.387	0.403	0.436	0.542	0.426	0.569	0.520	0.470	0.416	0.439	0.392	0.320	0.401	0.380	0.463	0.900	2.086	3.441	2.714	1.390	1.215	1.607	2.362	3.285	7.933	21.27	41.65	66.57	31.31	15.92	1.940	0.380	0.367	0.248	0.243	0.291
285.0	166.9	221.6	223.9	134.5	65.36	50.94	118.2	452.1	504.8	206.1	394.3	2161	8863	7009	113.1	10.34	5.506	3.754	2.706	2.302	1.697	1.387	1.157	1.056	0.955	0.922	0.831	0.727	0.872	0.658	0.588	0.703	0.633	0.672	0.577	0.610	0.576	0.504	0.547	0.405	0.353	0.481	0.431	0.445	0.565	0.584	0.681	0.846	0.748	0.632	0.508	0.501	0.443	0.337	0.387	0.383	0.469	0.891	1.968	3.286	3.594	1.914	1.089	1.017	1.313	2.423	5.454	11.52	30.41	54.97	68.24	27.71	10.56	0.802	0.362	0.282	0.309
290.0	213.2	319.9	309.3	195.8	96.95	68.14	90.80	216.8	511.9	491.3	322.7	655.1	2601	6563	6820	441.0	27.36	5.816	3.582	2.626	2.009	1.819	1.395	1.307	1.136	1.001	0.887	0.817	0.875	0.620	0.703	0.658	0.731	0.665	0.600	0.669	0.577	0.669	0.567	0.545	0.428	0.405	0.481	0.547	0.662	0.769	0.858	1.061	0.971	0.886	0.666	0.646	0.571	0.495	0.506	0.444	0.559	0.611	0.962	1.464	2.447	3.208	3.430	2.582	1.606	1.487	2.272	3.496	7.904	14.87	27.62	39.13	51.40	43.79	18.91	8.809	1.303
295.0	270.4	401.1	394.8	258.8	138.4	107.8	118.7	171.1	289.6	625.1	748.5	449.0	802.7	1659	4324	8316	644.5	24.98	5.192	3.389	2.696	2.093	1.764	1.500	1.383	1.103	0.981	0.871	0.875	0.809	0.739	0.722	0.754	0.707	0.774	0.685	0.636	0.654	0.678	0.550	0.511	0.513	0.507	0.608	0.789	0.908	1.043	1.222	1.146	1.128	0.891	0.767	0.720	0.623	0.609	0.695	0.678	0.731	0.908	1.162	1.328	1.620	2.541	4.267	4.719	3.475	2.108	1.932	3.014	4.381	7.145	9.546	13.49	23.43	50.24	70.71	29.99
300.0	298.9	415.6	421.4	294.0	175.3	145.2	163.0	195.8	268.7	460.8	949.6	699.9	484.3	569.4	1208	5924	5684	476.2	11.07	4.769	3.249	2.517	2.129	1.601	1.450	1.153	1.175	0.986	0.967	0.815	0.732	0.749	0.717	0.810	0.806	0.695	0.709	0.622	0.623	0.566	0.553	0.521	0.554	0.669	0.859	0.966	1.031	1.386	1.416	1.269	1.009	0.939	0.796	0.752	0.764	0.743	0.780	0.953	1.183	1.143	1.157	1.392	1.908	2.622	4.309	5.715	4.286	2.743	2.433	2.423	3.044	3.338	3.971	6.299	15.00	37.29	60.66
305.0	316.8	433.8	452.0	322.7	219.7	179.1	204.8	242.5	319.6	431.9	758.2	1072	585.5	398.9	433.7	1730	6682	4677	70.78	7.265	4.202	2.990	2.277	1.746	1.383	1.380	1.209	1.025	0.990	0.817	0.800	0.807	0.698	0.660	0.799	0.754	0.680	0.801	0.617	0.599	0.574	0.700	0.647	0.702	0.862	0.943	1.181	1.377	1.499	1.284	1.087	1.097	1.054	0.925	0.767	1.014	0.985	1.258	1.302	1.424	1.633	1.621	1.981	2.396	3.187	4.365	5.787	5.597	3.803	2.548	2.284	2.078	2.267	2.366	4.205	9.465	20.46
310.0	286.7	452.1	477.1	354.5	243.4	220.2	241.8	299.7	366.9	464.6	627.7	909.7	966.4	542.9	318.0	509.5	1926	4757	4991	1219	19.50	4.609	2.894	2.250	1.923	1.538	1.207	1.076	1.190	1.000	0.961	0.735	0.668	0.747	0.765	0.830	0.738	0.720	0.723	0.617	0.592	0.622	0.678	0.750	0.834	1.016	1.162	1.370	1.400	1.305	1.107	1.188	1.061	1.037	1.020	1.065	1.206	1.339	1.480	1.666	1.764	1.923	2.144	2.427	2.934	3.285	3.751	4.751	5.316	5.080	3.992	2.613	2.183	1.979	2.038	2.995	5.406
315.0	291.1	455.0	482.1	389.9	283.5	257.6	284.9	339.3	412.1	504.7	621.9	734.1	854.5	898.8	425.8	282.3	538.0	1160	3137	6365	480.3	20.18	4.754	2.973	2.275	1.967	1.399	1.205	1.066	0.974	0.820	0.910	0.830	0.772	0.721	0.821	0.773	0.671	0.657	0.760	0.547	0.673	0.639	0.753	0.831	1.018	1.182	1.548	1.482	1.453	1.165	1.227	1.333	1.063	1.156	1.315	1.324	1.331	1.651	1.781	1.980	2.166	2.359	2.697	2.958	3.202	3.258	3.482	3.876	4.257	5.508	5.299	3.526	2.396	1.955	1.884	2.318
320.0	321.5	479.7	556.6	429.9	318.3	285.3	320.1	369.2	442.5	547.4	646.0	731.8	752.5	880.7	701.2	305.3	272.3	360.9	844.0	4262	4112	384.9	9.487	4.009	2.603	2.294	1.518	1.416	1.228	0.969	0.821	0.894	0.854	0.827	0.834	0.779	0.854	0.775	0.623	0.740	0.616	0.685	0.670	0.744	0.776	1.142	1.245	1.586	1.688	1.495	1.243	1.319	1.392	1.250	1.458	1.328	1.402	1.702	1.794	1.742	1.968	2.511	2.490	2.755	3.125	3.205	3.374	3.327	3.437	3.521	4.124	4.965	5.308	4.326	2.643	1.966	1.811
325.0	362.4	568.7	688.7	512.8	359.3	315.2	352.3	393.7	472.9	573.5	678.1	757.9	745.1	736.7	827.8	476.0	255.2	210.1	270.6	1207	4569	3660	56.57	6.129	3.593	2.608	1.920	1.660	1.302	1.121	1.046	0.936	0.886	0.789	0.764	0.699	0.785	0.803	0.684	0.573	0.578	0.751	0.715	0.834	0.902	1.108	1.372	1.887	2.140	1.802	1.553	1.681	1.504	1.421	1.319	1.443	1.579	1.810	1.925	2.035	2.126	2.565	2.657	2.919	3.009	3.512	3.396	3.569	3.561	3.487	3.616	3.883	4.380	5.188	4.411	3.047	2.010
330.0	392.0	649.2	835.4	682.2	454.1	360.7	382.0	421.9	494.6	596.6	703.5	783.4	776.3	706.4	687.2	651.3	410.3	221.4	172.8	349.0	1301	3470	3857	1089	17.77	3.534	2.516	1.868	1.602	1.305	1.160	1.019	0.894	0.791	0.841	0.743	0.731	0.754	0.704	0.716	0.613	0.734	0.780	0.889	1.052	1.298	1.686	2.191	2.466	2.390	2.101	2.099	1.891	1.593	1.544	1.585	1.727	1.974	2.027	2.169	2.287	2.483	2.818	2.996	3.151	3.678	3.609	3.794	3.693	3.788	3.757	3.614	3.788	3.892	4.239	4.276	3.981
335.0	421.6	697.6	923.5	797.5	547.4	431.8	418.3	454.1	516.7	623.8	719.9	811.1	797.4	728.5	641.7	566.7	600.9	363.6	193.8	189.8	358.4	836.7	2394	5103	408.6	19.20	3.527	2.627	2.057	1.580	1.408	1.266	0.963	0.934	0.879	0.727	0.758	0.709	0.730	0.605	0.647	0.761	0.782	0.949	1.247	1.370	1.762	2.309	2.722	2.633	2.405	2.324	2.275	1.847	1.845	1.825	1.832	1.983	2.118	2.145	2.356	2.471	2.670	3.025	3.262	3.473	3.675	3.762	3.857	4.142	3.953	3.758	3.696	3.688	3.445	3.532	3.960
340.0	427.7	711.9	964.4	879.0	616.5	477.8	449.1	467.0	530.0	638.5	719.2	810.7	810.8	746.9	646.2	532.2	550.4	521.3	257.9	174.3	167.2	242.6	635.5	3323	3414	348.2	9.603	3.372	2.553	1.760	1.478	1.327	1.088	0.978	1.089	0.793	0.708	0.760	0.653	0.683	0.672	0.830	0.751	0.830	1.217	1.429	1.850	2.413	2.900	2.808	2.550	2.677	2.404	2.093	2.007	1.954	1.999	1.978	2.108	2.157	2.527	2.495	2.780	3.032	3.441	3.247	3.992	3.687	4.119	3.964	3.823	3.916	3.591	3.700	3.383	3.391	3.318
345.0	430.9	714.8	966.4	911.7	657.1	514.8	465.4	479.3	539.8	627.0	721.4	792.9	791.8	745.6	655.8	527.8	470.6	524.5	388.1	203.9	142.9	126.6	192.5	925.8	3628	3135	51.36	5.471	2.946	2.156	1.601	1.428	1.080	0.881	0.929	0.773	0.671	0.781	0.584	0.714	0.717	0.756	0.774	0.861	1.154	1.468	1.817	2.471	2.936	2.794	2.767	2.819	2.685	2.383	2.044	2.030	2.120	2.118	2.337	2.226	2.558	2.626	2.860	2.963	3.280	3.492	3.680	3.577	3.923	3.915	3.756	3.813	3.674	3.992	3.471	3.469	3.321
350.0	409.0	703.5	955.6	900.5	696.7	554.8	499.0	502.7	550.6	625.2	700.9	769.3	767.0	734.8	653.1	543.0	462.2	432.1	448.7	337.0	182.2	129.6	115.3	258.4	1023	2722	3143	962.5	16.93	2.948	1.939	1.575	1.240	1.050	1.114	0.791	0.822	0.780	0.702	0.725	0.768	0.840	0.778	0.879	0.950	1.380	1.760	2.364	2.652	2.813	2.670	2.899	2.788	2.540	2.311	2.176	2.236	2.217	2.365	2.386	2.424	2.597	2.840	2.976	3.073	3.278	3.460	3.538	3.831	3.766	3.803	3.807	3.672	3.948	3.548	3.346	3.196
355.0	378.3	664.4	908.3	870.9	723.5	612.1	549.8	535.0	572.6	626.1	688.7	740.6	752.8	720.9	652.3	555.9	483.2	421.7	387.2	420.4	307.1	169.2	126.6	132.6	277.0	653.8	1810	3984	383.0	20.51	3.023	2.157	1.515	1.476	1.003	0.922	0.926	0.731	0.825	0.635	0.624	0.796	0.695	0.859	0.992	1.276	1.414	2.165	2.539	2.588	2.580	2.748	2.792	2.522	2.475	2.258	2.287	2.356	2.384	2.301	2.539	2.583	2.877	3.315	3.084	3.264	3.425	3.500	3.539	3.404	3.677	3.814	3.657	3.612	3.732	3.583	3.112
360.0	388.4	619.5	854.4	866.2	738.8	661.8	578.6	559.7	584.5	640.6	690.8	728.6	734.8	709.2	646.7	568.2	498.4	441.4	380.0	382.1	399.8	240.5	155.5	122.8	128.2	190.2	473.7	2521	3139	338.6	10.09	2.931	1.921	1.559	1.220	0.868	0.900	0.830	0.802	0.650	0.627	0.763	0.727	0.801	0.933	1.342	1.600	2.114	2.489	2.513	2.479	2.827	2.918	2.660	2.622	2.296	2.695	2.591	2.498	2.449	2.625	2.664	3.163	2.938	3.038	3.444	3.303	3.358	3.328	3.704	3.820	3.693	3.665	3.681	3.413	3.670	3.429
365.0	379.5	596.9	821.2	855.4	761.2	677.8	606.6	598.2	609.2	651.8	694.2	725.6	718.9	694.1	642.3	573.4	511.5	456.4	396.5	361.0	392.9	343.6	200.7	142.2	112.4	100.8	145.2	703.0	2987	2898	48.89	5.136	2.523	1.767	1.472	1.117	0.869	0.891	0.708	0.693	0.625	0.716	0.685	0.891	0.898	1.292	1.652	1.894	2.303	2.354	2.425	2.810	2.824	2.696	2.763	2.508	2.758	2.519	2.619	2.591	2.775	2.740	3.031	3.186	3.211	3.244	3.452	3.246	3.244	3.451	3.565	3.689	3.590	3.716	3.635	3.672	3.652
370.0	353.5	563.2	772.0	835.2	758.8	698.0	636.0	622.2	634.1	664.5	694.3	708.0	698.2	682.2	633.6	576.6	526.1	476.2	424.4	377.0	356.0	372.6	311.7	194.7	138.2	105.2	89.12	196.8	831.9	2348	2814	896.2	16.03	2.527	1.661	1.292	1.011	0.971	0.803	0.694	0.690	0.737	0.629	0.882	0.958	1.192	1.493	1.923	2.196	2.345	2.377	2.851	2.882	2.763	2.896	2.641	2.827	2.657	2.769	2.865	2.983	2.897	3.048	3.128	3.169	3.271	3.392	3.293	3.397	3.343	3.424	3.673	3.479	3.498	3.596	3.573	3.354
375.0	335.0	539.3	718.9	814.7	785.1	729.0	668.5	648.8	647.2	665.1	684.1	698.8	679.3	664.9	622.7	572.7	541.8	493.8	447.9	402.8	364.1	339.1	358.6	298.9	181.4	131.7	98.36	101.1	225.5	561.5	1563	3431	335.6	18.51	2.430	1.575	1.337	1.013	0.976	0.867	0.736	0.745	0.736	0.834	0.923	1.248	1.382	1.814	2.159	2.290	2.292	2.754	2.890	2.830	2.767	2.640	2.904	2.870	2.941	3.022	2.859	2.987	3.153	3.186	3.321	3.073	3.289	3.173	3.252	3.244	3.197	3.479	3.540	3.399	3.644	3.490	3.313
380.0	331.2	506.8	696.1	785.8	781.1	736.2	693.6	665.4	654.4	671.1	676.9	687.5	664.8	654.0	613.7	572.4	535.3	499.0	455.1	419.6	380.9	340.6	337.3	356.9	244.4	159.4	119.4	95.98	101.7	161.9	409.1	2130	2703	288.1	9.148	2.041	1.406	1.219	1.060	0.850	0.789	0.724	0.814	0.902	0.995	1.241	1.287	1.919	2.055	2.206	2.240	2.841	2.773	2.770	3.102	2.755	2.663	2.799	3.045	3.058	3.060	2.933	3.036	3.116	3.071	3.128	3.030	3.284	3.372	3.278	3.176	3.396	3.376	3.460	3.318	3.459	3.342
385.0	301.9	507.1	677.5	767.0	780.2	750.0	691.7	664.4	666.6	671.4	671.7	675.2	658.2	640.1	600.8	562.5	532.5	501.7	467.1	428.3	393.3	353.9	324.8	341.1	317.0	199.2	141.8	111.4	86.83	82.07	124.6	588.3	2362	2398	213.8	4.031	1.902	1.519	1.111	0.992	0.758	0.737	0.734	0.935	1.000	1.243	1.387	1.757	1.973	2.092	2.098	2.823	2.938	2.873	3.021	2.850	2.850	2.767	3.187	3.008	3.030	2.881	2.988	3.065	3.092	3.189	3.276	3.263	3.244	3.323	3.015	3.343	3.355	3.433	3.404	3.512	3.262
390.0	306.6	493.9	664.3	746.5	783.6	737.7	698.0	666.2	663.1	660.4	658.0	656.0	639.9	621.9	584.8	549.3	522.7	494.7	470.1	437.1	406.2	369.3	338.1	318.1	324.9	280.1	188.5	137.7	104.0	82.35	73.90	164.1	649.2	1784	2124	677.9	13.65	1.918	1.385	1.105	0.954	0.799	0.782	0.950	0.970	1.160	1.350	1.691	1.964	2.008	2.136	2.690	2.704	2.876	3.060	2.733	2.981	2.877	2.984	3.019	3.029	3.088	2.882	3.166	3.130	3.132	2.952	3.002	3.212	3.188	3.288	3.185	3.324	3.276	3.283	3.258	3.326
395.0	316.4	467.4	653.4	740.8	771.8	723.7	705.9	672.7	654.2	652.6	645.4	645.8	630.2	599.2	572.3	535.1	515.5	488.6	464.0	440.0	408.2	379.2	352.5	325.4	303.1	304.2	265.2	176.4	133.0	103.4	81.31	81.76	174.8	425.0	1149	2472	277.0	16.06	2.070	1.347	1.107	0.878	0.931	0.966	1.018	1.271	1.269	1.700	2.003	1.961	2.032	2.623	2.728	2.772	3.082	2.728	3.197	3.064	3.060	3.253	3.089	2.942	3.128	3.195	3.309	3.033	2.950	2.929	2.991	3.003	3.325	2.993	3.453	3.386	3.078	3.065	3.262
400.0	290.9	442.1	643.4	738.8	746.1	728.2	701.9	668.0	655.3	649.0	631.9	642.8	614.9	591.3	564.3	525.1	500.4	473.1	456.0	436.7	411.0	386.8	357.1	338.5	302.3	291.4	297.2	228.3	157.8	124.7	96.65	74.15	77.01	119.8	301.1	1528	2153	241.6	8.101	1.789	1.346	0.951	0.919	0.987	0.928	1.246	1.215	1.656	1.799	2.111	2.041	2.336	2.641	2.927	2.971	2.708	3.105	2.896	2.843	2.976	3.160	2.867	2.897	3.072	3.163	2.924	2.962	2.879	3.095	3.036	2.943	3.064	3.303	3.277	2.973	2.991	3.287
405.0	286.0	459.1	622.3	701.0	726.2	722.5	702.1	679.0	647.2	644.7	629.9	626.0	605.6	583.6	550.5	511.2	484.4	468.2	448.0	434.0	406.5	384.6	363.3	344.8	311.5	282.5	289.7	277.4	192.4	143.3	111.8	81.77	62.74	57.84	89.61	416.8	1718	1886	183.3	3.475	1.623	1.084	1.052	0.891	1.120	1.256	1.219	1.635	1.689	2.050	1.927	2.590	2.590	2.968	2.954	2.718	3.024	2.940	2.951	3.085	2.937	2.940	3.021	2.948	2.830	2.927	2.907	2.974	2.955	2.805	2.991	3.063	3.258	3.289	3.113	3.211	3.375
410.0	279.3	439.8	595.6	682.5	708.5	702.8	689.4	664.2	646.4	632.5	626.4	608.4	587.7	564.7	528.3	489.9	464.9	450.7	433.9	418.5	400.1	381.7	365.0	347.2	321.1	292.4	276.1	277.1	249.5	181.2	132.0	98.83	72.43	54.27	49.56	113.8	466.8	1317	1609	533.4	12.26	1.682	1.304	1.031	1.119	1.255	1.204	1.558	1.785	1.930	1.884	2.409	2.716	2.700	2.847	2.652	2.905	3.026	3.090	2.968	2.931	2.976	3.055	2.760	2.867	2.906	2.810	2.865	2.835	2.785	2.913	2.976	3.147	2.936	3.074	3.143	3.226
415.0	268.4	437.0	556.1	652.4	692.6	687.9	678.4	653.7	629.1	616.2	610.5	595.5	563.5	536.5	502.9	467.2	444.8	422.8	411.0	398.4	386.0	370.5	356.9	343.6	324.1	300.1	275.6	258.8	259.3	233.8	161.2	116.0	84.89	63.29	48.10	50.43	122.4	311.6	826.9	1814	251.7	14.62	1.775	1.349	1.253	1.227	1.388	1.608	1.746	1.833	1.851	2.455	2.551	2.861	2.747	2.741	2.967	2.865	2.854	3.026	2.970	2.849	2.977	2.858	3.032	2.803	2.653	2.720	2.820	2.635	2.818	2.767	2.904	2.887	3.034	2.972	3.042
420.0	272.2	389.9	545.6	646.3	671.7	669.8	661.7	652.9	623.3	608.1	600.4	573.2	546.5	518.0	480.3	447.5	427.0	402.6	394.9	382.2	372.4	360.8	349.9	336.2	320.7	300.2	278.6	256.3	244.4	249.5	194.7	128.9	94.24	70.16	53.18	41.37	48.44	83.69	210.5	1068	1662	221.1	6.966	1.632	1.387	1.266	1.296	1.534	1.684	1.779	1.843	2.379	2.663	2.516	2.652	2.642	2.873	2.749	2.739	2.902	2.957	2.986	2.755	2.765	2.972	2.731	2.696	2.718	2.847	2.665	2.798	2.785	2.732	2.768	2.804	2.708	2.861
425.0	255.8	398.5	541.9	620.5	649.0	651.0	659.6	639.1	628.6	598.6	591.9	559.5	529.8	504.4	461.8	429.3	403.2	386.8	377.9	367.5	358.1	347.3	343.2	330.6	314.3	297.3	276.2	254.7	235.8	235.8	221.1	152.9	105.5	78.95	58.38	43.32	35.81	35.24	58.82	285.6	1240	1470	33.81	3.201	1.539	1.406	1.248	1.558	1.709	1.633	1.840	2.173	2.469	2.492	2.710	2.557	2.649	2.869	2.785	2.732	2.829	2.994	2.825	2.888	2.767	2.580	2.746	2.521	2.629	2.608	2.716	2.814	2.792	2.579	2.754	2.679	2.771
430.0	285.1	373.0	517.2	594.9	626.7	648.4	643.2	630.0	616.0	593.5	573.7	552.9	512.2	479.1	440.5	407.5	382.5	366.4	358.4	346.1	338.3	331.6	327.4	320.0	308.0	295.1	277.3	256.5	239.3	222.2	213.3	185.7	128.7	90.48	67.88	50.79	38.69	29.86	28.12	74.08	327.0	975.2	1220	444.3	11.66	1.815	1.492	1.624	1.640	1.689	1.749	2.109	2.443	2.413	2.574	2.471	2.698	2.849	2.892	2.780	2.907	2.843	2.740	2.988	2.743	2.651	2.702	2.514	2.456	2.513	2.520	2.515	2.619	2.542	2.750	2.574	2.603
435.0	418.6	349.3	485.6	568.7	615.4	625.6	619.1	611.4	602.0	585.7	576.1	546.5	495.0	459.9	422.8	389.4	359.2	350.1	335.6	325.0	317.5	314.0	312.9	307.0	298.1	287.5	271.5	256.0	240.1	221.9	199.0	190.5	161.3	109.4	78.34	59.24	44.25	32.59	25.54	29.66	82.62	228.3	605.5	1482	236.5	14.97	1.844	1.837	1.873	1.714	1.697	2.239	2.254	2.244	2.555	2.463	2.667	2.790	2.952	2.737	2.868	2.875	2.674	2.789	2.763	2.547	2.630	2.490	2.477	2.481	2.522	2.532	2.617	2.545	2.408	2.467	2.350
440.0	519.0	398.0	471.9	556.0	586.9	615.4	603.9	608.5	595.6	584.7	570.3	533.0	487.1	444.1	405.8	371.2	342.6	331.4	323.7	312.0	305.4	301.0	300.4	297.2	286.9	280.2	269.5	256.6	239.8	220.8	195.3	178.1	168.7	131.6	87.68	65.44	49.85	37.16	27.39	22.64	30.25	59.79	152.7	863.5	1439	208.9	7.322	1.998	1.946	1.819	1.694	2.268	2.347	2.206	2.506	2.416	2.644	2.643	2.823	2.949	2.697	2.724	2.726	2.761	2.679	2.651	2.604	2.353	2.485	2.413	2.401	2.282	2.324	2.556	2.338	2.409	2.349
445.0	560.0	564.6	455.8	548.2	567.4	593.6	598.0	596.3	590.2	576.7	550.3	519.5	474.6	427.1	390.0	356.4	330.6	315.5	306.8	298.5	286.8	287.1	286.4	283.2	276.8	270.2	261.0	249.6	237.7	221.1	195.6	169.2	158.1	145.7	99.43	71.80	54.64	40.97	30.90	23.67	20.20	23.14	41.53	229.3	1055	1318	145.7	3.855	2.002	1.746	1.753	2.293	2.162	2.227	2.470	2.243	2.611	2.597	2.611	2.857	2.788	2.786	2.918	2.766	2.718	2.409	2.521	2.252	2.360	2.272	2.091	2.242	2.233	2.169	2.192	2.330	2.354
450.0	412.2	896.1	549.5	506.0	538.9	556.7	566.2	569.7	560.7	547.1	525.3	493.0	448.2	404.9	364.1	329.6	309.7	294.9	285.9	274.4	266.2	266.3	264.3	263.4	258.4	252.6	246.3	236.9	227.6	213.6	191.0	165.1	144.7	135.5	118.1	83.64	59.40	45.86	34.84	26.56	20.30	17.29	18.58	58.29	275.6	839.3	1126	404.9	10.45	2.139	1.812	2.128	2.092	2.260	2.311	2.257	2.536	2.499	2.769	2.647	2.731	2.757	2.758	2.637	2.511	2.356	2.480	2.320	2.120	2.288	2.107	2.084	2.057	2.180	2.254	2.173	2.241
455.0	238.2	919.4	1016	493.6	491.9	520.7	527.0	537.0	527.0	516.3	496.7	473.2	417.4	379.3	336.9	304.5	279.9	267.9	257.9	246.2	241.1	244.0	237.0	241.9	236.8	233.4	227.5	221.8	213.8	202.7	185.5	161.6	137.7	120.8	114.1	99.82	69.07	49.35	38.57	29.93	23.18	17.76	14.87	21.38	68.02	194.2	505.2	1224	199.7	12.12	2.080	2.024	2.090	2.173	2.285	2.175	2.318	2.316	2.540	2.508	2.499	2.574	2.717	2.477	2.456	2.410	2.316	2.250	1.998	2.108	2.053	2.123	1.875	2.209	2.034	2.006	2.024
460.0	195.0	629.7	1453	609.2	469.8	488.4	491.7	501.7	493.4	486.1	471.8	445.3	386.5	356.3	313.8	281.6	260.6	248.1	240.1	230.0	224.3	224.8	220.7	223.4	221.2	217.1	213.3	207.9	201.3	192.4	178.0	156.2	134.1	114.3	102.3	99.40	80.54	53.12	40.09	31.77	25.02	19.51	15.34	13.67	22.32	49.25	124.1	659.0	1128	163.7	7.175	2.206	2.251	2.119	2.167	2.075	2.334	2.235	2.313	2.357	2.449	2.401	2.370	2.334	2.489	2.181	2.243	2.286	1.968	1.838	1.943	1.990	1.808	1.906	1.961	1.905	1.832
465.0	183.1	394.0	1507	865.4	432.3	466.2	472.1	491.1	474.0	463.6	442.5	419.2	372.7	333.6	293.3	265.1	245.8	229.9	220.9	210.6	208.7	204.7	203.6	207.3	204.9	201.5	197.8	194.2	190.2	181.2	166.8	147.6	127.8	110.6	94.82	89.69	84.94	60.38	42.25	32.76	26.77	20.60	15.81	13.22	12.94	17.72	32.87	169.9	806.6	982.9	125.7	4.017	2.164	1.993	2.007	2.007	2.124	2.419	2.104	2.186	2.381	2.148	2.127	2.151	2.321	2.103	2.037	1.955	1.997	1.830	1.876	1.899	1.731	1.620	1.826	1.790	1.591
470.0	154.9	256.6	926.1	1683	576.8	420.4	428.6	435.1	430.2	425.0	405.9	384.2	338.0	303.4	265.2	238.6	218.9	206.6	196.1	188.7	182.9	182.7	184.2	183.2	182.3	180.9	177.5	175.2	173.4	165.1	154.1	138.3	120.1	104.2	88.93	77.62	75.22	66.14	48.79	34.81	27.92	22.42	17.55	14.13	11.71	11.06	13.15	42.97	208.7	597.8	789.2	321.6	10.87	2.205	2.030	1.889	2.121	2.117	1.956	2.068	2.105	2.119	2.013	2.102	2.017	1.841	1.871	1.797	1.782	1.880	1.677	1.747	1.692	1.507	1.657	1.622	1.379
475.0	161.4	210.5	445.7	1571	1382	397.7	382.7	387.8	386.4	383.3	371.1	346.1	304.1	268.8	233.9	210.6	194.3	180.6	173.2	166.9	163.8	162.6	160.6	164.1	158.7	160.7	156.9	154.8	153.7	149.3	139.2	127.5	110.8	96.88	81.45	71.91	63.57	60.65	56.45	38.75	28.50	22.66	18.40	15.42	12.42	10.08	9.232	14.84	50.83	137.7	310.2	810.4	202.2	13.42	2.303	1.834	2.113	1.916	1.865	1.960	1.835	1.997	1.960	1.900	1.818	1.698	1.789	1.625	1.770	1.494	1.529	1.427	1.618	1.430	1.400	1.383	1.416
480.0	156.1	195.9	289.3	964.6	2009	523.0	355.4	364.3	364.2	357.4	344.0	321.6	282.0	250.3	220.5	195.5	177.7	165.8	157.8	154.7	149.0	144.6	146.4	146.4	144.0	143.2	143.1	142.4	141.2	137.0	129.5	118.5	104.8	91.23	79.26	67.54	59.35	53.58	55.31	45.35	30.59	23.45	19.88	16.17	13.25	11.00	9.027	9.147	15.95	34.60	75.19	377.3	796.8	180.7	8.091	1.939	2.036	1.777	1.687	1.748	1.875	1.784	1.657	1.626	1.696	1.756	1.517	1.489	1.492	1.327	1.361	1.460	1.451	1.491	1.358	1.391	1.306
485.0	145.2	201.2	243.9	497.7	1992	1079	336.6	340.5	343.4	338.0	322.0	304.0	265.7	230.7	209.1	180.1	166.2	154.6	148.1	143.5	135.3	134.7	133.8	135.3	135.6	131.6	134.3	134.2	131.3	128.8	122.2	111.8	99.08	85.43	76.14	65.65	55.95	49.51	49.12	47.25	35.13	24.28	20.02	16.69	13.58	11.68	9.638	8.426	8.547	11.75	20.24	94.89	512.6	770.9	141.8	3.832	1.945	1.758	1.634	1.809	1.750	1.816	1.576	1.626	1.646	1.516	1.385	1.525	1.446	1.308	1.269	1.241	1.380	1.338	1.287	1.330	1.287
490.0	107.3	217.5	241.0	303.4	1105	1889	547.0	311.8	310.8	310.4	291.0	276.7	245.6	212.6	188.6	164.6	151.2	138.8	133.3	129.0	123.2	121.4	119.8	119.5	121.0	120.6	120.8	120.0	118.7	116.7	110.6	101.1	91.41	80.48	70.44	61.49	53.75	45.81	42.22	41.76	39.15	28.30	20.91	17.06	14.48	12.04	10.22	8.864	7.441	7.074	8.181	24.52	128.7	405.8	649.0	307.4	12.61	1.856	1.709	1.727	1.628	1.630	1.541	1.583	1.503	1.451	1.450	1.251	1.298	1.223	1.257	1.230	1.213	1.158	1.137	1.103	1.146
495.0	92.63	180.0	257.8	236.1	456.4	1707	1368	317.0	278.7	280.6	264.4	247.3	217.9	191.8	165.0	147.2	133.6	123.9	116.7	116.4	108.3	108.3	106.2	108.0	107.5	105.0	106.0	106.0	105.2	104.1	100.6	91.91	81.73	72.59	65.16	57.59	50.43	43.72	38.47	34.25	35.65	32.69	24.06	17.63	15.15	12.62	10.40	9.315	7.807	6.443	5.834	8.892	31.54	93.42	248.6	721.3	227.3	16.59	1.938	1.595	1.546	1.522	1.378	1.375	1.362	1.182	1.431	1.228	1.189	1.254	1.260	1.094	1.055	1.157	1.069	1.031	1.155
500.0	99.79	152.2	254.9	225.6	271.1	1006	2068	387.0	257.4	255.9	246.9	231.8	204.2	176.8	151.5	135.2	125.1	113.3	108.7	104.0	98.32	98.25	95.07	97.30	97.25	94.73	95.89	95.12	96.87	94.73	90.62	84.16	74.88	67.91	60.12	53.21	45.68	41.46	36.39	31.44	30.54	32.23	27.75	19.23	15.26	13.06	11.01	9.402	8.180	6.419	5.341	5.356	10.00	23.52	59.48	314.1	755.8	206.8	10.41	1.724	1.405	1.514	1.386	1.467	1.367	1.357	1.257	1.103	1.157	1.124	1.161	0.971	0.967	1.018	0.961	0.998	1.117
505.0	74.47	121.3	241.9	234.3	216.8	478.5	2089	975.8	245.9	234.5	226.6	208.1	185.7	162.0	138.7	124.7	112.6	102.9	98.44	94.48	88.04	88.28	87.20	88.15	86.46	87.29	86.37	86.71	87.78	86.17	82.23	75.02	68.97	62.42	55.50	50.02	43.23	37.95	33.75	28.98	26.57	27.76	28.20	21.50	15.16	12.88	10.70	9.327	7.992	6.724	5.422	4.883	5.302	7.911	15.74	76.38	409.4	723.4	167.3	4.870	1.417	1.454	1.301	1.365	1.255	1.187	1.071	1.104	0.937	1.098	1.057	0.892	0.970	0.956	0.985	0.954	1.058
510.0	66.76	94.84	182.3	244.6	193.0	252.7	1130	1917	428.7	208.3	195.6	183.9	162.5	142.2	122.0	109.2	98.44	91.59	85.88	82.15	77.89	76.43	76.01	75.93	76.60	76.32	75.87	75.99	74.90	74.67	72.22	67.30	61.48	55.49	48.83	44.39	39.20	34.98	30.69	27.28	23.49	22.43	23.93	23.07	17.50	12.85	10.45	8.852	7.551	6.601	5.788	4.929	4.377	4.282	5.920	19.18	99.71	336.0	541.5	269.1	13.05	1.579	1.406	1.160	1.111	1.072	1.090	0.957	0.971	1.021	0.927	0.874	0.781	0.848	0.834	0.792	0.855
515.0	59.03	84.28	130.3	228.3	196.7	184.6	409.8	1822	1291	204.5	176.4	165.3	143.3	124.6	107.1	94.66	83.61	80.21	76.49	70.01	68.02	67.04	65.89	64.18	63.20	65.07	65.63	64.27	65.57	64.03	62.89	58.74	53.04	48.85	42.23	38.04	34.46	30.80	27.37	24.03	21.05	19.88	18.75	20.57	19.29	14.23	10.28	8.367	7.126	6.158	5.472	5.186	4.234	3.498	3.704	6.445	24.29	76.81	173.3	537.3	231.6	18.55	1.372	1.132	1.034	1.062	1.062	0.800	0.873	0.865	0.858	0.881	0.746	0.826	0.752	0.678	0.837
520.0	57.52	72.89	105.7	178.2	220.4	157.0	209.1	1007	2129	276.5	159.0	148.6	130.5	111.4	94.91	86.59	76.84	71.55	68.05	62.83	60.59	58.84	58.95	57.41	57.25	57.63	56.34	58.10	58.09	57.75	56.29	52.62	47.73	43.52	37.98	35.05	31.24	28.12	25.77	22.78	20.05	17.74	16.59	15.69	18.89	15.74	10.51	8.100	7.265	6.176	5.253	4.788	4.267	3.212	3.073	3.563	7.278	18.98	41.06	208.8	539.5	209.9	11.14	1.152	0.993	0.889	1.004	0.799	0.744	0.820	0.718	0.708	0.788	0.807	0.645	0.713	0.790
525.0	45.53	65.67	98.34	143.0	215.6	156.3	155.2	417.3	2293	870.0	145.4	133.8	117.1	98.29	86.00	76.46	68.85	63.82	61.12	55.80	55.19	51.49	52.08	51.08	51.32	50.58	50.29	51.18	51.77	51.98	49.65	46.73	42.13	38.92	34.74	31.58	28.66	26.00	22.96	21.08	18.59	16.39	15.01	13.98	16.09	16.73	12.19	8.370	6.607	5.987	5.021	4.592	4.331	3.558	3.203	2.877	3.451	6.032	10.87	50.13	259.5	530.1	165.9	4.959	1.055	0.899	0.884	0.754	0.780	0.750	0.682	0.609	0.646	0.717	0.656	0.667	0.603
530.0	45.21	62.93	84.75	108.7	178.0	173.2	128.6	191.5	1188	1992	337.7	116.0	102.1	88.13	75.34	66.95	60.77	55.56	52.20	49.09	47.93	45.69	44.98	44.24	44.10	43.78	43.48	43.50	43.96	44.37	42.09	40.75	36.92	33.99	30.43	27.86	25.15	22.78	20.51	18.81	16.43	14.75	13.03	12.35	12.33	13.68	13.37	9.644	6.620	5.516	4.820	4.222	3.879	3.718	3.265	2.776	2.530	2.880	3.911	12.58	61.85	218.9	382.5	202.3	13.68	1.045	0.831	0.707	0.719	0.699	0.654	0.538	0.633	0.683	0.570	0.616	0.501
535.0	39.66	52.50	77.79	87.02	122.7	183.0	120.2	125.5	372.3	1888	1234	114.2	87.41	78.76	66.76	57.97	51.15	47.29	44.16	40.90	39.06	38.53	37.45	37.42	36.26	36.78	36.01	36.15	37.10	37.17	35.63	34.19	31.14	28.64	25.98	24.25	21.85	19.47	18.06	16.06	13.97	12.76	11.82	10.67	9.988	10.03	11.37	11.00	7.817	5.302	4.618	4.064	3.408	3.457	3.367	2.781	2.283	2.155	2.225	4.205	15.00	49.83	111.7	342.5	232.3	18.95	1.083	0.711	0.842	0.652	0.576	0.526	0.507	0.564	0.498	0.522	0.491
540.0	34.60	48.03	67.12	82.05	94.07	170.6	129.8	97.41	159.8	947.6	2158	188.9	78.41	68.76	58.14	49.73	46.17	40.62	39.08	37.65	34.46	34.14	33.01	32.45	32.32	31.77	31.39	31.99	32.82	31.92	32.01	29.89	27.17	24.89	23.59	21.90	19.52	17.26	15.69	14.37	13.12	11.62	10.57	9.766	9.021	8.090	8.830	10.87	8.662	5.516	4.335	3.837	3.200	3.039	2.913	2.930	2.478	2.035	1.923	2.023	4.369	12.23	26.06	122.4	380.5	202.3	11.65	0.817	0.828	0.568	0.628	0.563	0.506	0.449	0.443	0.473	0.455
545.0	38.33	48.82	58.62	72.76	74.17	127.9	144.3	91.97	102.3	346.2	2255	681.0	71.12	59.95	51.89	43.74	38.63	35.84	34.59	32.54	30.16	29.79	29.50	28.13	28.24	28.72	27.89	28.11	28.46	28.00	27.86	26.41	24.05	21.91	20.23	19.17	16.83	15.45	13.74	13.20	11.55	10.52	9.437	9.117	8.014	7.232	7.004	8.497	8.643	6.084	4.154	3.440	3.202	2.738	2.518	2.733	2.724	2.110	1.841	1.607	2.071	3.857	6.748	28.98	163.8	373.3	145.6	5.040	0.745	0.504	0.638	0.520	0.504	0.473	0.460	0.356	0.416
550.0	35.18	44.20	52.11	58.66	58.52	83.22	143.7	95.13	77.88	136.2	1071	1736	131.4	52.26	43.38	36.21	33.86	30.99	28.95	27.43	24.94	24.03	24.17	23.73	24.16	23.49	22.95	22.69	23.40	23.00	22.71	21.41	20.01	18.50	17.01	15.79	13.86	13.04	11.70	10.91	10.08	9.022	8.157	7.284	6.997	6.471	5.655	6.222	7.123	6.471	4.580	3.278	2.747	2.435	2.199	2.210	2.421	2.248	1.728	1.447	1.473	1.803	2.454	7.378	38.58	142.6	262.7	134.7	13.73	0.775	0.564	0.497	0.416	0.396	0.377	0.411	0.379
555.0	34.83	46.65	50.70	49.30	49.42	57.93	108.8	120.0	66.63	76.75	300.0	1727	826.9	49.74	34.89	29.73	26.29	25.19	22.98	21.43	20.46	19.68	19.35	19.37	18.97	18.90	19.37	18.84	18.50	18.76	18.31	17.32	16.44	15.24	13.93	12.71	11.08	10.74	9.607	8.785	8.149	7.362	7.164	6.270	5.876	5.294	4.911	4.684	4.700	5.611	5.219	3.502	2.447	2.285	2.004	1.823	1.832	1.943	1.927	1.462	1.313	1.282	1.289	2.289	9.354	32.40	73.64	213.6	201.1	17.97	0.734	0.533	0.416	0.480	0.358	0.340	0.371
560.0	33.15	47.03	50.11	44.47	43.33	47.14	73.26	129.2	67.63	56.07	111.7	867.9	1667	99.46	30.18	25.31	22.93	21.18	19.57	18.54	17.58	16.53	16.15	17.00	15.99	15.60	15.68	15.42	15.96	15.95	15.25	14.58	13.87	12.45	11.84	11.14	9.763	9.168	8.488	7.591	6.911	6.355	6.094	5.193	5.047	4.736	4.246	3.926	3.627	4.267	4.663	3.854	2.459	1.956	1.830	1.742	1.611	1.580	1.783	1.656	1.330	1.089	0.996	1.239	2.733	7.883	17.28	73.12	243.7	149.3	10.18	0.489	0.423	0.445	0.345	0.366	0.389
565.0	33.32	42.17	53.25	42.43	41.33	37.85	50.67	119.1	78.44	50.69	62.33	294.7	1878	395.9	27.92	21.94	19.77	19.41	17.38	15.94	15.14	14.67	13.77	13.86	13.05	13.12	13.25	13.28	13.91	13.99	12.84	11.99	11.41	10.68	10.05	9.730	8.271	7.739	7.419	6.488	5.539	5.512	5.213	4.565	4.395	4.160	3.726	3.308	3.076	3.281	3.951	3.912	2.599	1.785	1.565	1.589	1.395	1.364	1.614	1.725	1.286	1.140	0.864	0.856	1.291	2.440	4.506	17.24	97.36	231.2	98.08	3.899	0.508	0.449	0.377	0.412	0.366
570.0	38.11	46.32	50.70	38.92	37.02	32.97	38.32	79.22	103.2	52.01	48.88	101.1	930.2	1248	70.80	18.98	16.54	14.84	13.83	12.98	12.26	11.72	11.06	10.99	10.99	10.45	10.55	10.78	10.94	10.85	10.23	9.905	9.002	8.657	8.331	7.706	7.115	6.309	5.962	5.276	4.794	4.518	4.137	3.951	3.477	3.455	3.139	2.740	2.622	2.451	2.791	3.200	2.751	1.927	1.452	1.329	1.268	1.180	1.188	1.238	1.547	1.111	0.884	0.876	0.960	1.180	1.595	4.438	22.95	83.50	154.9	95.35	12.36	0.556	0.381	0.324	0.329
575.0	34.58	42.96	52.38	36.97	30.26	28.25	30.76	45.74	104.3	68.05	43.62	54.10	253.6	1332	515.3	17.46	13.48	11.83	11.52	10.65	10.38	9.223	8.947	8.035	9.129	8.639	8.482	8.605	8.686	8.434	8.102	7.957	6.941	6.451	6.599	6.066	5.664	4.916	4.826	4.107	3.905	3.743	3.291	3.255	2.910	2.682	2.440	2.478	2.252	1.950	1.912	2.107	2.393	2.261	1.501	1.141	1.184	1.140	1.024	0.969	1.247	1.313	1.053	0.700	0.933	0.813	0.966	1.562	5.727	19.11	41.47	121.3	127.3	15.84	0.448	0.312	0.285
580.0	33.44	48.05	45.32	37.22	31.27	27.33	26.49	35.43	80.70	93.70	42.55	42.00	83.63	708.7	1020	42.38	12.56	9.812	9.530	8.878	8.433	8.025	7.603	7.339	7.728	6.949	7.267	6.640	7.351	7.195	7.211	6.642	6.058	5.426	5.531	4.944	4.753	4.042	4.029	3.474	3.304	3.158	2.764	2.705	2.402	2.268	2.032	2.103	1.857	1.616	1.592	1.603	2.010	2.256	1.774	1.186	1.066	0.957	0.935	0.929	1.025	1.142	1.245	0.793	0.730	0.732	0.697	0.910	1.857	4.849	9.861	39.27	141.6	100.7	7.412	0.287	0.266
585.0	37.78	46.47	50.53	36.59	26.76	24.15	26.32	29.04	53.78	105.7	48.38	39.47	45.09	235.0	1305	108.8	10.91	8.851	8.463	7.984	6.921	6.708	6.402	6.730	6.272	6.022	6.267	6.367	6.332	6.291	6.072	5.828	5.354	4.666	4.677	4.285	4.006	3.548	3.486	3.019	2.959	2.725	2.599	2.494	2.179	1.932	1.936	1.827	1.495	1.440	1.335	1.343	1.533	1.911	1.839	1.101	0.915	0.857	0.857	0.818	0.786	0.967	1.328	0.872	0.730	0.632	0.675	0.694	0.944	1.606	2.630	9.389	52.62	138.9	34.24	3.236	0.361
590.0	30.37	40.97	45.83	32.75	24.87	20.68	22.62	25.66	35.60	89.04	67.70	40.59	36.34	73.64	678.0	738.9	33.12	7.678	7.095	6.407	5.873	5.538	5.698	5.711	5.167	5.214	5.084	5.206	4.880	5.084	4.701	4.788	4.347	3.915	3.741	3.430	3.393	2.923	2.867	2.625	2.319	2.275	2.173	2.015	1.813	1.678	1.613	1.549	1.364	1.224	1.083	1.020	1.055	1.345	1.707	1.320	0.977	0.763	0.745	0.658	0.724	0.781	0.861	1.046	0.911	0.692	0.672	0.554	0.694	0.823	1.042	2.490	12.38	47.74	85.70	64.74	11.44
595.0	33.25	38.82	47.91	30.03	25.36	19.76	19.96	23.69	28.75	54.27	87.64	42.53	34.91	34.95	180.5	876.6	246.3	7.180	5.794	5.205	4.415	4.726	4.772	4.852	4.123	4.402	4.005	3.951	4.116	4.114	3.836	3.764	3.478	3.105	3.069	2.799	2.776	2.401	2.262	2.257	2.101	1.774	1.771	1.432	1.583	1.373	1.311	1.442	1.172	1.005	0.918	0.854	0.848	0.893	1.160	1.438	1.098	0.747	0.738	0.582	0.516	0.626	0.712	0.707	0.995	0.865	0.635	0.600	0.559	0.520	0.608	0.889	3.044	10.92	22.41	70.39	84.27
600.0	29.67	36.65	42.18	30.03	22.27	20.56	19.48	22.54	27.49	39.89	88.86	51.69	32.86	26.42	53.10	500.3	609.3	15.15	5.301	4.650	3.911	4.175	3.987	3.878	3.610	3.300	3.530	3.536	3.456	3.648	3.098	2.970	3.006	2.674	2.634	2.300	2.222	2.141	1.881	1.955	1.693	1.550	1.588	1.268	1.297	1.272	1.130	1.095	0.963	0.932	0.785	0.771	0.733	0.737	0.837	1.141	1.155	0.890	0.621	0.546	0.560	0.497	0.536	0.556	0.717	0.988	0.694	0.559	0.571	0.462	0.475	0.536	0.928	2.686	5.295	21.80	83.55
605.0	31.07	35.37	36.98	28.78	21.80	17.78	18.87	21.49	25.80	32.81	72.17	67.20	32.69	25.25	23.69	171.5	792.9	67.87	5.077	4.101	3.609	3.624	3.231	3.302	3.266	3.117	2.877	2.967	2.835	2.865	2.695	2.586	2.794	2.436	2.254	1.906	1.968	1.919	1.590	1.582	1.446	1.423	1.257	1.225	1.150	1.072	1.050	1.067	0.924	0.940	0.677	0.719	0.690	0.640	0.702	0.960	1.053	0.906	0.611	0.545	0.488	0.552	0.497	0.501	0.493	0.854	0.728	0.519	0.528	0.422	0.427	0.428	0.471	0.853	1.475	5.237	28.99
610.0	29.29	35.21	36.84	27.77	20.98	16.87	18.61	21.81	25.81	31.92	52.15	77.84	39.95	24.77	18.75	49.42	467.6	420.8	14.05	3.567	3.185	2.854	2.714	2.726	2.559	2.701	2.329	2.415	2.497	2.342	2.243	2.034	2.132	1.983	1.838	1.556	1.670	1.378	1.398	1.219	1.158	1.162	1.014	1.105	0.965	0.933	0.879	0.808	0.754	0.721	0.618	0.596	0.570	0.558	0.531	0.691	0.883	0.920	0.750	0.525	0.475	0.504	0.481	0.495	0.447	0.569	0.726	0.728	0.525	0.463	0.423	0.388	0.338	0.445	0.578	1.433	6.745
615.0	27.77	27.60	34.33	24.57	19.63	15.77	19.08	21.39	24.63	31.79	39.61	70.16	55.25	26.75	17.97	19.34	127.3	580.3	73.06	3.257	2.746	2.473	2.457	2.240	2.020	2.063	2.020	2.041	1.849	1.953	1.807	1.592	1.847	1.699	1.621	1.401	1.436	1.086	1.133	1.075	0.960	0.994	0.872	0.829	0.803	0.730	0.793	0.703	0.637	0.592	0.503	0.517	0.422	0.465	0.401	0.497	0.652	0.688	0.801	0.605	0.385	0.440	0.441	0.484	0.452	0.462	0.455	0.682	0.690	0.480	0.470	0.384	0.324	0.352	0.383	0.471	1.703
620.0	28.75	25.40	30.11	24.78	18.99	15.85	19.65	21.19	23.86	28.64	35.13	54.24	66.05	28.32	17.97	12.27	35.54	382.5	341.9	6.234	2.272	2.135	1.945	1.901	1.959	1.604	1.649	1.670	1.782	1.592	1.624	1.558	1.517	1.364	1.394	1.187	1.339	1.030	1.102	1.049	0.819	0.779	0.736	0.704	0.729	0.644	0.674	0.586	0.509	0.516	0.504	0.469	0.418	0.433	0.483	0.479	0.554	0.541	0.819	0.720	0.453	0.436	0.490	0.451	0.462	0.430	0.408	0.547	0.706	0.564	0.429	0.316	0.319	0.265	0.310	0.297	0.554
625.0	21.88	27.70	27.42	24.00	16.11	15.93	18.48	19.34	24.86	27.94	35.22	42.73	67.56	33.08	18.05	11.22	14.11	143.3	527.8	35.09	2.147	1.969	1.651	1.614	1.590	1.504	1.430	1.336	1.405	1.423	1.354	1.203	1.187	1.261	1.152	1.038	1.007	0.851	0.915	0.828	0.855	0.642	0.562	0.598	0.636	0.541	0.601	0.541	0.505	0.445	0.429	0.456	0.360	0.400	0.396	0.331	0.441	0.454	0.742	0.654	0.527	0.379	0.415	0.348	0.359	0.370	0.341	0.415	0.587	0.602	0.491	0.338	0.255	0.278	0.273	0.261	0.304
630.0	22.13	26.39	25.86	20.57	16.63	16.15	17.09	18.45	22.71	26.42	31.59	35.45	53.83	43.93	18.51	10.52	8.770	38.76	355.7	253.2	5.628	1.773	1.522	1.442	1.434	1.259	1.284	1.237	1.224	1.286	1.156	0.973	1.120	0.985	0.930	0.910	0.793	0.865	0.812	0.784	0.723	0.568	0.469	0.543	0.533	0.456	0.463	0.472	0.479	0.380	0.389	0.431	0.342	0.321	0.332	0.340	0.367	0.327	0.481	0.546	0.563	0.394	0.375	0.320	0.344	0.324	0.358	0.374	0.379	0.538	0.494	0.431	0.285	0.240	0.248	0.257	0.254
635.0	24.16	22.59	26.82	19.54	16.17	15.26	17.35	19.69	20.60	26.11	30.89	33.33	39.84	50.32	22.82	11.51	8.046	13.18	100.7	418.4	49.87	1.805	1.377	1.189	1.191	1.153	1.062	0.985	1.025	0.992	0.911	0.897	0.938	0.802	0.754	0.745	0.710	0.632	0.684	0.669	0.586	0.479	0.429	0.433	0.483	0.422	0.459	0.425	0.334	0.320	0.284	0.284	0.353	0.245	0.333	0.320	0.331	0.267	0.286	0.397	0.474	0.381	0.398	0.316	0.296	0.267	0.412	0.406	0.282	0.392	0.431	0.478	0.342	0.270	0.291	0.272	0.291
640.0	20.39	26.49	29.48	22.20	14.83	14.11	15.08	20.16	20.20	24.11	29.24	31.43	34.29	48.20	29.06	13.24	8.730	8.123	26.86	309.7	205.1	3.037	1.249	1.136	1.098	1.116	0.961	0.834	0.828	0.881	0.794	0.723	0.830	0.642	0.687	0.843	0.571	0.737	0.574	0.641	0.466	0.443	0.448	0.409	0.383	0.408	0.352	0.333	0.340	0.291	0.255	0.284	0.346	0.246	0.251	0.279	0.278	0.330	0.275	0.358	0.457	0.328	0.390	0.364	0.293	0.281	0.328	0.341	0.273	0.357	0.351	0.425	0.429	0.258	0.321	0.318	0.241
645.0	22.89	24.38	28.25	20.62	14.81	14.34	15.23	19.07	20.30	25.76	30.36	30.82	31.89	39.90	36.47	13.31	9.691	7.601	9.623	129.9	353.8	18.46	1.268	1.016	0.981	0.851	0.901	0.790	0.805	0.811	0.799	0.684	0.743	0.566	0.630	0.658	0.586	0.537	0.637	0.511	0.413	0.400	0.410	0.394	0.347	0.324	0.325	0.277	0.357	0.294	0.246	0.298	0.297	0.276	0.245	0.224	0.257	0.301	0.261	0.323	0.315	0.389	0.347	0.353	0.362	0.280	0.298	0.331	0.285	0.401	0.306	0.373	0.487	0.386	0.297	0.328	0.256
650.0	23.19	25.76	27.30	21.27	16.81	16.15	16.21	17.10	20.02	25.19	29.41	30.39	30.28	32.84	38.33	15.07	10.20	7.342	5.968	37.80	346.3	63.10	1.226	0.985	0.964	1.015	0.767	0.765	0.733	0.754	0.594	0.627	0.650	0.657	0.573	0.631	0.547	0.583	0.528	0.495	0.395	0.496	0.416	0.371	0.355	0.296	0.366	0.300	0.322	0.262	0.282	0.295	0.253	0.291	0.288	0.241	0.248	0.265	0.267	0.278	0.243	0.297	0.372	0.320	0.375	0.307	0.272	0.256	0.334	0.397	0.311	0.345	0.358	0.460	0.288	0.240	0.221
