Sample:	'1
File name:	G2025070814¶«Íõ¹«Ä¹ÇÅ.FD3
Run date:	'14:30:15, 07/09/2025
Operator:	Administrator
Comment:	'

Instrument
Model:	F-2700 FL Spectrophotometer
Serial number:	23B8-004
ROM Version:	4J14000 07

Instrument parameters
Measurement type:	3-D scan
Data mode:	Fluorescence
EX  Start WL:	220.0 nm
EX  End WL:	600.0 nm
EX Sampling interval:	5.0 nm
EM  Start WL:	230.0 nm
EM  End WL:	650.0 nm
EM Sampling interval:	5.0 nm
Scan speed:	12000 nm/min
EX Slit:	5.0 nm
EM Slit:	5.0 nm
PMT Voltage:	700 V
Response:	Auto 
Corrected spectra:	Off
Contour interval:	50.000

Peak integration
Integration method:	Rectangular
Sensitivity:	1
Threshold:	1.000

Peaks
No.	ApexEX/EM(nm)	Height(Data)
1	225.0/345.0	4177
2	255.0/285.0	567.5
3	260.0/290.0	683.6
4	260.0/575.0	172.2
5	265.0/295.0	978.8
6	265.0/585.0	149.0
7	270.0/600.0	134.4
8	275.0/310.0	1709
9	275.0/345.0	2578
10	275.0/410.0	3385
11	275.0/430.0	3209
12	275.0/610.0	126.2
13	280.0/625.0	106.5
14	285.0/640.0	82.84
15	335.0/415.0	1780
16	340.0/430.0	1719
17	455.0/345.0	12.30
18	460.0/350.0	12.02
19	505.0/275.0	3.239
20	510.0/280.0	3.576
21	520.0/285.0	4.036
22	525.0/435.0	12.91
23	540.0/415.0	14.05
24	550.0/305.0	8.923
25	560.0/350.0	13.02
26	565.0/345.0	13.10
27	570.0/355.0	13.30
28	575.0/360.0	12.92

Data points
	220.0	225.0	230.0	235.0	240.0	245.0	250.0	255.0	260.0	265.0	270.0	275.0	280.0	285.0	290.0	295.0	300.0	305.0	310.0	315.0	320.0	325.0	330.0	335.0	340.0	345.0	350.0	355.0	360.0	365.0	370.0	375.0	380.0	385.0	390.0	395.0	400.0	405.0	410.0	415.0	420.0	425.0	430.0	435.0	440.0	445.0	450.0	455.0	460.0	465.0	470.0	475.0	480.0	485.0	490.0	495.0	500.0	505.0	510.0	515.0	520.0	525.0	530.0	535.0	540.0	545.0	550.0	555.0	560.0	565.0	570.0	575.0	580.0	585.0	590.0	595.0	600.0
230.0	79.48	1478	2915	667.9	28.27	8.518	7.052	6.487	5.578	5.266	5.012	4.933	4.411	3.646	3.446	2.935	2.528	2.443	2.243	2.028	1.952	1.851	1.819	1.686	1.711	1.582	1.538	1.428	1.471	1.463	1.342	1.299	1.246	1.171	1.022	1.020	0.907	0.775	0.750	0.692	0.800	0.972	0.893	0.730	0.697	0.614	2.423	9.039	13.17	8.620	3.248	0.888	0.496	0.455	0.458	0.428	0.472	0.469	0.456	0.430	0.410	0.415	0.396	0.414	0.399	0.398	0.392	0.381	0.356	0.337	0.375	0.374	0.332	0.346	0.327	0.337	0.342
235.0	113.6	411.5	2004	2941	504.2	42.24	8.029	7.792	5.597	5.763	5.957	5.340	4.402	3.623	3.943	2.903	2.944	2.575	2.381	2.221	2.251	1.826	1.806	1.860	1.876	1.597	1.687	1.362	1.534	1.496	1.388	1.332	1.241	1.217	1.067	0.992	0.885	0.866	0.836	0.755	0.716	0.806	0.900	0.943	0.805	0.687	1.024	2.625	5.682	9.641	13.23	13.20	5.665	1.288	0.449	0.437	0.479	0.525	0.474	0.444	0.406	0.394	0.393	0.368	0.429	0.397	0.326	0.358	0.373	0.347	0.399	0.420	0.387	0.357	0.301	0.371	0.300
240.0	157.2	165.6	644.7	2884	3152	391.9	23.30	8.417	7.270	5.557	6.216	5.414	4.926	4.103	3.988	3.341	2.802	2.664	2.412	2.184	2.284	1.842	2.048	1.741	1.796	1.899	1.810	1.715	1.546	1.583	1.430	1.146	1.264	1.215	1.160	0.931	0.891	0.943	0.882	0.770	0.701	0.748	0.752	0.816	0.958	0.985	0.816	1.038	1.758	3.136	8.170	18.78	20.99	14.25	4.736	0.868	0.549	0.498	0.453	0.420	0.383	0.374	0.428	0.407	0.398	0.418	0.391	0.346	0.364	0.326	0.397	0.393	0.390	0.339	0.329	0.415	0.331
245.0	135.5	182.8	191.7	1094	4169	3105	288.9	12.72	7.974	7.486	6.859	6.120	5.539	4.781	3.777	3.428	2.824	2.764	2.298	2.178	2.071	1.917	2.024	1.890	1.884	1.599	1.670	1.685	1.598	1.776	1.424	1.242	1.250	1.177	1.149	0.907	0.963	0.968	0.789	0.881	0.813	0.677	0.747	0.736	0.768	0.970	1.084	0.959	0.858	1.104	2.327	6.909	16.47	28.46	24.58	13.48	3.360	0.696	0.458	0.469	0.384	0.497	0.438	0.431	0.406	0.403	0.400	0.375	0.396	0.382	0.342	0.368	0.424	0.428	0.400	0.372	0.328
250.0	64.37	140.2	198.4	310.6	1492	4218	4580	1115	58.05	10.21	8.428	7.362	5.623	5.299	3.917	3.834	3.186	2.863	2.459	2.378	2.210	2.138	2.118	1.873	1.919	1.870	1.831	1.630	1.680	1.675	1.476	1.414	1.240	1.185	1.173	1.018	1.047	0.904	0.841	0.845	0.811	0.719	0.755	0.687	0.646	0.735	0.931	1.062	1.169	0.983	1.049	1.980	4.352	9.985	17.84	28.20	33.05	30.35	12.53	3.951	0.700	0.519	0.463	0.441	0.433	0.416	0.474	0.422	0.378	0.366	0.368	0.388	0.395	0.418	0.356	0.338	0.346
255.0	51.02	63.13	155.8	257.8	392.5	1156	5062	7970	1533	55.99	11.51	9.649	8.049	5.849	4.719	4.139	3.630	3.313	2.497	2.530	2.318	1.984	2.076	1.972	2.124	2.120	1.872	1.963	1.901	1.558	1.610	1.487	1.384	1.177	1.092	1.013	0.932	0.969	0.879	0.910	0.791	0.881	0.714	0.703	0.703	0.604	0.680	0.699	0.883	1.010	1.379	1.424	1.542	2.731	4.429	7.302	15.12	37.85	63.78	30.42	19.69	4.629	0.633	0.513	0.482	0.429	0.449	0.428	0.435	0.381	0.388	0.377	0.456	0.390	0.407	0.383	0.378
260.0	38.41	38.03	78.80	250.7	265.2	300.9	1742	8283	8525	246.7	28.51	12.42	9.423	7.584	6.031	4.828	3.700	3.614	3.043	2.652	2.651	2.322	2.137	2.198	1.976	2.075	1.968	1.992	1.917	1.740	1.563	1.610	1.463	1.321	1.244	1.052	0.987	1.019	0.843	0.953	0.860	0.733	0.730	0.713	0.804	0.671	0.667	0.631	0.664	0.709	1.164	1.699	1.695	1.393	1.432	2.067	3.995	10.98	32.08	59.41	82.77	30.13	15.43	2.127	0.536	0.473	0.437	0.488	0.474	0.358	0.424	0.398	0.416	0.388	0.457	0.381	0.350
265.0	47.42	40.34	41.42	140.7	303.6	189.6	437.3	3220	9999.9	7961	196.4	19.69	12.85	8.422	6.758	5.106	4.500	4.030	3.212	2.944	2.471	2.392	2.607	2.326	2.007	2.112	1.907	1.994	2.142	1.839	1.640	1.649	1.325	1.329	1.120	1.113	1.106	1.064	0.939	0.858	0.837	0.748	0.789	0.748	0.868	0.703	0.742	0.661	0.642	0.531	0.682	1.120	1.768	1.944	1.451	1.035	1.414	2.936	8.030	19.68	52.60	88.87	97.51	26.94	10.00	0.927	0.661	0.635	0.566	0.502	0.454	0.416	0.483	0.441	0.432	0.407	0.401
270.0	123.8	122.2	82.15	72.47	172.3	328.4	259.3	789.0	3726	9999.9	9999.9	785.1	51.24	13.12	9.253	7.073	5.465	4.890	3.702	3.414	3.117	2.772	2.683	2.615	2.255	2.286	1.946	2.033	2.035	1.828	1.820	1.711	1.612	1.525	1.365	1.274	1.224	1.079	1.016	0.987	0.959	0.908	0.964	0.979	0.907	0.880	0.927	0.930	0.825	0.674	0.635	0.719	0.977	1.330	1.844	2.129	1.814	1.580	2.458	4.997	13.01	27.94	55.16	79.69	102.4	81.19	17.55	8.522	1.223	0.612	0.571	0.514	0.531	0.511	0.529	0.477	0.480
275.0	372.2	368.6	245.0	99.76	79.07	203.7	453.1	363.6	911.9	2675	9999.9	9999.9	1123	49.86	14.88	9.321	7.263	5.998	4.766	4.098	3.519	3.220	3.058	2.647	2.417	2.408	2.147	2.180	2.110	2.111	1.979	1.820	1.867	1.826	1.869	1.770	1.550	1.428	1.303	1.251	1.266	1.394	1.372	1.359	1.425	1.611	1.647	1.416	1.408	1.052	0.821	0.694	0.790	0.847	1.094	1.702	2.657	3.239	2.394	2.001	3.682	7.069	13.11	19.29	33.49	74.65	140.3	152.1	28.32	10.57	0.915	0.677	0.638	0.709	0.611	0.597	0.570
280.0	663.5	614.2	399.5	170.2	75.50	113.3	361.8	514.1	365.2	724.2	3161	9999.9	9999.9	786.9	26.36	12.96	9.025	7.008	5.338	4.540	3.897	3.679	3.131	2.820	3.026	2.524	2.435	2.565	2.202	2.340	2.049	1.987	1.884	1.965	2.243	2.162	1.971	1.737	1.705	1.734	1.536	1.574	1.793	1.797	1.944	2.218	2.113	2.171	1.771	1.342	0.965	0.916	0.827	0.725	0.916	1.238	1.625	2.622	3.576	3.127	2.257	2.743	3.805	5.218	8.503	19.55	54.22	126.9	175.9	143.9	22.99	4.744	0.807	0.782	0.637	0.602	0.606
285.0	950.3	899.7	576.9	235.2	96.29	103.6	212.5	567.5	491.2	357.0	914.8	4144	9999.9	8092	117.0	18.43	12.33	8.502	6.477	5.439	4.418	4.016	3.642	3.335	3.124	2.724	2.603	2.636	2.397	2.275	1.990	2.094	2.087	2.216	2.510	2.487	2.473	2.091	2.116	1.831	2.039	2.057	2.266	2.330	2.613	2.846	2.704	2.796	2.148	1.713	1.241	1.103	0.935	0.857	0.942	1.082	1.134	1.586	2.619	3.780	4.036	2.629	2.170	2.502	3.220	5.804	13.65	34.61	82.90	170.5	196.8	33.47	16.95	1.959	0.773	0.783	0.755
290.0	1191	1156	758.4	332.4	148.1	140.9	193.8	371.6	683.6	666.5	583.2	1283	4240	9999.9	9999.9	2014	35.48	12.55	8.870	6.416	5.472	4.613	4.255	3.635	3.337	2.909	2.679	2.970	2.591	2.447	2.299	2.257	2.186	2.549	3.039	3.246	3.134	2.854	2.596	2.397	2.482	2.526	2.777	2.805	3.250	3.422	3.397	3.498	2.892	2.139	1.540	1.342	1.114	1.065	1.057	1.113	1.278	1.570	1.872	2.393	3.364	4.153	4.153	3.847	3.155	3.354	5.207	9.755	20.73	45.93	84.72	113.8	162.8	127.9	91.93	12.58	2.635
295.0	1378	1317	901.0	429.1	234.4	212.8	250.5	342.1	537.5	978.8	961.7	838.6	1371	2798	9999.9	9999.9	673.6	35.46	12.62	9.608	7.400	6.108	4.953	4.377	3.514	3.328	3.045	2.940	2.903	2.506	2.499	2.486	2.442	2.571	3.367	3.665	3.674	3.331	3.164	2.945	2.904	2.911	3.000	3.301	3.781	3.936	3.981	3.920	3.381	2.554	1.849	1.710	1.401	1.552	1.337	1.484	1.698	1.844	1.890	2.299	2.677	3.145	3.824	5.878	6.145	5.003	4.568	5.118	7.412	12.55	21.03	27.70	44.29	85.35	199.5	242.4	35.61
300.0	1460	1376	975.6	505.0	294.3	277.8	333.9	394.1	573.5	916.8	1372	1041	895.7	1008	3106	9999.9	9999.9	509.1	23.30	12.82	9.188	6.911	6.066	5.305	4.395	3.985	3.426	3.473	2.846	2.800	2.592	2.426	2.319	2.748	3.424	3.829	3.845	3.677	3.377	3.095	3.082	3.012	3.210	3.432	3.880	4.421	4.139	3.969	3.694	2.690	2.018	1.931	1.680	1.885	1.697	1.825	2.254	2.057	2.511	2.517	3.038	3.262	3.882	4.889	6.548	7.773	6.626	5.436	5.541	6.107	7.706	8.729	12.23	21.71	61.55	151.2	241.6
305.0	1510	1430	1042	568.9	362.5	360.7	431.0	555.6	702.5	959.0	1434	1565	1037	768.5	1027	3971	9999.9	5232	76.90	17.26	11.85	8.640	6.977	5.647	5.010	4.282	3.699	3.669	3.182	3.182	2.711	2.466	2.467	2.737	3.352	3.789	3.708	3.891	3.567	3.361	3.406	3.282	3.370	3.837	3.884	4.397	4.390	4.101	3.858	2.687	2.222	2.112	1.917	2.100	2.136	2.145	2.604	2.374	2.784	3.073	3.699	3.979	4.642	5.230	6.154	7.600	8.923	8.469	6.756	5.795	5.542	5.346	5.519	7.522	15.93	38.00	91.85
310.0	1533	1439	1055	629.7	444.0	447.0	542.2	686.1	860.4	1103	1392	1709	1543	970.8	705.6	1177	3994	9999.9	9999.9	1706	29.72	12.01	9.539	7.366	5.898	5.231	4.418	4.041	3.781	3.513	3.196	2.919	2.753	2.832	3.558	3.762	3.921	4.054	3.756	3.760	3.526	3.658	3.522	3.851	3.976	4.454	4.312	4.357	3.890	2.942	2.535	2.510	2.331	2.407	2.477	2.622	2.910	3.100	3.498	3.712	4.274	4.686	5.340	6.097	6.456	7.044	7.898	8.900	9.091	8.410	6.992	5.994	4.999	5.019	6.171	10.84	22.72
315.0	1566	1523	1122	692.8	525.2	536.5	652.8	804.8	996.4	1248	1500	1657	1705	1437	823.7	646.4	1145	2590	9999.9	9999.9	513.7	31.96	13.69	9.735	7.338	6.058	5.425	4.758	4.176	3.851	3.492	3.091	2.850	2.991	3.583	3.994	3.952	4.171	3.953	3.989	3.710	3.769	3.871	3.952	4.157	4.708	4.663	4.805	4.049	3.190	2.758	2.778	2.686	2.577	2.691	2.946	3.517	3.760	3.979	4.472	4.692	5.590	5.917	6.397	7.293	7.397	7.727	8.214	8.490	9.088	9.295	8.651	6.560	5.258	4.771	5.463	7.677
320.0	1802	1746	1253	818.2	602.9	597.5	732.5	904.8	1114	1383	1626	1755	1719	1663	1080	646.1	584.6	774.3	2875	9999.9	9999.9	438.6	23.94	13.48	9.441	7.494	5.860	5.391	5.227	4.247	3.897	3.219	3.025	3.426	3.530	4.060	3.927	4.257	3.855	4.074	4.078	3.948	4.359	4.284	4.911	5.279	5.383	5.293	4.634	3.844	3.144	3.154	2.993	2.879	2.930	3.285	3.558	4.178	4.532	4.905	5.330	6.061	6.355	7.446	8.047	8.248	8.540	9.103	8.965	8.963	9.107	9.449	8.907	7.249	5.481	4.747	5.024
325.0	2119	2244	1798	1159	759.5	709.6	833.3	1013	1251	1532	1787	1934	1847	1697	1446	849.3	548.9	429.1	799.6	3637	9999.9	9999.9	64.32	20.48	12.44	8.919	7.065	6.353	5.754	5.007	4.410	3.688	3.117	3.605	3.494	4.042	3.960	4.383	4.218	4.344	3.952	4.349	4.713	5.056	5.484	6.183	6.592	6.982	6.219	5.112	4.156	4.221	3.531	3.554	3.587	3.651	4.078	4.401	5.079	5.461	5.924	6.392	6.695	7.941	8.078	9.002	9.628	9.672	9.661	10.30	9.673	9.249	9.305	9.419	7.676	6.071	5.118
330.0	2719	3017	2779	1879	1212	952.9	1008	1184	1424	1732	2021	2175	2102	1880	1580	1244	752.5	484.0	429.5	991.8	3761	9999.9	9999.9	1619	30.80	13.56	10.02	8.026	6.517	5.792	5.114	4.070	3.748	3.709	3.913	3.965	4.402	4.435	4.620	4.483	4.424	5.058	5.617	6.023	6.706	7.669	8.432	9.302	8.858	7.567	6.646	6.467	5.462	4.923	4.481	4.727	4.825	5.216	5.622	6.019	6.512	7.062	7.813	8.964	9.195	9.964	10.53	10.76	10.89	11.05	10.56	10.09	9.721	9.333	9.008	8.418	7.644
335.0	3241	3749	3517	2620	1737	1286	1217	1382	1621	1934	2230	2411	2344	2129	1748	1414	1162	714.3	485.6	500.7	1038	2556	9999.9	9999.9	2534	36.27	15.41	11.25	8.687	7.268	6.013	5.039	4.438	4.140	4.148	4.170	4.534	4.741	4.800	5.021	5.226	5.716	6.260	6.619	8.033	9.136	9.874	11.00	10.83	9.443	8.389	8.526	7.638	6.438	6.162	5.727	5.968	6.087	6.534	6.856	7.605	8.337	9.050	10.08	10.44	10.82	11.56	11.81	11.92	11.92	11.92	11.47	11.26	10.12	9.657	9.167	9.022
340.0	3533	4039	3864	2987	2023	1502	1372	1526	1774	2059	2361	2522	2504	2294	1910	1508	1285	981.7	617.5	465.6	490.5	763.0	2862	9999.9	9999.9	407.1	28.43	14.56	10.78	8.369	6.703	6.033	4.543	4.482	4.376	4.472	4.533	5.170	5.163	5.410	5.608	6.163	6.587	7.318	8.585	10.16	10.57	12.04	11.44	10.53	9.555	10.07	8.529	7.731	6.866	6.266	6.627	6.710	7.418	7.848	8.336	9.191	9.817	10.55	10.97	11.46	12.09	12.62	12.55	12.81	12.97	12.28	11.83	11.34	10.46	10.00	9.333
345.0	3697	4177	4008	3204	2254	1659	1509	1614	1839	2141	2386	2578	2548	2373	2007	1593	1302	1126	803.2	528.4	423.3	410.6	805.7	3552	9999.9	9999.9	337.9	21.57	13.75	10.47	7.498	6.683	5.443	4.596	4.323	4.436	4.557	4.974	5.200	5.534	5.845	6.009	6.991	7.661	8.874	10.01	10.62	12.30	12.01	11.32	10.41	10.77	9.352	8.358	7.287	6.933	7.191	7.502	7.776	8.306	8.677	9.634	9.774	10.26	10.93	11.75	12.06	12.38	12.87	13.10	12.93	12.62	12.61	12.02	10.86	10.71	10.13
350.0	3492	4012	4005	3280	2440	1860	1661	1747	1937	2162	2389	2539	2533	2386	2061	1684	1370	1135	983.6	728.1	512.1	414.3	415.7	959.6	3656	9999.9	9999.9	1580	31.77	14.80	10.32	7.969	6.119	5.338	4.771	4.655	4.940	4.974	5.016	5.354	5.725	5.958	6.644	7.475	8.417	9.985	10.70	11.92	12.02	11.28	10.89	11.60	10.08	9.336	8.048	7.764	7.620	8.023	8.313	8.869	9.004	10.01	10.00	10.84	11.08	11.85	11.64	12.28	13.02	12.64	12.98	12.74	12.42	12.38	11.51	10.84	10.43
355.0	3375	3784	3883	3256	2550	2021	1847	1919	2072	2252	2390	2516	2496	2370	2085	1757	1466	1202	1031	940.4	706.6	518.2	417.1	446.9	977.5	2461	9578	9999.9	2719	37.45	14.78	10.06	7.506	6.070	5.690	4.900	5.163	5.297	5.331	5.454	5.663	5.901	6.646	7.187	8.152	9.523	9.697	11.80	11.75	10.91	10.30	11.57	10.69	9.805	8.998	8.411	8.385	8.843	9.018	9.473	9.675	10.51	10.76	10.98	11.39	11.85	11.71	12.08	12.38	13.00	13.30	12.92	12.67	12.79	11.73	11.65	10.74
360.0	3190	3558	3711	3181	2555	2105	1957	2040	2172	2293	2402	2475	2465	2332	2104	1792	1531	1280	1092	980.8	881.5	652.1	488.7	398.7	435.8	699.7	2574	9999.9	9999.9	2220	31.60	14.05	9.626	6.950	6.061	5.284	5.550	5.425	5.614	5.464	5.722	6.127	6.663	7.308	7.953	9.113	9.438	10.86	11.22	10.19	9.935	11.42	10.45	10.05	9.275	8.743	9.246	9.313	9.695	10.09	10.38	10.82	11.24	11.52	11.59	11.99	11.68	11.99	12.14	12.40	12.66	12.92	12.49	12.35	11.73	11.73	11.37
365.0	2973	3392	3496	3087	2565	2191	2060	2117	2245	2351	2417	2458	2428	2304	2097	1822	1570	1347	1172	1020	952.3	815.0	590.1	458.8	373.5	357.2	715.3	3170	9999.9	9999.9	363.2	23.55	12.77	9.113	7.195	6.304	5.948	6.046	5.846	5.656	5.877	5.989	6.445	6.984	7.776	8.922	8.887	10.42	10.78	9.667	9.788	11.20	10.44	9.783	9.215	9.084	9.687	9.695	10.04	10.14	10.75	11.06	11.53	11.43	11.93	11.84	11.79	11.88	12.31	12.21	12.33	12.70	12.35	12.23	11.42	11.67	11.41
370.0	2826	3125	3208	2930	2530	2228	2135	2196	2279	2367	2397	2408	2338	2229	2052	1811	1600	1413	1251	1110	1008	949.7	796.3	586.7	459.3	362.0	364.0	852.3	3343	9999.9	9999.9	5171	30.19	13.49	9.883	7.403	6.579	6.341	6.285	5.933	5.902	6.122	6.400	6.832	7.770	8.401	8.455	9.814	9.923	9.255	9.226	10.91	10.47	10.03	9.395	9.209	9.830	9.810	10.18	10.46	10.74	11.36	11.55	11.54	11.66	11.82	11.72	11.45	11.97	11.90	12.05	12.42	12.00	11.96	11.45	11.48	11.21
375.0	2660	2864	2938	2772	2501	2262	2201	2242	2318	2368	2384	2354	2266	2153	1993	1783	1624	1466	1338	1202	1100	1010	950.1	792.9	596.1	462.1	364.7	394.2	884.2	2413	8999	9999.9	2577	36.46	14.42	10.13	8.144	7.326	6.917	6.322	6.366	6.162	6.266	6.767	7.267	8.029	8.057	9.039	9.168	8.419	8.710	10.07	10.02	10.15	9.356	9.694	10.15	10.05	10.35	10.54	10.61	11.19	11.74	11.72	11.67	11.67	11.49	11.88	11.73	11.82	11.61	11.79	11.64	12.00	11.36	11.24	11.18
380.0	2545	2705	2761	2647	2461	2277	2238	2254	2319	2350	2349	2317	2235	2096	1950	1760	1621	1485	1370	1262	1169	1070	990.5	923.3	726.6	553.4	426.7	344.0	378.8	664.1	2376	9999.9	9999.9	2052	29.37	13.34	10.06	8.490	7.115	6.655	6.306	6.185	6.404	7.155	7.460	7.772	7.813	8.582	8.955	8.291	8.275	10.28	10.02	10.05	9.516	9.437	10.42	10.18	10.41	10.59	11.07	11.07	11.51	11.51	11.51	11.49	11.14	11.08	10.97	11.49	11.45	11.73	11.72	11.31	11.19	11.30	11.82
385.0	2456	2600	2627	2531	2424	2303	2258	2266	2299	2341	2322	2268	2196	2049	1908	1741	1605	1500	1397	1310	1223	1132	1035	972.0	862.5	651.5	494.3	389.4	316.1	316.3	650.5	3010	9999.9	9999.9	304.3	24.41	13.89	10.34	8.041	7.155	6.493	6.376	6.427	6.851	7.096	7.778	7.591	8.494	8.588	7.966	8.181	9.916	9.732	9.552	9.494	9.715	10.26	10.37	10.27	10.57	10.95	10.87	11.03	11.41	11.10	11.25	10.95	10.98	11.34	11.38	11.32	10.99	11.70	11.61	11.23	11.35	11.40
390.0	2309	2461	2500	2454	2349	2275	2235	2258	2288	2352	2329	2287	2188	2055	1908	1742	1614	1516	1428	1360	1286	1209	1131	1046	970.2	841.4	649.8	514.8	407.4	338.9	351.7	823.3	3107	9999.9	9999.9	4557	30.46	17.14	11.18	8.226	7.192	6.929	6.681	6.844	7.007	7.384	7.266	8.108	7.921	7.638	7.694	9.834	9.235	9.452	9.398	9.690	10.19	10.53	10.61	10.41	10.91	10.95	11.14	11.64	11.54	10.90	11.05	10.83	11.20	11.07	10.65	10.90	11.32	11.26	10.90	11.15	11.26
395.0	2275	2363	2380	2376	2304	2283	2270	2303	2380	2473	2501	2463	2354	2187	2010	1810	1650	1553	1479	1427	1383	1338	1282	1203	1124	1046	917.0	745.6	625.2	525.9	431.7	476.6	911.9	2465	7580	9999.9	2187	37.64	18.80	11.42	8.751	7.842	7.067	7.171	7.309	7.500	7.241	7.854	7.989	7.472	7.455	9.607	9.259	9.042	9.464	9.834	10.51	10.74	11.06	10.84	11.12	10.74	11.64	11.45	11.24	11.49	11.31	11.15	11.44	11.48	11.11	11.37	11.33	11.57	10.85	10.92	11.45
400.0	2223	2285	2290	2327	2304	2302	2306	2389	2517	2667	2758	2757	2624	2426	2181	1925	1714	1603	1540	1499	1485	1463	1435	1389	1315	1241	1173	1022	869.5	758.9	650.6	560.1	532.1	823.2	2114	9999.9	9999.9	1811	33.57	15.63	10.47	8.726	8.003	7.580	7.707	7.643	7.492	7.698	7.882	7.515	7.781	9.163	9.148	9.921	9.999	9.977	11.18	11.16	11.33	11.44	11.59	11.50	11.90	12.12	11.88	11.93	11.71	12.09	11.66	12.17	11.29	12.01	11.29	11.72	11.45	11.46	12.06
405.0	2213	2259	2274	2290	2327	2357	2402	2501	2673	2904	3094	3098	2938	2710	2394	2073	1810	1664	1595	1588	1587	1593	1602	1594	1539	1460	1402	1318	1149	1029	904.9	760.1	623.3	575.5	770.7	2994	9999.9	9999.9	274.2	24.67	13.07	10.14	8.566	7.775	7.654	7.916	7.520	8.082	8.132	7.439	7.736	9.321	9.858	10.08	10.22	10.06	11.41	11.29	11.48	12.03	12.47	12.16	12.64	12.45	13.01	12.47	12.19	12.52	12.40	12.33	12.27	12.33	12.13	12.13	11.63	11.64	12.01
410.0	2157	2213	2235	2241	2302	2385	2450	2606	2830	3115	3364	3385	3225	2948	2581	2188	1873	1700	1634	1632	1661	1703	1740	1756	1734	1674	1609	1544	1443	1302	1157	982.4	790.1	641.8	583.0	984.8	3026	9759	9999.9	3735	26.14	12.96	10.08	8.831	8.312	7.986	7.635	8.230	8.049	7.537	7.792	9.447	9.877	9.979	10.47	10.29	11.50	11.90	11.79	12.44	12.79	12.56	13.27	13.37	13.48	13.21	12.87	13.31	12.91	12.97	12.61	12.62	12.27	12.53	11.94	11.86	11.85
415.0	2077	2112	2170	2210	2251	2373	2463	2602	2823	3103	3367	3375	3235	2936	2563	2144	1844	1665	1600	1611	1639	1697	1754	1780	1767	1723	1656	1578	1515	1418	1247	1060	851.9	679.2	556.9	543.5	897.4	2354	6333	9999.9	1964	30.12	12.64	10.10	8.955	8.499	8.018	8.271	7.436	7.211	7.669	9.377	9.294	9.749	10.57	10.18	11.30	12.09	12.01	12.59	12.15	12.61	12.91	13.03	14.05	13.08	12.98	12.87	12.83	13.08	12.92	12.85	12.45	12.36	12.01	11.54	11.48
420.0	1979	2025	2080	2120	2220	2320	2429	2554	2765	3021	3243	3263	3110	2831	2463	2078	1773	1607	1557	1556	1589	1644	1704	1739	1730	1687	1630	1563	1491	1421	1269	1060	854.9	678.6	545.0	445.9	419.7	650.0	1647	8282	9999.9	1601	24.34	11.56	9.527	8.847	7.945	8.483	7.781	7.107	7.487	9.118	9.214	9.741	10.22	10.13	11.30	11.60	12.05	12.40	12.15	12.22	12.60	12.53	13.04	13.00	12.38	12.45	12.44	12.15	12.12	12.16	12.19	11.95	11.45	11.40	11.55
425.0	1964	1948	2015	2075	2173	2283	2461	2554	2723	2970	3161	3204	3031	2755	2414	2042	1726	1565	1520	1514	1547	1609	1670	1708	1711	1670	1621	1556	1481	1410	1303	1089	870.2	688.5	556.9	434.1	322.1	278.9	442.3	2310	9999.9	9999.9	254.3	17.60	10.66	9.557	8.519	8.275	7.939	7.239	7.415	9.010	9.162	9.727	10.12	10.16	11.76	11.40	12.21	11.91	12.05	12.33	12.30	12.40	12.89	13.07	12.70	12.28	12.63	12.21	11.71	11.81	11.35	11.89	10.55	10.93	10.81
430.0	2161	1920	1961	2025	2190	2309	2472	2589	2746	2973	3185	3209	3038	2753	2393	2012	1697	1537	1481	1482	1520	1581	1658	1702	1719	1698	1655	1603	1532	1453	1357	1179	948.1	750.7	606.9	472.7	334.4	218.8	187.4	569.2	2739	8175	9917	3075	22.79	11.85	9.447	8.909	8.026	7.188	7.465	8.984	9.422	9.944	10.11	10.46	11.84	11.67	12.15	12.17	12.33	12.61	12.44	12.56	12.53	12.85	12.30	12.12	12.18	12.34	11.68	12.01	11.60	11.34	10.59	10.85	10.83
435.0	2930	1868	1888	1975	2153	2345	2515	2641	2760	2955	3177	3205	3001	2733	2352	1970	1668	1504	1448	1452	1480	1544	1629	1679	1710	1703	1669	1627	1566	1489	1388	1231	1025	808.1	651.0	513.3	364.8	226.4	145.8	192.8	656.4	1901	5802	9999.9	1825	27.24	11.37	10.46	9.020	7.739	7.963	9.249	9.447	9.972	10.40	10.69	12.24	12.01	12.76	12.74	12.50	12.91	12.18	12.26	12.45	12.59	11.90	12.24	12.00	12.30	11.50	11.38	11.83	11.20	10.68	10.54	10.40
440.0	3663	2035	1840	1937	2148	2334	2535	2647	2742	2890	3061	3073	2893	2623	2290	1903	1611	1455	1400	1401	1423	1489	1564	1618	1653	1648	1626	1589	1532	1461	1360	1200	1025	829.0	656.5	521.8	376.2	237.2	148.3	118.6	200.0	464.0	1505	8059	9999.9	1441	21.12	11.79	9.132	8.100	7.768	9.143	9.569	9.971	10.24	10.75	12.13	12.22	12.40	12.57	12.65	12.54	12.49	12.04	12.02	11.83	11.86	11.53	11.39	11.42	11.31	11.16	11.38	11.05	10.66	10.07	9.951
445.0	3693	2486	1810	1909	2116	2309	2514	2604	2635	2759	2882	2881	2720	2458	2154	1801	1538	1388	1336	1332	1346	1407	1468	1523	1559	1549	1535	1502	1451	1389	1291	1142	970.1	810.3	645.8	510.8	371.0	241.1	155.5	110.5	104.5	149.4	372.4	2291	9980	9999.9	213.0	17.72	10.38	8.405	8.200	9.229	9.615	10.32	10.27	10.84	11.57	12.44	12.55	12.43	12.33	12.16	12.14	11.85	11.72	11.46	11.20	11.20	10.99	10.88	10.61	10.35	10.04	10.32	10.28	9.942	9.793
450.0	2732	3383	1908	1811	2005	2232	2411	2490	2470	2520	2611	2568	2446	2208	1941	1637	1409	1287	1233	1217	1225	1269	1320	1370	1399	1396	1381	1347	1314	1257	1172	1038	880.7	742.6	619.2	487.3	358.3	243.2	163.7	118.3	95.13	87.58	125.7	544.8	2764	8156	9671	2833	19.84	10.14	8.892	9.471	9.807	10.05	10.29	10.50	11.34	12.11	12.19	11.89	11.88	11.79	11.42	11.23	11.26	10.30	10.36	10.22	9.980	9.938	9.875	9.689	9.772	9.538	9.294	8.939	9.019
455.0	1796	3314	2587	1708	1887	2103	2305	2361	2287	2310	2334	2309	2164	1965	1722	1470	1272	1165	1125	1105	1104	1133	1181	1218	1242	1242	1233	1209	1179	1135	1063	942.1	798.9	672.1	572.5	473.1	349.7	242.1	170.8	128.4	102.6	83.30	77.50	159.6	645.4	1895	5380	9999.9	1514	21.11	10.13	9.798	9.783	9.852	9.996	9.778	11.43	11.54	11.42	11.43	11.00	10.95	10.61	10.62	10.41	9.642	9.757	9.717	9.157	9.159	9.070	9.275	8.492	8.410	8.542	8.512	8.308
460.0	1433	2480	3326	1725	1765	1993	2200	2241	2165	2151	2149	2130	1983	1805	1577	1362	1175	1071	1035	1018	1008	1035	1078	1114	1135	1137	1141	1111	1086	1051	986.3	877.5	748.7	630.3	535.0	455.3	350.4	243.8	175.9	135.1	108.3	86.79	70.04	77.31	176.6	449.4	1365	7100	9999.9	1158	17.87	11.22	9.906	9.960	9.957	9.948	11.04	11.15	11.17	11.12	10.61	10.37	10.25	9.750	9.588	9.420	9.197	9.108	8.727	8.259	8.362	8.653	8.198	7.770	7.838	7.612	7.609
465.0	1294	1731	3494	2114	1667	1924	2061	2116	2032	1993	2013	1967	1827	1664	1462	1255	1088	997.5	959.5	940.1	932.5	953.1	984.3	1026	1045	1046	1047	1026	1008	975.5	916.5	823.8	703.2	596.3	503.1	429.7	347.4	247.4	180.1	139.6	113.3	91.87	72.65	62.29	74.10	128.9	329.5	1975	8783	8502	177.2	16.91	10.84	10.54	9.943	9.960	10.34	10.56	10.72	10.19	10.07	10.08	9.701	9.259	9.272	8.788	8.800	8.142	8.390	7.905	7.670	7.742	7.925	7.383	7.292	7.293	7.387
470.0	1180	1278	2469	3055	1690	1725	1864	1904	1823	1789	1782	1729	1613	1464	1289	1107	966.5	887.6	855.0	828.8	819.2	831.3	860.4	895.4	913.3	915.9	913.8	901.2	888.7	861.9	812.4	732.5	633.7	538.4	458.8	387.6	319.9	247.7	182.0	141.1	116.1	94.57	76.12	62.61	55.36	59.95	99.26	463.5	2395	6497	7355	2524	20.25	11.33	10.00	9.940	9.981	9.989	10.22	9.643	9.417	9.427	8.486	8.686	8.340	8.054	7.836	7.501	7.269	7.005	7.229	6.974	6.885	6.971	6.974	6.714	6.451
475.0	1092	1101	1437	3145	2316	1541	1646	1690	1622	1561	1540	1497	1388	1253	1108	957.7	837.9	772.7	745.5	717.4	706.9	712.4	734.9	764.1	782.9	779.5	780.7	771.0	760.9	744.7	701.6	631.4	553.2	472.5	406.0	344.1	280.8	230.5	184.2	141.8	114.4	95.58	79.61	64.10	53.46	47.02	50.23	125.2	551.3	1490	3660	8327	1528	24.41	11.24	9.745	9.691	9.520	9.152	8.778	8.549	8.770	7.871	7.530	7.602	7.085	6.937	6.660	6.321	6.357	6.274	6.177	6.232	6.164	5.728	5.808	5.620
480.0	979.8	999.5	1087	2333	3185	1517	1525	1551	1470	1404	1372	1329	1240	1120	992.2	855.9	757.4	695.3	674.1	649.5	626.2	632.8	651.4	671.0	691.3	689.5	691.0	683.9	673.6	659.8	630.1	563.5	499.1	427.1	368.4	313.3	257.1	210.3	178.6	145.4	116.8	96.44	80.55	65.65	54.53	46.04	39.53	51.87	142.2	348.2	901.8	4741	7948	1365	20.82	10.45	9.932	9.274	8.908	8.094	8.141	7.889	7.193	6.793	6.677	6.839	6.281	6.025	5.879	5.857	5.616	5.555	5.626	5.318	5.619	5.319	5.350
485.0	902.7	948.3	942.6	1538	3553	1912	1420	1422	1344	1280	1263	1207	1111	1017	898.4	778.2	683.4	639.2	610.2	594.3	569.1	576.3	588.6	608.8	614.8	620.3	618.8	616.7	603.7	597.0	569.6	512.5	450.3	391.8	339.0	289.9	241.9	198.7	169.7	147.8	119.4	97.05	81.59	67.84	55.51	47.34	39.89	37.12	52.46	94.93	216.8	1262	6242	7379	214.7	16.38	10.43	9.402	8.364	8.403	7.706	7.148	6.838	6.817	6.538	6.437	5.928	5.840	5.646	5.668	5.444	5.204	5.183	5.083	4.912	4.863	5.267
490.0	788.5	866.4	858.7	1029	2581	3131	1432	1275	1211	1160	1129	1075	991.2	900.2	795.3	693.4	613.5	567.3	545.2	525.6	505.0	505.3	520.7	532.8	542.6	545.7	544.2	542.3	533.9	524.2	500.1	457.6	404.0	352.6	306.8	266.5	225.0	185.4	155.5	142.0	123.6	99.45	83.00	69.85	58.68	49.96	42.35	35.97	34.39	40.12	64.37	296.5	1642	4841	6593	2624	22.04	10.73	8.716	8.248	7.316	6.893	6.696	6.308	5.918	5.798	5.560	5.460	5.058	5.326	5.048	4.650	4.888	4.621	4.645	4.510	4.795
495.0	692.7	783.1	776.3	815.7	1398	3567	2139	1140	1079	1015	992.3	939.7	869.0	785.4	699.9	611.0	542.4	500.7	478.2	458.0	441.8	440.4	450.5	464.3	470.2	470.4	471.3	469.2	467.4	458.5	438.2	403.0	358.4	314.0	276.7	241.9	204.7	173.8	146.6	129.2	118.9	103.4	83.71	71.37	60.23	51.32	44.49	37.68	32.43	29.59	32.05	81.54	379.8	1107	3325	8310	1788	27.55	10.42	8.306	7.336	6.635	6.205	5.664	5.417	5.311	5.029	4.934	4.583	4.675	4.624	4.312	4.513	4.384	4.116	4.343	4.084
500.0	624.1	715.4	728.4	722.2	938.3	2698	3258	1129	980.0	928.6	897.3	848.7	782.5	708.0	629.4	545.7	483.8	447.4	427.4	409.9	395.6	392.6	403.9	414.2	418.9	420.1	421.3	416.3	416.1	411.9	392.9	362.8	322.9	287.6	253.2	220.4	190.3	161.0	136.6	122.3	109.8	102.6	86.38	71.14	60.42	52.08	45.14	38.60	32.80	27.91	25.24	34.60	99.23	260.5	813.0	4504	8213	1550	22.56	8.943	7.261	6.541	5.744	5.416	5.118	5.033	4.648	4.667	4.168	4.418	4.016	4.411	3.882	3.693	3.814	3.778	3.692
505.0	568.2	616.9	686.0	679.4	755.4	1616	3959	1523	880.0	846.3	812.7	775.4	706.6	643.7	570.9	485.9	435.6	401.5	384.5	366.9	355.3	353.1	358.4	368.9	375.4	373.1	375.0	373.8	371.9	366.6	352.3	326.3	295.7	260.0	230.5	202.0	176.2	149.1	128.4	114.8	102.1	97.08	86.43	71.90	59.52	51.89	45.16	38.79	33.19	28.62	24.95	24.86	36.87	71.93	194.4	1163	5700	7526	241.3	16.83	7.806	6.572	5.739	5.087	5.020	4.593	4.401	4.280	3.833	3.922	3.898	3.976	3.776	3.429	3.531	3.371	3.618
510.0	475.5	512.0	588.0	617.4	647.5	908.6	2895	3047	909.4	727.8	703.9	668.6	611.9	550.7	484.2	422.1	379.0	350.6	331.9	317.3	306.4	302.1	306.8	315.2	317.4	317.0	318.5	316.4	317.8	314.0	301.2	279.9	253.6	225.6	201.0	179.8	157.0	134.6	117.9	105.1	93.91	85.41	79.65	70.67	59.95	50.81	44.67	38.43	33.05	28.85	24.94	22.59	23.81	30.12	56.21	271.6	1455	4425	5884	2414	21.07	7.452	5.964	5.266	4.613	4.265	4.010	3.805	3.670	3.628	3.537	3.355	3.226	3.129	3.286	2.946	3.117
515.0	393.7	440.7	474.9	551.6	559.1	653.8	1332	3899	1713	630.6	603.9	564.3	521.2	465.6	414.8	363.7	319.9	297.9	282.3	272.2	258.2	255.7	258.8	263.0	264.5	266.4	267.4	267.9	267.6	264.1	255.4	234.9	215.3	192.7	171.9	154.6	134.3	120.0	107.1	95.02	85.68	76.15	70.07	67.69	61.01	49.91	43.26	37.70	32.57	28.85	25.38	22.39	21.12	20.62	25.26	71.95	334.8	1002	2443	6604	1842	27.85	6.890	5.212	4.519	4.033	3.821	3.244	3.549	3.224	3.236	2.800	2.906	2.789	2.717	2.760	2.757
520.0	377.9	379.5	409.5	479.0	518.4	556.9	746.7	2931	3160	660.9	534.9	500.1	455.8	410.2	360.1	316.9	282.3	262.5	247.8	238.3	226.6	223.8	226.9	229.4	230.0	231.6	233.7	233.1	231.7	229.7	222.7	208.4	189.7	169.5	154.0	136.3	122.7	109.0	97.77	87.09	79.47	70.69	64.20	61.49	58.51	49.93	41.69	37.02	31.88	27.80	24.57	22.01	20.42	18.30	18.02	27.45	84.98	233.5	578.1	3151	6418	1619	23.15	6.167	4.469	4.202	3.523	3.294	3.011	2.990	2.856	2.878	2.668	2.765	2.655	2.605	2.485
525.0	335.0	351.3	376.9	413.3	486.4	484.4	554.3	1535	4224	1111	475.6	447.1	406.4	371.3	322.9	283.1	253.5	235.5	218.3	212.6	200.0	196.5	199.9	205.4	202.9	205.5	204.1	204.2	202.2	201.2	195.8	183.4	166.1	152.3	136.7	123.4	111.8	98.79	88.22	79.67	72.62	65.90	58.24	54.96	54.52	49.58	41.25	35.06	30.08	27.46	24.48	21.27	19.38	17.60	15.89	17.44	29.30	61.15	137.8	772.7	3777	5994	1274	17.13	5.245	4.107	3.563	3.189	2.798	2.863	2.776	2.622	2.561	2.370	2.331	2.346	2.404
530.0	287.1	306.0	306.8	341.6	429.5	444.2	456.3	707.5	3008	2840	558.9	390.3	351.7	314.1	279.2	243.0	219.4	200.8	187.9	182.4	172.6	168.9	171.1	173.0	173.8	174.4	171.7	173.0	172.1	171.2	166.1	156.6	142.4	129.2	117.8	107.1	97.46	87.13	78.19	71.82	65.49	58.69	53.47	48.77	46.92	45.08	41.15	33.63	28.66	25.68	22.64	20.75	18.48	17.32	15.17	14.54	16.24	22.37	38.76	179.6	923.6	3008	4591	2096	97.93	5.393	3.812	3.415	2.835	2.761	2.532	2.366	2.253	2.256	2.216	2.095	2.169
535.0	246.2	258.4	259.3	275.5	345.4	406.2	383.7	432.0	1129	4018	1453	337.5	297.2	264.8	235.1	203.1	184.0	171.2	160.0	152.7	146.1	142.9	143.4	143.1	144.9	143.9	143.1	142.6	143.9	142.3	138.3	129.8	119.9	108.8	100.5	90.44	83.07	74.74	67.32	61.63	56.50	52.20	48.07	43.35	41.18	38.29	37.50	33.14	26.98	23.88	21.12	19.42	17.06	16.20	15.13	14.01	12.57	13.49	15.88	46.94	211.8	677.9	1555	4597	1931	29.82	4.705	3.524	2.862	2.627	2.696	2.169	2.165	2.019	2.030	2.007	1.861
540.0	228.0	233.7	225.5	235.8	285.0	374.3	335.8	342.4	512.9	2740	3209	371.9	261.1	233.2	199.9	178.4	158.6	147.6	139.1	131.8	127.0	122.6	124.0	123.8	124.3	124.5	123.0	123.7	124.9	123.7	119.9	112.4	104.1	94.47	86.94	79.75	73.13	66.40	60.30	55.08	50.69	47.08	43.08	39.27	36.45	34.00	33.14	32.20	26.10	22.39	20.00	18.46	16.01	14.92	13.94	12.97	11.95	10.82	10.73	16.72	52.91	156.4	358.6	1876	4712	1684	25.04	4.077	3.154	2.536	2.359	2.285	1.979	1.898	1.779	1.943	1.652
545.0	228.9	224.6	206.7	206.1	239.4	321.1	320.7	293.8	331.1	1186	4319	807.3	229.2	204.3	175.4	154.1	140.6	130.2	123.1	114.2	110.4	109.7	106.9	107.2	108.6	106.9	107.6	106.4	109.4	108.2	104.4	97.93	91.36	82.81	75.84	69.53	63.82	58.87	53.56	49.90	45.17	41.93	38.36	35.85	32.91	31.09	29.31	29.16	26.11	21.79	18.44	16.95	15.04	14.17	12.98	12.41	11.54	9.917	9.365	9.677	17.24	40.25	85.01	442.1	2289	4524	1336	18.54	3.592	2.748	2.265	2.088	1.835	1.709	1.630	1.681	1.673
550.0	218.0	210.2	193.4	183.2	196.2	243.5	301.4	257.7	251.5	458.8	2679	2507	297.2	172.3	145.5	130.9	116.9	107.9	101.2	95.42	90.77	89.80	87.32	88.23	88.88	87.51	88.39	87.42	88.65	87.84	85.12	80.31	74.26	68.15	62.88	57.62	53.87	49.01	44.54	41.62	38.79	35.96	32.76	30.98	28.66	26.57	25.05	23.82	22.85	20.24	17.02	14.91	13.85	12.35	11.61	10.96	10.36	9.657	8.330	7.586	8.594	13.62	23.51	102.8	538.6	1900	3230	1685	109.5	4.209	2.752	2.156	1.879	1.659	1.656	1.497	1.498
555.0	199.7	204.8	176.0	154.4	159.4	181.0	254.5	238.4	202.4	247.8	845.5	3615	1044	142.3	120.4	105.0	94.91	86.13	80.20	75.80	71.33	71.84	71.42	69.86	70.66	69.96	68.62	70.09	69.40	69.39	67.44	65.27	58.74	54.10	50.04	46.43	43.09	40.00	37.21	33.68	31.13	29.39	27.23	25.92	23.86	22.24	20.67	19.51	18.17	17.70	16.42	13.19	11.70	10.81	10.11	9.608	8.790	8.471	7.368	6.839	6.554	7.240	9.494	26.56	123.7	427.0	947.9	2866	1932	31.89	3.872	2.346	1.964	1.703	1.537	1.282	1.220
560.0	192.8	194.5	167.4	135.0	137.6	149.8	192.7	231.2	175.6	178.8	317.2	2303	2703	158.6	103.3	86.69	79.60	71.40	67.82	62.93	59.26	59.61	59.83	58.25	57.06	58.49	57.25	58.49	58.10	57.77	56.86	54.90	49.36	45.12	41.81	38.46	36.43	33.76	31.39	28.69	26.15	25.17	23.55	21.95	20.93	19.19	18.19	16.50	15.41	15.31	14.56	12.26	10.46	9.420	8.979	8.508	8.204	7.860	6.966	6.592	5.609	5.535	5.864	9.416	31.02	98.77	216.6	1018	3027	1613	26.62	3.104	2.022	1.882	1.413	1.258	1.245
565.0	210.2	195.5	161.3	119.2	117.3	124.9	151.5	206.6	161.8	152.2	180.3	891.8	3715	524.0	88.16	73.07	67.57	62.63	56.40	53.84	51.45	50.10	49.57	49.67	48.95	49.35	48.94	47.84	48.57	48.52	47.52	45.18	41.36	38.20	35.39	33.08	30.62	28.57	26.47	24.89	22.83	21.30	20.11	19.01	17.70	17.11	15.51	14.34	13.10	12.89	12.64	11.60	9.613	8.531	8.045	7.712	7.378	6.629	6.459	6.343	5.115	4.538	4.729	5.477	10.27	25.04	51.57	235.2	1226	2916	1188	19.79	2.321	1.811	1.414	1.414	1.197
570.0	193.5	180.8	153.4	103.9	98.87	102.7	118.2	166.3	169.3	132.1	132.8	300.7	2237	1964	112.5	60.86	54.84	50.79	45.58	43.83	41.21	39.98	39.84	39.63	39.27	39.20	39.47	38.70	38.80	38.54	37.77	36.09	33.68	30.34	28.67	26.69	24.87	23.48	21.62	20.34	19.15	17.51	16.85	15.80	14.99	13.88	13.04	12.00	11.03	10.14	9.987	10.01	8.856	7.689	7.086	6.623	6.272	6.057	5.374	5.452	5.105	4.397	4.221	4.280	5.230	8.442	14.52	55.50	283.2	1071	2006	1121	110.9	3.577	1.593	1.234	1.253
575.0	187.3	166.3	139.2	82.90	79.03	84.70	99.77	124.6	172.2	129.5	112.0	149.4	659.9	2866	735.2	52.52	45.43	40.56	37.44	34.34	31.86	32.34	32.01	32.04	31.70	31.40	30.95	30.60	31.22	30.35	29.01	28.04	25.38	23.93	23.37	21.36	20.27	18.95	17.64	16.41	15.26	14.22	13.68	13.03	12.40	11.47	10.99	10.32	9.058	8.338	7.827	7.782	8.070	7.181	6.245	5.579	5.533	5.040	4.784	4.384	4.510	4.353	3.838	3.931	3.764	4.591	5.899	15.05	65.79	241.3	535.6	1595	1644	32.68	2.424	1.436	1.131
580.0	169.9	169.0	135.6	84.70	71.11	74.90	85.38	98.16	146.7	134.8	105.7	110.6	219.1	1825	2052	78.17	37.91	34.02	32.16	29.73	27.04	28.04	28.06	26.60	26.54	25.38	25.73	24.76	26.43	25.10	25.46	23.54	22.38	20.68	19.03	18.30	16.91	15.95	15.20	13.65	13.22	12.34	11.56	10.96	10.47	9.754	9.326	8.577	7.807	7.439	6.945	6.454	6.652	6.794	5.752	5.080	4.890	4.326	4.244	3.913	4.053	4.214	3.838	3.429	3.282	3.515	3.641	5.826	16.83	55.96	122.3	523.8	1882	1203	26.57	1.920	1.279
585.0	177.7	163.3	121.3	81.34	63.76	65.38	74.23	83.01	115.8	149.0	107.5	100.0	114.2	690.9	2805	298.7	34.38	28.94	27.61	25.54	23.16	23.04	23.50	22.76	22.92	22.22	21.61	21.46	21.74	21.73	20.23	20.12	18.69	17.80	16.55	15.51	14.40	13.87	12.80	12.20	11.47	10.48	9.853	9.728	9.341	8.932	8.282	7.465	7.026	6.348	6.005	5.493	5.714	6.079	5.298	4.741	4.322	3.895	3.757	3.582	3.524	3.595	3.556	3.300	3.057	3.057	3.049	3.496	5.981	14.55	29.13	120.5	710.2	1851	818.1	18.84	1.563
590.0	155.2	148.9	113.8	75.43	59.55	56.94	63.51	70.33	88.66	142.2	116.6	93.04	85.99	212.0	1681	1361	58.89	25.33	22.96	21.35	19.76	18.90	18.13	18.96	18.27	17.95	17.73	17.20	18.03	17.30	16.87	16.56	15.32	14.48	13.23	12.94	12.23	11.20	10.26	9.888	9.250	8.848	8.305	7.849	7.546	7.537	6.749	6.464	5.947	5.429	4.853	4.732	4.413	4.800	4.841	4.394	3.772	3.487	3.246	3.201	3.101	2.814	2.992	2.951	2.811	2.737	2.621	2.736	3.186	4.987	8.135	28.49	162.8	650.2	1263	791.9	102.1
595.0	149.2	123.4	104.7	68.55	55.00	52.10	57.32	64.02	72.75	111.7	132.8	92.21	78.43	92.84	475.7	2053	450.3	22.58	18.22	17.58	16.15	14.92	14.81	14.97	14.87	14.49	13.89	14.14	14.19	13.77	14.00	13.61	12.20	11.34	10.71	10.47	9.722	8.879	8.242	8.129	7.634	6.941	6.785	6.364	6.076	6.239	5.708	5.199	4.906	4.476	4.079	3.962	3.452	3.838	4.008	3.990	3.490	3.054	2.795	2.793	2.596	2.387	2.469	2.156	2.621	2.556	2.241	2.222	2.086	2.729	3.105	7.663	37.51	146.1	329.3	994.4	1075
600.0	145.6	123.5	98.08	60.28	50.78	46.50	53.17	60.01	68.72	94.04	134.4	98.00	76.65	63.75	140.8	1369	1294	35.37	16.14	15.64	13.34	13.05	12.68	12.54	12.64	11.98	12.11	12.27	11.92	12.15	11.26	11.01	10.26	9.898	9.277	8.905	8.194	7.271	7.143	6.759	6.469	5.913	5.956	5.598	5.437	5.092	4.756	4.450	3.993	3.862	3.482	3.324	3.225	2.970	3.238	3.367	3.512	3.025	2.686	2.507	2.315	2.130	2.123	2.103	2.203	2.518	2.107	1.986	1.812	1.946	1.928	2.795	9.595	33.59	74.78	318.5	1176
605.0	130.1	115.0	89.51	55.34	48.55	43.00	51.34	57.34	67.03	83.00	127.3	109.0	78.89	58.71	60.96	527.7	1899	87.13	14.48	13.58	12.22	11.54	10.95	11.20	10.95	10.32	10.52	10.25	10.67	10.30	9.597	9.818	9.135	8.438	8.264	7.569	6.815	6.358	6.114	5.721	5.284	5.143	4.986	4.706	4.714	4.443	4.253	3.724	3.542	3.336	3.116	3.071	2.770	2.708	2.665	2.823	3.119	2.895	2.346	2.243	2.085	1.871	1.735	1.859	1.956	2.201	2.197	1.873	1.681	1.569	1.658	1.682	3.164	8.475	17.67	73.02	433.9
610.0	118.2	101.4	80.06	54.62	41.27	44.42	47.01	57.19	66.14	79.59	108.6	126.2	82.23	59.70	44.95	149.7	1261	942.9	30.39	11.81	10.21	9.451	9.234	9.006	8.755	8.318	8.664	8.547	8.563	8.499	8.093	7.821	7.511	7.006	6.786	6.429	5.911	5.476	5.106	4.964	4.555	4.340	4.100	3.861	3.846	3.636	3.411	3.299	3.112	2.906	2.754	2.473	2.305	2.226	2.259	2.305	2.570	2.467	2.242	1.986	1.810	1.761	1.680	1.739	1.621	1.884	1.869	1.942	1.615	1.434	1.383	1.329	1.631	2.757	4.725	17.16	99.23
615.0	110.4	87.53	74.46	50.67	39.39	38.88	45.71	53.08	63.68	77.19	91.51	122.5	93.14	59.19	41.60	54.53	365.7	1552	276.3	10.12	8.526	7.948	7.538	7.349	7.479	6.755	6.937	6.836	6.879	6.443	6.480	6.564	6.246	5.754	5.583	5.159	4.815	4.797	4.293	3.974	3.729	3.688	3.443	3.197	3.003	2.937	2.777	2.877	2.433	2.407	2.250	2.025	1.888	1.851	1.892	1.927	1.967	2.050	2.132	1.836	1.497	1.605	1.495	1.550	1.360	1.413	1.469	1.805	1.598	1.518	1.192	1.110	1.136	1.456	1.826	4.665	22.89
620.0	112.0	91.29	71.79	50.41	35.74	38.42	41.97	48.91	59.84	73.55	85.53	110.1	102.2	61.60	42.20	34.05	103.3	1123	651.4	15.79	7.803	6.886	6.711	6.108	6.533	6.027	5.830	5.937	5.815	6.085	6.050	5.381	5.340	4.849	4.504	4.449	4.247	4.047	3.507	3.268	3.159	3.245	2.764	2.866	2.568	2.589	2.384	2.401	2.254	1.899	1.920	1.922	1.511	1.525	1.564	1.599	1.672	1.801	1.945	1.774	1.465	1.490	1.332	1.349	1.419	1.185	1.543	1.465	1.656	1.450	1.166	1.252	1.033	1.150	1.137	1.773	5.792
625.0	101.7	90.02	69.17	46.43	33.98	37.19	39.31	49.38	56.93	71.09	78.90	98.30	106.5	63.70	41.21	27.57	39.29	459.3	1395	61.52	6.927	6.093	6.122	5.439	5.562	5.097	5.097	5.145	4.814	5.337	5.011	4.677	4.582	4.141	3.957	3.598	3.472	3.475	3.175	3.003	2.797	2.654	2.588	2.506	2.016	2.171	2.146	2.166	2.002	1.736	1.660	1.524	1.514	1.525	1.546	1.490	1.423	1.502	1.699	1.651	1.365	1.291	1.360	1.265	1.422	1.126	1.315	1.231	1.337	1.335	1.146	1.000	0.901	0.874	0.998	1.032	1.963
630.0	93.39	86.65	65.52	42.11	33.84	34.95	40.03	47.85	56.26	67.90	79.39	86.42	96.45	72.17	41.56	28.27	24.30	123.8	1052	690.9	15.29	5.452	5.241	4.679	4.649	4.334	4.385	4.366	4.180	4.278	4.102	4.045	3.775	3.488	3.298	3.041	3.083	2.972	2.584	2.562	2.327	2.170	2.111	1.979	1.791	1.820	1.884	1.860	1.626	1.580	1.376	1.365	1.333	1.257	1.278	1.296	1.349	1.257	1.296	1.457	1.327	1.225	1.279	1.203	1.212	1.086	1.102	1.151	1.136	1.222	1.224	1.021	0.916	0.836	0.853	0.803	1.048
635.0	95.40	82.91	66.90	43.28	33.94	35.47	38.59	48.31	55.59	67.09	76.50	86.42	84.32	80.70	43.79	28.21	21.27	37.88	317.4	1258	67.95	5.477	4.401	3.868	3.883	3.810	3.573	3.622	3.782	3.535	3.339	3.342	3.118	2.686	2.748	2.665	2.466	2.417	2.205	2.017	2.045	2.052	1.751	1.802	1.585	1.561	1.561	1.444	1.349	1.324	1.213	1.113	1.098	1.034	1.071	1.125	1.082	1.153	1.117	1.238	1.202	1.147	1.054	1.138	1.134	1.076	0.952	1.057	1.082	1.093	1.016	1.074	0.849	0.783	0.706	0.708	0.705
640.0	95.24	83.65	62.06	41.01	35.89	34.00	39.02	45.09	55.00	65.76	75.62	80.80	74.86	82.84	52.65	28.69	21.49	19.64	84.03	1006	492.2	8.438	4.362	3.686	3.553	3.508	3.191	3.254	3.057	2.941	3.124	3.112	2.863	2.608	2.552	2.303	2.187	2.109	1.898	1.679	1.788	1.840	1.629	1.610	1.640	1.470	1.435	1.234	1.230	1.086	1.124	0.960	1.020	0.963	1.025	1.089	1.068	0.923	1.047	1.056	1.058	1.104	1.062	1.151	0.982	1.068	0.916	0.909	1.012	1.011	0.989	1.003	0.857	0.734	0.675	0.798	0.684
645.0	96.17	84.71	65.18	44.36	32.60	34.40	40.54	44.35	53.55	63.66	74.33	78.57	75.47	79.50	57.98	29.80	22.16	16.21	26.40	453.4	1086	43.23	4.286	3.628	3.297	3.324	2.916	2.868	2.730	2.799	2.641	2.696	2.598	2.348	2.341	2.288	2.041	2.016	1.934	1.640	1.654	1.594	1.608	1.546	1.424	1.337	1.168	1.131	1.230	0.952	0.931	0.920	0.941	0.993	0.987	0.941	0.977	0.891	0.919	0.893	0.915	1.004	1.124	1.053	0.998	1.040	1.048	0.946	1.000	0.799	0.871	0.934	0.966	0.818	0.739	0.722	0.597
650.0	98.26	95.57	76.43	46.66	34.97	33.56	36.81	45.42	52.02	61.05	76.93	80.18	74.47	72.43	64.30	34.12	22.89	16.65	13.89	134.4	1159	277.3	4.398	3.368	3.285	2.988	2.507	2.631	2.679	2.831	2.417	2.528	2.348	2.139	2.050	2.016	1.764	1.803	1.682	1.550	1.444	1.473	1.555	1.338	1.286	1.138	1.370	1.122	1.071	0.993	0.924	0.803	0.835	0.874	0.842	0.773	0.850	0.784	0.897	0.957	0.883	0.951	1.065	0.970	0.953	0.855	0.873	0.871	0.886	0.797	0.725	0.835	0.928	0.877	0.806	0.635	0.635
