Sample:	'1
File name:	Default_20230303_093921.FD3
Run date:	'09:33:00, 03/03/2023
Operator:	user
Comment:	'

Instrument
Model:	F-2700 FL Spectrophotometer
Serial number:	2190-003
ROM Version:	4J14000 07

Instrument parameters
Measurement type:	3-D scan
Data mode:	Fluorescence
EX  Start WL:	220.0 nm
EX  End WL:	600.0 nm
EX Sampling interval:	5.0 nm
EM  Start WL:	230.0 nm
EM  End WL:	650.0 nm
EM Sampling interval:	5.0 nm
Scan speed:	12000 nm/min
EX Slit:	5.0 nm
EM Slit:	5.0 nm
PMT Voltage:	700 V
Response:	Auto 
Corrected spectra:	Off
Contour interval:	50.000

Peak integration
Integration method:	Rectangular
Sensitivity:	1
Threshold:	1.000

Peaks
No.	ApexEX/EM(nm)	Height(Data)
1	230.0/345.0	90.77
2	235.0/340.0	91.78
3	235.0/350.0	87.88
4	255.0/280.0	184.5
5	255.0/555.0	-84.24
6	260.0/285.0	298.6
7	260.0/410.0	307.8
8	260.0/565.0	-73.28
9	265.0/290.0	342.5
10	265.0/415.0	311.5
11	265.0/440.0	327.3
12	265.0/580.0	-67.49
13	270.0/295.0	547.9
14	270.0/590.0	-57.42
15	275.0/305.0	746.7
16	275.0/405.0	362.5
17	275.0/420.0	337.1
18	275.0/605.0	-36.53
19	280.0/310.0	793.7
20	280.0/335.0	609.2
21	280.0/385.0	420.9
22	280.0/440.0	328.4
23	280.0/615.0	-32.12
24	285.0/315.0	816.4
25	285.0/625.0	-23.61
26	290.0/320.0	740.2
27	290.0/640.0	-20.29
28	295.0/405.0	368.9
29	305.0/340.0	406.1
30	310.0/345.0	356.2
31	310.0/400.0	353.6
32	320.0/360.0	329.1
33	325.0/365.0	336.5
34	335.0/380.0	319.2
35	340.0/385.0	319.2
36	345.0/390.0	287.4
37	350.0/395.0	276.7
38	355.0/405.0	269.3
39	360.0/410.0	239.3
40	365.0/420.0	230.1
41	370.0/425.0	219.6
42	400.0/465.0	98.37
43	415.0/485.0	52.58
44	425.0/495.0	37.38
45	430.0/505.0	29.77
46	435.0/510.0	23.18
47	445.0/525.0	15.64
48	450.0/530.0	11.74
49	465.0/550.0	3.723
50	545.0/300.0	-6.119
51	550.0/305.0	-5.892
52	555.0/310.0	-6.160
53	565.0/315.0	-6.237
54	575.0/320.0	-6.148
55	580.0/325.0	-6.322

Data points
	220.0	225.0	230.0	235.0	240.0	245.0	250.0	255.0	260.0	265.0	270.0	275.0	280.0	285.0	290.0	295.0	300.0	305.0	310.0	315.0	320.0	325.0	330.0	335.0	340.0	345.0	350.0	355.0	360.0	365.0	370.0	375.0	380.0	385.0	390.0	395.0	400.0	405.0	410.0	415.0	420.0	425.0	430.0	435.0	440.0	445.0	450.0	455.0	460.0	465.0	470.0	475.0	480.0	485.0	490.0	495.0	500.0	505.0	510.0	515.0	520.0	525.0	530.0	535.0	540.0	545.0	550.0	555.0	560.0	565.0	570.0	575.0	580.0	585.0	590.0	595.0	600.0
230.0	-861.0	-238.7	 3010	 1829	-222.4	-281.0	-241.9	-210.0	-185.2	-165.2	-145.1	-122.5	-102.6	-82.94	-68.29	-56.27	-46.81	-40.49	-35.34	-31.45	-27.75	-25.81	-24.05	-22.02	-20.38	-19.33	-18.18	-17.81	-17.01	-16.88	-16.15	-15.23	-14.19	-13.30	-12.28	-11.17	-10.88	-10.75	-10.31	-10.03	-9.843	-9.589	-9.557	-9.484	-9.007	-8.796	-7.404	-4.779	-0.762	-1.270	-4.559	-7.237	-7.207	-7.738	-7.358	-7.765	-7.917	-7.893	-8.029	-7.876	-7.992	-8.053	-8.018	-8.122	-8.083	-8.140	-8.228	-8.270	-8.316	-8.485	-8.443	-8.488	-8.480	-8.528	-8.712	-8.865	-9.074
235.0	-831.2	-620.8	732.4	 3099	 1874	-130.1	-244.0	-212.2	-181.7	-165.0	-143.9	-121.2	-101.8	-85.10	-69.85	-57.07	-46.79	-40.25	-34.73	-31.62	-28.56	-25.76	-24.03	-22.17	-20.44	-19.60	-18.16	-17.76	-17.49	-16.58	-16.00	-15.57	-14.07	-13.25	-12.52	-11.34	-11.04	-10.62	-10.30	-10.05	-9.636	-9.894	-9.594	-9.199	-9.199	-8.683	-7.717	-7.238	-4.922	-2.782	-1.405	-1.713	-5.065	-7.416	-7.384	-7.719	-7.907	-8.149	-7.866	-7.923	-8.033	-8.096	-8.139	-8.233	-8.189	-8.268	-8.285	-8.419	-8.554	-8.548	-8.432	-8.615	-8.587	-8.629	-8.584	-8.790	-9.142
240.0	-829.5	-630.7	-259.9	 1274	 3698	 1472	-165.6	-204.3	-185.4	-162.5	-141.9	-122.7	-103.2	-84.34	-68.54	-56.10	-46.10	-40.16	-34.70	-30.72	-28.08	-25.89	-23.38	-22.35	-20.73	-19.56	-18.33	-17.95	-17.52	-16.52	-16.12	-15.30	-14.04	-13.29	-12.59	-11.33	-11.07	-10.66	-10.34	-10.24	-9.708	-9.768	-9.847	-9.313	-9.044	-8.972	-7.563	-7.639	-6.528	-5.081	-3.749	-0.841	0.530	-2.543	-5.802	-7.691	-8.031	-8.037	-7.994	-7.987	-8.086	-8.180	-8.029	-8.122	-7.906	-8.163	-8.211	-8.359	-8.459	-8.634	-8.469	-8.604	-8.565	-8.629	-8.726	-8.914	-9.354
245.0	-840.3	-596.3	-435.9	11.18	 2066	 4275	 1155	-176.6	-182.1	-160.1	-140.8	-124.7	-102.3	-82.43	-68.54	-55.39	-47.03	-39.94	-35.82	-31.06	-27.99	-25.62	-23.99	-21.91	-20.02	-19.34	-17.61	-17.88	-17.10	-16.71	-15.97	-14.89	-14.40	-13.26	-12.78	-11.26	-10.84	-10.98	-10.72	-9.905	-9.784	-9.575	-9.737	-9.398	-9.015	-8.632	-7.523	-7.752	-7.108	-5.755	-5.656	-5.554	-2.741	0.835	1.816	-3.395	-6.995	-8.025	-8.049	-7.973	-8.051	-8.326	-8.174	-7.959	-8.062	-8.205	-8.126	-8.339	-8.321	-8.548	-8.532	-8.505	-8.463	-8.422	-8.726	-8.801	-9.035
250.0	-894.1	-645.2	-417.9	-238.4	263.0	 2140	 4161	 2813	196.7	-159.1	-140.7	-119.6	-101.5	-82.05	-66.64	-54.45	-46.67	-40.00	-35.63	-30.40	-28.02	-25.31	-23.96	-22.18	-20.21	-19.31	-18.33	-17.84	-17.17	-17.02	-16.11	-15.48	-14.24	-13.31	-12.52	-11.24	-11.20	-10.94	-10.39	-10.02	-9.779	-9.804	-9.733	-9.218	-9.011	-8.835	-7.559	-7.466	-6.884	-5.806	-5.972	-6.952	-6.076	-5.042	-1.991	0.186	2.350	0.873	-3.620	-7.162	-7.970	-8.098	-7.985	-8.089	-8.136	-8.106	-8.222	-8.345	-8.286	-8.570	-8.404	-8.445	-8.602	-8.433	-8.600	-8.866	-9.032
255.0	-873.5	-706.0	-494.0	-222.2	-101.6	271.8	 1408	 5878	 5070	284.9	-135.4	-117.1	-100.5	-79.34	-64.63	-55.70	-46.13	-39.55	-35.19	-30.93	-27.27	-25.57	-23.24	-22.00	-20.62	-19.54	-18.07	-17.58	-16.90	-16.95	-16.06	-15.34	-14.08	-13.39	-12.21	-11.13	-11.04	-10.94	-10.47	-9.962	-9.770	-9.782	-9.581	-9.100	-9.043	-8.793	-7.703	-7.674	-7.022	-5.834	-5.973	-6.916	-6.824	-7.091	-6.134	-5.962	-4.262	1.351	8.458	7.473	-1.651	-7.484	-8.006	-8.138	-8.156	-8.102	-8.312	-8.353	-8.316	-8.445	-8.265	-8.374	-8.555	-8.468	-8.635	-8.930	-9.232
260.0	-887.5	-687.7	-528.4	-321.8	-67.81	-91.72	156.6	 2559	 8192	 1651	48.94	-111.1	-96.67	-79.86	-63.71	-53.47	-46.75	-38.65	-34.46	-30.21	-27.98	-25.14	-23.47	-21.94	-20.62	-19.18	-18.58	-17.71	-16.81	-16.94	-16.37	-15.16	-14.08	-13.38	-12.22	-11.15	-11.02	-10.92	-10.39	-10.07	-9.976	-9.725	-9.474	-9.497	-8.943	-8.394	-7.644	-7.813	-7.225	-5.909	-5.859	-7.005	-6.703	-7.372	-6.896	-7.156	-7.175	-5.517	-0.494	7.754	13.75	6.974	-4.096	-7.788	-7.877	-8.009	-8.055	-8.364	-8.407	-8.509	-8.436	-8.477	-8.444	-8.282	-8.592	-8.872	-9.208
265.0	-885.7	-689.9	-550.4	-388.5	-144.9	-29.64	-107.0	480.6	 4201	 9363	 1348	-43.34	-97.31	-79.91	-62.34	-55.85	-46.14	-38.74	-33.20	-30.57	-27.59	-24.96	-23.34	-21.91	-20.18	-18.98	-18.27	-17.18	-17.21	-16.54	-15.91	-15.72	-14.12	-13.42	-12.32	-11.53	-11.24	-10.97	-10.37	-10.03	-10.03	-9.915	-9.447	-8.861	-8.941	-8.753	-7.763	-7.721	-7.189	-5.969	-6.092	-7.281	-6.636	-6.977	-6.966	-7.462	-7.803	-7.505	-6.169	-2.943	4.982	15.52	15.61	2.153	-6.813	-8.238	-8.110	-8.299	-8.469	-8.488	-8.345	-8.410	-8.438	-8.195	-8.628	-8.650	-9.092
270.0	-902.2	-708.7	-531.7	-417.9	-280.2	-66.03	25.92	10.71	891.9	 4253	 8747	 5235	295.0	-73.26	-62.92	-53.49	-45.32	-38.64	-33.94	-29.96	-27.23	-24.85	-23.27	-21.75	-19.97	-18.69	-17.47	-16.89	-16.96	-16.42	-15.80	-15.07	-13.85	-13.05	-12.30	-11.23	-11.00	-10.81	-10.63	-10.29	-10.13	-10.01	-9.543	-9.164	-8.888	-8.611	-7.770	-7.595	-7.095	-6.041	-6.110	-7.351	-7.037	-7.287	-6.799	-6.921	-7.305	-7.516	-7.485	-6.627	-4.905	-0.841	5.584	11.84	15.72	11.55	-0.349	-7.136	-8.359	-8.402	-8.407	-8.356	-8.381	-8.464	-8.550	-8.881	-9.268
275.0	-900.1	-685.0	-523.4	-415.6	-312.0	-206.4	-8.572	151.1	120.8	854.3	 2775	9999.9	 7876	387.4	-58.40	-49.72	-44.17	-37.66	-32.42	-30.22	-27.50	-24.60	-22.66	-21.30	-19.66	-19.24	-17.78	-17.24	-16.79	-16.59	-15.62	-14.70	-13.73	-12.96	-12.24	-11.04	-10.97	-10.98	-10.69	-10.24	-9.887	-9.983	-9.733	-9.414	-8.801	-8.543	-7.676	-7.558	-7.052	-6.119	-6.226	-7.297	-7.242	-7.548	-7.199	-7.373	-7.047	-7.085	-7.220	-7.175	-7.229	-6.055	-4.908	-3.141	0.658	13.99	28.20	20.04	0.151	-7.682	-8.426	-8.358	-8.302	-8.482	-8.582	-8.904	-8.983
280.0	-830.8	-654.0	-504.7	-387.5	-320.9	-252.9	-138.8	184.5	154.5	112.7	572.6	 3990	9999.9	 6076	178.7	-46.88	-41.03	-36.08	-33.10	-30.12	-27.70	-23.49	-22.16	-21.21	-19.76	-18.80	-18.16	-17.55	-16.77	-16.86	-15.48	-14.95	-13.29	-12.66	-12.09	-10.80	-10.68	-10.79	-10.09	-10.17	-9.762	-9.846	-9.704	-9.330	-8.737	-8.301	-7.549	-7.716	-6.991	-6.001	-6.050	-7.183	-7.260	-7.458	-6.989	-7.579	-7.602	-7.225	-7.022	-6.775	-7.586	-7.467	-7.199	-7.024	-6.101	-2.071	7.957	27.29	33.39	15.92	-4.042	-8.326	-8.230	-8.347	-8.626	-8.893	-9.071
285.0	-836.4	-610.7	-479.3	-387.0	-305.4	-260.7	-191.1	-5.621	298.6	90.06	84.22	918.0	 5536	9999.9	 4221	32.20	-36.98	-35.34	-31.65	-29.22	-26.50	-23.64	-21.98	-20.70	-19.89	-19.12	-17.69	-17.28	-16.54	-17.16	-15.07	-14.99	-14.02	-12.62	-12.36	-10.65	-10.72	-10.91	-9.962	-10.11	-9.481	-9.700	-9.547	-9.306	-8.610	-8.561	-7.536	-7.619	-6.893	-5.943	-6.016	-7.157	-7.259	-7.394	-7.158	-7.639	-7.673	-7.635	-7.251	-6.607	-7.122	-7.603	-7.554	-7.601	-7.417	-6.701	-4.170	3.157	19.14	35.40	30.32	5.284	-6.978	-8.403	-8.656	-8.934	-9.130
290.0	-765.8	-541.5	-423.6	-331.6	-284.0	-235.4	-198.8	-111.7	83.98	342.5	198.7	267.3	 1362	 5209	9999.9	 6740	186.7	-30.17	-29.83	-28.46	-25.51	-23.02	-21.89	-20.64	-19.67	-18.74	-17.69	-17.00	-16.13	-16.58	-15.49	-14.87	-13.73	-12.66	-11.94	-10.56	-10.84	-10.72	-10.16	-10.02	-9.867	-9.794	-9.540	-9.274	-8.798	-8.380	-7.411	-7.529	-6.791	-5.925	-5.966	-7.249	-7.169	-7.395	-7.212	-7.649	-7.729	-7.802	-7.476	-7.359	-7.031	-6.966	-6.792	-7.249	-7.587	-7.420	-7.012	-5.299	-1.556	5.342	16.61	25.06	28.29	16.38	1.090	-7.636	-8.967
295.0	-721.8	-492.5	-312.4	-273.8	-273.3	-231.5	-178.2	-112.6	-22.24	177.0	547.9	340.8	461.6	 1287	 3069	9999.9	9999.9	254.4	-25.69	-24.79	-24.38	-22.54	-21.50	-20.11	-18.67	-18.56	-17.33	-16.24	-16.55	-16.27	-15.61	-14.03	-13.53	-12.67	-11.66	-10.47	-10.68	-10.41	-10.36	-9.721	-9.695	-9.656	-9.348	-9.107	-8.923	-8.269	-7.522	-7.339	-6.770	-5.781	-5.955	-7.153	-6.937	-7.367	-7.302	-7.657	-7.728	-7.531	-7.667	-7.366	-7.358	-7.292	-7.068	-6.556	-6.642	-7.041	-7.248	-7.107	-6.303	-4.984	-2.191	-0.288	6.477	24.49	42.91	27.81	1.838
300.0	-640.3	-419.3	-265.0	-237.6	-228.4	-198.2	-151.3	-97.87	-24.41	110.8	456.4	683.8	375.9	465.5	783.2	 3938	9999.9	 3366	156.0	-22.98	-23.20	-22.15	-21.30	-19.95	-18.12	-18.12	-17.46	-16.43	-16.41	-16.51	-15.44	-14.42	-13.17	-12.75	-11.19	-10.40	-10.49	-10.37	-9.843	-9.919	-9.788	-9.480	-9.674	-9.000	-8.578	-7.903	-7.359	-7.146	-6.442	-5.861	-5.692	-7.224	-6.894	-7.021	-7.160	-7.406	-7.726	-7.484	-7.668	-7.496	-7.514	-7.439	-7.145	-7.105	-6.166	-6.119	-6.497	-7.373	-7.250	-7.183	-6.367	-5.894	-4.745	0.896	16.80	41.83	46.34
305.0	-624.4	-361.2	-207.7	-181.8	-198.8	-181.3	-138.1	-68.12	8.953	123.6	321.3	746.7	656.1	352.7	315.1	981.5	 5323	9999.9	 2704	61.85	-19.22	-21.40	-20.23	-19.02	-17.89	-18.24	-17.21	-16.39	-16.22	-16.14	-15.10	-14.25	-13.21	-12.40	-11.07	-10.55	-10.47	-10.32	-10.09	-9.975	-9.568	-9.568	-9.345	-9.054	-8.707	-8.021	-7.315	-7.147	-6.511	-5.831	-5.682	-7.162	-6.587	-7.398	-7.106	-7.249	-7.720	-7.577	-7.696	-7.510	-7.419	-7.568	-7.348	-7.297	-6.958	-6.563	-5.892	-6.224	-6.910	-7.506	-7.395	-7.607	-7.306	-6.178	-2.296	7.516	30.30
310.0	-525.2	-302.6	-147.7	-157.6	-177.4	-155.8	-105.8	-34.94	39.07	160.4	299.2	549.0	793.7	621.9	293.6	328.4	 1285	 5086	9999.9	 6748	134.5	-15.43	-18.10	-17.70	-17.52	-17.31	-16.62	-16.10	-16.07	-15.98	-15.12	-14.29	-13.06	-12.23	-11.40	-10.59	-10.24	-10.24	-9.823	-9.708	-9.380	-9.355	-9.342	-8.847	-8.411	-8.103	-7.158	-6.753	-6.469	-5.652	-5.733	-6.999	-6.773	-7.364	-7.168	-7.255	-7.528	-7.485	-7.584	-7.498	-7.347	-7.378	-7.365	-7.478	-7.016	-6.978	-6.457	-6.160	-6.212	-6.284	-7.289	-7.638	-7.649	-7.478	-6.949	-4.925	0.376
315.0	-483.2	-224.4	-76.29	-132.8	-157.0	-143.8	-93.58	-6.426	92.12	176.2	313.1	474.7	610.7	816.4	530.3	225.2	344.3	 1156	 3034	9999.9	 9136	198.5	-14.19	-16.86	-16.73	-16.20	-16.54	-15.86	-15.48	-15.99	-15.12	-13.90	-13.11	-12.34	-11.70	-10.26	-10.41	-9.884	-9.807	-9.694	-9.488	-9.571	-9.057	-8.727	-8.295	-7.964	-6.637	-7.098	-6.255	-5.595	-5.755	-7.133	-6.613	-7.287	-7.201	-7.423	-7.487	-7.420	-7.636	-7.641	-7.051	-7.067	-7.283	-7.264	-6.678	-6.962	-6.606	-6.607	-6.532	-6.237	-6.261	-7.008	-7.266	-7.745	-8.020	-7.769	-6.538
320.0	-462.1	-153.9	-3.294	-104.5	-135.7	-121.6	-72.22	-0.358	108.6	199.7	331.1	474.7	571.1	681.7	740.2	331.4	155.8	289.2	704.4	 4030	9999.9	 6706	123.6	-14.53	-15.51	-15.79	-15.07	-15.57	-15.71	-15.30	-14.66	-13.81	-12.63	-12.23	-11.57	-10.61	-10.60	-10.06	-10.07	-9.736	-9.235	-9.332	-8.977	-8.625	-8.489	-7.836	-6.865	-7.187	-6.477	-5.770	-5.684	-7.033	-6.706	-7.206	-7.034	-7.155	-7.492	-7.206	-7.144	-7.257	-7.146	-7.053	-7.161	-7.288	-6.891	-6.986	-6.951	-6.809	-6.795	-6.919	-6.344	-6.148	-6.569	-7.436	-8.049	-8.133	-7.933
325.0	-457.3	-154.9	22.73	-40.94	-126.5	-119.1	-48.77	28.53	121.7	233.8	377.7	532.0	578.7	607.6	674.6	544.7	172.5	114.0	181.8	948.9	 5288	9999.9	 1931	60.62	-12.98	-14.47	-14.56	-14.73	-15.36	-15.32	-14.95	-13.79	-12.54	-12.16	-11.96	-9.931	-10.53	-10.12	-9.969	-9.554	-9.261	-9.267	-9.239	-8.624	-8.393	-7.842	-6.694	-7.052	-6.162	-5.773	-5.488	-6.830	-6.877	-7.275	-6.761	-7.184	-7.668	-7.391	-7.334	-7.347	-6.969	-7.124	-7.101	-6.803	-7.097	-6.724	-7.112	-7.047	-6.733	-7.002	-6.929	-6.749	-6.322	-6.731	-7.310	-8.277	-8.200
330.0	-450.1	-109.8	57.83	-3.545	-102.6	-75.68	-30.40	48.80	154.9	262.5	389.5	534.6	599.9	576.4	529.1	529.0	375.9	136.9	79.09	236.1	 1254	 4880	 9717	 5890	105.0	-9.317	-12.89	-14.23	-14.52	-14.76	-14.57	-13.76	-12.58	-12.24	-11.43	-10.22	-10.26	-9.990	-9.745	-9.692	-9.226	-9.213	-8.971	-8.764	-8.305	-7.811	-6.808	-6.872	-6.177	-5.540	-5.657	-6.988	-6.845	-7.131	-7.005	-7.134	-7.431	-7.345	-7.157	-7.187	-6.998	-7.193	-7.034	-6.940	-6.841	-6.845	-6.801	-6.708	-6.888	-6.920	-6.988	-6.677	-6.897	-6.978	-6.930	-7.450	-7.981
335.0	-400.3	-64.35	84.37	33.91	-11.64	-46.50	3.754	85.58	156.4	298.1	402.3	555.5	609.2	589.3	514.5	403.0	395.5	337.0	104.2	91.79	304.0	 1106	 3018	9999.9	 8614	155.7	-8.905	-12.70	-13.57	-14.21	-13.68	-13.07	-12.66	-12.02	-11.45	-10.26	-10.01	-9.791	-9.654	-9.401	-9.341	-9.171	-8.908	-8.669	-8.321	-7.629	-6.671	-6.597	-6.156	-5.260	-5.400	-6.971	-6.642	-7.145	-6.689	-6.959	-7.193	-7.091	-7.297	-7.098	-6.897	-6.920	-7.037	-6.925	-6.904	-6.660	-6.864	-6.460	-7.255	-6.775	-7.029	-7.074	-7.032	-7.534	-7.564	-7.609	-7.273
340.0	-394.8	-96.01	86.53	91.78	-11.19	5.309	38.13	96.26	175.4	291.8	416.9	536.7	607.0	595.8	491.3	368.8	302.8	406.1	224.7	78.82	107.1	272.3	699.2	 4041	9999.9	 6307	109.0	-10.58	-11.32	-13.28	-13.33	-13.22	-11.97	-12.05	-11.07	-9.833	-9.832	-9.838	-9.397	-9.564	-9.011	-9.099	-9.092	-8.481	-7.983	-7.845	-6.874	-6.341	-6.176	-5.317	-5.359	-6.705	-6.575	-7.019	-6.741	-7.033	-7.181	-7.154	-7.245	-7.219	-7.107	-6.955	-6.761	-7.077	-6.810	-6.248	-6.807	-6.743	-7.168	-6.511	-6.841	-7.181	-7.184	-7.659	-7.529	-7.794	-7.501
345.0	-422.1	-84.98	90.77	81.12	30.57	11.09	65.17	107.9	191.7	294.2	381.5	508.2	582.1	589.4	488.9	365.1	266.9	309.3	356.2	143.6	75.38	96.83	181.3	955.8	 5448	9999.9	 1528	56.56	-10.04	-12.03	-12.24	-13.26	-11.66	-11.68	-10.71	-10.35	-9.957	-9.608	-9.787	-9.745	-9.126	-9.088	-8.538	-8.464	-7.986	-7.474	-6.833	-6.312	-6.231	-5.126	-5.349	-6.461	-6.666	-7.032	-6.785	-7.025	-7.114	-7.172	-7.090	-7.162	-7.018	-7.069	-7.025	-7.335	-6.858	-6.622	-6.796	-6.763	-6.790	-6.920	-6.970	-7.071	-6.969	-7.292	-7.849	-7.812	-8.154
350.0	-472.2	-107.5	58.43	87.88	47.09	50.51	85.88	133.6	202.1	286.7	363.2	495.0	546.0	549.6	485.6	369.0	262.4	235.6	300.3	296.2	148.8	84.04	81.69	241.9	 1309	 5067	 9293	 5368	89.33	-8.179	-11.40	-11.39	-11.95	-11.57	-10.58	-10.24	-9.717	-9.891	-9.414	-9.373	-9.030	-9.003	-8.742	-8.662	-7.838	-7.660	-6.827	-6.579	-5.965	-5.299	-5.353	-6.754	-6.707	-6.890	-6.828	-7.155	-7.055	-7.256	-6.995	-7.040	-6.800	-6.948	-6.926	-6.978	-6.895	-6.633	-6.856	-6.878	-7.003	-6.708	-6.925	-7.007	-7.002	-7.389	-7.693	-7.977	-8.073
355.0	-526.3	-133.0	50.89	84.96	93.51	94.96	122.8	164.8	203.7	275.4	379.5	430.2	504.2	520.9	489.1	365.7	282.9	242.8	232.1	285.3	297.5	142.0	87.00	102.5	326.7	 1155	 3106	9999.9	 7395	130.4	-9.095	-10.36	-10.50	-11.35	-10.46	-10.06	-9.576	-9.530	-9.466	-9.382	-9.256	-9.115	-8.631	-8.366	-8.128	-7.662	-6.694	-6.567	-6.258	-5.117	-5.427	-6.536	-6.562	-6.826	-6.726	-6.764	-7.269	-6.913	-7.194	-7.103	-6.913	-6.974	-6.796	-6.954	-7.006	-6.855	-7.057	-6.939	-7.098	-6.756	-6.968	-6.929	-7.398	-7.223	-7.774	-7.844	-7.861
360.0	-469.8	-116.6	74.50	55.59	87.79	134.2	141.0	167.7	230.3	277.6	361.6	424.7	502.6	481.7	460.3	377.2	305.9	256.3	233.0	236.0	329.1	251.4	121.4	92.17	123.2	291.1	727.3	 4273	9999.9	 5395	82.37	-8.391	-10.25	-10.24	-9.895	-9.512	-9.553	-9.227	-9.238	-9.196	-9.166	-9.146	-8.883	-8.410	-8.343	-7.775	-6.734	-6.617	-6.244	-5.131	-5.303	-6.511	-6.232	-6.742	-6.744	-6.679	-7.115	-6.737	-7.109	-7.023	-6.672	-6.968	-7.041	-6.870	-6.978	-6.994	-7.092	-7.129	-6.540	-6.900	-6.975	-6.928	-7.127	-7.384	-7.479	-7.596	-8.128
365.0	-445.9	-193.1	43.19	69.28	114.9	165.5	168.0	206.6	231.2	272.4	351.7	419.3	471.7	469.5	462.3	378.3	321.2	278.8	250.3	234.6	272.0	336.5	190.7	112.0	91.99	111.7	194.9	 1026	 5633	9999.9	 1329	37.16	-8.554	-9.186	-9.189	-9.339	-9.326	-9.172	-8.712	-8.821	-8.901	-8.936	-8.934	-8.555	-8.186	-7.827	-7.095	-6.637	-6.017	-5.389	-5.406	-6.268	-6.108	-6.429	-6.391	-6.821	-7.267	-6.822	-6.983	-7.124	-6.988	-6.932	-7.134	-6.820	-6.969	-6.796	-6.807	-6.707	-6.939	-7.147	-7.215	-7.026	-6.859	-7.192	-7.246	-7.717	-7.783
370.0	-513.5	-223.3	-7.225	92.43	147.1	158.8	179.3	214.7	238.6	279.9	331.8	399.7	448.1	463.6	443.7	379.1	340.6	302.0	280.6	258.8	251.8	292.3	291.8	187.7	115.9	95.22	92.19	260.9	 1370	 5347	 9045	 4732	67.59	-6.493	-8.282	-8.776	-8.983	-8.929	-8.751	-8.650	-8.975	-8.819	-8.850	-8.593	-8.210	-7.769	-6.991	-6.905	-6.113	-5.274	-5.352	-6.451	-6.277	-6.390	-6.269	-6.802	-7.145	-6.861	-7.093	-7.019	-7.137	-6.983	-7.072	-6.987	-6.808	-6.995	-6.869	-6.864	-6.996	-7.262	-7.195	-6.914	-7.071	-7.183	-7.543	-7.465	-7.651
375.0	-451.9	-240.6	-3.983	66.08	160.1	176.6	190.9	234.9	253.4	280.7	331.3	384.5	413.2	434.7	433.0	384.6	350.8	321.6	310.4	290.2	274.0	268.9	278.5	307.3	182.9	111.7	90.40	103.4	334.3	 1212	 3280	9999.9	 6324	94.46	-6.175	-6.862	-8.451	-8.765	-8.505	-8.960	-8.500	-9.061	-8.463	-8.235	-7.762	-7.496	-6.779	-6.542	-6.003	-5.323	-5.546	-6.475	-6.239	-6.695	-6.419	-6.565	-7.284	-6.905	-6.991	-6.979	-7.104	-6.917	-7.115	-7.167	-6.892	-6.763	-6.656	-6.749	-7.355	-7.104	-7.094	-7.262	-7.237	-7.016	-7.259	-7.421	-7.680
380.0	-493.5	-281.5	9.355	91.34	171.2	184.1	213.8	252.6	262.6	289.8	355.0	358.1	412.1	430.1	434.3	392.6	355.3	324.5	324.6	301.7	287.8	274.6	259.3	319.2	272.5	149.6	100.3	83.45	112.0	295.7	766.5	 4632	9999.9	 4219	55.57	-5.483	-7.187	-8.068	-8.463	-8.740	-8.537	-9.060	-9.000	-8.134	-7.662	-7.722	-6.383	-6.737	-6.207	-5.211	-5.262	-6.668	-5.983	-6.605	-6.206	-6.604	-7.082	-6.990	-6.859	-6.941	-7.072	-6.908	-7.181	-7.155	-6.946	-6.662	-6.720	-7.032	-6.976	-7.281	-7.096	-7.297	-6.978	-7.176	-7.263	-7.478	-7.815
385.0	-456.4	-241.2	-25.00	55.74	131.2	188.4	204.8	230.7	276.1	303.6	319.0	358.7	420.9	417.1	414.2	382.6	369.5	334.3	341.1	319.9	305.4	283.2	261.7	275.1	319.2	211.3	124.4	92.49	77.80	101.3	192.3	 1131	 6107	 9866	993.1	17.54	-6.309	-7.589	-7.988	-8.383	-8.551	-8.540	-8.846	-8.424	-8.278	-7.660	-6.541	-6.729	-6.178	-4.849	-5.341	-6.434	-6.050	-6.479	-6.021	-6.651	-7.046	-7.075	-6.916	-6.477	-6.818	-7.033	-7.099	-6.980	-7.169	-7.003	-6.817	-7.014	-7.320	-7.166	-7.141	-7.222	-7.127	-7.161	-7.096	-7.400	-7.807
390.0	-527.5	-194.2	-25.80	98.00	132.9	203.4	230.0	249.2	289.3	308.1	306.4	365.2	380.1	407.9	407.4	378.2	362.7	351.9	347.7	333.9	316.3	301.8	282.2	261.6	282.9	287.4	197.6	120.1	83.88	71.88	76.00	272.3	 1515	 5288	 7522	 3402	48.50	-5.635	-6.960	-7.582	-7.962	-8.530	-8.736	-8.144	-7.659	-7.701	-6.520	-6.776	-6.100	-5.092	-5.317	-6.150	-5.952	-6.260	-6.305	-6.668	-6.931	-6.759	-6.710	-6.677	-6.705	-7.045	-6.972	-6.811	-6.821	-6.761	-7.028	-7.112	-7.025	-7.323	-7.077	-7.227	-7.029	-7.289	-7.432	-7.398	-7.688
395.0	-503.4	-214.8	-30.64	115.9	155.2	216.2	241.5	271.7	295.3	298.5	313.9	357.7	358.3	378.9	405.2	373.3	352.2	351.4	340.6	339.1	329.4	315.6	297.0	275.1	261.1	262.8	276.7	180.5	104.7	84.22	61.77	91.40	356.5	 1195	 3140	 8720	 4494	65.44	-5.450	-7.240	-7.498	-8.320	-8.539	-7.857	-7.785	-7.589	-6.667	-6.785	-6.109	-5.327	-5.000	-6.093	-5.749	-6.287	-6.236	-6.684	-6.788	-6.890	-6.821	-6.617	-6.770	-6.955	-6.856	-7.013	-7.090	-6.849	-7.206	-7.325	-7.203	-7.192	-7.384	-7.236	-7.240	-7.146	-7.282	-7.527	-7.736
400.0	-539.5	-230.0	-34.20	105.7	128.0	216.3	256.4	259.7	312.0	315.6	316.6	341.7	361.4	360.5	387.3	361.3	345.2	342.1	353.6	346.7	326.7	323.9	307.9	284.9	255.4	242.2	275.4	243.9	142.4	98.40	74.35	57.38	103.4	284.1	743.0	 4453	 8963	937.7	36.36	-6.015	-6.827	-7.787	-8.110	-7.713	-7.594	-7.592	-6.746	-6.660	-6.006	-5.101	-5.267	-6.141	-5.979	-6.365	-6.342	-6.903	-7.004	-6.760	-6.679	-6.831	-6.725	-7.282	-7.114	-6.816	-7.149	-7.024	-7.455	-7.076	-7.464	-7.042	-6.870	-7.114	-7.002	-7.335	-7.308	-7.485	-7.391
405.0	-512.3	-260.5	-45.78	87.49	130.3	226.4	255.9	284.1	298.4	312.1	328.4	362.5	353.5	358.8	368.6	368.9	333.8	338.4	337.4	342.7	331.8	326.8	312.0	288.5	262.2	242.0	242.2	269.3	193.7	116.9	86.58	61.38	55.00	83.74	177.8	 1118	 5506	 7330	797.5	12.45	-5.816	-7.197	-7.520	-8.054	-7.279	-7.553	-6.260	-6.679	-5.798	-5.117	-5.147	-6.281	-6.091	-6.252	-6.059	-6.721	-6.829	-6.755	-6.829	-6.753	-7.021	-7.094	-7.032	-6.696	-7.144	-7.060	-7.371	-6.982	-7.268	-7.253	-7.117	-7.109	-6.757	-7.263	-7.674	-7.363	-7.864
410.0	-539.9	-259.8	-99.50	82.72	141.0	206.1	234.9	274.5	307.8	294.0	304.1	331.6	340.5	350.1	360.3	334.9	320.1	334.7	330.8	333.2	325.4	323.8	308.1	290.7	273.2	248.7	227.2	235.1	239.3	168.1	106.6	75.52	56.12	48.04	57.68	261.1	 1389	 4414	 6149	 2836	40.81	-6.274	-6.895	-7.294	-7.103	-7.607	-6.379	-6.689	-6.084	-5.183	-5.173	-6.316	-6.132	-6.382	-6.225	-6.492	-6.605	-6.824	-6.899	-6.737	-6.954	-6.983	-6.931	-6.781	-7.215	-7.326	-7.163	-7.215	-7.275	-7.364	-7.382	-7.381	-7.161	-7.120	-7.654	-7.591	-7.889
415.0	-548.3	-305.3	-82.37	62.43	146.7	191.3	231.4	265.4	285.7	311.5	303.3	316.4	337.2	342.6	339.6	326.3	306.5	314.5	320.9	317.0	320.8	317.9	300.1	293.6	273.2	260.9	236.1	215.7	222.2	225.6	155.2	96.39	68.45	49.06	40.42	74.44	320.2	997.1	 2648	 6779	 3534	60.73	-5.559	-6.778	-6.852	-7.078	-6.329	-6.464	-6.029	-4.996	-5.027	-6.099	-6.284	-6.244	-6.300	-6.547	-7.030	-6.875	-6.777	-6.900	-6.989	-6.898	-7.059	-7.268	-7.080	-7.401	-7.182	-6.796	-7.589	-7.289	-7.440	-7.466	-7.234	-7.357	-7.655	-7.783	-7.781
420.0	-527.1	-302.2	-72.20	40.75	147.9	202.4	231.5	242.6	291.5	286.9	298.8	337.1	334.9	335.6	330.1	311.1	312.8	293.7	299.3	307.4	317.5	305.6	300.3	289.1	272.5	258.6	234.3	212.0	203.8	230.1	202.1	118.2	79.55	56.51	40.68	38.72	84.93	229.6	629.3	 3451	 7067	841.3	27.64	-5.853	-6.311	-6.889	-6.415	-6.225	-5.906	-4.896	-5.223	-6.214	-6.068	-6.671	-6.346	-6.551	-6.739	-6.674	-6.828	-6.487	-7.121	-6.917	-6.823	-6.914	-6.806	-7.254	-7.116	-7.248	-7.167	-7.287	-7.461	-7.405	-7.512	-7.447	-7.459	-7.329	-8.209
425.0	-568.7	-271.9	-79.58	8.148	121.1	175.7	224.3	257.9	292.9	293.9	295.0	314.2	329.7	317.2	319.6	315.2	292.9	289.0	303.5	294.5	301.5	300.0	293.0	279.0	266.0	256.0	238.3	218.6	205.9	198.2	219.6	156.7	91.82	65.93	47.00	36.69	35.92	61.99	146.5	863.6	 4375	 6013	693.3	3.732	-5.902	-6.387	-5.933	-6.281	-5.864	-4.908	-4.991	-6.271	-5.987	-6.623	-6.356	-6.679	-6.571	-6.781	-6.657	-6.685	-6.878	-7.137	-7.148	-7.055	-6.858	-7.108	-7.005	-7.095	-7.225	-7.557	-7.440	-7.180	-7.074	-7.529	-7.543	-7.649	-8.277
430.0	-375.4	-329.4	-112.3	19.50	114.7	159.1	217.3	274.6	295.9	293.3	298.0	319.4	327.4	316.9	313.3	286.9	279.6	276.7	278.6	278.9	280.1	284.3	282.3	272.2	264.4	255.2	242.9	228.9	208.5	192.6	197.7	191.7	135.3	84.77	60.08	43.58	31.76	29.85	42.80	199.4	 1101	 3434	 4944	 1943	33.83	-5.389	-5.319	-5.859	-5.525	-4.985	-5.070	-6.115	-6.311	-6.551	-6.152	-6.661	-6.655	-6.749	-6.727	-6.749	-7.040	-7.149	-7.186	-7.018	-7.187	-7.179	-6.979	-7.254	-7.397	-7.323	-7.488	-7.408	-7.388	-7.281	-7.467	-7.799	-8.077
435.0	273.2	-305.5	-155.2	-34.35	113.6	140.1	209.5	260.2	295.0	321.7	298.8	314.2	318.6	304.2	310.4	279.3	260.7	261.1	264.4	263.1	264.0	266.5	269.9	260.5	264.9	254.2	245.3	232.0	221.1	196.2	186.7	178.4	172.7	116.2	74.21	53.00	36.63	28.48	25.22	54.22	251.3	773.1	 2198	 5723	 2845	46.98	-4.529	-5.483	-5.103	-4.592	-5.139	-6.246	-6.206	-6.518	-6.208	-6.512	-6.889	-6.778	-6.739	-6.458	-7.038	-7.042	-7.077	-7.023	-7.217	-6.892	-7.008	-7.439	-7.173	-7.103	-7.498	-7.351	-7.494	-7.500	-7.396	-7.989	-8.153
440.0	642.2	-24.70	-154.9	-34.52	97.71	134.3	210.8	257.1	281.8	327.3	326.0	309.9	328.4	300.5	294.8	275.0	255.6	256.0	254.2	253.5	257.3	255.4	262.1	254.9	257.6	251.7	241.4	231.2	228.3	201.8	187.3	164.2	173.0	147.9	89.66	60.17	43.72	32.89	24.49	23.95	63.28	176.9	522.9	 3152	 6107	733.1	19.31	-4.803	-4.696	-4.240	-4.453	-5.999	-6.081	-6.365	-6.005	-6.176	-6.873	-6.431	-6.542	-6.836	-7.049	-6.825	-6.949	-7.144	-7.028	-6.866	-7.107	-7.442	-7.386	-7.093	-7.431	-7.357	-7.342	-7.551	-7.593	-8.100	-7.883
445.0	523.2	594.1	-129.7	-50.45	89.46	143.5	219.9	259.4	281.4	307.3	324.7	295.3	304.9	282.1	282.2	264.2	244.6	246.9	231.4	237.6	242.1	246.4	250.0	252.2	247.6	249.3	237.8	232.4	224.6	206.9	191.4	161.0	157.0	155.1	111.4	68.81	50.11	36.75	26.94	20.99	23.19	45.04	120.5	808.1	 4040	 5312	541.2	2.114	-4.313	-4.001	-4.249	-5.991	-5.741	-6.617	-6.080	-6.356	-6.664	-6.435	-6.489	-6.834	-6.921	-6.827	-6.644	-7.288	-6.784	-7.027	-7.281	-7.233	-7.440	-7.276	-7.201	-7.359	-7.275	-7.512	-7.536	-8.099	-8.040
450.0	-184.1	 1241	341.9	-47.21	48.57	110.9	198.0	241.0	277.4	284.6	311.9	309.2	306.0	270.0	254.7	245.7	228.5	221.0	215.3	221.5	222.8	224.3	234.5	234.1	234.1	233.0	229.0	226.5	215.7	203.8	185.8	166.5	148.0	137.7	130.4	90.27	58.80	41.75	30.25	22.36	18.24	17.44	30.97	183.0	 1032	 3336	 4643	 1674	25.89	-3.248	-3.990	-5.423	-5.696	-6.348	-6.165	-6.681	-6.821	-6.684	-6.628	-6.613	-6.825	-6.995	-7.036	-6.841	-6.981	-7.114	-7.149	-7.136	-7.431	-7.495	-7.330	-7.443	-7.250	-7.407	-7.640	-7.878	-7.862
455.0	-552.9	686.9	 1555	45.01	43.89	110.1	189.1	228.1	274.2	259.8	283.1	272.6	282.5	250.1	235.0	217.3	200.2	203.2	198.3	200.4	201.5	205.0	208.4	220.9	218.1	219.2	218.8	211.0	206.1	195.4	187.3	167.3	145.7	122.7	118.8	114.7	75.15	48.22	33.57	26.16	19.02	13.33	13.41	44.54	231.1	754.3	 2181	 5213	 2236	31.03	-3.285	-5.316	-5.443	-5.983	-6.084	-6.609	-6.905	-6.434	-6.738	-6.731	-7.005	-6.897	-7.097	-6.909	-7.011	-7.337	-7.404	-7.309	-7.297	-7.639	-7.216	-7.552	-7.342	-7.722	-7.718	-7.967	-7.856
460.0	-672.5	-48.14	 1928	505.9	2.856	88.59	138.6	197.5	238.0	250.2	270.5	271.6	255.8	236.8	222.4	207.8	185.3	184.5	181.7	193.2	186.0	194.8	195.1	198.1	206.0	201.5	204.0	202.1	199.1	192.0	176.8	159.7	138.1	118.1	105.8	110.0	92.76	55.38	36.92	29.20	19.52	14.04	10.56	14.20	53.50	169.5	522.6	 3005	 5122	512.2	15.08	-4.455	-5.107	-5.949	-5.832	-6.302	-6.367	-6.560	-7.038	-6.828	-6.820	-7.107	-6.819	-7.084	-7.119	-7.236	-7.240	-7.285	-7.240	-7.493	-7.373	-7.622	-7.400	-7.627	-8.109	-8.021	-8.035
465.0	-697.5	-373.0	 1375	 1291	14.92	66.25	117.5	176.7	226.7	238.0	256.1	247.9	257.4	220.2	197.8	191.1	178.3	167.0	168.8	174.8	173.5	173.5	178.6	185.4	191.5	188.0	191.8	187.1	186.7	183.5	170.0	154.0	138.4	115.1	101.7	91.61	98.37	65.30	39.61	30.08	21.77	15.89	11.03	9.469	15.68	39.66	119.0	780.8	 3590	 4008	434.2	-0.367	-4.492	-5.910	-5.804	-6.073	-6.591	-6.567	-7.086	-6.577	-6.817	-7.014	-6.847	-7.384	-7.032	-7.351	-7.127	-7.573	-7.257	-7.393	-7.431	-7.621	-7.405	-7.880	-7.903	-7.992	-8.263
470.0	-647.8	-445.2	284.1	 1866	587.7	20.48	101.8	140.6	194.5	205.0	242.0	216.6	234.7	195.0	180.7	162.9	155.9	151.7	148.7	152.7	155.3	155.6	162.6	161.8	167.9	167.7	173.1	169.9	171.6	164.8	156.6	141.8	129.3	110.6	94.54	80.79	80.20	73.89	51.21	33.15	23.61	17.18	12.60	8.806	8.068	11.52	28.48	175.5	920.8	 2694	 3315	 1213	21.45	-5.178	-5.446	-6.074	-6.638	-6.570	-6.604	-6.608	-6.872	-6.970	-6.872	-7.319	-7.178	-7.214	-7.297	-7.564	-7.335	-7.512	-7.628	-7.610	-7.536	-7.745	-7.836	-8.144	-8.484
475.0	-687.7	-464.3	-160.7	 1032	 1799	92.78	56.88	111.7	155.3	172.1	198.4	195.1	199.2	162.9	167.9	147.8	141.0	132.8	124.0	135.5	132.7	136.5	144.5	145.5	145.3	147.0	151.0	154.2	154.7	149.0	143.1	131.9	117.7	103.0	85.34	75.21	64.59	64.61	60.29	39.95	25.03	17.18	14.16	9.829	7.560	5.534	8.613	40.31	205.2	607.1	 1522	 3498	595.0	28.93	-5.143	-6.062	-6.925	-6.670	-6.863	-6.529	-7.070	-7.054	-7.010	-7.165	-7.207	-7.385	-7.294	-7.393	-7.304	-7.719	-7.594	-7.836	-7.584	-7.892	-8.097	-8.370	-8.475
480.0	-658.1	-441.8	-268.5	224.7	 2089	605.8	38.21	92.74	133.7	160.9	162.9	166.1	194.9	159.1	153.0	130.4	126.4	116.4	117.3	123.7	123.1	119.8	129.8	135.0	134.0	134.1	140.2	144.9	140.4	136.4	134.9	120.8	113.1	98.94	81.41	68.92	62.01	54.14	57.86	48.32	30.76	19.62	14.13	10.84	9.186	4.943	4.639	10.27	46.43	135.8	363.6	 1963	 3322	548.1	8.573	-5.878	-6.457	-6.640	-6.480	-6.838	-7.367	-7.035	-7.013	-7.288	-7.384	-7.168	-7.574	-7.553	-7.826	-7.822	-7.468	-7.782	-7.670	-7.893	-7.989	-8.329	-8.306
485.0	-674.9	-509.9	-342.3	-106.8	 1402	 1504	70.41	82.54	128.2	131.9	163.0	151.6	167.7	142.3	127.3	124.8	112.9	105.2	105.7	108.3	110.6	107.2	115.3	119.2	122.0	126.7	133.3	135.3	131.2	132.0	128.1	117.7	105.9	95.35	77.60	67.88	58.48	48.98	49.58	52.58	38.87	21.91	14.56	12.02	9.007	6.339	5.545	3.890	11.43	31.11	81.66	510.6	 2438	 3021	390.8	-2.005	-6.071	-6.289	-6.672	-6.909	-7.048	-7.031	-7.165	-7.196	-7.438	-7.265	-7.382	-7.366	-7.752	-7.615	-7.516	-7.689	-7.910	-7.815	-7.981	-8.322	-8.254
490.0	-778.7	-504.3	-341.5	-198.8	366.4	 2027	724.1	59.41	105.9	114.1	143.4	143.2	138.5	121.3	119.3	103.3	95.39	95.45	91.34	95.16	98.66	99.20	104.3	106.1	106.5	112.1	116.1	119.8	116.7	118.1	114.4	107.9	98.01	87.92	74.76	64.94	55.22	47.55	42.48	43.13	43.33	30.50	16.90	13.47	9.853	6.614	6.551	3.560	4.878	8.581	18.50	112.7	625.5	 1904	 2646	 1051	21.84	-5.705	-6.357	-6.675	-6.718	-7.025	-7.189	-7.298	-7.283	-7.370	-7.613	-7.475	-7.638	-7.729	-7.720	-7.795	-7.873	-7.917	-8.093	-8.474	-8.313
495.0	-803.2	-506.6	-350.9	-211.2	-45.33	 1027	 2032	147.9	93.99	99.78	123.9	123.1	120.8	113.4	101.0	93.78	86.23	82.25	77.83	79.54	84.75	87.89	86.81	93.22	97.38	99.79	100.3	102.7	106.2	105.3	101.3	99.45	89.58	78.19	67.75	58.90	52.93	43.82	40.42	35.08	36.34	37.38	24.37	14.07	11.07	8.467	7.167	3.962	3.507	3.848	4.532	23.87	137.6	427.5	 1255	 3174	648.5	29.32	-5.919	-6.527	-6.447	-7.320	-7.134	-7.027	-7.197	-7.283	-7.307	-7.721	-7.343	-7.544	-7.905	-7.864	-7.865	-7.767	-8.161	-8.449	-8.531
500.0	-822.3	-559.2	-356.9	-230.1	-113.0	245.6	 2358	829.7	73.36	77.62	102.1	105.4	109.8	103.4	93.65	84.39	71.84	71.22	74.50	72.76	75.62	73.48	76.35	82.29	89.32	86.85	92.41	92.42	93.47	95.29	93.82	87.47	81.64	70.95	63.58	57.82	47.11	42.71	37.01	30.62	30.31	33.93	28.80	16.13	11.41	8.537	7.356	4.082	3.219	3.132	1.190	3.701	28.93	92.62	296.1	 1755	 3201	560.4	8.204	-6.066	-6.433	-7.174	-6.870	-7.282	-7.268	-7.487	-7.543	-7.524	-7.775	-7.813	-8.092	-7.964	-7.981	-8.006	-8.128	-8.546	-8.776
505.0	-846.7	-593.9	-373.7	-213.6	-170.1	-33.30	 1532	 1926	93.56	70.53	87.72	91.59	103.1	86.07	79.18	75.82	64.36	57.20	65.70	61.53	65.84	67.62	68.59	75.09	77.73	79.24	84.11	83.74	83.25	83.12	87.24	79.96	73.57	65.72	59.26	52.58	45.86	39.36	34.74	28.33	26.83	28.35	29.77	19.92	11.46	8.978	7.870	5.036	3.902	3.638	0.629	-0.204	4.789	18.35	64.07	446.0	 2264	 2913	408.4	-3.100	-5.903	-6.801	-6.777	-7.175	-7.498	-7.377	-7.857	-7.673	-7.590	-7.757	-8.012	-7.972	-7.971	-8.067	-8.033	-8.446	-8.635
510.0	-816.0	-594.6	-392.1	-244.8	-178.4	-108.8	416.4	 2338	963.3	48.85	55.37	73.45	77.35	66.68	67.68	58.06	54.69	46.46	49.99	51.99	53.71	55.52	57.48	61.74	64.20	67.90	70.16	71.87	72.15	73.64	70.92	68.64	64.60	59.47	49.83	46.57	40.78	35.34	30.71	26.08	22.96	20.58	23.14	23.18	14.93	9.438	7.089	5.560	3.598	3.322	1.338	-0.734	-0.728	1.729	11.28	96.60	575.0	 1790	 2359	864.4	20.19	-6.475	-6.872	-7.211	-7.356	-7.377	-7.698	-7.762	-7.623	-7.718	-7.861	-7.985	-7.924	-8.072	-8.264	-8.544	-8.445
515.0	-825.7	-625.1	-411.7	-274.8	-168.9	-142.8	25.56	 1061	 2528	225.5	34.94	49.67	51.65	59.63	44.85	39.44	40.80	38.43	40.47	40.11	39.24	45.79	47.40	49.89	53.88	56.28	58.56	59.37	60.24	64.04	63.15	55.87	54.86	50.96	43.58	41.09	35.18	30.89	27.63	23.81	19.80	17.44	16.07	19.51	18.25	12.74	7.080	5.471	3.127	3.129	1.621	-0.572	-1.727	-2.398	-0.199	18.35	124.7	398.9	 1045	 2575	623.2	22.40	-6.569	-7.043	-7.279	-7.245	-7.689	-7.968	-7.990	-7.989	-7.944	-7.872	-7.884	-8.158	-8.178	-8.365	-8.193
520.0	-862.7	-598.4	-464.0	-308.5	-150.6	-159.5	-80.02	259.3	 2584	 1143	25.19	29.40	38.39	36.23	32.44	35.38	29.44	30.55	36.87	31.59	32.60	35.15	43.36	42.88	45.90	49.48	49.68	52.84	52.08	55.47	53.60	48.94	48.78	44.48	39.30	36.03	31.38	27.01	24.24	21.12	18.26	14.62	13.92	13.70	17.10	14.42	8.163	5.328	4.166	3.085	1.395	-1.176	-1.948	-2.315	-2.517	1.150	23.95	84.90	244.7	 1404	 2375	498.3	3.000	-6.711	-7.136	-7.293	-7.396	-7.739	-8.084	-7.864	-7.908	-8.075	-7.940	-8.130	-8.223	-8.500	-8.783
525.0	-831.6	-628.7	-472.3	-316.9	-181.8	-148.2	-108.7	-4.449	 1499	 2430	72.91	22.40	18.81	28.42	25.60	27.14	24.31	24.77	32.03	29.56	29.45	31.30	32.84	35.61	36.86	41.71	43.51	43.93	43.89	50.23	46.72	44.63	41.76	38.85	34.59	31.13	27.44	25.33	20.53	18.71	16.10	12.84	12.57	10.35	13.31	15.64	10.44	6.684	3.079	2.363	1.209	-1.637	-2.036	-3.101	-3.099	-3.021	1.206	15.04	51.09	351.1	 1607	 2078	76.82	-5.181	-7.254	-7.443	-7.436	-7.941	-8.122	-8.160	-7.876	-7.951	-8.160	-8.260	-8.141	-8.647	-8.535
530.0	-822.6	-655.7	-463.4	-330.4	-224.2	-118.3	-122.3	-74.33	380.8	 2547	 1009	9.115	7.451	14.46	15.16	13.13	14.19	17.32	19.93	21.92	21.39	24.72	28.67	28.93	31.64	32.64	34.59	34.91	38.57	38.10	38.71	36.90	35.26	31.79	29.05	25.48	23.83	20.36	17.08	15.59	13.55	11.29	9.506	7.510	8.035	11.23	11.74	7.377	3.175	1.961	1.163	-1.504	-2.253	-3.081	-3.346	-4.043	-3.452	-0.492	7.192	74.02	402.2	 1231	 1558	357.0	15.58	-7.036	-7.335	-7.555	-7.866	-8.006	-7.992	-8.046	-8.085	-8.296	-8.177	-8.751	-8.729
535.0	-834.5	-688.3	-490.6	-356.5	-262.3	-156.7	-114.8	-113.3	33.77	934.6	 2851	271.3	-2.618	1.548	13.32	6.270	6.630	5.424	11.16	14.67	15.55	17.97	17.96	21.66	23.71	24.73	24.93	30.09	30.20	29.74	31.38	29.06	30.26	25.09	23.81	21.49	18.82	15.36	15.07	12.52	11.26	8.576	7.894	5.637	5.914	6.685	9.498	8.661	4.220	1.602	0.592	-1.759	-2.903	-3.739	-3.996	-3.972	-4.860	-4.040	-2.971	12.22	84.94	271.6	683.1	 1681	566.3	14.06	-7.006	-7.510	-7.707	-8.000	-8.014	-8.147	-7.983	-8.365	-8.285	-8.710	-8.625
540.0	-861.0	-677.7	-492.2	-353.3	-268.8	-179.9	-99.26	-113.8	-63.13	197.1	 2636	 1121	-10.74	-12.89	-1.334	0.032	3.440	0.144	4.967	9.656	10.53	13.55	13.53	19.26	18.29	20.98	20.85	22.91	25.39	26.93	24.62	23.87	24.61	21.63	19.65	16.79	15.40	13.08	11.26	11.18	9.461	6.432	7.026	4.950	4.320	3.813	5.616	7.930	5.654	2.108	0.163	-2.486	-3.038	-4.109	-4.078	-4.294	-5.333	-5.071	-5.228	-1.866	14.01	55.86	156.8	902.2	 1659	409.4	-1.817	-7.413	-7.812	-7.920	-8.123	-8.147	-7.958	-8.428	-8.332	-8.733	-8.788
545.0	-855.6	-674.9	-495.3	-365.9	-277.5	-201.2	-107.7	-110.0	-96.70	-15.68	 1346	 2666	72.50	-18.65	-12.17	-7.486	-4.756	-1.146	3.892	3.192	5.618	8.955	10.31	12.13	13.11	15.60	18.60	18.71	20.62	20.86	21.72	20.24	19.58	18.06	15.72	13.75	12.04	11.08	9.407	8.176	7.284	4.919	5.322	3.101	2.576	2.162	3.530	5.654	5.419	2.688	0.043	-2.011	-3.227	-4.396	-4.060	-4.354	-5.348	-5.520	-5.230	-4.887	-1.622	7.591	29.98	224.6	 1131	 1406	70.35	-6.422	-7.678	-7.887	-7.850	-8.285	-8.126	-8.157	-8.275	-8.651	-9.016
550.0	-877.6	-681.5	-518.0	-385.0	-292.3	-219.4	-133.6	-97.66	-108.0	-72.94	307.6	 2450	 1312	-16.58	-18.38	-13.20	-9.589	-5.969	-4.751	-2.732	0.177	2.472	5.534	7.179	7.373	9.967	10.97	11.29	13.21	13.25	14.35	14.08	13.87	11.84	11.17	9.791	8.163	7.357	6.817	6.157	4.584	2.724	2.360	1.434	1.178	0.901	1.381	1.787	3.295	3.723	0.658	-2.601	-3.203	-4.173	-4.152	-4.835	-5.263	-5.519	-5.914	-5.572	-5.359	-3.408	1.627	44.91	281.5	849.6	869.8	310.3	7.676	-7.665	-7.966	-8.169	-8.134	-8.134	-8.417	-8.751	-9.033
555.0	-859.7	-670.5	-536.1	-394.0	-312.2	-246.4	-175.1	-84.24	-107.0	-92.55	7.598	796.1	 2814	267.3	-21.01	-21.68	-16.13	-13.57	-10.04	-6.377	-5.296	-3.386	-0.518	-0.506	2.621	4.075	4.517	5.403	6.485	8.097	7.888	9.442	8.495	8.266	6.072	5.699	4.976	4.233	3.861	2.999	2.255	2.057	-0.085	-0.815	-0.631	-0.297	-0.635	-0.979	0.138	2.597	0.994	-2.005	-3.789	-4.791	-4.690	-4.912	-5.665	-5.606	-5.692	-6.345	-6.356	-6.207	-4.958	4.736	57.72	185.8	435.9	 1098	405.9	2.119	-7.765	-8.384	-8.166	-8.337	-8.377	-8.692	-8.695
560.0	-873.5	-667.5	-548.7	-393.2	-306.7	-254.6	-187.2	-95.66	-95.95	-100.7	-64.81	142.5	 2408	873.9	-31.19	-29.23	-22.12	-18.90	-12.50	-10.84	-9.229	-6.325	-4.229	-2.075	0.165	0.531	2.435	3.156	3.273	4.178	3.992	4.720	4.482	2.954	3.056	3.599	2.970	1.966	2.412	1.353	0.451	-0.020	-1.459	-1.462	-1.357	-1.649	-1.870	-1.972	-1.786	-0.046	0.822	-1.566	-3.724	-4.817	-5.309	-5.781	-6.056	-6.409	-5.741	-6.209	-6.552	-6.447	-6.495	-4.138	7.536	36.02	100.2	617.1	998.6	76.76	-5.979	-8.173	-8.018	-8.186	-8.473	-8.473	-8.937
565.0	-866.1	-720.0	-533.5	-398.9	-313.2	-252.4	-202.2	-140.6	-73.28	-106.7	-81.80	-26.24	 1124	 2387	45.03	-31.63	-28.40	-23.24	-16.86	-14.04	-11.52	-8.547	-7.000	-4.657	-4.648	-1.463	-2.859	-0.568	0.014	1.116	0.983	0.652	0.883	0.751	0.963	0.398	-0.009	-0.591	-0.203	-1.157	-1.808	-1.103	-2.045	-2.871	-2.396	-2.258	-2.263	-2.793	-2.788	-1.370	-0.735	-2.326	-3.340	-5.162	-5.486	-5.845	-6.302	-6.571	-6.225	-6.298	-6.554	-7.134	-6.771	-6.392	-3.591	2.415	17.28	154.2	716.5	671.7	54.67	-7.653	-8.097	-8.094	-8.456	-8.616	-9.014
570.0	-903.4	-694.9	-541.7	-409.2	-316.6	-261.1	-210.3	-171.9	-86.71	-99.15	-99.41	-67.89	241.7	 2064	 1073	-27.62	-31.30	-25.20	-20.81	-17.04	-15.70	-12.41	-10.13	-8.518	-7.470	-5.885	-5.585	-5.066	-2.950	-3.034	-2.169	-1.379	-0.980	-2.179	-1.203	-1.305	-2.011	-2.158	-1.868	-2.825	-3.323	-2.916	-3.887	-4.008	-3.453	-3.869	-3.106	-3.513	-3.459	-2.813	-2.715	-3.175	-3.193	-5.057	-5.535	-6.039	-6.394	-6.683	-6.607	-6.480	-6.875	-7.154	-7.183	-6.933	-6.353	-4.894	-1.713	28.70	181.4	479.0	575.8	182.2	-0.717	-8.200	-8.438	-8.529	-9.057
575.0	-892.8	-736.0	-526.3	-420.4	-327.5	-265.1	-203.7	-177.8	-122.6	-75.41	-100.8	-82.51	-2.604	649.0	 2329	212.4	-33.26	-29.34	-24.74	-19.77	-16.64	-15.17	-13.33	-11.93	-10.03	-8.977	-8.676	-6.765	-6.439	-6.430	-5.099	-4.415	-4.305	-3.711	-3.149	-3.764	-3.529	-3.363	-4.231	-4.858	-4.375	-4.785	-4.839	-4.951	-4.770	-4.858	-3.980	-4.324	-4.522	-3.764	-3.838	-4.705	-3.528	-4.723	-5.524	-6.308	-6.472	-6.881	-6.629	-7.175	-6.830	-6.970	-6.858	-7.123	-6.987	-6.751	-5.958	0.574	34.47	102.8	285.7	625.5	79.15	-4.243	-8.417	-8.686	-9.236
580.0	-843.5	-706.5	-523.0	-415.6	-327.1	-264.8	-221.2	-186.8	-144.7	-67.49	-82.53	-86.48	-50.29	119.6	 1943	 1024	-30.12	-29.39	-25.10	-22.22	-19.32	-17.06	-13.99	-13.86	-12.69	-10.14	-8.604	-8.014	-8.077	-8.542	-8.024	-5.815	-5.238	-5.574	-4.168	-4.594	-4.107	-4.488	-5.857	-5.277	-4.886	-5.547	-6.118	-5.663	-5.447	-5.661	-4.426	-4.915	-4.644	-3.825	-4.230	-5.572	-4.685	-4.820	-5.147	-6.396	-6.767	-6.862	-6.814	-6.967	-7.187	-7.340	-7.180	-7.002	-7.370	-7.149	-6.813	-5.559	1.785	17.12	65.19	371.4	521.2	62.27	-7.120	-8.557	-8.802
585.0	-865.4	-737.5	-546.6	-408.6	-329.2	-270.4	-223.4	-190.0	-158.8	-90.50	-68.33	-83.27	-56.69	-15.83	856.4	 1916	33.68	-31.33	-25.22	-24.22	-20.28	-17.74	-15.53	-15.46	-12.66	-12.62	-10.10	-9.806	-10.08	-9.641	-9.347	-7.236	-7.403	-6.933	-5.852	-5.316	-5.431	-6.241	-5.730	-6.173	-5.277	-5.601	-6.273	-5.509	-5.862	-6.002	-5.025	-5.421	-4.918	-4.410	-4.348	-6.146	-5.402	-5.315	-4.894	-5.879	-6.860	-6.976	-7.190	-6.979	-7.106	-7.145	-7.463	-7.152	-7.546	-7.221	-7.611	-7.061	-5.660	-2.205	8.487	94.01	411.2	420.1	38.94	-8.388	-8.846
590.0	-867.0	-684.2	-548.0	-413.9	-337.4	-273.2	-225.7	-191.5	-165.4	-120.9	-57.42	-78.08	-64.49	-44.99	184.0	 1557	754.0	-25.22	-26.72	-25.10	-22.52	-19.41	-17.31	-16.02	-13.94	-13.53	-12.14	-11.99	-11.46	-11.35	-10.18	-8.984	-8.486	-8.116	-7.295	-6.812	-6.850	-6.719	-6.521	-6.553	-6.299	-6.473	-6.796	-6.328	-6.340	-6.704	-5.484	-5.713	-5.205	-4.734	-4.852	-6.090	-5.989	-5.987	-5.175	-5.884	-6.815	-7.095	-7.108	-7.161	-7.276	-7.332	-7.444	-7.397	-7.303	-7.457	-7.558	-7.400	-7.072	-6.664	-4.202	14.75	103.6	293.4	332.5	47.60	-5.069
595.0	-864.8	-703.7	-554.3	-423.1	-341.8	-272.8	-226.3	-188.6	-171.2	-129.9	-67.02	-56.71	-65.11	-50.50	2.685	467.0	 1556	134.6	-28.69	-25.66	-22.96	-20.60	-19.22	-17.71	-14.52	-14.22	-13.54	-12.64	-12.56	-11.80	-11.07	-11.02	-9.503	-9.665	-8.075	-7.577	-7.566	-7.827	-7.253	-7.741	-7.126	-6.978	-7.303	-7.609	-7.024	-7.398	-6.205	-6.233	-5.774	-4.877	-5.199	-6.337	-6.196	-6.723	-6.060	-5.872	-6.814	-7.072	-7.307	-7.346	-7.187	-7.143	-7.381	-7.540	-7.541	-7.509	-7.582	-7.923	-7.794	-7.466	-7.252	-2.957	16.76	60.47	170.4	358.0	72.04
600.0	-882.3	-723.4	-514.6	-416.4	-326.7	-271.1	-228.3	-191.2	-164.4	-138.0	-91.50	-49.09	-67.51	-55.41	-37.30	79.24	 1269	425.2	-28.76	-26.65	-24.91	-21.56	-19.70	-18.13	-16.28	-14.98	-14.37	-13.49	-13.17	-12.73	-11.60	-11.13	-10.24	-9.870	-8.645	-8.317	-8.382	-8.142	-7.934	-8.082	-7.394	-7.402	-7.934	-7.982	-7.394	-7.546	-6.328	-6.521	-6.070	-5.221	-5.365	-6.631	-6.517	-6.868	-6.555	-6.771	-6.555	-7.088	-7.022	-7.391	-7.386	-7.584	-7.814	-7.836	-7.399	-7.495	-7.584	-7.822	-7.907	-7.902	-7.976	-6.882	-2.656	6.987	36.28	225.7	316.0
605.0	-888.2	-712.5	-520.5	-411.5	-329.1	-273.2	-222.8	-196.0	-165.7	-141.1	-102.4	-36.53	-56.94	-57.06	-47.78	-16.60	573.4	 1226	16.74	-27.42	-23.41	-21.39	-20.36	-19.11	-16.66	-15.69	-14.06	-14.11	-13.49	-13.13	-12.80	-11.36	-11.04	-10.27	-9.629	-8.596	-8.474	-8.822	-7.473	-8.127	-8.021	-7.951	-7.966	-7.750	-7.947	-7.607	-6.243	-6.726	-6.050	-5.429	-5.433	-6.732	-6.851	-6.888	-7.035	-6.982	-6.571	-6.770	-7.118	-7.370	-7.563	-7.541	-7.709	-7.464	-7.696	-7.511	-7.385	-7.708	-7.822	-8.097	-8.045	-7.763	-6.753	-4.869	1.603	56.00	253.4
610.0	-874.8	-700.6	-536.0	-413.9	-330.1	-275.5	-228.8	-193.1	-163.7	-140.2	-111.6	-62.38	-39.59	-55.07	-49.48	-38.57	116.4	 1088	547.0	-24.37	-24.81	-22.36	-21.32	-19.08	-17.24	-16.83	-14.81	-14.82	-14.45	-14.48	-13.43	-12.10	-11.32	-10.81	-9.961	-8.781	-8.673	-8.843	-8.550	-8.512	-8.319	-8.382	-8.347	-8.133	-7.795	-8.001	-6.742	-6.665	-6.338	-5.607	-5.592	-6.945	-6.848	-7.078	-7.034	-7.295	-7.045	-6.848	-7.237	-7.406	-7.539	-7.896	-7.690	-7.512	-7.742	-7.641	-7.677	-7.723	-7.921	-8.109	-8.135	-8.091	-7.863	-7.404	-6.272	5.816	61.51
615.0	-885.0	-678.9	-543.6	-422.9	-331.8	-276.1	-235.2	-198.8	-167.2	-140.6	-115.3	-86.33	-32.12	-47.51	-49.13	-42.92	-4.687	339.1	 1174	88.17	-25.09	-22.56	-22.07	-20.19	-18.46	-16.89	-15.64	-14.94	-14.70	-14.10	-14.54	-13.22	-11.72	-11.10	-10.32	-9.019	-9.125	-9.077	-8.886	-8.394	-8.615	-9.062	-8.989	-8.311	-7.977	-7.853	-7.109	-7.261	-6.781	-5.587	-5.736	-7.170	-6.875	-7.374	-7.000	-7.387	-7.347	-7.360	-7.331	-7.278	-7.709	-7.776	-7.562	-7.598	-7.765	-7.870	-7.848	-7.880	-7.813	-8.046	-8.112	-8.247	-7.983	-8.106	-8.119	-5.280	6.775
620.0	-853.0	-705.1	-540.0	-419.5	-342.6	-273.7	-235.8	-193.0	-166.5	-144.3	-117.2	-95.96	-41.12	-34.52	-49.39	-45.03	-32.35	55.31	982.7	323.2	-24.83	-23.02	-22.44	-20.25	-18.46	-16.71	-16.16	-15.56	-14.18	-15.22	-14.17	-13.77	-12.07	-11.30	-10.83	-9.394	-9.317	-9.060	-9.187	-8.992	-8.699	-9.351	-8.817	-8.707	-8.286	-7.984	-7.275	-7.359	-6.665	-5.625	-5.704	-7.004	-6.725	-7.532	-7.116	-7.418	-7.754	-7.413	-7.006	-7.210	-7.616	-7.777	-7.695	-7.794	-7.751	-7.826	-7.961	-7.692	-7.831	-7.883	-8.129	-8.204	-8.175	-8.235	-8.486	-7.966	-5.398
625.0	-863.9	-693.5	-547.5	-411.3	-332.4	-279.6	-236.2	-199.0	-163.3	-143.2	-113.2	-94.47	-58.98	-23.61	-47.53	-42.93	-38.72	-13.06	462.6	948.7	6.792	-22.54	-22.24	-19.88	-19.20	-17.52	-17.15	-15.75	-14.98	-15.42	-14.65	-13.81	-12.22	-11.03	-10.73	-10.08	-9.645	-9.618	-9.586	-9.491	-8.918	-9.211	-9.484	-8.697	-8.436	-8.401	-7.195	-7.379	-6.726	-5.749	-5.915	-7.250	-6.802	-7.620	-7.201	-7.525	-7.655	-7.681	-7.311	-7.143	-7.432	-7.932	-7.635	-7.830	-7.856	-7.965	-8.098	-8.091	-7.807	-7.988	-8.019	-8.345	-8.137	-8.174	-8.280	-8.606	-8.253
630.0	-902.7	-718.4	-555.8	-407.6	-333.6	-283.3	-240.1	-202.9	-168.6	-145.3	-118.2	-99.81	-68.38	-28.39	-36.98	-44.21	-38.82	-30.10	95.53	873.0	408.4	-20.36	-21.82	-20.55	-19.39	-17.97	-16.97	-16.33	-15.56	-15.71	-14.63	-14.00	-12.45	-11.70	-11.35	-10.33	-9.782	-9.782	-9.743	-9.333	-9.099	-9.214	-9.409	-9.019	-8.618	-8.591	-7.423	-7.461	-6.844	-5.921	-5.951	-7.245	-7.058	-7.565	-7.249	-7.646	-7.707	-7.867	-7.598	-7.392	-7.472	-7.712	-7.902	-7.987	-7.956	-7.999	-8.061	-8.063	-8.157	-8.052	-7.978	-8.288	-8.283	-8.277	-8.550	-8.834	-8.773
635.0	-903.8	-681.0	-535.5	-414.0	-335.0	-273.4	-235.4	-200.5	-170.0	-149.3	-122.2	-102.3	-70.75	-47.88	-27.10	-41.91	-39.14	-35.01	-2.724	284.4	922.5	67.81	-22.23	-19.97	-19.83	-18.67	-17.01	-16.61	-15.89	-15.46	-15.08	-13.99	-13.25	-11.95	-11.05	-9.822	-9.516	-9.808	-9.517	-9.588	-8.844	-9.169	-9.494	-8.766	-8.801	-8.376	-7.660	-7.719	-6.871	-5.976	-6.081	-7.117	-7.221	-7.438	-7.132	-7.499	-7.746	-7.888	-7.817	-7.696	-7.715	-7.645	-7.812	-7.880	-7.996	-7.878	-8.066	-8.108	-8.277	-8.113	-7.953	-8.330	-8.229	-8.491	-8.490	-8.901	-8.878
640.0	-925.0	-688.5	-535.4	-409.4	-336.6	-278.7	-231.8	-201.0	-170.3	-144.4	-121.6	-99.21	-74.14	-58.39	-20.29	-40.17	-38.31	-36.12	-25.34	49.11	808.5	258.9	-21.67	-20.76	-19.80	-18.22	-17.79	-16.78	-16.42	-15.64	-14.75	-13.80	-13.70	-11.83	-10.82	-9.680	-9.218	-9.624	-9.793	-9.353	-9.488	-9.391	-9.522	-8.883	-8.641	-8.340	-7.678	-7.712	-6.752	-5.855	-6.027	-7.184	-7.217	-7.472	-7.240	-7.506	-7.793	-7.920	-7.813	-7.842	-7.492	-7.759	-7.909	-7.712	-7.990	-8.126	-8.075	-8.119	-8.376	-8.213	-8.000	-8.148	-8.155	-8.446	-8.695	-8.670	-8.781
645.0	-911.1	-705.4	-525.4	-418.7	-335.8	-284.7	-238.2	-200.0	-170.6	-146.3	-129.6	-94.73	-76.81	-56.81	-29.81	-30.37	-40.65	-35.28	-29.49	-10.69	391.2	732.5	-1.785	-20.59	-20.21	-18.52	-17.36	-16.79	-16.21	-15.28	-15.52	-13.49	-13.17	-11.87	-10.83	-9.455	-9.539	-9.785	-9.346	-9.537	-9.313	-9.388	-9.545	-8.671	-8.962	-8.633	-7.727	-7.610	-6.954	-6.105	-6.040	-7.297	-7.176	-7.631	-7.005	-7.129	-7.965	-7.822	-7.746	-7.799	-7.645	-7.801	-7.913	-7.776	-7.789	-8.164	-8.055	-8.161	-8.313	-8.105	-7.958	-8.416	-8.274	-8.450	-8.698	-8.752	-8.935
650.0	-880.4	-708.9	-542.7	-419.9	-334.7	-280.0	-245.3	-205.8	-174.7	-146.3	-123.9	-99.07	-76.71	-56.38	-39.57	-23.37	-38.04	-35.22	-31.49	-24.43	101.4	833.6	144.9	-21.08	-19.27	-17.72	-17.12	-16.71	-16.45	-15.62	-14.66	-13.69	-12.43	-11.72	-10.24	-8.416	-8.926	-8.754	-9.037	-9.614	-9.530	-9.408	-9.213	-8.937	-9.006	-8.627	-7.836	-7.798	-6.908	-6.235	-6.173	-7.218	-7.053	-7.507	-7.178	-7.423	-8.009	-7.704	-7.805	-7.779	-7.966	-7.786	-7.572	-7.665	-7.978	-8.203	-8.074	-8.101	-8.237	-8.093	-8.097	-8.289	-8.179	-8.257	-8.226	-8.628	-8.823
