Sample:	'1
File name:	w01005ª„‘Û µ“µ”ÍÀÆ≥ÿ.FD3
Run date:	'15:44:43, 04/11/2024
Operator:	Administrator
Comment:	'

Instrument
Model:	F-2700 FL Spectrophotometer
Serial number:	23B8-004
ROM Version:	4J14000 07

Instrument parameters
Measurement type:	3-D scan
Data mode:	Fluorescence
EX  Start WL:	220.0 nm
EX  End WL:	600.0 nm
EX Sampling interval:	5.0 nm
EM  Start WL:	230.0 nm
EM  End WL:	650.0 nm
EM Sampling interval:	5.0 nm
Scan speed:	12000 nm/min
EX Slit:	5.0 nm
EM Slit:	5.0 nm
PMT Voltage:	700 V
Response:	Auto 
Corrected spectra:	Off
Contour interval:	50.000

Peak integration
Integration method:	Rectangular
Sensitivity:	1
Threshold:	1.000

Peaks
No.	ApexEX/EM(nm)	Height(Data)
1	225.0/335.0	4774
2	225.0/625.0	167.5
3	265.0/585.0	135.1
4	270.0/600.0	156.8
5	275.0/610.0	181.0
6	280.0/335.0	4480
7	280.0/625.0	188.0
8	455.0/340.0	18.90
9	560.0/335.0	22.13
10	570.0/340.0	21.80

Data points
	220.0	225.0	230.0	235.0	240.0	245.0	250.0	255.0	260.0	265.0	270.0	275.0	280.0	285.0	290.0	295.0	300.0	305.0	310.0	315.0	320.0	325.0	330.0	335.0	340.0	345.0	350.0	355.0	360.0	365.0	370.0	375.0	380.0	385.0	390.0	395.0	400.0	405.0	410.0	415.0	420.0	425.0	430.0	435.0	440.0	445.0	450.0	455.0	460.0	465.0	470.0	475.0	480.0	485.0	490.0	495.0	500.0	505.0	510.0	515.0	520.0	525.0	530.0	535.0	540.0	545.0	550.0	555.0	560.0	565.0	570.0	575.0	580.0	585.0	590.0	595.0	600.0
230.0	68.91	3454	9999.9	4725	155.7	18.82	14.70	11.40	11.03	9.733	9.560	9.297	9.285	8.475	7.855	6.597	6.311	6.058	5.610	4.991	4.901	4.601	4.122	4.142	3.899	3.726	3.238	3.303	3.291	3.271	3.001	2.939	2.892	2.798	2.439	2.255	2.067	1.821	1.801	1.649	1.588	1.679	1.627	1.520	1.479	1.423	4.578	24.33	47.43	37.95	13.75	3.012	1.079	0.982	0.919	0.815	0.857	0.790	0.790	0.668	0.643	0.652	0.629	0.639	0.532	0.523	0.538	0.416	0.407	0.399	0.365	0.328	0.369	0.318	0.281	0.272	0.298
235.0	94.55	874.8	5705	9999.9	4268	267.8	20.78	17.04	13.91	11.28	12.32	11.73	10.02	9.663	8.087	7.475	6.893	6.461	5.575	5.534	4.825	4.712	4.703	4.172	4.080	4.001	3.425	3.340	3.458	3.031	2.964	3.100	2.777	2.608	2.643	2.145	2.150	1.898	1.874	1.616	1.562	1.528	1.454	1.724	1.588	1.580	2.158	6.801	16.41	29.63	46.30	29.04	20.88	5.983	1.204	0.871	0.875	0.859	0.736	0.769	0.657	0.588	0.656	0.653	0.522	0.637	0.496	0.542	0.500	0.455	0.376	0.405	0.407	0.361	0.329	0.341	0.281
240.0	104.2	273.7	1533	8589	9999.9	3519	165.5	23.76	17.24	14.91	13.93	13.00	10.84	10.32	8.534	7.825	7.293	7.182	5.678	5.637	5.234	5.120	4.549	4.812	4.046	3.788	3.839	3.708	3.345	3.288	3.025	3.155	2.643	2.578	2.606	2.451	2.294	2.053	1.932	1.679	1.636	1.519	1.468	1.730	1.584	1.710	1.839	2.707	4.637	8.446	21.25	52.80	79.08	29.80	17.76	3.823	0.944	1.033	0.874	0.700	0.758	0.635	0.620	0.682	0.637	0.569	0.530	0.457	0.476	0.465	0.428	0.437	0.468	0.392	0.324	0.318	0.299
245.0	75.30	167.5	404.2	2600	9999.9	9999.9	2659	80.65	25.20	19.00	16.75	14.10	12.11	10.88	10.18	7.838	7.984	7.196	6.572	5.741	5.620	5.001	4.907	4.671	4.392	3.982	4.207	3.828	3.874	3.789	3.014	3.288	2.646	2.767	2.595	2.565	2.389	2.014	2.124	1.696	1.656	1.673	1.554	1.673	1.427	1.700	1.739	1.814	1.982	2.776	5.710	16.59	46.75	81.75	97.22	28.25	13.78	1.910	0.947	0.887	0.805	0.699	0.681	0.710	0.665	0.569	0.483	0.439	0.521	0.449	0.351	0.376	0.493	0.347	0.341	0.368	0.294
250.0	62.68	105.7	197.2	655.6	3066	9999.9	9999.9	8468	165.6	30.87	24.15	19.27	16.10	13.29	11.77	9.829	8.918	7.891	6.846	6.569	5.844	5.677	5.300	5.062	4.528	4.164	4.365	4.037	4.014	3.819	3.539	3.165	2.833	2.702	2.655	2.501	2.441	2.179	2.061	1.786	1.647	1.770	1.659	1.702	1.560	1.531	1.509	1.689	1.628	1.784	2.237	4.595	11.57	24.69	50.94	73.89	107.7	89.42	59.40	11.31	2.052	0.905	0.769	0.728	0.729	0.622	0.585	0.619	0.516	0.536	0.444	0.414	0.427	0.421	0.337	0.428	0.315
255.0	61.61	60.70	111.2	275.2	761.3	2406	9590	9999.9	9999.9	213.5	39.92	30.09	22.21	16.66	14.39	11.82	10.70	9.548	8.009	7.403	6.317	5.774	5.384	5.209	5.034	4.630	4.725	4.152	4.106	3.860	3.639	3.568	2.826	2.691	2.771	2.311	2.183	2.224	2.139	1.979	1.809	1.783	1.709	1.641	1.606	1.564	1.423	1.413	1.328	1.460	1.634	2.391	3.502	6.417	12.25	17.92	34.69	79.89	162.0	178.8	31.85	15.47	1.632	0.912	0.791	0.838	0.795	0.754	0.614	0.563	0.559	0.523	0.477	0.377	0.454	0.451	0.354
260.0	65.80	57.24	67.22	153.6	303.1	604.6	2633	9999.9	9999.9	9999.9	152.2	42.05	28.68	21.56	16.70	13.39	11.96	10.34	9.080	8.021	6.608	6.199	5.767	5.634	4.879	5.300	4.782	4.601	4.298	4.608	3.946	3.998	3.259	3.280	3.014	2.513	2.218	2.375	2.327	2.204	1.922	2.092	2.022	1.901	1.694	1.543	1.524	1.401	1.304	1.327	1.289	1.915	2.180	2.623	3.829	5.047	8.935	20.68	61.28	146.1	213.3	195.4	28.47	10.27	1.219	0.928	0.850	0.801	0.676	0.533	0.666	0.572	0.549	0.456	0.398	0.518	0.494
265.0	76.67	61.00	58.57	84.73	199.9	261.9	657.3	3560	9999.9	9999.9	1858	99.80	42.48	30.17	21.71	16.45	13.12	11.61	10.49	9.199	7.088	6.857	6.240	5.659	5.598	5.735	5.012	4.669	4.890	4.653	4.169	3.897	3.424	3.316	3.006	2.872	2.476	2.418	2.425	2.285	2.192	1.917	1.917	1.811	1.846	1.640	1.581	1.398	1.318	1.308	1.150	1.473	1.675	2.143	2.365	2.075	3.009	5.657	14.98	39.81	104.9	222.7	261.4	178.8	22.65	4.335	1.049	0.933	0.832	0.724	0.706	0.762	0.711	0.472	0.552	0.589	0.583
270.0	118.7	84.75	67.34	63.47	108.5	204.8	299.1	882.9	4012	9999.9	9999.9	7296	124.6	48.49	33.01	22.91	18.33	14.88	12.62	10.35	8.779	7.902	7.372	6.609	6.320	6.005	5.514	5.454	5.046	4.895	4.565	4.241	3.816	3.457	3.293	3.130	2.774	2.499	2.441	2.368	2.319	2.192	2.206	2.074	1.952	1.936	1.667	1.645	1.536	1.348	1.304	1.396	1.435	1.614	1.876	2.117	2.322	2.563	4.491	9.991	24.94	59.90	116.7	198.9	229.3	194.5	127.8	15.87	5.408	1.134	0.951	0.954	0.803	0.678	0.592	0.727	0.644
275.0	201.6	161.2	113.1	79.91	75.85	114.4	261.2	384.0	1003	2586	9999.9	9999.9	9999.9	146.0	56.13	36.09	25.71	20.63	15.87	13.17	11.24	10.26	8.542	7.743	6.875	6.716	5.991	5.871	5.716	5.468	5.034	4.623	4.559	3.667	3.639	3.361	3.143	2.866	2.789	2.650	2.591	2.495	2.341	2.293	2.391	2.147	1.997	1.936	1.565	1.558	1.459	1.449	1.435	1.424	1.597	1.705	2.152	2.773	3.000	3.548	6.788	14.64	27.26	46.02	62.76	132.1	314.1	409.9	216.7	25.56	4.538	1.358	1.168	0.855	0.859	0.950	0.889
280.0	327.8	242.0	171.2	110.7	81.68	95.51	171.5	355.3	415.4	738.3	3094	9999.9	9999.9	7916	115.5	52.73	35.96	27.40	20.25	16.02	13.41	11.20	9.468	8.650	8.348	7.182	6.837	6.642	6.190	6.102	5.884	4.998	4.955	4.263	3.951	3.956	3.525	3.335	2.968	3.074	2.760	2.927	2.892	2.747	2.524	2.567	2.200	2.226	1.866	1.842	1.541	1.610	1.624	1.530	1.618	1.520	1.796	2.166	3.010	2.881	3.192	4.802	7.560	11.67	15.79	32.40	96.78	245.5	430.3	287.7	36.54	19.94	2.751	1.329	1.166	1.176	1.031
285.0	495.0	396.3	297.4	184.3	118.4	113.7	143.0	297.9	404.1	404.7	975.5	4397	9999.9	9999.9	1038	93.60	49.89	35.51	25.81	18.92	15.14	12.99	10.86	9.754	9.224	8.471	7.755	7.067	6.641	6.173	6.130	5.916	4.837	4.811	4.274	4.192	4.223	3.721	3.465	3.422	3.113	3.002	3.084	2.993	2.997	3.326	2.889	2.700	2.373	2.225	1.720	1.873	1.874	1.725	1.627	1.624	1.840	1.986	2.332	2.649	3.535	3.458	3.446	4.394	5.614	9.301	23.73	60.46	149.6	306.7	479.5	279.4	33.99	14.68	2.021	1.626	1.328
290.0	823.2	801.5	656.6	423.2	243.6	196.8	218.3	311.2	518.7	719.4	839.8	1644	5180	9999.9	9999.9	9999.9	320.3	56.91	39.07	26.38	20.97	16.77	13.94	12.09	10.91	10.14	8.641	7.835	7.301	7.061	6.460	6.067	5.415	4.802	5.094	4.815	4.915	4.536	4.439	3.963	3.960	3.910	4.038	3.969	4.143	4.436	4.238	4.158	3.650	3.024	2.585	2.614	2.410	2.199	2.003	1.946	2.256	2.289	2.519	2.606	3.295	3.968	4.589	4.913	4.894	5.656	8.954	17.26	37.29	76.74	160.4	258.2	374.5	374.1	296.6	115.8	12.52
295.0	1275	1353	1159	786.9	437.3	335.6	356.3	440.4	664.9	1023	1413	1563	2246	3263	9999.9	9999.9	9999.9	98.66	61.84	40.72	29.95	22.60	18.57	15.23	13.40	11.93	10.29	9.577	9.202	8.620	7.251	6.751	6.308	5.445	5.790	5.566	5.732	5.536	5.315	4.992	5.102	5.119	5.321	5.049	5.238	5.821	5.823	6.338	5.529	4.453	3.659	3.707	3.179	2.901	2.449	2.577	2.869	3.086	3.128	3.465	4.025	4.250	5.087	6.294	7.654	7.534	8.075	9.802	14.58	23.30	40.93	62.45	91.06	142.7	356.0	624.0	309.9
300.0	1631	1854	1659	1083	612.1	470.1	488.8	629.9	896.9	1255	1866	1963	1901	1858	3652	9999.9	9999.9	5200	89.93	58.25	39.63	28.06	22.80	18.71	16.12	13.45	11.72	10.71	9.728	9.124	8.236	7.669	6.544	5.851	6.212	6.314	6.099	6.488	6.093	5.790	5.722	6.005	6.046	6.071	6.576	7.086	6.859	7.576	7.305	5.806	4.654	4.534	4.111	3.358	3.288	3.069	3.270	3.740	4.057	4.212	4.930	5.529	6.702	7.237	9.027	10.33	10.68	10.50	11.45	13.02	16.63	20.74	25.97	36.77	93.71	254.9	503.7
305.0	1975	2247	2113	1374	791.2	593.5	642.3	816.5	1122	1549	2180	2698	2466	1953	1765	4806	9999.9	9999.9	3960	81.09	54.23	38.56	28.67	22.80	18.51	15.56	12.81	12.02	10.75	10.41	9.303	8.492	7.376	6.641	6.993	6.884	7.100	7.125	6.708	6.812	6.658	6.949	6.884	7.012	7.081	8.129	8.094	8.811	8.659	6.674	5.571	5.342	4.576	4.210	4.022	3.847	4.005	4.250	4.940	5.299	6.047	7.035	7.940	8.742	10.26	11.77	12.67	13.41	13.48	12.88	13.81	13.12	12.85	13.95	25.51	61.71	142.3
310.0	2385	2827	2595	1696	996.6	753.6	809.4	1030	1425	1957	2610	3194	3258	2560	1724	1748	5573	9999.9	9999.9	9999.9	245.7	58.46	41.22	30.29	23.37	19.71	16.33	14.36	12.73	11.70	10.57	9.538	8.334	7.748	7.600	7.434	7.756	7.672	7.662	7.434	7.465	7.676	7.712	7.970	8.746	10.15	9.955	10.68	10.63	8.446	6.769	6.589	5.390	4.966	4.869	4.532	4.988	5.259	5.708	6.585	7.319	8.275	9.491	10.84	12.56	13.29	14.32	15.56	16.60	16.46	15.84	13.86	12.03	11.25	11.79	18.72	35.52
315.0	2792	3391	3080	1987	1172	897.9	948.4	1240	1678	2310	3043	3640	3743	3293	2148	1278	1683	2727	9999.9	9999.9	9999.9	290.9	62.86	44.15	31.78	24.38	20.48	17.00	15.52	14.08	12.15	10.88	9.873	8.554	8.260	8.241	8.403	8.317	8.272	8.623	7.986	8.822	8.999	9.269	10.26	11.80	12.01	13.15	11.73	9.846	7.845	7.776	6.175	5.574	5.362	5.455	5.727	6.179	6.879	7.475	8.647	9.683	11.36	12.82	14.22	15.64	16.48	17.85	18.50	18.44	18.28	17.52	15.00	12.49	10.53	10.21	12.29
320.0	3150	3910	3573	2248	1295	982.3	1066	1393	1876	2577	3351	3957	4057	3627	2604	1365	916.6	912.3	3284	9999.9	9999.9	3998	180.6	59.93	41.66	31.59	24.10	19.31	17.77	15.69	13.40	11.86	10.58	9.644	8.580	9.247	9.065	9.109	8.452	9.412	8.799	9.259	9.489	10.23	11.57	13.37	13.36	14.76	13.86	10.84	8.858	8.653	7.024	5.841	5.978	5.833	6.387	6.741	7.440	8.251	9.431	10.51	12.52	13.63	15.34	17.18	17.53	19.38	19.97	19.59	19.60	18.83	17.26	15.21	11.58	8.977	8.291
325.0	3499	4387	4114	2528	1417	1085	1169	1492	2037	2742	3575	4194	4303	3797	2905	1620	855.8	568.3	981.6	4848	9999.9	9999.9	3222	101.7	55.38	40.11	29.10	24.12	19.68	18.34	14.62	13.22	11.79	10.26	9.014	9.205	9.415	9.154	9.001	9.130	9.599	9.667	9.950	11.04	12.40	14.76	14.80	16.50	15.63	12.31	10.07	9.092	7.444	6.284	6.659	6.305	6.921	7.409	8.023	8.870	9.835	11.64	13.17	14.54	16.55	18.26	18.86	20.40	21.69	20.75	20.47	19.18	17.93	16.61	13.50	10.32	8.511
330.0	3670	4651	4461	2845	1596	1209	1266	1609	2125	2872	3690	4316	4444	3938	3031	1910	1074	608.8	536.7	1326	5767	9999.9	9999.9	9999.9	214.6	60.17	42.59	31.85	24.84	21.64	18.02	15.33	13.30	11.54	10.23	10.05	9.962	10.06	9.942	9.592	10.04	10.31	10.76	12.24	13.36	15.42	15.69	17.65	16.78	13.06	10.61	9.951	8.347	7.319	7.082	6.866	7.249	7.691	8.782	9.424	10.51	12.41	13.60	15.62	17.20	18.53	19.78	20.77	22.00	21.93	21.74	20.22	18.43	17.04	14.32	12.18	10.21
335.0	3660	4774	4621	3006	1764	1349	1387	1683	2215	2934	3707	4322	4480	4007	3118	2020	1339	800.9	554.8	607.4	1523	2720	9999.9	9999.9	9999.9	258.0	60.24	44.89	33.44	26.36	21.82	18.55	15.19	13.79	12.53	11.52	10.93	11.15	10.30	10.45	10.36	10.98	11.67	12.27	14.15	15.78	16.30	18.58	17.87	14.16	11.36	10.86	9.242	8.235	7.824	7.619	8.101	8.372	9.176	9.691	11.20	12.46	13.88	15.96	17.24	18.72	20.08	20.70	22.13	21.72	21.77	20.19	18.98	17.73	15.16	12.55	10.95
340.0	3617	4718	4649	3101	1866	1448	1453	1739	2219	2899	3629	4221	4364	3968	3142	2072	1416	1022	669.6	518.8	632.0	844.1	3603	9999.9	9999.9	3445	166.5	56.90	42.04	31.61	25.76	21.78	16.75	15.00	12.77	12.28	11.29	11.13	11.02	10.55	10.74	10.96	11.31	12.41	13.67	15.51	16.41	18.90	17.87	14.19	11.69	11.52	9.550	8.659	8.160	7.676	8.129	8.951	9.084	10.17	11.04	12.28	14.16	15.59	16.77	18.53	19.30	20.30	21.45	21.41	21.80	20.22	19.28	17.65	15.66	12.84	11.43
345.0	3425	4412	4438	3079	1939	1509	1493	1734	2165	2793	3462	4011	4173	3837	3085	2100	1438	1131	844.6	589.2	499.8	471.3	1042	5546	9999.9	9999.9	2955	91.77	53.00	39.29	29.48	23.62	18.41	16.13	13.58	11.94	11.53	10.68	11.33	10.34	10.18	10.79	10.93	11.95	13.28	14.75	15.27	17.72	17.01	13.86	11.65	11.46	9.841	8.727	8.506	7.883	8.582	8.640	9.008	10.26	10.84	12.02	13.96	15.04	15.99	17.55	18.84	20.07	20.47	20.37	21.11	19.55	18.75	17.25	15.37	12.79	11.78
350.0	3198	4072	4035	2945	2011	1601	1574	1728	2092	2616	3208	3676	3830	3565	2954	2106	1523	1199	1024	788.8	606.4	494.4	545.0	1492	6840	9999.9	9999.9	9999.9	197.7	52.92	38.92	28.90	21.65	17.66	14.85	12.97	12.38	11.24	10.98	10.27	10.19	10.60	10.36	11.20	12.52	14.14	14.23	16.51	15.33	12.88	11.18	11.11	10.12	8.879	8.556	8.107	9.010	8.757	9.260	9.883	10.82	11.49	13.24	13.58	15.28	16.08	17.28	17.85	18.65	18.92	19.13	18.23	18.05	16.32	14.83	13.08	12.05
355.0	2909	3655	3638	2798	2037	1718	1630	1736	2012	2441	2916	3341	3479	3281	2794	2112	1622	1324	1134	1022	829.0	635.1	541.7	658.4	1763	2821	9999.9	9999.9	9999.9	238.3	54.97	38.93	28.02	21.41	17.33	14.31	13.22	11.94	11.43	10.52	10.22	10.45	10.19	10.73	11.53	13.44	13.27	14.95	14.05	11.99	10.97	11.12	9.875	8.816	8.747	8.449	8.735	8.810	9.523	9.692	10.16	11.09	11.97	12.74	13.76	14.80	15.16	16.73	16.98	17.43	17.26	17.13	17.02	16.04	14.22	12.77	12.21
360.0	2694	3356	3428	2713	2040	1802	1677	1741	1957	2321	2741	3114	3219	3078	2676	2103	1689	1427	1238	1123	1027	798.5	629.1	542.8	688.1	853.2	3800	9999.9	9999.9	3283	159.9	51.33	35.70	25.00	19.72	16.09	14.38	12.44	12.29	11.08	10.55	10.29	10.22	10.16	11.40	11.79	12.82	14.41	13.32	11.52	10.40	11.15	9.953	9.254	8.985	9.145	9.096	9.214	9.615	9.561	10.06	10.80	11.37	12.22	13.22	13.91	14.37	15.37	15.97	16.02	16.23	16.04	15.30	15.81	13.72	12.92	11.97
365.0	2440	3063	3146	2618	2053	1828	1728	1740	1927	2235	2612	2891	3018	2901	2574	2112	1742	1522	1353	1212	1137	988.8	751.2	603.8	515.4	452.3	1056	6209	9999.9	9999.9	2827	90.95	47.90	33.35	23.85	18.64	15.70	13.58	12.99	11.27	11.16	10.41	10.49	10.45	11.25	11.65	12.04	13.29	12.75	11.15	9.723	10.95	10.11	9.359	9.213	9.271	9.060	9.367	9.513	9.396	10.07	10.97	11.00	11.85	12.20	13.14	13.60	14.70	14.85	15.30	15.26	15.48	14.77	14.87	13.98	12.73	12.08
370.0	2294	2811	2892	2496	2074	1880	1768	1749	1870	2111	2404	2655	2756	2684	2445	2080	1803	1628	1490	1358	1243	1153	977.3	755.4	582.4	451.2	492.2	1597	7409	9999.9	9999.9	9999.9	178.7	50.67	33.76	24.13	19.07	16.11	14.18	12.61	11.47	11.18	11.10	10.26	10.82	11.44	11.51	12.62	12.05	10.65	9.579	10.80	10.57	9.689	9.464	9.149	9.335	9.417	9.488	9.523	9.915	10.55	10.73	11.31	11.70	12.48	12.70	13.40	14.20	14.23	14.51	14.37	14.29	14.20	13.69	12.81	12.37
375.0	2145	2562	2695	2358	2094	1928	1793	1770	1819	1998	2230	2458	2544	2496	2308	2048	1846	1720	1601	1496	1375	1266	1162	963.4	723.7	550.5	443.4	603.3	1840	2956	9999.9	9999.9	9999.9	216.1	47.14	33.45	25.19	19.11	16.36	14.10	12.27	12.00	11.70	11.01	10.76	11.37	11.17	12.00	11.29	10.35	9.654	10.71	10.50	9.665	9.848	9.190	10.01	9.554	9.780	9.313	9.670	9.847	10.16	10.71	10.64	11.80	11.94	12.63	12.59	12.89	13.85	13.20	13.54	13.64	13.12	13.10	12.67
380.0	2047	2414	2491	2273	2090	1950	1825	1759	1806	1920	2130	2320	2392	2361	2226	2024	1861	1779	1678	1593	1478	1360	1239	1114	854.9	651.5	498.4	434.5	638.6	846.0	4080	9999.9	9999.9	2796	135.4	42.97	31.48	23.69	18.75	15.60	13.43	12.60	12.30	11.00	11.02	11.51	10.80	11.70	11.18	10.01	9.288	10.48	10.54	10.11	9.893	9.340	9.969	9.121	9.602	9.349	9.186	9.831	10.35	10.56	10.57	11.39	11.52	11.51	12.16	12.18	13.11	12.80	12.69	12.74	12.22	12.62	12.75
385.0	1892	2292	2357	2243	2070	1953	1820	1763	1783	1859	2039	2202	2278	2260	2157	1994	1877	1807	1746	1651	1561	1441	1311	1193	1005	765.0	586.7	460.7	423.8	406.4	1097	6740	9999.9	9999.9	2326	74.82	39.64	29.38	21.99	17.23	15.08	13.37	12.79	11.63	11.16	11.82	11.03	11.94	11.19	9.690	9.199	10.21	10.31	10.34	9.666	9.258	10.16	9.450	9.437	9.392	9.291	9.736	10.10	10.34	10.44	10.70	11.02	11.23	11.82	11.97	12.07	12.24	12.59	12.99	12.30	12.76	12.67
390.0	1932	2173	2277	2189	2070	1976	1852	1767	1754	1820	1957	2083	2158	2165	2088	1963	1878	1840	1795	1716	1644	1543	1417	1279	1138	952.0	735.9	580.7	475.6	384.7	470.2	1698	7171	9999.9	9999.9	9396	150.7	39.91	28.70	22.38	17.60	14.97	13.24	12.32	12.09	11.60	11.11	11.58	10.94	9.706	9.158	10.33	10.61	10.42	9.895	9.551	10.16	9.419	9.508	9.474	9.588	9.684	9.886	10.13	10.21	10.24	10.47	10.88	11.50	11.27	11.69	12.05	12.13	12.46	12.13	12.31	12.39
395.0	1939	2065	2211	2142	2080	1986	1878	1789	1751	1780	1905	2010	2082	2091	2033	1936	1875	1858	1826	1775	1711	1634	1521	1389	1243	1107	936.8	741.5	602.5	473.9	407.4	600.0	1762	2885	9999.9	9999.9	9999.9	188.4	40.56	29.84	21.79	18.18	15.14	13.34	13.02	12.50	11.57	11.83	11.16	10.03	9.336	10.60	10.64	10.47	10.07	10.04	10.51	10.02	9.720	9.759	9.678	9.279	9.469	9.725	9.665	10.55	10.21	10.21	11.04	10.68	11.25	11.57	11.72	12.29	11.93	11.93	12.44
400.0	1854	2030	2150	2099	2072	1962	1887	1794	1753	1775	1872	1973	2028	2050	2002	1925	1863	1871	1841	1802	1755	1692	1599	1474	1328	1190	1073	889.1	712.6	576.1	453.7	402.2	587.0	794.9	3749	9999.9	9999.9	2445	130.0	37.14	26.50	20.82	16.98	14.57	13.24	13.29	11.83	12.26	11.06	10.13	9.504	10.50	10.55	10.57	10.40	10.11	10.78	9.986	9.843	9.710	9.226	9.283	9.462	9.382	9.862	9.960	9.864	9.909	10.35	10.83	11.19	11.06	11.59	11.08	11.65	11.81	11.85
405.0	1791	2043	2109	2084	2060	1971	1877	1808	1756	1760	1849	1946	2010	2016	1986	1901	1848	1859	1838	1809	1782	1733	1660	1547	1412	1268	1151	1021	832.5	674.1	531.4	406.8	363.7	347.0	974.9	5349	9999.9	9999.9	2147	71.24	31.74	24.97	18.97	16.11	14.25	13.85	11.99	11.98	11.43	10.11	9.407	10.53	10.42	10.20	10.40	9.932	10.19	10.09	9.811	9.599	9.547	9.265	9.356	9.788	9.313	9.202	9.510	9.552	10.27	10.35	10.66	11.41	11.36	11.47	11.55	11.50	12.11
410.0	1747	1968	2052	2036	2031	1952	1872	1825	1759	1764	1847	1920	1970	1980	1945	1859	1821	1824	1813	1805	1785	1747	1690	1604	1494	1357	1232	1125	989.0	808.1	636.7	483.9	373.1	291.1	375.6	1326	5442	9999.9	9999.9	9069	144.7	33.23	24.55	19.61	16.35	14.47	12.71	12.53	11.60	10.25	9.462	10.95	10.54	10.23	10.32	9.739	10.32	10.25	9.850	9.973	9.747	9.680	9.348	9.418	9.440	9.385	9.494	9.741	10.01	10.31	10.46	11.04	10.95	11.29	11.43	11.54	11.87
415.0	1711	1890	1978	1975	1975	1948	1855	1823	1756	1769	1829	1866	1929	1927	1896	1800	1770	1755	1762	1757	1746	1731	1694	1628	1538	1420	1305	1188	1090	946.3	746.6	568.7	434.3	323.3	274.7	437.2	1322	2598	9999.9	9999.9	9999.9	194.0	34.05	23.86	19.60	16.22	13.81	13.15	11.80	10.06	9.553	10.85	10.78	10.40	10.24	9.778	10.12	10.11	9.960	9.945	9.621	9.193	9.847	9.152	9.027	9.739	9.362	9.726	9.733	9.792	10.08	10.38	10.66	11.56	11.04	11.23	11.33
420.0	1686	1847	1936	1933	1919	1905	1837	1815	1758	1757	1800	1842	1868	1862	1818	1735	1706	1705	1702	1714	1701	1697	1676	1622	1547	1446	1339	1225	1118	1015	828.0	632.9	481.7	360.0	278.0	258.3	415.2	677.1	3025	9999.9	9999.9	9999.9	136.4	30.54	22.71	18.91	15.01	13.65	12.33	10.19	9.866	11.46	10.61	10.56	10.47	10.15	10.24	9.986	10.31	9.519	9.482	9.617	9.376	9.232	9.423	9.255	9.341	9.288	9.467	9.594	9.986	10.50	10.34	10.68	10.51	10.72	10.86
425.0	1683	1785	1889	1884	1863	1879	1813	1792	1742	1730	1774	1815	1830	1802	1766	1684	1636	1645	1646	1656	1652	1649	1644	1606	1537	1456	1359	1250	1143	1041	891.4	693.5	523.1	397.9	307.9	238.1	229.0	254.7	764.3	3901	9999.9	9999.9	2153	41.02	27.55	22.03	17.22	14.94	12.55	10.84	10.11	11.34	10.71	10.49	10.19	9.828	10.23	10.29	9.858	9.885	9.711	9.791	9.633	9.726	9.734	9.494	9.091	9.038	9.103	10.11	9.389	10.21	10.49	10.42	10.19	10.39	10.80
430.0	2106	1750	1799	1810	1844	1841	1806	1764	1727	1725	1755	1778	1772	1749	1697	1610	1565	1564	1570	1580	1587	1593	1594	1571	1519	1447	1359	1274	1171	1066	931.7	771.6	589.3	454.1	349.7	268.3	214.9	179.5	266.2	953.7	3945	9999.9	9999.9	9381	144.8	30.75	21.22	18.04	14.23	11.52	10.24	11.58	10.92	10.55	10.48	10.13	10.50	10.48	9.948	10.13	9.887	9.788	9.486	9.555	9.169	9.497	9.039	9.015	9.038	9.415	9.442	9.669	10.02	9.939	9.703	9.492	10.29
435.0	4275	1762	1735	1770	1772	1792	1782	1751	1713	1726	1737	1749	1714	1694	1620	1536	1490	1483	1491	1496	1513	1531	1529	1515	1479	1428	1350	1274	1192	1090	951.7	814.0	659.8	511.5	394.9	308.7	239.0	188.2	174.0	302.1	953.6	2420	9999.9	9999.9	9999.9	202.4	30.80	22.62	17.46	12.80	11.39	11.68	11.52	11.28	10.72	10.56	11.03	10.47	10.62	10.08	10.15	9.482	9.820	9.169	8.913	9.102	9.438	8.623	8.672	8.680	9.332	9.067	9.832	9.144	9.422	9.409	10.05
440.0	5970	2421	1684	1731	1725	1739	1751	1739	1711	1702	1712	1724	1665	1636	1560	1478	1425	1414	1428	1433	1450	1464	1467	1465	1434	1391	1327	1267	1193	1093	968.8	824.1	693.1	557.8	431.5	338.0	266.6	207.9	168.8	169.1	294.2	612.5	2690	9999.9	9999.9	9999.9	138.1	29.75	20.20	15.02	12.57	12.89	11.92	11.69	10.97	10.86	10.94	10.60	10.64	10.42	9.793	9.496	9.794	9.642	9.231	9.064	9.062	8.783	8.581	8.571	9.150	9.385	8.857	9.030	9.479	9.396	9.281
445.0	5760	4118	1653	1655	1692	1689	1690	1707	1675	1658	1676	1683	1630	1570	1492	1415	1358	1350	1351	1367	1384	1394	1407	1403	1382	1347	1290	1239	1179	1090	968.1	829.7	697.5	588.3	460.6	362.2	289.9	227.3	181.1	149.9	157.9	211.4	669.9	3331	9999.9	9999.9	1886	95.58	25.58	18.54	14.28	14.23	12.48	11.76	10.94	10.81	11.13	10.33	10.31	10.22	9.960	9.610	9.459	9.385	9.332	9.312	8.602	8.766	8.658	8.429	8.757	8.846	8.907	8.961	8.744	8.995	9.167
450.0	3387	6817	2631	1542	1587	1601	1617	1614	1609	1607	1595	1594	1527	1465	1388	1309	1257	1245	1250	1254	1268	1289	1301	1308	1293	1265	1221	1179	1131	1056	951.8	821.4	691.1	592.2	495.3	394.7	313.2	251.7	202.6	165.4	140.6	133.9	221.5	810.2	3465	9999.9	9999.9	8613	125.7	24.96	17.76	16.59	13.88	12.56	11.68	11.17	11.04	10.68	10.24	10.35	9.820	9.723	9.476	9.382	8.897	8.630	8.327	8.474	8.429	8.108	8.377	8.342	8.626	8.603	8.164	8.346	9.094
455.0	1702	5968	6060	1565	1466	1492	1525	1525	1518	1510	1491	1478	1416	1345	1268	1195	1145	1135	1130	1131	1149	1161	1176	1184	1182	1160	1126	1099	1056	1001	909.4	795.7	676.0	576.5	496.9	420.2	337.6	270.9	223.0	180.9	151.3	126.7	127.7	245.7	828.8	2359	9963	9999.9	9999.9	163.1	24.85	19.50	15.62	13.43	12.51	11.08	11.57	10.75	10.18	9.838	9.776	9.323	9.344	9.177	8.653	8.652	8.237	7.882	7.888	7.766	7.721	7.458	7.865	7.687	7.490	7.868	8.291
460.0	1213	3503	8636	2484	1361	1399	1420	1436	1440	1433	1417	1383	1330	1249	1179	1104	1057	1041	1037	1041	1053	1067	1083	1097	1090	1068	1047	1024	995.2	945.3	867.6	768.0	661.0	563.3	482.4	421.3	352.0	282.6	229.8	192.5	159.5	132.2	112.6	123.9	242.5	579.9	2458	9999.9	9999.9	9999.9	128.6	26.74	19.25	15.27	13.58	11.48	11.83	10.93	9.656	9.900	9.657	9.298	9.188	8.796	8.512	8.336	7.820	7.583	7.652	7.470	7.410	7.120	7.288	7.587	7.357	7.369	7.588
465.0	1075	1815	8272	5101	1336	1313	1351	1347	1354	1348	1329	1307	1241	1167	1098	1024	974.5	957.6	952.1	961.9	968.9	981.9	996.2	1006	997.0	989.1	971.0	952.3	937.5	892.8	822.8	734.8	633.6	546.5	468.9	409.5	357.1	290.7	238.8	198.9	165.7	138.0	113.3	101.0	114.1	181.6	597.1	2800	9999.9	9999.9	8135	109.9	24.13	18.00	15.44	12.76	12.18	11.24	10.29	10.02	9.140	9.454	8.881	8.898	8.150	8.331	7.522	7.549	7.360	7.278	7.162	7.112	7.121	7.189	6.978	7.071	7.075
470.0	938.8	1169	4354	8897	2720	1193	1214	1240	1241	1234	1223	1191	1123	1052	983.0	910.0	866.8	850.1	843.7	845.3	854.8	864.8	882.2	893.2	886.3	879.2	863.9	854.9	840.9	808.1	752.5	675.4	591.8	513.7	444.9	385.0	338.7	292.9	245.5	202.9	170.4	142.2	116.6	97.75	88.59	92.38	178.2	667.7	2980	9725	9999.9	8026	133.0	25.36	18.21	14.63	13.34	11.68	10.45	9.901	9.053	8.811	8.558	8.287	8.098	7.877	7.302	7.030	7.110	6.654	6.716	6.714	6.796	6.805	6.368	6.513	6.487
475.0	830.4	914.7	1721	7239	7336	1280	1096	1100	1113	1106	1115	1071	1002	928.8	864.3	804.1	764.2	746.9	738.5	734.3	743.5	754.5	766.4	776.3	775.0	770.7	760.6	755.5	746.0	720.3	681.6	613.2	542.4	474.3	410.5	361.1	316.3	278.4	247.8	205.4	170.7	142.1	116.5	96.65	82.54	72.55	82.16	185.8	696.6	2223	5939	9999.9	9999.9	209.1	24.48	16.58	14.11	12.60	10.82	9.421	8.938	8.631	8.313	7.665	7.064	7.084	6.740	6.674	6.262	6.281	6.009	5.955	6.119	5.979	5.757	6.018	5.625
480.0	751.0	834.2	1058	3820	9999.9	2512	1009	1027	1034	1014	1030	993.9	918.1	852.2	792.5	730.5	692.4	677.7	672.5	665.8	671.8	678.1	685.0	702.3	698.7	698.1	690.2	690.1	678.7	662.2	628.7	571.4	508.3	452.3	393.5	344.7	299.8	265.8	239.3	207.4	170.6	142.7	119.6	99.04	82.68	69.75	61.84	78.95	187.2	524.8	1408	7988	9999.9	9999.9	172.2	22.34	16.97	13.51	11.71	9.812	9.356	8.633	8.167	7.751	7.266	6.839	6.637	6.571	5.875	6.130	5.659	5.591	5.653	5.629	5.639	5.630	5.612
485.0	697.2	788.9	837.4	1693	9413	4650	1005	961.6	964.1	962.2	951.6	928.6	859.3	788.8	727.9	677.3	642.4	624.6	619.4	609.7	616.2	620.4	632.0	641.3	640.7	641.4	631.8	636.9	633.3	619.2	588.7	533.3	480.8	431.6	375.7	332.1	291.6	259.7	230.2	206.7	171.5	143.2	119.6	99.20	84.44	69.58	57.70	55.59	74.14	144.4	341.5	1968	9999.9	9999.9	9247	33.82	20.94	15.03	12.48	10.46	9.540	8.777	7.923	7.826	7.089	6.833	6.329	6.221	6.052	5.916	5.657	5.629	5.380	5.385	5.280	4.940	5.385
490.0	625.8	691.9	751.6	962.2	4593	9923	2444	882.8	887.8	881.7	880.1	845.3	786.8	722.8	665.7	615.0	577.8	560.6	555.1	549.2	551.6	554.7	566.0	571.8	573.7	574.7	568.4	574.4	575.0	563.2	535.4	490.8	444.0	400.7	354.2	312.9	278.3	245.8	217.0	195.6	173.2	145.6	120.6	102.2	85.53	71.77	59.43	51.63	49.29	60.41	100.8	464.1	2519	8587	9999.9	8425	830.6	24.17	15.86	12.03	10.59	9.242	7.978	7.666	7.085	6.693	6.319	6.014	5.798	5.620	5.118	5.331	5.130	5.070	4.704	4.718	5.160
495.0	550.8	624.1	661.9	727.1	1601	8044	7974	994.5	798.9	808.2	791.8	761.1	709.1	649.7	600.2	547.2	516.5	498.2	488.7	480.6	484.4	487.7	495.4	501.8	508.4	504.4	502.9	507.6	509.0	501.8	480.9	445.3	404.3	366.4	326.5	294.0	258.7	230.9	205.9	182.0	165.2	145.6	122.4	100.9	86.13	73.68	60.64	52.38	44.90	41.58	46.94	126.3	583.2	1945	4978	9999.9	9999.9	250.1	24.43	14.52	12.02	9.990	8.574	7.694	6.846	6.556	6.078	5.945	5.477	5.420	4.801	4.951	4.705	4.654	4.394	4.342	4.577
500.0	487.1	550.5	617.4	628.0	843.8	4000	9999.9	2240	740.8	737.0	732.1	697.5	650.0	590.0	544.6	497.7	465.2	449.5	442.3	439.9	432.4	439.3	446.7	449.8	455.9	454.6	454.1	456.5	464.2	458.3	437.1	407.9	371.8	335.9	304.6	271.8	243.0	219.7	196.0	172.2	154.9	141.1	123.0	100.6	86.24	73.03	61.28	52.30	44.17	37.44	35.02	50.68	150.3	454.9	1170	6801	9999.9	9999.9	204.4	19.44	13.41	10.98	9.164	7.964	6.950	6.183	5.564	5.580	5.187	5.366	4.752	4.857	4.226	4.166	4.159	3.987	3.958
505.0	452.5	504.8	538.9	568.2	618.0	1586	9999.9	5889	715.5	671.6	677.2	639.2	589.0	540.8	492.3	455.9	421.7	410.2	400.3	398.6	392.8	396.0	402.9	407.5	410.5	410.7	408.7	413.6	416.5	418.6	399.2	374.3	343.7	312.2	281.8	254.4	228.5	206.5	185.7	163.8	145.8	131.9	119.3	99.67	84.39	71.72	61.58	52.36	43.76	36.93	31.89	33.80	53.80	121.7	283.5	1637	9999.9	9999.9	9999.9	35.93	17.02	11.92	9.786	8.055	6.926	6.055	5.711	5.312	5.197	4.800	4.470	4.707	4.229	4.449	3.935	3.830	3.724
510.0	403.5	436.2	473.9	518.6	528.3	770.3	4859	9999.9	1844	603.5	598.6	568.5	523.8	476.5	433.3	398.4	369.4	357.1	350.6	346.1	341.3	342.4	352.4	352.6	355.3	356.4	353.6	362.1	363.9	365.3	352.0	329.4	302.5	275.6	251.5	229.3	205.8	186.3	168.8	151.5	133.6	119.7	108.8	98.06	83.18	69.46	59.44	50.44	42.61	36.39	31.73	29.17	31.58	45.91	82.13	385.7	2409	7912	9999.9	9304	841.4	19.83	11.53	9.283	7.639	6.305	5.729	5.211	4.863	4.447	4.160	4.179	3.866	3.803	3.749	3.506	3.647
515.0	350.2	366.0	400.5	454.0	472.5	523.5	1511	9093	7903	689.9	531.7	497.6	463.3	413.9	374.0	344.9	322.4	309.1	300.4	296.2	296.5	294.5	302.3	302.0	301.9	307.1	307.4	308.9	312.9	313.4	304.7	285.8	263.5	242.7	220.4	202.6	181.8	165.9	152.1	135.3	121.3	107.5	97.14	88.58	81.37	68.67	56.52	48.52	41.96	36.27	30.67	27.56	25.99	27.88	35.93	103.5	554.3	1786	3950	9999.9	9999.9	254.7	18.63	10.65	8.271	7.219	6.174	5.259	4.666	4.519	4.114	3.806	3.564	3.381	3.436	3.020	3.555
520.0	316.6	334.0	368.8	399.8	443.1	432.3	667.7	4539	9999.9	1758	481.0	453.3	413.8	376.7	338.0	311.6	287.0	274.7	270.8	264.3	261.6	261.3	265.1	270.0	267.6	273.0	272.9	275.4	279.9	280.7	272.7	254.0	235.8	216.9	199.9	183.4	167.3	152.8	138.2	125.0	112.3	100.3	88.13	81.13	76.23	67.30	54.91	47.16	39.42	34.65	29.80	26.84	24.41	23.15	24.72	40.17	140.1	415.5	918.9	5332	9999.9	9999.9	207.6	14.20	9.499	7.547	6.129	5.410	4.594	4.357	4.160	3.724	3.293	3.307	3.238	2.886	2.927
525.0	277.6	312.9	328.4	350.0	398.3	390.4	455.8	1637	9999.9	5740	461.9	414.2	376.5	346.7	307.6	276.8	258.9	249.5	240.9	237.3	232.6	234.5	238.8	238.4	243.1	243.0	242.5	246.1	253.6	250.1	245.0	230.6	213.4	196.5	182.6	166.4	152.5	140.2	127.2	116.8	105.0	94.64	83.61	74.83	70.83	63.92	54.37	44.76	37.93	32.22	29.27	26.23	23.10	21.91	21.35	24.52	47.01	108.3	221.8	1268	7475	9999.9	8668	34.02	12.19	8.200	6.525	5.685	4.760	4.175	3.845	3.515	3.362	3.188	2.950	2.914	2.837
530.0	238.8	273.2	278.3	297.0	337.5	354.9	364.6	649.3	5466	9999.9	1408	361.7	332.8	298.7	266.9	242.2	227.2	214.7	210.0	204.4	200.6	204.7	206.2	205.7	208.8	209.1	209.3	210.7	215.5	215.4	211.4	199.8	186.2	171.4	158.5	146.9	134.1	123.5	112.6	103.3	93.13	84.05	75.19	67.28	61.90	57.36	52.24	43.13	36.11	30.63	27.45	24.57	21.72	21.01	19.77	19.87	24.52	38.09	63.56	297.5	1781	6379	9999.9	8995	807.6	16.05	8.029	6.180	4.945	4.373	3.962	3.376	3.389	3.167	2.843	2.769	2.655
535.0	198.0	231.3	243.1	255.0	275.9	311.7	313.5	384.4	1553	9999.9	8176	406.3	282.0	255.9	228.1	208.9	194.0	181.9	178.1	174.7	171.6	171.6	173.5	173.6	175.3	177.3	176.7	178.8	182.5	183.1	180.1	169.8	161.0	147.6	134.3	126.0	116.9	107.6	99.30	90.08	81.01	73.99	67.08	59.62	54.63	50.06	47.05	41.65	34.16	28.80	25.16	22.85	20.68	19.20	18.67	17.75	18.23	21.22	26.00	77.80	408.9	1437	3341	9999.9	9999.9	258.0	14.35	7.573	5.320	4.830	4.154	3.377	3.086	2.772	2.569	2.701	2.381
540.0	190.5	209.3	210.8	224.5	237.3	278.1	280.6	294.8	570.6	5214	9999.9	1179	254.2	226.3	204.9	182.5	168.5	161.2	154.6	154.1	150.9	150.8	151.3	151.7	152.6	153.7	153.7	156.8	157.6	161.1	156.4	149.4	141.6	130.8	118.8	111.8	103.3	96.60	88.03	79.56	72.62	67.36	60.90	54.13	49.07	44.79	41.17	39.25	33.02	27.09	23.47	21.79	19.60	17.97	18.03	16.82	16.38	17.22	17.02	28.70	101.8	332.4	769.2	4259	9999.9	9736	38.06	10.58	6.853	5.171	4.286	3.940	3.251	2.712	2.464	2.472	2.382
545.0	183.0	185.6	197.5	200.9	208.8	241.4	262.7	252.1	323.8	1755	9999.9	4709	239.5	203.4	181.1	162.0	149.4	143.2	136.8	136.2	131.3	132.5	133.8	133.2	135.0	135.1	135.4	137.8	138.9	142.0	138.4	131.2	123.4	114.8	106.4	99.26	91.98	86.83	78.53	72.36	65.70	60.17	54.03	48.85	44.28	40.21	36.76	35.06	31.73	26.22	22.46	19.95	17.90	17.00	16.62	15.61	15.21	15.01	14.00	16.56	32.42	84.63	182.9	997.7	5665	9999.9	2212	33.47	9.079	5.934	4.286	3.785	3.174	2.938	2.594	2.358	2.182
550.0	154.7	165.1	161.0	170.1	174.7	192.1	228.3	222.8	234.2	569.0	5785	9999.9	869.3	176.5	155.0	139.9	127.3	121.7	115.1	113.1	109.6	110.3	110.1	110.7	111.1	112.6	111.8	113.6	116.2	117.4	115.0	109.2	102.9	94.76	88.54	83.17	76.54	72.00	65.14	61.05	55.58	50.91	45.96	41.90	38.79	34.79	31.41	28.58	27.48	24.04	20.39	17.49	16.08	15.02	14.57	14.34	13.81	13.21	12.61	12.84	15.97	27.58	49.71	232.1	1330	4816	9999.9	6729	769.6	13.45	5.763	4.324	3.478	3.021	2.570	2.247	2.123
555.0	143.0	149.7	139.4	138.2	136.2	153.7	178.7	198.1	183.3	266.6	1539	9999.9	6348	176.6	129.6	116.8	104.4	98.26	95.24	92.08	89.35	89.45	90.53	89.10	91.30	90.62	91.17	90.83	92.98	94.71	92.97	88.64	82.79	76.81	71.43	68.14	62.54	58.66	54.65	50.32	46.69	42.35	38.91	35.02	32.38	29.78	26.55	23.38	22.42	20.61	19.27	15.97	13.89	13.13	12.69	12.52	11.80	11.78	11.32	10.81	11.21	13.56	18.43	58.85	304.2	1082	2856	9536	9010	263.2	11.39	5.351	3.828	3.037	2.483	2.166	1.995
560.0	129.6	136.3	120.6	117.0	124.4	125.4	147.5	179.5	162.2	179.1	472.0	5761	9999.9	640.7	115.1	100.2	90.70	84.09	81.36	78.10	77.38	75.94	76.27	75.74	75.83	75.22	75.59	77.40	77.35	79.54	78.84	74.82	69.95	64.87	60.46	56.48	53.55	49.49	46.14	42.39	39.68	36.67	33.95	30.92	27.67	25.22	22.97	20.84	18.97	18.07	17.60	15.20	13.09	11.73	11.66	11.46	10.89	10.78	10.33	9.767	9.681	9.581	10.95	19.78	74.84	248.5	650.7	3282	9999.9	6508	38.63	7.697	4.235	3.217	2.928	2.407	1.996
565.0	121.4	113.7	113.5	107.1	112.0	115.6	126.7	154.8	150.4	147.3	220.5	1917	9999.9	3202	108.4	86.34	80.97	73.22	69.97	65.84	66.99	64.45	64.79	64.12	64.84	65.76	64.60	66.27	67.11	67.79	67.08	64.29	59.23	56.44	52.46	48.71	45.92	42.78	39.48	36.48	33.69	31.06	28.70	26.23	24.93	22.00	20.57	18.27	16.50	15.18	14.85	14.07	11.90	10.67	10.35	10.15	9.940	9.742	8.819	8.986	8.799	8.011	8.564	10.86	22.90	62.15	152.8	756.4	4029	9999.9	2237	33.65	5.863	3.592	2.856	2.286	2.046
570.0	116.4	114.3	106.1	96.35	92.18	94.82	103.9	123.1	139.7	128.8	150.2	546.4	6554	9999.9	483.5	77.28	68.67	61.75	58.27	54.94	55.25	52.81	53.15	52.98	52.94	52.89	52.50	54.20	54.99	55.05	54.13	52.24	48.92	45.93	42.97	40.37	37.86	35.38	32.52	30.53	27.51	26.01	23.56	22.06	20.39	18.88	16.99	15.82	14.09	12.71	12.08	12.08	10.73	9.883	8.922	8.830	8.476	8.374	7.738	8.051	7.657	7.401	7.443	7.805	10.68	19.52	40.37	175.6	932.8	3664	6366	4395	156.3	10.06	3.599	2.551	2.130
575.0	104.4	116.4	104.5	88.77	78.85	81.15	86.82	97.20	130.3	126.5	126.1	217.7	1747	9999.9	4578	80.46	57.04	50.23	47.75	45.37	44.37	43.08	42.70	42.11	42.07	42.29	42.18	42.07	44.12	43.65	43.82	41.80	38.85	36.90	34.22	31.75	30.62	28.80	27.14	24.12	22.53	21.02	20.10	18.18	17.05	15.59	14.20	13.10	11.96	10.80	9.847	10.23	9.745	9.029	7.927	7.405	7.296	7.107	6.719	6.881	6.664	6.719	6.521	6.567	7.210	9.769	14.44	45.05	213.3	822.4	1728	5504	5535	252.8	8.008	3.085	2.190
580.0	110.3	124.1	104.2	86.17	76.47	70.11	78.05	84.51	118.7	133.1	125.7	147.9	487.8	6345	9060	127.3	51.81	45.96	42.17	39.65	38.55	36.55	36.59	36.52	35.72	35.36	36.25	36.26	37.75	36.87	36.69	35.17	33.21	31.48	28.46	27.47	26.31	24.20	22.63	20.56	19.83	17.94	17.26	15.66	14.76	13.36	12.32	11.40	10.04	9.428	8.482	8.330	8.296	7.864	7.524	6.747	6.513	6.329	6.318	6.338	5.920	6.410	5.971	5.956	6.147	6.809	8.057	15.06	52.59	188.5	393.0	1813	6278	2377	37.74	4.738	2.737
585.0	125.3	124.5	113.7	90.70	69.69	67.53	72.63	80.69	105.4	135.1	123.8	136.3	206.3	2194	9999.9	884.6	49.62	40.29	37.83	35.37	33.78	32.20	32.12	31.67	31.25	30.24	30.33	32.18	31.94	31.74	31.29	30.18	28.51	27.19	25.29	23.96	22.85	20.88	19.38	18.28	17.25	15.69	15.27	13.89	12.98	11.88	11.04	10.00	9.181	8.453	7.652	7.214	7.125	7.240	7.354	6.226	6.134	5.516	5.485	5.550	5.242	5.291	5.449	5.401	5.510	5.642	6.171	8.069	16.14	46.58	92.09	416.6	2378	5646	2100	31.78	3.943
590.0	130.4	137.8	122.0	92.78	69.28	63.99	66.68	73.08	92.41	129.6	140.9	136.9	145.9	593.5	6530	7662	272.7	37.56	32.86	29.99	28.71	27.11	26.82	26.99	26.52	25.46	25.28	25.66	26.27	26.30	25.55	24.66	23.41	21.76	20.78	19.77	18.36	17.52	16.06	15.22	14.40	13.00	12.46	11.46	11.06	10.14	9.418	8.609	7.783	6.993	6.501	6.083	5.837	5.872	6.472	5.992	5.390	4.980	4.890	4.795	4.754	4.623	4.569	4.631	4.753	4.670	4.940	5.499	7.424	14.09	23.86	96.45	545.2	2014	3927	2996	161.2
595.0	131.7	135.7	124.0	97.61	69.30	61.17	59.47	68.72	84.50	116.0	154.1	144.9	136.3	217.6	1737	9999.9	2667	38.47	29.56	26.37	24.82	22.33	22.27	21.72	21.43	21.17	21.10	21.06	21.40	22.02	20.71	19.71	18.76	18.23	16.87	16.06	15.30	14.25	13.65	12.57	11.61	10.23	10.55	9.523	9.249	8.387	7.921	7.281	6.504	6.298	5.494	5.170	4.651	4.770	5.077	5.532	5.076	4.653	4.130	4.200	3.890	4.051	3.816	4.028	4.270	4.034	4.024	4.310	4.730	6.141	8.254	24.34	123.7	451.1	1027	3224	2510
600.0	132.7	145.6	131.1	96.40	66.07	55.66	56.77	70.69	83.20	111.1	156.8	153.8	144.3	137.9	456.4	6253	6372	82.85	27.53	23.62	21.69	19.77	20.13	18.45	18.24	18.53	17.50	18.32	18.63	19.16	18.35	17.40	16.90	15.97	15.27	13.90	13.30	12.35	12.08	11.10	10.39	9.244	8.873	8.503	7.928	7.441	6.953	6.357	6.151	5.220	4.984	4.753	4.214	4.405	4.231	4.892	4.539	4.258	3.706	3.895	3.502	3.699	3.362	3.335	3.692	3.478	3.836	3.903	3.603	3.737	4.364	7.640	29.79	103.0	232.5	1021	3489
605.0	136.4	146.2	139.8	96.53	65.89	51.94	55.10	67.01	84.30	106.1	152.9	166.5	148.9	120.9	164.8	2255	9688	616.0	26.00	22.12	19.07	18.19	17.76	16.47	16.30	15.98	15.79	16.53	16.20	16.67	16.42	15.44	15.18	14.12	13.32	12.25	11.74	10.71	10.59	8.944	8.729	8.635	7.916	7.355	6.900	6.523	6.028	5.964	5.201	4.495	4.398	3.971	3.869	3.592	3.692	4.006	4.284	4.050	3.727	3.425	3.099	3.309	3.113	2.976	3.392	3.057	3.507	3.245	3.117	3.186	3.181	3.845	8.570	24.84	54.00	233.5	1307
610.0	140.9	155.5	143.0	99.72	66.23	53.15	54.13	65.21	86.21	111.0	150.9	181.0	158.7	124.6	100.9	575.7	6184	5267	59.49	20.03	17.42	16.06	15.59	14.30	14.03	13.69	13.14	13.46	13.61	13.83	14.07	13.24	13.11	12.40	12.08	11.10	10.45	9.497	8.706	7.715	7.377	7.118	6.497	6.075	6.093	5.445	5.372	4.930	4.623	4.089	3.782	3.500	3.415	3.213	3.224	3.358	3.647	3.624	3.310	2.976	2.800	2.868	2.591	2.826	2.845	2.879	3.148	3.072	2.753	2.603	2.529	2.618	3.582	7.177	13.55	53.95	299.1
615.0	148.7	155.9	142.5	104.6	67.57	50.97	51.61	64.33	82.93	111.3	148.0	178.2	168.2	132.6	88.66	167.5	1702	7946	636.2	21.19	15.62	14.11	12.79	12.41	11.94	12.00	10.98	11.31	11.39	11.33	11.75	10.96	10.74	10.64	10.42	9.550	8.862	8.176	7.130	6.264	6.440	5.652	5.454	5.126	4.884	4.834	4.426	4.137	3.907	3.652	3.132	3.182	3.065	2.613	2.773	2.897	2.921	3.086	3.046	2.741	2.459	2.337	2.363	2.671	2.631	2.465	2.752	2.556	2.505	2.366	2.143	2.170	2.113	2.913	4.273	13.29	67.95
620.0	144.8	158.9	146.0	100.4	62.44	52.60	50.60	66.96	85.25	110.8	145.6	177.9	181.4	132.8	91.29	76.63	420.1	5451	4402	49.14	15.17	12.90	11.54	11.02	10.66	10.35	9.668	9.743	9.824	9.818	10.03	9.804	9.632	8.829	8.755	8.062	7.705	6.702	6.317	5.704	5.664	4.752	4.843	4.512	4.287	4.403	3.882	3.928	3.489	3.271	2.785	2.797	2.432	2.440	2.335	2.538	2.404	2.520	2.630	2.532	2.289	2.281	2.290	2.438	2.438	2.321	2.512	2.453	2.303	2.285	2.097	1.954	1.680	1.896	1.984	4.085	16.34
625.0	134.3	167.5	146.8	97.56	62.69	53.14	55.30	64.74	87.83	113.4	144.4	169.6	188.0	140.0	93.64	58.40	119.9	2117	7433	400.5	15.78	13.16	11.60	10.27	9.751	9.225	8.632	8.846	8.610	8.423	8.217	8.186	8.062	7.520	7.217	7.268	6.442	6.141	5.407	4.984	4.809	4.405	4.361	4.195	4.114	3.768	3.692	3.599	3.250	2.982	2.709	2.490	2.156	2.148	2.210	2.231	2.247	2.032	2.391	2.508	2.414	1.993	1.948	2.207	2.301	2.244	2.309	2.436	2.177	2.185	1.977	1.902	1.565	1.566	1.506	1.838	4.613
630.0	133.4	163.5	150.8	97.80	65.20	49.56	53.81	63.19	87.49	110.8	147.4	171.2	181.9	150.5	97.53	54.19	52.55	528.1	5242	3478	40.75	12.79	10.67	8.996	8.598	7.797	7.789	7.658	7.381	7.232	6.965	6.666	6.686	6.417	5.918	6.019	5.441	5.103	4.619	4.442	4.394	3.750	3.573	3.578	3.534	3.381	3.383	3.164	2.830	2.498	2.321	2.235	1.982	2.005	1.996	2.027	1.945	1.851	2.046	2.103	2.288	2.042	1.868	1.936	1.997	1.962	2.062	2.000	1.931	2.051	1.897	1.763	1.636	1.485	1.293	1.259	1.935
635.0	136.0	169.6	152.0	96.89	61.38	47.69	52.15	63.94	86.77	112.3	149.3	167.7	175.1	159.1	105.3	56.66	37.11	135.8	1508	6351	504.7	14.17	10.04	8.841	7.867	6.973	6.587	6.657	6.392	6.348	6.148	6.103	5.744	5.430	5.221	4.904	4.625	4.305	4.033	3.973	3.743	3.444	3.147	3.182	3.197	2.877	2.937	2.980	2.593	2.285	2.024	1.954	1.949	1.735	1.855	1.797	1.799	1.879	1.759	1.856	1.815	1.840	1.904	1.792	1.847	1.932	1.873	1.749	1.830	1.796	1.720	1.494	1.395	1.436	1.157	0.997	1.334
640.0	136.0	173.0	153.2	102.2	59.14	44.35	51.42	65.35	82.58	110.4	145.3	168.2	172.4	157.4	109.7	59.94	33.79	46.10	367.5	4791	3196	31.05	10.15	8.474	7.756	6.729	5.947	5.953	5.915	5.858	5.484	5.349	4.975	4.764	4.377	4.438	4.398	3.893	3.501	3.425	3.275	3.312	2.913	2.701	2.838	2.738	2.632	2.797	2.449	2.181	2.121	1.906	1.659	1.764	1.657	1.637	1.603	1.765	1.646	1.598	1.634	1.615	1.743	1.731	1.621	1.796	1.684	1.732	1.583	1.628	1.713	1.485	1.485	1.415	1.087	0.941	1.074
645.0	137.9	186.1	161.4	96.08	58.51	46.69	49.23	63.76	82.75	110.4	140.4	166.4	169.9	151.6	113.8	60.38	33.77	26.67	97.07	2021	5692	278.1	10.89	8.236	7.224	6.403	5.639	5.500	5.314	5.355	5.182	4.736	4.678	4.277	4.009	4.084	3.815	3.349	3.426	3.024	2.920	3.102	2.921	2.573	2.526	2.488	2.377	2.511	2.495	1.926	1.825	1.726	1.543	1.660	1.608	1.496	1.599	1.601	1.521	1.452	1.519	1.736	1.583	1.734	1.594	1.531	1.565	1.586	1.574	1.560	1.555	1.447	1.384	1.322	1.142	0.940	1.027
650.0	145.8	170.5	156.0	104.6	61.11	46.34	48.07	59.86	78.79	110.3	140.3	162.7	167.4	149.1	115.1	60.60	35.25	22.57	35.49	555.5	5601	1658	13.79	8.083	7.270	5.917	5.598	5.477	5.015	5.000	4.655	4.560	4.250	4.062	3.426	3.572	3.493	3.347	3.055	2.726	2.677	2.493	2.775	2.281	2.320	2.317	2.412	2.381	2.205	1.979	1.681	1.720	1.552	1.569	1.452	1.416	1.419	1.462	1.308	1.354	1.353	1.496	1.378	1.730	1.538	1.428	1.534	1.395	1.388	1.643	1.419	1.369	1.257	1.291	1.015	0.861	0.830
