Sample:	'1
File name:	7ÔÂ11ÈÕ 00.00 5±¶.FD3
Run date:	'09:46:06, 07/14/2025
Operator:	Administrator
Comment:	'

Instrument
Model:	F-2700 FL Spectrophotometer
Serial number:	23B8-004
ROM Version:	4J14000 07

Instrument parameters
Measurement type:	3-D scan
Data mode:	Fluorescence
EX  Start WL:	220.0 nm
EX  End WL:	600.0 nm
EX Sampling interval:	5.0 nm
EM  Start WL:	230.0 nm
EM  End WL:	650.0 nm
EM Sampling interval:	5.0 nm
Scan speed:	12000 nm/min
EX Slit:	5.0 nm
EM Slit:	5.0 nm
PMT Voltage:	700 V
Response:	Auto 
Corrected spectra:	Off
Contour interval:	50.000

Peak integration
Integration method:	Rectangular
Sensitivity:	1
Threshold:	1.000

Peaks
No.	ApexEX/EM(nm)	Height(Data)
1	225.0/600.0	34.93
2	225.0/625.0	31.95
3	230.0/345.0	2701
4	230.0/620.0	32.59
5	245.0/270.0	456.5
6	250.0/545.0	264.4
7	255.0/280.0	651.9
8	255.0/445.0	2016
9	255.0/560.0	190.9
10	260.0/290.0	612.6
11	260.0/575.0	144.4
12	265.0/295.0	787.9
13	265.0/585.0	121.9
14	270.0/300.0	1066
15	270.0/600.0	107.6
16	275.0/305.0	1137
17	275.0/430.0	2373
18	275.0/610.0	93.42
19	280.0/315.0	1100
20	280.0/345.0	1284
21	280.0/625.0	83.59
22	285.0/320.0	1198
23	285.0/635.0	63.49
24	290.0/325.0	1137
25	315.0/355.0	693.5
26	320.0/365.0	676.7
27	325.0/370.0	663.6
28	325.0/415.0	1207
29	330.0/375.0	643.2
30	330.0/420.0	1209
31	475.0/345.0	8.202
32	485.0/265.0	2.246
33	495.0/270.0	2.256
34	505.0/275.0	3.581
35	510.0/280.0	4.114
36	510.0/450.0	8.204
37	515.0/285.0	4.204
38	530.0/290.0	3.752
39	540.0/295.0	4.618
40	545.0/300.0	5.303
41	550.0/305.0	5.912
42	560.0/310.0	5.636
43	565.0/420.0	6.988
44	570.0/315.0	5.450
45	575.0/425.0	6.775
46	580.0/320.0	5.895
47	585.0/325.0	5.883

Data points
	220.0	225.0	230.0	235.0	240.0	245.0	250.0	255.0	260.0	265.0	270.0	275.0	280.0	285.0	290.0	295.0	300.0	305.0	310.0	315.0	320.0	325.0	330.0	335.0	340.0	345.0	350.0	355.0	360.0	365.0	370.0	375.0	380.0	385.0	390.0	395.0	400.0	405.0	410.0	415.0	420.0	425.0	430.0	435.0	440.0	445.0	450.0	455.0	460.0	465.0	470.0	475.0	480.0	485.0	490.0	495.0	500.0	505.0	510.0	515.0	520.0	525.0	530.0	535.0	540.0	545.0	550.0	555.0	560.0	565.0	570.0	575.0	580.0	585.0	590.0	595.0	600.0
230.0	58.57	1969	5289	1532	54.73	7.017	5.674	4.690	4.009	3.863	3.502	3.716	3.441	3.057	2.819	3.048	2.055	1.845	1.612	1.661	1.282	1.355	1.139	1.163	0.969	0.884	0.882	0.938	0.682	0.632	0.650	0.617	0.602	0.533	0.605	0.511	0.437	0.399	0.397	0.327	0.475	0.557	0.590	0.366	0.293	0.298	1.861	8.557	14.93	10.06	3.865	0.655	0.190	0.183	0.158	0.202	0.208	0.150	0.171	0.137	0.153	0.150	0.146	0.140	0.156	0.134	0.130	0.133	0.117	0.112	0.135	0.119	0.148	0.099	0.111	0.118	0.118
235.0	117.1	521.1	3340	4870	645.9	90.97	7.661	6.200	4.073	4.601	3.998	3.382	3.791	3.695	3.007	3.369	2.072	1.884	1.618	1.730	1.398	1.591	1.218	1.298	1.090	0.971	0.901	0.842	0.703	0.598	0.721	0.652	0.653	0.701	0.458	0.521	0.411	0.392	0.447	0.351	0.344	0.388	0.545	0.660	0.598	0.388	0.645	2.298	5.787	10.40	15.59	16.23	5.918	1.131	0.211	0.246	0.229	0.210	0.181	0.139	0.143	0.155	0.128	0.144	0.159	0.143	0.123	0.147	0.120	0.147	0.145	0.119	0.149	0.108	0.091	0.094	0.116
240.0	188.4	213.0	985.3	4199	4900	523.4	35.58	7.985	5.467	5.502	5.599	3.446	4.406	3.842	3.676	3.438	2.393	2.056	1.555	1.942	1.441	1.641	1.279	1.133	1.158	0.973	0.944	0.891	0.736	0.625	0.699	0.648	0.654	0.489	0.550	0.610	0.442	0.495	0.347	0.277	0.309	0.302	0.357	0.519	0.717	0.801	0.612	0.772	1.520	3.252	9.265	22.42	20.95	13.77	4.410	0.609	0.289	0.228	0.251	0.161	0.150	0.164	0.106	0.158	0.137	0.132	0.148	0.116	0.134	0.164	0.163	0.112	0.169	0.134	0.115	0.134	0.110
245.0	147.0	262.8	292.1	1445	5989	4157	389.8	15.92	7.843	7.027	6.575	5.111	4.754	4.079	3.438	3.645	2.530	2.209	1.912	1.766	1.549	1.513	1.126	1.258	1.198	1.058	0.866	0.963	0.636	0.689	0.672	0.622	0.590	0.576	0.482	0.521	0.453	0.519	0.481	0.336	0.350	0.380	0.318	0.443	0.450	0.719	0.901	0.880	0.658	1.040	2.377	7.867	16.22	26.08	24.65	12.78	2.856	0.462	0.214	0.208	0.161	0.169	0.110	0.139	0.160	0.147	0.142	0.150	0.120	0.111	0.128	0.148	0.156	0.142	0.140	0.119	0.121
250.0	67.03	189.3	313.2	434.5	1976	5242	5865	1461	83.88	10.79	8.675	6.716	6.079	4.220	3.693	4.374	2.795	2.372	2.047	1.831	1.626	1.577	1.392	1.346	1.258	0.981	1.059	0.914	0.798	0.816	0.786	0.700	0.615	0.547	0.583	0.600	0.476	0.393	0.460	0.348	0.372	0.359	0.345	0.385	0.333	0.417	0.597	0.993	1.180	0.977	1.030	2.039	4.075	9.099	17.06	23.54	28.61	20.34	11.00	2.957	0.423	0.229	0.172	0.169	0.140	0.131	0.152	0.176	0.097	0.135	0.149	0.145	0.145	0.122	0.121	0.079	0.145
255.0	44.69	72.58	238.9	405.5	540.3	1364	5459	9941	1977	91.76	12.00	9.640	8.192	5.319	4.115	5.473	2.992	2.754	2.117	2.013	1.556	1.778	1.463	1.470	1.296	1.133	1.156	0.992	0.902	0.862	0.864	0.777	0.681	0.548	0.646	0.630	0.466	0.429	0.473	0.361	0.348	0.366	0.416	0.418	0.319	0.302	0.440	0.450	0.606	1.019	1.618	1.797	1.357	2.220	4.059	5.889	12.19	28.24	45.69	29.96	18.64	2.546	0.353	0.192	0.192	0.193	0.195	0.190	0.123	0.176	0.142	0.167	0.116	0.126	0.155	0.082	0.208
260.0	39.63	37.27	96.66	353.1	401.7	363.7	1714	9041	9963	1489	47.35	12.11	10.14	6.732	5.503	5.808	3.248	3.368	2.332	2.101	1.922	1.749	1.518	1.417	1.320	1.329	1.115	1.026	0.849	0.943	1.013	0.764	0.692	0.621	0.565	0.555	0.428	0.529	0.452	0.396	0.491	0.466	0.406	0.449	0.342	0.291	0.303	0.313	0.382	0.501	1.105	2.254	2.009	1.161	1.184	1.605	3.103	8.175	22.06	42.69	66.96	27.53	11.07	1.255	0.262	0.185	0.202	0.252	0.223	0.187	0.171	0.178	0.135	0.155	0.140	0.124	0.139
265.0	36.77	33.94	41.62	168.6	465.6	288.3	429.2	3231	9999.9	9999.9	251.0	23.75	14.71	8.641	7.787	7.106	3.535	3.357	2.523	2.346	2.368	2.053	1.671	1.681	1.191	1.224	1.168	1.227	0.842	0.985	0.965	0.863	0.750	0.652	0.594	0.665	0.459	0.550	0.453	0.360	0.428	0.462	0.390	0.463	0.452	0.313	0.266	0.258	0.351	0.312	0.497	1.143	2.063	2.246	1.484	0.789	1.060	2.027	5.473	13.33	40.90	57.45	56.47	22.37	6.276	0.554	0.275	0.344	0.220	0.206	0.173	0.194	0.223	0.172	0.153	0.175	0.213
270.0	57.63	37.82	35.82	60.69	230.1	456.5	338.6	790.7	3545	9999.9	9999.9	955.5	71.03	14.02	10.21	9.368	4.790	4.878	2.854	2.878	2.503	2.380	1.903	2.028	1.462	1.569	1.397	1.316	1.074	1.137	0.992	0.972	0.870	0.821	0.717	0.684	0.522	0.557	0.613	0.460	0.395	0.445	0.448	0.466	0.486	0.407	0.297	0.317	0.333	0.300	0.271	0.524	0.826	1.400	2.176	2.256	2.158	1.202	1.612	3.302	9.866	17.71	31.38	45.62	46.01	44.88	15.65	6.164	0.509	0.259	0.223	0.241	0.258	0.201	0.175	0.217	0.205
275.0	96.77	63.11	49.58	44.34	74.81	221.4	602.3	424.9	843.3	2663	9999.9	9999.9	1429	68.28	15.92	14.58	6.544	5.711	3.979	3.341	2.912	2.717	1.954	2.065	1.696	1.690	1.627	1.330	1.171	1.224	1.029	1.044	0.940	0.916	0.893	0.835	0.590	0.546	0.541	0.450	0.381	0.558	0.441	0.496	0.541	0.504	0.405	0.419	0.476	0.389	0.325	0.393	0.453	0.496	0.765	1.449	2.759	3.581	2.378	1.341	2.592	4.310	7.402	10.97	16.29	40.19	77.51	88.20	24.19	6.257	0.423	0.367	0.266	0.264	0.267	0.161	0.209
280.0	137.6	106.0	78.48	48.42	49.59	83.72	401.0	651.9	340.3	666.9	3143	9999.9	9999.9	984.0	41.03	20.39	8.520	6.823	4.190	4.142	3.152	3.313	2.453	2.181	1.738	1.744	1.571	1.436	1.193	1.072	1.034	1.037	1.060	0.975	1.094	0.968	0.719	0.833	0.632	0.649	0.554	0.550	0.618	0.627	0.566	0.637	0.546	0.590	0.550	0.434	0.395	0.410	0.422	0.340	0.451	0.701	1.244	2.718	4.114	3.212	1.724	1.379	1.995	3.023	4.285	10.43	30.44	76.35	88.88	34.49	18.80	2.520	0.365	0.339	0.251	0.270	0.239
285.0	168.2	138.7	116.9	74.32	50.95	53.83	164.9	627.4	389.3	268.3	812.1	4139	9999.9	9551	145.0	34.77	11.58	9.445	5.116	4.588	3.437	3.457	2.656	2.445	2.015	1.640	1.687	1.643	1.304	1.136	1.133	1.078	0.995	1.035	1.318	1.013	0.686	0.744	0.627	0.768	0.552	0.615	0.720	0.672	0.724	0.755	0.645	0.788	0.669	0.596	0.463	0.424	0.448	0.317	0.488	0.467	0.662	1.160	2.435	4.204	4.136	2.134	1.040	1.242	1.470	2.895	7.467	20.75	43.11	77.81	96.27	31.19	11.64	0.902	0.397	0.277	0.270
290.0	215.7	199.0	171.5	107.9	73.24	63.19	93.12	268.8	612.6	560.2	354.1	1085	4523	9999.9	9999.9	2938	41.45	13.75	7.331	6.723	4.774	4.459	3.442	2.834	2.251	1.974	2.117	1.682	1.517	1.295	1.226	1.144	1.107	1.109	1.346	1.142	0.904	0.864	0.906	0.718	0.679	0.648	0.787	0.725	0.839	0.762	0.763	0.951	0.709	0.671	0.502	0.588	0.511	0.464	0.554	0.556	0.588	0.712	1.055	1.687	2.791	3.623	3.752	2.581	1.568	1.435	2.509	5.386	10.52	21.33	41.73	60.00	76.55	60.34	20.11	8.353	0.933
295.0	270.1	261.1	242.2	153.0	101.2	92.94	102.8	151.6	296.2	787.9	712.4	448.5	1185	2699	9999.9	9999.9	784.2	49.05	10.97	9.690	6.185	5.201	4.099	3.530	2.599	2.284	2.483	1.967	1.641	1.692	1.533	1.289	1.152	1.149	1.512	1.446	1.059	0.936	1.072	0.714	0.742	0.782	0.868	0.874	1.009	0.968	0.957	1.102	0.996	0.900	0.655	0.724	0.642	0.568	0.601	0.639	0.766	0.772	0.795	0.911	1.253	1.744	2.432	4.288	4.618	2.875	1.869	2.072	3.110	5.684	10.07	14.14	21.00	39.32	80.08	92.63	29.81
300.0	304.0	301.5	301.7	189.3	137.9	119.6	135.1	168.3	233.2	516.5	1066	603.2	522.6	790.4	3152	9999.9	9999.9	611.0	23.11	12.70	8.229	6.314	4.471	3.928	3.136	2.691	2.654	2.138	1.664	1.748	1.574	1.375	1.422	1.412	1.277	1.400	1.314	1.095	0.948	0.815	0.889	0.890	0.913	0.786	0.903	0.950	0.949	1.385	1.170	1.010	0.790	0.845	0.717	0.650	0.722	0.763	0.833	0.863	1.016	0.978	1.069	1.306	1.766	2.664	4.557	5.303	4.326	2.284	1.868	2.545	3.269	4.042	5.609	10.26	26.08	61.15	92.08
305.0	351.7	368.1	328.3	242.6	180.2	166.2	198.8	245.1	299.8	452.1	940.1	1137	581.9	468.0	925.9	5541	9999.9	5899	86.18	21.02	11.16	7.683	5.705	4.904	3.197	3.275	2.707	2.260	2.191	1.852	1.647	1.652	1.263	1.285	1.327	1.382	1.262	1.094	1.251	0.910	0.955	1.016	0.979	0.904	1.127	1.121	1.093	1.399	1.306	1.069	1.023	1.026	0.898	0.873	0.923	0.917	1.142	1.111	1.201	1.298	1.376	1.662	1.927	2.253	2.915	4.261	5.912	5.112	3.362	2.376	2.116	2.380	2.479	3.510	7.031	15.70	36.22
310.0	377.5	426.3	409.2	297.4	226.4	214.8	262.3	318.4	381.5	502.8	723.2	1107	1091	601.8	509.3	1483	4155	9999.9	9999.9	1909	32.21	11.95	7.628	6.146	4.069	3.626	3.314	2.528	2.322	2.031	1.786	1.865	1.400	1.611	1.571	1.364	1.315	1.218	1.385	1.090	0.977	1.072	1.155	1.069	1.230	1.356	1.391	1.541	1.444	1.237	1.162	1.175	1.235	1.208	1.208	1.272	1.350	1.450	1.584	1.666	1.710	2.066	2.169	2.373	2.786	3.183	4.132	4.827	5.636	5.084	3.590	2.629	2.358	2.439	3.047	4.665	9.271
315.0	434.0	505.0	490.6	344.1	280.3	261.0	317.3	370.6	445.5	543.7	704.4	857.8	1100	1066	550.4	595.8	1140	2593	9499	9999.9	559.1	35.22	11.52	8.116	5.580	4.459	4.128	3.320	2.765	2.472	2.048	1.991	1.714	1.708	1.622	1.604	1.294	1.459	1.376	1.076	1.048	1.071	1.271	1.228	1.346	1.401	1.662	1.814	1.858	1.368	1.401	1.470	1.378	1.306	1.375	1.472	1.619	1.685	1.756	1.892	2.031	2.174	2.392	2.659	2.930	3.040	3.543	4.109	4.217	4.888	5.450	5.390	3.518	2.502	2.342	2.654	3.435
320.0	555.2	689.9	642.0	456.0	338.2	303.5	353.4	424.3	492.7	597.2	739.5	853.6	943.3	1198	854.2	474.4	511.5	740.5	2684	9999.9	9999.9	465.4	22.12	11.23	7.261	5.383	4.361	3.927	3.318	2.801	2.362	2.161	1.888	1.832	1.724	1.645	1.252	1.392	1.379	1.055	1.178	1.123	1.595	1.432	1.672	1.878	2.028	2.213	2.211	1.819	1.742	1.744	1.582	1.545	1.507	1.585	1.798	1.751	2.021	2.124	2.107	2.354	2.872	2.815	3.084	3.309	3.805	3.970	3.834	4.051	4.664	5.851	5.895	4.431	3.006	2.336	2.406
325.0	732.8	1036	1030	740.1	478.4	375.9	404.8	471.1	547.7	674.2	802.4	923.3	953.4	1053	1137	630.3	425.0	358.8	709.2	3645	9999.9	9999.9	67.89	18.10	9.512	7.077	5.371	4.320	3.700	2.991	2.633	2.197	1.779	1.876	1.712	1.604	1.350	1.468	1.372	1.219	1.288	1.332	1.605	1.782	2.105	2.539	2.820	3.384	3.232	3.024	2.528	2.572	2.108	2.014	1.777	1.948	1.965	2.194	2.424	2.260	2.362	2.621	3.132	3.088	3.423	3.693	3.776	4.102	4.126	4.130	4.221	4.683	5.445	5.883	5.158	3.279	2.711
330.0	1096	1595	1719	1401	838.6	542.4	511.6	556.8	637.4	775.7	934.5	1073	1086	1052	1059	976.7	606.6	352.7	331.4	956.5	3648	9999.9	9999.9	1662	29.24	10.35	7.836	5.713	4.226	3.779	3.158	2.720	2.070	2.123	1.967	1.938	1.468	1.593	1.620	1.450	1.607	1.548	1.974	2.190	2.665	3.374	4.005	5.135	5.418	4.924	4.539	4.703	3.491	2.861	2.443	2.484	2.377	2.469	2.678	2.680	2.787	3.010	3.240	3.648	3.886	4.030	4.385	4.602	4.864	4.769	4.773	4.737	4.808	5.271	5.403	5.289	4.614
335.0	1342	1982	2338	1976	1272	784.4	624.5	642.6	718.0	870.3	1046	1180	1200	1147	1034	958.5	936.7	528.8	343.1	435.3	996.6	2578	9294	9999.9	462.6	35.73	12.05	7.815	5.249	4.561	3.884	3.297	2.655	2.318	2.369	2.165	1.724	1.899	1.866	1.538	1.744	1.658	2.212	2.598	3.444	4.049	4.995	6.287	6.727	6.433	6.012	6.740	5.207	4.148	3.372	3.129	2.825	2.833	3.265	3.078	3.091	3.671	3.742	4.276	4.093	4.437	4.798	5.116	5.160	5.138	5.236	5.347	5.388	5.326	4.843	4.633	5.155
340.0	1452	2233	2597	2242	1513	911.6	690.1	698.5	773.5	923.0	1076	1220	1270	1207	1074	922.7	922.4	763.2	423.7	358.2	443.5	762.3	2668	9999.9	9999.9	424.9	27.04	9.768	6.479	5.204	4.026	3.507	2.735	2.430	2.439	2.305	1.831	1.909	1.989	1.694	1.735	1.875	2.410	2.682	3.337	4.435	5.573	7.088	7.957	7.464	7.046	7.531	5.874	5.059	4.070	3.201	3.205	3.145	3.269	3.181	3.488	3.681	4.104	4.567	4.483	4.767	5.146	5.133	5.401	5.639	5.422	5.542	5.707	5.325	5.186	4.665	4.528
345.0	1503	2270	2701	2394	1603	971.2	718.8	734.1	794.2	934.8	1086	1231	1284	1228	1095	915.8	806.9	835.5	582.8	378.2	347.0	386.4	781.7	3384	9999.9	9999.9	344.6	16.12	8.314	6.368	4.571	3.894	3.254	2.619	2.658	2.338	1.826	2.024	1.908	1.685	1.779	2.169	2.352	2.837	3.634	4.531	5.554	7.217	8.078	7.776	7.528	8.202	6.521	5.156	4.112	3.658	3.190	3.112	3.306	3.453	3.701	3.820	4.123	4.553	4.743	4.783	5.271	5.343	5.291	5.454	5.425	5.679	5.528	5.345	5.065	4.854	4.680
350.0	1426	2152	2566	2342	1622	1009	766.0	755.5	809.8	923.3	1067	1182	1227	1194	1077	916.6	765.8	712.9	710.9	540.4	378.6	341.3	395.6	925.0	3250	9916	9585	1486	26.77	9.253	6.442	4.900	3.741	3.207	2.913	2.768	2.006	1.941	2.107	1.765	1.749	1.955	2.306	2.838	3.328	4.441	5.527	6.890	7.661	7.561	7.349	8.118	6.463	5.600	4.487	3.766	3.375	3.308	3.368	3.476	3.679	3.732	4.126	4.435	4.427	4.589	5.003	4.939	5.227	5.540	5.148	5.593	5.329	5.205	5.194	4.712	4.497
355.0	1299	1960	2327	2159	1598	1032	793.3	766.4	814.7	906.5	1032	1125	1161	1129	1037	910.4	769.8	670.6	635.0	693.5	522.5	377.7	345.4	402.0	855.8	2388	7752	9999.9	2270	31.62	9.562	6.342	4.655	3.886	3.140	2.802	2.144	2.056	1.982	1.859	1.994	1.950	2.149	2.707	3.497	4.083	4.825	6.099	7.010	6.835	6.648	7.509	6.207	5.596	4.443	3.751	3.723	3.640	3.426	3.614	3.740	3.838	3.984	4.096	4.106	4.385	5.064	4.732	4.848	5.533	4.713	5.235	4.888	5.327	4.917	4.767	4.732
360.0	1167	1802	2163	2035	1514	1040	804.5	788.7	826.4	890.8	990.3	1086	1109	1084	1009	900.2	779.8	671.9	612.1	655.9	665.3	464.9	360.6	309.8	352.4	638.8	2071	9648	9999.9	400.8	24.27	8.650	5.866	4.626	3.886	2.927	2.203	2.319	2.130	1.857	1.862	2.118	2.151	2.517	3.316	3.892	4.494	5.494	6.617	6.013	6.533	7.155	5.914	5.344	4.388	3.670	3.774	3.737	3.318	3.522	3.788	3.538	3.785	4.492	4.407	4.077	4.736	4.770	4.745	4.954	4.780	5.203	4.911	4.981	4.869	4.604	4.598
365.0	1068	1632	1985	1890	1435	1019	826.2	779.4	824.7	881.9	960.4	1034	1058	1050	976.5	880.3	781.7	696.2	627.0	607.8	676.7	601.5	409.6	315.7	268.2	272.9	546.1	2854	9999.9	9999.9	338.1	15.44	7.410	5.908	4.560	3.416	2.518	2.428	2.227	1.901	2.031	2.135	2.328	2.524	3.127	3.680	4.112	5.169	5.773	5.869	6.124	6.475	5.984	5.432	4.385	3.794	3.881	3.651	3.576	3.652	3.803	3.919	3.820	4.448	4.033	4.285	4.340	4.366	4.649	4.726	4.715	4.684	4.891	4.793	4.625	4.590	4.360
370.0	980.2	1416	1748	1690	1348	1014	839.2	809.0	821.1	869.8	937.8	988.9	1003	984.5	934.5	861.9	786.0	716.8	659.1	624.9	621.4	663.6	560.0	383.0	289.6	226.6	234.2	718.8	2871	8706	9999.9	1466	26.02	8.923	6.622	4.530	2.994	2.583	2.563	2.056	2.112	1.957	2.226	2.552	2.873	3.546	3.730	4.957	5.287	5.302	5.186	5.971	5.547	5.006	4.384	3.891	3.932	3.804	3.816	3.659	3.887	3.856	3.724	4.107	4.110	4.001	4.138	4.323	4.422	4.633	4.610	4.401	4.617	4.524	4.550	4.437	4.468
375.0	905.1	1278	1535	1480	1270	989.6	843.3	830.0	825.4	862.5	916.5	944.3	961.2	940.5	895.8	837.1	781.4	726.4	691.8	658.4	630.1	621.9	643.2	523.5	352.5	263.1	204.6	270.0	715.9	2057	6299	9999.9	2266	31.74	10.42	6.109	3.796	2.981	2.833	2.094	2.416	2.116	2.310	2.348	2.701	3.198	3.102	4.315	4.819	4.796	4.618	5.329	5.041	4.502	4.321	3.938	4.008	3.614	3.897	3.828	3.817	3.875	3.620	4.068	4.163	3.982	4.122	3.974	4.055	4.140	4.367	4.330	4.636	4.300	4.363	4.111	4.383
380.0	864.8	1185	1417	1404	1226	989.3	859.3	837.5	842.8	863.3	898.5	923.2	925.8	902.7	869.1	820.8	774.3	735.8	714.3	680.4	655.8	621.1	613.0	614.8	438.9	303.1	230.3	196.1	258.1	529.4	1648	8201	9999.9	1742	25.63	8.765	4.779	3.830	3.090	2.190	2.326	2.185	2.115	2.400	2.683	2.942	3.304	3.796	4.600	4.453	4.455	5.081	4.759	4.506	4.177	4.015	3.925	3.876	3.891	3.797	3.568	3.630	3.666	4.013	4.202	4.027	4.007	3.891	4.012	3.988	4.197	4.388	4.459	4.238	4.328	4.176	4.569
385.0	803.3	1095	1317	1321	1190	997.0	882.7	857.8	853.2	871.2	895.7	921.3	925.1	893.0	851.7	807.8	767.0	741.7	727.5	705.6	674.8	644.3	606.5	615.5	545.4	369.6	267.3	210.1	180.2	206.7	435.3	2323	9905	9999.9	307.2	16.79	6.800	4.810	3.944	2.510	2.657	2.471	2.203	2.505	2.756	2.794	2.930	3.665	4.149	4.098	4.097	4.925	4.766	4.530	4.236	3.900	3.856	4.063	3.748	4.177	3.759	3.826	3.649	4.243	4.016	4.041	3.853	3.852	3.972	3.984	4.214	4.029	4.253	4.019	4.101	4.062	4.515
390.0	741.6	1031	1226	1254	1162	1042	948.0	927.7	918.6	940.2	976.5	1002	991.3	956.6	900.5	837.9	792.1	764.5	758.4	744.2	730.1	705.9	661.6	621.9	611.7	521.0	364.7	272.3	215.5	180.0	195.4	589.8	2748	8003	9999.9	1295	23.20	7.813	5.420	3.482	3.038	2.691	2.673	2.598	2.687	3.039	3.052	3.718	4.090	3.836	3.946	4.796	4.632	4.531	4.395	4.455	4.273	3.971	3.955	4.204	4.051	3.835	3.924	4.237	3.936	4.017	3.977	4.055	4.023	4.054	4.146	4.134	4.317	4.125	4.078	4.239	4.278
395.0	689.4	1008	1180	1227	1188	1109	1070	1058	1058	1132	1195	1225	1207	1146	1052	934.6	855.1	827.1	821.4	826.3	822.1	812.4	781.8	725.9	671.0	636.0	545.4	385.2	298.6	238.2	195.8	240.3	688.5	1898	5958	9999.9	1918	28.18	8.256	4.660	3.751	3.005	2.923	2.816	2.709	2.884	3.122	3.584	3.905	3.736	3.797	4.764	4.582	4.610	4.574	4.675	4.450	4.535	4.496	4.362	4.182	4.336	4.175	4.552	4.475	4.574	4.664	4.359	4.528	4.486	4.292	4.378	4.558	4.416	4.379	4.483	4.468
400.0	709.3	975.1	1168	1217	1223	1190	1169	1182	1234	1354	1461	1518	1479	1388	1241	1076	949.9	898.7	897.4	913.2	927.5	927.6	903.4	846.8	774.4	704.4	675.2	499.0	391.8	310.7	243.0	202.1	259.9	502.9	1570	7430	8795	302.8	21.48	6.270	4.337	3.668	3.398	2.937	2.900	2.999	3.175	3.828	4.049	3.692	3.789	4.626	4.688	4.890	5.001	4.695	4.759	4.938	5.086	4.849	4.694	4.665	4.612	4.814	4.863	4.935	5.003	4.976	4.841	5.085	4.901	5.055	5.028	4.670	4.789	4.482	4.799
405.0	714.8	956.6	1165	1240	1273	1290	1283	1348	1429	1589	1751	1817	1771	1660	1459	1223	1046	980.8	979.4	1010	1037	1048	1034	985.9	900.6	799.0	746.3	657.5	490.6	384.5	303.0	234.3	198.4	218.3	430.7	2105	7270	7531	264.4	11.29	5.746	4.620	3.694	3.254	3.039	3.046	3.121	3.578	3.900	3.836	3.988	4.781	4.652	4.834	5.089	5.051	5.289	5.011	5.140	5.102	5.108	5.251	5.326	5.317	5.626	5.320	5.455	5.874	5.671	5.632	5.475	5.926	5.463	5.805	5.164	4.926	5.033
410.0	687.4	955.8	1157	1260	1334	1372	1413	1494	1646	1841	2057	2158	2094	1945	1679	1375	1148	1065	1058	1099	1141	1164	1160	1115	1027	919.2	814.9	742.5	641.0	493.1	377.4	289.5	225.2	185.4	199.0	543.5	1979	5790	7398	1071	19.54	6.118	4.609	3.761	3.358	3.346	3.462	3.682	3.953	3.779	3.960	4.852	5.048	5.071	5.309	5.463	5.789	5.547	5.493	5.407	5.512	5.621	6.082	6.005	6.194	6.263	6.434	6.377	6.227	6.498	6.104	6.196	5.956	6.297	5.674	5.462	5.160
415.0	679.6	946.8	1142	1278	1340	1439	1528	1591	1753	1987	2207	2302	2249	2086	1789	1440	1193	1099	1090	1127	1179	1207	1202	1171	1087	977.5	862.1	758.2	694.1	600.5	444.7	334.8	261.3	202.2	167.3	208.3	497.3	1364	4181	6684	1671	24.93	6.589	4.466	4.116	3.858	3.499	3.977	3.916	3.830	4.054	4.949	4.904	5.217	5.541	5.719	6.057	6.099	5.884	6.028	5.892	6.155	6.221	6.550	6.604	6.729	6.815	6.578	6.648	6.780	6.596	6.480	6.088	6.431	5.672	5.259	5.182
420.0	663.1	924.0	1090	1250	1367	1466	1547	1655	1791	2023	2252	2343	2273	2106	1790	1451	1187	1092	1086	1117	1166	1204	1209	1174	1103	995.9	881.3	769.7	684.9	634.2	500.6	363.7	282.9	217.2	168.3	142.2	174.2	343.8	1074	4360	6724	283.5	16.25	5.775	4.574	4.335	3.624	3.844	3.779	3.718	3.985	4.887	4.871	5.294	5.724	6.077	6.485	6.041	5.866	6.132	5.962	5.997	6.226	6.476	6.529	6.404	6.460	6.654	6.499	6.988	6.771	6.439	6.238	5.808	5.474	5.263	4.863
425.0	667.4	931.1	1095	1229	1363	1512	1609	1713	1838	2029	2258	2359	2282	2115	1796	1448	1195	1083	1088	1117	1156	1189	1207	1176	1101	996.1	890.3	779.8	682.1	629.5	553.0	407.9	303.0	235.8	181.9	137.6	110.6	122.5	271.0	1205	5605	6035	239.1	9.752	5.052	4.674	3.907	4.036	3.937	4.084	3.948	5.011	5.102	5.207	5.712	6.170	6.215	6.460	6.158	6.445	6.296	6.020	6.413	6.711	6.758	6.675	6.476	6.559	6.461	6.631	6.543	6.775	6.042	6.014	5.635	5.302	4.838
430.0	817.7	894.2	1092	1255	1416	1584	1727	1817	1920	2087	2273	2373	2311	2134	1825	1466	1203	1099	1087	1111	1149	1185	1202	1177	1103	1009	901.1	797.9	704.2	624.2	559.6	468.4	347.6	263.3	204.7	153.7	110.4	84.19	97.90	294.5	1537	4657	5520	967.0	17.51	5.878	4.476	4.411	4.117	4.175	4.204	5.008	5.307	5.468	5.807	6.329	6.682	6.881	7.030	6.707	6.606	6.233	6.633	6.821	6.767	6.679	6.818	6.676	6.709	6.747	6.536	6.355	6.231	5.862	5.669	5.199	4.998
435.0	1392	943.3	1106	1266	1476	1681	1856	1941	1991	2077	2283	2369	2308	2110	1828	1465	1208	1100	1086	1103	1127	1155	1178	1154	1092	998.1	903.3	810.7	715.9	632.8	550.2	489.9	405.4	299.9	226.8	173.4	122.9	86.38	68.25	97.22	366.0	1086	3324	6377	1571	21.21	5.946	5.088	4.836	4.458	4.308	5.222	5.170	5.939	6.487	6.582	7.087	7.489	7.267	6.844	7.381	6.902	6.867	6.842	6.603	6.641	6.620	6.834	7.035	6.679	6.376	6.180	6.137	5.908	5.573	5.470	4.872
440.0	2097	1102	1099	1274	1507	1757	1920	2004	2014	2069	2242	2319	2237	2057	1780	1436	1185	1083	1070	1082	1095	1119	1133	1116	1054	982.6	888.4	799.6	712.9	631.7	548.4	476.9	423.9	334.1	242.6	184.1	133.4	94.39	67.70	57.94	109.4	264.2	878.3	4489	6560	248.4	14.13	6.103	5.049	4.161	4.351	5.525	5.573	6.223	6.728	6.969	7.636	7.567	7.739	7.112	7.378	6.744	6.710	6.510	6.744	6.579	6.609	6.297	6.506	6.537	6.257	6.088	5.804	5.966	5.699	5.582	4.898
445.0	2266	1662	1082	1261	1528	1765	1969	2016	1994	2002	2124	2189	2133	1963	1708	1383	1147	1047	1039	1040	1048	1065	1071	1054	1010	938.2	852.5	778.2	696.5	626.3	544.2	461.3	410.7	358.9	262.2	191.5	141.0	101.5	73.05	55.13	56.72	84.28	216.8	1276	5822	4924	195.3	9.822	5.687	4.523	4.617	5.609	5.554	6.648	6.647	7.258	7.826	7.958	7.906	7.827	7.151	6.553	6.761	6.474	6.389	6.233	6.290	6.294	6.044	6.130	6.213	5.960	5.756	5.637	5.565	4.950	4.858
450.0	1538	2901	1272	1233	1497	1782	1962	2012	1928	1871	1935	1985	1927	1794	1553	1283	1072	984.6	969.5	961.5	951.0	957.9	974.3	960.2	916.6	861.6	789.3	725.5	658.9	594.5	522.5	450.0	384.6	342.1	287.2	208.5	149.6	109.0	80.57	62.30	51.00	48.62	71.90	304.2	1616	4248	3270	865.8	15.31	5.696	5.189	5.920	5.970	6.532	6.771	7.288	7.924	8.138	8.204	7.705	7.349	6.765	6.410	6.059	6.049	5.882	5.766	5.619	5.930	5.698	5.661	5.577	5.440	5.164	5.078	4.759	4.642
455.0	844.7	3157	2723	1214	1446	1741	1924	1934	1791	1723	1742	1776	1715	1596	1401	1163	979.1	899.6	889.8	867.4	848.4	847.4	858.1	849.4	820.0	770.1	715.8	664.2	614.0	555.6	491.4	426.4	367.1	312.3	278.2	231.0	160.5	116.1	88.59	70.06	55.75	45.60	43.11	89.04	377.2	998.7	2120	5268	1200	17.50	5.954	6.256	6.247	6.683	6.821	7.060	7.891	7.812	8.053	7.908	7.106	6.719	6.346	5.874	5.617	5.147	5.383	5.068	5.327	5.151	5.246	4.999	4.990	4.789	4.521	4.351	4.353
460.0	637.8	2115	4107	1438	1382	1670	1846	1863	1706	1594	1593	1612	1564	1467	1283	1067	907.9	840.6	821.8	799.5	774.1	769.2	776.2	772.7	747.1	708.4	656.7	611.5	572.2	521.9	468.7	406.4	345.9	294.6	257.5	232.0	175.2	121.2	92.17	75.21	59.90	48.69	39.53	42.99	102.5	238.7	552.0	3465	4517	193.0	13.10	6.934	6.263	6.560	6.859	7.153	7.687	7.870	7.806	7.433	6.873	6.306	5.717	5.059	5.487	4.930	5.018	5.221	4.555	4.884	4.623	4.577	4.321	4.652	4.144	4.012	3.971
465.0	549.7	1177	4428	2216	1316	1565	1759	1779	1602	1470	1450	1484	1428	1337	1172	981.1	841.5	778.2	760.6	736.8	706.4	697.0	703.6	702.9	682.4	645.8	610.2	561.8	531.9	490.5	442.9	382.8	331.1	280.0	239.0	212.8	181.7	129.0	94.99	76.74	63.29	50.95	41.37	34.20	42.58	69.16	136.6	965.1	3988	3379	165.8	11.33	6.714	6.818	7.018	7.150	7.196	7.681	7.617	7.052	6.414	6.038	5.508	4.915	4.978	4.605	4.575	4.614	4.563	4.410	4.312	4.351	4.179	4.118	3.857	3.903	3.961
470.0	518.8	760.7	2718	3853	1593	1430	1613	1605	1431	1303	1268	1290	1240	1162	1021	857.8	743.8	685.1	667.4	647.1	614.3	603.1	608.0	608.6	591.2	563.4	531.1	500.1	471.9	437.9	399.6	350.9	302.9	259.2	219.7	188.8	165.8	138.6	101.8	78.12	63.51	53.10	42.65	33.60	30.08	32.19	44.06	227.7	1102	2628	2317	789.2	16.19	7.505	6.885	7.002	7.334	7.402	7.035	6.586	6.134	5.533	4.958	4.417	4.610	4.008	4.094	3.948	4.096	3.851	3.762	3.626	3.949	3.774	3.528	3.537	3.401
475.0	494.3	635.6	1227	3771	3014	1298	1414	1425	1257	1122	1090	1088	1059	991.2	866.0	737.5	644.1	596.2	577.5	553.2	521.8	510.4	511.5	512.9	503.6	484.0	455.4	432.1	408.2	384.5	351.0	311.4	274.2	234.3	199.9	170.2	143.4	129.2	111.0	81.48	64.01	52.15	43.48	34.15	28.85	24.57	24.23	62.80	255.1	607.8	1353	3188	996.6	19.77	7.184	7.076	6.798	6.580	6.595	6.177	5.480	4.962	4.437	4.119	3.890	3.741	3.775	3.477	3.541	3.561	3.508	3.160	3.548	3.384	3.033	3.056	2.802
480.0	473.4	594.3	772.6	2459	4433	1494	1297	1288	1127	1006	967.8	964.5	932.4	876.9	771.1	655.0	572.4	539.3	513.8	490.2	462.0	452.5	450.8	451.0	446.7	425.7	407.4	388.4	367.1	347.6	318.5	287.6	252.7	216.4	188.4	159.4	131.5	116.4	109.6	88.12	63.79	52.59	43.66	34.73	28.95	23.99	20.25	26.48	67.31	144.2	341.9	1896	2998	224.4	15.50	7.337	6.793	6.222	6.308	5.616	4.887	4.534	4.200	3.791	3.397	3.378	3.475	3.194	3.107	3.033	3.311	2.871	2.950	2.915	2.965	2.977	2.819
485.0	444.2	592.1	641.2	1322	4817	2317	1194	1189	1029	919.4	867.4	865.7	836.8	785.1	697.4	594.1	519.1	483.5	461.2	448.6	415.6	404.7	407.6	407.6	399.5	386.1	366.9	351.2	333.6	318.4	295.0	267.9	232.9	203.7	176.8	150.5	126.7	107.0	101.6	92.31	69.51	54.09	43.81	36.15	29.69	24.66	19.77	18.37	26.17	41.24	84.19	524.3	2383	1869	194.2	11.35	7.378	6.574	6.540	5.339	4.706	4.267	3.839	3.491	3.563	3.168	3.120	2.831	2.808	2.797	2.957	2.633	2.782	2.643	2.727	2.852	2.520
490.0	354.5	555.5	582.7	792.7	3021	4043	1390	1051	922.1	800.2	763.0	759.5	729.3	680.3	603.4	521.1	456.8	422.0	409.7	390.8	360.1	351.5	354.6	353.3	348.6	338.0	320.7	310.3	296.9	283.3	263.7	238.5	211.3	186.1	163.1	139.6	118.0	99.45	89.68	86.25	76.50	58.12	44.82	37.13	30.75	25.96	21.94	18.83	18.06	19.49	27.33	125.7	638.8	1615	2509	862.7	19.57	6.865	6.076	5.102	4.623	3.841	3.441	3.182	3.046	2.859	2.841	2.646	2.622	2.638	2.605	2.487	2.544	2.331	2.393	2.415	2.142
495.0	298.7	463.0	547.5	608.8	1288	4103	2612	936.2	800.9	695.8	654.4	655.6	626.1	586.9	514.8	449.9	394.5	366.9	350.9	337.8	307.3	301.5	301.4	302.3	299.6	291.3	276.4	268.4	256.2	247.5	230.0	211.1	185.9	166.6	146.7	127.6	109.2	93.06	81.70	73.87	73.63	64.73	47.48	37.62	31.82	26.82	23.66	20.20	17.75	15.80	15.52	36.65	150.3	375.1	1419	3828	1486	24.25	6.542	5.105	4.264	3.560	3.168	2.921	2.861	2.591	2.402	2.227	2.368	2.358	2.089	2.377	2.225	2.122	2.047	2.043	2.035
500.0	258.7	399.6	550.2	532.2	757.5	2672	3960	1026	707.9	614.9	588.5	585.4	556.9	520.9	462.1	395.7	350.1	329.7	312.2	295.3	271.5	263.0	267.2	268.3	262.8	257.9	245.4	235.1	228.5	224.9	209.7	189.4	171.6	151.7	133.1	117.1	100.6	87.22	75.97	67.84	65.16	63.79	51.25	38.93	31.78	27.71	24.15	21.26	18.23	15.92	13.51	17.24	41.90	91.88	354.0	2160	3947	1021	17.49	5.183	4.257	3.469	3.019	2.606	2.492	2.195	2.411	2.059	2.310	1.905	1.986	1.902	2.060	1.886	1.843	1.796	1.722
505.0	227.5	322.7	497.5	500.3	589.7	1401	4686	1676	642.6	554.0	525.2	521.3	494.8	463.4	407.6	353.4	311.6	291.4	276.7	261.9	239.4	234.4	235.4	236.4	232.6	228.7	219.0	210.2	202.6	200.6	189.5	171.1	154.9	137.5	122.7	107.6	92.95	80.97	72.04	64.10	57.50	58.41	53.79	41.03	31.38	27.72	23.77	21.07	18.70	16.20	13.78	13.36	18.07	29.02	87.10	569.9	2659	3272	224.8	10.83	4.196	3.511	2.769	2.472	2.359	2.113	2.118	1.886	2.035	1.730	1.841	1.917	1.888	1.560	1.656	1.843	1.683
510.0	198.8	272.7	401.2	486.0	502.9	748.3	3051	3322	780.3	476.7	452.1	444.6	423.0	390.4	345.8	299.9	264.8	248.4	234.7	222.1	203.6	196.6	200.0	198.4	197.1	193.8	187.2	178.6	174.9	169.1	162.2	147.6	133.8	121.0	108.2	94.86	83.25	73.05	63.76	58.38	51.68	48.36	48.75	45.03	33.69	27.58	23.46	20.84	18.65	16.39	14.71	13.06	12.92	15.25	27.51	134.8	684.0	1914	2266	873.4	17.49	3.522	2.701	2.326	2.273	2.017	1.946	1.720	1.771	1.675	1.684	1.778	1.750	1.526	1.489	1.416	1.559
515.0	172.5	239.9	302.9	451.7	458.6	512.1	1192	3707	1932	409.2	378.5	371.3	356.5	321.8	289.6	246.4	221.0	205.7	196.1	182.3	167.2	164.1	165.6	166.6	166.4	162.0	154.6	149.5	146.7	141.1	136.7	126.5	113.6	103.9	92.93	82.92	73.33	64.85	57.38	52.34	46.07	42.67	40.14	41.81	37.47	28.66	22.98	20.63	18.31	16.02	14.88	14.00	12.06	12.26	14.06	36.82	158.5	436.7	1041	2460	1271	21.56	3.141	2.378	2.111	1.836	1.820	1.545	1.685	1.406	1.625	1.454	1.487	1.413	1.246	1.320	1.313
520.0	161.5	215.6	261.7	387.6	425.2	420.4	610.8	2455	3514	535.7	340.3	322.9	307.2	282.6	251.6	218.3	193.2	178.7	172.6	159.0	145.6	140.0	141.3	143.8	145.2	139.7	135.8	129.8	128.6	123.0	120.8	110.2	100.2	91.76	83.34	74.82	66.93	59.40	52.31	47.84	44.08	38.82	35.78	35.63	37.39	30.92	22.85	20.13	17.80	15.71	14.01	13.20	12.18	10.97	10.58	15.49	41.50	102.9	251.5	1228	2749	251.0	15.31	2.666	2.269	1.725	1.722	1.347	1.488	1.341	1.418	1.338	1.292	1.209	1.300	1.216	1.160
525.0	141.1	182.7	233.2	308.2	419.7	375.2	428.7	1172	4214	1216	306.0	293.1	271.9	253.3	220.7	192.1	170.7	157.7	149.7	139.8	129.2	125.0	124.4	127.3	125.7	124.0	118.7	114.0	112.6	109.7	107.7	98.28	89.12	80.34	75.18	66.59	60.65	53.70	48.75	43.97	40.10	35.36	31.71	30.85	33.18	31.50	24.14	20.06	17.52	15.10	13.40	12.80	12.10	10.83	9.205	10.39	15.42	28.12	60.95	309.0	1654	1781	228.0	9.710	2.335	1.751	1.798	1.382	1.357	1.196	1.177	1.215	1.154	1.144	1.191	0.991	1.079
530.0	118.3	150.1	200.3	230.5	365.6	354.7	335.1	513.9	2577	3181	510.8	248.2	233.6	214.3	186.4	159.7	144.2	131.4	125.6	116.5	107.0	106.4	104.9	106.1	105.7	104.0	99.12	95.92	93.90	92.15	89.28	82.63	76.84	69.72	63.71	57.66	52.26	47.75	42.86	38.94	34.92	32.15	29.35	26.79	26.60	28.84	25.61	20.27	16.50	14.46	12.83	11.74	11.02	10.39	9.074	8.865	8.909	11.05	18.00	72.79	411.3	942.6	1437	748.8	16.98	2.356	1.884	1.345	1.289	1.159	1.032	1.060	1.095	1.031	1.009	0.853	0.911
535.0	98.34	127.0	157.2	182.5	273.2	343.2	282.2	307.4	872.1	4151	1827	216.5	192.4	177.8	153.8	133.7	116.9	108.8	102.8	94.75	88.71	85.21	85.48	87.07	85.58	87.24	83.36	79.95	77.41	75.64	74.14	69.68	63.60	58.85	53.91	48.53	44.98	41.26	36.94	33.56	31.05	28.67	26.20	23.94	22.83	23.53	24.56	21.48	16.49	13.14	12.05	11.43	10.07	9.401	9.199	7.936	7.092	6.975	7.797	19.54	94.67	213.9	511.1	1559	972.8	25.12	2.183	1.393	1.274	1.091	1.190	0.952	0.928	0.945	0.940	0.859	0.761
540.0	89.63	112.0	131.6	155.0	205.2	314.3	259.3	230.7	359.4	2714	4385	255.5	168.2	156.4	130.4	115.4	103.4	94.81	88.79	81.98	75.12	74.80	74.05	74.30	74.04	74.20	71.23	68.25	67.19	65.22	65.64	59.32	56.30	52.69	47.08	43.37	38.40	36.17	33.05	29.79	28.11	25.49	23.58	21.70	19.80	19.54	20.46	20.82	16.54	12.83	11.03	10.59	9.550	8.723	8.427	7.818	6.191	5.811	5.280	7.494	23.95	50.16	119.6	652.6	1673	776.1	17.79	1.502	1.476	0.952	0.942	0.893	0.912	0.868	0.723	0.728	0.759
545.0	78.16	104.5	120.0	135.0	162.1	255.1	264.4	200.7	217.0	1109	5659	870.1	155.5	129.3	111.1	100.0	89.11	81.70	77.16	72.42	64.49	64.68	63.04	64.12	63.27	63.93	60.95	59.54	57.47	56.62	55.23	52.35	48.44	44.61	41.83	37.53	33.91	31.74	29.71	26.17	25.05	22.58	21.70	19.65	17.60	16.55	16.81	18.87	17.08	12.95	10.67	9.524	8.454	8.349	7.555	7.314	6.380	5.161	4.617	4.633	7.949	13.73	29.13	155.8	832.1	1655	246.1	8.843	1.552	1.054	0.977	0.934	0.811	0.837	0.646	0.715	0.609
550.0	76.09	87.01	97.89	113.7	131.1	172.7	256.3	181.4	155.8	367.9	3300	2600	294.9	106.6	91.67	81.23	73.12	65.09	62.47	58.23	52.41	51.82	51.97	51.46	51.34	52.24	49.75	47.64	46.66	45.76	44.82	42.57	40.40	36.79	34.02	31.41	28.94	26.57	24.03	22.54	21.14	18.75	17.60	16.22	15.21	14.39	13.49	14.11	15.28	13.22	10.37	8.427	7.734	7.095	6.565	6.138	5.702	5.211	4.201	3.645	4.090	5.146	8.417	36.78	198.2	710.9	1202	544.7	18.38	1.532	0.984	0.916	0.763	0.779	0.598	0.698	0.551
555.0	60.20	68.24	86.76	91.52	101.8	121.4	195.2	190.4	120.6	165.7	947.1	3439	1197	97.73	75.18	63.96	57.76	52.21	48.45	46.72	40.80	41.00	40.19	40.81	40.97	40.16	39.62	37.86	37.24	36.62	35.68	33.67	32.29	28.95	27.79	24.77	23.02	21.66	19.47	18.42	16.87	15.93	14.60	13.60	13.08	12.28	11.06	10.70	11.21	11.94	10.16	8.016	6.496	5.956	5.668	5.290	4.630	4.764	4.160	3.231	3.001	2.950	3.462	9.695	45.42	160.0	369.9	913.8	888.7	24.42	1.216	0.929	0.712	0.780	0.508	0.630	0.516
560.0	52.79	68.67	74.14	74.81	84.93	99.42	134.1	190.9	110.0	103.4	287.7	2175	2915	160.9	63.80	53.24	47.06	43.78	40.41	39.24	34.90	33.35	33.80	33.61	33.30	33.50	32.63	30.87	31.05	30.39	30.04	27.82	27.12	24.24	22.80	20.73	19.33	18.06	16.44	15.83	14.49	13.69	12.54	11.46	10.58	10.35	9.281	8.694	8.792	9.866	9.906	7.995	5.772	5.161	4.780	4.635	4.119	3.922	3.611	3.220	2.528	2.237	2.283	3.727	11.52	37.09	85.17	338.9	1250	267.0	16.82	1.158	0.764	0.805	0.573	0.469	0.416
565.0	49.13	66.37	63.77	65.81	69.57	79.32	101.7	188.1	117.1	88.33	125.4	821.2	3948	658.8	55.96	44.46	41.83	37.09	33.71	31.61	29.82	29.03	27.83	28.59	28.28	27.21	26.78	26.06	25.95	25.37	24.80	23.99	21.89	20.39	18.99	17.80	16.01	15.03	14.36	13.29	12.23	11.89	10.50	10.08	9.599	8.857	7.949	7.656	7.188	7.714	8.591	7.695	5.632	4.626	4.125	4.199	3.471	3.325	3.118	2.975	2.585	2.016	1.758	2.233	3.852	9.551	20.23	79.22	529.0	898.3	222.7	10.64	0.900	0.788	0.704	0.508	0.474
570.0	42.19	54.28	60.58	55.85	55.89	62.32	71.60	132.9	141.1	75.64	79.16	247.6	2397	2385	107.7	38.98	33.07	29.49	26.57	24.93	24.26	22.68	21.86	22.32	22.40	21.33	20.98	20.30	20.12	19.77	19.45	18.73	17.04	16.25	15.29	14.44	13.34	12.19	11.61	10.90	9.727	9.464	8.596	8.218	7.899	7.320	6.889	6.457	6.173	5.726	6.186	6.794	5.843	4.453	3.587	3.428	3.029	2.652	2.531	2.508	2.460	1.998	1.535	1.513	1.878	3.120	5.454	18.59	122.8	356.5	525.8	460.7	18.07	1.163	0.663	0.504	0.505
575.0	40.16	45.91	57.80	47.18	46.17	48.92	54.97	79.33	144.4	82.93	62.26	97.22	670.5	3680	860.1	39.30	25.89	22.37	20.16	19.32	18.69	18.65	16.67	17.13	17.07	17.25	16.48	16.05	15.29	15.69	15.17	14.70	13.92	13.12	11.83	11.76	10.62	9.962	9.186	8.497	7.959	7.786	7.241	6.932	6.258	5.891	5.553	5.549	4.887	4.465	4.352	4.994	5.608	4.374	3.458	2.736	2.646	2.221	2.080	1.954	1.981	2.057	1.672	1.217	1.309	1.525	2.129	4.846	28.30	80.29	148.3	627.3	533.2	25.00	1.041	0.511	0.409
580.0	42.40	45.37	42.58	40.84	37.16	46.28	47.23	56.17	115.1	106.1	55.46	60.54	192.7	2401	2449	96.75	22.68	20.39	17.70	16.35	15.54	15.53	14.45	15.36	14.39	14.16	13.74	13.57	13.37	12.78	12.88	12.32	11.51	10.91	10.62	9.606	8.722	8.274	7.812	7.370	6.788	6.752	6.012	5.854	5.592	5.045	4.762	4.682	3.970	3.856	3.618	3.903	4.253	4.154	3.301	2.670	2.212	2.208	2.052	1.702	1.541	1.908	1.828	1.267	1.165	1.189	1.319	1.849	7.074	18.67	34.20	216.4	650.6	254.3	16.83	0.677	0.410
585.0	39.37	42.89	43.08	37.92	34.20	36.30	40.57	45.40	79.62	121.9	55.21	49.25	76.98	881.9	3512	490.0	21.34	17.34	15.43	13.84	13.11	12.96	12.08	12.58	12.49	12.25	11.24	11.84	10.55	11.03	10.36	10.38	9.959	8.870	8.287	8.011	7.689	7.103	6.825	6.024	5.934	5.807	5.207	5.233	4.459	4.558	4.277	3.919	3.508	3.422	3.033	3.053	3.432	3.452	3.313	2.626	1.954	1.822	1.743	1.546	1.370	1.363	1.687	1.530	1.198	0.987	1.007	1.043	2.196	4.779	8.319	50.30	259.3	535.8	213.7	7.995	0.537
590.0	35.21	39.59	38.78	34.85	29.20	30.98	32.93	35.50	48.68	110.3	73.76	43.15	47.05	236.6	2188	2284	56.51	14.66	13.43	11.97	11.04	10.57	10.19	10.38	10.09	9.684	8.995	9.509	9.063	8.908	8.446	8.559	7.772	7.405	6.912	6.584	6.134	5.684	5.268	5.118	4.730	4.624	4.100	4.077	3.863	3.856	3.584	3.170	3.049	2.764	2.463	2.454	2.320	2.743	3.165	2.649	1.934	1.617	1.365	1.381	1.151	1.223	1.152	1.448	1.259	0.987	0.801	0.914	1.076	1.641	2.400	11.76	59.91	200.9	413.7	269.8	17.69
595.0	28.95	33.04	33.42	28.62	29.85	25.53	29.93	30.00	33.92	73.46	100.1	42.03	37.03	76.18	596.9	3304	460.1	14.22	10.29	9.209	9.076	8.397	7.735	7.810	8.150	7.876	6.853	7.579	7.216	7.197	7.276	7.158	6.311	5.987	5.508	4.998	5.054	4.435	4.116	3.920	3.844	3.415	3.347	3.417	3.255	3.120	2.919	2.589	2.531	2.374	1.980	2.024	1.842	2.024	2.456	2.481	2.027	1.462	1.262	1.088	1.102	1.020	0.880	1.041	1.165	1.057	0.800	0.762	0.731	0.847	0.940	3.060	13.80	45.26	113.2	333.9	267.3
600.0	30.33	34.93	31.04	27.61	27.38	24.84	27.59	27.61	28.36	48.12	107.6	52.17	34.31	39.78	156.2	2227	1350	32.32	9.428	8.477	7.990	7.261	6.593	6.628	6.469	7.155	6.184	6.204	6.083	5.921	6.325	5.822	5.301	4.900	4.491	4.462	4.134	3.722	3.574	3.574	3.342	3.176	2.778	2.882	2.621	2.757	2.629	2.307	2.276	2.091	1.761	1.821	1.676	1.575	1.816	2.312	2.275	1.381	1.118	0.932	0.940	0.830	0.814	0.899	1.028	1.045	0.916	0.628	0.578	0.582	0.543	1.150	3.407	10.56	25.78	111.4	332.4
605.0	32.22	33.89	30.10	28.70	24.92	22.56	25.18	27.03	30.55	38.00	92.82	72.80	35.93	31.17	52.62	860.9	2119	94.02	8.679	7.606	7.353	6.486	5.805	5.702	5.320	5.403	5.583	5.030	5.088	5.077	5.457	4.888	4.393	4.295	3.639	3.848	3.698	3.395	3.501	2.957	2.809	2.701	2.375	2.443	2.268	2.376	2.361	2.106	1.922	1.866	1.581	1.580	1.514	1.336	1.390	1.790	1.990	1.598	1.149	0.829	0.743	0.786	0.710	0.695	0.805	0.973	1.042	0.581	0.591	0.513	0.524	0.672	1.119	2.695	6.025	25.76	126.9
610.0	27.43	33.24	31.34	26.48	21.63	21.70	23.52	26.60	31.59	37.77	66.25	93.42	44.05	32.08	32.86	227.5	1492	817.9	31.25	6.553	6.157	5.300	5.000	5.255	4.492	4.442	4.518	4.213	4.147	4.244	4.107	4.116	3.540	3.328	3.188	3.041	2.685	2.655	2.583	2.407	2.347	2.222	2.060	2.089	1.872	1.924	1.715	1.678	1.546	1.436	1.299	1.348	1.125	1.108	1.120	1.227	1.458	1.520	1.157	0.829	0.781	0.671	0.600	0.617	0.694	0.675	0.882	0.781	0.643	0.490	0.460	0.422	0.555	0.956	1.713	6.045	29.34
615.0	27.90	27.85	28.95	21.10	21.94	22.03	23.50	25.01	30.33	36.74	50.08	90.88	62.22	32.11	27.62	66.18	435.2	1399	268.9	6.784	5.177	4.364	4.167	4.119	3.200	3.541	3.646	3.384	3.526	3.234	3.584	3.232	2.942	2.725	2.645	2.223	2.090	2.113	2.006	1.923	1.901	1.660	1.714	1.717	1.420	1.482	1.361	1.584	1.217	1.210	1.042	1.081	0.931	0.885	0.774	0.810	0.975	1.162	1.181	0.894	0.759	0.526	0.626	0.623	0.603	0.448	0.642	0.776	0.954	0.548	0.398	0.460	0.405	0.495	0.668	1.654	6.796
620.0	23.89	29.76	32.59	21.48	18.62	21.46	22.26	23.30	28.93	37.15	42.73	72.05	74.53	33.27	26.54	30.56	116.1	1057	693.4	15.48	4.623	4.055	3.546	3.380	3.296	3.149	3.392	2.916	2.731	2.591	2.925	2.722	2.429	2.334	2.323	2.025	1.787	1.783	1.774	1.582	1.552	1.435	1.354	1.467	1.386	1.266	1.225	1.130	1.131	1.087	1.001	0.914	0.923	0.753	0.735	0.693	0.811	0.861	1.109	0.929	0.750	0.609	0.566	0.562	0.492	0.455	0.525	0.653	0.760	0.614	0.416	0.389	0.373	0.416	0.403	0.595	1.826
625.0	23.97	31.95	25.60	21.95	17.18	19.31	21.37	24.43	27.27	35.24	37.70	54.72	83.59	39.14	25.93	21.67	39.72	449.5	1358	64.84	4.876	3.683	3.228	3.377	2.955	2.718	2.928	2.469	2.410	2.624	2.469	2.197	1.946	2.058	2.118	1.934	1.571	1.648	1.505	1.374	1.391	1.258	1.197	1.138	1.238	1.138	1.018	1.016	0.923	0.873	0.858	0.689	0.746	0.616	0.653	0.710	0.571	0.697	0.897	0.867	0.703	0.554	0.560	0.424	0.414	0.478	0.507	0.411	0.583	0.619	0.509	0.342	0.419	0.315	0.382	0.364	0.662
630.0	22.48	24.06	25.58	20.62	16.99	17.56	20.07	23.68	25.92	30.98	36.30	43.44	72.31	53.09	25.66	19.51	20.23	118.9	1039	485.9	16.98	3.793	2.710	2.982	2.483	2.344	2.380	2.103	2.133	2.002	1.960	1.768	1.685	1.744	1.657	1.576	1.312	1.316	1.305	1.293	1.189	1.109	1.032	0.913	1.061	0.909	0.957	0.778	0.807	0.695	0.725	0.647	0.673	0.542	0.573	0.613	0.623	0.660	0.600	0.734	0.737	0.555	0.475	0.405	0.420	0.511	0.402	0.406	0.466	0.436	0.557	0.427	0.390	0.319	0.336	0.263	0.329
635.0	20.54	34.85	29.88	24.03	16.21	17.73	19.68	24.05	24.41	31.61	34.63	40.14	54.11	63.49	29.85	19.75	15.04	34.29	317.8	1031	74.95	4.012	2.369	2.816	2.193	1.944	2.060	1.630	1.904	1.613	1.455	1.471	1.279	1.282	1.431	1.353	1.077	1.055	1.101	1.018	0.892	0.991	0.877	0.840	0.808	0.792	0.774	0.689	0.679	0.614	0.655	0.538	0.493	0.540	0.520	0.538	0.476	0.476	0.452	0.526	0.646	0.526	0.479	0.484	0.325	0.482	0.375	0.409	0.417	0.435	0.501	0.519	0.375	0.292	0.279	0.244	0.287
640.0	19.32	35.48	29.91	18.95	15.81	17.90	19.68	22.73	26.33	30.86	35.26	40.59	42.42	62.38	38.46	20.51	15.01	15.83	82.80	856.7	532.1	9.055	2.523	2.605	2.006	1.804	1.871	1.524	1.372	1.332	1.488	1.366	1.161	1.141	1.227	1.127	0.963	0.792	0.937	0.886	0.770	0.883	0.770	0.649	0.680	0.612	0.631	0.593	0.519	0.520	0.480	0.517	0.446	0.398	0.431	0.447	0.435	0.435	0.463	0.467	0.583	0.543	0.477	0.380	0.337	0.321	0.272	0.357	0.407	0.378	0.331	0.532	0.489	0.346	0.260	0.235	0.257
645.0	30.68	39.83	36.57	26.55	17.83	16.41	17.73	21.81	25.11	28.37	33.67	38.66	40.00	52.96	46.46	20.80	16.17	11.60	24.22	399.9	1178	49.56	2.569	2.208	1.819	1.636	1.623	1.662	1.240	1.204	1.310	1.114	0.915	1.119	0.975	1.037	0.812	0.798	0.788	0.700	0.682	0.780	0.691	0.642	0.517	0.601	0.549	0.506	0.593	0.472	0.432	0.449	0.438	0.346	0.450	0.417	0.460	0.415	0.376	0.350	0.434	0.509	0.437	0.357	0.329	0.328	0.291	0.334	0.387	0.295	0.411	0.486	0.518	0.433	0.244	0.283	0.231
650.0	30.39	41.40	41.20	29.80	19.83	15.42	18.62	21.54	22.86	29.79	34.35	36.35	37.89	43.28	51.75	22.96	16.33	10.58	10.79	118.4	1277	313.6	3.320	2.423	1.650	1.534	1.502	1.265	1.156	1.212	1.204	1.076	0.999	0.921	0.852	0.854	0.745	0.674	0.682	0.616	0.560	0.674	0.610	0.525	0.528	0.534	0.556	0.458	0.522	0.483	0.389	0.420	0.372	0.312	0.407	0.435	0.401	0.309	0.396	0.346	0.408	0.433	0.427	0.458	0.348	0.309	0.338	0.311	0.272	0.427	0.338	0.378	0.422	0.466	0.271	0.223	0.194
