Sample:	'1
File name:	Default_20231010_083924.FD3
Run date:	'08:33:03, 10/10/2023
Operator:	dsjg
Comment:	'

Instrument
Model:	F-2700 FL Spectrophotometer
Serial number:	2198-001
ROM Version:	4J14000 07

Instrument parameters
Measurement type:	3-D scan
Data mode:	Fluorescence
EX  Start WL:	220.0 nm
EX  End WL:	600.0 nm
EX Sampling interval:	5.0 nm
EM  Start WL:	230.0 nm
EM  End WL:	650.0 nm
EM Sampling interval:	5.0 nm
Scan speed:	12000 nm/min
EX Slit:	5.0 nm
EM Slit:	5.0 nm
PMT Voltage:	700 V
Response:	Auto 
Corrected spectra:	Off
Contour interval:	50.000

Peak integration
Integration method:	Rectangular
Sensitivity:	1
Threshold:	1.000

Peaks
No.	ApexEX/EM(nm)	Height(Data)
1	225.0/640.0	16.94
2	230.0/380.0	344.9
3	230.0/390.0	351.2
4	230.0/505.0	74.76
5	235.0/260.0	192.5
6	235.0/515.0	68.29
7	240.0/265.0	190.8
8	240.0/530.0	54.99
9	245.0/270.0	176.8
10	245.0/540.0	49.04
11	250.0/555.0	44.31
12	255.0/565.0	49.92
13	260.0/575.0	67.34
14	265.0/585.0	83.75
15	270.0/300.0	 1216
16	270.0/595.0	82.91
17	305.0/345.0	270.3
18	310.0/350.0	235.3
19	315.0/355.0	221.8
20	320.0/360.0	219.3
21	325.0/370.0	195.1
22	330.0/375.0	180.1
23	335.0/380.0	178.8
24	350.0/400.0	108.8
25	355.0/405.0	93.84
26	360.0/410.0	73.17
27	365.0/415.0	67.16
28	370.0/425.0	61.28
29	375.0/430.0	47.04
30	380.0/435.0	43.40
31	385.0/300.0	4.068
32	385.0/445.0	39.81
33	390.0/450.0	30.69
34	395.0/455.0	27.52
35	400.0/465.0	25.28
36	405.0/470.0	19.17
37	410.0/475.0	16.44
38	415.0/485.0	15.40
39	420.0/490.0	12.30
40	425.0/495.0	10.65
41	430.0/505.0	9.710
42	435.0/510.0	7.665
43	440.0/520.0	7.007
44	445.0/525.0	6.163
45	450.0/530.0	5.032
46	455.0/540.0	4.723
47	460.0/545.0	3.908
48	470.0/560.0	2.655
49	475.0/565.0	2.032
50	545.0/300.0	6.807
51	550.0/305.0	6.099

Data points
	220.0	225.0	230.0	235.0	240.0	245.0	250.0	255.0	260.0	265.0	270.0	275.0	280.0	285.0	290.0	295.0	300.0	305.0	310.0	315.0	320.0	325.0	330.0	335.0	340.0	345.0	350.0	355.0	360.0	365.0	370.0	375.0	380.0	385.0	390.0	395.0	400.0	405.0	410.0	415.0	420.0	425.0	430.0	435.0	440.0	445.0	450.0	455.0	460.0	465.0	470.0	475.0	480.0	485.0	490.0	495.0	500.0	505.0	510.0	515.0	520.0	525.0	530.0	535.0	540.0	545.0	550.0	555.0	560.0	565.0	570.0	575.0	580.0	585.0	590.0	595.0	600.0
230.0	93.88	 1172	 1410	218.7	4.365	1.757	1.617	1.166	1.009	1.032	0.987	1.016	0.655	0.612	0.519	0.529	0.404	0.413	0.315	0.271	0.271	0.267	0.217	0.218	0.228	0.208	0.200	0.170	0.201	0.188	0.197	0.172	0.202	0.164	0.200	0.299	0.282	0.257	0.273	0.234	0.318	0.491	0.487	0.322	0.204	0.177	0.617	2.893	5.178	4.051	1.446	0.291	0.107	0.081	0.087	0.080	0.081	0.060	0.053	0.054	0.036	0.048	0.041	0.026	0.029	0.031	0.026	0.016	0.039	0.023	0.028	0.011	0.012	0.016	0.016	0.014	0.018
235.0	80.06	347.9	 1095	 1113	222.8	4.999	1.918	1.139	0.851	1.290	1.058	1.160	0.488	0.706	0.600	0.637	0.448	0.313	0.321	0.401	0.403	0.303	0.164	0.218	0.157	0.193	0.198	0.200	0.203	0.171	0.191	0.230	0.198	0.183	0.163	0.218	0.287	0.284	0.286	0.208	0.299	0.314	0.411	0.453	0.464	0.322	0.293	0.811	1.818	3.041	4.449	4.287	2.028	0.428	0.072	0.094	0.067	0.094	0.071	0.027	0.028	0.054	0.031	0.027	0.014	0.022	0.012	0.008	0.031	0.031	0.043	0.010	0.011	0.010	0.024	0.026	0.006
240.0	127.0	116.7	399.8	 1227	 1000	125.1	3.532	1.229	1.521	1.299	1.238	1.149	0.773	0.714	0.742	0.699	0.475	0.290	0.361	0.418	0.320	0.325	0.210	0.277	0.199	0.226	0.221	0.201	0.214	0.229	0.259	0.234	0.211	0.183	0.193	0.147	0.194	0.308	0.297	0.220	0.233	0.220	0.248	0.310	0.501	0.650	0.344	0.345	0.521	0.959	2.228	4.768	5.974	3.964	1.165	0.143	0.090	0.095	0.058	0.053	0.042	0.078	0.012	0.026	0.055	0.019	0.020	0.011	0.055	0.053	0.025	0.009	0.018	0.009	-0.005	0.015	-0.009
245.0	121.5	131.5	114.9	533.2	 1359	427.0	67.15	2.247	1.843	1.276	1.458	1.212	0.785	0.890	0.583	0.700	0.485	0.410	0.346	0.326	0.297	0.321	0.224	0.237	0.202	0.164	0.258	0.199	0.314	0.172	0.234	0.191	0.188	0.202	0.221	0.172	0.206	0.272	0.252	0.241	0.271	0.203	0.237	0.235	0.301	0.583	0.598	0.611	0.342	0.352	0.611	1.657	3.875	6.383	6.206	3.140	0.588	0.077	0.066	0.089	0.040	0.035	0.056	0.045	0.059	0.023	0.060	0.006	0.035	0.005	0.018	0.007	0.015	0.013	0.013	0.007	-0.001
250.0	50.99	141.3	133.7	155.3	537.0	 1060	846.1	140.3	7.461	2.066	1.510	1.515	1.118	0.933	0.764	0.731	0.474	0.500	0.428	0.445	0.343	0.291	0.238	0.255	0.247	0.183	0.230	0.232	0.235	0.210	0.179	0.185	0.209	0.203	0.165	0.126	0.191	0.184	0.189	0.242	0.237	0.212	0.226	0.229	0.213	0.326	0.362	0.548	0.616	0.562	0.433	0.531	1.030	2.117	3.757	5.235	5.975	4.943	2.410	0.649	0.091	0.054	0.059	0.053	0.065	0.047	0.040	0.028	0.040	0.030	0.009	0.001	0.033	0.009	0.017	0.006	0.011
255.0	16.52	47.04	142.3	166.4	144.7	334.9	 1076	 1323	192.1	7.104	2.197	1.989	1.464	0.915	0.833	0.683	0.669	0.549	0.505	0.412	0.381	0.250	0.292	0.336	0.208	0.203	0.233	0.278	0.232	0.221	0.208	0.190	0.169	0.217	0.166	0.173	0.165	0.141	0.185	0.170	0.227	0.261	0.248	0.236	0.230	0.226	0.230	0.287	0.336	0.520	0.800	0.850	0.529	0.644	0.939	1.366	2.425	5.528	8.780	7.698	3.477	0.559	0.102	0.079	0.064	0.041	0.048	0.051	0.029	0.021	0.023	0.040	0.016	-0.008	0.028	0.008	0.024
260.0	7.829	13.80	69.89	192.5	127.5	90.28	410.3	 1404	 1256	138.4	4.407	2.149	1.899	1.213	1.007	0.919	0.600	0.706	0.571	0.483	0.308	0.272	0.257	0.258	0.254	0.198	0.317	0.271	0.220	0.268	0.211	0.194	0.191	0.196	0.162	0.205	0.163	0.168	0.168	0.119	0.244	0.293	0.273	0.228	0.213	0.194	0.286	0.176	0.216	0.273	0.564	1.068	1.038	0.700	0.367	0.414	0.657	1.670	4.224	8.044	9.678	6.730	2.173	0.276	0.046	0.042	0.045	0.029	0.055	0.032	0.032	0.036	0.022	0.015	0.008	0.018	0.006
265.0	6.129	5.793	23.83	113.8	190.8	80.43	108.7	597.0	 1659	 1080	97.14	3.241	2.001	1.226	1.145	0.919	0.843	0.807	0.539	0.509	0.446	0.325	0.283	0.353	0.295	0.227	0.288	0.214	0.290	0.239	0.194	0.267	0.230	0.225	0.180	0.180	0.133	0.163	0.172	0.123	0.171	0.281	0.309	0.247	0.254	0.215	0.242	0.233	0.192	0.210	0.255	0.500	0.939	1.149	0.731	0.371	0.273	0.466	1.135	2.680	6.206	10.32	10.17	5.431	1.158	0.075	0.078	0.053	0.064	0.017	0.025	0.037	0.032	0.019	0.008	0.028	0.017
270.0	11.29	6.520	9.870	36.41	119.0	176.8	107.5	159.8	634.7	 1380	 1358	403.2	16.66	2.193	1.456	1.519	0.955	0.829	0.707	0.626	0.481	0.383	0.287	0.450	0.293	0.292	0.248	0.218	0.289	0.273	0.320	0.322	0.321	0.295	0.264	0.224	0.194	0.225	0.168	0.155	0.164	0.194	0.234	0.245	0.294	0.259	0.203	0.234	0.176	0.175	0.166	0.222	0.401	0.639	0.896	1.070	0.927	0.552	0.421	0.731	1.636	3.398	5.790	8.201	9.446	7.706	4.016	0.977	0.114	0.080	0.040	0.030	0.042	0.026	0.032	0.044	0.018
275.0	47.72	34.41	30.35	35.32	61.73	145.0	239.7	165.9	218.8	472.6	 1294	 1875	140.0	13.94	2.182	1.847	1.196	1.005	0.849	0.697	0.625	0.455	0.366	0.371	0.346	0.319	0.285	0.234	0.317	0.280	0.265	0.308	0.493	0.651	0.589	0.494	0.407	0.480	0.363	0.364	0.320	0.330	0.260	0.322	0.394	0.338	0.328	0.293	0.218	0.262	0.288	0.231	0.365	0.364	0.490	0.658	1.186	1.582	1.360	0.822	0.747	1.177	1.809	2.472	3.986	7.779	12.13	11.65	5.212	2.385	0.122	0.081	0.039	0.058	0.023	0.055	0.021
280.0	121.9	92.75	74.61	73.03	85.10	121.9	256.2	307.0	246.9	304.9	657.2	 1755	 1684	112.9	6.102	2.538	1.678	1.144	1.085	0.778	0.618	0.535	0.385	0.520	0.386	0.366	0.298	0.265	0.299	0.284	0.350	0.543	0.894	1.044	1.234	0.977	0.779	0.827	0.782	0.553	0.496	0.652	0.469	0.515	0.485	0.624	0.442	0.539	0.421	0.381	0.408	0.404	0.436	0.522	0.510	0.612	0.940	1.348	1.961	2.099	1.432	1.072	1.475	1.650	2.342	3.331	6.267	10.96	13.78	24.72	3.091	0.290	0.072	0.086	0.046	0.094	0.003
285.0	231.6	169.3	125.2	114.3	124.8	148.0	228.3	401.2	473.8	442.0	542.3	934.8	 1815	945.9	81.23	4.517	2.041	1.421	1.362	0.898	0.637	0.547	0.492	0.438	0.438	0.398	0.279	0.325	0.358	0.362	0.406	0.639	1.376	1.834	1.973	1.519	1.230	1.047	1.086	0.844	0.713	0.859	0.787	0.722	0.740	0.770	0.727	0.682	0.624	0.495	0.476	0.571	0.651	0.664	0.666	0.738	0.861	1.132	1.540	2.344	2.906	2.469	1.974	2.317	2.780	2.742	3.200	4.879	8.346	26.05	12.82	6.832	1.267	0.136	0.117	0.099	0.022
290.0	376.5	285.9	222.9	209.9	231.6	269.1	306.8	442.5	682.6	800.2	758.4	722.7	825.4	 1232	 1202	 1000	17.57	1.915	1.535	1.066	0.856	0.703	0.577	0.450	0.510	0.393	0.368	0.350	0.310	0.358	0.420	0.958	2.053	2.812	2.853	2.247	1.907	1.580	1.625	1.341	1.201	1.212	1.169	1.086	1.110	1.096	1.030	0.987	0.963	0.851	0.800	0.921	1.096	1.140	1.199	1.331	1.524	1.565	1.797	2.377	3.051	3.848	4.136	4.432	4.026	3.789	3.723	3.797	3.770	8.096	7.032	9.316	10.35	8.564	4.403	0.967	0.155
295.0	501.4	404.1	318.5	300.7	336.9	383.9	409.6	503.3	708.9	 1005	 1100	825.4	520.7	442.2	982.7	 3397	508.4	12.88	2.279	1.315	1.083	0.847	0.733	0.577	0.553	0.454	0.388	0.391	0.370	0.395	0.460	1.106	2.450	3.554	3.560	2.964	2.263	2.098	1.848	1.649	1.509	1.556	1.491	1.485	1.332	1.416	1.298	1.245	1.255	1.095	0.938	1.344	1.507	1.596	1.749	1.766	1.964	2.043	2.347	2.586	3.190	3.765	4.393	5.763	6.245	5.646	4.649	4.364	3.114	3.187	2.537	2.820	4.083	8.130	13.38	12.82	5.324
300.0	560.7	452.6	366.0	358.1	394.3	442.3	466.5	558.7	729.0	982.1	 1216	981.2	496.9	261.4	366.1	 2100	 2296	71.23	6.655	1.749	1.298	0.873	0.898	0.683	0.533	0.515	0.516	0.375	0.403	0.440	0.394	1.100	2.694	4.068	3.701	3.253	2.282	2.307	1.953	1.709	1.630	1.632	1.601	1.516	1.487	1.543	1.281	1.337	1.454	1.246	1.129	1.402	1.649	1.727	2.070	2.110	2.424	2.366	2.596	2.828	3.267	3.760	4.412	5.351	6.333	6.807	5.647	4.813	3.203	2.431	1.691	1.446	1.536	2.640	6.147	12.22	15.50
305.0	580.2	464.9	375.3	385.4	431.8	474.0	507.2	578.2	727.1	922.0	 1124	 1088	563.5	246.6	171.0	673.1	 1917	 1903	61.26	3.127	1.505	1.176	0.881	0.863	0.736	0.601	0.523	0.448	0.541	0.398	0.459	1.064	2.636	3.797	3.653	3.237	2.422	2.204	1.997	1.697	1.678	1.545	1.470	1.515	1.543	1.599	1.374	1.373	1.284	1.286	1.240	1.424	1.633	1.900	2.113	2.282	2.538	2.646	2.686	3.171	3.514	3.865	4.422	4.802	5.576	6.012	6.099	5.960	4.032	2.378	1.725	1.302	1.055	1.196	1.809	4.052	8.822
310.0	536.6	424.6	365.3	369.3	417.9	473.7	498.1	569.9	691.2	833.2	951.8	958.8	701.5	331.5	154.4	210.2	589.9	 1427	 1920	250.9	13.90	1.596	1.186	1.045	0.815	0.705	0.621	0.544	0.456	0.376	0.472	0.929	2.161	3.173	3.252	2.798	2.338	1.961	1.746	1.533	1.564	1.472	1.429	1.445	1.546	1.420	1.305	1.314	1.145	1.193	1.194	1.553	1.673	1.918	2.117	2.214	2.466	2.495	2.713	3.055	3.366	3.595	3.984	4.337	4.909	4.840	4.906	5.270	4.600	3.557	2.406	1.551	1.100	0.901	0.938	1.326	2.431
315.0	491.1	384.4	346.6	337.6	392.4	442.5	473.6	544.1	638.6	756.8	833.2	787.3	643.9	495.7	227.1	126.8	177.0	366.7	984.2	 1711	391.6	12.31	1.611	1.256	0.939	0.922	0.702	0.749	0.456	0.417	0.514	0.851	1.654	2.635	2.716	2.360	1.809	1.769	1.576	1.389	1.296	1.250	1.259	1.398	1.415	1.379	1.216	1.209	1.179	1.151	1.104	1.359	1.763	1.844	2.016	2.256	2.430	2.329	2.528	2.674	3.145	3.498	3.762	3.941	4.146	4.264	4.230	4.063	3.641	3.408	3.338	2.627	1.708	1.122	0.834	0.822	0.934
320.0	482.8	387.9	329.9	319.7	365.3	411.9	445.9	509.4	606.5	707.5	778.5	720.5	569.0	507.3	361.6	144.9	101.5	118.8	289.6	 1132	 1681	289.9	5.316	1.570	1.229	0.928	0.695	0.710	0.485	0.642	0.521	0.856	1.498	2.206	2.280	2.108	1.616	1.508	1.391	1.283	1.219	1.211	1.377	1.365	1.383	1.416	1.211	1.280	1.159	0.996	1.096	1.195	1.597	1.701	1.894	2.018	2.101	2.181	2.335	2.620	2.872	3.233	3.446	3.717	3.904	4.036	4.014	3.736	3.304	3.044	3.064	3.132	2.806	1.866	1.012	0.860	0.727
325.0	482.6	404.3	323.4	301.3	334.2	389.9	414.5	486.0	578.0	669.7	733.5	689.6	537.2	436.1	421.1	233.9	102.8	75.41	96.32	368.9	 1310	 1530	48.63	2.650	1.392	1.057	0.741	0.736	0.719	0.676	0.646	0.823	1.343	1.907	2.105	1.679	1.444	1.448	1.261	1.203	1.144	1.143	1.150	1.304	1.238	1.438	1.310	1.292	1.062	0.972	1.033	1.200	1.409	1.544	1.670	1.982	2.018	2.181	2.358	2.548	2.887	3.056	3.392	3.473	3.572	3.775	3.639	3.717	3.293	2.950	2.529	2.426	2.952	2.684	1.693	0.981	0.822
330.0	470.0	410.9	313.6	286.1	304.0	356.0	387.2	454.5	546.6	630.2	682.7	647.0	522.1	403.8	353.6	324.8	194.6	87.74	66.99	113.4	388.1	 1076	 1356	207.9	13.77	1.593	1.065	0.817	0.817	0.706	0.622	0.831	1.162	1.664	1.773	1.386	1.292	1.255	1.082	1.115	0.973	1.059	1.008	1.166	1.246	1.412	1.221	1.260	1.111	1.004	1.022	1.191	1.335	1.392	1.571	1.759	1.879	2.042	2.173	2.372	2.674	2.755	3.189	3.378	3.386	3.564	3.393	3.426	3.011	2.810	2.540	2.210	2.248	2.145	2.171	2.078	1.638
335.0	471.9	422.6	324.9	280.8	287.8	331.7	361.8	433.1	514.2	582.3	641.2	626.5	522.9	414.5	326.1	280.2	298.8	166.9	76.29	69.74	117.3	271.3	714.7	 1607	340.9	14.62	1.678	1.230	1.049	0.804	0.765	0.819	0.972	1.334	1.397	1.235	1.080	1.099	1.025	0.930	0.941	1.070	0.981	1.013	1.377	1.312	1.358	1.390	1.135	1.018	0.905	1.146	1.169	1.363	1.499	1.708	1.884	2.078	2.147	2.302	2.464	2.527	2.970	3.413	3.279	3.197	3.327	3.335	3.002	2.850	2.534	2.258	1.981	1.886	1.762	1.939	2.217
340.0	446.5	428.4	329.2	284.8	282.9	320.5	349.7	408.4	487.5	551.8	604.3	598.4	519.5	423.0	329.6	259.7	266.6	260.9	117.5	69.52	64.33	87.45	203.3	988.5	 1650	269.6	5.206	1.477	1.090	0.928	0.718	0.912	0.954	1.153	1.325	1.185	0.981	1.049	0.960	0.767	0.893	0.866	0.934	0.944	1.313	1.263	1.183	1.308	1.275	1.074	0.964	1.205	1.180	1.396	1.444	1.612	1.756	1.853	1.994	2.299	2.363	2.481	2.856	3.039	3.045	3.249	2.990	3.277	2.977	2.734	2.524	2.300	2.048	1.895	1.806	1.623	1.656
345.0	424.0	419.4	331.3	287.3	277.7	307.2	342.0	390.2	453.7	519.3	567.8	566.7	507.4	423.8	337.0	258.5	226.7	270.3	202.9	87.57	61.59	53.29	68.28	297.3	 1277	 1463	43.19	2.736	1.301	1.152	0.881	0.881	0.897	1.166	1.283	1.070	0.920	1.071	0.825	0.841	0.754	0.798	0.925	0.899	1.218	1.174	1.196	1.284	1.127	1.013	0.970	1.247	1.198	1.263	1.436	1.429	1.648	1.810	2.072	2.268	2.247	2.443	2.510	2.919	3.010	3.049	2.754	3.016	3.013	2.636	2.462	2.574	2.098	2.017	1.689	1.631	1.597
350.0	399.4	388.8	330.8	289.7	274.5	299.0	324.3	367.8	416.8	481.1	527.9	532.0	483.0	418.0	342.1	270.2	219.1	210.4	235.3	173.5	85.87	57.52	48.13	89.43	362.8	 1028	 1260	472.3	13.82	1.499	1.017	0.928	1.048	1.116	1.118	1.083	0.946	0.919	0.812	0.858	0.715	0.771	0.813	0.860	1.085	1.054	1.110	1.229	1.169	1.080	0.951	1.169	1.218	1.245	1.341	1.361	1.616	1.618	1.939	2.126	2.041	2.421	2.405	2.530	2.635	2.689	2.670	2.890	2.839	2.525	2.580	2.341	2.208	2.058	1.827	1.666	1.460
355.0	347.9	374.6	331.4	295.7	270.1	282.4	301.9	337.5	380.3	431.0	480.7	486.7	459.2	405.6	342.9	282.0	230.7	200.2	191.4	221.8	164.1	77.69	55.08	51.93	101.6	252.0	643.2	 1570	328.0	15.72	1.443	1.076	1.113	1.113	1.075	1.065	0.889	0.901	0.837	0.772	0.672	0.770	0.752	0.889	0.934	1.002	1.096	1.082	1.123	1.079	1.020	1.227	1.192	1.116	1.308	1.419	1.517	1.475	1.766	1.955	1.990	1.935	2.318	2.510	2.502	2.437	2.644	2.677	2.485	2.334	2.460	2.289	2.244	2.098	1.945	1.775	1.602
360.0	336.9	355.5	329.3	303.7	268.5	275.3	290.2	316.4	355.9	404.0	450.5	461.3	438.1	397.4	346.9	290.8	244.0	210.8	186.3	193.1	219.3	121.6	66.07	50.79	49.22	74.45	175.1	926.0	 1610	267.4	5.210	1.290	1.186	1.145	1.051	0.885	0.819	0.887	0.909	0.779	0.641	0.714	0.724	0.876	0.945	0.934	1.069	1.078	1.155	1.007	1.044	1.197	1.162	1.162	1.280	1.356	1.459	1.529	1.593	1.907	1.897	1.946	2.241	2.264	2.181	2.437	2.472	2.416	2.273	2.287	2.344	2.349	2.320	1.983	2.020	1.844	1.711
365.0	333.3	354.2	329.7	306.9	268.5	270.0	280.0	301.0	328.7	376.9	420.7	433.4	426.1	387.3	345.5	295.5	256.9	224.7	195.2	179.1	208.3	186.7	89.09	56.58	43.10	39.26	54.80	266.6	 1253	 1547	41.88	2.700	1.324	1.304	1.115	0.907	0.982	0.993	0.861	0.749	0.687	0.654	0.761	0.917	0.896	0.907	1.095	1.079	1.152	1.089	1.045	1.134	1.144	1.207	1.248	1.411	1.386	1.564	1.528	1.663	1.729	1.883	1.961	2.008	2.111	2.290	2.162	2.387	2.338	2.146	2.175	2.400	2.133	2.174	2.018	1.695	1.913
370.0	324.0	346.8	338.6	317.4	275.3	271.1	270.7	281.4	309.5	348.5	387.0	404.8	403.3	377.1	345.2	306.4	272.6	245.1	220.1	191.5	180.0	195.1	160.5	84.49	50.76	38.99	33.10	73.30	349.6	 1124	 1267	437.3	11.44	1.545	1.346	1.011	1.012	1.036	0.814	0.787	0.787	0.812	0.786	0.810	0.820	0.946	0.992	1.066	1.120	1.060	1.169	1.245	1.230	1.263	1.255	1.327	1.334	1.494	1.482	1.438	1.548	1.649	1.775	1.983	2.008	2.124	2.148	2.275	2.218	2.176	2.148	2.136	2.187	2.214	2.074	1.948	2.009
375.0	329.2	346.9	342.4	325.4	284.3	267.8	264.6	263.0	287.6	314.6	352.2	368.5	376.0	362.7	345.1	315.8	290.8	268.1	246.1	216.1	187.9	166.7	180.1	152.8	72.14	45.74	33.38	33.60	88.84	266.6	671.1	 1529	283.1	12.50	1.552	1.256	1.102	0.994	0.935	0.839	0.903	0.790	0.855	0.876	0.888	0.987	1.065	1.102	1.122	1.098	1.141	1.436	1.227	1.350	1.426	1.366	1.334	1.372	1.429	1.265	1.402	1.572	1.587	1.817	1.920	1.911	1.980	2.194	1.923	2.067	2.066	2.142	2.117	2.155	2.274	1.895	2.177
380.0	330.9	339.9	344.9	331.6	292.5	273.1	261.0	255.9	263.9	292.4	328.2	352.3	361.8	354.7	340.7	318.6	302.6	282.1	260.2	233.7	197.2	166.6	155.5	178.8	112.3	54.09	37.35	27.09	32.54	68.46	175.6	934.6	 1459	220.1	4.233	1.464	1.232	1.155	0.890	0.908	0.795	0.893	0.977	0.896	0.911	0.938	0.994	1.036	1.188	1.113	1.236	1.406	1.371	1.386	1.387	1.389	1.301	1.354	1.457	1.239	1.414	1.385	1.365	1.651	1.722	1.663	1.936	1.956	1.983	1.999	1.897	2.034	2.051	2.239	2.175	2.189	2.122
385.0	347.0	343.0	342.9	334.3	300.4	280.8	252.1	243.4	248.5	273.8	307.0	333.8	343.4	343.8	335.5	319.6	305.6	289.2	266.8	241.4	207.1	170.1	145.0	156.2	151.1	74.21	41.07	27.95	21.69	24.93	46.68	267.5	 1189	 1204	34.02	1.927	1.317	1.209	0.988	0.949	0.896	1.013	0.923	0.820	1.037	0.937	0.969	0.969	1.190	1.161	1.170	1.338	1.343	1.374	1.386	1.444	1.498	1.327	1.265	1.414	1.353	1.339	1.311	1.553	1.487	1.676	1.798	1.803	1.904	2.061	1.900	2.098	2.062	2.195	2.233	2.075	1.975
390.0	344.9	343.3	351.2	345.5	307.1	274.9	246.9	229.6	230.6	250.7	281.4	307.4	321.0	328.6	321.6	311.8	305.5	289.6	271.7	248.9	211.5	176.1	144.9	126.7	135.7	117.7	60.24	32.15	21.31	17.24	18.77	65.86	330.5	899.4	 1023	140.2	9.514	1.487	1.200	1.092	0.985	1.007	1.006	0.927	1.001	1.000	0.917	1.064	1.109	1.133	1.243	1.427	1.463	1.462	1.342	1.351	1.391	1.298	1.190	1.258	1.217	1.206	1.221	1.440	1.457	1.591	1.564	1.654	1.783	1.908	1.866	2.005	1.968	2.091	2.139	2.067	2.159
395.0	340.0	335.8	335.0	340.4	306.1	267.5	238.1	209.5	209.0	224.7	253.2	280.1	294.5	304.5	303.8	297.4	295.9	283.6	268.5	246.6	212.3	178.5	145.7	118.9	103.8	111.6	102.0	44.74	24.12	17.68	13.87	21.57	78.81	211.6	571.8	 1189	230.1	9.462	1.553	1.261	1.026	1.109	1.021	0.956	0.902	0.949	0.991	1.097	1.086	1.033	1.264	1.453	1.387	1.467	1.320	1.419	1.451	1.210	1.201	1.093	1.058	1.113	1.122	1.235	1.315	1.343	1.365	1.555	1.650	1.770	1.721	1.939	1.833	1.949	2.014	2.001	2.134
400.0	326.5	319.7	326.5	324.0	300.9	260.6	228.5	202.2	192.4	211.1	231.9	255.4	275.7	286.5	288.1	284.5	281.8	274.9	258.4	240.0	208.2	176.7	143.5	117.0	93.27	87.92	108.8	72.77	29.29	18.59	14.10	12.81	23.41	51.60	148.8	774.5	 1145	181.5	3.237	1.439	1.045	1.174	0.999	0.981	1.032	0.981	1.038	1.090	1.150	1.033	1.128	1.456	1.321	1.416	1.254	1.342	1.431	1.210	1.140	1.000	0.964	1.125	1.016	1.159	1.147	1.269	1.249	1.253	1.502	1.577	1.743	1.803	1.800	1.826	1.910	2.026	1.999
405.0	319.5	319.2	315.7	311.8	285.4	260.0	217.4	189.2	180.4	194.1	215.5	238.4	252.9	268.8	270.9	270.9	266.5	262.7	250.4	230.0	203.8	170.6	140.5	114.5	90.12	74.50	84.60	93.84	44.76	20.52	15.10	11.37	11.61	16.15	37.28	222.1	938.0	977.3	28.99	1.863	1.154	1.205	0.968	0.948	0.973	1.025	1.003	1.086	1.095	0.993	1.081	1.255	1.330	1.350	1.414	1.348	1.197	1.194	1.126	1.090	0.909	1.081	1.035	1.065	0.993	1.161	1.355	1.204	1.296	1.472	1.638	1.706	1.760	1.685	1.880	1.806	1.852
410.0	285.2	291.6	295.6	294.0	268.1	245.9	208.4	174.0	164.8	174.8	192.6	212.5	227.3	242.2	244.8	246.8	247.5	240.3	231.9	215.5	187.4	159.8	132.9	107.3	85.76	68.15	60.70	72.26	73.17	35.57	17.50	12.17	9.955	9.240	12.72	53.40	260.7	760.2	825.8	127.9	7.341	1.287	1.080	1.019	0.968	1.042	0.946	1.070	1.010	1.000	1.060	1.276	1.277	1.253	1.255	1.208	1.165	1.080	1.032	0.988	0.850	0.892	0.949	0.879	0.938	1.125	1.051	1.180	1.225	1.341	1.406	1.525	1.574	1.594	1.518	1.739	1.758
415.0	255.1	264.6	273.1	273.6	243.4	220.0	191.1	157.1	149.4	152.4	170.2	185.2	199.5	209.6	213.9	217.8	223.1	216.0	205.3	193.5	167.2	144.2	122.6	99.07	79.63	63.39	51.69	47.51	61.43	67.16	29.07	13.37	9.926	8.276	7.989	15.60	61.26	179.0	489.0	952.6	195.2	6.550	1.097	1.023	1.031	0.928	0.820	0.955	1.054	0.894	0.950	1.239	1.149	1.122	1.179	1.140	1.052	1.041	0.958	0.844	0.857	0.823	0.876	0.865	0.881	1.014	1.028	1.006	1.020	1.160	1.236	1.365	1.357	1.454	1.348	1.529	1.535
420.0	250.2	236.6	248.8	249.3	228.7	205.9	179.3	150.1	138.8	138.9	152.8	165.6	180.2	185.7	195.5	197.6	199.4	195.9	186.5	175.0	154.0	132.0	112.8	92.74	74.64	59.88	48.43	39.78	42.00	65.92	46.88	17.93	10.52	8.368	6.947	7.506	17.02	42.93	128.1	642.9	900.8	30.95	2.509	1.129	0.902	0.923	0.832	0.890	0.899	0.943	0.858	1.140	1.122	1.129	1.040	1.069	1.006	0.924	0.994	0.775	0.754	0.728	0.745	0.743	0.918	0.850	0.920	0.880	0.885	1.105	1.099	1.296	1.150	1.223	1.256	1.242	1.366
425.0	232.2	219.1	227.3	243.0	213.8	194.3	169.3	137.6	124.8	129.7	140.2	151.1	162.8	170.2	178.6	179.8	181.0	179.1	169.6	158.3	141.3	122.0	105.5	86.17	69.44	57.79	45.85	36.17	32.50	46.29	61.28	30.64	11.83	9.119	6.815	6.088	7.391	12.54	31.45	187.5	784.0	706.5	26.31	1.494	0.969	0.874	0.891	0.782	0.949	0.805	0.814	1.062	1.013	0.978	1.004	0.968	0.939	0.781	0.886	0.837	0.627	0.724	0.764	0.774	0.703	0.740	0.858	0.808	0.816	0.878	0.912	0.983	1.077	1.196	1.246	1.321	1.279
430.0	216.6	197.7	205.4	210.6	192.9	179.2	150.7	127.4	113.7	115.0	124.7	135.1	141.4	151.1	155.8	156.6	157.5	155.9	149.5	139.0	124.8	108.6	92.79	77.96	63.98	53.23	43.06	34.26	29.43	30.35	44.40	47.04	24.18	10.09	7.122	5.902	5.610	5.890	9.568	44.28	223.9	593.9	647.4	113.8	6.128	1.058	0.797	0.848	0.836	0.775	0.793	0.982	0.948	0.892	0.957	0.877	0.890	0.721	0.758	0.716	0.614	0.632	0.683	0.625	0.637	0.661	0.768	0.649	0.804	0.846	0.913	0.898	0.924	1.021	1.088	1.074	1.199
435.0	381.7	165.9	178.5	189.7	170.8	160.9	138.6	114.7	100.1	103.9	109.2	117.7	124.1	129.2	129.0	134.1	135.2	133.7	128.3	120.2	108.7	94.45	81.16	69.01	57.24	48.45	40.46	32.39	27.41	25.03	26.73	37.85	43.40	18.87	7.909	6.272	5.260	4.773	4.815	11.99	51.70	139.8	404.5	802.7	172.8	4.212	0.956	0.959	0.820	0.769	0.738	0.928	0.883	0.828	0.826	0.883	0.783	0.683	0.739	0.606	0.554	0.584	0.585	0.598	0.566	0.582	0.628	0.727	0.718	0.778	0.791	0.800	0.837	0.844	0.871	0.863	0.957
440.0	716.2	160.6	161.2	167.1	155.6	146.7	124.5	104.8	95.54	92.86	97.92	104.5	112.1	115.0	115.8	117.0	120.3	118.8	113.7	107.0	96.30	85.06	74.06	63.63	52.73	45.69	37.41	31.30	26.83	22.82	21.24	24.89	42.20	32.52	10.42	6.427	5.075	4.495	3.681	5.043	13.21	32.96	108.5	592.0	771.4	27.98	1.479	0.895	0.834	0.763	0.713	0.827	0.864	0.786	0.750	0.797	0.731	0.646	0.725	0.519	0.525	0.568	0.563	0.517	0.619	0.591	0.560	0.628	0.636	0.669	0.555	0.637	0.738	0.741	0.796	0.845	0.940
445.0	 1107	214.2	145.6	152.0	139.4	134.2	118.5	96.56	89.59	87.52	89.80	95.55	99.69	103.5	106.2	106.6	107.5	105.2	102.7	96.43	87.44	76.58	66.98	57.54	48.88	42.19	34.80	29.93	25.12	21.86	18.80	18.15	29.07	39.81	18.92	6.945	5.406	4.304	3.654	3.491	4.856	8.972	25.99	183.6	742.7	590.4	20.18	1.093	0.790	0.782	0.668	0.792	0.812	0.830	0.684	0.709	0.663	0.672	0.615	0.639	0.538	0.587	0.521	0.467	0.479	0.512	0.436	0.579	0.609	0.591	0.539	0.571	0.695	0.729	0.817	0.731	0.792
450.0	 1117	528.3	142.7	132.8	128.2	117.7	104.9	85.93	78.29	76.56	79.34	81.82	85.24	89.30	90.24	90.46	91.27	89.00	86.38	82.70	74.24	65.32	58.05	50.29	43.23	37.41	31.64	27.92	23.98	20.89	17.51	15.54	17.09	27.91	30.69	14.70	6.230	4.497	3.764	3.237	3.093	3.657	7.448	42.64	217.4	566.5	460.5	98.67	4.525	0.739	0.669	0.756	0.776	0.735	0.669	0.651	0.622	0.621	0.545	0.526	0.508	0.516	0.511	0.458	0.461	0.405	0.484	0.434	0.467	0.537	0.527	0.539	0.596	0.640	0.658	0.630	0.666
455.0	544.9	923.8	257.4	117.4	112.7	102.3	88.12	75.84	67.45	66.29	68.67	71.36	74.79	74.79	75.76	75.31	76.85	74.28	72.38	67.04	62.32	55.65	48.70	42.53	36.92	33.53	28.85	24.84	21.66	19.12	16.65	14.24	12.92	14.69	23.79	27.52	12.11	4.973	3.897	3.093	2.886	2.765	3.239	10.82	49.81	135.1	350.4	688.1	141.8	3.332	0.705	0.700	0.663	0.735	0.567	0.525	0.630	0.584	0.516	0.374	0.441	0.455	0.400	0.424	0.384	0.442	0.394	0.357	0.414	0.473	0.457	0.487	0.493	0.564	0.537	0.539	0.578
460.0	224.3	870.0	496.2	109.5	97.36	91.13	82.65	73.00	61.68	58.65	61.17	63.58	63.78	65.34	65.16	64.37	66.49	65.08	63.29	58.93	53.14	49.20	43.66	38.69	33.41	29.88	25.70	22.33	20.16	18.08	15.03	13.19	11.47	10.99	14.51	25.57	20.56	7.150	3.976	3.072	2.746	2.700	2.359	3.858	12.40	31.45	93.73	503.1	617.2	21.55	1.279	0.729	0.646	0.632	0.577	0.487	0.559	0.498	0.406	0.394	0.441	0.368	0.346	0.343	0.403	0.355	0.384	0.342	0.433	0.379	0.417	0.452	0.497	0.383	0.446	0.514	0.514
465.0	122.3	571.0	776.8	151.0	85.52	82.72	74.54	65.77	55.23	53.98	55.36	56.58	56.44	57.01	58.59	57.36	58.56	58.54	55.67	52.33	47.85	43.52	39.61	33.83	30.44	27.04	23.30	21.24	18.65	16.39	14.28	12.58	11.00	9.585	9.728	17.38	25.28	12.36	4.432	3.147	2.470	2.468	2.220	2.152	3.990	8.311	22.30	152.1	596.3	454.3	17.01	0.833	0.641	0.622	0.573	0.474	0.600	0.486	0.404	0.393	0.349	0.294	0.339	0.346	0.307	0.353	0.344	0.377	0.378	0.389	0.405	0.364	0.411	0.360	0.390	0.415	0.429
470.0	94.32	222.0	719.3	412.2	83.95	71.70	66.11	58.20	50.31	49.22	50.35	49.44	48.37	49.40	49.18	48.31	48.70	47.49	45.80	43.63	40.26	36.71	33.18	29.30	25.96	23.06	20.53	18.83	16.56	15.21	13.00	11.58	10.18	8.579	7.962	9.605	16.90	19.17	9.686	3.819	2.517	2.277	1.968	1.939	2.103	2.981	5.950	35.29	174.7	426.3	334.1	90.72	4.314	0.605	0.550	0.509	0.561	0.450	0.404	0.380	0.338	0.326	0.270	0.293	0.302	0.307	0.276	0.322	0.312	0.318	0.323	0.312	0.372	0.333	0.388	0.399	0.363
475.0	98.71	97.06	334.1	665.8	182.7	61.93	57.45	50.13	45.31	43.40	41.78	42.58	42.48	41.09	41.10	40.33	39.74	38.69	37.97	35.54	32.61	30.62	27.56	24.69	22.48	19.94	17.93	16.46	14.92	13.67	12.39	10.50	9.223	7.808	6.934	6.834	8.188	14.51	16.44	7.922	2.766	2.298	1.857	1.702	1.837	1.754	2.233	8.702	39.83	100.1	235.1	498.3	125.0	2.843	0.531	0.492	0.484	0.418	0.432	0.365	0.328	0.284	0.281	0.286	0.274	0.206	0.256	0.224	0.291	0.240	0.289	0.277	0.279	0.223	0.266	0.261	0.283
480.0	104.0	63.67	135.3	617.7	377.0	61.21	52.57	46.56	42.70	39.61	38.89	37.27	37.35	36.47	35.22	33.82	34.92	32.92	32.47	30.98	28.71	26.39	23.84	21.80	19.50	17.66	16.52	14.94	13.63	12.36	11.15	9.604	8.500	7.324	6.129	5.905	5.642	8.495	16.07	12.92	4.269	2.108	1.863	1.594	1.701	1.653	1.496	2.718	9.684	23.17	62.16	329.1	458.4	24.49	1.287	0.536	0.483	0.442	0.348	0.288	0.237	0.297	0.313	0.243	0.259	0.211	0.267	0.268	0.264	0.261	0.268	0.256	0.226	0.213	0.229	0.266	0.223
485.0	105.2	60.06	73.58	382.4	555.8	102.8	48.69	40.13	38.98	36.14	35.18	34.06	32.11	32.61	30.43	30.49	30.08	29.37	28.32	27.22	24.76	23.09	21.91	19.34	18.00	16.13	14.72	13.60	12.27	11.16	9.889	9.063	8.187	7.010	5.954	5.562	4.807	5.463	11.05	15.40	7.888	2.675	1.752	1.603	1.575	1.612	1.355	1.545	2.917	5.931	14.73	93.61	414.6	388.3	20.18	0.659	0.555	0.412	0.393	0.338	0.287	0.285	0.263	0.243	0.251	0.232	0.260	0.195	0.221	0.256	0.255	0.213	0.215	0.245	0.200	0.221	0.249
490.0	84.92	78.39	53.21	142.7	514.8	326.1	52.49	35.18	33.55	32.48	31.01	29.79	28.42	27.28	26.69	25.94	25.48	24.58	24.27	22.89	21.31	20.33	18.35	16.79	15.56	13.68	12.75	11.88	11.15	10.01	9.474	8.209	7.414	6.285	5.550	5.017	4.414	4.246	5.671	10.59	12.30	6.298	2.203	1.575	1.494	1.418	1.399	1.222	1.448	2.045	3.977	21.73	116.2	311.4	315.5	93.81	4.997	0.445	0.351	0.347	0.277	0.277	0.254	0.212	0.214	0.197	0.222	0.180	0.184	0.197	0.218	0.175	0.235	0.196	0.205	0.226	0.225
495.0	51.74	87.11	53.01	63.94	236.7	568.5	146.4	32.54	29.48	28.27	25.87	25.54	24.09	22.90	22.17	21.40	21.35	20.89	19.89	19.29	18.65	16.85	15.69	14.45	13.16	12.08	10.89	10.27	9.830	9.050	8.273	7.214	6.459	5.787	5.097	4.720	4.000	3.741	3.771	4.884	9.586	10.65	4.868	1.737	1.360	1.300	1.248	1.183	1.246	1.113	1.437	5.440	26.52	72.88	218.9	463.6	153.1	3.070	0.399	0.345	0.294	0.292	0.246	0.206	0.184	0.157	0.174	0.196	0.143	0.217	0.181	0.172	0.214	0.208	0.168	0.199	0.182
500.0	32.79	83.75	69.01	42.90	90.02	508.2	323.6	35.70	26.09	25.51	22.86	22.27	21.19	20.59	19.32	19.25	18.97	18.04	16.73	16.79	16.56	14.69	13.30	12.47	11.99	10.47	9.839	9.164	8.738	8.353	7.584	6.598	6.147	5.471	4.860	4.278	3.827	3.408	3.253	3.112	5.482	10.55	8.222	2.944	1.262	1.185	1.108	1.138	1.178	0.983	0.979	1.779	6.484	17.01	57.26	299.2	558.9	26.63	1.180	0.368	0.328	0.284	0.201	0.190	0.172	0.162	0.143	0.195	0.161	0.144	0.163	0.126	0.166	0.133	0.086	0.110	0.146
505.0	24.87	56.29	74.76	41.28	47.96	302.1	503.7	79.98	23.33	22.20	20.94	21.08	19.66	18.59	16.93	16.78	16.45	15.50	15.57	14.06	14.13	12.80	12.08	11.14	9.977	9.719	8.873	8.393	7.660	7.633	6.841	6.052	5.687	4.791	4.262	4.158	3.694	3.290	2.915	2.649	3.191	7.276	9.710	5.151	1.713	0.997	1.005	1.038	1.009	1.020	0.876	1.015	2.003	4.398	13.44	83.70	457.2	358.2	21.70	0.616	0.301	0.241	0.205	0.177	0.187	0.161	0.122	0.125	0.171	0.148	0.198	0.155	0.180	0.129	0.099	0.116	0.100
510.0	24.84	33.57	69.71	54.14	32.90	108.0	432.4	299.5	35.14	19.91	18.62	17.84	17.17	15.77	14.44	14.18	13.76	12.92	12.31	11.72	11.59	10.27	10.15	9.632	8.888	8.167	7.404	7.234	7.073	6.418	6.029	5.516	4.902	4.372	3.968	3.679	3.171	2.911	2.472	2.097	2.330	3.583	6.971	7.665	3.895	1.426	0.975	0.936	0.857	0.968	0.937	0.860	0.986	1.585	3.541	19.35	123.7	266.5	272.1	95.32	4.525	0.303	0.224	0.160	0.170	0.162	0.155	0.106	0.142	0.145	0.142	0.112	0.155	0.137	0.117	0.106	0.134
515.0	18.98	21.26	45.60	68.29	31.43	42.84	173.5	470.0	146.7	17.18	16.48	14.64	14.79	12.99	11.73	11.71	10.99	10.84	9.650	10.13	9.338	8.657	8.567	8.129	7.329	6.512	6.595	6.250	6.049	5.640	5.022	5.044	4.212	3.871	3.553	3.014	2.740	2.476	2.040	1.946	1.915	2.124	3.142	6.244	6.783	3.113	1.089	0.806	0.783	0.798	0.801	0.989	0.700	0.775	1.310	4.874	28.15	61.27	152.2	354.7	126.6	3.003	0.270	0.171	0.172	0.140	0.142	0.162	0.113	0.132	0.112	0.096	0.119	0.114	0.085	0.082	0.121
520.0	13.04	19.05	26.92	64.36	40.76	26.91	61.98	396.9	269.9	22.41	14.92	13.65	12.84	11.15	10.30	10.53	9.520	8.956	9.121	8.512	7.978	7.709	7.388	6.951	6.463	6.011	5.971	5.378	5.265	4.939	4.597	4.281	3.744	3.444	3.089	2.674	2.536	2.344	1.859	1.822	1.773	1.651	1.856	3.682	7.007	5.031	1.687	0.781	0.737	0.695	0.719	0.875	0.905	0.587	0.779	1.492	6.762	14.14	38.30	213.6	335.9	26.46	0.990	0.210	0.172	0.139	0.193	0.149	0.143	0.122	0.114	0.117	0.086	0.086	0.072	0.094	0.086
525.0	15.88	14.31	19.15	52.35	52.03	20.89	28.61	210.9	529.4	76.73	13.76	12.28	10.95	10.58	9.160	8.726	8.813	7.599	7.708	7.408	6.878	6.898	6.340	6.242	5.856	5.316	5.341	4.777	4.634	4.670	4.203	3.834	3.296	3.102	2.688	2.400	2.497	2.293	1.866	1.711	1.602	1.557	1.408	1.997	4.925	6.163	3.159	1.067	0.756	0.679	0.573	0.683	0.802	0.709	0.682	0.741	1.948	3.568	9.043	57.68	252.2	219.3	21.15	0.354	0.216	0.144	0.165	0.133	0.113	0.122	0.115	0.109	0.096	0.056	0.072	0.082	0.055
530.0	11.59	13.46	13.80	27.17	54.99	26.88	18.31	69.59	496.1	281.4	28.86	10.82	9.288	9.083	7.937	7.784	7.311	7.045	6.637	6.196	5.997	5.842	5.597	5.212	4.884	4.559	4.449	4.235	3.870	3.910	3.704	3.356	3.062	2.567	2.490	2.199	2.045	1.896	1.788	1.551	1.389	1.282	1.186	1.336	2.354	4.830	5.032	2.487	0.941	0.596	0.540	0.533	0.593	0.754	0.640	0.546	0.844	1.140	2.404	13.28	66.78	175.8	216.3	81.06	3.879	0.186	0.184	0.164	0.118	0.103	0.078	0.074	0.062	0.063	0.069	0.090	0.039
535.0	7.838	9.170	10.09	14.06	39.69	40.15	16.19	26.13	189.3	406.6	145.8	9.833	8.539	7.543	6.941	6.837	5.861	5.838	5.436	5.053	4.935	5.029	4.456	4.304	4.129	3.949	3.736	3.610	3.365	3.112	3.164	2.974	2.720	2.378	2.088	1.720	1.582	1.598	1.413	1.256	1.263	1.099	1.002	1.028	1.220	2.329	4.269	4.369	1.937	0.684	0.499	0.474	0.482	0.544	0.795	0.648	0.555	0.525	0.761	3.288	15.10	40.26	106.0	253.9	100.5	2.985	0.192	0.155	0.127	0.115	0.086	0.073	0.044	0.066	0.067	0.042	0.060
540.0	7.858	9.131	9.592	10.93	24.93	49.04	20.02	14.61	56.69	309.7	317.3	19.84	7.547	6.993	5.823	6.000	5.146	5.274	5.260	4.508	4.438	4.395	4.120	3.794	3.409	3.448	3.578	3.195	2.958	2.936	3.032	2.501	2.551	2.165	1.836	1.604	1.543	1.487	1.323	1.115	1.113	0.896	0.918	0.828	0.933	1.204	2.700	4.723	2.989	1.048	0.460	0.360	0.479	0.449	0.599	0.710	0.508	0.415	0.541	0.974	3.571	9.264	26.03	143.7	242.8	26.97	1.013	0.136	0.140	0.109	0.048	0.093	0.036	0.067	0.092	0.044	0.047
545.0	7.735	9.221	8.420	10.16	14.95	44.10	28.77	12.17	21.72	154.8	407.4	82.72	7.675	6.229	5.240	5.213	4.570	4.585	4.451	4.078	4.028	4.130	3.495	3.373	3.001	3.086	3.349	2.810	2.728	2.899	2.431	2.202	2.108	1.891	1.663	1.675	1.527	1.307	1.174	1.192	1.034	0.797	0.788	0.741	0.785	0.811	1.430	3.492	3.908	1.802	0.588	0.422	0.416	0.370	0.397	0.536	0.705	0.352	0.396	0.474	1.003	2.299	6.087	38.53	176.2	198.7	21.25	0.315	0.160	0.131	0.064	0.093	0.031	0.066	0.048	0.059	0.035
550.0	9.562	10.06	8.081	10.17	10.39	30.04	42.85	17.58	15.19	52.35	273.4	243.6	23.83	5.500	4.668	4.405	3.959	3.904	3.533	3.393	3.222	3.194	2.894	2.803	2.484	2.702	2.653	2.449	2.361	2.258	2.044	1.958	1.922	1.810	1.520	1.418	1.244	1.210	0.978	0.974	0.892	0.810	0.689	0.715	0.664	0.695	0.805	1.645	3.161	3.048	1.383	0.524	0.366	0.346	0.340	0.430	0.571	0.492	0.380	0.337	0.436	0.741	1.570	8.840	46.22	132.4	171.7	63.11	3.655	0.149	0.123	0.095	0.068	0.043	0.032	0.052	0.033
555.0	13.33	12.00	10.87	12.01	13.16	19.19	44.31	33.90	21.49	32.05	105.7	319.0	125.9	5.118	3.771	3.700	3.322	3.198	2.966	2.766	2.757	2.600	2.550	2.325	2.183	2.068	2.092	2.055	1.924	1.938	1.782	1.643	1.593	1.551	1.126	1.216	1.153	1.032	0.912	0.875	0.697	0.700	0.594	0.530	0.608	0.545	0.565	0.787	1.500	2.803	2.480	1.086	0.366	0.401	0.309	0.333	0.365	0.486	0.501	0.320	0.322	0.399	0.610	2.185	10.54	30.26	77.42	185.7	30.69	2.474	0.141	0.071	0.077	0.058	0.082	0.046	0.030
560.0	17.63	14.48	13.62	14.29	13.93	16.68	36.80	45.91	28.65	34.04	54.12	229.1	262.7	15.42	3.836	3.586	2.665	2.698	2.791	2.330	2.226	2.051	2.241	1.992	2.006	1.889	1.852	1.619	1.557	1.602	1.555	1.416	1.446	1.350	1.291	1.073	1.102	0.902	0.911	0.807	0.722	0.638	0.594	0.553	0.584	0.492	0.524	0.549	0.727	1.878	2.655	1.731	0.521	0.374	0.305	0.206	0.329	0.338	0.526	0.472	0.322	0.320	0.380	0.761	2.631	7.037	18.84	100.6	191.6	26.92	0.626	0.104	0.087	0.068	0.050	0.031	0.060
565.0	27.58	17.27	12.01	14.72	15.88	16.86	27.98	49.92	39.41	39.29	46.66	121.3	306.8	75.94	3.343	2.862	2.443	2.275	2.291	2.206	1.814	1.913	1.704	1.691	1.593	1.501	1.673	1.333	1.288	1.309	1.325	1.306	1.338	1.256	1.086	0.896	0.978	0.813	0.795	0.700	0.703	0.595	0.653	0.504	0.483	0.501	0.405	0.460	0.451	0.921	1.964	2.032	0.948	0.379	0.275	0.249	0.282	0.281	0.390	0.514	0.394	0.355	0.349	0.443	0.845	1.878	4.456	26.53	132.6	166.0	18.17	0.237	0.115	0.085	0.062	0.017	0.052
570.0	25.57	18.66	16.59	15.40	15.90	18.82	22.60	44.89	56.36	47.89	52.14	63.36	192.0	208.6	21.71	2.626	2.016	1.821	1.970	1.800	1.541	1.503	1.591	1.418	1.276	1.309	1.350	1.201	1.075	1.213	1.120	1.031	1.140	1.058	0.926	0.874	0.822	0.736	0.688	0.612	0.585	0.544	0.481	0.426	0.385	0.396	0.356	0.371	0.345	0.448	1.010	1.680	1.435	0.617	0.330	0.263	0.294	0.297	0.294	0.391	0.466	0.424	0.290	0.362	0.471	0.685	1.285	6.181	33.97	102.2	107.6	40.23	1.668	0.103	0.071	0.052	0.059
575.0	27.73	22.23	17.59	17.77	18.39	20.69	26.56	38.09	67.34	62.77	59.36	53.83	74.78	214.3	99.69	3.408	1.799	1.519	1.462	1.287	1.202	1.217	1.197	1.161	0.919	1.083	0.953	1.009	0.847	0.898	0.940	0.781	0.901	1.042	0.849	0.835	0.667	0.726	0.616	0.631	0.457	0.439	0.372	0.402	0.365	0.307	0.276	0.321	0.321	0.309	0.436	0.841	1.431	1.095	0.558	0.286	0.230	0.277	0.253	0.304	0.349	0.506	0.450	0.391	0.410	0.456	0.648	1.719	7.827	23.32	47.88	108.6	27.38	1.169	0.045	0.037	0.041
580.0	40.28	26.54	22.06	21.72	22.54	25.22	28.50	37.07	64.41	75.81	65.03	53.14	39.05	135.4	217.0	24.87	1.559	1.450	1.377	1.235	1.092	0.969	0.965	0.855	0.829	0.854	0.732	0.728	0.733	0.744	0.671	0.739	0.787	0.840	0.794	0.715	0.642	0.652	0.516	0.561	0.374	0.407	0.350	0.424	0.329	0.321	0.269	0.310	0.288	0.243	0.309	0.412	1.004	1.261	0.772	0.350	0.256	0.248	0.247	0.321	0.390	0.463	0.558	0.478	0.432	0.441	0.471	0.718	1.935	5.378	11.57	57.24	97.49	18.85	0.367	0.055	0.042
585.0	38.71	29.06	23.68	23.41	24.19	28.45	30.41	38.89	59.83	83.75	68.46	56.08	30.64	62.69	240.4	88.25	1.545	1.134	1.084	1.103	0.892	0.902	0.916	0.816	0.747	0.856	0.684	0.578	0.615	0.605	0.598	0.641	0.736	0.851	0.727	0.650	0.558	0.586	0.509	0.488	0.400	0.393	0.361	0.360	0.306	0.260	0.303	0.279	0.241	0.212	0.265	0.328	0.597	1.001	1.024	0.554	0.283	0.257	0.213	0.340	0.332	0.370	0.495	0.544	0.524	0.421	0.346	0.428	0.675	1.327	2.693	15.02	72.06	69.60	10.78	0.129	0.050
590.0	39.44	28.17	23.89	22.13	24.45	28.90	30.22	38.45	53.44	79.95	77.47	57.25	30.83	24.54	130.7	316.9	18.48	1.193	0.886	0.861	0.849	0.712	0.753	0.607	0.644	0.639	0.526	0.570	0.538	0.535	0.508	0.548	0.657	0.777	0.750	0.618	0.542	0.494	0.448	0.388	0.392	0.371	0.344	0.320	0.294	0.290	0.271	0.231	0.231	0.200	0.196	0.242	0.338	0.626	0.938	0.828	0.472	0.245	0.250	0.264	0.302	0.290	0.416	0.514	0.551	0.378	0.382	0.401	0.358	0.452	0.714	3.456	18.82	44.16	44.71	17.50	1.079
595.0	33.44	26.56	24.35	23.03	26.35	27.21	30.52	37.14	47.32	70.43	82.91	58.23	31.96	15.11	39.64	264.3	78.74	1.764	0.860	0.735	0.729	0.594	0.667	0.487	0.539	0.621	0.488	0.493	0.484	0.445	0.472	0.360	0.526	0.602	0.553	0.526	0.595	0.436	0.402	0.359	0.377	0.300	0.329	0.252	0.215	0.258	0.233	0.186	0.192	0.201	0.185	0.204	0.261	0.303	0.508	0.769	0.673	0.263	0.215	0.311	0.294	0.284	0.343	0.442	0.519	0.509	0.375	0.277	0.254	0.298	0.270	0.849	4.246	10.05	21.86	65.87	22.40
600.0	34.02	30.13	25.27	23.33	26.76	30.27	30.13	34.78	43.68	60.98	80.04	61.91	30.88	13.54	13.75	133.5	176.1	13.39	0.929	0.705	0.693	0.548	0.525	0.473	0.394	0.457	0.432	0.454	0.443	0.467	0.406	0.350	0.501	0.601	0.567	0.441	0.542	0.407	0.342	0.351	0.304	0.273	0.262	0.271	0.253	0.227	0.224	0.174	0.161	0.185	0.179	0.215	0.225	0.228	0.322	0.664	0.699	0.367	0.242	0.214	0.275	0.365	0.331	0.378	0.457	0.463	0.449	0.321	0.260	0.246	0.185	0.321	0.969	2.303	5.429	36.06	56.05
605.0	32.26	26.74	22.72	23.24	24.83	29.89	30.54	35.27	41.58	54.30	72.26	67.11	30.00	14.35	8.122	48.85	179.3	60.23	0.916	0.534	0.568	0.489	0.467	0.411	0.469	0.373	0.398	0.423	0.379	0.405	0.320	0.422	0.433	0.493	0.571	0.385	0.559	0.398	0.274	0.353	0.266	0.275	0.225	0.235	0.250	0.289	0.197	0.235	0.181	0.152	0.163	0.203	0.188	0.224	0.226	0.462	0.729	0.505	0.296	0.235	0.255	0.293	0.282	0.329	0.386	0.458	0.431	0.275	0.217	0.179	0.156	0.181	0.237	0.544	1.254	9.434	39.58
610.0	29.24	26.00	20.54	21.71	23.96	26.71	28.83	31.53	37.89	46.81	59.73	64.07	32.01	13.34	7.197	14.66	88.80	159.2	20.85	0.547	0.462	0.545	0.461	0.427	0.426	0.342	0.320	0.360	0.331	0.289	0.332	0.388	0.385	0.446	0.481	0.411	0.405	0.352	0.368	0.291	0.221	0.239	0.194	0.200	0.207	0.219	0.171	0.145	0.161	0.149	0.155	0.171	0.194	0.176	0.164	0.259	0.518	0.570	0.486	0.277	0.228	0.256	0.249	0.337	0.337	0.314	0.422	0.362	0.272	0.162	0.107	0.123	0.091	0.158	0.317	2.156	10.37
615.0	27.54	22.81	18.37	17.07	22.94	24.04	27.66	27.92	35.24	41.48	48.31	52.98	37.06	14.05	6.730	6.145	24.75	129.5	106.4	1.169	0.487	0.482	0.393	0.332	0.476	0.241	0.387	0.289	0.303	0.278	0.416	0.322	0.312	0.398	0.397	0.400	0.311	0.299	0.334	0.210	0.257	0.207	0.150	0.221	0.194	0.197	0.197	0.182	0.138	0.140	0.158	0.128	0.145	0.182	0.155	0.185	0.309	0.400	0.460	0.402	0.231	0.212	0.237	0.300	0.276	0.291	0.314	0.302	0.353	0.158	0.119	0.102	0.067	0.090	0.092	0.525	2.361
620.0	25.35	18.93	17.31	16.82	21.06	22.33	24.29	25.96	30.82	40.79	42.58	45.01	37.58	16.01	7.124	4.232	7.459	63.21	160.8	12.66	0.594	0.404	0.287	0.347	0.344	0.278	0.318	0.270	0.281	0.279	0.270	0.298	0.309	0.380	0.394	0.248	0.295	0.260	0.279	0.310	0.229	0.198	0.160	0.188	0.190	0.171	0.133	0.153	0.144	0.125	0.109	0.144	0.156	0.146	0.169	0.176	0.219	0.327	0.424	0.443	0.277	0.232	0.190	0.210	0.254	0.254	0.232	0.256	0.362	0.233	0.121	0.109	0.081	0.050	0.051	0.145	0.553
625.0	24.82	17.15	17.28	15.47	20.50	21.11	22.05	24.46	28.95	36.64	38.77	38.65	36.99	18.67	7.494	4.630	3.596	22.15	140.3	51.01	0.651	0.370	0.369	0.301	0.321	0.235	0.252	0.253	0.206	0.300	0.302	0.264	0.310	0.301	0.310	0.274	0.265	0.241	0.276	0.236	0.290	0.184	0.122	0.130	0.167	0.156	0.131	0.153	0.133	0.136	0.116	0.134	0.102	0.155	0.129	0.156	0.179	0.208	0.324	0.411	0.368	0.262	0.167	0.209	0.211	0.225	0.219	0.296	0.268	0.303	0.176	0.103	0.051	0.065	0.060	0.094	0.166
630.0	20.07	15.29	15.65	14.03	16.87	19.01	20.05	22.22	26.81	32.71	33.96	33.64	30.04	22.92	8.628	4.744	3.096	6.525	60.95	105.0	14.73	0.433	0.406	0.277	0.333	0.260	0.239	0.208	0.256	0.290	0.256	0.225	0.330	0.272	0.307	0.252	0.238	0.216	0.219	0.226	0.270	0.188	0.132	0.142	0.133	0.142	0.140	0.154	0.151	0.117	0.097	0.132	0.112	0.132	0.139	0.130	0.150	0.157	0.233	0.284	0.382	0.246	0.240	0.224	0.183	0.197	0.247	0.226	0.142	0.188	0.186	0.147	0.079	0.060	0.037	0.068	0.068
635.0	20.71	13.21	13.20	11.79	14.52	16.23	19.40	20.92	23.40	28.38	31.39	28.86	24.21	24.01	12.55	5.192	3.117	2.954	15.85	78.22	57.54	1.097	0.361	0.290	0.342	0.264	0.218	0.226	0.248	0.222	0.203	0.221	0.234	0.239	0.274	0.194	0.209	0.258	0.139	0.214	0.240	0.183	0.191	0.164	0.139	0.142	0.129	0.122	0.137	0.113	0.103	0.104	0.095	0.101	0.134	0.108	0.145	0.115	0.160	0.202	0.293	0.313	0.226	0.218	0.180	0.183	0.197	0.228	0.161	0.173	0.152	0.183	0.120	0.074	0.025	0.037	0.029
640.0	16.58	16.94	12.89	12.36	14.09	15.15	17.72	19.05	23.69	27.06	29.32	27.11	21.34	20.46	16.40	5.424	3.516	2.364	4.880	37.43	101.8	10.53	0.399	0.261	0.268	0.221	0.186	0.234	0.242	0.250	0.214	0.187	0.220	0.234	0.273	0.185	0.229	0.209	0.178	0.190	0.164	0.222	0.188	0.159	0.132	0.158	0.162	0.112	0.118	0.140	0.088	0.102	0.114	0.112	0.105	0.114	0.111	0.145	0.156	0.179	0.256	0.253	0.249	0.185	0.155	0.199	0.195	0.198	0.164	0.130	0.156	0.132	0.115	0.105	0.020	0.036	0.024
645.0	16.31	13.86	12.80	10.88	12.96	14.48	16.38	17.27	21.54	24.69	27.33	24.50	18.98	17.15	17.70	7.303	3.632	2.196	2.463	12.87	89.08	43.97	0.568	0.280	0.192	0.236	0.211	0.200	0.230	0.264	0.241	0.236	0.219	0.200	0.191	0.243	0.186	0.170	0.196	0.147	0.119	0.182	0.200	0.189	0.114	0.129	0.129	0.104	0.143	0.118	0.088	0.127	0.126	0.131	0.085	0.112	0.129	0.108	0.115	0.132	0.149	0.182	0.223	0.245	0.155	0.194	0.192	0.137	0.144	0.112	0.122	0.136	0.150	0.102	0.055	0.053	0.057
650.0	15.09	13.64	11.95	10.86	11.85	14.00	15.94	18.52	20.43	22.31	25.49	23.67	17.97	14.62	16.27	9.477	3.941	2.457	1.943	4.025	48.82	84.43	3.674	0.330	0.259	0.187	0.194	0.219	0.220	0.222	0.201	0.246	0.265	0.228	0.221	0.206	0.230	0.180	0.188	0.146	0.129	0.150	0.183	0.171	0.110	0.110	0.126	0.133	0.144	0.109	0.117	0.120	0.105	0.091	0.096	0.127	0.124	0.111	0.116	0.110	0.165	0.159	0.219	0.258	0.160	0.179	0.161	0.099	0.139	0.139	0.146	0.110	0.136	0.106	0.077	0.028	0.049
