Sample:	'1
File name:	g2025091005月河三路西053雨水井.FD3
Run date:	'16:59:27, 09/10/2025
Operator:	Administrator
Comment:	'

Instrument
Model:	F-2700 FL Spectrophotometer
Serial number:	23B8-004
ROM Version:	4J14000 07

Instrument parameters
Measurement type:	3-D scan
Data mode:	Fluorescence
EX  Start WL:	220.0 nm
EX  End WL:	600.0 nm
EX Sampling interval:	5.0 nm
EM  Start WL:	230.0 nm
EM  End WL:	650.0 nm
EM Sampling interval:	5.0 nm
Scan speed:	12000 nm/min
EX Slit:	5.0 nm
EM Slit:	5.0 nm
PMT Voltage:	700 V
Response:	Auto 
Corrected spectra:	Off
Contour interval:	50.000

Peak integration
Integration method:	Rectangular
Sensitivity:	1
Threshold:	1.000

Peaks
No.	ApexEX/EM(nm)	Height(Data)
1	225.0/300.0	496.8
2	225.0/575.0	73.13
3	230.0/345.0	1862
4	230.0/600.0	52.19
5	240.0/265.0	352.6
6	245.0/270.0	367.7
7	245.0/385.0	2448
8	250.0/275.0	479.7
9	255.0/280.0	600.9
10	255.0/560.0	192.7
11	260.0/575.0	156.3
12	265.0/585.0	135.6
13	270.0/300.0	1120
14	270.0/600.0	119.8
15	275.0/305.0	1168
16	275.0/610.0	87.97
17	280.0/625.0	68.60
18	285.0/320.0	895.0
19	285.0/635.0	48.83
20	290.0/325.0	867.8
21	495.0/270.0	1.842
22	500.0/390.0	9.124
23	505.0/275.0	2.930
24	510.0/280.0	3.046
25	520.0/285.0	3.878
26	530.0/290.0	3.655
27	540.0/295.0	4.971
28	545.0/300.0	5.797
29	555.0/305.0	5.673
30	565.0/310.0	4.910
31	570.0/315.0	4.785
32	575.0/320.0	4.813

Data points
	220.0	225.0	230.0	235.0	240.0	245.0	250.0	255.0	260.0	265.0	270.0	275.0	280.0	285.0	290.0	295.0	300.0	305.0	310.0	315.0	320.0	325.0	330.0	335.0	340.0	345.0	350.0	355.0	360.0	365.0	370.0	375.0	380.0	385.0	390.0	395.0	400.0	405.0	410.0	415.0	420.0	425.0	430.0	435.0	440.0	445.0	450.0	455.0	460.0	465.0	470.0	475.0	480.0	485.0	490.0	495.0	500.0	505.0	510.0	515.0	520.0	525.0	530.0	535.0	540.0	545.0	550.0	555.0	560.0	565.0	570.0	575.0	580.0	585.0	590.0	595.0	600.0
230.0	32.36	466.1	1483	552.2	28.63	5.912	4.573	4.187	3.937	3.486	3.188	3.068	2.100	1.977	1.722	1.597	1.328	1.166	1.019	0.987	0.992	0.828	0.859	0.726	0.724	0.642	0.623	0.588	0.549	0.500	0.529	0.496	0.413	0.413	0.397	0.351	0.396	0.339	0.319	0.311	0.299	0.332	0.368	0.308	0.268	0.264	0.537	2.129	4.267	3.696	1.708	0.431	0.221	0.206	0.212	0.206	0.207	0.218	0.201	0.223	0.187	0.214	0.224	0.212	0.212	0.194	0.208	0.203	0.224	0.222	0.212	0.216	0.209	0.221	0.217	0.209	0.192
235.0	69.56	143.0	882.1	1784	545.0	48.06	5.449	4.386	3.912	3.940	3.488	3.040	2.361	2.284	1.768	1.832	1.641	1.084	1.172	0.997	1.026	0.830	0.799	0.625	0.757	0.615	0.668	0.630	0.574	0.540	0.501	0.403	0.382	0.522	0.518	0.361	0.366	0.362	0.306	0.307	0.282	0.286	0.371	0.372	0.362	0.322	0.296	0.658	1.622	2.866	5.549	6.196	2.935	0.837	0.222	0.195	0.209	0.207	0.228	0.215	0.198	0.203	0.193	0.281	0.222	0.235	0.207	0.202	0.196	0.245	0.200	0.192	0.197	0.182	0.220	0.168	0.196
240.0	93.39	97.98	264.8	1384	2080	432.0	26.16	5.660	4.824	3.322	4.040	2.727	3.252	2.656	1.946	1.750	1.439	1.312	1.179	1.083	1.027	0.892	0.816	0.752	0.829	0.723	0.617	0.694	0.657	0.570	0.491	0.423	0.381	0.437	0.411	0.333	0.372	0.370	0.289	0.283	0.298	0.250	0.325	0.366	0.415	0.411	0.388	0.381	0.558	0.946	2.666	6.643	8.763	6.895	2.884	0.600	0.257	0.222	0.213	0.207	0.271	0.219	0.200	0.288	0.252	0.190	0.252	0.200	0.209	0.212	0.224	0.240	0.202	0.192	0.223	0.237	0.192
245.0	73.65	158.2	128.1	452.4	1975	2188	321.4	12.71	5.089	3.912	4.510	3.472	3.174	2.677	1.758	1.948	1.430	1.368	1.232	1.064	1.034	0.933	0.792	0.812	0.751	0.650	0.609	0.628	0.682	0.644	0.623	0.419	0.626	0.365	0.357	0.456	0.361	0.337	0.313	0.298	0.292	0.274	0.298	0.312	0.297	0.460	0.561	0.560	0.422	0.417	0.759	2.083	5.173	9.665	11.57	7.103	2.330	0.399	0.269	0.191	0.245	0.238	0.223	0.237	0.249	0.221	0.239	0.259	0.205	0.181	0.219	0.201	0.241	0.178	0.267	0.242	0.199
250.0	36.80	117.4	215.6	198.4	615.2	1896	2565	1016	68.02	5.870	4.921	3.830	3.162	2.756	2.176	2.094	1.627	1.428	1.226	1.198	1.082	0.913	0.826	0.862	0.867	0.693	0.694	0.574	0.608	0.600	0.544	0.487	0.447	0.465	0.368	0.367	0.300	0.303	0.285	0.313	0.339	0.309	0.293	0.270	0.269	0.319	0.366	0.559	0.710	0.719	0.579	0.726	1.391	3.031	5.962	9.179	12.38	11.34	7.303	2.463	0.457	0.232	0.221	0.221	0.226	0.281	0.234	0.247	0.205	0.205	0.218	0.196	0.217	0.219	0.245	0.245	0.223
255.0	28.35	48.65	146.7	298.4	240.8	471.0	1711	3842	1457	73.08	6.394	4.714	3.532	3.762	2.646	2.080	1.703	1.514	1.331	1.446	1.087	0.849	1.026	0.919	0.872	0.624	0.727	0.538	0.694	0.594	0.562	0.558	0.469	0.478	0.444	0.358	0.335	0.288	0.291	0.346	0.318	0.336	0.273	0.270	0.286	0.284	0.260	0.387	0.419	0.648	1.138	1.307	0.959	0.984	1.547	2.310	3.906	8.843	17.12	20.49	11.57	3.367	0.340	0.227	0.234	0.271	0.250	0.211	0.244	0.251	0.303	0.238	0.202	0.228	0.239	0.248	0.223
260.0	26.04	31.63	59.41	244.1	329.8	169.3	493.2	2778	4406	279.8	35.54	6.470	4.174	3.982	2.710	2.151	1.941	1.682	1.626	1.318	1.065	0.942	1.055	0.825	0.839	0.666	0.662	0.642	0.591	0.682	0.669	0.521	0.444	0.456	0.411	0.295	0.384	0.361	0.294	0.325	0.338	0.322	0.305	0.247	0.336	0.242	0.252	0.340	0.272	0.362	0.650	1.521	1.544	0.996	0.704	0.751	1.122	2.397	6.465	14.59	22.88	21.92	10.51	1.877	0.364	0.296	0.228	0.279	0.232	0.264	0.260	0.237	0.200	0.246	0.222	0.243	0.221
265.0	21.39	24.09	27.41	112.0	352.6	253.2	146.5	879.2	3985	4292	227.1	15.86	5.713	4.710	3.638	2.683	2.170	1.928	1.562	1.274	1.161	1.180	0.982	1.089	0.875	0.863	0.796	0.836	0.666	0.731	0.634	0.467	0.508	0.502	0.482	0.400	0.442	0.340	0.366	0.326	0.360	0.326	0.312	0.355	0.350	0.244	0.309	0.308	0.263	0.227	0.337	0.787	1.305	1.880	1.430	0.799	0.482	0.807	1.717	3.997	10.04	21.35	28.94	20.72	7.039	0.913	0.220	0.255	0.224	0.278	0.252	0.281	0.202	0.259	0.253	0.247	0.277
270.0	38.88	35.05	24.81	39.97	155.5	367.7	285.2	254.6	1209	3685	4894	858.0	55.86	6.286	4.496	3.245	2.389	2.144	1.585	1.531	1.369	1.160	1.038	0.910	0.959	0.858	0.808	0.836	0.721	0.707	0.623	0.555	0.557	0.484	0.481	0.444	0.417	0.430	0.361	0.361	0.355	0.360	0.345	0.347	0.357	0.316	0.319	0.313	0.262	0.259	0.284	0.407	0.528	0.930	1.508	1.842	1.807	1.076	0.793	1.192	2.616	5.875	11.64	18.81	23.83	24.85	15.05	6.231	0.976	0.340	0.261	0.260	0.237	0.267	0.249	0.255	0.261
275.0	94.27	93.02	70.22	37.66	53.99	155.9	479.7	338.9	354.1	950.0	3076	6787	1199	59.16	6.013	4.437	2.853	2.806	1.882	1.527	1.463	1.308	1.197	1.093	1.158	0.706	0.762	0.880	0.742	0.776	0.582	0.564	0.567	0.582	0.523	0.486	0.541	0.467	0.380	0.426	0.359	0.469	0.403	0.368	0.388	0.437	0.442	0.460	0.375	0.273	0.318	0.346	0.391	0.476	0.619	0.831	1.953	2.930	2.249	1.095	1.080	1.786	3.086	4.816	6.481	12.58	27.18	37.39	23.79	7.243	0.789	0.307	0.318	0.252	0.264	0.298	0.264
280.0	181.0	208.7	140.9	64.13	43.53	70.94	290.7	600.9	301.2	348.6	956.5	4724	6747	861.4	24.92	6.186	3.740	2.621	2.171	1.935	1.687	1.472	1.320	1.189	1.091	0.914	0.895	0.722	0.762	0.688	0.648	0.539	0.592	0.528	0.569	0.522	0.594	0.504	0.444	0.446	0.503	0.445	0.504	0.459	0.652	0.660	0.602	0.603	0.613	0.437	0.435	0.415	0.357	0.337	0.449	0.504	0.816	1.806	3.046	2.954	1.914	1.145	1.403	1.783	2.245	3.582	8.511	20.84	35.38	31.96	18.65	3.735	0.441	0.397	0.328	0.312	0.319
285.0	293.9	315.8	221.7	114.2	53.73	56.24	142.7	514.7	622.1	305.6	424.1	1543	6008	5839	124.5	11.23	4.829	3.365	2.634	2.351	1.984	1.483	1.390	1.303	1.092	0.965	1.026	0.837	0.799	0.910	0.714	0.574	0.607	0.641	0.544	0.706	0.593	0.602	0.676	0.498	0.566	0.524	0.634	0.633	0.699	0.886	0.863	0.944	0.770	0.630	0.420	0.464	0.389	0.344	0.445	0.476	0.549	0.824	1.570	2.930	3.878	2.667	1.575	1.385	1.440	1.767	2.789	5.956	12.56	25.93	40.45	28.58	13.15	1.636	0.375	0.347	0.308
290.0	366.9	421.3	310.9	165.9	82.38	72.76	112.7	274.3	637.5	720.1	473.2	634.8	1852	4774	5231	1413	31.64	5.437	3.353	2.890	2.275	1.756	1.528	1.353	1.169	1.178	1.060	1.001	0.925	0.889	0.680	0.675	0.666	0.619	0.672	0.712	0.695	0.587	0.606	0.678	0.579	0.600	0.672	0.788	0.828	1.095	1.080	1.318	1.061	0.837	0.569	0.634	0.501	0.503	0.462	0.507	0.597	0.729	1.061	1.420	2.321	3.205	3.655	3.370	2.320	2.005	2.063	2.612	4.018	7.235	13.67	20.92	30.02	29.71	19.12	9.445	1.829
295.0	406.7	477.9	375.6	208.2	116.9	98.90	132.5	213.7	382.8	820.1	930.1	553.7	671.7	1238	3110	6538	681.5	32.95	5.478	3.364	2.791	2.131	1.630	1.559	1.364	1.388	1.074	1.082	1.031	0.964	0.778	0.679	0.812	0.709	0.667	0.839	0.701	0.697	0.702	0.664	0.525	0.638	0.762	0.770	1.013	1.095	1.180	1.308	1.170	0.944	0.824	0.856	0.638	0.507	0.653	0.597	0.679	0.800	0.920	1.152	1.615	1.806	2.496	4.040	4.971	4.242	2.620	2.349	2.496	2.994	4.224	5.343	7.699	11.72	25.15	41.28	29.42
300.0	401.1	496.8	407.5	242.0	141.3	128.7	163.6	225.3	343.1	600.9	1120	808.2	468.8	452.6	885.1	4411	5534	518.7	15.83	4.764	3.270	2.532	2.020	1.816	1.598	1.373	1.246	1.117	0.953	1.029	0.802	0.868	0.705	0.730	0.806	0.740	0.717	0.746	0.693	0.758	0.607	0.675	0.664	0.785	0.947	1.101	1.343	1.560	1.279	1.037	0.850	0.879	0.647	0.634	0.714	0.764	0.745	0.931	1.027	1.144	1.570	1.696	1.929	2.668	4.065	5.797	5.182	3.548	2.373	2.197	2.312	2.071	2.350	3.227	7.318	18.48	35.92
305.0	385.3	493.7	419.0	260.9	165.3	159.0	202.2	262.9	368.5	525.2	900.6	1168	580.2	319.1	322.0	1311	5237	4569	75.89	8.252	4.314	3.158	2.339	1.911	1.644	1.475	1.270	1.286	0.966	0.994	0.956	0.792	0.790	0.791	0.745	0.755	0.677	0.701	0.727	0.794	0.631	0.675	0.724	0.737	0.866	1.217	1.339	1.373	1.252	1.092	0.961	0.885	0.774	0.813	0.784	0.851	0.982	1.112	1.153	1.370	1.520	1.619	1.974	2.384	3.007	4.059	5.485	5.673	3.935	2.436	2.108	1.689	1.449	1.524	2.308	4.923	11.05
310.0	370.2	483.4	424.4	290.2	199.7	196.6	248.2	309.8	402.2	525.0	704.4	986.8	961.3	458.5	249.4	404.2	1539	4029	4352	1166	22.38	4.421	3.108	2.576	1.849	1.506	1.495	1.435	1.133	1.085	0.921	0.788	0.799	0.746	0.752	0.739	0.720	0.647	0.765	0.698	0.661	0.669	0.689	0.759	0.810	1.176	1.234	1.366	1.344	1.055	0.972	1.006	0.986	0.936	0.876	1.005	1.136	1.291	1.444	1.508	1.692	1.761	2.264	2.282	2.792	3.107	3.569	4.373	4.822	4.910	3.652	2.289	1.559	1.448	1.467	1.955	3.168
315.0	339.2	472.5	447.1	326.6	233.2	244.2	283.6	350.6	433.3	535.3	656.2	751.2	864.0	831.8	350.4	246.0	457.8	1010	2728	5520	482.4	21.84	4.493	3.301	2.425	2.009	1.676	1.573	1.416	1.328	1.140	0.880	0.850	0.740	0.830	0.781	0.641	0.585	0.666	0.718	0.624	0.723	0.699	0.859	0.762	1.084	1.272	1.311	1.352	1.180	1.031	1.238	1.137	0.953	0.882	1.147	1.323	1.488	1.598	1.690	1.916	2.061	2.148	2.412	2.654	2.790	3.240	3.296	3.345	3.625	4.785	4.582	2.963	1.890	1.433	1.563	1.691
320.0	393.1	613.0	600.3	452.4	306.1	273.0	316.7	382.3	455.6	572.8	678.1	727.3	747.0	895.0	631.2	289.8	257.4	332.0	773.4	3838	4019	375.2	10.62	4.441	2.951	2.533	1.958	1.802	1.390	1.427	1.149	1.008	0.941	0.784	0.726	0.690	0.675	0.743	0.697	0.656	0.662	0.755	0.739	0.861	0.878	1.293	1.478	1.752	1.773	1.577	1.419	1.407	1.373	1.143	1.107	1.220	1.536	1.430	1.687	1.794	1.927	2.130	2.481	2.573	2.723	3.100	3.155	3.322	3.134	3.079	3.640	4.813	4.717	3.716	2.131	1.644	1.653
325.0	463.4	830.4	993.0	744.4	426.1	337.4	358.0	426.4	500.8	628.3	742.1	795.0	778.2	801.0	867.8	493.0	276.5	225.5	274.8	1154	4334	3457	57.24	7.484	3.622	3.099	2.350	1.792	1.768	1.393	1.214	1.172	0.977	0.754	0.732	0.706	0.839	0.743	0.638	0.642	0.616	0.688	0.805	0.936	1.071	1.533	1.944	2.526	2.795	2.483	2.201	2.181	1.715	1.584	1.329	1.447	1.395	1.629	1.733	2.028	2.112	2.426	2.605	2.837	2.970	3.123	3.204	3.480	3.617	3.358	3.499	3.687	4.272	4.929	4.324	2.956	1.998
330.0	544.8	1051	1397	1177	713.9	466.2	426.2	484.7	568.7	680.3	808.1	886.4	888.2	815.1	813.2	774.8	482.2	279.4	217.8	367.2	1303	3342	3618	977.9	18.33	4.253	2.966	2.402	1.917	1.562	1.474	1.183	1.016	0.945	0.915	0.724	0.788	0.768	0.719	0.741	0.695	0.756	0.814	0.938	1.210	1.649	2.141	3.031	3.816	3.600	3.477	3.598	2.688	2.234	1.820	1.700	1.755	1.889	2.030	2.120	2.273	2.555	2.805	2.968	3.359	3.479	3.470	3.746	4.058	4.001	3.857	3.751	3.765	4.126	4.600	4.448	4.133
335.0	620.1	1157	1624	1505	951.2	620.0	521.3	548.9	623.9	732.0	859.3	954.7	977.5	888.1	788.7	745.8	747.7	437.7	265.1	237.2	401.4	858.5	2477	4825	398.7	20.34	4.509	3.025	2.404	1.900	1.655	1.364	1.061	1.095	0.975	0.839	0.817	0.822	0.820	0.671	0.631	0.752	0.839	1.080	1.333	1.800	2.352	3.361	4.414	4.228	4.013	4.239	3.579	3.056	2.450	2.290	2.190	2.186	2.287	2.532	2.524	2.660	2.947	3.108	3.446	3.587	3.837	4.213	4.149	3.980	4.257	4.209	4.000	3.969	4.228	4.002	4.726
340.0	613.3	1244	1761	1669	1152	788.7	645.7	626.2	677.8	795.0	919.8	1014	1025	954.4	836.5	729.3	747.3	638.7	341.6	243.4	233.7	297.3	718.3	3509	3354	333.5	10.13	3.960	2.907	2.142	1.762	1.488	1.104	1.118	0.894	0.905	0.843	0.841	0.733	0.663	0.710	0.806	0.891	1.123	1.344	1.952	2.719	3.760	4.565	4.653	4.526	4.936	4.443	3.518	2.999	2.959	2.687	2.720	2.557	2.685	2.754	3.099	3.239	3.354	3.865	3.708	4.131	4.100	4.176	4.377	4.334	4.317	4.427	4.250	4.181	3.929	4.162
345.0	637.6	1264	1862	1821	1365	974.5	803.3	718.1	756.5	843.4	974.9	1061	1078	1014	900.9	771.5	691.1	719.8	504.8	296.0	233.3	206.0	259.7	1077	3838	3030	50.38	6.792	3.612	2.634	2.128	1.516	1.176	1.076	0.988	0.813	0.826	0.936	0.874	0.835	0.791	0.792	0.987	1.105	1.344	2.010	2.676	3.614	4.786	4.550	4.893	5.539	5.041	4.297	3.771	3.352	3.354	3.020	3.080	3.151	3.443	3.205	3.376	3.717	3.867	4.026	4.338	4.410	4.549	4.557	4.689	4.790	4.967	4.551	4.237	4.044	4.121
350.0	628.2	1219	1846	1926	1591	1265	1041	922.6	901.7	954.6	1054	1110	1131	1081	982.4	851.0	724.3	664.9	647.1	472.6	308.0	244.1	207.2	349.5	1173	3026	3104	849.7	17.10	3.851	2.535	1.862	1.531	1.295	1.051	0.939	0.795	0.878	0.825	0.765	0.828	0.809	0.883	1.072	1.343	1.906	2.530	3.555	4.528	4.807	5.186	6.049	5.606	5.160	4.753	4.502	4.386	3.970	3.766	3.708	4.035	3.693	3.926	4.084	4.170	4.355	4.569	4.515	4.814	4.836	5.004	4.982	5.340	5.100	4.887	4.692	4.445
355.0	616.7	1192	1803	2023	1840	1598	1348	1185	1123	1127	1193	1204	1203	1165	1065	947.2	814.3	703.4	638.6	645.6	473.9	323.2	257.8	242.4	380.3	780.7	2099	4048	366.9	18.58	3.388	2.435	1.928	1.417	1.306	1.001	0.963	0.894	0.750	0.845	0.754	0.870	0.865	1.087	1.351	1.947	2.526	3.519	4.294	5.036	5.334	6.424	6.178	6.177	5.740	5.485	5.437	5.093	4.940	4.778	4.570	4.343	4.711	4.880	4.832	4.912	4.996	4.892	5.024	5.241	5.373	5.550	5.545	5.472	5.311	4.927	4.920
360.0	617.1	1185	1819	2046	1983	1822	1597	1396	1296	1303	1321	1311	1290	1230	1141	1016	889.1	763.6	661.8	648.7	627.4	423.7	318.3	262.4	239.3	279.8	612.2	2949	3078	302.3	8.966	3.441	2.364	1.814	1.370	1.091	1.095	0.970	0.744	0.922	0.860	0.871	0.890	1.035	1.394	1.822	2.341	3.356	4.111	4.636	5.588	6.513	6.648	6.919	6.676	6.382	6.088	6.002	5.664	5.614	5.352	5.400	5.388	5.500	5.374	5.360	5.323	5.083	5.283	5.651	5.343	5.844	5.587	5.762	5.694	5.395	5.542
365.0	632.0	1185	1796	2127	2161	2004	1791	1565	1465	1447	1428	1407	1361	1288	1201	1077	956.4	826.4	718.2	651.8	676.7	555.9	388.1	308.2	245.3	199.4	229.6	912.2	3440	2747	47.18	5.864	3.360	2.140	1.513	1.175	1.135	1.142	0.910	0.907	0.810	0.848	0.923	1.119	1.372	1.827	2.338	3.520	3.952	4.599	5.207	6.790	6.900	7.199	7.102	6.969	7.170	6.755	6.329	6.242	6.083	5.884	5.891	5.952	5.946	5.765	5.732	5.704	5.683	5.824	5.813	6.120	6.063	5.807	5.969	5.755	5.900
370.0	630.9	1160	1750	2129	2266	2193	1994	1760	1634	1600	1583	1510	1434	1360	1259	1141	1029	912.7	801.2	707.9	668.8	664.9	554.5	399.4	310.4	236.2	185.0	294.1	1045	2709	2873	743.3	14.91	3.326	2.104	1.554	1.306	1.169	1.014	0.906	0.849	1.015	1.041	1.215	1.422	1.790	2.456	3.350	4.055	4.570	5.342	7.183	7.402	7.811	7.571	7.708	7.790	7.515	7.050	6.931	6.630	6.464	6.478	6.567	6.527	6.403	6.335	6.347	6.179	6.029	5.959	6.297	6.131	5.946	6.008	6.150	6.177
375.0	618.4	1152	1703	2147	2356	2327	2150	1911	1781	1740	1713	1622	1525	1409	1305	1192	1092	993.4	881.6	790.8	712.5	675.2	678.3	567.7	404.4	312.4	232.9	197.3	319.8	690.9	1998	3572	314.4	15.24	3.323	1.988	1.568	1.201	1.190	1.091	0.897	0.987	1.060	1.165	1.443	1.786	2.402	3.441	3.985	4.535	5.344	7.015	7.582	8.232	7.850	8.190	8.523	8.190	7.821	7.631	7.553	7.069	7.276	7.224	7.160	6.931	6.661	6.635	6.465	6.624	6.601	6.294	6.445	6.224	6.207	6.136	6.440
380.0	666.2	1136	1675	2136	2367	2413	2264	2016	1872	1820	1780	1684	1581	1445	1330	1225	1120	1026	935.8	839.0	767.3	717.5	698.4	681.6	495.7	381.9	288.0	213.3	188.3	230.3	573.5	2653	2636	247.4	7.471	2.890	1.966	1.432	1.272	1.099	1.050	1.073	1.012	1.326	1.429	1.842	2.373	3.560	3.680	4.394	5.193	6.990	7.948	8.123	8.142	8.470	8.897	8.607	7.991	7.833	7.598	7.356	7.301	7.185	7.388	7.245	6.822	6.665	6.861	6.468	6.291	6.371	6.718	6.496	6.340	6.551	6.631
385.0	629.3	1113	1671	2124	2381	2448	2311	2098	1905	1859	1810	1710	1606	1483	1346	1231	1140	1055	967.6	881.3	812.1	757.2	709.6	707.7	631.9	459.7	349.6	257.9	192.1	152.2	195.6	808.2	2818	2242	38.66	4.633	2.467	1.889	1.448	1.175	1.155	1.000	1.083	1.072	1.490	1.883	2.202	3.483	3.830	4.318	5.211	6.813	7.646	8.198	8.345	8.608	8.895	8.651	8.506	7.967	7.614	8.006	7.386	7.397	7.453	7.560	6.994	6.816	6.636	6.950	6.672	6.565	6.658	6.495	6.291	6.273	6.564
390.0	653.1	1095	1623	2031	2335	2427	2325	2124	1952	1887	1814	1720	1626	1473	1334	1223	1151	1067	985.5	911.3	856.5	796.6	743.2	705.1	682.4	585.3	426.5	317.9	236.4	173.4	139.0	243.5	834.4	2053	2145	566.7	12.74	2.749	1.818	1.508	1.195	1.095	1.088	1.180	1.486	1.946	2.311	3.264	4.158	4.100	5.171	6.688	7.310	8.000	8.165	8.522	9.124	8.936	8.502	8.005	7.729	8.178	7.634	7.749	7.481	7.479	7.334	7.127	7.027	6.805	6.857	6.455	6.787	6.597	6.254	6.413	6.602
395.0	615.0	1058	1608	1967	2258	2386	2321	2144	1975	1884	1807	1701	1609	1459	1328	1217	1141	1068	993.0	928.3	873.4	831.4	769.3	726.1	675.5	643.8	537.0	382.4	285.8	216.0	159.0	139.3	243.6	513.3	1396	2367	266.7	13.36	2.634	1.946	1.638	1.219	1.280	1.321	1.460	1.903	2.261	3.084	3.730	4.109	4.790	6.385	7.082	7.837	8.106	8.094	9.112	8.831	8.512	8.089	8.016	8.015	7.375	7.553	7.216	7.519	7.415	6.622	6.790	7.100	6.818	6.726	6.523	6.458	6.239	6.507	6.462
400.0	582.9	998.4	1551	1894	2170	2333	2263	2111	1959	1873	1786	1683	1560	1433	1296	1194	1122	1058	985.5	925.2	875.5	838.6	789.2	738.0	680.5	631.2	587.3	453.8	326.1	247.0	183.4	134.9	123.9	162.7	390.2	1743	2142	216.7	6.354	2.344	1.864	1.425	1.378	1.326	1.474	1.989	2.314	3.013	3.584	3.990	4.575	6.340	6.799	7.608	7.827	8.014	8.996	8.483	8.503	7.806	8.198	7.919	7.813	7.432	7.165	7.096	7.064	6.634	6.838	6.679	6.799	6.777	6.606	6.437	6.310	6.168	6.506
405.0	592.7	967.0	1495	1783	2088	2239	2181	2052	1935	1832	1739	1646	1519	1403	1258	1167	1098	1034	973.7	913.6	871.3	837.6	789.7	743.8	687.7	621.7	584.1	517.5	371.6	275.6	208.9	151.9	110.8	94.99	127.4	514.8	1950	1785	34.57	4.215	2.078	1.617	1.439	1.424	1.473	1.886	2.439	3.167	3.513	3.723	4.442	6.242	6.542	7.329	7.098	7.992	8.635	8.193	8.117	7.575	8.071	7.724	7.538	7.316	7.344	7.089	6.615	6.496	6.728	6.781	6.710	6.517	6.203	6.244	6.211	5.760	6.160
410.0	558.4	948.8	1393	1705	1955	2105	2098	1996	1868	1771	1678	1570	1444	1324	1202	1108	1046	990.7	938.3	891.4	848.7	814.3	775.1	734.2	681.2	621.6	559.3	515.1	447.0	328.0	243.8	179.6	130.8	97.53	80.87	151.5	556.1	1445	1571	467.1	11.41	2.183	1.773	1.513	1.568	1.832	2.230	2.978	3.399	3.650	4.298	5.713	6.226	6.865	7.063	7.375	7.975	8.091	8.024	7.478	7.683	7.502	7.451	7.223	7.004	6.660	6.736	6.288	6.506	6.379	6.329	6.057	6.027	5.922	5.726	5.680	5.679
415.0	536.4	901.3	1312	1618	1807	1951	1981	1931	1813	1708	1603	1490	1359	1243	1130	1048	983.4	939.0	894.2	849.9	817.1	784.7	747.7	712.2	669.5	613.7	545.8	490.0	459.9	394.9	283.8	208.4	154.2	114.4	85.04	79.70	155.8	353.7	912.6	1860	246.5	13.06	2.218	1.868	1.577	1.957	1.979	2.866	3.219	3.532	4.089	5.496	5.773	6.475	6.522	6.935	7.491	7.705	7.711	7.429	7.442	7.373	7.097	7.134	6.806	6.492	6.209	6.229	6.016	5.850	5.679	6.036	5.809	5.461	5.491	5.350	5.508
420.0	507.2	849.5	1218	1500	1713	1839	1876	1872	1760	1658	1547	1414	1304	1176	1082	1001	942.8	903.1	854.5	811.9	782.7	755.8	724.7	689.8	654.0	600.4	544.6	481.8	445.0	420.3	330.5	229.8	174.0	128.0	94.27	71.89	72.31	104.9	246.5	1190	1621	207.4	6.225	2.360	1.787	2.025	2.043	2.739	3.038	3.355	3.638	5.038	5.451	6.147	6.157	6.556	7.238	7.269	7.367	7.198	6.939	7.035	6.783	6.734	6.579	6.572	6.029	5.714	5.688	5.305	5.288	5.376	5.454	5.246	5.309	5.491	5.150
425.0	457.5	823.4	1167	1432	1632	1775	1810	1808	1717	1598	1502	1359	1239	1119	1032	955.1	896.8	854.0	821.5	774.9	751.2	725.2	696.0	669.4	635.0	589.4	538.1	479.4	433.8	404.0	363.7	262.2	187.3	141.5	105.8	78.26	60.51	54.03	76.68	334.3	1301	1387	33.55	3.839	2.147	2.128	2.122	2.697	3.086	3.108	3.534	4.894	5.465	5.659	6.051	6.046	7.152	6.962	6.837	6.944	6.832	6.887	6.530	6.588	6.120	6.265	5.763	5.474	5.254	5.432	5.212	5.102	5.282	5.241	5.117	5.050	4.872
430.0	479.6	764.1	1070	1340	1535	1671	1709	1707	1649	1550	1428	1292	1173	1060	969.9	889.3	843.2	805.9	774.3	733.2	704.8	687.1	659.4	637.5	608.9	566.2	523.0	476.9	431.7	389.2	355.8	308.0	220.5	159.9	121.1	90.08	68.04	51.74	45.70	94.87	355.1	985.2	1182	417.3	12.10	2.646	2.354	2.745	3.068	3.034	3.490	4.532	5.017	5.340	5.713	5.954	6.542	6.434	6.816	6.952	6.508	6.524	6.342	6.128	5.959	5.693	5.604	5.406	4.960	5.141	5.132	4.814	4.711	4.883	4.877	4.869	4.923
435.0	555.7	696.1	1029	1237	1438	1560	1593	1639	1591	1479	1366	1238	1113	1007	908.9	842.3	794.5	756.0	720.0	689.6	665.4	646.3	625.0	602.7	577.5	546.7	508.4	466.6	430.1	387.0	342.1	310.0	265.6	185.4	137.5	105.3	80.97	60.60	45.98	46.86	98.16	236.9	595.4	1460	241.8	15.72	2.951	2.980	2.856	2.880	3.287	4.373	4.681	5.249	5.404	5.484	5.924	6.021	6.491	6.565	6.278	6.333	6.242	6.134	5.710	5.530	5.242	5.192	5.027	4.892	4.764	4.607	4.607	4.717	4.371	4.621	4.747
440.0	661.9	722.5	966.1	1159	1356	1473	1555	1564	1545	1434	1335	1190	1063	952.1	870.1	795.8	753.9	712.0	687.7	660.8	630.6	610.4	596.2	575.9	552.2	532.5	496.0	459.5	426.1	386.6	338.9	296.4	274.7	212.4	150.6	115.9	89.15	67.93	51.99	41.06	44.32	69.69	157.4	837.0	1407	211.5	9.239	3.417	2.947	3.058	3.067	4.031	4.387	4.878	5.092	5.295	5.742	6.072	6.236	6.198	6.435	6.107	5.838	5.804	5.414	5.416	4.949	4.642	4.776	4.707	4.618	4.432	4.225	4.473	4.159	4.208	4.453
445.0	714.1	851.3	925.2	1088	1274	1380	1476	1504	1486	1397	1285	1134	1021	913.7	824.0	756.8	706.9	677.2	649.2	628.0	604.1	578.8	562.1	549.7	533.3	510.9	479.7	449.6	418.5	382.5	337.0	291.0	264.0	233.8	172.1	125.3	97.89	75.75	58.62	45.21	36.43	36.67	50.77	227.8	1009	1269	154.2	5.802	3.093	3.102	3.054	3.935	4.221	4.681	4.724	4.984	5.636	5.780	5.934	5.972	5.832	5.935	5.824	5.438	5.442	5.090	5.096	4.680	4.573	4.523	4.354	4.204	3.905	3.978	4.055	4.265	3.989
450.0	542.7	1110	954.7	1026	1178	1293	1364	1403	1402	1326	1212	1072	950.2	847.7	764.6	700.9	653.6	624.8	600.2	575.0	554.9	536.9	520.2	506.9	495.5	472.9	450.5	428.1	401.4	371.9	332.6	285.7	249.2	220.4	192.6	144.0	105.6	82.65	66.48	52.11	40.36	33.49	30.91	65.72	268.1	800.0	1073	400.4	12.44	3.313	3.192	3.767	3.819	4.417	4.430	4.552	5.150	5.247	5.549	5.616	5.490	5.711	5.758	5.246	5.176	4.964	4.725	4.504	4.126	4.173	4.181	3.813	3.762	3.752	3.665	3.817	3.736
455.0	368.8	1092	1286	963.7	1065	1167	1255	1280	1295	1236	1133	988.8	877.3	777.8	701.8	642.2	592.2	568.6	546.7	521.2	500.0	485.1	474.7	463.2	449.2	432.4	416.9	401.7	380.8	353.4	320.7	278.3	238.0	203.8	183.8	164.7	119.8	90.21	72.75	59.57	47.48	37.45	30.67	32.57	73.94	191.0	441.2	1146	203.2	15.10	3.503	3.819	3.574	3.989	4.272	4.030	4.846	4.750	5.096	5.121	5.298	5.134	5.268	5.225	4.967	4.491	4.259	4.087	4.146	3.887	3.849	3.701	3.367	3.659	3.549	3.507	3.533
460.0	328.6	841.3	1664	998.0	977.7	1084	1165	1209	1230	1179	1064	933.6	825.3	726.5	660.7	592.8	549.2	522.8	502.1	482.7	462.5	451.5	441.5	425.1	418.6	403.3	388.4	374.7	358.2	337.6	309.6	268.5	232.5	197.7	173.0	163.4	134.5	97.12	78.79	63.56	51.72	41.64	33.71	27.61	32.43	55.16	113.5	575.3	1071	169.8	11.33	4.275	3.771	3.746	4.053	4.203	4.419	4.765	4.845	4.689	4.754	4.937	4.812	4.926	4.791	4.159	3.936	3.878	3.863	3.601	3.642	3.603	3.350	3.398	3.219	3.272	3.340
465.0	297.7	605.8	1634	1297	926.7	1012	1083	1133	1160	1098	1007	872.8	770.1	686.1	608.1	555.4	509.5	490.2	466.8	445.4	424.0	414.9	407.7	397.3	387.4	377.1	361.0	351.5	338.9	320.6	295.1	259.4	226.0	191.6	163.6	149.6	139.9	105.0	80.88	66.57	54.85	45.07	35.76	29.36	25.40	26.44	37.01	151.1	697.2	942.0	146.9	7.734	4.071	3.651	3.792	3.905	4.249	4.504	4.595	4.528	4.648	4.530	4.628	4.679	4.533	4.237	3.734	3.810	3.609	3.494	3.274	3.363	3.344	3.281	3.045	3.007	3.143
470.0	275.7	462.6	1111	1800	1005	906.5	983.1	1037	1043	1002	919.9	806.6	698.6	618.9	548.7	500.8	460.9	439.0	418.7	398.4	382.1	371.3	362.9	356.1	347.2	338.4	327.4	318.3	310.6	296.1	274.8	243.6	210.2	182.2	155.2	136.3	128.1	114.8	88.72	70.14	58.07	48.81	39.70	32.21	26.25	22.53	21.61	44.46	181.4	526.6	725.1	327.5	13.79	4.064	3.637	3.560	4.014	4.140	4.166	4.126	4.269	4.423	4.270	4.315	3.996	3.780	3.572	3.479	3.278	3.079	2.990	3.105	2.963	2.830	2.730	2.876	2.840
475.0	285.7	394.0	670.7	1639	1499	835.1	867.9	919.5	944.0	914.7	821.8	737.4	632.9	563.7	495.5	452.3	412.1	390.1	372.6	355.8	339.4	328.6	320.4	316.1	309.9	302.6	293.0	288.6	280.2	268.9	250.2	226.0	194.6	172.1	146.7	128.5	113.0	108.5	98.97	76.67	60.59	51.01	42.32	35.10	29.31	23.63	20.33	22.17	50.88	126.6	270.1	735.5	207.8	18.28	3.849	3.767	3.782	3.904	3.893	3.672	3.887	4.083	3.645	4.050	3.531	3.215	3.164	3.225	2.918	2.837	2.849	2.703	2.614	2.698	2.580	2.544	2.336
480.0	269.8	356.4	511.3	1138	1950	912.7	816.2	865.1	875.7	852.9	771.5	686.1	591.4	525.0	463.2	417.8	386.4	361.3	345.7	322.4	312.6	303.0	294.0	289.5	283.3	277.2	271.3	265.1	262.5	250.1	236.7	213.4	186.7	164.4	141.9	123.1	107.9	100.3	97.32	82.72	62.10	52.20	43.92	37.22	31.60	25.61	20.86	18.29	22.75	37.68	69.79	332.1	786.3	197.3	12.52	3.764	3.548	3.535	3.708	3.632	3.664	3.735	3.737	3.731	3.191	2.998	2.907	2.944	2.876	2.569	2.665	2.665	2.508	2.465	2.255	2.416	2.259
485.0	249.2	381.3	470.0	758.6	1951	1247	780.0	824.9	835.2	806.7	731.1	642.7	556.4	492.0	430.2	388.2	360.8	339.7	321.9	303.0	292.3	282.5	272.7	269.1	262.9	259.0	256.3	250.5	246.7	239.4	223.6	201.0	179.1	157.5	137.2	120.5	104.8	94.33	90.00	86.46	68.32	53.41	44.83	39.06	32.34	27.43	22.45	18.85	17.46	18.47	24.23	87.66	465.8	727.5	156.7	7.235	3.668	3.499	3.511	3.599	3.400	3.424	3.322	3.359	3.081	3.176	2.939	2.839	2.740	2.577	2.571	2.440	2.229	2.299	1.993	2.200	2.199
490.0	195.3	364.5	446.9	558.8	1268	1819	855.6	737.8	761.9	742.4	681.0	601.2	517.5	450.6	397.9	358.4	329.6	307.5	292.7	275.1	266.0	255.3	248.2	243.5	239.7	234.8	232.8	228.2	226.3	220.6	206.8	187.4	166.7	148.7	129.8	115.1	101.9	89.73	83.05	80.57	73.69	58.77	47.14	40.20	34.24	29.73	24.67	21.18	17.30	15.87	15.04	27.71	119.7	364.7	607.6	304.9	15.22	3.803	3.414	3.349	3.319	3.259	3.148	3.135	2.911	3.017	2.762	2.486	2.503	2.424	2.174	2.151	2.160	2.259	2.047	2.008	2.033
495.0	166.6	311.5	439.7	475.1	705.1	1684	1361	685.8	693.9	669.9	622.9	543.3	477.5	407.6	364.7	324.8	297.5	277.6	261.9	247.5	238.5	230.8	221.9	220.7	214.2	210.8	207.5	203.5	203.0	200.6	189.1	173.3	153.8	136.3	120.8	107.7	94.95	85.19	77.19	70.72	69.48	64.88	50.50	41.42	35.05	31.20	26.47	22.35	19.23	16.14	13.92	15.10	34.32	88.07	223.0	649.3	229.2	20.00	3.584	3.360	3.218	3.132	3.156	2.863	2.945	2.615	2.390	2.362	2.234	2.201	2.067	2.106	2.065	2.146	1.942	1.960	1.855
500.0	156.3	271.9	421.4	440.9	527.8	1169	1843	720.5	629.7	612.0	559.6	501.5	431.6	380.0	333.5	300.4	273.7	255.9	239.8	225.9	218.2	210.3	203.1	199.3	195.3	192.1	188.5	186.2	185.9	183.9	173.5	160.6	143.8	127.2	112.8	101.3	90.12	81.68	73.75	66.53	63.09	63.61	54.60	43.36	35.81	31.13	26.89	23.30	20.10	16.67	14.03	13.02	15.66	26.36	57.01	276.7	671.8	213.0	14.25	3.247	2.999	2.859	2.898	2.812	2.810	2.322	2.334	2.249	1.942	2.102	1.894	1.998	1.725	1.906	1.719	1.843	1.677
505.0	137.0	230.1	394.8	419.0	453.0	717.9	1891	1007	576.5	567.2	523.6	459.9	397.5	344.3	308.3	273.8	248.4	235.6	218.7	206.8	201.1	192.4	185.3	182.9	175.8	175.3	173.1	171.2	169.9	166.4	161.5	148.1	133.5	118.4	107.0	95.79	84.97	77.64	69.62	63.57	58.33	57.07	55.59	45.16	35.99	30.79	26.41	23.78	20.43	17.35	14.59	12.61	11.37	12.85	18.94	70.93	358.5	652.6	174.8	7.604	3.139	2.798	2.798	2.551	2.518	2.346	2.194	2.151	1.879	1.858	1.951	1.752	1.604	1.724	1.619	1.625	1.680
510.0	123.7	190.2	332.9	409.6	396.1	479.8	1226	1641	628.7	507.7	463.5	410.0	361.8	311.9	275.9	242.9	221.6	205.1	194.5	183.2	175.8	168.5	163.9	159.6	157.1	154.0	152.2	151.7	151.0	148.3	142.2	131.4	118.9	107.2	96.24	86.14	77.85	71.56	64.47	58.19	53.41	49.98	50.09	46.62	38.16	30.60	26.95	23.40	20.18	17.14	15.14	13.21	11.11	10.36	10.62	21.46	90.14	299.9	506.2	236.4	14.97	2.857	2.665	2.362	2.165	2.155	1.907	1.938	1.767	1.766	1.727	1.563	1.579	1.487	1.399	1.651	1.519
515.0	110.7	175.5	255.1	389.0	372.2	383.0	613.0	1673	1076	446.1	410.9	363.9	315.9	273.5	244.1	214.3	194.3	179.9	171.5	159.9	151.3	146.1	144.4	140.9	135.7	132.9	132.4	131.8	133.6	129.2	126.0	114.8	101.8	95.05	85.78	78.14	70.02	64.89	58.37	53.81	47.95	44.88	42.55	43.77	39.68	31.68	25.90	22.55	19.85	17.22	14.97	13.57	11.09	9.799	9.025	10.68	25.12	71.58	166.8	459.7	230.2	19.44	2.552	2.248	1.942	2.059	1.546	1.680	1.663	1.600	1.614	1.403	1.417	1.366	1.339	1.269	1.368
520.0	106.6	158.7	222.9	336.5	365.4	338.0	407.9	1152	1619	472.5	371.0	330.4	285.6	248.1	219.3	193.2	176.3	161.3	153.7	144.5	136.2	128.6	127.7	126.4	121.3	120.2	119.6	119.9	120.3	115.6	113.6	104.6	93.22	85.24	78.30	70.99	65.42	59.48	54.50	50.04	45.14	41.97	38.42	37.78	38.71	32.60	25.33	21.62	19.17	16.30	15.04	13.63	11.48	10.23	9.053	8.293	10.85	20.76	41.96	189.0	492.4	198.5	12.54	2.414	1.801	1.916	1.501	1.610	1.602	1.430	1.369	1.377	1.309	1.364	1.235	1.245	1.307
525.0	103.3	144.2	192.8	286.5	370.3	313.9	337.7	647.3	1845	717.8	336.5	298.0	264.5	229.0	200.2	178.7	158.9	148.4	137.3	130.5	123.6	117.0	115.0	112.8	111.2	108.4	107.2	107.7	106.8	105.0	102.5	94.36	85.46	77.67	71.46	65.30	59.84	55.07	50.70	46.21	41.74	38.82	35.33	34.04	34.86	33.72	26.80	21.06	18.18	15.84	14.25	13.01	11.67	10.43	8.840	7.881	7.719	9.444	13.57	47.92	242.9	472.5	150.7	6.173	1.901	1.856	1.513	1.423	1.452	1.445	1.283	1.315	1.321	1.169	1.252	1.178	1.104
530.0	88.47	118.5	180.7	220.8	319.8	310.1	290.3	375.7	1211	1418	380.8	259.9	229.5	203.0	174.8	156.7	140.4	131.1	121.6	113.4	107.7	103.6	99.73	98.20	96.90	94.90	93.73	93.42	92.95	92.75	88.82	83.15	74.75	69.82	62.79	56.82	53.10	48.66	45.61	40.74	38.79	35.31	32.40	29.89	29.12	30.33	27.59	21.77	17.45	15.45	13.66	12.38	10.77	10.56	8.862	7.953	7.038	6.524	7.097	14.35	60.70	207.9	338.5	133.6	13.47	2.011	1.514	1.413	1.356	1.199	1.214	1.082	1.184	1.043	1.157	1.074	0.988
535.0	70.29	102.1	153.8	180.3	250.2	306.3	252.8	283.7	531.1	1599	786.5	233.4	196.4	172.4	150.9	135.3	122.6	112.6	104.1	97.40	94.26	88.48	85.16	83.23	83.30	81.12	80.84	79.59	79.20	79.28	75.04	71.93	64.78	58.92	55.26	49.69	46.19	42.56	39.73	35.61	33.44	31.39	28.32	26.40	25.06	24.84	25.96	22.15	17.25	14.49	12.94	11.71	10.24	9.482	8.955	7.841	6.402	6.104	5.444	6.804	16.54	49.01	107.2	308.8	211.1	16.81	1.387	1.416	1.213	1.218	1.022	0.966	1.051	0.866	0.879	0.978	0.875
540.0	58.40	100.5	135.9	162.5	195.2	286.2	248.3	235.5	304.8	1062	1362	245.3	174.7	153.8	134.7	118.4	109.5	99.25	90.52	87.52	83.17	79.33	75.77	74.59	72.25	70.77	71.30	69.72	70.67	69.58	67.04	63.49	57.21	52.65	47.90	44.19	41.19	38.03	35.25	32.80	30.15	28.15	25.36	24.25	22.49	21.80	21.97	21.62	17.44	13.51	12.23	10.55	9.677	8.656	8.302	7.901	6.527	5.427	5.207	4.554	6.548	13.46	26.75	121.1	333.9	168.2	8.956	1.425	1.089	1.042	1.094	0.895	0.862	0.846	0.826	0.804	0.867
545.0	55.21	96.62	119.1	144.5	165.9	249.1	250.4	206.0	226.6	530.0	1647	422.5	160.3	138.8	118.9	103.9	95.19	86.40	81.09	77.67	73.75	69.47	66.15	65.25	63.63	62.16	62.74	61.46	61.55	62.38	60.16	56.39	50.46	45.73	42.76	39.60	36.81	33.53	30.73	29.06	27.24	25.22	23.52	21.74	20.08	18.91	18.45	19.29	17.60	13.58	11.17	9.849	8.880	8.305	7.703	7.343	6.662	5.441	4.816	4.165	4.397	5.666	8.337	30.41	153.1	317.8	108.0	3.915	1.076	0.974	1.099	0.840	0.879	0.757	0.756	0.748	0.767
550.0	57.85	89.25	107.9	120.6	136.1	172.1	243.8	187.3	187.0	261.2	1033	1075	171.8	117.4	100.1	88.18	79.80	73.26	68.36	64.63	60.67	58.07	55.76	54.12	53.26	52.29	51.67	51.38	51.39	51.64	50.14	46.10	41.88	38.83	35.54	33.56	31.05	28.48	26.53	24.90	23.25	21.31	20.36	18.64	17.25	15.94	14.82	15.22	15.49	13.50	10.67	9.185	8.000	7.335	7.117	6.216	6.095	5.439	4.617	4.046	3.866	3.462	3.876	8.648	37.48	129.6	213.0	117.2	12.04	1.107	0.895	0.881	0.785	0.727	0.765	0.681	0.680
555.0	57.26	74.08	90.40	99.69	108.0	121.1	195.0	190.1	154.9	175.9	388.2	1347	453.7	98.58	82.44	73.54	65.49	59.73	55.01	52.73	50.94	47.39	44.31	44.80	43.11	41.96	41.33	40.97	41.75	40.88	39.42	37.90	34.36	31.36	28.35	26.90	25.46	23.54	21.42	20.96	19.53	17.40	16.75	15.75	14.70	12.97	12.33	11.62	11.91	12.32	10.52	8.546	7.067	6.466	5.928	5.415	5.098	4.856	4.704	3.654	3.365	2.995	2.774	3.598	9.804	30.24	65.05	192.7	157.8	14.33	0.962	0.838	0.706	0.632	0.599	0.634	0.562
560.0	57.70	73.59	77.39	90.84	99.05	101.8	151.3	192.7	132.1	137.1	190.1	905.9	940.4	103.4	70.67	62.10	55.15	51.27	46.40	43.92	42.02	39.74	37.71	37.04	35.75	35.25	34.10	34.83	36.16	35.09	33.49	31.61	28.97	27.23	23.70	22.85	21.33	19.70	18.39	17.36	16.22	15.14	14.07	13.56	12.23	11.81	10.83	10.14	9.557	10.13	9.921	8.004	6.161	6.007	5.513	4.701	4.850	4.206	4.607	3.862	2.979	2.628	2.290	2.296	3.622	8.002	15.80	71.28	207.0	111.7	6.792	0.760	0.699	0.664	0.516	0.589	0.573
565.0	57.99	70.04	75.27	77.60	86.19	86.94	114.0	188.9	132.3	123.1	132.2	410.9	1259	163.3	61.43	53.27	48.18	44.30	39.59	37.34	36.22	33.62	32.84	31.14	30.77	30.26	29.97	30.33	30.06	29.39	27.71	26.60	24.33	22.85	20.74	19.65	18.57	16.63	16.07	14.60	14.26	13.25	12.26	11.85	10.66	10.22	9.326	8.769	8.368	7.993	8.602	7.720	5.798	5.185	4.772	4.228	4.118	3.838	3.673	3.709	3.015	2.417	2.228	2.074	2.156	3.127	4.684	17.48	89.49	190.8	32.27	2.668	0.622	0.505	0.532	0.519	0.480
570.0	59.30	68.73	71.40	68.44	69.76	72.12	82.12	142.0	153.5	110.1	107.3	170.0	826.1	791.2	76.40	44.10	38.30	35.92	33.08	30.34	28.78	27.17	26.95	25.50	24.92	23.81	24.30	24.30	23.66	24.11	22.83	21.38	19.66	18.57	16.76	15.97	14.95	13.47	12.80	12.04	11.33	10.56	9.909	9.673	8.744	8.221	7.763	7.070	6.599	6.261	6.461	6.757	5.718	4.695	4.172	3.841	3.511	3.300	2.921	2.986	2.864	2.270	1.948	1.726	1.588	1.796	2.014	4.803	21.38	73.65	122.8	73.64	9.785	0.613	0.494	0.516	0.457
575.0	60.78	73.13	64.07	57.97	54.79	58.81	67.04	96.70	156.3	111.4	94.14	100.1	283.1	1121	264.9	35.43	30.86	28.64	26.63	23.75	21.96	22.06	21.82	19.84	19.97	19.18	18.67	19.40	19.08	18.55	17.99	17.70	15.81	14.83	13.40	12.87	12.35	11.37	10.43	9.958	9.084	8.623	7.982	7.758	6.835	6.713	6.088	6.064	5.142	4.855	4.676	5.074	5.234	4.553	3.684	3.196	3.243	2.775	2.506	2.321	2.427	2.378	1.920	1.469	1.377	1.316	1.269	1.815	5.611	17.05	35.28	103.5	93.36	9.974	0.482	0.557	0.461
580.0	56.48	72.06	58.88	54.25	46.33	48.32	55.98	71.00	137.3	124.9	87.48	82.83	114.4	769.6	628.3	41.08	27.45	24.26	22.21	20.37	18.55	18.26	18.04	16.51	17.27	16.05	15.73	16.13	15.48	15.25	15.25	14.70	13.22	11.76	11.58	11.02	10.30	9.097	8.527	8.372	7.975	7.119	7.195	6.398	6.040	5.902	5.238	5.259	4.381	4.252	3.975	4.066	4.843	4.506	3.866	2.971	2.805	2.463	2.083	1.991	1.967	2.037	2.048	1.456	1.396	1.209	1.119	1.187	1.918	4.461	8.608	36.60	116.0	34.19	4.851	0.533	0.466
585.0	57.62	65.59	57.60	48.25	41.87	45.86	48.16	58.14	108.7	135.6	85.82	77.85	68.56	318.8	885.0	93.35	24.00	20.90	19.58	18.01	16.28	14.90	14.83	14.66	14.43	14.13	13.18	13.60	13.53	13.64	12.77	12.19	11.46	10.46	9.961	8.801	8.545	7.898	7.510	6.805	6.873	6.029	6.052	5.789	5.445	5.079	4.588	4.442	4.047	3.511	3.503	3.422	3.736	3.988	3.573	2.906	2.374	2.171	1.825	1.902	1.770	1.790	2.002	1.535	1.412	1.101	1.033	0.944	1.096	1.619	2.546	8.915	46.66	101.3	30.62	1.960	0.424
590.0	59.14	58.71	51.21	42.37	37.02	38.12	42.37	49.81	71.60	129.4	93.26	67.12	55.76	107.1	578.8	435.8	31.85	17.59	15.83	14.57	13.69	12.66	12.28	12.23	11.58	11.14	10.74	10.74	11.16	10.82	10.52	9.804	8.994	8.469	7.979	7.334	6.887	6.546	6.089	5.544	5.505	5.308	4.872	4.640	4.413	4.119	3.740	3.668	3.297	2.992	2.871	2.827	2.744	3.052	3.105	2.736	2.187	1.855	1.767	1.633	1.546	1.406	1.470	1.575	1.367	0.974	0.831	0.993	0.826	0.932	1.087	2.487	11.19	38.49	74.61	48.11	7.581
595.0	50.61	56.44	49.01	40.62	32.49	32.81	36.80	45.34	53.97	93.57	113.1	63.81	46.69	49.00	180.2	645.4	92.83	14.49	12.59	11.99	11.44	10.26	9.833	9.459	9.049	8.881	8.902	8.712	8.736	8.417	8.349	8.083	7.190	6.732	6.225	6.175	5.706	4.913	4.881	4.298	4.310	3.955	3.969	3.568	3.696	3.434	3.039	2.847	2.620	2.667	2.312	2.263	2.198	2.204	2.376	2.624	2.330	1.703	1.537	1.342	1.353	1.287	1.190	1.211	1.385	1.260	0.889	0.854	0.707	0.758	0.756	1.040	2.942	8.993	20.91	58.28	58.22
600.0	44.31	51.39	52.19	36.43	30.04	30.07	31.25	40.76	45.82	66.51	119.8	67.04	45.22	33.99	60.00	450.4	358.9	17.54	10.85	9.796	9.232	8.474	8.243	8.347	7.737	7.805	7.043	7.221	7.381	7.202	6.976	6.719	5.911	5.882	5.311	4.958	4.849	4.292	3.917	3.824	3.759	3.284	3.213	2.941	3.100	3.029	2.658	2.452	2.284	2.183	1.953	1.982	1.806	1.739	1.990	2.150	2.132	1.699	1.441	1.232	1.135	1.128	1.060	0.945	1.025	1.211	0.988	0.841	0.643	0.698	0.717	0.622	1.065	2.374	5.012	19.28	64.52
605.0	41.75	46.81	43.46	35.82	28.00	26.39	28.52	36.17	39.93	56.05	104.3	79.34	43.29	29.99	29.09	184.8	554.4	53.99	9.371	8.975	7.285	7.353	7.131	7.117	6.773	6.416	5.952	6.301	6.273	6.217	5.757	5.641	4.981	4.796	4.207	4.349	3.813	3.750	3.419	3.294	3.098	2.770	3.049	2.633	2.688	2.456	2.328	2.175	2.003	1.779	1.667	1.604	1.450	1.385	1.515	1.742	1.990	1.578	1.335	1.053	0.997	1.032	0.936	0.861	0.922	1.069	1.057	0.762	0.606	0.610	0.582	0.609	0.613	0.944	1.449	4.773	24.41
610.0	38.72	42.29	42.14	32.75	25.63	25.45	26.78	33.56	38.22	46.30	71.03	87.97	45.05	27.56	21.77	57.08	380.8	284.0	14.58	7.238	6.352	6.111	5.928	5.678	5.335	5.140	5.004	5.049	5.267	4.897	4.583	4.622	4.067	3.802	3.457	3.377	3.109	3.138	2.760	2.671	2.575	2.374	2.372	2.125	2.084	1.937	1.901	1.741	1.634	1.510	1.358	1.299	1.235	1.194	1.213	1.276	1.507	1.454	1.259	1.065	0.866	0.905	0.798	0.770	0.801	0.850	0.799	0.875	0.586	0.536	0.576	0.505	0.556	0.520	0.630	1.365	5.841
615.0	34.96	37.46	31.02	28.83	22.11	21.01	24.52	31.59	34.56	41.26	50.64	81.37	54.62	27.09	18.52	23.12	117.4	445.3	66.22	6.113	5.253	4.853	4.932	4.430	4.042	4.034	4.005	3.960	3.821	3.965	3.866	3.717	3.320	2.838	2.868	2.429	2.631	2.453	2.161	2.307	2.011	1.886	1.701	1.804	1.654	1.555	1.495	1.467	1.256	1.237	1.123	1.063	0.894	1.035	0.961	1.002	1.140	1.174	1.183	1.111	0.830	0.773	0.708	0.644	0.693	0.683	0.656	0.832	0.671	0.605	0.550	0.514	0.435	0.439	0.370	0.587	1.558
620.0	35.89	36.62	31.97	26.80	20.18	17.95	22.91	26.69	31.26	38.36	43.87	69.78	64.88	28.42	16.94	15.30	36.32	316.2	248.1	8.378	4.581	4.420	3.970	3.636	3.316	3.323	3.235	3.477	3.252	3.081	3.245	3.051	2.877	2.414	2.492	2.114	2.283	1.929	1.779	1.791	1.645	1.513	1.511	1.443	1.401	1.458	1.226	1.250	1.142	1.007	1.032	0.920	0.890	0.900	0.836	0.847	0.874	0.923	1.039	0.984	0.851	0.682	0.579	0.634	0.621	0.695	0.590	0.751	0.637	0.597	0.512	0.426	0.371	0.400	0.366	0.369	0.612
625.0	27.45	32.56	31.79	22.81	20.18	18.81	20.79	25.26	30.40	37.03	41.13	53.39	68.60	29.85	17.25	13.84	16.00	130.5	397.8	32.22	4.268	3.710	3.424	3.465	2.996	3.109	2.934	2.759	2.627	2.646	2.868	2.541	2.362	2.394	2.031	1.816	1.732	1.621	1.557	1.545	1.352	1.315	1.183	1.154	1.118	1.252	1.045	1.068	0.922	0.944	0.878	0.800	0.715	0.670	0.713	0.744	0.652	0.783	0.871	0.893	0.843	0.705	0.565	0.506	0.495	0.657	0.492	0.663	0.602	0.759	0.664	0.450	0.350	0.352	0.370	0.341	0.413
630.0	26.60	27.19	29.71	23.56	18.07	17.54	20.21	23.76	27.90	33.84	36.29	40.52	59.10	40.72	17.44	12.38	11.35	38.51	281.3	201.4	7.538	3.071	2.785	2.654	2.380	2.399	2.440	2.249	2.284	2.178	2.166	2.001	1.818	1.957	1.729	1.540	1.440	1.346	1.251	1.205	1.166	1.094	1.081	0.989	0.924	1.005	0.851	0.816	0.773	0.731	0.704	0.641	0.628	0.670	0.618	0.624	0.624	0.589	0.709	0.799	0.765	0.682	0.530	0.425	0.497	0.529	0.446	0.511	0.458	0.559	0.612	0.432	0.381	0.374	0.351	0.320	0.344
635.0	31.95	29.47	29.16	21.74	17.48	16.62	19.35	21.60	25.70	30.18	34.83	35.26	43.12	48.83	20.56	12.26	10.55	14.70	84.75	337.5	49.53	2.850	2.304	2.193	2.016	2.014	1.820	2.112	1.893	1.777	1.811	1.638	1.431	1.468	1.465	1.262	1.198	1.035	1.042	0.984	0.946	0.967	0.886	0.722	0.729	0.751	0.645	0.741	0.688	0.586	0.570	0.535	0.563	0.558	0.518	0.474	0.567	0.512	0.497	0.683	0.613	0.580	0.480	0.422	0.418	0.492	0.435	0.425	0.418	0.397	0.490	0.518	0.443	0.295	0.280	0.319	0.282
640.0	39.73	27.92	30.53	22.01	16.70	17.41	17.36	21.06	24.27	28.56	32.29	33.02	33.57	47.17	25.35	12.14	10.04	9.433	24.82	244.7	174.8	4.614	2.254	1.997	1.693	1.699	1.554	1.814	1.522	1.606	1.480	1.412	1.104	1.235	1.244	0.979	0.918	1.019	0.867	0.880	0.776	0.745	0.764	0.660	0.641	0.654	0.606	0.611	0.564	0.502	0.477	0.463	0.542	0.522	0.450	0.494	0.438	0.416	0.451	0.455	0.548	0.657	0.489	0.435	0.419	0.386	0.412	0.454	0.403	0.418	0.443	0.522	0.445	0.329	0.323	0.328	0.392
645.0	31.01	33.05	35.84	24.80	18.06	16.60	17.36	22.39	24.26	28.42	32.31	33.68	32.37	41.32	34.66	14.28	10.62	8.223	9.656	103.4	293.0	19.98	2.102	1.831	1.593	1.693	1.388	1.449	1.464	1.428	1.271	1.165	1.168	1.166	0.981	0.908	0.919	0.834	0.761	0.745	0.643	0.744	0.587	0.607	0.643	0.591	0.637	0.521	0.588	0.552	0.423	0.468	0.444	0.451	0.394	0.411	0.397	0.405	0.402	0.436	0.439	0.550	0.472	0.484	0.403	0.390	0.408	0.411	0.370	0.386	0.349	0.405	0.536	0.493	0.338	0.367	0.298
650.0	34.27	47.82	39.73	28.88	19.40	17.99	16.03	20.80	22.88	28.26	33.13	34.32	32.23	34.86	40.05	17.15	10.64	8.440	6.742	31.41	277.0	62.29	2.413	1.608	1.437	1.475	1.387	1.373	1.288	1.151	1.001	1.131	0.949	0.974	0.747	0.778	0.749	0.667	0.654	0.636	0.625	0.575	0.601	0.622	0.586	0.605	0.536	0.489	0.477	0.473	0.411	0.445	0.407	0.374	0.389	0.363	0.343	0.396	0.362	0.402	0.451	0.409	0.480	0.382	0.453	0.438	0.415	0.339	0.315	0.372	0.376	0.417	0.429	0.447	0.421	0.365	0.318
