Sample:	'1
File name:	g2025082502东水磨村北.FD3
Run date:	'11:06:51, 08/26/2025
Operator:	Administrator
Comment:	'

Instrument
Model:	F-2700 FL Spectrophotometer
Serial number:	23B8-004
ROM Version:	4J14000 07

Instrument parameters
Measurement type:	3-D scan
Data mode:	Fluorescence
EX  Start WL:	220.0 nm
EX  End WL:	600.0 nm
EX Sampling interval:	5.0 nm
EM  Start WL:	230.0 nm
EM  End WL:	650.0 nm
EM Sampling interval:	5.0 nm
Scan speed:	12000 nm/min
EX Slit:	5.0 nm
EM Slit:	5.0 nm
PMT Voltage:	700 V
Response:	Auto 
Corrected spectra:	Off
Contour interval:	50.000

Peak integration
Integration method:	Rectangular
Sensitivity:	1
Threshold:	1.000

Peaks
No.	ApexEX/EM(nm)	Height(Data)
1	225.0/310.0	709.8
2	230.0/345.0	1809
3	230.0/500.0	402.7
4	235.0/355.0	1785
5	235.0/510.0	334.4
6	240.0/265.0	351.5
7	240.0/525.0	281.8
8	245.0/270.0	356.8
9	245.0/535.0	231.5
10	250.0/275.0	457.5
11	250.0/550.0	183.1
12	255.0/280.0	583.6
13	255.0/560.0	159.1
14	260.0/575.0	130.9
15	265.0/585.0	119.6
16	270.0/300.0	1257
17	270.0/600.0	117.2
18	275.0/305.0	1408
19	275.0/365.0	1361
20	275.0/410.0	1260
21	275.0/610.0	100.5
22	280.0/625.0	86.35
23	285.0/320.0	1208
24	285.0/355.0	1397
25	285.0/640.0	63.22
26	290.0/325.0	1159
27	335.0/385.0	587.8
28	455.0/540.0	19.68
29	475.0/355.0	6.684
30	480.0/365.0	6.945
31	490.0/370.0	6.503
32	495.0/270.0	2.281
33	505.0/275.0	3.350
34	515.0/280.0	3.831
35	520.0/285.0	3.762
36	530.0/290.0	3.945
37	540.0/295.0	5.756
38	545.0/300.0	6.772
39	550.0/305.0	6.892
40	560.0/310.0	6.353
41	570.0/315.0	6.466

Data points
	220.0	225.0	230.0	235.0	240.0	245.0	250.0	255.0	260.0	265.0	270.0	275.0	280.0	285.0	290.0	295.0	300.0	305.0	310.0	315.0	320.0	325.0	330.0	335.0	340.0	345.0	350.0	355.0	360.0	365.0	370.0	375.0	380.0	385.0	390.0	395.0	400.0	405.0	410.0	415.0	420.0	425.0	430.0	435.0	440.0	445.0	450.0	455.0	460.0	465.0	470.0	475.0	480.0	485.0	490.0	495.0	500.0	505.0	510.0	515.0	520.0	525.0	530.0	535.0	540.0	545.0	550.0	555.0	560.0	565.0	570.0	575.0	580.0	585.0	590.0	595.0	600.0
230.0	52.87	852.1	2566	902.5	40.49	7.469	6.251	5.012	4.639	4.214	4.057	3.540	3.204	3.080	2.403	1.972	1.710	1.589	1.558	1.418	1.268	1.195	1.129	0.998	0.965	0.914	0.880	0.848	0.795	0.742	0.729	0.708	0.603	0.639	0.497	0.514	0.464	0.511	0.440	0.433	0.495	0.550	0.613	0.486	0.366	0.386	0.968	4.412	9.058	7.668	3.375	0.845	0.339	0.277	0.297	0.300	0.319	0.290	0.295	0.304	0.288	0.303	0.301	0.282	0.310	0.265	0.292	0.311	0.292	0.302	0.297	0.255	0.266	0.289	0.285	0.338	0.278
235.0	135.1	241.1	1393	2760	594.5	67.34	7.104	5.451	5.242	4.337	4.121	4.025	3.355	2.868	2.541	2.080	1.724	1.687	1.375	1.558	1.151	1.177	1.243	1.105	1.077	0.999	0.756	0.788	0.711	0.839	0.781	0.701	0.622	0.615	0.509	0.458	0.451	0.598	0.475	0.463	0.430	0.458	0.494	0.632	0.602	0.486	0.535	1.326	3.127	5.788	9.532	11.07	5.919	1.586	0.318	0.281	0.339	0.245	0.326	0.328	0.336	0.299	0.279	0.282	0.310	0.307	0.296	0.303	0.328	0.270	0.300	0.304	0.250	0.267	0.350	0.293	0.323
240.0	181.6	142.0	395.7	2050	2780	484.8	36.65	7.220	5.776	4.922	4.089	4.136	3.627	2.928	2.741	2.027	2.023	1.808	1.577	1.494	1.158	1.247	1.050	1.161	1.022	0.856	0.912	0.876	0.773	0.803	0.741	0.706	0.702	0.673	0.520	0.475	0.492	0.567	0.514	0.380	0.514	0.503	0.474	0.528	0.753	0.719	0.571	0.593	0.916	1.726	4.476	11.12	15.44	12.97	5.695	1.143	0.364	0.262	0.328	0.324	0.341	0.302	0.293	0.322	0.265	0.266	0.247	0.339	0.361	0.260	0.357	0.270	0.235	0.312	0.305	0.262	0.395
245.0	129.8	205.1	167.3	646.2	2634	3025	371.3	19.84	7.917	6.899	4.260	4.247	4.005	3.328	3.005	1.985	2.133	1.741	1.636	1.456	1.356	1.190	1.199	1.146	1.048	0.929	0.931	0.910	0.713	0.807	0.762	0.805	0.617	0.642	0.597	0.564	0.493	0.672	0.492	0.470	0.542	0.362	0.433	0.435	0.615	0.579	0.836	0.870	0.633	0.593	1.305	3.424	8.743	17.20	20.32	12.79	4.256	0.567	0.382	0.296	0.333	0.326	0.291	0.356	0.295	0.341	0.312	0.337	0.321	0.282	0.354	0.305	0.291	0.375	0.313	0.247	0.355
250.0	57.68	138.0	244.2	244.3	791.5	2539	3507	1323	90.13	8.914	6.068	5.336	3.951	3.967	3.209	2.425	2.263	1.787	1.579	1.489	1.375	1.236	1.130	1.144	1.222	1.002	1.006	0.843	0.757	0.741	0.759	0.722	0.664	0.634	0.571	0.525	0.481	0.507	0.459	0.521	0.493	0.441	0.416	0.409	0.421	0.429	0.557	0.880	0.994	0.960	0.829	1.164	2.317	5.035	10.20	16.11	21.78	21.19	13.26	4.753	0.788	0.356	0.319	0.351	0.328	0.348	0.347	0.365	0.326	0.321	0.326	0.261	0.323	0.323	0.316	0.294	0.321
255.0	39.02	54.03	159.2	324.1	283.8	625.5	2268	5590	1911	109.3	9.390	6.788	6.031	4.223	3.639	2.925	2.531	2.368	1.953	1.566	1.466	1.291	1.284	1.328	1.210	1.300	1.033	0.978	1.074	0.882	0.774	0.855	0.639	0.581	0.552	0.511	0.527	0.535	0.487	0.470	0.441	0.527	0.422	0.399	0.437	0.349	0.419	0.454	0.579	0.885	1.323	1.613	1.176	1.437	2.585	3.943	6.753	15.32	31.76	32.23	22.35	5.958	0.707	0.349	0.321	0.349	0.347	0.394	0.330	0.309	0.279	0.315	0.296	0.352	0.337	0.257	0.295
260.0	37.42	36.19	62.48	249.9	326.9	203.4	638.7	3890	6535	1515	55.93	9.117	7.124	5.184	3.361	2.936	2.891	2.471	2.185	1.891	1.585	1.355	1.451	1.275	1.270	1.166	0.994	1.113	1.056	0.942	0.694	0.949	0.676	0.692	0.548	0.501	0.529	0.546	0.495	0.476	0.503	0.458	0.457	0.587	0.433	0.441	0.344	0.365	0.428	0.498	0.816	1.655	2.043	1.491	1.030	1.172	1.870	4.054	11.29	25.54	45.12	31.60	18.05	3.670	0.466	0.404	0.345	0.325	0.311	0.298	0.326	0.370	0.276	0.350	0.345	0.276	0.311
265.0	34.00	30.85	33.97	110.5	351.5	255.5	180.3	1180	5851	6910	250.3	23.33	8.711	5.741	4.280	3.704	3.189	2.364	2.034	1.970	1.876	1.408	1.232	1.386	1.169	1.174	1.127	1.008	1.030	1.077	0.866	0.863	0.783	0.660	0.581	0.629	0.581	0.574	0.419	0.470	0.425	0.473	0.470	0.515	0.498	0.399	0.311	0.442	0.353	0.315	0.454	0.835	1.585	2.358	1.718	1.000	0.786	1.263	2.914	7.065	18.75	37.44	55.42	29.50	12.96	1.785	0.433	0.349	0.445	0.424	0.379	0.304	0.375	0.366	0.323	0.336	0.319
270.0	59.40	48.94	36.08	45.54	147.1	356.8	287.3	321.2	1715	5648	8017	2616	68.69	9.641	6.026	4.598	3.879	2.688	2.516	2.297	1.911	1.490	1.555	1.424	1.274	1.273	1.128	1.081	1.027	0.940	0.941	0.872	0.777	0.745	0.714	0.590	0.593	0.593	0.538	0.536	0.533	0.472	0.527	0.503	0.510	0.426	0.427	0.458	0.381	0.369	0.360	0.502	0.732	1.105	1.775	2.281	2.022	1.293	1.122	2.005	4.625	9.946	21.46	33.32	48.01	44.78	20.22	9.914	1.846	0.491	0.398	0.363	0.407	0.402	0.382	0.417	0.338
275.0	126.2	107.6	70.41	43.26	54.76	144.5	457.5	347.6	442.5	1374	4807	9999.9	1367	78.17	9.664	6.033	4.652	3.602	3.300	2.363	2.029	1.922	1.605	1.390	1.374	1.399	1.358	1.108	1.254	1.093	0.974	0.965	0.780	0.716	0.803	0.693	0.742	0.618	0.571	0.609	0.573	0.476	0.614	0.490	0.572	0.555	0.531	0.600	0.531	0.528	0.404	0.426	0.473	0.566	0.691	1.115	2.179	3.350	2.848	1.365	1.536	2.740	5.270	7.965	12.47	22.64	52.25	75.62	31.26	13.03	1.278	0.492	0.389	0.400	0.332	0.512	0.348
280.0	184.8	175.4	128.9	60.17	40.51	63.33	267.5	583.6	294.8	392.3	1326	7376	9999.9	1022	39.43	8.575	5.459	4.449	3.575	2.868	2.299	2.010	1.645	1.737	1.504	1.543	1.393	1.072	1.216	1.058	1.079	0.930	0.933	0.806	0.865	0.863	0.871	0.733	0.771	0.604	0.715	0.649	0.700	0.701	0.705	0.732	0.661	0.770	0.717	0.659	0.501	0.498	0.509	0.455	0.498	0.613	0.998	1.981	3.451	3.831	2.055	1.361	1.790	2.288	3.360	5.839	15.62	40.14	70.26	79.76	26.85	6.842	0.668	0.447	0.351	0.482	0.431
285.0	275.3	285.6	216.6	95.87	51.52	50.18	119.2	484.3	573.4	258.3	441.8	2224	9642	8513	681.8	18.27	7.385	5.470	4.005	3.002	2.808	2.373	1.850	1.720	1.489	1.378	1.450	1.297	1.262	1.124	1.029	0.797	0.876	0.948	0.957	0.990	0.957	0.925	0.925	0.771	0.804	0.677	0.831	0.819	0.907	0.882	0.862	0.999	0.902	0.753	0.646	0.544	0.467	0.548	0.478	0.491	0.613	0.961	1.788	3.363	3.762	2.751	1.618	1.317	1.577	2.259	4.315	10.47	23.97	58.73	84.28	35.73	20.81	2.839	0.576	0.466	0.384
290.0	403.0	427.7	329.3	172.9	92.51	72.15	101.5	248.6	596.4	690.8	439.9	788.5	2841	7573	8624	2207	40.94	8.251	5.849	4.225	3.488	2.724	2.312	2.063	1.722	1.566	1.693	1.360	1.306	1.216	1.118	1.050	1.016	0.929	1.057	1.138	1.135	0.984	0.944	0.926	0.915	0.819	1.016	1.065	1.144	1.285	1.289	1.322	1.195	1.048	0.770	0.755	0.679	0.632	0.653	0.554	0.631	0.854	1.097	1.612	2.277	3.401	3.945	3.509	2.506	2.093	2.431	3.792	6.740	15.16	27.67	38.60	61.05	53.45	49.82	13.73	3.425
295.0	497.7	570.8	451.9	259.5	134.4	109.9	138.6	213.9	380.9	830.8	966.8	656.2	989.5	1937	5097	9999.9	761.3	45.01	8.910	5.663	4.085	3.323	2.839	2.838	2.039	1.871	1.745	1.546	1.360	1.235	1.254	1.238	1.100	1.006	1.112	1.230	1.101	1.183	1.224	1.083	0.978	1.032	1.100	1.243	1.373	1.382	1.571	1.708	1.612	1.323	1.054	1.041	0.800	0.823	0.805	0.773	0.864	0.973	1.089	1.374	1.663	2.157	2.540	4.509	5.756	4.355	3.110	3.016	3.491	5.171	7.724	9.876	15.27	21.60	56.41	89.53	37.22
300.0	580.8	626.9	523.0	298.9	169.0	148.7	179.2	252.9	366.1	655.5	1257	955.0	679.2	698.1	1409	7296	9999.9	606.1	25.63	7.141	5.050	4.197	3.009	3.080	2.248	2.127	1.864	1.769	1.530	1.408	1.432	1.330	1.059	1.077	1.337	1.277	1.371	1.278	1.214	1.261	1.143	1.161	1.089	1.475	1.482	1.561	1.882	1.986	1.883	1.546	1.130	1.215	1.054	0.878	0.852	0.880	1.035	1.176	1.278	1.493	1.696	2.114	2.404	3.261	5.162	6.772	5.784	4.130	3.566	3.417	3.613	3.912	4.638	5.883	15.28	38.64	73.22
305.0	621.4	709.2	563.6	321.4	214.6	188.0	221.8	309.0	424.6	627.7	1066	1408	800.9	493.0	499.1	2109	9375	5463	434.7	13.11	6.527	5.173	3.916	3.221	2.751	2.344	2.083	1.750	1.713	1.483	1.334	1.314	1.171	1.226	1.424	1.347	1.383	1.395	1.237	1.217	1.207	1.183	1.229	1.437	1.573	1.831	2.016	2.022	1.908	1.569	1.218	1.318	1.160	1.111	1.200	0.969	1.117	1.388	1.798	1.753	1.901	2.270	2.637	3.045	3.962	5.260	6.892	6.805	5.326	3.540	3.212	2.668	2.628	2.615	4.531	9.851	22.09
310.0	635.4	709.8	580.6	373.2	256.7	237.0	272.9	369.6	493.7	666.2	914.3	1255	1237	648.8	375.6	639.6	2688	6589	7077	1687	29.55	7.599	5.307	4.053	3.150	2.777	2.365	2.071	1.934	1.706	1.456	1.432	1.289	1.201	1.373	1.371	1.442	1.433	1.226	1.295	1.278	1.312	1.270	1.399	1.622	1.892	1.988	2.175	1.990	1.720	1.429	1.410	1.323	1.284	1.200	1.296	1.482	1.605	1.802	2.034	2.211	2.465	2.911	3.448	3.874	4.614	5.074	5.828	6.353	6.200	5.029	3.491	2.683	2.235	2.412	3.402	6.131
315.0	630.1	708.5	619.5	436.7	319.3	301.4	342.4	424.6	540.8	718.8	903.4	1062	1183	1101	526.1	416.5	814.9	1672	4728	9898	536.4	32.55	7.866	5.944	3.777	2.832	2.717	2.177	1.920	1.846	1.533	1.472	1.492	1.456	1.448	1.303	1.421	1.528	1.329	1.433	1.325	1.389	1.272	1.537	1.735	2.029	2.031	2.449	2.021	1.739	1.691	1.734	1.490	1.575	1.517	1.501	1.883	1.919	2.059	2.220	2.311	2.809	3.156	3.613	3.809	4.110	4.698	4.882	4.930	5.647	6.466	6.134	4.298	2.957	2.718	2.548	3.172
320.0	683.4	855.2	778.9	533.7	410.2	374.9	399.5	477.0	609.0	768.7	955.8	1074	1074	1208	885.8	509.8	508.7	616.7	1368	6945	8606	451.4	17.91	7.195	4.796	3.572	2.871	2.628	2.289	2.237	1.930	1.638	1.370	1.308	1.451	1.476	1.464	1.460	1.449	1.408	1.358	1.462	1.441	1.652	1.744	1.953	2.368	2.732	2.429	2.159	2.103	2.026	1.816	2.023	1.871	1.787	2.055	2.128	2.293	2.364	2.816	3.083	3.365	3.687	4.256	4.329	4.658	4.539	5.174	5.131	5.317	6.374	6.600	5.451	3.995	3.072	3.126
325.0	798.1	1022	982.9	707.8	535.9	451.6	450.7	528.3	649.6	820.1	1004	1103	1094	1092	1159	739.2	533.6	454.3	521.6	2090	8249	4112	64.06	11.12	6.686	4.333	3.592	3.079	2.288	2.074	1.888	1.527	1.529	1.426	1.460	1.480	1.574	1.477	1.472	1.377	1.510	1.615	1.494	1.752	1.974	2.358	2.633	3.145	3.112	2.862	2.515	2.695	2.315	2.219	2.255	2.076	2.522	2.291	2.528	2.695	3.072	3.231	3.562	4.045	4.283	4.661	4.927	4.849	5.222	5.460	5.088	5.348	6.112	6.624	6.224	4.326	3.706
330.0	927.0	1217	1291	1028	745.3	585.8	540.0	587.5	700.1	869.9	1046	1155	1168	1092	1101	1049	746.3	518.4	406.4	672.9	2407	5980	5962	1430	24.09	6.495	4.826	3.523	3.062	2.639	2.221	2.109	1.675	1.455	1.528	1.501	1.493	1.562	1.507	1.447	1.562	1.626	1.620	1.976	2.137	2.775	2.955	3.757	4.055	3.572	3.459	3.679	3.040	3.016	2.789	2.610	2.697	2.680	2.973	2.986	3.190	3.584	3.807	4.250	4.556	4.811	5.210	5.369	5.522	5.682	5.429	5.452	5.642	5.898	6.504	6.191	6.185
335.0	1007	1376	1540	1326	1043	817.1	689.0	702.2	797.7	956.7	1125	1235	1275	1213	1138	1107	1123	738.6	486.6	435.0	691.1	1473	4345	9425	441.8	27.03	6.799	5.151	3.567	3.059	2.795	2.253	1.954	1.756	1.703	1.677	1.669	1.572	1.611	1.672	1.593	1.796	1.853	1.941	2.188	2.966	3.344	4.347	4.473	4.530	4.378	4.625	4.355	3.856	3.552	3.328	3.472	3.321	3.197	3.234	3.542	3.773	4.178	4.488	4.930	5.510	5.130	5.619	5.769	6.281	6.191	5.896	6.249	5.988	6.390	6.367	6.957
340.0	1073	1451	1695	1537	1219	977.7	811.5	783.9	875.7	1047	1184	1284	1338	1313	1223	1116	1158	981.8	589.2	424.7	344.4	434.5	1197	6926	7712	385.2	15.14	6.381	4.628	3.197	3.016	2.236	1.940	1.863	1.785	1.823	1.697	1.717	1.756	1.760	1.842	1.678	1.780	2.093	2.511	2.864	3.780	4.794	4.950	4.932	5.154	5.391	5.026	4.521	4.104	3.910	3.874	3.807	3.524	3.682	3.882	4.387	4.578	4.790	5.344	5.531	5.459	5.770	5.957	6.217	6.429	6.403	6.778	6.673	6.641	6.277	7.083
345.0	1102	1462	1809	1699	1385	1104	903.8	852.1	943.2	1094	1212	1301	1367	1352	1272	1148	1082	1066	726.0	466.7	298.7	230.9	359.1	2062	7591	3481	55.72	9.405	5.842	4.184	3.524	2.716	2.209	2.031	1.885	1.867	1.786	2.043	1.895	1.838	1.719	1.939	1.847	2.362	2.545	3.059	3.775	4.870	5.051	4.998	5.196	5.852	5.372	5.197	4.867	4.452	4.346	4.261	3.862	4.146	4.067	4.464	4.907	5.287	5.689	5.588	5.717	5.905	6.466	6.272	6.356	6.773	6.881	6.889	6.531	6.593	6.592
350.0	1068	1470	1785	1769	1537	1255	1038	972.6	1040	1181	1262	1342	1369	1391	1319	1196	1083	971.6	876.0	611.8	353.4	235.7	215.2	557.6	2214	4953	5182	1248	21.40	5.828	3.994	3.285	2.549	2.098	1.954	1.938	2.041	1.967	1.950	1.846	1.788	1.739	1.963	2.260	2.457	3.085	3.442	4.755	5.140	5.238	5.325	6.321	6.260	5.905	5.417	5.036	4.819	4.758	4.428	4.624	4.583	4.993	5.303	5.615	5.950	5.760	5.920	5.796	6.177	6.535	6.589	7.086	7.244	7.103	7.016	6.670	6.890
355.0	1065	1385	1762	1785	1645	1401	1196	1088	1154	1263	1318	1355	1380	1397	1345	1240	1118	956.7	826.2	783.5	500.2	296.0	233.3	261.6	590.6	1219	3814	7512	413.3	23.73	6.057	4.201	3.074	2.425	2.057	1.918	2.080	2.036	1.863	1.951	1.801	1.670	1.959	2.208	2.304	3.064	3.726	4.458	5.189	5.408	5.273	6.684	6.527	6.305	5.870	5.624	5.732	5.429	5.000	5.147	5.188	5.615	5.738	6.405	6.233	5.888	6.066	6.057	6.109	6.355	6.560	6.950	7.163	7.356	6.985	7.121	6.984
360.0	996.9	1399	1634	1778	1673	1482	1267	1172	1239	1313	1340	1357	1380	1388	1337	1252	1127	960.5	802.4	747.1	634.4	382.1	271.4	226.9	255.7	355.1	1050	5585	6858	361.7	12.75	5.714	3.995	2.850	2.228	1.962	2.272	2.061	2.020	1.829	1.876	1.657	1.875	2.101	2.301	2.834	3.559	4.266	4.801	5.209	5.314	6.459	6.845	6.541	6.459	5.740	5.747	5.606	5.368	5.763	5.518	5.936	6.062	5.900	6.308	5.936	5.876	6.132	6.259	6.259	6.526	6.744	7.024	7.359	7.017	7.114	7.180
365.0	985.4	1298	1602	1729	1658	1483	1313	1228	1263	1331	1357	1361	1354	1355	1311	1233	1122	965.3	807.7	696.4	667.3	516.0	327.4	251.1	208.9	186.7	307.1	1660	6880	3317	52.35	9.490	5.042	3.249	2.659	2.294	2.219	2.138	2.026	1.997	1.986	1.890	2.023	2.070	2.399	2.878	3.464	3.990	4.621	5.104	5.216	6.444	6.945	6.505	6.382	6.034	6.007	6.139	5.456	5.738	5.656	5.677	5.864	6.360	5.932	6.132	5.832	5.960	6.092	6.251	6.283	6.501	6.709	7.007	6.870	6.846	7.209
370.0	951.9	1247	1523	1660	1633	1496	1341	1243	1266	1342	1351	1338	1322	1314	1266	1196	1101	962.3	826.4	704.0	614.9	589.5	478.6	324.2	245.6	191.8	175.7	446.4	2006	4657	4856	1158	19.85	5.272	3.491	2.749	2.462	2.298	2.058	2.106	2.012	1.811	1.882	2.135	2.243	2.654	3.159	3.985	4.573	4.710	4.951	6.219	6.431	6.435	6.503	6.169	6.052	5.899	5.517	5.484	5.834	5.714	6.015	6.289	6.307	5.867	5.959	5.897	5.811	6.162	6.339	6.577	6.355	6.958	6.781	6.941	6.898
375.0	921.5	1161	1446	1589	1598	1492	1354	1254	1294	1336	1346	1322	1317	1269	1210	1151	1073	961.6	832.9	733.6	621.5	568.3	583.5	472.9	322.4	247.6	201.2	220.6	530.0	1150	3595	6779	360.6	21.83	5.435	3.522	2.907	2.629	2.254	2.253	2.100	1.892	1.920	2.127	2.238	2.617	3.188	3.783	4.304	4.601	4.579	6.068	6.070	6.083	6.180	5.911	6.120	5.908	5.557	5.764	5.582	5.575	6.413	6.148	5.954	6.311	5.989	5.761	6.272	5.936	6.267	6.267	6.554	6.539	6.445	6.513	6.473
380.0	918.5	1139	1392	1525	1564	1469	1328	1257	1270	1309	1333	1301	1293	1231	1159	1102	1036	946.7	838.8	749.0	644.9	575.3	572.4	583.6	420.8	304.1	250.0	205.5	228.5	340.2	1015	5025	5677	306.6	11.94	4.923	3.309	3.055	2.441	2.213	2.186	1.963	1.850	2.222	2.285	2.665	2.791	3.819	4.095	4.313	4.573	6.000	6.038	6.012	6.109	6.053	6.197	5.801	5.527	5.434	5.885	5.569	6.085	6.179	6.090	6.054	5.720	6.039	5.909	5.862	6.352	6.088	6.059	6.091	6.039	6.178	6.368
385.0	869.6	1102	1364	1457	1507	1445	1314	1233	1242	1290	1304	1279	1261	1201	1124	1063	1011	927.1	836.5	758.5	666.3	598.0	562.1	587.8	520.3	369.0	296.3	236.5	190.6	184.3	318.5	1505	5489	2798	43.41	8.171	4.620	3.560	2.801	2.241	2.101	2.017	1.941	2.088	2.267	2.649	2.935	3.615	4.028	4.282	4.511	5.481	5.882	5.999	6.256	6.202	5.972	5.688	5.755	5.531	5.887	5.485	5.834	6.032	5.835	5.819	5.600	5.741	5.673	5.686	6.367	5.974	5.916	6.020	6.114	5.969	6.248
390.0	818.1	1048	1270	1371	1430	1368	1266	1209	1206	1232	1259	1232	1209	1144	1071	1024	977.6	906.4	835.6	770.6	691.3	629.6	586.0	562.9	559.5	491.7	361.8	279.1	216.6	178.3	180.4	419.6	1580	3570	3673	946.7	17.54	5.722	3.846	2.756	2.299	2.118	2.168	2.288	2.426	2.615	2.895	3.576	3.647	3.874	4.140	5.125	5.531	5.682	5.755	5.621	5.710	5.800	5.513	5.569	5.660	5.510	5.729	5.721	5.849	5.551	5.561	5.408	5.491	5.550	5.885	5.657	5.658	5.659	5.792	5.753	5.921
395.0	797.0	1012	1224	1288	1352	1319	1237	1186	1168	1203	1233	1201	1185	1112	1043	990.6	944.4	885.7	833.7	782.7	723.7	671.3	631.7	598.8	560.5	561.0	482.0	353.9	276.3	222.8	190.5	207.2	425.1	880.9	2548	5040	303.9	21.48	5.949	3.567	2.883	2.573	2.322	2.308	2.466	2.719	2.933	3.406	3.753	3.606	4.129	4.903	5.258	5.659	5.452	5.345	5.734	5.532	5.206	5.399	5.575	5.577	5.478	5.595	5.611	5.450	5.423	5.314	5.261	5.371	5.587	5.370	5.512	5.344	5.354	5.524	5.729
400.0	788.3	973.3	1152	1254	1302	1283	1210	1176	1166	1198	1231	1229	1201	1135	1049	986.3	935.6	881.3	843.7	795.9	750.8	713.8	680.9	646.3	597.9	577.8	579.3	457.9	342.8	278.5	235.4	195.1	197.6	272.0	711.7	3499	4254	272.0	14.11	4.681	3.506	2.638	2.443	2.337	2.485	2.737	2.820	3.415	3.635	3.614	3.937	4.973	5.128	5.406	5.396	5.010	5.545	5.517	5.536	5.449	5.398	5.281	5.831	5.673	5.630	5.428	5.218	5.362	5.256	5.622	5.460	5.310	5.412	5.398	5.486	5.397	5.786
405.0	815.9	955.0	1094	1199	1252	1236	1197	1157	1179	1213	1252	1260	1234	1160	1066	985.0	931.8	881.1	843.9	807.2	770.8	742.0	722.4	694.8	656.9	613.1	604.4	566.4	427.7	340.3	287.2	232.8	180.9	162.2	242.5	1034	3835	2421	209.3	8.348	4.298	3.032	2.556	2.380	2.539	2.764	2.917	3.453	3.778	3.585	4.201	4.638	5.006	5.215	5.376	5.056	5.429	5.484	5.693	5.242	5.770	5.510	5.762	5.739	5.709	5.484	5.486	5.460	5.387	5.502	5.563	5.293	5.246	5.238	5.417	5.552	5.809
410.0	755.4	948.7	1065	1159	1187	1184	1160	1143	1167	1220	1254	1260	1234	1160	1068	985.0	914.4	866.2	832.8	806.9	782.7	765.9	752.8	738.8	702.3	659.6	619.8	601.5	533.1	420.5	340.5	276.5	211.6	171.2	164.4	320.8	1105	2615	2869	838.1	15.72	3.965	2.962	2.724	2.674	2.825	2.862	3.367	3.634	3.520	3.733	4.627	4.940	4.987	5.029	4.946	5.221	5.372	5.540	5.334	5.508	5.517	5.553	5.509	5.464	5.510	5.539	5.350	5.370	5.194	5.356	5.149	5.379	5.560	5.197	5.260	5.657
415.0	764.6	919.4	1019	1073	1133	1110	1105	1110	1119	1182	1221	1221	1186	1113	1031	936.8	872.8	829.6	802.4	787.2	770.9	759.8	751.8	742.2	712.7	675.2	623.1	578.4	549.7	497.1	380.1	302.6	234.6	190.2	159.7	171.0	318.8	646.8	1723	3593	282.1	17.72	3.848	3.055	3.076	3.150	2.811	3.397	3.513	3.299	3.655	4.236	4.572	4.679	4.607	4.956	5.037	5.095	5.010	5.344	5.299	5.251	5.450	5.694	5.290	5.341	5.451	5.121	5.139	4.968	5.103	5.154	5.264	5.217	5.108	4.963	4.843
420.0	716.6	897.0	979.0	1029	1074	1070	1086	1093	1117	1145	1186	1173	1128	1059	972.7	885.7	837.2	790.8	774.4	764.2	744.4	742.0	734.8	730.7	698.3	669.3	622.1	566.9	523.4	514.4	424.1	320.4	250.7	199.6	163.4	141.3	148.1	192.7	456.4	2281	3280	255.3	10.82	3.683	3.119	2.947	2.924	3.159	3.541	3.282	3.536	4.020	4.312	4.581	4.545	4.755	4.954	5.084	5.164	5.109	5.113	4.944	5.021	5.579	5.120	5.239	5.157	4.949	4.986	5.028	4.810	4.996	4.838	4.999	4.737	4.537	4.661
425.0	689.0	848.3	950.2	991.0	1039	1055	1057	1061	1070	1120	1145	1136	1096	1030	942.3	861.1	797.8	764.4	744.7	738.0	718.6	721.5	722.9	721.4	695.4	661.6	617.5	564.6	516.7	494.7	461.6	349.3	263.7	210.5	171.6	140.1	113.7	94.98	132.9	628.1	2655	2216	199.5	5.758	3.689	3.213	2.984	3.107	3.412	3.104	3.444	4.110	4.156	4.625	4.425	4.500	4.828	5.027	5.021	4.937	5.107	5.353	4.999	5.139	5.201	5.020	5.010	4.764	4.699	4.769	4.460	4.566	4.504	4.444	4.617	4.668	4.506
430.0	743.0	800.4	914.1	945.3	987.1	1023	1017	1046	1061	1095	1117	1102	1065	989.2	906.1	826.1	758.6	729.2	711.8	704.8	698.5	702.5	709.1	705.4	687.7	661.0	622.7	574.6	522.8	480.7	454.9	401.4	300.6	233.3	192.6	156.2	119.7	83.66	67.09	163.5	711.3	1810	2287	783.3	15.32	4.124	3.404	3.363	3.467	3.132	3.468	3.937	4.065	4.345	4.341	4.437	4.761	4.847	4.927	5.029	4.855	5.064	4.862	4.930	5.276	4.906	4.807	4.721	4.555	4.763	4.488	4.596	4.426	4.150	4.312	4.416	4.388
435.0	1151	769.3	873.6	914.8	940.1	984.7	992.5	1020	1046	1068	1108	1080	1040	956.5	872.7	789.6	721.5	698.0	676.5	674.8	670.2	678.1	682.3	685.6	677.9	648.2	618.5	577.8	531.1	483.1	438.2	405.8	352.5	262.3	211.3	176.1	134.2	91.75	60.20	65.15	179.0	425.4	1177	2966	1169	20.48	4.160	4.005	3.388	3.250	3.494	3.872	3.802	3.973	4.229	4.501	4.708	4.833	4.803	4.815	5.217	5.041	4.721	5.308	5.109	4.717	4.700	4.639	4.460	4.786	4.439	4.555	4.204	4.053	4.009	3.892	4.396
440.0	1494	837.4	804.1	873.7	898.7	942.2	970.7	986.8	1023	1047	1060	1038	990.7	911.0	831.9	752.7	691.2	660.3	647.2	639.8	642.4	655.3	654.5	662.6	655.3	631.9	599.5	563.0	523.9	479.5	430.6	387.3	358.2	292.9	225.4	182.3	140.8	97.77	64.68	48.21	63.98	112.9	299.1	1709	2969	252.4	13.57	4.477	3.615	3.408	3.355	3.677	3.829	3.970	4.498	4.109	4.660	4.500	4.907	4.827	5.188	4.955	4.717	5.101	4.772	4.669	4.720	4.846	4.488	4.090	4.189	4.248	4.249	3.920	3.938	4.066	4.174
445.0	1553	1220	810.7	821.6	864.5	905.4	917.3	950.4	983.3	1010	1020	1001	940.4	860.2	791.5	704.8	645.2	621.7	615.5	606.6	609.6	612.4	620.1	626.5	622.6	600.7	572.3	541.7	502.8	466.3	417.5	369.5	332.9	306.8	238.4	184.4	144.7	102.5	69.43	49.02	42.00	45.54	83.21	452.6	2068	2074	198.5	8.771	3.697	3.627	3.211	3.776	3.702	4.047	4.013	3.983	4.823	4.507	4.545	4.667	4.815	4.766	4.730	4.686	4.444	4.562	4.282	4.430	4.281	3.966	3.910	4.108	3.883	3.894	3.879	3.622	3.862
450.0	1046	1795	938.2	777.6	814.0	855.4	877.8	900.2	920.0	948.2	951.4	922.1	857.9	788.1	717.9	641.9	589.2	564.7	559.4	550.5	556.0	557.2	564.4	572.7	568.0	550.1	529.1	501.7	470.1	440.0	396.0	350.0	307.0	281.1	251.1	192.3	145.6	106.2	75.92	55.02	42.99	35.62	38.55	116.6	537.4	1511	1964	767.3	14.98	4.049	3.407	3.854	3.899	3.937	3.892	3.939	4.276	4.562	4.342	4.283	4.426	4.410	4.545	4.364	4.325	4.228	4.100	3.999	3.916	3.682	3.880	3.805	3.384	3.612	3.524	3.497	3.460
455.0	612.6	1704	1643	738.0	740.1	780.9	810.9	838.4	858.2	868.9	875.7	835.5	787.4	708.1	642.2	577.9	530.1	507.7	499.6	497.5	500.1	504.3	507.7	515.8	510.2	496.4	482.2	458.7	433.6	408.4	372.8	330.7	284.4	251.9	233.4	207.3	153.8	108.9	80.50	61.52	47.33	38.02	32.33	44.14	133.2	351.3	841.9	2372	1093	18.79	4.126	4.114	3.905	3.562	3.742	3.740	3.835	4.197	4.057	4.112	4.094	4.061	4.216	3.980	3.980	3.949	3.853	3.640	3.588	3.592	3.799	3.415	3.448	3.284	3.042	3.305	3.253
460.0	473.4	1113	2230	872.6	695.8	725.8	762.0	783.1	814.1	823.2	810.3	778.9	727.7	660.4	593.0	533.9	491.7	466.3	458.8	454.4	458.1	460.9	469.2	473.6	473.6	458.1	447.1	428.0	405.5	387.7	354.9	315.3	273.1	237.0	213.5	203.9	165.7	114.3	83.26	66.34	51.45	40.09	33.17	30.34	45.54	90.93	207.3	1180	2371	785.2	14.28	4.279	3.765	3.698	3.659	3.435	3.586	3.898	3.933	4.266	3.863	3.756	3.834	3.681	3.884	3.939	3.565	3.525	3.449	3.181	3.605	3.013	3.369	3.046	2.857	2.915	3.125
465.0	440.4	674.8	2235	1374	644.0	672.0	705.5	742.3	763.6	762.7	755.3	736.0	678.4	608.3	548.6	491.4	453.0	428.9	422.8	417.4	420.8	424.3	429.3	435.3	433.3	427.8	414.2	394.9	380.0	360.2	333.1	297.8	262.6	226.8	200.5	184.4	168.1	123.4	86.48	67.41	54.45	43.51	34.57	28.60	27.60	33.90	57.56	300.7	1470	2175	185.0	10.28	4.115	3.845	3.384	3.356	3.460	3.674	3.530	3.854	3.731	3.666	3.680	3.629	3.828	3.844	3.335	3.289	3.693	3.388	3.118	3.105	2.993	2.916	2.810	2.666	2.863
470.0	408.5	503.9	1352	2242	841.0	615.3	636.3	677.4	688.3	696.8	686.6	655.0	603.3	548.9	486.3	435.8	399.0	380.1	372.6	371.4	371.8	373.2	380.3	383.2	383.3	377.9	368.4	352.6	341.3	325.8	302.2	271.2	241.5	211.2	185.2	164.1	151.3	128.6	94.02	69.78	56.56	45.42	36.70	30.13	25.42	23.07	25.05	76.89	370.6	1166	1521	714.5	16.15	4.046	3.336	3.383	3.542	3.520	3.458	3.370	3.519	3.457	3.354	3.499	3.344	3.240	3.213	3.051	3.132	2.830	2.859	2.781	2.655	2.824	2.566	2.541	2.667
475.0	385.5	430.0	658.8	2025	1612	578.8	570.5	596.8	616.8	624.1	623.9	587.6	534.9	480.7	427.0	380.7	348.9	332.1	324.9	325.9	325.1	324.2	329.8	333.6	332.8	329.8	319.9	311.3	302.3	288.1	270.7	244.1	218.3	191.3	169.7	147.2	131.8	117.7	102.7	75.00	56.90	47.20	38.00	31.89	27.00	22.66	18.70	27.90	91.38	267.9	586.2	1525	868.1	21.69	3.734	3.412	3.103	3.141	3.113	3.095	3.025	3.150	3.055	2.910	3.066	2.801	2.951	2.796	2.764	2.577	2.449	2.402	2.367	2.509	2.169	2.290	2.455
480.0	367.1	418.3	464.2	1248	2258	642.2	524.2	559.0	574.5	575.0	576.3	539.4	489.7	441.1	388.6	345.6	322.6	304.2	298.2	294.3	292.4	293.1	296.7	303.2	299.9	296.4	289.7	281.4	277.1	265.4	249.2	229.2	204.0	180.6	161.0	139.4	121.0	105.6	99.89	81.93	58.69	48.41	40.13	33.82	27.89	23.00	18.66	17.66	29.61	67.25	141.2	681.7	1693	234.3	15.47	3.767	3.157	3.171	3.161	3.216	2.867	2.855	2.860	2.718	2.887	2.760	2.642	2.534	2.707	2.352	2.231	2.230	2.296	2.188	2.204	2.210	2.073
485.0	341.6	392.6	401.3	697.3	2269	1199	505.6	513.4	538.2	531.5	541.3	499.3	448.9	409.4	363.3	320.0	300.8	279.3	273.5	272.5	268.7	270.4	273.6	274.5	275.9	271.7	265.1	262.2	254.8	249.6	231.7	214.9	189.8	170.4	151.4	132.0	115.7	99.07	91.56	86.61	64.28	49.89	40.47	34.29	28.60	23.80	19.78	16.24	16.89	22.92	38.17	171.1	961.6	1511	206.5	9.884	3.290	3.149	3.134	2.962	2.685	2.814	2.667	2.867	2.857	2.671	2.553	2.477	2.534	2.188	2.371	2.085	2.128	1.858	2.141	2.119	1.850
490.0	284.1	396.0	387.9	457.3	1328	2070	689.5	476.0	493.0	489.0	491.5	454.7	412.8	369.5	327.6	290.0	267.3	253.3	247.0	244.1	238.9	240.5	242.7	246.2	245.7	243.6	239.2	235.5	230.6	224.1	212.7	195.8	176.6	157.5	140.8	124.8	109.0	93.68	81.08	78.46	71.07	54.97	41.90	34.96	30.14	25.43	21.03	17.59	14.55	13.82	15.89	44.66	238.6	768.4	1273	681.2	17.42	3.949	3.047	2.933	2.671	2.660	2.597	2.632	2.573	2.405	2.493	2.248	2.264	2.084	2.183	1.830	1.920	1.849	1.857	1.819	1.913
495.0	251.7	349.3	390.7	369.6	590.5	1964	1444	443.6	443.5	442.9	439.2	409.7	370.1	328.8	292.2	257.8	236.4	223.9	217.0	215.2	210.5	214.6	213.0	216.9	215.9	214.5	211.3	209.1	204.6	200.7	189.3	175.8	160.6	142.2	130.1	115.4	101.2	87.22	75.53	68.58	67.46	61.01	45.98	35.92	31.00	26.45	22.45	18.34	15.64	12.08	11.07	16.83	59.01	177.2	465.0	1382	920.9	25.01	3.325	2.750	2.812	2.454	2.323	2.283	2.413	2.340	2.252	2.093	2.106	1.860	1.942	1.844	1.734	1.831	1.750	1.685	1.793
500.0	214.4	294.4	402.7	328.8	384.8	1214	2198	567.5	401.6	403.0	402.4	376.6	336.3	300.3	264.4	233.3	215.6	203.5	196.7	192.5	191.4	192.4	192.4	195.4	195.0	193.6	190.5	188.4	185.3	181.4	171.2	160.5	147.6	133.4	121.5	109.8	94.96	81.86	71.11	62.56	59.18	58.53	49.92	37.15	30.70	25.71	22.36	18.75	16.13	12.89	11.02	10.60	19.16	44.52	111.2	587.1	1554	790.9	17.82	2.962	2.678	2.402	2.312	2.295	2.143	2.097	1.947	1.994	1.964	1.888	1.659	1.698	1.541	1.593	1.513	1.661	1.743
505.0	202.5	258.0	368.6	324.7	323.1	611.3	2334	1023	377.2	372.5	367.5	347.5	310.7	274.8	241.8	215.2	198.1	184.8	177.0	175.4	171.6	173.9	173.6	176.5	175.3	173.7	170.5	170.3	168.4	165.5	157.4	148.7	134.5	124.1	111.6	101.3	87.75	77.96	66.86	60.00	53.99	52.54	51.71	39.98	31.26	26.37	22.54	18.32	16.50	13.37	10.91	9.649	10.44	15.40	29.62	144.0	799.9	1772	229.0	10.39	2.805	2.478	2.186	2.193	1.997	1.935	1.965	1.831	1.651	1.583	1.552	1.644	1.545	1.588	1.320	1.345	1.583
510.0	174.6	223.9	285.7	334.4	277.1	355.6	1372	2041	526.5	325.7	323.9	303.5	271.3	237.9	213.3	189.2	172.8	162.8	156.1	153.6	151.2	149.3	151.0	154.5	151.7	150.6	148.1	146.8	146.9	145.6	140.6	131.5	118.6	108.9	99.49	89.53	79.70	71.04	61.83	54.64	48.97	45.55	46.06	42.34	32.90	25.98	21.94	18.43	15.91	13.49	11.60	9.741	8.797	8.985	11.50	36.70	194.6	810.3	1034	569.4	17.52	2.708	2.148	2.013	1.950	1.745	1.697	1.663	1.554	1.400	1.488	1.444	1.420	1.493	1.287	1.363	1.314
515.0	146.9	180.6	226.6	318.2	265.4	264.5	543.1	2165	1281	304.5	283.6	261.4	238.9	207.8	185.3	162.1	147.3	142.7	135.7	130.9	129.9	126.0	129.7	129.3	128.7	129.4	126.7	127.7	126.2	126.7	122.1	113.5	103.3	93.69	87.17	79.98	71.30	64.08	56.11	49.67	44.72	41.08	38.30	39.16	36.40	26.47	21.49	18.18	15.41	12.98	11.12	10.12	8.595	7.924	7.566	12.71	47.39	184.9	341.7	1022	720.7	24.48	2.399	2.116	1.897	1.713	1.523	1.493	1.414	1.429	1.427	1.274	1.192	1.299	1.170	1.018	1.103
520.0	134.7	174.8	191.8	268.8	277.2	226.4	304.9	1380	2199	408.1	252.8	240.9	211.4	187.4	163.4	146.2	131.1	126.3	121.3	115.1	115.4	111.2	113.9	114.7	115.1	113.7	112.7	113.0	112.3	113.1	108.2	100.3	92.83	85.40	78.53	70.84	64.26	58.01	52.05	45.86	41.60	37.57	33.86	33.72	35.09	28.92	21.32	17.53	15.10	13.00	11.16	10.15	8.817	7.880	6.741	7.675	14.77	44.95	81.36	415.3	1112	254.8	17.07	2.206	1.810	1.634	1.598	1.499	1.222	1.325	1.260	1.196	1.088	1.267	1.077	0.994	1.210
525.0	132.7	148.6	170.5	217.2	281.8	222.3	227.1	631.0	2617	824.6	232.4	215.7	192.3	170.4	148.1	132.8	119.1	114.2	108.2	105.3	103.9	100.7	103.4	100.4	101.9	102.7	101.4	101.2	101.4	100.8	96.87	91.92	84.49	77.93	71.48	64.00	58.91	53.95	48.05	42.65	38.88	35.44	31.17	29.07	30.89	29.59	22.60	17.21	14.69	12.59	10.93	9.684	8.789	7.791	6.663	6.331	7.367	13.69	21.47	100.2	531.5	988.1	224.0	8.277	1.974	1.662	1.616	1.234	1.265	1.268	1.180	1.046	1.127	1.106	1.027	1.016	1.043
530.0	119.1	132.3	148.2	173.8	244.5	224.4	186.5	294.7	1595	1967	351.5	188.8	168.2	151.5	129.9	115.6	105.4	98.27	93.34	91.44	88.52	87.91	87.53	87.36	88.39	87.17	87.18	87.11	87.74	86.39	84.94	80.48	73.87	67.52	62.11	56.48	52.31	47.41	43.25	39.07	34.33	31.78	27.87	25.75	25.43	26.87	24.12	17.82	14.13	11.71	10.36	9.460	8.066	7.800	6.843	5.726	5.703	6.750	8.036	25.14	128.4	442.6	724.6	358.1	16.57	1.867	1.435	1.245	1.204	1.148	1.077	1.112	1.064	0.982	0.887	0.898	1.048
535.0	104.8	113.6	120.5	139.3	172.3	231.5	171.8	189.1	553.3	2322	1054	171.5	145.2	127.6	110.4	95.32	89.17	82.80	79.52	76.78	76.72	73.93	74.27	73.77	75.07	72.68	73.57	74.26	73.76	73.58	71.58	68.49	62.44	57.79	53.02	48.09	44.90	41.16	37.10	33.99	31.15	28.43	24.63	23.23	21.57	21.12	22.50	19.53	14.33	10.90	9.652	8.742	7.385	7.058	6.659	5.802	5.306	4.997	4.984	8.427	31.05	101.0	228.5	688.9	520.2	22.77	1.596	1.366	1.165	1.051	1.047	0.955	0.857	0.863	0.887	0.843	0.841
540.0	102.5	102.4	111.1	119.9	137.0	216.4	170.3	159.1	240.1	1475	1995	217.0	130.4	111.6	97.49	86.16	78.20	73.03	70.30	66.72	66.03	65.59	64.91	65.21	65.39	64.76	64.76	64.64	64.78	64.05	62.67	60.21	55.20	51.58	47.27	43.56	40.04	37.36	33.36	30.23	27.97	24.41	22.68	21.13	19.44	17.18	18.51	19.68	14.96	10.70	9.009	7.966	7.062	6.416	6.281	5.714	5.214	4.465	4.221	4.635	9.455	24.76	53.83	268.2	761.0	247.4	14.37	1.278	1.279	1.183	1.028	0.923	0.844	0.802	0.845	0.767	0.840
545.0	86.58	87.64	96.57	103.5	117.1	183.5	181.5	138.0	155.4	615.0	2548	537.0	116.1	101.4	87.74	76.81	67.30	65.08	63.02	58.61	57.99	57.80	57.94	57.36	56.76	57.07	55.50	56.65	56.70	56.40	56.05	52.59	49.55	45.65	42.23	38.27	36.09	32.53	29.24	27.39	25.31	22.37	20.93	19.31	17.49	15.57	15.32	16.94	15.40	10.67	8.542	7.547	6.859	6.241	5.594	5.677	5.296	4.041	3.927	3.789	4.197	7.410	13.80	64.24	347.4	703.3	198.5	6.448	1.207	1.024	0.996	0.937	0.818	0.723	0.778	0.768	0.810
550.0	80.89	87.51	87.47	89.32	96.77	127.6	183.1	128.7	124.3	233.1	1554	1679	155.5	85.45	74.25	64.89	57.91	54.65	52.35	50.40	48.88	49.03	47.94	47.19	47.35	46.50	46.09	47.73	47.52	47.22	46.59	43.66	40.96	38.50	35.30	32.79	30.30	27.96	24.89	23.65	22.01	19.51	17.72	16.19	15.03	13.62	12.97	13.09	13.96	11.46	8.622	6.881	6.138	5.599	4.853	4.831	4.610	4.269	3.523	3.148	2.908	3.635	4.767	16.01	82.56	294.2	484.2	253.1	16.30	1.263	0.989	0.899	0.748	0.790	0.700	0.699	0.695
555.0	77.65	79.85	74.76	71.20	78.57	91.33	156.4	148.1	105.3	126.1	481.2	2184	674.9	72.70	61.33	53.81	47.83	44.46	41.76	41.22	40.06	38.63	38.66	38.25	38.42	38.34	37.52	37.59	38.68	38.33	36.92	35.18	33.63	31.25	29.14	27.49	24.11	23.06	20.16	19.31	17.75	16.38	14.82	13.68	12.28	11.94	10.95	9.873	10.33	10.78	9.032	6.491	5.507	4.614	4.390	4.324	4.022	3.819	3.331	2.842	2.454	2.502	2.574	5.125	19.70	67.04	146.5	439.1	261.5	20.98	1.091	0.854	0.827	0.780	0.682	0.581	0.615
560.0	71.45	67.95	72.25	61.95	65.67	71.66	114.5	159.1	93.77	90.48	178.0	1430	1459	101.5	52.11	46.35	40.33	39.14	35.40	34.26	34.11	32.48	33.16	32.12	32.34	32.03	31.44	31.36	32.74	32.14	31.63	29.79	28.32	26.12	24.74	22.89	20.82	19.55	18.04	16.88	15.37	13.85	13.16	12.19	10.82	10.04	9.408	8.541	7.801	8.985	8.415	6.546	4.929	4.424	3.931	3.677	3.513	3.205	3.238	2.796	2.408	2.261	2.015	2.620	5.722	16.09	34.19	164.2	455.8	223.4	12.53	0.896	0.779	0.733	0.613	0.599	0.606
565.0	80.07	70.29	66.71	59.50	61.08	59.64	78.39	151.4	97.34	78.84	96.29	570.0	2141	302.6	45.73	39.22	35.11	32.28	31.92	29.47	28.20	28.02	28.31	27.58	27.36	26.76	26.73	27.17	27.38	27.53	26.37	25.87	23.77	22.42	21.38	19.18	17.79	16.61	15.16	14.17	13.32	12.22	11.10	10.53	9.857	8.687	8.028	7.548	6.358	7.094	7.625	6.834	4.779	3.826	3.684	3.291	3.011	2.723	2.955	2.997	2.211	2.142	1.812	1.801	2.570	4.761	8.756	38.96	198.4	441.8	157.7	4.686	0.762	0.615	0.641	0.618	0.560
570.0	67.44	69.76	61.83	54.00	50.17	51.08	57.16	111.3	120.8	71.96	72.86	187.8	1398	1218	79.65	32.96	29.58	26.98	25.36	24.32	22.60	23.08	22.70	22.52	21.93	22.05	22.05	21.58	22.02	22.26	21.39	20.44	19.47	18.17	16.79	15.80	14.81	13.47	12.76	11.49	10.77	9.701	9.123	8.834	8.203	7.597	6.819	6.237	5.342	5.094	5.461	5.859	4.944	3.704	3.214	2.907	2.584	2.553	2.483	2.462	2.379	1.981	1.719	1.555	1.677	2.187	2.992	9.675	46.86	172.0	309.8	146.1	13.82	0.821	0.599	0.529	0.546
575.0	68.17	61.68	52.58	49.03	45.05	41.03	47.53	72.36	130.9	85.07	67.07	92.54	420.1	1761	417.3	29.22	23.75	21.71	20.23	19.90	19.09	17.91	17.94	17.70	17.77	17.56	17.65	16.61	17.66	17.33	16.98	16.38	15.85	13.97	13.83	12.45	11.81	11.33	10.45	9.076	9.170	8.496	7.535	6.958	6.731	6.284	5.620	5.132	4.511	4.099	4.046	4.368	4.596	3.942	2.937	2.602	2.232	2.151	2.067	2.046	2.148	2.086	1.712	1.425	1.189	1.424	1.676	3.072	11.43	39.28	88.46	242.1	209.3	17.97	0.767	0.437	0.493
580.0	77.03	66.78	61.50	44.10	37.03	37.26	39.38	54.84	112.0	100.7	64.94	68.73	140.8	1191	1013	45.50	20.97	18.51	17.92	16.49	15.82	15.46	15.10	14.67	14.41	14.72	15.16	14.06	15.05	14.43	14.35	13.84	13.12	12.49	10.95	10.53	9.828	9.510	8.716	7.954	7.467	6.806	6.494	5.976	5.537	5.289	4.743	4.228	4.006	3.462	3.409	3.584	4.095	3.836	2.855	2.299	2.018	1.919	1.897	1.581	1.805	1.790	1.806	1.416	1.248	1.278	1.186	1.593	3.455	9.495	20.64	87.18	268.8	149.3	8.644	0.566	0.488
585.0	73.80	70.09	66.00	43.71	35.47	37.00	36.59	43.94	83.97	119.6	67.85	65.75	74.99	465.8	1573	112.7	18.33	16.09	14.86	14.61	14.14	12.95	13.31	12.88	12.53	12.69	12.63	12.18	12.69	12.41	12.70	11.77	11.23	10.31	9.311	9.435	8.310	7.714	7.260	6.863	6.053	6.127	5.534	4.933	4.879	4.605	4.270	3.857	3.514	3.031	2.995	2.954	3.265	3.482	3.117	2.204	1.868	1.673	1.696	1.610	1.434	1.487	1.700	1.512	1.340	1.100	1.056	1.396	1.543	2.903	5.329	20.86	110.6	253.3	37.15	3.407	0.577
590.0	67.49	67.62	58.45	39.84	34.45	33.58	33.32	38.54	58.27	114.0	87.03	62.23	59.30	138.9	1041	711.4	37.07	13.54	12.32	11.76	11.36	10.57	10.63	10.61	10.35	10.13	10.28	10.40	10.19	10.41	10.14	9.525	8.977	8.229	7.531	7.507	6.942	6.454	6.156	5.793	5.236	5.083	4.533	4.209	4.258	3.916	3.524	3.271	3.017	2.608	2.547	2.297	2.262	2.744	3.009	2.346	1.780	1.578	1.431	1.323	1.264	1.316	1.338	1.426	1.316	1.092	0.977	1.139	1.022	1.344	1.848	5.286	26.08	94.78	157.0	99.80	12.10
595.0	80.06	71.81	57.60	39.90	30.30	26.70	30.23	36.29	46.49	86.95	113.7	64.35	52.93	57.29	301.0	1226	226.7	12.80	10.43	9.775	8.942	8.551	8.360	8.721	8.544	8.236	8.453	8.485	8.356	8.311	8.358	7.861	7.587	6.642	6.119	6.082	5.398	5.225	4.817	4.490	4.056	3.782	3.798	3.675	3.315	3.399	3.058	2.772	2.539	2.295	2.153	1.913	1.792	1.987	2.252	2.411	1.951	1.665	1.291	1.188	1.175	1.135	1.040	1.104	1.580	1.228	0.952	0.850	0.908	0.888	1.025	1.643	6.468	21.69	44.34	137.9	130.3
600.0	76.88	73.45	54.33	37.99	30.33	23.85	29.29	33.77	43.01	62.40	117.2	69.40	50.13	37.50	88.23	869.1	659.6	21.75	9.197	8.403	7.449	7.495	7.170	7.305	7.277	6.762	7.318	7.282	6.875	7.009	6.840	6.280	6.237	5.690	5.131	5.174	4.819	4.461	4.249	3.848	3.443	3.531	3.360	3.115	2.735	2.920	2.736	2.505	2.229	2.012	1.903	1.602	1.559	1.614	1.600	2.051	1.981	1.535	1.261	1.102	1.124	0.940	0.929	0.902	1.292	1.410	1.053	0.897	0.962	0.865	0.762	0.830	2.006	5.284	10.38	46.99	154.0
605.0	65.77	72.40	50.00	36.06	25.50	24.18	28.11	31.60	40.47	51.94	104.8	81.18	51.12	34.54	35.59	343.1	1042	74.61	8.242	7.085	6.613	6.571	6.152	6.211	6.181	5.539	5.896	5.966	6.112	5.531	6.045	5.633	5.244	4.823	4.559	4.485	4.397	3.798	3.318	3.302	3.288	2.900	2.762	2.481	2.605	2.333	2.452	1.969	1.939	1.575	1.460	1.587	1.370	1.344	1.203	1.642	1.830	1.602	1.209	1.110	0.883	0.835	0.805	0.883	0.879	1.311	1.217	0.975	0.880	0.873	0.719	0.653	0.894	1.619	2.803	11.14	59.64
610.0	61.19	59.15	49.63	33.79	26.68	23.25	25.58	29.41	38.15	48.28	78.35	100.5	54.93	34.18	25.28	95.18	723.6	502.5	19.90	6.436	5.818	5.660	5.499	5.393	5.018	4.693	4.737	5.008	4.884	4.685	4.734	4.445	4.259	3.948	3.834	3.441	3.555	3.307	2.925	2.881	2.582	2.560	2.266	2.264	2.091	1.949	1.892	1.663	1.691	1.440	1.261	1.182	1.253	1.110	1.133	1.273	1.469	1.550	1.186	1.042	0.905	0.889	0.796	0.812	0.868	0.959	1.050	1.092	0.899	0.722	0.718	0.647	0.616	0.748	1.009	2.902	13.99
615.0	59.11	53.90	45.15	29.72	24.27	22.40	25.08	29.24	37.28	45.35	62.48	95.03	68.43	34.68	22.25	33.22	213.5	859.8	80.64	6.034	5.335	4.910	4.473	4.516	4.021	4.293	4.086	4.191	4.155	3.874	3.823	3.482	3.507	3.276	3.009	2.874	2.553	2.400	2.462	2.385	2.138	2.070	1.910	2.012	1.694	1.675	1.568	1.479	1.412	1.127	1.124	1.124	0.957	0.893	1.006	0.991	1.081	1.279	1.359	1.011	0.739	0.777	0.734	0.758	0.750	0.733	0.868	1.076	0.902	0.787	0.720	0.576	0.592	0.623	0.651	0.967	3.483
620.0	51.45	50.36	46.45	28.47	21.41	21.40	22.91	29.39	34.61	43.71	55.69	82.47	79.57	34.20	21.01	18.76	58.97	624.1	454.3	11.89	5.035	4.197	3.917	3.728	3.438	3.653	3.457	3.299	3.319	3.292	3.196	2.988	2.847	2.924	2.484	2.431	2.148	2.195	2.117	1.939	1.858	1.737	1.664	1.661	1.523	1.474	1.365	1.277	1.159	0.953	0.990	0.917	0.948	0.734	0.776	0.769	0.883	1.038	1.265	1.151	0.699	0.736	0.736	0.653	0.731	0.685	0.763	0.885	0.841	0.766	0.587	0.531	0.490	0.502	0.476	0.531	1.117
625.0	52.56	47.11	39.18	29.07	23.69	21.66	20.76	26.36	33.09	41.05	49.98	66.18	86.35	38.85	21.74	16.43	22.98	249.1	767.0	52.48	4.352	3.895	3.315	3.531	2.909	2.974	2.927	2.626	2.719	3.269	2.728	2.600	2.491	2.303	2.246	1.981	1.877	1.669	1.952	1.616	1.526	1.530	1.498	1.401	1.387	1.354	1.234	1.156	1.056	0.825	0.915	0.851	0.757	0.704	0.720	0.815	0.684	0.841	0.968	1.101	0.750	0.708	0.627	0.573	0.600	0.660	0.739	0.691	0.874	0.811	0.597	0.565	0.427	0.485	0.427	0.489	0.595
630.0	46.00	45.83	38.75	27.31	21.33	19.40	22.69	24.58	30.88	38.64	46.24	56.19	72.21	50.31	23.07	16.50	16.07	68.81	553.8	403.3	11.11	3.248	3.104	2.891	2.666	2.604	2.479	2.247	2.488	2.302	2.279	2.208	2.060	2.043	1.894	1.748	1.674	1.499	1.443	1.415	1.208	1.217	1.125	1.172	1.109	1.102	1.015	0.997	0.908	0.770	0.717	0.809	0.647	0.600	0.683	0.680	0.601	0.725	0.776	0.871	0.730	0.709	0.646	0.587	0.631	0.617	0.654	0.651	0.651	0.685	0.763	0.586	0.509	0.482	0.412	0.461	0.471
635.0	53.48	45.10	42.49	27.43	23.64	20.38	22.85	25.71	29.97	38.63	43.39	50.46	55.93	61.67	28.71	17.21	16.63	25.18	163.1	727.0	64.50	3.294	2.637	2.109	2.135	2.097	2.269	1.875	2.033	2.044	1.926	2.116	1.801	1.655	1.696	1.485	1.302	1.281	1.291	1.208	1.057	1.059	0.947	0.967	0.874	0.912	0.885	0.773	0.678	0.684	0.612	0.676	0.569	0.570	0.565	0.572	0.626	0.608	0.571	0.636	0.805	0.795	0.619	0.618	0.599	0.560	0.583	0.628	0.555	0.722	0.684	0.667	0.596	0.470	0.459	0.459	0.470
640.0	47.47	46.51	41.31	27.59	21.93	21.92	23.09	24.37	31.29	38.01	44.50	46.71	49.97	63.22	36.36	20.83	18.61	16.10	46.17	536.3	327.5	6.310	2.414	2.115	2.033	1.768	1.958	1.747	1.602	1.782	1.588	1.648	1.376	1.367	1.346	1.323	1.106	1.138	1.092	0.852	0.949	0.984	0.857	0.838	0.858	0.835	0.759	0.772	0.755	0.595	0.552	0.575	0.555	0.575	0.577	0.535	0.535	0.493	0.512	0.459	0.573	0.692	0.706	0.532	0.568	0.732	0.669	0.617	0.522	0.632	0.490	0.680	0.662	0.548	0.518	0.467	0.460
645.0	49.02	48.53	45.34	29.90	23.08	23.80	24.38	24.00	31.21	36.13	42.52	46.35	44.62	55.59	46.36	23.96	21.18	16.22	19.69	223.7	568.6	36.25	2.261	2.142	1.772	1.647	1.686	1.427	1.556	1.497	1.425	1.295	1.344	1.274	1.066	1.044	1.006	1.032	0.910	0.904	0.822	0.814	0.810	0.780	0.807	0.693	0.619	0.673	0.597	0.555	0.481	0.552	0.466	0.511	0.519	0.564	0.486	0.444	0.506	0.500	0.598	0.571	0.701	0.549	0.523	0.545	0.578	0.529	0.504	0.509	0.489	0.549	0.668	0.561	0.496	0.511	0.476
650.0	46.48	53.99	41.27	29.89	25.36	23.77	22.29	26.11	28.45	33.70	43.04	45.29	44.15	46.90	53.18	27.23	21.96	16.53	13.58	67.49	546.1	168.2	2.761	1.982	1.679	1.583	1.580	1.321	1.286	1.383	1.408	1.317	1.342	1.333	1.037	1.024	0.842	0.991	0.797	0.753	0.738	0.690	0.821	0.597	0.677	0.647	0.641	0.677	0.644	0.500	0.458	0.479	0.483	0.519	0.484	0.474	0.524	0.464	0.480	0.458	0.475	0.542	0.582	0.598	0.588	0.595	0.550	0.499	0.601	0.492	0.543	0.486	0.638	0.620	0.464	0.407	0.462
