Sample:	'1
File name:	t2025031915华安进水.FD3
Run date:	'18:55:30, 03/19/2025
Operator:	Administrator
Comment:	'

Instrument
Model:	F-2700 FL Spectrophotometer
Serial number:	23B8-004
ROM Version:	4J14000 07

Instrument parameters
Measurement type:	3-D scan
Data mode:	Fluorescence
EX  Start WL:	220.0 nm
EX  End WL:	600.0 nm
EX Sampling interval:	5.0 nm
EM  Start WL:	230.0 nm
EM  End WL:	650.0 nm
EM Sampling interval:	5.0 nm
Scan speed:	12000 nm/min
EX Slit:	5.0 nm
EM Slit:	5.0 nm
PMT Voltage:	700 V
Response:	Auto 
Corrected spectra:	Off
Contour interval:	50.000

Peak integration
Integration method:	Rectangular
Sensitivity:	1
Threshold:	1.000

Peaks
No.	ApexEX/EM(nm)	Height(Data)
1	225.0/340.0	1240
2	225.0/490.0	187.8
3	225.0/620.0	14.62
4	230.0/500.0	167.0
5	235.0/515.0	138.0
6	240.0/265.0	443.7
7	240.0/525.0	135.9
8	240.0/625.0	7.470
9	245.0/270.0	438.0
10	245.0/540.0	117.5
11	250.0/275.0	547.6
12	250.0/550.0	105.0
13	255.0/280.0	637.1
14	255.0/565.0	106.9
15	260.0/290.0	568.1
16	260.0/575.0	95.04
17	265.0/585.0	88.46
18	270.0/300.0	887.9
19	270.0/600.0	77.39
20	275.0/305.0	891.2
21	275.0/335.0	403.0
22	275.0/610.0	62.12
23	280.0/310.0	697.3
24	280.0/625.0	50.41
25	285.0/315.0	659.1
26	285.0/635.0	38.61
27	290.0/325.0	609.5
28	295.0/330.0	456.8
29	300.0/335.0	430.6
30	305.0/340.0	348.8
31	310.0/350.0	262.1
32	315.0/355.0	230.5
33	320.0/360.0	210.2
34	325.0/370.0	156.6
35	330.0/375.0	142.6
36	335.0/380.0	145.2
37	340.0/385.0	114.6
38	345.0/395.0	91.48
39	350.0/400.0	102.9
40	355.0/405.0	86.22
41	360.0/415.0	68.07
42	365.0/420.0	73.85
43	370.0/425.0	66.72
44	380.0/440.0	51.24
45	385.0/445.0	44.52
46	390.0/450.0	34.02
47	395.0/460.0	31.26
48	400.0/465.0	27.09
49	405.0/470.0	20.47
50	410.0/480.0	18.74
51	415.0/485.0	16.89
52	420.0/490.0	13.46
53	425.0/500.0	12.60
54	430.0/505.0	11.23
55	435.0/510.0	8.860
56	440.0/520.0	8.652
57	445.0/525.0	7.452
58	455.0/340.0	3.644
59	455.0/540.0	5.514
60	460.0/545.0	4.433
61	470.0/560.0	2.890
62	480.0/575.0	1.617
63	485.0/265.0	2.215
64	485.0/580.0	1.442
65	495.0/270.0	2.176
66	505.0/275.0	3.311
67	510.0/280.0	3.823
68	520.0/285.0	3.930
69	530.0/290.0	3.878
70	535.0/270.0	51.21
71	540.0/295.0	4.778
72	545.0/300.0	5.110
73	555.0/305.0	4.876
74	560.0/310.0	3.941
75	575.0/315.0	4.067
76	580.0/320.0	4.060
77	585.0/325.0	3.981

Data points
	220.0	225.0	230.0	235.0	240.0	245.0	250.0	255.0	260.0	265.0	270.0	275.0	280.0	285.0	290.0	295.0	300.0	305.0	310.0	315.0	320.0	325.0	330.0	335.0	340.0	345.0	350.0	355.0	360.0	365.0	370.0	375.0	380.0	385.0	390.0	395.0	400.0	405.0	410.0	415.0	420.0	425.0	430.0	435.0	440.0	445.0	450.0	455.0	460.0	465.0	470.0	475.0	480.0	485.0	490.0	495.0	500.0	505.0	510.0	515.0	520.0	525.0	530.0	535.0	540.0	545.0	550.0	555.0	560.0	565.0	570.0	575.0	580.0	585.0	590.0	595.0	600.0
230.0	84.78	1678	3731	783.2	24.19	3.656	3.251	3.037	2.019	1.937	2.285	1.814	1.793	1.543	1.234	1.156	1.013	0.861	0.886	1.109	0.742	0.873	0.701	0.545	0.576	0.490	0.483	0.426	0.337	0.465	0.370	0.408	0.362	0.326	0.317	0.320	0.252	0.259	0.231	0.252	0.523	0.808	0.726	0.315	0.217	0.255	2.317	9.188	14.05	7.832	2.264	0.341	0.130	0.106	0.093	0.129	0.095	0.094	0.086	0.071	0.069	0.063	0.052	0.052	0.040	0.045	0.056	0.066	0.048	0.021	0.037	0.039	0.038	0.027	0.007	0.034	0.036
235.0	191.4	474.0	2475	3349	547.0	39.13	4.252	3.849	2.236	2.736	2.674	2.012	2.183	1.519	1.256	1.218	0.916	0.994	1.049	1.203	0.706	0.918	0.771	0.526	0.574	0.571	0.557	0.441	0.390	0.424	0.431	0.382	0.408	0.281	0.323	0.313	0.268	0.274	0.315	0.220	0.273	0.459	0.641	0.679	0.648	0.410	0.643	2.448	5.826	9.192	11.52	11.00	4.712	0.677	0.145	0.117	0.078	0.107	0.088	0.101	0.060	0.041	0.093	0.035	0.023	0.025	0.060	0.058	0.039	0.041	0.043	0.036	0.027	0.011	0.012	0.029	0.021
240.0	290.1	226.5	757.0	3110	4074	423.5	21.41	5.565	3.478	2.910	2.951	2.189	2.316	1.964	1.766	1.372	1.150	1.033	1.039	1.377	0.936	0.989	0.659	0.664	0.538	0.510	0.582	0.535	0.501	0.531	0.377	0.404	0.349	0.332	0.338	0.334	0.300	0.291	0.273	0.221	0.260	0.259	0.343	0.503	0.802	0.928	0.621	0.775	1.475	2.763	6.857	15.77	19.35	10.47	3.427	0.426	0.126	0.139	0.080	0.175	0.096	0.079	0.105	0.128	0.038	0.064	0.059	0.035	0.037	0.034	0.032	0.047	0.029	0.053	0.006	0.015	0.032
245.0	208.6	311.7	256.4	1110	4991	3396	327.7	10.35	4.701	3.663	3.805	2.570	2.634	1.869	1.751	1.448	1.306	1.144	1.047	1.272	0.813	1.151	0.710	0.661	0.669	0.536	0.553	0.501	0.475	0.465	0.327	0.442	0.352	0.314	0.353	0.312	0.261	0.273	0.270	0.275	0.205	0.275	0.196	0.242	0.496	0.911	1.075	0.923	0.604	0.741	1.697	5.590	14.57	20.93	20.05	10.38	2.335	0.218	0.136	0.189	0.114	0.073	0.082	0.100	0.067	0.075	0.039	0.011	0.030	0.041	0.122	0.049	0.024	0.049	0.031	0.032	0.042
250.0	74.11	225.0	318.7	354.0	1698	3916	5187	1187	62.88	6.401	5.199	4.059	3.065	2.328	2.267	1.546	1.403	1.474	1.246	1.339	0.892	1.236	0.784	0.696	0.699	0.618	0.604	0.462	0.523	0.508	0.401	0.511	0.404	0.296	0.354	0.355	0.295	0.266	0.266	0.249	0.213	0.311	0.194	0.209	0.296	0.404	0.591	0.946	1.174	0.907	0.814	1.453	3.640	6.968	12.52	20.21	24.62	19.05	11.10	3.155	0.291	0.132	0.092	0.090	0.079	0.104	0.083	0.071	0.072	0.105	0.066	0.043	0.052	0.031	0.039	0.018	0.026
255.0	29.62	69.31	237.9	406.0	479.7	1020	4626	7249	1684	60.82	8.201	6.418	4.808	3.032	2.972	1.820	1.714	1.657	1.525	1.577	0.966	1.296	0.910	0.757	0.825	0.555	0.665	0.692	0.595	0.554	0.558	0.519	0.502	0.366	0.375	0.335	0.304	0.347	0.287	0.262	0.272	0.284	0.226	0.250	0.260	0.259	0.293	0.358	0.648	1.068	1.537	1.471	1.200	1.712	3.004	4.864	9.388	23.99	43.20	29.78	17.51	3.041	0.242	0.129	0.110	0.111	0.099	0.078	0.082	0.097	0.060	0.044	0.066	0.059	0.038	0.012	0.023
260.0	25.93	27.98	86.57	353.9	387.1	284.3	1421	6408	8312	262.6	26.88	8.613	6.135	3.825	3.506	2.751	2.002	1.839	1.542	1.726	0.967	1.389	1.007	0.844	0.969	0.783	0.630	0.837	0.617	0.605	0.591	0.569	0.582	0.358	0.389	0.402	0.356	0.344	0.338	0.276	0.306	0.259	0.281	0.161	0.258	0.207	0.242	0.197	0.267	0.519	0.992	1.884	1.881	1.163	0.913	1.273	2.384	6.540	18.99	43.25	58.89	27.52	14.06	1.534	0.221	0.143	0.100	0.123	0.065	0.077	0.070	0.056	0.068	0.068	0.051	0.044	0.052
265.0	24.15	20.39	34.57	167.4	443.7	272.1	359.6	2209	9384	7459	213.4	14.82	8.520	5.649	4.749	3.002	2.578	2.097	1.710	1.974	1.278	1.600	0.984	0.835	0.866	0.846	0.643	0.818	0.566	0.830	0.478	0.630	0.616	0.465	0.440	0.400	0.323	0.286	0.301	0.298	0.312	0.296	0.302	0.195	0.228	0.238	0.230	0.250	0.229	0.263	0.419	1.029	1.942	2.215	1.552	0.673	0.749	1.650	4.622	13.14	33.06	57.55	73.02	24.92	7.571	0.589	0.205	0.167	0.104	0.116	0.045	0.096	0.061	0.114	0.067	0.049	0.026
270.0	35.28	22.83	23.30	53.98	223.9	438.0	318.6	553.2	2983	7969	9999.9	2776	58.23	9.149	6.288	4.461	3.511	2.716	2.256	2.422	1.591	1.855	1.191	0.928	0.921	0.840	0.743	0.834	0.748	0.829	0.476	0.766	0.602	0.529	0.497	0.497	0.465	0.404	0.404	0.339	0.331	0.327	0.310	0.272	0.246	0.263	0.233	0.292	0.251	0.219	0.253	0.356	0.732	1.218	1.901	2.176	1.876	1.116	1.371	3.223	7.839	16.51	35.88	51.21	44.01	55.26	15.91	6.873	0.709	0.225	0.143	0.156	0.092	0.119	0.081	0.090	0.057
275.0	50.99	33.62	30.62	28.83	73.13	197.0	547.6	379.4	709.3	1970	7535	9999.9	1250	59.76	10.07	7.137	4.695	3.543	2.929	3.211	1.813	2.362	1.557	1.217	1.105	1.025	0.841	0.921	0.787	1.003	0.746	0.885	0.712	0.701	0.797	0.577	0.578	0.502	0.504	0.434	0.344	0.452	0.349	0.416	0.234	0.397	0.300	0.358	0.293	0.288	0.237	0.291	0.318	0.473	0.709	1.077	2.381	3.311	2.441	1.359	2.062	3.963	8.380	11.97	14.06	41.01	75.21	91.73	26.44	7.602	0.542	0.242	0.155	0.166	0.123	0.135	0.124
280.0	80.37	60.05	41.35	26.11	42.59	66.23	341.5	637.1	312.0	500.6	2124	9999.9	9999.9	911.4	32.01	9.397	6.060	5.001	4.128	3.845	2.018	2.608	1.655	1.373	1.198	1.153	1.038	0.961	0.766	0.872	0.812	0.793	0.836	0.743	0.774	0.810	0.633	0.606	0.541	0.487	0.493	0.458	0.441	0.405	0.410	0.375	0.394	0.341	0.300	0.284	0.242	0.229	0.211	0.295	0.313	0.445	0.904	2.035	3.823	3.365	1.688	1.323	2.341	3.046	3.559	10.18	25.12	65.99	106.0	82.82	21.64	3.485	0.319	0.214	0.178	0.148	0.179
285.0	106.1	76.24	48.03	32.77	36.12	33.48	132.7	546.3	559.6	228.9	567.3	3076	9999.9	8607	126.4	17.20	8.898	6.152	5.306	4.864	2.444	2.933	1.913	1.515	1.210	1.242	1.287	1.100	0.843	0.849	0.881	0.897	0.925	0.814	0.865	0.840	0.728	0.674	0.636	0.559	0.597	0.572	0.632	0.493	0.437	0.465	0.468	0.430	0.438	0.339	0.268	0.246	0.258	0.247	0.273	0.369	0.393	0.758	1.843	3.334	3.930	2.623	1.188	1.110	1.247	2.830	6.186	16.71	41.75	77.50	107.2	31.83	15.90	1.077	0.209	0.242	0.215
290.0	148.7	114.0	79.36	45.74	45.47	38.86	69.16	222.3	568.1	525.1	287.4	801.9	3144	9718	9999.9	2503	39.85	9.818	7.275	6.294	3.463	3.776	2.464	1.903	1.707	1.346	1.234	1.254	1.100	1.091	1.019	0.989	1.072	1.089	0.977	1.053	0.821	0.800	0.730	0.630	0.727	0.624	0.678	0.510	0.602	0.627	0.551	0.531	0.457	0.376	0.358	0.282	0.297	0.320	0.308	0.337	0.405	0.469	0.784	1.303	2.222	3.543	3.878	2.907	1.604	1.391	2.016	4.286	9.986	19.51	38.80	55.07	83.59	56.32	52.13	11.91	2.128
295.0	201.5	161.0	100.4	65.16	61.70	55.14	67.01	115.0	249.6	643.2	685.4	345.1	795.8	2308	7498	9999.9	732.4	46.85	10.65	9.311	4.668	4.754	3.052	2.097	2.238	1.491	1.618	1.475	1.281	1.214	1.191	1.265	1.199	1.278	1.063	1.197	0.956	0.900	0.772	0.725	0.704	0.794	0.760	0.641	0.765	0.736	0.684	0.637	0.535	0.447	0.498	0.423	0.354	0.390	0.342	0.518	0.470	0.502	0.524	0.721	0.974	1.494	2.266	3.695	4.778	2.950	1.538	1.591	2.879	5.016	9.130	12.70	20.74	28.47	83.07	112.0	33.89
300.0	227.9	184.2	129.7	81.26	76.82	67.39	83.27	104.4	165.5	370.1	887.9	518.2	300.2	592.5	1984	9874	9999.9	613.7	27.75	12.76	6.044	6.394	3.887	2.619	2.388	1.908	2.003	1.687	1.409	1.294	1.171	1.213	1.307	1.469	1.209	1.084	1.010	1.008	0.962	0.866	0.752	0.897	0.779	0.713	0.698	0.767	0.787	0.814	0.568	0.509	0.449	0.517	0.471	0.361	0.452	0.473	0.623	0.633	0.678	0.711	0.839	0.938	1.265	1.948	3.597	5.110	4.221	1.941	1.528	1.769	2.561	3.464	5.119	7.014	22.85	54.56	102.3
305.0	251.8	217.4	162.7	108.1	94.59	86.91	102.8	124.1	168.0	258.5	601.0	891.2	328.0	236.4	526.3	2818	9999.9	9999.9	460.5	20.44	8.058	7.798	4.704	3.189	2.690	2.069	2.099	1.840	1.501	1.524	1.214	1.272	1.322	1.529	1.318	1.238	1.039	1.101	0.971	0.869	0.793	0.921	0.834	0.891	0.822	0.849	0.827	0.827	0.734	0.561	0.447	0.460	0.539	0.420	0.525	0.587	0.664	0.591	0.763	0.799	0.897	1.056	1.081	1.337	2.008	3.244	4.632	4.876	2.722	1.495	1.281	1.423	1.713	2.182	5.657	13.23	33.65
310.0	278.7	247.4	193.0	133.0	109.7	105.6	126.2	145.4	178.3	232.7	360.7	642.5	697.3	300.9	219.7	705.1	2925	9999.9	9999.9	2110	30.53	12.02	6.434	4.411	3.702	2.573	2.325	2.100	1.612	1.735	1.450	1.526	1.420	1.594	1.376	1.303	1.203	1.048	1.135	0.940	0.839	1.022	0.900	0.907	0.816	0.861	0.911	0.945	0.838	0.687	0.608	0.579	0.631	0.578	0.640	0.707	0.779	0.703	0.805	0.858	1.067	1.064	1.158	1.174	1.542	1.923	2.448	3.378	3.941	3.841	2.603	1.595	1.164	1.158	1.900	3.467	8.152
315.0	362.3	354.7	248.9	159.1	130.2	123.4	139.7	157.5	190.6	234.3	297.9	380.3	544.5	659.1	252.9	240.3	716.9	2342	7310	9999.9	2772	40.78	9.519	6.048	4.822	3.430	2.916	2.497	2.212	1.997	1.464	1.806	1.477	1.718	1.575	1.482	1.241	1.204	1.220	1.000	1.009	1.128	0.995	1.062	1.005	1.093	1.139	1.150	0.977	0.804	0.675	0.675	0.745	0.660	0.655	0.809	0.852	0.838	0.846	1.010	1.055	1.030	1.294	1.174	1.417	1.523	1.761	1.939	2.316	2.705	3.958	4.067	2.572	1.283	1.208	1.297	2.432
320.0	515.1	541.8	389.8	210.0	149.2	133.0	155.1	179.6	207.6	257.1	305.3	338.3	377.9	620.1	491.1	155.0	231.2	573.3	1894	9999.9	9999.9	493.3	23.52	8.273	5.872	4.167	3.454	3.047	2.502	2.121	1.628	1.692	1.591	1.620	1.409	1.403	1.147	1.245	1.180	1.084	1.212	1.277	1.232	1.303	1.532	1.759	1.674	1.713	1.423	1.058	0.839	0.799	0.785	0.753	0.904	0.868	0.897	0.992	1.011	1.042	1.168	1.172	1.272	1.385	1.564	1.544	1.647	1.582	2.040	1.814	2.524	3.649	4.060	2.840	1.591	1.051	1.089
325.0	656.5	748.6	556.9	281.1	188.5	152.0	170.9	192.7	227.5	271.8	330.4	355.0	339.1	421.5	609.5	290.1	133.9	180.4	463.7	2888	9999.9	9999.9	376.7	13.54	7.607	5.232	3.854	3.352	2.861	2.595	2.073	1.827	1.794	1.653	1.377	1.553	1.280	1.390	1.314	1.240	1.239	1.348	1.449	1.493	1.884	2.116	2.299	2.310	1.955	1.373	1.120	0.911	0.841	0.792	0.966	0.867	1.013	1.056	1.018	1.210	1.197	1.261	1.346	1.452	1.432	1.760	1.672	1.669	1.902	1.981	1.986	2.235	3.025	3.981	3.170	1.730	0.992
330.0	805.7	920.8	738.2	440.9	287.2	197.8	195.0	210.0	235.0	282.0	345.1	367.3	351.8	338.5	409.6	456.8	251.4	108.4	147.5	684.2	2814	9999.9	8940	1622	26.11	7.857	5.839	4.593	3.510	2.933	2.534	2.123	2.012	1.864	1.609	1.577	1.463	1.503	1.339	1.334	1.439	1.556	1.531	1.736	2.173	2.438	2.472	2.920	2.618	1.866	1.543	1.407	1.268	1.131	1.048	1.062	1.120	1.125	1.052	1.228	1.258	1.354	1.199	1.472	1.613	1.736	1.824	1.816	1.938	1.903	1.918	1.755	1.978	2.401	2.794	3.053	2.545
335.0	977.6	1161	976.2	618.2	419.4	266.1	231.1	230.9	250.3	296.8	362.8	403.0	392.6	355.8	316.5	332.4	430.6	209.4	93.06	198.3	664.0	2348	6613	9999.9	2548	29.06	8.336	6.278	4.596	3.537	2.925	2.641	2.135	2.085	1.700	1.604	1.500	1.459	1.444	1.309	1.556	1.631	1.886	2.074	2.421	2.807	2.931	3.440	3.359	2.491	2.037	2.111	1.736	1.653	1.321	1.198	1.342	1.228	1.180	1.264	1.327	1.478	1.425	1.480	1.680	1.886	1.933	1.879	2.051	2.215	1.954	1.977	1.882	1.886	1.846	1.898	2.620
340.0	992.5	1240	1056	696.8	475.6	292.2	236.2	235.3	256.3	295.2	363.0	400.6	395.7	359.4	295.4	248.1	341.1	348.8	119.2	90.58	186.1	561.2	1738	8630	9999.9	407.6	19.68	7.834	5.657	4.273	3.341	2.826	2.112	2.233	1.825	1.834	1.577	1.661	1.702	1.404	1.521	1.684	1.884	2.205	2.456	2.792	3.187	3.644	3.419	2.660	2.296	2.224	2.005	1.731	1.594	1.397	1.159	1.106	1.065	1.298	1.324	1.311	1.445	1.523	1.534	1.812	1.984	1.965	2.075	2.167	2.078	1.907	1.841	1.799	1.573	1.677	1.788
345.0	960.8	1142	1031	712.1	493.9	300.1	229.1	224.1	248.3	280.1	340.5	374.2	377.2	342.1	285.8	218.1	218.2	339.7	227.5	74.54	78.48	161.3	418.8	2506	9999.9	9646	335.8	11.51	7.266	5.324	3.821	3.447	2.406	2.327	1.908	1.790	1.752	1.633	1.656	1.394	1.562	1.826	1.908	2.095	2.486	2.768	2.976	3.434	3.327	2.588	2.325	2.451	2.006	1.792	1.466	1.269	1.094	1.210	1.135	1.239	1.299	1.349	1.248	1.505	1.566	1.743	1.630	2.028	1.980	1.884	1.965	1.767	1.826	1.694	1.446	1.402	1.335
350.0	894.7	1054	954.7	699.6	488.6	291.9	215.1	205.8	225.7	253.4	306.9	337.5	340.5	316.6	266.8	200.2	161.6	193.3	262.1	170.2	63.88	69.09	120.4	582.1	2956	8547	7753	1461	23.05	7.312	5.117	3.817	2.773	2.670	2.147	1.979	1.815	1.748	1.582	1.488	1.560	1.784	1.902	2.034	2.332	2.629	2.894	3.109	2.991	2.508	2.260	2.364	2.000	1.760	1.398	1.315	1.184	1.119	1.081	1.108	1.134	1.202	1.390	1.426	1.419	1.523	1.615	1.725	1.743	1.792	1.762	1.701	1.700	1.606	1.434	1.430	1.277
355.0	780.8	936.5	861.0	651.5	467.8	277.9	197.7	186.7	206.7	230.6	271.9	299.5	305.0	283.6	239.9	180.4	140.4	121.0	141.0	230.5	138.3	51.41	51.99	148.8	672.8	1995	6135	9999.9	2230	25.67	7.127	5.370	3.354	3.218	2.285	2.014	1.735	1.934	1.540	1.456	1.571	1.608	1.567	1.779	2.127	2.536	2.509	2.791	2.646	2.319	2.149	2.314	2.132	1.784	1.246	1.122	1.091	1.047	1.102	1.027	1.030	1.014	1.171	1.191	1.484	1.453	1.528	1.607	1.603	1.572	1.583	1.623	1.589	1.561	1.232	1.260	1.194
360.0	702.4	815.9	761.7	580.3	427.3	265.2	184.4	175.2	186.3	205.8	242.9	266.6	272.3	251.1	215.9	164.8	125.6	99.65	87.53	154.2	210.2	70.44	36.02	51.20	165.7	458.6	1647	9278	9999.9	380.7	13.61	6.491	4.581	3.906	2.524	2.155	1.752	1.974	1.599	1.571	1.452	1.643	1.608	1.704	1.900	2.095	2.403	2.766	2.627	2.167	2.019	2.081	1.992	1.673	1.291	1.120	1.096	0.959	1.064	1.091	0.981	1.064	1.005	1.020	1.258	1.274	1.179	1.552	1.476	1.373	1.531	1.493	1.570	1.336	1.161	1.148	0.958
365.0	642.9	734.0	666.0	522.5	381.5	246.7	169.3	154.6	168.6	188.0	217.0	239.3	242.7	226.1	196.2	149.7	113.5	89.46	70.06	83.75	180.9	155.6	45.54	28.11	51.27	115.3	384.1	2797	9999.9	9552	51.60	10.02	5.529	4.822	3.253	2.493	1.987	2.018	1.684	1.542	1.515	1.700	1.477	1.599	1.828	1.909	2.287	2.205	2.294	1.998	1.695	2.044	1.692	1.481	1.269	1.070	0.957	0.878	0.878	1.016	0.958	0.897	1.049	0.976	1.283	1.189	0.993	1.248	1.146	1.318	1.475	1.334	1.336	1.275	1.241	1.054	0.899
370.0	533.4	593.4	553.3	452.7	336.5	215.3	154.7	137.2	142.9	166.0	188.1	205.3	209.8	194.5	169.5	131.0	101.9	80.73	60.76	56.86	88.72	156.6	109.4	37.03	24.67	37.31	97.46	640.6	3036	9228	7229	1295	18.96	6.259	3.998	3.161	2.338	2.191	1.818	1.550	1.548	1.586	1.406	1.487	1.638	1.797	1.990	2.077	1.978	1.649	1.584	1.579	1.606	1.334	1.197	0.983	0.789	0.891	0.824	0.881	0.906	0.815	0.885	0.977	1.048	1.030	1.072	0.994	1.195	1.163	1.179	1.122	1.219	1.103	1.002	0.914	0.857
375.0	447.7	502.8	456.8	379.4	287.9	184.0	134.6	120.0	123.8	142.0	156.0	173.1	175.9	162.3	144.1	115.6	91.69	72.42	55.79	48.75	50.86	75.38	142.6	105.5	25.75	19.68	32.14	153.8	687.4	2181	6318	9999.9	1807	21.43	6.025	4.295	2.733	2.651	1.993	1.894	1.627	1.563	1.395	1.400	1.534	1.576	1.740	1.788	1.637	1.428	1.324	1.304	1.512	1.108	1.077	0.961	0.911	0.719	0.781	0.761	0.790	0.722	0.795	0.811	0.825	0.852	0.833	0.907	1.002	0.947	1.139	0.988	1.114	0.858	0.859	0.861	0.669
380.0	400.2	431.0	403.6	336.4	255.9	172.9	121.5	111.0	112.9	123.4	143.0	154.5	153.6	147.9	128.2	102.7	84.92	66.76	53.25	45.31	40.89	44.99	88.68	145.2	54.27	17.04	17.84	45.23	164.0	498.6	1738	9447	9358	315.2	10.66	4.898	3.552	3.046	2.380	1.853	1.682	1.625	1.490	1.368	1.529	1.561	1.477	1.621	1.507	1.376	1.138	1.240	1.434	1.063	0.900	0.872	0.692	0.641	0.639	0.606	0.778	0.791	0.766	0.768	0.845	0.794	0.779	0.863	0.902	0.853	0.941	0.992	0.834	0.817	0.711	0.771	0.690
385.0	359.3	361.7	354.2	298.3	225.3	155.3	112.6	99.83	102.5	113.5	129.2	140.1	138.6	128.6	115.3	90.09	77.82	62.15	51.06	42.80	37.75	36.67	47.38	111.7	114.6	31.08	13.96	20.33	46.20	120.8	401.6	2940	9830	7918	41.38	7.190	4.296	3.975	2.796	2.098	1.848	1.566	1.561	1.316	1.382	1.454	1.397	1.408	1.500	1.264	1.119	1.177	1.179	0.974	0.872	0.749	0.687	0.610	0.632	0.568	0.694	0.634	0.633	0.609	0.714	0.716	0.754	0.788	0.898	0.744	0.766	0.839	0.893	0.808	0.705	0.782	0.709
390.0	292.8	321.6	298.8	254.9	202.7	138.4	103.2	88.89	86.98	98.79	109.8	119.0	119.6	111.1	99.82	81.25	68.97	57.18	47.93	41.93	35.89	32.86	32.35	52.23	101.3	80.78	28.45	14.44	19.06	35.60	98.35	669.8	2912	8042	5634	985.2	14.93	4.977	3.585	2.410	2.028	1.802	1.701	1.361	1.327	1.366	1.329	1.405	1.382	1.097	1.039	1.080	1.078	0.923	0.925	0.701	0.654	0.654	0.689	0.553	0.603	0.607	0.606	0.571	0.593	0.649	0.678	0.695	0.723	0.744	0.687	0.671	0.674	0.753	0.712	0.667	0.592
395.0	281.4	257.1	243.1	219.1	171.8	121.6	89.43	80.63	78.72	83.68	96.94	103.9	103.6	97.81	86.09	73.70	62.93	52.38	45.26	39.42	35.89	32.47	28.22	29.17	45.22	91.48	81.68	21.44	12.53	15.72	29.51	156.7	656.0	1917	5003	8353	1446	17.57	4.502	2.914	2.606	2.208	1.805	1.357	1.467	1.412	1.352	1.219	1.292	1.041	0.952	1.111	1.028	0.798	0.814	0.734	0.647	0.559	0.543	0.517	0.524	0.483	0.665	0.677	0.595	0.586	0.603	0.760	0.691	0.597	0.600	0.614	0.566	0.667	0.692	0.644	0.571
400.0	244.6	236.1	213.7	194.1	157.8	113.9	84.66	74.51	76.41	78.92	90.31	92.00	94.48	89.41	79.28	66.66	59.05	49.63	44.50	37.65	34.36	30.80	26.93	24.41	26.03	52.41	102.9	47.77	13.81	10.85	14.09	42.38	153.4	436.0	1382	6885	6943	268.9	8.959	3.836	2.841	2.443	1.905	1.485	1.406	1.227	1.268	1.306	1.071	0.949	0.868	0.991	1.000	0.780	0.714	0.780	0.648	0.658	0.498	0.565	0.517	0.564	0.598	0.474	0.526	0.623	0.641	0.664	0.678	0.590	0.601	0.547	0.589	0.572	0.529	0.542	0.660
405.0	237.8	213.5	192.6	175.2	140.4	107.3	82.28	72.90	72.58	75.90	84.13	84.88	87.92	82.00	74.30	63.71	56.40	48.77	42.56	36.49	33.03	30.35	26.26	22.54	20.90	28.27	74.96	86.22	28.56	10.82	9.993	16.55	41.03	104.2	317.6	2107	7194	6058	36.92	5.422	3.385	2.928	2.091	1.575	1.431	1.354	1.307	1.334	1.126	0.878	0.785	0.913	1.005	0.723	0.658	0.623	0.592	0.631	0.538	0.531	0.497	0.558	0.630	0.469	0.479	0.554	0.542	0.592	0.603	0.545	0.578	0.541	0.534	0.563	0.481	0.483	0.464
410.0	206.9	192.2	180.0	150.5	130.7	95.02	78.37	69.12	65.26	70.81	76.81	81.13	79.56	73.19	67.43	58.75	50.84	44.91	40.44	35.51	31.36	29.42	25.69	22.23	20.02	19.84	34.84	70.91	67.11	25.87	10.19	10.44	15.27	29.37	76.79	479.0	2117	6096	4798	901.6	13.09	3.809	2.590	1.908	1.683	1.429	1.297	1.280	1.123	0.855	0.814	0.790	0.853	0.747	0.676	0.633	0.618	0.651	0.551	0.502	0.505	0.484	0.531	0.447	0.486	0.514	0.508	0.495	0.577	0.549	0.508	0.505	0.594	0.543	0.475	0.441	0.424
415.0	163.1	159.6	154.9	136.8	119.0	89.15	72.66	64.62	62.13	65.37	71.69	73.94	72.50	67.07	61.59	53.58	47.65	42.00	38.56	33.58	29.93	27.86	25.10	22.86	19.90	18.46	20.93	32.47	68.07	55.36	19.24	9.264	9.123	12.56	22.55	111.9	476.3	1454	4146	6007	267.4	16.32	3.459	2.145	2.067	1.634	1.190	1.168	1.282	0.844	0.774	0.694	0.832	0.755	0.577	0.645	0.569	0.599	0.628	0.476	0.523	0.413	0.480	0.482	0.445	0.494	0.400	0.487	0.548	0.536	0.528	0.519	0.599	0.473	0.439	0.442	0.370
420.0	145.5	159.7	140.1	127.0	109.9	84.97	64.51	62.13	61.18	61.79	67.02	69.87	65.40	62.79	56.64	51.46	45.57	39.08	35.80	31.01	29.24	27.83	25.34	22.12	19.58	18.22	17.54	19.93	39.26	73.85	43.37	11.62	8.153	7.790	10.27	29.99	110.3	330.3	1138	4677	5335	248.0	8.430	2.899	2.301	1.877	1.443	1.240	1.246	0.943	0.794	0.808	0.747	0.704	0.583	0.634	0.534	0.568	0.582	0.511	0.473	0.505	0.482	0.497	0.436	0.484	0.474	0.556	0.490	0.576	0.449	0.517	0.523	0.438	0.399	0.433	0.349
425.0	152.9	140.6	130.1	118.9	101.7	80.37	62.66	56.85	57.56	60.20	63.29	63.57	60.53	59.85	53.46	48.44	42.48	37.30	33.72	30.16	28.47	26.94	24.98	21.49	19.73	18.05	17.01	16.58	22.63	52.44	66.72	23.55	8.230	6.929	6.624	11.31	28.82	77.99	260.7	1397	5509	4971	35.25	4.576	2.588	2.112	1.774	1.316	1.264	0.973	0.775	0.791	0.713	0.674	0.706	0.610	0.670	0.560	0.533	0.533	0.455	0.469	0.448	0.445	0.456	0.458	0.474	0.433	0.393	0.512	0.439	0.468	0.422	0.364	0.369	0.450	0.366
430.0	371.6	129.6	119.0	111.3	91.77	74.97	62.69	55.26	53.50	58.38	60.65	60.12	58.40	54.62	49.19	43.14	39.41	34.49	31.50	28.65	26.60	25.55	24.09	20.99	18.93	18.08	16.96	16.13	17.10	25.71	51.99	51.13	20.30	7.370	5.925	6.495	10.32	21.45	62.24	317.2	1586	4620	3771	834.7	12.79	2.832	1.957	1.770	1.303	0.927	0.805	0.950	0.820	0.692	0.709	0.629	0.653	0.528	0.513	0.505	0.459	0.440	0.506	0.448	0.490	0.417	0.379	0.418	0.454	0.424	0.400	0.427	0.423	0.394	0.340	0.382	0.421
435.0	1262	149.9	107.7	95.57	85.94	68.84	57.67	53.13	51.10	54.92	59.61	58.65	55.62	50.01	45.90	41.31	36.37	31.35	28.83	26.28	25.41	24.55	22.76	20.50	19.11	18.41	17.02	15.97	16.29	16.61	24.93	47.10	44.79	14.64	5.953	5.155	5.694	8.630	17.45	73.85	356.8	1084	2901	5116	1331	15.89	2.847	2.320	1.583	1.144	0.968	0.977	0.763	0.699	0.739	0.715	0.663	0.553	0.542	0.564	0.508	0.451	0.484	0.473	0.418	0.448	0.454	0.472	0.288	0.469	0.480	0.413	0.421	0.389	0.337	0.305	0.308
440.0	2025	329.7	96.70	93.32	83.76	62.94	53.67	52.48	51.00	53.95	56.47	54.07	52.54	47.90	42.27	38.92	34.09	30.16	26.72	25.76	23.37	23.67	21.55	20.30	19.61	18.05	17.27	16.71	15.71	14.42	16.07	27.36	51.24	30.91	8.153	4.704	4.612	5.201	7.610	19.42	82.59	246.2	778.8	3756	5535	234.0	9.433	2.810	2.043	1.319	1.133	0.821	0.790	0.744	0.611	0.750	0.691	0.664	0.515	0.583	0.479	0.338	0.465	0.480	0.398	0.436	0.450	0.437	0.332	0.392	0.365	0.378	0.360	0.378	0.378	0.376	0.324
445.0	2217	926.4	94.17	84.72	76.68	61.76	52.58	51.81	50.86	51.10	55.60	51.67	51.16	45.93	40.51	34.54	31.43	28.06	25.15	23.98	22.12	22.11	20.41	19.71	18.48	17.78	16.70	16.10	15.39	13.06	13.15	15.95	34.98	44.52	17.24	5.328	4.280	4.154	4.942	7.299	21.24	58.29	178.9	1084	5046	4205	180.5	5.711	2.572	1.540	1.238	1.064	0.908	0.752	0.670	0.703	0.718	0.691	0.564	0.568	0.420	0.441	0.472	0.412	0.446	0.459	0.465	0.429	0.399	0.381	0.296	0.319	0.316	0.368	0.365	0.377	0.378
450.0	1270	1989	357.3	78.14	67.91	56.38	48.45	46.87	47.08	48.49	51.09	49.13	46.02	39.27	36.27	31.85	28.85	24.61	22.88	22.00	19.97	19.77	18.54	18.11	17.52	17.27	15.86	15.93	14.90	12.88	12.64	11.57	16.68	32.61	34.02	13.71	4.665	3.825	3.841	4.347	7.638	15.83	42.98	245.9	1399	3527	3405	856.9	13.23	2.262	1.609	1.280	1.088	0.803	0.754	0.691	0.700	0.656	0.539	0.543	0.549	0.453	0.441	0.513	0.426	0.418	0.403	0.452	0.400	0.376	0.291	0.312	0.324	0.340	0.354	0.319	0.288
455.0	409.4	1969	1113	96.98	58.58	51.85	47.64	41.77	44.09	46.32	48.72	45.79	43.01	35.80	31.65	27.83	25.97	22.37	21.47	19.42	18.00	18.02	17.49	16.38	16.29	16.04	15.02	14.58	13.74	12.67	11.78	9.798	9.964	14.31	27.84	29.89	10.47	3.933	3.247	3.372	4.324	6.526	12.13	57.38	314.6	815.5	2179	5238	1315	14.52	2.329	1.580	1.184	0.856	0.891	0.815	0.840	0.587	0.583	0.490	0.531	0.483	0.397	0.439	0.380	0.354	0.420	0.442	0.309	0.368	0.329	0.347	0.343	0.297	0.326	0.224	0.271
460.0	163.5	1185	2282	298.2	57.63	47.04	43.97	38.42	40.48	43.32	45.24	41.99	39.50	31.31	30.68	25.56	23.70	20.50	19.34	17.51	16.96	16.29	16.43	15.58	15.28	14.82	14.27	14.18	13.13	12.07	11.69	9.093	8.580	8.667	15.89	31.26	20.94	5.833	3.164	2.940	3.312	4.362	5.328	14.95	72.67	185.1	547.7	3200	4733	900.8	11.25	2.109	1.470	0.979	0.970	0.903	0.854	0.608	0.564	0.566	0.559	0.469	0.400	0.424	0.393	0.404	0.423	0.439	0.273	0.331	0.371	0.280	0.311	0.381	0.309	0.237	0.368
465.0	118.6	475.0	2501	772.3	59.90	44.18	39.10	37.09	37.95	40.16	41.51	39.70	36.89	29.69	27.15	23.61	22.19	19.06	17.32	15.48	15.56	15.40	15.41	14.29	13.97	13.56	12.69	13.39	12.77	11.32	10.72	8.950	7.432	6.728	8.590	21.24	27.09	12.08	3.765	2.617	2.769	3.328	3.800	5.560	18.74	43.88	125.9	847.9	3629	3625	169.1	7.334	1.830	1.305	0.976	0.952	0.956	0.699	0.639	0.607	0.544	0.463	0.541	0.452	0.369	0.319	0.385	0.405	0.284	0.381	0.333	0.255	0.323	0.272	0.290	0.290	0.284
470.0	146.9	172.6	1384	2099	315.6	37.40	34.97	34.41	32.51	35.80	36.90	36.22	31.76	27.46	24.10	20.60	18.77	16.93	15.32	14.09	13.33	13.47	13.09	12.83	12.37	12.03	11.59	11.55	11.09	10.20	10.01	8.289	6.571	5.977	5.863	9.415	19.01	20.47	9.367	3.152	2.403	2.553	2.749	3.313	6.345	11.76	30.43	192.4	947.8	2357	3005	858.1	14.21	1.943	1.343	1.195	1.056	0.866	0.676	0.648	0.590	0.510	0.528	0.473	0.355	0.359	0.384	0.420	0.337	0.320	0.320	0.284	0.295	0.256	0.288	0.223	0.225
475.0	208.3	102.3	403.9	2095	1403	62.16	33.81	31.66	32.05	31.28	32.65	31.07	27.00	23.88	19.58	17.90	16.85	13.77	13.20	11.20	11.40	11.89	11.82	11.21	10.67	10.71	10.58	10.45	9.777	8.980	9.088	7.772	6.173	5.510	4.868	5.225	8.118	16.60	17.57	6.644	2.534	2.417	2.049	2.274	3.466	4.315	8.348	44.71	213.2	532.2	1225	2786	1283	20.19	1.865	1.343	1.096	0.766	0.714	0.546	0.495	0.515	0.507	0.469	0.412	0.315	0.327	0.321	0.307	0.258	0.215	0.217	0.274	0.236	0.254	0.172	0.194
480.0	213.4	108.0	140.1	1234	2394	262.1	32.12	28.45	27.88	29.32	29.95	27.13	24.38	21.56	17.87	16.56	14.64	12.00	11.65	11.28	10.23	10.35	10.29	10.15	9.862	9.878	9.623	9.241	9.427	8.186	8.053	7.036	5.862	5.299	4.657	4.072	4.880	9.335	18.74	12.63	3.804	2.048	1.790	1.908	2.469	2.907	3.389	11.60	49.30	120.4	288.1	1342	3168	1029	14.69	1.910	1.193	0.855	0.840	0.636	0.569	0.426	0.553	0.306	0.417	0.360	0.350	0.234	0.296	0.298	0.258	0.277	0.229	0.275	0.215	0.215	0.196
485.0	167.9	139.9	75.51	489.6	2598	895.6	35.29	27.21	25.76	26.91	27.42	26.94	22.85	19.62	17.97	13.64	12.57	11.96	10.97	9.631	9.980	9.265	8.948	9.086	8.958	9.122	8.408	8.417	8.196	7.768	7.704	6.572	5.570	4.946	4.462	3.732	3.641	4.945	12.38	16.89	7.331	2.502	1.758	1.552	1.847	2.310	2.270	3.970	12.57	28.19	66.36	334.0	1996	2757	211.1	10.21	1.744	1.158	1.034	0.683	0.628	0.469	0.470	0.384	0.403	0.393	0.304	0.329	0.273	0.250	0.273	0.305	0.206	0.272	0.211	0.162	0.181
490.0	100.3	187.8	79.45	147.4	1484	2179	250.4	25.71	25.51	25.39	24.33	23.91	21.30	17.58	15.38	12.55	11.50	10.18	9.417	8.839	8.736	9.008	8.734	8.424	8.209	8.018	7.928	7.325	7.598	7.270	7.314	6.062	5.088	4.733	3.642	3.528	3.117	3.269	5.866	12.18	13.46	6.256	2.305	1.503	1.601	1.659	2.094	2.587	4.171	7.470	16.08	76.03	494.5	1420	1969	946.2	16.71	2.138	1.243	0.906	0.838	0.521	0.541	0.421	0.426	0.365	0.333	0.299	0.340	0.287	0.274	0.270	0.218	0.208	0.205	0.140	0.137
495.0	60.56	146.4	136.0	68.03	419.5	2337	1560	47.80	24.27	22.80	22.13	21.06	19.36	15.71	14.09	11.24	9.977	9.487	8.628	7.680	7.673	8.039	8.017	7.443	7.437	6.967	7.106	6.929	6.977	6.465	6.921	5.442	4.976	4.170	3.475	3.257	2.815	2.778	3.218	5.253	11.15	12.11	5.085	1.608	1.500	1.362	1.500	1.910	2.315	2.627	4.549	18.00	111.6	319.5	801.9	2981	1582	26.15	2.015	1.205	0.978	0.689	0.543	0.512	0.489	0.419	0.294	0.275	0.313	0.208	0.213	0.169	0.207	0.220	0.247	0.188	0.162
500.0	39.57	94.60	167.0	63.30	117.1	1385	2862	229.6	22.57	20.84	20.73	19.80	16.87	15.06	11.58	10.47	9.973	8.154	7.874	6.804	6.512	7.124	6.907	7.063	6.676	6.720	6.432	6.617	5.995	5.934	6.394	5.181	4.445	4.199	3.246	3.203	2.634	2.633	2.309	2.732	6.352	12.60	8.866	2.822	1.364	1.321	1.306	1.522	2.107	1.694	1.908	4.967	25.89	72.64	186.3	1304	3252	1291	19.51	1.569	1.180	0.771	0.640	0.503	0.401	0.370	0.311	0.248	0.324	0.242	0.339	0.162	0.251	0.200	0.233	0.197	0.110
505.0	41.65	50.16	164.1	80.83	50.71	513.1	3270	950.0	25.49	18.82	18.49	17.77	15.52	13.85	10.93	8.754	8.861	7.695	7.003	6.119	5.987	5.903	5.996	6.585	6.121	5.972	5.916	5.684	5.829	5.316	5.485	4.430	4.100	3.713	3.241	2.703	2.439	2.322	2.093	2.233	3.278	8.681	11.23	5.417	1.687	1.208	1.305	1.291	1.624	1.740	1.288	1.986	6.741	17.29	43.04	312.5	1680	2848	239.0	13.56	1.472	0.821	0.691	0.568	0.409	0.441	0.353	0.301	0.345	0.219	0.231	0.259	0.212	0.221	0.212	0.197	0.162
510.0	35.79	34.42	107.7	126.0	40.61	142.0	1855	2703	182.3	18.12	18.53	15.65	13.43	11.08	9.775	8.454	7.402	6.601	5.853	5.451	5.550	5.073	5.328	5.358	5.100	5.145	5.402	5.110	5.138	4.779	5.059	3.940	3.872	3.265	2.706	2.505	2.148	2.105	1.942	1.885	2.060	3.932	8.582	8.860	4.274	1.503	1.064	1.064	1.193	1.316	1.504	1.276	2.289	4.645	10.60	71.09	400.2	1269	1780	993.7	18.16	1.636	0.846	0.622	0.514	0.427	0.373	0.360	0.329	0.254	0.239	0.243	0.206	0.214	0.214	0.173	0.157
515.0	25.48	24.16	49.99	138.0	65.18	47.35	503.8	3137	1388	34.53	16.75	14.02	12.07	9.281	8.326	7.261	6.014	5.666	4.798	4.844	4.513	4.624	4.771	4.555	4.690	4.606	4.475	4.428	4.464	4.204	4.449	3.327	3.294	2.717	2.465	2.425	2.244	1.968	1.826	1.740	1.600	2.061	3.728	7.807	8.132	3.209	1.200	0.961	0.945	0.934	1.135	1.505	1.391	1.674	2.938	16.80	90.33	284.7	609.0	2098	1480	25.65	1.372	0.813	0.657	0.502	0.452	0.313	0.366	0.255	0.246	0.227	0.191	0.194	0.180	0.166	0.143
520.0	22.42	22.47	30.23	106.4	107.1	29.19	130.9	1903	2528	184.0	16.52	13.60	11.33	8.442	7.740	6.223	5.818	5.592	4.715	4.589	4.065	4.086	4.157	4.345	4.374	4.081	3.542	3.847	4.093	3.887	3.816	3.254	2.903	2.538	2.232	2.168	2.109	1.786	1.801	1.492	1.454	1.509	1.917	4.441	8.652	5.853	1.926	0.904	0.842	0.742	0.897	1.346	1.437	1.026	1.364	4.696	21.04	64.48	139.7	835.1	2388	1008	19.73	1.133	0.782	0.559	0.440	0.348	0.332	0.291	0.317	0.220	0.202	0.202	0.120	0.162	0.119
525.0	26.41	23.04	24.18	67.74	135.9	36.96	46.24	717.5	3438	873.1	18.16	12.73	10.29	7.874	7.620	6.073	5.680	4.643	4.242	3.987	4.123	3.909	3.813	3.735	3.317	3.699	3.385	3.595	3.558	3.297	3.372	2.803	2.619	2.569	2.311	2.057	1.790	1.677	1.663	1.423	1.232	1.130	1.401	2.263	6.197	7.452	3.588	1.219	0.886	0.725	0.821	0.869	1.402	1.140	0.913	1.780	5.467	15.26	32.41	196.5	1149	2058	240.4	11.17	0.984	0.591	0.510	0.508	0.333	0.329	0.189	0.264	0.193	0.201	0.173	0.176	0.166
530.0	24.31	22.69	19.15	31.32	114.8	74.95	25.03	186.9	2024	2568	147.7	12.22	9.656	8.102	6.462	5.305	5.228	4.168	3.559	3.566	3.402	3.618	3.242	3.248	3.189	3.330	3.083	3.042	3.117	3.075	3.147	2.458	2.419	2.078	2.011	1.777	1.800	1.517	1.398	1.167	1.167	1.125	1.090	1.256	2.915	6.184	5.774	2.781	0.942	0.626	0.637	0.689	0.927	1.261	1.083	1.092	1.837	4.081	8.033	44.80	271.2	890.1	1427	781.8	17.52	1.287	0.592	0.475	0.347	0.321	0.238	0.218	0.252	0.198	0.193	0.201	0.120
535.0	18.11	17.20	16.70	19.37	64.02	113.2	30.99	53.48	547.3	3078	1400	21.35	9.460	7.661	6.237	5.173	4.329	4.010	3.309	2.912	2.595	3.003	2.815	2.789	3.018	2.810	2.667	2.736	2.601	2.594	2.805	2.404	2.155	1.927	1.706	1.574	1.515	1.321	1.164	1.061	1.095	1.026	0.858	0.928	1.360	2.786	5.573	4.939	2.045	0.636	0.558	0.583	0.668	0.778	1.339	1.042	0.958	1.465	2.412	10.81	61.12	199.4	446.9	1393	1035	24.66	1.033	0.612	0.456	0.370	0.266	0.162	0.184	0.181	0.164	0.126	0.160
540.0	22.66	19.74	13.79	14.56	32.49	117.5	51.97	23.81	137.3	1824	3291	118.3	8.469	6.818	5.569	4.615	4.113	3.463	2.871	2.329	2.831	2.742	2.415	2.360	2.656	2.573	2.621	2.276	2.415	2.276	2.394	2.106	2.045	1.593	1.621	1.384	1.434	1.257	1.205	0.856	0.822	0.837	0.760	0.860	0.861	1.393	3.483	5.514	3.218	0.965	0.579	0.525	0.502	0.458	0.906	1.382	0.832	0.854	1.011	2.982	14.19	45.28	102.1	533.1	1505	736.7	17.50	0.765	0.562	0.477	0.221	0.205	0.233	0.141	0.213	0.122	0.120
545.0	24.41	16.99	13.40	13.73	15.87	89.66	84.33	17.49	42.56	648.2	4213	626.2	9.981	7.496	5.992	4.251	3.437	2.923	2.695	2.173	2.723	2.434	2.299	2.581	2.269	2.404	2.204	2.169	2.102	2.080	2.119	1.859	1.755	1.505	1.319	1.281	1.264	1.122	1.085	0.889	0.817	0.742	0.701	0.688	0.681	0.910	1.651	4.237	4.433	1.818	0.557	0.436	0.381	0.445	0.568	1.234	1.145	0.724	0.637	1.163	3.727	10.74	23.60	124.4	690.6	1450	232.3	9.622	0.746	0.504	0.283	0.258	0.283	0.139	0.211	0.130	0.117
550.0	20.32	15.87	12.43	12.15	10.09	42.46	105.0	31.17	18.98	165.0	2378	2187	94.83	7.292	5.682	3.578	3.489	2.911	2.585	2.155	2.239	2.048	2.172	2.036	1.832	1.959	1.937	1.912	1.887	1.843	1.673	1.523	1.504	1.512	1.313	1.149	1.083	1.054	0.873	0.829	0.820	0.596	0.638	0.606	0.664	0.639	0.996	2.101	3.601	3.157	1.322	0.517	0.395	0.395	0.412	0.636	0.964	1.017	0.635	0.675	1.240	2.863	5.754	28.35	161.7	602.4	916.1	576.3	16.84	1.004	0.414	0.307	0.273	0.163	0.182	0.125	0.120
555.0	19.81	16.80	13.94	10.62	8.358	16.11	87.73	71.34	16.10	46.55	618.2	2873	1058	11.07	4.672	3.944	3.155	2.431	2.078	1.881	1.716	1.985	1.651	1.660	1.772	1.695	1.855	1.691	1.508	1.546	1.778	1.170	1.231	1.189	1.176	0.997	0.928	0.822	0.778	0.780	0.659	0.546	0.595	0.597	0.587	0.452	0.633	0.987	1.811	3.099	2.698	0.962	0.382	0.333	0.359	0.481	0.511	0.939	1.071	0.525	0.658	0.981	1.640	6.747	36.48	135.0	278.6	968.9	742.6	23.86	0.663	0.408	0.336	0.172	0.156	0.121	0.125
560.0	22.86	20.19	12.16	9.303	7.096	8.708	45.83	105.4	20.23	19.06	154.1	1724	2815	66.27	5.608	3.515	3.016	2.448	1.905	1.615	1.820	1.771	1.512	1.472	1.350	1.531	1.588	1.611	1.299	1.324	1.487	1.042	1.013	1.057	0.941	0.807	0.744	0.747	0.620	0.651	0.567	0.622	0.535	0.520	0.448	0.390	0.484	0.575	0.876	2.143	2.890	1.735	0.498	0.292	0.293	0.427	0.368	0.542	1.036	0.818	0.511	0.510	0.764	1.791	8.636	30.59	63.45	364.8	1058	253.4	16.40	0.551	0.399	0.211	0.190	0.174	0.156
565.0	17.07	17.28	10.19	8.042	6.523	6.007	22.94	106.9	36.30	14.39	46.93	599.4	3687	423.9	6.522	3.467	2.981	2.378	2.064	1.534	1.677	1.724	1.434	1.377	1.428	1.228	1.266	1.455	1.114	1.173	1.171	1.093	0.972	0.947	0.890	0.752	0.720	0.723	0.595	0.553	0.476	0.574	0.436	0.432	0.437	0.409	0.406	0.524	0.455	1.322	2.397	2.294	0.873	0.292	0.279	0.285	0.316	0.389	0.685	0.982	0.650	0.437	0.475	0.653	2.238	7.237	14.61	84.85	465.8	869.4	217.1	6.238	0.557	0.241	0.218	0.172	0.089
570.0	19.22	16.25	12.15	6.222	5.787	5.229	10.68	67.14	76.75	17.94	23.17	154.9	2139	1776	59.25	3.743	2.879	2.297	1.885	1.411	1.430	1.482	1.287	1.070	1.156	1.007	1.133	1.122	1.025	0.940	1.016	0.900	0.880	0.805	0.745	0.692	0.655	0.613	0.606	0.489	0.499	0.524	0.438	0.417	0.337	0.364	0.358	0.374	0.367	0.573	1.226	1.897	1.447	0.730	0.283	0.298	0.294	0.331	0.442	0.728	0.848	0.540	0.421	0.392	0.774	1.991	3.649	19.33	108.9	374.3	556.1	275.9	14.83	0.513	0.270	0.170	0.160
575.0	18.32	13.24	10.70	5.938	6.263	5.327	7.572	28.62	95.04	36.87	17.66	46.02	574.1	2492	684.4	5.640	3.081	2.130	1.686	1.257	1.149	1.195	1.375	0.949	0.977	0.890	0.998	1.018	1.003	0.894	0.892	0.955	0.891	0.733	0.684	0.619	0.586	0.528	0.567	0.484	0.410	0.377	0.491	0.347	0.302	0.340	0.322	0.347	0.296	0.336	0.514	1.149	1.617	1.153	0.413	0.319	0.303	0.288	0.291	0.394	0.679	0.873	0.521	0.310	0.410	0.770	1.140	4.672	24.56	83.88	167.2	501.8	258.3	19.28	0.417	0.201	0.216
580.0	18.38	13.79	10.26	5.484	6.709	5.111	6.507	14.57	81.40	62.13	19.02	23.00	145.0	1524	1938	35.31	3.331	2.282	1.736	1.301	1.075	1.152	1.283	1.021	0.961	0.971	0.791	0.934	0.988	0.817	0.878	0.804	0.726	0.635	0.643	0.555	0.518	0.560	0.490	0.450	0.431	0.406	0.419	0.332	0.328	0.428	0.331	0.314	0.298	0.302	0.340	0.637	1.227	1.442	0.737	0.394	0.231	0.253	0.242	0.282	0.429	0.714	0.717	0.382	0.275	0.414	0.526	1.336	5.694	19.03	38.13	190.8	541.7	219.6	10.45	0.323	0.197
585.0	18.22	16.37	12.60	5.874	5.898	5.692	6.239	11.74	51.47	88.46	22.52	17.43	42.49	535.1	2731	110.6	3.853	2.449	1.760	1.509	1.165	1.181	1.181	0.980	0.766	0.805	0.779	0.924	0.972	0.704	0.780	0.675	0.632	0.637	0.610	0.518	0.506	0.539	0.442	0.372	0.467	0.441	0.326	0.334	0.356	0.369	0.343	0.272	0.242	0.269	0.248	0.383	0.783	1.263	1.075	0.520	0.265	0.198	0.236	0.263	0.219	0.403	0.724	0.585	0.297	0.286	0.321	0.557	1.514	4.492	8.852	44.43	251.0	509.0	164.1	3.477	0.283
590.0	20.89	16.13	9.888	7.951	5.530	6.096	6.808	9.578	24.02	82.39	45.18	16.37	18.72	134.4	1639	1160	35.76	2.454	1.832	1.429	1.096	1.122	1.054	0.934	0.928	0.740	0.730	0.776	0.729	0.653	0.693	0.637	0.511	0.600	0.629	0.511	0.460	0.480	0.376	0.371	0.396	0.324	0.372	0.236	0.313	0.276	0.325	0.251	0.236	0.229	0.245	0.264	0.356	0.810	1.142	0.817	0.475	0.216	0.208	0.250	0.227	0.201	0.462	0.760	0.550	0.296	0.242	0.321	0.531	1.187	2.210	10.21	58.59	211.9	367.8	143.9	12.87
595.0	14.71	16.10	11.07	6.241	7.184	6.124	6.643	7.829	13.99	49.65	70.86	17.23	12.42	36.16	431.9	1759	434.0	3.509	2.067	1.386	1.217	1.105	1.035	0.879	0.863	0.633	0.716	0.735	0.731	0.577	0.683	0.478	0.542	0.528	0.512	0.491	0.438	0.418	0.442	0.321	0.338	0.312	0.276	0.261	0.278	0.213	0.220	0.238	0.216	0.210	0.178	0.173	0.194	0.324	0.801	0.853	0.771	0.350	0.152	0.246	0.211	0.182	0.259	0.418	0.644	0.476	0.233	0.260	0.305	0.434	0.634	2.463	13.21	47.50	109.8	276.7	223.3
600.0	12.07	15.97	13.06	8.032	6.461	5.024	5.907	8.416	11.09	28.68	77.39	25.84	11.22	14.19	105.4	1157	1322	18.24	2.365	1.296	1.260	0.978	0.934	0.907	0.681	0.707	0.763	0.709	0.777	0.609	0.553	0.427	0.541	0.539	0.423	0.543	0.452	0.336	0.332	0.268	0.275	0.285	0.205	0.223	0.256	0.209	0.225	0.260	0.260	0.200	0.145	0.176	0.161	0.216	0.479	0.846	0.858	0.501	0.182	0.245	0.193	0.140	0.193	0.286	0.511	0.702	0.350	0.221	0.248	0.254	0.323	0.747	3.125	10.82	24.99	104.5	325.0
605.0	14.32	15.89	12.62	8.477	6.090	5.504	7.920	8.863	10.43	17.43	65.92	43.68	11.58	9.206	29.05	419.8	1970	80.49	2.304	1.456	1.292	1.122	0.960	0.899	0.481	0.649	0.718	0.692	0.605	0.640	0.540	0.456	0.473	0.487	0.371	0.467	0.436	0.317	0.288	0.341	0.230	0.239	0.205	0.247	0.203	0.208	0.249	0.255	0.238	0.232	0.156	0.185	0.149	0.153	0.209	0.589	0.801	0.608	0.333	0.237	0.253	0.194	0.167	0.201	0.273	0.539	0.537	0.307	0.255	0.231	0.235	0.284	0.921	2.565	5.750	24.28	142.0
610.0	15.83	14.75	10.20	8.766	6.511	6.052	8.561	8.135	10.27	15.11	38.50	62.12	17.96	9.253	12.41	105.7	1268	892.8	19.99	1.856	1.344	1.113	0.943	0.756	0.600	0.587	0.572	0.552	0.692	0.564	0.500	0.383	0.433	0.412	0.344	0.378	0.389	0.472	0.296	0.283	0.229	0.265	0.225	0.288	0.208	0.226	0.227	0.247	0.178	0.169	0.151	0.135	0.125	0.141	0.151	0.332	0.551	0.662	0.405	0.279	0.217	0.151	0.176	0.195	0.207	0.317	0.476	0.473	0.230	0.223	0.179	0.181	0.347	0.760	1.421	5.583	33.02
615.0	13.68	13.37	9.646	8.216	5.531	6.782	6.628	9.863	10.52	14.47	22.99	56.89	32.28	9.102	8.680	28.44	348.3	1437	258.9	2.342	1.412	1.225	0.972	0.655	0.585	0.612	0.579	0.621	0.592	0.536	0.463	0.349	0.421	0.453	0.359	0.352	0.278	0.376	0.450	0.253	0.284	0.214	0.186	0.234	0.234	0.196	0.227	0.228	0.183	0.211	0.171	0.110	0.099	0.110	0.180	0.187	0.323	0.450	0.540	0.420	0.187	0.160	0.179	0.165	0.233	0.183	0.241	0.446	0.484	0.268	0.174	0.205	0.184	0.270	0.468	1.399	7.520
620.0	12.05	14.62	9.680	6.150	5.725	7.462	6.535	9.644	9.360	13.28	17.37	42.34	46.83	10.80	8.017	10.90	86.28	990.9	649.4	7.475	1.705	1.450	1.015	0.644	0.619	0.586	0.679	0.598	0.562	0.439	0.421	0.325	0.308	0.376	0.308	0.307	0.219	0.355	0.448	0.262	0.209	0.211	0.240	0.218	0.192	0.195	0.247	0.212	0.187	0.166	0.182	0.126	0.106	0.144	0.111	0.172	0.219	0.304	0.534	0.442	0.237	0.207	0.133	0.150	0.193	0.198	0.179	0.365	0.435	0.366	0.152	0.180	0.129	0.149	0.221	0.428	1.776
625.0	14.60	13.53	10.31	5.995	7.470	7.256	6.412	10.22	10.66	12.85	15.08	27.74	50.41	15.17	7.090	7.061	23.77	375.4	1283	51.82	1.690	1.476	0.915	0.786	0.713	0.596	0.647	0.577	0.510	0.554	0.403	0.436	0.358	0.291	0.360	0.217	0.278	0.302	0.327	0.351	0.166	0.263	0.255	0.208	0.258	0.241	0.207	0.224	0.233	0.134	0.162	0.133	0.169	0.111	0.079	0.139	0.167	0.204	0.414	0.517	0.249	0.253	0.165	0.125	0.181	0.155	0.194	0.244	0.336	0.482	0.199	0.125	0.145	0.133	0.157	0.188	0.475
630.0	15.14	13.36	9.216	7.029	6.376	6.057	7.008	8.688	9.581	11.81	13.63	17.95	40.84	27.88	8.059	6.049	9.247	94.05	926.6	545.7	10.49	1.413	1.073	0.812	0.611	0.715	0.546	0.560	0.630	0.457	0.431	0.390	0.373	0.367	0.366	0.246	0.271	0.292	0.208	0.318	0.279	0.214	0.250	0.217	0.214	0.198	0.211	0.219	0.204	0.127	0.159	0.130	0.127	0.137	0.110	0.153	0.141	0.148	0.257	0.406	0.350	0.260	0.188	0.130	0.153	0.169	0.193	0.188	0.217	0.311	0.317	0.171	0.137	0.144	0.167	0.119	0.212
635.0	13.84	14.62	9.557	6.701	5.725	5.968	5.861	8.615	8.505	10.75	13.68	15.23	23.87	38.61	10.87	5.859	5.824	23.66	269.5	947.3	66.49	1.987	1.068	0.869	0.790	0.562	0.543	0.573	0.607	0.597	0.459	0.413	0.326	0.247	0.360	0.334	0.300	0.263	0.228	0.240	0.355	0.208	0.178	0.169	0.266	0.141	0.183	0.178	0.187	0.151	0.172	0.127	0.107	0.135	0.114	0.110	0.129	0.191	0.159	0.243	0.328	0.325	0.249	0.123	0.177	0.137	0.132	0.212	0.182	0.226	0.349	0.272	0.174	0.141	0.117	0.081	0.127
640.0	15.98	13.59	11.53	7.355	6.474	5.867	6.035	7.605	9.242	11.61	13.51	13.57	16.73	36.38	17.61	5.628	4.789	8.000	66.58	712.1	466.5	5.497	1.328	0.970	0.798	0.492	0.476	0.683	0.444	0.462	0.466	0.431	0.297	0.336	0.357	0.319	0.292	0.206	0.208	0.183	0.278	0.366	0.286	0.247	0.191	0.150	0.218	0.178	0.194	0.129	0.132	0.134	0.078	0.117	0.141	0.096	0.116	0.136	0.154	0.153	0.282	0.292	0.288	0.148	0.110	0.118	0.143	0.165	0.161	0.173	0.215	0.251	0.229	0.195	0.156	0.101	0.106
645.0	21.73	22.73	17.25	8.969	6.656	6.139	6.353	8.591	8.808	10.76	12.32	12.63	13.70	27.80	24.57	6.319	4.765	4.384	17.27	299.4	887.4	40.54	1.428	0.971	0.761	0.560	0.510	0.601	0.537	0.374	0.468	0.444	0.403	0.415	0.320	0.305	0.240	0.219	0.246	0.203	0.220	0.299	0.384	0.222	0.159	0.153	0.168	0.155	0.171	0.157	0.132	0.168	0.118	0.111	0.139	0.109	0.167	0.113	0.100	0.093	0.183	0.281	0.287	0.176	0.121	0.124	0.139	0.132	0.114	0.200	0.167	0.209	0.287	0.245	0.171	0.108	0.097
650.0	29.80	28.51	19.85	10.48	6.690	6.898	6.866	8.109	8.937	11.28	12.50	13.08	13.20	19.78	29.56	7.448	4.538	3.916	5.924	81.62	877.2	273.7	1.893	0.935	0.843	0.699	0.526	0.480	0.528	0.473	0.516	0.354	0.350	0.400	0.271	0.307	0.285	0.245	0.297	0.200	0.186	0.263	0.347	0.201	0.186	0.231	0.205	0.177	0.170	0.145	0.128	0.151	0.117	0.094	0.134	0.085	0.131	0.150	0.118	0.145	0.133	0.244	0.278	0.162	0.153	0.094	0.162	0.119	0.111	0.108	0.115	0.116	0.258	0.289	0.137	0.104	0.123
