Sample:	'1
File name:	S2025080903Î÷ÎåÂ·ÇÅ1.FD3
Run date:	'16:16:05, 08/10/2025
Operator:	Administrator
Comment:	'

Instrument
Model:	F-2700 FL Spectrophotometer
Serial number:	3064-004
ROM Version:	4J14000 07

Instrument parameters
Measurement type:	3-D scan
Data mode:	Fluorescence
EX  Start WL:	220.0 nm
EX  End WL:	600.0 nm
EX Sampling interval:	5.0 nm
EM  Start WL:	230.0 nm
EM  End WL:	650.0 nm
EM Sampling interval:	5.0 nm
Scan speed:	12000 nm/min
EX Slit:	5.0 nm
EM Slit:	5.0 nm
PMT Voltage:	700 V
Response:	Auto 
Corrected spectra:	Off
Contour interval:	50.000

Peak integration
Integration method:	Rectangular
Sensitivity:	1
Threshold:	1.000

Peaks
No.	ApexEX/EM(nm)	Height(Data)
1	225.0/635.0	34.58
2	230.0/595.0	55.21
3	230.0/620.0	35.50
4	235.0/355.0	905.3
5	245.0/265.0	322.4
6	245.0/530.0	269.1
7	250.0/270.0	364.0
8	250.0/545.0	241.7
9	255.0/280.0	608.8
10	255.0/560.0	206.6
11	260.0/285.0	749.2
12	260.0/570.0	180.1
13	265.0/290.0	720.0
14	265.0/580.0	166.5
15	270.0/295.0	 1070
16	270.0/380.0	 1436
17	270.0/400.0	 1434
18	270.0/595.0	137.0
19	270.0/640.0	45.18
20	275.0/305.0	 1333
21	275.0/385.0	 1439
22	275.0/605.0	129.0
23	280.0/310.0	 1273
24	280.0/615.0	110.4
25	285.0/315.0	 1268
26	285.0/630.0	86.22
27	290.0/320.0	 1206
28	290.0/645.0	67.53
29	295.0/330.0	 1030
30	300.0/335.0	920.0
31	305.0/340.0	912.4
32	315.0/355.0	782.7
33	320.0/360.0	851.7
34	325.0/365.0	844.1
35	335.0/380.0	903.7
36	340.0/385.0	892.6
37	505.0/275.0	3.240
38	510.0/280.0	3.444
39	520.0/285.0	3.935
40	530.0/290.0	4.334
41	540.0/295.0	5.380
42	545.0/300.0	6.200
43	550.0/305.0	6.467
44	560.0/310.0	6.118
45	570.0/315.0	6.405
46	575.0/320.0	6.594
47	580.0/325.0	6.328
48	590.0/330.0	5.690

Data points
	220.0	225.0	230.0	235.0	240.0	245.0	250.0	255.0	260.0	265.0	270.0	275.0	280.0	285.0	290.0	295.0	300.0	305.0	310.0	315.0	320.0	325.0	330.0	335.0	340.0	345.0	350.0	355.0	360.0	365.0	370.0	375.0	380.0	385.0	390.0	395.0	400.0	405.0	410.0	415.0	420.0	425.0	430.0	435.0	440.0	445.0	450.0	455.0	460.0	465.0	470.0	475.0	480.0	485.0	490.0	495.0	500.0	505.0	510.0	515.0	520.0	525.0	530.0	535.0	540.0	545.0	550.0	555.0	560.0	565.0	570.0	575.0	580.0	585.0	590.0	595.0	600.0
230.0	36.37	 1069	 5862	 2181	106.9	14.93	13.20	9.233	9.228	7.788	8.731	6.889	5.439	4.768	4.727	4.391	3.203	3.130	2.984	2.373	2.462	2.186	1.965	1.973	1.820	1.704	1.513	1.713	1.452	1.604	1.328	1.259	1.292	1.228	1.185	1.138	1.020	1.063	1.030	1.003	0.979	1.107	0.945	1.022	0.856	0.835	1.670	5.312	9.576	7.933	3.644	1.018	0.684	0.697	0.616	0.581	0.641	0.573	0.615	0.538	0.545	0.579	0.529	0.549	0.521	0.655	0.506	0.469	0.476	0.537	0.436	0.606	0.444	0.499	0.568	0.473	0.557
235.0	59.86	282.3	 2608	 4196	 1115	162.3	16.34	10.31	8.706	7.587	7.405	7.453	6.980	4.614	3.892	4.580	3.105	3.156	3.483	2.505	2.151	2.269	2.462	2.383	1.637	1.712	1.617	1.678	1.454	1.416	1.288	1.420	1.256	1.237	1.108	1.075	0.961	1.074	1.119	0.936	0.918	1.009	0.902	1.020	1.175	1.026	0.998	1.985	4.008	6.727	9.579	9.686	4.539	1.618	0.555	0.649	0.756	0.603	0.499	0.551	0.520	0.676	0.649	0.520	0.529	0.587	0.619	0.433	0.387	0.593	0.497	0.460	0.428	0.561	0.464	0.529	0.525
240.0	80.41	121.2	657.9	 2346	 4745	956.5	117.8	9.677	9.196	9.061	10.23	7.526	6.294	4.790	4.509	5.494	2.565	3.456	3.252	2.341	2.015	2.681	2.529	1.974	1.818	1.514	1.558	1.691	1.514	1.399	1.604	1.111	1.376	1.109	1.173	1.132	1.175	1.095	1.348	1.014	0.787	0.887	0.909	1.079	0.922	1.016	1.333	1.124	1.514	2.109	4.973	11.00	13.33	9.964	3.473	0.860	0.712	0.660	0.593	0.508	0.441	0.589	0.709	0.661	0.497	0.480	0.532	0.554	0.502	0.478	0.442	0.381	0.458	0.429	0.574	0.619	0.459
245.0	49.29	113.1	216.1	645.2	 3371	 5024	839.8	42.51	12.24	8.708	9.594	7.417	6.931	5.566	4.770	4.847	3.108	3.062	2.966	2.654	2.289	2.150	2.271	2.016	2.008	1.781	1.916	1.636	1.601	1.762	1.806	1.232	1.441	1.032	1.277	1.131	1.059	1.062	1.124	1.092	0.885	0.964	0.930	0.737	1.031	1.020	1.383	1.200	1.091	1.026	1.710	3.799	8.541	15.23	15.11	8.269	2.482	0.794	0.506	0.622	0.512	0.531	0.607	0.722	0.602	0.565	0.487	0.540	0.444	0.551	0.519	0.500	0.550	0.588	0.733	0.614	0.607
250.0	37.92	77.58	178.8	250.8	895.7	 2948	 6874	 2468	220.4	11.99	10.60	9.707	7.470	6.511	5.187	4.597	4.020	3.143	3.423	3.042	2.417	2.173	2.435	2.018	1.904	1.661	1.899	1.608	1.610	1.650	1.437	1.447	1.356	1.190	1.061	1.108	0.984	0.936	1.007	0.992	0.935	0.991	1.042	0.848	0.856	0.929	0.953	1.222	1.215	1.112	0.936	1.520	2.469	5.008	8.563	12.79	14.93	12.83	7.379	2.783	0.802	0.656	0.527	0.659	0.584	0.616	0.549	0.448	0.516	0.618	0.548	0.551	0.484	0.565	0.572	0.477	0.587
255.0	33.01	53.01	94.59	258.9	333.0	696.0	 2764	 5724	 3885	286.2	13.71	11.00	10.49	8.758	5.800	4.769	4.491	4.354	4.125	3.021	2.682	2.686	2.952	2.142	2.082	1.722	1.596	1.824	1.747	1.549	1.581	1.395	1.185	1.339	1.104	0.952	1.027	0.976	0.999	1.122	1.042	1.245	1.010	0.845	1.058	0.772	0.958	0.804	1.156	1.144	1.300	1.666	1.338	1.714	2.508	3.538	5.542	12.42	21.20	22.66	11.87	2.748	0.663	0.724	0.493	0.528	0.649	0.546	0.496	0.485	0.508	0.496	0.457	0.597	0.690	0.472	0.514
260.0	30.82	46.14	55.04	156.9	330.9	246.2	680.6	 2765	 7377	 3251	169.9	13.67	9.867	8.934	5.946	4.689	4.036	4.036	3.590	2.791	3.063	2.855	2.716	2.497	2.049	2.223	2.037	1.945	1.697	1.594	1.652	1.439	1.326	1.496	1.186	1.078	1.020	0.800	0.984	0.989	0.844	1.214	0.861	0.825	0.947	0.734	1.004	0.768	0.935	0.881	1.074	1.931	1.833	1.479	1.295	1.273	1.814	3.759	9.215	20.83	30.63	22.99	8.462	1.509	0.568	0.675	0.614	0.631	0.546	0.697	0.663	0.431	0.470	0.579	0.645	0.518	0.533
265.0	38.27	40.92	50.61	64.31	268.1	322.4	211.4	721.9	 4213	 8619	 2492	61.59	12.36	9.770	8.045	4.994	4.781	3.720	4.028	2.842	2.857	3.051	2.443	2.276	2.094	1.814	2.096	2.042	1.655	1.766	1.388	1.648	1.312	1.365	1.220	1.249	1.062	0.873	1.091	1.010	1.089	1.115	0.879	0.948	0.842	0.790	0.796	0.890	0.873	0.756	0.672	1.052	1.786	2.355	1.710	1.302	0.871	1.499	2.781	6.822	16.06	29.49	35.62	21.36	5.246	0.908	0.637	0.499	0.737	0.549	0.581	0.576	0.738	0.729	0.721	0.500	0.523
270.0	58.72	51.44	64.34	39.25	95.90	303.7	364.0	254.1	 1083	 4159	 7939	 4539	174.9	15.28	9.842	6.811	5.755	4.733	4.200	3.626	3.438	3.081	2.616	2.227	2.013	2.192	2.225	1.941	1.900	1.944	1.594	1.641	1.310	1.418	1.105	1.187	1.048	0.961	1.126	1.179	1.017	0.910	1.041	0.989	0.830	1.074	0.931	1.009	0.773	0.768	0.640	0.787	1.091	1.391	1.700	2.239	1.995	1.479	1.387	2.229	4.287	8.897	17.10	26.53	34.40	30.72	16.86	4.740	0.913	0.587	0.671	0.578	0.690	0.724	0.606	0.552	0.549
275.0	95.81	94.45	93.07	56.51	48.09	109.0	362.7	490.8	336.3	990.9	 2769	 9381	 7285	213.6	13.29	8.832	7.033	5.602	4.547	4.456	3.630	3.284	2.499	2.307	2.287	1.720	2.297	1.920	2.067	1.672	1.743	1.593	1.545	1.469	1.506	1.394	1.382	0.988	1.281	1.098	1.015	1.082	0.909	1.179	1.108	1.213	0.890	0.879	1.157	0.865	0.865	0.987	1.071	0.877	1.046	1.456	2.116	3.240	2.458	1.517	1.532	2.521	4.517	6.849	10.93	22.77	44.61	48.62	24.68	4.342	0.724	0.496	0.532	0.760	0.557	0.733	0.662
280.0	120.7	143.9	135.5	77.93	48.02	56.57	169.0	608.8	429.9	322.7	742.7	 3835	9999.9	 2467	126.0	11.41	8.680	5.775	5.443	5.121	3.722	3.214	2.668	2.853	2.228	2.303	2.322	2.292	2.127	1.759	1.816	1.623	1.412	1.679	1.556	1.403	1.413	1.155	1.307	1.201	1.196	0.994	1.219	1.116	1.243	1.137	1.198	1.092	1.200	0.881	1.046	0.847	0.757	0.729	0.724	0.976	1.224	2.206	3.444	3.418	1.965	1.290	1.768	2.346	3.303	6.500	16.94	39.33	58.99	43.71	14.09	1.538	0.618	0.835	0.590	0.811	0.664
285.0	152.7	184.2	175.7	101.4	56.98	51.13	78.54	340.4	749.2	342.8	308.2	 1051	 5102	9999.9	 1817	64.05	10.24	7.595	6.255	5.351	4.073	3.852	3.071	2.505	2.983	2.497	2.491	2.148	2.260	1.762	1.904	1.620	1.232	1.338	1.587	1.601	1.494	1.177	1.380	1.156	1.005	1.110	1.305	1.208	1.381	1.554	1.421	1.284	1.442	1.198	0.940	1.033	0.818	0.754	0.846	1.046	0.895	1.260	2.308	3.344	3.935	3.059	1.491	1.710	1.807	2.704	4.747	11.13	27.30	53.85	55.56	32.81	6.145	0.986	0.721	0.795	0.569
290.0	175.2	235.5	212.3	125.1	85.82	76.78	77.57	164.7	474.0	720.0	419.9	466.3	 1403	 4688	 9292	 5786	105.3	12.83	7.806	5.457	4.800	3.929	3.346	3.109	2.624	2.710	2.214	2.504	2.166	1.656	2.173	1.883	1.650	1.602	1.693	1.591	1.600	1.358	1.412	1.523	1.296	1.328	1.471	1.303	1.608	1.399	1.571	1.406	1.281	1.170	1.020	1.045	0.822	0.896	0.928	0.985	1.098	1.121	1.507	1.705	2.751	3.621	4.334	3.306	2.250	1.919	2.382	3.737	7.486	15.02	25.47	41.17	46.51	41.63	21.90	5.658	0.879
295.0	191.4	256.6	262.3	166.3	114.1	106.1	101.8	144.6	274.2	549.6	 1070	515.4	596.7	 1255	 2795	 9997	 7537	138.8	10.46	7.168	5.296	4.800	4.187	3.637	3.236	2.695	2.524	2.512	2.183	1.873	2.009	1.965	1.612	1.751	1.872	1.696	1.811	1.824	1.487	1.459	1.688	1.191	1.438	1.591	1.393	1.640	1.522	1.361	1.454	1.298	1.134	1.152	0.838	0.976	0.956	1.082	1.192	1.206	1.219	1.455	1.807	2.025	2.710	4.236	5.380	4.010	2.339	2.770	3.358	4.749	6.728	10.55	14.13	28.47	60.72	56.80	29.69
300.0	190.1	272.4	264.8	193.9	139.8	133.3	136.8	180.0	262.7	397.8	953.4	 1120	500.6	566.2	810.1	 3514	9999.9	 5249	92.01	9.321	6.577	6.220	4.462	3.779	3.686	3.413	2.960	2.649	2.537	2.306	2.022	1.995	2.251	1.471	1.666	1.360	1.829	1.923	1.514	1.613	1.493	1.344	1.548	1.380	1.526	1.562	1.555	1.802	1.744	1.532	1.332	1.291	1.082	1.090	1.202	1.131	1.345	1.296	1.299	1.433	1.785	1.961	2.291	2.947	4.791	6.200	5.218	3.232	2.446	2.629	3.122	3.858	4.293	7.759	20.01	49.39	75.13
305.0	200.4	282.6	289.2	218.5	157.4	156.7	178.0	226.3	287.7	406.3	683.3	 1333	935.3	491.5	422.0	951.2	 4522	9999.9	 1193	51.30	8.722	6.478	5.093	5.106	3.825	3.754	3.016	2.390	2.531	2.134	2.158	1.933	2.020	1.627	1.675	1.702	1.676	1.813	1.585	1.683	1.621	1.614	1.600	1.568	1.638	1.535	1.552	1.870	1.747	1.355	1.369	1.386	1.225	1.122	1.322	1.214	1.243	1.283	1.449	1.632	1.730	1.909	2.280	2.412	3.194	4.742	6.467	5.455	3.828	2.734	2.631	2.560	2.405	2.977	5.592	13.54	32.76
310.0	213.3	281.3	316.7	244.7	185.5	200.1	223.6	271.4	355.0	446.5	611.6	919.6	 1273	893.2	441.2	410.7	 1180	 4282	 7906	 4497	75.81	9.787	6.735	5.155	4.315	3.674	3.078	2.886	2.728	2.234	2.180	2.040	1.821	1.675	1.828	1.815	1.895	1.806	1.746	1.534	1.473	1.526	1.674	1.484	1.637	1.473	1.615	1.934	1.840	1.429	1.298	1.467	1.339	1.423	1.504	1.436	1.478	1.552	1.726	1.707	2.056	2.130	2.257	2.511	2.915	3.513	4.285	5.361	6.118	5.432	3.759	2.819	2.360	2.285	2.768	4.225	8.623
315.0	226.9	317.1	353.6	279.3	225.6	228.3	246.9	317.8	410.7	507.7	647.2	788.7	969.3	 1268	800.1	375.5	447.9	 1083	 2332	 8398	 6328	101.3	9.418	6.259	5.343	3.817	3.793	3.370	2.841	2.200	2.270	1.977	2.180	2.015	2.253	1.756	1.675	1.812	1.660	1.375	1.505	1.626	1.479	1.443	1.523	1.629	1.898	1.787	1.733	1.587	1.322	1.508	1.381	1.563	1.615	1.721	1.786	1.703	1.917	2.088	2.169	2.238	2.546	2.758	3.263	3.147	3.874	3.964	4.381	5.129	6.405	5.914	3.621	2.326	2.673	2.905	3.250
320.0	245.9	352.8	441.2	361.6	290.7	269.4	282.7	362.2	433.4	562.8	688.6	835.2	883.3	 1079	 1206	553.1	345.3	408.1	640.6	 3021	9999.9	 4594	70.31	8.631	5.828	4.343	4.109	3.377	3.090	2.281	2.268	2.294	2.124	1.659	1.783	1.653	1.827	1.693	1.488	1.451	1.464	1.446	1.229	1.433	1.819	1.975	1.693	2.225	1.829	1.720	1.315	1.498	1.625	1.553	1.525	1.509	2.014	1.771	1.884	2.354	2.222	2.368	2.797	2.612	3.333	3.649	3.571	4.209	4.171	4.262	5.152	6.594	5.846	4.189	2.668	2.927	2.341
325.0	301.0	441.8	562.1	491.0	344.5	310.4	318.3	392.6	484.9	607.9	756.7	879.5	936.7	958.1	 1183	931.7	414.5	313.3	290.2	795.3	 4488	9999.9	903.8	40.60	7.777	5.273	4.298	3.859	3.135	2.912	2.409	2.245	2.076	2.109	1.855	1.660	1.718	1.677	1.526	1.639	1.466	1.299	1.394	1.589	2.109	2.294	2.129	2.503	2.672	2.168	1.677	1.669	1.726	1.816	1.689	1.696	2.035	2.178	2.042	2.410	2.616	2.721	2.632	2.937	3.570	3.736	3.879	4.087	4.232	4.063	4.464	5.251	6.328	5.976	4.561	3.398	2.197
330.0	306.2	492.4	706.9	665.5	464.0	369.2	361.8	427.2	536.0	652.2	798.9	935.2	 1002	977.2	970.5	 1030	787.4	405.7	278.4	326.7	 1138	 4163	 6536	 3566	58.75	8.748	6.142	4.558	3.549	3.203	2.560	2.589	2.007	1.986	1.981	1.793	1.656	1.776	1.663	1.664	1.634	1.958	1.936	1.752	2.098	2.330	2.457	2.920	2.842	2.848	2.277	2.309	2.089	1.931	1.744	1.899	2.246	2.296	2.354	2.471	2.650	2.695	3.154	3.341	3.771	3.841	4.133	4.077	4.424	4.335	4.555	4.770	4.715	5.290	5.690	5.618	3.897
335.0	334.2	540.7	780.0	738.7	576.7	451.7	423.2	471.2	568.6	711.6	843.3	989.3	 1060	 1042	952.3	855.0	920.0	733.4	356.3	278.6	401.5	 1039	 2106	 7828	 5226	80.69	9.594	5.642	4.576	3.357	3.265	2.647	2.104	2.396	2.019	2.074	1.911	1.525	1.647	1.860	1.741	1.871	1.746	2.105	2.100	2.194	2.657	3.205	2.899	3.416	2.828	2.804	2.328	2.365	1.824	2.401	2.369	2.451	2.370	2.525	3.129	2.943	3.429	3.462	4.298	3.957	4.506	4.197	4.521	5.086	4.897	4.751	4.653	4.540	4.624	5.020	5.951
340.0	312.7	547.0	796.0	820.8	671.6	504.6	492.7	534.4	600.4	757.0	870.4	 1010	 1070	 1085	984.9	838.2	789.5	912.4	557.5	317.6	276.5	378.0	582.2	 3092	 9328	 3832	58.74	7.553	6.020	3.806	3.460	2.717	2.741	2.534	2.214	2.053	1.625	1.825	1.611	1.714	1.582	1.573	1.800	2.074	2.097	2.294	2.741	3.122	3.522	3.333	2.952	2.995	2.724	2.849	2.374	2.509	2.673	2.556	2.487	2.905	2.965	3.098	3.383	3.548	4.088	4.085	4.535	4.745	4.861	5.088	5.275	4.754	5.290	4.385	4.760	4.857	4.633
345.0	311.5	544.3	804.4	863.4	730.1	609.6	557.2	590.1	670.8	780.1	904.9	 1004	 1091	 1106	 1010	866.4	746.1	824.8	800.7	428.9	298.7	274.9	269.2	815.3	 4582	 9195	744.5	33.02	7.794	4.801	4.456	3.214	2.841	2.390	2.347	2.184	2.065	2.057	1.732	1.712	1.617	1.674	1.786	1.744	1.994	2.421	2.803	3.403	3.630	2.989	2.988	3.448	2.985	2.643	2.392	2.719	2.715	2.697	2.879	3.025	2.923	3.481	3.864	3.923	4.019	4.467	4.318	4.450	4.478	4.710	4.892	5.010	4.994	4.535	4.945	4.995	3.897
350.0	306.1	546.0	773.7	877.9	810.6	716.1	701.9	718.8	792.0	884.0	974.1	 1044	 1132	 1138	 1050	921.1	784.1	735.7	791.5	717.6	438.9	327.9	265.8	340.2	 1184	 4205	 6012	 3021	52.10	8.858	5.676	4.007	3.047	2.518	2.383	2.115	2.265	1.822	1.732	1.726	1.945	1.807	1.893	1.706	2.095	2.313	2.713	3.118	3.420	3.139	2.853	3.301	3.368	3.067	3.086	2.830	3.230	3.217	3.232	3.720	3.656	3.896	3.843	3.957	4.230	4.222	4.505	4.609	4.777	4.980	5.051	5.341	4.983	4.854	5.103	5.016	4.165
355.0	320.3	536.2	763.1	905.3	895.0	845.2	836.8	887.1	938.2	 1030	 1080	 1141	 1169	 1157	 1104	985.2	877.0	783.4	728.9	782.7	731.1	455.5	347.0	302.7	435.1	 1057	 2175	 7513	 4415	69.62	8.532	5.135	3.859	3.150	2.761	2.368	2.132	2.076	1.810	1.912	1.938	1.846	1.900	1.870	2.241	2.352	2.664	3.049	3.349	3.273	3.034	3.673	3.420	3.499	3.396	3.409	3.483	3.931	3.946	4.215	4.216	4.563	4.115	4.184	4.227	4.520	4.526	4.876	5.709	5.048	5.791	5.018	5.539	5.473	5.682	5.184	5.009
360.0	315.2	504.0	746.0	891.3	935.4	929.7	954.5	980.5	 1070	 1110	 1148	 1201	 1200	 1195	 1145	 1036	925.8	840.6	757.2	731.9	851.7	651.6	430.5	342.1	316.5	396.1	603.7	 3270	 8762	 3175	45.72	7.035	4.660	3.534	3.070	2.198	2.298	2.341	1.969	1.903	1.854	1.830	1.832	1.854	1.986	2.489	2.479	2.833	3.270	3.632	3.300	3.750	3.947	3.964	3.418	3.508	3.809	3.845	4.390	4.988	4.484	4.256	4.951	4.999	5.434	5.025	4.912	5.216	5.620	5.459	5.585	5.634	5.555	5.344	5.933	5.077	5.489
365.0	300.7	507.7	716.9	871.1	959.8	996.3	 1017	 1065	 1140	 1191	 1226	 1251	 1223	 1208	 1186	 1069	975.0	895.0	809.7	750.9	798.2	844.1	551.0	410.7	339.1	294.2	277.1	871.7	 4792	 8524	647.2	24.92	6.054	4.324	3.355	3.066	2.582	2.262	2.113	2.140	1.837	2.006	1.801	1.981	1.967	2.579	2.479	2.903	3.216	3.238	3.311	3.811	3.955	3.890	3.631	3.934	4.561	4.223	4.771	5.014	4.816	4.909	5.068	4.942	5.353	5.181	5.276	4.975	5.717	5.427	5.818	5.891	5.615	5.469	5.833	5.324	5.329
370.0	303.5	485.2	714.9	888.9	 1004	 1086	 1101	 1167	 1234	 1283	 1311	 1305	 1288	 1253	 1209	 1118	 1035	960.3	885.2	821.7	792.3	836.8	795.6	570.3	424.6	341.5	267.8	338.2	 1240	 4318	 5813	 2600	41.17	6.252	4.529	3.423	2.936	2.384	2.255	2.196	2.041	2.121	2.051	1.952	2.242	2.360	2.656	3.118	2.952	3.151	3.286	3.716	3.993	4.455	4.102	4.530	4.776	4.789	4.914	4.699	5.157	5.012	5.482	5.077	5.619	5.333	5.573	5.582	5.765	5.756	5.366	5.761	5.812	5.704	6.159	5.992	5.886
375.0	303.8	491.7	727.3	887.1	 1030	 1151	 1204	 1218	 1294	 1361	 1396	 1374	 1325	 1288	 1239	 1155	 1068	 1026	959.2	905.9	849.1	820.4	845.9	831.1	577.0	446.2	345.5	286.0	422.7	 1061	 2330	 7531	 3609	52.42	6.839	4.261	3.552	3.312	2.720	2.323	2.274	2.034	2.018	2.251	1.974	2.794	2.489	2.698	2.999	3.177	3.057	3.717	4.150	4.135	4.265	4.534	4.977	4.971	5.194	5.214	5.591	4.987	5.887	5.737	5.771	5.838	5.744	5.826	5.998	5.922	5.726	6.081	5.267	5.863	6.245	5.804	6.064
380.0	305.5	518.0	691.9	895.7	 1042	 1171	 1257	 1273	 1314	 1386	 1436	 1407	 1381	 1309	 1244	 1165	 1106	 1051	999.2	955.4	914.8	857.1	836.5	903.7	760.5	535.1	421.3	325.8	278.4	360.8	621.6	 3566	 7977	592.5	32.29	6.284	4.046	3.426	2.808	2.363	2.476	2.222	2.128	2.106	2.380	2.383	2.503	2.898	3.191	3.025	3.097	3.715	4.038	4.631	4.488	4.469	4.847	5.029	4.855	5.112	5.556	5.183	5.796	5.864	5.653	5.699	6.196	6.232	6.215	5.873	6.098	6.040	5.816	5.827	6.212	6.187	6.243
385.0	305.9	469.6	698.4	869.9	 1074	 1185	 1252	 1270	 1342	 1416	 1433	 1439	 1385	 1314	 1236	 1172	 1123	 1079	 1036	985.3	955.6	900.6	859.9	865.3	892.6	659.3	488.8	377.2	292.0	239.5	251.7	936.3	 4787	 6729	494.8	15.64	5.539	3.989	2.816	2.888	2.160	2.527	2.382	2.363	2.386	2.500	2.419	2.693	2.663	2.948	3.105	3.696	4.561	4.786	4.886	4.758	5.274	4.912	4.883	5.347	5.954	5.501	5.617	5.637	6.165	5.944	6.018	5.457	5.722	6.486	5.886	6.191	5.925	5.802	6.030	6.318	6.089
390.0	318.7	473.2	696.6	866.1	 1078	 1182	 1254	 1305	 1369	 1422	 1424	 1435	 1377	 1315	 1233	 1175	 1139	 1090	 1065	 1025	992.7	953.2	899.3	855.0	870.0	824.0	617.8	455.6	349.7	270.1	214.9	319.6	 1238	 3825	 4760	 1812	32.32	6.121	4.155	3.279	2.630	2.471	2.348	2.337	2.689	2.527	2.455	2.726	2.965	2.920	2.997	3.646	4.068	4.550	4.734	4.824	5.211	5.098	5.212	5.410	5.586	5.315	6.123	5.803	6.193	5.994	6.048	5.622	5.974	6.467	5.625	6.104	5.915	5.803	5.728	6.559	6.484
395.0	319.0	467.0	668.4	848.8	 1027	 1158	 1252	 1327	 1385	 1408	 1431	 1428	 1346	 1312	 1235	 1157	 1134	 1101	 1084	 1052	 1019	976.1	937.3	885.6	851.0	836.2	791.2	573.6	428.3	333.5	255.9	222.9	379.0	927.0	 2043	 6100	 2764	41.23	6.068	4.163	3.164	2.726	2.612	2.541	2.504	2.767	2.500	2.962	2.929	2.898	3.083	3.958	4.306	4.681	4.656	4.975	5.078	5.336	5.040	5.581	5.909	5.548	5.809	5.436	6.060	5.743	5.646	6.018	5.989	5.953	5.919	5.531	5.936	6.088	6.094	6.479	6.828
400.0	298.7	450.0	647.2	885.0	 1019	 1157	 1227	 1311	 1364	 1406	 1434	 1398	 1330	 1296	 1221	 1156	 1119	 1106	 1081	 1056	 1032	994.8	964.0	910.2	870.8	817.7	829.1	696.2	498.4	388.1	298.7	230.3	213.1	293.7	537.4	 3065	 6303	500.0	25.42	4.703	3.463	3.332	2.743	2.266	2.440	3.117	2.632	2.896	2.756	3.235	2.997	3.681	4.037	4.723	4.685	5.169	4.975	5.192	4.860	5.226	5.914	5.849	5.867	5.766	5.495	6.020	5.893	5.738	5.590	5.721	6.119	5.141	5.669	5.807	6.295	5.892	6.553
405.0	280.7	444.8	631.0	827.8	 1009	 1164	 1224	 1309	 1356	 1395	 1388	 1365	 1306	 1272	 1219	 1156	 1100	 1086	 1068	 1045	 1026	 1007	969.9	920.6	878.4	819.8	787.6	784.4	597.4	441.3	344.7	265.2	200.7	174.1	195.6	806.0	 3947	 5612	410.7	11.31	4.660	3.560	2.730	2.634	2.809	3.048	2.770	2.799	2.921	2.964	2.968	3.877	4.032	4.229	4.593	4.408	4.691	5.419	4.953	5.305	5.269	5.590	5.375	5.471	5.196	6.110	6.308	6.132	5.832	6.016	5.799	5.854	5.775	5.753	6.046	6.007	6.252
410.0	293.1	448.3	630.4	829.2	991.6	 1128	 1203	 1288	 1330	 1361	 1376	 1341	 1290	 1246	 1178	 1112	 1079	 1060	 1046	 1035	 1006	994.0	966.6	920.7	886.2	832.2	768.6	752.1	704.6	545.7	402.6	312.8	234.3	179.4	145.4	252.0	 1023	 3356	 3958	 1498	27.61	5.047	3.466	3.105	2.960	2.836	2.672	2.874	3.068	2.998	3.122	3.572	3.660	4.165	4.366	4.456	4.991	5.128	5.123	5.438	5.673	5.695	5.521	5.449	5.295	5.426	5.858	5.691	5.715	5.780	5.648	5.974	5.402	5.666	5.833	5.921	5.914
415.0	282.3	436.0	621.6	795.0	973.3	 1084	 1150	 1262	 1297	 1326	 1329	 1324	 1255	 1184	 1136	 1081	 1030	 1021	 1002	 1001	984.8	973.4	957.6	918.6	885.5	842.7	778.0	720.3	696.3	665.0	496.0	366.6	279.1	211.2	162.6	149.5	291.2	795.0	 1734	 4842	 2171	35.32	5.297	4.027	3.346	3.023	2.779	3.072	3.066	2.744	3.017	3.671	3.442	3.893	4.017	4.287	4.844	4.887	5.079	5.090	5.127	5.719	5.328	5.553	5.591	5.379	5.411	5.490	4.933	5.788	5.182	5.663	5.547	5.408	5.486	5.790	5.967
420.0	310.1	414.7	600.1	784.1	946.2	 1035	 1122	 1247	 1275	 1305	 1301	 1278	 1221	 1166	 1106	 1041	 1015	994.7	977.3	963.2	959.2	943.6	928.8	896.6	873.7	837.2	781.5	723.2	675.6	678.6	581.8	408.7	312.9	243.5	182.7	139.7	140.2	232.3	444.7	 2494	 4953	449.8	20.79	4.763	3.439	3.462	2.886	3.037	2.967	3.099	2.975	3.723	3.343	3.933	4.471	4.225	4.771	4.728	5.053	5.313	5.340	5.094	5.486	4.949	5.412	5.118	5.293	5.845	5.093	5.538	5.386	5.301	5.501	5.310	5.957	6.291	5.806
425.0	299.5	404.1	599.1	733.2	895.0	 1047	 1132	 1222	 1270	 1276	 1287	 1224	 1179	 1134	 1055	 1004	975.0	962.3	945.5	933.6	934.1	914.4	900.2	881.8	860.7	829.1	780.0	727.4	667.6	638.4	626.4	477.4	341.9	264.1	202.9	157.5	122.0	116.5	143.1	656.7	 3157	 3613	366.2	9.071	4.381	3.664	3.046	2.996	2.983	3.086	2.748	3.370	3.776	3.983	4.332	3.953	4.461	5.160	4.677	5.182	4.441	5.605	5.359	5.353	4.973	4.908	5.453	5.303	5.161	5.317	4.942	5.047	5.306	5.218	5.240	5.651	5.456
430.0	556.5	390.3	558.7	725.6	863.8	995.3	 1077	 1182	 1223	 1229	 1249	 1214	 1137	 1088	 1021	954.9	927.6	923.9	903.1	899.3	895.9	876.0	869.9	852.3	837.9	813.5	774.2	725.1	670.1	622.7	596.0	543.3	410.6	298.4	235.6	181.5	139.4	110.5	92.46	191.0	815.0	 2322	 3265	 1273	25.29	5.249	3.777	3.284	3.229	2.963	2.903	3.509	3.614	3.700	4.110	3.993	4.580	4.619	4.897	4.820	4.854	5.048	5.342	5.310	5.071	5.025	5.516	5.204	5.219	4.959	5.078	5.218	4.890	5.106	5.090	5.305	5.274
435.0	 1364	435.3	548.8	686.4	838.9	933.7	 1029	 1124	 1177	 1208	 1209	 1172	 1092	 1031	973.1	918.0	887.9	873.3	858.5	848.1	847.9	839.1	828.1	820.6	807.0	789.8	755.8	717.9	679.8	626.4	573.7	532.7	492.8	354.4	266.0	207.4	159.4	125.7	97.40	99.30	223.4	552.3	 1385	 3932	 1869	33.37	5.571	4.103	3.361	3.007	3.073	3.322	3.501	3.675	3.610	4.091	4.459	4.370	4.705	4.733	4.888	5.013	5.138	5.034	4.875	5.003	5.337	5.208	5.428	4.684	5.215	5.263	4.594	4.762	5.350	4.920	5.458
440.0	 1906	772.0	512.8	675.9	809.2	898.8	 1006	 1106	 1168	 1170	 1176	 1145	 1081	990.8	951.5	893.1	845.8	835.6	827.5	820.3	802.2	810.1	796.1	796.4	773.3	763.6	741.5	711.5	673.1	634.0	565.9	518.0	487.4	408.1	293.2	225.3	179.5	140.2	109.9	88.09	100.9	160.6	350.8	 1986	 4222	414.6	21.11	5.368	3.533	3.023	3.134	3.716	3.320	3.454	3.832	4.027	4.216	4.472	4.750	4.951	4.852	5.538	5.005	4.858	4.846	4.519	4.892	4.765	4.727	4.940	4.678	4.850	4.944	4.707	5.372	4.816	4.623
445.0	 1687	 1653	525.8	653.0	778.5	890.8	964.6	 1062	 1127	 1143	 1148	 1107	 1042	972.7	915.0	860.5	804.1	809.0	791.1	778.9	771.1	772.8	770.0	767.5	745.9	739.7	714.7	695.6	664.5	625.7	568.2	510.7	462.6	436.9	333.1	245.3	194.4	155.1	122.2	97.44	81.01	79.69	112.5	512.8	 2624	 3324	323.5	12.18	4.808	3.332	3.147	3.333	3.362	3.720	3.463	4.320	4.075	4.249	4.482	5.014	4.827	4.946	4.616	5.191	4.979	4.838	4.567	4.843	4.294	4.544	5.107	4.844	4.434	4.524	4.406	4.764	4.670
450.0	821.2	 2609	 1137	604.2	726.7	833.2	923.6	 1017	 1079	 1101	 1091	 1053	997.4	919.8	856.6	803.5	756.2	746.7	744.3	735.3	727.4	720.2	719.0	716.0	708.2	697.6	682.2	667.1	643.7	609.9	558.8	502.0	441.0	406.6	367.7	284.1	214.1	169.8	139.6	110.7	89.87	72.38	67.54	146.7	671.4	 2096	 2913	 1219	23.15	5.040	3.847	3.732	3.741	4.012	3.580	3.734	3.981	4.093	4.690	4.794	4.398	4.927	4.744	4.900	4.743	4.667	4.207	4.780	4.396	4.225	4.614	4.418	4.473	4.352	4.631	4.342	4.716
455.0	339.2	 1801	 2968	679.7	680.8	771.9	857.3	948.9	 1004	 1056	 1038	995.3	910.4	868.7	800.1	744.9	703.7	700.9	681.6	672.3	668.0	658.0	665.8	656.9	660.9	651.5	640.6	629.5	599.7	588.6	541.2	486.9	427.1	378.2	349.7	323.3	246.5	184.6	153.0	124.5	102.9	81.55	65.73	72.59	179.6	492.4	 1158	 3570	 1805	28.32	5.157	4.521	4.115	3.737	3.440	3.717	4.123	3.918	4.345	4.583	4.271	4.755	4.624	4.933	4.343	4.279	4.054	4.454	4.557	4.473	4.475	4.310	4.605	4.039	4.998	4.314	4.217
460.0	249.3	881.1	 3645	 1198	635.2	725.5	808.8	896.2	936.8	997.0	995.1	941.1	874.3	815.1	763.4	703.8	676.2	653.1	637.3	623.3	615.0	615.2	620.9	615.7	617.4	608.1	600.5	594.2	569.9	563.2	524.0	475.3	417.1	366.1	324.9	318.1	277.2	197.8	159.1	133.1	110.4	87.11	70.58	60.18	73.46	137.2	288.6	 1681	 3701	 1189	19.82	4.990	4.548	3.797	3.947	3.597	3.682	4.004	4.128	4.279	4.423	4.498	4.516	4.531	4.188	4.118	4.109	4.217	4.043	4.095	3.754	3.981	4.122	4.203	3.952	4.754	3.913
465.0	227.0	420.8	 2770	 2460	611.7	670.2	752.5	847.6	890.2	960.6	958.2	906.0	835.2	769.2	728.1	665.5	629.2	603.3	588.2	590.3	569.4	574.6	576.5	570.1	578.9	571.4	565.1	554.2	541.8	532.6	502.5	458.8	404.1	355.9	313.2	289.1	281.9	219.9	166.5	140.2	114.4	94.60	76.19	62.61	55.28	61.27	89.67	424.2	 2117	 3332	288.0	12.24	4.790	4.280	3.744	3.650	3.925	3.584	3.754	3.710	3.772	4.105	4.214	4.204	4.175	4.168	4.039	3.929	3.794	3.740	3.538	3.624	3.956	4.289	3.674	4.497	4.070
470.0	218.4	285.2	 1236	 3297	 1014	602.5	681.4	762.3	839.3	873.1	881.0	835.6	783.9	717.0	665.9	611.3	575.0	547.3	540.2	529.9	526.1	519.2	518.8	519.6	519.8	517.3	517.0	505.5	502.1	487.1	467.3	426.3	384.4	339.9	295.7	265.4	250.4	234.2	187.6	146.1	121.2	101.7	83.31	68.13	55.86	48.76	48.26	117.4	529.6	 1703	 2208	 1162	23.47	5.145	4.225	3.701	3.686	3.541	3.598	3.454	3.590	4.044	3.684	3.858	3.795	3.674	3.658	3.744	3.452	3.639	3.421	3.392	3.444	3.616	3.704	3.583	3.728
475.0	197.0	240.3	529.5	 2058	 2475	643.6	648.3	704.3	757.2	795.8	800.1	758.4	720.4	659.7	597.3	553.5	516.0	490.8	487.1	480.4	472.2	462.2	461.5	458.0	465.6	468.7	463.4	462.1	457.6	451.5	426.3	396.4	358.1	319.5	280.6	249.3	224.6	214.0	202.8	161.3	125.0	106.6	87.19	72.19	61.35	49.02	42.97	51.57	140.2	396.9	794.8	 2389	 1388	33.20	4.601	4.253	4.053	3.419	3.463	3.748	3.512	3.401	3.488	3.614	3.455	3.665	3.573	3.667	3.469	3.531	3.489	3.210	3.643	3.493	3.313	3.148	3.040
480.0	195.8	258.0	351.7	933.6	 2932	 1017	589.9	655.7	715.5	749.3	743.8	716.8	677.5	611.1	575.5	521.2	480.8	456.2	453.6	439.2	431.8	424.1	422.4	421.6	425.1	427.0	430.4	429.4	417.5	420.9	403.0	371.9	336.3	302.5	269.2	239.5	215.5	199.2	198.5	173.0	130.8	105.5	89.77	76.83	63.09	53.52	44.42	40.27	54.91	107.0	195.6	 1020	 2618	380.1	22.09	4.547	3.788	3.569	3.259	3.601	3.474	3.271	3.617	3.462	3.266	3.325	3.467	3.715	3.127	3.125	3.066	2.967	3.185	2.978	2.734	3.123	3.145
485.0	174.8	223.7	308.8	493.5	 2193	 1958	583.6	604.7	664.0	703.7	692.3	680.9	628.2	568.2	534.4	487.6	452.5	430.2	424.1	408.7	396.7	394.4	389.4	392.1	391.1	396.6	402.0	397.9	394.5	388.0	376.2	349.2	319.0	287.3	258.1	229.7	207.2	186.5	176.7	173.8	140.4	109.5	90.98	80.30	65.21	57.55	49.36	40.46	37.47	44.39	59.80	255.1	 1389	 2304	322.9	11.88	4.134	3.770	3.531	3.522	3.499	2.977	3.809	3.074	3.141	3.219	3.264	3.169	2.993	3.448	2.701	3.103	3.156	2.960	2.903	2.951	2.753
490.0	145.9	226.3	289.0	366.6	980.3	 2446	 1450	559.5	610.7	631.1	634.9	611.7	577.6	523.0	492.7	441.0	407.3	390.9	374.0	367.2	362.0	353.4	349.6	354.9	350.1	352.8	360.2	357.4	362.5	350.1	341.5	317.0	294.2	269.2	242.0	218.1	197.5	175.3	162.2	157.3	149.8	119.5	94.15	80.63	69.43	60.48	51.16	42.86	36.13	32.09	31.49	72.13	342.4	 1114	 1885	 1031	25.39	4.504	3.843	3.450	3.129	3.162	3.188	2.910	3.097	3.153	3.321	2.848	2.870	3.019	2.682	2.681	2.914	2.767	2.806	2.713	2.769
495.0	131.2	189.4	282.8	307.2	472.7	 1513	 3255	590.9	562.6	577.4	574.7	560.5	516.5	477.5	433.1	395.5	370.3	348.0	339.2	330.3	323.1	314.8	315.9	308.5	310.4	318.4	320.4	320.5	317.9	314.3	308.5	292.2	266.8	242.7	222.1	204.3	180.9	166.5	150.3	141.6	136.8	127.1	100.8	81.74	69.14	61.88	52.64	44.38	36.85	31.53	27.11	31.17	90.10	260.0	653.0	 2076	 1378	34.18	4.598	3.779	3.277	3.285	2.827	2.911	2.730	3.136	3.152	3.240	2.722	2.308	2.581	2.461	2.476	2.808	2.739	2.876	2.540
500.0	120.3	159.7	262.2	294.2	339.8	735.0	 3397	 1091	509.2	524.2	531.2	511.8	492.1	436.9	401.0	367.0	343.5	317.6	314.7	302.2	295.5	286.5	283.6	285.1	286.2	285.8	293.3	290.3	292.2	291.3	277.3	267.8	247.8	226.1	207.2	189.9	168.5	156.6	143.0	129.8	120.5	122.3	108.5	83.78	70.60	60.25	53.79	45.26	39.12	32.49	26.61	23.99	34.25	70.24	158.6	875.0	 2412	396.3	22.58	3.901	3.910	2.841	2.897	2.896	2.774	2.908	2.728	2.687	2.473	2.256	2.248	2.438	2.247	2.262	2.534	2.600	2.424
505.0	110.2	152.2	230.3	306.6	292.0	429.9	 2347	 2034	493.9	492.8	500.7	475.8	445.6	404.1	369.5	340.8	310.3	291.6	284.8	276.9	264.1	259.7	254.0	262.6	257.0	261.2	262.1	266.7	268.3	265.1	261.3	251.1	230.0	209.7	190.1	177.6	159.9	150.6	135.8	121.5	113.1	110.0	108.9	89.20	69.34	59.68	53.75	45.41	39.83	33.87	28.32	23.16	22.75	28.46	45.41	214.6	 1250	 2211	340.2	10.59	4.059	3.409	2.782	2.754	2.593	2.583	2.341	2.412	2.112	2.141	2.135	2.490	2.164	2.092	2.328	2.101	2.359
510.0	108.0	132.4	192.6	296.4	284.2	324.3	 1013	 2578	 1059	432.6	447.1	429.3	399.1	367.2	335.1	303.0	275.3	262.7	253.9	243.2	236.0	229.8	228.4	230.2	227.1	231.7	232.1	233.1	233.1	236.5	232.0	221.2	203.0	188.8	174.4	158.7	145.5	135.4	122.2	111.5	102.7	94.67	94.91	91.28	73.61	60.26	52.46	45.44	39.48	34.52	28.97	24.16	20.79	19.62	21.11	58.01	306.0	 1066	 1690	776.8	24.78	3.961	3.054	2.815	2.711	2.524	2.410	2.126	2.041	2.120	2.113	2.157	2.106	2.079	1.973	2.072	2.120
515.0	89.63	117.7	157.4	253.9	300.0	279.4	454.7	 1583	 2378	486.1	400.1	391.4	352.9	333.4	294.7	268.7	246.8	233.5	219.9	211.4	210.8	203.0	202.3	196.0	198.8	201.0	204.7	204.9	206.2	208.0	206.0	196.9	178.1	166.7	156.2	142.3	131.2	122.5	111.9	101.7	91.77	84.55	78.95	82.21	78.71	62.86	51.19	44.38	38.86	33.57	28.68	24.58	20.83	18.48	16.52	22.84	77.20	245.5	589.2	 1763	 1071	31.36	2.954	2.906	2.710	2.268	2.472	1.995	1.784	1.958	1.863	2.130	1.828	1.918	1.800	1.935	1.709
520.0	81.67	104.5	140.4	202.9	293.6	251.5	301.6	736.6	 2834	969.9	361.4	351.5	320.0	304.0	272.0	246.7	221.1	212.9	210.1	193.4	189.2	181.1	182.5	176.3	179.7	182.1	180.6	183.4	187.2	187.3	184.0	177.6	163.2	155.2	142.1	132.9	122.7	111.9	105.0	94.19	87.34	79.26	70.35	70.24	74.22	65.44	50.68	43.30	37.20	32.91	29.32	25.19	21.51	18.23	15.58	15.70	26.09	62.74	141.5	769.7	 1893	379.6	17.64	2.793	2.569	2.312	2.200	1.804	1.950	1.858	1.854	1.956	1.842	1.630	1.811	1.706	1.748
525.0	76.96	92.56	126.5	164.3	268.6	260.0	254.1	379.4	 2112	 2023	359.8	321.0	292.5	276.9	253.5	225.6	203.3	196.5	185.7	177.1	169.8	167.3	163.2	159.1	161.9	163.0	167.3	165.2	169.4	167.7	167.3	160.6	148.6	138.4	126.5	120.0	110.6	102.2	96.08	88.31	80.75	75.24	66.47	62.86	66.04	65.95	53.51	43.27	35.11	31.69	27.30	24.34	21.48	17.87	15.61	14.59	15.13	22.08	38.98	188.2	998.9	 1661	300.8	6.706	2.611	2.482	2.029	2.159	1.819	1.742	1.752	1.787	1.441	1.592	1.590	1.669	1.699
530.0	74.07	87.01	120.4	150.9	208.8	269.1	223.9	266.9	878.8	 2649	903.5	283.0	262.6	240.6	223.7	195.7	180.5	169.2	161.4	157.1	151.4	148.0	144.5	142.5	143.8	142.7	144.3	144.2	146.3	146.0	142.9	139.9	131.0	120.1	113.1	105.9	97.60	91.58	85.70	79.34	73.36	67.56	60.33	56.80	55.36	57.00	55.15	44.46	34.90	30.67	26.15	23.42	20.77	17.98	15.73	14.16	12.60	13.24	16.28	48.48	244.2	815.5	 1255	552.3	20.81	2.474	2.019	1.944	1.795	1.618	1.695	1.594	1.390	1.503	1.526	1.403	1.575
535.0	66.43	86.47	110.5	127.0	170.4	250.1	233.4	226.0	375.7	 1512	 2324	323.5	233.1	201.9	196.7	169.8	159.7	146.8	143.3	137.1	131.0	127.6	124.8	125.6	123.5	124.3	125.5	126.1	126.7	128.3	124.0	122.0	113.8	105.6	98.62	92.02	83.90	80.19	75.76	70.64	64.36	59.68	54.38	50.74	48.11	45.50	48.84	46.18	35.71	29.26	25.35	22.34	19.08	17.52	15.74	14.53	11.79	10.97	11.10	16.85	59.85	186.9	449.7	 1303	402.3	24.60	2.457	2.291	1.880	1.645	1.389	1.507	1.481	1.378	1.389	1.439	1.434
540.0	75.70	72.84	100.1	117.5	137.6	193.8	234.1	190.7	249.6	624.6	 2820	775.5	213.0	185.9	172.7	151.9	140.4	137.1	125.7	122.8	117.7	114.6	111.9	113.5	108.8	107.9	109.0	112.3	112.7	113.5	110.0	107.6	99.36	94.78	88.87	83.78	75.37	71.98	68.48	63.22	59.01	55.03	50.59	46.37	43.02	40.09	42.36	43.83	37.58	29.49	23.75	20.53	17.90	16.41	14.66	13.40	12.13	10.27	9.740	10.28	18.45	46.17	107.6	588.5	 1334	334.3	10.54	2.123	2.021	1.597	1.382	1.468	1.415	1.416	1.499	1.426	1.311
545.0	60.65	71.71	100.6	109.5	119.7	161.2	241.7	172.5	202.5	292.2	 2016	 1805	208.4	166.9	149.6	138.7	123.1	122.5	115.6	110.1	105.3	99.11	100.3	98.57	96.45	94.28	98.36	101.5	98.78	99.24	99.71	96.86	89.50	82.97	80.88	73.35	68.70	66.45	60.95	58.64	54.27	49.62	47.02	42.55	38.48	36.94	35.74	39.81	37.54	29.76	22.70	20.21	16.87	15.85	14.25	12.82	11.98	10.23	9.850	8.136	9.269	14.52	28.20	144.5	776.1	 1188	54.78	4.113	1.894	1.536	1.411	1.447	1.393	1.322	1.318	1.244	1.140
550.0	62.90	68.41	83.53	93.53	105.9	120.1	208.0	184.9	164.9	194.2	765.5	 2461	694.7	148.5	132.1	120.3	109.3	104.7	96.07	93.30	87.07	88.38	84.19	84.79	81.27	82.81	84.01	84.67	82.79	84.87	84.61	81.20	75.25	71.17	67.67	63.56	58.64	56.90	52.57	48.95	45.83	42.96	39.46	36.47	34.02	32.30	30.39	31.25	32.94	29.84	22.47	18.34	15.55	14.11	12.95	11.82	11.36	10.22	9.067	7.570	6.831	7.519	9.926	35.82	191.3	617.8	857.4	228.0	16.16	1.617	1.368	1.458	1.205	1.233	1.224	1.154	1.324
555.0	48.35	59.17	79.52	74.65	89.80	100.1	142.5	201.2	152.1	148.2	294.7	 1304	 2039	171.4	111.8	105.3	88.60	84.94	81.57	74.65	71.75	74.34	70.75	69.59	67.43	69.17	68.79	68.86	67.02	70.35	68.25	66.14	62.52	57.84	54.83	51.12	49.24	47.40	43.20	41.19	37.74	36.58	33.58	31.84	29.41	26.08	25.46	24.62	24.28	26.09	22.65	16.96	13.62	12.39	11.47	10.55	10.01	8.781	8.581	7.071	6.649	5.569	5.794	11.48	45.54	140.5	336.5	880.0	338.8	15.35	1.570	1.438	1.122	1.230	1.030	1.088	1.106
560.0	47.49	52.37	66.58	75.56	80.79	86.12	112.3	206.6	156.0	125.4	172.4	490.6	 2459	346.6	97.84	88.08	75.14	69.85	70.02	66.15	61.50	61.03	60.30	57.40	57.26	58.42	58.60	57.12	59.49	60.76	59.64	58.05	53.18	49.32	46.57	43.93	42.13	39.77	36.08	35.40	32.55	31.76	28.93	27.20	24.96	23.85	21.57	21.05	19.57	20.76	21.57	17.14	12.07	11.22	10.10	9.052	9.525	8.244	7.908	6.767	5.733	4.801	4.917	5.631	12.94	33.70	80.28	430.9	857.9	234.8	5.023	1.275	1.274	1.149	1.103	1.050	1.149
565.0	42.43	56.72	66.89	71.17	63.65	68.30	88.19	160.5	173.7	119.6	129.6	194.8	 1711	 1377	93.41	77.73	67.90	61.37	60.66	55.41	51.69	51.42	50.63	48.20	48.71	48.35	48.40	50.57	49.58	50.26	50.25	48.29	45.46	43.20	40.22	38.14	36.00	34.11	31.66	30.76	28.13	26.76	24.63	22.62	21.73	20.57	18.42	17.78	17.07	16.81	18.14	16.41	12.75	10.18	9.209	8.388	8.351	7.131	6.915	6.491	5.637	4.894	4.422	4.325	5.247	9.978	19.99	107.5	529.2	714.9	48.93	1.955	1.462	0.956	1.140	0.955	1.097
570.0	48.35	52.69	63.98	59.63	57.89	57.84	70.64	105.8	180.1	117.4	105.9	114.5	589.7	 1996	462.4	63.12	55.19	49.21	46.84	46.22	43.50	42.17	40.30	40.23	39.40	40.42	39.77	39.77	40.12	41.49	39.73	38.59	37.23	35.11	32.56	30.81	28.37	27.95	25.90	24.36	22.69	22.13	19.66	18.51	18.37	17.10	15.58	14.62	13.30	12.94	13.40	13.99	12.37	9.722	7.714	7.374	7.091	6.368	5.891	5.710	4.803	4.698	3.951	3.683	3.634	4.464	6.526	26.07	132.7	399.8	455.9	182.5	9.600	1.092	0.979	0.994	0.920
575.0	45.93	44.31	50.80	52.85	50.49	54.91	58.77	72.35	137.9	146.9	92.29	86.25	195.5	998.4	 1594	79.80	47.07	41.28	36.68	36.47	34.88	33.12	32.21	33.54	31.57	31.96	32.61	31.42	31.86	32.38	31.64	30.80	29.21	27.01	25.98	23.74	23.03	21.62	20.55	19.85	18.60	16.91	16.12	14.97	14.44	13.10	12.79	11.92	11.05	10.31	9.738	10.03	11.15	9.967	7.396	6.561	5.988	5.851	5.370	4.585	4.491	4.298	3.690	3.277	2.987	2.802	3.287	7.628	31.36	91.48	201.5	529.2	208.7	6.448	1.166	0.927	0.974
580.0	40.61	46.21	53.82	54.13	40.73	51.71	50.34	58.22	98.22	166.5	89.52	85.55	102.9	335.7	 1956	223.7	38.55	35.83	33.99	31.06	27.96	29.05	27.16	28.26	26.16	26.90	26.70	26.61	26.67	26.20	25.66	25.00	23.91	23.43	21.60	20.08	19.21	18.18	17.21	16.35	15.39	14.27	13.21	13.08	11.64	11.48	10.26	10.49	9.935	8.755	7.889	8.152	8.977	9.569	7.478	5.576	4.862	4.862	4.583	4.135	4.055	3.768	3.581	3.091	2.625	2.565	2.571	3.399	8.820	21.82	49.23	271.7	477.0	53.05	2.641	0.960	0.909
585.0	47.12	48.22	53.79	41.34	35.05	49.35	42.09	53.16	71.08	151.7	101.7	80.27	73.90	124.6	 1278	 1003	39.44	30.10	29.54	26.88	24.37	24.13	22.51	23.70	22.23	21.05	22.16	22.00	21.96	22.55	21.54	20.29	19.83	19.80	18.15	17.51	16.18	15.33	14.91	13.60	13.51	12.37	11.17	11.18	10.26	10.01	9.207	9.066	8.411	7.338	7.032	6.512	7.130	8.143	7.465	5.500	4.992	4.350	4.345	3.781	3.625	3.109	3.181	3.061	2.632	2.285	2.112	2.622	3.643	6.157	12.67	69.62	325.6	385.7	39.78	1.445	0.777
590.0	41.68	44.30	53.53	39.89	34.46	36.39	41.16	44.39	56.74	102.5	135.1	74.56	65.05	67.07	415.7	 1459	302.6	25.93	24.32	22.56	20.53	19.77	18.71	19.38	18.48	18.43	18.52	18.65	18.37	19.17	17.18	17.23	17.08	16.28	15.03	14.43	13.27	13.33	12.54	11.33	10.79	10.03	9.493	9.023	8.607	7.987	7.430	7.414	7.038	6.156	5.780	5.547	5.072	6.179	6.340	5.321	4.368	3.756	3.689	3.279	3.032	2.780	2.672	2.879	2.578	2.195	2.042	1.981	2.196	2.589	3.912	16.90	83.70	242.8	292.2	101.6	5.123
595.0	38.54	41.35	55.21	32.67	28.14	33.02	32.53	41.97	45.27	64.30	137.0	89.77	58.74	51.97	123.7	692.8	 1098	40.83	19.23	16.88	17.54	16.61	15.57	15.77	14.68	14.78	13.98	14.66	14.55	13.92	13.87	13.53	13.06	13.10	11.92	12.14	11.31	10.49	9.709	9.125	8.459	7.733	7.001	6.577	6.972	6.608	6.326	6.032	5.565	4.946	4.688	4.507	3.916	4.128	4.696	5.096	4.315	3.427	3.072	3.022	2.786	2.330	2.309	2.239	2.440	2.270	1.988	1.611	1.602	1.688	1.892	4.715	19.42	55.60	133.9	309.5	57.40
600.0	31.73	37.68	52.62	35.45	29.40	34.60	31.37	39.56	43.91	52.36	108.4	118.1	59.82	46.29	56.26	220.9	 1357	158.8	17.52	15.11	14.09	15.27	14.40	12.73	12.23	12.38	12.42	12.45	12.42	11.60	13.13	11.50	11.12	10.98	10.22	9.887	9.575	8.574	8.570	7.896	7.570	6.564	6.619	5.874	6.210	5.606	5.626	5.116	4.653	4.315	3.916	3.933	3.228	3.496	3.237	4.230	4.768	3.420	2.876	2.786	2.537	2.276	1.866	2.052	1.873	2.370	1.745	1.731	1.889	1.605	1.411	2.027	5.170	13.27	33.49	174.8	269.2
605.0	32.77	37.90	40.63	39.48	31.81	28.43	34.81	34.61	41.88	49.78	77.87	129.0	63.46	45.32	39.11	72.32	875.8	689.2	18.42	13.58	11.86	13.40	11.47	10.33	9.744	11.06	11.90	10.25	11.22	10.56	10.67	9.915	10.17	8.534	8.939	8.651	7.747	7.319	7.101	6.615	5.996	5.545	5.850	5.443	5.774	4.533	4.735	4.250	4.209	3.596	3.556	3.407	3.337	3.175	2.515	3.253	4.325	3.488	2.571	2.208	2.280	1.639	1.989	1.826	1.775	2.129	1.573	1.508	1.432	1.457	1.346	1.380	1.780	3.785	8.177	46.63	197.6
610.0	32.61	36.00	36.65	38.70	26.25	26.99	30.81	33.46	35.62	45.17	60.00	114.0	84.43	45.08	36.01	36.45	277.1	 1020	205.8	12.18	10.52	9.961	9.471	9.298	8.462	8.485	8.953	8.680	8.905	8.678	8.891	7.749	8.173	7.684	7.392	6.973	6.737	6.535	6.145	5.609	4.729	4.864	4.450	4.454	4.377	4.240	3.983	3.467	3.281	3.238	2.851	2.607	2.746	2.458	2.167	2.356	3.186	3.453	2.756	2.014	1.982	1.644	1.555	1.713	1.461	1.514	1.674	1.730	1.487	1.289	1.164	1.108	1.218	1.580	2.560	11.19	52.22
615.0	30.00	28.30	32.55	34.96	23.50	27.25	26.96	30.21	33.96	38.93	52.41	77.92	110.4	49.97	34.54	26.48	76.14	494.3	792.3	23.94	9.177	8.637	8.222	7.282	6.518	7.477	7.970	6.915	7.732	7.066	7.222	6.441	6.418	6.029	6.078	5.472	5.304	5.084	5.001	3.963	4.013	3.927	4.014	3.667	3.438	2.936	3.329	2.818	2.964	2.700	2.066	2.627	2.259	1.926	2.079	2.122	2.290	2.764	2.497	1.900	2.001	1.641	1.333	1.522	1.357	1.506	1.289	1.512	1.459	1.165	0.988	0.956	0.996	1.053	1.284	3.077	12.13
620.0	35.33	31.57	35.50	34.65	22.38	26.69	27.44	25.95	30.17	35.43	47.28	60.97	103.0	61.08	34.73	23.25	30.16	156.1	998.6	121.7	8.711	7.278	6.992	6.313	6.697	5.914	5.808	6.096	6.371	5.875	6.051	5.839	5.683	4.724	5.259	4.820	5.096	4.355	3.740	3.591	3.320	3.156	3.466	3.176	2.704	2.778	2.958	2.550	2.403	2.371	2.023	2.249	1.965	1.584	1.737	1.663	1.753	2.126	2.587	2.189	1.648	1.462	1.362	1.268	1.256	1.374	1.237	1.233	1.486	1.162	1.045	1.038	0.936	1.074	0.840	1.261	3.252
625.0	29.23	27.75	27.58	32.96	23.87	27.20	27.20	29.59	32.19	34.75	44.09	54.93	88.37	75.37	34.60	24.68	20.69	47.07	645.2	528.4	8.927	6.537	5.896	5.593	5.844	4.769	4.960	4.569	5.156	5.299	5.019	5.023	4.702	4.088	3.946	3.781	3.827	3.909	3.207	3.397	3.118	2.967	3.027	2.738	2.472	2.480	2.099	2.361	2.043	1.879	1.731	1.894	1.694	1.464	1.660	1.506	1.527	1.594	2.135	2.101	1.600	1.237	1.487	1.051	1.217	1.338	1.094	1.145	1.163	1.462	1.068	0.762	0.896	0.672	0.890	0.830	1.228
630.0	29.91	32.65	27.40	29.30	24.69	23.96	22.68	26.53	30.96	35.98	43.49	47.41	61.89	86.22	38.07	23.90	18.20	20.88	200.2	776.9	92.34	6.097	5.313	4.694	4.371	4.744	4.184	4.573	4.153	4.321	4.416	4.080	4.070	3.430	3.327	3.543	3.134	3.150	3.061	2.616	2.727	2.449	2.561	2.385	2.212	2.041	1.805	2.051	1.845	1.451	1.470	1.542	1.365	1.250	1.272	1.256	1.367	1.269	1.539	2.055	1.607	1.382	1.196	0.915	1.022	1.125	1.087	1.057	0.877	1.274	1.085	0.962	0.869	0.769	0.703	0.706	0.857
635.0	24.40	34.58	25.83	28.56	24.40	23.64	20.07	27.11	29.76	34.52	40.77	43.96	49.44	75.97	56.60	23.95	18.23	15.07	53.97	372.4	591.8	15.73	4.934	3.959	3.942	3.470	3.551	2.948	3.905	3.055	3.425	3.455	3.341	3.050	2.911	2.694	2.739	2.671	2.309	2.040	2.066	2.166	1.932	1.900	1.747	1.737	1.591	1.447	1.481	1.210	1.247	1.060	1.283	1.183	1.215	1.078	1.260	1.262	1.182	1.489	1.303	1.238	1.095	0.853	1.002	0.760	0.888	0.862	0.867	0.883	1.107	1.183	0.781	0.837	0.763	0.669	0.664
640.0	28.70	31.46	30.86	29.20	18.36	23.31	22.48	25.58	28.12	32.51	45.18	42.11	47.26	59.36	67.47	27.08	18.32	14.35	19.72	113.1	753.6	98.10	4.057	3.319	3.448	3.146	3.241	3.370	3.281	3.161	3.223	2.601	3.069	2.811	2.422	2.304	2.186	2.087	2.311	1.865	1.678	1.819	1.884	1.642	1.413	1.669	1.811	1.190	1.266	1.226	1.136	1.190	1.001	1.138	1.079	0.957	1.118	1.054	0.848	1.329	1.224	1.259	1.084	1.086	0.869	0.847	0.801	0.906	0.932	0.796	0.919	1.031	0.852	0.645	0.588	0.808	0.717
645.0	31.51	29.47	28.82	36.33	26.71	20.41	20.84	25.40	27.41	31.22	41.73	46.14	46.81	46.51	67.53	33.42	17.38	12.81	12.35	32.97	504.7	402.4	6.223	3.312	3.316	2.898	3.372	2.485	2.871	2.441	2.988	2.686	2.591	2.421	1.934	2.346	2.325	1.937	1.761	1.541	1.635	1.774	1.806	1.499	1.348	1.272	1.385	1.090	1.283	1.084	0.991	0.906	0.896	0.986	0.999	1.083	0.990	1.043	0.767	1.003	1.153	1.220	1.281	1.104	0.754	0.880	0.691	0.782	0.882	0.844	0.828	0.924	0.949	0.771	0.843	0.737	0.618
650.0	44.02	33.89	31.99	30.75	24.81	16.39	22.31	25.19	27.46	29.70	41.28	41.27	43.05	42.71	56.25	41.20	18.63	14.84	12.16	13.72	186.6	638.6	36.30	2.976	2.935	2.640	2.885	2.265	2.679	2.346	2.791	2.272	2.290	2.059	1.971	2.093	2.043	1.578	1.621	1.302	1.380	1.498	1.344	1.100	1.162	1.202	1.033	0.886	1.287	0.989	0.877	0.990	0.745	0.982	0.811	0.800	1.020	1.014	0.858	0.889	0.783	1.064	1.112	1.161	0.694	0.737	0.821	0.918	0.820	0.776	0.877	0.810	0.864	0.972	1.040	0.658	0.471
