Sample:	'1
File name:	H2025090807Õ‰πµ∫”»Î–Â’Î∫”.FD3
Run date:	'11:22:09, 09/10/2025
Operator:	Administrator
Comment:	'

Instrument
Model:	F-2700 FL Spectrophotometer
Serial number:	23C7-003
ROM Version:	4J14000 07

Instrument parameters
Measurement type:	3-D scan
Data mode:	Fluorescence
EX  Start WL:	220.0 nm
EX  End WL:	600.0 nm
EX Sampling interval:	5.0 nm
EM  Start WL:	230.0 nm
EM  End WL:	650.0 nm
EM Sampling interval:	5.0 nm
Scan speed:	12000 nm/min
EX Slit:	5.0 nm
EM Slit:	5.0 nm
PMT Voltage:	700 V
Response:	Auto 
Corrected spectra:	Off
Contour interval:	50.000

Peak integration
Integration method:	Rectangular
Sensitivity:	1
Threshold:	1.000

Peaks
No.	ApexEX/EM(nm)	Height(Data)
1	225.0/560.0	62.54
2	225.0/590.0	54.57
3	230.0/345.0	793.6
4	230.0/375.0	730.6
5	240.0/395.0	762.9
6	245.0/400.0	772.4
7	250.0/545.0	147.2
8	255.0/280.0	324.2
9	255.0/420.0	745.8
10	255.0/560.0	124.4
11	260.0/570.0	99.67
12	265.0/585.0	96.12
13	270.0/300.0	1029
14	270.0/595.0	96.48
15	275.0/305.0	1267
16	275.0/395.0	725.4
17	275.0/610.0	93.11
18	280.0/310.0	1190
19	280.0/365.0	709.0
20	280.0/380.0	715.7
21	280.0/620.0	78.82
22	285.0/635.0	52.42
23	305.0/345.0	458.1
24	310.0/350.0	420.3
25	315.0/355.0	434.0
26	320.0/365.0	452.0
27	510.0/280.0	2.213
28	515.0/285.0	2.373
29	535.0/270.0	35.29
30	545.0/300.0	5.470
31	550.0/305.0	6.237
32	560.0/310.0	6.236
33	565.0/315.0	5.797
34	575.0/290.0	55.41
35	575.0/320.0	5.117

Data points
	220.0	225.0	230.0	235.0	240.0	245.0	250.0	255.0	260.0	265.0	270.0	275.0	280.0	285.0	290.0	295.0	300.0	305.0	310.0	315.0	320.0	325.0	330.0	335.0	340.0	345.0	350.0	355.0	360.0	365.0	370.0	375.0	380.0	385.0	390.0	395.0	400.0	405.0	410.0	415.0	420.0	425.0	430.0	435.0	440.0	445.0	450.0	455.0	460.0	465.0	470.0	475.0	480.0	485.0	490.0	495.0	500.0	505.0	510.0	515.0	520.0	525.0	530.0	535.0	540.0	545.0	550.0	555.0	560.0	565.0	570.0	575.0	580.0	585.0	590.0	595.0	600.0
230.0	34.94	798.3	2636	1119	48.35	6.506	5.455	4.593	4.499	3.984	3.686	3.311	3.181	2.643	2.412	1.929	1.868	1.727	1.433	1.400	1.297	1.218	1.212	0.983	1.004	0.888	0.847	0.788	0.778	0.751	0.652	0.635	0.622	0.558	0.594	0.470	0.470	0.448	0.411	0.403	0.440	0.494	0.599	0.510	0.342	0.373	1.057	5.054	9.904	8.586	3.536	0.777	0.303	0.274	0.290	0.279	0.239	0.307	0.297	0.278	0.310	0.253	0.305	0.274	0.285	0.276	0.247	0.281	0.284	0.321	0.306	0.318	0.303	0.293	0.331	0.287	0.312
235.0	85.43	217.3	1268	2662	1338	86.45	7.206	6.101	4.802	4.233	3.645	3.651	3.083	2.585	2.354	2.112	2.057	2.023	1.591	1.586	1.330	1.169	1.240	1.135	1.046	0.799	0.896	0.711	0.900	0.788	0.618	0.613	0.498	0.551	0.584	0.486	0.469	0.416	0.423	0.428	0.449	0.344	0.537	0.575	0.594	0.519	0.503	1.458	3.408	6.372	9.056	10.54	5.673	1.342	0.316	0.302	0.239	0.355	0.284	0.274	0.287	0.237	0.250	0.288	0.280	0.281	0.256	0.285	0.308	0.314	0.317	0.307	0.259	0.296	0.313	0.282	0.325
240.0	126.9	117.0	337.6	1711	3150	393.7	39.76	6.855	5.481	4.474	4.094	3.703	3.749	3.015	2.622	2.042	1.893	1.800	1.669	1.522	1.413	1.159	1.111	1.192	1.081	0.938	0.778	0.832	0.746	0.746	0.641	0.672	0.530	0.572	0.501	0.411	0.404	0.449	0.446	0.442	0.450	0.378	0.414	0.492	0.645	0.704	0.501	0.607	1.082	1.868	4.411	10.68	14.93	11.01	4.359	0.724	0.317	0.386	0.350	0.289	0.328	0.227	0.295	0.256	0.235	0.335	0.266	0.237	0.307	0.318	0.303	0.308	0.340	0.281	0.328	0.290	0.336
245.0	72.74	142.4	129.2	489.3	2440	2977	311.3	17.09	6.776	4.937	5.118	4.203	3.627	3.332	2.654	2.629	2.224	1.857	1.886	1.508	1.227	1.274	1.227	1.167	1.058	0.998	0.691	0.729	0.873	0.764	0.629	0.729	0.599	0.547	0.504	0.452	0.406	0.499	0.429	0.394	0.417	0.347	0.411	0.351	0.437	0.557	0.659	0.748	0.624	0.700	1.231	3.568	9.161	16.19	17.25	9.655	2.862	0.438	0.317	0.338	0.300	0.316	0.306	0.239	0.277	0.310	0.306	0.299	0.311	0.308	0.286	0.275	0.308	0.291	0.278	0.267	0.302
250.0	34.31	87.54	155.4	183.0	683.4	2302	3223	1145	85.98	7.481	6.429	5.147	4.177	3.409	3.126	2.405	2.444	1.980	2.001	1.610	1.438	1.494	1.314	1.049	1.053	1.047	0.831	0.799	0.811	0.791	0.813	0.696	0.656	0.557	0.531	0.490	0.468	0.472	0.457	0.431	0.440	0.393	0.351	0.357	0.375	0.381	0.482	0.658	0.749	0.752	0.710	1.149	2.388	5.308	9.643	14.18	17.96	15.84	9.080	2.733	0.537	0.361	0.330	0.287	0.297	0.312	0.289	0.359	0.312	0.297	0.283	0.269	0.365	0.276	0.284	0.265	0.359
255.0	22.35	35.02	80.99	196.1	224.7	543.9	1935	5171	1713	107.7	8.361	6.433	5.194	4.098	3.283	2.812	2.361	2.202	1.996	1.965	1.619	1.477	1.279	1.074	0.985	1.077	0.994	0.910	0.873	0.868	0.805	0.603	0.687	0.601	0.558	0.578	0.477	0.491	0.430	0.404	0.324	0.435	0.419	0.419	0.344	0.368	0.342	0.415	0.415	0.701	0.884	1.082	1.010	1.442	2.447	3.523	7.059	16.44	27.95	23.84	14.15	2.966	0.455	0.280	0.369	0.394	0.278	0.277	0.292	0.342	0.287	0.251	0.325	0.289	0.291	0.298	0.308
260.0	22.22	22.61	31.55	134.0	203.3	166.7	508.3	3300	6261	1380	63.72	7.960	6.423	5.058	4.049	3.188	2.728	2.120	1.969	1.945	1.533	1.472	1.457	1.151	1.120	0.980	0.930	1.031	0.873	0.809	0.861	0.765	0.745	0.534	0.563	0.505	0.450	0.488	0.427	0.373	0.356	0.405	0.461	0.430	0.347	0.390	0.329	0.290	0.296	0.407	0.510	1.144	1.334	0.918	0.825	1.031	1.915	4.597	12.63	26.99	37.17	23.16	9.876	1.345	0.366	0.378	0.325	0.354	0.323	0.281	0.368	0.303	0.327	0.281	0.296	0.283	0.406
265.0	24.28	20.01	20.10	52.48	187.1	179.9	139.6	933.2	4907	6907	1055	25.61	8.032	5.549	4.530	3.488	2.946	2.229	2.135	1.899	1.668	1.490	1.525	1.167	1.218	1.083	0.991	1.008	1.012	0.888	0.784	0.796	0.727	0.586	0.597	0.504	0.522	0.450	0.489	0.453	0.356	0.417	0.390	0.350	0.389	0.390	0.333	0.327	0.288	0.286	0.353	0.630	1.085	1.419	1.112	0.671	0.793	1.368	3.229	8.368	21.64	38.88	43.29	19.72	5.293	0.593	0.337	0.391	0.307	0.377	0.290	0.305	0.301	0.271	0.323	0.312	0.401
270.0	31.26	25.25	19.22	23.06	75.12	198.8	184.9	248.2	1359	5027	7719	2919	63.88	8.914	6.114	4.323	3.393	2.637	2.432	2.051	2.130	1.570	1.467	1.526	1.371	1.188	1.120	1.051	1.050	0.916	0.889	0.885	0.740	0.622	0.586	0.602	0.564	0.494	0.511	0.450	0.416	0.450	0.439	0.427	0.424	0.403	0.333	0.380	0.333	0.300	0.295	0.402	0.515	0.876	1.180	1.334	1.257	0.885	1.048	2.175	5.458	11.98	23.36	35.29	34.31	34.72	12.33	4.653	0.632	0.402	0.302	0.341	0.357	0.305	0.307	0.321	0.320
275.0	57.28	40.09	30.45	21.32	28.94	78.56	245.5	228.6	344.8	1194	4268	9999.9	4083	74.89	9.064	5.644	4.209	3.216	2.643	2.316	1.904	1.660	1.686	1.592	1.377	1.294	1.083	1.052	1.014	0.963	1.015	0.971	0.844	0.676	0.802	0.697	0.665	0.608	0.550	0.460	0.517	0.489	0.548	0.427	0.495	0.417	0.405	0.359	0.396	0.357	0.347	0.301	0.349	0.481	0.519	0.792	1.538	1.724	1.479	1.093	1.610	3.104	5.588	8.493	13.11	34.44	59.25	55.74	18.65	3.895	0.548	0.380	0.399	0.423	0.326	0.408	0.311
280.0	87.62	71.02	55.04	31.78	26.45	37.59	142.3	324.2	201.6	318.8	1145	6891	9999.9	874.5	41.24	8.070	5.554	4.158	3.200	2.672	2.099	2.005	1.779	1.623	1.548	1.358	1.176	1.109	1.134	1.082	0.886	0.830	0.728	0.770	0.805	0.774	0.704	0.724	0.593	0.714	0.519	0.555	0.543	0.554	0.594	0.546	0.481	0.484	0.485	0.374	0.350	0.312	0.339	0.456	0.432	0.489	0.848	1.342	2.213	1.778	1.110	1.052	1.711	2.417	3.393	9.306	25.35	56.00	74.11	27.07	12.30	1.484	0.415	0.373	0.365	0.414	0.340
285.0	133.2	118.9	96.41	56.14	35.83	34.67	71.72	254.3	349.7	190.1	369.5	2009	9264	7340	608.0	18.35	6.874	4.958	3.791	3.031	2.393	2.030	2.007	1.810	1.516	1.408	1.129	1.409	1.070	1.111	0.898	0.881	0.898	0.709	0.876	0.811	0.747	0.730	0.670	0.621	0.598	0.573	0.582	0.702	0.655	0.624	0.541	0.614	0.568	0.487	0.431	0.419	0.417	0.440	0.408	0.415	0.533	0.766	1.369	2.373	2.264	1.324	1.010	1.191	1.488	2.834	6.614	16.64	40.16	69.92	74.59	22.72	5.986	0.719	0.406	0.472	0.407
290.0	248.1	245.8	199.6	115.2	67.81	57.45	77.61	151.9	365.4	475.0	369.9	738.4	2721	7459	8637	2109	36.92	7.522	5.189	3.776	3.136	2.636	2.041	1.826	1.735	1.600	1.330	1.218	1.261	1.125	1.035	0.945	0.855	0.808	0.877	0.960	0.914	0.916	0.830	0.743	0.710	0.776	0.793	0.910	0.883	0.918	0.902	0.924	0.922	0.707	0.573	0.522	0.517	0.522	0.492	0.524	0.599	0.700	0.884	1.405	1.998	2.621	2.632	2.284	1.684	2.058	2.985	5.134	10.71	21.19	39.68	55.41	46.96	50.87	13.83	5.529	0.856
295.0	372.0	402.5	338.5	187.4	112.8	93.57	110.9	163.0	290.1	606.5	805.8	691.7	1046	1964	5170	9999.9	2950	44.30	7.745	5.231	4.140	3.082	2.397	2.168	1.935	1.787	1.488	1.302	1.268	1.317	1.092	0.822	0.816	0.977	1.026	1.121	1.182	1.123	0.939	0.875	0.903	0.843	1.043	0.975	1.065	1.236	1.148	1.344	1.321	0.956	0.792	0.760	0.695	0.733	0.651	0.640	0.749	0.762	0.952	1.134	1.392	1.937	2.963	4.084	4.129	3.396	3.131	3.419	4.806	6.813	10.52	13.90	16.80	46.56	83.29	83.59	21.83
300.0	451.9	509.3	437.7	242.0	147.0	122.1	142.4	200.4	311.9	544.5	1029	946.1	791.9	771.1	1416	7351	9999.9	511.5	26.68	6.924	5.044	3.649	2.843	2.208	2.070	1.831	1.680	1.451	1.262	1.217	1.080	0.954	1.015	0.983	1.091	1.339	1.442	1.159	1.139	1.055	0.910	0.952	1.085	1.251	1.292	1.384	1.510	1.607	1.533	1.231	0.961	0.906	0.787	0.792	0.812	0.748	0.929	0.909	1.103	1.305	1.530	1.942	2.565	3.396	4.919	5.470	4.639	3.689	4.044	3.942	4.340	4.635	5.039	12.11	31.39	74.20	102.9
305.0	497.9	575.4	500.1	287.2	177.2	147.2	170.9	242.8	354.2	552.9	951.2	1267	892.8	571.2	500.9	2019	9449	9630	375.4	13.40	6.253	4.500	3.245	2.546	2.329	2.018	1.724	1.480	1.432	1.428	1.227	1.091	1.008	1.029	1.227	1.384	1.516	1.297	1.201	1.247	1.036	1.264	1.183	1.249	1.233	1.497	1.799	1.686	1.606	1.411	1.025	0.967	1.013	0.860	0.942	0.958	1.068	1.155	1.249	1.447	1.848	2.240	2.651	3.250	4.228	5.400	6.237	5.423	4.737	3.862	3.418	2.831	2.625	3.802	7.939	20.26	49.36
310.0	529.9	616.7	537.0	320.5	194.9	166.3	198.3	273.0	387.8	582.0	851.7	1162	1190	667.9	345.9	564.7	2509	7513	7135	1557	26.76	6.358	4.406	3.286	2.891	2.073	1.843	1.725	1.478	1.462	1.309	1.126	0.957	1.070	1.141	1.443	1.505	1.412	1.325	1.213	1.128	1.259	1.241	1.303	1.483	1.536	1.809	1.907	1.761	1.436	1.157	1.142	1.098	0.915	0.995	1.016	1.202	1.344	1.417	1.666	1.943	2.287	2.613	3.281	3.806	4.488	5.151	5.877	6.236	5.463	3.993	2.757	2.311	2.080	2.759	5.343	12.08
315.0	534.5	634.0	552.6	329.7	218.4	183.9	219.2	289.8	404.1	593.1	816.0	994.0	1079	938.9	410.5	276.1	644.9	1754	4376	9999.9	2270	31.05	6.423	4.575	3.349	2.563	2.016	2.019	1.678	1.581	1.439	1.200	1.063	1.263	1.159	1.382	1.396	1.373	1.314	1.085	1.198	1.284	1.275	1.361	1.600	1.676	1.765	1.913	1.830	1.569	1.251	1.291	1.122	0.982	1.028	1.131	1.292	1.489	1.587	1.719	1.961	2.412	2.681	3.129	3.549	4.059	4.351	4.811	5.215	5.797	5.691	4.269	2.840	2.104	1.869	2.238	3.660
320.0	541.3	664.0	564.0	351.6	229.4	201.6	233.6	304.6	413.4	589.0	796.5	928.9	941.9	926.0	604.2	257.4	249.4	453.2	1107	6449	9810	379.5	19.92	5.786	4.189	2.955	2.500	2.102	1.886	1.589	1.433	1.348	1.155	1.163	1.265	1.290	1.346	1.372	1.277	1.126	1.167	1.278	1.321	1.401	1.515	1.832	1.878	2.175	1.963	1.611	1.410	1.240	1.186	1.015	1.205	1.183	1.260	1.330	1.597	1.687	1.983	2.406	2.603	3.300	3.387	4.007	4.120	4.229	4.520	4.807	5.014	5.117	4.615	2.673	1.918	1.807	1.899
325.0	563.5	719.0	630.8	402.6	255.9	219.0	250.0	314.6	421.7	582.3	777.2	900.4	888.0	772.5	740.0	373.2	193.1	184.1	301.3	1710	7949	7777	293.4	10.34	5.309	3.470	2.894	2.233	2.097	1.796	1.709	1.279	1.200	1.172	1.236	1.138	1.388	1.392	1.129	1.115	1.111	1.090	1.214	1.641	1.677	1.990	2.108	2.182	2.141	1.776	1.482	1.454	1.276	1.124	1.219	1.227	1.393	1.493	1.706	1.857	2.126	2.499	2.717	3.136	3.319	3.808	3.968	4.305	4.428	4.317	4.152	4.165	4.586	4.209	2.896	2.073	1.633
330.0	572.1	744.6	706.9	480.1	307.7	257.4	272.8	332.4	425.2	575.5	747.6	858.7	854.5	712.1	612.7	547.9	319.0	165.4	149.1	439.3	2079	6018	5779	1328	22.69	5.200	3.782	2.746	2.402	1.870	1.833	1.436	1.289	1.166	1.236	1.217	1.390	1.329	1.202	1.165	1.133	1.250	1.320	1.527	1.644	1.971	2.273	2.418	2.529	2.176	1.791	1.664	1.443	1.254	1.344	1.298	1.403	1.565	1.761	1.862	2.060	2.392	2.670	3.031	3.398	3.666	3.919	3.954	4.193	4.062	3.882	3.666	3.704	3.812	3.904	3.578	2.867
335.0	571.7	745.4	745.5	541.5	375.1	312.3	318.5	357.8	436.9	569.2	713.2	822.8	819.6	701.2	558.5	477.2	499.5	278.3	149.2	181.7	524.6	1408	3476	8895	2091	28.18	5.627	3.786	2.900	2.186	1.955	1.674	1.411	1.218	1.293	1.233	1.240	1.336	1.223	1.284	1.156	1.312	1.338	1.430	1.593	2.078	2.316	2.537	2.653	2.292	1.853	1.835	1.752	1.418	1.456	1.555	1.557	1.529	1.898	1.992	2.221	2.463	2.456	3.259	3.338	3.639	3.773	3.834	3.998	4.024	4.037	3.668	3.496	3.164	3.072	3.418	4.109
340.0	593.9	770.5	774.5	595.1	424.9	355.3	355.8	390.4	455.8	564.9	687.8	786.6	790.6	698.8	571.7	451.7	453.3	431.4	207.3	148.3	201.4	374.3	887.1	5360	8533	343.4	19.16	4.977	3.666	2.647	2.110	1.929	1.596	1.351	1.288	1.235	1.278	1.285	1.377	1.215	1.170	1.283	1.365	1.644	1.670	2.078	2.174	2.831	2.954	2.414	2.034	1.808	1.878	1.745	1.502	1.583	1.701	1.684	1.971	1.985	2.142	2.317	2.537	3.101	3.412	3.530	3.791	3.780	3.932	4.173	3.814	3.635	3.464	3.218	3.105	3.243	3.227
345.0	582.6	745.0	793.6	626.4	465.4	395.4	387.5	418.4	466.6	555.4	667.7	754.7	768.2	691.2	577.7	464.1	402.0	458.1	338.4	183.4	156.2	166.2	257.8	1414	6449	6929	284.9	10.47	4.750	3.203	2.529	2.061	1.522	1.536	1.386	1.331	1.329	1.361	1.368	1.274	1.223	1.308	1.420	1.523	1.707	2.119	2.249	2.598	2.736	2.348	2.216	2.220	2.018	1.963	1.786	1.819	1.911	2.086	2.101	1.977	2.205	2.292	2.620	2.888	3.241	3.381	3.585	3.551	3.782	4.008	3.967	3.695	3.620	3.543	3.141	3.200	3.028
350.0	570.4	719.1	762.0	649.8	524.0	464.3	446.4	451.7	485.7	558.2	643.1	718.2	737.9	684.2	593.4	492.5	421.3	399.5	420.3	329.4	204.0	161.8	153.0	383.7	1679	4781	5961	1240	21.61	4.952	3.341	2.362	1.955	1.650	1.416	1.299	1.281	1.285	1.196	1.244	1.249	1.368	1.391	1.464	1.689	1.973	2.128	2.433	2.722	2.436	2.122	2.366	2.267	2.163	2.087	2.044	2.037	2.152	2.257	2.281	2.310	2.545	2.621	2.825	2.916	3.185	3.429	3.368	3.643	3.854	3.892	3.633	3.696	3.476	3.279	3.363	3.110
355.0	545.4	697.9	744.8	676.9	575.2	529.8	507.7	495.8	519.5	577.9	638.6	693.9	714.3	682.3	614.8	528.8	468.2	417.5	395.1	434.0	341.8	218.5	173.1	189.0	446.3	1126	2788	7004	2043	27.41	4.932	3.245	2.478	2.042	1.606	1.324	1.276	1.305	1.197	1.338	1.309	1.382	1.489	1.481	1.591	2.038	2.085	2.407	2.657	2.437	2.192	2.488	2.563	2.487	2.507	2.305	2.374	2.371	2.532	2.578	2.536	2.626	2.665	2.887	3.144	3.155	3.498	3.397	3.724	3.838	3.710	3.954	3.648	3.713	3.435	3.632	3.319
360.0	523.9	692.7	721.7	689.1	600.7	584.2	542.5	535.0	543.7	592.4	647.2	692.1	707.1	681.2	633.4	562.5	507.6	456.6	416.7	420.4	446.7	304.4	212.8	174.9	194.5	318.0	702.0	3848	7187	329.8	18.54	4.147	2.956	2.168	1.733	1.543	1.509	1.485	1.334	1.285	1.279	1.293	1.427	1.535	1.688	1.971	2.194	2.277	2.555	2.592	2.210	2.538	2.600	2.553	2.542	2.329	2.611	2.417	2.539	2.628	2.685	2.576	2.946	2.886	3.129	3.138	3.232	3.257	3.573	3.573	3.696	3.823	3.571	3.803	3.542	3.671	3.683
365.0	547.6	667.0	718.6	695.9	633.3	620.8	590.4	573.2	583.7	614.0	662.2	693.7	709.0	686.5	648.4	590.0	542.9	496.8	451.5	424.5	452.0	415.9	269.4	202.8	164.0	158.5	216.2	999.2	4894	6252	287.9	10.31	3.770	2.733	1.841	1.824	1.560	1.638	1.424	1.374	1.390	1.371	1.453	1.370	1.729	2.129	2.005	2.422	2.474	2.483	2.255	2.652	2.855	2.590	2.800	2.529	2.649	2.589	2.729	2.705	2.761	2.798	3.040	3.039	3.167	3.357	3.185	3.351	3.477	3.658	3.708	3.707	3.942	3.863	3.745	3.782	3.904
370.0	521.5	653.2	717.1	703.4	669.1	663.7	639.9	618.0	620.2	642.1	674.2	697.7	705.1	694.0	661.8	616.4	580.9	541.2	504.9	468.3	445.3	454.5	396.1	271.3	200.5	156.9	136.7	284.7	1251	3899	5327	1193	19.84	4.000	2.493	2.107	1.762	1.595	1.488	1.376	1.434	1.434	1.495	1.513	1.756	1.905	2.060	2.427	2.445	2.420	2.418	2.767	2.903	2.762	2.979	2.705	2.850	2.829	2.823	2.980	3.015	2.983	2.999	3.025	3.149	3.187	3.288	3.380	3.556	3.631	3.645	3.904	3.890	3.930	3.945	3.835	4.194
375.0	511.8	655.1	730.6	726.9	704.2	698.7	684.7	665.9	649.0	665.1	686.8	707.9	707.6	699.2	673.0	643.1	610.5	581.9	553.8	515.1	476.8	449.1	445.1	391.5	260.3	192.1	150.1	150.8	340.0	916.0	2170	5887	1984	25.63	3.873	2.759	2.083	1.772	1.525	1.426	1.497	1.473	1.544	1.546	1.703	1.879	2.057	2.319	2.546	2.435	2.333	2.730	3.027	2.991	3.058	3.079	3.165	3.081	2.885	3.066	3.113	3.291	3.158	3.040	3.132	3.294	3.261	3.367	3.591	3.551	3.754	4.182	4.159	4.223	3.971	3.896	4.389
380.0	522.0	645.9	718.4	735.3	731.0	728.2	712.5	683.1	662.6	683.2	689.7	707.7	715.7	699.0	678.4	657.8	630.2	605.8	577.3	541.8	507.5	469.1	436.8	445.2	338.5	230.4	176.4	141.8	153.4	257.7	538.1	2855	5906	1486	18.15	3.695	2.608	1.957	1.652	1.552	1.556	1.319	1.629	1.738	1.731	2.121	2.057	2.287	2.397	2.396	2.339	2.664	3.049	3.118	3.098	2.933	3.245	3.178	2.981	3.251	3.046	3.316	3.204	3.216	3.290	3.293	3.257	3.299	3.509	3.579	3.811	3.763	4.027	4.119	4.639	4.083	4.543
385.0	517.6	652.0	730.4	743.3	748.0	737.6	722.3	701.2	683.3	694.9	698.3	710.6	713.7	704.2	686.9	656.7	639.8	618.5	595.5	565.5	526.9	490.0	441.6	432.7	407.5	281.9	205.2	160.0	130.4	126.6	167.3	719.6	3465	5192	256.4	11.18	3.331	2.294	1.923	1.640	1.544	1.480	1.600	1.788	1.900	2.027	1.981	2.372	2.430	2.445	2.359	2.973	3.030	3.026	3.221	2.962	3.385	3.328	3.328	3.194	3.172	3.271	3.356	3.322	3.320	3.402	3.454	3.459	3.572	3.560	3.690	3.852	3.984	3.939	4.514	4.043	4.541
390.0	522.9	666.2	720.5	745.2	752.6	746.3	732.9	721.1	699.1	701.3	702.8	716.3	714.9	703.1	681.9	663.0	645.6	629.8	605.5	580.4	547.3	512.2	468.7	427.9	410.4	365.6	269.2	198.1	156.0	124.7	105.4	206.3	859.4	2714	3785	1074	18.01	3.426	2.427	2.164	1.664	1.743	1.648	1.747	1.952	2.086	2.013	2.473	2.442	2.380	2.310	2.948	2.996	3.067	3.310	3.163	3.383	3.246	3.258	3.286	3.238	3.455	3.247	3.358	3.498	3.287	3.363	3.445	3.531	3.594	3.658	3.807	4.083	4.092	4.176	4.217	4.442
395.0	547.0	662.8	716.5	740.6	762.9	753.1	753.0	732.4	712.8	713.6	713.5	725.4	712.8	707.1	676.1	661.0	639.5	632.1	610.1	591.0	559.5	529.4	491.9	449.1	406.4	381.4	353.9	256.3	195.7	154.5	117.6	110.6	235.3	636.5	1333	3948	1709	24.45	3.750	2.462	2.035	1.736	1.764	1.735	1.874	2.081	2.193	2.438	2.495	2.458	2.406	2.950	3.198	3.266	3.079	3.133	3.453	3.352	3.260	3.363	3.446	3.444	3.243	3.329	3.297	3.314	3.270	3.517	3.607	3.742	3.566	3.997	4.238	3.776	4.114	4.062	4.630
400.0	555.7	648.7	722.0	718.7	749.1	772.4	761.8	739.3	724.8	723.5	719.5	724.7	709.4	693.9	674.6	656.8	640.6	622.6	611.8	592.7	566.3	535.3	501.0	463.3	418.6	379.7	373.7	318.3	230.8	179.7	136.2	104.0	107.5	178.8	328.1	1676	4147	1358	18.04	3.146	2.334	2.057	1.929	1.945	1.969	2.144	2.213	2.400	2.432	2.389	2.383	2.849	3.124	3.172	3.071	3.011	3.341	3.416	3.318	3.360	3.546	3.348	3.460	3.358	3.327	3.341	3.243	3.497	3.530	3.694	3.760	3.833	3.916	3.947	4.159	4.284	4.558
405.0	560.8	646.2	692.9	740.3	749.8	765.5	752.0	744.2	725.6	724.2	721.9	717.9	711.0	693.8	672.8	643.4	627.6	616.4	602.7	587.2	563.9	538.1	509.9	474.6	432.4	387.4	365.6	358.0	276.5	205.7	158.7	117.2	91.47	84.86	104.5	413.5	2092	3870	235.1	11.86	3.113	2.357	2.267	1.897	2.010	2.268	2.179	2.368	2.386	2.393	2.261	2.789	3.032	3.056	3.075	3.118	3.216	3.448	3.361	3.549	3.464	3.198	3.374	3.395	3.318	3.486	3.271	3.591	3.380	3.618	3.772	3.856	3.840	3.935	4.053	4.097	4.216
410.0	546.1	646.2	686.7	729.5	738.3	763.4	758.2	742.9	727.5	728.4	716.7	717.1	701.5	679.2	654.2	624.1	612.9	599.6	589.5	572.0	553.4	532.4	509.5	480.3	442.8	401.9	368.0	351.2	329.0	259.0	188.9	141.9	104.8	78.59	65.57	121.4	508.9	1773	2801	1002	17.65	3.425	2.656	2.151	2.171	2.252	2.106	2.549	2.455	2.346	2.306	2.815	3.035	3.085	3.257	3.095	3.345	3.416	3.305	3.497	3.454	3.441	3.467	3.431	3.274	3.379	3.294	3.475	3.271	3.405	3.592	3.667	3.695	4.000	3.928	4.154	4.184
415.0	508.7	635.1	700.2	707.2	716.8	748.0	756.8	744.5	727.8	720.4	715.5	704.8	684.4	660.5	629.8	602.5	591.9	573.4	567.9	552.2	538.3	520.7	502.6	476.7	445.8	412.6	378.6	346.5	327.3	311.3	229.9	166.6	125.2	90.96	67.89	64.65	139.2	413.1	891.8	2688	1570	24.13	3.615	2.692	2.298	2.276	2.078	2.529	2.546	2.388	2.316	2.722	2.843	3.021	2.992	3.116	3.256	3.010	3.406	3.399	3.364	3.514	3.523	3.352	3.276	3.221	3.267	3.303	3.577	3.278	3.631	3.513	3.450	3.552	3.739	3.934	4.132
420.0	501.3	608.5	670.4	679.8	719.9	735.0	744.0	745.8	727.1	724.3	712.6	694.7	669.4	643.0	616.1	585.9	569.5	557.0	547.1	532.6	523.3	505.9	491.0	472.8	443.6	411.5	378.9	348.5	321.8	314.7	269.9	187.5	138.7	103.4	75.64	58.83	63.36	113.4	217.1	1028	3003	1239	18.38	3.272	2.540	2.445	2.193	2.388	2.557	2.431	2.194	2.772	2.859	2.890	2.919	3.015	3.256	3.099	3.463	3.220	3.584	3.361	3.608	3.260	3.110	3.243	3.164	3.232	3.252	3.197	3.511	3.522	3.431	3.578	3.603	3.876	4.027
425.0	502.2	590.1	663.5	659.8	700.3	717.4	727.2	734.8	722.4	715.1	706.1	684.9	660.1	622.9	595.2	560.8	549.5	537.3	524.8	515.9	507.0	491.2	480.5	459.0	434.0	409.9	378.7	349.2	321.9	300.8	285.8	218.0	153.8	113.7	84.97	64.36	50.92	51.57	66.44	249.5	1346	2930	227.0	12.25	3.093	2.595	2.416	2.489	2.509	2.401	2.280	2.672	2.962	2.889	3.064	2.964	3.302	3.129	3.312	3.417	3.251	3.367	3.336	3.292	3.308	3.038	3.133	3.119	3.129	3.244	3.426	3.142	3.386	3.293	3.498	3.638	3.868
430.0	663.4	583.5	638.0	658.2	681.3	695.9	712.4	725.2	714.4	708.9	694.5	674.5	641.0	605.3	571.1	538.5	521.7	511.0	500.7	489.1	482.3	471.1	463.3	444.9	428.6	404.9	375.3	352.4	328.0	297.1	273.8	243.1	184.3	131.7	98.45	74.85	56.69	45.07	38.62	72.80	322.6	1226	2071	934.0	16.63	3.560	2.672	2.667	2.498	2.318	2.237	2.580	2.783	2.901	3.025	2.838	3.114	3.167	3.225	3.387	3.281	3.308	3.348	3.303	3.181	3.119	3.113	2.924	3.173	3.207	3.238	3.357	3.241	3.237	3.500	3.525	3.602
435.0	1230	589.7	614.6	636.6	659.0	671.1	691.9	707.3	709.9	705.4	688.5	658.3	626.7	587.6	549.1	513.3	493.5	485.3	476.5	465.0	459.9	451.3	441.7	432.0	412.9	394.8	368.7	349.5	327.2	300.5	269.2	235.7	212.3	157.7	112.6	85.89	66.18	51.08	38.11	38.96	88.70	286.1	621.5	2184	1482	23.13	3.720	3.004	2.680	2.334	2.195	2.515	2.825	2.605	2.961	2.765	3.109	3.047	3.038	3.131	3.182	3.370	3.583	3.323	3.186	3.180	3.169	3.147	3.092	3.041	3.002	3.165	3.245	3.153	3.177	3.461	3.493
440.0	1593	770.9	592.9	610.8	632.1	663.8	679.3	700.8	699.3	706.3	679.3	652.8	611.3	570.2	527.4	496.7	474.5	461.4	457.6	445.4	440.1	432.1	423.8	417.9	401.2	383.2	363.3	347.4	326.4	302.1	270.0	230.4	213.1	180.0	128.0	95.34	75.25	57.68	43.68	35.00	39.64	78.61	151.7	814.7	2627	1168	16.12	3.582	2.811	2.262	2.286	2.528	2.748	2.689	2.935	2.724	3.119	3.053	3.231	3.146	3.183	3.135	3.321	3.221	3.233	3.068	2.921	3.185	3.109	3.206	2.874	3.308	3.096	3.000	3.157	3.145	3.269
445.0	1417	1197	592.1	603.5	624.7	641.5	668.1	676.4	680.9	691.5	671.5	639.4	594.5	557.0	511.3	477.5	458.4	447.2	433.5	424.9	419.7	416.1	411.5	401.8	389.8	371.1	356.1	340.8	324.2	300.3	267.3	232.1	201.5	184.2	146.2	105.2	80.47	61.99	48.47	38.44	32.13	35.23	47.48	197.3	1151	2655	191.7	11.26	3.299	2.433	2.257	2.795	2.708	2.730	2.833	2.886	3.097	2.850	2.911	3.153	3.088	3.275	3.165	3.218	3.164	3.034	3.085	2.974	3.020	2.799	2.927	3.143	3.015	2.871	3.057	3.125	3.420
450.0	806.9	1836	789.3	568.2	588.2	606.8	632.6	647.9	663.2	656.7	640.6	613.2	569.2	526.5	484.6	448.0	426.9	416.5	406.7	394.3	389.4	386.1	380.4	375.2	364.5	351.4	337.6	324.9	311.4	290.2	262.1	229.7	195.5	171.6	155.7	122.5	89.53	69.64	55.62	43.74	35.07	29.83	27.67	57.33	274.5	1098	1820	812.4	14.14	3.173	2.384	2.738	2.612	2.667	2.694	2.672	2.903	2.792	2.894	3.063	3.019	3.130	3.071	3.105	3.022	3.075	3.051	2.952	2.868	2.841	2.892	3.029	2.720	2.824	2.725	2.951	3.112
455.0	474.2	1462	1703	573.3	535.4	563.1	587.5	603.0	620.9	624.6	609.5	579.0	539.7	486.2	448.2	413.9	392.9	382.5	371.4	359.9	357.9	351.9	346.6	346.7	333.0	328.5	313.1	303.8	293.2	274.7	253.8	222.5	190.8	163.2	146.2	134.3	104.0	75.74	60.58	49.17	39.52	32.15	25.47	27.62	73.39	254.6	547.7	1752	1154	16.60	2.810	2.841	2.576	2.630	2.613	2.484	2.808	2.624	2.737	2.789	3.005	3.058	3.024	2.929	2.903	3.043	2.781	2.863	2.765	2.759	2.591	2.669	2.539	2.698	2.673	2.520	2.716
460.0	387.3	841.3	2237	849.4	505.4	532.2	560.0	573.6	592.4	591.7	582.6	548.7	510.7	466.7	422.5	386.7	366.4	357.0	343.7	334.1	328.8	324.6	324.9	322.5	310.7	307.0	294.7	286.5	276.8	264.6	241.8	216.0	186.6	159.7	138.1	127.8	113.9	83.48	63.63	52.20	42.62	34.29	27.67	23.43	30.06	67.34	131.3	659.3	1977	785.9	11.73	3.008	2.679	2.705	2.640	2.494	2.720	2.828	2.798	2.725	2.760	2.938	2.817	2.631	2.893	2.719	2.630	2.593	2.646	2.631	2.590	2.681	2.705	2.447	2.557	2.643	2.605
465.0	356.8	507.1	1923	1518	499.5	502.4	529.0	553.6	559.3	566.7	551.9	523.6	492.3	439.1	391.8	367.5	345.3	330.0	320.7	310.3	307.5	301.6	298.7	295.2	294.3	284.1	276.1	269.1	263.2	250.1	233.1	209.4	179.9	155.5	134.1	117.9	113.3	92.36	67.96	53.84	44.72	36.53	29.62	24.45	22.15	26.84	38.83	158.5	914.1	1830	149.7	8.000	2.978	2.597	2.551	2.435	2.488	2.667	2.657	2.601	2.739	2.535	2.817	2.608	2.695	2.532	2.560	2.459	2.454	2.422	2.559	2.563	2.455	2.470	2.424	2.541	2.607
470.0	334.6	390.3	977.4	2141	852.5	470.7	485.5	508.3	519.7	521.2	515.1	490.8	449.7	401.5	358.3	334.6	313.9	300.3	288.0	279.2	276.3	271.9	270.2	267.6	263.1	255.9	250.2	244.7	239.8	232.8	217.1	195.3	170.2	148.5	128.3	110.0	100.5	94.64	75.44	57.62	47.18	38.64	32.01	26.45	21.90	19.34	19.22	43.67	218.4	814.3	1080	644.1	12.54	3.093	2.467	2.371	2.435	2.507	2.615	2.580	2.566	2.485	2.558	2.379	2.422	2.454	2.373	2.166	2.351	2.227	2.274	2.193	2.285	2.242	2.345	2.379	2.265
475.0	310.8	342.2	492.9	1548	1829	477.1	447.2	460.2	474.3	475.0	474.2	446.8	408.5	365.8	327.6	299.4	281.1	268.7	260.3	250.7	247.5	242.9	240.6	238.6	231.9	228.7	224.4	221.5	216.6	210.0	198.0	179.8	158.7	138.8	121.2	105.8	92.27	85.65	79.33	63.34	48.40	39.83	33.26	27.73	23.38	18.71	16.39	19.20	56.23	187.5	350.5	1228	793.1	16.39	2.645	2.508	2.357	2.325	2.427	2.344	2.480	2.449	2.338	2.333	2.380	2.199	2.163	2.181	2.181	2.010	2.067	2.060	2.143	1.923	2.003	2.280	2.047
480.0	294.4	323.6	372.0	820.6	2322	745.6	418.7	431.9	437.7	452.1	444.9	423.5	385.2	346.3	307.9	280.4	264.8	247.9	238.2	230.3	226.6	223.3	221.3	220.4	214.3	209.9	205.3	206.3	203.2	196.4	185.1	169.9	150.5	132.9	117.9	102.9	88.67	78.91	74.91	67.77	51.55	41.13	35.62	29.28	24.49	19.71	16.20	14.48	20.38	48.23	84.27	479.7	1443	185.6	10.46	2.783	2.385	2.143	2.446	2.229	2.324	2.318	2.244	2.178	2.222	2.129	2.053	2.101	1.958	1.817	2.009	1.996	2.081	1.925	1.962	2.025	1.964
485.0	268.2	324.8	320.5	461.0	1969	1432	400.8	408.9	422.7	424.7	420.4	401.3	359.4	326.3	290.5	264.5	245.3	232.9	223.2	216.7	212.4	208.3	206.0	205.6	198.3	197.4	192.5	191.5	190.0	185.5	174.6	161.0	143.3	128.2	112.2	98.61	86.34	75.70	68.93	67.55	56.74	42.30	35.56	30.18	25.14	20.97	17.60	14.09	13.18	17.62	24.58	116.1	750.2	1344	158.3	4.933	2.676	2.453	2.365	2.135	2.269	2.113	2.152	2.048	2.050	2.064	2.036	1.902	1.884	1.938	1.888	1.813	1.890	1.808	1.859	1.845	1.770
490.0	226.4	315.5	304.3	339.4	955.2	2159	716.9	381.2	386.3	397.1	392.7	373.2	337.0	300.8	270.1	242.6	226.2	215.2	203.4	198.1	191.8	188.3	188.7	186.1	181.1	180.2	176.1	174.6	174.5	171.8	162.2	149.7	134.1	120.9	107.0	94.41	83.01	72.80	65.10	61.24	58.32	47.26	36.77	31.17	26.17	22.50	18.67	15.39	12.40	11.43	11.80	31.15	181.2	656.9	1123	502.1	11.97	2.511	2.314	2.192	2.061	2.141	2.033	2.007	1.949	1.916	1.907	1.842	1.918	1.839	1.796	1.699	1.758	1.637	1.806	1.734	1.803
495.0	193.7	266.6	312.4	289.8	441.8	1614	1702	383.0	350.2	358.8	360.9	340.6	313.3	280.4	246.8	219.9	203.6	193.7	182.9	177.1	172.0	168.3	167.7	166.2	161.6	160.5	158.9	157.5	157.6	154.5	147.4	135.2	124.2	111.4	98.66	87.40	78.42	69.17	61.36	55.58	52.34	49.82	40.17	31.95	26.90	23.48	19.41	15.75	13.01	11.13	9.083	12.41	45.10	151.1	415.1	1257	679.4	14.71	2.561	2.080	2.145	1.988	1.805	1.973	1.845	1.825	1.807	1.773	1.713	1.759	1.771	1.744	1.667	1.634	1.549	1.538	1.563
500.0	178.7	246.8	301.8	270.8	303.0	822.8	2326	610.1	328.7	329.0	333.7	316.7	288.0	258.0	227.3	206.1	187.2	176.2	169.4	162.5	155.7	155.1	152.0	151.0	149.2	146.3	144.9	144.0	145.0	143.5	135.6	125.1	115.4	102.3	91.76	81.52	73.24	65.65	58.71	51.65	47.93	46.88	42.52	33.30	27.14	23.39	19.38	16.49	13.64	11.34	8.846	8.424	14.80	37.76	98.30	559.8	1352	187.4	7.435	2.410	2.055	2.006	1.694	1.752	1.751	1.840	1.774	1.555	1.527	1.564	1.690	1.478	1.523	1.506	1.368	1.486	1.544
505.0	177.5	208.1	264.3	265.2	259.2	404.6	2089	1212	311.9	307.7	303.8	293.2	265.4	238.4	209.7	185.8	171.7	163.2	154.0	148.5	142.5	139.6	139.0	138.1	136.7	133.1	130.8	130.5	129.9	131.8	124.3	114.6	105.6	94.31	85.80	76.91	68.86	62.84	55.37	49.80	44.90	41.95	42.65	35.35	26.80	23.16	19.07	16.41	13.77	11.43	9.270	7.646	8.025	12.91	25.78	136.7	773.4	1117	138.9	3.163	2.078	1.989	1.768	1.762	1.701	1.705	1.611	1.488	1.476	1.483	1.338	1.409	1.470	1.466	1.337	1.461	1.499
510.0	161.4	185.3	213.5	256.3	231.4	266.6	1025	2115	572.9	271.4	269.3	257.3	235.3	209.5	187.0	166.5	152.5	143.7	136.1	130.5	125.4	121.9	120.7	119.6	118.6	116.3	115.4	114.9	114.1	114.3	110.5	101.8	94.03	84.73	76.97	69.26	62.77	56.81	50.62	45.44	41.17	36.77	36.36	35.16	28.72	22.30	18.43	16.02	13.71	11.36	9.481	7.823	7.050	7.449	9.751	34.04	189.4	619.0	846.6	302.8	9.616	1.959	1.739	1.658	1.528	1.516	1.414	1.367	1.391	1.217	1.254	1.242	1.320	1.207	1.286	1.323	1.329
515.0	132.7	159.2	173.5	223.1	215.5	209.6	399.3	1766	1570	261.4	237.6	230.1	207.2	183.6	161.7	145.8	132.3	124.5	116.0	112.2	107.9	106.7	103.1	104.2	103.2	101.0	98.27	97.85	99.16	98.89	95.56	88.82	82.63	74.25	67.17	61.55	55.72	50.88	45.48	41.22	37.02	32.73	30.58	31.05	29.93	23.53	17.83	15.13	13.00	10.90	9.025	8.159	6.892	6.158	6.081	11.13	45.35	141.3	346.6	899.8	193.9	9.896	1.819	1.557	1.480	1.230	1.296	1.269	1.206	1.195	1.163	1.199	1.183	1.189	1.129	1.181	1.261
520.0	113.5	142.1	152.5	192.6	218.0	188.2	240.3	928.9	2347	449.2	215.5	206.8	183.4	165.3	143.8	130.8	118.1	111.7	106.0	99.98	95.91	94.29	94.20	92.59	89.60	89.36	87.31	87.92	88.35	88.12	85.46	79.40	73.71	67.70	61.32	55.68	50.42	46.43	41.62	37.69	34.97	30.77	27.44	26.71	27.93	24.37	17.77	14.84	12.35	10.59	9.077	8.004	7.093	5.814	5.233	5.875	12.97	34.23	82.52	456.5	837.1	152.2	3.509	1.654	1.394	1.240	1.251	1.146	1.132	1.050	1.119	1.225	1.151	1.146	1.041	1.035	1.113
525.0	110.2	129.4	131.9	159.4	202.9	177.2	193.6	392.3	2293	1044	202.6	187.9	167.5	150.0	132.3	116.3	107.8	100.2	94.36	91.03	87.82	84.82	83.41	82.65	81.01	80.21	78.56	79.07	78.41	78.74	76.71	71.53	65.76	60.68	54.74	50.60	46.31	42.02	37.78	35.15	31.67	28.18	25.61	23.28	24.23	24.08	18.57	14.31	11.96	10.13	8.664	7.595	7.164	5.891	4.811	4.651	6.025	10.38	20.85	114.4	557.8	706.7	25.24	1.849	1.422	1.235	1.134	1.132	1.052	1.119	1.126	1.016	1.104	1.044	1.008	0.938	1.104
530.0	99.88	112.4	120.9	131.2	171.0	172.1	157.0	208.3	1130	2053	398.6	164.1	148.7	132.2	115.8	102.3	93.92	86.62	82.21	78.66	75.74	74.32	72.81	71.94	69.89	68.95	68.61	68.17	68.48	68.47	66.38	62.29	57.57	52.78	48.86	44.92	40.58	37.36	33.94	30.78	28.13	25.55	23.02	21.13	20.31	20.72	19.02	15.09	11.48	9.845	8.411	7.198	6.702	6.020	5.000	4.474	4.433	5.054	7.034	27.67	140.3	434.4	541.4	110.5	7.022	1.333	1.154	1.111	1.031	1.039	0.986	0.906	0.975	0.822	0.898	0.969	0.980
535.0	83.62	96.78	100.7	117.0	128.8	169.6	138.9	150.2	372.2	1976	1303	160.6	131.4	117.1	100.5	87.71	82.02	75.58	71.06	67.79	66.40	63.43	62.71	60.67	60.35	58.90	58.01	57.80	58.68	57.91	56.31	54.01	49.51	45.65	41.75	38.61	35.14	32.94	30.19	27.06	24.92	22.63	20.53	19.00	17.96	16.39	17.28	15.31	11.75	9.439	7.913	6.868	6.077	5.460	5.147	4.317	3.919	3.473	3.866	8.078	33.05	99.27	246.5	594.7	167.2	5.302	1.085	1.122	1.059	0.959	0.966	0.814	0.857	0.803	0.819	0.858	0.826
540.0	75.21	91.95	95.76	103.9	105.5	158.6	142.0	127.8	181.4	1046	2322	293.2	118.1	103.7	91.79	79.21	71.08	67.12	63.59	61.26	59.18	55.79	54.57	53.72	53.01	51.75	51.86	51.90	52.15	51.74	49.64	47.51	45.23	40.78	37.68	34.47	31.68	29.36	27.37	24.62	22.55	20.64	18.82	17.22	16.08	14.87	14.82	14.89	12.11	9.214	7.497	6.421	5.881	5.216	5.093	4.676	3.668	3.302	3.109	3.882	9.256	23.73	59.75	331.5	571.0	27.81	2.047	1.145	0.977	0.915	0.826	0.882	0.878	0.805	0.697	0.888	0.716
545.0	73.63	79.52	89.34	87.07	99.04	132.6	147.2	114.9	127.2	395.4	2475	807.4	107.2	93.90	81.66	72.25	64.85	60.45	58.30	54.78	52.55	49.76	49.82	47.79	47.66	46.74	47.20	46.33	46.85	46.26	44.40	42.52	40.38	37.19	33.56	31.10	28.82	26.43	24.52	22.29	20.22	18.83	17.73	15.82	14.48	13.74	12.76	13.26	12.27	9.543	7.492	6.351	5.612	5.029	4.606	4.279	3.862	3.346	2.929	2.909	3.889	6.890	14.91	84.73	406.0	452.5	22.80	1.426	0.929	0.937	0.853	0.881	0.788	0.792	0.728	0.776	0.743
550.0	66.72	69.86	74.87	78.76	81.97	96.78	134.2	112.1	103.2	169.1	1251	2001	254.8	82.92	72.14	63.03	57.00	52.95	48.77	46.95	45.80	43.51	42.69	41.39	40.41	40.57	40.21	39.21	39.94	40.53	38.49	36.93	34.29	32.31	28.83	27.39	24.80	22.76	21.24	19.91	17.85	16.72	15.51	14.45	12.91	11.99	11.02	10.51	11.06	9.883	7.464	5.801	5.427	4.733	4.209	3.863	3.656	3.377	2.789	2.465	2.537	3.187	4.740	20.21	103.4	306.4	310.7	99.74	5.213	0.902	0.883	0.741	0.701	0.694	0.706	0.658	0.719
555.0	54.88	60.06	65.00	66.44	70.28	79.88	105.5	122.1	90.21	108.8	366.0	2058	976.6	80.17	61.78	54.78	49.56	45.53	42.91	41.48	38.90	36.66	35.37	35.29	33.84	34.21	34.07	34.05	33.47	33.49	32.94	31.80	29.26	26.75	24.97	23.41	21.87	19.83	18.03	16.88	15.71	14.49	13.39	12.64	10.86	10.53	9.471	8.865	8.622	9.358	7.651	5.814	4.792	4.207	4.063	3.708	3.397	3.377	2.855	2.319	2.077	2.083	2.490	5.648	24.06	70.06	165.3	422.5	138.7	3.595	0.879	0.822	0.710	0.656	0.707	0.681	0.600
560.0	58.59	62.54	60.67	62.04	61.09	67.23	83.27	124.4	84.94	86.84	148.0	1105	2007	123.0	55.07	48.92	43.53	40.56	37.68	35.61	33.44	32.78	30.98	31.12	30.13	30.43	29.56	29.55	29.69	28.95	29.18	27.96	25.92	23.64	22.42	20.45	18.85	18.14	16.22	15.23	13.72	13.48	12.39	11.02	10.51	9.859	8.731	7.844	6.956	7.697	7.492	5.956	4.553	3.914	3.729	3.481	3.083	2.975	2.883	2.287	2.093	1.804	1.774	2.472	6.512	16.64	40.55	242.0	401.2	26.66	1.474	0.826	0.655	0.668	0.581	0.623	0.681
565.0	56.11	57.93	54.86	54.27	56.19	57.09	66.75	114.3	87.75	78.27	92.15	384.2	2324	507.1	50.48	43.63	38.38	35.04	33.18	31.49	30.10	28.85	27.99	28.26	26.30	26.29	25.66	26.14	26.22	25.97	25.95	23.77	22.55	20.79	19.45	18.31	17.26	16.07	14.08	13.45	12.49	11.44	11.02	9.835	9.372	8.831	7.923	6.940	6.264	6.148	6.728	5.807	4.612	4.001	3.426	3.298	3.058	2.612	2.566	2.326	1.994	1.752	1.491	1.689	2.450	4.819	10.07	62.51	289.7	224.6	20.16	0.939	0.659	0.654	0.684	0.621	0.605
570.0	55.64	54.22	51.17	48.55	47.24	50.05	54.69	82.38	99.67	72.44	74.02	140.7	1188	1459	86.77	36.48	32.91	30.07	27.26	26.20	25.13	23.84	23.24	23.20	22.16	21.93	21.18	21.19	21.45	21.72	21.08	20.08	18.44	17.09	16.16	14.97	14.23	13.08	11.71	11.33	10.72	9.650	9.019	8.726	7.973	7.431	6.698	5.927	5.379	4.842	4.967	5.325	4.567	3.649	3.075	2.826	2.627	2.315	2.143	2.162	2.139	1.704	1.429	1.350	1.480	2.005	3.108	14.82	73.97	187.9	232.3	77.60	3.191	0.679	0.600	0.604	0.595
575.0	53.81	54.99	48.20	45.92	40.10	41.49	45.79	55.71	95.41	77.43	65.25	82.54	326.6	1776	647.7	33.43	26.40	24.11	22.20	20.94	20.12	18.75	19.09	18.14	17.03	17.20	16.51	16.54	16.64	16.79	16.35	15.67	14.88	13.52	12.41	11.94	11.29	10.44	9.380	8.952	8.424	7.762	7.345	6.807	6.576	6.113	5.339	4.820	4.341	3.982	3.739	3.877	4.300	3.539	2.702	2.370	2.126	1.853	1.824	1.743	1.883	1.680	1.379	1.165	1.205	1.210	1.458	4.220	17.18	43.03	113.4	262.1	28.76	1.940	0.605	0.535	0.604
580.0	53.03	52.13	47.40	40.41	37.05	35.25	38.19	44.60	77.24	88.20	65.18	69.11	119.1	962.4	1542	68.07	23.52	20.47	18.42	17.23	16.36	15.29	15.41	14.97	14.29	13.87	13.77	13.84	13.46	13.62	13.45	12.82	12.06	11.21	10.14	9.869	8.919	8.426	7.834	7.224	7.057	6.445	6.182	5.932	5.254	5.272	4.603	4.205	3.744	3.413	3.003	2.801	3.452	3.387	2.720	2.195	2.074	1.688	1.578	1.428	1.504	1.601	1.396	1.095	1.101	1.090	1.110	1.678	4.465	10.29	27.52	144.4	215.9	23.64	0.954	0.515	0.553
585.0	49.77	53.47	47.35	33.61	34.82	32.31	35.25	37.53	60.70	96.12	67.96	64.92	71.94	317.6	1886	308.1	19.52	17.01	15.98	14.47	13.69	12.23	13.10	12.17	11.71	11.50	11.77	11.17	11.37	11.52	10.92	10.44	9.814	9.778	8.623	8.286	7.004	6.847	6.494	6.179	5.717	5.211	5.044	4.833	4.270	4.238	3.956	3.522	3.024	2.881	2.567	2.242	2.578	2.820	2.735	2.096	1.816	1.607	1.390	1.278	1.207	1.312	1.420	1.069	0.997	0.987	0.877	1.130	1.747	2.982	6.790	37.00	155.7	165.8	15.67	0.536	0.470
590.0	52.89	54.57	47.29	33.66	30.27	28.31	30.78	33.22	44.39	84.62	81.98	65.14	62.67	104.5	976.5	1048	50.43	13.79	12.41	11.60	10.42	10.14	10.00	9.538	8.966	9.180	8.843	8.645	8.894	8.854	8.511	8.321	7.460	7.292	6.728	6.488	5.642	5.304	5.108	4.711	4.455	4.001	4.011	3.852	3.532	3.166	3.157	2.687	2.376	2.328	2.026	1.862	2.012	2.223	2.372	2.094	1.592	1.329	1.209	1.045	1.062	1.122	1.185	1.256	0.987	0.921	0.833	0.886	1.068	1.221	2.080	8.822	39.56	108.6	124.4	18.55	1.747
595.0	59.10	54.18	49.51	32.02	25.14	24.77	26.98	29.71	35.86	61.94	96.48	66.54	59.91	55.08	250.3	1278	439.0	12.63	10.38	9.225	8.343	7.700	7.429	7.658	7.069	6.954	6.524	7.021	6.386	6.921	6.220	6.445	5.909	5.626	5.172	4.917	4.401	3.972	3.858	3.680	3.544	3.214	3.043	3.058	2.810	2.756	2.411	2.252	2.042	1.864	1.679	1.584	1.460	1.589	1.757	1.919	1.528	1.136	1.043	1.033	0.978	0.999	0.924	1.021	1.097	0.860	0.823	0.823	0.928	0.878	0.996	2.390	9.259	24.96	55.25	124.1	26.75
600.0	55.58	49.48	44.74	29.76	23.42	20.83	24.40	27.62	35.36	51.91	95.04	76.36	60.34	44.86	73.63	682.6	1041	36.51	8.261	7.938	6.362	6.535	6.286	6.422	5.777	5.911	5.688	5.631	5.554	5.434	5.100	5.295	4.934	4.571	4.295	3.993	3.650	3.466	3.287	3.032	2.923	2.710	2.576	2.441	2.375	2.254	2.083	1.987	1.821	1.599	1.403	1.397	1.306	1.254	1.520	1.563	1.461	1.120	0.987	0.860	0.834	0.846	0.793	0.824	0.968	0.986	0.769	0.716	0.787	0.703	0.767	1.023	2.446	6.034	13.34	66.91	111.8
605.0	52.11	50.30	43.24	29.89	21.33	20.08	24.08	24.60	35.21	46.16	83.43	85.99	60.28	41.26	33.11	212.5	1267	189.8	7.830	6.348	5.875	5.594	5.682	5.413	4.825	4.918	4.665	4.745	4.777	4.293	4.592	4.460	4.177	3.744	3.596	3.321	3.133	3.006	2.761	2.591	2.515	2.263	2.168	2.064	2.006	1.855	1.678	1.647	1.458	1.176	1.170	1.177	1.132	1.007	1.056	1.234	1.358	1.192	0.886	0.816	0.714	0.791	0.793	0.793	0.815	0.923	0.804	0.781	0.791	0.672	0.692	0.611	0.966	1.666	3.397	17.33	76.74
610.0	47.51	49.25	42.95	30.08	21.53	20.48	20.08	24.39	31.97	43.19	67.74	93.11	62.95	38.44	23.70	58.92	642.5	739.3	30.92	5.582	4.965	4.803	4.446	4.302	3.961	4.059	3.895	3.927	3.985	3.530	3.740	3.475	3.300	3.259	2.942	2.827	2.484	2.516	2.352	2.230	2.052	1.896	1.790	1.779	1.675	1.584	1.434	1.303	1.241	1.055	0.971	1.025	0.916	0.831	0.874	0.928	1.054	1.072	0.957	0.778	0.665	0.729	0.713	0.764	0.747	0.771	0.863	0.802	0.725	0.592	0.618	0.621	0.580	0.756	1.170	4.234	19.43
615.0	45.06	48.55	38.61	28.78	18.99	20.19	18.96	23.29	29.77	40.11	55.14	83.23	71.69	38.10	21.08	22.98	158.8	891.1	297.9	6.524	4.404	4.193	3.800	3.670	3.038	3.216	3.147	3.053	2.952	2.890	2.818	2.575	2.533	2.697	2.318	2.099	2.030	1.869	1.972	1.744	1.706	1.473	1.529	1.458	1.372	1.242	1.267	1.084	0.998	0.955	0.871	0.782	0.802	0.731	0.865	0.776	0.774	0.834	0.939	0.767	0.582	0.704	0.689	0.627	0.659	0.673	0.723	0.830	0.742	0.579	0.579	0.505	0.527	0.514	0.567	1.259	4.647
620.0	45.50	45.39	39.78	24.03	17.39	16.98	17.86	22.27	27.70	39.75	49.66	68.56	78.82	40.60	20.85	14.56	42.05	479.2	735.3	20.05	4.092	3.945	3.429	3.119	3.059	2.789	2.639	2.503	2.592	2.454	2.659	2.204	2.317	2.405	2.011	1.935	1.785	1.796	1.622	1.528	1.342	1.368	1.291	1.313	1.088	1.130	1.066	1.008	0.867	0.798	0.778	0.706	0.696	0.749	0.638	0.648	0.620	0.738	0.835	0.762	0.632	0.593	0.581	0.587	0.597	0.609	0.625	0.710	0.821	0.645	0.616	0.517	0.549	0.459	0.414	0.586	1.300
625.0	48.21	42.35	33.10	25.10	18.98	15.60	18.76	20.45	26.69	37.73	47.07	59.27	77.68	42.11	20.34	12.51	15.86	148.9	922.6	59.95	3.845	3.483	2.931	2.511	2.845	2.497	2.217	2.249	2.322	2.209	2.190	2.191	1.897	1.886	1.933	1.523	1.548	1.740	1.447	1.388	1.124	1.115	1.030	1.060	0.936	0.991	0.912	0.835	0.756	0.696	0.640	0.636	0.615	0.602	0.544	0.582	0.575	0.606	0.767	0.693	0.613	0.560	0.591	0.583	0.599	0.499	0.570	0.667	0.804	0.767	0.626	0.527	0.525	0.515	0.487	0.413	0.660
630.0	48.19	42.70	36.04	24.16	16.87	15.79	16.69	20.89	25.94	34.66	44.44	51.26	62.96	49.36	21.21	12.45	9.947	38.81	488.1	534.2	22.09	2.885	2.570	2.430	2.230	2.227	2.001	2.002	1.975	1.881	1.854	1.724	1.582	1.503	1.525	1.347	1.288	1.295	1.235	1.194	1.104	0.884	0.947	0.932	0.839	0.862	0.796	0.802	0.648	0.599	0.574	0.557	0.583	0.586	0.511	0.511	0.558	0.529	0.558	0.680	0.605	0.528	0.564	0.502	0.599	0.486	0.550	0.617	0.768	0.696	0.669	0.535	0.488	0.473	0.466	0.444	0.461
635.0	44.03	37.78	36.49	23.11	16.64	14.97	15.16	18.38	25.27	31.85	39.57	48.18	50.87	52.42	23.41	12.16	8.660	12.70	120.3	668.1	219.0	3.313	2.388	2.173	1.860	1.825	1.679	1.675	1.628	1.695	1.487	1.387	1.394	1.546	1.234	1.241	1.212	0.934	1.178	0.927	1.026	0.757	0.790	0.782	0.740	0.711	0.725	0.676	0.662	0.528	0.498	0.460	0.506	0.552	0.462	0.477	0.511	0.487	0.467	0.592	0.552	0.611	0.505	0.512	0.527	0.481	0.519	0.528	0.580	0.579	0.566	0.582	0.470	0.419	0.427	0.376	0.496
640.0	41.64	38.61	33.16	23.04	15.59	14.41	13.89	16.45	22.87	29.29	37.42	43.24	43.95	47.42	28.00	12.50	8.224	7.148	30.82	379.0	467.4	11.55	2.384	1.943	1.604	1.556	1.680	1.459	1.484	1.277	1.331	1.162	1.207	1.208	1.111	1.094	1.046	0.936	1.063	0.792	0.786	0.723	0.735	0.694	0.570	0.645	0.632	0.647	0.528	0.474	0.412	0.387	0.436	0.447	0.405	0.446	0.434	0.403	0.457	0.463	0.560	0.561	0.470	0.458	0.462	0.499	0.488	0.590	0.538	0.443	0.546	0.594	0.454	0.442	0.462	0.454	0.491
645.0	36.91	36.08	32.01	23.31	16.42	15.13	13.90	17.19	20.72	28.58	35.31	40.85	40.39	38.81	34.12	13.23	7.836	5.991	10.34	121.6	669.9	48.88	2.283	1.760	1.647	1.802	1.541	1.306	1.333	1.236	1.091	1.222	1.103	1.067	0.955	0.889	0.856	0.861	0.872	0.860	0.798	0.750	0.779	0.620	0.581	0.632	0.572	0.531	0.513	0.520	0.379	0.361	0.432	0.415	0.387	0.416	0.414	0.465	0.478	0.355	0.454	0.576	0.532	0.510	0.449	0.465	0.523	0.570	0.569	0.505	0.425	0.588	0.584	0.471	0.414	0.485	0.373
650.0	40.26	37.48	33.40	23.02	16.43	15.02	13.96	17.60	21.04	25.88	34.38	38.70	36.42	32.11	36.73	14.91	7.901	6.200	5.839	31.85	496.6	291.2	3.791	1.875	1.586	1.421	1.322	1.241	1.222	1.222	1.061	1.207	1.013	0.984	1.033	0.854	0.814	0.856	0.692	0.721	0.719	0.610	0.735	0.673	0.576	0.585	0.525	0.445	0.555	0.458	0.425	0.353	0.378	0.401	0.338	0.422	0.381	0.394	0.393	0.342	0.456	0.493	0.496	0.438	0.496	0.475	0.467	0.563	0.526	0.489	0.423	0.515	0.495	0.490	0.365	0.449	0.415
