Sample:	'1
File name:	Default_20230428_142550.FD3
Run date:	'14:19:29, 04/28/2023
Operator:	user
Comment:	'

Instrument
Model:	F-2700 FL Spectrophotometer
Serial number:	2190-003
ROM Version:	4J14000 07

Instrument parameters
Measurement type:	3-D scan
Data mode:	Fluorescence
EX  Start WL:	220.0 nm
EX  End WL:	600.0 nm
EX Sampling interval:	5.0 nm
EM  Start WL:	230.0 nm
EM  End WL:	650.0 nm
EM Sampling interval:	5.0 nm
Scan speed:	12000 nm/min
EX Slit:	5.0 nm
EM Slit:	5.0 nm
PMT Voltage:	700 V
Response:	Auto 
Corrected spectra:	Off
Contour interval:	50.000

Peak integration
Integration method:	Rectangular
Sensitivity:	1
Threshold:	1.000

Peaks
No.	ApexEX/EM(nm)	Height(Data)
1	225.0/595.0	42.21
2	230.0/325.0	205.7
3	230.0/340.0	178.2
4	230.0/560.0	45.93
5	230.0/580.0	46.37
6	230.0/605.0	43.60
7	230.0/635.0	37.76
8	235.0/335.0	195.0
9	235.0/345.0	188.3
10	235.0/360.0	182.8
11	235.0/505.0	114.6
12	240.0/515.0	135.8
13	245.0/265.0	214.4
14	245.0/335.0	167.2
15	245.0/355.0	193.3
16	245.0/530.0	113.0
17	245.0/565.0	41.02
18	250.0/545.0	113.5
19	250.0/585.0	28.10
20	250.0/605.0	27.53
21	250.0/625.0	26.85
22	255.0/280.0	341.0
23	255.0/395.0	287.7
24	255.0/555.0	100.4
25	255.0/640.0	19.52
26	260.0/285.0	446.0
27	260.0/565.0	102.5
28	265.0/290.0	462.9
29	265.0/410.0	317.1
30	265.0/580.0	90.94
31	270.0/295.0	653.8
32	270.0/425.0	316.1
33	270.0/590.0	81.50
34	275.0/305.0	783.2
35	275.0/390.0	337.8
36	275.0/415.0	327.0
37	275.0/445.0	319.0
38	275.0/600.0	78.89
39	280.0/310.0	787.0
40	280.0/335.0	450.9
41	280.0/345.0	454.2
42	280.0/400.0	334.2
43	280.0/410.0	327.1
44	280.0/615.0	76.35
45	285.0/315.0	795.0
46	285.0/385.0	352.9
47	285.0/405.0	337.1
48	285.0/625.0	59.82
49	290.0/320.0	761.2
50	290.0/635.0	50.45
51	305.0/340.0	449.4
52	310.0/345.0	401.8
53	315.0/350.0	317.8
54	320.0/360.0	330.5
55	325.0/365.0	330.1
56	330.0/245.0	3.726
57	330.0/370.0	292.0
58	335.0/375.0	292.8
59	340.0/240.0	4.717
60	340.0/385.0	299.8
61	345.0/390.0	262.7
62	350.0/395.0	263.1
63	355.0/405.0	257.2
64	360.0/410.0	227.7
65	365.0/245.0	3.362
66	365.0/415.0	226.9
67	370.0/425.0	209.1
68	375.0/430.0	182.2
69	380.0/435.0	166.3
70	385.0/445.0	149.4
71	390.0/450.0	128.9
72	400.0/465.0	95.07
73	405.0/470.0	79.70
74	410.0/475.0	68.65
75	415.0/485.0	60.82
76	420.0/490.0	51.02
77	430.0/505.0	38.65
78	440.0/515.0	27.45
79	445.0/525.0	23.71
80	450.0/530.0	19.67
81	455.0/535.0	16.09
82	480.0/570.0	5.088
83	505.0/275.0	2.731
84	510.0/280.0	3.039
85	535.0/295.0	3.784
86	540.0/300.0	3.734
87	550.0/305.0	4.106
88	550.0/345.0	2.891
89	560.0/310.0	3.547
90	570.0/315.0	3.776
91	575.0/320.0	3.993
92	585.0/325.0	3.290

Data points
	220.0	225.0	230.0	235.0	240.0	245.0	250.0	255.0	260.0	265.0	270.0	275.0	280.0	285.0	290.0	295.0	300.0	305.0	310.0	315.0	320.0	325.0	330.0	335.0	340.0	345.0	350.0	355.0	360.0	365.0	370.0	375.0	380.0	385.0	390.0	395.0	400.0	405.0	410.0	415.0	420.0	425.0	430.0	435.0	440.0	445.0	450.0	455.0	460.0	465.0	470.0	475.0	480.0	485.0	490.0	495.0	500.0	505.0	510.0	515.0	520.0	525.0	530.0	535.0	540.0	545.0	550.0	555.0	560.0	565.0	570.0	575.0	580.0	585.0	590.0	595.0	600.0
230.0	38.44	134.3	 1256	 1189	91.68	20.77	17.37	16.84	14.44	10.93	12.11	8.277	8.155	7.612	6.328	5.226	4.830	4.593	4.045	3.739	3.263	2.943	3.281	2.656	2.735	2.303	1.957	2.119	2.220	2.256	1.989	1.702	1.968	1.914	1.801	1.964	1.831	1.518	1.754	1.642	1.545	1.273	1.466	1.257	1.300	1.275	1.315	2.548	5.207	4.711	2.462	1.332	1.043	1.058	1.082	1.232	0.994	1.010	0.915	1.045	0.929	0.880	1.033	1.036	0.940	1.021	0.944	0.852	0.842	0.867	0.855	0.793	1.066	0.889	1.048	0.969	0.991
235.0	43.70	69.02	471.0	 1882	 1311	130.6	23.82	16.37	11.28	13.58	11.45	8.272	10.48	7.254	6.227	5.091	4.330	5.336	4.305	4.009	3.313	2.998	3.189	2.390	2.984	2.216	2.177	2.098	2.418	2.076	2.209	2.217	2.218	1.816	1.645	1.714	1.630	1.680	1.519	1.633	2.002	1.455	1.188	1.074	1.437	1.354	1.247	1.808	2.402	4.094	6.123	6.429	3.952	1.405	1.382	0.999	1.022	0.983	1.140	1.095	0.907	0.638	1.011	0.853	0.959	1.098	1.071	1.081	0.763	0.970	0.757	0.832	0.880	0.811	0.883	1.225	0.817
240.0	58.95	58.52	131.1	923.2	 2395	 1229	96.25	17.28	10.71	12.72	12.35	10.21	8.947	8.500	6.747	6.207	3.956	4.011	3.708	2.912	3.403	2.729	2.773	2.615	4.717	3.103	2.204	2.011	2.110	2.780	2.289	2.294	1.873	1.885	1.756	1.721	1.669	1.817	1.836	1.935	1.760	1.593	1.115	1.145	1.094	1.420	1.405	1.457	1.194	1.734	3.519	7.868	10.74	7.347	3.245	1.151	1.040	0.839	1.108	1.074	0.983	0.902	0.876	0.949	1.138	0.810	0.852	0.860	0.922	0.948	0.929	0.812	1.015	0.833	0.845	0.948	0.973
245.0	35.94	57.73	59.36	272.5	 1442	 3206	 1121	47.87	14.20	12.73	12.63	9.428	8.251	8.847	7.096	5.587	4.750	5.040	4.686	3.364	3.123	2.671	3.726	2.328	3.282	2.645	2.478	2.510	2.318	3.362	1.726	2.070	2.403	1.314	1.602	1.804	1.603	1.989	1.718	1.617	1.588	1.925	1.326	1.673	1.837	1.526	1.456	1.203	1.218	1.061	1.592	3.202	6.667	11.54	12.47	6.770	1.766	0.866	1.013	1.148	1.002	0.754	0.952	0.941	0.781	1.367	0.914	1.076	0.916	1.068	0.935	0.944	0.893	0.683	0.883	0.821	1.114
250.0	41.34	42.27	85.48	132.4	387.9	 1678	 3422	 2402	427.7	20.57	14.89	9.960	10.54	9.068	6.871	5.632	5.694	4.421	4.788	4.004	3.388	3.018	3.164	3.271	2.669	2.371	2.735	2.376	2.196	2.779	2.022	2.028	2.509	1.676	1.719	1.848	1.536	1.714	1.846	1.617	1.230	1.798	1.365	1.504	1.596	1.422	1.334	1.195	1.361	1.166	1.330	1.672	2.361	4.469	7.869	11.59	14.72	12.63	6.576	2.151	0.945	0.791	0.876	0.883	0.920	1.071	0.966	0.916	1.067	1.043	0.972	0.962	0.850	0.725	0.787	0.883	1.057
255.0	43.87	39.86	47.57	122.1	169.8	404.0	 1252	 4834	 5938	417.3	17.13	8.471	12.36	10.49	8.036	7.874	5.757	4.091	5.278	4.436	3.348	3.490	2.666	2.858	2.580	2.100	2.291	2.122	1.969	2.036	1.963	2.112	2.268	1.687	1.937	2.005	1.558	1.515	1.547	1.438	1.385	1.493	1.423	1.074	1.450	1.477	1.440	1.152	1.267	0.942	1.664	1.690	1.526	2.070	2.612	3.493	6.156	13.68	22.80	22.19	9.635	2.106	1.030	0.939	0.775	0.868	1.110	0.830	0.703	1.064	0.822	1.021	0.972	0.707	0.871	1.086	0.907
260.0	39.50	40.71	31.29	86.72	185.6	160.5	321.6	 2162	 8388	 4009	222.4	15.50	15.46	9.678	9.675	8.586	6.334	5.756	5.348	4.255	2.898	2.892	2.772	2.593	2.622	2.684	2.992	2.379	2.037	2.340	2.558	2.006	2.256	1.982	1.632	1.563	1.534	1.205	1.566	1.518	1.976	1.338	1.506	1.320	1.348	1.432	1.381	1.295	1.307	0.837	1.170	1.464	1.558	1.663	1.669	2.016	2.275	4.427	11.07	22.55	30.47	20.08	5.880	1.029	1.039	0.691	0.915	0.998	0.952	1.283	0.969	0.998	0.786	0.907	0.942	1.000	0.664
265.0	26.32	34.16	28.67	46.99	133.4	214.4	124.2	549.1	 4018	 8259	 1080	108.4	15.46	10.17	9.214	8.894	6.875	6.284	4.893	3.961	3.189	3.247	3.345	2.272	2.341	3.304	2.593	2.523	3.001	2.317	2.182	2.236	2.262	1.693	1.780	1.768	1.343	1.525	1.872	1.518	1.713	1.514	1.355	1.362	1.587	1.303	1.331	1.179	1.421	1.017	1.174	1.213	1.656	2.181	1.599	1.592	1.437	1.816	3.257	7.631	18.51	31.75	30.89	13.94	3.009	0.880	0.879	0.902	1.014	0.975	1.013	0.670	0.704	0.825	0.784	0.941	0.888
270.0	50.40	42.14	30.69	32.68	59.88	164.7	243.4	201.2	987.1	 3658	 6867	 4088	359.2	16.86	10.83	9.008	6.844	6.822	5.147	3.845	3.301	3.603	3.437	2.717	2.732	2.760	2.350	2.310	2.592	2.193	2.028	2.153	2.332	1.838	1.840	1.606	1.378	1.776	1.446	1.468	1.623	1.247	1.683	1.502	1.462	1.446	1.273	1.191	1.236	0.939	1.067	1.152	1.074	1.680	1.718	1.972	1.685	1.506	1.734	2.526	5.302	10.17	18.31	26.42	31.45	24.14	10.56	2.248	0.883	0.940	1.035	1.069	0.892	1.023	1.010	1.067	1.124
275.0	52.76	42.31	32.63	32.56	40.22	56.56	194.9	337.9	295.3	849.1	 2253	 8558	 6413	429.7	16.58	10.45	8.533	8.970	4.190	4.516	4.737	2.988	3.642	3.189	2.574	3.031	2.681	2.031	2.819	1.827	2.571	2.070	2.608	1.657	1.661	1.665	1.480	1.466	1.765	1.586	1.397	1.332	1.621	1.182	1.486	1.412	1.181	1.068	1.362	1.126	1.074	1.039	0.924	1.164	1.293	1.476	1.899	2.731	2.188	1.291	1.986	3.091	5.490	7.037	12.76	28.88	45.59	34.99	11.97	1.548	0.819	0.937	0.979	0.883	1.036	1.140	1.182
280.0	50.94	52.75	48.70	39.21	37.71	32.57	87.27	341.0	320.3	235.1	553.6	 3313	9999.9	 5055	267.2	14.02	10.55	8.344	5.147	6.008	4.795	3.689	3.957	4.052	3.071	2.904	2.894	2.086	2.655	2.241	2.327	2.378	2.480	2.220	1.888	1.323	1.719	1.311	1.364	1.183	1.408	1.462	1.425	1.428	1.588	1.629	1.112	1.414	1.371	1.116	1.199	1.097	1.045	1.090	1.166	1.639	1.253	1.988	3.039	2.601	1.936	1.478	1.961	2.454	3.753	8.194	21.23	42.69	48.47	25.50	4.342	1.364	0.893	0.739	1.176	0.799	1.162
285.0	48.86	47.75	43.02	46.27	36.73	32.25	39.71	154.8	446.0	240.4	175.4	840.2	 4944	9999.9	 3735	103.6	14.26	8.575	7.716	6.760	5.475	3.948	3.884	4.301	2.933	3.142	3.152	2.254	2.677	2.272	2.966	2.595	2.596	2.076	2.080	1.451	1.933	1.700	1.433	1.597	1.172	1.552	1.453	1.189	1.693	1.312	1.214	1.598	1.182	1.023	1.009	1.341	1.261	0.974	1.058	1.249	1.344	1.271	1.864	2.637	2.701	1.627	1.647	1.468	2.064	2.661	5.738	13.74	31.60	50.21	40.36	15.55	2.314	0.974	0.961	0.904	0.977
290.0	50.19	67.58	66.43	62.83	42.94	42.92	40.54	74.21	236.9	462.9	307.0	294.6	 1265	 4582	9999.9	 5838	250.3	14.09	9.851	7.132	6.870	4.605	4.384	4.157	3.069	3.655	2.810	2.639	2.772	2.311	2.425	2.473	2.347	1.962	2.192	1.849	1.938	1.775	1.938	1.530	1.495	1.573	1.539	1.272	1.477	1.440	1.387	1.368	1.279	1.178	1.106	1.420	1.165	1.105	1.272	1.277	1.236	1.316	1.586	1.677	2.058	2.547	2.762	2.354	2.000	1.578	2.170	4.183	8.394	17.13	28.12	35.48	37.05	25.35	10.58	1.862	0.993
295.0	45.88	84.04	80.06	77.63	56.09	53.19	46.32	65.46	113.3	277.5	653.8	392.0	457.7	 1163	 2945	9999.9	9999.9	295.0	13.52	8.870	7.255	6.603	4.709	5.500	3.424	3.903	3.054	2.745	3.265	2.728	2.073	3.129	2.521	1.650	2.469	1.884	1.926	1.854	1.509	1.786	1.688	1.151	1.487	1.371	1.285	1.646	1.726	1.505	1.508	1.370	1.329	1.332	1.283	1.183	1.257	1.394	1.208	1.189	1.713	1.352	1.250	1.771	2.610	3.784	3.698	2.204	1.605	2.096	2.992	4.752	6.991	9.432	15.91	32.79	52.39	36.39	10.38
300.0	56.81	86.85	86.00	87.29	74.51	63.40	64.56	73.13	104.6	182.8	510.2	742.5	380.0	429.4	779.5	 3674	9999.9	 3207	193.9	11.46	8.778	6.459	5.054	4.528	3.952	4.246	3.192	3.303	3.083	2.949	2.865	2.304	2.484	2.099	2.482	1.888	1.837	1.537	1.925	1.713	1.931	1.536	1.858	1.259	1.400	1.371	1.598	1.649	1.529	1.351	1.468	1.372	1.374	1.160	1.071	1.147	1.487	1.166	1.391	1.274	1.399	1.504	1.783	2.366	3.734	3.696	2.581	2.039	1.717	2.024	2.761	3.062	4.483	9.864	26.98	49.29	52.78
305.0	70.91	98.85	122.9	112.5	80.03	71.66	70.13	84.47	123.0	180.9	325.6	783.2	656.1	328.3	315.0	931.2	 5688	9999.9	 2593	90.30	11.64	7.934	6.807	5.022	4.353	4.363	3.393	2.796	2.870	2.639	2.631	2.599	2.257	2.142	2.114	2.181	1.593	1.780	1.804	1.596	1.770	1.419	1.763	1.252	1.872	1.309	1.217	1.339	1.645	1.228	1.422	1.644	1.461	1.204	1.219	1.171	1.524	1.288	1.425	1.439	1.777	1.337	1.981	1.959	2.660	3.353	4.106	3.505	2.168	1.893	1.798	1.793	1.897	3.272	7.278	17.03	38.48
310.0	73.57	108.9	141.6	120.4	89.85	96.84	82.89	102.2	139.0	199.2	290.7	492.6	787.0	615.6	283.4	317.3	 1388	 4686	 9410	 6002	167.3	12.51	8.545	5.990	4.964	4.571	3.580	3.148	3.275	3.267	3.246	2.410	2.433	2.169	2.347	2.063	1.957	1.489	1.455	1.548	1.693	1.770	1.563	1.511	1.312	1.383	1.308	1.367	1.659	1.204	1.368	1.591	1.361	1.273	1.344	1.375	1.371	1.464	1.235	1.425	1.726	1.472	1.943	1.904	1.955	2.271	2.878	3.008	3.547	2.786	2.050	1.934	1.511	1.843	2.762	4.612	10.22
315.0	78.79	117.1	156.5	157.4	103.9	127.7	90.63	106.8	154.2	220.0	304.6	398.2	538.2	795.0	559.2	226.5	383.5	 1091	 2786	9999.9	 8320	226.5	12.24	7.710	6.316	4.869	4.233	3.221	3.331	3.180	3.026	2.194	2.549	2.524	2.367	1.845	2.092	1.895	1.545	1.772	1.557	1.934	1.621	1.536	1.561	1.700	1.233	1.390	1.497	1.573	1.326	1.409	1.535	1.615	1.409	1.195	1.526	1.603	1.531	1.744	1.691	1.426	2.034	2.024	2.002	1.789	2.163	2.370	3.098	3.505	3.776	2.858	2.061	1.634	1.758	2.147	3.249
320.0	80.95	131.7	162.7	153.1	110.2	143.0	108.6	120.7	170.4	229.2	329.5	391.9	465.1	586.1	761.2	347.9	175.9	298.3	668.7	 3744	9999.9	 2298	152.8	10.38	6.633	6.032	4.272	4.030	3.367	3.375	3.579	2.554	2.637	2.428	2.414	1.960	1.879	1.488	1.403	1.986	1.435	1.658	1.134	1.843	1.468	1.517	1.028	1.483	1.345	1.629	1.119	1.617	1.396	1.632	1.180	1.294	1.609	1.362	1.857	1.600	1.830	1.630	2.106	2.144	1.775	2.057	1.874	2.313	2.410	2.341	3.258	3.993	2.921	2.084	1.552	1.369	1.800
325.0	81.42	127.6	205.7	163.8	116.4	145.0	103.4	138.5	180.1	238.7	321.9	398.9	445.9	458.7	655.4	579.9	190.8	130.2	189.9	898.1	 5033	9999.9	 1964	84.10	8.611	7.003	5.499	4.137	3.758	4.024	3.568	3.125	2.594	2.566	2.213	2.241	2.119	1.505	1.460	1.884	1.414	1.740	1.370	1.680	1.890	1.246	1.407	1.435	1.629	1.625	1.322	1.391	1.546	1.812	1.650	1.494	1.625	1.470	1.906	1.953	2.021	1.565	1.907	2.248	1.956	2.184	2.117	2.334	2.362	1.938	2.520	3.252	3.248	3.290	1.884	1.453	1.216
330.0	96.03	127.6	200.2	183.4	136.5	155.0	116.0	143.5	195.0	265.8	333.8	410.0	450.0	455.9	446.9	528.3	426.4	164.1	98.28	240.8	 1205	 4466	 8220	 5174	131.9	11.49	6.501	5.119	4.467	4.067	4.108	3.141	2.518	2.424	2.183	1.898	2.066	1.882	1.642	1.698	1.752	1.711	1.847	1.716	1.423	1.417	1.512	1.435	1.616	1.434	1.403	1.653	1.344	1.511	1.842	1.468	1.761	1.679	1.756	1.788	1.872	1.807	2.043	2.396	2.358	2.336	2.200	2.263	2.616	2.074	2.395	2.376	2.607	2.566	3.046	2.487	2.159
335.0	94.44	147.1	174.7	195.0	147.7	167.2	133.1	168.0	196.1	269.1	331.8	406.7	450.9	447.4	391.6	346.3	420.1	382.1	125.3	104.1	309.7	 1027	 2563	 9357	 7137	182.0	9.663	6.496	5.792	3.951	4.322	3.299	2.692	2.678	2.074	1.818	1.993	2.228	1.506	1.785	1.676	1.890	1.810	1.438	1.325	1.519	1.622	1.891	1.397	1.296	1.195	1.527	1.552	1.706	1.347	1.609	1.901	1.889	1.586	1.758	1.926	2.192	1.991	1.991	2.697	2.387	2.065	2.526	2.557	2.552	2.146	2.180	2.166	2.140	2.121	2.251	3.203
340.0	84.09	117.4	178.2	177.8	156.2	155.3	139.3	174.4	210.5	255.8	347.1	406.7	443.7	446.4	382.0	306.7	293.9	449.4	262.0	91.21	116.0	266.2	609.5	 3695	9999.9	 5340	126.0	8.935	6.778	5.442	4.446	3.830	3.041	2.654	2.637	2.144	2.340	1.910	2.039	1.750	2.111	1.768	1.645	1.776	1.366	1.454	1.509	1.749	1.593	1.642	1.430	1.409	1.615	1.337	1.436	1.282	1.629	1.995	1.949	1.837	1.948	2.138	2.108	2.182	2.530	2.392	2.099	2.583	2.463	2.335	2.098	2.018	2.139	1.851	1.762	1.932	2.506
345.0	79.41	133.4	175.4	188.3	152.8	161.7	161.4	177.1	202.9	264.4	326.4	411.0	454.2	437.5	373.2	307.5	237.0	326.4	401.8	163.7	80.60	102.8	173.5	887.8	 5134	9999.9	 1632	68.40	8.275	6.300	5.845	4.504	3.883	2.425	2.761	2.435	2.512	1.956	2.014	1.898	1.913	1.840	1.502	1.799	1.668	1.437	1.705	1.747	1.703	1.610	1.438	1.428	1.590	1.480	1.685	1.515	1.820	1.694	2.226	1.783	1.886	2.336	2.042	2.702	2.080	2.288	2.891	2.149	2.335	2.242	2.351	1.800	2.386	2.017	2.182	1.784	2.140
350.0	83.07	129.1	165.5	186.8	172.9	179.4	164.0	189.9	214.0	253.8	333.0	380.0	419.4	419.4	367.4	303.3	237.1	223.1	315.7	317.8	155.3	85.38	87.35	237.1	 1245	 4821	 8047	 4640	113.2	9.903	6.281	5.001	4.467	3.488	2.987	2.762	2.356	1.822	2.017	2.081	1.705	1.723	1.514	1.612	1.546	1.491	1.435	1.644	1.608	1.604	1.392	1.359	1.555	1.818	1.606	1.625	1.699	1.771	1.940	2.130	2.036	2.152	1.961	2.620	2.351	2.223	2.313	2.165	2.254	2.054	1.967	1.780	2.092	1.888	1.985	1.859	1.921
355.0	81.83	120.4	175.1	179.2	177.1	193.3	174.3	186.6	215.5	267.8	319.6	359.8	396.0	406.7	363.0	305.6	246.8	212.3	211.1	288.0	321.1	137.7	79.10	101.3	317.0	 1107	 2704	 9037	 6508	156.0	8.015	6.108	4.540	3.912	3.497	2.865	2.933	2.507	1.755	1.822	2.118	1.769	1.768	1.315	2.134	1.307	1.480	1.872	1.465	1.542	1.393	1.401	1.380	1.591	1.816	1.911	1.657	1.879	1.716	2.120	2.112	2.051	2.073	2.600	2.557	2.055	2.125	2.092	2.140	2.292	2.041	1.859	1.936	1.988	1.808	2.006	2.115
360.0	87.10	104.6	155.7	182.8	173.4	183.2	189.3	198.1	233.8	258.5	312.8	352.8	388.4	398.8	363.2	307.2	252.0	219.0	194.2	212.8	330.5	256.6	102.9	83.96	118.9	283.4	644.8	 3833	9999.9	 4706	106.8	7.950	5.763	4.993	3.991	2.930	2.696	2.277	2.033	2.120	2.413	2.229	1.761	1.661	1.867	1.621	2.049	1.833	1.470	1.392	1.616	1.452	1.447	1.700	1.586	1.447	1.546	1.893	1.764	1.924	2.262	2.118	2.088	2.203	2.348	2.081	2.092	2.257	2.371	2.310	1.990	1.938	1.761	2.046	1.920	2.121	1.924
365.0	79.42	119.5	162.2	178.6	181.5	203.3	201.8	206.4	226.9	258.2	314.1	361.9	383.2	379.7	368.3	310.5	260.8	235.8	214.7	196.5	247.9	330.1	181.7	91.81	84.43	111.5	179.5	929.6	 5270	9999.9	 1445	51.87	7.320	5.681	4.004	3.529	3.132	2.324	2.260	2.407	2.393	2.556	1.816	1.712	1.843	2.102	1.762	1.752	1.721	1.365	1.579	1.291	1.568	1.624	1.572	1.537	2.024	1.898	1.722	1.729	2.086	2.470	2.266	2.025	2.397	1.870	2.225	2.084	2.102	2.245	1.975	1.941	2.029	1.880	2.455	1.943	1.985
370.0	95.73	123.6	153.5	196.0	194.3	214.9	214.8	233.5	230.9	275.1	313.7	339.3	361.4	366.6	356.4	312.7	275.0	259.8	228.1	210.4	205.0	256.8	292.0	172.9	99.08	84.80	88.34	245.4	 1285	 4993	 8340	 4297	89.68	7.786	4.965	3.867	3.752	2.659	2.375	2.446	2.414	2.018	1.920	1.610	1.894	1.773	1.537	1.617	1.729	1.573	1.654	1.671	1.581	1.695	1.613	1.395	1.773	2.061	1.964	1.933	1.821	2.324	2.251	2.171	2.220	2.173	2.380	2.392	2.051	2.221	2.129	2.070	1.935	2.082	2.326	1.795	1.930
375.0	89.03	119.7	167.4	207.2	209.1	222.5	221.5	242.8	254.8	280.5	314.6	333.3	351.7	349.0	357.1	322.9	288.6	268.5	248.9	225.3	211.1	213.3	246.2	292.8	159.9	97.08	81.42	102.7	321.8	 1142	 3026	 9369	 5648	116.0	7.018	5.135	4.048	3.409	2.763	2.442	2.403	1.977	2.145	1.656	1.949	2.024	2.042	1.816	1.482	1.725	1.545	1.810	1.445	1.789	2.083	1.856	2.038	1.812	1.651	2.008	2.047	1.770	2.562	2.016	2.296	2.167	2.482	2.263	1.994	2.082	1.872	1.952	2.154	2.027	2.007	1.588	1.849
380.0	89.23	98.29	163.4	214.7	211.4	230.0	233.4	248.7	260.0	275.8	318.2	330.6	351.4	348.9	351.1	321.0	300.6	276.8	264.4	237.3	226.5	207.3	206.0	285.8	253.5	127.8	89.76	79.47	113.1	285.5	718.5	 4363	9999.9	 1302	70.52	6.301	4.455	3.982	2.785	2.521	2.560	2.345	2.195	1.856	1.988	1.700	1.773	2.050	1.549	1.496	1.654	1.814	1.788	2.096	1.843	1.897	2.452	2.386	1.954	1.820	2.267	1.633	2.491	1.832	2.231	2.156	2.053	1.597	2.239	2.250	1.899	1.689	2.035	2.002	1.999	1.776	1.968
385.0	85.28	100.8	167.9	205.7	216.5	238.2	240.0	259.5	272.3	276.1	307.5	326.8	337.8	352.9	340.9	313.1	299.5	285.0	273.3	254.5	234.3	213.5	199.6	228.7	299.8	192.3	109.5	84.94	77.96	104.8	192.4	 1073	 5902	 8846	 1080	25.56	6.081	4.621	3.660	2.881	2.280	2.117	2.339	1.767	2.090	1.391	1.615	1.756	1.693	1.799	1.652	1.849	1.422	2.020	2.172	1.944	2.031	1.907	2.092	2.107	2.257	1.810	2.124	1.861	2.502	2.209	1.841	2.157	2.123	1.846	2.071	1.755	1.927	1.802	1.790	1.950	1.724
390.0	88.66	114.3	150.1	205.9	232.4	237.4	256.6	271.2	276.3	293.5	312.8	337.8	329.7	343.7	338.5	316.7	301.1	293.0	283.5	259.1	246.0	225.4	208.0	203.8	244.1	262.7	179.2	109.2	83.38	77.27	82.79	269.2	 1472	 4820	 7110	 2912	66.09	6.722	4.700	3.466	2.851	2.651	2.320	1.933	1.981	1.682	1.588	1.705	1.792	1.574	1.676	1.961	1.551	2.130	2.016	1.855	2.200	2.054	2.118	2.241	2.128	1.727	2.134	1.858	2.244	2.268	2.146	2.282	2.271	2.009	2.128	2.046	1.816	2.005	2.016	2.147	1.945
395.0	81.92	113.4	143.1	201.9	235.3	244.3	266.7	287.7	285.6	286.7	312.6	326.2	331.3	327.7	334.2	311.1	300.9	291.6	282.4	266.7	249.0	238.2	213.0	207.4	201.3	228.2	263.1	163.8	101.0	83.79	69.08	98.69	354.8	 1100	 2948	 8134	 4074	83.03	5.747	4.154	3.334	2.980	2.382	1.881	2.091	1.960	1.730	1.848	1.715	1.664	1.708	2.254	2.149	2.030	1.819	1.847	2.408	2.034	1.864	2.282	2.162	2.118	2.170	2.206	2.028	2.016	2.006	2.151	1.967	2.313	2.239	2.253	1.881	2.405	2.411	2.478	1.803
400.0	78.66	113.9	159.2	201.1	238.5	240.5	252.5	278.6	292.6	292.4	312.8	328.0	334.2	328.0	331.5	310.5	293.3	296.9	279.5	270.6	251.4	239.2	222.5	212.3	198.3	197.6	251.6	235.9	129.6	96.58	74.21	65.94	110.6	268.1	702.7	 4237	 8447	 1058	49.40	4.901	3.878	3.709	2.739	2.356	1.932	1.711	2.181	2.065	1.650	1.737	1.857	2.014	2.026	1.889	1.583	2.062	2.386	2.179	1.834	2.019	2.300	2.222	2.141	2.094	2.155	2.044	2.163	2.034	2.073	1.845	2.503	1.893	2.590	2.067	1.958	2.684	2.245
405.0	72.74	116.9	165.5	199.5	237.9	243.4	273.7	279.8	286.4	297.7	293.8	326.9	323.6	337.1	334.3	308.1	285.7	292.2	282.3	274.7	252.2	242.5	226.6	219.7	201.6	192.4	209.0	257.2	185.6	107.6	86.43	66.44	64.24	86.06	177.1	 1074	 5304	 7385	870.5	17.10	4.508	3.995	3.419	2.535	2.111	2.143	1.835	1.957	1.618	1.855	2.012	2.200	2.240	1.895	1.472	2.099	2.131	2.102	2.208	1.840	2.397	1.841	2.164	2.147	1.847	2.126	2.239	2.077	2.248	1.904	1.949	1.917	2.087	2.119	1.906	2.391	1.903
410.0	66.34	113.5	147.3	197.0	221.9	248.4	278.7	271.2	289.9	317.1	295.6	325.1	327.1	326.3	322.2	302.9	291.8	284.3	274.1	270.3	251.2	240.5	232.3	223.3	210.1	198.5	191.0	211.9	227.7	166.8	104.8	76.17	60.44	52.78	64.55	258.1	 1347	 4430	 6028	 2290	53.40	4.930	3.737	3.150	2.234	2.303	2.105	1.912	2.004	1.839	1.630	2.047	2.002	1.960	1.864	2.075	2.070	2.248	2.429	1.846	2.045	1.759	2.323	2.125	2.093	2.011	2.496	1.967	2.045	1.893	1.937	2.183	2.125	1.823	2.001	1.968	2.114
415.0	85.38	97.29	163.2	185.0	240.6	242.4	260.4	269.5	295.4	298.3	315.6	327.0	324.8	313.4	308.4	294.8	278.4	276.3	259.5	268.6	251.5	237.9	229.2	219.7	213.2	201.5	187.1	186.4	200.2	226.9	148.5	91.11	68.32	51.71	47.43	80.29	315.9	 1009	 2642	 6641	 3277	71.81	4.593	3.519	2.861	2.320	2.231	2.143	1.995	1.570	1.404	1.881	1.934	1.824	2.318	2.111	1.931	2.181	2.296	2.495	2.033	2.178	1.962	2.276	2.222	1.977	1.884	2.305	1.862	2.056	2.235	2.224	1.940	1.702	1.979	1.889	2.012
420.0	81.55	98.44	145.3	186.1	220.2	244.0	273.6	286.0	305.5	295.8	314.3	325.8	307.0	304.7	292.8	285.1	271.7	266.9	257.1	254.9	244.7	236.0	228.6	223.0	218.6	201.9	194.5	187.7	177.3	216.5	193.8	113.2	75.55	58.40	45.39	45.03	89.45	240.3	636.7	 3636	 7060	943.2	34.14	4.405	3.242	2.611	2.364	2.367	2.000	1.610	1.684	1.985	1.886	1.925	1.586	2.212	2.100	2.346	2.452	2.064	2.223	1.750	1.880	1.807	2.126	1.661	2.218	2.365	2.177	2.025	1.738	2.051	2.287	1.802	1.874	1.944	2.075
425.0	75.74	99.04	138.3	204.4	208.2	224.2	271.6	271.7	307.8	310.3	316.1	311.2	308.8	300.3	294.5	276.5	273.7	252.9	259.3	248.2	240.5	230.2	222.9	215.4	211.1	209.2	195.0	183.6	170.2	180.4	209.1	149.6	86.19	64.30	51.06	40.48	42.57	71.58	156.2	933.2	 4621	 6085	716.9	11.29	4.136	3.397	2.392	2.204	2.105	1.818	1.552	2.213	2.117	2.003	2.163	2.619	2.010	2.751	2.201	1.953	1.878	1.938	2.016	2.007	2.083	1.715	1.988	1.835	1.907	2.189	1.589	1.824	1.916	1.683	1.642	1.898	2.139
430.0	91.74	99.49	140.6	188.5	201.8	236.5	261.2	290.6	293.9	306.3	307.4	311.2	300.9	296.9	284.4	264.8	260.8	249.8	246.1	237.7	230.9	222.2	217.0	211.4	208.4	206.8	193.4	182.1	173.4	163.1	180.6	182.2	123.7	75.94	59.06	44.09	36.22	38.14	51.49	221.8	 1183	 3754	 4873	 1849	46.81	4.079	3.018	2.494	2.304	1.950	1.593	2.237	2.048	2.015	2.127	2.121	2.309	2.468	2.155	2.239	1.888	1.875	2.306	2.023	1.915	1.848	1.924	1.839	2.131	1.814	1.830	1.685	1.737	1.750	1.905	2.086	2.171
435.0	152.7	103.6	135.9	180.0	224.3	238.6	249.5	278.2	301.1	300.9	302.0	315.5	302.4	289.4	282.5	264.4	250.3	241.8	236.0	228.1	224.8	213.6	208.7	206.9	206.7	203.2	196.4	187.5	177.8	163.0	158.5	159.7	166.3	106.0	68.00	51.01	40.03	35.36	31.15	65.67	276.8	855.1	 2324	 5833	 2625	57.18	3.728	3.018	2.445	2.129	1.870	2.355	2.009	2.192	2.038	2.237	2.166	2.053	2.472	2.380	1.874	1.963	2.392	2.215	2.037	1.811	1.831	2.278	1.828	1.944	1.858	1.620	1.872	1.633	2.072	1.934	1.896
440.0	183.6	129.8	137.2	172.1	212.2	240.2	251.4	260.5	292.4	286.7	307.7	315.2	299.8	295.1	277.8	254.2	241.8	231.4	227.0	222.3	221.6	206.2	204.7	202.1	203.2	197.0	194.9	188.2	178.4	166.8	153.3	143.3	158.7	134.9	82.91	56.60	45.49	37.20	29.95	32.76	76.95	203.3	565.3	 3353	 6025	815.6	28.32	4.029	3.245	2.346	2.158	2.574	1.935	1.920	2.018	2.209	2.248	2.353	2.439	2.322	2.176	1.787	2.592	2.238	1.959	2.085	1.846	1.844	2.019	1.769	2.178	1.723	1.975	1.682	1.798	1.737	2.034
445.0	157.9	254.0	139.6	171.7	202.7	231.9	255.0	263.1	290.3	298.4	298.8	319.0	304.1	292.6	271.0	249.0	234.2	222.6	220.1	213.4	206.0	202.9	200.3	203.3	196.5	192.9	191.6	181.5	176.2	171.0	158.4	138.9	135.5	149.4	105.9	63.39	51.66	41.60	31.93	26.32	33.66	59.41	137.8	879.0	 4177	 5230	592.3	10.15	3.847	2.425	2.410	2.029	2.048	2.109	2.137	2.477	2.474	2.275	2.170	2.640	1.920	2.302	2.148	2.231	2.054	1.834	1.684	2.220	1.737	1.882	1.686	2.042	1.697	1.779	1.817	1.640	1.979
450.0	110.5	404.0	264.3	167.5	198.1	225.3	247.0	275.5	287.6	294.0	294.2	314.7	297.9	278.2	256.7	238.0	217.9	218.9	213.6	200.3	194.9	191.4	189.1	186.4	182.9	183.7	184.0	180.4	171.3	162.7	154.3	137.9	121.4	123.4	128.9	88.68	60.33	46.66	37.06	29.74	26.56	28.64	43.09	206.7	 1085	 3429	 4637	 1699	38.00	3.757	2.619	2.689	2.309	2.478	2.312	2.168	2.099	2.249	2.172	2.286	2.278	2.400	2.018	2.234	2.111	1.900	2.145	2.104	1.793	2.006	1.820	1.953	1.633	1.622	1.746	1.866	2.058
455.0	78.73	300.1	632.1	201.3	196.2	227.2	227.1	257.5	269.5	279.7	283.2	285.4	293.2	262.9	249.9	221.0	202.2	198.2	193.1	188.4	179.9	182.6	175.1	167.7	171.3	172.7	170.0	170.1	165.1	156.3	152.0	136.4	118.1	105.5	109.4	109.1	73.14	50.49	40.90	33.45	26.65	23.27	24.25	56.53	250.8	782.5	 2165	 5326	 2258	41.54	3.307	3.098	2.643	2.644	2.095	2.402	2.359	2.545	2.065	1.933	1.914	2.043	2.362	2.531	1.941	1.835	1.903	1.790	1.714	1.822	2.082	1.875	1.420	1.590	1.630	2.057	1.874
460.0	62.88	150.4	788.0	387.7	174.6	212.6	229.2	243.9	243.6	262.2	272.6	282.1	267.0	247.9	229.4	207.1	197.1	185.6	180.5	173.7	168.2	167.7	159.9	159.4	164.2	165.3	164.8	161.4	155.6	154.9	141.5	133.9	113.1	101.9	94.33	107.1	91.67	59.12	42.26	35.95	29.13	22.90	21.06	24.16	65.28	183.6	524.5	 3072	 5337	595.5	21.79	3.610	2.978	2.871	2.352	2.288	2.531	2.703	2.058	2.049	1.877	2.036	2.512	1.916	1.958	1.634	1.880	1.928	2.286	2.052	1.678	1.493	1.530	1.930	1.575	1.908	1.832
465.0	61.77	104.3	671.7	792.1	193.7	192.2	211.8	230.8	245.9	263.0	267.5	271.6	264.2	229.9	223.2	201.7	195.3	179.3	172.8	157.7	160.0	157.1	150.7	153.9	156.2	149.4	154.9	146.4	152.1	146.7	137.5	127.3	114.0	99.47	88.32	91.58	95.07	71.50	45.03	36.68	30.55	24.60	21.14	18.06	25.45	50.33	124.8	802.5	 3797	 4303	481.4	7.696	3.256	2.858	2.190	2.347	2.590	2.298	2.028	2.345	2.135	2.167	2.244	2.135	1.750	1.897	2.072	1.856	2.394	1.959	1.635	2.095	1.609	1.690	1.832	1.866	1.553
470.0	69.03	87.84	314.4	 1173	530.8	178.4	195.3	221.4	235.1	248.8	252.4	249.3	237.8	214.9	203.2	188.1	174.4	164.9	156.3	149.5	142.9	140.7	139.6	143.2	139.4	140.0	141.1	139.3	139.5	132.8	129.1	119.2	107.4	94.78	84.04	75.83	78.80	79.70	58.56	40.10	32.18	25.81	22.01	17.86	17.13	20.88	36.16	186.7	985.3	 2933	 3468	 1244	33.70	3.427	2.689	2.414	2.684	2.119	2.169	2.020	2.008	2.247	2.120	2.041	1.908	2.042	1.788	1.934	1.929	1.843	1.638	1.784	1.608	1.560	1.722	1.699	1.508
475.0	67.63	84.12	136.5	718.3	 1224	248.1	179.8	202.6	224.6	217.6	250.8	233.2	224.2	201.5	187.9	169.3	158.6	146.9	143.1	136.0	132.8	127.6	122.5	124.6	125.8	130.2	128.3	123.8	124.9	125.3	118.5	110.9	100.1	88.90	77.32	68.04	64.52	68.30	68.65	47.62	32.63	26.40	22.69	17.82	16.01	15.06	17.56	48.87	225.4	667.3	 1665	 3706	703.9	42.37	3.206	2.860	3.019	2.280	2.164	2.223	1.898	2.022	2.095	1.784	2.173	1.824	1.432	1.838	1.715	1.370	1.535	1.544	1.712	1.879	1.978	1.719	1.833
480.0	61.52	76.74	96.26	323.6	 1389	647.4	164.3	176.0	212.1	219.1	220.4	219.4	208.8	190.8	174.2	165.8	146.6	140.5	129.8	130.5	124.7	116.5	113.7	114.6	113.0	119.0	116.5	115.8	121.5	117.4	113.6	102.4	93.83	86.36	75.76	65.08	60.18	58.97	65.76	56.04	35.68	27.90	21.71	17.77	15.75	14.13	13.49	18.56	56.69	154.8	405.2	 2111	 3535	636.2	16.17	3.464	2.893	3.059	2.055	2.088	2.171	1.914	1.835	1.727	2.176	1.739	1.735	2.089	1.977	1.582	1.409	1.619	1.652	1.650	1.633	1.867	1.641
485.0	70.59	74.57	88.92	157.3	982.7	 1287	188.8	168.4	184.9	198.9	208.1	207.7	199.9	186.6	165.1	157.6	138.5	130.7	121.7	119.6	114.2	107.8	107.8	105.4	105.9	111.8	107.4	110.4	114.1	107.2	107.2	100.1	91.33	82.36	70.78	62.96	57.53	54.51	56.44	60.82	45.42	28.70	23.96	19.50	16.26	14.52	12.72	13.03	19.78	40.55	96.07	552.6	 2577	 3243	97.30	6.433	3.368	2.699	2.116	2.103	2.067	1.508	1.980	1.823	1.742	1.671	1.999	1.893	1.719	1.709	1.608	1.837	1.729	1.528	1.538	1.939	1.389
490.0	54.91	77.00	88.49	119.3	406.3	 1592	695.9	168.1	178.9	185.7	188.5	194.9	180.8	171.4	156.5	141.1	129.5	121.5	112.2	107.7	103.7	99.78	98.62	96.40	97.04	99.90	98.87	100.7	103.7	101.1	101.0	95.26	85.79	76.36	69.63	63.74	54.56	50.87	47.50	50.20	51.02	35.73	25.09	20.80	17.06	15.44	12.77	10.99	11.84	15.32	26.81	128.2	663.4	 2024	 2780	 1119	34.86	3.262	2.808	2.212	2.376	1.923	2.145	1.756	1.742	1.502	1.583	1.813	1.642	1.863	1.848	1.404	1.468	1.541	1.593	1.750	1.367
495.0	50.27	73.84	100.8	102.1	180.8	845.3	 1615	281.8	169.0	166.4	182.2	177.9	167.7	161.9	141.1	123.4	115.4	112.4	103.5	98.48	94.68	87.61	89.61	88.72	90.30	88.82	93.12	92.99	90.71	92.11	89.69	87.54	79.89	71.75	64.71	61.13	52.29	47.28	42.88	40.28	42.97	41.98	29.96	21.35	17.71	15.92	13.16	12.09	10.39	9.680	11.42	33.56	152.3	459.6	 1323	 3412	755.2	43.00	2.958	2.585	2.588	2.196	2.000	2.061	1.964	1.685	1.572	1.592	1.299	1.863	1.841	1.406	1.397	1.373	1.601	1.697	1.257
500.0	53.48	64.42	99.82	113.9	115.8	332.3	 1779	780.2	159.2	156.0	177.3	164.7	158.5	145.1	129.6	124.2	108.6	99.67	95.70	85.90	84.03	82.03	79.67	81.20	82.66	79.53	81.13	85.39	81.77	85.84	82.63	77.99	74.97	68.12	60.83	57.16	50.02	43.56	40.62	36.65	34.78	40.94	35.39	23.48	18.31	15.15	12.57	12.30	11.22	8.085	8.617	11.94	38.52	107.4	318.0	 1891	 3424	643.4	17.61	3.300	2.266	2.168	2.128	2.005	1.809	2.048	1.740	1.533	1.322	1.276	1.644	1.306	1.354	1.370	1.188	1.384	1.314
505.0	60.69	56.90	105.6	114.6	98.35	162.1	 1199	 1549	188.1	149.6	159.6	159.7	143.6	142.9	122.7	108.2	96.98	93.61	87.17	79.03	77.98	75.56	74.21	73.57	73.45	73.53	76.83	76.01	76.23	76.54	75.28	74.88	70.06	60.95	57.31	51.23	48.04	41.64	37.63	33.44	30.53	33.35	38.65	26.63	18.60	15.26	13.41	12.41	10.61	8.383	7.493	7.541	12.90	28.14	74.96	484.5	 2408	 3172	102.8	5.844	2.879	2.153	2.139	1.856	1.661	1.886	1.630	1.494	1.069	1.481	1.406	1.423	1.266	1.400	1.262	1.564	1.333
510.0	56.66	71.48	87.99	114.0	99.20	114.3	433.4	 1826	887.5	149.2	145.5	143.3	132.9	134.9	109.6	101.5	87.74	82.52	77.60	71.25	67.98	65.83	65.88	65.15	66.40	65.21	66.74	68.87	67.24	67.43	67.58	67.47	62.07	55.75	51.40	46.15	42.03	39.43	34.53	31.18	27.74	26.71	30.37	29.62	23.20	16.29	13.42	10.91	10.80	9.049	7.614	6.780	6.797	10.36	20.27	112.1	613.9	 1934	 2519	963.0	33.16	3.015	2.159	2.198	1.656	1.700	1.718	1.298	1.461	1.480	1.181	1.430	1.525	1.419	1.166	1.553	1.350
515.0	58.67	63.40	68.78	86.47	135.8	91.87	166.8	885.2	 2053	326.7	126.0	129.9	115.0	116.0	99.15	87.43	79.50	70.80	69.05	64.53	61.50	57.93	56.64	57.43	55.76	58.67	59.71	60.26	61.25	59.62	60.18	58.68	52.67	49.29	44.74	42.53	36.54	34.50	31.11	29.09	25.33	23.34	22.12	25.40	27.45	19.29	13.08	11.26	9.969	8.570	7.250	7.269	5.824	6.436	8.030	28.49	140.5	438.0	 1140	 2868	728.1	34.67	2.750	1.963	1.819	1.537	1.507	1.441	1.438	1.369	1.337	1.560	1.088	1.541	1.385	1.352	1.091
520.0	48.52	49.59	64.49	73.54	134.4	86.52	101.3	320.9	 2030	981.4	111.6	114.9	115.4	104.3	86.54	80.82	75.08	65.13	65.19	60.11	56.35	54.57	49.10	53.65	52.09	50.85	52.50	51.75	53.95	53.69	53.97	54.67	47.70	45.49	41.35	38.10	34.09	31.33	28.61	26.27	24.10	21.70	19.20	21.10	24.99	22.89	14.39	10.73	9.943	8.258	6.827	6.847	6.012	5.650	5.293	10.03	35.05	100.5	272.7	 1548	 2714	589.2	13.55	2.484	2.037	1.727	1.718	1.279	1.406	1.388	1.285	1.116	1.100	1.248	1.329	1.218	1.157
525.0	51.59	46.97	42.67	57.01	99.67	109.3	90.76	143.7	 1198	 1958	182.2	107.5	109.5	94.70	81.71	73.09	65.13	58.60	58.08	52.82	52.52	48.60	45.42	46.56	47.60	48.00	49.39	47.06	48.73	47.52	51.08	46.61	43.90	40.55	38.21	35.87	32.24	29.09	26.23	22.73	22.33	20.34	17.74	17.03	21.05	23.71	17.42	11.52	9.866	8.309	6.658	6.439	5.494	4.886	4.501	6.152	11.41	25.77	64.43	392.6	 1830	 2400	99.43	4.180	2.184	1.939	1.660	1.578	1.301	1.230	1.203	1.098	1.004	1.300	1.371	1.003	1.276
530.0	43.21	50.64	44.24	52.50	75.49	113.0	79.02	94.57	392.0	 2017	 1105	105.4	95.38	82.76	76.34	67.25	60.54	53.32	51.97	47.86	44.50	44.49	40.65	39.91	41.15	40.85	42.40	43.13	43.83	42.87	43.03	40.22	37.97	35.15	33.15	31.01	27.87	25.42	24.09	22.07	19.39	18.27	16.17	14.89	15.69	18.72	19.67	13.79	9.129	7.565	6.557	6.085	5.407	5.175	4.884	4.864	5.796	8.633	17.20	90.46	461.9	 1423	 2016	423.5	28.61	2.132	1.772	1.695	1.374	1.271	1.216	1.107	1.246	1.368	1.168	1.220	1.483
535.0	52.47	50.26	47.87	57.39	61.12	99.84	99.10	75.94	143.1	808.2	 2284	353.3	91.39	73.72	66.33	57.44	50.97	49.36	44.91	42.41	37.77	36.25	35.94	37.38	35.54	36.27	37.21	37.03	39.43	37.20	35.86	34.74	34.68	30.85	28.67	28.45	25.22	22.19	20.57	20.45	17.23	15.91	15.09	14.23	12.96	13.58	16.06	16.09	10.74	7.857	6.420	5.873	5.277	4.571	4.687	3.949	4.456	4.676	6.705	23.06	105.6	321.2	875.5	 1956	659.7	25.34	2.402	1.646	1.443	1.250	1.538	1.370	1.296	1.425	1.212	1.100	1.198
540.0	39.85	44.78	46.64	53.95	51.98	76.59	108.6	69.39	82.47	264.2	 2033	985.0	80.74	69.15	62.33	51.77	45.05	42.86	38.41	36.49	34.79	32.37	34.13	30.77	30.27	30.76	34.44	32.22	33.66	33.04	32.69	32.78	29.32	27.08	26.21	23.88	23.06	21.85	20.00	19.17	15.59	14.70	13.89	12.90	11.64	10.67	12.13	15.50	13.47	7.823	6.180	5.474	5.051	4.214	4.421	3.991	4.084	3.501	3.966	7.677	25.88	73.67	208.1	 1057	 1920	473.1	8.291	1.532	1.935	1.450	1.405	1.475	1.152	1.171	1.338	1.376	1.057
545.0	33.48	37.24	40.95	48.83	52.47	56.26	113.5	79.76	70.31	113.8	 1051	 2121	175.3	63.88	55.44	47.33	40.98	39.62	35.60	33.10	31.27	30.72	29.65	27.20	28.41	28.09	28.23	28.10	31.90	28.29	29.25	28.94	27.20	24.48	23.18	20.50	19.60	19.94	18.11	16.86	13.82	13.83	13.30	11.96	10.57	10.16	10.31	12.99	13.25	9.554	6.723	4.985	4.674	4.056	3.891	3.831	4.183	3.540	3.645	4.090	8.016	18.29	48.43	268.5	 1305	 1632	90.52	2.700	1.835	1.530	1.263	1.591	1.149	1.236	1.218	1.243	0.934
550.0	39.92	34.79	46.08	44.56	52.80	44.92	87.85	93.48	61.34	67.47	322.0	 1913	 1175	66.04	46.75	39.55	36.55	34.25	31.22	29.04	27.79	27.41	24.72	24.12	23.16	24.25	24.23	24.93	25.75	25.76	25.68	24.43	21.59	21.40	19.47	18.76	16.29	15.83	15.15	13.86	12.60	11.69	10.89	9.810	9.560	8.612	8.815	9.199	10.85	10.46	7.565	4.814	4.347	3.814	3.548	3.552	3.665	3.277	3.429	2.877	3.970	5.896	12.71	61.72	332.7	 1007	 1028	370.4	19.68	1.679	1.144	1.235	1.141	1.187	1.119	1.270	1.125
555.0	43.97	38.59	38.88	45.46	38.65	38.65	55.16	100.4	63.95	54.86	113.1	681.2	 2301	348.6	44.38	36.67	31.08	28.77	28.19	22.63	24.45	22.85	20.78	19.37	19.40	20.56	19.93	20.99	21.40	22.20	21.34	18.96	18.71	17.85	16.33	15.04	13.86	13.72	13.31	11.34	10.43	9.824	9.563	8.264	7.990	7.654	7.702	7.109	7.707	9.164	8.455	5.715	4.215	3.149	3.425	3.215	3.298	2.655	3.122	2.910	2.739	3.374	4.538	15.86	75.57	228.1	521.7	 1331	492.9	12.24	1.462	1.232	1.259	1.139	1.153	1.064	0.934
560.0	45.69	45.34	45.93	44.23	39.34	35.53	42.58	86.05	82.91	45.44	61.98	199.7	 1938	790.4	43.93	31.71	27.14	26.73	24.03	20.93	20.98	19.79	18.70	17.26	17.47	17.41	17.14	18.03	16.22	17.41	16.96	16.91	16.08	15.63	14.26	13.05	12.01	11.31	10.81	10.01	9.391	8.763	7.898	7.640	6.638	6.560	6.245	6.003	5.703	7.092	8.414	6.552	4.056	3.200	3.011	3.011	2.840	3.014	3.199	3.148	2.135	2.405	3.073	5.976	18.57	52.86	126.7	756.4	 1224	99.41	3.616	1.661	1.530	1.439	1.159	1.207	0.999
565.0	46.46	38.40	36.49	39.21	36.27	41.02	34.09	68.83	102.5	46.32	51.58	76.15	911.2	 1923	127.8	28.37	23.40	23.26	19.73	19.88	18.17	15.42	16.86	14.90	15.03	14.72	14.66	15.00	14.27	15.69	15.27	15.67	13.71	12.98	12.60	11.41	11.47	10.37	8.788	8.190	8.054	8.079	6.610	6.677	6.202	5.944	5.245	5.249	4.764	5.049	6.973	6.135	4.498	3.321	2.824	3.196	2.837	2.197	2.742	2.870	2.275	2.321	2.137	2.928	5.654	13.49	30.06	199.4	872.0	793.5	73.27	1.617	1.376	1.290	1.262	1.245	1.224
570.0	45.61	35.25	37.79	37.21	35.81	30.74	28.90	41.18	84.41	66.84	41.05	47.00	262.4	 1632	953.2	34.14	22.12	18.67	16.92	16.84	15.13	14.67	13.62	11.89	12.68	12.39	12.39	12.39	11.76	12.52	12.69	12.54	12.35	10.48	9.887	9.169	9.398	8.762	7.597	7.252	7.265	6.877	5.818	5.969	4.974	4.948	4.894	4.111	4.033	4.040	4.422	5.050	5.088	3.538	2.540	2.840	2.509	2.411	2.489	2.400	2.513	2.408	2.311	2.063	2.631	4.318	8.157	45.83	228.0	593.1	703.5	234.0	9.903	1.348	1.229	1.044	1.208
575.0	47.12	32.54	43.78	35.73	27.43	27.84	31.85	30.55	50.01	80.88	46.77	40.92	88.70	536.6	 1925	265.3	18.29	17.93	16.62	14.44	12.07	12.39	10.09	10.86	11.39	10.38	10.26	10.22	9.838	10.83	10.55	11.51	9.845	8.489	7.845	7.955	7.437	7.571	6.701	6.704	5.533	5.342	4.937	4.444	4.425	3.992	4.100	3.882	3.662	3.570	3.121	3.645	4.505	3.648	2.712	2.536	2.061	2.208	2.221	2.139	2.321	2.302	1.958	1.672	2.030	2.171	3.108	11.84	52.02	135.4	355.8	785.4	101.4	5.681	1.035	1.085	1.188
580.0	43.44	44.34	46.37	34.27	28.18	27.34	26.08	24.77	37.87	90.94	54.50	31.81	47.00	151.9	 1584	949.1	17.80	14.86	13.07	12.38	11.44	9.995	8.656	9.459	9.704	8.308	9.136	8.271	8.877	9.556	9.436	9.064	8.597	7.499	7.814	7.287	6.604	6.478	6.165	5.507	5.086	4.559	4.580	4.556	3.946	3.962	3.656	3.127	3.272	2.972	2.584	2.885	3.257	3.628	2.905	2.717	2.397	2.166	1.942	1.943	2.013	1.978	1.852	2.005	1.899	1.938	2.029	4.204	12.74	31.53	88.95	476.9	661.8	84.08	2.229	1.144	1.263
585.0	41.48	33.74	43.69	30.79	27.70	24.79	28.10	23.31	27.31	65.61	71.58	33.12	39.08	57.17	735.8	 1706	81.95	12.75	11.25	10.87	10.37	8.948	8.196	8.841	7.032	7.853	8.135	7.277	7.660	7.960	8.412	7.586	7.714	7.312	7.187	6.222	6.518	5.997	5.373	4.877	4.088	4.351	4.076	4.312	3.762	3.658	3.116	3.263	3.402	2.376	2.404	2.202	2.607	3.327	3.322	2.613	2.012	2.069	1.791	1.758	1.558	1.656	2.055	2.208	1.781	1.707	1.452	2.221	4.050	8.053	20.93	129.6	534.6	528.1	55.69	1.409	1.483
590.0	35.67	35.88	36.61	35.11	31.28	27.82	24.87	20.25	27.73	43.96	81.50	44.63	34.95	35.17	200.8	 1388	686.6	18.72	11.36	10.60	7.984	7.194	7.470	7.849	7.407	7.005	6.452	7.297	7.218	6.860	6.790	6.217	6.658	5.917	5.546	5.490	5.377	4.979	4.457	4.452	3.984	3.318	3.918	3.366	3.096	3.283	2.977	2.654	2.562	2.180	1.986	1.882	2.204	2.412	2.951	2.769	2.065	1.836	1.900	1.637	1.589	1.396	1.683	1.942	1.499	1.540	1.539	1.750	1.863	2.684	5.801	29.94	143.3	383.1	430.1	65.37	5.156
595.0	39.15	42.21	32.72	30.76	23.26	25.48	21.32	24.25	27.44	27.87	65.16	71.43	33.00	31.47	62.46	443.8	 1360	158.7	10.64	8.417	7.391	6.965	7.231	5.989	7.132	6.291	5.854	6.211	6.360	5.530	5.993	5.358	4.900	5.526	5.245	4.375	4.764	3.919	3.927	3.718	3.348	3.629	3.099	2.730	2.617	2.327	2.371	2.427	2.075	1.939	1.674	1.703	1.638	1.632	2.229	2.835	2.648	1.984	1.739	1.495	1.915	1.690	1.413	1.322	1.806	1.530	1.528	1.898	1.408	1.384	2.231	7.728	32.87	88.13	231.6	459.9	92.67
600.0	50.15	35.21	37.17	27.12	29.42	24.42	20.27	23.09	21.79	29.13	47.35	78.89	35.83	28.00	33.10	118.6	 1112	441.0	11.76	7.524	6.225	6.141	6.709	5.898	6.310	4.534	5.308	5.298	5.641	5.172	5.305	5.395	4.653	4.503	4.324	3.815	4.259	3.359	3.289	3.199	3.170	3.462	2.518	2.772	2.922	2.699	2.270	2.080	1.865	1.948	1.896	1.691	1.486	1.523	1.840	2.041	2.930	2.219	1.541	1.377	1.461	1.362	1.439	2.010	1.701	1.587	1.615	1.678	1.330	1.235	1.669	2.757	8.539	20.80	57.66	305.5	402.4
605.0	38.50	35.14	43.60	34.90	26.41	21.18	27.53	22.10	20.44	29.85	35.78	72.32	49.42	27.97	26.29	39.18	518.4	 1075	53.72	7.104	6.415	6.232	5.296	5.154	5.803	5.160	5.274	5.784	5.191	4.494	5.421	5.223	4.423	3.926	4.032	3.211	3.548	3.066	3.239	3.196	2.573	2.507	2.360	2.419	2.486	2.216	1.969	1.929	1.887	1.733	1.561	1.798	1.378	1.283	1.648	1.949	2.151	2.131	1.783	1.311	1.102	1.326	1.358	1.207	1.386	1.484	1.271	1.559	1.366	1.482	1.404	1.518	2.755	5.574	13.86	85.70	340.9
610.0	46.38	42.42	36.72	32.14	26.97	20.22	23.13	20.81	23.35	27.82	27.87	60.38	63.53	30.24	23.37	20.36	139.1	942.6	483.2	10.15	5.849	5.735	5.227	5.583	4.874	4.308	4.195	4.937	4.509	4.804	4.634	4.365	3.929	3.635	3.777	3.299	3.208	2.819	2.801	3.145	2.637	2.355	2.261	2.109	2.083	2.093	1.843	1.801	1.533	1.543	1.395	1.603	1.584	1.394	1.225	1.828	1.889	2.057	1.665	1.330	1.236	1.397	1.229	1.273	1.404	1.367	1.496	1.532	1.444	1.364	1.327	1.141	1.560	2.241	4.087	20.21	93.27
615.0	53.48	37.97	34.39	24.62	21.62	20.93	23.44	20.26	19.53	22.98	28.13	41.18	76.35	36.83	21.26	16.06	38.43	317.5	991.2	108.6	6.783	4.601	4.580	5.046	4.147	4.362	4.017	3.833	4.057	4.809	4.042	3.806	4.257	3.605	3.363	3.250	2.711	2.522	2.121	2.601	2.383	2.145	2.421	1.746	1.660	1.870	1.596	1.916	1.825	1.312	1.322	1.436	1.471	1.366	1.372	1.386	1.815	1.679	1.678	1.578	1.527	1.082	1.417	1.324	1.244	1.095	1.186	1.325	1.650	1.169	1.531	1.538	1.462	1.244	1.730	5.328	21.74
620.0	48.13	39.04	31.16	29.26	25.09	23.25	21.10	22.01	20.06	18.46	30.02	30.89	55.88	50.16	21.68	16.00	16.07	82.80	836.9	338.8	7.192	4.996	4.597	4.469	4.236	3.782	3.036	3.982	2.958	3.377	3.631	3.610	3.180	3.331	3.022	2.875	2.805	2.774	2.374	2.464	1.987	1.603	1.897	1.703	1.778	1.716	1.724	1.807	1.622	1.246	1.358	1.382	1.075	1.389	1.502	1.255	1.572	1.648	1.769	1.723	1.381	1.299	1.321	1.247	1.056	1.189	1.201	1.403	1.721	1.320	1.062	1.221	1.264	1.180	1.299	2.061	5.877
625.0	39.24	35.37	38.05	23.96	23.40	23.00	26.85	22.73	22.42	20.87	29.80	23.58	48.34	59.82	24.20	16.70	11.07	25.08	413.3	803.9	33.57	4.017	4.654	4.213	3.522	4.059	3.874	3.275	3.565	4.046	3.372	2.791	2.593	2.792	2.999	2.706	2.947	2.545	2.357	2.446	1.716	1.762	1.879	1.477	1.523	1.924	1.452	1.793	1.424	1.057	1.097	1.190	1.235	1.318	1.370	1.435	1.136	1.449	1.694	1.589	1.659	1.365	1.206	1.059	0.899	1.023	1.153	1.158	1.335	1.214	1.314	1.278	0.930	1.066	1.250	1.122	2.540
630.0	34.70	35.20	33.02	29.79	20.30	21.37	23.38	18.75	19.83	20.12	27.21	26.89	33.18	57.16	34.70	14.54	10.50	12.26	111.7	744.5	378.6	7.742	4.433	3.984	4.345	3.646	3.624	3.990	3.003	3.325	3.128	3.097	2.781	2.502	3.028	2.752	2.516	2.387	2.315	2.163	1.721	1.732	1.620	1.464	1.498	1.512	1.381	1.466	1.417	1.162	1.160	1.068	0.958	1.118	1.065	1.260	1.210	1.291	1.387	1.225	1.424	1.292	1.172	1.057	1.108	1.008	0.949	1.145	1.165	1.085	1.448	1.048	1.015	0.888	1.166	1.020	1.475
635.0	44.13	27.74	37.76	37.66	23.46	21.35	18.65	15.11	19.62	18.32	24.15	24.52	30.91	40.71	50.45	15.27	8.912	8.404	30.08	264.7	817.2	74.52	4.404	3.847	4.194	3.766	3.242	3.543	3.204	3.107	3.109	3.743	2.738	3.266	2.955	3.560	3.232	2.910	2.384	2.253	1.593	1.608	1.652	1.447	1.603	1.471	1.320	1.684	1.455	1.248	0.951	1.096	1.104	1.115	1.219	1.089	1.103	0.999	1.080	1.394	1.374	1.315	1.333	1.152	1.022	0.977	1.057	1.130	0.920	0.866	1.334	0.813	1.095	1.059	1.128	0.978	1.093
640.0	39.03	34.07	31.57	29.76	27.31	24.00	18.40	19.52	17.81	21.85	23.80	25.46	27.35	32.81	49.43	19.74	9.603	7.851	10.88	70.53	734.0	269.5	4.886	3.789	3.665	3.940	3.913	3.512	3.028	3.649	3.034	3.395	3.103	3.713	4.272	3.958	3.637	3.192	2.530	2.053	1.955	1.537	1.776	1.495	1.508	1.469	1.363	1.508	1.229	0.973	0.826	1.115	1.101	1.044	1.113	0.976	1.256	1.159	1.374	1.062	1.201	1.237	1.211	1.155	0.821	1.090	1.055	0.970	1.030	1.099	1.178	1.019	1.069	0.917	1.025	1.305	0.905
645.0	36.40	34.99	35.11	27.94	23.90	25.60	19.12	18.56	21.03	23.37	23.73	29.10	26.49	28.53	38.86	26.20	9.971	7.886	6.992	21.37	379.9	614.1	20.88	3.760	3.501	3.865	3.405	3.738	3.288	3.551	3.384	3.591	3.634	3.942	4.384	4.899	5.013	3.391	2.975	2.279	2.054	2.219	1.311	1.628	1.405	1.458	1.253	1.267	1.134	0.881	0.738	1.023	1.062	1.061	1.034	1.419	1.403	1.167	1.365	0.987	1.181	1.527	1.222	1.268	1.003	1.285	1.026	0.789	1.065	0.944	0.810	1.032	1.039	0.994	1.135	0.929	0.861
650.0	31.83	30.00	34.43	24.63	25.57	23.11	20.83	16.52	18.62	17.38	24.47	24.12	24.98	27.30	29.23	32.89	11.87	8.774	8.183	10.54	114.9	699.7	141.2	4.502	3.417	3.515	3.508	3.304	3.692	2.835	3.830	4.015	4.474	4.934	5.032	5.974	5.950	4.656	3.510	2.481	2.320	1.881	1.842	1.473	1.474	1.377	1.174	1.263	1.187	1.101	1.047	0.883	0.990	1.027	1.214	0.971	1.077	1.147	1.270	0.912	1.330	1.443	1.270	1.204	1.112	0.986	1.080	1.132	1.053	1.246	0.966	1.005	1.010	0.933	1.009	1.088	0.777
