Sample:	'1
File name:	H2025091101ÅË×¯¶þ´åÇÅ.FD3
Run date:	'10:10:33, 09/11/2025
Operator:	Administrator
Comment:	'

Instrument
Model:	F-2700 FL Spectrophotometer
Serial number:	23C7-003
ROM Version:	4J14000 07

Instrument parameters
Measurement type:	3-D scan
Data mode:	Fluorescence
EX  Start WL:	220.0 nm
EX  End WL:	600.0 nm
EX Sampling interval:	5.0 nm
EM  Start WL:	230.0 nm
EM  End WL:	650.0 nm
EM Sampling interval:	5.0 nm
Scan speed:	12000 nm/min
EX Slit:	5.0 nm
EM Slit:	5.0 nm
PMT Voltage:	700 V
Response:	Auto 
Corrected spectra:	Off
Contour interval:	50.000

Peak integration
Integration method:	Rectangular
Sensitivity:	1
Threshold:	1.000

Peaks
No.	ApexEX/EM(nm)	Height(Data)
1	225.0/310.0	274.2
2	225.0/585.0	32.75
3	230.0/340.0	361.8
4	230.0/350.0	363.3
5	230.0/500.0	195.9
6	230.0/600.0	29.51
7	230.0/625.0	26.46
8	235.0/510.0	183.5
9	240.0/260.0	222.5
10	240.0/405.0	488.0
11	240.0/525.0	153.9
12	245.0/270.0	223.1
13	245.0/395.0	492.0
14	245.0/410.0	483.1
15	245.0/535.0	138.2
16	250.0/275.0	280.4
17	250.0/400.0	492.1
18	250.0/415.0	483.0
19	250.0/545.0	113.6
20	255.0/280.0	362.8
21	255.0/410.0	482.7
22	255.0/435.0	463.1
23	255.0/560.0	102.1
24	260.0/285.0	369.0
25	260.0/575.0	83.99
26	265.0/585.0	79.37
27	270.0/300.0	862.5
28	270.0/395.0	467.6
29	270.0/595.0	79.92
30	275.0/305.0	1013
31	275.0/385.0	462.9
32	275.0/610.0	73.17
33	280.0/310.0	904.4
34	280.0/625.0	62.20
35	285.0/635.0	40.97
36	290.0/325.0	575.8
37	300.0/335.0	405.8
38	305.0/345.0	372.1
39	310.0/350.0	337.4
40	315.0/355.0	340.1
41	320.0/360.0	349.5
42	325.0/370.0	330.6
43	330.0/375.0	320.3
44	335.0/380.0	321.0
45	350.0/400.0	258.4
46	355.0/405.0	244.7
47	435.0/510.0	24.10
48	445.0/525.0	16.70
49	470.0/560.0	5.586
50	505.0/275.0	1.990
51	510.0/280.0	2.607
52	520.0/285.0	2.466
53	525.0/290.0	2.571
54	535.0/295.0	3.797
55	545.0/300.0	4.779
56	550.0/305.0	5.488
57	560.0/310.0	4.914
58	570.0/315.0	4.530
59	575.0/290.0	35.57
60	575.0/320.0	4.285
61	580.0/325.0	3.992

Data points
	220.0	225.0	230.0	235.0	240.0	245.0	250.0	255.0	260.0	265.0	270.0	275.0	280.0	285.0	290.0	295.0	300.0	305.0	310.0	315.0	320.0	325.0	330.0	335.0	340.0	345.0	350.0	355.0	360.0	365.0	370.0	375.0	380.0	385.0	390.0	395.0	400.0	405.0	410.0	415.0	420.0	425.0	430.0	435.0	440.0	445.0	450.0	455.0	460.0	465.0	470.0	475.0	480.0	485.0	490.0	495.0	500.0	505.0	510.0	515.0	520.0	525.0	530.0	535.0	540.0	545.0	550.0	555.0	560.0	565.0	570.0	575.0	580.0	585.0	590.0	595.0	600.0
230.0	24.11	322.7	1226	514.6	29.36	5.347	4.516	3.408	3.351	2.780	2.783	2.417	2.387	1.936	1.594	1.454	1.249	1.141	1.125	0.981	0.919	0.929	0.832	0.748	0.719	0.644	0.655	0.616	0.552	0.578	0.529	0.527	0.496	0.433	0.404	0.395	0.362	0.370	0.379	0.316	0.355	0.331	0.350	0.348	0.299	0.303	0.558	2.423	5.198	4.906	2.123	0.535	0.260	0.246	0.249	0.233	0.244	0.245	0.281	0.265	0.245	0.252	0.237	0.294	0.268	0.273	0.271	0.265	0.277	0.276	0.238	0.251	0.283	0.242	0.247	0.267	0.258
235.0	53.29	95.93	630.6	1470	440.7	47.41	4.643	3.550	3.668	3.416	2.726	2.657	2.291	1.952	1.740	1.625	1.376	1.140	1.112	0.964	0.798	0.952	0.777	0.700	0.668	0.698	0.634	0.585	0.547	0.643	0.605	0.516	0.491	0.546	0.383	0.373	0.429	0.347	0.295	0.406	0.321	0.288	0.380	0.318	0.382	0.370	0.348	0.807	1.954	3.926	5.592	6.567	3.955	0.979	0.274	0.221	0.235	0.252	0.269	0.257	0.246	0.252	0.235	0.272	0.252	0.261	0.232	0.289	0.260	0.267	0.251	0.343	0.245	0.357	0.268	0.239	0.298
240.0	69.09	73.70	176.8	977.7	1778	362.5	21.98	4.759	4.306	4.164	3.267	2.946	2.221	1.974	1.646	1.660	1.174	1.142	1.194	0.985	0.910	0.888	0.828	0.804	0.676	0.736	0.704	0.529	0.577	0.640	0.608	0.501	0.539	0.496	0.390	0.423	0.431	0.325	0.310	0.364	0.416	0.291	0.367	0.380	0.399	0.527	0.406	0.489	0.636	1.189	2.742	7.149	10.22	7.245	2.635	0.514	0.301	0.246	0.303	0.302	0.241	0.238	0.267	0.231	0.225	0.235	0.272	0.302	0.248	0.258	0.286	0.274	0.210	0.276	0.256	0.265	0.257
245.0	49.19	117.3	87.72	285.6	1453	1970	278.1	11.03	5.041	3.416	3.305	3.108	2.730	1.932	1.682	1.921	1.500	1.044	1.142	0.963	0.862	0.866	0.809	0.777	0.864	0.775	0.835	0.552	0.539	0.591	0.561	0.599	0.472	0.402	0.369	0.356	0.417	0.416	0.316	0.331	0.334	0.336	0.327	0.317	0.357	0.444	0.536	0.678	0.495	0.439	0.844	2.353	6.653	10.63	11.09	6.354	1.902	0.324	0.237	0.291	0.237	0.239	0.258	0.269	0.221	0.269	0.233	0.296	0.258	0.231	0.377	0.261	0.265	0.247	0.281	0.265	0.316
250.0	25.86	78.22	144.4	134.4	412.2	1400	2094	935.4	71.01	5.029	3.918	3.556	2.973	2.448	2.037	1.744	1.579	1.337	1.240	1.171	1.027	0.906	0.955	0.894	0.785	0.766	0.752	0.683	0.596	0.695	0.611	0.617	0.500	0.413	0.379	0.332	0.361	0.346	0.305	0.374	0.345	0.319	0.316	0.332	0.299	0.340	0.361	0.604	0.729	0.659	0.525	0.781	1.808	3.503	6.636	9.903	12.51	10.84	5.957	1.920	0.367	0.309	0.260	0.294	0.263	0.259	0.280	0.279	0.226	0.217	0.311	0.251	0.288	0.275	0.255	0.218	0.290
255.0	18.67	28.30	89.05	199.8	171.6	336.5	1150	2909	1376	77.31	5.941	4.310	3.174	2.683	2.196	1.873	1.632	1.398	1.429	1.431	0.957	0.788	1.102	0.868	0.858	0.690	0.729	0.731	0.694	0.655	0.501	0.719	0.514	0.534	0.461	0.357	0.412	0.366	0.304	0.340	0.355	0.288	0.345	0.277	0.286	0.244	0.235	0.329	0.465	0.643	0.916	0.995	0.930	1.037	1.753	2.518	4.842	11.35	18.29	17.90	9.292	2.234	0.308	0.287	0.285	0.273	0.262	0.225	0.227	0.311	0.346	0.232	0.280	0.246	0.278	0.259	0.255
260.0	16.30	18.16	31.72	147.7	222.5	119.8	306.4	1846	3494	1026	38.13	4.886	3.510	2.971	2.330	2.285	1.813	1.481	1.494	1.360	1.145	0.889	0.948	0.816	0.843	0.839	0.798	0.718	0.683	0.649	0.584	0.557	0.486	0.433	0.460	0.392	0.404	0.410	0.304	0.378	0.380	0.300	0.323	0.361	0.317	0.262	0.302	0.246	0.265	0.393	0.577	1.153	1.359	1.005	0.671	0.799	1.327	3.282	8.356	18.36	24.58	18.42	6.412	0.958	0.319	0.312	0.252	0.243	0.303	0.344	0.275	0.262	0.320	0.283	0.283	0.289	0.251
265.0	17.24	15.05	15.50	59.58	217.3	184.0	95.12	521.8	2696	3708	186.3	14.15	4.939	3.504	3.019	2.097	1.834	1.671	1.514	1.343	1.145	1.015	1.069	1.085	0.929	0.762	0.718	0.725	0.715	0.606	0.754	0.581	0.536	0.439	0.448	0.381	0.396	0.417	0.352	0.335	0.305	0.293	0.334	0.334	0.279	0.326	0.261	0.292	0.330	0.333	0.282	0.631	1.291	1.548	1.167	0.589	0.545	0.949	2.163	5.699	14.55	26.43	26.27	14.82	3.388	0.439	0.266	0.311	0.281	0.299	0.234	0.314	0.343	0.279	0.298	0.316	0.296
270.0	19.04	16.40	14.14	21.14	84.80	223.1	191.4	154.9	754.6	2682	3924	690.8	51.16	5.260	3.654	2.588	2.048	1.899	1.649	1.455	1.292	1.146	1.093	1.062	0.847	0.877	0.737	0.735	0.668	0.661	0.724	0.735	0.511	0.474	0.482	0.423	0.435	0.412	0.359	0.338	0.352	0.366	0.361	0.346	0.318	0.292	0.264	0.304	0.258	0.282	0.257	0.329	0.530	0.845	1.349	1.401	1.206	0.756	0.826	1.559	3.743	8.176	14.95	23.17	25.37	18.28	10.16	2.797	0.472	0.277	0.281	0.334	0.274	0.283	0.292	0.325	0.293
275.0	31.53	27.33	20.72	15.00	29.39	84.30	280.4	228.3	209.2	653.5	2209	5440	1011	55.86	5.365	3.602	2.532	2.244	1.754	1.407	1.236	1.133	1.074	1.040	0.745	0.810	0.823	0.877	0.751	0.744	0.622	0.656	0.747	0.457	0.524	0.461	0.392	0.427	0.399	0.399	0.354	0.364	0.344	0.443	0.312	0.362	0.331	0.351	0.380	0.258	0.242	0.314	0.340	0.419	0.555	0.831	1.451	1.990	1.419	0.875	1.135	2.192	3.731	5.678	9.432	21.21	37.36	26.36	14.47	2.575	0.378	0.324	0.316	0.300	0.271	0.305	0.292
280.0	42.12	39.84	32.20	20.10	20.63	35.20	153.1	362.8	183.9	196.3	615.6	3615	5742	728.8	23.95	4.754	3.013	2.605	2.046	1.689	1.290	1.429	1.219	1.133	0.802	0.889	0.896	0.831	0.719	0.740	0.614	0.646	0.630	0.553	0.527	0.433	0.420	0.464	0.382	0.450	0.367	0.337	0.313	0.408	0.359	0.378	0.362	0.355	0.419	0.310	0.255	0.394	0.321	0.275	0.439	0.441	0.731	1.577	2.607	1.894	1.019	0.909	1.215	1.684	2.592	6.011	16.28	33.30	46.12	23.69	7.914	0.991	0.330	0.301	0.311	0.269	0.376
285.0	60.06	64.97	54.63	36.74	25.97	28.29	67.71	287.9	369.0	155.8	226.0	1077	4878	5127	103.1	9.924	4.187	2.829	2.225	1.902	1.611	1.733	1.230	1.119	0.986	0.973	0.914	0.875	0.726	0.701	0.643	0.584	0.627	0.544	0.518	0.504	0.463	0.467	0.453	0.365	0.355	0.420	0.335	0.365	0.391	0.467	0.439	0.374	0.473	0.331	0.362	0.335	0.311	0.282	0.364	0.383	0.476	0.743	1.620	2.425	2.466	1.322	0.878	1.000	1.173	2.010	4.440	9.987	25.52	45.23	29.66	17.80	3.674	0.502	0.430	0.301	0.317
290.0	103.0	126.4	112.4	74.70	47.33	43.44	59.89	141.1	365.6	446.2	288.8	437.7	1472	4119	4751	1335	29.11	4.372	2.998	2.331	1.817	1.853	1.349	1.292	1.134	0.979	0.962	0.896	0.836	0.841	0.706	0.591	0.610	0.593	0.558	0.509	0.540	0.458	0.451	0.396	0.389	0.471	0.417	0.417	0.467	0.555	0.540	0.596	0.578	0.483	0.430	0.509	0.366	0.366	0.376	0.446	0.482	0.562	0.892	1.198	2.010	2.571	2.562	1.973	1.391	1.588	2.021	3.259	6.923	13.91	20.94	35.57	33.18	32.31	11.80	3.485	0.491
295.0	142.3	193.7	173.5	116.4	71.14	65.46	81.81	123.0	230.2	531.1	677.2	466.5	622.4	1109	2722	6184	574.6	32.29	4.150	3.189	2.449	1.844	1.631	1.376	1.198	1.039	1.001	0.962	0.831	0.913	0.690	0.670	0.692	0.563	0.629	0.572	0.628	0.653	0.450	0.414	0.492	0.490	0.470	0.536	0.629	0.652	0.689	0.817	0.770	0.664	0.511	0.539	0.524	0.577	0.501	0.522	0.530	0.715	0.756	0.916	1.237	1.505	2.448	3.797	3.624	2.644	2.072	2.387	3.341	4.451	5.849	8.953	11.36	29.15	51.75	29.85	17.87
300.0	165.3	232.5	228.1	156.7	91.64	82.29	98.86	137.1	217.8	420.0	862.5	704.2	509.9	462.1	756.0	3965	4813	442.5	14.96	3.962	3.044	2.129	1.855	1.537	1.298	1.201	1.014	0.963	0.887	0.967	0.902	0.807	0.652	0.612	0.603	0.620	0.602	0.638	0.509	0.402	0.444	0.470	0.545	0.560	0.664	0.718	0.808	0.924	0.937	0.717	0.686	0.571	0.617	0.530	0.535	0.642	0.613	0.678	0.885	0.974	1.130	1.439	1.998	2.664	3.949	4.779	3.670	2.625	2.508	2.737	2.619	2.932	3.305	7.718	19.69	41.27	63.34
305.0	178.7	252.5	259.7	168.1	112.7	100.2	118.8	160.7	238.2	382.1	718.8	1013	616.7	360.3	282.0	1095	4768	4057	64.71	7.291	3.831	2.558	2.223	1.738	1.389	1.282	1.131	0.991	0.994	1.017	0.869	0.791	0.656	0.635	0.614	0.651	0.665	0.602	0.511	0.530	0.440	0.489	0.571	0.616	0.643	0.784	0.881	0.952	1.046	0.824	0.725	0.703	0.706	0.545	0.550	0.700	0.658	0.770	0.924	1.101	1.181	1.392	2.009	2.293	3.093	4.328	5.488	4.617	3.102	2.640	2.171	1.782	1.602	2.502	5.072	11.41	30.66
310.0	189.1	274.2	265.4	184.2	124.5	109.9	134.9	183.5	258.8	388.9	585.5	864.1	904.4	456.5	207.0	317.7	1285	3647	4208	1157	20.92	3.513	2.804	2.274	1.631	1.542	1.237	1.145	1.004	0.967	0.924	0.854	0.766	0.646	0.612	0.617	0.658	0.600	0.541	0.486	0.523	0.498	0.580	0.624	0.696	0.862	0.916	1.009	1.088	0.913	0.718	0.732	0.722	0.662	0.666	0.706	0.836	0.835	1.050	1.177	1.373	1.659	1.985	2.263	2.690	3.256	4.058	4.897	4.914	4.259	2.902	1.900	1.451	1.486	1.913	3.182	7.629
315.0	190.1	265.3	268.7	193.4	137.1	124.2	143.2	193.9	265.5	384.3	527.8	659.5	766.0	725.0	266.5	163.1	348.0	870.1	2387	5449	417.9	22.82	4.023	2.645	2.112	1.639	1.554	1.255	1.272	1.058	0.928	0.873	0.756	0.710	0.626	0.685	0.577	0.545	0.577	0.572	0.538	0.608	0.571	0.586	0.597	0.773	0.924	1.048	1.067	0.865	0.730	0.673	0.760	0.766	0.769	0.776	0.852	1.065	0.968	1.155	1.348	1.783	1.861	2.062	2.597	2.711	3.177	3.533	3.639	4.301	4.530	3.218	1.965	1.476	1.262	1.501	2.374
320.0	186.9	277.5	287.6	197.6	141.5	131.9	147.0	196.0	266.0	373.3	500.0	593.4	606.6	693.0	455.2	161.3	151.4	242.1	610.8	3401	4858	334.3	10.88	3.219	2.464	1.895	1.452	1.352	1.298	1.046	0.874	0.899	0.913	0.863	0.726	0.635	0.550	0.585	0.469	0.613	0.514	0.503	0.653	0.610	0.664	0.746	0.912	1.018	1.155	0.834	0.839	0.874	0.771	0.703	0.709	0.787	0.754	1.014	1.024	1.176	1.336	1.668	1.772	2.081	2.420	2.552	2.884	3.010	3.135	3.260	3.745	4.285	3.716	1.969	1.354	1.247	1.263
325.0	184.1	283.2	297.0	212.5	145.9	134.9	154.8	198.9	255.9	362.5	476.2	550.5	541.8	517.9	575.8	268.1	126.2	113.5	174.4	907.6	4070	3147	50.84	6.096	3.025	2.373	1.769	1.517	1.383	1.184	0.964	0.893	0.836	0.792	0.715	0.668	0.704	0.624	0.576	0.551	0.537	0.492	0.536	0.668	0.699	0.843	0.964	1.072	1.209	0.996	0.746	0.847	0.819	0.734	0.778	0.749	0.771	1.070	1.056	1.247	1.355	1.539	1.837	1.994	2.352	2.461	2.663	2.657	2.786	2.821	2.680	2.995	3.992	3.784	2.357	1.416	1.101
330.0	183.5	290.6	326.7	249.7	178.4	151.3	164.6	197.2	257.2	347.0	445.0	514.6	508.5	431.6	412.9	427.4	240.9	110.8	94.69	242.1	1077	2934	3491	1074	17.80	3.174	2.285	1.837	1.451	1.252	1.151	1.032	0.900	0.807	0.739	0.687	0.674	0.578	0.523	0.534	0.512	0.542	0.534	0.612	0.736	0.867	1.057	1.156	1.354	1.124	0.940	0.912	0.895	0.834	0.907	0.842	0.911	1.037	1.125	1.236	1.310	1.605	1.763	1.912	2.265	2.513	2.549	2.589	2.687	2.671	2.424	2.392	2.461	2.998	3.079	3.108	2.322
335.0	188.5	289.8	344.8	281.4	216.2	173.4	181.0	211.4	255.2	335.1	416.6	483.6	481.0	407.8	335.0	329.1	405.8	213.6	102.9	109.4	282.3	699.4	1937	5120	359.1	21.18	3.171	2.399	1.692	1.505	1.300	1.096	1.009	0.903	0.749	0.815	0.691	0.550	0.495	0.536	0.533	0.590	0.549	0.641	0.788	0.871	0.980	1.302	1.280	1.246	1.085	1.156	1.165	1.099	1.020	0.958	1.023	0.989	1.242	1.256	1.481	1.661	1.722	1.703	2.023	2.131	2.471	2.472	2.621	2.388	2.377	2.224	2.207	2.045	2.152	2.690	3.307
340.0	186.7	302.6	361.8	310.0	238.1	195.5	196.4	220.0	257.5	325.7	399.5	460.7	466.5	405.7	327.8	278.1	344.0	359.1	150.3	101.1	121.6	201.0	502.7	3085	4310	310.5	11.64	2.975	2.019	1.882	1.349	1.199	1.013	0.820	0.794	0.716	0.631	0.599	0.528	0.534	0.542	0.492	0.574	0.651	0.747	0.828	1.063	1.330	1.247	1.294	1.128	1.275	1.123	1.129	1.071	1.042	1.198	1.184	1.153	1.306	1.338	1.520	1.674	1.759	1.994	2.094	2.294	2.311	2.427	2.212	2.398	2.327	2.220	2.012	1.874	1.949	2.495
345.0	183.0	289.7	355.4	336.9	258.5	222.8	211.4	228.9	266.1	319.1	390.1	442.7	453.1	405.1	340.9	278.8	274.0	372.1	271.1	128.3	102.7	104.9	156.5	824.7	3375	2782	238.7	5.988	2.552	1.984	1.625	1.399	0.971	0.804	0.773	0.651	0.747	0.669	0.575	0.525	0.563	0.493	0.605	0.656	0.820	0.844	0.996	1.326	1.192	1.422	1.168	1.278	1.238	1.184	1.180	1.166	1.233	1.217	1.338	1.276	1.284	1.554	1.766	1.717	1.935	2.073	2.257	2.203	2.549	2.294	2.373	2.370	2.147	1.990	1.984	1.897	1.978
350.0	178.3	287.1	363.3	352.1	301.8	266.3	252.0	251.6	278.1	323.9	383.2	430.6	438.6	403.5	353.4	300.6	271.7	287.5	337.4	257.8	143.3	111.0	102.1	232.3	889.6	2345	2954	980.5	17.11	2.981	2.078	1.579	1.160	0.963	0.795	0.711	0.816	0.678	0.620	0.534	0.528	0.582	0.598	0.638	0.773	0.889	0.981	1.266	1.324	1.379	1.319	1.338	1.313	1.405	1.296	1.216	1.309	1.374	1.361	1.405	1.482	1.551	1.793	1.804	1.841	2.077	2.196	2.205	2.356	2.312	2.369	2.384	2.205	2.105	2.032	2.078	2.000
355.0	184.5	284.5	354.4	367.3	339.1	307.3	293.5	286.9	296.9	340.6	390.1	416.1	429.1	413.7	371.9	328.7	301.3	282.7	282.3	340.1	265.2	151.5	116.5	122.6	245.8	562.1	1442	3790	1452	21.69	2.985	1.986	1.362	1.228	0.982	0.768	0.852	0.647	0.568	0.608	0.572	0.615	0.579	0.686	0.786	0.846	0.919	1.321	1.313	1.355	1.376	1.359	1.368	1.523	1.468	1.343	1.423	1.457	1.543	1.488	1.504	1.613	1.651	1.859	2.010	2.110	2.156	2.107	2.122	2.199	2.424	2.447	2.346	2.290	2.349	2.102	2.164
360.0	177.0	276.5	360.4	381.4	358.2	344.3	327.8	316.5	324.3	358.3	395.5	422.7	428.1	419.9	383.6	352.0	323.6	298.0	281.2	303.1	349.5	218.3	143.0	114.9	117.2	166.0	371.6	2077	3909	310.3	13.50	2.466	1.831	1.398	1.096	0.870	0.842	0.842	0.667	0.734	0.613	0.593	0.614	0.690	0.679	0.862	0.899	1.247	1.422	1.351	1.316	1.586	1.477	1.575	1.585	1.504	1.549	1.692	1.672	1.591	1.705	1.855	1.686	1.809	1.992	2.005	2.088	2.196	2.203	2.147	2.605	2.570	2.305	2.315	2.490	2.483	2.507
365.0	189.0	279.9	362.4	391.6	383.2	374.4	358.9	344.4	349.7	376.7	407.9	429.9	439.9	423.1	400.0	370.3	342.0	318.5	297.4	286.1	338.9	315.0	183.9	130.4	103.9	92.24	120.5	544.8	2635	2656	251.6	5.860	2.376	1.692	1.208	1.012	0.844	0.886	0.634	0.618	0.533	0.715	0.588	0.728	0.685	0.916	0.998	1.229	1.387	1.392	1.437	1.617	1.827	1.686	1.624	1.506	1.701	1.767	1.718	1.661	1.849	1.904	1.866	1.854	1.896	2.124	2.039	2.141	2.494	2.133	2.531	2.524	2.484	2.550	2.556	2.644	2.631
370.0	173.8	293.6	372.4	403.1	410.5	401.0	394.5	376.4	378.9	402.4	426.6	442.3	443.5	433.1	414.4	390.6	368.9	351.0	327.6	307.1	305.4	330.6	289.3	181.4	127.5	97.44	82.43	160.8	677.4	1938	2646	977.5	17.09	2.536	1.657	1.254	0.938	0.868	0.787	0.702	0.605	0.739	0.592	0.717	0.824	0.944	1.009	1.223	1.432	1.407	1.406	1.671	1.860	1.839	1.792	1.793	1.882	1.852	1.861	1.887	1.940	2.066	1.925	1.962	2.149	2.145	2.144	2.189	2.391	2.402	2.526	2.502	2.658	2.681	2.573	2.620	2.609
375.0	184.0	296.8	382.4	423.4	433.9	433.8	426.5	414.9	406.3	421.5	438.4	451.5	452.7	437.3	423.1	403.2	390.1	374.2	354.0	335.7	312.6	300.3	320.3	282.2	170.9	121.6	94.15	90.83	189.2	462.1	1123	3225	1451	21.47	2.508	1.676	1.150	0.900	0.839	0.770	0.633	0.705	0.633	0.679	0.786	0.923	1.090	1.294	1.607	1.390	1.469	1.779	1.920	1.887	1.972	1.888	1.986	1.969	2.077	2.118	2.091	2.274	2.135	2.209	2.113	2.154	2.263	2.213	2.421	2.319	2.473	2.443	2.532	2.679	2.548	2.763	2.640
380.0	182.5	295.4	382.3	443.0	456.6	457.1	440.0	432.8	418.1	436.5	450.4	452.9	455.6	436.7	430.1	414.1	400.1	388.8	368.0	350.3	326.8	303.1	294.2	321.0	234.2	147.0	112.3	88.49	91.00	137.4	283.7	1551	3233	278.8	13.93	2.115	1.374	1.053	0.942	0.780	0.688	0.687	0.659	0.731	0.833	0.880	1.046	1.417	1.534	1.415	1.489	1.769	1.815	2.051	1.941	1.920	2.123	1.933	1.959	2.087	2.077	2.174	2.210	2.380	2.111	2.196	2.237	2.284	2.229	2.345	2.526	2.550	2.722	2.811	2.551	2.817	2.832
385.0	193.9	299.1	394.7	447.8	461.0	455.3	451.1	444.2	439.8	447.9	452.2	462.9	462.2	443.0	433.1	412.0	401.3	393.4	377.2	362.2	338.4	312.4	286.0	294.9	292.8	187.2	130.9	101.8	82.08	74.25	94.15	396.2	1875	2260	230.1	6.507	1.863	1.249	1.058	0.780	0.791	0.691	0.690	0.841	0.844	1.009	1.122	1.237	1.436	1.404	1.476	1.726	2.018	2.037	1.882	2.066	2.325	2.005	2.049	2.105	2.090	2.233	2.225	2.258	2.254	2.243	2.118	2.269	2.547	2.442	2.413	2.578	2.910	2.711	2.865	2.669	2.835
390.0	197.9	300.4	404.5	441.1	467.9	473.2	471.5	461.6	449.9	453.0	460.3	457.9	456.3	439.0	428.7	411.1	404.2	393.1	385.2	367.9	347.5	326.1	297.8	277.5	281.2	256.8	176.2	125.1	99.45	76.46	64.93	118.0	469.0	1334	1940	820.7	15.15	2.054	1.328	1.002	0.868	0.743	0.724	0.844	0.829	1.026	1.115	1.243	1.465	1.482	1.517	1.918	2.082	2.120	2.032	1.982	2.279	2.211	2.162	2.156	2.041	2.210	2.389	2.279	2.249	2.340	2.330	2.236	2.546	2.481	2.492	2.574	2.645	2.691	2.762	2.811	2.812
395.0	193.4	314.5	397.3	446.5	472.9	492.0	488.4	474.2	457.5	459.6	467.6	461.6	455.1	436.2	428.1	408.4	402.8	394.9	383.4	369.8	352.1	330.3	309.1	280.6	260.4	257.2	246.2	165.1	122.7	93.75	73.13	67.15	133.3	317.1	696.7	2180	1273	20.27	2.040	1.223	1.010	0.898	0.781	0.843	0.846	1.093	1.154	1.331	1.503	1.502	1.594	1.873	2.042	1.955	2.008	2.077	2.173	2.285	2.103	2.277	2.198	2.355	2.261	2.307	2.200	2.279	2.216	2.180	2.536	2.288	2.342	2.381	2.518	2.617	2.650	2.842	3.058
400.0	188.7	317.0	393.8	458.1	481.3	483.0	492.1	479.1	465.7	469.9	460.1	458.0	450.2	437.0	419.7	406.3	393.3	388.0	377.4	367.3	354.1	333.5	313.6	287.4	261.8	243.4	258.4	214.1	144.8	110.6	85.30	64.91	64.00	94.97	175.4	916.8	2347	246.4	13.48	1.841	1.249	1.060	0.913	0.795	0.888	1.055	1.191	1.295	1.356	1.508	1.549	1.869	1.896	1.962	2.185	2.038	2.155	2.284	2.132	2.187	2.360	2.286	2.366	2.213	2.323	2.406	2.119	2.141	2.333	2.347	2.401	2.575	2.518	2.801	2.538	2.892	2.754
405.0	200.4	314.1	403.0	454.1	488.0	481.2	485.4	481.1	468.5	465.2	460.6	454.5	442.6	428.0	411.9	397.8	390.2	384.2	372.9	364.5	353.9	333.5	315.1	292.0	268.2	241.8	237.7	244.7	182.0	126.9	97.30	73.31	56.82	48.98	58.62	228.6	1165	1927	211.7	7.075	1.747	1.144	1.081	0.948	0.845	1.047	1.022	1.433	1.394	1.551	1.584	1.933	2.037	2.011	2.256	2.005	2.335	2.326	2.111	2.101	2.438	2.447	2.242	2.353	2.228	2.145	2.196	2.166	2.251	2.311	2.536	2.331	2.519	2.620	2.785	2.682	2.765
410.0	200.9	314.8	400.2	454.1	473.1	483.1	479.7	482.7	472.1	465.7	462.5	446.6	438.9	423.6	400.9	384.3	374.4	370.0	360.9	351.6	343.0	327.5	312.2	292.2	271.6	246.3	227.8	227.6	221.8	165.8	115.7	86.39	64.04	47.54	38.99	68.76	284.7	925.9	1460	689.3	14.81	1.803	1.218	1.050	1.013	1.047	1.114	1.342	1.439	1.542	1.528	1.914	1.938	2.000	2.100	2.009	2.268	2.283	2.333	2.250	2.374	2.305	2.254	2.271	2.177	2.153	2.208	2.221	2.203	2.320	2.480	2.447	2.434	2.514	2.644	2.529	2.796
415.0	195.3	291.4	380.1	437.6	469.3	472.7	483.0	473.5	464.4	459.5	452.5	441.5	424.1	410.2	386.7	365.9	359.1	351.0	346.2	337.9	328.4	318.4	303.4	287.4	270.3	248.9	229.0	212.8	208.5	210.0	149.4	102.2	76.50	55.31	41.53	38.49	79.38	217.5	466.9	1449	1059	20.61	2.020	1.280	1.139	1.149	1.152	1.313	1.530	1.490	1.421	1.864	1.956	2.059	1.996	2.012	2.151	2.293	2.207	2.208	2.357	2.137	2.249	2.209	2.185	2.129	2.219	2.213	2.230	2.276	2.352	2.365	2.287	2.381	2.463	2.397	2.597
420.0	171.1	289.8	375.6	424.6	451.3	468.6	475.1	473.0	466.0	457.9	447.1	427.1	416.8	395.0	373.4	354.8	340.1	337.0	330.0	323.4	317.1	308.5	296.1	281.8	267.4	248.9	227.5	211.3	196.7	206.6	180.9	117.0	85.68	61.93	47.09	35.64	36.53	62.04	115.1	551.6	1707	699.4	13.93	1.611	1.342	1.228	1.151	1.278	1.453	1.509	1.347	1.780	1.990	1.920	1.950	2.002	2.000	2.181	2.220	2.215	2.325	2.262	2.043	2.182	2.320	2.153	2.160	2.164	2.259	2.108	2.221	2.126	2.310	2.291	2.347	2.468	2.628
425.0	180.0	275.8	360.5	416.6	448.8	462.2	472.2	464.6	459.2	448.7	440.6	427.1	404.0	379.6	359.6	344.1	330.9	323.7	315.4	311.4	304.7	297.0	289.5	277.5	261.7	243.6	228.0	212.0	195.2	188.3	189.7	143.6	93.41	70.16	51.84	39.57	30.68	29.52	37.05	135.1	762.9	1560	206.7	7.361	1.576	1.406	1.253	1.318	1.419	1.459	1.308	2.061	1.965	1.903	1.944	2.033	2.074	2.105	2.214	2.178	2.322	2.209	2.141	2.170	2.224	1.985	2.080	2.085	1.996	2.121	2.376	2.131	2.148	2.415	2.209	2.372	2.368
430.0	208.7	272.5	354.0	399.3	428.9	452.5	456.1	459.1	452.7	446.3	435.5	419.3	392.8	367.8	344.2	327.3	312.4	308.0	301.5	295.1	289.3	284.1	277.3	267.3	256.0	239.7	224.9	211.6	196.1	180.5	172.2	162.9	120.2	80.90	59.14	45.53	34.69	26.80	23.07	40.82	183.8	651.3	1094	648.8	14.28	1.905	1.421	1.467	1.475	1.415	1.418	1.777	1.879	1.864	1.907	1.965	2.134	2.202	2.122	2.115	2.209	2.220	2.238	2.186	2.198	2.118	2.028	2.084	1.942	2.048	2.098	2.113	2.161	2.229	2.157	2.258	2.313
435.0	304.0	267.6	336.1	387.4	410.7	424.7	447.1	463.1	448.9	445.1	430.3	412.1	380.7	355.2	336.6	312.4	298.4	288.9	287.3	280.5	272.8	269.5	260.9	256.1	248.4	236.1	220.6	209.0	196.0	181.5	162.2	151.2	141.7	101.6	69.11	53.03	40.71	30.44	23.69	22.99	51.42	153.0	328.3	1168	937.7	19.65	2.003	1.574	1.459	1.476	1.377	1.694	1.834	1.810	1.978	2.041	2.005	2.158	2.200	2.054	2.259	2.265	2.145	2.082	2.140	2.192	1.935	1.837	1.955	2.048	2.141	2.097	2.156	1.999	1.970	2.161	2.191
440.0	384.0	313.7	324.4	372.0	410.8	408.8	437.8	451.5	443.5	440.9	429.1	400.7	377.5	350.7	323.6	300.6	284.9	276.6	274.3	267.1	259.5	256.6	251.1	247.0	238.0	229.8	215.6	205.2	194.7	181.1	159.0	142.8	136.4	120.5	81.19	57.92	44.99	34.48	27.00	21.17	23.39	43.58	81.41	432.1	1397	647.0	12.39	1.918	1.570	1.498	1.457	1.480	1.910	1.800	1.943	1.866	2.028	2.164	2.110	2.083	2.334	2.248	2.269	2.061	2.131	2.109	1.976	1.899	1.910	2.097	2.040	2.081	2.044	1.884	1.877	2.089	2.003
445.0	392.9	434.3	320.4	359.9	399.2	404.7	421.9	439.9	431.8	431.4	418.6	395.2	366.8	334.1	311.9	290.4	272.4	261.7	259.1	254.8	247.7	245.2	242.1	240.2	229.3	221.7	210.9	203.0	193.1	178.4	159.8	140.1	126.2	123.8	96.74	63.47	48.73	38.30	29.50	22.97	18.97	20.39	26.57	105.6	606.7	1383	175.6	7.068	1.800	1.547	1.430	1.614	1.843	1.832	1.978	1.728	1.942	2.098	2.151	2.072	2.220	2.001	2.056	1.963	2.242	2.112	2.046	1.930	1.922	1.920	2.043	2.018	2.008	1.776	1.803	2.071	1.888
450.0	261.9	673.9	429.7	345.8	372.1	387.0	405.7	422.8	412.3	415.7	405.1	377.5	348.4	315.4	292.5	271.0	252.8	246.1	240.3	235.1	230.7	225.5	224.1	220.9	215.9	206.4	198.5	192.5	183.6	172.8	156.3	138.0	118.8	109.9	103.6	79.17	54.75	41.74	33.36	26.70	20.95	17.60	15.91	31.63	145.7	572.2	955.6	529.7	11.90	1.859	1.538	1.616	1.710	1.732	1.682	1.813	1.883	2.028	2.038	1.981	2.047	2.211	1.942	2.034	2.087	2.153	1.874	1.813	1.844	1.850	1.846	1.908	1.860	1.683	1.766	1.836	1.850
455.0	179.4	594.3	812.0	341.2	350.0	369.2	380.2	397.3	391.7	386.3	383.4	354.8	327.4	297.7	271.7	248.6	235.4	226.9	220.8	214.3	211.4	208.3	205.6	201.4	196.1	189.2	185.1	177.7	174.0	164.6	150.4	133.2	114.8	99.20	91.61	87.75	67.73	45.69	36.34	29.69	23.25	19.08	15.36	16.70	39.93	133.2	287.3	933.1	657.2	13.96	1.824	1.745	1.779	1.899	1.662	1.751	1.692	1.787	1.903	1.856	1.769	1.924	1.986	2.064	1.876	1.867	1.722	1.730	1.800	1.676	1.679	1.800	1.562	1.685	1.639	1.894	1.616
460.0	139.8	359.4	1041	468.6	326.4	345.1	359.5	374.0	371.0	366.2	366.4	340.6	312.1	280.5	254.4	232.6	219.8	209.2	205.9	198.8	196.4	192.8	188.6	187.2	184.1	178.5	174.1	168.2	163.7	156.5	144.3	130.5	112.1	96.49	83.46	81.91	76.37	51.74	38.41	31.33	24.95	20.60	16.91	14.47	17.04	36.31	69.79	349.0	1038	164.3	8.898	1.927	1.761	1.743	1.615	1.716	1.679	1.710	1.868	1.933	1.814	1.928	1.776	1.773	1.782	1.762	1.622	1.844	1.628	1.537	1.615	1.726	1.623	1.582	1.582	1.704	1.591
465.0	141.8	233.0	948.4	675.7	311.5	318.7	336.8	350.4	351.5	349.5	348.5	326.4	293.8	268.9	239.0	218.4	205.0	195.6	191.8	186.0	183.0	179.6	176.1	174.6	171.0	165.7	163.2	157.9	153.5	148.3	137.7	124.2	107.8	93.77	79.20	73.68	74.14	60.22	40.33	32.41	26.98	22.02	18.24	14.85	12.79	15.39	21.13	84.57	478.9	892.0	134.2	4.597	1.779	1.755	1.662	1.766	1.768	1.622	1.815	1.807	1.775	1.828	1.830	1.647	1.785	1.735	1.540	1.619	1.548	1.497	1.577	1.595	1.524	1.395	1.581	1.509	1.601
470.0	130.8	193.2	509.7	1147	452.0	293.9	308.2	328.0	331.2	326.5	319.3	301.3	271.3	245.3	220.5	200.2	187.8	177.6	172.2	166.4	162.6	160.0	159.2	157.7	153.2	149.7	148.0	144.8	142.0	135.8	128.0	116.1	100.8	89.12	76.23	67.17	63.06	62.44	48.73	35.10	28.02	23.28	19.52	15.74	13.13	11.38	11.16	24.07	115.3	409.5	642.2	311.3	10.67	1.939	1.661	1.636	1.679	1.582	1.632	1.627	1.687	1.689	1.601	1.644	1.703	1.551	1.605	1.548	1.547	1.429	1.491	1.421	1.506	1.363	1.479	1.544	1.447
475.0	143.2	178.4	267.1	868.9	1061	302.5	274.0	296.6	300.1	299.2	293.4	274.7	247.3	221.6	201.7	181.3	167.7	159.7	153.1	149.3	146.6	142.4	141.2	140.1	137.0	134.1	133.2	129.2	129.0	124.6	117.3	106.6	92.91	82.51	72.45	62.37	55.57	52.93	53.70	40.83	29.65	23.76	20.56	16.66	14.30	11.73	9.462	11.00	30.45	95.04	201.3	630.2	185.5	13.41	1.873	1.566	1.477	1.432	1.409	1.695	1.614	1.529	1.506	1.484	1.353	1.410	1.284	1.403	1.313	1.398	1.419	1.356	1.401	1.334	1.335	1.279	1.419
480.0	130.8	177.1	205.4	468.2	1343	421.7	255.3	279.4	283.4	285.4	273.0	255.9	235.1	208.8	186.7	167.3	156.0	147.5	142.4	137.1	132.6	131.3	130.9	129.0	126.8	123.7	121.4	119.4	118.8	116.6	109.7	101.4	89.79	79.19	69.29	59.69	52.81	47.48	49.59	45.76	32.18	25.43	20.87	17.31	15.14	12.53	10.11	8.856	11.89	25.23	48.77	249.3	701.6	168.8	7.083	1.691	1.470	1.487	1.465	1.504	1.500	1.574	1.455	1.441	1.444	1.323	1.309	1.268	1.338	1.194	1.225	1.346	1.362	1.188	1.297	1.134	1.273
485.0	116.9	175.8	181.4	267.4	1126	833.4	256.0	262.0	263.4	264.2	257.9	241.6	221.6	196.2	177.0	157.3	147.2	138.8	133.4	129.7	124.6	120.9	122.0	118.7	117.8	116.1	114.0	112.2	112.2	109.4	103.5	94.78	85.52	75.50	67.01	59.09	50.55	45.11	44.00	45.41	37.22	26.02	20.93	18.00	15.32	12.84	10.86	8.586	7.771	9.756	14.42	61.15	381.0	703.2	124.3	2.935	1.630	1.398	1.416	1.442	1.448	1.354	1.398	1.494	1.354	1.213	1.292	1.225	1.209	1.227	1.141	1.232	1.247	1.244	1.209	1.156	1.260
490.0	92.63	172.8	183.5	204.4	547.9	1244	441.0	242.8	245.5	247.4	240.1	225.5	206.4	183.8	162.3	147.7	135.3	126.9	121.6	117.1	114.0	110.7	110.6	109.1	106.8	105.4	104.1	102.9	102.2	100.8	96.18	87.70	79.55	70.85	63.29	55.68	48.74	43.39	39.17	38.91	38.87	30.82	22.40	18.69	15.67	13.70	11.26	9.501	7.673	6.933	6.996	17.03	93.09	343.1	587.2	260.0	9.742	1.629	1.466	1.442	1.428	1.411	1.351	1.421	1.358	1.305	1.270	1.158	1.222	1.151	1.155	1.218	1.138	1.079	1.134	1.136	1.177
495.0	86.88	147.9	193.0	180.5	262.3	911.2	987.8	242.7	229.1	224.8	223.7	204.9	189.5	167.4	146.4	135.0	122.2	114.9	108.9	106.0	100.8	100.3	98.38	96.91	96.10	94.62	93.31	91.17	93.38	89.73	87.57	80.28	73.00	65.92	58.66	52.64	46.07	41.17	37.37	33.90	33.96	33.93	26.28	19.28	16.02	14.06	11.51	9.871	8.032	6.662	5.742	7.316	23.83	79.27	218.3	641.5	192.2	10.77	1.706	1.354	1.494	1.356	1.319	1.285	1.215	1.158	1.234	1.024	1.063	1.038	1.070	1.155	1.075	1.163	1.093	0.935	1.081
500.0	79.77	111.4	195.9	173.0	184.4	483.0	1321	318.9	207.0	210.7	205.3	194.4	176.0	155.5	138.6	124.1	114.5	105.5	99.10	96.49	91.57	91.89	90.13	87.72	85.98	85.27	84.96	84.57	84.91	82.88	80.00	74.80	67.80	61.26	54.16	49.50	43.57	38.69	35.26	31.64	29.38	31.52	29.37	20.38	16.42	13.75	11.74	9.766	8.527	6.840	5.434	5.296	8.368	20.25	52.16	289.9	657.6	154.4	4.271	1.305	1.495	1.312	1.336	1.107	1.099	1.204	1.121	1.046	1.035	1.061	1.014	1.055	1.084	1.058	1.125	0.991	1.080
505.0	70.14	99.62	177.8	172.9	157.0	248.5	1188	684.8	197.0	196.8	190.0	179.4	163.8	142.9	125.0	113.4	103.3	97.33	91.49	88.07	84.21	82.92	83.37	80.42	78.95	78.59	77.28	76.88	77.18	76.39	72.74	68.28	62.51	56.31	51.10	45.68	41.07	36.32	32.27	29.17	26.94	27.13	29.04	22.93	16.56	13.81	11.87	9.897	8.586	7.093	5.607	4.910	4.869	7.167	14.09	71.24	390.9	581.8	26.03	1.817	1.416	1.354	1.233	1.157	1.189	1.084	1.037	1.227	1.008	0.918	0.931	0.971	0.949	0.993	0.919	1.008	0.944
510.0	64.71	93.74	138.4	183.5	146.1	164.8	587.9	1176	339.4	176.7	170.6	160.2	144.1	127.8	112.0	99.94	92.70	85.96	81.49	76.96	74.74	73.41	71.78	70.16	69.01	68.90	67.41	67.37	67.78	65.96	64.98	61.07	55.29	50.11	45.79	41.63	36.56	33.39	30.21	26.92	24.39	22.51	23.54	24.10	18.36	14.00	11.33	9.549	8.331	7.081	5.770	5.014	4.277	4.335	5.665	18.01	96.54	320.4	424.2	106.7	7.279	1.376	1.119	1.099	0.997	1.029	1.001	1.003	0.984	0.893	0.910	0.883	0.889	0.900	0.796	0.880	0.914
515.0	56.51	78.12	101.4	164.3	148.2	132.5	236.9	962.8	878.5	168.2	146.7	141.5	128.4	112.5	97.81	87.33	79.97	73.98	69.89	66.30	65.65	62.99	61.95	60.87	59.43	60.07	58.23	58.40	59.29	57.53	57.00	52.04	48.26	44.25	40.17	36.83	32.81	29.70	26.92	24.15	21.66	19.89	18.57	20.32	20.20	14.63	10.71	8.901	7.962	6.493	5.713	5.187	4.243	3.615	3.590	6.231	23.70	73.43	176.8	451.5	158.6	5.473	1.027	1.004	1.010	0.973	1.056	0.852	0.874	0.857	0.773	0.825	0.766	0.795	0.745	0.918	0.799
520.0	54.46	65.22	89.20	129.8	153.3	118.5	147.3	513.6	1295	227.7	134.6	126.4	115.8	101.5	89.71	76.49	72.92	66.51	61.95	60.09	57.62	55.72	54.97	53.75	53.01	52.13	51.40	52.08	52.64	51.41	49.85	47.28	43.54	39.75	35.62	33.43	30.45	27.28	24.87	22.30	19.54	18.61	16.57	16.82	18.51	15.87	10.83	8.777	7.287	6.282	5.517	5.157	4.535	3.711	3.197	3.596	7.347	18.19	42.62	234.0	441.3	27.21	2.128	1.075	0.921	0.944	0.915	0.876	0.779	0.877	0.771	0.721	0.777	0.733	0.726	0.768	0.715
525.0	55.57	59.06	76.61	100.6	153.9	120.2	116.9	229.8	1257	566.5	124.9	118.0	102.5	91.68	80.75	70.12	65.24	59.17	55.45	54.30	51.96	49.77	48.69	48.06	47.53	46.82	46.02	46.09	47.26	46.33	44.44	42.32	39.39	36.04	32.92	30.41	27.66	24.96	22.20	20.87	18.82	16.81	14.87	14.44	15.13	16.70	12.39	8.732	7.219	6.349	5.228	4.952	4.486	3.795	3.084	3.063	3.426	5.920	11.23	59.12	287.6	349.2	22.15	1.237	0.942	0.865	0.784	0.765	0.785	0.753	0.663	0.691	0.663	0.701	0.678	0.705	0.760
530.0	43.85	53.20	68.92	81.10	128.4	131.5	98.38	129.6	623.6	1146	236.3	101.9	88.66	80.96	70.26	62.16	57.19	52.43	48.33	46.92	44.46	42.78	41.78	41.41	39.75	41.00	39.59	39.90	40.63	40.38	38.71	37.21	33.72	30.72	28.48	26.13	24.12	22.22	20.33	18.31	17.20	15.14	13.86	12.71	12.47	14.08	13.19	9.722	7.036	5.887	5.045	4.632	4.036	3.859	3.419	2.792	2.630	2.967	4.114	14.51	72.49	220.4	249.1	89.41	4.711	0.898	0.720	0.687	0.769	0.682	0.715	0.673	0.632	0.609	0.633	0.613	0.807
535.0	43.38	50.75	63.33	67.15	90.88	138.2	93.15	95.37	213.2	1059	728.4	98.53	79.41	69.24	61.22	54.27	49.39	45.95	42.18	40.00	38.32	38.04	35.61	35.29	35.22	34.37	34.23	34.23	34.23	33.89	33.44	31.85	28.99	26.90	25.28	23.05	21.02	19.25	17.76	15.80	14.97	13.48	12.38	11.43	10.37	10.57	11.82	10.85	7.550	5.616	5.017	4.172	3.814	3.497	3.415	2.981	2.494	2.272	2.372	4.595	17.49	50.70	121.7	312.7	116.4	3.062	0.744	0.778	0.702	0.603	0.663	0.590	0.579	0.528	0.559	0.649	0.736
540.0	35.88	47.81	61.19	60.26	73.72	120.1	102.7	82.65	113.8	566.3	1220	151.8	69.69	62.77	55.21	48.88	44.02	42.82	37.72	35.52	34.14	33.52	32.05	31.38	31.33	30.65	30.68	30.33	30.76	30.68	30.17	29.15	26.19	23.28	22.11	20.07	18.55	16.91	16.16	14.28	12.93	12.36	11.34	10.62	9.724	9.023	9.490	10.51	8.347	5.552	4.745	4.058	3.541	3.220	3.059	3.124	2.454	2.217	2.008	2.262	4.993	12.47	29.86	172.6	301.7	25.17	1.334	0.750	0.732	0.557	0.658	0.589	0.542	0.595	0.557	0.530	0.555
545.0	30.97	39.72	55.51	56.94	60.71	98.89	113.6	74.31	81.51	218.1	1287	421.4	66.23	57.71	50.55	44.67	39.19	37.33	33.75	32.23	31.13	30.52	29.52	28.10	28.22	27.84	26.74	27.27	27.27	27.71	27.74	25.47	23.43	21.62	20.04	18.44	17.06	15.86	14.55	13.19	12.10	11.16	10.29	9.713	9.241	8.001	7.786	8.809	8.465	5.928	4.446	3.835	3.493	3.147	2.770	3.091	2.717	1.958	1.830	1.733	2.235	3.784	7.703	44.54	213.9	208.0	18.97	0.905	0.819	0.627	0.692	0.538	0.481	0.516	0.483	0.483	0.512
550.0	32.38	40.07	46.11	50.71	52.89	66.24	109.7	80.37	68.66	100.3	658.0	1038	114.1	50.11	44.06	37.81	34.83	32.36	29.57	28.83	26.90	25.86	25.57	24.39	24.22	23.85	23.20	23.34	23.43	23.58	23.24	21.71	19.76	18.54	17.62	16.24	14.73	14.10	12.66	11.90	10.73	9.695	9.196	8.806	7.975	7.440	6.698	6.836	7.720	6.516	4.758	3.538	3.270	2.983	2.674	2.642	2.530	2.168	1.748	1.548	1.601	1.831	2.648	10.78	54.73	153.0	193.3	67.92	3.150	0.622	0.581	0.517	0.489	0.482	0.487	0.524	0.497
555.0	29.48	35.77	37.47	42.33	44.93	51.48	84.25	95.98	61.36	67.55	203.5	1058	549.9	47.31	38.62	33.28	30.45	27.10	25.58	24.51	22.08	22.17	21.70	20.92	20.69	19.87	19.39	19.71	19.49	20.10	19.91	18.38	17.08	15.96	14.56	13.31	12.68	11.99	10.81	10.12	9.371	8.488	8.181	7.692	7.075	6.583	5.895	5.236	5.654	6.279	5.393	3.710	2.886	2.794	2.595	2.248	2.205	2.152	1.862	1.543	1.429	1.359	1.442	3.173	12.95	35.19	93.55	222.0	27.68	2.079	0.574	0.508	0.535	0.461	0.485	0.476	0.418
560.0	26.41	37.41	35.16	36.45	38.85	42.30	61.01	102.1	62.25	57.74	89.25	576.5	1046	85.83	34.24	29.93	26.90	24.61	22.55	21.36	20.07	19.10	18.38	18.12	17.67	17.38	17.83	17.63	17.04	17.87	17.20	16.59	14.68	13.93	13.17	12.08	10.86	10.45	9.598	9.074	8.247	7.856	7.261	7.173	6.047	5.538	5.075	4.886	4.500	5.054	5.586	3.950	2.897	2.438	2.408	2.115	2.019	1.832	1.875	1.625	1.291	1.141	1.121	1.520	3.571	8.584	23.19	125.1	199.4	23.32	0.905	0.606	0.481	0.475	0.455	0.441	0.450
565.0	31.91	30.74	31.56	34.33	33.95	39.74	44.29	93.38	68.86	50.30	59.81	206.8	1193	265.6	30.25	26.40	22.97	21.45	20.22	19.14	17.62	17.04	16.22	16.11	15.47	15.96	15.86	14.68	15.43	16.05	14.86	14.78	12.79	12.48	11.31	10.55	9.877	9.216	8.450	7.846	7.221	7.004	6.303	6.275	5.561	5.312	4.422	4.352	3.700	4.161	4.760	4.359	3.056	2.373	2.049	1.925	1.866	1.737	1.824	1.637	1.330	1.057	1.022	1.078	1.515	2.578	5.788	32.38	148.5	164.7	15.74	0.749	0.515	0.450	0.433	0.517	0.421
570.0	29.65	32.76	30.28	29.62	30.67	32.96	36.45	63.71	83.45	48.39	48.61	81.55	615.9	823.4	63.70	21.97	19.75	18.06	16.33	15.47	14.88	14.32	13.71	13.07	12.93	12.75	12.59	12.09	12.80	12.89	12.21	11.93	10.60	10.44	9.530	8.767	8.609	7.488	6.867	6.762	6.112	5.749	5.314	5.123	4.622	4.391	3.916	3.778	3.181	2.980	3.358	3.907	3.315	2.266	1.929	1.853	1.612	1.454	1.454	1.473	1.371	1.132	0.967	0.934	1.010	1.146	1.926	7.839	38.39	110.0	129.7	41.56	1.752	0.435	0.404	0.458	0.436
575.0	28.79	31.19	29.56	27.19	26.33	27.97	27.64	39.84	83.99	57.29	44.48	51.17	177.8	916.4	358.9	19.47	15.78	14.17	12.99	12.09	11.90	11.79	10.41	10.92	10.50	9.743	9.781	9.812	9.854	9.833	9.525	9.217	8.593	8.119	7.405	6.840	6.657	5.736	5.426	5.429	4.935	4.600	4.363	3.964	3.762	3.412	3.201	3.011	2.725	2.359	2.297	2.546	3.108	2.402	1.814	1.544	1.513	1.170	1.205	1.213	1.367	1.211	0.924	0.850	0.884	0.851	0.988	2.252	9.071	25.28	61.22	137.8	25.47	1.145	0.444	0.500	0.478
580.0	27.78	31.65	28.84	27.53	24.12	24.31	24.66	29.50	63.73	69.97	44.95	43.93	70.33	496.7	773.6	40.51	13.79	11.66	10.55	10.06	9.525	9.767	9.168	8.852	8.468	8.175	8.077	8.099	7.986	8.289	7.621	7.698	6.932	6.635	6.166	5.750	5.166	5.106	4.521	4.186	4.035	3.798	3.588	3.497	3.154	2.943	2.731	2.592	2.218	1.955	1.808	1.856	2.290	2.445	1.899	1.274	1.253	1.256	1.085	0.980	1.162	1.073	0.964	0.717	0.791	0.806	0.734	0.995	2.513	6.144	14.97	76.03	115.8	18.88	0.637	0.385	0.405
585.0	28.25	32.75	26.43	22.50	23.24	21.37	24.65	25.80	45.92	79.37	48.49	44.71	43.70	169.4	946.3	92.61	11.83	10.19	9.244	9.049	8.250	7.591	7.701	7.136	7.091	6.931	6.451	6.610	6.448	6.214	6.312	6.605	5.852	5.431	5.444	4.649	4.437	4.125	3.863	3.694	3.403	3.101	2.982	2.778	2.634	2.559	2.278	2.074	1.988	1.696	1.619	1.475	1.685	2.335	1.974	1.210	1.028	1.074	0.909	0.915	0.874	0.887	1.087	0.760	0.711	0.680	0.698	0.737	1.183	1.801	3.810	19.77	83.55	88.93	10.50	0.442	0.327
590.0	27.32	30.94	30.35	23.63	19.96	19.04	19.62	24.05	32.99	72.02	64.61	44.97	39.34	59.27	490.2	559.4	35.37	8.192	7.361	7.190	6.515	5.972	5.775	5.778	5.689	5.100	5.169	5.213	4.888	5.031	4.953	4.861	4.574	4.317	4.181	3.795	3.458	3.395	3.215	2.886	2.751	2.514	2.418	2.183	2.214	2.085	1.879	1.695	1.541	1.309	1.307	1.197	1.210	1.579	1.748	1.414	0.989	0.938	0.750	0.753	0.760	0.738	0.934	1.002	0.753	0.651	0.700	0.675	0.698	0.801	1.268	4.850	21.38	57.02	66.55	15.24	1.157
595.0	26.14	31.89	28.25	20.98	16.75	14.97	16.95	21.69	26.96	49.75	79.92	48.97	37.40	33.76	128.1	657.9	234.6	7.846	6.066	5.626	5.067	4.712	4.690	4.512	4.314	3.930	3.871	3.989	3.920	4.040	3.851	3.757	3.412	3.354	3.137	2.927	2.615	2.408	2.384	2.308	2.031	1.809	1.742	1.844	1.684	1.644	1.586	1.312	1.214	1.122	1.091	0.976	1.021	1.061	1.312	1.454	1.109	0.799	0.694	0.644	0.684	0.599	0.704	0.759	0.839	0.673	0.626	0.526	0.547	0.608	0.632	1.427	5.133	13.19	30.06	68.33	21.35
600.0	26.89	27.87	29.51	21.69	16.77	13.21	16.95	19.22	24.10	36.31	79.51	56.42	38.52	27.31	39.57	351.4	530.6	19.24	5.030	4.249	4.477	3.924	4.368	3.664	3.677	3.574	3.014	3.288	3.416	3.410	3.002	3.063	2.893	2.789	2.413	2.447	2.208	2.026	1.820	1.832	1.759	1.490	1.454	1.625	1.396	1.330	1.204	1.138	1.013	0.962	0.867	0.828	0.775	0.841	1.008	1.285	1.192	0.823	0.663	0.619	0.624	0.526	0.566	0.638	0.821	0.879	0.669	0.640	0.536	0.547	0.506	0.606	1.537	3.311	7.428	36.90	63.00
605.0	22.20	27.04	28.46	19.79	15.51	14.40	17.50	18.11	22.44	32.48	66.58	64.18	38.94	25.65	19.12	111.7	645.1	65.72	4.664	3.769	3.583	3.430	3.522	2.999	3.039	2.775	2.965	2.750	2.787	2.860	2.764	2.654	2.305	2.362	2.165	2.070	1.999	1.724	1.597	1.685	1.502	1.262	1.269	1.396	1.138	1.118	1.082	1.004	0.913	0.928	0.772	0.695	0.637	0.602	0.810	0.935	1.074	0.847	0.708	0.646	0.635	0.519	0.621	0.558	0.698	0.805	0.723	0.644	0.501	0.516	0.464	0.433	0.723	1.000	1.933	9.524	43.32
610.0	25.27	27.41	26.03	17.57	14.72	12.07	15.29	16.29	21.91	29.77	48.94	73.17	42.55	24.69	14.84	31.97	329.2	389.3	20.19	3.389	3.057	3.097	2.694	2.464	2.483	2.345	2.356	2.286	2.257	2.273	2.277	2.168	2.044	1.862	1.755	1.667	1.495	1.496	1.320	1.403	1.193	1.122	1.055	1.184	0.951	0.940	0.972	0.865	0.788	0.717	0.665	0.558	0.603	0.583	0.654	0.675	0.879	0.811	0.651	0.563	0.551	0.573	0.578	0.529	0.541	0.694	0.753	0.741	0.501	0.506	0.484	0.439	0.503	0.522	0.703	2.378	11.16
615.0	25.56	27.08	23.24	18.35	12.51	12.18	13.22	14.05	19.97	27.84	39.52	64.67	52.35	23.85	13.62	13.63	83.40	458.8	155.7	3.742	2.698	2.604	2.080	2.425	2.102	2.128	1.819	1.954	1.835	1.765	1.706	1.740	1.730	1.578	1.417	1.458	1.336	1.200	1.124	1.050	0.922	0.998	0.942	0.955	0.808	0.780	0.759	0.810	0.729	0.579	0.531	0.523	0.589	0.543	0.567	0.524	0.620	0.663	0.672	0.667	0.468	0.541	0.505	0.497	0.464	0.549	0.623	0.848	0.657	0.469	0.485	0.463	0.379	0.367	0.386	0.763	2.752
620.0	24.35	25.90	22.71	16.47	11.18	13.63	12.69	13.95	19.90	26.64	35.50	50.11	60.10	25.70	13.07	8.321	23.29	243.6	379.4	11.18	2.529	2.249	2.092	1.872	1.767	1.727	1.633	1.755	1.593	1.604	1.594	1.487	1.393	1.329	1.150	1.187	1.196	1.062	0.881	0.955	0.842	0.830	0.851	0.802	0.741	0.720	0.743	0.637	0.624	0.466	0.442	0.453	0.478	0.474	0.533	0.509	0.490	0.552	0.690	0.643	0.442	0.411	0.466	0.459	0.516	0.472	0.481	0.646	0.624	0.523	0.501	0.384	0.393	0.371	0.326	0.376	0.851
625.0	21.86	23.11	26.46	16.74	12.16	10.54	11.19	14.23	17.96	24.83	31.89	38.62	62.20	28.69	12.89	8.099	9.567	75.93	474.8	49.77	2.195	2.150	1.877	1.604	1.708	1.495	1.647	1.527	1.357	1.389	1.419	1.477	1.192	1.224	0.940	1.106	0.929	0.927	0.863	0.848	0.827	0.799	0.709	0.719	0.617	0.604	0.626	0.586	0.554	0.491	0.382	0.437	0.441	0.399	0.448	0.417	0.406	0.458	0.585	0.581	0.486	0.476	0.403	0.401	0.394	0.466	0.394	0.497	0.567	0.539	0.446	0.355	0.371	0.355	0.322	0.341	0.476
630.0	21.38	23.40	22.20	15.36	11.86	10.59	10.85	13.49	17.02	22.08	28.66	33.66	47.63	36.19	13.28	7.531	6.195	20.73	253.5	291.6	12.84	1.859	1.731	1.479	1.488	1.443	1.263	1.178	1.188	1.317	1.243	1.110	1.063	0.958	0.947	0.906	0.821	0.846	0.707	0.788	0.707	0.650	0.636	0.601	0.564	0.543	0.530	0.541	0.473	0.449	0.368	0.333	0.371	0.395	0.409	0.367	0.376	0.360	0.432	0.510	0.448	0.454	0.371	0.382	0.414	0.393	0.407	0.397	0.487	0.562	0.594	0.407	0.330	0.344	0.369	0.341	0.356
635.0	23.64	21.20	21.75	16.95	11.38	11.16	9.350	12.86	15.41	21.68	25.28	30.81	33.60	40.97	16.31	7.492	5.969	7.734	63.42	351.0	114.1	1.769	1.766	1.204	1.210	1.241	1.171	1.173	1.016	1.192	1.010	0.952	0.808	0.816	0.876	0.730	0.794	0.674	0.707	0.602	0.576	0.529	0.495	0.537	0.577	0.460	0.474	0.455	0.471	0.473	0.338	0.309	0.379	0.417	0.334	0.348	0.356	0.336	0.400	0.456	0.511	0.481	0.371	0.409	0.373	0.381	0.400	0.330	0.400	0.513	0.482	0.514	0.335	0.323	0.378	0.335	0.312
640.0	22.54	22.09	21.10	14.10	11.61	10.13	10.87	10.89	14.71	19.34	23.18	26.73	26.55	36.20	21.67	7.687	6.008	5.048	16.88	199.4	280.7	6.357	1.546	1.106	1.327	0.905	1.020	1.097	1.051	1.007	0.739	1.010	0.769	0.653	0.692	0.626	0.691	0.649	0.675	0.567	0.510	0.446	0.479	0.495	0.460	0.357	0.456	0.410	0.429	0.340	0.311	0.414	0.323	0.321	0.288	0.317	0.348	0.312	0.362	0.335	0.534	0.388	0.426	0.363	0.307	0.378	0.393	0.407	0.394	0.427	0.464	0.545	0.389	0.342	0.298	0.273	0.294
645.0	23.47	19.98	18.18	16.71	10.85	9.606	11.43	10.83	13.04	18.87	23.33	25.61	25.03	28.75	27.23	8.199	5.824	4.124	6.214	64.25	359.9	37.83	1.384	1.182	1.223	0.868	0.976	1.020	0.881	0.903	0.747	0.949	0.753	0.666	0.689	0.627	0.560	0.602	0.579	0.542	0.553	0.479	0.461	0.436	0.390	0.450	0.404	0.441	0.387	0.310	0.267	0.325	0.336	0.278	0.315	0.294	0.346	0.360	0.332	0.293	0.398	0.298	0.430	0.364	0.319	0.372	0.375	0.352	0.369	0.406	0.396	0.482	0.455	0.366	0.384	0.299	0.366
650.0	24.23	22.85	19.24	13.14	9.829	8.641	10.58	11.28	12.75	17.77	19.89	23.33	23.57	21.32	28.74	11.04	5.808	4.031	3.756	17.36	263.6	154.4	2.388	1.253	0.960	0.902	0.873	0.964	0.911	0.793	0.693	0.763	0.613	0.662	0.669	0.536	0.576	0.458	0.525	0.515	0.516	0.455	0.386	0.386	0.446	0.391	0.394	0.385	0.371	0.324	0.300	0.314	0.301	0.267	0.286	0.320	0.313	0.305	0.277	0.314	0.347	0.356	0.400	0.335	0.364	0.327	0.422	0.308	0.389	0.413	0.364	0.448	0.473	0.447	0.409	0.333	0.307
