Sample:	'1
File name:	t2025040812利民闸北支流.FD3
Run date:	'11:19:38, 04/09/2025
Operator:	Administrator
Comment:	'

Instrument
Model:	F-2700 FL Spectrophotometer
Serial number:	23B8-004
ROM Version:	4J14000 07

Instrument parameters
Measurement type:	3-D scan
Data mode:	Fluorescence
EX  Start WL:	220.0 nm
EX  End WL:	600.0 nm
EX Sampling interval:	5.0 nm
EM  Start WL:	230.0 nm
EM  End WL:	650.0 nm
EM Sampling interval:	5.0 nm
Scan speed:	12000 nm/min
EX Slit:	5.0 nm
EM Slit:	5.0 nm
PMT Voltage:	700 V
Response:	Auto 
Corrected spectra:	Off
Contour interval:	50.000

Peak integration
Integration method:	Rectangular
Sensitivity:	1
Threshold:	1.000

Peaks
No.	ApexEX/EM(nm)	Height(Data)
1	225.0/605.0	58.71
2	225.0/630.0	54.31
3	230.0/340.0	1487
4	230.0/580.0	59.56
5	235.0/510.0	260.1
6	240.0/525.0	227.6
7	245.0/535.0	194.9
8	250.0/435.0	655.3
9	250.0/550.0	155.1
10	255.0/280.0	531.3
11	255.0/560.0	132.2
12	260.0/290.0	531.5
13	260.0/575.0	110.7
14	265.0/585.0	103.4
15	270.0/300.0	1072
16	270.0/600.0	98.95
17	275.0/310.0	1296
18	275.0/610.0	90.79
19	280.0/315.0	1406
20	280.0/335.0	1456
21	280.0/625.0	89.32
22	285.0/320.0	1480
23	285.0/635.0	70.57
24	315.0/355.0	425.4
25	320.0/365.0	408.7
26	335.0/380.0	372.9
27	425.0/500.0	39.38
28	445.0/525.0	20.38
29	460.0/340.0	5.386
30	510.0/280.0	3.498
31	520.0/285.0	3.656
32	545.0/300.0	6.559
33	550.0/305.0	6.886
34	560.0/340.0	7.659
35	565.0/335.0	7.649
36	575.0/320.0	8.321
37	585.0/325.0	7.612

Data points
	220.0	225.0	230.0	235.0	240.0	245.0	250.0	255.0	260.0	265.0	270.0	275.0	280.0	285.0	290.0	295.0	300.0	305.0	310.0	315.0	320.0	325.0	330.0	335.0	340.0	345.0	350.0	355.0	360.0	365.0	370.0	375.0	380.0	385.0	390.0	395.0	400.0	405.0	410.0	415.0	420.0	425.0	430.0	435.0	440.0	445.0	450.0	455.0	460.0	465.0	470.0	475.0	480.0	485.0	490.0	495.0	500.0	505.0	510.0	515.0	520.0	525.0	530.0	535.0	540.0	545.0	550.0	555.0	560.0	565.0	570.0	575.0	580.0	585.0	590.0	595.0	600.0
230.0	47.73	1114	3537	1390	60.42	9.545	6.962	5.367	5.316	5.608	5.026	4.660	4.363	4.004	3.579	2.963	2.529	2.491	2.321	2.180	1.876	1.682	1.633	1.635	1.451	1.325	1.196	1.140	1.183	1.143	1.019	0.952	1.018	0.920	0.864	0.769	0.727	0.670	0.654	0.647	0.571	0.665	0.615	0.613	0.552	0.541	1.220	6.345	13.18	10.67	4.280	1.072	0.444	0.408	0.353	0.393	0.386	0.421	0.341	0.343	0.336	0.357	0.324	0.318	0.309	0.369	0.333	0.299	0.303	0.316	0.298	0.294	0.319	0.312	0.331	0.292	0.294
235.0	78.78	316.0	2356	4804	591.4	86.61	9.911	7.520	5.795	6.118	4.964	4.992	4.528	4.241	3.650	3.200	2.527	2.353	2.101	2.124	1.943	1.790	1.589	1.586	1.568	1.308	1.352	1.297	1.230	1.205	1.100	0.971	1.003	0.954	1.026	0.816	0.766	0.598	0.650	0.597	0.618	0.592	0.725	0.711	0.681	0.607	0.659	1.859	5.170	10.87	16.51	18.89	8.503	1.724	0.408	0.412	0.400	0.406	0.375	0.353	0.363	0.374	0.354	0.313	0.353	0.347	0.314	0.310	0.260	0.290	0.290	0.291	0.348	0.337	0.302	0.352	0.306
240.0	134.6	152.6	713.0	4261	4566	475.5	44.17	9.858	8.139	7.325	5.764	4.800	5.180	4.164	4.094	3.337	2.889	2.375	2.302	2.447	1.889	1.852	1.999	1.527	1.597	1.465	1.347	1.262	1.197	1.170	1.082	0.959	0.980	0.909	0.970	0.921	0.739	0.645	0.792	0.677	0.570	0.563	0.579	0.657	0.711	0.751	0.695	0.758	1.644	3.500	9.402	25.67	26.68	18.37	6.350	1.095	0.475	0.435	0.477	0.343	0.342	0.417	0.381	0.415	0.384	0.340	0.347	0.296	0.268	0.288	0.341	0.303	0.330	0.301	0.288	0.281	0.322
245.0	102.9	167.2	220.8	1482	6247	3772	370.4	17.72	10.82	9.063	7.187	6.213	5.857	4.608	4.298	3.542	3.197	2.702	2.804	2.513	2.009	1.889	1.971	1.744	1.583	1.523	1.387	1.231	1.236	1.090	1.153	1.085	1.026	0.907	0.931	0.763	0.863	0.717	0.683	0.732	0.614	0.582	0.610	0.577	0.633	0.867	0.907	0.827	0.912	1.076	2.484	8.899	21.93	38.67	27.15	17.28	4.335	0.649	0.442	0.389	0.368	0.423	0.364	0.396	0.373	0.416	0.324	0.317	0.373	0.292	0.305	0.303	0.355	0.311	0.297	0.298	0.359
250.0	54.94	131.6	230.6	418.7	2087	5780	6671	1335	84.67	13.83	9.896	7.343	6.766	5.397	4.949	3.815	3.457	2.868	2.901	2.734	2.173	1.968	1.999	1.855	1.519	1.554	1.412	1.355	1.293	1.226	1.187	1.146	1.089	0.977	0.944	0.822	0.836	0.789	0.738	0.726	0.664	0.678	0.576	0.686	0.590	0.589	0.741	0.977	1.117	0.944	1.099	2.419	5.611	12.92	22.22	38.50	40.54	39.77	13.15	4.690	0.690	0.427	0.467	0.423	0.415	0.415	0.382	0.357	0.347	0.348	0.348	0.345	0.306	0.337	0.340	0.304	0.333
255.0	41.72	57.54	165.6	330.9	548.9	1523	6731	9999.9	1842	95.33	13.94	11.21	8.420	6.418	6.055	4.451	3.829	3.414	3.490	2.846	2.105	2.254	2.030	1.853	1.649	1.671	1.464	1.478	1.388	1.431	1.362	1.183	1.105	1.070	0.895	0.856	0.893	0.762	0.762	0.661	0.806	0.665	0.614	0.645	0.557	0.539	0.544	0.603	0.799	1.064	1.389	1.618	1.712	3.318	5.438	9.727	17.63	48.22	73.68	67.85	19.78	4.391	0.669	0.536	0.430	0.506	0.427	0.403	0.362	0.455	0.384	0.394	0.342	0.344	0.355	0.328	0.367
260.0	38.95	40.81	78.62	284.7	338.4	402.7	2178	9999.9	9999.9	1462	40.72	15.73	10.52	9.229	7.056	5.221	4.182	3.797	3.331	3.270	2.421	2.331	2.133	2.018	1.777	1.660	1.483	1.514	1.378	1.265	1.379	1.172	1.019	1.066	1.019	0.974	0.861	0.803	0.752	0.698	0.785	0.746	0.659	0.636	0.704	0.643	0.575	0.611	0.587	0.656	1.003	1.781	1.728	1.478	1.690	2.623	4.479	13.68	35.85	77.82	92.53	29.28	16.46	2.332	0.537	0.513	0.445	0.473	0.391	0.546	0.446	0.421	0.377	0.350	0.342	0.339	0.370
265.0	42.94	37.17	43.33	136.5	360.2	247.5	537.9	3685	9999.9	9999.9	210.3	23.36	15.74	11.38	9.179	6.204	5.138	4.261	3.619	3.512	2.842	2.629	2.477	2.290	1.810	1.722	1.569	1.567	1.554	1.418	1.448	1.377	1.128	1.155	1.161	0.944	0.981	0.705	0.810	0.658	0.727	0.822	0.630	0.634	0.668	0.611	0.514	0.569	0.564	0.523	0.546	1.099	1.894	2.089	1.492	1.135	1.541	3.542	8.878	24.45	58.68	98.44	114.6	27.56	9.414	1.023	0.586	0.537	0.392	0.495	0.446	0.415	0.371	0.415	0.390	0.375	0.379
270.0	51.66	50.64	45.26	62.07	187.1	351.3	315.0	891.7	3923	9999.9	9999.9	3480	60.90	16.55	12.16	8.982	6.253	5.448	4.550	4.082	3.235	2.813	2.624	2.281	2.059	2.016	1.823	1.780	1.748	1.698	1.607	1.495	1.335	1.223	1.246	1.071	1.018	0.838	0.786	0.834	0.716	0.804	0.682	0.718	0.748	0.674	0.640	0.625	0.632	0.563	0.539	0.677	0.924	1.378	1.954	2.104	1.915	1.610	2.528	6.076	14.33	30.31	63.21	97.59	102.7	88.49	17.24	8.242	1.141	0.581	0.534	0.465	0.487	0.490	0.426	0.423	0.423
275.0	90.58	92.89	85.01	59.28	75.46	181.5	456.5	404.7	932.5	2732	9999.9	9999.9	1185	61.78	18.91	12.58	9.434	7.212	5.686	4.805	4.078	3.444	3.262	2.754	2.546	2.454	1.986	1.942	1.604	1.692	1.816	1.633	1.524	1.379	1.281	1.182	1.156	0.959	0.939	0.835	0.886	0.877	0.743	0.825	0.836	0.903	0.728	0.778	0.831	0.621	0.556	0.649	0.700	0.770	0.930	1.417	2.541	3.069	2.366	2.112	3.746	7.334	14.75	23.18	32.93	80.64	145.2	149.8	27.81	10.54	0.909	0.729	0.534	0.486	0.518	0.461	0.467
280.0	149.1	150.3	143.8	97.57	62.40	82.77	317.4	531.3	344.1	696.7	3232	9999.9	9999.9	855.6	36.22	17.78	11.93	8.997	7.013	5.763	4.446	3.884	3.755	3.176	2.734	2.436	2.176	2.103	1.892	1.941	1.794	1.827	1.570	1.494	1.469	1.297	1.156	1.030	1.003	0.883	0.871	0.887	0.980	0.879	0.936	0.980	0.946	0.928	0.907	0.741	0.659	0.729	0.667	0.687	0.673	0.808	1.416	2.410	3.498	2.830	2.002	2.305	3.917	5.936	8.149	20.53	54.90	123.0	179.0	147.1	23.19	5.061	0.736	0.563	0.508	0.561	0.587
285.0	213.1	233.2	227.3	151.4	85.34	69.06	152.4	502.1	341.9	285.9	859.3	4438	9999.9	8530	119.2	26.32	15.70	11.28	8.105	7.419	4.796	4.134	3.972	3.253	3.237	2.582	2.438	2.259	2.338	1.989	1.846	1.779	1.546	1.561	1.466	1.390	1.386	1.127	1.076	1.114	0.886	1.034	0.957	0.985	1.023	1.221	1.057	1.082	1.200	1.039	0.866	0.907	0.673	0.698	0.646	0.772	1.018	1.222	2.277	3.569	3.656	2.364	1.801	2.207	2.798	5.515	13.42	32.87	80.66	161.8	193.7	33.05	16.86	1.991	0.748	0.673	0.639
290.0	276.9	361.8	356.4	248.3	136.0	94.92	119.7	259.1	531.5	502.5	434.6	1231	4688	9999.9	9999.9	2470	42.42	17.50	12.22	9.769	6.466	5.170	4.838	3.685	3.359	2.982	2.621	2.692	2.388	2.291	2.233	1.817	1.829	1.806	1.672	1.509	1.496	1.280	1.198	1.151	1.141	1.046	1.021	1.112	1.241	1.458	1.479	1.480	1.568	1.356	1.108	1.141	0.924	0.911	0.858	0.878	0.990	1.053	1.331	1.826	2.872	3.653	3.838	3.002	2.348	2.658	4.399	8.783	19.67	42.59	79.93	105.3	145.6	116.6	87.90	12.92	3.324
295.0	339.6	491.0	503.7	343.9	214.7	149.4	157.9	209.4	351.9	746.9	747.8	639.2	1360	2861	9999.9	9999.9	681.6	42.80	18.34	13.99	9.474	6.794	5.629	4.552	3.926	3.525	3.040	2.931	3.000	2.420	2.429	2.182	2.103	1.839	1.884	1.708	1.766	1.551	1.504	1.312	1.240	1.053	1.179	1.326	1.431	1.695	1.572	1.868	2.100	1.565	1.368	1.461	1.312	1.114	1.086	1.062	1.182	1.354	1.207	1.530	1.730	2.308	3.073	4.794	5.173	3.891	3.139	3.933	6.559	11.33	19.49	25.35	38.49	71.46	168.0	225.6	35.02
300.0	398.6	563.1	630.8	427.4	277.4	199.7	209.9	254.3	337.7	625.3	1072	779.6	737.1	971.2	3483	9999.9	9999.9	532.7	30.99	18.38	11.43	8.935	7.038	5.678	4.571	4.010	3.442	3.355	3.140	2.902	2.760	2.519	2.140	2.070	1.908	1.762	1.895	1.419	1.661	1.368	1.378	1.327	1.154	1.436	1.688	1.708	1.926	2.255	2.574	1.896	1.531	1.822	1.403	1.293	1.258	1.229	1.464	1.507	1.500	1.710	1.976	2.063	2.876	3.517	5.220	6.559	5.274	4.054	4.187	5.054	6.510	7.999	10.51	18.36	50.35	130.0	216.4
305.0	435.9	660.3	724.0	508.0	342.7	248.1	270.4	318.7	415.1	618.1	1014	1235	793.9	681.4	1081	4897	9999.9	9999.9	78.95	25.60	15.42	10.96	8.974	6.769	5.261	4.698	3.939	3.683	3.464	2.960	2.950	2.350	2.423	2.303	2.065	1.766	1.892	1.618	1.595	1.499	1.389	1.393	1.492	1.523	1.686	1.859	2.100	2.598	2.857	2.238	1.915	1.995	1.714	1.471	1.342	1.659	1.668	1.815	1.986	2.096	2.296	2.646	2.994	3.439	4.232	5.923	6.886	6.727	5.255	4.555	4.513	4.594	4.824	6.200	13.02	32.45	78.26
310.0	484.1	728.2	839.9	591.4	408.6	307.0	351.5	418.5	534.2	736.2	950.6	1296	1282	865.9	670.3	1351	4778	9999.9	9999.9	1921	35.28	16.62	12.21	8.197	6.810	5.440	4.537	4.272	3.896	3.400	3.118	2.699	2.425	2.466	2.246	2.070	1.998	1.696	1.657	1.698	1.480	1.600	1.708	1.585	1.937	2.123	2.306	2.745	3.284	2.533	2.230	2.173	1.983	1.752	1.629	1.870	2.023	2.118	2.383	2.428	2.800	3.131	3.535	3.981	4.277	5.521	5.640	6.821	7.657	7.166	5.772	5.050	4.290	4.115	5.147	9.046	19.05
315.0	536.4	798.5	932.7	667.5	482.3	356.9	422.5	502.7	646.7	859.1	1044	1231	1406	1323	758.0	615.7	1222	2674	9999.9	9999.9	509.7	37.66	18.81	11.56	8.516	6.954	5.409	4.749	4.638	3.969	3.316	2.931	2.823	2.646	2.346	2.252	2.145	1.738	1.784	1.681	1.657	1.768	1.636	1.670	2.049	2.343	2.721	3.303	3.677	2.722	2.391	2.631	2.165	1.932	2.066	2.034	2.348	2.535	2.652	2.755	3.252	3.380	4.179	4.811	4.573	5.928	5.561	5.959	7.094	7.416	7.803	7.930	5.800	4.781	4.009	4.499	5.941
320.0	602.1	890.2	1042	753.8	532.2	401.4	482.7	555.8	714.8	963.3	1137	1299	1360	1480	1009	526.5	464.5	711.9	3230	9999.9	9999.9	442.9	31.33	15.37	11.06	8.364	6.562	5.488	4.700	4.463	3.787	3.267	3.217	2.751	2.669	2.406	2.061	2.057	2.025	1.751	1.682	1.764	1.703	1.950	2.195	2.685	2.841	3.484	4.152	2.968	2.617	2.782	2.317	2.095	2.323	2.156	2.388	2.997	2.876	3.081	3.497	3.909	4.738	5.222	5.013	6.563	6.132	6.534	6.988	7.254	7.355	8.321	7.417	6.479	4.466	3.688	3.283
325.0	625.4	1024	1198	835.0	588.6	454.4	520.1	599.8	778.4	1026	1217	1377	1384	1407	1252	640.2	332.4	293.2	819.0	4608	9999.9	9999.9	346.9	21.36	14.73	10.75	7.736	6.379	5.392	4.997	4.135	3.541	3.144	3.097	2.646	2.476	2.250	2.068	1.965	1.846	1.658	1.842	1.670	1.948	2.566	2.889	3.018	3.788	4.543	3.233	2.850	2.922	2.518	2.312	2.430	2.438	2.662	3.207	3.113	3.541	3.651	4.162	4.937	5.630	5.242	6.636	6.361	6.802	6.968	7.208	7.150	7.296	7.201	7.612	6.134	4.499	3.043
330.0	686.8	1127	1375	1019	669.5	513.5	563.0	640.4	818.6	1067	1276	1425	1440	1367	1184	857.5	429.5	237.6	294.0	1129	4343	9999.9	9999.9	1629	31.57	14.48	10.55	8.246	6.856	5.627	4.974	3.914	3.479	3.448	2.921	2.487	2.333	2.095	2.098	1.809	1.840	1.907	1.834	1.974	2.395	2.864	3.296	4.201	4.968	3.963	3.384	3.393	2.833	2.574	2.700	2.562	2.706	3.200	3.393	3.680	3.923	4.418	5.419	5.652	5.622	7.097	6.623	6.698	7.641	7.381	7.380	7.336	6.736	6.796	6.249	5.883	4.770
335.0	714.9	1158	1472	1132	760.7	560.6	603.0	678.0	842.5	1082	1294	1436	1456	1377	1129	815.3	637.1	330.0	212.3	360.4	1044	2559	9999.9	9999.9	2595	35.53	15.53	11.09	8.691	7.518	5.664	4.988	3.975	3.903	3.189	2.711	2.635	2.177	2.334	1.975	2.114	1.989	1.950	2.004	2.384	2.973	3.492	4.234	5.148	4.375	3.768	3.637	3.067	2.717	2.786	2.906	3.042	3.239	3.509	3.675	3.929	4.596	5.500	5.862	5.708	6.927	6.733	6.839	7.609	7.649	7.281	7.180	6.439	6.779	5.509	5.001	5.031
340.0	722.4	1192	1487	1184	795.9	610.6	626.4	684.4	849.9	1074	1267	1405	1429	1367	1117	757.9	628.4	484.4	241.2	207.1	324.4	640.7	2998	9999.9	9999.9	393.0	28.06	14.25	10.99	8.389	6.501	5.494	4.466	4.074	3.390	2.894	2.847	2.314	2.147	2.026	1.998	2.076	2.191	2.014	2.426	2.936	3.692	4.402	5.386	4.493	3.693	3.946	3.531	3.048	2.873	2.823	3.349	3.290	3.639	3.522	4.083	4.612	5.298	5.802	5.893	6.779	6.662	6.535	7.659	7.384	7.355	6.987	6.367	6.751	5.676	4.994	4.729
345.0	715.9	1171	1480	1188	826.0	634.6	645.0	677.8	826.1	1036	1238	1345	1379	1322	1089	740.3	536.6	538.7	346.2	202.5	181.8	226.9	738.3	3804	9999.9	9999.9	334.6	20.62	13.22	10.03	7.412	5.844	4.493	4.241	3.634	2.976	2.826	2.310	2.216	1.971	1.837	2.251	2.030	2.036	2.253	2.920	3.453	4.302	5.236	4.487	3.811	4.216	3.543	3.035	3.107	3.164	3.437	3.526	3.446	3.647	4.033	4.655	5.120	5.674	5.891	6.264	6.372	6.661	7.246	7.283	6.927	6.896	6.675	6.646	5.431	4.898	4.566
350.0	667.3	1063	1357	1147	848.6	659.6	649.4	676.3	797.6	961.8	1150	1243	1272	1226	1032	722.2	513.3	455.6	445.5	313.9	190.4	158.6	246.9	919.1	3814	9999.9	9999.9	1545	30.61	13.70	9.874	7.331	5.379	4.468	3.936	3.173	2.971	2.617	2.382	2.026	1.852	1.967	2.079	2.083	2.337	2.772	3.139	4.128	4.846	3.988	3.699	3.833	3.510	3.312	3.066	2.957	3.425	3.517	3.488	3.623	3.907	4.330	4.617	5.194	5.242	5.993	5.975	6.007	6.639	6.867	6.779	6.506	6.323	6.231	5.188	4.771	4.303
355.0	607.5	939.7	1251	1094	868.4	694.7	661.3	683.6	776.6	906.5	1052	1132	1158	1124	968.2	715.5	527.7	437.9	396.7	425.4	294.3	181.1	164.1	289.1	911.5	2427	9894	9999.9	2719	37.04	13.16	9.562	6.795	5.731	4.532	3.679	3.142	2.852	2.607	2.165	2.050	1.959	2.041	2.182	2.115	2.561	3.010	3.724	4.281	4.014	3.453	3.965	3.476	3.351	3.069	3.164	3.305	3.501	3.503	3.539	3.567	4.199	4.383	5.007	5.075	5.669	5.360	5.377	5.885	5.881	5.865	6.081	5.803	5.570	5.161	4.872	4.187
360.0	579.7	881.6	1140	1053	858.5	704.6	664.9	679.8	766.6	870.5	982.7	1059	1071	1057	912.8	698.2	538.2	452.5	391.3	403.2	399.7	243.8	171.2	168.4	279.3	601.2	2619	9999.9	9999.9	2251	29.90	12.78	9.078	6.900	5.552	4.152	3.405	2.914	2.673	2.296	2.177	1.922	2.073	2.019	2.253	2.514	2.903	3.322	4.239	3.614	3.326	3.799	3.450	3.336	3.222	3.177	3.567	3.553	3.366	3.574	3.813	3.831	4.158	4.716	4.804	5.437	4.974	5.120	5.580	5.557	5.466	5.741	5.570	5.155	4.934	4.888	4.194
365.0	542.7	831.8	1066	1014	841.0	718.0	677.8	685.3	742.6	833.5	940.6	999.5	1007	988.7	871.2	683.5	546.8	466.4	403.8	375.0	408.7	343.2	208.0	161.2	156.3	203.3	641.4	3169	9999.9	9999.9	354.4	21.45	11.36	8.354	6.428	4.681	3.783	2.996	2.843	2.443	2.148	2.077	2.040	1.991	1.968	2.432	2.660	3.588	4.100	3.438	3.169	3.704	3.503	3.384	3.183	3.387	3.662	3.860	3.304	3.531	3.914	3.965	4.137	4.500	4.762	5.057	4.648	4.798	5.260	5.226	5.284	5.492	5.084	5.141	4.751	4.855	4.170
370.0	503.3	758.3	977.3	957.3	831.7	730.7	686.2	689.3	716.9	792.7	866.3	906.4	915.6	907.6	813.0	664.6	554.9	487.5	435.4	390.6	373.0	385.9	318.9	206.7	157.4	140.5	214.3	763.7	3304	9999.9	9999.9	5375	29.00	12.23	8.263	5.863	4.622	3.434	3.053	2.734	2.244	2.270	2.105	2.046	2.092	2.403	2.567	3.251	3.674	3.346	3.153	3.695	3.458	3.379	3.264	3.356	3.556	3.691	3.508	3.656	3.676	3.729	4.019	4.124	4.249	4.754	4.368	4.468	4.888	4.851	4.869	5.125	4.705	4.995	4.624	4.440	4.143
375.0	477.5	716.5	904.9	894.8	814.4	743.6	694.6	686.8	703.4	755.4	812.6	844.7	851.3	832.4	758.4	641.9	562.6	508.6	466.4	420.4	383.4	362.1	375.4	308.8	198.2	155.3	140.4	241.5	790.4	2360	8599	9999.9	2544	35.28	11.94	7.860	6.210	4.180	3.597	2.963	2.520	2.517	2.133	2.127	2.222	2.259	2.366	3.102	3.234	3.266	3.011	3.448	3.481	3.491	3.344	3.336	3.766	3.597	3.390	3.440	3.508	3.766	3.941	3.986	4.213	4.409	4.013	4.285	4.383	4.661	4.591	4.547	4.497	4.591	4.310	4.238	4.241
380.0	455.5	670.3	845.5	889.5	809.0	740.6	700.5	675.2	692.9	724.9	782.6	794.2	803.2	785.8	721.4	625.1	561.7	517.6	483.1	437.0	399.9	362.2	361.2	372.9	260.7	179.3	143.8	141.0	242.1	578.4	2215	9999.9	9999.9	2136	27.33	9.929	7.434	4.852	4.059	3.341	2.731	2.639	2.244	2.123	2.199	2.428	2.284	2.889	3.414	3.083	2.940	3.413	3.453	3.399	3.349	3.264	3.572	3.422	3.436	3.517	3.484	3.803	3.811	3.649	3.877	4.247	3.836	4.223	4.288	4.522	4.217	4.376	4.169	4.539	4.076	4.244	4.011
385.0	417.3	657.0	809.9	845.6	807.1	738.6	699.5	667.3	678.6	701.7	742.3	758.9	764.2	753.2	689.9	610.7	556.8	527.6	489.9	457.5	417.1	382.1	351.9	364.8	334.3	220.3	164.9	134.8	133.8	191.0	543.5	2822	9999.9	9999.9	303.4	18.67	9.206	5.966	4.912	3.869	3.030	2.909	2.327	2.205	2.223	2.539	2.487	2.889	3.165	2.934	2.934	3.250	3.331	3.521	3.421	3.276	3.477	3.393	3.318	3.522	3.333	3.609	3.583	3.492	3.689	3.930	3.804	3.675	4.210	4.384	4.299	4.194	3.978	4.408	3.931	4.098	3.978
390.0	412.9	607.0	770.6	815.6	793.2	744.6	702.0	674.4	667.2	692.0	707.8	724.3	719.7	708.6	658.8	595.9	554.2	529.4	497.5	471.1	435.3	401.4	366.8	347.3	349.9	305.8	214.1	162.4	136.5	127.8	187.0	679.6	2892	9999.9	9999.9	4835	24.57	8.816	6.146	4.851	3.559	3.379	2.440	2.376	2.437	2.582	2.513	2.928	3.146	2.854	2.827	3.286	3.291	3.439	3.386	3.297	3.383	3.477	3.562	3.390	3.432	3.531	3.585	3.551	3.643	3.931	3.710	3.596	3.910	3.958	3.984	4.012	4.058	4.070	3.823	3.996	3.984
395.0	400.7	587.4	729.2	798.9	771.3	739.6	698.7	674.9	657.0	668.9	687.7	685.5	685.2	676.7	635.5	582.6	548.7	522.9	505.5	478.3	451.9	418.9	389.2	359.7	335.7	337.7	297.1	207.3	163.6	140.5	128.6	214.5	692.7	2317	6835	9999.9	2171	29.66	8.848	6.337	4.532	4.098	2.921	2.792	2.597	2.826	2.648	2.859	3.150	2.837	2.743	3.162	3.481	3.414	3.450	3.465	3.357	3.481	3.685	3.203	3.405	3.320	3.613	3.590	3.470	3.497	3.496	3.524	3.627	3.619	4.023	3.967	3.817	3.949	3.703	3.725	3.851
400.0	380.5	555.9	720.2	775.7	756.3	734.4	700.0	675.9	658.7	662.4	672.0	670.8	665.1	652.0	617.4	567.0	541.8	519.7	502.1	479.0	457.1	425.7	401.2	368.3	342.5	324.9	334.9	262.7	188.7	157.6	128.0	122.2	209.0	561.5	1716	8649	9999.9	1850	23.55	7.852	5.555	4.916	3.366	2.973	2.785	2.750	2.814	2.854	3.113	2.927	2.818	3.206	3.389	3.212	3.433	3.340	3.526	3.318	3.604	3.280	3.389	3.450	3.462	3.408	3.484	3.498	3.556	3.492	3.525	3.402	3.762	3.792	3.593	3.992	3.797	3.715	3.920
405.0	368.2	547.3	702.9	754.4	751.4	737.7	691.4	667.0	668.4	653.5	662.7	655.0	640.5	635.0	597.7	551.2	528.8	510.1	494.6	476.8	456.9	433.2	407.2	379.2	349.3	322.0	323.3	311.6	223.8	174.6	139.3	109.7	108.3	172.5	421.5	2325	9999.9	9999.9	1398	16.66	6.635	5.597	3.904	3.279	2.958	2.745	2.807	2.886	2.999	2.769	2.910	3.135	3.252	3.372	3.416	3.380	3.358	3.466	3.816	3.476	3.183	3.564	3.312	3.424	3.451	3.443	3.502	3.390	3.496	3.276	3.449	3.601	3.541	3.660	3.675	3.627	4.003
410.0	356.6	518.2	670.8	732.3	755.3	726.3	694.7	672.3	660.1	640.9	644.8	636.5	616.2	611.7	573.7	527.2	510.1	497.3	480.7	469.2	450.4	430.7	412.4	388.0	361.6	332.1	311.5	309.3	284.7	215.1	159.8	121.4	98.49	95.95	137.9	549.7	2680	8058	9999.9	3893	21.41	7.736	4.781	4.049	3.316	3.257	2.836	3.038	3.123	2.812	2.818	3.303	3.272	3.331	3.260	3.341	3.558	3.559	3.475	3.529	3.397	3.393	3.438	3.380	3.254	3.491	3.376	3.450	3.424	3.515	3.410	3.515	3.522	3.823	3.450	3.587	3.561
415.0	354.4	516.4	645.6	702.3	716.7	709.5	684.9	686.4	650.8	634.0	634.7	623.5	595.2	585.1	544.4	505.9	483.6	479.6	466.0	453.3	434.0	424.4	404.4	388.3	364.3	341.6	314.9	290.3	294.1	272.8	190.8	137.9	107.7	90.59	83.37	157.6	622.2	1844	5228	9999.9	1975	27.26	6.993	5.163	3.904	3.635	3.198	3.039	3.277	2.725	2.795	3.039	3.326	3.348	3.238	3.562	3.560	3.511	3.445	3.338	3.336	3.375	3.263	3.308	3.202	3.253	3.151	3.352	3.309	3.496	3.261	3.311	3.401	3.467	3.469	3.492	3.512
420.0	330.0	485.7	621.4	699.4	719.1	702.6	669.1	672.2	641.0	627.0	618.1	605.7	580.9	565.2	525.0	490.5	472.1	455.4	444.1	438.3	421.6	414.5	396.6	384.8	365.4	343.0	316.3	290.9	277.6	288.5	224.3	153.4	117.5	94.73	74.48	74.78	167.3	432.2	1280	6792	9999.9	1712	20.50	6.281	4.591	4.083	3.400	3.140	3.324	2.802	2.809	3.099	3.263	3.478	3.500	3.335	3.547	3.421	3.431	3.432	3.323	3.149	3.521	3.419	3.160	3.346	3.224	3.115	3.389	3.179	3.473	3.267	3.310	3.339	3.365	3.493	3.355
425.0	355.1	476.7	590.4	674.9	693.4	689.6	668.8	649.7	624.9	614.7	601.8	585.3	565.9	541.3	504.9	471.4	457.5	442.0	430.9	419.4	412.0	395.6	388.1	374.9	358.5	340.2	315.6	292.9	271.4	267.0	250.8	176.4	126.1	99.09	76.94	61.22	68.76	119.8	304.8	1783	8448	9999.9	257.4	13.86	5.989	4.664	3.665	3.356	3.518	2.898	2.770	3.274	3.304	3.445	3.323	3.121	3.573	3.302	3.455	3.539	3.429	3.344	3.263	3.101	3.357	3.236	3.097	3.153	3.062	3.189	3.064	3.228	3.202	3.294	3.187	3.438	3.254
430.0	348.8	459.0	572.9	659.6	669.9	661.8	647.6	651.0	632.7	611.0	597.5	574.3	546.7	520.0	479.4	451.7	432.2	418.2	411.6	400.9	390.8	384.0	373.8	364.1	350.0	332.4	312.7	293.1	269.7	252.7	240.4	207.9	148.5	108.9	83.44	63.33	52.87	53.87	89.23	414.9	2210	7305	8767	3231	18.94	6.258	4.576	3.899	3.778	3.059	2.964	3.451	3.161	3.407	3.301	3.308	3.563	3.491	3.470	3.427	3.253	3.431	3.370	3.143	3.144	3.283	3.056	3.140	2.984	3.110	2.919	3.099	3.096	3.186	3.118	3.149	3.047
435.0	504.8	437.8	547.8	639.1	651.3	652.7	655.3	648.0	625.6	599.1	594.2	567.8	527.6	500.1	458.0	430.6	412.0	399.8	393.2	383.4	371.6	365.3	359.8	349.0	339.5	321.9	308.2	288.5	271.2	250.4	223.5	206.9	180.0	128.7	91.72	69.44	54.91	44.60	44.47	111.7	507.2	1666	4458	9999.9	1821	24.43	6.742	4.942	4.579	3.417	3.073	3.378	3.224	3.298	3.393	3.283	3.634	3.682	3.533	3.279	3.389	3.347	3.350	3.225	3.176	3.240	3.016	2.940	2.877	2.970	3.064	2.954	3.278	2.871	2.998	2.830	3.073
440.0	695.3	466.1	514.9	592.6	633.8	632.0	648.9	644.7	619.8	598.7	583.6	551.6	514.8	478.9	445.5	413.1	394.0	383.8	377.2	365.5	357.0	351.0	344.0	339.4	326.3	315.0	302.7	284.6	267.1	248.4	219.3	196.3	187.9	149.0	102.6	76.13	59.02	46.86	37.75	45.19	129.7	385.7	1105	6716	9999.9	1514	18.00	6.684	4.871	3.797	3.392	3.665	3.304	3.290	3.289	3.569	3.713	3.504	3.477	3.435	3.344	3.117	3.368	3.153	3.001	3.091	3.038	2.959	2.896	2.836	2.986	2.878	3.047	2.741	2.786	2.926	2.843
445.0	857.3	679.1	503.4	568.8	603.2	603.8	628.8	633.7	611.0	591.8	567.5	538.2	499.6	470.3	427.2	394.7	380.0	364.9	354.2	352.4	341.5	334.8	328.2	325.5	314.4	308.6	293.4	278.0	265.5	248.1	217.7	189.2	177.0	164.1	115.1	81.51	63.19	48.80	38.95	33.99	47.93	101.3	260.5	1796	8097	9926	214.8	13.45	5.967	3.996	3.661	3.751	3.330	3.641	3.160	3.332	3.656	3.461	3.369	3.308	3.349	3.346	3.345	2.936	3.249	3.165	3.022	2.848	2.879	2.686	2.943	2.802	2.823	2.786	2.677	2.923	2.672
450.0	668.0	1320	661.1	544.2	571.1	582.9	590.4	598.0	583.7	569.9	542.9	513.9	475.2	442.8	404.7	371.8	354.9	342.1	331.7	324.8	317.5	311.7	309.2	300.1	295.0	286.0	275.9	264.3	253.3	238.3	213.9	184.8	162.5	151.9	131.9	94.61	68.62	53.85	43.23	34.19	31.69	40.05	72.76	413.6	2144	6969	8892	2916	16.87	5.362	4.136	4.157	3.524	3.496	3.408	3.257	3.455	3.455	3.437	3.352	3.254	3.357	3.160	3.158	3.165	3.067	3.020	2.788	2.679	2.587	2.738	2.701	2.745	2.592	2.552	2.609	2.828
455.0	357.7	1586	1210	536.9	529.4	557.3	554.1	564.6	547.1	531.0	513.7	484.7	448.5	406.8	375.2	344.1	326.5	314.4	303.6	294.2	287.8	285.2	283.9	274.8	268.5	265.1	256.8	246.2	235.4	223.7	206.0	177.6	154.9	135.6	124.3	110.1	77.58	57.73	46.56	36.58	30.00	27.64	31.30	105.0	488.6	1593	4394	9999.9	1527	18.56	5.473	4.487	3.881	3.515	3.463	3.489	3.432	3.421	3.207	3.458	3.132	3.195	3.137	3.120	3.118	2.950	2.779	2.932	2.727	2.583	2.541	2.540	2.698	2.361	2.407	2.406	2.669
460.0	263.9	1201	2434	721.0	494.1	525.7	520.8	531.0	525.6	504.8	487.5	463.8	424.6	385.0	348.3	319.5	302.1	290.3	280.0	273.2	266.6	260.8	261.3	254.8	250.6	246.0	241.5	231.5	224.7	213.3	197.1	171.4	149.0	129.9	114.8	111.8	89.63	62.10	49.02	39.42	31.59	26.99	23.62	37.27	120.1	365.9	1073	6046	9999.9	1149	14.55	5.428	4.249	3.715	3.603	3.540	3.376	3.365	3.193	3.046	2.941	2.922	3.052	3.126	2.776	2.611	2.605	2.542	2.682	2.511	2.469	2.428	2.534	2.275	2.407	2.364	2.317
465.0	218.5	661.3	2985	1513	473.4	486.3	501.8	506.9	489.7	484.6	464.6	432.9	401.2	361.4	328.0	302.0	281.2	269.5	262.3	253.4	245.4	244.9	243.0	237.4	233.6	228.9	222.5	217.8	214.0	202.3	187.6	165.7	143.6	123.9	106.8	101.8	94.95	68.01	50.45	39.77	33.26	27.68	22.81	22.85	38.65	92.31	249.8	1605	8194	7574	172.9	11.44	5.172	4.008	3.660	3.510	3.515	3.602	3.280	2.981	2.833	2.880	3.002	2.890	2.602	2.682	2.772	2.351	2.541	2.406	2.452	2.530	2.372	2.247	2.017	2.355	2.310
470.0	216.9	359.4	1925	3238	805.5	440.4	457.5	461.3	456.1	447.6	428.3	399.1	364.6	329.2	299.7	269.7	251.4	244.3	234.0	227.7	221.2	217.7	214.3	213.1	210.9	206.5	202.0	196.8	193.4	185.5	170.9	153.6	134.7	116.7	99.86	88.85	84.28	76.24	56.21	41.93	34.40	28.35	23.13	20.39	21.62	31.47	65.46	367.8	2168	5365	6203	2164	15.94	5.293	4.250	3.792	3.779	3.541	3.184	2.967	2.960	2.899	2.700	2.696	2.660	2.533	2.508	2.282	2.318	2.295	2.331	2.159	2.258	2.178	2.125	2.177	2.124
475.0	222.7	277.2	754.5	3582	2333	435.0	410.3	422.8	414.4	412.1	389.5	362.6	325.0	292.6	265.3	239.2	226.8	217.0	211.2	199.3	196.3	191.3	190.9	188.3	186.6	180.6	179.3	174.4	173.2	168.6	157.1	141.5	123.9	108.1	93.90	81.19	72.28	70.92	64.01	46.31	34.97	29.03	23.53	20.23	17.98	18.34	24.52	90.66	490.4	1220	2907	6752	1427	21.25	4.995	4.224	3.785	3.668	3.188	2.972	2.830	2.523	2.612	2.525	2.448	2.314	2.264	2.217	2.234	2.145	2.161	1.990	2.089	1.957	1.961	1.867	1.890
480.0	223.8	258.0	400.0	2340	3927	551.4	384.3	395.2	380.1	381.7	367.9	341.3	308.0	272.5	243.6	221.6	207.9	196.2	193.2	182.4	179.9	175.0	172.3	173.3	168.3	165.4	163.2	160.4	160.7	156.7	145.5	131.6	117.6	103.0	90.37	77.60	67.19	62.37	62.17	51.32	36.04	28.93	24.33	20.81	18.03	15.70	15.69	29.07	116.9	278.3	703.5	3711	6168	1257	15.55	4.641	4.251	3.649	3.247	3.032	2.798	2.491	2.504	2.622	2.280	2.248	2.215	2.146	2.097	1.934	1.857	1.966	1.892	1.924	1.723	1.795	1.756
485.0	197.6	261.5	309.4	1100	4471	1631	371.8	371.8	361.2	356.0	349.4	320.4	288.8	255.9	228.9	207.3	195.0	184.1	178.7	170.1	166.3	162.9	158.6	158.8	157.3	153.7	153.2	149.1	149.1	145.0	137.9	124.6	111.5	98.52	86.49	75.46	64.95	57.54	56.98	54.93	39.75	30.04	25.56	20.82	18.10	15.76	13.82	15.29	34.06	68.83	163.3	971.0	4700	5949	202.4	11.07	5.019	3.951	3.347	3.097	2.839	2.612	2.509	2.564	2.357	2.201	2.147	2.237	1.989	1.849	1.850	1.937	1.862	1.830	1.749	1.602	1.807
490.0	158.4	257.3	281.1	475.9	2770	3815	694.3	339.4	332.2	328.5	321.0	298.9	265.8	235.1	209.4	188.2	177.7	170.3	160.2	155.4	150.4	146.7	144.3	142.8	142.8	139.5	137.7	136.9	136.0	132.4	127.5	114.9	102.5	92.01	80.39	70.72	62.66	54.58	50.55	50.03	45.63	33.75	25.64	20.95	18.29	16.11	13.95	12.66	15.88	21.91	42.63	222.5	1221	3811	5275	2226	17.66	5.209	3.796	3.239	2.849	2.528	2.554	2.382	2.152	2.112	2.110	1.930	1.978	1.949	1.814	1.716	1.731	1.711	1.647	1.614	1.727
495.0	134.8	240.5	289.6	307.7	963.1	4307	2308	331.0	303.8	298.7	291.7	273.3	244.7	210.6	190.4	170.1	156.8	149.6	142.0	139.0	133.8	130.2	127.7	126.6	125.2	125.9	121.5	123.2	121.9	121.3	114.5	106.1	94.62	83.24	76.23	65.92	58.70	51.85	46.37	42.16	42.82	39.01	27.89	21.74	18.55	16.14	13.58	12.76	12.07	11.59	15.53	54.86	277.1	865.5	2637	7025	1686	23.33	4.984	3.951	3.153	2.923	2.539	2.471	2.333	2.190	2.055	1.801	1.775	1.770	1.736	1.730	1.733	1.742	1.501	1.441	1.530
500.0	130.2	193.4	289.3	260.7	418.3	2847	4234	389.8	290.9	275.0	268.1	254.4	224.7	196.9	176.2	155.3	145.3	135.5	130.3	125.5	119.9	117.9	116.5	114.7	115.2	113.3	110.2	111.2	111.1	111.7	106.4	96.36	87.07	77.61	70.41	63.20	56.11	49.22	43.71	38.60	37.32	39.38	30.99	22.59	19.07	16.34	14.27	12.44	10.90	9.771	9.619	17.46	66.79	198.2	638.4	3822	7165	1426	17.56	4.416	3.359	2.852	2.645	2.420	2.201	2.160	1.928	1.820	1.828	1.727	1.553	1.499	1.516	1.462	1.468	1.464	1.430
505.0	121.3	157.3	285.8	254.7	270.5	1292	5102	1357	268.7	259.9	243.6	232.8	207.3	179.0	161.9	144.4	131.7	126.1	119.2	115.6	108.2	108.3	106.5	104.7	104.1	102.9	99.92	103.0	100.8	100.5	97.05	89.45	81.48	73.57	65.01	58.43	52.25	46.42	41.09	37.09	33.26	34.22	33.03	24.70	19.11	16.31	14.30	12.32	10.85	9.538	8.234	9.550	19.85	49.06	147.7	984.8	5030	6758	227.8	11.31	3.821	3.088	2.776	2.282	2.243	2.091	1.915	1.833	1.613	1.567	1.620	1.417	1.369	1.307	1.380	1.410	1.475
510.0	100.2	140.5	229.1	260.1	226.4	475.5	3217	3664	510.2	231.9	221.3	209.3	180.9	162.5	144.0	127.7	116.0	111.0	104.3	99.58	96.55	94.78	93.35	90.90	90.99	89.91	89.25	89.76	89.38	89.09	85.37	79.98	72.35	66.29	59.05	53.50	47.90	43.08	37.82	34.26	30.09	28.38	29.75	27.20	20.87	16.34	14.26	11.96	10.59	9.225	8.094	7.623	9.153	15.34	37.28	224.3	1286	4113	4986	1013	17.38	3.994	3.115	2.537	2.176	1.930	1.833	1.697	1.546	1.499	1.574	1.405	1.359	1.275	1.284	1.344	1.388
515.0	92.41	121.2	172.1	249.5	209.1	253.6	1051	4829	1903	217.0	197.2	182.6	162.4	141.7	127.1	111.1	102.6	97.86	90.31	87.94	83.60	82.84	80.78	79.97	78.76	77.54	77.36	77.83	77.76	77.03	74.32	70.09	62.86	58.12	52.88	47.99	43.02	38.18	34.70	30.81	27.74	24.61	24.05	25.36	23.38	17.30	13.65	11.96	10.43	8.887	7.809	7.326	6.657	7.513	12.09	54.10	290.5	928.8	2144	5087	1662	23.83	4.005	2.620	2.378	2.023	1.970	1.793	1.428	1.413	1.452	1.286	1.319	1.203	1.220	1.284	1.051
520.0	82.07	106.6	139.1	214.9	220.3	190.8	373.9	3296	4312	278.9	181.9	166.2	145.8	128.9	111.1	100.2	91.79	87.06	81.53	78.18	75.52	73.58	71.47	72.02	69.72	69.18	69.30	69.13	68.16	69.67	67.59	62.76	58.03	52.47	48.09	43.64	39.53	35.26	31.71	28.38	25.51	22.65	20.73	21.40	22.76	18.70	13.72	11.40	9.971	8.492	7.638	7.007	6.099	5.844	6.637	16.02	68.58	211.1	506.6	2563	4954	1413	18.97	3.382	2.724	2.154	2.003	1.658	1.527	1.471	1.364	1.273	1.159	1.110	1.180	1.248	1.100
525.0	75.42	99.19	115.4	173.6	227.6	172.8	214.2	1411	5787	1211	166.9	150.6	133.7	120.6	102.8	90.40	83.21	78.32	73.84	71.01	66.78	66.37	63.66	64.65	63.74	62.92	62.05	62.13	61.56	62.70	59.98	56.47	52.64	47.48	43.18	39.00	36.01	31.78	29.49	26.25	24.03	21.70	19.04	18.24	20.32	20.38	14.56	11.05	9.879	8.169	7.158	6.463	6.054	5.456	5.299	7.262	18.95	50.69	117.4	634.2	2997	4783	239.2	12.50	3.172	2.335	1.887	1.696	1.434	1.436	1.437	1.167	1.143	1.107	1.046	1.131	1.034
530.0	74.02	89.81	104.3	130.3	205.0	181.4	158.7	452.7	3730	4158	392.0	133.6	118.1	103.9	90.31	79.80	72.51	68.68	64.51	61.56	58.85	56.62	54.95	55.36	54.27	53.80	53.58	53.66	53.71	53.92	52.31	49.72	45.94	42.40	37.89	34.61	32.16	28.49	25.68	23.64	21.08	19.84	17.32	15.95	16.34	17.67	16.34	11.69	9.529	7.708	6.951	5.976	5.596	5.361	4.776	5.014	7.407	14.59	29.40	144.8	737.3	2464	3612	1047	18.61	3.374	2.086	1.751	1.543	1.351	1.289	1.183	1.078	1.023	0.975	1.026	1.067
535.0	65.96	73.68	93.54	108.9	148.7	194.9	137.7	196.6	1134	5415	1584	129.1	104.2	90.51	76.94	68.70	62.45	57.63	55.09	51.76	49.84	49.11	47.46	46.96	46.21	45.56	44.61	45.31	46.15	45.64	45.20	41.44	39.78	36.21	33.68	30.24	27.77	25.08	23.25	20.45	18.82	17.46	15.08	14.58	12.93	13.88	14.73	13.04	9.641	7.162	6.460	5.629	5.139	4.571	4.624	4.406	4.384	6.008	9.024	34.89	166.7	553.5	1291	3606	1738	26.91	2.907	2.224	1.673	1.428	1.204	1.190	1.053	0.885	1.007	0.934	0.866
540.0	53.46	67.73	83.45	94.70	111.3	178.4	136.0	130.2	356.1	3420	4542	195.0	95.25	79.86	69.15	60.46	56.92	51.43	49.07	45.63	44.09	42.29	42.01	41.65	40.32	39.22	38.57	40.27	40.72	40.36	40.42	36.71	34.29	31.75	29.87	26.73	25.47	22.35	20.24	18.62	17.26	15.32	14.12	12.95	11.65	11.42	12.30	12.96	10.30	7.264	5.870	5.609	4.654	4.368	4.328	4.605	3.977	3.917	4.692	10.15	39.54	125.8	297.6	1543	3968	1465	21.57	2.655	1.940	1.417	1.187	1.177	1.044	0.898	0.927	0.859	0.867
545.0	61.86	71.26	75.54	84.28	87.88	150.6	153.0	108.0	159.8	1294	6117	948.8	87.17	71.28	63.22	54.42	50.30	45.06	42.76	41.72	39.74	38.24	37.60	36.60	35.97	35.45	34.52	35.89	34.76	36.31	34.24	32.56	30.47	27.58	25.76	24.60	22.41	20.03	18.21	16.42	15.24	13.59	12.49	11.51	10.62	10.16	9.711	11.06	10.97	7.347	5.715	5.066	4.386	4.192	3.829	4.165	3.931	3.344	3.391	4.313	10.82	30.30	69.13	364.9	1997	3796	1079	14.85	2.319	1.547	1.271	1.240	1.114	0.902	0.790	0.846	0.833
550.0	55.07	65.35	74.45	72.67	73.39	105.0	155.1	102.5	101.9	376.6	3595	4031	140.1	63.86	54.64	45.65	42.27	38.45	36.27	34.61	33.12	31.67	31.16	30.59	29.86	29.49	29.29	29.59	29.52	29.90	28.55	27.79	25.22	23.81	21.68	20.19	18.72	17.14	15.35	14.12	13.27	11.75	11.01	10.10	9.356	8.819	8.303	8.343	9.389	8.037	5.814	4.694	3.825	3.629	3.406	3.358	3.645	3.407	2.954	2.885	4.339	8.703	17.43	83.57	472.0	1652	2604	1060	96.80	3.017	1.493	1.210	1.050	0.979	0.762	0.790	0.752
555.0	55.43	56.19	62.14	62.56	64.69	68.10	122.3	121.5	78.87	142.8	992.7	5339	1157	60.70	44.46	38.84	34.20	31.15	30.25	28.25	27.05	25.48	25.39	25.45	25.01	23.96	24.17	24.38	23.88	23.83	23.48	22.34	20.03	19.36	17.42	16.14	15.19	14.35	12.84	11.66	10.87	9.608	8.940	8.399	7.988	7.511	6.825	6.197	6.434	7.318	6.162	4.706	3.436	3.227	3.021	2.942	2.952	3.013	2.946	2.330	2.602	3.628	5.536	20.18	107.0	370.3	777.2	2162	1671	30.01	2.407	1.266	1.090	0.990	0.926	0.716	0.688
560.0	52.28	52.13	63.07	56.47	53.25	58.00	89.04	132.2	72.71	85.09	277.9	3247	4095	118.4	40.18	33.35	30.32	27.64	25.89	23.84	22.50	21.38	21.51	21.73	20.64	19.86	20.62	20.16	20.13	20.26	19.86	18.45	17.66	16.02	14.24	14.21	12.77	11.99	10.72	10.37	9.624	8.493	8.164	7.815	6.740	6.615	5.918	5.511	5.529	5.756	6.221	4.653	3.220	2.923	2.634	2.589	2.544	2.609	2.940	2.345	2.234	2.283	2.783	5.944	25.37	84.30	176.9	789.6	2309	1288	24.24	1.692	1.145	1.036	0.864	0.808	0.724
565.0	48.54	60.73	62.38	53.25	47.17	49.00	64.95	123.1	80.82	65.16	109.5	1175	5746	668.8	36.34	29.90	26.37	24.47	22.88	21.00	19.05	19.25	17.95	17.79	17.62	17.08	17.12	17.12	17.68	16.95	16.90	16.14	15.12	13.50	12.51	11.76	10.94	10.46	9.501	8.932	8.279	7.581	6.995	6.453	6.380	5.837	5.079	4.920	4.631	4.460	5.243	4.646	3.310	2.537	2.423	2.426	2.153	2.324	2.331	2.366	2.046	1.844	2.039	2.695	7.236	20.25	41.14	182.3	948.3	2187	858.8	17.16	1.397	1.054	0.928	0.809	0.713
570.0	54.23	58.83	60.01	49.59	42.63	42.82	47.29	89.46	100.6	59.39	67.92	323.2	3383	3460	84.85	25.68	22.35	20.29	18.55	17.65	15.99	16.02	15.06	14.50	14.80	14.09	13.52	13.97	13.88	14.11	13.70	13.04	12.21	11.51	10.41	9.863	9.054	8.455	7.677	7.305	6.798	6.290	6.041	5.389	5.184	4.965	4.441	4.019	3.819	3.375	3.794	4.211	3.446	2.637	2.108	2.092	2.001	1.996	1.933	1.913	2.197	1.850	1.635	1.840	2.909	5.831	10.65	42.15	218.3	797.9	1449	845.6	99.58	2.550	0.962	0.854	0.689
575.0	56.81	55.37	57.87	48.80	38.64	36.85	38.39	55.79	110.7	69.43	54.17	112.8	922.6	4656	837.3	24.21	18.27	16.48	15.41	14.77	13.18	12.53	12.27	11.58	11.58	11.46	10.99	11.37	11.11	11.13	11.04	10.01	9.759	9.465	8.632	8.026	7.130	6.988	6.454	5.937	5.536	5.209	4.805	4.431	4.160	4.080	3.605	3.454	3.048	2.628	2.860	3.190	3.145	2.923	2.176	1.693	1.715	1.789	1.696	1.778	1.793	1.999	1.633	1.586	1.914	2.491	3.657	10.60	50.01	179.0	382.4	1112	1157	31.37	1.920	0.932	0.803
580.0	47.88	58.86	59.56	49.00	39.45	31.64	34.69	43.70	91.16	87.45	52.04	63.47	248.7	2876	3191	64.04	17.04	14.28	12.97	12.92	11.50	11.19	10.33	10.26	10.01	9.687	9.298	9.684	9.171	9.534	9.412	8.765	8.024	7.885	7.140	6.914	6.460	5.941	5.696	5.229	4.725	4.317	4.113	3.894	3.528	3.474	3.322	2.908	2.759	2.369	2.223	2.432	2.929	2.943	2.139	1.740	1.580	1.621	1.616	1.541	1.439	1.741	1.724	1.450	1.641	1.569	1.982	3.463	12.44	41.22	87.05	357.4	1254	884.2	25.61	1.325	0.888
585.0	49.74	52.78	57.58	45.39	38.99	30.42	31.50	35.07	65.60	103.4	55.51	52.13	90.27	1027	4518	417.9	16.10	13.91	11.46	11.01	10.18	10.12	9.176	8.714	8.583	8.217	8.567	8.176	8.227	7.828	8.218	7.218	7.081	6.472	6.394	5.780	5.652	4.845	4.838	4.533	4.157	3.726	3.694	3.536	3.190	2.942	3.112	2.737	2.532	2.317	1.986	1.989	2.252	2.701	2.352	1.774	1.460	1.556	1.431	1.397	1.292	1.537	1.687	1.691	1.541	1.404	1.611	1.762	3.975	10.34	20.65	82.09	457.0	1266	264.5	17.26	1.082
590.0	52.36	57.55	58.06	46.33	38.39	30.09	29.03	32.62	47.02	95.34	70.15	49.83	54.27	272.9	2745	2355	49.15	12.46	10.41	9.611	8.521	8.632	7.855	7.723	7.260	6.952	6.796	7.035	6.922	6.773	6.758	6.303	5.854	5.527	5.550	4.864	4.626	4.142	4.124	3.760	3.510	3.174	3.045	2.929	2.733	2.605	2.466	2.341	2.245	1.997	1.638	1.697	1.634	1.989	2.204	1.977	1.529	1.385	1.341	1.320	1.126	1.327	1.375	1.554	1.606	1.277	1.462	1.398	1.816	3.179	5.545	19.34	104.4	429.7	757.5	557.1	89.80
595.0	50.93	57.19	56.18	44.67	34.62	28.84	27.81	29.56	38.78	68.24	93.92	52.21	49.88	89.60	748.8	3378	553.0	12.23	9.391	7.984	7.748	7.147	6.039	6.257	5.921	5.715	5.936	5.813	5.937	5.578	5.476	5.153	5.048	4.697	4.275	4.006	3.801	3.485	3.308	2.993	2.729	2.679	2.538	2.447	2.344	2.216	2.136	2.116	1.885	1.801	1.585	1.424	1.265	1.400	1.857	1.946	1.617	1.304	1.167	1.077	1.030	1.139	1.187	1.246	1.606	1.285	1.327	1.241	1.379	1.496	2.166	5.063	24.04	96.47	194.9	615.8	722.9
600.0	45.56	57.60	54.06	44.54	33.50	27.62	28.50	30.92	35.67	54.88	98.95	60.98	48.45	49.07	197.0	2230	1988	33.12	8.737	7.274	6.978	6.423	5.797	5.289	5.364	5.163	5.440	5.022	5.032	4.675	4.698	4.219	4.033	4.141	3.619	3.577	3.366	2.938	2.779	2.678	2.420	2.372	2.119	2.104	2.106	1.950	1.700	1.769	1.600	1.505	1.375	1.350	1.114	1.149	1.364	1.773	1.673	1.447	1.121	0.962	0.902	1.102	1.027	1.090	1.434	1.567	1.500	1.089	1.234	1.092	1.360	1.864	6.151	22.33	44.43	188.0	731.6
605.0	43.97	58.71	49.99	44.85	31.92	25.82	26.53	29.91	35.29	47.12	89.31	75.89	48.82	40.00	66.19	845.5	3052	85.99	8.472	7.369	6.492	5.549	5.232	5.063	4.902	4.854	4.730	4.403	4.290	4.467	3.999	3.963	3.688	3.383	3.240	2.993	2.706	2.605	2.508	2.412	2.075	1.971	1.849	1.809	1.775	1.717	1.628	1.604	1.361	1.262	1.155	1.261	1.023	1.065	1.095	1.367	1.599	1.552	1.157	1.013	0.924	1.079	1.060	0.999	1.244	1.469	1.733	1.090	1.209	0.996	1.092	1.216	2.145	5.721	10.75	43.19	254.8
610.0	42.35	55.17	51.59	39.62	30.21	24.93	26.59	30.73	34.92	46.07	72.70	90.79	57.23	40.19	37.64	220.9	2043	1321	29.20	6.966	6.157	4.909	4.758	4.418	4.131	3.899	3.778	4.033	3.599	3.746	3.454	3.243	3.205	3.114	2.797	2.828	2.549	2.280	2.282	2.035	1.865	1.711	1.668	1.705	1.494	1.537	1.550	1.425	1.253	1.168	1.004	1.000	0.897	0.885	0.959	1.022	1.403	1.465	1.317	0.937	1.030	1.013	1.015	0.925	1.227	1.145	1.701	1.241	1.318	1.005	1.052	1.104	1.086	1.956	3.090	10.29	58.17
615.0	44.35	54.87	49.31	41.32	30.66	25.84	25.26	29.93	35.38	43.13	61.58	89.17	71.91	43.32	32.46	63.73	582.5	2423	383.1	7.644	5.701	4.810	4.018	3.929	3.467	3.464	3.291	3.459	3.154	3.149	2.979	2.822	2.764	2.695	2.572	2.500	2.378	2.079	1.883	1.765	1.575	1.519	1.366	1.392	1.246	1.313	1.312	1.194	1.200	1.081	0.917	1.077	0.856	0.811	0.797	0.947	1.070	1.212	1.351	0.982	0.841	0.889	0.937	0.976	1.165	0.969	1.615	1.263	1.527	1.017	1.071	0.987	0.910	0.987	1.288	2.919	13.56
620.0	47.01	53.36	52.63	43.01	31.36	24.51	25.88	29.46	37.05	44.04	57.22	79.92	83.67	45.60	31.68	29.57	149.6	1776	1388	16.81	5.388	4.606	3.945	3.263	3.213	3.266	2.814	2.957	2.613	2.620	2.823	2.468	2.345	2.379	2.309	2.175	1.922	1.786	1.828	1.538	1.367	1.378	1.252	1.307	1.170	1.236	1.131	1.127	1.112	1.006	0.934	0.841	0.852	0.770	0.761	0.842	0.842	1.095	1.224	0.988	0.895	0.983	0.892	0.959	1.125	0.955	1.437	1.147	1.415	1.122	1.042	0.926	0.819	0.921	0.858	1.162	3.538
625.0	51.63	52.97	51.98	41.27	29.03	22.42	21.97	28.23	37.08	44.82	56.60	66.18	89.32	49.46	32.30	22.08	44.21	730.0	2326	66.10	5.870	4.072	3.618	3.150	2.782	3.028	2.552	2.728	2.501	2.325	2.632	2.167	2.038	2.199	2.135	1.843	1.732	1.726	1.720	1.272	1.252	1.132	1.237	1.149	1.161	1.046	1.023	1.055	1.028	0.878	0.786	0.764	0.753	0.780	0.722	0.721	0.850	0.846	1.063	0.951	0.965	0.930	0.862	1.001	1.067	0.929	1.201	0.948	1.230	1.261	1.124	0.903	0.759	0.751	0.786	0.830	1.227
630.0	46.13	54.31	52.33	37.94	27.73	24.74	22.95	28.23	35.34	43.20	53.08	60.11	81.98	61.23	34.97	20.63	19.47	188.2	1736	1046	18.67	4.161	3.412	3.025	2.816	2.365	2.382	2.554	2.382	2.130	2.245	1.995	1.815	2.045	1.807	1.681	1.676	1.563	1.442	1.309	1.191	1.074	1.057	1.005	0.980	1.004	1.034	0.882	0.930	0.781	0.734	0.707	0.680	0.668	0.657	0.688	0.744	0.831	0.900	0.887	0.892	0.909	0.810	0.861	1.037	0.828	1.130	0.941	1.098	1.041	1.126	0.987	0.752	0.728	0.692	0.645	0.709
635.0	42.93	53.74	51.91	37.20	30.39	23.76	26.28	26.51	34.70	43.39	55.42	56.55	69.68	70.57	38.87	20.66	14.03	49.10	524.6	2088	262.4	4.216	3.485	2.715	2.524	2.307	2.221	2.263	2.254	2.159	2.183	1.906	1.924	1.897	1.675	1.615	1.587	1.460	1.382	1.377	1.030	0.938	0.880	0.912	0.848	0.902	0.925	0.862	0.793	0.729	0.627	0.673	0.684	0.668	0.660	0.711	0.690	0.705	0.759	0.789	0.817	0.901	0.740	0.705	0.995	0.742	0.965	0.840	0.952	0.815	1.109	0.955	0.714	0.764	0.642	0.606	0.619
640.0	42.14	51.55	49.40	33.64	28.67	20.48	25.17	26.30	36.55	44.07	54.71	55.44	65.46	68.87	43.77	21.61	13.90	17.73	132.6	1679	1007	8.533	3.609	2.998	2.613	2.412	2.195	2.111	1.889	1.867	2.134	1.861	1.861	1.981	1.809	1.762	1.683	1.499	1.326	1.253	0.992	1.026	0.920	0.918	0.909	0.843	0.726	0.770	0.786	0.752	0.589	0.667	0.685	0.628	0.626	0.659	0.638	0.692	0.787	0.645	0.761	0.889	0.726	0.613	0.932	0.772	0.863	0.762	0.933	0.720	0.972	0.896	0.853	0.722	0.605	0.523	0.612
645.0	44.99	48.25	49.01	35.69	28.43	22.20	24.61	25.97	35.26	42.97	54.07	54.92	59.59	63.79	51.63	22.84	12.97	10.67	35.79	761.4	1863	46.36	3.536	2.954	2.538	2.236	2.190	1.936	1.974	1.868	2.128	1.858	1.769	2.096	1.933	2.038	1.689	1.688	1.321	1.125	1.126	0.934	0.885	0.907	0.716	0.836	0.778	0.710	0.801	0.672	0.616	0.624	0.695	0.613	0.639	0.677	0.673	0.657	0.716	0.658	0.678	0.730	0.681	0.615	0.822	0.760	0.864	0.774	0.867	0.722	0.849	0.863	0.822	0.753	0.585	0.582	0.598
650.0	42.47	48.39	49.84	38.07	27.34	22.83	24.35	26.29	34.10	42.16	53.62	54.72	58.81	56.43	56.03	24.89	13.03	9.374	13.58	220.4	1965	354.8	4.395	2.860	2.523	2.354	2.175	1.983	2.115	2.017	1.869	1.896	2.035	1.996	2.274	2.256	1.780	1.706	1.448	1.195	0.977	0.955	0.896	0.903	0.783	0.754	0.794	0.779	0.852	0.725	0.590	0.624	0.620	0.661	0.561	0.666	0.699	0.671	0.664	0.645	0.599	0.739	0.739	0.713	0.759	0.734	0.818	0.772	0.947	0.712	0.779	0.763	0.802	0.746	0.670	0.641	0.532
