Sample:	'1
File name:	Default_20230506_104717.FD3
Run date:	'10:40:56, 05/06/2023
Operator:	user
Comment:	'

Instrument
Model:	F-2700 FL Spectrophotometer
Serial number:	2190-003
ROM Version:	4J14000 07

Instrument parameters
Measurement type:	3-D scan
Data mode:	Fluorescence
EX  Start WL:	220.0 nm
EX  End WL:	600.0 nm
EX Sampling interval:	5.0 nm
EM  Start WL:	230.0 nm
EM  End WL:	650.0 nm
EM Sampling interval:	5.0 nm
Scan speed:	12000 nm/min
EX Slit:	5.0 nm
EM Slit:	5.0 nm
PMT Voltage:	700 V
Response:	Auto 
Corrected spectra:	Off
Contour interval:	50.000

Peak integration
Integration method:	Rectangular
Sensitivity:	1
Threshold:	1.000

Peaks
No.	ApexEX/EM(nm)	Height(Data)
1	225.0/560.0	54.20
2	225.0/585.0	64.43
3	225.0/600.0	58.68
4	230.0/275.0	71.25
5	230.0/550.0	64.03
6	230.0/570.0	55.71
7	230.0/580.0	56.39
8	230.0/610.0	55.49
9	230.0/630.0	55.98
10	240.0/560.0	52.88
11	245.0/265.0	213.8
12	245.0/525.0	131.2
13	245.0/620.0	50.81
14	245.0/630.0	48.01
15	250.0/360.0	 6307
16	250.0/540.0	135.4
17	255.0/280.0	345.2
18	255.0/550.0	110.6
19	260.0/285.0	485.4
20	260.0/560.0	108.4
21	265.0/580.0	113.8
22	265.0/640.0	72.66
23	270.0/590.0	117.9
24	275.0/305.0	 1536
25	275.0/600.0	132.7
26	275.0/645.0	72.05
27	280.0/310.0	 1568
28	280.0/615.0	121.6
29	285.0/315.0	 1380
30	285.0/630.0	89.81
31	290.0/640.0	69.11
32	305.0/340.0	667.7
33	310.0/235.0	6.787
34	310.0/345.0	630.7
35	320.0/360.0	532.1
36	325.0/250.0	4.980
37	325.0/365.0	488.2
38	335.0/380.0	436.7
39	340.0/385.0	422.4
40	345.0/390.0	373.9
41	350.0/395.0	376.3
42	355.0/405.0	367.5
43	360.0/410.0	330.2
44	365.0/415.0	315.6
45	370.0/425.0	288.8
46	415.0/485.0	77.01
47	430.0/505.0	44.81
48	435.0/510.0	36.77
49	440.0/515.0	31.40
50	450.0/530.0	22.14
51	455.0/535.0	19.26
52	500.0/365.0	24.37
53	505.0/275.0	2.692
54	510.0/280.0	3.007
55	515.0/285.0	2.988
56	535.0/295.0	5.571
57	550.0/305.0	5.702
58	560.0/310.0	6.058
59	565.0/315.0	5.496

Data points
	220.0	225.0	230.0	235.0	240.0	245.0	250.0	255.0	260.0	265.0	270.0	275.0	280.0	285.0	290.0	295.0	300.0	305.0	310.0	315.0	320.0	325.0	330.0	335.0	340.0	345.0	350.0	355.0	360.0	365.0	370.0	375.0	380.0	385.0	390.0	395.0	400.0	405.0	410.0	415.0	420.0	425.0	430.0	435.0	440.0	445.0	450.0	455.0	460.0	465.0	470.0	475.0	480.0	485.0	490.0	495.0	500.0	505.0	510.0	515.0	520.0	525.0	530.0	535.0	540.0	545.0	550.0	555.0	560.0	565.0	570.0	575.0	580.0	585.0	590.0	595.0	600.0
230.0	50.48	140.3	 1242	 1167	116.7	28.72	23.85	20.76	19.12	16.37	13.91	13.18	12.63	9.382	8.599	7.045	6.172	6.078	5.869	4.801	4.332	4.035	3.261	2.943	3.132	3.016	2.399	2.784	2.735	2.695	2.583	2.193	2.224	2.043	2.084	2.081	1.720	1.915	1.550	1.622	1.625	1.482	1.482	1.569	1.390	1.287	1.352	2.346	4.307	4.319	2.299	1.260	1.261	1.179	1.112	1.170	1.184	1.188	1.183	1.105	0.990	1.121	1.167	1.013	1.151	1.064	1.096	1.076	1.209	1.222	1.124	1.022	1.094	1.129	1.037	1.258	1.186
235.0	57.09	74.69	485.8	 1734	 1448	153.4	23.51	25.07	17.77	19.02	15.11	10.49	9.841	8.097	8.058	5.665	7.286	5.555	6.787	5.038	5.389	4.164	3.463	3.381	3.260	2.982	2.212	2.256	2.124	2.450	2.529	2.898	2.111	1.887	2.131	1.678	1.793	1.755	1.630	1.837	1.682	1.357	1.616	1.431	1.443	1.282	1.463	1.502	1.878	3.349	5.139	6.212	3.222	1.476	1.052	1.497	1.633	1.335	1.121	0.974	1.107	0.807	1.145	1.046	1.187	0.946	1.289	1.322	1.250	1.147	1.388	1.116	0.966	1.239	1.161	1.000	0.950
240.0	46.76	58.33	150.3	834.7	 2521	 1276	96.39	22.36	18.89	17.00	15.76	13.52	11.51	11.81	7.983	7.467	7.066	5.734	6.072	4.549	5.005	3.722	3.679	2.978	3.888	2.939	3.013	2.714	2.485	2.009	2.691	2.551	2.249	1.933	2.188	1.522	2.027	2.034	1.812	1.625	1.579	1.423	1.654	1.589	1.407	1.458	1.177	1.203	1.471	1.731	2.869	6.450	7.451	6.370	2.754	1.669	1.418	1.300	0.975	1.071	1.276	0.903	1.271	1.303	1.045	1.233	1.037	1.122	0.909	1.387	1.444	0.950	0.906	1.153	1.046	0.986	1.207
245.0	53.11	81.90	84.06	242.7	 1421	 2847	 1053	49.69	19.12	14.35	18.23	12.89	10.61	11.37	7.191	7.768	6.432	6.375	5.242	4.756	4.704	3.685	4.195	3.103	3.280	3.204	3.017	2.422	2.646	2.053	2.867	2.400	2.376	1.804	1.988	1.742	1.948	1.870	1.862	1.772	1.726	1.546	1.380	1.649	1.347	1.710	1.192	1.566	1.122	1.081	1.422	3.070	4.999	9.921	8.850	5.633	2.210	1.330	1.052	1.184	1.092	1.107	1.127	1.233	1.261	1.031	1.153	1.127	0.946	1.316	1.337	1.107	1.346	1.128	1.151	0.927	1.130
250.0	46.36	70.16	85.82	125.4	371.8	 1482	 2909	 2282	385.1	22.48	19.07	13.67	13.68	10.54	9.419	8.181	6.871	5.249	4.705	5.191	3.749	4.980	3.820	3.245	3.128	2.990	3.041	2.525	2.664	2.752	2.338	2.265	2.199	1.999	1.863	1.842	1.803	1.968	1.528	1.705	1.496	1.604	1.521	1.779	1.568	1.579	1.358	1.472	1.192	1.237	1.375	1.712	2.285	3.858	5.741	9.324	11.06	9.116	5.819	2.112	1.112	1.185	1.308	1.278	1.136	1.076	1.058	1.012	1.137	1.189	1.169	1.239	1.256	1.271	1.313	1.000	1.360
255.0	57.43	56.90	54.44	132.4	188.7	367.9	 1025	 4197	 4670	446.9	20.69	14.37	13.84	10.01	8.258	7.027	6.316	6.185	5.116	4.669	3.229	4.183	4.226	4.296	3.412	2.519	3.189	2.898	2.885	2.923	2.313	2.778	2.713	2.275	2.009	1.870	1.680	1.780	1.639	1.608	1.561	1.699	1.616	1.725	1.850	1.511	1.585	1.295	1.366	1.178	1.635	1.549	1.672	1.736	2.185	3.244	4.600	9.688	17.12	15.87	7.541	1.942	1.107	1.361	1.172	0.998	1.153	1.024	1.110	1.199	1.159	1.163	1.060	1.123	1.157	0.861	0.849
260.0	50.03	60.93	32.54	85.23	200.0	166.3	267.4	 1811	 6824	 4110	274.9	15.97	15.39	12.80	9.708	9.733	7.217	6.482	5.015	4.433	3.242	3.802	4.656	3.668	3.066	2.637	2.554	2.819	2.812	2.044	2.316	2.457	2.471	2.385	1.774	1.959	2.174	1.712	1.739	1.597	1.914	1.822	1.720	1.518	1.630	1.122	1.401	1.146	1.295	1.081	1.055	1.685	2.000	1.429	1.457	1.610	2.334	3.478	8.267	15.41	21.25	14.80	5.322	1.252	1.338	1.267	0.985	1.054	1.018	1.165	1.047	0.985	1.198	1.170	1.017	0.924	1.080
265.0	46.39	49.85	47.19	48.51	129.3	213.8	119.6	464.7	 3258	 8466	 1197	89.21	17.79	16.17	11.00	7.945	7.958	6.440	5.681	4.276	4.107	3.975	3.798	3.648	3.304	2.819	3.413	2.297	3.216	2.616	2.545	2.481	2.080	2.571	2.190	1.842	1.601	1.538	1.710	1.704	1.329	1.569	1.763	1.526	1.560	1.421	1.479	1.493	1.314	1.113	1.159	1.718	1.917	2.128	1.743	1.557	1.520	1.661	2.745	5.277	12.59	22.96	25.07	13.11	2.402	1.269	1.280	0.857	1.242	1.090	1.224	1.169	1.381	1.099	1.114	0.980	1.047
270.0	57.28	58.62	51.67	41.53	65.87	173.4	229.5	187.2	806.0	 3639	 7417	 4174	362.7	16.65	13.28	9.456	8.444	7.245	6.343	5.170	5.141	4.717	4.089	3.308	3.296	2.689	3.080	2.993	3.009	3.021	2.487	2.133	2.279	2.360	2.285	1.985	1.730	1.897	1.575	1.517	1.844	1.583	1.747	1.434	1.428	1.207	1.418	1.468	1.290	1.097	1.089	1.343	1.355	1.494	1.832	2.376	1.862	1.718	1.614	2.262	3.787	7.695	14.44	20.50	24.20	20.07	9.420	2.115	1.349	1.223	1.291	1.248	1.375	1.039	1.290	1.228	1.149
275.0	48.31	69.94	71.25	50.86	48.59	73.41	187.7	329.5	256.8	854.8	 2204	 7268	 6425	440.3	18.66	10.97	11.61	6.532	6.934	6.635	4.749	4.690	4.167	3.774	3.272	2.635	3.388	3.206	2.903	2.755	2.722	2.731	2.359	2.039	2.417	1.462	1.907	1.738	2.011	1.263	1.639	1.588	1.671	1.334	1.981	1.323	1.193	1.255	1.302	1.023	1.041	1.314	1.245	1.196	1.168	1.572	2.071	2.692	2.414	1.654	1.917	2.882	4.236	5.723	9.225	20.70	35.95	30.11	9.046	1.895	1.122	1.101	1.412	0.882	1.180	1.288	1.122
280.0	71.92	54.95	64.38	62.64	46.28	48.19	85.14	345.2	327.9	259.8	561.2	 2606	9999.9	 5091	274.8	14.52	11.24	9.039	8.418	6.202	5.409	4.502	4.356	4.090	3.556	2.863	3.328	3.494	3.111	3.192	3.212	2.998	2.150	2.168	2.346	1.465	1.564	1.683	1.491	1.517	1.467	1.612	1.419	1.685	1.676	1.164	1.429	1.327	1.169	1.098	0.925	1.375	1.145	1.397	1.137	1.664	1.586	2.184	3.007	2.633	2.017	1.775	1.949	2.394	2.822	6.488	15.93	33.87	39.38	21.65	5.085	1.338	1.394	0.963	0.965	1.785	1.225
285.0	68.09	73.26	73.01	80.86	53.82	48.64	57.96	178.0	485.4	278.6	219.0	702.0	 4158	9999.9	 4196	89.84	16.28	9.205	8.404	7.910	5.947	5.072	4.945	4.227	3.733	3.129	3.094	3.396	3.289	2.606	2.879	2.966	2.403	2.104	2.386	1.731	1.832	2.008	1.515	1.456	1.380	1.441	1.793	1.570	1.685	1.514	1.176	1.558	1.299	1.079	1.190	1.275	1.393	1.520	1.227	1.678	1.252	1.788	2.219	2.988	2.838	2.409	1.770	1.577	1.513	2.584	4.611	10.98	25.33	42.76	36.22	13.00	2.384	1.063	1.006	1.382	1.429
290.0	67.76	84.89	101.8	88.04	72.60	65.10	79.48	133.2	317.2	564.3	440.1	380.4	 1146	 4049	9999.9	 5074	238.1	14.12	10.21	7.499	7.462	5.520	5.150	4.154	3.814	4.373	3.016	2.871	3.368	2.765	2.965	2.520	2.512	2.386	2.315	1.981	1.884	1.928	1.495	1.628	1.709	1.388	1.728	1.390	1.845	1.323	1.418	1.304	1.533	1.338	1.318	1.588	1.404	1.520	1.284	1.550	1.516	1.653	1.849	1.879	2.657	3.127	3.193	2.910	1.866	2.188	2.453	3.816	7.213	13.90	22.52	30.20	31.92	21.42	9.540	2.225	1.389
295.0	67.18	102.7	135.4	128.7	121.5	127.6	169.0	235.9	359.9	582.0	991.0	721.7	679.8	 1211	 2852	 8469	 8531	299.1	13.10	9.054	8.174	5.917	5.565	4.235	4.322	4.395	3.318	3.906	3.767	2.733	3.000	2.892	2.379	2.160	2.353	1.784	2.129	1.831	1.685	1.473	1.954	1.843	2.015	1.274	1.426	1.681	1.380	1.651	1.498	1.200	1.437	1.686	1.554	1.438	1.589	1.934	2.044	1.968	2.302	1.899	2.238	2.833	3.291	5.571	4.225	3.229	2.664	3.007	3.728	4.977	6.673	8.707	13.08	29.20	44.98	29.49	9.719
300.0	86.96	124.0	164.7	157.2	155.1	212.5	285.6	387.1	538.1	726.0	 1103	 1298	834.2	736.5	907.4	 2991	9999.9	 3315	191.4	11.02	8.571	6.088	5.604	4.823	4.109	4.092	3.639	3.871	3.526	3.542	3.552	2.634	2.445	1.988	2.013	2.541	2.397	2.045	1.964	1.562	2.133	1.964	1.939	1.585	1.655	1.543	1.457	1.650	1.470	1.393	1.547	1.484	1.548	1.833	1.491	2.201	2.571	2.870	2.586	2.635	3.160	3.079	3.221	4.755	5.071	5.131	4.125	4.071	3.230	3.145	3.699	3.381	4.756	9.022	21.79	39.32	46.46
305.0	91.74	127.9	183.6	174.0	198.2	265.9	386.2	537.8	728.8	917.2	 1141	 1536	 1291	776.4	572.7	864.1	 4322	9999.9	 2634	79.67	10.20	8.445	5.596	5.149	4.855	3.775	4.357	3.338	3.157	3.388	3.526	3.192	3.072	2.553	2.249	2.062	1.722	1.923	1.762	1.887	1.838	1.847	1.782	1.516	1.712	1.903	1.534	2.050	1.656	1.747	1.626	1.691	1.861	2.110	1.850	2.434	3.058	2.965	3.110	3.661	3.956	4.093	3.969	4.388	5.176	5.194	5.702	5.254	4.120	3.675	3.088	2.758	2.901	3.641	6.262	13.48	32.62
310.0	81.73	130.6	187.3	209.8	228.9	313.3	461.9	646.5	850.2	 1083	 1222	 1387	 1568	 1180	608.2	425.7	 1097	 4136	 8603	 5128	165.0	12.27	7.145	6.142	5.303	4.457	4.497	3.219	3.292	3.233	2.999	2.448	2.706	2.607	2.493	2.011	1.907	2.135	1.634	1.795	1.965	1.843	1.604	1.446	1.763	1.692	1.566	1.595	1.740	1.608	1.489	1.849	2.201	2.255	2.222	2.881	2.845	3.090	4.017	4.132	4.227	4.854	4.853	4.885	5.003	5.341	5.395	5.987	6.058	4.686	3.756	3.088	2.838	2.227	3.073	4.294	8.915
315.0	73.42	121.4	200.7	238.2	280.0	382.3	546.6	744.9	952.8	 1178	 1277	 1323	 1342	 1380	932.5	377.9	374.3	992.5	 2457	 8044	 6800	222.1	9.922	8.479	5.240	5.289	4.557	4.093	4.280	2.945	3.583	2.380	2.729	2.227	2.367	1.854	2.142	1.746	1.292	1.780	1.779	1.655	1.751	2.186	1.719	1.770	1.385	1.621	1.503	1.543	1.508	1.859	2.111	2.444	2.503	3.008	3.140	3.214	4.117	4.556	4.756	4.598	5.426	5.015	5.214	4.979	4.901	5.191	4.775	5.496	5.163	3.924	3.329	2.213	2.353	2.369	3.096
320.0	73.32	138.8	219.3	293.0	368.1	461.0	627.5	812.2	 1005	 1192	 1294	 1308	 1230	 1166	 1140	518.4	243.2	313.6	614.6	 2901	 9665	 2336	142.9	8.764	6.497	6.159	4.294	4.263	4.481	2.933	3.893	3.406	3.301	2.533	2.082	2.427	2.019	1.920	1.506	1.659	2.159	1.823	1.752	2.067	1.524	1.650	1.743	1.890	1.407	1.578	1.752	2.203	2.454	2.793	2.728	3.625	3.652	3.469	4.303	4.430	5.586	5.358	4.865	5.154	5.243	5.023	4.746	4.634	4.461	4.624	4.639	4.486	4.253	2.595	2.312	1.930	1.719
325.0	101.0	173.0	292.7	443.3	540.1	686.0	823.1	984.8	 1095	 1263	 1277	 1257	 1148	 1017	 1024	776.9	281.6	186.1	216.0	720.3	 4183	 8520	 1907	69.25	8.324	6.650	4.838	5.019	3.643	3.560	3.635	2.827	3.455	2.805	2.256	2.469	1.635	1.890	1.521	2.098	1.936	1.649	1.871	1.799	1.784	1.751	1.906	1.952	1.882	2.312	2.227	3.048	2.932	3.342	3.201	4.127	4.438	4.172	4.631	4.815	5.603	5.574	5.196	5.278	4.867	4.609	4.412	4.451	4.078	4.303	3.674	4.273	4.593	3.323	3.265	1.923	1.548
330.0	158.7	286.6	535.8	790.5	 1046	 1349	 1530	 1533	 1488	 1519	 1350	 1196	 1115	946.8	797.9	763.2	571.0	269.6	170.3	247.0	 1023	 3580	 6436	 4033	128.9	10.81	6.607	5.102	4.165	3.869	3.433	2.937	2.745	2.957	2.477	2.218	1.927	2.083	1.756	1.913	1.783	1.918	1.703	1.916	1.672	1.977	2.062	2.206	2.949	2.958	3.232	4.290	5.102	5.440	5.901	6.803	6.395	6.649	6.514	6.535	6.508	5.925	5.800	5.428	4.940	4.268	4.680	3.917	4.124	4.035	3.366	3.642	3.451	3.241	3.902	3.350	2.641
335.0	241.6	441.1	820.7	 1350	 1891	 2308	 2604	 2460	 2218	 1994	 1551	 1176	 1059	936.6	759.1	620.4	642.5	492.1	256.0	184.3	315.1	852.7	 1933	 6866	 5335	179.9	8.499	6.175	5.097	4.127	4.338	3.215	2.808	2.633	2.764	1.896	2.106	2.100	1.782	1.568	2.066	2.435	1.785	1.894	2.583	2.094	2.517	3.209	3.483	3.625	4.744	6.607	7.592	8.700	9.291	9.967	10.17	10.59	9.543	9.195	8.134	7.277	6.432	5.658	5.435	4.200	4.733	4.480	4.004	3.800	3.530	3.404	3.311	2.842	3.121	3.169	3.711
340.0	243.4	567.5	 1145	 1868	 2651	 3265	 3558	 3373	 2774	 2395	 1684	 1150	 1026	916.3	771.9	600.4	547.7	667.7	423.0	213.0	182.8	266.7	484.3	 2604	 7846	 1845	121.0	7.569	6.018	4.882	4.143	3.794	3.451	2.891	3.587	1.964	2.647	1.714	2.179	1.640	1.874	2.420	2.258	2.129	2.334	2.602	2.991	4.011	4.580	4.887	6.305	9.017	9.621	11.62	12.43	13.30	13.33	13.96	12.03	11.12	9.923	9.424	7.782	6.803	5.476	4.614	4.808	4.313	4.214	3.551	3.781	3.724	3.277	2.574	2.787	2.586	3.537
345.0	301.9	670.7	 1398	 2293	 3268	 4169	 4435	 4057	 3338	 2735	 1852	 1154	 1007	935.5	792.4	641.4	521.3	587.5	630.7	323.4	184.6	152.6	169.6	648.4	 3643	 7620	 1563	60.03	6.853	6.366	4.791	4.309	3.858	3.095	3.082	2.267	2.536	1.731	2.361	2.073	2.187	1.921	2.496	2.004	2.726	3.035	3.188	4.504	5.363	6.222	7.771	10.95	12.49	14.77	15.00	14.87	17.01	16.13	14.04	12.29	12.34	11.68	9.242	7.672	5.404	4.419	4.531	4.050	3.977	3.614	3.810	3.562	3.310	2.960	2.804	2.839	2.949
350.0	345.5	807.8	 1620	 2689	 3922	 5064	 5408	 4830	 3913	 3159	 2007	 1186	968.5	894.3	814.9	683.2	575.1	539.6	587.8	538.5	287.0	170.6	129.7	212.2	901.0	 3430	 5643	 3350	111.6	8.178	5.521	4.348	4.032	3.778	3.023	2.555	2.362	1.910	1.880	1.991	2.092	2.026	2.339	2.253	2.500	3.417	3.731	4.856	6.277	7.046	8.850	13.24	14.92	17.42	18.03	19.25	19.32	18.76	16.72	14.44	13.81	12.02	10.08	7.743	5.676	4.651	4.359	3.878	4.065	3.783	3.486	3.544	3.260	3.274	3.093	2.842	2.878
355.0	407.9	896.8	 1765	 2944	 4344	 5515	 6032	 5341	 4272	 3409	 2098	 1179	934.3	872.1	828.3	721.7	620.2	568.4	517.5	533.2	512.5	250.4	158.2	145.3	265.5	815.4	 1831	 6027	 4391	146.6	7.676	5.152	4.127	3.545	4.311	2.790	2.387	2.218	2.381	2.400	2.109	2.445	2.149	2.323	2.805	3.710	4.180	5.179	6.332	7.799	9.723	15.13	16.51	20.14	20.25	22.08	21.75	19.60	18.87	15.34	14.73	12.88	10.10	7.746	5.782	4.766	4.192	3.564	3.415	3.594	3.311	3.338	3.450	3.166	3.670	3.248	3.283
360.0	410.1	916.5	 1919	 3112	 4711	 5843	 6307	 5538	 4503	 3548	 2153	 1153	899.0	865.8	801.9	734.9	662.8	605.4	534.1	469.1	532.1	350.9	205.1	151.5	149.3	242.9	459.0	 2505	 6872	 1607	92.95	6.351	4.632	3.875	3.571	2.561	3.058	2.607	2.474	2.119	2.034	2.425	2.208	2.360	2.865	3.296	4.368	5.245	6.901	7.758	10.69	15.10	17.24	20.49	21.11	21.36	23.06	20.06	19.57	16.21	14.21	12.12	10.27	8.255	5.525	4.410	3.701	3.706	3.170	3.833	3.118	3.253	3.768	3.181	3.162	3.282	3.245
365.0	401.1	928.7	 1881	 3161	 4687	 5924	 6269	 5580	 4558	 3501	 2141	 1141	866.5	853.7	803.8	729.8	678.4	627.1	552.9	459.9	455.5	488.2	296.8	185.8	143.6	129.5	159.8	628.4	 3405	 6816	 1324	36.35	5.602	4.339	4.198	3.095	2.616	2.343	2.207	2.475	2.123	2.023	2.086	2.476	2.598	3.285	4.331	5.580	6.774	8.255	10.80	14.72	17.34	21.12	19.91	22.38	24.37	20.79	19.54	15.96	13.99	12.20	10.53	8.287	5.375	4.489	3.662	3.548	3.297	3.766	3.303	3.378	3.739	3.064	3.067	3.104	3.402
370.0	391.4	882.6	 1794	 3044	 4529	 5666	 6039	 5430	 4344	 3352	 2044	 1101	839.7	830.0	788.5	733.7	697.3	648.4	584.7	488.8	428.9	435.0	433.1	266.7	176.3	134.2	113.4	196.5	846.7	 3325	 5295	 2396	85.18	6.544	4.521	3.458	3.119	2.478	2.173	2.237	2.339	1.919	2.409	2.599	2.703	3.217	4.072	5.823	7.089	8.059	10.07	14.30	16.91	19.44	20.21	21.98	22.36	20.45	18.83	16.17	13.80	12.32	9.975	8.089	5.882	4.331	4.146	3.990	3.453	3.432	3.887	3.670	3.495	3.539	3.069	3.315	3.561
375.0	362.5	903.1	 1668	 2909	 4170	 5304	 5607	 5059	 4047	 3133	 1920	 1044	811.2	798.6	769.8	726.2	686.9	665.1	601.1	509.4	440.2	395.6	409.5	419.4	250.8	164.2	128.3	121.7	245.1	781.8	 1868	 5523	 3346	106.6	5.508	3.948	3.720	2.966	2.603	2.476	2.479	2.229	2.243	2.619	2.733	3.943	4.234	5.272	6.290	7.739	9.019	13.33	15.70	17.91	18.31	20.17	20.19	18.28	17.75	15.71	13.49	11.88	10.08	6.633	5.893	4.384	3.697	3.554	3.464	3.411	3.162	3.456	3.168	3.255	3.602	3.184	3.202
380.0	343.6	778.0	 1521	 2658	 3803	 4886	 5117	 4633	 3720	 2889	 1817	961.8	785.6	781.1	753.5	721.6	687.4	657.7	605.0	526.2	458.2	399.3	374.5	436.7	365.3	209.1	152.3	120.7	126.4	223.1	465.1	 2523	 5895	 1252	62.81	5.300	4.045	3.132	2.810	2.441	2.771	2.438	2.317	2.663	2.801	3.621	4.401	5.077	6.051	6.876	8.944	12.37	14.94	16.82	17.84	18.77	18.57	16.88	16.02	13.06	11.88	10.98	8.777	6.877	5.129	4.304	3.406	3.287	3.540	3.326	3.276	3.178	3.254	3.249	3.515	3.715	3.462
385.0	327.9	713.8	 1512	 2420	 3493	 4481	 4726	 4170	 3363	 2656	 1670	947.7	759.0	729.6	731.3	700.9	661.1	649.2	608.9	539.2	466.0	411.3	369.4	379.3	422.4	270.1	182.5	140.9	118.7	113.9	149.2	640.7	 3303	 5398	990.6	19.54	3.913	3.663	3.116	2.350	2.161	2.647	2.483	2.615	2.534	3.397	4.028	5.000	5.620	6.282	8.173	11.51	13.55	15.95	15.72	16.94	16.67	16.39	14.37	12.20	10.83	9.996	8.024	6.554	4.721	4.581	3.627	3.360	3.402	3.098	3.278	3.008	3.358	3.288	3.523	3.369	3.546
390.0	275.8	613.6	 1286	 2053	 3036	 3788	 4026	 3601	 2907	 2318	 1489	878.8	710.1	689.6	693.2	667.1	645.3	632.2	598.8	537.5	481.1	433.8	383.3	358.9	370.8	373.9	271.2	175.5	142.7	110.2	96.42	187.9	833.9	 2870	 4663	 1816	59.10	4.856	3.505	2.790	2.741	2.491	2.272	2.449	2.436	2.970	3.560	4.335	5.095	5.673	6.804	10.04	11.95	13.73	13.36	15.29	14.70	14.30	11.96	11.44	9.219	9.074	7.263	5.873	4.486	3.774	3.467	3.059	3.194	3.165	3.211	3.555	3.382	3.116	3.066	3.369	3.322
395.0	278.9	530.6	 1043	 1780	 2577	 3150	 3410	 3048	 2471	 1990	 1298	816.2	675.5	652.2	657.2	623.4	615.4	603.9	581.5	531.4	484.2	437.6	401.8	369.6	345.3	350.5	376.3	244.1	172.5	132.0	105.7	103.6	227.5	673.3	 1855	 4745	 1104	71.90	4.151	2.989	2.835	2.578	2.062	2.210	2.261	2.558	2.957	4.091	4.659	4.780	6.273	8.274	9.663	11.27	12.06	13.19	12.39	11.43	11.07	10.61	7.813	7.962	6.229	5.230	4.015	3.548	3.186	2.943	3.264	3.570	3.101	2.956	3.056	2.755	2.934	2.923	3.397
400.0	235.5	444.6	910.0	 1518	 2176	 2747	 2954	 2581	 2144	 1753	 1168	755.6	642.2	629.4	627.3	609.3	594.5	592.1	557.3	524.5	480.9	445.9	408.3	375.6	346.0	329.7	374.4	329.6	206.5	152.4	121.4	97.19	104.0	186.6	455.7	 2403	 4174	943.9	34.39	3.474	3.055	2.452	2.213	2.084	2.289	2.267	2.643	3.483	3.912	4.311	5.681	7.379	8.804	10.28	10.53	11.06	11.05	9.731	9.215	8.268	7.611	7.189	6.281	4.824	3.916	3.604	3.247	2.957	3.055	2.993	2.831	2.822	2.945	3.276	3.547	3.220	3.426
405.0	216.4	408.7	749.0	 1373	 1914	 2332	 2542	 2242	 1899	 1558	 1061	699.6	629.0	598.3	603.0	575.2	579.0	552.8	535.5	509.1	484.4	438.8	413.0	385.4	353.5	326.2	327.8	367.5	255.3	178.5	133.6	107.7	85.87	86.79	131.9	615.6	 2666	 3788	699.1	11.88	3.466	2.655	2.593	2.433	2.179	2.194	2.746	3.099	3.853	4.315	5.163	6.174	8.627	8.860	9.043	9.718	10.21	8.839	8.743	7.305	6.358	6.111	5.711	4.688	3.617	3.031	2.959	2.768	3.063	3.061	2.677	2.941	3.314	2.641	3.344	2.887	2.883
410.0	187.8	346.9	656.6	 1132	 1604	 1934	 2087	 1899	 1621	 1326	937.1	665.5	588.6	568.7	569.8	544.9	540.9	526.8	508.8	494.8	465.6	432.9	409.5	391.8	364.3	336.1	311.8	324.7	330.2	246.3	167.5	124.1	92.64	74.65	69.03	164.3	685.5	 2178	 3062	 1176	47.71	3.814	3.072	2.800	2.704	2.481	2.686	3.156	3.507	3.916	4.433	5.453	7.484	7.793	7.633	8.201	8.354	7.777	7.385	6.240	5.742	5.381	5.014	4.188	2.948	3.216	2.882	2.859	2.835	3.004	2.881	2.522	2.868	2.629	2.988	2.977	2.748
415.0	145.1	278.9	545.7	873.5	 1272	 1595	 1685	 1525	 1330	 1154	838.6	607.7	564.9	534.9	544.3	518.0	502.0	490.0	488.1	466.8	445.1	423.5	411.1	388.8	366.1	349.0	323.5	294.7	302.1	315.6	220.7	146.7	107.6	83.07	64.17	71.05	176.6	506.1	 1315	 3134	947.7	56.59	3.409	2.560	2.456	2.503	2.717	2.818	2.975	3.132	3.642	4.829	5.846	6.116	6.272	6.861	6.879	7.230	6.076	5.507	5.382	4.621	4.598	3.626	3.328	2.983	3.032	3.014	3.060	3.102	2.670	2.508	2.872	2.776	2.836	2.958	2.820
420.0	162.1	257.7	488.8	732.7	 1108	 1356	 1418	 1319	 1173	 1005	772.3	596.1	540.4	536.0	519.2	500.5	479.9	482.5	462.5	449.4	427.6	409.5	395.9	383.9	366.0	343.0	318.5	286.7	277.3	307.5	274.2	173.1	122.6	94.12	68.23	55.50	67.93	133.1	323.7	 1645	 3080	782.6	20.77	3.289	2.778	2.787	3.115	2.775	2.553	2.576	2.921	4.107	5.135	5.322	5.460	5.289	6.368	5.959	4.793	4.867	4.886	4.678	3.948	2.985	3.056	2.614	2.812	2.608	2.788	2.653	2.681	2.644	2.512	2.686	2.680	2.935	2.818
425.0	127.7	238.0	404.9	670.1	934.4	 1172	 1219	 1152	 1042	916.5	724.7	565.1	530.5	517.8	489.2	467.1	452.9	447.3	435.6	423.0	417.9	402.0	384.7	370.1	361.7	343.2	317.9	294.5	278.2	276.5	288.8	215.1	138.5	101.6	80.52	56.85	47.89	51.93	89.68	427.7	 2010	 2784	126.9	7.316	3.109	2.737	3.179	2.589	2.589	2.749	2.498	4.153	4.435	4.916	5.228	5.360	5.537	5.396	4.893	4.725	4.699	4.340	4.003	2.972	3.190	2.545	2.565	2.645	2.610	3.073	2.552	2.238	2.526	2.536	2.723	2.794	3.031
430.0	132.3	235.7	373.2	572.9	799.7	973.7	 1042	975.0	883.6	826.5	663.7	541.7	517.1	487.5	469.5	457.5	432.9	415.6	414.7	401.5	396.8	383.6	371.1	359.2	353.4	334.9	325.0	302.8	282.6	260.9	260.1	251.4	183.4	118.4	92.63	66.34	50.73	41.12	41.90	111.3	518.0	 1627	 2143	512.1	39.08	3.150	3.041	2.526	2.596	2.665	2.661	3.900	3.988	4.570	4.567	4.804	4.951	4.667	4.354	4.110	4.365	3.776	3.657	2.937	2.898	2.701	2.793	2.611	2.591	2.576	2.767	2.390	2.617	2.244	2.800	2.436	2.791
435.0	179.4	220.8	310.4	496.3	682.2	837.4	854.1	825.3	778.1	728.2	614.2	549.1	503.9	462.1	449.9	431.3	415.4	411.7	392.3	378.8	373.2	361.9	359.3	345.5	345.1	328.7	319.2	304.6	284.3	262.5	241.6	231.4	228.7	156.5	107.0	79.27	61.49	46.24	37.58	46.89	131.8	378.3	 1009	 2415	815.1	48.16	3.419	2.928	2.462	2.261	2.529	3.896	3.204	4.088	3.912	3.786	4.410	4.214	4.455	3.666	3.829	3.613	3.211	3.230	2.665	2.793	2.592	2.595	3.343	2.551	2.445	2.826	2.410	2.309	2.470	2.424	2.808
440.0	186.3	209.8	268.8	421.5	590.6	707.5	764.3	737.2	728.0	674.4	603.8	509.9	482.8	466.4	436.3	409.4	379.4	382.9	377.8	363.6	358.1	343.7	346.0	340.4	331.6	326.0	317.6	305.6	286.3	266.0	242.2	215.7	223.8	192.0	120.1	86.43	68.58	51.89	41.39	33.59	47.13	98.40	252.0	 1378	 2510	663.2	18.87	3.259	2.849	2.498	2.346	3.054	3.208	3.368	3.867	3.477	4.349	3.920	3.769	3.587	3.660	3.316	3.397	2.996	2.705	2.229	2.709	2.823	3.051	2.679	2.318	2.718	2.531	2.585	2.246	2.942	2.343
445.0	167.9	277.0	254.1	397.1	541.2	641.3	698.9	687.6	663.0	624.5	572.4	491.1	483.5	441.3	430.5	396.6	364.0	364.1	356.3	351.5	348.7	333.4	339.8	327.4	330.6	314.2	309.1	298.3	285.0	265.9	240.3	210.4	202.7	203.9	148.3	94.66	74.38	58.96	43.86	35.65	32.27	38.00	68.98	362.7	 1745	 2477	105.1	6.167	2.879	2.835	2.459	2.924	3.015	3.421	3.804	3.178	3.505	3.547	3.492	3.402	3.332	3.069	3.337	3.117	2.522	2.198	2.973	2.575	2.898	2.482	2.387	2.327	2.326	2.266	2.290	2.712	2.086
450.0	128.8	396.7	371.6	331.8	450.9	571.2	612.9	619.3	599.4	561.8	543.4	479.0	460.7	417.0	403.9	371.7	350.9	338.1	334.5	326.2	324.4	318.9	311.1	310.2	303.6	300.3	299.0	288.4	274.9	260.8	235.3	213.0	191.2	182.9	173.5	123.6	84.73	67.48	52.44	40.99	32.51	28.79	30.38	92.70	459.6	 1542	 2264	435.0	31.27	3.137	2.593	2.911	3.223	2.880	3.091	3.145	3.401	3.292	3.360	3.011	2.958	2.991	3.317	2.648	2.745	2.611	2.629	2.374	2.636	2.511	2.546	2.153	2.139	2.463	2.206	2.375	2.168
455.0	103.0	324.7	697.2	348.4	393.7	462.3	507.2	517.4	538.6	513.8	491.4	463.1	430.1	408.3	380.1	351.5	323.6	311.0	307.5	296.0	292.7	294.0	288.5	288.4	286.3	282.3	276.8	271.1	265.8	243.8	229.7	207.2	186.2	163.7	152.2	150.3	105.4	73.09	57.48	46.20	38.55	29.76	23.90	33.93	112.6	357.1	 1092	 2167	649.7	30.14	3.205	3.204	2.999	2.639	3.019	2.920	3.482	2.763	3.080	3.098	3.176	2.791	2.596	2.561	2.896	2.879	2.543	2.421	2.145	2.349	2.497	2.158	2.089	2.208	2.130	2.095	2.215
460.0	81.36	192.6	845.3	502.2	345.0	406.3	473.2	461.8	485.5	492.7	478.3	426.3	414.7	375.7	350.4	322.5	302.4	292.0	292.8	285.3	273.1	274.3	271.6	270.0	264.8	266.1	260.2	255.8	249.1	237.9	226.9	197.9	177.8	156.1	139.3	144.4	125.2	83.38	60.38	49.41	39.38	33.36	25.48	22.56	35.88	89.62	269.6	 1269	 2162	447.6	12.09	3.208	3.166	2.709	2.866	2.714	2.975	3.036	3.286	3.013	2.565	2.849	2.584	2.272	2.738	2.577	2.506	2.280	2.152	2.188	2.231	2.109	2.491	2.325	2.124	2.063	2.209
465.0	88.22	131.9	689.6	895.4	329.3	372.8	429.5	422.2	447.1	465.4	438.3	424.2	407.7	356.9	330.7	304.3	277.5	271.9	265.1	262.5	255.0	248.5	252.6	246.3	249.5	245.7	249.2	241.7	233.7	226.7	218.7	193.4	168.7	147.2	130.5	127.5	126.9	97.49	63.56	52.94	43.05	36.41	26.97	21.36	20.84	30.55	69.00	335.3	 1566	 1760	82.56	5.150	3.062	2.590	3.076	2.880	2.793	2.639	2.863	2.922	2.655	2.502	2.806	2.098	2.645	2.394	2.365	2.074	2.292	2.372	2.128	2.032	2.351	2.261	2.316	2.281	2.208
470.0	84.10	115.9	334.4	 1115	658.5	320.3	359.8	385.8	398.1	415.5	396.6	378.7	370.8	331.9	301.2	273.2	259.2	240.7	236.1	232.2	228.0	224.3	225.4	219.1	222.6	220.5	224.0	218.8	214.8	208.1	197.6	181.3	162.7	139.8	124.1	109.3	108.9	104.6	76.64	55.35	44.00	36.74	28.60	23.00	19.18	17.62	24.69	82.22	409.1	 1151	 1337	384.1	24.99	3.016	2.735	2.707	3.133	2.523	2.620	2.695	2.435	2.481	2.554	2.132	2.228	2.445	2.370	2.492	2.200	2.113	2.271	2.075	2.154	2.315	1.927	2.163	2.295
475.0	84.13	109.6	178.6	661.9	 1354	356.6	315.4	330.3	359.7	369.8	369.2	347.2	331.9	299.1	278.2	253.6	233.3	219.5	214.8	211.4	201.1	193.9	204.5	198.3	196.6	205.1	202.3	196.2	195.7	185.2	179.7	167.6	148.3	131.1	117.6	100.5	91.26	90.45	89.64	62.65	44.33	37.88	29.74	23.43	18.86	17.34	15.46	26.31	97.64	265.0	641.9	 1398	535.0	24.72	2.496	2.644	2.777	2.264	2.779	2.109	2.427	2.498	2.587	2.771	2.272	2.209	2.316	2.187	2.053	1.801	2.273	2.049	1.870	1.774	1.996	2.233	2.022
480.0	76.37	97.60	142.3	351.9	 1497	686.1	287.2	296.9	329.3	340.1	335.8	340.2	303.9	284.2	252.8	238.1	218.4	206.3	191.8	197.4	186.0	180.5	187.2	183.3	181.3	185.2	184.4	178.4	181.4	178.9	171.7	159.0	137.0	125.1	109.7	96.22	86.42	80.33	85.50	74.49	48.98	38.48	30.17	23.29	21.02	16.82	15.20	13.62	28.86	65.23	159.9	803.2	 1409	396.0	8.063	2.892	2.374	2.220	2.235	1.945	2.069	2.274	2.394	2.427	2.140	2.068	2.118	2.122	2.021	1.830	2.008	1.909	2.029	1.773	2.007	2.111	1.947
485.0	71.88	89.58	140.3	217.0	 1138	 1185	277.1	278.9	301.1	316.0	308.7	309.3	290.3	269.1	250.0	227.0	207.7	188.2	177.1	181.0	179.0	173.3	171.7	171.6	171.0	171.6	172.9	163.2	169.6	167.4	157.9	152.2	133.6	119.5	105.8	92.66	82.95	73.24	71.94	77.01	55.59	38.96	30.14	24.56	21.68	18.62	14.76	12.37	13.71	20.67	40.76	212.3	997.6	 1250	86.37	4.616	2.947	2.581	2.342	2.009	2.046	2.510	2.222	2.109	2.058	2.082	2.107	1.826	2.080	1.841	2.043	2.208	1.905	1.805	1.740	1.884	1.863
490.0	68.54	92.32	124.0	161.1	501.2	 1340	742.1	247.3	276.2	286.2	282.7	292.6	269.5	252.9	228.6	204.2	186.8	171.5	166.7	162.3	158.8	156.2	154.7	151.3	151.1	154.5	155.2	151.1	153.1	153.2	142.3	139.5	125.7	111.3	99.18	90.06	80.48	68.87	63.53	63.75	63.26	46.14	32.25	25.35	22.60	18.15	15.40	12.71	10.98	11.41	15.29	52.73	259.0	766.7	913.5	371.1	25.38	2.545	2.316	2.505	2.070	2.115	2.147	2.116	2.139	2.126	1.958	1.971	2.421	1.814	1.749	1.892	1.940	1.831	1.691	1.879	1.842
495.0	59.76	69.73	118.0	159.8	246.8	731.7	 1455	343.5	247.7	268.3	251.7	262.7	241.6	224.1	202.7	184.1	166.2	157.7	149.8	145.8	139.9	138.6	138.5	134.7	131.9	138.6	136.3	136.9	134.5	136.3	130.2	125.5	114.6	100.5	91.79	82.94	73.73	64.78	58.23	55.27	56.27	54.16	37.46	27.24	24.13	19.55	16.11	13.66	11.78	9.570	9.296	16.70	61.63	176.7	462.8	 1235	540.1	23.11	2.362	2.258	2.010	2.008	2.010	1.496	2.088	2.307	1.951	1.961	1.866	1.687	1.758	1.794	1.534	1.617	1.823	1.775	2.079
500.0	76.56	79.72	109.9	125.5	159.9	331.7	 1574	809.3	220.3	255.5	233.0	224.7	219.0	206.4	186.4	158.1	150.5	141.4	135.5	136.4	129.1	126.3	129.0	123.9	124.6	122.1	126.2	127.9	124.8	122.5	119.2	111.8	102.3	95.93	86.74	75.47	68.28	60.85	55.40	49.18	47.60	50.69	44.05	29.94	23.47	18.54	15.98	13.84	12.00	9.998	8.225	8.487	18.05	43.55	114.2	686.2	 1284	105.8	8.514	2.530	2.395	2.046	1.974	2.061	1.862	1.801	1.786	1.982	1.797	1.344	1.596	1.703	1.898	1.750	1.741	1.765	2.090
505.0	80.54	80.20	97.87	150.1	131.4	185.9	 1028	 1529	260.2	235.8	218.2	208.1	204.7	192.5	169.4	153.8	141.5	131.3	121.0	121.3	116.1	114.1	114.1	110.5	116.8	112.6	116.0	114.1	116.0	114.7	108.8	104.4	95.90	86.10	79.48	70.81	62.08	57.67	51.67	46.01	40.05	40.41	44.81	33.32	24.32	19.27	16.10	14.39	12.75	10.02	8.620	7.077	8.513	14.21	29.54	178.7	882.2	 1108	90.67	4.234	2.513	1.705	2.117	1.717	1.894	2.097	1.999	1.797	1.730	1.468	1.876	1.374	1.604	1.695	1.659	1.404	1.668
510.0	57.90	73.66	85.98	116.4	129.5	149.5	413.8	 1675	981.9	204.7	207.7	185.0	183.1	172.4	155.3	137.5	125.7	120.5	109.4	105.2	105.2	99.36	97.43	97.96	100.2	98.21	100.7	99.55	100.5	97.01	96.79	90.74	84.83	77.62	70.14	63.73	57.77	50.79	46.02	41.84	36.56	34.61	36.37	36.77	26.73	19.40	15.63	13.96	12.74	9.851	8.357	7.030	6.637	7.560	10.13	43.30	227.5	679.3	827.7	339.9	21.24	2.144	2.069	2.134	1.915	1.764	1.877	1.822	1.515	1.702	1.519	1.596	1.577	1.575	1.721	1.522	1.570
515.0	65.14	76.96	82.34	101.4	144.6	127.7	189.5	799.8	 2282	403.8	183.8	169.0	165.5	144.5	133.9	123.8	115.6	106.3	99.14	90.13	90.05	87.91	86.62	85.00	86.94	84.17	85.07	86.60	83.25	86.89	86.00	79.60	73.33	67.45	61.44	57.54	51.69	46.55	40.80	37.37	33.37	29.46	27.07	31.28	31.40	23.06	15.67	13.41	11.94	10.35	8.401	6.985	6.783	5.922	5.570	12.52	53.45	155.4	385.2	989.2	450.7	16.77	1.992	1.802	1.967	1.974	1.605	1.387	1.856	1.455	1.563	1.779	1.584	1.738	1.562	1.512	1.197
520.0	50.72	67.70	78.91	90.23	135.1	129.0	152.8	310.9	 2371	 1063	164.9	163.0	146.7	131.8	122.6	113.3	102.0	95.74	88.97	85.23	81.94	78.23	80.75	74.96	79.02	74.43	76.92	76.68	75.02	76.01	76.52	70.54	68.36	61.11	55.78	51.88	47.51	42.12	37.08	34.91	30.84	27.77	24.82	25.32	29.16	26.16	16.69	13.17	11.98	10.70	7.975	6.596	6.393	5.644	5.413	5.854	14.96	37.27	95.31	536.1	 1006	101.1	6.727	1.898	1.825	1.805	1.678	1.675	1.597	1.665	1.658	1.378	1.522	1.656	1.294	1.842	1.304
525.0	56.05	57.86	88.38	82.62	124.0	131.2	115.8	168.2	 1378	 2135	240.0	146.0	131.9	125.2	121.4	101.3	95.43	85.48	79.77	77.76	72.43	71.53	71.32	68.88	66.71	65.99	67.59	68.59	69.70	70.99	66.69	64.90	62.76	55.94	50.43	47.91	43.56	39.33	35.31	32.91	28.60	24.53	22.87	21.66	23.82	26.07	20.37	13.11	11.07	9.855	8.084	6.683	6.104	5.623	5.134	4.421	6.497	11.24	24.06	137.5	666.6	796.5	84.42	3.060	1.777	1.669	1.533	1.624	1.641	1.451	1.677	1.478	1.245	1.248	1.310	1.554	1.147
530.0	70.69	50.24	70.61	80.09	96.33	128.1	111.5	119.6	448.0	 2254	 1316	135.3	121.0	106.2	104.2	82.27	81.81	75.45	67.66	67.07	61.85	61.90	61.01	59.94	57.86	58.55	60.58	60.12	60.62	61.18	59.06	56.40	53.26	47.90	43.88	40.82	39.33	35.40	31.30	29.54	26.96	23.24	20.82	18.91	18.90	21.89	22.14	16.06	11.13	9.269	7.811	7.007	5.882	5.391	5.028	4.581	4.772	5.444	7.925	33.28	170.5	523.8	719.5	283.5	17.57	1.737	1.737	1.569	1.509	1.396	1.586	1.425	1.170	1.507	1.416	1.536	1.458
535.0	54.22	46.66	71.15	74.95	84.53	126.4	109.1	102.9	181.8	912.9	 2602	358.5	107.2	98.35	90.28	78.25	71.13	61.76	62.02	58.36	51.75	53.26	49.82	52.37	48.39	52.60	51.40	50.13	53.18	51.88	51.78	48.05	46.89	41.92	38.52	35.73	32.11	31.30	27.55	26.45	22.80	21.54	18.04	17.14	15.83	15.54	19.11	19.26	12.88	9.222	7.902	6.258	5.733	5.071	4.982	4.556	4.245	4.340	4.546	9.940	40.11	119.5	319.4	787.3	353.3	10.22	2.054	1.667	1.842	1.629	1.617	1.483	1.342	1.626	1.218	1.647	1.648
540.0	66.95	52.06	48.67	60.13	70.63	101.8	135.4	88.84	119.5	295.8	 2176	994.2	96.38	88.33	80.85	69.27	63.63	54.70	58.86	52.24	49.34	45.77	47.08	43.67	43.81	45.14	44.59	43.85	48.17	43.85	45.52	43.44	40.05	36.93	34.45	32.19	29.73	27.70	24.80	22.53	21.14	19.89	16.73	16.81	13.95	13.93	15.16	18.29	15.36	9.047	7.287	5.755	5.130	5.156	4.736	4.601	4.441	4.256	3.475	4.968	11.42	28.81	77.17	413.4	780.0	91.41	4.323	1.587	1.588	1.378	1.487	1.653	1.660	1.266	1.287	1.141	1.440
545.0	55.63	51.09	55.59	56.47	64.48	81.37	131.1	99.75	98.20	141.4	 1062	 1979	176.4	78.72	70.23	58.34	57.53	49.69	48.63	47.72	43.04	41.25	39.61	40.06	41.57	39.80	40.32	38.43	39.55	41.64	39.95	38.24	36.05	33.08	32.02	29.90	25.60	24.78	22.46	20.07	18.30	17.32	14.68	14.68	12.93	12.47	11.86	14.77	15.20	10.84	7.089	5.627	5.223	4.557	4.230	4.624	4.017	3.957	3.510	3.208	4.833	8.353	19.23	105.3	517.8	588.8	65.27	2.201	1.546	1.683	1.237	1.466	1.257	1.249	1.324	1.260	1.354
550.0	45.52	56.05	64.03	53.93	56.17	65.20	101.3	110.6	83.52	94.54	329.4	 1729	 1064	80.36	64.14	51.27	47.14	44.65	41.64	40.31	37.20	36.64	35.17	35.19	33.12	34.80	33.64	33.41	33.42	33.51	34.76	31.55	30.41	27.93	27.25	24.72	22.06	20.98	19.29	18.11	15.82	14.94	12.64	12.45	11.07	10.14	9.350	10.42	12.64	12.13	8.130	5.723	4.724	4.306	4.137	3.705	3.787	3.539	2.961	2.919	3.041	3.698	6.157	25.38	131.6	369.3	404.4	149.5	8.274	1.656	1.290	1.401	1.356	1.348	1.453	1.364	1.354
555.0	38.39	45.54	60.74	55.86	50.68	56.94	69.29	105.3	84.99	74.49	134.8	599.8	 2038	327.8	53.63	49.53	41.40	37.05	34.45	34.10	32.47	30.26	29.32	27.71	26.68	28.00	27.64	27.46	27.94	27.74	27.83	24.87	24.41	21.78	22.47	20.50	17.00	18.25	15.79	14.18	13.12	12.81	11.99	9.950	9.751	9.304	8.495	7.600	8.385	10.39	9.111	6.423	4.590	4.226	3.613	3.355	3.479	3.089	3.190	2.914	2.380	2.976	3.022	7.444	30.67	84.57	181.7	430.4	96.90	5.169	1.345	1.420	1.261	1.423	1.336	1.350	1.653
560.0	47.73	54.20	50.23	49.20	52.88	48.77	57.97	97.52	108.4	70.56	81.26	197.1	 1686	822.8	48.90	40.24	34.58	31.53	31.26	28.73	25.69	25.01	26.07	24.52	23.01	23.39	23.90	23.62	24.33	24.11	24.89	21.52	20.52	19.56	18.89	17.19	16.31	15.17	14.34	12.83	11.45	10.35	10.64	8.289	8.249	8.048	7.241	6.677	6.290	7.770	8.620	6.348	4.684	3.680	3.618	3.432	2.953	2.886	2.682	2.699	2.597	2.396	2.311	3.123	8.178	20.26	44.84	240.9	370.4	73.66	2.730	1.413	1.299	1.402	0.972	1.623	1.553
565.0	52.11	46.98	49.25	47.23	49.53	41.60	46.36	77.60	104.3	67.28	62.85	91.22	781.0	 1805	132.3	33.53	30.66	26.76	24.16	24.71	23.14	21.23	19.66	21.63	18.85	19.12	20.82	21.77	20.98	20.12	20.13	19.73	18.18	17.35	15.17	14.99	14.36	13.19	12.21	10.73	10.68	9.469	9.501	7.788	7.451	6.925	6.586	6.589	5.979	5.684	7.241	6.914	5.125	3.410	2.862	2.993	2.789	2.909	2.930	2.784	2.554	2.370	2.194	2.311	3.091	5.535	11.64	63.54	268.0	312.5	41.12	1.464	1.158	1.127	1.072	1.307	1.277
570.0	50.85	43.92	55.71	45.59	47.26	41.94	45.85	51.83	94.01	79.22	55.57	65.55	231.7	 1493	983.6	38.89	27.78	22.79	21.74	21.01	19.89	17.54	17.39	16.86	16.45	16.94	17.46	17.99	16.81	16.01	16.83	16.74	15.43	13.67	13.02	12.98	11.81	10.66	10.91	9.283	8.403	7.738	7.608	7.169	6.509	5.944	5.916	5.251	4.918	4.211	4.926	5.912	5.606	3.718	2.931	2.484	2.592	2.342	2.472	2.362	2.308	2.341	2.354	2.018	2.184	2.862	3.944	15.67	70.35	204.2	225.7	55.80	3.819	1.368	1.210	1.255	1.299
575.0	42.38	43.08	49.90	46.31	38.89	42.93	48.49	44.40	69.43	105.4	58.17	53.46	93.94	468.3	 1850	234.5	22.17	20.50	19.01	17.92	16.53	13.56	15.97	14.32	13.41	13.79	14.33	13.52	13.83	13.28	13.80	13.49	12.12	11.74	10.60	10.46	9.831	8.429	8.419	7.443	7.215	6.381	6.694	6.111	5.283	4.894	4.945	4.546	3.734	3.125	3.799	4.383	5.161	3.894	3.534	2.585	2.777	2.239	2.258	2.017	1.982	1.888	2.116	1.664	1.851	2.095	2.010	4.551	17.03	47.29	109.9	241.7	73.08	2.500	1.206	1.320	1.196
580.0	43.57	51.41	56.39	55.82	40.86	32.09	37.43	44.33	54.76	113.8	73.56	52.52	61.34	143.8	 1457	610.2	23.42	19.19	15.86	16.07	14.07	13.56	14.31	12.29	11.42	11.31	12.89	11.81	11.50	11.85	11.33	11.80	9.845	10.05	9.320	8.587	8.328	7.544	6.475	6.570	6.408	6.074	5.810	5.846	4.883	4.223	4.398	4.000	3.680	2.896	3.133	3.189	3.705	4.104	3.693	2.714	2.066	2.032	2.074	1.872	2.024	1.983	1.764	1.966	2.038	1.599	1.577	2.369	4.889	11.43	28.12	143.9	214.3	43.21	1.726	1.473	1.034
585.0	43.51	64.43	45.23	52.47	40.49	30.25	39.59	40.63	47.48	93.44	96.70	60.53	60.46	67.05	631.6	 1417	87.11	16.78	14.52	16.43	11.28	12.59	12.63	11.00	9.753	10.87	10.96	10.26	10.22	10.46	9.654	9.554	9.228	8.165	7.779	7.443	7.687	6.950	5.932	6.917	5.883	5.432	4.983	5.019	4.177	4.241	4.004	3.640	3.007	2.500	2.537	2.444	2.942	4.053	3.525	2.578	2.170	2.027	1.998	1.733	1.738	1.812	2.202	2.245	1.608	1.462	1.612	1.760	2.442	3.685	7.247	38.64	161.8	166.6	20.06	1.426	1.144
590.0	48.99	48.64	49.21	51.02	38.08	39.76	38.32	46.74	49.25	77.90	117.9	76.15	56.81	52.60	181.0	 1158	801.1	21.32	13.05	13.16	11.42	11.74	10.38	9.658	9.624	9.365	9.456	8.030	9.087	8.730	9.295	7.920	8.238	7.334	6.040	6.764	5.900	5.967	5.446	5.716	4.898	4.280	4.437	4.304	4.063	3.594	3.443	3.248	3.002	2.504	2.547	2.552	2.610	2.752	3.307	3.079	2.316	2.025	2.191	1.822	1.615	1.880	2.086	2.028	1.677	1.497	1.706	1.788	1.808	2.055	2.855	9.682	43.66	116.1	121.2	40.25	2.601
595.0	53.32	54.28	45.91	39.31	37.22	36.38	42.81	44.13	57.96	75.84	115.9	106.9	67.35	52.60	73.42	369.3	 1652	159.9	12.46	10.07	9.783	9.145	9.265	8.407	7.727	7.876	8.271	6.984	6.490	7.549	7.616	7.529	8.088	5.987	5.619	6.224	4.926	5.124	4.589	4.767	4.419	3.732	3.946	3.707	3.105	2.790	2.767	2.994	2.621	2.297	2.151	2.481	2.233	2.218	2.366	3.323	2.519	2.155	2.104	1.775	1.559	1.453	1.586	1.785	1.767	1.718	1.599	1.410	1.250	1.826	1.707	3.614	10.44	27.50	67.50	148.1	49.35
600.0	47.87	58.68	44.71	40.31	33.18	45.22	47.22	51.96	63.90	79.49	96.32	132.7	77.65	52.90	45.24	104.3	 1382	453.7	13.36	9.877	9.896	7.582	7.725	7.112	7.394	7.548	6.489	6.924	6.577	6.450	6.719	6.895	6.538	5.233	5.364	5.321	3.850	4.629	4.059	4.044	4.027	3.618	3.075	3.509	2.647	2.568	2.496	2.694	2.350	1.926	1.967	1.823	2.175	1.993	2.335	2.235	2.570	2.329	1.845	1.535	1.730	2.028	1.553	1.626	1.759	1.680	1.755	1.707	1.469	1.359	1.615	1.852	3.411	7.194	17.74	92.15	120.2
605.0	51.62	47.89	55.45	37.93	38.18	49.34	54.40	56.83	67.47	74.43	89.08	131.7	87.96	56.18	42.61	45.99	666.2	 1034	46.43	9.026	9.806	7.818	7.949	6.992	6.413	7.102	6.409	6.345	6.392	6.196	5.723	5.839	5.706	5.071	4.269	4.525	4.173	4.460	3.710	3.658	3.247	3.556	3.230	3.084	2.663	2.560	2.108	2.436	2.131	1.527	1.986	1.704	1.899	1.977	1.957	2.207	2.818	1.941	2.032	1.364	1.718	1.632	1.623	1.688	1.785	1.466	2.111	1.620	1.410	1.199	1.124	1.855	1.788	2.374	4.849	26.17	107.4
610.0	53.44	44.98	55.49	41.74	37.53	44.75	49.82	56.17	69.34	71.68	83.96	116.4	112.2	62.37	42.28	30.13	179.0	857.3	453.3	12.36	7.697	7.190	6.717	6.846	5.640	5.804	5.988	5.958	5.418	5.463	5.285	5.338	4.888	4.314	4.498	3.727	3.943	3.618	3.269	3.232	3.020	3.134	2.840	2.634	2.674	2.614	2.172	2.218	2.080	1.558	1.581	1.636	1.619	1.575	1.717	1.587	2.522	2.253	2.226	1.618	1.686	1.438	1.646	1.739	1.664	1.446	1.616	1.690	1.793	1.322	1.205	1.236	1.416	1.336	1.996	6.805	30.18
615.0	55.41	45.25	48.56	42.30	35.83	40.28	53.11	58.52	73.55	79.69	79.77	92.12	121.6	73.64	38.73	26.58	52.78	272.3	900.5	99.57	7.957	6.422	5.987	6.060	5.395	4.988	4.904	4.003	5.260	5.300	4.468	4.422	4.093	4.044	3.926	2.817	4.327	2.840	3.077	3.103	2.190	2.554	1.960	2.511	2.276	2.103	2.278	2.283	1.722	1.266	1.439	1.484	1.528	1.411	1.506	1.558	1.731	2.184	2.308	1.695	1.629	1.482	1.690	1.475	1.408	1.467	1.496	1.551	1.667	1.312	1.013	1.258	1.123	1.396	1.412	2.410	7.690
620.0	46.92	44.39	45.14	38.07	40.25	50.81	43.83	57.28	69.69	72.60	77.79	82.34	99.07	84.44	38.48	24.91	25.09	73.80	765.3	342.7	9.034	5.692	5.514	6.060	5.339	3.987	4.117	4.448	5.249	4.536	4.653	4.929	4.300	3.754	3.636	2.918	3.274	3.375	2.994	2.661	2.300	2.073	2.107	2.064	2.142	1.869	1.923	2.176	1.889	1.210	1.465	1.339	1.748	1.902	1.423	1.581	1.479	1.787	1.851	2.308	1.467	1.494	1.508	1.695	1.374	1.509	1.682	1.437	1.435	1.313	1.034	1.681	1.054	1.185	1.400	1.303	2.696
625.0	49.74	44.72	54.12	33.20	46.47	44.46	46.79	52.05	65.10	69.47	79.96	76.37	85.39	88.67	42.05	23.99	17.29	25.86	353.3	755.4	29.84	6.346	6.231	4.968	4.705	4.139	3.861	4.369	3.951	3.963	4.191	4.104	4.018	3.392	3.095	2.633	2.738	2.888	2.617	2.827	2.199	2.109	2.279	2.191	2.226	2.034	1.970	2.032	1.541	1.290	1.457	1.425	1.511	1.581	1.373	1.753	1.826	1.470	1.831	2.214	1.575	1.446	1.545	1.768	1.275	1.626	1.401	1.411	1.391	1.460	1.291	1.383	1.031	0.913	1.380	1.269	1.596
630.0	45.88	41.51	55.98	43.49	44.02	48.01	44.51	51.55	68.31	71.71	72.93	72.84	73.79	89.81	50.20	23.90	15.08	13.85	94.14	667.8	326.1	7.597	5.702	4.845	3.867	4.012	3.941	3.971	4.194	3.758	3.624	3.290	3.822	3.212	2.893	2.625	2.512	2.936	2.252	2.656	2.111	2.133	2.061	1.815	1.939	1.955	1.836	1.699	1.638	1.411	1.226	1.566	1.495	1.276	1.375	1.426	1.440	1.725	1.482	1.776	1.681	1.764	1.593	1.875	1.455	1.346	1.282	1.542	1.429	1.419	1.258	1.210	1.239	1.120	1.485	1.289	1.378
635.0	49.54	48.55	51.75	39.55	48.66	39.34	44.83	51.69	64.48	70.38	65.26	74.39	66.41	66.73	67.71	27.20	16.03	12.06	26.60	226.7	702.4	64.60	4.858	5.299	3.881	3.087	3.583	3.773	3.801	3.503	3.122	3.546	3.352	2.555	3.014	2.780	2.487	2.992	2.326	2.627	2.319	2.008	1.815	1.707	1.492	1.861	1.647	1.365	1.652	1.184	1.135	1.426	1.364	1.309	1.285	1.335	1.394	1.445	1.186	1.649	1.877	1.615	1.750	1.469	1.337	1.458	1.378	1.464	1.477	1.146	1.424	1.456	1.454	1.034	1.265	1.109	1.162
640.0	51.79	57.43	43.89	47.60	54.22	39.25	45.89	54.08	58.70	72.66	62.48	66.54	58.66	60.49	69.11	30.59	14.76	10.79	12.65	59.65	611.4	254.1	6.088	4.638	4.441	3.853	3.760	4.078	3.788	3.326	3.452	3.096	3.187	2.757	3.309	3.044	2.369	2.638	1.961	2.686	2.007	1.802	1.850	1.620	1.516	1.435	1.429	1.504	1.414	1.009	0.965	1.165	1.571	1.339	1.363	1.125	1.451	1.161	1.222	1.434	1.617	1.515	1.477	1.421	1.388	1.432	1.205	1.531	1.412	0.959	1.401	1.559	1.697	1.277	1.074	1.112	1.266
645.0	64.57	59.11	57.92	48.16	54.96	48.63	54.75	58.24	60.51	67.40	65.98	72.05	55.14	49.84	59.98	37.87	16.43	12.09	10.81	20.69	300.0	530.8	19.49	4.054	4.081	3.916	4.047	4.384	3.346	3.863	4.024	3.200	2.798	2.506	3.542	2.996	2.438	2.371	2.308	2.106	1.980	1.998	1.731	1.783	1.479	1.418	1.320	1.494	1.509	1.069	1.070	1.384	1.084	1.448	1.361	1.157	1.430	1.108	1.347	1.572	1.486	1.459	1.562	1.367	1.593	1.571	1.241	1.394	1.071	1.018	1.196	1.255	1.281	1.157	1.253	1.139	1.287
650.0	59.35	64.50	54.61	51.55	53.57	50.66	60.79	59.03	61.54	64.56	64.83	60.27	51.58	46.29	43.47	44.45	19.29	12.39	10.37	10.69	89.25	602.0	120.5	3.810	3.884	4.071	3.656	3.874	2.839	3.116	3.752	2.949	3.261	3.153	3.138	3.018	2.844	2.650	1.935	2.227	2.254	1.760	1.516	1.663	1.666	1.398	1.427	1.631	1.365	1.188	1.015	1.784	1.076	0.973	1.306	1.363	1.414	1.471	1.344	1.328	1.629	1.280	1.295	1.556	1.675	1.448	1.334	1.124	1.198	1.167	1.090	1.242	1.387	1.451	1.352	1.016	1.118
