Sample:	'1
File name:	’≈πŸ«≈ 5±∂.FD3
Run date:	'10:30:14, 06/23/2025
Operator:	Administrator
Comment:	'

Instrument
Model:	F-2700 FL Spectrophotometer
Serial number:	23B8-004
ROM Version:	4J14000 07

Instrument parameters
Measurement type:	3-D scan
Data mode:	Fluorescence
EX  Start WL:	220.0 nm
EX  End WL:	600.0 nm
EX Sampling interval:	5.0 nm
EM  Start WL:	230.0 nm
EM  End WL:	650.0 nm
EM Sampling interval:	5.0 nm
Scan speed:	12000 nm/min
EX Slit:	5.0 nm
EM Slit:	5.0 nm
PMT Voltage:	700 V
Response:	Auto 
Corrected spectra:	Off
Contour interval:	50.000

Peak integration
Integration method:	Rectangular
Sensitivity:	1
Threshold:	1.000

Peaks
No.	ApexEX/EM(nm)	Height(Data)
1	225.0/345.0	2034
2	225.0/570.0	70.92
3	225.0/615.0	48.45
4	240.0/265.0	446.2
5	245.0/270.0	455.9
6	245.0/535.0	261.5
7	250.0/275.0	598.8
8	250.0/550.0	198.7
9	255.0/280.0	620.2
10	255.0/560.0	151.8
11	260.0/290.0	569.5
12	260.0/575.0	118.9
13	265.0/295.0	724.9
14	265.0/585.0	105.6
15	270.0/300.0	1011
16	270.0/600.0	97.36
17	275.0/305.0	1086
18	275.0/415.0	2240
19	275.0/435.0	2178
20	275.0/610.0	81.60
21	280.0/340.0	967.3
22	280.0/625.0	68.65
23	285.0/320.0	960.7
24	285.0/635.0	52.00
25	290.0/325.0	915.0
26	315.0/355.0	507.5
27	320.0/365.0	477.2
28	325.0/370.0	457.7
29	330.0/375.0	453.4
30	340.0/415.0	1058
31	425.0/500.0	36.06
32	460.0/345.0	5.813
33	485.0/265.0	2.195
34	495.0/270.0	2.362
35	505.0/275.0	3.394
36	510.0/280.0	3.836
37	520.0/285.0	3.955
38	530.0/290.0	3.534
39	535.0/270.0	47.61
40	540.0/295.0	4.881
41	545.0/300.0	5.715
42	550.0/305.0	5.583
43	560.0/310.0	5.456
44	560.0/420.0	7.470
45	565.0/345.0	4.890
46	565.0/430.0	6.994
47	570.0/315.0	5.423
48	580.0/320.0	5.541
49	585.0/325.0	5.698

Data points
	220.0	225.0	230.0	235.0	240.0	245.0	250.0	255.0	260.0	265.0	270.0	275.0	280.0	285.0	290.0	295.0	300.0	305.0	310.0	315.0	320.0	325.0	330.0	335.0	340.0	345.0	350.0	355.0	360.0	365.0	370.0	375.0	380.0	385.0	390.0	395.0	400.0	405.0	410.0	415.0	420.0	425.0	430.0	435.0	440.0	445.0	450.0	455.0	460.0	465.0	470.0	475.0	480.0	485.0	490.0	495.0	500.0	505.0	510.0	515.0	520.0	525.0	530.0	535.0	540.0	545.0	550.0	555.0	560.0	565.0	570.0	575.0	580.0	585.0	590.0	595.0	600.0
230.0	171.3	2436	3530	599.2	23.80	8.086	7.261	5.618	4.664	4.380	4.332	4.177	3.508	3.223	3.161	1.936	1.754	1.441	2.574	1.641	1.374	1.355	1.078	0.986	0.952	0.852	0.980	0.872	0.815	0.739	0.797	0.688	0.611	0.565	0.541	0.476	0.526	0.510	0.439	0.451	0.602	0.816	0.741	0.428	0.439	0.515	3.343	10.19	12.09	6.179	1.805	0.472	0.321	0.284	0.250	0.276	0.290	0.258	0.261	0.281	0.262	0.268	0.274	0.294	0.252	0.258	0.258	0.286	0.270	0.278	0.231	0.279	0.258	0.275	0.289	0.271	0.284
235.0	191.8	704.9	2844	3234	521.2	33.20	8.844	7.184	5.035	4.254	4.365	4.212	3.728	3.251	3.059	2.147	1.938	1.582	2.494	1.575	1.269	1.286	1.267	1.111	1.046	0.785	0.990	0.815	0.788	0.775	0.717	0.758	0.634	0.615	0.590	0.465	0.489	0.486	0.517	0.400	0.499	0.535	0.708	0.845	0.779	0.563	1.070	2.895	6.150	9.702	11.56	9.950	3.793	0.792	0.344	0.317	0.334	0.325	0.274	0.329	0.294	0.227	0.256	0.233	0.277	0.281	0.243	0.306	0.260	0.297	0.319	0.315	0.282	0.264	0.229	0.269	0.364
240.0	282.6	261.8	964.4	3466	3369	390.3	20.43	8.867	7.604	5.021	4.780	4.825	3.924	3.462	3.431	2.661	2.133	1.476	2.580	1.651	1.238	1.394	1.192	1.181	1.071	0.943	1.097	0.839	0.776	0.832	0.766	0.669	0.724	0.629	0.575	0.452	0.474	0.569	0.504	0.451	0.439	0.436	0.528	0.716	1.016	0.970	0.701	0.958	1.715	3.470	8.640	17.88	16.97	9.331	2.978	0.523	0.290	0.344	0.278	0.335	0.284	0.285	0.283	0.266	0.283	0.249	0.266	0.243	0.260	0.309	0.290	0.268	0.299	0.254	0.232	0.289	0.329
245.0	224.8	294.9	285.4	1403	4689	2925	301.6	13.81	9.136	5.249	5.498	5.305	4.276	3.621	3.480	2.313	1.852	1.585	2.958	1.710	1.401	1.544	1.090	1.288	1.072	0.909	0.947	0.908	0.871	0.846	0.841	0.820	0.654	0.596	0.573	0.667	0.456	0.584	0.551	0.415	0.473	0.412	0.400	0.491	0.676	0.996	0.929	0.853	0.717	1.033	2.308	7.205	15.75	21.49	17.87	8.161	1.888	0.359	0.319	0.350	0.309	0.298	0.264	0.261	0.260	0.305	0.297	0.267	0.260	0.264	0.250	0.249	0.313	0.311	0.251	0.377	0.267
250.0	97.39	245.3	311.2	407.4	1707	3907	5264	1165	58.15	7.790	7.142	6.196	4.940	4.131	4.064	2.655	2.120	1.763	3.061	1.754	1.713	1.613	1.242	1.407	1.124	0.962	1.026	0.958	0.786	0.895	0.733	0.756	0.706	0.601	0.619	0.522	0.458	0.492	0.531	0.409	0.423	0.469	0.373	0.443	0.458	0.536	0.761	1.115	1.183	1.009	0.948	1.946	4.083	7.976	14.56	21.22	25.03	17.69	8.926	2.277	0.408	0.278	0.326	0.296	0.324	0.270	0.304	0.286	0.323	0.272	0.289	0.258	0.286	0.303	0.279	0.276	0.301
255.0	56.39	83.97	266.8	394.3	463.8	1094	5697	7893	1549	48.23	11.11	7.586	5.426	4.598	4.571	2.874	2.248	1.839	3.276	1.835	1.914	1.355	1.263	1.445	1.207	1.028	1.157	0.992	0.829	0.910	0.920	0.736	0.684	0.640	0.559	0.514	0.520	0.484	0.485	0.436	0.413	0.474	0.460	0.413	0.431	0.478	0.484	0.540	0.739	1.227	1.451	1.507	1.358	2.148	3.614	5.505	11.78	25.93	40.96	27.49	13.23	2.120	0.443	0.315	0.420	0.312	0.282	0.303	0.306	0.316	0.270	0.286	0.297	0.318	0.279	0.286	0.355
260.0	49.16	39.41	116.8	368.5	355.3	305.5	1938	7996	7630	259.8	27.19	9.906	6.501	5.078	5.411	3.229	2.832	1.929	3.635	1.989	1.917	1.553	1.380	1.343	1.203	1.001	1.009	1.061	0.970	0.841	0.923	0.853	0.787	0.569	0.652	0.603	0.540	0.472	0.457	0.426	0.507	0.461	0.495	0.446	0.506	0.390	0.407	0.417	0.468	0.651	1.138	2.107	1.865	1.164	1.184	1.578	3.069	7.603	21.38	41.91	47.62	24.56	10.06	1.068	0.409	0.313	0.328	0.312	0.359	0.278	0.338	0.274	0.333	0.329	0.273	0.338	0.370
265.0	46.86	33.09	51.31	194.2	446.2	260.1	500.5	3057	9715	6241	205.3	16.27	8.758	7.829	6.702	3.829	2.796	2.011	3.823	2.060	2.138	1.696	1.405	1.338	1.257	0.988	1.054	1.059	0.902	0.979	0.932	0.850	0.753	0.722	0.558	0.639	0.512	0.505	0.527	0.482	0.454	0.577	0.529	0.463	0.450	0.425	0.391	0.380	0.409	0.431	0.477	1.190	1.944	2.195	1.567	0.903	1.154	2.118	5.439	13.67	31.50	51.54	58.01	21.54	5.120	0.440	0.331	0.315	0.390	0.320	0.361	0.306	0.289	0.326	0.339	0.385	0.322
270.0	68.06	49.59	42.90	78.12	266.0	455.9	348.4	772.4	3380	7874	9999.9	810.7	52.37	11.99	9.643	4.989	3.660	2.646	4.771	2.531	2.290	2.023	1.397	1.404	1.428	1.217	1.321	1.082	0.929	0.959	0.997	0.892	0.878	0.807	0.614	0.654	0.600	0.618	0.533	0.510	0.460	0.510	0.504	0.431	0.519	0.518	0.417	0.410	0.440	0.378	0.367	0.584	0.885	1.597	2.303	2.362	2.068	1.333	1.740	3.519	7.824	16.09	33.41	47.61	43.75	41.58	14.41	4.885	0.599	0.444	0.399	0.364	0.345	0.354	0.323	0.353	0.319
275.0	111.5	94.86	72.30	60.35	118.2	285.1	598.8	416.3	812.4	2075	9399	9999.9	1167	49.46	14.07	6.445	4.814	3.595	5.776	2.906	2.858	2.336	1.714	1.665	1.488	1.093	1.500	1.118	1.112	1.100	1.072	1.008	0.913	0.904	0.851	0.674	0.686	0.697	0.710	0.580	0.555	0.597	0.531	0.466	0.650	0.640	0.483	0.579	0.460	0.373	0.395	0.468	0.640	0.744	1.040	1.510	3.014	3.394	2.311	1.562	2.206	4.050	7.915	11.49	15.84	38.60	68.41	72.63	24.18	5.287	0.580	0.421	0.365	0.392	0.328	0.416	0.362
280.0	172.6	173.7	121.0	75.33	84.54	156.3	440.0	620.2	325.2	530.6	2860	9999.9	9999.9	819.1	34.41	8.704	5.624	4.800	7.140	3.102	3.191	2.757	1.740	1.772	1.571	1.362	1.399	1.152	1.191	1.374	1.191	1.122	0.885	0.871	0.828	0.934	0.818	0.763	0.857	0.644	0.626	0.624	0.690	0.625	0.732	0.700	0.678	0.729	0.604	0.502	0.435	0.503	0.584	0.559	0.636	0.913	1.564	2.685	3.836	3.155	1.787	1.503	2.341	3.121	4.148	10.29	26.82	63.18	95.22	33.10	17.50	2.165	0.522	0.429	0.402	0.430	0.334
285.0	265.0	237.2	160.4	99.91	89.51	120.0	225.9	614.6	361.4	233.5	748.3	3646	9999.9	8225	125.6	14.10	7.330	5.953	9.034	3.954	3.427	2.990	2.214	1.728	1.852	1.481	1.697	1.197	1.216	1.185	1.109	1.180	0.975	1.027	1.026	1.103	0.997	0.895	0.989	0.707	0.750	0.788	0.767	0.791	0.875	0.868	0.834	0.887	0.729	0.658	0.516	0.538	0.644	0.573	0.666	0.795	0.944	1.388	2.257	3.872	3.955	2.101	1.392	1.234	1.619	2.994	6.758	16.95	44.26	82.06	88.63	29.14	10.54	1.097	0.502	0.518	0.389
290.0	367.4	349.5	253.9	149.5	110.2	116.3	149.9	295.8	569.5	506.4	346.3	988.9	3559	9999.9	9999.9	1922	31.72	8.142	12.06	4.799	4.810	3.320	2.360	2.165	1.984	1.627	1.740	1.265	1.516	1.203	1.193	1.173	1.189	1.122	1.274	1.283	1.254	1.169	1.080	0.964	1.005	0.913	0.993	0.975	1.111	1.089	1.137	1.248	1.074	0.831	0.682	0.677	0.718	0.643	0.705	0.706	0.843	0.971	1.202	1.816	2.619	3.384	3.534	2.763	1.610	1.670	2.528	4.790	11.03	22.21	37.70	50.48	65.16	65.57	18.54	10.16	1.175
295.0	462.2	451.2	331.1	191.4	133.9	126.5	146.3	192.3	318.3	724.9	714.8	500.1	999.5	2517	9999.9	9999.9	681.2	30.99	18.15	6.928	6.034	4.235	3.061	2.715	2.215	1.734	2.109	1.599	1.555	1.216	1.389	1.279	1.141	1.288	1.536	1.390	1.637	1.363	1.135	1.105	0.989	1.031	1.074	1.100	1.299	1.378	1.303	1.460	1.318	0.968	0.779	0.764	0.803	0.786	0.811	0.816	0.871	0.975	0.987	1.276	1.475	1.775	2.482	4.237	4.881	3.444	2.315	2.381	3.630	6.258	9.544	12.19	17.65	36.04	63.38	107.2	30.64
300.0	525.4	526.8	384.8	224.2	156.3	148.3	172.3	200.9	261.6	520.1	1011	659.5	498.8	745.0	2763	9597	9999.9	513.6	42.81	9.001	8.010	5.056	3.592	2.897	2.520	1.856	2.186	1.617	1.558	1.333	1.406	1.271	1.260	1.276	1.524	1.654	1.683	1.563	1.273	1.197	1.207	1.060	1.166	1.097	1.382	1.623	1.448	1.521	1.495	1.085	0.835	0.927	0.807	0.837	0.844	0.849	0.965	1.101	1.100	1.270	1.413	1.539	1.807	2.632	4.456	5.715	4.332	2.935	2.566	2.890	3.451	3.903	5.088	9.283	19.49	60.00	82.47
305.0	556.7	565.9	452.2	258.5	185.7	174.3	210.1	252.5	317.4	458.2	865.7	1086	565.3	422.5	789.3	2949	9999.9	5119	524.3	12.38	9.965	6.255	4.162	3.548	2.743	1.935	2.593	1.753	1.566	1.356	1.540	1.401	1.243	1.351	1.562	1.756	1.896	1.561	1.450	1.376	1.334	1.291	1.207	1.153	1.498	1.624	1.496	1.666	1.667	1.246	0.932	1.101	0.880	0.944	0.961	1.092	1.234	1.270	1.349	1.553	1.702	1.844	1.891	2.291	3.002	4.446	5.583	5.345	3.732	2.870	2.693	2.297	2.406	3.196	5.406	14.96	29.45
310.0	606.5	606.5	475.2	298.3	220.3	211.8	250.5	296.1	375.5	474.4	667.2	984.1	963.1	513.7	400.6	804.4	3001	6866	9999.9	1737	30.92	9.090	5.131	4.417	3.484	2.307	2.688	1.932	1.776	1.586	1.627	1.463	1.305	1.391	1.590	1.755	1.807	1.622	1.534	1.407	1.384	1.366	1.366	1.336	1.503	1.486	1.575	1.760	1.705	1.313	1.068	1.199	1.150	1.013	1.107	1.163	1.355	1.464	1.509	1.622	1.795	2.056	2.190	2.293	2.903	3.343	3.884	4.769	5.456	5.000	3.993	2.600	2.221	2.215	2.459	4.445	7.699
315.0	686.4	669.6	510.3	350.3	269.9	253.3	285.0	340.0	409.5	516.6	634.4	762.2	905.5	911.6	444.1	377.8	820.5	1688	9999.9	9999.9	2730	30.04	7.475	5.792	4.099	3.091	3.278	2.590	2.070	1.811	2.001	1.523	1.467	1.397	1.599	1.802	1.697	1.661	1.725	1.464	1.400	1.338	1.484	1.486	1.670	1.833	1.762	2.075	1.850	1.474	1.213	1.502	1.366	1.350	1.299	1.464	1.608	1.686	1.585	1.785	1.972	2.174	2.412	2.741	2.837	3.255	3.529	3.824	3.960	4.404	5.423	4.933	3.692	2.348	2.075	2.335	3.106
320.0	779.3	843.3	664.7	436.6	322.5	305.8	329.0	377.7	450.7	568.0	673.3	753.0	790.2	960.7	715.1	363.0	389.9	516.4	2752	8446	9999.9	437.9	14.87	7.763	5.275	3.638	3.694	2.510	2.084	2.081	2.126	1.784	1.649	1.357	1.463	1.766	1.661	1.641	1.652	1.521	1.574	1.545	1.606	1.672	1.912	2.166	2.302	2.498	2.129	1.839	1.438	1.580	1.545	1.450	1.390	1.447	1.541	1.717	1.752	2.135	2.079	2.375	2.474	2.831	3.100	3.418	3.702	3.619	4.015	3.887	4.223	5.249	5.541	4.623	2.711	2.345	2.369
325.0	1015	1154	975.2	631.7	426.3	356.6	371.8	410.1	487.9	612.8	730.5	801.1	798.2	822.8	915.0	537.7	341.8	289.4	738.7	2505	9999.9	9607	61.53	11.98	6.704	3.915	4.285	2.846	2.501	2.305	2.121	1.937	1.587	1.392	1.438	1.785	1.762	1.660	1.746	1.593	1.771	1.716	1.828	1.859	2.246	2.715	2.842	3.354	2.933	2.466	2.055	2.096	1.773	1.578	1.757	1.657	1.660	1.891	1.935	2.222	2.232	2.678	2.652	3.246	3.164	3.607	3.795	3.838	4.172	4.034	4.046	4.423	5.146	5.698	4.583	3.578	2.396
330.0	1300	1551	1427	1021	641.3	465.9	423.6	463.5	546.3	672.5	791.8	870.9	874.6	815.3	807.8	773.6	509.9	300.4	330.1	678.4	2988	9364	5750	1471	23.19	5.532	5.856	3.235	3.006	2.323	2.373	1.813	1.630	1.502	1.514	1.742	1.675	1.742	1.809	1.690	1.843	1.924	2.196	2.304	2.795	3.333	3.649	4.411	4.069	3.782	3.201	3.285	2.866	2.392	2.084	2.053	2.139	2.198	2.221	2.308	2.510	2.867	3.043	3.492	3.450	3.875	4.154	4.154	4.270	4.450	4.462	4.313	4.453	4.607	4.761	4.979	4.340
335.0	1479	1829	1808	1377	886.0	615.5	498.3	519.1	600.3	725.9	847.2	927.4	941.5	880.1	784.9	730.3	748.7	455.5	299.4	320.3	784.8	2232	3961	9999.9	2102	23.26	8.207	4.494	3.590	2.662	2.855	2.225	1.817	1.539	1.603	1.729	1.902	1.764	1.836	1.863	2.040	2.164	2.352	2.682	3.256	3.790	4.218	5.114	5.133	4.597	4.120	4.549	3.718	3.246	2.568	2.308	2.349	2.414	2.547	2.591	2.818	2.914	3.292	3.640	3.814	4.143	4.226	4.506	4.365	4.733	4.800	4.764	4.627	4.704	4.290	4.201	4.570
340.0	1605	2016	2005	1540	1014	673.2	553.3	551.2	624.5	746.8	863.1	957.5	967.3	909.5	806.6	689.4	702.8	629.8	354.8	262.9	310.4	595.4	1082	7048	9376	371.9	20.63	5.636	4.477	2.903	2.853	2.322	2.223	1.672	1.636	1.727	1.885	1.884	1.959	1.702	2.040	2.290	2.637	2.989	3.592	4.322	4.610	5.529	5.574	4.798	4.669	5.029	4.108	3.355	2.859	2.510	2.728	2.586	2.941	2.668	2.835	3.062	3.355	3.732	4.230	4.268	4.173	4.428	4.531	4.779	4.951	4.897	4.756	4.695	4.293	4.234	4.118
345.0	1575	2034	2024	1607	1068	715.7	575.4	567.3	629.5	734.0	855.1	943.3	952.8	903.8	806.3	686.0	613.5	643.7	478.7	276.6	225.6	251.4	332.4	2000	8402	3389	337.7	8.517	5.373	3.657	3.421	2.424	2.145	1.804	1.566	1.920	1.886	1.845	1.934	1.967	1.851	2.223	2.382	2.782	3.439	4.161	4.561	5.705	5.813	4.837	4.778	5.082	4.193	3.715	2.997	2.685	2.760	2.615	2.721	2.808	2.860	3.059	3.428	3.747	3.872	4.297	4.123	4.321	4.389	4.890	4.563	4.652	4.595	4.735	4.319	4.124	3.879
350.0	1503	1857	1902	1596	1099	759.1	594.6	586.9	643.6	732.8	827.4	909.6	919.1	876.5	795.2	684.9	587.1	541.1	548.3	404.6	248.4	200.2	188.3	530.6	2343	4080	6036	1184	20.05	4.827	4.048	2.872	2.462	1.897	1.663	1.907	1.843	1.814	1.909	1.975	1.999	2.176	2.304	2.604	3.311	3.879	4.356	5.322	5.319	4.734	4.651	5.130	4.348	3.948	3.210	2.801	2.766	2.689	2.835	2.810	2.921	3.081	3.435	3.684	3.899	4.018	3.998	4.230	4.299	4.703	4.717	4.506	4.668	4.747	4.298	4.268	3.795
355.0	1385	1734	1769	1507	1095	764.4	632.8	617.3	654.4	729.3	803.7	863.8	871.1	849.5	783.0	681.8	595.4	511.9	477.0	507.5	368.2	231.3	186.2	227.0	595.4	988.3	4190	6833	404.3	21.01	5.621	3.844	2.807	2.186	1.825	1.923	2.006	1.919	1.902	1.884	1.890	2.161	2.321	2.635	2.966	3.379	3.917	5.135	4.890	4.372	4.553	4.714	4.436	3.954	3.263	2.844	2.819	2.776	2.862	2.915	3.062	3.404	3.361	3.755	3.667	3.851	4.095	4.141	4.422	4.338	4.536	4.324	4.339	4.568	4.219	4.056	4.295
360.0	1295	1592	1670	1451	1085	791.9	657.0	639.0	673.2	730.7	794.1	829.8	841.5	812.3	770.9	680.1	601.7	517.0	459.1	466.4	472.8	298.5	211.2	182.5	228.7	283.6	1117	4848	6791	340.6	12.91	4.724	3.540	2.363	1.938	1.863	2.112	1.936	2.048	1.836	1.968	1.966	2.233	2.544	2.930	3.287	3.818	4.509	4.688	4.219	3.927	4.482	4.068	3.748	3.321	2.951	2.992	2.984	3.048	3.081	3.229	3.300	3.424	3.603	3.952	3.793	3.988	4.172	4.377	4.434	4.341	4.271	4.279	4.618	4.259	4.157	4.028
365.0	1199	1472	1560	1359	1071	812.8	682.7	654.0	680.3	732.3	776.5	801.2	820.5	791.2	745.8	668.2	596.4	528.4	470.2	434.5	477.2	410.1	258.6	198.8	170.4	146.3	307.7	1396	6499	3165	50.87	7.845	4.214	2.779	2.474	1.954	2.156	1.934	2.079	1.842	2.047	2.032	2.291	2.451	2.706	3.165	3.526	4.056	4.367	4.150	4.009	4.461	3.897	3.831	3.428	3.001	3.056	3.167	2.881	3.230	3.281	3.104	3.422	3.631	3.815	3.670	4.035	3.822	4.220	4.334	4.273	4.071	4.255	4.278	4.349	3.991	3.935
370.0	1126	1335	1403	1259	1017	800.6	705.1	687.2	707.4	743.5	778.1	785.8	786.6	762.1	722.6	659.2	598.8	544.5	497.3	457.6	438.8	457.7	385.0	260.1	198.3	151.1	155.9	373.1	1853	4008	4758	1113	18.18	4.186	2.934	2.396	2.215	2.259	1.980	1.970	1.967	1.941	2.152	2.305	2.520	2.963	3.303	3.637	3.856	3.704	3.650	4.190	3.819	3.830	3.328	3.102	3.170	3.060	2.969	3.172	3.300	3.381	3.659	3.668	3.735	3.681	3.680	3.599	4.016	3.983	4.085	4.108	4.116	4.144	4.006	4.056	4.174
375.0	1017	1277	1262	1182	986.8	819.3	721.6	713.5	718.5	753.0	767.5	766.9	767.6	738.9	702.6	647.8	604.7	561.6	524.6	488.2	448.2	433.2	453.4	382.0	253.1	194.2	158.3	174.2	478.5	977.3	3427	6850	1568	18.30	4.497	3.285	2.569	2.457	2.089	2.232	1.926	2.107	2.010	2.302	2.523	2.713	2.903	3.561	3.428	3.562	3.290	4.070	3.848	3.641	3.363	3.049	3.159	3.308	3.108	3.288	3.528	3.503	3.574	3.572	3.405	3.574	3.462	3.494	3.902	4.048	3.900	3.809	4.169	4.382	3.749	3.994	3.906
380.0	949.8	1176	1208	1105	957.3	832.2	746.9	725.4	730.1	761.7	769.8	762.9	748.7	725.8	691.5	641.5	602.0	564.7	535.1	506.9	465.7	439.6	442.6	461.8	329.0	236.5	187.5	156.3	194.9	282.1	933.5	5099	6009	280.7	9.966	4.567	3.600	2.955	2.161	2.322	1.893	2.080	2.049	2.189	2.480	2.540	2.746	3.430	3.448	3.208	3.069	3.748	3.720	3.647	3.391	2.988	3.183	3.146	3.263	3.344	3.259	3.361	3.648	3.497	3.507	3.647	3.320	3.600	3.838	3.676	3.925	3.789	3.946	4.045	3.843	3.839	3.750
385.0	954.1	1091	1164	1066	948.8	833.4	753.4	734.5	747.3	773.9	779.2	770.9	750.7	722.7	690.1	637.3	601.9	567.9	543.6	525.2	489.0	464.4	443.8	466.4	431.9	295.4	228.3	185.9	162.8	152.7	275.3	1485	5624	2632	40.45	7.904	4.941	3.522	2.630	2.289	2.126	1.959	1.997	1.969	2.554	2.518	2.760	3.238	3.470	3.106	2.989	3.665	3.768	3.611	3.350	3.006	3.482	3.254	3.473	3.120	3.401	3.477	3.719	3.626	3.582	3.635	3.519	3.857	3.860	3.675	3.652	3.664	3.802	3.784	3.886	3.826	4.097
390.0	952.5	1065	1109	1051	975.4	864.7	822.6	807.0	813.7	843.0	860.9	848.9	820.7	784.7	721.9	663.7	622.7	584.6	572.6	555.7	534.6	513.3	495.5	482.2	493.1	430.2	327.3	265.5	221.6	184.2	176.0	415.9	1643	3116	2997	784.3	18.32	6.417	3.911	2.755	2.438	2.137	2.231	2.188	2.453	2.645	2.742	3.188	3.079	2.907	3.042	3.645	3.554	3.581	3.572	3.442	3.651	3.592	3.521	3.410	3.530	3.742	3.698	3.865	3.886	3.739	3.951	3.779	3.804	3.863	3.895	3.911	4.154	4.125	3.801	3.965	4.373
395.0	969.2	1081	1114	1096	1008	945.4	914.7	932.1	959.4	1032	1068	1080	1031	970.6	872.6	754.2	682.9	630.8	618.9	613.5	609.5	605.4	599.9	586.9	571.7	576.2	519.7	409.2	351.8	303.3	254.1	258.2	485.8	812.7	2203	4217	290.0	22.08	6.976	4.048	2.953	2.607	2.258	2.454	2.480	2.655	2.735	3.267	3.039	2.742	3.132	3.586	3.863	3.740	3.705	3.713	3.632	3.798	3.792	3.828	4.087	4.250	3.927	4.283	4.520	4.220	4.277	4.401	4.596	4.474	4.570	4.464	4.590	4.569	4.233	4.121	4.616
400.0	993.2	1120	1150	1141	1082	1055	1068	1097	1167	1285	1376	1384	1325	1223	1076	901.0	763.0	691.5	676.9	678.1	696.9	708.1	724.5	716.8	700.9	696.6	698.6	603.0	471.6	436.0	380.2	316.8	301.6	327.6	694.2	3304	3925	243.4	14.65	6.067	3.507	3.026	2.682	2.568	2.611	2.854	2.830	3.192	3.256	2.829	3.134	3.855	3.902	4.101	3.853	3.926	4.233	4.372	4.263	4.264	4.469	4.876	4.618	4.960	5.170	5.151	5.086	4.938	5.211	5.448	5.593	5.364	5.183	4.987	4.726	4.859	4.587
405.0	1053	1150	1158	1191	1195	1179	1227	1279	1411	1591	1752	1768	1687	1549	1322	1076	870.4	768.6	752.0	763.1	793.1	826.8	855.9	878.1	869.9	852.8	856.1	817.2	691.9	614.2	539.1	423.3	348.8	291.5	328.7	1086	3962	2257	38.11	9.193	4.637	3.466	3.040	2.949	2.953	2.807	2.936	3.162	3.311	3.052	3.173	4.233	4.245	4.328	4.364	4.289	4.680	4.781	4.881	4.940	5.259	5.468	5.552	5.799	6.200	6.124	6.119	5.729	5.996	6.502	6.347	6.107	5.945	5.830	5.452	5.770	5.272
410.0	1110	1193	1240	1269	1278	1311	1368	1461	1644	1899	2097	2142	2046	1847	1560	1239	970.5	841.0	812.2	831.0	883.0	932.0	983.9	1017	1021	1009	987.2	976.6	911.4	794.7	692.4	572.4	451.9	354.5	302.0	418.8	1244	2696	2782	747.9	13.71	4.176	3.225	3.117	3.149	3.181	2.932	3.450	3.427	3.176	3.443	4.261	4.351	4.480	4.661	4.742	5.059	5.405	5.142	5.488	5.470	5.977	6.100	6.474	6.819	6.870	7.105	6.908	7.230	6.948	6.751	6.943	6.513	6.428	5.869	5.768	5.551
415.0	1074	1147	1228	1263	1295	1345	1423	1526	1718	1974	2171	2240	2129	1914	1613	1274	985.1	844.4	818.0	841.9	894.0	954.2	1005	1054	1058	1044	1016	988.0	966.3	882.9	749.6	620.0	486.6	377.5	302.6	271.0	396.5	696.0	2089	3933	258.4	12.53	4.084	3.295	3.271	3.147	3.150	3.553	3.217	3.128	3.290	4.092	4.291	4.259	4.959	5.014	4.912	5.338	5.599	5.687	5.834	6.306	6.283	6.655	6.893	7.132	7.133	7.160	7.343	6.931	6.987	6.952	6.880	6.422	5.786	5.633	5.513
420.0	1040	1131	1186	1234	1287	1329	1422	1534	1700	1918	2113	2196	2079	1878	1568	1224	958.6	819.5	793.6	816.8	875.4	927.7	985.2	1027	1042	1024	1000	961.1	926.1	884.3	763.4	613.7	480.3	375.8	297.0	234.5	202.3	214.6	587.5	3062	3145	204.2	6.573	3.776	3.327	3.397	3.029	3.571	3.433	2.988	3.165	4.139	4.572	4.436	4.711	4.865	4.936	5.465	5.677	5.452	5.779	6.226	6.484	6.631	6.845	6.836	6.821	6.983	7.470	6.665	6.938	6.838	6.598	6.321	5.710	5.661	5.487
425.0	1076	1064	1181	1188	1266	1333	1424	1516	1685	1898	2072	2145	2046	1834	1540	1206	936.4	799.2	773.2	799.8	849.9	907.1	963.0	1007	1025	1011	988.2	941.7	893.6	860.5	781.4	622.9	481.2	377.5	297.1	225.0	160.1	109.0	161.8	928.7	3119	1910	32.97	4.811	3.793	3.272	3.319	3.379	3.277	3.090	3.217	3.959	4.601	4.503	4.702	4.840	5.129	5.561	5.610	5.514	5.836	6.232	6.444	6.655	6.709	6.569	6.801	6.736	7.166	6.747	6.937	6.303	6.189	6.361	6.007	5.597	5.451
430.0	1267	1112	1153	1203	1296	1395	1489	1589	1720	1933	2104	2175	2060	1852	1557	1217	939.2	801.4	771.6	792.3	839.5	895.7	955.2	1006	1026	1021	997.4	958.2	912.0	860.7	796.4	681.2	520.4	400.8	318.0	243.6	164.6	94.58	70.99	227.2	902.4	1991	2084	541.5	11.42	3.766	3.417	3.448	3.435	3.056	3.235	4.020	4.524	4.633	4.876	5.028	5.384	5.734	5.949	5.985	6.065	6.006	6.332	6.498	6.745	6.768	6.810	6.675	6.722	6.994	6.707	6.390	6.415	6.224	5.691	5.258	5.269
435.0	2183	1091	1147	1222	1348	1461	1568	1664	1768	1957	2110	2178	2067	1849	1563	1223	932.2	794.2	769.2	779.9	821.5	875.8	942.4	988.6	1023	1017	998.1	964.2	921.7	861.3	793.5	700.7	570.5	430.7	336.8	259.3	178.1	101.5	56.36	73.45	215.7	477.6	1450	2485	239.7	11.82	3.909	3.737	3.675	3.103	3.263	4.175	4.567	4.758	5.023	5.385	5.869	6.019	6.141	6.172	6.178	6.046	6.289	6.525	6.482	6.878	6.981	6.627	6.716	6.623	6.594	6.423	6.135	6.271	5.589	5.493	4.913
440.0	2995	1296	1156	1227	1356	1458	1586	1661	1759	1905	2042	2099	1987	1791	1496	1192	909.0	774.5	746.8	753.9	789.0	834.4	906.8	944.4	973.2	974.8	961.4	927.8	893.4	835.4	766.7	669.9	566.1	442.5	339.9	261.3	179.7	105.0	56.17	41.90	64.63	118.9	391.8	1822	2011	190.3	6.724	4.281	3.764	3.145	3.311	4.383	4.568	4.665	5.063	5.243	5.852	6.118	6.174	6.286	5.998	6.049	6.161	6.551	6.423	6.619	6.518	6.609	6.694	6.415	6.563	6.535	6.120	6.087	5.408	5.495	4.811
445.0	3444	1779	1121	1185	1313	1446	1555	1632	1670	1784	1899	1941	1849	1658	1405	1103	860.4	735.0	705.5	712.0	737.8	780.2	838.7	879.2	904.7	903.5	897.2	872.1	835.7	782.7	710.7	618.1	523.3	432.2	332.2	252.2	176.0	104.1	58.18	37.04	32.83	39.74	98.19	535.9	2427	1586	28.51	5.855	3.865	3.335	3.236	4.260	4.623	4.487	5.259	5.308	6.076	5.996	6.172	6.208	5.998	5.893	6.030	6.401	6.157	6.051	5.817	6.055	6.371	5.847	6.114	5.999	5.812	5.691	5.211	5.071	4.917
450.0	2436	3260	1216	1115	1246	1389	1502	1539	1537	1588	1682	1707	1622	1461	1234	983.4	778.4	669.6	640.5	644.7	656.2	687.2	738.9	773.6	791.5	793.7	784.8	765.1	738.9	690.9	629.0	546.9	453.6	383.8	318.6	235.3	161.1	98.76	59.02	38.03	28.49	24.83	33.54	129.2	700.6	1391	1770	625.3	11.02	3.564	3.364	4.175	4.340	4.674	4.883	5.186	5.959	6.009	5.877	5.952	5.575	5.731	5.620	5.664	5.395	5.256	5.597	5.588	5.620	5.344	5.516	5.392	5.092	5.040	4.602	4.479	4.406
455.0	1276	3627	2173	1041	1181	1305	1408	1436	1398	1414	1459	1484	1406	1267	1088	869.6	690.5	603.0	578.8	577.5	575.3	601.5	639.9	670.6	685.6	689.9	685.9	670.1	643.7	611.9	561.4	485.9	398.6	333.1	285.4	229.1	154.2	94.93	59.42	39.66	29.84	23.31	20.59	39.16	164.7	329.7	1080	2810	204.3	11.66	3.452	4.128	4.266	4.574	4.677	4.975	5.491	5.867	5.496	5.567	4.946	5.073	5.177	4.932	4.990	4.649	5.039	5.149	5.077	4.716	4.786	4.976	4.757	4.865	4.168	3.827	4.059
460.0	913.8	2609	3249	1130	1108	1223	1342	1360	1306	1284	1331	1340	1282	1154	984.2	792.4	633.5	554.9	529.1	522.7	523.5	539.7	579.0	604.2	617.0	622.9	620.0	602.4	582.6	556.5	512.7	443.9	370.7	305.0	258.2	220.9	155.9	94.37	61.13	41.43	31.03	24.39	19.35	19.81	46.00	81.47	281.8	1932	2274	158.0	7.330	4.367	4.234	4.420	4.663	4.694	5.507	5.790	5.685	5.358	5.041	5.065	4.530	4.624	4.697	4.499	4.478	4.445	4.620	4.614	4.682	4.479	4.217	4.459	3.965	3.953	3.726
465.0	734.6	1502	3505	1639	1023	1157	1276	1278	1214	1178	1202	1221	1153	1049	896.3	729.6	584.8	510.6	485.5	479.4	473.8	487.5	520.2	544.3	560.2	565.1	561.2	552.4	532.2	508.4	469.3	408.8	340.8	280.4	233.4	200.0	157.5	97.23	61.67	42.41	31.87	24.75	20.06	16.60	20.38	25.94	70.50	547.2	2072	1289	130.9	5.707	4.224	4.405	4.654	4.595	5.192	5.036	5.489	5.248	4.980	4.813	4.240	4.207	4.232	4.214	4.324	4.009	4.395	4.312	4.230	3.977	3.850	3.921	3.410	3.654	3.361
470.0	676.8	879.0	2358	2800	1131	1049	1149	1137	1071	1030	1048	1050	998.8	909.0	775.1	627.0	512.4	448.3	426.7	417.5	409.1	420.6	443.9	465.8	477.5	482.7	480.8	472.8	457.5	438.0	406.8	355.8	299.1	247.5	205.5	171.1	139.7	100.6	64.53	43.36	32.91	25.97	21.38	17.27	15.31	14.82	23.36	129.3	572.8	1034	1300	494.3	11.89	4.297	4.420	4.225	4.657	4.879	5.024	4.737	4.355	4.166	4.042	3.916	3.786	3.761	3.798	3.635	3.796	3.730	3.698	3.558	3.498	3.406	3.255	3.121	3.205
475.0	663.1	654.0	1113	2860	1969	937.7	1004	988.8	918.9	867.6	873.4	878.1	821.5	754.7	650.5	527.5	433.1	382.7	365.8	354.1	341.4	350.1	369.6	386.0	392.2	399.4	400.8	391.5	383.2	365.6	340.1	299.4	253.2	209.6	174.8	144.3	114.4	91.35	69.07	45.05	33.61	26.58	21.02	17.84	15.21	13.16	13.50	35.96	133.5	239.5	625.3	1620	208.2	14.84	4.198	4.215	4.131	4.427	4.614	4.240	3.910	3.570	3.429	3.275	3.304	3.464	3.225	3.195	3.076	3.012	3.182	2.936	2.948	3.017	2.699	2.731	2.795
480.0	644.8	596.6	687.7	1997	2961	977.8	896.2	879.3	825.4	762.0	761.2	761.2	717.3	648.8	558.2	462.5	384.7	338.7	322.8	312.2	303.5	305.7	318.5	331.4	340.4	342.0	343.2	337.3	329.9	314.8	296.5	262.4	223.6	186.5	156.0	127.7	100.3	78.93	68.54	49.46	34.64	26.49	21.35	18.08	15.44	13.37	11.62	15.57	35.64	58.38	154.4	893.8	1567	198.9	9.497	4.099	4.252	3.966	4.302	3.645	3.349	3.292	3.192	3.043	3.041	2.893	2.992	3.013	2.861	2.733	2.758	2.779	2.647	2.480	2.510	2.499	2.300
485.0	566.6	590.6	554.7	1120	3288	1443	810.0	817.1	728.3	673.9	671.5	666.4	631.2	578.0	494.0	406.4	342.7	302.9	291.6	278.2	268.1	268.4	280.7	291.3	298.0	301.6	298.1	298.5	289.6	278.7	262.2	231.9	198.2	167.2	143.4	115.8	91.28	70.01	61.74	53.62	37.30	26.92	22.31	18.17	16.23	13.73	12.26	11.14	14.45	18.17	39.21	234.9	1226	1505	158.3	5.870	3.872	3.852	3.863	3.593	3.430	3.142	2.933	2.551	2.599	2.581	2.739	2.604	2.518	2.459	2.540	2.723	2.543	2.325	2.190	2.298	2.015
490.0	449.4	562.6	495.4	651.1	2167	2616	983.6	713.2	644.2	588.2	577.5	581.0	540.0	492.9	423.7	349.4	296.1	266.4	251.4	240.3	232.5	229.6	239.3	247.6	255.0	257.1	255.1	253.5	248.2	240.1	225.8	200.1	172.8	146.3	123.7	103.9	81.79	63.54	52.06	48.52	42.12	30.31	22.76	19.03	16.87	13.93	12.69	11.17	10.21	9.856	13.71	56.87	320.4	913.8	1321	546.8	14.14	4.102	3.737	3.323	3.108	2.869	2.607	2.432	2.299	2.134	2.262	2.213	2.212	2.349	2.110	2.321	2.162	1.896	2.054	1.930	1.777
495.0	380.5	496.7	479.4	472.7	967.2	2824	2115	625.6	551.2	501.8	499.7	487.1	455.0	414.6	361.4	296.3	252.8	226.9	216.8	204.3	196.2	197.0	199.4	208.4	215.5	213.8	214.5	213.8	211.1	203.0	194.9	171.0	149.2	127.6	107.3	91.04	72.19	56.10	45.60	39.53	38.92	35.79	24.68	19.49	17.04	14.36	12.79	11.97	10.52	8.453	8.468	17.56	75.92	209.2	590.8	1540	235.9	20.01	3.597	3.342	2.749	2.624	2.285	2.252	2.224	1.923	2.025	2.075	1.977	2.015	2.011	2.084	1.906	1.802	1.661	1.741	1.703
500.0	323.4	409.0	478.5	409.7	554.8	2019	3397	697.0	485.1	449.8	436.0	427.6	402.6	361.7	315.6	259.7	224.6	197.7	192.0	178.7	170.0	170.2	174.9	181.0	185.2	188.6	187.1	185.4	183.7	177.5	168.6	148.9	131.9	113.1	96.51	81.03	66.52	52.27	41.21	34.94	33.40	36.06	28.88	20.55	16.46	14.99	12.75	11.81	10.33	8.411	7.510	8.998	21.20	50.73	141.7	744.0	1152	230.9	13.93	3.336	2.557	2.362	2.224	2.095	1.940	1.934	1.781	1.865	1.872	1.791	1.905	1.820	1.836	1.682	1.521	1.473	1.541
505.0	300.2	337.3	469.6	391.8	426.1	1097	3829	1238	425.7	395.1	383.8	372.3	349.1	318.0	274.4	232.7	199.0	173.1	167.8	157.3	149.4	147.0	152.7	157.6	163.4	163.6	161.8	160.1	158.5	156.7	146.4	131.3	116.8	99.64	86.51	72.39	59.97	46.82	38.52	33.06	29.43	31.81	30.18	22.03	16.79	14.88	13.09	11.56	9.980	8.829	7.663	7.034	9.286	15.48	35.42	185.5	697.0	1267	200.4	7.680	2.414	2.390	2.024	1.954	1.568	1.730	1.736	1.666	1.599	1.803	1.567	1.706	1.517	1.521	1.445	1.417	1.367
510.0	250.0	274.6	359.2	382.8	353.4	539.7	2374	2699	556.0	334.6	323.1	315.9	292.8	265.8	226.0	194.8	167.1	146.5	140.1	133.4	125.5	123.2	127.4	132.6	134.7	135.1	135.6	132.0	132.9	130.5	121.9	110.5	96.85	84.70	72.74	62.06	52.86	41.32	34.51	30.08	25.89	25.03	27.05	24.49	18.71	14.75	12.98	11.17	10.06	8.632	8.002	7.110	6.521	7.417	11.56	44.85	172.7	628.1	1225	510.0	15.03	2.472	1.931	1.718	1.493	1.466	1.529	1.465	1.353	1.522	1.322	1.485	1.361	1.375	1.331	1.239	1.279
515.0	209.8	216.4	264.5	358.2	320.3	348.8	896.7	3054	1528	289.2	264.2	255.6	237.9	218.6	188.2	158.3	135.7	121.5	118.1	108.6	102.6	100.3	104.8	107.0	108.8	109.2	110.3	108.1	107.7	106.5	99.90	90.22	81.89	69.41	61.53	52.57	44.33	36.77	30.65	26.73	23.77	21.51	20.96	23.14	21.51	15.78	12.14	10.93	9.851	8.271	7.665	7.194	6.028	5.641	6.075	13.32	41.12	143.2	438.0	1089	616.6	21.70	2.038	1.536	1.470	1.213	1.387	1.312	1.137	1.432	1.207	1.130	1.222	1.219	1.114	1.141	1.098
520.0	179.6	197.6	213.1	304.8	311.2	284.7	424.8	1990	2601	313.7	230.9	223.5	208.6	188.3	160.5	135.3	117.0	104.9	101.2	94.86	87.83	87.88	90.43	90.51	93.15	93.93	94.34	90.81	89.50	90.48	85.49	78.09	69.80	60.14	54.53	45.56	39.90	33.15	27.73	24.37	22.11	19.79	18.00	18.96	21.38	16.82	12.41	10.35	9.394	7.874	7.139	7.078	6.156	5.147	4.770	6.207	12.16	34.57	102.6	442.4	1028	240.4	14.78	1.730	1.386	1.309	1.248	1.123	1.060	1.229	1.091	1.011	1.092	0.965	1.001	0.983	0.950
525.0	155.1	182.2	191.4	247.0	301.5	253.6	287.3	918.6	3294	852.8	203.9	196.1	183.8	163.2	138.7	119.6	101.9	92.89	89.56	81.49	77.28	75.70	77.51	78.35	79.89	80.18	79.07	77.70	77.80	78.48	72.85	66.48	59.93	52.99	46.18	41.12	34.75	29.87	25.24	22.19	20.47	18.54	16.23	15.90	18.67	18.24	13.60	10.20	8.945	7.770	6.888	6.543	5.932	5.207	4.457	4.509	5.477	10.42	25.37	106.0	511.9	1077	211.0	6.760	1.506	1.397	1.091	1.028	1.081	1.047	0.932	1.025	1.104	0.984	0.893	0.922	0.998
530.0	135.1	150.7	153.3	179.5	276.7	248.9	225.7	377.7	2019	2192	365.9	164.3	151.4	136.6	115.9	98.63	85.51	77.89	74.34	68.76	65.10	62.53	63.25	65.45	66.02	66.28	65.34	64.57	65.26	64.13	60.44	56.20	49.39	43.80	38.68	34.50	29.87	25.95	22.31	19.77	18.10	16.04	14.28	13.93	14.47	16.08	15.12	11.16	8.524	7.308	6.512	6.008	5.339	4.987	4.488	3.912	3.711	4.599	7.812	25.63	122.3	485.2	847.2	318.2	15.41	1.510	1.121	1.058	1.129	1.001	0.988	0.870	0.919	0.884	0.780	0.775	0.878
535.0	108.4	122.2	125.3	139.2	198.7	261.5	186.8	209.6	667.9	2455	1447	143.2	124.9	110.5	96.61	79.86	71.07	63.85	60.93	55.29	53.40	50.48	50.99	53.64	53.84	53.67	53.56	52.63	52.60	51.88	48.22	45.58	41.01	37.17	32.72	28.91	24.62	21.63	19.25	16.78	15.57	13.64	12.75	11.94	11.95	11.96	13.73	12.23	8.835	6.447	5.953	5.275	4.605	4.517	4.263	3.711	3.109	3.127	3.585	7.510	28.84	109.9	264.7	591.9	509.6	20.94	1.262	1.039	1.041	0.923	0.838	0.790	0.866	0.851	0.782	0.752	0.733
540.0	105.2	105.1	110.9	120.9	151.6	240.2	183.2	159.9	259.6	1517	3110	197.3	109.1	95.49	84.71	68.90	59.11	54.94	53.34	48.13	45.37	43.68	42.63	45.47	46.21	46.35	46.20	44.55	44.74	44.08	41.50	38.47	34.99	31.80	28.20	24.36	22.12	18.96	16.89	15.20	13.61	12.76	11.53	10.67	10.21	10.07	11.02	12.13	9.326	6.123	5.753	5.157	4.430	4.168	3.707	3.742	3.226	2.880	2.625	3.470	7.828	25.91	61.25	223.7	725.9	231.0	13.13	1.139	1.047	0.919	0.734	0.745	0.800	0.762	0.726	0.687	0.709
545.0	103.0	103.9	101.4	106.6	126.4	199.3	193.5	135.5	149.9	636.3	3837	651.4	96.70	77.95	73.93	59.63	51.27	47.10	45.21	41.16	38.98	36.21	36.95	38.78	39.32	38.76	38.89	38.84	38.31	37.37	35.86	33.08	30.27	26.98	25.20	21.56	19.22	16.81	14.46	13.40	12.31	11.19	10.48	9.786	9.255	8.631	8.795	10.23	9.508	6.561	5.355	4.392	4.131	3.800	3.479	3.397	3.349	2.625	2.241	2.470	3.162	7.025	15.05	52.99	320.8	599.0	183.9	6.705	0.955	0.834	0.742	0.703	0.684	0.749	0.694	0.652	0.584
550.0	97.28	87.66	89.12	90.35	97.07	138.0	198.7	127.3	105.5	222.1	2176	2079	151.2	66.16	59.29	48.57	42.38	38.79	37.10	33.44	31.38	29.25	30.79	31.52	31.56	31.01	30.97	31.55	30.96	30.40	29.24	27.65	24.04	22.05	20.23	17.88	15.60	14.12	12.71	11.15	10.60	9.666	9.062	8.421	7.975	7.535	7.124	7.487	8.574	7.460	5.404	4.048	3.645	3.321	3.114	2.807	2.958	2.793	2.104	2.015	1.972	2.757	4.546	12.97	75.41	247.3	427.3	224.7	15.75	1.169	0.770	0.698	0.625	0.614	0.621	0.637	0.575
555.0	80.57	76.72	72.26	72.89	74.03	92.57	156.7	137.8	84.47	107.0	622.7	2701	1111	59.42	46.87	38.22	33.59	30.25	29.95	27.07	24.10	23.82	24.28	24.77	24.79	24.30	23.36	23.78	24.13	23.79	22.80	20.64	19.59	17.46	15.87	14.65	12.27	11.39	10.05	8.931	8.796	7.948	7.576	7.095	6.478	6.392	5.774	5.808	6.013	7.041	5.669	4.308	3.086	2.890	2.489	2.311	2.267	2.524	2.173	1.721	1.489	1.638	1.938	3.831	17.60	56.05	128.5	388.3	251.7	20.38	0.883	0.687	0.632	0.633	0.555	0.548	0.562
560.0	71.01	77.39	66.87	61.57	59.84	68.51	113.9	151.8	74.44	70.36	191.8	1663	2950	99.13	39.13	32.15	27.97	25.58	25.10	21.67	20.44	20.15	19.55	21.04	20.63	20.37	19.42	19.32	19.27	20.01	18.92	17.64	15.94	14.48	13.11	11.73	10.75	9.588	8.835	7.884	7.408	6.930	6.603	5.816	5.485	5.275	5.018	5.124	4.578	5.341	5.610	4.296	3.068	2.592	2.352	2.031	2.116	1.999	2.185	1.835	1.375	1.311	1.354	1.661	4.843	13.29	29.71	144.4	444.3	225.8	11.20	0.847	0.584	0.660	0.583	0.433	0.377
565.0	72.73	69.68	59.06	52.22	52.99	58.05	79.32	146.0	79.63	57.79	87.77	626.2	3893	406.9	35.05	27.29	23.52	21.12	20.99	18.89	16.85	16.95	16.90	16.95	16.73	16.61	16.30	16.62	16.58	15.61	15.55	14.80	13.10	12.34	10.95	9.548	9.142	8.368	7.513	6.588	6.233	6.315	5.413	5.199	4.932	4.653	4.135	4.310	3.641	4.083	4.991	4.543	2.839	2.451	2.123	1.786	1.820	1.653	1.775	1.907	1.377	1.235	1.199	1.139	1.936	3.772	7.389	34.14	191.9	502.3	158.7	3.699	0.703	0.507	0.496	0.462	0.477
570.0	70.44	70.92	56.58	49.25	46.38	47.96	54.55	106.0	108.0	51.66	58.15	187.8	2228	1604	78.51	22.99	18.94	17.26	17.23	15.20	13.95	13.64	13.63	13.41	13.01	13.17	13.04	13.16	13.27	12.55	12.33	11.45	10.32	9.611	8.481	7.782	7.411	6.793	6.154	5.629	5.227	5.112	4.511	4.257	4.075	3.742	3.673	3.435	2.959	2.938	3.356	3.800	3.097	2.499	1.862	1.661	1.510	1.452	1.470	1.524	1.570	1.316	1.071	0.944	1.206	1.546	2.370	8.310	45.08	204.7	322.4	141.0	13.19	0.802	0.528	0.460	0.477
575.0	63.41	70.14	53.60	41.75	40.06	41.85	41.66	66.59	118.9	61.48	46.91	75.83	604.0	2136	645.6	21.42	15.20	14.22	14.55	11.81	10.88	10.49	10.95	10.42	11.06	10.70	10.16	10.28	10.33	9.886	9.663	8.907	8.281	7.666	6.952	6.213	5.795	5.344	5.338	4.533	4.222	4.104	3.838	3.468	3.216	3.192	3.098	2.738	2.480	2.304	2.238	2.696	2.987	2.655	1.649	1.626	1.334	1.301	1.207	1.032	1.303	1.513	1.149	0.831	0.908	1.098	1.156	2.604	10.76	46.20	92.73	251.6	214.0	18.71	0.592	0.536	0.481
580.0	68.88	67.06	49.50	36.39	36.73	35.28	34.77	44.09	101.0	84.68	44.88	50.01	168.0	1315	1741	42.79	13.28	11.88	12.26	9.904	9.492	8.770	8.761	8.839	9.268	8.892	8.282	8.720	8.278	8.341	7.981	7.120	6.883	6.257	5.713	5.300	5.079	4.485	4.486	3.977	3.572	3.290	3.127	2.961	2.795	2.572	2.593	2.589	2.289	2.107	1.764	2.127	2.513	2.616	1.943	1.487	1.211	1.145	1.078	0.964	0.997	1.332	1.464	0.852	0.776	0.828	0.849	1.181	3.043	10.92	21.51	90.80	290.5	174.6	11.81	0.547	0.414
585.0	67.63	67.45	49.86	37.49	31.70	31.70	32.66	35.16	71.33	105.6	48.14	43.54	65.05	476.7	2412	110.8	12.44	9.952	11.71	8.589	8.384	7.584	7.841	7.816	7.724	7.647	7.070	7.380	7.438	7.138	6.639	6.056	6.058	5.472	5.062	4.555	4.252	3.890	3.768	3.584	3.075	3.086	2.652	2.495	2.438	2.344	2.362	2.243	1.906	1.892	1.633	1.580	1.909	2.373	2.062	1.373	1.173	1.058	0.865	0.942	0.860	0.944	1.377	1.019	0.777	0.721	0.846	0.830	1.256	2.986	5.416	21.47	122.6	292.2	133.9	2.836	0.415
590.0	66.40	58.84	47.82	32.83	28.86	27.32	28.91	29.78	45.60	102.2	63.83	38.61	41.59	133.9	1462	900.4	32.22	8.922	10.32	6.840	6.611	6.281	6.202	6.449	6.149	6.025	5.749	5.908	5.858	5.738	5.855	5.093	4.738	4.614	4.129	3.684	3.557	3.236	2.887	2.760	2.553	2.615	2.346	2.148	2.077	1.959	1.855	1.896	1.678	1.565	1.384	1.364	1.351	1.637	1.886	1.574	1.145	0.937	0.853	0.860	0.777	0.773	0.948	1.169	0.997	0.748	0.705	0.676	0.841	1.206	1.714	5.267	28.76	110.1	231.4	108.8	10.16
595.0	58.60	57.40	39.22	32.55	24.45	25.64	27.09	26.64	32.86	67.81	90.08	41.44	35.24	47.89	399.5	1228	237.4	8.495	9.175	5.887	5.509	5.711	4.976	4.848	5.032	5.018	4.705	4.678	4.896	4.809	4.518	4.107	3.827	3.774	3.168	3.094	2.776	2.538	2.631	2.314	2.330	2.126	1.966	1.839	1.775	1.648	1.548	1.488	1.314	1.236	1.204	1.112	0.979	1.202	1.545	1.572	1.203	0.829	0.763	0.727	0.710	0.681	0.727	0.923	1.017	0.897	0.793	0.581	0.616	0.766	0.866	1.603	6.833	24.95	65.88	163.6	102.2
600.0	62.03	53.01	37.96	31.86	21.25	23.80	23.01	26.18	27.29	46.77	97.36	48.90	33.46	28.89	107.4	792.2	642.0	16.38	8.957	5.345	5.046	4.745	4.438	4.218	4.187	4.394	4.069	3.965	3.916	3.874	3.665	3.388	3.101	3.214	2.943	2.584	2.543	2.199	2.184	2.080	1.980	1.823	1.811	1.474	1.469	1.611	1.400	1.249	1.159	1.014	0.995	0.941	0.946	0.955	1.055	1.479	1.381	0.942	0.720	0.706	0.663	0.620	0.613	0.726	0.845	1.041	0.773	0.549	0.536	0.631	0.583	0.739	1.869	6.003	15.27	57.53	131.7
605.0	50.27	46.09	39.19	30.66	21.37	21.91	21.53	25.29	27.58	36.15	82.45	63.12	33.74	25.72	36.54	304.5	942.0	70.33	9.460	4.792	4.970	4.094	3.828	3.262	3.480	3.596	3.355	3.345	3.434	3.294	3.228	3.172	2.921	2.494	2.429	2.270	1.995	1.974	1.985	1.641	1.649	1.680	1.547	1.308	1.472	1.303	1.266	1.311	1.048	0.888	0.832	0.861	0.812	0.831	0.780	1.038	1.358	0.974	0.847	0.737	0.637	0.625	0.541	0.613	0.703	0.851	0.826	0.596	0.601	0.607	0.569	0.553	0.839	1.623	3.751	13.54	54.39
610.0	55.56	45.86	39.34	26.41	21.27	18.77	22.04	22.69	27.06	32.72	61.51	81.60	39.86	25.82	22.25	85.18	621.1	494.5	36.78	4.322	4.359	3.505	3.087	3.068	3.253	3.083	3.077	2.727	2.820	2.881	2.696	2.510	2.393	2.099	2.080	1.873	1.830	1.708	1.617	1.493	1.279	1.344	1.252	1.148	1.188	1.075	1.102	1.083	0.907	0.789	0.784	0.765	0.695	0.745	0.651	0.746	1.067	1.044	0.892	0.690	0.555	0.608	0.545	0.589	0.616	0.635	0.760	0.749	0.584	0.508	0.521	0.516	0.611	0.671	1.218	3.393	12.82
615.0	47.81	48.45	36.21	25.55	20.47	17.98	19.71	23.32	25.49	31.95	45.28	78.67	53.90	26.40	20.26	28.77	183.9	794.6	468.7	4.168	3.533	3.158	2.916	2.837	2.734	2.844	2.459	2.291	2.280	2.228	2.007	2.013	2.014	1.841	1.698	1.533	1.598	1.360	1.399	1.357	1.100	1.022	1.066	1.030	0.960	1.043	0.929	0.909	0.881	0.739	0.672	0.611	0.589	0.620	0.602	0.664	0.752	0.746	0.908	0.709	0.565	0.447	0.493	0.545	0.563	0.517	0.642	0.723	0.820	0.543	0.610	0.457	0.473	0.424	0.599	1.069	3.203
620.0	46.63	43.75	37.15	24.94	20.03	18.16	18.99	21.70	25.40	32.26	39.19	63.91	65.17	27.04	18.96	15.55	53.03	579.2	1809	8.240	3.376	2.806	2.423	2.468	2.413	2.339	2.266	1.888	1.964	1.972	1.897	1.773	1.755	1.610	1.381	1.559	1.322	1.166	1.218	1.059	0.952	0.972	0.917	0.962	0.915	0.884	0.874	0.687	0.736	0.670	0.512	0.532	0.576	0.580	0.503	0.530	0.513	0.670	0.783	0.716	0.564	0.505	0.481	0.511	0.577	0.416	0.561	0.600	0.831	0.670	0.483	0.506	0.451	0.436	0.506	0.514	1.006
625.0	43.40	41.96	37.28	23.79	18.66	18.30	20.21	22.30	25.92	29.57	33.44	50.60	68.65	29.36	17.81	12.75	20.07	243.5	2749	45.01	3.720	2.663	2.491	2.245	2.084	2.074	2.036	1.702	1.657	1.862	1.687	1.630	1.566	1.258	1.301	1.301	1.287	1.075	1.114	1.024	0.917	0.903	0.790	0.774	0.749	0.770	0.777	0.681	0.683	0.645	0.501	0.470	0.503	0.525	0.549	0.456	0.439	0.534	0.699	0.725	0.572	0.552	0.500	0.531	0.542	0.497	0.501	0.417	0.643	0.764	0.549	0.498	0.370	0.364	0.422	0.413	0.523
630.0	43.76	42.54	32.84	23.30	17.82	18.21	18.54	21.97	22.90	28.27	33.34	40.66	59.45	41.83	19.11	12.39	12.38	66.66	1875	379.3	10.31	2.411	2.178	2.103	1.991	1.700	1.767	1.486	1.525	1.482	1.479	1.287	1.235	1.183	1.071	1.020	1.031	0.929	0.891	1.015	0.875	0.798	0.722	0.706	0.700	0.609	0.658	0.637	0.605	0.536	0.476	0.475	0.479	0.457	0.496	0.464	0.403	0.481	0.485	0.660	0.682	0.607	0.513	0.453	0.472	0.470	0.468	0.433	0.525	0.618	0.613	0.557	0.405	0.366	0.420	0.401	0.447
635.0	44.71	42.00	31.70	22.49	17.51	16.01	18.75	20.97	23.36	27.43	32.90	34.32	44.61	52.00	22.80	12.87	10.74	21.61	573.7	701.6	63.71	2.610	2.145	1.827	1.656	1.517	1.674	1.402	1.430	1.399	1.248	1.214	1.314	1.039	1.097	0.912	0.994	0.797	0.767	0.738	0.821	0.604	0.651	0.644	0.655	0.612	0.573	0.555	0.558	0.501	0.471	0.419	0.421	0.466	0.410	0.404	0.519	0.427	0.441	0.481	0.559	0.617	0.519	0.460	0.454	0.441	0.422	0.463	0.450	0.482	0.676	0.591	0.485	0.488	0.432	0.345	0.367
640.0	41.08	47.32	36.90	21.27	18.32	15.48	18.48	21.63	23.14	26.02	32.51	34.90	36.68	51.82	27.85	14.64	12.49	11.33	152.0	561.5	409.3	4.117	1.919	1.705	1.522	1.326	1.577	1.320	1.138	1.216	1.152	1.194	1.048	0.942	0.968	0.836	0.836	0.801	0.652	0.747	0.691	0.613	0.669	0.564	0.485	0.536	0.494	0.539	0.498	0.417	0.364	0.393	0.417	0.411	0.410	0.428	0.445	0.333	0.432	0.355	0.497	0.538	0.487	0.394	0.370	0.382	0.465	0.461	0.424	0.479	0.535	0.666	0.576	0.423	0.403	0.397	0.383
645.0	56.98	49.56	36.13	23.71	20.29	17.73	19.49	19.66	23.95	26.09	32.64	33.66	34.77	44.88	36.45	17.35	12.67	9.461	41.70	256.5	765.0	24.06	1.709	1.612	1.441	1.216	1.499	1.127	1.066	1.053	1.000	0.957	0.966	0.920	0.790	0.771	0.833	0.738	0.658	0.627	0.521	0.674	0.508	0.523	0.496	0.547	0.431	0.508	0.491	0.425	0.354	0.417	0.454	0.375	0.375	0.391	0.377	0.394	0.360	0.394	0.466	0.457	0.492	0.482	0.373	0.473	0.485	0.393	0.547	0.433	0.533	0.513	0.632	0.427	0.398	0.395	0.356
650.0	56.37	48.43	39.58	29.41	21.54	17.18	18.83	19.31	22.42	27.11	31.99	33.05	32.56	37.73	41.96	19.78	13.02	10.26	16.18	79.14	784.3	68.03	1.821	1.701	1.478	1.209	1.318	1.136	1.077	1.001	0.883	0.920	0.941	0.848	0.859	0.775	0.836	0.706	0.594	0.609	0.552	0.637	0.510	0.567	0.518	0.550	0.425	0.490	0.439	0.386	0.340	0.373	0.363	0.337	0.326	0.376	0.369	0.420	0.369	0.479	0.442	0.457	0.468	0.474	0.527	0.397	0.425	0.311	0.487	0.491	0.465	0.460	0.531	0.582	0.371	0.384	0.345
