Sample:	'1
File name:	C2025031903瑞光热电集水池.FD3
Run date:	'16:42:25, 03/19/2025
Operator:	Administrator
Comment:	'

Instrument
Model:	F-2700 FL Spectrophotometer
Serial number:	23B8-004
ROM Version:	4J14000 07

Instrument parameters
Measurement type:	3-D scan
Data mode:	Fluorescence
EX  Start WL:	220.0 nm
EX  End WL:	600.0 nm
EX Sampling interval:	5.0 nm
EM  Start WL:	230.0 nm
EM  End WL:	650.0 nm
EM Sampling interval:	5.0 nm
Scan speed:	12000 nm/min
EX Slit:	5.0 nm
EM Slit:	5.0 nm
PMT Voltage:	700 V
Response:	Auto 
Corrected spectra:	Off
Contour interval:	50.000

Peak integration
Integration method:	Rectangular
Sensitivity:	1
Threshold:	1.000

Peaks
No.	ApexEX/EM(nm)	Height(Data)
1	235.0/630.0	45.73
2	240.0/340.0	2347
3	240.0/350.0	2351
4	240.0/525.0	165.5
5	245.0/535.0	147.3
6	250.0/550.0	129.2
7	255.0/280.0	573.3
8	255.0/560.0	111.9
9	260.0/285.0	545.4
10	260.0/575.0	99.60
11	265.0/585.0	89.93
12	275.0/320.0	3751
13	275.0/615.0	225.5
14	320.0/360.0	444.6
15	325.0/370.0	375.1
16	330.0/375.0	348.2
17	335.0/380.0	325.0
18	345.0/395.0	244.1
19	350.0/400.0	242.1
20	360.0/415.0	184.1
21	365.0/420.0	179.8
22	380.0/440.0	117.6
23	395.0/460.0	70.73
24	400.0/465.0	60.66
25	415.0/485.0	34.98
26	425.0/495.0	25.71
27	430.0/505.0	22.58
28	445.0/525.0	13.63
29	480.0/350.0	10.17
30	515.0/280.0	3.973
31	520.0/285.0	4.404
32	530.0/290.0	4.188
33	560.0/315.0	19.17

Data points
	220.0	225.0	230.0	235.0	240.0	245.0	250.0	255.0	260.0	265.0	270.0	275.0	280.0	285.0	290.0	295.0	300.0	305.0	310.0	315.0	320.0	325.0	330.0	335.0	340.0	345.0	350.0	355.0	360.0	365.0	370.0	375.0	380.0	385.0	390.0	395.0	400.0	405.0	410.0	415.0	420.0	425.0	430.0	435.0	440.0	445.0	450.0	455.0	460.0	465.0	470.0	475.0	480.0	485.0	490.0	495.0	500.0	505.0	510.0	515.0	520.0	525.0	530.0	535.0	540.0	545.0	550.0	555.0	560.0	565.0	570.0	575.0	580.0	585.0	590.0	595.0	600.0
230.0	40.79	185.5	688.2	360.4	36.81	12.97	10.94	10.42	9.241	8.747	8.134	7.701	6.989	6.102	5.032	4.415	4.128	3.714	3.339	2.985	2.724	2.759	2.532	2.314	2.159	2.110	1.863	1.767	1.741	1.791	1.637	1.484	1.461	1.443	1.213	1.175	1.107	1.054	1.031	0.950	0.896	0.925	0.927	0.865	0.836	0.813	0.832	1.217	2.266	2.779	2.130	0.994	0.658	0.620	0.664	0.601	0.644	0.653	0.650	0.631	0.613	0.585	0.626	0.596	0.655	0.650	0.631	0.583	0.612	0.583	0.586	0.584	0.565	0.543	0.606	0.621	0.629
235.0	45.08	76.93	734.3	2613	559.4	97.92	14.69	11.64	10.31	9.127	8.816	7.914	7.417	6.391	5.001	4.619	4.445	3.895	3.318	3.135	2.664	2.771	2.560	2.518	2.175	2.190	1.857	1.816	1.660	1.634	1.571	1.524	1.447	1.295	1.319	1.221	1.075	1.067	0.976	1.011	0.903	0.916	0.875	0.837	0.855	0.838	0.766	0.903	1.278	3.200	8.347	12.01	7.946	2.456	0.707	0.649	0.696	0.640	0.658	0.627	0.666	0.595	0.640	0.690	0.675	0.643	0.584	0.578	0.590	0.593	0.639	0.542	0.546	0.571	0.621	0.567	0.627
240.0	55.51	54.86	273.6	2901	4448	504.6	62.82	15.67	12.16	10.48	10.73	8.384	7.955	6.832	5.336	5.134	4.618	3.957	3.659	3.256	2.732	2.876	2.800	2.453	2.417	2.203	1.935	2.141	1.867	1.754	1.592	1.624	1.442	1.308	1.343	1.203	1.189	1.079	0.941	1.000	0.894	0.920	0.837	0.830	0.910	0.843	0.812	0.809	0.840	1.397	4.793	15.02	26.01	21.22	10.65	2.090	0.730	0.714	0.695	0.657	0.730	0.622	0.656	0.730	0.751	0.670	0.603	0.627	0.625	0.617	0.613	0.590	0.622	0.592	0.589	0.632	0.595
245.0	58.67	70.18	103.6	1091	6144	7213	402.7	34.98	15.97	13.16	11.40	10.21	8.659	7.389	5.770	5.380	5.311	3.957	3.659	3.485	3.205	2.943	2.861	2.542	2.438	2.317	2.055	2.264	1.846	1.772	1.800	1.631	1.478	1.308	1.365	1.045	1.076	1.167	1.075	1.005	0.991	0.908	0.964	0.911	0.885	0.821	0.917	0.861	0.780	0.877	1.610	5.479	17.96	35.98	44.73	21.51	9.432	1.329	0.688	0.692	0.673	0.659	0.620	0.665	0.576	0.672	0.651	0.617	0.618	0.611	0.572	0.623	0.647	0.705	0.602	0.570	0.639
250.0	62.12	73.32	117.5	311.7	2030	7577	9999.9	3870	119.3	19.40	15.01	12.99	10.21	9.303	7.017	6.106	5.589	4.644	3.906	3.501	3.295	3.052	2.952	2.529	2.583	2.395	2.140	2.127	2.149	1.888	1.879	1.609	1.520	1.398	1.368	1.211	1.176	1.192	1.169	1.138	1.029	1.026	1.021	0.921	0.838	0.868	0.832	0.900	0.974	0.918	1.022	1.880	4.751	11.55	25.00	39.95	58.76	52.36	17.90	9.071	1.524	0.789	0.716	0.722	0.670	0.665	0.635	0.653	0.622	0.647	0.666	0.639	0.682	0.638	0.645	0.599	0.651
255.0	64.78	61.00	103.6	254.4	540.0	1892	7861	9999.9	2220	153.3	24.12	17.93	13.84	11.60	8.202	7.180	6.159	5.225	4.613	3.936	3.347	3.370	3.013	2.836	2.617	2.446	2.260	2.163	2.050	1.909	2.108	1.649	1.755	1.509	1.391	1.183	1.274	1.183	1.150	1.098	1.109	1.074	1.044	1.000	0.910	0.827	0.858	0.824	0.841	1.015	1.324	1.664	1.980	3.201	6.194	9.804	19.05	45.36	93.75	107.8	27.59	11.71	1.463	0.836	0.822	0.698	0.720	0.743	0.721	0.657	0.726	0.705	0.619	0.614	0.747	0.617	0.721
260.0	68.81	55.25	64.69	218.0	332.9	492.7	2295	9999.9	9999.9	1856	104.6	24.21	17.40	14.31	10.03	8.046	7.062	6.018	4.911	4.105	3.481	3.472	3.376	2.916	2.846	2.484	2.393	2.504	2.212	1.904	2.128	1.822	1.798	1.651	1.411	1.395	1.287	1.308	1.172	1.143	1.116	1.101	1.016	0.909	1.066	0.911	0.903	0.801	0.790	0.798	1.155	1.864	2.019	1.885	2.092	2.925	5.010	11.92	36.39	88.37	122.6	113.4	24.55	6.547	0.880	0.823	0.835	0.766	0.747	0.754	0.691	0.742	0.679	0.663	0.685	0.683	0.696
265.0	77.92	55.81	53.93	117.7	327.2	305.3	572.8	3552	9999.9	9999.9	1444	56.19	24.92	15.86	12.66	9.315	7.692	5.889	5.254	4.477	3.734	3.748	3.602	3.295	3.017	2.678	2.574	2.567	2.278	2.312	2.257	2.096	1.777	1.662	1.504	1.364	1.370	1.433	1.256	1.229	1.174	1.185	1.126	1.050	1.043	0.977	0.906	0.884	0.864	0.756	0.846	1.198	1.926	2.383	2.145	1.654	1.932	3.400	9.050	24.20	58.55	124.0	159.3	32.53	18.94	3.301	0.930	0.870	0.839	0.787	0.889	0.794	0.803	0.756	0.738	0.641	0.703
270.0	82.42	64.34	57.52	65.30	165.2	364.8	368.9	874.5	3748	9999.9	9999.9	5385	95.66	26.48	17.71	12.31	10.25	7.383	6.226	5.523	4.644	4.222	4.015	3.529	3.491	2.990	2.877	2.785	2.600	2.479	2.201	2.210	1.911	1.783	1.524	1.458	1.346	1.362	1.334	1.201	1.222	1.198	1.123	1.061	1.126	1.009	0.942	0.926	0.872	0.760	0.796	0.966	1.165	1.593	2.091	2.528	2.509	2.114	2.933	6.250	14.12	33.00	67.20	91.37	134.5	116.7	89.80	13.33	3.826	1.011	1.014	0.820	0.881	0.800	0.779	0.736	0.779
275.0	90.48	86.47	77.25	65.19	80.39	174.4	462.5	457.2	910.7	2500	9999.9	9999.9	7997	116.0	28.42	17.91	14.65	10.38	8.044	6.203	5.658	5.086	4.604	3.891	3.858	3.503	3.120	2.793	2.895	2.770	2.358	2.320	2.110	1.898	1.846	1.688	1.490	1.367	1.333	1.339	1.264	1.298	1.109	1.331	1.126	1.149	0.987	1.099	1.009	0.847	0.838	0.916	1.031	1.040	1.244	1.524	2.461	3.562	3.274	2.707	4.145	8.313	16.15	21.44	35.42	71.78	168.9	226.2	143.7	19.71	2.955	1.170	1.064	0.961	0.772	0.856	0.910
280.0	90.05	106.7	95.84	85.98	66.18	87.66	272.4	573.3	393.2	647.5	2819	9999.9	9999.9	5795	82.11	24.81	18.86	12.33	9.863	7.803	6.812	5.838	5.442	4.320	4.354	3.797	3.349	2.878	3.011	2.893	2.565	2.311	2.448	2.188	1.765	1.958	1.613	1.516	1.376	1.463	1.179	1.366	1.143	1.161	1.261	1.197	1.141	1.276	1.070	1.023	0.932	0.967	0.972	0.939	1.100	1.117	1.485	2.283	3.726	3.973	3.011	2.911	4.591	5.782	8.924	17.70	49.86	125.6	222.9	225.1	31.77	14.37	1.707	1.197	0.892	0.970	0.919
285.0	109.9	119.8	128.7	108.3	69.35	71.58	130.6	445.2	545.4	283.1	739.9	3452	9999.9	9999.9	911.3	54.81	26.29	15.89	11.59	9.399	7.598	6.503	5.724	4.989	4.372	3.778	3.757	3.597	3.354	2.896	2.787	2.610	2.265	2.250	2.076	1.915	1.788	1.654	1.418	1.334	1.391	1.329	1.392	1.273	1.168	1.240	1.110	1.254	1.195	1.058	1.007	1.019	0.940	1.020	1.128	1.107	1.157	1.313	2.038	3.427	4.404	3.296	2.501	2.338	3.156	5.141	12.29	30.84	74.02	165.9	248.9	202.8	27.23	7.851	1.395	1.276	1.102
290.0	121.5	135.1	164.8	139.5	92.75	78.58	100.4	211.2	486.9	494.7	340.0	922.9	3568	9999.9	9999.9	3597	68.20	25.88	15.90	12.37	9.667	7.894	7.124	5.721	4.952	4.341	4.037	3.870	3.409	3.329	3.133	2.888	2.462	2.338	2.275	2.040	1.948	1.700	1.542	1.431	1.382	1.355	1.401	1.318	1.200	1.253	1.224	1.302	1.317	1.220	1.065	1.201	1.141	1.026	1.114	1.155	1.139	1.171	1.411	1.928	2.558	3.499	4.188	3.764	2.814	2.474	4.015	8.204	17.95	40.35	80.36	135.5	179.9	193.3	130.3	17.94	7.804
295.0	128.0	161.6	208.0	185.1	141.8	127.0	150.3	200.8	316.8	630.0	791.6	546.8	1067	2551	9999.9	9999.9	5461	80.78	26.95	17.67	12.63	9.858	8.498	6.685	5.930	4.888	4.495	4.100	3.709	3.427	3.477	3.113	2.805	2.418	2.353	2.055	2.059	1.861	1.695	1.532	1.483	1.408	1.358	1.407	1.276	1.295	1.306	1.374	1.551	1.290	1.348	1.490	1.436	1.310	1.352	1.279	1.478	1.546	1.562	1.813	2.110	2.341	2.951	4.450	5.647	4.938	3.304	3.928	6.059	10.92	19.83	31.97	43.45	68.54	158.1	268.5	226.5
300.0	146.1	196.5	271.8	272.2	249.4	271.5	343.7	362.9	706.3	1026	1564	1322	1148	1290	3098	9999.9	9999.9	4288	67.65	24.95	16.91	13.25	10.52	8.126	6.933	5.964	4.753	4.368	4.032	3.887	3.626	3.127	2.824	2.591	2.234	2.164	2.089	1.908	1.910	1.717	1.522	1.687	1.349	1.415	1.337	1.345	1.413	1.599	1.664	1.530	1.598	1.702	1.841	1.796	1.813	1.963	2.284	2.599	3.012	3.198	3.566	3.860	4.558	5.785	6.994	9.147	8.637	7.614	7.339	7.326	9.280	11.51	13.73	19.88	43.05	110.2	233.5
305.0	177.7	268.0	404.6	426.1	418.2	515.2	779.8	1097	1573	2035	2685	3162	2531	1949	2158	3968	9999.9	9999.9	618.7	50.06	22.32	16.84	13.01	9.604	8.012	6.553	5.650	5.319	4.498	4.438	3.874	3.393	3.089	2.771	2.515	2.392	2.200	2.026	1.970	1.822	1.707	1.612	1.662	1.464	1.525	1.478	1.448	1.804	1.969	1.911	2.020	2.394	2.366	2.660	2.681	3.226	3.913	4.529	5.614	6.114	7.197	8.185	9.606	10.67	11.65	13.52	14.87	15.66	14.77	12.64	11.81	11.29	11.31	13.50	17.65	31.92	69.18
310.0	206.4	322.4	526.0	593.8	606.6	726.5	1041	1472	1958	2564	3127	3627	3518	2636	2272	2195	4513	9999.9	9999.9	9558	52.53	24.63	18.17	12.38	9.952	8.240	6.843	6.144	5.485	5.013	4.469	3.837	3.473	3.082	2.858	2.628	2.355	2.117	2.028	1.908	1.929	1.766	1.751	1.678	1.596	1.711	1.772	2.062	2.355	2.437	2.556	3.099	3.047	3.241	3.484	3.998	4.806	5.796	6.891	7.741	8.788	10.15	11.78	13.35	13.89	15.22	16.43	17.60	19.08	17.64	16.09	13.86	13.11	13.66	13.61	15.13	22.87
315.0	227.0	397.4	652.1	757.5	771.5	889.6	1223	1655	2120	2746	3323	3741	3699	3263	2578	1921	2395	3090	9362	9999.9	4138	62.15	26.47	16.90	13.04	9.952	7.921	7.109	6.030	5.676	4.527	4.065	3.685	3.228	3.082	2.777	2.576	2.400	2.197	2.240	2.042	1.970	1.763	1.824	1.833	2.019	2.048	2.398	2.743	2.917	3.117	3.726	3.784	3.741	4.270	4.890	5.596	6.786	7.773	8.571	9.165	10.60	12.19	14.05	14.90	16.54	17.39	18.33	19.17	18.01	18.38	17.37	16.16	15.24	13.26	12.15	12.96
320.0	240.9	438.3	728.8	871.7	851.9	944.6	1285	1722	2136	2757	3318	3751	3657	3303	2872	1925	1925	1489	2473	9999.9	9999.9	3453	53.34	23.16	15.75	12.10	9.362	8.303	6.644	6.232	4.946	4.288	3.825	3.521	3.247	2.942	2.647	2.553	2.369	2.213	1.979	1.951	1.900	1.850	1.957	1.854	2.257	2.534	3.073	3.457	3.562	4.149	4.078	3.970	4.510	5.051	5.801	6.854	8.092	8.973	9.840	10.82	11.87	13.99	15.13	16.49	18.15	18.30	18.90	18.58	17.27	17.47	17.61	16.92	13.41	11.40	10.63
325.0	254.8	464.1	844.4	993.0	950.4	963.3	1241	1623	1959	2492	3044	3448	3410	3000	2802	1955	1681	1060	748.7	2939	9999.9	9999.9	482.3	41.74	21.04	15.09	11.15	9.396	7.636	6.709	5.711	4.856	4.240	3.780	3.463	2.931	2.714	2.548	2.346	2.233	2.190	1.958	2.063	1.916	1.777	1.916	2.157	2.511	3.330	3.583	3.934	4.545	4.545	4.302	4.754	4.941	5.965	6.637	7.804	8.822	8.901	10.01	11.29	13.16	14.21	15.21	15.93	17.15	18.07	16.90	16.51	16.08	16.17	16.67	14.68	11.86	9.826
330.0	256.8	542.2	1103	1560	1515	1180	1180	1469	1726	2171	2662	3036	3063	2701	2422	1949	1643	935.5	428.8	816.6	3165	9999.9	9999.9	9144	45.79	22.01	15.46	11.85	8.957	7.791	6.639	5.386	4.613	4.306	3.663	3.091	2.905	2.584	2.430	2.377	2.210	2.065	1.915	2.073	1.894	2.060	2.372	2.858	3.916	4.623	5.208	6.777	6.890	6.602	5.911	5.160	5.803	6.565	7.143	7.638	7.993	8.897	10.17	11.36	12.43	13.28	14.17	14.91	15.71	15.17	14.98	14.31	14.22	14.38	13.04	11.75	11.19
335.0	295.5	614.4	1384	2198	2245	1512	1162	1337	1533	1887	2330	2676	2742	2474	2164	1717	1649	1022	434.8	411.0	885.0	2460	9999.9	9999.9	3472	52.36	21.97	16.44	11.69	9.631	7.422	6.327	5.491	4.635	3.905	3.593	3.097	2.860	2.605	2.370	2.170	2.206	2.034	2.017	1.923	2.111	2.326	3.301	4.433	5.365	6.743	9.497	10.06	9.351	7.673	5.636	5.742	6.517	6.748	7.270	7.193	8.134	9.047	10.09	10.94	11.84	12.48	13.48	14.08	13.87	13.99	13.33	13.00	12.71	11.53	11.06	10.52
340.0	296.6	613.1	1406	2253	2347	1531	1071	1202	1349	1636	2008	2318	2391	2193	1919	1492	1398	1060	469.3	327.2	387.0	707.0	2654	9999.9	9999.9	2959	43.47	20.90	14.26	11.41	8.661	6.953	5.837	4.939	4.058	3.491	3.204	2.730	2.602	2.621	2.247	2.197	1.977	2.041	1.883	2.137	2.369	3.366	4.378	5.268	7.037	9.953	10.04	9.850	7.991	5.663	5.476	5.612	6.129	6.616	6.903	6.980	7.692	8.689	9.550	10.18	10.73	11.71	12.27	12.34	11.99	12.01	11.66	11.52	10.28	9.414	9.074
345.0	269.6	559.3	1335	2181	2305	1455	973.7	1044	1160	1409	1715	1977	2060	1915	1673	1309	1147	945.2	565.2	322.5	278.8	317.9	733.0	3099	9999.9	9999.9	420.1	33.94	17.66	13.25	10.02	7.759	6.470	5.371	4.417	3.636	3.642	2.864	2.871	2.598	2.300	2.237	2.061	1.981	1.932	2.204	2.324	3.161	4.143	5.319	6.945	9.276	10.11	9.532	7.592	5.400	5.103	5.047	5.538	5.580	5.814	6.346	6.777	7.341	8.238	8.644	9.567	10.49	10.29	10.68	10.76	10.74	10.15	10.19	9.213	8.221	7.844
350.0	247.2	514.3	1261	2187	2351	1483	912.4	930.3	1009	1193	1433	1646	1729	1623	1444	1151	985.4	763.2	591.3	445.4	290.9	252.0	320.7	800.0	3378	9999.9	9999.9	8005	37.94	18.82	13.05	9.367	7.600	5.881	4.826	3.958	3.638	3.112	2.918	2.741	2.351	2.300	2.089	2.055	1.888	2.081	2.215	3.002	4.088	5.040	6.822	9.277	10.17	9.619	7.801	5.246	4.903	4.764	5.005	5.159	5.221	5.427	5.916	6.491	7.045	7.220	8.166	8.558	8.822	9.112	9.314	9.071	8.891	8.753	7.911	7.410	7.070
355.0	225.3	448.1	1141	1963	2217	1414	859.9	841.6	878.0	1019	1193	1353	1414	1348	1210	988.1	850.4	648.8	490.1	499.4	384.3	252.7	235.1	293.3	819.7	2364	9999.9	9999.9	3146	45.14	18.21	12.04	9.598	6.729	5.379	4.374	3.948	3.346	3.031	2.816	2.615	2.244	2.198	2.078	2.038	2.135	2.180	2.841	3.766	4.502	6.121	8.475	9.364	8.869	7.241	5.136	4.579	4.609	4.453	4.730	4.766	4.802	5.261	5.565	6.095	6.269	6.768	6.960	7.448	7.723	7.816	7.612	7.465	7.241	6.702	6.807	6.057
360.0	198.3	413.6	984.5	1735	1956	1273	801.7	768.1	792.3	877.4	1022	1149	1194	1146	1048	857.6	738.2	577.7	433.8	425.2	444.6	293.5	216.5	182.2	258.3	583.1	2595	9999.9	9999.9	2622	35.46	16.34	11.34	8.259	6.205	5.054	4.274	3.576	3.181	2.885	2.562	2.263	1.977	2.180	1.950	2.113	2.187	2.793	3.392	4.295	5.226	7.659	8.050	8.232	6.533	4.644	4.292	4.158	4.418	4.197	4.223	4.392	4.551	5.006	5.260	5.295	5.873	6.185	6.411	6.584	6.593	6.558	6.400	6.361	5.788	5.824	5.292
365.0	194.3	376.3	874.2	1526	1779	1174	748.0	716.2	727.6	791.5	900.6	1002	1043	1000	918.9	767.9	667.6	536.6	414.4	369.0	409.5	374.6	232.6	165.3	140.8	192.4	631.8	3262	9999.9	9999.9	385.1	26.47	14.39	10.25	7.520	5.710	4.946	4.077	3.571	3.269	2.762	2.473	2.246	2.432	2.011	2.020	2.197	2.531	3.234	3.879	4.910	6.835	7.859	7.496	6.136	4.426	3.984	4.238	4.142	4.126	3.894	4.186	3.998	4.692	4.843	4.881	5.243	5.402	5.739	5.953	5.758	5.706	5.593	5.998	5.289	5.449	5.045
370.0	182.5	312.4	746.1	1320	1562	1088	722.9	681.8	685.1	714.0	796.6	865.7	897.9	863.5	793.9	685.1	602.5	502.4	408.5	357.7	345.4	375.1	323.0	194.6	130.0	119.3	199.9	781.7	3509	9999.9	9999.9	6365	32.07	14.45	9.305	6.995	5.884	4.623	4.106	3.330	2.942	2.627	2.434	2.433	2.061	2.031	2.006	2.382	2.976	3.484	4.266	6.126	6.943	6.837	5.971	4.320	4.046	4.094	3.793	3.852	3.750	3.951	3.994	4.289	4.239	4.340	4.424	4.717	4.987	5.145	5.196	5.126	5.146	5.203	4.780	4.892	4.616
375.0	165.4	266.6	617.5	1112	1339	977.9	695.2	650.9	632.2	652.4	712.5	749.2	762.8	737.9	680.9	599.4	536.9	465.8	394.9	356.2	323.2	312.6	348.2	280.8	156.3	119.0	117.9	233.9	827.8	2413	9999.9	9999.9	2643	35.16	13.54	9.247	6.967	5.447	4.834	3.608	3.336	2.947	2.579	2.553	2.083	1.973	1.968	2.289	2.912	3.000	3.831	5.448	6.254	6.108	5.051	4.093	3.755	3.803	3.795	3.565	3.851	3.586	3.857	3.933	4.008	4.033	4.454	4.302	4.346	4.437	4.366	4.358	4.564	4.548	4.197	4.268	4.087
380.0	149.6	227.9	527.4	976.6	1185	902.8	669.3	629.8	609.8	627.5	655.4	672.3	683.8	657.0	611.0	541.5	493.2	444.1	389.5	349.1	319.0	293.6	302.5	325.0	208.1	133.1	109.9	120.2	236.9	584.9	2676	9999.9	9999.9	2053	26.41	11.53	8.393	6.370	5.314	3.865	3.539	3.006	2.725	2.392	2.343	2.104	2.059	2.122	2.583	2.676	3.422	4.764	5.376	5.330	4.875	3.879	3.610	3.677	3.569	3.480	3.579	3.734	3.580	3.593	3.763	3.918	3.815	3.936	3.855	4.082	4.041	4.264	4.046	4.010	3.910	4.116	3.749
385.0	134.8	209.7	464.0	838.8	1057	848.5	652.8	599.0	579.1	594.0	605.3	621.6	626.5	602.1	556.5	506.9	466.4	428.2	378.6	344.4	317.4	289.0	275.0	296.9	271.6	162.8	118.3	103.8	112.1	178.4	641.9	3318	9999.9	9999.9	303.4	18.56	9.951	7.822	6.000	4.229	3.734	3.259	3.019	2.652	2.408	2.229	2.114	2.166	2.316	2.539	3.145	4.455	4.890	4.975	4.488	3.706	3.549	3.435	3.582	3.727	3.529	3.625	3.532	3.625	3.529	3.567	3.552	3.645	3.801	3.726	3.717	3.907	3.880	3.936	3.714	3.842	3.698
390.0	129.1	186.7	413.2	729.4	916.7	779.0	624.8	587.1	561.2	557.4	563.0	571.7	570.5	541.8	505.8	466.7	434.6	402.0	369.3	340.4	313.3	289.2	267.9	253.6	265.4	231.1	150.5	111.7	94.32	94.90	187.6	780.2	3408	9999.9	9999.9	4525	24.33	10.28	7.695	5.647	4.289	3.658	3.165	2.943	2.483	2.258	2.054	2.212	2.359	2.473	2.895	3.948	4.474	4.544	4.068	3.677	3.754	3.480	3.434	3.578	3.310	3.340	3.398	3.291	3.345	3.272	3.359	3.355	3.498	3.530	3.533	3.630	3.649	3.465	3.364	3.457	3.360
395.0	115.7	165.8	352.8	627.0	826.7	727.7	610.5	583.3	545.4	533.8	530.0	530.1	520.1	493.1	461.8	431.3	402.4	382.6	355.1	332.5	308.9	289.5	268.6	242.5	226.3	244.1	217.2	134.1	102.2	86.07	94.06	213.0	790.3	2375	9175	9999.9	2137	28.60	10.69	7.430	5.493	4.283	3.737	3.265	2.469	2.402	2.267	2.260	2.318	2.330	2.758	3.504	3.913	4.202	3.897	3.590	3.632	3.472	3.473	3.600	3.227	3.313	3.215	3.372	3.176	3.207	3.026	3.343	3.427	3.312	3.196	3.238	3.233	3.136	3.116	3.382	3.216
400.0	114.2	150.0	326.6	573.1	742.9	693.7	593.4	565.2	542.1	522.6	508.8	507.1	489.1	470.1	433.9	407.2	385.0	369.4	347.1	326.9	306.5	284.1	267.6	238.6	217.2	216.5	242.1	175.5	112.2	90.26	76.51	90.16	209.2	556.6	2440	9999.9	9999.9	1663	21.97	9.048	6.480	4.876	3.881	3.395	2.661	2.583	2.418	2.210	2.259	2.176	2.445	3.229	3.518	4.092	3.596	3.294	3.537	3.388	3.358	3.379	3.265	3.205	3.090	3.233	2.953	3.140	3.022	3.292	3.124	3.150	3.204	3.034	3.040	3.306	3.120	3.228	3.106
405.0	106.3	143.4	282.4	530.2	697.0	664.5	581.7	556.5	530.7	513.0	502.5	486.5	467.2	443.1	415.3	390.9	369.6	355.7	331.0	317.9	299.9	282.4	266.7	239.7	217.6	201.0	218.1	216.9	136.5	97.87	78.40	68.61	81.79	151.4	569.0	3083	9999.9	9999.9	268.6	14.18	7.843	5.746	4.405	3.672	2.806	2.680	2.262	2.299	2.189	2.124	2.391	3.225	3.329	3.876	3.484	3.156	3.431	3.320	3.346	3.307	3.249	3.023	3.230	3.296	3.005	2.808	2.917	2.915	2.993	3.077	2.957	3.025	2.933	3.174	3.026	2.903	3.199
410.0	97.02	135.1	270.7	476.1	635.9	617.1	567.9	546.5	522.0	502.1	482.7	465.6	445.2	416.8	386.6	365.5	344.7	332.4	311.4	301.6	286.0	274.1	258.7	239.7	216.2	197.6	189.9	203.2	184.1	123.4	86.93	67.80	57.41	63.95	150.9	710.8	3106	9999.9	9999.9	1104	20.76	7.451	5.404	4.485	3.463	2.986	2.387	2.214	2.231	2.197	2.275	3.054	3.163	3.449	3.404	3.214	3.387	3.271	3.303	3.168	3.235	3.173	3.099	3.144	3.021	2.963	2.723	2.927	2.993	2.820	2.914	2.810	2.903	2.895	2.843	2.837	2.914
415.0	93.13	122.2	243.9	431.7	575.8	579.3	537.7	519.3	513.8	486.5	462.9	439.8	414.8	387.4	358.7	339.0	319.0	310.3	296.7	286.0	273.0	259.8	250.8	235.2	214.6	196.4	180.4	171.4	184.1	170.1	103.9	73.67	58.30	48.84	59.47	179.4	709.1	2334	7559	9999.9	1932	25.03	7.579	5.812	4.194	3.270	2.791	2.371	2.328	2.275	2.257	2.927	3.316	3.342	3.359	3.294	3.419	3.346	3.331	3.183	2.904	3.158	3.050	3.179	3.046	2.990	2.474	2.709	2.797	2.980	2.921	2.764	2.865	2.854	2.716	2.730	2.803
420.0	90.71	116.5	232.6	404.8	528.3	552.3	521.2	512.8	507.3	479.0	453.0	429.0	398.2	366.8	341.0	319.2	302.7	291.2	280.5	271.8	260.8	247.9	240.1	229.4	212.8	193.0	178.5	162.9	162.4	179.8	132.2	82.16	60.07	47.68	40.76	62.51	175.8	536.1	1959	9359	9999.9	1537	18.38	7.441	5.112	4.103	3.041	2.654	2.497	2.290	2.308	2.945	3.117	3.171	3.241	3.199	3.298	3.189	3.251	3.279	3.089	2.983	3.187	2.885	2.953	3.024	2.703	2.609	2.726	2.728	2.677	2.465	2.627	2.428	2.593	2.673	2.725
425.0	82.62	111.7	216.0	368.7	498.6	528.9	514.7	495.4	493.0	474.6	442.8	415.0	383.0	352.4	320.5	301.3	286.4	276.4	267.6	256.9	249.8	238.9	233.9	221.0	209.2	192.0	175.8	160.9	150.9	160.7	158.4	99.81	65.41	49.15	39.32	37.40	57.88	134.9	453.0	2677	9999.9	9999.9	250.3	12.67	6.072	4.905	3.473	2.665	2.527	2.255	2.395	2.879	3.050	3.151	3.045	3.147	3.090	3.052	3.265	3.177	3.075	3.102	3.074	2.952	3.069	2.679	2.700	2.619	2.518	2.657	2.388	2.367	2.422	2.480	2.709	2.667	2.413
430.0	84.24	105.5	203.0	345.3	476.8	496.9	492.9	484.1	479.3	458.7	432.4	403.0	365.0	331.5	303.0	283.6	267.9	258.3	249.9	241.1	235.0	226.1	221.5	211.0	200.9	186.9	174.9	159.2	147.3	139.7	145.1	128.9	82.25	55.54	42.18	34.76	33.92	46.51	115.4	610.8	2767	8217	9894	3509	19.10	6.506	4.501	3.504	2.971	2.556	2.398	2.965	2.879	3.054	3.049	3.184	3.179	3.081	3.087	3.074	2.991	3.073	2.942	2.886	2.771	2.768	2.633	2.593	2.514	2.463	2.266	2.289	2.462	2.358	2.413	2.432	2.402
435.0	103.3	95.78	188.5	333.2	446.2	465.0	463.4	464.2	468.1	445.7	420.0	391.3	352.6	316.8	282.5	267.5	253.6	243.3	235.7	227.9	219.9	215.7	210.2	203.4	193.5	182.0	169.7	157.2	147.4	134.2	124.8	125.6	112.6	69.46	47.81	37.12	30.40	28.42	40.91	148.6	627.3	1885	5507	9999.9	1857	25.00	6.595	4.361	3.363	2.822	2.684	2.923	3.152	3.092	3.004	3.053	3.209	3.119	3.049	2.976	2.980	2.947	2.997	2.893	2.970	2.719	2.504	2.500	2.547	2.613	2.499	2.209	2.302	2.295	2.227	2.359	2.316
440.0	107.6	97.98	184.3	310.1	417.9	453.8	457.0	459.9	450.1	436.8	418.7	379.8	340.9	306.6	274.0	253.6	240.3	232.0	223.0	214.6	209.9	203.9	199.0	195.4	186.6	178.0	167.6	154.2	145.6	132.3	116.4	109.4	117.6	89.04	53.41	40.27	31.57	25.94	25.08	46.41	151.0	431.4	1376	7930	9999.9	1600	18.84	5.673	4.058	3.477	2.764	3.070	3.155	2.953	3.052	2.996	3.065	3.066	3.009	3.152	2.900	2.993	2.907	2.741	2.751	2.735	2.534	2.580	2.506	2.468	2.494	2.341	2.240	2.208	2.007	2.126	2.205
445.0	105.2	115.1	169.0	288.5	398.4	424.0	453.1	447.6	436.9	432.8	405.2	368.6	326.7	292.5	263.1	239.5	226.3	217.0	209.3	203.3	198.0	193.4	190.5	185.1	179.2	172.0	161.6	153.1	142.3	129.2	114.8	101.7	103.8	102.3	65.64	43.01	33.90	26.57	22.04	24.09	45.55	106.8	318.4	2160	8637	9999.9	225.7	13.92	5.043	3.921	3.059	3.533	3.086	2.922	3.072	2.850	3.346	3.065	2.966	2.922	2.926	3.040	2.680	2.735	2.794	2.563	2.679	2.485	2.274	2.275	2.365	2.048	2.238	2.202	1.869	2.229	2.100
450.0	106.1	161.4	167.5	273.4	367.7	400.1	414.2	424.2	413.0	403.3	385.1	350.1	313.9	274.9	244.1	222.8	207.8	200.8	192.0	185.1	182.7	178.1	176.4	170.9	165.4	161.0	151.7	144.5	137.1	126.3	112.2	98.61	88.84	89.72	82.15	53.60	36.95	28.74	23.05	20.21	22.54	34.84	80.92	492.7	2271	7223	9379	3148	17.48	5.556	4.012	3.969	3.394	3.116	3.170	3.113	3.259	3.040	3.058	2.987	2.893	2.974	2.709	2.670	2.767	2.633	2.568	2.416	2.333	2.279	2.407	2.063	2.140	2.038	1.912	2.099	2.047
455.0	81.65	196.7	274.7	253.6	334.3	366.5	390.7	393.0	390.8	376.2	358.6	330.3	288.3	253.8	226.9	203.9	189.1	181.1	174.2	167.4	164.9	162.0	159.9	154.5	153.0	146.5	141.4	137.1	128.9	120.8	108.5	94.71	81.05	72.62	76.03	69.49	43.85	30.59	24.99	20.68	18.49	19.24	27.96	118.9	513.8	1640	4174	9999.9	1644	21.40	5.469	4.532	3.751	3.295	3.034	2.988	3.143	2.951	2.983	2.865	2.886	2.796	2.667	2.633	2.579	2.349	2.366	2.233	2.259	2.078	2.297	2.231	1.912	1.940	1.893	2.080	1.843
460.0	73.99	165.7	489.8	285.4	306.6	341.6	359.8	365.3	367.5	357.9	342.2	306.5	270.8	236.3	209.6	188.3	176.7	166.8	159.6	154.1	150.1	151.0	145.5	145.3	140.2	136.6	131.0	127.7	119.8	116.2	103.7	89.80	78.13	67.58	63.28	70.73	54.69	33.57	25.73	20.75	18.14	15.96	16.18	35.96	122.7	373.8	992.1	5166	9558	1365	17.55	5.717	4.274	3.562	3.361	3.205	3.158	2.955	2.876	2.911	2.847	2.639	2.685	2.463	2.484	2.453	2.166	2.166	2.175	2.044	2.227	2.085	1.960	1.909	2.008	1.891	1.882
465.0	70.58	115.1	720.6	548.1	300.9	318.9	340.4	346.7	347.2	341.7	328.1	294.8	257.2	220.6	194.7	175.4	162.2	152.2	147.2	144.0	138.2	136.6	134.1	135.6	131.0	126.9	123.0	118.5	112.7	107.9	98.64	87.03	75.26	64.24	56.56	59.59	60.66	41.11	27.67	21.92	18.31	15.57	13.66	17.46	35.35	91.16	229.9	1284	6276	8867	1175	17.24	5.408	4.017	3.735	3.209	3.146	3.015	2.926	2.798	2.730	2.669	2.662	2.672	2.444	2.267	2.274	2.235	2.121	2.002	2.116	1.901	1.914	1.817	1.767	1.859	1.859
470.0	70.90	80.59	568.2	1599	477.5	286.7	303.5	314.3	313.3	308.0	293.4	266.2	231.1	203.5	174.8	156.8	145.8	134.7	131.0	126.3	123.6	122.0	119.9	119.0	116.4	115.1	110.8	106.2	102.6	97.94	90.82	81.72	69.80	60.34	52.19	48.10	50.52	47.98	33.30	23.10	18.65	15.61	13.55	13.30	15.67	27.89	57.98	293.2	1553	4859	6667	2988	92.98	6.055	4.311	3.513	3.344	3.056	2.926	2.816	2.589	2.612	2.634	2.436	2.344	2.242	2.177	2.088	1.918	2.023	1.997	1.868	1.701	1.709	1.653	1.728	1.658
475.0	67.87	70.34	235.4	2120	1970	314.7	276.5	282.0	282.5	272.0	270.7	242.4	213.0	185.5	157.2	140.7	127.1	118.4	115.2	111.1	106.8	106.4	106.3	103.5	102.0	100.4	96.39	95.98	92.36	88.80	81.73	73.96	64.82	56.64	48.28	42.99	40.04	42.26	41.01	26.76	19.24	16.05	13.73	12.28	11.29	13.16	18.96	70.87	351.3	1091	2274	6401	4138	27.77	5.720	4.013	3.443	3.248	2.658	2.649	2.556	2.405	2.435	2.052	2.152	2.113	2.147	2.061	1.841	1.925	1.758	1.633	1.614	1.797	1.648	1.600	1.554
480.0	70.71	62.51	129.7	1438	3660	525.7	253.7	260.1	266.5	252.9	248.9	227.1	195.6	172.7	147.4	128.4	117.0	109.8	106.6	101.2	99.00	96.12	97.10	95.27	91.74	91.12	90.57	88.41	84.05	82.55	75.90	68.35	61.35	52.85	46.22	40.04	35.82	34.73	39.58	32.50	21.36	15.37	13.53	11.78	10.45	9.754	10.28	21.17	83.51	247.9	523.0	2644	7517	1677	24.14	5.123	4.090	3.586	2.959	2.744	2.672	2.488	2.353	2.260	2.093	1.841	1.891	1.891	1.842	1.791	1.631	1.503	1.560	1.636	1.505	1.524	1.589
485.0	66.74	68.73	107.1	636.9	4281	2019	256.1	241.3	252.1	240.7	232.6	213.7	184.0	161.1	136.8	120.2	109.6	103.1	98.48	93.23	91.55	90.02	89.42	86.93	85.42	84.49	83.11	81.17	80.29	78.55	71.57	65.69	58.34	50.36	44.73	38.57	34.08	30.49	33.49	34.98	24.86	16.41	13.56	12.29	10.18	9.147	8.399	9.908	23.58	59.93	121.6	629.4	3890	6797	1433	19.13	4.795	3.914	3.167	3.002	2.720	2.564	2.345	2.303	2.083	1.926	1.932	2.009	1.698	1.753	1.681	1.492	1.624	1.541	1.501	1.569	1.602
490.0	66.83	76.20	100.4	255.0	2492	4640	902.2	224.5	230.8	227.2	213.7	197.3	168.7	147.8	124.4	109.8	97.40	92.81	87.69	85.03	82.79	81.39	80.14	78.48	76.95	76.76	75.25	74.43	71.78	70.14	65.53	59.99	53.54	46.89	41.18	36.28	31.68	28.27	27.37	29.49	29.32	20.35	14.13	11.86	10.44	9.126	8.241	7.432	10.06	17.70	31.34	145.0	924.2	3044	5738	3529	114.1	7.012	3.840	3.345	2.780	2.710	2.467	2.207	2.169	1.953	2.023	1.939	1.685	1.709	1.676	1.554	1.546	1.491	1.432	1.438	1.485
495.0	58.27	67.39	108.5	158.8	761.8	4786	3206	283.2	204.8	202.2	192.6	175.4	154.5	131.2	113.3	97.04	88.90	80.78	78.36	75.50	72.50	72.01	70.94	69.71	68.30	68.42	66.40	65.68	64.33	61.68	59.91	54.55	47.87	43.06	38.59	34.06	29.97	25.86	23.62	22.11	25.67	25.71	17.11	12.16	10.26	9.001	8.008	7.008	6.818	8.307	10.67	36.30	209.7	683.2	1800	5701	4917	186.0	5.952	3.730	3.280	2.683	2.467	2.069	2.145	2.158	1.800	1.925	1.529	1.555	1.599	1.517	1.486	1.368	1.347	1.480	1.402
500.0	59.69	67.28	106.7	124.0	287.3	2756	6077	807.7	189.6	189.2	178.5	162.7	140.7	118.7	104.8	91.28	79.93	75.24	71.50	67.72	66.17	65.28	63.25	61.88	62.91	60.73	59.75	58.01	58.93	56.32	55.24	49.62	44.01	40.33	35.95	32.09	29.17	24.51	22.39	19.56	20.60	24.73	21.06	13.06	10.48	8.779	8.163	6.941	6.041	5.899	5.946	11.86	50.21	156.0	410.7	2065	6726	1916	29.14	4.835	3.402	2.759	2.458	2.256	2.078	2.140	1.734	1.884	1.614	1.559	1.483	1.549	1.646	1.294	1.296	1.298	1.296
505.0	60.46	57.10	101.2	127.8	172.8	1055	6621	2370	187.7	177.4	164.5	150.6	129.1	109.7	95.20	84.53	72.72	67.17	64.85	62.22	60.46	59.24	58.02	57.18	55.89	55.00	54.84	53.24	52.62	52.21	50.34	45.60	41.13	37.27	33.22	29.95	26.65	22.79	21.18	18.33	17.28	20.55	22.58	15.75	10.71	8.587	7.837	6.527	5.957	5.334	4.953	5.875	14.60	38.25	95.90	478.4	2875	6310	1688	22.82	4.108	3.216	2.599	2.194	2.187	1.992	1.772	1.875	1.604	1.540	1.567	1.405	1.494	1.352	1.387	1.248	1.203
510.0	56.64	54.47	87.46	136.7	136.5	350.5	3600	5968	786.2	156.9	148.0	134.4	116.3	99.18	84.26	74.20	66.18	60.93	57.42	54.70	53.21	51.46	49.76	50.51	48.91	48.43	48.48	46.92	47.02	45.94	43.65	40.59	36.47	33.50	29.30	26.27	24.15	21.14	19.17	16.81	15.41	15.49	18.55	18.47	12.89	9.064	7.424	6.406	5.660	5.202	4.716	4.595	6.424	11.63	24.78	110.2	666.3	2492	4606	3181	120.2	6.025	3.091	2.476	2.242	1.965	1.769	1.691	1.562	1.426	1.444	1.357	1.379	1.364	1.299	1.142	1.234
515.0	54.90	51.45	68.74	132.0	141.1	171.5	1020	6213	3552	205.2	129.1	117.8	100.2	88.13	76.23	63.91	58.55	53.71	48.79	47.01	44.99	43.94	42.83	42.52	42.90	40.72	41.81	39.93	39.53	39.84	38.81	35.14	32.13	29.03	26.12	23.17	21.14	18.96	17.45	15.31	14.02	12.42	13.27	16.42	15.53	10.54	7.191	6.390	5.431	4.965	4.252	4.287	4.294	5.446	8.194	27.43	151.5	558.8	1294	4401	3894	31.90	4.893	2.900	2.308	2.049	1.781	1.525	1.566	1.374	1.317	1.260	1.361	1.297	1.158	1.110	1.189
520.0	52.15	49.74	54.64	120.2	153.4	127.3	324.4	3598	6546	709.5	121.0	105.7	91.16	78.67	70.34	58.89	52.11	47.82	44.35	42.25	39.57	39.37	38.53	38.04	37.44	36.30	36.73	36.45	35.78	36.81	34.83	31.47	28.94	26.57	23.55	21.60	19.13	17.10	15.95	14.01	13.01	12.07	10.89	12.61	15.26	12.45	7.774	6.112	5.277	4.514	3.906	4.073	3.977	3.957	4.550	8.652	36.78	127.7	293.7	1516	4858	1857	28.64	3.502	2.623	2.202	1.692	1.619	1.622	1.437	1.393	1.290	1.319	1.276	1.115	1.148	1.103
525.0	50.08	44.12	49.96	97.90	165.5	118.2	158.5	1330	7579	1975	122.3	98.85	82.90	73.08	61.14	53.88	48.13	43.75	40.32	37.22	36.67	35.50	35.16	34.40	33.89	33.25	32.51	32.38	32.88	32.26	30.39	28.12	26.84	23.84	22.51	19.64	17.26	16.15	14.65	13.27	11.92	10.43	9.639	10.13	12.91	13.63	8.954	6.114	4.887	4.495	3.787	3.810	3.965	3.724	3.333	4.343	10.69	31.15	68.50	348.9	1965	4572	1579	21.91	2.959	2.500	2.009	1.703	1.638	1.402	1.287	1.258	1.183	1.084	1.131	1.040	1.116
530.0	51.30	43.56	48.31	70.03	143.3	130.8	107.9	388.9	4226	7083	678.6	90.04	75.56	64.73	54.93	48.14	41.43	38.63	35.20	31.85	32.05	30.66	30.32	29.56	29.39	29.13	28.43	28.19	28.13	28.17	26.77	25.05	23.03	20.63	18.58	16.88	15.71	13.84	13.16	11.49	10.33	9.447	8.878	8.448	9.040	11.25	10.90	7.093	4.920	4.289	3.619	3.390	3.466	3.455	3.208	3.077	4.699	9.186	17.66	80.58	453.2	1739	3268	2324	118.5	4.881	2.296	1.843	1.668	1.464	1.265	1.171	1.237	1.147	1.128	1.075	1.118
535.0	51.34	41.70	42.97	55.43	104.8	147.3	95.63	153.9	1157	7639	3770	115.7	67.87	57.29	48.55	42.02	35.94	34.20	29.14	28.10	27.07	26.82	25.84	25.53	25.03	24.93	23.98	23.72	24.96	23.58	22.32	21.12	19.89	18.24	16.11	14.53	13.39	11.98	11.51	10.48	9.278	8.303	8.005	7.255	7.131	7.814	9.738	9.092	5.650	4.166	3.409	3.383	2.999	2.880	3.231	2.965	3.093	3.906	5.857	20.17	103.2	389.9	891.1	2960	1970	32.31	3.645	2.184	1.766	1.564	1.239	1.187	1.228	1.048	1.155	1.098	1.089
540.0	58.14	38.32	43.13	49.54	73.91	143.8	108.3	91.63	325.5	4194	7499	213.9	65.66	52.10	44.38	37.73	32.18	29.71	26.84	25.50	23.56	23.18	22.38	21.81	22.34	21.13	21.63	21.07	21.18	20.80	20.03	18.46	17.66	16.41	14.01	13.15	12.01	11.01	10.08	9.281	8.320	7.530	7.250	6.600	6.101	6.113	7.433	9.031	6.552	4.096	3.158	3.061	2.849	2.561	2.683	3.022	2.875	2.662	3.189	6.311	24.94	89.06	202.2	985.0	3191	1770	28.09	2.854	2.170	1.561	1.304	1.298	1.106	0.989	1.058	1.039	0.981
545.0	51.34	40.36	39.25	49.29	58.07	114.2	120.7	78.44	129.3	1417	8788	1413	64.09	50.04	38.52	34.49	29.42	26.39	23.35	22.77	21.18	20.42	20.58	19.19	19.79	18.65	19.05	18.37	18.89	18.00	18.31	17.16	15.46	14.38	12.58	11.87	10.96	9.667	9.346	8.777	7.709	6.991	6.680	6.194	5.490	5.356	5.569	7.574	7.519	4.763	3.232	2.752	2.600	2.350	2.467	2.686	2.738	2.454	2.416	3.144	7.167	21.78	47.25	225.8	1277	3492	1353	21.02	2.426	1.809	1.349	1.198	1.142	1.207	1.132	0.996	0.968
550.0	51.50	38.38	39.60	43.86	48.81	75.36	129.2	80.69	76.97	382.1	4569	5954	427.1	42.80	34.32	29.23	25.50	23.04	20.34	19.62	18.52	17.37	17.86	16.74	16.47	16.23	15.53	15.41	16.19	15.62	15.17	14.28	13.10	12.02	10.92	9.970	9.436	8.384	7.830	7.137	6.709	6.078	5.687	5.249	4.990	4.746	4.255	5.187	6.284	5.558	3.775	2.638	2.383	2.138	2.163	2.239	2.481	2.425	2.082	2.232	3.140	6.434	12.21	52.19	293.3	1282	2316	1126	112.2	3.433	1.674	1.374	1.197	1.196	1.029	1.037	0.964
555.0	47.60	42.88	36.29	39.02	42.20	51.87	102.9	96.88	59.76	127.4	1180	6699	2792	55.45	30.32	25.47	20.80	19.89	17.58	16.29	14.87	14.66	14.19	13.49	13.63	13.42	12.81	12.75	13.19	13.32	11.78	11.49	10.52	9.737	8.940	8.260	7.796	6.815	6.659	5.931	5.612	5.174	4.782	4.431	4.281	4.178	3.647	3.638	4.199	5.127	4.476	3.114	2.285	2.086	1.957	1.846	1.859	2.357	2.185	1.850	2.029	2.847	4.189	13.10	66.92	287.4	619.8	1928	1767	32.40	2.458	1.518	1.260	1.011	1.100	1.003	1.063
560.0	47.56	40.88	34.17	36.85	33.05	41.00	73.21	111.9	56.11	64.65	308.0	3676	6154	144.8	28.55	23.24	19.72	18.14	15.49	13.61	13.42	13.02	11.90	11.33	11.40	11.71	11.04	11.12	10.93	11.47	10.67	9.959	9.327	8.444	7.621	7.246	6.738	6.315	5.776	5.342	4.702	4.591	4.210	4.000	3.772	3.616	3.204	2.868	3.058	4.055	4.313	3.536	2.175	1.933	1.756	1.805	1.654	2.034	2.247	1.920	1.682	1.833	2.195	4.185	16.15	65.57	140.6	650.3	2129	1269	25.69	1.942	1.381	0.996	1.051	1.063	1.069
565.0	47.86	37.71	36.27	35.26	35.68	37.11	50.60	111.0	64.64	50.51	104.1	1226	7562	983.0	27.85	21.48	18.32	15.73	13.47	12.59	11.78	11.31	10.21	10.41	9.641	10.42	9.405	9.586	9.804	9.622	9.426	8.723	8.183	7.210	6.870	6.376	5.950	5.387	4.857	4.732	4.324	4.020	3.594	3.409	3.356	3.101	2.916	2.728	2.335	3.006	3.795	3.558	2.298	1.822	1.597	1.652	1.521	1.719	1.830	1.929	1.650	1.532	1.603	2.050	4.809	16.09	32.81	149.3	819.4	2002	803.2	17.50	1.599	1.377	1.087	1.021	1.014
570.0	48.19	41.48	37.11	32.90	31.15	33.96	36.50	78.97	89.77	45.83	54.29	320.4	4095	4712	240.3	19.57	16.33	13.80	11.39	10.55	10.21	9.759	8.781	8.853	8.480	8.576	8.179	8.159	8.034	7.621	7.723	7.194	6.687	6.135	5.592	5.364	4.824	4.617	4.429	3.937	3.740	3.309	3.133	3.051	2.789	2.719	2.628	2.273	2.147	2.041	2.539	3.118	2.737	2.002	1.486	1.394	1.408	1.381	1.506	1.593	1.790	1.608	1.434	1.466	2.181	4.682	8.415	34.64	188.2	727.0	1318	810.0	92.61	2.256	1.221	1.039	1.041
575.0	50.75	41.98	37.00	32.12	27.56	29.84	28.92	46.92	99.60	56.77	39.96	99.50	1066	5731	992.9	25.29	14.33	12.63	9.865	9.113	8.696	8.487	7.421	7.307	7.200	6.962	6.804	6.561	6.510	6.802	6.484	5.974	5.607	5.280	4.750	4.421	4.053	3.991	3.403	3.396	3.097	2.713	2.717	2.698	2.448	2.481	2.156	1.950	1.805	1.787	1.746	2.164	2.688	2.380	1.416	1.286	1.288	1.289	1.237	1.354	1.429	1.734	1.419	1.331	1.419	1.911	2.914	8.862	43.04	163.2	354.6	1124	1071	29.50	1.687	1.196	1.141
580.0	48.00	37.50	33.66	32.25	25.91	28.26	24.83	31.95	83.64	74.36	37.06	50.29	268.7	3264	4313	90.49	13.77	11.44	9.243	8.306	7.615	7.631	7.010	6.756	6.616	6.084	5.810	5.588	5.530	5.978	5.549	5.244	4.821	4.538	4.140	3.971	3.532	3.406	3.253	2.928	2.851	2.569	2.508	2.346	2.106	2.151	1.950	1.761	1.662	1.603	1.436	1.620	2.262	2.391	1.670	1.368	1.312	1.146	1.143	1.187	1.135	1.668	1.469	1.264	1.264	1.315	1.539	2.991	10.66	37.35	80.56	377.1	1279	728.7	22.06	1.378	1.076
585.0	43.69	38.88	31.84	29.82	24.92	25.90	25.17	29.24	58.25	89.93	39.07	36.54	85.11	1096	5714	633.1	14.48	11.51	8.853	6.940	7.156	6.803	6.626	6.116	6.097	5.175	5.441	5.208	4.968	5.380	4.869	4.626	4.002	4.117	3.499	3.647	3.223	3.018	2.855	2.508	2.695	2.436	2.270	2.224	1.888	1.910	1.787	1.600	1.580	1.401	1.237	1.267	1.766	2.223	1.961	1.525	1.201	1.130	1.129	1.067	1.054	1.215	1.601	1.410	1.098	1.191	1.183	1.631	3.230	9.267	19.06	86.91	499.0	1170	261.5	13.87	1.298
590.0	47.07	40.05	31.31	30.18	24.67	24.15	24.42	26.37	38.00	83.46	56.85	34.00	43.28	279.7	3155	3325	62.46	11.08	8.600	6.884	6.702	6.309	5.458	5.087	5.043	4.576	4.810	4.620	4.404	4.419	4.153	4.090	3.397	3.403	3.248	3.012	2.728	2.558	2.476	2.321	2.308	2.117	2.024	1.909	1.787	1.763	1.645	1.473	1.379	1.278	1.138	1.125	1.329	1.626	1.908	1.767	1.309	1.147	1.083	1.086	1.010	1.089	1.241	1.385	1.242	1.092	1.120	1.207	1.550	2.925	5.158	20.33	114.7	421.9	794.4	549.1	20.00
595.0	45.71	36.08	32.87	30.01	24.60	23.39	25.43	26.90	32.98	62.38	81.67	39.26	35.91	86.24	825.9	4317	692.6	14.05	8.406	6.750	5.967	5.302	5.169	4.945	4.570	4.248	3.858	3.688	3.833	3.620	3.685	3.301	3.239	3.074	2.679	2.477	2.364	2.377	2.129	1.966	1.900	1.913	1.731	1.709	1.556	1.467	1.471	1.309	1.261	1.095	0.995	0.977	1.141	1.216	1.492	1.809	1.507	1.097	1.053	0.984	0.974	1.151	1.028	1.126	1.247	1.198	1.008	1.040	1.225	1.431	1.958	5.329	26.36	94.81	214.6	710.4	687.2
600.0	40.64	33.65	33.04	30.37	26.66	25.74	28.36	30.01	34.24	52.71	95.35	56.45	42.86	49.70	214.6	2611	2761	54.61	8.642	6.723	5.381	5.317	4.467	4.070	3.785	4.087	3.763	3.489	3.492	3.637	3.346	3.045	2.693	2.822	2.538	2.243	2.222	2.127	1.806	1.834	1.757	1.715	1.552	1.622	1.552	1.301	1.272	1.235	1.112	1.092	0.980	1.045	0.997	1.036	1.223	1.621	1.647	1.354	0.991	0.970	0.974	1.050	0.984	1.028	1.144	1.274	1.093	1.059	1.023	1.008	1.178	1.962	6.657	22.05	49.04	234.3	794.8
605.0	45.42	34.06	35.53	33.11	31.45	34.59	37.06	44.58	53.24	67.60	116.0	104.8	71.61	61.97	92.19	918.4	3878	395.4	9.646	6.314	5.772	4.712	4.495	3.678	3.552	3.415	3.531	3.181	3.230	3.090	3.215	2.925	2.565	2.479	2.385	2.122	2.022	1.789	1.654	1.694	1.716	1.668	1.488	1.643	1.397	1.185	1.242	1.207	0.990	1.059	0.908	0.868	0.989	0.954	1.065	1.301	1.659	1.463	1.048	0.951	1.081	1.032	1.013	1.077	1.212	1.478	1.361	1.301	1.049	1.112	1.231	1.397	2.370	5.801	11.99	54.13	301.2
610.0	52.73	41.81	40.27	39.43	36.94	40.94	54.30	74.70	100.5	130.8	171.0	199.2	149.5	112.6	109.8	284.7	2373	2252	44.00	6.991	5.776	4.494	4.132	3.707	3.469	3.026	3.118	3.049	3.000	2.902	2.765	2.695	2.236	2.341	2.227	1.798	1.972	1.655	1.737	1.679	1.598	1.411	1.310	1.391	1.265	1.179	1.079	1.140	1.026	0.968	0.866	0.955	0.916	0.973	0.958	1.042	1.421	1.636	1.207	1.226	1.098	1.213	1.367	1.365	1.383	1.511	1.639	1.811	1.498	1.433	1.384	1.401	1.627	2.493	3.696	13.10	69.62
615.0	44.07	38.88	39.71	39.77	40.91	47.22	63.29	88.35	117.8	155.6	189.5	225.5	193.6	138.5	122.8	138.2	691.8	3153	515.2	7.908	5.560	4.327	3.752	3.324	3.345	3.148	2.893	2.906	2.661	2.516	2.530	2.400	2.306	1.904	1.947	1.778	1.627	1.556	1.382	1.469	1.291	1.269	1.311	1.190	1.052	1.168	1.127	1.016	0.955	0.954	0.875	0.883	0.910	0.923	0.890	0.998	1.027	1.405	1.319	1.318	1.207	1.242	1.502	1.443	1.507	1.559	1.576	1.839	1.701	1.646	1.391	1.468	1.510	1.770	1.965	4.009	16.62
620.0	45.59	38.77	42.26	45.59	41.27	46.22	66.03	86.39	115.9	145.2	173.4	204.3	201.6	138.4	118.5	99.75	229.7	2072	1873	27.29	5.940	4.214	3.679	3.291	2.953	3.014	2.615	2.633	2.434	2.460	2.343	2.212	2.100	1.824	1.736	1.535	1.549	1.591	1.421	1.410	1.179	1.210	1.230	1.032	0.994	1.060	1.049	0.920	0.905	0.876	0.787	0.895	0.847	0.941	0.917	0.929	0.994	1.169	1.373	1.474	1.278	1.235	1.373	1.456	1.352	1.536	1.520	1.655	1.734	1.703	1.571	1.338	1.486	1.424	1.484	1.819	4.594
625.0	44.26	37.88	44.86	43.27	42.44	47.89	64.62	85.32	108.0	138.9	163.9	189.6	197.3	141.8	116.8	89.79	117.7	794.3	2853	77.49	6.427	4.186	3.528	3.370	2.878	2.747	2.340	2.271	2.473	2.424	2.162	2.295	1.813	1.788	1.645	1.552	1.429	1.342	1.308	1.274	1.128	1.100	1.102	1.159	1.046	1.055	0.927	0.957	0.952	0.809	0.789	0.840	0.948	0.992	0.943	0.951	0.952	1.068	1.244	1.416	1.435	1.242	1.444	1.450	1.321	1.400	1.464	1.534	1.644	1.861	1.643	1.337	1.309	1.375	1.248	1.374	1.986
630.0	44.58	39.19	44.52	45.73	43.11	49.18	62.68	84.81	103.9	135.8	156.3	176.5	187.7	151.8	114.8	86.46	92.48	229.3	1890	1252	28.86	4.990	3.752	3.221	2.899	2.786	2.256	2.185	2.470	2.256	2.089	1.871	1.853	1.582	1.591	1.527	1.373	1.317	1.201	1.165	1.027	1.087	1.091	1.078	1.031	0.958	0.925	0.956	0.884	0.828	0.801	0.802	0.862	0.908	0.828	0.822	0.943	1.065	1.151	1.338	1.298	1.330	1.213	1.251	1.406	1.405	1.404	1.512	1.430	1.570	1.577	1.421	1.187	1.304	1.238	1.193	1.248
635.0	51.57	40.15	47.03	44.42	43.16	48.53	62.00	80.08	99.38	130.3	153.4	172.3	171.4	158.9	119.0	86.80	83.66	89.04	526.3	2323	384.8	5.560	3.930	3.454	2.877	2.597	2.350	2.070	2.151	2.078	1.918	1.868	1.718	1.666	1.457	1.432	1.303	1.225	1.182	1.110	1.010	1.043	0.964	1.026	1.013	0.889	0.921	0.885	0.779	0.826	0.678	0.799	0.792	0.800	0.821	0.850	0.918	0.964	1.013	1.067	1.322	1.311	1.241	1.268	1.292	1.554	1.286	1.433	1.462	1.544	1.484	1.454	1.307	1.193	1.313	1.126	1.076
640.0	46.22	38.45	45.76	47.36	45.88	47.71	61.08	80.74	100.1	124.9	151.5	170.8	162.3	155.6	124.6	84.88	81.68	56.94	133.6	1689	1445	16.34	3.959	3.488	2.907	2.427	2.470	2.068	2.192	1.989	1.898	1.630	1.699	1.598	1.379	1.365	1.245	1.137	1.077	1.098	0.994	0.909	0.962	0.997	0.933	0.826	0.866	0.920	0.850	0.803	0.682	0.742	0.773	0.779	0.757	0.779	0.881	0.946	0.972	1.024	1.145	1.333	1.223	1.261	1.217	1.395	1.317	1.360	1.497	1.461	1.487	1.324	1.477	1.358	1.295	1.163	1.163
645.0	44.66	43.10	46.73	46.63	45.83	45.68	61.53	75.44	97.70	117.7	140.8	162.5	153.8	144.0	126.9	81.43	74.48	46.73	40.08	672.5	2387	62.78	4.646	3.507	2.964	2.499	2.334	2.148	2.004	1.855	1.754	1.679	1.638	1.507	1.344	1.325	1.229	1.052	1.121	1.034	0.972	0.888	0.965	0.886	0.845	0.939	0.823	0.851	0.800	0.815	0.689	0.700	0.830	0.828	0.741	0.841	0.925	0.911	1.059	1.027	1.024	1.214	1.337	1.213	1.164	1.354	1.372	1.351	1.306	1.311	1.350	1.440	1.422	1.297	1.185	1.201	1.150
650.0	44.33	39.72	49.28	49.73	43.26	46.61	58.46	71.28	86.74	107.9	129.9	146.0	140.1	126.0	121.9	76.97	69.62	42.01	19.09	182.4	2226	484.7	6.495	3.682	3.066	2.589	2.241	2.072	1.895	2.084	1.707	1.460	1.621	1.603	1.271	1.322	1.288	1.083	1.058	1.085	0.980	0.894	0.853	0.902	0.840	0.922	0.888	0.824	0.815	0.762	0.674	0.682	0.789	0.812	0.741	0.827	0.884	0.974	0.974	1.053	0.924	1.056	1.231	1.174	1.126	1.362	1.306	1.320	1.259	1.396	1.270	1.262	1.279	1.250	1.201	1.153	1.017
