Sample:	'1
File name:	三里河入淮口.FD3
Run date:	'12:41:29, 04/03/2024
Operator:	Administrator
Comment:	'

Instrument
Model:	F-2700 FL Spectrophotometer
Serial number:	23B8-004
ROM Version:	4J14000 07

Instrument parameters
Measurement type:	3-D scan
Data mode:	Fluorescence
EX  Start WL:	220.0 nm
EX  End WL:	600.0 nm
EX Sampling interval:	5.0 nm
EM  Start WL:	230.0 nm
EM  End WL:	650.0 nm
EM Sampling interval:	5.0 nm
Scan speed:	12000 nm/min
EX Slit:	5.0 nm
EM Slit:	5.0 nm
PMT Voltage:	700 V
Response:	Auto 
Corrected spectra:	Off
Contour interval:	50.000

Peak integration
Integration method:	Rectangular
Sensitivity:	1
Threshold:	1.000

Peaks
No.	ApexEX/EM(nm)	Height(Data)
1	225.0/305.0	1182
2	225.0/560.0	70.09
3	225.0/590.0	86.61
4	230.0/380.0	698.9
5	230.0/580.0	81.77
6	235.0/390.0	670.8
7	235.0/510.0	285.7
8	240.0/405.0	692.8
9	240.0/520.0	242.9
10	245.0/535.0	208.0
11	250.0/545.0	175.7
12	255.0/280.0	551.0
13	255.0/560.0	140.3
14	260.0/285.0	579.9
15	260.0/420.0	656.6
16	260.0/570.0	113.4
17	265.0/585.0	119.9
18	270.0/300.0	1253
19	270.0/405.0	644.2
20	270.0/595.0	117.4
21	275.0/305.0	1486
22	275.0/395.0	631.1
23	275.0/610.0	102.7
24	280.0/310.0	1312
25	280.0/625.0	82.64
26	285.0/635.0	56.13
27	305.0/340.0	381.7
28	310.0/350.0	336.6
29	315.0/355.0	338.0
30	320.0/360.0	343.1
31	325.0/370.0	337.0
32	330.0/375.0	346.6
33	335.0/380.0	359.5
34	340.0/390.0	344.9
35	345.0/395.0	331.3
36	350.0/400.0	327.6
37	430.0/505.0	46.54
38	445.0/525.0	29.43
39	455.0/315.0	4.805
40	520.0/285.0	3.778
41	530.0/290.0	4.339
42	540.0/295.0	6.215
43	545.0/300.0	7.359
44	555.0/305.0	7.788
45	560.0/310.0	7.061
46	570.0/315.0	6.312
47	580.0/320.0	5.542
48	585.0/325.0	5.066

Data points
	220.0	225.0	230.0	235.0	240.0	245.0	250.0	255.0	260.0	265.0	270.0	275.0	280.0	285.0	290.0	295.0	300.0	305.0	310.0	315.0	320.0	325.0	330.0	335.0	340.0	345.0	350.0	355.0	360.0	365.0	370.0	375.0	380.0	385.0	390.0	395.0	400.0	405.0	410.0	415.0	420.0	425.0	430.0	435.0	440.0	445.0	450.0	455.0	460.0	465.0	470.0	475.0	480.0	485.0	490.0	495.0	500.0	505.0	510.0	515.0	520.0	525.0	530.0	535.0	540.0	545.0	550.0	555.0	560.0	565.0	570.0	575.0	580.0	585.0	590.0	595.0	600.0
230.0	54.62	2429	8438	3308	125.2	11.62	8.355	7.493	6.264	6.131	5.742	6.041	5.816	5.093	4.282	3.705	3.413	3.301	2.941	2.561	2.452	2.276	2.095	2.264	2.029	1.620	1.604	1.501	1.463	1.365	1.285	1.252	1.266	1.314	1.188	0.999	0.894	0.790	0.755	0.698	0.737	0.806	0.872	0.672	0.607	0.607	2.952	17.53	33.35	24.42	9.689	1.819	0.505	0.403	0.382	0.326	0.370	0.332	0.261	0.270	0.253	0.249	0.213	0.232	0.185	0.185	0.155	0.179	0.147	0.159	0.115	0.129	0.114	0.107	0.104	0.086	0.093
235.0	121.9	624.5	4215	8893	3620	215.8	12.27	10.04	8.496	6.819	7.194	6.852	6.065	5.697	4.878	4.370	3.605	3.197	3.130	2.776	2.560	2.278	2.308	2.394	1.984	1.942	1.579	1.621	1.423	1.439	1.293	1.242	1.327	1.356	1.229	1.034	1.017	0.804	0.743	0.593	0.596	0.650	0.766	0.827	0.911	0.702	1.038	4.487	11.25	20.09	30.72	26.85	16.79	4.176	0.453	0.355	0.386	0.328	0.331	0.262	0.245	0.219	0.249	0.276	0.217	0.202	0.222	0.126	0.134	0.132	0.139	0.100	0.106	0.110	0.084	0.116	0.136
240.0	157.0	241.3	1112	6189	9999.9	2960	130.7	14.54	10.95	9.700	7.982	7.358	7.005	5.852	5.341	4.521	3.842	3.223	3.230	2.969	2.744	2.237	2.349	2.605	2.248	1.767	1.533	1.809	1.666	1.333	1.418	1.607	1.353	1.135	1.153	1.118	0.971	0.736	0.803	0.667	0.772	0.649	0.631	0.691	0.824	1.153	0.965	1.541	2.969	5.520	14.16	37.31	52.38	27.45	14.48	2.368	0.457	0.351	0.332	0.338	0.333	0.256	0.270	0.225	0.234	0.192	0.183	0.163	0.180	0.132	0.166	0.105	0.118	0.118	0.165	0.117	0.114
245.0	101.4	238.5	338.0	1820	9036	9999.9	2252	52.44	13.34	12.63	9.624	9.375	7.994	6.429	5.324	4.843	4.254	3.974	3.148	3.224	2.659	2.806	2.393	2.654	2.542	1.985	1.825	1.858	1.489	1.369	1.514	1.446	1.250	1.148	1.195	1.308	1.021	0.875	0.761	0.660	0.869	0.717	0.654	0.643	0.740	0.979	1.197	1.232	1.219	1.630	3.556	11.58	31.39	55.32	62.63	25.21	10.35	1.013	0.321	0.414	0.340	0.310	0.283	0.207	0.277	0.243	0.172	0.194	0.221	0.188	0.183	0.148	0.125	0.151	0.140	0.133	0.116
250.0	45.02	140.3	259.8	521.9	2563	8286	9999.9	5668	144.0	20.18	15.17	11.90	10.62	7.816	6.229	5.640	4.679	4.245	3.603	3.307	3.020	2.784	2.498	2.695	2.287	2.016	2.134	1.986	1.683	1.708	1.425	1.337	1.279	1.209	1.123	1.104	1.085	0.910	0.853	0.746	0.747	0.727	0.762	0.661	0.672	0.767	0.865	1.098	1.336	1.253	1.447	3.069	7.597	16.44	33.18	51.78	72.03	61.53	18.84	9.301	1.193	0.374	0.349	0.315	0.293	0.256	0.234	0.236	0.213	0.182	0.181	0.168	0.147	0.162	0.172	0.138	0.115
255.0	40.30	56.73	146.6	364.7	687.5	1960	7055	9999.9	9589	186.8	24.32	16.47	14.92	10.37	8.137	6.327	5.706	5.015	4.296	3.427	3.578	3.027	2.710	2.750	2.543	2.132	2.256	2.027	2.015	1.847	1.896	1.435	1.421	1.301	1.163	1.110	1.096	0.968	0.851	0.917	0.750	0.805	0.724	0.708	0.658	0.729	0.710	0.679	0.731	1.190	1.573	2.199	2.478	4.072	7.802	12.30	22.67	53.92	107.7	125.4	29.38	11.77	0.881	0.424	0.419	0.396	0.297	0.293	0.281	0.192	0.260	0.170	0.179	0.217	0.203	0.206	0.122
260.0	40.45	33.64	64.79	240.4	418.2	515.5	1891	9999.9	9999.9	2133	127.8	27.28	19.47	13.32	10.60	7.927	6.703	5.211	4.710	4.516	3.782	3.265	2.946	3.133	2.726	2.452	2.518	2.177	2.032	1.888	1.855	1.651	1.696	1.384	1.088	1.245	1.061	0.995	0.924	0.941	0.815	0.809	0.679	0.765	0.709	0.815	0.591	0.535	0.604	0.657	0.984	1.859	2.112	1.939	2.340	3.238	5.609	13.63	41.24	104.9	149.6	134.2	25.46	6.346	0.672	0.418	0.364	0.408	0.306	0.204	0.289	0.249	0.212	0.275	0.145	0.204	0.124
265.0	37.21	35.43	40.11	101.3	340.7	336.7	479.6	3082	9999.9	9999.9	1725	71.50	27.43	18.17	12.62	9.529	7.372	6.123	5.212	4.818	4.130	3.556	3.102	3.462	3.014	2.662	2.588	2.446	2.322	2.009	2.060	2.050	1.738	1.420	1.327	1.298	1.042	1.127	0.964	0.924	1.046	0.823	0.902	0.919	0.784	0.806	0.697	0.620	0.586	0.564	0.544	0.990	1.724	2.258	1.897	1.402	1.847	3.553	9.809	28.48	73.45	155.5	189.4	34.91	18.78	2.334	0.532	0.468	0.443	0.419	0.397	0.302	0.259	0.326	0.152	0.236	0.213
270.0	62.69	59.03	56.98	53.81	147.4	338.0	353.7	766.0	3412	9999.9	9999.9	6823	106.7	29.61	19.24	14.31	10.45	8.577	6.883	5.723	5.063	4.498	3.822	4.001	3.441	3.088	2.850	2.700	2.425	2.251	2.074	2.079	1.897	1.667	1.449	1.445	1.272	1.177	1.061	1.002	1.063	0.994	0.896	0.946	0.837	0.853	0.871	0.693	0.701	0.617	0.604	0.722	0.905	1.248	1.815	2.127	2.248	1.836	2.831	6.874	17.30	41.51	82.87	118.0	174.3	138.4	102.4	13.60	3.261	0.544	0.517	0.395	0.342	0.350	0.294	0.306	0.312
275.0	115.6	122.9	96.98	60.71	64.74	136.3	410.3	458.1	837.7	2454	9999.9	9999.9	9491	124.7	33.42	21.13	14.95	11.72	9.114	7.528	6.435	5.108	4.648	4.692	3.511	3.178	3.292	2.972	2.716	2.502	2.287	2.193	1.966	1.885	1.771	1.620	1.394	1.328	1.245	1.275	1.134	1.171	1.051	1.117	1.087	1.087	0.994	0.916	0.903	0.722	0.684	0.683	0.763	0.766	0.958	1.128	2.140	3.195	3.028	2.513	4.422	9.849	19.28	27.26	46.79	93.41	219.3	265.3	35.67	20.41	2.624	0.691	0.516	0.473	0.476	0.436	0.380
280.0	179.6	209.1	173.8	87.35	58.52	69.93	220.7	551.0	386.9	644.1	2759	9999.9	9999.9	6704	88.46	30.70	21.01	14.72	11.36	9.081	7.073	5.943	5.178	5.149	4.366	3.673	3.501	3.312	2.858	2.670	2.687	2.268	2.226	2.218	1.930	1.820	1.622	1.554	1.319	1.304	1.228	1.136	1.300	1.259	1.277	1.142	1.181	1.104	1.064	0.940	0.751	0.804	0.717	0.711	0.688	0.769	1.161	1.994	3.310	3.229	2.453	2.916	5.094	6.895	11.32	22.56	67.29	165.3	261.4	258.4	33.99	15.74	1.380	0.702	0.574	0.481	0.487
285.0	285.9	342.5	296.0	171.5	87.61	61.40	112.9	393.6	579.9	333.7	796.1	3579	9999.9	9999.9	962.7	62.94	29.82	19.52	14.20	10.97	8.325	6.774	6.136	6.657	4.988	4.108	3.907	3.600	3.095	3.141	2.850	2.408	2.374	2.491	2.381	2.174	1.890	1.937	1.399	1.377	1.248	1.501	1.389	1.403	1.715	1.647	1.560	1.550	1.677	1.153	1.113	0.995	0.928	0.886	0.704	0.781	0.911	1.163	1.826	3.007	3.778	3.160	2.631	2.477	3.604	6.276	16.36	40.75	93.64	217.9	318.0	238.4	29.16	9.783	1.052	0.760	0.732
290.0	486.4	628.8	577.0	341.0	163.5	101.0	113.5	222.7	536.5	706.0	609.2	1181	4092	9999.9	9999.9	9999.9	71.50	31.44	21.09	15.23	11.36	8.882	7.544	7.940	5.478	5.083	4.817	4.127	3.670	3.130	2.907	2.860	2.741	2.819	2.917	2.694	2.550	2.298	1.908	1.731	1.535	1.838	1.795	1.971	2.176	2.508	2.403	2.549	2.367	1.924	1.614	1.577	1.274	1.107	0.931	0.880	1.079	1.017	1.277	1.759	2.595	3.762	4.339	3.846	3.272	3.558	5.634	11.33	23.12	53.67	106.1	180.3	243.5	255.5	150.7	20.52	9.576
295.0	698.4	888.9	859.0	528.9	253.0	146.9	147.1	221.4	392.0	763.8	1111	883.4	1416	2669	9999.9	9999.9	5754	81.75	33.75	22.58	15.23	11.87	9.520	9.765	6.690	6.068	5.566	4.770	4.506	3.544	3.477	3.117	3.119	3.499	3.491	2.926	3.151	2.954	2.353	2.036	1.804	2.197	2.251	2.431	2.674	3.214	3.313	3.399	3.348	2.718	2.259	1.988	1.698	1.244	1.232	1.154	1.283	1.163	1.278	1.567	2.095	2.674	3.155	4.763	6.215	5.433	4.415	5.493	7.998	14.72	25.88	42.30	58.03	92.58	209.7	364.7	268.7
300.0	827.7	1074	1007	631.7	311.8	187.2	181.1	247.9	390.4	654.4	1253	1166	930.0	969.2	2776	9999.9	9999.9	4394	65.05	31.10	21.44	15.36	11.91	11.76	8.433	6.721	6.300	5.595	4.886	4.285	3.596	3.810	3.747	3.358	3.453	3.260	3.326	3.145	2.821	2.355	2.226	2.304	2.470	2.667	2.909	3.377	3.742	4.003	3.907	3.180	2.659	2.353	1.994	1.488	1.412	1.263	1.559	1.386	1.640	1.870	2.323	2.675	2.775	3.915	5.461	7.359	6.758	5.327	5.351	6.595	8.471	11.58	14.57	22.34	54.32	149.9	310.9
305.0	903.7	1182	1108	694.3	356.8	213.0	215.0	280.5	418.8	633.7	1048	1486	1011	638.7	819.7	3455	9999.9	9999.9	610.6	52.18	28.92	19.58	14.87	14.16	9.639	7.872	7.066	6.250	5.377	4.874	4.044	4.004	3.982	3.638	3.650	3.770	3.629	3.192	2.901	2.658	2.614	2.617	2.427	2.884	3.023	3.816	3.843	4.453	4.336	3.544	2.738	2.458	2.310	1.663	1.592	1.477	1.573	1.553	1.788	1.950	2.372	2.573	2.936	3.693	4.295	5.578	7.254	7.788	6.097	5.041	4.890	4.874	5.092	6.618	13.41	35.53	85.84
310.0	907.9	1156	1127	719.2	385.5	246.9	241.8	320.4	454.4	658.1	932.5	1260	1312	736.1	425.7	909.9	3924	9999.9	9999.9	9999.9	57.28	30.71	21.05	18.91	12.45	9.687	8.501	7.245	6.544	5.448	4.759	4.543	4.510	4.131	3.980	4.033	3.784	3.629	3.212	2.971	2.814	2.779	2.868	3.007	3.238	4.049	4.112	4.611	4.480	3.494	2.975	2.748	2.278	1.788	1.783	1.709	1.830	1.898	2.027	2.170	2.407	2.775	3.271	3.928	4.296	4.907	5.592	6.653	7.061	6.861	5.688	4.070	3.240	3.158	4.460	9.269	20.37
315.0	882.3	1131	1079	698.4	405.6	292.6	270.1	345.0	470.9	660.3	890.7	1053	1120	1022	460.8	354.7	973.6	2423	9999.9	9999.9	4211	64.38	31.53	27.10	16.18	12.82	10.11	8.823	8.020	6.018	5.382	5.084	4.539	4.395	4.449	4.329	4.262	3.904	3.325	3.284	2.888	3.014	3.150	3.103	3.415	3.941	4.201	4.805	4.221	3.572	3.040	2.777	2.338	2.107	1.975	1.953	1.863	2.222	2.164	2.274	2.490	2.911	3.241	3.934	4.296	5.010	5.275	5.563	5.333	5.730	6.312	5.997	4.441	3.005	2.491	3.233	5.831
320.0	855.6	1108	1060	710.5	405.2	299.7	298.0	353.0	474.9	666.6	869.8	988.2	970.7	949.0	682.4	278.2	321.4	624.6	2705	9999.9	9999.9	3539	56.13	37.05	21.97	15.04	12.56	10.61	9.073	7.294	6.638	5.626	4.794	5.009	4.640	4.551	4.213	3.827	3.349	3.124	3.191	3.105	3.107	3.184	3.224	3.795	4.047	4.653	4.253	3.645	2.996	2.911	2.613	2.191	1.926	1.855	2.084	2.244	2.110	2.366	2.699	3.010	3.477	3.780	4.125	4.746	4.861	5.297	5.063	4.727	5.132	5.507	5.542	4.539	2.725	2.161	2.511
325.0	833.6	1097	1050	710.8	424.0	318.1	309.3	368.8	485.5	653.5	840.1	960.6	919.5	785.3	757.7	400.6	192.5	224.2	679.5	3525	9999.9	9999.9	478.9	55.18	28.81	19.78	15.80	12.35	9.919	8.385	7.137	5.971	5.531	5.150	4.872	4.512	4.316	4.058	3.562	3.387	3.217	3.118	3.419	3.385	3.288	4.067	4.063	4.389	4.421	3.675	2.947	3.078	2.774	2.179	2.022	1.902	2.104	2.254	2.305	2.411	2.831	3.125	3.680	3.761	4.039	4.496	4.696	4.864	4.719	4.468	4.520	4.158	4.319	5.066	4.493	2.895	2.202
330.0	788.6	1028	1028	717.1	447.9	340.4	329.5	372.6	473.3	630.6	808.2	911.5	884.3	710.6	582.6	526.8	304.4	154.0	227.5	859.8	3980	9999.9	9999.9	9999.9	50.71	29.26	21.69	15.88	12.12	10.06	8.271	7.194	6.512	5.715	5.128	4.736	4.286	4.173	3.860	3.535	3.249	3.016	3.390	3.303	3.388	4.059	3.949	4.567	4.233	3.706	2.952	2.975	2.768	2.418	2.329	2.083	2.240	2.374	2.488	2.539	2.810	2.935	3.382	3.675	4.126	4.553	4.610	4.745	4.632	4.650	4.393	3.898	3.724	3.626	3.866	3.755	3.530
335.0	751.1	999.0	969.8	718.1	470.6	380.7	349.2	376.8	473.2	608.1	766.5	865.1	845.7	686.8	506.5	401.3	448.1	250.5	140.9	264.5	953.4	2430	9999.9	9999.9	9999.9	55.83	30.63	22.75	16.73	12.53	9.904	8.567	7.355	6.470	5.598	5.259	4.963	4.666	4.178	3.758	3.714	3.100	3.449	3.491	3.374	3.893	3.977	4.397	4.420	3.672	3.204	3.050	2.905	2.588	2.475	2.236	2.492	2.462	2.489	2.576	2.867	2.911	3.224	3.600	3.914	4.459	4.099	4.306	4.745	4.489	4.329	3.735	3.689	3.304	2.911	2.828	2.783
340.0	745.6	930.8	955.8	719.7	492.3	394.9	361.9	392.6	455.3	585.2	733.0	824.9	805.6	668.7	489.8	348.6	374.6	381.7	169.4	139.7	285.0	609.9	2828	9999.9	9999.9	3065	51.35	28.74	21.04	14.91	12.01	9.845	8.252	7.077	6.182	5.722	4.920	4.702	4.186	3.846	3.561	3.378	3.253	3.409	3.438	3.957	3.962	4.408	4.215	3.536	3.195	3.118	3.066	2.356	2.514	2.217	2.602	2.526	2.548	2.863	3.077	2.916	3.356	3.434	3.659	4.027	4.045	4.254	4.411	4.580	4.229	3.607	3.295	3.018	2.744	2.286	2.354
345.0	674.6	883.2	914.5	710.4	498.0	410.0	367.5	397.4	449.5	561.5	691.8	780.9	771.3	642.8	482.9	335.6	289.4	378.1	286.5	137.3	143.8	208.3	700.1	4183	9999.9	9999.9	423.5	42.71	26.10	18.00	13.29	10.44	9.106	7.052	6.581	5.794	4.946	4.833	3.977	3.727	3.283	3.336	3.377	3.177	3.341	3.951	3.889	4.135	3.861	3.378	3.128	3.248	2.769	2.474	2.370	2.419	2.718	2.466	2.460	2.858	2.811	2.969	3.341	3.328	3.611	4.099	3.837	4.020	4.468	4.137	4.035	3.864	3.427	3.128	2.764	2.344	2.151
350.0	627.8	802.4	835.2	684.8	515.9	429.0	396.9	412.4	453.6	549.4	653.4	722.5	722.3	613.1	477.8	345.0	273.4	281.9	336.6	254.6	146.7	133.1	232.9	1015	4392	9999.9	9999.9	9767	45.68	25.32	17.34	12.61	10.54	8.382	7.300	6.140	5.220	4.876	4.298	3.726	3.428	3.169	3.080	3.222	3.430	3.585	3.691	4.024	3.646	3.315	2.989	3.196	2.845	2.538	2.634	2.429	2.874	2.543	2.480	2.628	2.717	2.899	3.070	3.170	3.490	3.787	3.573	3.684	3.910	3.866	3.665	3.550	3.232	3.039	2.826	2.506	2.200
355.0	584.3	737.7	770.9	663.6	527.4	464.0	426.0	440.9	467.0	539.3	626.3	677.3	673.8	595.0	473.9	362.3	291.8	258.8	266.7	338.0	249.3	144.9	148.5	312.7	1049	2472	9999.9	9999.9	9999.9	50.46	24.68	17.31	13.17	9.867	8.017	6.467	5.767	5.005	4.521	3.950	3.473	3.163	3.229	2.954	3.404	3.246	3.352	3.764	3.650	3.204	2.804	3.274	2.974	2.694	2.584	2.506	2.601	2.538	2.526	2.768	2.686	2.896	2.896	3.197	3.273	3.457	3.455	3.458	3.788	3.408	3.496	3.482	3.224	3.034	2.797	2.533	2.296
360.0	563.7	706.0	753.1	658.3	542.1	485.6	459.7	462.9	493.8	551.1	615.0	652.1	659.7	577.5	474.3	372.1	315.8	277.4	255.4	296.5	343.1	204.1	147.3	168.1	313.5	621.5	2992	9999.9	9999.9	2904	43.76	24.00	16.51	12.14	9.141	7.431	6.160	5.520	4.759	4.186	3.649	3.594	3.389	2.890	3.232	3.389	3.219	3.630	3.549	3.118	2.683	3.373	2.835	2.759	2.640	2.563	2.823	2.774	2.759	2.780	2.833	2.695	3.056	3.135	3.133	3.432	3.231	3.375	3.388	3.449	3.356	3.106	3.217	3.051	2.705	2.594	2.478
365.0	543.4	668.1	724.7	650.0	573.7	509.2	483.5	487.9	510.6	559.0	610.8	638.4	638.0	572.4	478.2	389.5	337.2	295.7	269.8	267.8	338.1	303.3	176.8	153.6	162.6	215.0	741.5	4127	9999.9	9999.9	395.8	37.77	21.77	15.16	11.08	8.282	6.887	6.057	5.201	4.233	3.883	3.856	3.467	3.026	3.044	3.669	3.334	3.491	3.620	3.219	2.812	3.119	3.062	2.960	2.931	2.746	3.006	2.813	2.770	2.801	2.904	3.313	3.097	3.107	3.290	3.384	3.315	3.246	3.439	3.544	3.391	3.571	3.166	3.000	2.916	2.877	2.648
370.0	535.2	657.4	687.5	648.5	580.1	549.4	515.7	520.4	538.1	568.7	613.8	637.6	620.0	558.7	483.4	404.5	360.6	330.7	303.6	286.9	295.0	337.0	287.8	191.9	155.4	142.9	244.5	996.8	4630	9999.9	9999.9	8932	40.49	22.54	15.60	11.12	8.610	7.050	5.756	4.875	4.244	4.168	3.806	3.336	3.303	3.605	3.386	3.666	3.585	3.047	2.753	3.179	3.172	3.031	3.016	2.877	3.232	2.942	2.954	3.019	3.045	3.310	3.390	3.257	3.307	3.316	3.322	3.263	3.331	3.369	3.275	3.068	3.206	3.101	2.710	2.718	2.679
375.0	512.0	622.0	690.0	658.2	612.4	572.7	551.2	542.1	562.1	581.8	618.4	636.5	603.0	557.2	486.1	427.5	386.6	365.7	338.0	317.0	302.9	307.7	346.6	294.0	189.1	152.5	153.7	302.0	1098	2521	9999.9	9999.9	9999.9	43.97	22.42	15.44	11.10	8.632	6.497	5.483	4.800	4.618	3.819	3.913	3.224	3.684	3.531	3.648	3.520	3.173	2.819	3.389	3.204	3.178	3.092	3.103	3.232	3.200	3.152	3.119	3.174	3.208	3.445	3.311	3.393	3.305	3.367	3.216	3.499	3.350	3.228	3.131	3.436	3.173	2.952	2.984	2.880
380.0	507.7	618.3	698.9	658.9	630.2	604.0	586.2	564.8	580.6	599.4	623.6	636.5	609.6	554.2	489.0	434.1	405.4	388.3	365.9	347.7	327.8	312.4	324.3	359.5	250.6	177.5	148.2	158.3	318.7	625.3	3007	9999.9	9999.9	2470	37.99	20.06	13.91	10.94	7.669	5.888	5.047	5.078	4.334	3.879	3.670	3.610	3.584	3.754	3.565	3.252	3.025	3.328	3.352	3.309	3.336	3.044	3.218	3.323	3.150	3.413	3.230	3.299	3.558	3.479	3.287	3.345	3.330	3.393	3.565	3.475	3.167	3.285	3.517	3.142	2.933	2.949	3.044
385.0	489.4	610.7	671.6	670.4	649.1	619.1	607.9	587.5	588.7	605.6	623.6	627.1	609.1	550.9	496.8	447.3	418.2	402.5	388.3	368.6	346.9	330.6	316.2	353.5	328.1	214.9	163.5	140.1	155.7	207.3	733.3	4124	9999.9	9999.9	1855	30.02	16.94	12.70	8.910	6.921	5.897	5.119	4.403	3.962	3.843	4.002	3.701	3.850	3.435	3.169	3.161	3.538	3.348	3.415	3.436	3.299	3.530	3.395	3.148	3.366	3.429	3.226	3.364	3.306	3.394	3.365	3.133	3.364	3.489	3.152	3.191	3.267	3.288	3.183	2.961	3.095	2.889
390.0	496.5	626.2	666.4	670.8	652.5	646.1	625.5	622.5	609.1	615.6	628.1	628.6	603.1	557.1	501.2	459.7	438.2	422.0	409.5	394.6	372.9	356.4	334.6	328.1	344.9	298.6	206.4	158.4	138.4	128.6	228.9	983.1	4417	9999.9	9999.9	7240	32.18	17.67	11.81	8.810	6.713	5.607	5.001	4.511	3.948	4.203	3.803	3.811	3.538	3.333	3.094	3.481	3.254	3.516	3.366	3.243	3.561	3.655	3.428	3.231	3.401	3.406	3.547	3.397	3.513	3.370	3.276	3.248	3.430	3.240	3.305	3.300	3.206	3.154	3.237	3.220	3.003
395.0	523.4	644.3	660.0	656.6	672.2	671.1	650.1	634.3	628.3	629.3	629.0	631.1	595.0	557.1	509.9	468.4	451.2	440.2	427.1	410.3	397.5	379.5	359.2	340.2	321.4	331.3	285.5	195.8	159.4	130.8	130.0	280.9	1035	2496	9999.9	9999.9	9999.9	36.91	16.98	12.17	8.807	6.978	5.730	4.950	4.688	4.388	4.149	4.082	3.712	3.335	3.149	3.756	3.513	3.516	3.643	3.297	3.940	3.853	3.625	3.479	3.539	3.565	3.446	3.294	3.540	3.609	3.196	3.488	3.317	3.291	3.384	3.271	3.228	3.231	3.332	3.356	3.211
400.0	511.2	628.4	650.9	672.3	692.4	681.2	655.5	650.2	640.7	639.5	640.1	629.2	600.8	557.1	508.7	471.9	456.6	450.4	437.2	425.7	411.4	395.4	376.9	352.6	325.9	320.8	327.6	246.9	179.6	143.1	120.4	134.0	286.1	603.7	2889	9999.9	9999.9	2176	31.55	14.65	10.47	8.186	6.323	5.188	4.894	4.465	4.193	4.189	3.820	3.457	3.128	3.848	3.651	3.465	3.863	3.357	3.743	3.681	3.441	3.489	3.573	3.528	3.535	3.496	3.247	3.472	3.516	3.408	3.259	3.424	3.304	3.144	3.047	3.113	3.189	3.345	3.284
405.0	517.0	608.7	656.2	684.8	692.8	670.1	670.9	658.0	644.1	632.3	644.2	622.3	598.7	550.9	512.5	467.1	456.8	449.1	444.8	435.7	419.7	404.6	386.0	364.7	334.6	314.5	319.3	299.5	209.4	162.4	130.5	109.1	125.7	183.4	689.4	3512	9999.9	9999.9	1693	24.60	12.70	9.601	7.555	5.891	5.232	4.836	4.304	4.414	3.826	3.546	3.214	3.728	3.573	3.755	3.835	3.458	3.960	3.499	3.551	3.746	3.569	3.584	3.450	3.386	3.348	3.377	3.233	3.421	3.407	3.298	3.331	3.022	2.991	3.229	3.007	3.213	3.315
410.0	503.7	606.9	663.5	668.9	686.3	681.8	671.3	668.0	649.1	644.0	634.4	617.4	584.3	543.5	505.3	468.2	453.2	445.5	440.0	431.9	421.2	410.0	393.1	375.8	350.1	322.1	302.9	303.0	273.9	202.3	150.5	119.5	102.3	97.88	199.1	825.8	3523	9999.9	9999.9	6696	27.61	13.32	9.600	7.100	5.829	5.068	4.638	4.567	3.988	3.477	3.198	3.871	3.686	3.808	3.607	3.616	4.029	3.812	3.540	3.885	3.707	3.462	3.468	3.547	3.490	3.154	3.374	3.342	3.144	3.205	3.228	3.126	2.966	3.026	3.055	3.059	3.240
415.0	484.3	596.3	655.8	664.8	683.1	672.5	665.9	666.2	652.3	646.6	636.1	618.0	570.9	526.3	486.4	459.5	445.3	437.8	431.1	432.1	421.1	410.7	397.7	380.4	356.0	333.9	300.9	283.4	289.1	259.7	181.3	137.1	108.6	87.20	96.25	224.9	817.7	2374	9706	9999.9	9079	33.55	12.93	8.726	6.873	6.268	4.941	4.706	4.226	3.671	3.331	3.753	4.025	3.765	3.601	3.799	3.958	3.777	3.391	3.915	3.447	3.674	3.818	3.274	3.431	3.227	3.316	3.173	3.024	3.262	3.142	2.937	2.920	3.166	2.867	2.905	2.993
420.0	468.3	591.5	640.8	646.8	662.9	658.9	652.0	654.0	656.6	633.9	628.2	595.6	555.7	513.1	473.8	446.5	435.9	429.8	427.5	420.6	409.8	407.6	391.7	379.7	358.9	333.5	308.8	285.6	274.3	280.7	218.8	153.1	117.2	92.62	79.07	95.04	217.2	560.9	2483	9999.9	9999.9	2088	28.50	11.37	8.511	7.285	5.513	5.391	4.384	3.688	3.289	3.954	3.912	3.837	3.621	3.696	3.918	3.883	3.674	3.831	3.465	3.642	3.655	3.513	3.167	3.358	3.540	3.274	3.265	3.211	3.194	2.995	2.718	2.905	2.878	2.936	3.001
425.0	492.6	576.4	634.3	647.1	655.3	647.5	644.6	648.1	646.0	627.8	619.7	600.7	551.2	508.4	465.6	438.0	425.3	420.0	414.5	415.9	404.3	398.1	388.9	375.3	358.7	337.2	311.7	289.5	266.5	269.0	251.5	175.4	130.1	100.8	80.76	71.16	87.19	156.5	583.2	2875	9999.9	9999.9	1687	21.79	10.90	8.433	6.096	5.637	4.564	3.877	3.362	3.824	3.737	3.827	3.669	3.624	3.845	3.647	3.667	3.777	3.601	3.580	3.649	3.513	3.288	3.384	3.308	3.084	3.033	3.083	2.993	3.228	2.736	2.891	2.739	2.886	2.943
430.0	900.6	540.6	614.9	614.9	627.1	635.6	636.0	651.4	643.2	637.7	610.7	585.4	543.8	497.6	454.9	425.5	414.6	404.1	403.6	399.5	396.2	388.7	381.5	372.1	355.9	336.6	317.2	292.5	272.7	254.2	245.1	215.0	154.5	113.3	90.46	72.86	64.65	71.10	159.5	667.7	2886	9999.9	9999.9	6097	110.3	12.02	8.070	6.701	5.273	4.276	3.750	4.096	3.859	3.979	3.843	3.636	4.033	3.790	3.788	3.699	3.717	3.604	3.646	3.603	3.357	3.355	3.281	3.179	2.952	3.061	2.943	2.971	2.831	2.898	2.897	2.801	2.848
435.0	2085	591.9	587.6	609.8	614.4	635.9	623.8	633.3	631.1	623.0	610.2	572.3	535.3	487.3	440.2	413.5	397.3	390.5	390.0	383.7	385.6	377.2	372.5	365.8	349.7	334.2	319.7	298.8	276.0	256.2	231.8	221.3	191.6	135.4	102.8	81.49	65.73	57.02	69.10	175.6	666.0	2296	6924	9999.9	9105	33.17	11.86	8.674	6.696	4.924	4.291	4.513	4.226	4.214	3.841	3.770	4.078	4.012	3.848	3.667	3.820	3.724	3.503	3.644	3.380	3.407	3.055	3.241	2.997	2.976	3.072	2.818	2.714	2.826	2.846	2.836	2.783
440.0	3236	1028	567.8	585.8	594.2	620.7	620.1	623.8	627.1	624.4	604.2	567.1	518.5	475.2	429.0	400.0	388.8	378.6	378.6	373.2	375.0	368.2	363.8	359.3	344.0	331.3	316.6	298.0	277.4	256.6	230.1	208.0	199.9	160.8	114.5	89.03	71.27	59.48	52.76	68.81	173.6	534.8	1716	9217	9999.9	2007	26.94	11.49	7.912	5.844	4.911	5.039	4.491	4.427	3.864	3.816	4.023	3.971	3.789	3.549	3.692	3.698	3.410	3.606	3.475	3.286	3.151	3.145	3.035	2.919	2.921	2.668	2.785	2.832	2.656	2.728	2.878
445.0	3227	1690	580.1	571.8	585.5	601.9	604.8	619.0	620.5	613.7	592.3	563.4	508.6	470.4	420.8	389.9	376.9	367.4	365.6	360.9	358.6	355.0	352.3	348.6	334.7	323.9	309.5	293.3	278.2	257.7	233.2	204.4	189.8	178.3	130.8	94.75	77.71	63.04	52.19	47.51	65.77	142.6	405.8	2450	9999.9	9999.9	1565	23.07	9.655	6.406	5.378	5.415	4.596	4.422	4.120	3.987	4.054	4.279	3.734	3.856	3.679	3.541	3.394	3.419	3.497	3.254	3.190	3.004	3.000	3.132	2.795	2.872	2.447	2.891	2.649	2.534	2.912
450.0	1720	4038	1321	542.6	555.8	566.6	580.4	592.3	591.0	591.4	577.2	541.9	489.3	444.7	397.4	371.4	358.1	348.6	344.3	341.7	338.2	336.0	336.9	331.2	323.4	312.1	297.9	286.9	271.6	256.2	231.2	205.1	178.9	168.8	151.2	112.8	85.38	68.84	56.86	47.72	44.86	58.15	112.9	567.0	2669	9592	9999.9	6135	100.7	9.782	6.563	6.457	5.208	4.840	4.331	3.939	4.247	4.027	3.885	3.935	3.753	3.531	3.512	3.406	3.386	3.217	2.932	2.933	2.964	2.960	2.751	2.751	2.568	2.634	2.429	2.499	2.670
455.0	697.7	3520	3773	622.2	518.0	526.7	554.6	562.6	562.3	562.8	546.1	511.5	469.6	416.7	377.6	345.7	332.1	326.4	319.0	316.5	313.9	312.4	313.2	307.5	303.6	289.8	280.5	275.6	260.5	247.5	223.5	199.8	173.4	155.2	147.7	130.7	95.84	73.82	61.30	51.29	44.54	41.05	48.92	146.3	613.1	2181	5346	9999.9	8237	25.50	9.553	7.990	5.972	5.193	4.824	4.037	4.312	4.063	3.971	3.818	3.517	3.414	3.465	3.313	3.318	3.103	2.731	2.887	2.599	2.571	2.468	2.575	2.418	2.374	2.195	2.680	2.317
460.0	431.5	1931	5600	910.3	498.6	507.9	525.1	540.3	537.3	538.8	521.6	492.8	450.4	399.1	357.3	329.4	309.9	304.6	299.2	296.4	292.6	291.5	291.2	289.5	283.3	273.1	266.7	259.1	248.5	239.4	218.8	194.6	170.0	147.6	133.3	131.0	109.9	78.95	64.25	54.03	45.76	38.99	35.83	53.78	156.0	504.3	1278	7048	9999.9	1528	22.15	10.45	7.040	6.068	5.159	4.088	4.357	4.335	3.879	3.536	3.582	3.589	3.422	3.348	3.408	3.012	2.828	2.833	2.750	2.576	2.732	2.471	2.407	2.495	2.301	2.341	2.296
465.0	371.2	862.8	5357	3149	502.7	472.0	494.3	509.5	516.7	513.5	499.6	474.3	424.3	378.3	337.8	305.1	293.4	285.7	281.6	276.4	275.0	272.0	272.6	271.9	265.0	257.7	251.5	243.4	237.5	228.5	210.5	188.6	164.4	143.5	126.6	119.5	114.7	88.10	67.49	57.35	47.17	39.40	34.83	34.09	53.82	130.2	302.7	1776	9464	9999.9	1362	23.49	9.183	7.147	5.770	4.675	4.651	4.582	3.926	3.728	3.486	3.448	3.370	3.212	3.205	2.841	2.941	2.641	2.595	2.594	2.560	2.430	2.385	2.260	2.147	2.374	2.089
470.0	355.6	472.8	2585	5673	1425	441.0	456.9	470.7	473.7	472.4	462.2	437.7	392.6	349.0	310.3	282.2	265.7	257.4	253.0	250.2	246.4	245.2	247.5	247.1	240.8	234.7	229.7	222.7	218.7	210.9	195.3	176.3	155.7	137.5	120.5	107.5	103.2	94.62	74.33	57.60	47.81	40.83	35.24	30.69	31.98	46.86	83.43	411.4	2383	7047	9999.9	6130	110.6	10.72	7.022	5.427	5.092	4.458	4.022	3.778	3.632	3.366	3.375	3.178	3.116	2.828	2.773	2.839	2.290	2.344	2.425	2.248	2.277	2.181	2.124	2.124	1.976
475.0	328.3	358.4	880.2	4426	4562	529.5	405.8	430.9	430.2	439.6	420.3	400.6	354.6	318.8	282.5	259.2	240.7	231.6	224.4	224.0	219.2	220.9	217.1	218.3	215.4	210.4	205.8	199.4	198.4	192.8	178.6	161.6	145.4	127.8	113.9	100.5	91.82	85.97	81.75	61.91	48.40	41.56	35.62	30.60	27.30	27.85	33.76	104.9	541.9	1587	3530	9999.9	6978	30.93	9.526	6.320	5.281	4.821	4.017	3.395	3.408	3.112	3.088	2.970	2.932	2.773	2.708	2.452	2.239	2.247	2.404	2.160	2.076	2.085	1.952	1.887	1.942
480.0	313.7	342.1	466.0	2179	6684	1410	390.2	405.3	404.3	406.7	397.5	375.1	335.0	301.3	267.8	238.4	224.8	217.4	207.9	205.0	202.2	201.2	201.1	201.5	198.3	192.7	190.7	188.1	186.3	178.8	168.6	153.8	136.6	122.7	110.1	95.48	86.33	78.25	78.26	67.18	51.40	42.81	35.86	30.96	26.97	24.87	22.82	37.07	132.2	364.0	816.2	4393	9999.9	6055	28.48	8.235	6.376	5.340	4.490	3.693	3.220	3.377	3.278	3.018	3.017	2.734	2.677	2.520	2.418	2.188	2.130	1.964	1.992	1.897	2.091	1.754	1.837
485.0	281.8	345.0	353.8	865.2	5973	3670	401.0	385.3	385.4	390.9	380.3	358.6	320.7	285.3	253.5	227.9	210.3	203.4	197.9	191.8	189.3	190.0	188.5	189.1	184.3	181.9	177.6	178.0	174.9	169.5	160.6	144.2	131.1	117.0	105.0	92.27	81.96	74.31	72.78	69.36	56.88	43.66	36.19	32.54	27.92	24.48	21.07	22.54	41.29	91.74	192.4	1048	6128	9999.9	1709	23.66	8.200	6.109	4.657	4.027	3.663	3.598	3.252	2.962	2.758	2.625	2.471	2.421	2.294	2.270	1.920	1.879	2.018	1.639	1.854	1.625	1.793
490.0	222.4	331.0	335.4	431.9	2755	6438	1400	358.2	359.4	363.5	356.3	329.9	300.5	267.6	238.4	211.1	196.6	185.8	180.5	176.1	172.2	174.1	171.4	172.0	170.3	166.5	163.6	164.3	160.7	156.5	149.0	136.1	123.0	110.9	100.7	88.86	79.27	70.50	65.00	63.07	60.46	47.97	37.75	33.02	28.58	24.75	21.86	19.33	21.70	31.33	52.75	243.7	1472	5156	9999.9	5999	130.9	11.02	5.979	4.721	4.124	3.630	3.221	2.980	2.736	2.542	2.428	2.470	2.108	2.034	1.974	1.875	1.812	1.781	1.769	1.573	1.713
495.0	193.5	286.1	341.9	316.3	853.8	4960	5046	414.5	330.6	341.0	329.0	302.2	279.4	244.9	215.1	192.3	177.1	170.6	163.5	159.3	156.3	155.4	154.8	153.4	151.9	149.3	147.4	148.1	146.3	143.4	136.2	125.6	114.5	103.5	93.27	83.05	75.43	66.22	61.47	55.44	55.49	52.98	42.03	33.02	28.91	25.67	22.40	19.44	17.81	18.10	21.48	63.85	336.8	1160	3278	9999.9	8693	207.6	9.578	5.553	4.335	3.639	3.326	2.962	2.852	2.720	2.340	2.186	1.976	1.845	1.921	1.671	1.736	1.663	1.663	1.558	1.587
500.0	181.7	245.1	329.3	284.2	393.8	2391	7529	1267	310.6	315.9	307.3	285.9	260.7	228.9	202.1	182.1	165.7	157.5	150.9	146.1	143.4	142.4	140.0	139.6	140.6	137.0	136.8	136.3	135.0	131.6	125.5	116.1	106.7	96.79	87.65	79.16	71.63	64.02	58.51	52.44	49.64	51.15	45.94	34.59	29.51	25.47	21.96	19.65	17.29	16.04	14.56	23.48	83.67	266.9	751.8	3836	9999.9	6462	32.36	7.684	5.082	3.986	3.436	2.925	2.651	2.413	2.214	2.158	1.816	1.852	1.792	1.779	1.529	1.601	1.622	1.420	1.454
505.0	157.2	208.8	311.0	278.2	285.7	862.3	6945	3049	308.5	292.2	288.9	266.8	241.1	212.1	186.2	168.2	152.0	145.6	139.6	134.9	131.6	130.1	128.4	127.4	128.0	125.7	125.4	125.5	125.5	120.8	116.2	108.1	99.30	89.26	82.24	74.19	68.42	61.32	55.00	49.76	46.06	45.09	46.54	37.99	29.74	25.69	22.82	20.02	17.67	15.48	13.23	14.77	27.03	67.63	176.2	895.4	5224	9999.9	1923	26.32	6.385	4.312	3.618	2.860	2.797	2.435	2.208	2.002	1.990	1.780	1.634	1.587	1.477	1.467	1.373	1.407	1.356
510.0	146.6	179.0	241.5	285.7	240.2	371.3	3178	7052	1275	266.5	258.3	238.1	217.2	192.0	166.7	151.7	135.6	129.1	125.2	120.3	116.8	115.3	113.6	112.9	112.9	110.8	111.0	110.1	110.3	108.3	104.9	96.95	88.75	80.52	73.66	67.16	62.40	56.09	51.14	46.08	42.48	39.46	40.27	39.24	32.33	25.47	21.79	19.47	17.06	15.06	13.31	12.96	13.91	23.00	46.95	207.3	1231	4503	8170	4837	134.5	8.344	4.438	3.435	2.823	2.496	2.292	1.895	1.833	1.708	1.550	1.512	1.367	1.506	1.356	1.304	1.309
515.0	113.0	157.4	192.2	262.3	237.4	237.1	905.1	6030	5186	300.1	230.5	218.0	195.1	173.4	151.2	132.5	119.3	114.3	110.4	106.4	101.9	100.9	99.62	98.89	98.02	98.75	96.61	96.94	96.51	94.78	91.86	85.45	78.98	72.52	65.68	60.56	55.69	50.74	46.32	41.97	38.83	34.90	33.99	34.62	34.56	26.93	21.61	19.15	16.11	14.35	13.06	12.43	10.99	12.35	17.43	52.85	280.7	1011	2456	7702	6235	204.9	7.074	4.049	3.119	2.592	2.244	2.044	1.853	1.598	1.495	1.425	1.425	1.314	1.243	1.160	1.070
520.0	117.3	144.9	166.0	210.5	242.9	194.5	354.4	2914	8591	1088	215.9	198.1	179.7	157.9	136.8	122.1	112.2	104.0	99.46	98.44	90.08	90.74	89.40	89.36	87.18	87.37	85.53	87.62	87.15	86.70	82.40	78.00	70.78	65.93	61.32	55.51	50.91	46.80	42.17	38.71	35.39	32.76	29.57	29.62	32.94	28.13	22.35	18.32	15.98	14.12	12.03	11.96	10.43	10.01	10.48	18.17	68.73	231.8	560.0	2819	8583	2124	32.02	5.470	3.541	2.701	2.463	1.979	1.985	1.650	1.664	1.293	1.345	1.239	1.343	1.091	1.185
525.0	105.4	136.0	153.4	176.6	238.7	192.7	221.4	993.1	8622	2356	214.0	184.4	166.7	145.4	128.1	112.3	103.2	93.26	90.67	86.55	84.06	82.53	81.21	81.47	79.49	79.77	77.84	80.32	80.32	78.71	75.52	70.66	66.02	60.35	55.60	51.50	46.26	42.67	39.54	36.54	32.81	30.61	28.35	26.14	28.72	29.43	23.10	17.81	15.57	13.55	11.92	11.25	10.41	9.371	8.695	9.998	21.29	57.49	130.6	655.0	3778	7846	1851	25.48	4.406	3.169	2.605	2.102	1.844	1.678	1.510	1.407	1.193	1.157	1.164	0.942	1.123
530.0	96.39	114.7	128.9	142.1	196.5	202.9	172.3	354.2	4052	8105	935.6	167.8	148.7	130.4	112.4	100.6	91.58	84.03	80.93	76.24	74.34	73.12	70.76	70.25	69.11	69.29	69.69	69.52	68.87	69.21	66.92	61.87	57.64	52.70	49.29	45.54	41.75	38.46	36.09	33.05	30.12	28.09	25.64	24.11	23.67	25.37	23.61	18.56	14.57	12.87	11.59	10.40	9.567	8.927	8.514	8.049	10.02	18.07	33.99	151.0	880.2	3204	5772	3557	134.3	6.750	3.017	2.477	1.889	1.593	1.476	1.328	1.168	1.109	1.102	0.989	1.094
535.0	92.06	111.3	111.3	125.0	145.5	208.0	160.1	187.0	1077	7536	5457	199.2	131.0	113.4	98.70	89.29	81.57	73.35	69.55	65.76	62.85	62.93	61.60	61.62	60.77	60.00	59.52	59.20	58.39	58.97	58.25	53.52	49.94	45.88	42.77	39.41	36.34	33.70	31.42	29.33	26.73	24.49	22.89	21.63	20.23	20.32	21.28	19.83	14.63	11.84	10.59	9.767	8.516	8.112	7.697	7.305	6.906	8.666	11.94	37.53	199.7	718.3	1683	5257	4499	201.0	5.019	3.023	2.220	1.797	1.407	1.278	1.183	1.167	0.973	0.979	0.878
540.0	80.70	98.10	107.2	106.8	117.8	178.4	164.8	142.9	346.5	3632	9710	735.0	120.8	103.9	88.44	77.89	72.61	66.59	61.29	58.49	56.57	56.61	54.87	54.80	52.72	53.19	51.95	52.94	52.15	52.10	51.07	47.24	44.59	40.98	38.08	35.48	32.25	29.58	27.54	26.56	24.13	22.19	20.39	19.39	18.31	17.36	18.04	18.56	15.65	12.08	9.633	9.109	8.273	7.515	7.274	7.110	6.182	6.372	6.677	12.13	48.16	163.7	382.9	1886	5926	2114	31.89	3.784	2.616	1.924	1.750	1.289	1.289	0.902	0.938	0.997	0.790
545.0	74.40	88.10	96.89	92.64	99.76	137.4	175.7	121.3	169.2	1160	9999.9	1776	115.6	94.79	78.80	70.79	65.64	58.58	56.30	51.75	50.65	48.67	48.60	47.60	46.93	46.45	45.81	46.65	46.13	46.29	44.83	42.46	39.20	36.55	33.86	30.95	30.07	27.12	25.19	23.87	21.29	20.69	19.40	17.94	16.29	15.43	15.30	15.87	15.53	12.43	9.219	8.368	7.425	7.368	6.748	6.663	6.080	5.440	5.218	6.216	13.86	39.90	89.05	436.4	2506	5441	1749	24.35	3.315	2.031	1.578	1.372	1.231	1.035	0.985	0.912	0.801
550.0	70.12	79.46	84.50	76.90	83.75	95.02	159.4	120.5	115.4	348.9	4619	8257	609.2	84.75	69.58	60.60	54.80	49.79	47.13	44.10	43.39	40.70	40.77	40.51	38.87	39.16	39.17	38.46	38.92	38.91	37.51	35.48	33.18	31.62	29.02	26.16	25.70	22.89	21.63	19.94	18.48	16.95	16.44	15.35	14.28	13.60	12.78	12.40	13.00	12.22	9.522	7.758	6.721	6.584	5.809	5.700	5.489	5.255	4.315	4.333	5.803	11.72	22.63	100.3	580.7	2109	3868	2564	132.4	5.283	1.883	1.415	1.262	1.031	0.893	0.850	0.753
555.0	64.01	67.42	71.47	66.76	66.65	71.35	121.4	137.3	93.34	144.2	1168	8435	4306	93.78	60.84	51.20	44.96	40.63	38.86	36.88	34.99	33.93	33.12	32.80	32.25	31.38	32.34	32.55	32.25	32.79	31.45	29.27	27.42	25.67	24.03	21.43	21.03	19.37	18.05	16.72	15.82	14.66	13.80	12.95	12.15	11.46	10.79	10.13	9.962	10.42	9.428	7.349	5.975	5.508	5.096	4.865	4.763	4.469	4.140	3.620	3.594	5.054	7.472	24.54	131.6	472.3	1081	3328	2187	36.52	3.538	1.846	1.312	1.252	0.944	0.861	0.727
560.0	58.24	70.09	66.90	65.47	57.47	60.80	81.74	140.3	88.28	92.08	330.0	4272	9081	168.2	51.77	45.50	39.59	36.61	33.53	31.71	31.14	28.92	29.21	28.52	27.38	27.16	26.87	27.13	26.92	27.61	26.14	25.01	23.52	22.25	20.00	17.95	17.35	16.78	15.70	14.44	13.54	12.58	11.67	11.13	10.36	9.781	9.281	8.778	8.142	8.878	8.683	7.175	5.465	4.827	4.589	4.370	4.226	3.725	3.994	3.467	3.084	3.188	3.748	7.615	31.27	107.3	245.2	1138	3388	1854	31.59	2.716	1.738	1.179	0.998	0.760	0.817
565.0	57.99	68.28	64.41	54.86	54.07	54.13	61.00	124.1	94.43	73.97	131.0	1343	9999.9	1169	50.85	41.36	34.76	32.46	28.81	27.43	26.63	25.19	25.21	24.79	23.43	23.46	23.09	23.72	22.77	24.15	22.51	21.28	20.20	19.03	17.36	15.71	14.85	14.26	13.06	12.44	11.70	10.69	10.38	9.822	9.126	8.817	8.373	7.666	6.923	7.087	7.505	7.257	5.266	4.601	4.194	3.850	3.597	3.386	3.480	3.363	2.719	2.574	2.631	3.412	8.695	25.80	56.90	261.3	1376	3179	1401	23.55	2.097	1.366	1.071	0.792	0.686
570.0	62.62	65.96	65.14	55.88	49.85	45.84	50.75	85.03	113.4	70.53	84.50	366.7	5333	6544	342.3	35.85	31.31	27.09	24.60	22.93	22.33	20.71	20.57	20.64	19.81	19.20	18.84	19.12	18.87	19.34	18.77	17.71	16.42	15.32	14.15	13.16	12.44	11.79	11.05	10.39	9.811	8.912	8.521	8.168	7.757	7.542	7.095	6.541	5.864	5.535	5.582	6.200	5.344	4.340	3.566	3.435	3.240	3.241	2.865	2.834	2.768	2.402	2.039	2.227	3.444	7.176	14.37	59.97	318.1	1177	2239	1219	122.1	3.732	1.364	0.843	0.661
575.0	62.49	68.73	75.58	53.49	47.26	41.23	41.51	56.36	110.7	83.03	70.48	137.0	1362	7632	2801	40.10	28.22	23.18	21.14	18.68	18.88	17.53	16.82	16.90	16.55	16.04	16.12	15.74	14.70	15.58	15.22	14.09	13.14	12.56	11.47	10.86	10.41	9.727	9.242	8.404	8.057	7.529	7.184	6.760	6.410	6.212	5.834	5.487	4.801	4.577	4.293	4.429	4.717	4.364	3.328	3.089	2.701	2.568	2.462	2.257	2.290	2.469	2.061	1.907	2.173	2.881	4.560	14.65	72.26	263.8	602.4	1765	1848	36.46	2.551	0.976	0.807
580.0	66.03	72.07	81.77	55.85	42.51	34.77	36.62	45.63	90.47	101.7	67.72	86.06	359.7	4215	6564	103.2	25.42	21.02	18.17	16.12	16.23	14.80	14.70	14.03	13.76	13.41	13.28	14.00	13.79	13.07	12.72	12.20	11.48	10.88	10.10	9.486	9.149	8.602	7.933	7.150	6.890	6.557	6.161	5.739	5.606	5.363	4.893	4.850	4.298	3.817	3.503	3.639	4.249	4.159	3.413	2.780	2.506	2.230	2.280	1.968	1.845	2.226	1.961	1.739	1.814	1.790	2.233	4.530	17.33	60.03	136.6	587.4	2101	1360	30.27	1.682	0.939
585.0	69.99	76.67	77.45	56.98	38.80	32.18	32.73	41.35	67.26	119.9	74.35	73.14	132.1	1369	8267	758.8	23.64	18.81	16.57	14.74	13.77	13.05	12.78	13.20	12.41	11.66	11.72	11.71	11.83	11.59	10.81	10.84	10.19	9.069	8.569	8.644	7.780	7.421	7.030	6.168	6.166	5.500	5.335	5.161	4.615	4.667	4.429	4.183	3.782	3.391	3.040	3.159	3.236	3.584	3.416	2.587	2.162	2.088	1.840	1.729	1.550	1.846	1.935	1.912	1.504	1.319	1.724	2.259	4.932	14.58	31.64	134.7	799.2	1991	959.8	22.10	1.373
590.0	69.47	86.61	80.78	57.47	35.74	31.06	30.40	36.60	50.17	101.3	94.45	70.71	79.50	354.9	4489	4698	69.65	18.06	14.14	13.30	11.69	11.54	11.10	11.12	10.22	9.723	9.708	9.792	9.949	9.562	9.197	8.808	8.228	7.769	6.961	6.839	6.689	6.159	5.904	5.393	5.210	4.632	4.387	4.440	4.138	4.073	3.834	3.554	3.220	2.967	2.590	2.555	2.467	2.876	3.129	2.705	2.012	1.822	1.653	1.552	1.401	1.539	1.504	1.717	1.548	1.235	1.315	1.514	2.047	4.250	8.000	31.02	183.3	691.6	1387	863.9	120.4
595.0	59.59	84.59	76.24	55.25	34.05	24.95	25.82	32.74	44.16	73.98	117.4	74.41	68.40	113.4	1141	6088	756.9	19.39	13.02	11.34	10.43	9.738	9.670	9.404	8.274	8.131	8.438	7.629	7.971	7.836	7.658	6.984	6.713	6.164	5.911	5.760	5.453	4.890	4.645	4.263	4.032	3.811	3.680	3.651	3.602	3.586	3.083	3.046	2.614	2.690	2.198	2.202	2.021	2.146	2.354	2.607	2.105	1.896	1.517	1.420	1.265	1.269	1.235	1.385	1.520	1.484	1.236	1.124	1.384	1.703	2.540	7.630	41.59	154.9	359.2	1044	1204
600.0	61.08	79.75	76.45	51.06	36.10	24.09	22.65	32.14	40.51	55.79	114.8	83.90	64.61	58.90	281.6	3691	3973	56.54	12.69	10.58	9.498	8.561	8.163	7.843	7.444	7.146	6.661	7.205	6.746	7.026	6.708	5.943	5.864	5.309	5.259	5.088	4.678	4.321	4.008	3.595	3.393	3.572	3.073	3.045	3.121	3.032	2.796	2.652	2.488	2.175	2.089	1.887	1.711	1.730	1.874	2.312	1.971	1.721	1.286	1.271	1.299	1.235	1.099	1.180	1.215	1.348	1.219	0.959	1.064	1.139	1.247	2.534	9.911	35.30	81.18	328.4	1246
605.0	62.47	72.60	77.11	48.04	31.75	22.40	22.61	27.88	38.56	52.24	96.38	94.96	62.95	45.08	83.98	1275	5867	444.1	12.82	9.933	8.863	7.341	7.389	7.694	6.696	6.093	5.853	5.924	5.858	5.808	5.639	5.150	5.184	4.517	4.260	4.261	4.049	3.751	3.622	3.253	3.034	2.928	2.734	2.528	2.829	2.674	2.455	2.555	2.265	1.888	1.897	1.783	1.506	1.676	1.641	1.770	1.996	1.781	1.344	1.268	1.106	1.189	0.961	1.046	1.076	1.249	1.422	1.032	0.952	0.866	0.824	1.149	2.871	8.482	18.85	75.17	446.3
610.0	58.49	72.77	72.49	46.14	27.92	20.20	20.85	26.42	33.68	46.59	72.92	102.7	62.95	40.36	37.50	315.5	3679	2959	42.92	9.358	8.327	7.064	6.084	6.759	5.513	5.498	4.896	4.874	4.953	4.809	4.779	4.593	4.464	4.030	3.874	3.605	3.480	3.321	3.085	2.775	2.687	2.570	2.413	2.215	2.371	2.269	2.166	2.183	1.877	1.700	1.613	1.439	1.349	1.252	1.315	1.308	1.652	1.625	1.453	1.205	1.014	0.961	0.981	0.922	0.963	1.052	1.246	1.146	0.961	0.804	0.739	0.804	1.188	2.387	4.727	17.36	102.0
615.0	59.59	65.80	64.95	41.52	27.15	19.91	21.44	23.45	32.77	44.25	58.97	88.96	75.11	37.97	24.95	83.22	983.5	4457	553.4	9.931	7.285	6.550	5.671	5.746	4.816	4.746	4.264	4.272	3.953	3.977	4.154	3.758	3.823	3.346	3.077	3.048	2.886	2.786	2.556	2.099	2.417	2.153	2.011	1.846	1.990	2.035	1.817	1.678	1.630	1.474	1.238	1.248	1.240	1.122	1.065	1.088	1.294	1.487	1.295	1.019	0.962	0.984	0.906	0.873	0.782	0.894	1.051	0.960	1.082	0.827	0.710	0.598	0.698	0.920	1.463	4.319	23.16
620.0	46.87	62.71	60.46	42.46	25.16	17.62	22.61	21.59	29.86	44.06	52.92	72.99	81.10	37.46	22.60	29.49	237.3	2998	2582	26.83	7.230	6.013	5.463	5.343	4.254	4.180	3.897	3.865	3.899	3.367	3.500	3.546	3.123	2.749	2.685	2.675	2.574	2.520	2.547	2.024	2.000	1.982	1.686	1.739	1.698	1.874	1.420	1.615	1.410	1.328	1.160	1.097	0.955	1.088	0.965	0.928	0.984	1.044	1.054	1.076	0.953	0.751	0.807	0.861	0.678	0.780	0.877	0.809	0.878	0.927	0.635	0.479	0.606	0.531	0.746	1.406	5.519
625.0	45.78	60.63	59.21	40.94	25.59	16.60	18.81	19.91	29.16	40.06	49.52	62.35	82.64	39.79	22.01	17.46	63.12	1124	4194	77.57	7.937	6.046	4.994	5.036	4.084	3.812	3.900	3.378	3.488	2.866	3.159	2.961	2.900	2.684	2.568	2.352	2.315	2.282	2.267	1.996	1.932	1.596	1.468	1.466	1.573	1.408	1.302	1.408	1.234	1.052	1.025	1.012	0.951	0.963	0.807	0.789	0.801	0.803	1.025	1.011	0.918	0.689	0.789	0.751	0.575	0.679	0.748	0.654	0.792	0.906	0.628	0.499	0.590	0.484	0.493	0.692	1.636
630.0	42.10	57.86	56.18	37.89	22.53	17.47	16.10	21.19	26.20	37.25	47.25	53.67	67.69	51.17	21.13	14.03	22.54	276.3	2924	2041	27.39	6.076	4.843	4.945	3.624	3.461	3.274	3.195	3.086	2.820	2.810	2.349	2.470	2.394	2.138	1.981	2.069	1.947	1.721	1.719	1.503	1.379	1.282	1.330	1.287	1.392	1.303	1.230	1.177	0.977	0.886	0.872	0.734	0.745	0.750	0.746	0.769	0.710	0.810	0.907	0.849	0.794	0.711	0.700	0.598	0.623	0.643	0.644	0.594	0.655	0.649	0.490	0.518	0.401	0.383	0.478	0.682
635.0	37.98	52.40	48.08	35.45	21.23	18.13	17.56	19.36	23.85	35.30	42.62	48.89	51.18	56.13	22.49	12.54	12.03	69.16	819.5	3568	397.4	7.017	4.428	4.729	3.500	2.887	2.990	3.275	2.647	2.690	2.256	2.299	2.189	1.986	1.982	1.810	1.937	1.588	1.481	1.307	1.346	1.417	1.085	1.164	1.052	1.116	1.023	1.145	1.018	0.871	0.810	0.711	0.725	0.675	0.722	0.769	0.700	0.659	0.695	0.690	0.715	0.788	0.658	0.665	0.622	0.628	0.642	0.545	0.643	0.521	0.609	0.625	0.511	0.361	0.347	0.391	0.387
640.0	36.03	50.02	44.75	34.31	20.81	14.31	14.04	20.69	23.02	32.56	39.99	43.34	45.07	51.48	28.78	12.41	9.587	21.52	197.6	2655	1786	14.70	4.793	4.573	3.555	3.021	2.609	2.799	2.753	2.250	2.197	1.935	2.009	1.704	1.689	1.632	1.583	1.571	1.350	1.173	1.178	1.330	1.101	1.028	0.954	1.007	0.867	0.875	0.868	0.855	0.738	0.722	0.669	0.606	0.600	0.697	0.701	0.733	0.664	0.651	0.567	0.783	0.651	0.583	0.520	0.554	0.592	0.485	0.471	0.476	0.512	0.550	0.518	0.314	0.354	0.382	0.287
645.0	36.00	43.03	45.16	33.35	20.19	16.07	14.25	18.60	18.81	28.17	36.90	42.25	41.02	44.32	34.24	12.51	8.990	10.50	50.71	1094	3161	62.31	5.083	4.516	3.278	2.850	2.544	2.356	2.489	2.158	2.236	1.906	1.726	1.657	1.647	1.594	1.428	1.416	1.336	1.077	1.133	1.181	1.244	0.953	0.875	1.054	0.865	0.956	0.885	0.742	0.684	0.672	0.518	0.640	0.587	0.534	0.618	0.588	0.519	0.523	0.550	0.691	0.599	0.558	0.468	0.438	0.501	0.496	0.492	0.399	0.570	0.443	0.469	0.423	0.338	0.280	0.265
650.0	41.17	41.30	42.03	29.37	18.90	15.20	14.97	16.69	19.71	26.05	33.89	38.12	37.67	35.48	38.34	14.56	8.694	7.711	17.30	293.5	3101	502.1	6.548	4.833	3.135	3.027	2.538	2.161	2.438	2.251	1.997	1.611	1.674	1.660	1.547	1.426	1.350	1.319	1.216	1.006	0.996	0.993	1.118	0.999	0.824	0.915	0.848	0.848	0.798	0.714	0.598	0.647	0.600	0.538	0.537	0.552	0.596	0.604	0.503	0.408	0.471	0.591	0.581	0.601	0.503	0.464	0.477	0.461	0.375	0.356	0.440	0.432	0.345	0.465	0.366	0.286	0.285
