Sample:	'1
File name:	L2025090916¶«¶þÂ·ÇÅ.FD3
Run date:	'16:11:41, 09/09/2025
Operator:	Administrator
Comment:	'

Instrument
Model:	F-2700 FL Spectrophotometer
Serial number:	3064-004
ROM Version:	4J14000 07

Instrument parameters
Measurement type:	3-D scan
Data mode:	Fluorescence
EX  Start WL:	220.0 nm
EX  End WL:	600.0 nm
EX Sampling interval:	5.0 nm
EM  Start WL:	230.0 nm
EM  End WL:	650.0 nm
EM Sampling interval:	5.0 nm
Scan speed:	12000 nm/min
EX Slit:	5.0 nm
EM Slit:	5.0 nm
PMT Voltage:	700 V
Response:	Auto 
Corrected spectra:	Off
Contour interval:	50.000

Peak integration
Integration method:	Rectangular
Sensitivity:	1
Threshold:	1.000

Peaks
No.	ApexEX/EM(nm)	Height(Data)
1	225.0/580.0	32.83
2	225.0/620.0	24.52
3	230.0/345.0	407.3
4	230.0/600.0	25.02
5	230.0/640.0	24.76
6	235.0/340.0	413.1
7	240.0/600.0	26.15
8	245.0/265.0	377.6
9	250.0/270.0	431.1
10	255.0/280.0	654.7
11	255.0/555.0	272.9
12	260.0/285.0	786.5
13	260.0/450.0	 2417
14	260.0/565.0	206.3
15	265.0/290.0	715.1
16	265.0/580.0	183.2
17	270.0/295.0	 1094
18	270.0/590.0	148.0
19	275.0/305.0	 1280
20	275.0/375.0	782.0
21	275.0/605.0	131.0
22	280.0/310.0	 1216
23	280.0/345.0	743.5
24	280.0/360.0	761.0
25	280.0/615.0	102.5
26	285.0/315.0	 1224
27	285.0/630.0	84.18
28	290.0/320.0	 1166
29	290.0/640.0	66.05
30	300.0/335.0	756.1
31	305.0/340.0	783.7
32	310.0/345.0	696.1
33	320.0/360.0	734.9
34	325.0/365.0	746.4
35	335.0/380.0	786.6
36	340.0/385.0	776.7
37	345.0/395.0	708.6
38	365.0/450.0	 2009
39	440.0/515.0	50.69
40	445.0/525.0	40.89
41	460.0/545.0	21.56
42	475.0/565.0	10.29
43	485.0/580.0	5.878
44	505.0/275.0	3.286
45	510.0/280.0	3.721
46	515.0/285.0	4.136
47	520.0/460.0	9.669
48	525.0/290.0	3.880
49	525.0/450.0	9.670
50	540.0/295.0	5.249
51	545.0/300.0	6.209
52	550.0/305.0	6.184
53	560.0/310.0	6.037
54	570.0/315.0	6.372
55	575.0/320.0	6.013
56	585.0/325.0	6.142
57	585.0/345.0	4.485

Data points
	220.0	225.0	230.0	235.0	240.0	245.0	250.0	255.0	260.0	265.0	270.0	275.0	280.0	285.0	290.0	295.0	300.0	305.0	310.0	315.0	320.0	325.0	330.0	335.0	340.0	345.0	350.0	355.0	360.0	365.0	370.0	375.0	380.0	385.0	390.0	395.0	400.0	405.0	410.0	415.0	420.0	425.0	430.0	435.0	440.0	445.0	450.0	455.0	460.0	465.0	470.0	475.0	480.0	485.0	490.0	495.0	500.0	505.0	510.0	515.0	520.0	525.0	530.0	535.0	540.0	545.0	550.0	555.0	560.0	565.0	570.0	575.0	580.0	585.0	590.0	595.0	600.0
230.0	23.03	514.6	 3208	 1759	155.9	12.14	9.204	7.320	7.260	6.508	6.075	5.580	5.211	4.668	3.664	3.144	2.924	2.729	4.559	2.206	1.714	1.906	1.574	1.708	1.744	1.416	1.485	1.262	1.181	1.409	1.528	1.172	1.106	1.154	0.926	0.975	0.821	1.477	0.676	0.702	0.772	0.901	0.788	0.671	0.572	0.562	1.619	5.948	9.671	7.041	2.737	0.688	0.489	0.545	0.472	0.476	0.429	0.419	0.403	0.446	0.383	0.340	0.405	0.368	0.396	0.354	0.371	0.357	0.373	0.349	0.518	0.291	0.305	0.375	0.349	0.286	0.305
235.0	58.24	143.9	 1434	 3606	 2677	143.1	10.45	11.82	7.724	6.932	6.746	4.796	5.112	4.508	2.951	3.065	3.408	2.459	3.681	2.113	2.365	1.968	1.439	1.318	2.060	1.479	1.731	1.572	1.417	1.366	1.394	1.144	1.294	0.982	0.620	0.830	0.697	0.883	0.662	0.835	0.695	0.770	0.815	0.756	0.626	0.782	0.925	1.903	4.077	6.974	9.095	8.877	4.188	1.065	0.434	0.429	0.506	0.574	0.599	0.434	0.439	0.416	0.433	0.351	0.383	0.460	0.353	0.408	0.292	0.385	0.405	0.371	0.306	0.292	0.381	0.325	0.248
240.0	59.17	93.05	372.0	 2127	 7043	934.6	64.52	12.39	9.465	10.41	8.197	6.220	6.828	5.320	3.574	3.640	3.282	2.363	3.512	2.376	2.038	1.857	2.113	1.860	1.552	1.575	1.456	1.590	1.670	1.468	1.552	1.335	1.275	1.052	1.010	0.791	1.017	0.978	0.930	0.866	0.617	0.730	0.840	0.757	0.760	1.121	0.791	0.767	1.439	2.426	5.503	11.88	14.12	9.198	2.929	0.606	0.510	0.525	0.484	0.347	0.440	0.286	0.324	0.400	0.356	0.413	0.359	0.297	0.285	0.460	0.376	0.365	0.327	0.538	0.400	0.470	0.395
245.0	42.44	103.2	157.0	586.8	 5320	 7462	726.8	30.40	10.73	9.590	8.302	6.311	5.615	5.280	4.280	3.951	2.826	2.389	4.014	1.965	2.326	2.136	2.273	1.573	1.768	1.491	1.590	1.365	1.509	1.573	1.706	1.410	1.085	0.965	0.912	0.965	0.859	0.877	1.008	1.080	0.715	0.679	0.751	0.597	0.810	1.127	1.058	1.084	0.813	0.961	1.696	4.521	11.16	15.55	14.91	6.822	1.735	0.507	0.485	0.382	0.545	0.552	0.374	0.261	0.398	0.342	0.457	0.279	0.228	0.380	0.314	0.409	0.323	0.613	0.315	0.295	0.444
250.0	27.56	61.66	159.8	238.1	 1417	 4365	 7413	 2410	196.1	13.03	8.993	8.007	7.531	5.458	4.942	4.397	3.351	2.923	4.534	2.608	2.138	1.938	2.124	2.125	1.891	1.544	1.491	1.267	1.528	1.733	1.589	1.451	1.186	1.167	0.872	1.069	0.815	0.755	0.781	0.763	0.708	0.877	0.725	0.672	0.743	0.785	0.776	1.057	1.351	1.185	0.918	1.481	3.014	5.631	10.36	14.78	16.90	13.59	7.231	2.076	0.637	0.564	0.414	0.438	0.368	0.414	0.429	0.480	0.284	0.436	0.355	0.431	0.384	0.401	0.261	0.334	0.358
255.0	29.20	28.29	88.67	283.9	473.4	 1015	 3581	 6102	 3748	252.5	14.76	12.37	7.154	6.671	5.932	4.567	3.808	3.645	4.781	2.456	2.372	2.104	1.820	2.181	1.531	1.625	1.543	1.205	1.793	1.553	1.651	1.650	1.353	1.272	1.012	1.003	0.665	0.754	0.608	0.608	0.733	0.803	0.720	0.622	0.608	0.745	0.561	0.577	1.006	1.033	1.548	1.671	1.448	1.635	2.810	3.969	7.582	17.35	28.16	24.44	9.905	2.093	0.448	0.350	0.455	0.513	0.500	0.402	0.324	0.336	0.430	0.379	0.417	0.350	0.191	0.309	0.341
260.0	26.91	16.61	35.70	176.3	400.8	337.1	886.9	 3178	 8055	 3179	118.8	14.41	10.93	8.326	5.611	5.016	3.770	3.579	4.643	2.417	2.109	2.216	2.159	2.031	2.279	1.784	1.849	1.626	1.526	1.337	1.317	1.823	1.431	1.164	1.313	0.960	0.646	0.781	0.838	0.727	0.816	0.851	0.866	0.708	0.711	0.510	0.607	0.611	0.573	0.686	1.075	1.876	1.787	1.262	1.205	1.358	2.187	5.349	14.62	29.58	35.57	24.08	6.613	0.732	0.464	0.497	0.443	0.380	0.318	0.383	0.390	0.397	0.392	0.380	0.328	0.300	0.281
265.0	27.55	22.26	23.16	68.27	322.3	377.6	259.6	850.0	 5060	 9313	 2358	51.96	12.01	8.951	7.799	6.134	4.303	3.667	4.443	2.829	2.294	2.191	2.227	1.863	1.971	1.735	1.747	1.344	1.313	1.719	1.129	1.489	1.386	1.253	1.079	0.852	0.935	1.055	0.593	0.732	0.843	0.849	0.742	0.641	0.698	0.561	0.686	0.756	0.507	0.551	0.640	1.174	1.918	2.229	1.658	1.044	0.899	1.824	3.926	10.28	23.70	40.89	39.23	18.69	2.919	0.492	0.448	0.309	0.349	0.381	0.273	0.374	0.374	0.468	0.290	0.459	0.258
270.0	30.23	25.84	27.17	33.48	119.4	341.7	431.1	281.8	 1324	 4946	 9101	 4873	163.0	14.22	9.559	6.948	4.990	4.249	5.345	3.090	2.590	2.560	2.320	2.039	2.176	1.929	1.879	1.786	1.733	1.749	1.363	1.572	1.169	1.238	1.059	0.861	0.886	0.945	0.629	0.680	0.778	0.730	0.762	0.805	0.739	0.716	0.794	0.660	0.671	0.620	0.623	0.691	1.029	1.482	1.965	2.144	2.080	1.396	1.380	2.825	6.215	13.46	24.40	35.39	40.57	29.99	15.41	3.051	0.425	0.419	0.324	0.375	0.368	0.352	0.482	0.321	0.448
275.0	42.98	33.16	42.08	33.78	50.01	113.2	420.3	550.6	378.0	 1163	 3506	9999.9	 3034	189.7	15.10	8.925	6.951	4.892	5.747	3.920	3.138	2.668	2.415	2.400	2.476	1.941	2.083	2.203	1.848	1.760	1.306	1.364	1.543	1.228	0.910	1.090	0.867	0.995	0.822	0.986	0.780	0.672	0.716	0.700	1.100	0.841	0.679	0.723	0.576	0.588	0.579	0.615	0.807	0.772	0.909	1.274	2.612	3.286	2.672	1.543	1.853	3.345	6.078	9.119	16.11	35.96	61.07	46.29	18.53	2.322	0.542	0.426	0.451	0.368	0.482	0.436	0.511
280.0	57.74	46.71	56.03	45.29	39.74	47.95	180.6	654.7	461.8	328.0	898.2	 4652	9999.9	 2440	102.4	12.03	7.322	6.048	6.506	3.577	3.442	3.074	2.498	2.566	1.951	2.520	2.195	1.942	1.767	1.750	1.283	1.547	1.430	1.536	1.155	0.941	0.994	0.833	0.887	0.895	0.655	0.676	0.813	0.862	1.044	0.835	0.863	0.891	0.506	0.757	0.689	0.585	0.600	0.693	0.570	0.876	1.441	2.465	3.721	3.030	1.532	1.328	2.102	2.621	4.288	10.09	27.22	56.56	71.94	38.90	8.948	1.081	0.397	0.407	0.377	0.443	0.479
285.0	68.18	68.45	79.85	61.18	41.55	38.83	76.70	349.6	786.5	311.6	301.0	 1236	 6417	9999.9	 1766	45.14	10.22	8.759	7.598	4.341	4.274	2.945	2.690	2.638	2.267	2.547	2.271	1.768	2.023	2.213	1.362	1.864	1.593	1.700	1.360	1.208	0.914	0.882	1.044	0.776	0.716	0.860	0.865	0.857	0.794	0.841	0.866	0.874	0.843	0.635	0.800	0.773	0.612	0.624	0.556	0.720	0.907	1.216	2.165	4.136	3.974	2.523	1.020	1.243	1.569	2.984	7.053	17.45	40.90	71.69	53.95	27.61	3.197	0.557	0.387	0.444	0.434
290.0	93.79	111.7	118.3	98.66	71.10	49.97	65.20	146.3	484.9	715.1	381.5	451.7	 1716	 5558	9999.9	 5550	97.83	11.81	9.284	5.806	5.090	3.532	3.110	2.734	2.749	2.496	2.318	2.057	1.919	2.194	1.792	1.735	1.637	1.621	1.197	1.175	1.208	1.043	1.038	1.006	1.054	0.947	0.973	0.885	0.853	0.925	1.027	1.139	1.115	0.877	0.899	0.852	0.669	0.650	0.540	0.671	0.842	0.952	1.310	1.850	2.662	3.880	3.802	2.618	1.658	1.593	2.621	4.969	10.62	21.23	34.61	52.58	54.39	35.03	18.75	4.058	2.967
295.0	106.9	139.4	165.8	132.2	87.10	70.22	81.14	126.7	224.2	501.2	 1094	485.2	632.8	 1440	 3285	9999.9	 8035	123.8	12.80	7.397	6.758	3.734	3.760	2.741	3.213	2.478	2.673	1.997	2.082	2.235	2.190	1.988	1.510	1.598	1.179	1.432	1.021	1.135	1.238	0.904	1.055	0.947	0.983	1.094	0.878	1.092	1.099	1.327	1.305	0.967	0.923	0.949	0.738	0.629	0.591	0.513	0.876	0.840	0.925	1.111	1.339	1.858	2.809	4.775	5.249	2.979	2.169	2.305	3.582	6.018	8.814	13.02	18.66	40.64	75.04	53.85	53.83
300.0	126.0	151.0	178.0	141.3	111.4	88.50	102.7	132.8	177.4	308.7	929.0	 1112	484.0	569.2	921.7	 3897	9999.9	 1449	80.59	9.378	7.707	4.726	3.966	3.699	3.515	3.101	2.879	2.166	2.199	2.336	2.022	1.933	1.421	1.466	1.272	1.318	1.304	1.233	1.232	1.072	1.197	0.948	0.990	1.142	0.952	1.087	1.035	1.423	1.200	0.971	0.943	0.991	0.798	0.924	0.886	0.803	0.972	1.188	1.288	1.161	1.162	1.513	1.739	2.822	5.070	6.209	4.118	2.681	2.534	2.769	3.340	4.156	5.307	10.68	29.40	62.93	339.5
305.0	127.2	165.8	200.9	184.5	127.7	111.8	136.1	150.0	203.2	285.0	568.7	 1280	914.0	436.5	421.9	 1032	 5130	9999.9	 1184	40.20	8.710	5.877	4.957	3.395	4.110	3.423	2.905	2.437	2.220	2.802	2.171	1.998	1.827	1.435	1.433	1.190	1.561	1.245	1.057	1.066	1.171	0.908	1.280	1.248	1.008	1.288	1.237	1.329	1.106	1.220	0.957	1.038	0.967	0.933	0.965	0.863	0.993	1.198	1.058	1.255	1.198	1.341	1.889	1.834	2.457	4.795	6.184	5.500	3.257	2.365	2.347	2.283	2.396	3.392	7.401	17.83	109.0
310.0	130.2	179.0	216.2	203.6	144.4	138.1	149.5	176.8	221.4	313.0	462.1	780.3	 1216	856.3	395.0	391.6	 1291	 4705	9999.9	 4608	70.03	9.377	6.680	5.073	4.480	3.640	3.059	2.538	2.035	2.463	1.976	2.029	1.705	1.464	1.677	1.273	1.316	1.302	1.262	1.354	1.405	1.176	1.212	1.282	1.213	1.188	1.395	1.320	1.218	1.278	1.041	1.168	1.034	0.953	0.998	1.060	1.100	1.335	1.183	1.296	1.457	1.552	1.607	1.989	2.170	2.985	4.055	5.089	6.037	5.259	3.456	2.173	2.013	2.088	2.794	4.991	25.40
315.0	134.4	188.1	242.9	226.8	171.9	150.8	162.6	198.5	267.5	352.1	469.1	588.2	797.1	 1224	767.9	307.5	415.5	 1134	 2998	 9733	 6407	93.79	8.593	6.451	5.292	4.709	3.138	3.126	2.820	2.458	2.416	2.209	1.953	1.729	1.653	1.077	1.382	1.445	1.474	1.312	1.278	1.268	1.262	1.240	1.096	1.295	1.411	1.463	1.384	1.066	1.169	1.127	0.991	1.174	1.199	1.050	1.283	1.397	1.517	1.372	1.619	1.611	1.948	2.263	2.190	2.847	2.644	3.509	3.862	5.208	6.372	5.021	2.683	2.074	2.019	2.238	6.618
320.0	138.6	220.0	299.9	250.0	172.1	161.1	189.1	216.0	288.9	377.1	511.8	611.9	682.6	924.5	 1166	467.3	256.5	365.9	762.2	 3508	9999.9	 4647	61.81	8.364	6.688	4.875	3.582	3.317	2.959	2.647	2.438	2.371	2.185	2.121	1.473	1.425	1.516	1.118	1.473	1.243	1.135	1.234	1.222	1.433	1.158	1.214	1.461	1.592	1.608	1.292	1.068	1.004	1.056	1.097	1.068	1.241	1.301	1.459	1.521	1.672	1.757	1.629	1.796	2.027	2.452	2.639	2.582	2.691	2.831	3.526	4.704	6.013	5.616	3.339	1.845	1.827	2.467
325.0	151.0	230.7	344.3	281.5	209.2	184.5	196.7	250.2	305.1	404.6	531.3	624.7	687.5	715.8	 1035	860.5	298.4	220.3	271.8	881.3	 4780	9999.9	891.8	33.76	8.134	5.243	3.960	3.707	3.479	3.021	2.556	2.806	2.160	2.062	1.453	1.502	1.352	1.213	1.143	1.340	1.568	1.612	1.264	1.256	1.446	1.289	1.702	1.751	1.732	1.319	1.158	1.169	1.351	0.914	1.225	1.199	1.241	1.177	1.296	1.368	1.827	1.854	2.057	2.257	2.674	2.631	2.744	2.708	3.572	3.465	3.767	4.037	5.645	6.142	3.927	2.304	1.950
330.0	159.0	251.3	373.7	329.9	249.1	216.8	217.2	264.6	332.2	426.1	541.4	652.2	713.6	696.3	726.4	859.5	681.3	284.9	195.0	301.2	 1181	 4332	 6886	 3581	57.02	8.210	5.491	4.624	4.025	3.436	2.848	2.545	2.144	2.023	1.769	1.746	1.317	1.383	1.460	1.258	1.202	1.518	1.339	1.265	1.416	1.338	1.604	1.870	1.886	1.582	1.439	1.371	1.320	1.121	1.355	1.414	1.519	1.430	1.501	1.454	1.785	2.156	2.242	2.189	2.825	2.783	2.892	3.019	3.388	3.256	3.446	3.597	3.973	4.405	4.640	4.640	3.646
335.0	157.8	278.0	395.9	364.5	287.5	256.3	240.9	286.0	364.6	451.3	560.9	674.9	725.2	730.5	666.2	604.1	756.1	632.2	248.5	205.5	365.7	 1041	 2210	 8309	 5430	75.80	8.197	6.228	4.518	3.869	3.151	2.812	2.456	2.061	2.108	1.721	1.378	1.350	1.381	1.461	1.141	1.254	1.270	1.502	1.502	1.352	1.830	2.167	1.714	1.695	1.352	1.586	1.327	1.532	1.026	1.477	1.594	1.573	1.697	1.494	1.896	2.187	2.270	2.540	2.951	3.119	3.106	3.236	3.467	3.240	3.415	3.044	3.281	3.118	2.908	4.084	4.453
340.0	159.4	271.3	406.4	413.1	329.4	286.3	272.0	314.2	375.1	464.4	584.5	684.2	743.3	733.9	658.4	551.4	571.5	783.7	441.6	225.2	209.2	328.6	571.7	 3231	9999.9	 3878	52.30	7.472	5.462	4.332	3.117	3.279	2.612	2.168	2.227	1.632	1.515	1.636	1.301	1.322	1.346	1.379	1.533	1.793	1.640	1.368	1.698	2.117	1.871	1.532	1.779	1.653	1.713	1.501	1.256	1.600	1.321	1.491	1.629	1.820	2.173	1.894	2.253	2.916	2.746	2.840	3.055	3.537	3.544	3.308	3.376	3.548	3.195	3.982	2.660	3.172	3.309
345.0	174.9	255.2	407.3	404.4	346.7	307.0	296.8	328.9	375.5	468.4	609.3	688.9	743.5	739.9	663.5	552.7	480.0	634.5	696.1	316.0	203.8	195.4	219.1	816.0	 4976	 9683	736.7	29.82	6.667	5.793	3.792	3.680	2.481	2.670	2.058	1.739	1.588	1.548	1.417	1.407	1.354	1.286	1.585	1.396	1.594	1.318	1.836	2.017	1.947	1.721	1.788	1.830	1.839	1.506	1.600	1.607	1.442	1.699	1.773	2.093	2.306	2.340	2.427	2.684	2.934	2.969	2.748	3.576	3.496	3.172	3.663	3.415	3.260	4.485	2.737	3.163	2.978
350.0	166.4	247.7	387.7	403.5	380.6	345.8	332.2	358.5	405.8	498.9	607.7	693.1	738.0	734.3	678.6	575.4	493.0	499.0	627.6	605.4	335.4	226.3	192.0	293.6	 1240	 4361	 5998	 2989	48.93	7.628	4.909	4.131	3.017	2.658	2.529	1.825	1.581	1.494	1.464	1.406	1.354	1.382	1.284	1.382	1.453	1.418	1.541	1.917	1.872	1.894	1.709	1.649	2.012	1.797	1.556	1.610	1.561	1.912	1.887	2.038	2.064	2.354	2.465	2.526	2.811	2.846	2.814	3.177	3.116	3.541	3.876	3.450	3.540	3.863	3.057	3.188	3.041
355.0	157.0	243.6	360.4	403.1	386.9	394.9	381.9	411.1	447.9	532.0	620.3	702.9	733.4	737.0	694.3	612.0	545.9	497.5	509.6	626.8	634.9	356.0	258.6	244.4	413.7	 1077	 2151	 7461	 4358	68.16	7.695	5.159	3.420	2.925	2.544	1.759	1.792	1.670	1.330	1.443	1.233	1.277	1.331	1.366	1.334	1.603	1.499	1.749	1.693	1.669	1.773	1.846	1.925	1.903	1.561	1.527	1.865	1.666	2.343	2.432	2.359	2.617	2.552	2.767	2.780	3.218	3.155	2.962	3.205	3.498	3.871	3.793	3.718	3.472	3.065	3.295	3.355
360.0	154.2	238.4	352.2	414.8	416.8	427.4	414.0	446.8	495.0	593.1	666.0	717.2	761.0	745.9	714.8	639.2	580.7	538.1	518.1	544.5	734.9	564.1	341.3	284.0	277.6	383.8	591.4	 3202	 8603	 3193	41.62	6.845	4.021	3.680	2.583	2.271	2.008	1.477	1.297	1.419	1.354	1.447	1.171	1.377	1.317	1.475	1.477	1.651	1.798	1.972	1.740	1.901	1.787	1.723	1.736	1.929	1.947	2.163	2.225	2.141	2.488	2.518	2.776	2.936	3.091	3.247	3.473	3.321	3.382	4.216	3.902	3.585	3.557	3.349	3.390	2.959	3.668
365.0	149.2	241.6	365.9	420.0	433.4	451.1	448.2	486.9	528.8	624.9	703.6	746.6	751.7	750.1	715.4	656.5	617.3	570.7	556.9	539.0	646.9	746.4	483.9	345.8	295.4	266.2	264.8	839.3	 4611	 8584	641.6	22.81	5.794	4.693	3.299	2.234	1.951	1.622	1.738	1.596	1.315	1.668	1.370	1.406	1.507	1.487	1.479	1.571	1.613	1.885	1.879	2.229	1.912	1.969	2.048	2.085	2.368	2.375	2.173	2.341	2.461	2.697	3.066	3.187	3.392	3.239	3.421	3.487	3.479	3.388	3.604	3.548	3.723	3.507	3.403	3.598	3.659
370.0	162.1	235.9	365.8	433.3	461.7	478.4	483.2	525.5	563.7	648.7	706.7	755.4	764.4	755.9	730.0	681.9	640.2	620.4	608.3	593.1	606.7	697.9	715.5	503.3	370.5	303.5	244.0	313.7	 1172	 4210	 5658	 2578	40.65	6.828	4.194	2.945	2.069	1.972	1.827	1.728	1.194	1.417	1.437	1.428	1.580	1.448	1.575	1.640	1.653	1.802	1.887	2.103	1.975	2.158	2.080	2.195	2.423	2.342	2.278	2.428	2.481	2.863	2.989	3.152	3.405	3.136	3.525	3.528	3.586	3.562	3.314	3.735	3.434	3.549	3.524	3.682	3.765
375.0	186.2	223.0	354.7	426.9	456.4	506.7	501.8	550.5	592.9	662.6	735.7	782.0	765.9	762.2	725.2	689.9	666.1	653.5	655.4	645.5	640.1	650.3	725.3	749.6	496.4	375.0	294.5	242.7	369.2	 1012	 2188	 7117	 3671	51.99	5.797	4.026	2.964	2.299	1.908	1.659	1.628	1.606	1.319	1.352	1.502	1.553	1.660	1.890	1.859	1.932	1.765	2.094	2.091	2.140	2.358	2.367	2.634	2.269	2.424	2.698	2.367	3.044	3.094	3.469	3.580	3.229	3.480	3.345	3.909	3.501	3.183	4.296	3.840	3.771	3.546	3.714	3.571
380.0	179.2	224.9	326.9	437.4	462.6	522.6	520.3	545.7	612.6	675.3	757.3	770.1	767.8	752.4	741.9	686.5	676.0	675.7	669.8	677.1	681.0	667.9	677.1	786.6	659.2	440.0	341.9	260.1	219.3	317.2	564.4	 3274	 8143	 2678	31.49	5.282	3.417	2.483	2.169	1.890	1.811	1.485	1.646	1.514	1.362	1.544	1.832	2.087	1.850	1.800	1.738	2.149	2.293	2.081	2.158	2.319	2.666	2.594	2.648	2.795	2.649	3.117	2.827	3.190	3.119	3.319	3.348	3.315	3.639	3.395	3.493	3.610	3.655	3.943	3.222	3.686	3.987
385.0	169.9	234.8	338.6	429.6	480.7	518.1	546.4	587.0	636.9	688.1	750.7	764.8	770.6	761.9	722.9	679.6	679.4	689.7	688.9	705.4	699.1	685.0	676.7	723.1	776.7	551.0	384.0	291.4	216.6	188.7	205.3	837.8	 4740	 8296	496.6	15.02	4.451	3.555	2.439	1.979	2.092	1.595	1.711	1.673	1.651	1.690	1.637	1.799	1.952	1.710	1.888	1.728	2.268	2.458	2.234	2.342	2.541	2.188	2.940	3.015	3.047	2.705	2.995	2.869	3.366	3.301	3.279	3.231	3.600	3.662	3.769	3.434	3.385	4.201	3.591	4.109	3.646
390.0	178.5	239.6	342.5	439.9	494.3	534.7	576.3	599.1	635.5	694.4	761.8	767.8	774.1	757.0	710.4	688.1	678.3	684.6	699.1	708.4	717.1	707.1	698.8	683.1	726.9	708.1	511.2	359.4	271.6	207.6	166.3	273.7	 1206	 4572	 4589	 1802	31.51	5.669	3.551	2.855	2.301	1.940	1.950	1.628	1.792	1.900	1.868	1.831	1.961	1.854	1.896	2.140	2.179	2.307	2.419	2.416	2.761	2.600	2.760	3.008	3.015	2.791	3.054	3.081	3.531	3.497	3.253	3.242	3.577	3.660	3.526	3.341	3.575	3.545	3.555	3.773	3.903
395.0	169.4	250.0	357.6	453.0	515.5	562.2	603.0	636.9	673.3	732.9	761.6	786.8	787.9	753.4	726.2	679.0	667.1	679.3	704.6	719.6	737.5	732.4	722.0	699.9	684.8	708.6	694.4	477.6	351.6	278.0	219.0	197.3	360.6	 1087	 1907	 5890	 2623	41.99	5.694	3.565	2.762	2.321	1.826	1.698	1.859	1.929	1.906	1.935	1.881	1.888	1.741	2.259	2.339	2.416	2.438	2.637	2.600	3.031	2.923	2.884	2.928	3.469	3.395	3.180	3.812	3.939	3.332	3.459	3.430	3.884	3.912	3.311	3.932	3.386	3.727	3.818	4.258
400.0	166.9	232.9	371.0	471.3	523.3	598.8	646.7	665.2	737.8	790.2	812.4	828.6	808.7	768.9	720.0	676.0	677.2	676.9	693.5	726.3	738.6	752.7	739.5	733.5	710.3	694.1	742.2	642.8	445.8	353.3	285.1	226.6	208.7	330.6	504.2	 2921	 5706	497.0	24.01	5.250	3.219	2.552	2.001	1.676	1.722	1.830	1.851	2.103	1.997	2.036	1.875	2.147	2.784	2.558	2.643	2.647	2.745	3.088	2.937	3.154	3.059	3.272	3.454	3.322	3.366	3.875	3.676	3.573	3.665	3.802	3.608	3.488	3.504	3.251	3.834	3.910	3.698
405.0	168.0	234.1	389.0	469.5	559.4	632.9	685.4	735.3	797.2	848.7	863.0	856.4	852.3	791.3	716.6	670.8	668.6	673.4	693.5	724.9	744.2	769.2	769.9	773.6	751.3	731.8	739.2	771.4	591.9	458.3	369.2	290.2	227.4	196.7	197.8	769.6	 3489	 4019	403.0	12.80	4.276	3.217	2.263	1.944	1.793	2.009	1.918	2.056	1.805	2.085	1.825	2.314	2.740	2.861	2.712	3.198	3.036	3.063	3.115	3.365	3.446	3.534	3.569	3.866	3.633	3.841	3.723	3.994	3.573	4.375	4.037	3.766	3.668	3.276	3.625	3.748	3.860
410.0	183.3	264.9	390.3	503.5	633.4	717.2	815.5	868.4	943.9	960.0	978.8	986.4	934.7	841.3	724.6	669.7	662.7	664.1	700.5	731.9	763.3	794.0	818.0	831.7	835.0	832.9	818.2	843.8	829.3	681.1	541.7	436.1	336.2	248.9	184.9	266.9	913.0	 2560	 3642	 1442	27.13	5.103	3.201	2.209	2.054	2.223	1.960	2.174	2.079	2.127	2.112	2.322	2.873	2.981	3.048	3.248	3.525	3.452	3.892	3.805	4.185	4.118	3.899	4.022	4.162	4.355	3.913	4.121	4.065	3.892	3.959	3.491	3.399	3.699	3.964	3.834	3.890
415.0	195.6	276.5	441.9	593.2	710.8	826.1	958.5	 1090	 1163	 1152	 1152	 1154	 1051	896.0	740.4	683.3	658.0	670.3	707.8	741.5	795.5	842.0	880.2	914.9	949.7	966.8	970.4	977.5	992.9	979.6	780.0	631.9	500.4	367.8	265.0	205.9	296.1	628.4	 1514	 4193	 1962	39.02	4.536	2.950	2.259	2.352	2.051	2.372	2.447	2.472	2.472	2.628	3.287	3.542	3.670	3.569	4.179	4.244	4.520	4.553	4.905	4.786	4.765	4.877	4.688	4.960	4.688	4.642	4.811	4.147	4.361	3.906	3.793	3.563	3.692	4.097	3.816
420.0	204.0	309.1	464.8	642.4	796.4	964.6	 1118	 1288	 1352	 1340	 1312	 1281	 1183	959.8	766.2	683.8	655.5	671.3	713.1	744.5	821.9	873.1	931.1	993.6	 1036	 1082	 1118	 1124	 1123	 1157	 1040	817.7	642.1	474.1	334.4	234.4	184.7	211.0	392.7	 2075	 4322	459.9	20.04	4.057	2.893	2.863	2.605	2.373	2.676	2.489	2.359	2.941	3.362	4.198	4.025	4.100	4.691	5.100	4.901	5.160	5.556	5.939	5.563	5.664	5.008	5.215	4.981	4.984	4.850	4.603	4.377	3.886	3.560	3.451	3.870	3.815	3.996
425.0	221.0	316.4	504.3	688.9	873.2	 1067	 1279	 1458	 1558	 1539	 1469	 1418	 1284	 1016	796.7	689.1	660.7	671.2	718.7	758.0	831.3	909.7	986.9	 1063	 1133	 1199	 1249	 1278	 1293	 1291	 1255	 1025	785.0	592.9	417.0	282.3	187.2	136.6	139.5	543.2	 2653	 3703	359.2	9.373	3.938	3.084	2.779	2.926	2.498	2.846	2.355	3.504	3.503	4.762	4.362	4.611	5.270	5.662	6.099	6.208	6.409	6.800	5.967	6.133	5.956	6.151	6.187	6.452	5.747	5.287	4.420	3.644	3.727	4.105	3.672	3.913	4.151
430.0	470.5	343.4	546.1	758.9	992.9	 1238	 1503	 1715	 1849	 1788	 1672	 1604	 1431	 1102	819.1	702.4	665.3	677.9	727.6	774.4	859.5	954.5	 1051	 1151	 1252	 1348	 1434	 1495	 1517	 1508	 1450	 1305	 1026	751.6	531.3	362.7	235.3	149.0	101.8	164.1	679.1	 2333	 2909	 1176	24.08	4.325	3.341	3.087	3.124	2.921	2.924	3.911	4.255	4.843	5.066	5.563	5.824	6.377	7.119	7.132	7.619	7.313	6.600	7.046	6.648	6.412	6.938	6.307	6.101	5.457	4.865	4.138	3.689	3.752	3.804	3.739	4.188
435.0	 1088	408.5	576.6	834.1	 1112	 1401	 1686	 1968	 2097	 2027	 1871	 1794	 1583	 1174	851.0	713.3	678.1	669.5	734.1	797.6	883.2	991.8	 1112	 1228	 1358	 1483	 1598	 1689	 1746	 1741	 1651	 1486	 1263	936.2	657.1	445.8	290.2	180.4	112.1	92.14	185.7	545.2	 1165	 3404	 1627	31.57	4.689	3.516	3.449	3.553	3.583	4.089	4.880	4.989	5.830	6.359	6.841	7.699	8.309	8.006	8.336	7.985	7.667	7.531	7.431	7.723	7.078	6.899	6.001	5.873	5.129	4.541	4.279	4.415	3.807	4.162	4.173
440.0	 1321	645.3	594.5	866.8	 1189	 1478	 1802	 2142	 2233	 2144	 2003	 1914	 1669	 1224	869.4	703.9	677.7	680.7	730.2	800.6	890.3	 1005	 1133	 1271	 1418	 1567	 1701	 1805	 1874	 1889	 1777	 1584	 1368	 1069	732.9	501.2	331.1	205.5	126.1	86.65	81.90	148.6	289.8	 1681	 3605	408.5	16.97	4.491	4.227	3.752	3.702	4.221	5.057	5.176	6.203	6.799	7.275	7.643	9.014	8.803	8.605	8.733	8.768	8.068	8.206	7.838	7.749	7.083	6.719	6.202	5.044	4.494	4.334	3.727	3.892	3.841	3.706
445.0	 1106	 1019	604.1	861.6	 1199	 1550	 1916	 2227	 2353	 2244	 2104	 1970	 1724	 1264	885.1	711.1	665.7	678.2	729.0	800.9	889.5	 1006	 1137	 1289	 1444	 1612	 1762	 1887	 1958	 1969	 1872	 1655	 1400	 1156	811.6	546.1	354.0	227.5	138.1	91.53	64.87	63.95	87.10	428.3	 2255	 3210	306.0	10.02	5.054	3.974	3.747	4.257	5.400	5.905	6.482	6.529	7.939	8.133	9.368	9.252	9.617	9.504	9.081	8.236	7.879	8.212	7.419	7.184	6.752	6.304	5.205	4.573	4.356	3.961	3.949	3.758	3.677
450.0	569.8	 1421	 1000	898.5	 1230	 1559	 1943	 2315	 2417	 2297	 2136	 1969	 1736	 1242	858.5	688.7	642.1	658.4	692.9	772.6	866.9	987.7	 1123	 1281	 1439	 1609	 1760	 1898	 1981	 2009	 1915	 1715	 1431	 1160	882.5	601.1	383.2	244.8	157.1	101.3	70.62	52.35	46.58	116.1	571.3	 1845	 2654	 1106	22.16	4.752	4.309	4.550	5.363	5.881	6.673	6.776	8.137	8.632	9.208	9.642	9.617	9.670	8.902	8.139	8.248	8.143	7.689	7.547	7.188	6.272	5.159	4.266	4.048	3.798	3.602	3.932	4.060
455.0	311.7	 1017	 1921	976.0	 1197	 1525	 1923	 2265	 2406	 2245	 2086	 1962	 1684	 1207	829.7	657.4	611.9	614.5	658.8	729.0	825.9	938.8	 1070	 1232	 1392	 1558	 1719	 1851	 1958	 1992	 1911	 1698	 1423	 1132	868.4	648.1	417.3	260.3	169.4	111.1	77.08	56.31	43.17	50.19	145.2	428.1	 1046	 3187	 1829	24.41	4.840	4.927	5.723	5.734	6.940	7.323	7.996	8.478	9.118	9.114	9.265	8.870	8.250	8.350	8.245	7.478	7.714	7.732	6.683	5.932	4.752	4.469	4.094	3.275	3.737	4.092	3.684
460.0	251.8	629.2	 2320	 1433	 1156	 1526	 1875	 2152	 2333	 2237	 2037	 1904	 1623	 1147	793.8	634.9	577.6	588.4	623.6	693.0	778.8	886.3	 1026	 1176	 1337	 1503	 1651	 1793	 1891	 1927	 1850	 1655	 1378	 1102	837.3	633.3	444.4	270.5	178.5	118.6	82.31	61.46	44.79	37.88	52.39	110.3	254.5	 1546	 4124	316.4	14.37	5.776	5.866	6.051	6.352	6.965	8.166	8.693	8.499	9.061	9.669	8.569	8.640	8.107	8.576	6.941	7.429	7.058	6.124	6.078	4.592	4.058	3.703	3.159	3.506	3.612	3.835
465.0	235.8	405.9	 1922	 2681	 1141	 1441	 1794	 2111	 2250	 2112	 1935	 1852	 1567	 1108	759.1	597.9	550.1	549.6	590.1	656.0	737.1	847.4	961.8	 1111	 1267	 1421	 1564	 1697	 1808	 1836	 1768	 1584	 1339	 1060	802.6	596.5	444.2	290.7	179.5	123.0	88.66	65.59	49.03	36.95	35.97	42.00	71.24	389.5	 2532	 2512	248.7	8.737	5.970	5.624	6.060	6.815	7.652	7.940	8.474	9.450	8.514	8.587	8.191	7.684	7.954	7.283	6.854	7.111	6.734	5.877	4.560	3.914	3.409	3.471	3.243	3.946	3.564
470.0	234.3	336.2	990.3	 3142	 1812	 1327	 1665	 1941	 2071	 1948	 1801	 1675	 1437	 1032	687.0	545.3	507.1	495.9	526.6	591.4	674.6	761.1	874.9	 1006	 1153	 1287	 1428	 1558	 1662	 1682	 1619	 1463	 1243	986.9	740.3	544.4	404.6	299.5	194.4	127.8	91.75	69.25	52.31	40.18	33.80	29.56	32.27	99.78	631.6	 1478	 2007	836.5	21.26	5.806	6.122	6.646	7.211	7.492	8.244	8.499	8.328	8.010	7.552	7.233	6.926	6.827	6.457	6.253	5.953	5.418	4.017	3.613	3.302	3.119	2.930	3.232	3.219
475.0	220.6	314.8	552.0	 1936	 3322	 1307	 1484	 1750	 1847	 1780	 1611	 1522	 1291	918.4	624.0	501.8	445.9	451.4	474.6	522.9	603.5	687.0	775.2	890.2	 1019	 1144	 1275	 1388	 1475	 1511	 1458	 1319	 1121	896.1	674.9	499.2	356.0	264.4	206.4	138.4	92.93	71.67	55.04	43.40	36.12	29.22	24.50	36.87	152.0	339.3	762.2	 2110	 1041	26.08	6.368	6.300	6.866	7.043	7.283	7.988	7.967	7.315	6.086	6.470	6.136	6.226	5.566	5.738	5.513	4.854	3.909	3.552	3.253	2.863	2.624	2.983	2.885
480.0	200.6	315.7	446.6	 1017	 3705	 1721	 1360	 1610	 1691	 1612	 1498	 1415	 1187	847.0	587.2	461.7	411.4	415.0	442.8	471.6	545.9	627.7	710.6	810.8	923.1	 1043	 1155	 1258	 1343	 1371	 1328	 1212	 1027	824.1	625.7	453.9	322.3	234.2	195.6	150.4	96.23	70.86	56.20	44.47	36.05	29.84	23.55	23.94	46.22	85.42	183.1	945.9	 2319	347.6	15.76	6.297	6.476	6.723	7.049	7.283	7.048	6.786	5.934	5.938	6.232	6.447	5.413	5.185	5.344	4.738	4.035	3.126	3.249	2.627	2.234	3.050	2.601
485.0	178.4	305.9	404.2	656.8	 2828	 2634	 1254	 1449	 1571	 1483	 1371	 1290	 1115	781.0	539.8	428.1	382.8	383.2	407.1	431.8	489.1	565.3	647.9	739.5	839.3	948.0	 1048	 1146	 1220	 1247	 1222	 1114	940.8	763.1	579.2	421.9	304.5	216.9	172.5	152.0	108.9	73.58	56.56	43.59	37.14	31.05	25.58	21.10	23.75	28.98	48.72	234.5	 1371	 1897	266.7	8.494	6.151	6.425	6.195	6.630	6.945	6.029	5.547	5.765	5.193	5.421	4.886	5.168	4.431	4.255	3.602	2.714	2.580	2.652	1.966	2.602	2.132
490.0	143.8	277.0	378.0	508.0	 1397	 3254	 3078	 1288	 1387	 1312	 1206	 1142	980.2	689.7	478.5	378.4	347.4	340.6	356.3	385.8	432.1	494.1	571.4	653.6	738.7	832.7	922.4	 1004	 1077	 1098	 1072	974.8	832.4	672.9	515.3	383.2	274.8	199.0	150.9	129.1	114.0	83.10	57.87	45.54	37.62	32.17	26.34	21.69	18.80	16.95	19.70	60.11	338.3	994.5	 1569	685.5	22.09	6.149	5.664	5.831	5.942	5.932	5.513	4.931	4.942	5.071	4.816	4.410	3.939	3.883	3.298	2.612	2.646	2.319	2.181	2.314	2.271
495.0	126.8	211.1	356.3	451.4	741.7	 2727	 6975	 1250	 1188	 1125	 1034	989.4	856.0	620.1	424.0	333.6	304.6	296.5	309.1	336.8	379.6	423.2	492.7	559.1	628.6	712.9	790.1	868.3	919.1	949.0	921.4	844.5	716.6	584.9	448.0	333.3	246.3	178.6	135.5	108.3	100.2	92.40	66.07	47.17	37.17	32.33	26.38	22.00	18.80	14.93	14.00	21.10	82.48	228.4	590.4	 1761	398.4	26.82	5.730	5.698	5.547	4.945	4.586	4.527	4.706	4.508	4.410	3.920	3.338	2.900	2.680	2.336	2.014	2.186	1.978	1.949	2.251
500.0	105.4	183.7	331.9	414.9	562.1	 1404	 5818	 1803	 1058	 1022	944.4	878.7	747.5	543.2	380.1	296.1	271.7	258.2	270.6	297.0	340.6	374.5	435.7	493.3	562.0	627.1	697.6	766.0	813.7	824.5	814.3	743.4	642.6	519.5	401.1	304.0	220.9	162.6	122.7	95.94	84.36	84.44	74.27	49.38	37.33	31.06	25.86	22.14	18.61	14.83	12.66	13.00	25.57	57.42	140.8	786.4	 1881	360.9	14.93	5.137	4.900	4.937	4.175	3.962	4.111	3.985	3.625	3.777	3.286	2.773	2.550	2.053	1.946	1.750	1.735	1.671	2.027
505.0	100.2	162.3	285.2	392.9	475.8	770.2	 3321	 3584	975.8	887.3	853.6	781.9	659.6	492.4	336.7	268.7	246.4	236.9	244.9	263.1	300.1	326.8	389.7	437.1	497.7	559.8	620.2	673.9	718.3	735.2	717.8	652.3	569.4	457.2	359.6	272.1	201.5	146.2	114.5	86.77	73.80	72.43	73.34	55.69	38.70	31.09	26.34	22.15	18.35	15.42	12.88	10.76	13.19	19.29	36.65	192.6	 1096	 1787	273.3	7.402	4.674	4.584	4.107	3.931	3.637	3.524	3.508	2.986	2.932	2.748	2.411	1.764	1.904	1.862	1.647	1.633	1.820
510.0	87.42	133.2	227.2	380.8	434.8	561.9	 1432	 5235	 1566	773.8	719.1	668.9	570.2	423.5	294.5	233.1	213.1	204.4	214.1	229.2	254.2	283.5	328.6	369.5	420.3	468.1	524.1	568.6	605.3	621.9	607.5	554.5	481.2	391.2	306.4	233.1	175.4	131.6	101.8	78.78	66.01	58.84	61.75	58.26	43.85	30.96	25.59	21.56	17.95	15.07	13.22	10.56	9.901	10.40	13.72	48.23	268.6	910.7	 1389	580.4	19.97	4.179	3.679	3.575	2.951	3.045	3.172	2.621	2.567	2.595	1.868	1.691	1.680	1.494	1.478	1.557	1.581
515.0	72.21	123.6	175.5	299.0	408.1	454.2	706.6	 3046	 2907	780.1	598.3	560.0	481.9	355.0	247.4	202.9	183.1	178.4	184.1	190.8	214.9	240.7	273.9	307.4	350.5	390.0	432.1	471.6	500.7	514.3	501.3	461.7	399.0	330.5	253.4	198.0	147.4	112.9	87.81	71.11	58.65	51.74	47.45	48.40	50.69	35.42	25.27	20.97	17.64	14.55	12.32	11.36	9.222	8.040	8.218	15.86	64.57	208.0	505.2	 1471	390.1	22.71	3.676	2.950	3.015	2.621	2.383	2.457	2.330	2.112	1.820	1.589	1.399	1.352	1.196	1.432	1.596
520.0	60.74	100.1	126.6	237.8	391.4	399.8	512.6	 1291	 3217	 1351	527.4	495.4	418.7	313.6	221.3	182.3	161.2	159.0	163.2	170.0	186.6	208.4	237.8	264.4	303.6	332.2	376.5	406.9	432.4	448.5	433.3	401.0	347.3	286.3	225.8	175.4	129.3	102.0	76.89	64.74	54.19	47.00	40.50	39.52	45.59	38.69	26.19	20.32	16.51	14.08	12.44	10.81	9.542	7.596	6.967	8.148	19.07	50.87	120.2	660.2	 1441	330.1	9.723	3.253	2.879	2.163	2.240	2.124	2.296	1.885	1.660	1.638	1.307	1.280	1.312	1.217	1.272
525.0	52.47	83.21	129.7	192.1	351.1	374.6	428.2	656.4	 2259	 2504	504.8	437.0	368.7	278.2	198.3	160.5	138.4	140.1	138.8	150.4	162.4	183.8	210.5	233.9	266.1	292.3	328.4	354.2	376.5	390.2	380.6	352.8	307.0	253.0	199.7	154.3	114.0	91.22	71.56	57.46	50.13	43.34	37.32	33.09	37.43	40.89	30.09	19.66	16.24	13.24	11.59	10.03	9.262	7.186	6.354	6.501	8.821	15.49	31.11	160.6	833.1	 1342	52.66	4.755	3.042	2.526	2.331	2.133	2.295	1.691	1.553	1.497	1.077	1.183	1.023	1.103	1.141
530.0	49.32	84.75	114.2	158.4	265.0	378.0	357.1	447.5	976.7	 2940	 1274	368.1	315.6	234.2	167.9	139.8	122.3	119.6	118.1	128.4	139.1	151.7	175.7	194.1	225.7	244.3	273.1	294.2	311.6	324.6	317.9	294.6	254.6	211.1	166.5	130.8	98.99	77.35	61.24	50.81	43.86	38.27	33.39	29.67	28.35	33.35	33.22	24.10	16.36	12.84	10.75	9.436	8.708	7.320	6.843	6.024	6.112	7.375	10.78	39.76	203.5	683.1	967.4	226.3	16.48	2.557	2.147	2.020	1.969	1.494	1.306	1.292	1.158	1.238	0.919	0.958	1.134
535.0	43.24	70.15	94.84	132.3	202.5	322.8	324.6	340.2	473.2	 1499	 2958	433.3	269.1	201.3	144.0	116.5	105.4	102.9	102.4	107.3	114.3	129.3	147.0	159.2	180.5	202.9	219.4	239.3	255.0	259.8	258.8	239.3	205.3	173.5	137.9	106.5	83.88	66.47	53.32	44.42	37.68	33.58	29.78	26.37	23.31	24.61	28.74	28.27	18.30	12.21	10.40	9.261	7.961	7.057	6.518	6.131	5.345	5.282	5.775	12.13	48.64	155.6	361.3	 1015	360.3	17.03	2.225	1.719	1.813	1.403	1.402	1.358	1.199	1.103	1.002	1.037	1.241
540.0	47.60	62.30	87.88	114.7	164.5	265.6	320.4	290.6	329.1	634.1	 3170	 1113	226.2	175.0	126.6	101.6	90.87	86.31	91.49	91.09	99.71	111.5	125.1	138.2	152.4	175.3	192.5	203.6	214.1	223.6	220.5	206.2	178.0	148.5	116.8	89.44	72.58	57.69	46.24	39.21	32.83	29.88	27.38	23.86	20.82	20.43	21.49	25.45	20.59	13.07	9.881	8.492	7.248	6.117	5.880	5.646	5.754	4.503	4.610	5.677	13.46	37.47	85.73	472.9	 1047	272.9	5.463	1.687	1.606	1.338	1.206	0.902	1.007	1.050	0.923	0.832	1.173
545.0	40.66	49.80	80.31	88.65	140.7	202.5	318.1	257.2	270.3	336.8	 2017	 2375	229.5	152.0	113.2	89.35	81.09	77.43	80.16	82.25	89.89	94.85	107.4	120.7	133.5	150.9	164.6	173.3	185.7	195.3	191.7	175.9	152.6	123.5	100.8	78.88	64.16	49.38	40.65	34.55	28.73	26.50	24.41	21.24	19.81	17.40	16.57	20.74	21.56	15.63	9.766	7.696	6.522	6.325	5.327	5.093	5.521	4.623	4.597	4.088	5.734	11.13	21.75	115.7	619.4	925.0	50.02	2.601	1.784	1.518	1.247	1.066	0.919	0.731	0.668	0.704	1.002
550.0	33.20	47.93	62.97	87.91	105.4	148.9	247.9	266.7	218.3	227.0	727.9	 2757	911.6	125.4	89.81	76.24	67.03	66.42	65.23	67.39	73.45	78.37	87.53	98.77	108.7	120.7	132.2	138.6	149.3	159.2	155.9	140.8	124.8	102.5	81.71	65.58	52.55	42.02	34.18	29.35	25.43	22.23	19.80	18.32	16.80	14.23	14.11	15.10	17.99	17.24	11.29	7.181	6.410	5.486	4.870	4.760	5.042	4.336	4.104	3.706	4.059	4.877	7.122	28.28	152.9	488.6	664.4	209.7	12.72	1.691	1.362	1.063	0.916	0.702	0.848	0.856	0.807
555.0	28.64	42.07	47.85	69.10	89.53	114.6	164.9	272.9	193.4	175.3	278.5	 1226	 2562	200.1	75.70	62.23	54.14	53.04	52.85	52.95	57.09	62.49	69.58	72.91	86.83	95.50	102.4	107.9	116.4	120.6	121.2	107.8	96.94	81.03	65.54	51.68	42.50	34.51	28.21	23.24	19.95	18.24	16.81	15.32	14.06	12.12	11.96	11.11	12.24	15.30	13.06	8.235	5.868	5.152	4.195	4.678	4.559	4.457	4.100	3.708	3.365	3.624	4.075	8.925	36.64	112.1	266.2	712.1	286.3	9.044	1.581	1.220	0.954	0.827	0.831	0.755	0.650
560.0	26.70	34.26	44.25	59.62	79.30	96.74	118.0	238.9	189.4	139.4	169.2	442.4	 2753	769.3	66.26	55.66	47.72	44.29	44.66	45.27	48.43	50.76	56.33	63.22	69.90	77.70	84.16	88.87	95.23	98.61	99.23	87.81	77.88	66.80	52.52	42.55	34.64	29.03	23.76	20.16	17.21	16.23	14.36	13.54	11.86	11.20	9.736	9.595	9.200	11.13	12.42	10.04	5.878	4.680	4.333	4.028	3.746	3.823	3.882	3.841	3.337	3.794	3.643	4.447	10.50	27.46	63.93	344.9	691.0	54.55	3.426	1.638	1.002	0.893	0.929	0.670	0.568
565.0	27.31	33.28	38.60	54.37	66.12	83.22	95.68	164.4	206.3	119.0	125.2	197.3	 1630	 1945	71.42	46.60	39.49	36.97	35.30	37.07	42.73	41.48	47.53	51.19	58.39	62.11	71.64	73.58	81.13	80.58	80.40	71.40	64.67	54.87	44.99	35.59	28.86	23.33	19.85	17.29	14.08	13.42	12.35	12.22	10.16	9.886	8.579	8.350	7.831	7.768	10.09	10.29	6.748	4.181	3.755	3.619	3.448	3.373	3.849	4.055	3.908	3.799	4.037	4.125	5.441	9.467	17.44	86.88	433.6	436.6	44.16	1.771	1.267	0.956	0.734	0.634	0.730
570.0	24.88	28.51	36.11	44.05	55.26	65.38	78.57	106.8	198.9	136.8	97.37	114.7	521.3	 2309	634.2	39.08	32.68	29.93	28.95	30.50	32.83	34.09	37.88	40.98	45.18	48.82	53.87	56.74	62.45	63.51	61.73	57.59	49.65	42.29	34.05	28.75	22.44	18.59	15.61	13.99	12.27	11.06	9.631	9.642	7.879	8.064	6.842	6.629	6.262	5.851	6.776	8.120	7.616	4.600	3.884	3.181	3.558	3.580	3.847	4.182	4.618	4.704	4.093	4.706	4.875	5.209	7.172	23.06	110.3	288.2	386.7	150.2	7.125	1.019	0.916	0.718	0.592
575.0	23.40	31.68	32.08	39.70	44.60	49.53	68.45	70.96	137.3	174.5	84.81	80.95	161.7	975.9	 2045	92.95	27.42	24.12	23.94	23.66	27.14	26.56	29.70	31.39	34.30	36.98	40.24	43.07	46.32	48.27	45.99	43.33	38.49	32.34	26.76	22.18	17.87	13.93	12.09	11.03	9.694	8.991	7.511	7.555	6.856	6.043	5.561	5.195	5.104	4.756	4.479	5.647	6.808	5.616	4.060	3.319	3.171	3.555	3.759	4.423	4.369	4.793	4.658	4.678	5.023	4.901	5.082	8.942	27.85	67.66	167.3	433.8	55.92	4.145	0.774	0.639	0.479
580.0	23.35	32.83	29.57	29.73	40.07	44.74	57.48	53.42	89.78	183.2	84.02	70.13	83.13	303.5	 2227	499.1	22.99	21.80	21.09	20.52	20.80	21.83	23.65	25.72	28.17	30.23	32.89	34.91	36.87	38.58	37.11	35.95	30.54	25.60	21.11	17.94	13.83	11.55	9.598	9.424	7.675	7.445	6.952	5.688	5.574	5.331	5.066	4.478	4.000	3.702	3.496	4.342	5.224	5.878	4.555	3.169	3.367	3.231	3.705	3.948	4.106	4.680	5.147	4.962	4.595	4.808	4.688	5.378	9.518	18.10	42.14	225.1	376.2	46.80	1.615	0.611	0.682
585.0	25.02	27.85	31.00	30.91	30.39	39.14	51.47	53.28	60.57	156.5	108.3	63.39	60.07	107.8	 1289	 1406	29.28	18.43	17.64	16.86	17.90	18.20	19.17	21.19	23.01	24.18	27.43	29.67	30.25	32.02	30.83	29.48	25.01	21.98	17.47	14.40	11.20	9.776	9.121	7.481	6.786	6.520	5.723	5.172	4.883	4.819	4.221	4.297	3.020	3.475	3.299	3.154	3.783	4.993	4.823	3.538	2.989	2.985	3.013	3.329	3.996	3.948	4.917	4.658	4.350	4.303	4.537	4.672	5.228	7.123	11.79	57.51	263.3	297.5	32.27	0.914	0.731
590.0	22.74	27.60	29.05	25.95	29.65	34.98	38.50	40.96	51.17	97.45	148.0	68.21	54.61	58.65	385.7	 1687	414.2	15.66	14.61	14.06	14.41	15.39	15.62	16.85	17.75	19.32	21.89	23.22	25.49	24.75	24.76	22.32	20.10	16.56	14.79	11.74	9.391	8.287	7.267	6.133	5.513	5.135	4.902	4.358	4.055	3.817	3.417	3.357	2.889	2.767	2.670	2.680	2.707	3.507	4.343	3.948	3.096	2.874	2.677	2.697	3.164	3.408	3.864	4.032	4.006	3.391	3.780	3.748	3.721	4.028	4.705	14.43	67.74	188.0	228.1	36.05	3.596
595.0	25.31	27.62	22.95	22.20	22.76	28.73	28.45	32.80	47.21	56.87	138.5	89.37	51.63	42.64	108.6	696.4	 1383	42.99	12.10	11.24	11.90	12.06	12.45	13.74	13.73	15.62	16.37	19.11	19.66	18.13	17.74	17.57	16.21	12.85	10.43	8.727	7.823	6.408	5.686	4.891	4.652	3.942	3.489	3.410	3.130	3.058	2.781	2.711	2.301	2.554	2.090	2.006	1.708	2.420	2.965	3.374	3.497	2.260	2.120	2.469	2.492	2.683	2.850	3.266	3.467	3.080	2.740	3.037	3.036	2.951	2.686	4.721	16.29	43.51	104.6	241.1	51.09
600.0	20.28	22.38	25.02	23.80	26.15	24.00	28.58	31.45	39.67	45.71	93.84	115.5	53.51	38.66	42.57	204.6	 1547	176.4	10.23	9.541	10.22	10.23	10.57	11.95	12.25	12.54	13.92	14.58	16.86	15.95	15.38	14.07	13.24	10.62	8.691	7.548	6.575	5.471	4.949	3.997	3.797	3.319	2.760	2.722	2.589	2.582	2.378	2.620	2.290	2.061	1.874	1.719	1.572	1.837	2.108	3.179	3.630	2.486	2.076	2.188	2.227	1.918	2.428	2.436	2.628	2.841	2.411	2.318	2.281	2.275	2.031	2.334	4.713	10.76	25.54	136.9	214.3
605.0	18.92	22.04	23.03	21.55	25.31	23.46	26.44	27.70	31.54	38.01	69.99	131.0	51.77	35.58	31.41	63.06	902.1	880.0	16.10	8.752	8.377	8.684	8.445	9.397	10.01	10.87	12.40	11.04	13.40	12.99	13.04	12.66	11.06	9.236	8.028	6.515	5.560	4.379	4.108	3.714	3.495	3.111	2.415	2.576	2.532	2.086	2.367	2.246	2.034	1.694	1.565	1.607	1.463	1.386	1.407	2.368	3.132	3.009	2.173	1.855	1.877	1.886	1.784	1.708	2.304	2.787	2.429	2.016	2.359	1.946	1.965	1.694	2.109	3.307	6.474	35.21	156.2
610.0	20.67	26.57	22.99	21.52	21.19	22.59	25.46	26.16	28.70	35.57	43.65	104.4	83.48	35.59	28.12	28.64	265.2	 1170	284.0	7.785	7.150	6.772	7.091	7.652	7.537	8.431	9.778	9.557	10.82	10.48	10.20	9.344	8.330	7.410	6.022	5.142	4.032	3.907	3.292	2.791	2.780	2.680	2.224	2.045	1.951	1.699	1.936	1.722	1.666	1.428	1.441	1.478	1.211	1.166	1.291	1.420	2.252	2.686	2.132	1.714	1.537	1.641	1.487	1.637	1.824	1.806	2.020	2.150	1.899	1.535	1.375	1.220	1.144	1.450	1.998	8.444	40.21
615.0	17.10	20.53	16.24	19.47	21.38	16.66	22.77	23.39	26.24	32.25	35.11	65.19	102.5	41.97	26.36	19.42	69.13	500.6	 1027	24.13	6.187	6.428	5.796	6.407	5.989	6.478	7.768	7.514	7.959	7.326	7.570	7.130	6.027	5.602	5.033	4.197	3.100	2.941	2.349	2.305	1.932	2.069	1.801	1.757	1.551	1.835	1.534	1.205	1.238	1.186	1.159	1.103	1.019	1.192	1.227	1.158	1.531	1.930	2.019	1.813	1.113	1.431	1.275	1.177	1.468	1.532	1.343	1.862	1.935	1.428	1.444	0.946	1.048	0.982	0.909	2.364	9.406
620.0	14.85	24.52	22.01	19.47	20.20	17.50	19.18	20.44	25.07	29.24	33.40	46.81	101.9	58.27	26.30	19.29	24.79	144.4	 1175	132.4	5.228	5.117	5.091	4.855	4.838	5.416	5.971	6.280	5.898	6.284	5.601	5.938	5.168	4.328	4.157	3.678	3.040	2.779	2.240	2.020	1.779	1.928	1.521	1.384	1.592	1.333	1.660	1.096	1.092	1.103	0.947	1.194	1.034	0.923	1.059	0.889	1.161	1.305	1.744	1.699	1.164	1.536	1.129	1.193	1.234	1.434	1.186	1.237	1.715	1.219	1.175	0.675	0.991	0.729	0.804	0.903	2.670
625.0	13.73	20.79	20.93	20.75	20.27	14.39	19.91	19.77	25.21	25.85	29.96	38.89	73.46	74.56	26.41	17.18	15.50	41.50	715.5	656.5	8.993	4.584	4.614	4.467	4.453	4.182	4.912	5.670	5.480	5.950	4.662	4.955	4.283	3.550	3.649	2.926	2.506	2.348	1.780	1.894	1.814	1.719	1.330	1.370	1.403	1.160	1.217	0.904	1.096	0.980	0.781	0.973	0.863	0.722	0.923	0.885	0.915	1.107	1.664	1.615	1.284	0.981	1.036	1.297	1.091	1.160	1.091	1.119	1.452	1.433	0.967	0.649	0.976	0.583	0.775	0.694	0.988
630.0	14.60	16.40	21.25	18.44	19.11	14.37	16.53	18.07	21.64	25.87	29.84	34.75	46.93	84.18	36.79	16.18	12.60	16.17	212.0	917.7	181.4	4.347	3.865	4.336	3.849	3.705	3.785	4.130	4.280	4.603	4.586	4.406	3.425	3.431	2.848	2.534	1.923	1.789	1.426	1.472	1.527	1.497	1.231	1.043	1.108	1.068	0.972	0.816	0.914	0.884	0.738	0.846	0.740	0.844	0.788	0.810	0.843	0.881	1.131	1.251	1.479	1.164	1.198	1.083	1.119	0.982	0.904	1.033	1.069	1.198	0.903	0.975	0.829	0.713	0.626	0.649	0.562
635.0	12.02	17.81	21.77	18.34	16.51	15.19	15.62	19.22	20.83	22.99	31.76	33.63	41.28	65.69	57.23	15.96	12.33	10.23	53.39	408.4	702.0	16.35	3.348	3.892	3.321	3.218	3.040	3.257	4.102	4.371	3.136	3.013	2.787	2.547	2.373	2.116	1.672	1.717	1.503	1.349	1.265	1.082	1.301	0.890	0.929	0.953	0.867	0.839	0.764	0.674	0.713	0.643	0.620	0.872	0.502	0.624	0.650	0.772	0.839	0.995	1.369	1.250	1.083	0.825	0.858	1.030	0.823	1.172	0.711	0.877	1.050	1.011	0.766	0.583	0.654	0.547	0.423
640.0	15.27	15.01	24.76	13.70	14.76	13.44	16.08	17.54	18.79	26.68	31.45	33.43	36.03	46.63	66.05	20.95	12.29	9.596	17.83	117.7	852.2	102.6	3.556	3.103	3.128	2.888	2.676	3.158	3.324	3.941	3.097	2.769	2.658	2.449	2.073	1.768	1.684	1.425	1.089	1.206	0.978	1.038	1.011	0.809	0.980	0.914	1.049	0.849	0.712	0.593	0.548	0.529	0.729	0.766	0.522	0.633	0.702	0.694	0.698	0.765	0.920	1.237	0.983	0.815	0.783	0.684	0.794	0.809	0.863	0.616	0.966	0.977	0.909	0.649	0.572	0.642	0.450
645.0	20.27	15.18	24.44	21.13	15.07	14.88	14.59	14.95	21.07	24.32	29.59	30.70	32.73	38.79	65.35	30.91	12.71	9.929	9.341	32.06	552.4	456.8	4.596	2.503	2.689	2.565	2.728	2.614	2.826	3.247	2.669	2.518	2.356	2.450	1.716	1.403	1.267	1.420	1.066	1.105	0.861	1.163	1.105	0.678	0.767	0.769	0.799	0.542	0.814	0.625	0.541	0.588	0.699	0.547	0.691	0.608	0.558	0.566	0.648	0.633	0.795	1.035	0.982	0.793	0.788	0.551	0.855	1.073	0.789	0.613	0.660	0.660	0.985	0.966	0.586	0.742	0.451
650.0	31.67	16.68	23.73	24.75	15.65	15.08	16.93	13.41	19.52	21.79	28.45	31.94	29.73	33.38	53.50	44.12	14.02	8.951	8.127	12.10	199.9	747.0	31.73	2.617	2.144	2.530	2.117	2.315	2.119	2.431	2.165	2.516	1.995	1.940	1.461	1.245	1.192	1.276	1.152	0.957	1.060	0.912	1.141	0.894	0.697	0.771	0.645	0.668	0.779	0.491	0.429	0.487	0.504	0.450	0.558	0.530	0.435	0.474	0.555	0.703	0.668	0.895	0.843	0.734	0.906	0.640	0.738	0.895	0.692	0.609	0.684	0.592	1.026	1.013	0.792	0.541	0.382
