Sample:	'1
File name:	y2025051308袁家屋子南闸入杏花河.FD3
Run date:	'11:20:28, 05/14/2025
Operator:	Administrator
Comment:	'

Instrument
Model:	F-2700 FL Spectrophotometer
Serial number:	23B8-004
ROM Version:	4J14000 07

Instrument parameters
Measurement type:	3-D scan
Data mode:	Fluorescence
EX  Start WL:	220.0 nm
EX  End WL:	600.0 nm
EX Sampling interval:	5.0 nm
EM  Start WL:	230.0 nm
EM  End WL:	650.0 nm
EM Sampling interval:	5.0 nm
Scan speed:	12000 nm/min
EX Slit:	5.0 nm
EM Slit:	5.0 nm
PMT Voltage:	700 V
Response:	Auto 
Corrected spectra:	Off
Contour interval:	50.000

Peak integration
Integration method:	Rectangular
Sensitivity:	1
Threshold:	1.000

Peaks
No.	ApexEX/EM(nm)	Height(Data)
1	225.0/605.0	104.2
2	225.0/625.0	85.80
3	230.0/345.0	4030
4	235.0/405.0	2386
5	255.0/285.0	446.9
6	265.0/585.0	126.4
7	270.0/600.0	115.4
8	275.0/310.0	1569
9	275.0/415.0	4712
10	275.0/435.0	4545
11	275.0/610.0	114.8
12	280.0/345.0	2134
13	280.0/625.0	97.49
14	285.0/640.0	77.63
15	350.0/415.0	2784
16	350.0/435.0	2744
17	460.0/345.0	10.61
18	475.0/350.0	10.51
19	505.0/275.0	2.479
20	510.0/280.0	3.042
21	520.0/285.0	3.320
22	560.0/340.0	10.25
23	565.0/410.0	13.82
24	575.0/345.0	10.22

Data points
	220.0	225.0	230.0	235.0	240.0	245.0	250.0	255.0	260.0	265.0	270.0	275.0	280.0	285.0	290.0	295.0	300.0	305.0	310.0	315.0	320.0	325.0	330.0	335.0	340.0	345.0	350.0	355.0	360.0	365.0	370.0	375.0	380.0	385.0	390.0	395.0	400.0	405.0	410.0	415.0	420.0	425.0	430.0	435.0	440.0	445.0	450.0	455.0	460.0	465.0	470.0	475.0	480.0	485.0	490.0	495.0	500.0	505.0	510.0	515.0	520.0	525.0	530.0	535.0	540.0	545.0	550.0	555.0	560.0	565.0	570.0	575.0	580.0	585.0	590.0	595.0	600.0
230.0	75.02	1185	3317	1163	56.17	11.58	9.298	8.060	6.982	6.442	6.138	5.755	4.990	4.702	3.916	3.279	2.909	2.431	2.230	2.215	2.048	1.889	1.821	1.776	1.702	1.689	1.506	1.582	1.528	1.378	1.419	1.290	1.171	1.092	0.956	0.896	0.867	0.774	0.706	0.682	0.673	0.743	0.780	0.650	0.593	0.535	1.356	5.764	10.80	7.958	3.482	0.899	0.473	0.428	0.439	0.473	0.483	0.446	0.463	0.472	0.468	0.466	0.451	0.437	0.453	0.469	0.468	0.475	0.464	0.433	0.472	0.484	0.473	0.451	0.458	0.536	0.490
235.0	119.3	339.1	1879	3462	619.3	80.67	12.06	9.044	7.103	7.278	6.936	6.115	4.984	4.695	4.105	3.534	2.979	2.697	2.365	2.338	2.161	1.949	1.910	1.792	1.782	1.692	1.549	1.570	1.512	1.417	1.537	1.241	1.138	1.002	0.890	0.938	0.895	0.780	0.712	0.684	0.560	0.625	0.739	0.784	0.637	0.587	0.782	1.726	3.867	6.868	10.66	11.72	5.592	1.442	0.476	0.476	0.471	0.486	0.464	0.493	0.468	0.494	0.438	0.463	0.465	0.483	0.490	0.501	0.519	0.438	0.436	0.446	0.464	0.479	0.531	0.475	0.477
240.0	165.7	161.6	552.1	2772	3709	496.2	42.81	10.84	8.519	7.731	6.581	6.382	5.500	4.783	4.557	3.795	3.225	2.730	2.383	2.295	1.921	2.122	2.143	1.703	1.698	1.733	1.484	1.669	1.604	1.483	1.525	1.201	1.194	1.066	1.005	0.903	0.898	0.766	0.756	0.684	0.662	0.697	0.612	0.705	0.779	0.781	0.763	0.827	1.220	2.166	5.670	14.60	17.58	12.64	4.832	1.059	0.488	0.463	0.471	0.482	0.510	0.463	0.529	0.516	0.429	0.465	0.468	0.448	0.510	0.485	0.506	0.519	0.453	0.500	0.493	0.469	0.484
245.0	123.9	188.7	189.1	913.0	3906	3630	372.8	20.82	9.926	9.594	7.514	7.245	5.636	5.376	4.471	3.618	3.100	2.727	2.295	2.170	2.079	1.999	2.008	1.695	1.817	1.720	1.622	1.608	1.584	1.414	1.395	1.159	1.222	1.011	0.984	0.865	0.950	0.798	0.726	0.714	0.576	0.682	0.643	0.634	0.657	0.792	0.900	0.847	0.748	0.828	1.662	4.771	11.68	21.08	20.69	11.60	3.627	0.816	0.526	0.532	0.469	0.549	0.505	0.482	0.509	0.458	0.493	0.436	0.461	0.432	0.463	0.531	0.475	0.469	0.541	0.509	0.553
250.0	70.50	146.0	205.6	282.5	1226	3650	4452	1332	84.76	11.43	9.094	7.907	6.767	5.847	4.510	3.929	3.348	3.092	2.359	2.361	2.183	2.138	1.987	1.944	1.845	1.810	1.741	1.626	1.696	1.539	1.461	1.359	1.237	1.024	0.995	0.849	0.882	0.798	0.717	0.717	0.693	0.663	0.719	0.654	0.608	0.681	0.706	0.860	1.006	0.893	0.876	1.523	3.127	6.818	12.11	19.23	24.19	19.74	11.73	3.680	0.710	0.500	0.504	0.526	0.467	0.514	0.503	0.466	0.470	0.455	0.454	0.514	0.481	0.528	0.505	0.509	0.501
255.0	56.23	69.05	144.4	258.0	346.4	920.0	3644	7257	1838	88.94	12.26	9.871	7.537	6.426	4.986	4.647	3.446	3.331	2.736	2.707	2.082	2.472	2.108	1.919	1.999	1.750	1.964	1.627	1.723	1.818	1.689	1.400	1.122	1.198	0.967	0.825	0.836	0.834	0.758	0.783	0.741	0.683	0.707	0.644	0.647	0.602	0.588	0.578	0.717	0.871	1.145	1.378	1.315	2.019	3.187	4.885	9.005	20.89	37.57	30.15	18.07	4.170	0.579	0.559	0.551	0.486	0.536	0.571	0.550	0.471	0.524	0.536	0.459	0.532	0.513	0.499	0.507
260.0	59.58	48.66	70.55	216.9	265.5	255.9	1119	6104	7984	1338	39.74	12.61	9.203	7.686	6.286	4.791	3.964	3.278	2.798	2.646	2.466	2.326	2.314	2.214	1.939	1.976	2.060	1.722	1.530	1.860	1.578	1.374	1.343	1.137	1.018	0.915	0.850	0.814	0.796	0.692	0.690	0.680	0.637	0.652	0.646	0.550	0.513	0.535	0.623	0.612	0.806	1.503	1.643	1.243	1.191	1.520	2.513	5.964	17.03	35.24	50.25	28.67	14.48	2.248	0.613	0.547	0.585	0.515	0.464	0.509	0.498	0.531	0.545	0.578	0.495	0.500	0.552
265.0	52.69	38.20	39.53	105.9	279.3	209.0	288.0	2096	8769	7949	223.3	20.58	11.72	8.229	6.559	4.890	4.186	3.437	3.215	3.006	2.730	2.348	2.621	2.325	1.946	2.069	1.910	1.910	1.770	1.814	1.625	1.485	1.292	1.136	1.168	0.957	0.895	0.721	0.765	0.679	0.695	0.640	0.667	0.669	0.644	0.635	0.612	0.584	0.516	0.520	0.555	0.896	1.611	1.757	1.243	0.940	1.062	1.810	4.358	10.72	27.70	49.46	59.86	25.72	9.028	1.053	0.594	0.526	0.649	0.521	0.600	0.572	0.573	0.569	0.486	0.537	0.554
270.0	75.76	66.57	51.25	53.67	144.2	290.5	231.4	519.4	2890	8406	9714	836.4	56.73	12.28	8.542	6.522	4.848	4.327	3.551	3.172	2.744	2.574	2.630	2.155	2.161	2.041	1.887	1.976	1.848	1.809	1.679	1.663	1.373	1.276	1.183	1.007	0.953	0.858	0.896	0.757	0.708	0.709	0.670	0.759	0.732	0.684	0.671	0.634	0.570	0.502	0.501	0.636	0.806	1.167	1.653	1.803	1.755	1.213	1.571	2.914	6.942	14.70	29.89	44.77	57.02	48.05	16.98	7.640	1.199	0.620	0.594	0.596	0.644	0.576	0.531	0.557	0.610
275.0	172.1	160.1	122.2	70.70	69.76	154.8	376.1	304.3	705.4	2157	8036	9999.9	1196	52.50	12.59	8.803	6.098	4.752	4.372	3.630	3.199	3.058	2.736	2.461	2.479	2.363	2.175	2.109	1.915	1.737	1.697	1.627	1.459	1.301	1.322	1.301	1.119	1.099	0.945	0.833	0.832	0.840	0.865	0.864	0.903	0.856	1.003	0.818	0.816	0.658	0.550	0.646	0.666	0.773	0.914	1.091	2.068	2.479	2.085	1.367	2.167	3.911	7.401	10.89	17.60	37.71	72.80	82.09	26.98	8.399	1.057	0.691	0.714	0.574	0.579	0.550	0.643
280.0	296.9	306.2	227.4	117.6	79.93	95.43	284.2	413.6	309.2	594.1	2494	9999.9	9999.9	810.2	23.71	11.72	7.966	6.297	4.752	4.012	3.643	3.314	3.053	2.353	2.529	2.346	2.297	2.046	2.058	1.796	2.075	1.737	1.669	1.376	1.357	1.275	1.275	1.186	1.141	1.025	0.872	1.009	1.005	1.073	1.184	1.212	1.292	1.203	1.093	0.811	0.689	0.769	0.611	0.689	0.826	0.818	1.268	2.015	3.042	2.484	1.748	1.575	2.422	3.348	4.842	10.26	27.23	61.91	89.33	77.88	21.39	4.421	0.829	0.604	0.642	0.639	0.611
285.0	428.8	478.4	346.3	194.0	112.3	102.0	171.1	446.9	360.0	313.4	747.3	3662	9999.9	8001	118.3	16.32	10.26	7.962	5.736	4.334	3.748	3.468	3.184	2.700	2.615	2.522	2.111	2.273	2.072	1.927	1.996	1.740	1.512	1.411	1.568	1.593	1.426	1.327	1.181	1.145	1.168	1.174	1.176	1.440	1.392	1.606	1.542	1.487	1.317	1.081	0.865	0.898	0.836	0.876	0.926	0.910	0.994	1.215	2.139	3.183	3.320	1.988	1.747	1.832	2.210	3.529	7.457	17.12	39.54	80.39	97.14	32.35	15.65	1.889	0.694	0.717	0.656
290.0	640.0	704.0	528.9	325.0	190.2	158.2	177.3	302.6	548.6	583.6	510.9	1135	3746	9999.9	9999.9	451.6	32.19	10.28	7.560	5.442	4.571	4.052	3.458	3.057	2.978	2.732	2.523	2.400	2.214	2.188	2.044	1.950	1.674	1.615	1.700	1.662	1.646	1.614	1.576	1.449	1.317	1.391	1.412	1.591	1.668	1.997	2.093	2.136	1.832	1.604	1.265	1.288	1.151	1.079	1.025	1.094	1.231	1.235	1.468	1.871	2.744	3.080	3.666	3.159	2.565	2.659	3.509	5.695	10.60	21.65	38.86	53.21	74.85	62.02	45.42	11.23	2.114
295.0	827.7	897.7	711.7	436.0	280.2	230.3	246.6	307.3	448.2	819.3	854.3	731.4	1200	2676	8925	9999.9	657.8	29.95	10.35	7.741	5.637	4.658	4.146	3.482	3.240	3.095	2.889	2.421	2.395	2.234	2.183	1.803	1.954	1.796	1.707	2.003	1.804	1.933	1.746	1.705	1.590	1.540	1.763	1.840	2.002	2.238	2.358	2.318	2.345	1.920	1.681	1.765	1.383	1.377	1.459	1.384	1.462	1.633	1.610	1.951	2.167	2.421	3.215	4.917	5.337	4.293	3.360	3.637	4.551	6.913	10.39	13.36	20.25	34.53	78.33	103.6	34.12
300.0	890.4	982.1	811.6	533.9	349.2	295.6	325.3	378.5	496.9	763.4	1204	919.7	780.1	928.3	2720	9999.9	9999.9	481.0	18.32	9.722	6.482	5.170	4.496	4.104	3.520	3.453	2.919	2.733	2.627	2.674	2.434	2.153	1.748	1.686	1.865	2.154	2.043	2.083	1.882	1.823	1.811	1.753	1.877	2.074	2.184	2.484	2.570	2.833	2.700	2.127	1.885	1.895	1.664	1.529	1.657	1.593	1.661	2.052	2.121	2.280	2.313	2.760	2.979	3.951	5.679	6.403	5.611	4.029	4.027	4.411	4.703	5.050	6.366	9.585	24.08	60.12	95.52
305.0	955.4	1083	912.3	613.1	420.7	390.4	416.7	511.4	653.9	848.8	1273	1425	948.7	717.2	941.8	3641	9999.9	5063	73.66	13.68	8.433	6.389	5.173	4.393	3.904	3.495	3.154	2.982	2.507	2.565	2.231	2.270	1.876	1.838	1.928	2.264	2.111	2.015	1.955	1.950	1.816	1.926	1.965	2.209	2.492	2.780	2.887	3.088	2.935	2.456	2.191	2.181	1.978	1.963	1.904	2.036	2.143	2.558	2.430	2.811	2.891	3.562	4.004	4.290	5.287	6.318	7.370	6.626	5.612	4.914	4.532	4.063	4.072	4.182	7.252	16.00	34.95
310.0	1001	1151	997.3	687.2	493.4	471.3	533.7	642.7	786.3	999.3	1265	1569	1427	910.8	691.1	1123	3680	9716	8443	1413	23.98	8.836	6.951	5.338	4.549	4.056	3.564	3.228	2.716	2.585	2.374	2.304	1.989	1.941	2.121	2.076	2.216	2.173	2.050	1.944	1.864	1.907	1.878	2.293	2.496	2.915	2.932	3.379	3.067	2.598	2.295	2.519	2.218	2.201	2.198	2.263	2.593	2.960	3.102	3.397	3.643	4.306	4.442	4.909	5.551	6.157	6.637	7.369	7.767	7.116	6.250	4.933	4.289	3.878	4.245	5.714	9.757
315.0	1117	1237	1108	790.5	579.2	551.9	633.1	741.8	898.5	1107	1341	1516	1571	1280	810.6	659.2	1118	2513	7976	9999.9	483.7	21.98	9.407	6.802	6.010	4.665	4.229	3.715	3.489	2.883	2.627	2.433	2.141	2.180	2.082	1.998	2.168	2.167	2.052	2.009	1.913	1.958	2.056	2.396	2.881	3.078	3.287	3.430	3.409	2.726	2.288	2.753	2.400	2.415	2.453	2.574	2.988	3.305	3.515	3.784	3.949	4.581	4.930	5.314	5.734	6.267	6.783	7.080	7.426	7.489	8.305	7.421	5.970	5.111	4.172	3.935	4.536
320.0	1299	1524	1330	906.7	656.4	622.3	692.4	829.5	972.5	1211	1453	1601	1588	1549	1072	668.4	624.0	776.9	2367	9999.9	9421	367.0	15.39	9.241	6.633	5.508	4.819	4.009	3.384	3.380	2.903	2.755	2.277	2.060	2.045	2.225	2.322	2.291	2.183	2.087	1.995	2.120	2.418	2.462	3.121	3.466	3.762	4.179	4.016	3.200	2.969	2.984	2.644	2.688	2.719	2.734	3.327	3.545	3.913	3.916	4.296	4.947	5.533	5.942	6.188	6.723	7.187	7.594	7.748	7.260	7.851	8.294	8.177	6.597	5.116	4.360	3.836
325.0	1602	1939	1824	1258	773.3	709.2	775.7	901.6	1072	1318	1576	1726	1695	1579	1399	841.2	586.4	444.4	678.9	3427	9999.9	3873	57.29	12.69	8.075	6.505	5.176	4.101	4.007	3.625	3.098	2.865	2.412	2.067	2.169	2.286	2.394	2.236	2.063	2.128	2.168	2.351	2.517	2.723	3.484	4.288	4.981	5.380	5.276	4.372	3.765	3.966	3.424	3.042	3.040	3.008	3.551	3.807	4.221	4.449	4.584	5.297	5.712	6.347	6.876	7.650	7.952	8.012	8.234	7.869	8.254	8.163	8.262	8.192	7.254	5.321	4.584
330.0	2038	2730	2822	2086	1271	923.3	909.6	1011	1196	1464	1734	1907	1892	1703	1496	1185	754.9	475.1	387.4	936.8	3434	8056	7096	1203	21.50	9.160	6.228	5.215	4.483	3.803	3.318	2.930	2.627	2.397	2.271	2.297	2.165	2.261	2.175	2.250	2.308	2.483	2.925	3.298	4.259	5.204	6.401	7.529	7.624	6.940	6.037	6.255	5.066	4.108	3.879	3.890	4.047	4.207	4.561	4.948	5.151	5.625	6.320	7.187	7.510	8.014	8.356	8.740	8.953	9.008	9.068	8.871	8.430	8.403	7.995	7.256	6.657
335.0	2413	3211	3520	2794	1835	1229	1058	1133	1305	1576	1864	2047	2056	1869	1589	1301	1091	664.2	436.7	467.4	958.0	2110	7034	9999.9	412.3	21.78	8.724	6.690	5.378	4.606	3.684	3.176	2.892	2.532	2.405	2.416	2.350	2.325	2.406	2.456	2.371	2.880	3.429	3.871	4.908	6.284	7.461	8.921	9.478	8.529	7.983	8.316	6.878	6.007	5.081	4.591	4.667	4.860	4.919	5.285	5.734	6.250	6.701	7.412	8.118	8.323	8.804	9.519	9.493	9.844	9.686	9.728	9.224	8.652	8.602	7.482	7.984
340.0	2599	3534	3828	3188	2133	1400	1181	1203	1387	1627	1925	2117	2133	1966	1669	1331	1167	873.1	538.0	425.1	461.7	659.6	2126	9375	8550	336.2	14.40	8.589	6.250	4.942	4.488	3.622	3.150	2.736	2.463	2.261	2.462	2.346	2.322	2.564	2.604	3.046	3.306	4.147	4.975	6.618	7.718	9.951	10.26	9.625	8.873	9.594	7.851	7.318	5.606	5.116	5.122	5.243	5.392	5.443	5.948	6.858	6.539	7.686	8.307	8.577	8.950	9.414	10.25	9.965	10.12	10.01	9.756	9.439	8.978	7.905	7.827
345.0	2599	3552	4030	3385	2298	1504	1247	1259	1411	1644	1938	2113	2134	1984	1714	1374	1138	985.2	679.4	477.7	400.7	382.8	648.5	3113	9999.9	3364	51.70	11.37	7.117	5.890	4.383	3.786	3.344	2.973	2.537	2.456	2.525	2.178	2.196	2.567	2.660	2.985	3.506	4.312	5.137	6.673	7.651	9.873	10.61	9.956	9.307	9.979	8.590	7.228	6.118	5.595	5.514	5.635	5.293	5.910	6.338	6.797	6.863	7.674	8.232	8.459	9.279	9.579	9.807	10.19	10.19	10.22	9.849	9.276	9.114	7.824	7.754
350.0	2469	3384	3890	3385	2426	1650	1350	1347	1462	1666	1898	2057	2081	1958	1723	1423	1165	981.4	858.2	647.2	478.7	397.8	384.9	863.9	3227	6803	6098	1163	21.02	8.076	5.771	4.365	3.691	3.172	2.725	2.602	2.413	2.451	2.281	2.441	2.523	2.919	3.406	4.040	4.888	6.343	7.442	9.312	10.29	9.524	9.409	10.51	9.138	7.760	6.621	5.901	6.136	5.611	5.882	6.299	6.464	6.840	7.268	7.829	8.333	8.718	8.745	9.345	9.568	10.03	9.865	9.682	9.955	9.500	9.255	8.575	8.171
355.0	2290	3161	3594	3266	2483	1779	1456	1434	1524	1682	1886	1977	2002	1897	1715	1459	1221	1027	896.2	847.8	613.8	494.3	406.4	425.8	877.1	1728	5495	9043	390.5	24.41	8.781	5.559	4.144	3.555	2.957	2.701	2.497	2.336	2.233	2.311	2.573	2.908	3.169	3.798	4.545	5.780	6.767	8.496	9.333	9.010	8.941	10.49	8.934	7.984	6.805	6.119	6.383	6.151	6.127	6.654	6.882	6.950	7.173	7.727	8.382	8.518	8.661	9.232	9.282	9.408	9.259	9.276	9.329	9.735	9.387	8.488	8.456
360.0	2126	2944	3421	3122	2461	1815	1519	1502	1592	1700	1857	1938	1957	1867	1700	1474	1270	1083	939.7	897.8	801.2	589.9	477.7	391.9	409.3	532.1	1590	7575	8012	346.4	15.83	7.846	5.243	3.935	3.108	2.825	2.644	2.585	2.513	2.497	2.568	2.737	3.078	3.914	4.505	5.698	6.593	7.959	8.791	8.404	8.667	9.762	9.230	8.131	6.830	6.497	6.345	6.553	6.585	6.813	6.773	7.284	7.164	8.147	8.465	8.214	8.839	8.862	9.073	9.358	9.020	9.076	9.110	9.496	9.257	8.518	8.447
365.0	1979	2728	3225	2983	2436	1849	1582	1553	1620	1726	1837	1893	1918	1810	1678	1482	1293	1141	1009	926.1	902.6	762.8	563.0	454.3	372.8	325.5	498.0	2386	8838	6735	51.27	12.16	6.543	4.692	3.465	2.949	2.874	2.739	2.496	2.723	2.365	2.822	2.978	3.574	4.420	5.691	6.102	7.400	8.268	8.006	8.036	9.583	8.877	8.312	6.983	6.945	6.706	6.730	6.486	6.710	7.083	6.940	7.497	8.415	8.467	8.195	8.615	8.684	8.793	9.425	8.948	9.388	8.939	9.310	8.908	8.764	8.831
370.0	1868	2577	3017	2840	2410	1905	1666	1624	1666	1747	1832	1867	1857	1773	1649	1494	1343	1217	1114	1023	960.6	920.7	781.4	596.4	480.7	381.5	338.9	696.9	2703	6732	5769	1194	21.23	7.147	4.938	3.765	3.319	2.974	2.623	2.527	2.572	2.882	3.161	3.590	4.139	5.010	5.855	6.938	7.900	7.768	7.844	9.153	8.334	8.230	7.253	7.059	7.092	7.004	6.921	7.111	7.246	7.638	7.826	8.287	8.166	8.317	8.319	8.427	8.456	9.195	8.796	8.970	8.937	8.906	8.937	8.649	9.023
375.0	1748	2381	2786	2716	2352	1939	1715	1675	1705	1773	1827	1836	1812	1732	1620	1487	1372	1279	1195	1124	1054	1004	957.6	803.2	624.5	487.7	399.6	397.6	774.1	1683	4657	8434	1744	24.38	7.771	5.370	4.072	3.436	2.919	2.486	2.695	2.891	3.366	3.429	4.203	4.810	5.358	6.457	7.337	7.161	7.300	8.743	8.396	8.522	7.369	7.314	7.549	7.302	7.364	7.027	7.451	7.739	7.931	8.155	8.094	8.326	8.035	8.364	8.669	8.601	8.665	8.565	8.901	9.199	9.159	8.932	9.007
380.0	1732	2263	2654	2590	2317	1937	1741	1693	1716	1772	1815	1818	1786	1712	1605	1499	1394	1315	1242	1186	1122	1061	1007	946.7	760.6	597.1	477.7	394.9	395.6	527.0	1324	6345	7544	313.7	17.72	8.383	5.329	4.001	3.381	2.962	2.673	2.913	3.182	3.589	4.145	4.669	4.861	6.159	6.916	6.848	6.991	8.568	8.298	8.456	7.580	7.441	7.427	7.249	7.674	7.329	7.814	7.741	7.876	8.250	8.376	8.472	7.906	8.052	7.934	8.270	8.456	8.714	8.608	9.081	8.611	8.519	8.812
385.0	1713	2121	2513	2513	2257	1962	1798	1723	1745	1791	1824	1823	1784	1716	1609	1499	1399	1340	1274	1235	1183	1121	1056	1019	903.9	716.0	582.6	467.6	382.1	329.5	440.3	1896	7015	5821	245.5	16.33	9.071	6.027	3.846	3.097	3.035	2.888	3.191	3.438	3.868	4.559	4.961	6.100	6.405	6.566	6.770	8.318	8.339	7.871	7.350	7.506	7.798	7.279	7.582	7.447	7.656	7.846	7.734	8.159	7.944	8.083	7.952	7.984	7.961	8.246	8.408	8.607	8.485	9.043	8.305	8.710	8.603
390.0	1616	2026	2404	2419	2234	1993	1850	1820	1841	1901	1959	1955	1922	1832	1701	1553	1434	1378	1336	1308	1284	1251	1196	1151	1092	974.3	809.6	671.5	554.1	449.1	377.5	630.4	2075	4951	4373	1024	28.11	14.59	7.191	4.194	3.269	3.151	3.318	3.456	3.989	4.605	4.974	5.973	6.531	6.399	6.587	8.122	7.917	7.932	7.738	7.449	7.930	7.645	7.730	7.520	7.781	8.218	8.168	8.497	8.492	8.482	8.272	8.332	8.080	8.514	9.003	8.916	8.831	8.908	8.690	8.649	9.074
395.0	1527	2006	2300	2380	2245	2080	1989	1985	2072	2224	2370	2417	2374	2230	2013	1776	1578	1474	1450	1445	1464	1471	1467	1452	1403	1358	1250	1088	949.2	818.7	686.6	614.8	783.8	1398	3062	6344	1653	37.77	17.22	7.483	4.423	3.727	3.712	3.785	4.133	4.670	5.046	5.922	6.543	6.221	6.660	8.199	7.742	8.513	8.099	7.745	8.429	8.413	8.482	8.327	8.622	8.656	9.249	9.388	9.374	9.366	9.185	9.028	9.340	9.356	9.649	9.556	9.728	9.428	9.326	9.108	9.524
400.0	1556	1988	2280	2372	2305	2237	2144	2197	2409	2684	2984	3094	3036	2815	2489	2100	1788	1614	1586	1613	1667	1727	1785	1824	1806	1778	1750	1610	1446	1296	1143	936.5	795.7	784.8	1131	4271	5919	290.1	34.71	12.76	6.188	4.659	4.233	4.198	4.333	4.807	5.080	6.154	6.624	6.312	6.756	8.484	8.294	8.575	8.583	8.741	8.954	9.237	9.294	9.310	9.662	9.899	10.27	10.57	10.25	11.11	10.44	10.80	10.57	10.82	11.25	10.77	10.98	10.89	10.35	9.765	9.819
405.0	1624	1964	2292	2386	2347	2341	2340	2473	2787	3255	3706	3920	3831	3534	3070	2493	2026	1786	1741	1797	1888	2009	2137	2231	2276	2269	2267	2203	2023	1853	1675	1397	1109	900.6	825.4	1551	4771	4805	256.5	22.28	8.529	5.723	4.693	4.559	4.571	5.002	5.024	6.245	6.794	6.569	7.086	8.697	8.620	9.052	9.377	9.356	9.216	10.15	10.08	10.22	10.57	11.36	11.43	11.87	12.20	12.48	12.20	12.29	12.49	12.75	12.56	12.27	12.14	12.09	11.33	10.73	10.44
410.0	1611	1946	2255	2366	2422	2469	2538	2728	3131	3758	4357	4636	4529	4191	3570	2843	2235	1923	1862	1947	2079	2253	2437	2593	2692	2711	2722	2694	2581	2383	2171	1845	1470	1154	941.2	932.9	1616	3537	3319	1054	21.66	7.631	5.682	4.984	4.839	5.314	5.357	6.527	6.876	6.490	7.027	8.909	9.145	9.340	9.589	9.972	10.49	10.98	10.94	11.21	11.48	12.24	12.62	13.20	13.12	13.58	13.70	13.74	13.57	13.82	13.60	13.24	13.43	13.15	12.05	11.55	10.97
415.0	1534	1850	2156	2322	2394	2464	2586	2777	3194	3801	4400	4712	4627	4234	3631	2861	2233	1906	1849	1925	2074	2257	2457	2635	2746	2777	2784	2762	2676	2526	2281	1944	1549	1216	969.4	794.7	749.8	1003	1887	4514	1513	24.24	7.039	5.602	5.283	5.410	5.261	6.245	6.575	6.356	6.901	8.445	8.971	9.400	9.626	9.769	10.75	11.10	11.28	11.51	11.71	12.10	13.05	13.43	13.62	13.40	13.46	13.60	13.58	13.64	13.28	13.49	13.45	12.15	12.04	11.76	10.75
420.0	1458	1805	2091	2226	2346	2445	2559	2766	3130	3703	4275	4532	4446	4093	3493	2761	2156	1846	1777	1862	2003	2170	2365	2553	2660	2690	2706	2670	2583	2474	2247	1905	1512	1185	942.3	740.7	537.0	416.0	539.3	2597	4345	267.9	17.48	6.143	5.760	5.719	5.423	6.319	6.396	6.093	6.676	8.453	8.925	9.792	9.164	9.353	10.49	11.35	11.29	11.29	11.67	12.18	12.46	13.04	12.83	13.38	13.28	13.05	13.08	13.16	12.92	13.45	12.61	12.29	11.84	11.35	10.61
425.0	1447	1759	2008	2179	2330	2453	2546	2783	3108	3648	4185	4446	4315	3998	3419	2702	2110	1786	1735	1813	1949	2121	2308	2495	2603	2651	2664	2639	2546	2438	2257	1918	1516	1188	949.4	730.0	495.8	293.2	210.4	699.8	3025	3589	231.5	10.94	6.416	6.057	5.454	6.014	6.086	6.045	6.585	8.362	8.459	9.481	9.340	9.713	10.74	11.33	11.12	11.06	11.37	12.21	12.03	12.75	12.96	12.54	13.12	13.05	13.37	12.86	12.86	12.95	12.35	11.97	11.31	10.85	10.71
430.0	1541	1701	1974	2154	2325	2461	2655	2868	3198	3688	4254	4534	4420	4070	3444	2721	2106	1780	1718	1789	1930	2104	2314	2519	2638	2696	2729	2714	2627	2522	2344	2042	1623	1273	1020	785.2	531.7	293.4	152.9	206.3	791.8	2321	2657	899.8	18.23	7.091	5.915	6.265	6.369	6.079	6.623	8.468	8.839	9.419	9.589	10.25	11.04	11.17	11.79	11.59	11.56	12.01	12.41	12.82	13.03	13.04	12.99	12.97	12.92	12.89	12.78	12.87	12.33	11.88	11.55	10.86	10.46
435.0	2117	1731	1951	2153	2330	2506	2770	2972	3235	3703	4267	4545	4423	4068	3442	2707	2084	1765	1693	1755	1889	2062	2282	2489	2619	2688	2744	2737	2668	2567	2385	2104	1719	1342	1079	837.2	574.4	319.1	158.3	108.1	212.9	547.4	1362	3651	1406	23.24	7.046	6.829	6.669	5.964	6.691	8.521	8.920	9.339	9.989	10.26	11.49	11.71	11.98	12.13	12.03	12.10	12.68	12.83	13.00	12.91	13.04	12.95	13.09	13.05	12.56	12.46	12.34	11.92	10.92	10.33	9.939
440.0	2529	1822	1892	2099	2327	2551	2776	2965	3199	3593	4064	4334	4224	3878	3277	2599	2016	1699	1628	1684	1801	1953	2167	2368	2492	2561	2624	2627	2561	2471	2299	2028	1676	1326	1057	827.7	573.5	326.0	164.0	92.35	89.33	151.3	347.2	2078	3775	247.2	16.32	7.455	6.898	6.385	6.728	8.213	8.734	9.211	9.929	10.16	11.67	12.14	11.82	12.28	12.06	11.94	12.24	12.66	12.45	12.37	12.34	12.11	12.34	11.97	12.05	11.82	11.45	11.65	10.80	10.33	9.406
445.0	2637	2274	1793	2011	2248	2520	2766	2899	3047	3343	3762	3989	3866	3564	3029	2419	1883	1607	1540	1585	1659	1806	1996	2183	2297	2359	2417	2419	2361	2277	2125	1869	1553	1251	996.7	774.7	543.1	316.6	168.5	93.61	66.59	66.29	101.3	549.6	2633	3185	198.8	11.50	7.106	6.348	6.706	7.985	8.596	9.621	9.869	9.990	11.67	11.64	11.91	11.91	11.60	11.91	11.65	12.14	11.90	11.14	11.18	11.49	11.41	11.36	11.76	11.18	11.06	10.61	9.840	9.831	8.897
450.0	1938	3079	1971	1902	2142	2421	2664	2761	2814	3004	3292	3461	3374	3108	2643	2133	1686	1452	1391	1420	1467	1582	1741	1897	1992	2052	2095	2097	2050	1980	1847	1625	1346	1094	898.4	700.7	492.1	295.7	166.7	100.1	69.25	54.31	51.71	144.3	683.1	2055	2286	864.9	16.54	6.655	6.508	7.883	8.147	9.013	9.073	9.907	11.21	11.33	11.57	11.22	10.90	10.74	10.67	10.75	10.52	10.19	10.66	10.38	10.42	10.27	10.29	9.629	9.881	9.850	9.078	8.593	8.387
455.0	1277	2914	2799	1802	2023	2274	2511	2610	2586	2654	2890	3010	2918	2697	2303	1868	1500	1297	1249	1253	1293	1377	1507	1637	1728	1779	1818	1811	1780	1725	1612	1421	1183	959.5	797.5	644.1	455.4	280.8	167.2	106.3	75.64	56.92	45.40	57.86	171.8	478.4	1103	2996	1125	18.08	6.737	7.581	8.017	8.463	8.907	9.427	10.58	10.85	10.82	10.80	10.38	10.36	9.642	9.608	9.736	9.176	8.930	9.456	9.495	9.175	8.932	8.878	8.902	8.976	8.353	8.318	7.826
460.0	1032	2099	3607	1911	1918	2170	2384	2450	2402	2454	2639	2737	2642	2436	2092	1697	1373	1204	1148	1145	1172	1246	1354	1477	1547	1603	1635	1638	1617	1571	1478	1302	1082	884.8	730.0	604.1	439.8	273.0	167.3	110.3	79.85	61.45	47.61	41.16	60.65	124.3	274.4	1621	2894	759.8	14.16	7.763	7.752	8.388	8.619	9.072	9.893	10.13	10.22	10.15	9.863	9.644	9.244	9.071	9.035	8.578	8.385	8.574	8.432	8.565	8.279	7.919	7.985	7.937	7.620	7.592	7.136
465.0	950.5	1520	3611	2454	1773	2064	2240	2288	2232	2271	2418	2498	2404	2218	1918	1561	1265	1102	1054	1053	1061	1131	1231	1337	1402	1452	1484	1494	1474	1434	1356	1199	1003	821.8	675.5	556.2	424.3	269.8	167.2	113.0	84.46	64.65	50.28	39.72	37.70	47.08	77.85	421.9	2017	2454	166.1	11.41	7.723	8.090	8.472	8.764	9.233	9.705	9.568	9.728	9.583	8.994	8.556	8.583	8.143	7.863	7.754	8.109	7.835	7.561	7.463	7.827	7.402	7.496	7.294	6.979	6.627
470.0	891.3	1163	2398	3487	1908	1850	2026	2061	1984	1981	2101	2152	2077	1917	1663	1359	1106	967.0	923.4	915.3	920.3	971.4	1055	1140	1199	1242	1269	1279	1266	1236	1170	1032	872.3	716.7	595.5	486.6	374.5	256.8	164.4	113.8	86.03	67.72	53.40	43.32	35.53	32.74	35.10	109.1	522.3	1510	1611	691.5	16.79	8.094	7.932	8.173	8.653	8.922	8.923	8.799	8.570	7.934	7.859	7.435	7.339	6.993	7.144	7.278	7.065	6.941	6.858	6.499	6.691	6.868	6.372	6.243	6.125
475.0	818.8	961.9	1414	3264	2803	1639	1796	1816	1726	1686	1773	1799	1737	1598	1384	1145	937.0	835.9	788.3	781.3	775.9	811.5	875.7	945.6	994.5	1028	1048	1059	1046	1023	971.2	860.4	728.3	606.0	509.5	415.6	318.2	228.9	161.8	113.5	86.47	68.96	55.68	45.46	37.40	31.10	26.94	39.91	129.4	349.7	727.8	1988	834.4	20.28	7.371	7.604	7.942	7.979	8.133	7.766	7.533	7.003	6.946	6.537	6.468	6.185	6.300	6.020	6.146	6.006	6.155	5.728	5.642	5.877	5.351	5.328	5.227
480.0	746.6	882.2	1067	2258	3646	1697	1641	1638	1519	1500	1540	1569	1520	1390	1204	1013	832.3	742.4	705.1	686.9	682.0	710.2	765.2	816.8	864.8	880.6	906.7	915.9	906.6	882.3	837.5	749.7	640.6	533.4	445.2	367.2	283.5	205.8	155.2	116.6	87.75	70.18	57.50	47.60	39.74	33.06	27.28	25.99	42.53	89.01	180.9	1035	1849	213.8	14.24	7.458	7.844	7.309	7.104	7.190	6.970	6.513	5.953	5.846	5.554	5.511	5.540	5.359	5.439	5.263	5.525	5.091	5.346	5.333	5.128	4.804	4.971
485.0	708.1	830.8	919.1	1445	3705	2247	1502	1488	1408	1346	1378	1387	1332	1230	1070	895.2	755.0	669.3	637.4	619.8	607.0	631.8	671.9	720.6	756.3	773.9	792.4	803.1	797.8	780.8	742.0	664.9	565.7	474.2	399.5	333.7	260.9	189.8	143.7	117.4	91.07	72.17	58.58	49.00	40.86	34.30	28.87	24.66	24.33	31.92	50.67	270.2	1352	1693	175.1	9.671	7.127	7.127	6.863	6.678	6.370	6.121	5.709	5.111	5.242	5.235	5.050	4.937	5.028	4.773	5.003	4.812	5.027	5.028	4.421	4.401	4.219
490.0	606.6	780.9	828.5	1009	2480	3358	1556	1320	1247	1174	1204	1204	1151	1061	923.9	777.6	659.7	584.7	559.6	540.7	530.9	544.1	579.6	616.9	646.7	663.9	677.1	683.5	679.6	663.6	633.2	573.7	490.3	414.8	350.4	294.4	233.4	173.1	131.8	110.8	95.12	75.36	60.44	50.51	43.82	37.02	31.16	26.37	22.58	21.37	22.94	70.64	352.8	1064	1533	631.9	17.19	7.286	6.787	6.040	5.863	5.441	5.194	4.980	4.749	4.681	4.547	4.475	4.539	4.424	4.316	4.424	4.081	4.269	3.877	4.032	3.824
495.0	527.3	690.8	785.7	819.7	1313	3345	2349	1177	1097	1030	1040	1019	971.3	906.4	785.5	670.7	569.6	504.7	480.7	463.6	458.1	461.0	492.7	523.6	548.3	559.7	572.7	579.4	576.4	567.5	540.5	488.0	423.7	359.3	308.3	256.7	208.0	157.4	121.4	101.0	92.14	79.53	62.67	51.62	45.55	39.58	33.17	28.68	23.68	20.20	18.34	26.82	88.27	247.6	712.4	1850	870.6	21.07	6.687	5.691	5.297	4.999	4.889	4.578	4.483	4.145	4.005	4.171	3.886	3.780	3.669	3.856	3.706	3.736	3.627	3.439	3.411
500.0	451.6	607.4	711.0	721.6	927.3	2339	3322	1186	976.9	914.1	910.1	908.2	857.7	802.0	694.4	590.7	505.5	447.8	427.2	410.1	406.4	409.7	431.7	458.2	479.9	490.9	496.4	506.5	505.8	496.3	475.6	430.7	372.2	320.3	274.5	232.6	189.1	144.6	112.8	93.88	83.71	77.94	65.75	53.06	45.46	40.05	33.72	30.17	24.56	20.77	17.67	17.62	29.86	64.14	176.4	955.6	1924	230.2	14.38	5.627	5.230	4.631	4.525	3.962	3.885	3.935	3.406	3.604	3.596	3.360	3.466	3.610	3.248	3.569	3.060	3.158	3.135
505.0	406.3	543.1	654.7	669.4	772.8	1394	3693	1606	872.0	820.5	814.7	808.9	775.7	709.4	616.6	519.3	445.8	401.8	381.1	366.9	357.8	360.7	377.9	400.7	417.3	430.1	438.8	442.9	443.1	436.7	418.0	379.0	331.2	287.1	244.7	209.5	170.6	134.8	107.1	89.08	77.19	72.00	66.83	53.83	45.51	40.05	34.70	30.47	25.91	21.82	18.43	16.14	17.61	23.46	48.16	248.1	1242	1618	192.3	8.162	5.032	4.137	3.925	3.770	3.591	3.653	3.335	3.211	3.384	3.158	3.292	3.162	3.035	3.288	2.905	3.133	2.813
510.0	365.5	459.1	549.7	617.6	653.2	858.9	2480	2886	900.9	701.4	701.0	686.3	656.9	594.7	518.6	439.7	377.3	340.2	324.2	310.1	298.8	303.0	316.9	336.6	348.2	358.5	365.9	369.3	366.1	363.8	347.8	317.7	280.4	240.8	208.1	179.2	148.6	118.9	97.32	81.52	71.31	63.87	61.23	55.68	46.30	39.20	33.74	30.42	25.98	22.39	19.32	16.70	15.11	14.90	19.29	63.24	318.7	942.9	1283	496.9	15.40	4.374	3.702	3.320	3.363	3.014	3.083	2.937	2.922	2.823	2.984	2.773	2.676	2.696	2.577	2.766	2.500
515.0	327.3	378.5	454.1	566.2	573.4	640.8	1151	3283	1646	594.8	580.3	563.8	540.8	487.0	429.5	367.1	313.8	287.0	273.7	255.9	250.8	251.4	261.3	275.8	287.4	291.7	297.3	298.7	297.1	294.1	283.6	259.8	230.9	198.8	174.6	151.4	127.4	103.7	86.03	74.36	64.49	56.74	53.58	52.36	47.25	39.53	33.40	29.79	26.14	22.65	19.41	17.46	14.69	13.69	13.07	22.14	77.92	217.8	531.6	1375	664.3	18.77	3.782	3.055	3.044	2.750	2.619	2.646	2.429	2.487	2.499	2.406	2.523	2.408	2.341	2.383	2.252
520.0	289.3	348.6	383.8	484.4	532.7	546.0	698.2	2342	2619	623.9	500.5	494.1	473.7	424.0	375.7	318.9	273.3	248.5	235.3	223.1	216.6	214.8	226.1	233.4	244.0	250.0	252.5	254.7	254.9	252.3	244.8	221.8	198.8	173.4	152.5	133.1	113.2	93.52	77.93	67.31	59.75	52.96	49.25	47.83	46.19	39.82	33.47	28.60	25.36	22.07	19.34	17.36	15.15	13.09	12.32	13.19	24.69	54.76	129.7	680.0	1366	226.9	12.01	3.340	3.048	2.426	2.470	2.221	2.416	2.354	2.156	2.241	2.106	2.198	2.054	2.191	2.137
525.0	278.2	313.0	338.8	411.6	487.3	477.4	532.5	1243	3470	1030	445.1	438.9	412.6	370.1	328.6	275.3	239.9	219.4	205.6	197.0	191.3	187.8	196.9	204.1	213.9	216.7	216.9	220.7	217.0	216.6	210.4	193.0	172.7	153.2	132.8	117.1	100.9	85.13	72.00	61.43	54.11	50.03	45.23	42.71	42.43	39.75	33.53	27.81	24.93	21.67	18.31	17.39	15.03	13.28	11.78	11.21	12.90	18.43	34.43	172.2	821.0	1162	185.8	5.752	2.819	2.455	2.288	2.208	2.222	2.118	2.126	2.038	1.991	2.261	1.787	1.965	1.908
530.0	233.1	272.0	284.5	331.2	424.1	424.1	438.5	616.3	2411	2509	504.4	372.1	348.4	310.8	270.9	231.8	203.7	185.3	174.6	166.7	159.6	159.0	164.2	169.2	175.8	180.3	180.6	181.7	181.3	179.7	174.0	161.2	144.6	127.5	111.6	99.71	86.61	72.98	62.67	55.26	49.85	45.33	41.11	37.98	36.01	36.82	33.28	28.13	23.28	20.60	17.75	15.99	14.24	13.18	11.26	10.35	9.754	10.24	12.84	43.07	206.3	628.2	892.1	372.6	14.40	2.639	2.278	2.143	2.075	1.932	1.931	1.827	1.808	1.867	1.630	1.802	1.714
535.0	207.1	241.9	257.7	274.1	334.7	382.8	365.9	401.2	954.9	3269	1254	317.3	293.5	256.3	224.4	193.8	168.4	154.1	147.6	137.5	131.8	130.7	135.8	139.7	143.8	146.5	147.0	147.7	148.1	146.3	143.1	133.6	119.7	106.6	94.12	83.67	72.70	62.02	52.97	49.17	43.18	40.70	37.35	33.54	32.43	31.26	30.78	27.69	22.23	19.05	16.67	15.10	12.96	12.22	11.18	9.729	8.746	8.067	7.761	13.90	49.73	144.0	335.5	919.9	248.0	17.76	2.285	1.942	1.722	1.704	1.718	1.574	1.593	1.673	1.463	1.570	1.521
540.0	190.2	219.3	220.4	235.4	272.7	348.2	333.0	324.0	443.1	2311	2528	334.6	252.4	227.0	195.7	168.6	145.6	133.6	126.1	118.1	113.9	112.1	116.0	121.3	121.9	124.3	125.9	127.1	127.1	125.3	121.9	113.3	102.0	91.15	82.24	72.75	64.52	55.63	47.70	43.85	38.87	35.88	33.83	31.51	28.69	27.62	27.50	26.49	22.08	17.92	15.82	14.28	12.65	11.57	10.35	9.540	8.448	7.089	6.499	7.322	14.82	35.45	80.40	421.9	880.8	220.3	10.56	1.978	1.960	1.607	1.614	1.508	1.454	1.460	1.318	1.356	1.457
545.0	174.7	184.1	192.5	208.3	223.1	305.9	304.4	268.8	296.5	1082	3408	636.0	221.8	198.2	169.2	146.2	127.3	118.5	109.3	103.5	100.3	97.89	99.60	104.6	105.6	108.3	107.1	108.6	110.3	108.0	105.6	97.46	87.57	78.48	71.51	63.44	56.25	49.22	42.75	38.95	35.11	32.99	29.88	28.13	26.42	24.26	23.67	23.94	21.48	17.70	14.95	13.49	11.72	10.71	9.606	9.120	8.284	6.810	5.621	5.398	6.593	11.24	20.87	104.0	500.4	807.2	172.5	4.564	1.787	1.601	1.574	1.374	1.348	1.397	1.209	1.339	1.198
550.0	145.1	163.1	161.9	170.0	188.4	231.5	275.2	229.0	227.0	416.8	2278	2044	249.7	162.4	139.4	120.1	104.4	95.58	90.03	83.77	80.00	79.02	82.11	84.43	84.13	86.47	86.82	86.91	87.41	87.67	84.76	78.94	71.42	64.28	58.47	52.82	46.29	41.48	36.29	32.88	30.58	27.83	26.09	24.34	22.26	20.93	19.95	19.36	19.14	16.60	13.69	11.79	10.55	9.477	8.803	7.732	7.677	6.565	5.379	4.690	4.633	5.454	7.234	25.53	122.7	391.8	583.2	263.9	13.94	1.734	1.477	1.354	1.322	1.241	1.223	1.161	1.200
555.0	126.8	146.1	143.6	143.3	160.9	174.9	226.5	210.1	177.7	218.1	763.0	2982	777.3	133.7	107.9	95.64	83.05	77.15	71.16	66.68	64.90	63.43	64.56	67.06	66.01	68.40	68.36	67.42	67.94	68.32	65.85	61.15	56.25	50.20	46.87	41.81	37.42	32.96	29.28	26.99	25.20	23.66	21.87	20.55	19.10	17.95	16.33	16.05	15.78	14.67	12.82	10.30	9.141	8.135	7.718	6.755	6.694	5.932	5.366	4.349	3.894	3.842	4.171	7.906	29.42	89.27	197.1	551.2	246.2	18.33	1.537	1.192	1.229	1.085	1.069	1.049	1.087
560.0	125.3	143.7	138.1	126.3	137.9	143.9	175.2	205.0	155.9	156.9	285.9	2088	1944	139.7	91.87	80.70	68.38	64.20	59.24	55.29	53.47	52.93	53.63	54.12	55.71	54.96	56.22	55.41	56.27	56.34	54.11	50.47	45.43	41.50	37.47	35.04	31.30	27.78	25.46	22.82	21.40	20.69	18.30	17.66	16.58	15.81	14.08	13.71	12.88	12.76	11.60	9.947	8.507	7.186	6.685	5.900	6.075	5.322	5.078	4.145	3.677	3.470	3.294	3.874	8.651	21.68	46.59	223.0	537.1	213.2	11.04	1.463	1.209	0.971	0.958	0.926	1.006
565.0	123.6	138.6	120.8	110.9	112.7	122.5	136.8	190.6	147.0	129.3	165.2	886.3	2855	346.7	79.59	66.97	59.58	54.34	49.51	47.10	44.79	44.77	43.28	45.52	45.75	46.10	46.05	45.84	46.25	47.20	45.68	42.35	38.48	35.67	31.76	29.30	27.24	23.77	21.52	19.28	18.69	17.21	15.72	15.16	14.22	13.23	12.68	11.59	10.61	10.55	10.37	9.304	7.532	6.612	5.876	5.657	5.262	4.877	4.523	3.881	3.618	3.001	2.902	2.809	3.992	6.679	12.16	53.63	255.7	496.5	156.9	4.726	1.161	0.924	1.009	1.017	0.922
570.0	121.4	133.1	117.5	101.1	90.51	98.36	106.9	144.8	149.9	114.8	122.2	299.0	1933	1531	96.94	54.35	48.15	42.78	39.98	37.28	36.00	35.57	34.89	36.31	36.27	36.06	36.54	36.94	36.77	36.72	35.76	33.61	30.40	28.19	25.37	23.69	21.30	18.79	17.37	15.84	14.58	14.27	13.08	12.37	11.79	11.21	10.63	9.750	8.880	8.283	8.112	8.164	7.177	5.853	5.220	4.669	4.385	4.168	3.820	3.487	3.443	2.945	2.542	2.482	2.664	3.220	4.271	13.43	61.01	205.6	338.1	144.7	14.19	1.214	0.984	0.896	0.863
575.0	120.3	128.0	114.5	97.20	79.39	80.46	88.23	100.6	143.5	106.4	100.1	136.9	600.9	2332	507.2	44.73	38.16	34.35	31.70	28.97	28.24	27.77	27.68	28.04	28.21	27.93	28.43	29.30	29.34	27.85	26.64	26.22	23.79	22.14	19.56	18.36	16.94	15.04	14.10	13.00	11.71	10.80	10.68	10.02	9.573	9.337	8.708	7.937	6.921	6.770	6.273	6.238	6.494	5.403	4.489	4.110	3.794	3.615	3.193	3.009	2.966	3.106	2.484	2.412	2.198	2.258	2.278	4.489	14.99	47.24	98.20	275.6	230.3	19.14	1.076	0.902	0.840
580.0	121.2	125.7	114.9	83.77	70.18	69.30	77.38	83.45	127.5	118.5	93.43	97.88	201.5	1593	1045	56.65	32.85	28.47	27.69	24.35	23.08	22.64	23.31	23.04	23.13	23.15	22.83	23.58	23.54	23.50	22.20	20.84	19.87	18.42	16.70	15.35	14.07	12.58	11.91	10.58	9.985	9.471	9.099	8.661	8.088	7.747	7.480	6.835	6.316	5.732	5.476	5.160	5.647	5.152	4.354	3.711	3.501	3.105	2.982	2.672	2.754	2.893	2.741	2.160	2.079	2.007	2.065	2.358	4.693	11.77	23.35	98.84	307.5	181.9	11.67	0.862	0.797
585.0	120.2	118.7	105.6	82.41	67.77	62.82	66.17	72.53	103.7	126.4	91.38	87.54	101.8	633.9	2028	113.3	28.07	24.66	23.80	20.39	19.39	19.59	19.35	19.48	20.25	19.10	19.71	19.21	19.57	19.76	18.76	17.72	16.99	16.02	14.32	13.46	12.14	11.00	10.08	9.292	8.596	8.256	7.775	7.560	7.264	6.854	6.223	5.882	5.320	4.976	4.501	4.201	4.390	4.770	4.219	3.301	2.902	2.721	2.791	2.637	2.269	2.381	2.499	2.183	1.987	1.856	1.744	1.930	2.332	3.924	6.503	23.63	123.1	290.7	123.9	4.924	0.792
590.0	112.2	114.3	98.76	74.48	59.89	55.36	60.58	64.25	78.70	120.0	97.02	82.02	74.81	193.8	1347	1008	44.05	20.53	19.39	17.21	15.94	16.30	15.65	15.91	16.21	15.73	15.73	15.68	15.99	16.29	15.04	14.31	13.42	12.40	11.42	10.67	9.598	8.690	8.234	7.647	7.258	6.738	6.599	6.179	6.028	5.669	5.166	4.918	4.448	4.125	3.825	3.589	3.379	3.668	3.794	3.345	2.724	2.495	2.410	2.183	2.173	2.002	2.027	2.063	1.955	1.818	1.597	1.550	1.752	1.976	2.592	6.335	28.95	104.2	196.4	117.8	14.46
595.0	104.3	108.5	94.59	68.17	52.83	51.85	54.49	56.32	63.78	96.19	109.8	78.80	67.54	79.46	395.6	1572	295.7	18.06	15.50	13.97	12.88	12.86	13.04	12.67	12.54	12.68	12.07	12.62	12.53	12.97	11.96	11.04	10.83	9.733	8.884	8.472	7.468	7.432	6.610	6.326	5.720	5.506	5.081	4.664	4.803	4.725	4.437	4.249	3.741	3.457	3.296	3.067	2.626	2.855	3.006	3.054	2.729	2.061	2.052	1.966	1.759	1.848	1.667	1.719	1.986	1.618	1.484	1.501	1.432	1.432	1.505	2.382	7.311	23.91	51.65	146.6	162.5
600.0	104.3	98.29	85.46	64.69	53.30	51.81	49.38	56.02	58.54	79.70	115.4	81.25	65.67	54.42	119.2	1080	749.3	25.47	12.95	12.40	11.11	10.83	11.03	10.56	10.15	10.96	10.50	10.62	10.31	10.30	10.42	9.346	9.644	7.872	7.671	7.195	6.633	6.463	5.515	5.299	4.747	4.981	4.226	4.353	4.337	4.167	3.557	3.705	3.368	2.917	2.768	2.580	2.414	2.294	2.519	2.853	2.595	2.056	1.978	1.615	1.588	1.676	1.570	1.563	1.653	1.719	1.563	1.497	1.389	1.336	1.305	1.449	2.370	6.027	12.24	46.50	169.5
605.0	100.5	104.2	88.01	62.47	49.61	43.85	51.28	52.71	58.09	71.60	108.9	94.42	65.51	50.20	53.43	426.7	1339	76.97	11.62	10.70	10.09	9.415	8.889	9.176	9.282	9.151	8.978	8.855	8.768	8.745	9.050	8.385	7.760	6.691	6.169	5.943	5.831	5.548	4.824	4.482	4.179	4.318	3.758	3.727	3.691	3.378	3.167	3.214	2.868	2.612	2.409	2.219	2.208	1.896	2.030	2.244	2.381	2.054	1.781	1.533	1.595	1.483	1.440	1.426	1.488	1.678	1.598	1.366	1.376	1.302	1.230	1.132	1.286	2.080	3.468	11.21	59.62
610.0	95.43	100.1	84.76	58.51	45.45	42.83	49.71	53.67	58.59	70.86	96.13	114.8	75.08	54.27	43.97	125.2	924.2	692.0	23.48	9.263	8.476	7.435	7.465	7.618	7.794	7.385	7.730	7.200	7.574	7.018	7.240	6.665	6.182	5.719	5.249	4.949	4.672	4.536	4.118	3.679	3.537	3.466	3.154	2.975	2.985	2.883	2.787	2.547	2.428	2.192	1.896	1.927	1.839	1.647	1.641	1.767	2.042	1.887	1.756	1.430	1.376	1.313	1.301	1.380	1.354	1.396	1.381	1.439	1.381	1.191	1.121	1.172	1.033	1.128	1.479	3.133	14.14
615.0	97.57	93.43	77.90	53.85	42.78	44.47	45.87	50.71	58.08	67.56	84.16	113.6	84.32	54.64	42.55	49.76	278.1	1104	80.75	8.166	7.466	6.325	6.386	6.005	6.003	6.073	5.934	5.784	6.347	5.812	5.683	5.150	5.206	4.651	4.546	4.064	3.773	3.533	3.591	2.939	2.942	2.920	2.650	2.486	2.414	2.490	2.363	2.072	1.832	1.917	1.579	1.678	1.535	1.363	1.345	1.482	1.422	1.729	1.543	1.504	1.223	1.163	1.351	1.193	1.177	1.344	1.324	1.381	1.418	1.161	1.008	1.030	1.021	0.970	0.978	1.338	3.789
620.0	88.76	80.58	72.37	54.45	44.07	41.45	46.53	48.76	57.35	67.17	75.87	99.46	94.09	57.31	42.15	32.58	83.23	794.9	540.6	11.68	6.383	5.521	5.375	5.437	5.269	5.381	5.355	4.902	5.381	5.013	4.923	4.426	4.365	4.057	3.667	3.739	3.211	2.901	2.814	2.683	2.469	2.455	2.350	2.123	2.114	1.907	2.064	1.913	1.633	1.640	1.555	1.311	1.323	1.191	1.194	1.213	1.370	1.463	1.513	1.385	1.416	1.149	1.222	1.189	1.233	1.139	1.164	1.233	1.177	1.230	1.037	0.933	1.025	0.890	0.850	0.937	1.420
625.0	85.59	85.80	74.62	55.06	41.72	39.28	44.46	47.54	52.88	64.25	72.59	86.85	97.49	60.59	40.10	27.77	35.35	334.2	963.7	50.09	5.797	5.246	4.742	4.670	4.857	4.641	4.692	4.223	4.456	4.496	4.185	4.275	3.885	3.510	3.381	3.158	2.857	2.634	2.528	2.279	2.153	2.110	1.871	1.878	1.831	1.691	1.702	1.518	1.507	1.335	1.297	1.149	1.189	1.105	1.088	1.203	1.125	1.165	1.288	1.299	1.245	1.090	1.068	1.061	1.096	1.161	1.089	1.134	1.048	1.282	1.079	0.931	0.913	0.874	0.920	0.775	0.902
630.0	79.70	85.38	70.35	51.23	39.54	38.13	41.42	43.81	51.91	61.35	69.47	78.90	89.80	68.62	40.30	27.40	24.12	93.49	724.6	419.7	11.03	4.503	4.322	4.140	4.050	3.869	3.937	3.645	3.724	3.723	3.598	3.521	3.390	3.021	2.760	2.559	2.386	2.394	2.080	1.969	1.887	1.778	1.573	1.607	1.473	1.501	1.476	1.445	1.254	1.156	1.152	1.082	1.110	0.995	0.958	1.031	1.000	1.029	1.006	1.130	1.266	0.977	1.050	1.016	1.027	1.031	0.979	1.064	0.961	1.216	1.142	0.994	0.889	0.846	0.786	0.684	0.737
635.0	78.43	79.95	68.35	49.00	40.71	33.21	42.12	44.20	53.27	58.90	70.27	77.99	77.70	76.14	42.96	27.29	22.12	32.39	224.9	823.0	62.43	4.613	3.729	3.592	3.494	3.324	3.392	3.233	3.408	3.068	3.106	3.043	2.741	2.454	2.346	2.161	2.118	2.000	1.989	1.761	1.697	1.481	1.511	1.286	1.242	1.347	1.301	1.158	1.156	1.135	1.017	0.925	1.026	0.855	0.761	0.928	0.890	1.014	0.909	0.955	1.051	1.058	1.054	0.962	0.930	0.899	0.894	0.964	0.910	1.139	1.050	1.076	0.833	0.812	0.728	0.685	0.663
640.0	86.52	79.24	68.76	50.60	36.66	37.39	37.59	42.46	49.88	61.71	69.11	76.49	75.60	77.63	50.22	30.62	23.58	18.58	61.80	662.7	382.4	6.662	3.602	3.434	3.134	3.378	2.991	2.831	2.963	2.924	2.731	2.634	2.528	2.293	2.019	2.003	2.015	1.839	1.865	1.490	1.379	1.378	1.380	1.253	1.237	1.220	1.097	1.092	1.112	0.940	0.905	0.800	0.881	0.831	0.770	0.787	0.895	0.952	0.773	0.830	0.959	0.963	0.975	0.946	0.948	0.858	0.933	0.988	0.897	0.963	0.984	1.052	0.999	0.817	0.746	0.663	0.699
645.0	91.92	88.64	71.85	48.52	38.03	35.30	41.34	42.67	47.64	57.86	68.50	75.20	74.84	74.01	57.15	32.04	24.01	16.32	21.30	303.7	706.5	31.38	3.581	3.113	2.868	2.880	2.799	2.642	2.701	2.628	2.311	2.405	2.038	2.136	2.024	1.951	1.915	1.699	1.603	1.426	1.288	1.310	1.147	1.098	1.125	1.165	0.996	0.982	1.047	0.898	0.818	0.807	0.839	0.858	0.725	0.751	0.895	0.848	0.795	0.797	0.883	0.856	0.972	0.904	0.869	0.810	0.893	0.915	0.925	0.930	0.880	0.916	1.023	0.848	0.768	0.817	0.797
650.0	92.41	96.23	80.62	55.92	40.91	34.69	39.44	41.21	46.68	58.38	68.76	71.62	70.48	66.16	62.25	34.82	23.99	15.78	12.33	91.55	726.2	176.8	3.819	3.011	2.764	2.647	2.514	2.475	2.377	2.503	2.394	2.032	1.717	1.840	1.810	1.697	1.662	1.522	1.343	1.434	1.214	1.210	1.001	1.030	0.952	0.978	0.971	0.967	0.949	0.807	0.759	0.848	0.836	0.787	0.715	0.728	0.783	0.744	0.788	0.802	0.885	0.892	0.888	0.878	0.853	0.837	0.829	0.784	0.969	0.852	0.828	0.818	1.002	0.973	0.763	0.742	0.735
