Sample:	'1
File name:	”‰‘√.FD3
Run date:	'15:26:42, 06/17/2025
Operator:	dsjg
Comment:	'

Instrument
Model:	F-2700 FL Spectrophotometer
Serial number:	2198-001
ROM Version:	4J14000 07

Instrument parameters
Measurement type:	3-D scan
Data mode:	Fluorescence
EX  Start WL:	220.0 nm
EX  End WL:	600.0 nm
EX Sampling interval:	5.0 nm
EM  Start WL:	230.0 nm
EM  End WL:	650.0 nm
EM Sampling interval:	5.0 nm
Scan speed:	12000 nm/min
EX Slit:	5.0 nm
EM Slit:	5.0 nm
PMT Voltage:	700 V
Response:	Auto 
Corrected spectra:	Off
Contour interval:	50.000

Peak integration
Integration method:	Rectangular
Sensitivity:	1
Threshold:	1.000

Peaks
No.	ApexEX/EM(nm)	Height(Data)
1	225.0/265.0	14.26
2	225.0/600.0	12.68
3	230.0/615.0	12.43
4	230.0/640.0	15.62
5	235.0/610.0	13.54
6	235.0/630.0	12.60
7	245.0/625.0	16.57
8	280.0/245.0	3.926
9	285.0/240.0	4.153
10	285.0/390.0	 6556
11	345.0/395.0	 5540
12	565.0/395.0	28.79

Data points
	220.0	225.0	230.0	235.0	240.0	245.0	250.0	255.0	260.0	265.0	270.0	275.0	280.0	285.0	290.0	295.0	300.0	305.0	310.0	315.0	320.0	325.0	330.0	335.0	340.0	345.0	350.0	355.0	360.0	365.0	370.0	375.0	380.0	385.0	390.0	395.0	400.0	405.0	410.0	415.0	420.0	425.0	430.0	435.0	440.0	445.0	450.0	455.0	460.0	465.0	470.0	475.0	480.0	485.0	490.0	495.0	500.0	505.0	510.0	515.0	520.0	525.0	530.0	535.0	540.0	545.0	550.0	555.0	560.0	565.0	570.0	575.0	580.0	585.0	590.0	595.0	600.0
230.0	7.583	56.76	162.8	55.26	3.402	2.106	1.869	2.002	1.707	2.941	2.575	2.803	2.979	3.334	2.766	2.168	2.098	1.899	2.220	2.116	2.023	2.178	2.031	2.096	1.927	1.966	1.997	1.842	1.903	1.669	1.441	1.087	1.051	0.826	0.778	1.330	1.556	1.365	1.200	1.530	1.121	0.931	0.839	0.872	0.642	0.615	0.669	0.730	0.971	0.921	0.667	0.432	0.427	0.491	0.368	0.317	0.299	0.355	0.273	0.349	0.312	0.233	0.225	0.290	0.274	0.317	0.260	0.210	0.228	0.211	0.226	0.222	0.192	0.170	0.165	0.208	0.222
235.0	4.674	16.62	84.57	163.4	75.31	5.684	3.297	2.330	0.686	2.664	3.510	2.631	2.924	3.691	2.994	2.097	2.589	2.116	1.645	1.900	2.035	2.142	2.703	1.986	2.181	2.067	2.222	1.905	2.118	1.463	1.274	0.895	0.835	0.923	0.749	1.129	1.303	1.478	1.463	1.022	1.201	1.071	0.906	1.020	0.698	0.724	0.589	0.643	0.804	0.738	0.906	0.916	0.819	0.590	0.395	0.324	0.334	0.437	0.164	0.411	0.317	0.298	0.210	0.204	0.234	0.165	0.263	0.224	0.216	0.213	0.308	0.302	0.312	0.202	0.264	0.145	0.243
240.0	5.778	7.325	28.14	123.6	211.0	57.56	3.408	4.774	0.439	2.972	3.065	2.735	3.146	4.153	3.180	2.135	2.519	2.282	2.545	2.118	2.140	2.216	2.877	2.096	2.273	2.143	1.946	1.927	1.968	1.757	1.469	1.351	0.932	0.833	0.693	0.739	0.826	1.261	1.460	1.155	1.014	0.969	0.731	0.843	0.788	0.720	0.627	0.480	0.645	0.581	0.621	0.777	1.158	1.154	0.998	0.428	0.438	0.372	0.237	0.426	0.339	0.490	0.245	0.209	0.194	0.156	0.252	0.311	0.112	0.425	0.218	0.458	0.214	0.207	0.118	0.179	0.059
245.0	9.216	10.73	6.924	47.73	201.6	210.5	41.48	4.067	2.272	2.821	2.379	2.375	3.926	3.532	2.160	1.359	2.173	2.190	2.555	2.020	2.489	2.059	2.264	2.093	1.882	2.083	2.113	1.903	1.970	1.664	1.485	1.152	0.908	1.015	0.631	0.603	0.623	0.687	1.322	1.396	1.133	1.126	0.874	1.117	0.743	0.718	0.605	0.647	0.531	0.429	0.574	0.432	0.838	1.131	1.613	1.189	0.546	0.395	0.268	0.382	0.326	0.322	0.266	0.258	0.225	0.174	0.355	0.299	0.206	0.366	0.185	0.245	0.178	0.244	0.096	0.091	0.394
250.0	6.614	5.224	9.198	14.86	65.25	189.2	245.2	110.7	9.902	1.981	2.946	3.665	3.655	2.831	2.512	2.336	2.329	2.276	2.238	2.216	2.317	2.370	2.052	2.304	2.267	2.084	1.937	1.991	2.003	1.478	1.394	1.302	0.788	0.920	0.593	0.560	0.734	0.587	0.997	1.268	1.330	1.147	1.013	0.935	0.837	0.830	0.773	0.634	0.700	0.610	0.495	0.519	0.482	0.732	1.054	1.202	1.400	1.431	1.247	0.667	0.429	0.229	0.271	0.257	0.193	0.207	0.160	0.252	0.181	0.237	0.308	0.236	0.164	0.234	0.013	0.219	0.214
255.0	9.069	0.655	9.646	14.92	22.33	49.93	181.6	374.0	186.2	12.11	3.823	4.017	2.308	3.643	3.196	2.014	2.694	2.545	2.439	2.842	2.364	2.168	1.842	2.148	2.115	2.172	1.951	1.990	1.929	1.611	1.457	1.031	1.214	0.826	0.828	0.630	0.640	0.509	0.709	0.804	1.116	1.432	0.976	1.137	0.923	0.891	0.696	0.659	0.785	0.721	0.557	0.438	0.567	0.386	0.706	0.647	0.707	1.099	2.034	2.129	1.510	0.488	0.438	0.285	0.282	0.159	0.191	0.280	0.143	0.150	0.149	0.246	0.150	0.205	0.199	0.217	0.094
260.0	0.876	7.777	3.847	10.23	13.54	15.88	56.36	291.5	428.1	157.6	7.378	4.369	4.127	4.408	3.041	2.873	2.082	2.613	1.798	2.145	2.225	2.167	2.030	2.110	2.109	2.183	2.151	2.051	2.213	1.383	1.434	1.224	1.234	0.877	0.997	0.565	0.686	0.502	0.406	0.577	0.717	1.465	1.247	1.363	0.948	1.012	0.760	0.658	0.624	0.594	0.692	0.616	0.548	0.544	0.529	0.588	0.653	0.517	1.142	1.800	2.872	2.507	1.255	0.631	0.299	0.187	0.338	0.257	0.187	0.256	0.097	0.468	0.238	0.256	0.225	0.298	0.190
265.0	11.83	14.26	-1.072	4.973	12.87	10.73	17.00	96.45	412.7	388.0	127.1	6.485	4.120	4.230	2.799	3.553	2.516	2.381	2.504	2.439	2.455	2.379	1.994	2.431	2.127	2.448	2.533	2.166	1.869	1.560	1.333	1.309	1.141	0.898	0.858	0.810	0.543	0.712	0.480	0.555	0.536	1.053	1.057	1.172	0.950	1.075	0.774	0.955	0.753	0.661	0.649	0.386	0.520	0.435	0.614	0.572	0.555	0.487	0.515	0.755	1.593	2.694	3.181	2.471	1.111	0.241	0.163	0.341	0.213	0.162	0.145	0.245	0.239	0.308	0.249	0.175	0.285
270.0	5.189	7.447	-0.220	7.032	7.418	14.32	15.23	26.53	129.3	351.3	571.9	329.1	42.47	4.763	3.660	3.509	3.209	2.640	2.550	2.440	2.539	2.274	2.386	2.350	2.250	2.392	2.537	2.279	2.022	1.796	1.391	1.282	1.148	0.941	0.815	0.840	0.578	0.570	0.416	0.479	0.376	0.590	0.828	1.095	1.124	1.061	0.966	1.146	0.825	0.693	0.572	0.624	0.630	0.489	0.509	0.633	0.611	0.437	0.476	0.522	0.684	0.980	1.722	2.407	3.246	3.078	2.101	0.980	0.284	0.195	0.304	0.312	0.232	0.280	0.262	0.197	0.346
275.0	16.09	12.83	9.392	7.909	2.970	11.14	19.71	23.70	37.84	94.35	320.8	785.1	568.5	53.43	4.032	3.522	3.771	2.961	2.661	2.520	2.328	2.963	2.635	2.512	2.575	2.695	2.417	2.450	2.080	2.048	1.562	1.153	0.977	0.875	0.921	0.808	0.740	0.527	0.614	0.471	0.517	0.359	0.543	0.705	1.215	1.246	1.116	1.176	0.878	0.612	0.706	0.620	0.613	0.554	0.448	0.589	0.753	0.681	0.525	0.426	0.503	0.524	0.684	0.751	1.260	2.197	3.698	5.293	3.676	1.089	0.359	0.178	0.206	0.067	0.204	0.136	0.341
280.0	15.29	20.64	21.57	12.48	9.326	9.425	18.81	33.69	32.70	42.61	117.0	493.4	 1003	219.9	26.81	3.782	4.671	2.547	2.897	3.509	2.889	2.671	2.656	2.686	2.552	2.129	2.285	2.110	2.436	2.233	1.572	1.554	0.927	0.782	0.894	0.606	0.558	0.475	0.629	0.683	0.441	0.459	0.580	0.368	0.733	1.280	1.458	0.985	1.157	0.811	0.820	0.794	0.579	0.623	0.632	0.488	0.547	0.574	0.640	0.510	0.587	0.341	0.532	0.642	0.643	0.964	1.554	3.550	5.663	5.617	2.700	0.615	0.225	0.072	0.287	0.329	0.261
285.0	27.95	41.57	28.79	17.06	13.27	12.61	18.03	37.30	55.41	47.69	73.51	188.1	698.4	 1091	179.4	13.33	4.410	4.133	3.234	2.879	3.200	2.747	2.789	2.498	2.768	2.259	2.329	2.281	2.297	1.996	1.892	1.543	1.238	1.183	0.955	0.691	0.880	0.474	0.558	0.735	0.596	0.560	0.534	0.485	0.648	0.691	1.370	1.128	1.073	1.057	0.953	0.672	0.750	0.530	0.636	0.504	0.692	0.477	0.608	0.661	0.808	0.738	0.647	0.552	0.699	0.698	0.716	1.284	2.609	4.964	6.727	5.481	2.148	0.429	0.296	0.150	0.241
290.0	45.10	50.32	44.69	29.16	24.29	21.79	25.82	44.20	66.83	89.04	105.9	124.4	269.0	656.1	 1089	664.5	53.67	5.348	3.859	3.297	3.475	3.330	3.003	2.971	3.046	2.611	2.659	2.463	2.316	2.114	1.718	1.463	1.061	0.948	0.844	0.815	0.715	0.590	0.639	0.537	0.693	0.557	0.500	0.537	0.521	0.487	0.908	1.224	1.156	1.107	0.966	0.899	0.753	0.632	0.609	0.659	0.754	0.734	0.603	0.621	0.639	0.668	0.858	0.883	0.739	0.847	0.773	0.844	1.138	1.754	2.898	4.621	6.631	7.009	4.942	1.879	0.454
295.0	50.21	60.11	58.97	46.74	36.57	40.05	44.27	58.92	76.99	118.3	169.7	164.6	178.9	238.5	523.2	 1440	 1049	71.21	5.653	4.157	4.160	3.411	3.262	3.044	2.855	3.341	2.633	2.643	2.791	2.131	1.643	1.198	1.231	1.057	1.107	0.948	0.563	0.671	0.690	0.549	0.751	0.524	0.607	0.642	0.550	0.560	0.632	0.832	1.143	1.319	1.009	0.807	0.789	0.805	0.809	0.839	0.728	0.716	0.682	0.754	0.661	0.679	0.813	0.895	1.084	1.288	0.933	1.055	1.129	1.095	1.226	1.606	2.193	3.909	8.064	11.65	9.026
300.0	55.07	73.04	66.96	56.11	46.63	53.77	64.47	81.63	107.2	155.8	221.2	254.2	235.1	199.9	247.2	808.1	 2086	906.9	45.55	6.349	4.205	3.619	3.859	3.626	2.993	3.283	2.703	2.774	2.745	2.468	2.004	1.256	1.472	0.853	1.304	0.896	0.597	0.697	0.914	0.822	0.740	0.519	0.665	0.578	0.565	0.531	0.696	0.643	0.825	1.312	1.125	0.882	0.926	0.863	0.832	0.994	0.749	0.805	0.966	0.914	0.924	0.929	1.093	1.144	1.592	1.446	1.344	1.291	1.267	1.185	1.103	1.148	1.256	1.418	3.265	7.428	13.62
305.0	67.55	83.65	79.21	70.92	70.79	75.40	93.79	123.0	154.1	213.3	281.8	363.0	361.5	292.8	261.5	379.1	 1261	 2677	717.7	21.81	5.475	4.909	4.142	3.627	3.686	3.390	2.944	2.728	2.840	2.746	1.990	1.179	1.272	1.008	0.880	0.971	0.727	0.708	0.781	0.764	0.466	0.567	0.526	0.569	0.792	0.521	0.582	0.574	0.749	0.996	1.320	1.069	1.118	1.036	0.900	0.986	1.102	1.113	1.015	0.837	1.187	1.096	1.357	1.547	1.808	1.734	1.821	2.078	2.195	1.725	1.551	1.541	1.300	1.346	1.625	2.741	5.855
310.0	74.94	95.27	107.2	100.3	94.28	103.9	131.5	166.1	205.4	277.4	354.1	445.6	505.8	463.1	381.8	341.4	540.1	 1411	 2349	 1390	46.48	7.239	5.207	4.305	4.041	3.969	3.569	3.221	3.187	2.676	2.093	1.392	1.498	1.318	0.886	1.052	0.790	0.875	0.800	0.759	0.636	0.574	0.619	0.641	0.693	0.608	0.691	0.726	0.721	0.782	0.966	1.114	1.142	1.191	1.172	1.161	1.275	1.257	1.312	1.395	1.326	1.432	1.542	1.757	1.973	2.194	2.127	2.396	2.556	2.420	2.147	2.101	2.000	1.978	1.768	1.774	2.492
315.0	84.90	127.9	147.2	134.3	131.3	141.8	175.6	216.8	276.7	357.9	459.8	566.7	635.7	657.6	589.9	478.9	461.9	581.7	978.5	 2668	 2320	61.27	8.822	5.786	4.642	4.460	3.926	3.347	3.493	2.949	2.434	1.535	1.573	1.009	1.029	0.976	0.874	0.725	0.691	0.635	0.739	0.660	0.637	0.810	0.546	0.803	0.907	0.771	0.772	0.753	0.885	1.051	1.425	1.401	1.560	1.467	1.563	1.471	1.566	1.909	1.568	1.895	1.786	2.225	2.471	2.548	2.827	2.739	3.157	3.090	3.301	2.818	2.822	2.691	2.240	2.372	2.436
320.0	122.3	166.7	219.7	195.3	181.6	191.3	235.0	286.0	341.3	436.3	561.9	687.3	771.8	814.6	780.3	632.8	539.4	473.8	434.1	 1285	 3559	730.7	44.55	9.602	6.013	5.158	4.416	3.869	3.685	3.150	2.420	1.897	1.529	1.364	1.056	1.064	1.044	0.880	0.795	0.656	0.866	0.673	0.726	0.722	0.713	0.982	0.760	0.938	0.951	1.022	1.007	1.230	1.239	1.654	1.676	1.670	1.828	1.786	1.729	2.193	1.919	1.995	2.291	2.631	2.766	2.987	3.126	3.195	3.644	3.784	3.618	3.978	3.545	3.744	3.039	2.931	2.683
325.0	169.1	295.5	359.0	348.8	305.0	310.6	354.1	403.8	444.1	556.1	694.1	858.8	948.8	999.7	968.0	859.6	695.4	557.6	403.3	543.1	 1896	 3914	621.9	34.82	9.319	6.086	4.870	4.347	4.519	3.369	2.625	1.855	1.814	1.330	1.020	1.156	1.027	0.917	0.681	0.940	1.032	0.718	0.811	0.678	0.850	1.019	1.011	1.261	1.271	1.361	1.636	1.672	1.750	1.918	2.191	2.174	2.133	2.474	2.353	2.858	2.695	2.588	2.851	2.771	3.469	3.724	3.933	3.841	4.513	4.562	4.535	4.417	4.405	4.602	4.256	3.744	3.367
330.0	261.1	461.2	641.5	708.6	635.4	599.5	650.5	661.4	689.9	778.1	959.4	 1154	 1289	 1348	 1316	 1212	 1055	837.0	641.1	571.5	806.5	 2089	 3454	 2121	48.81	13.09	7.565	5.629	4.785	3.711	2.927	2.160	2.050	1.563	1.201	0.992	1.049	0.968	0.862	1.021	0.985	0.809	0.782	0.796	1.067	1.362	1.348	1.928	2.116	2.337	2.377	2.728	2.955	2.915	3.110	3.521	3.765	3.793	3.819	3.976	3.878	3.754	3.942	4.013	4.477	4.771	5.165	5.391	5.581	5.834	5.907	6.068	6.270	6.149	5.568	5.695	5.189
335.0	344.1	618.9	945.8	 1087	981.5	950.6	 1011	 1029	998.2	 1046	 1260	 1494	 1662	 1751	 1717	 1594	 1482	 1258	997.5	879.6	795.0	 1014	 1609	 4298	 3264	64.25	15.00	8.706	6.110	4.734	3.667	2.578	2.469	1.854	1.642	1.292	1.352	1.178	0.879	1.103	1.090	1.107	1.156	1.066	1.270	1.281	1.921	2.328	2.822	3.007	3.373	4.364	4.399	4.060	4.386	4.853	5.251	5.669	5.719	5.391	5.213	5.205	5.078	5.704	5.934	6.271	6.597	6.812	7.107	7.352	7.878	7.920	8.004	7.780	7.563	7.388	7.248
340.0	403.2	764.0	 1121	 1335	 1230	 1209	 1285	 1267	 1203	 1257	 1481	 1728	 1910	 2009	 2021	 1881	 1751	 1592	 1362	 1199	 1032	938.5	977.4	 2178	 5653	 2398	50.14	12.70	8.221	5.884	3.782	3.332	2.682	2.180	1.672	1.632	1.278	1.197	1.251	1.145	1.101	1.074	1.337	1.283	1.311	1.646	1.973	2.757	3.269	3.619	3.913	5.162	5.598	5.413	5.260	5.658	6.264	6.774	7.012	6.647	6.189	5.823	6.080	6.552	6.448	7.214	7.481	7.716	8.205	8.446	8.950	9.077	9.130	9.273	8.760	8.812	8.378
345.0	444.3	841.8	 1255	 1481	 1404	 1427	 1490	 1467	 1377	 1430	 1657	 1910	 2101	 2215	 2224	 2117	 1976	 1831	 1690	 1495	 1288	 1170	966.0	 1036	 3192	 5981	555.9	35.66	12.83	8.424	4.898	3.855	3.226	2.492	1.851	1.607	1.245	1.239	1.453	1.366	1.081	1.057	1.223	1.412	1.359	1.815	2.050	3.134	3.706	4.051	4.356	5.887	6.141	6.129	6.131	6.532	7.182	7.831	7.878	7.407	6.932	6.598	7.133	7.294	7.309	8.092	8.428	8.598	8.956	9.195	9.636	9.974	10.02	10.19	9.923	9.773	9.530
350.0	500.6	854.1	 1309	 1581	 1591	 1629	 1707	 1703	 1564	 1592	 1836	 2095	 2282	 2419	 2448	 2377	 2252	 2104	 2030	 1911	 1661	 1501	 1230	936.5	 1221	 3105	 4498	 2330	49.86	26.78	12.31	6.469	3.855	2.766	1.985	1.749	1.521	1.592	1.460	1.216	1.184	1.313	1.360	1.323	1.546	1.908	2.371	3.033	3.925	4.379	4.780	6.497	6.576	6.812	7.231	7.269	7.860	8.476	8.623	8.540	7.867	7.502	7.939	7.835	8.446	8.788	9.177	9.484	9.640	10.23	10.40	10.68	10.98	11.08	10.91	11.00	11.07
355.0	491.3	866.0	 1331	 1632	 1671	 1767	 1876	 1866	 1747	 1802	 2070	 2317	 2539	 2659	 2690	 2613	 2518	 2423	 2372	 2330	 2155	 1938	 1631	 1258	 1008	 1169	 1990	 6047	 3654	72.81	47.18	17.34	7.520	4.213	2.439	2.303	1.885	1.662	1.555	1.433	1.352	1.240	1.355	1.452	1.720	2.077	2.565	2.998	3.949	4.472	4.859	6.630	6.953	7.186	7.522	7.698	8.380	8.749	9.034	9.105	8.566	8.418	8.893	8.775	9.663	9.867	10.04	10.67	10.99	11.07	11.34	12.45	12.01	12.36	12.23	11.96	12.52
360.0	504.7	887.4	 1326	 1629	 1701	 1832	 1937	 1967	 1913	 2000	 2334	 2666	 2909	 3023	 2983	 2827	 2752	 2689	 2669	 2646	 2557	 2390	 2077	 1717	 1389	 1142	 1161	 3211	 7777	 2959	198.0	44.61	15.77	6.837	3.735	2.744	2.167	1.849	1.655	1.615	1.359	1.241	1.516	1.577	1.714	2.317	2.415	2.867	4.045	4.675	4.913	6.702	6.976	7.135	7.524	8.218	9.150	9.107	9.662	9.070	9.323	9.240	9.655	10.23	10.56	11.28	11.78	11.93	12.16	12.96	13.03	13.55	13.95	13.39	13.11	13.08	13.55
365.0	505.7	924.9	 1358	 1607	 1716	 1863	 1999	 2072	 2067	 2268	 2720	 3201	 3492	 3568	 3400	 3113	 2973	 2936	 2968	 2992	 2957	 2914	 2633	 2325	 2054	 1748	 1530	 1912	 5207	 8269	574.2	127.9	35.35	11.79	5.879	3.363	2.651	2.080	2.011	1.845	1.775	1.511	1.873	1.766	1.823	2.301	2.944	3.194	4.012	4.360	4.946	6.571	7.337	7.707	7.620	8.528	9.153	9.591	10.04	10.03	9.672	10.26	10.31	11.35	12.20	13.07	13.67	14.53	14.74	14.90	15.07	15.90	15.29	14.93	14.15	13.88	14.00
370.0	554.7	951.5	 1367	 1611	 1747	 1884	 2057	 2166	 2307	 2665	 3304	 3964	 4408	 4467	 4039	 3494	 3282	 3260	 3349	 3440	 3473	 3551	 3466	 3266	 3098	 2845	 2563	 2438	 3140	 5421	 6822	 2254	208.5	33.81	11.39	5.406	3.598	2.623	2.509	2.210	2.015	2.020	1.951	2.025	2.208	2.585	2.944	3.620	4.193	4.575	5.137	6.469	7.178	7.513	8.101	8.767	9.625	10.13	10.34	10.26	10.55	10.99	11.78	13.18	14.35	15.55	17.17	17.73	19.13	19.23	19.74	19.46	18.38	17.22	16.20	16.09	15.44
375.0	562.9	998.5	 1411	 1610	 1753	 1866	 2097	 2286	 2544	 3056	 3889	 4753	 5356	 5390	 4737	 3913	 3571	 3549	 3712	 3876	 3988	 4137	 4204	 4186	 4122	 3947	 3651	 3417	 3416	 3274	 3631	 7457	 3436	237.4	25.81	9.423	5.594	4.039	2.997	2.499	2.079	2.360	2.007	2.239	2.355	2.928	3.195	3.953	4.692	5.127	5.276	6.676	7.338	7.597	8.133	8.482	9.762	10.64	10.48	11.28	11.60	12.37	12.91	14.80	16.70	19.12	20.18	21.04	22.48	23.27	24.04	22.82	20.92	20.37	18.01	16.84	17.16
380.0	604.2	 1038	 1420	 1588	 1752	 1907	 2118	 2362	 2695	 3328	 4257	 5301	 5973	 6015	 5208	 4165	 3749	 3718	 3903	 4104	 4295	 4509	 4630	 4740	 4785	 4648	 4380	 4117	 3941	 3195	 2275	 4077	 8196	 2657	52.43	15.86	7.946	5.113	3.649	2.626	2.673	2.571	2.505	2.313	2.546	2.802	3.256	3.959	4.712	4.983	5.232	6.309	6.926	7.599	8.188	8.967	9.752	10.64	11.47	11.65	11.94	13.03	13.87	16.19	18.58	20.41	22.15	23.68	25.19	26.05	26.31	24.91	23.77	21.72	18.93	17.85	17.92
385.0	630.6	 1023	 1401	 1597	 1733	 1876	 2121	 2365	 2761	 3475	 4549	 5630	 6372	 6387	 5467	 4304	 3832	 3805	 3989	 4227	 4449	 4723	 4889	 5043	 5231	 5144	 4865	 4605	 4387	 3446	 2129	 1887	 5112	 7615	438.6	33.51	11.09	6.064	4.307	2.968	2.873	2.859	2.431	2.423	2.795	2.906	3.502	4.177	4.688	5.054	5.498	6.627	6.806	7.429	8.132	8.736	9.464	10.25	11.20	11.82	12.10	13.28	14.80	16.93	18.97	21.08	23.14	25.09	26.80	27.28	28.60	27.09	24.79	21.90	19.49	18.75	18.76
390.0	641.1	 1025	 1382	 1536	 1645	 1817	 2042	 2338	 2786	 3536	 4657	 5795	 6532	 6556	 5569	 4350	 3799	 3780	 3959	 4226	 4484	 4769	 4995	 5206	 5474	 5497	 5217	 4942	 4730	 3731	 2274	 1417	 1768	 4157	 5646	 1740	34.64	10.69	5.800	4.254	3.332	2.922	2.742	2.459	2.730	3.065	3.516	4.293	4.897	5.106	5.063	6.407	6.908	7.375	8.117	8.682	9.513	10.19	10.76	11.70	12.42	13.59	15.10	17.21	19.11	22.20	24.33	25.79	27.43	28.71	28.65	27.98	25.38	22.54	20.28	19.12	18.81
395.0	623.5	 1001	 1326	 1479	 1563	 1744	 1953	 2239	 2737	 3501	 4639	 5778	 6491	 6494	 5510	 4271	 3695	 3672	 3858	 4089	 4377	 4658	 4904	 5178	 5457	 5540	 5347	 5077	 4853	 3884	 2438	 1436	 1004	 1213	 2274	 6189	 2775	44.34	10.30	5.969	4.225	3.404	2.968	2.746	2.908	3.340	3.538	4.268	4.604	5.039	5.073	5.907	6.629	7.176	8.041	8.140	9.379	9.717	9.871	11.00	12.42	13.38	15.15	17.05	19.36	21.60	23.41	25.32	27.62	28.79	28.37	27.74	25.38	22.82	20.15	18.72	17.98
400.0	586.4	981.6	 1290	 1413	 1508	 1673	 1870	 2187	 2677	 3440	 4519	 5637	 6335	 6334	 5378	 4164	 3586	 3550	 3708	 3941	 4215	 4512	 4748	 5016	 5318	 5416	 5270	 5048	 4827	 3898	 2512	 1511	897.0	595.4	698.8	 2968	 6732	 2174	34.89	8.460	5.303	3.860	3.076	2.861	2.810	3.379	3.476	4.102	4.573	4.728	4.970	5.856	6.488	6.873	7.624	7.978	9.121	9.515	9.968	11.56	12.02	12.91	14.58	16.76	19.20	20.93	23.37	24.76	27.32	27.16	28.12	26.95	24.86	21.85	19.88	18.12	17.87
405.0	588.4	964.8	 1254	 1358	 1450	 1596	 1796	 2112	 2601	 3331	 4351	 5431	 6116	 6084	 5179	 4015	 3449	 3397	 3548	 3753	 4010	 4273	 4529	 4784	 5094	 5181	 5057	 4908	 4690	 3817	 2516	 1557	923.7	504.5	356.4	853.1	 3861	 6304	377.8	24.51	6.962	4.612	3.389	2.973	2.918	3.292	3.469	4.132	4.378	4.732	5.193	5.669	6.176	6.584	7.253	7.612	8.787	9.033	9.562	10.65	11.63	12.52	14.27	16.02	18.36	20.83	22.22	23.57	25.80	26.38	26.90	25.84	24.00	21.05	18.84	17.74	17.25
410.0	559.9	878.6	 1168	 1279	 1331	 1484	 1672	 1987	 2416	 3098	 4039	 4982	 5589	 5567	 4766	 3717	 3201	 3147	 3266	 3451	 3662	 3912	 4137	 4376	 4655	 4749	 4635	 4510	 4375	 3590	 2417	 1549	948.6	531.3	328.6	349.2	 1044	 3310	 4789	 1593	29.20	7.617	4.965	3.833	3.411	3.117	3.380	3.768	4.403	4.355	4.676	5.361	6.007	6.069	6.785	6.975	8.001	8.639	9.083	9.813	10.86	11.88	13.32	14.99	17.26	18.87	20.73	21.96	23.38	24.57	24.26	23.96	22.42	19.31	17.66	16.25	15.43
415.0	499.2	802.5	 1083	 1153	 1235	 1363	 1568	 1834	 2232	 2844	 3656	 4491	 5027	 4992	 4286	 3378	 2930	 2862	 2953	 3101	 3276	 3486	 3690	 3888	 4149	 4240	 4137	 4021	 3913	 3304	 2272	 1508	962.9	579.7	371.7	276.8	369.4	830.4	 1869	 5077	 2413	39.05	8.511	4.861	3.817	3.505	3.474	3.790	4.399	3.884	4.150	4.935	5.873	5.846	6.313	6.544	7.687	8.088	8.842	9.493	9.927	10.97	12.52	13.67	15.60	17.88	18.30	19.59	20.89	21.59	21.96	21.32	20.35	17.76	15.92	14.84	14.43
420.0	463.6	723.5	 1000	 1069	 1153	 1297	 1469	 1724	 2109	 2658	 3364	 4128	 4563	 4571	 3934	 3127	 2725	 2666	 2727	 2850	 3007	 3169	 3343	 3528	 3755	 3842	 3762	 3661	 3573	 3046	 2180	 1481	973.8	616.9	414.1	292.2	244.1	292.8	505.7	 2336	 5573	 1948	32.26	7.775	4.891	3.633	3.569	3.811	4.048	4.083	4.131	4.990	5.151	5.500	5.823	6.321	7.266	7.622	8.013	8.487	9.263	10.00	11.64	12.47	14.55	15.74	17.27	18.67	19.22	19.89	19.83	19.26	18.63	16.43	14.30	14.17	13.28
425.0	424.6	679.4	925.7	 1010	 1078	 1220	 1394	 1636	 1991	 2485	 3133	 3804	 4215	 4191	 3656	 2917	 2563	 2498	 2551	 2643	 2767	 2902	 3058	 3228	 3421	 3510	 3443	 3358	 3272	 2808	 2089	 1457	990.3	653.0	451.1	326.5	243.0	196.6	204.4	636.0	 3186	 5244	358.0	22.40	6.794	4.514	4.072	3.876	3.850	3.764	3.770	4.856	4.973	5.420	5.764	5.823	6.865	6.985	7.727	8.566	8.952	9.703	10.89	11.95	13.41	14.32	15.76	16.81	18.01	17.98	18.25	17.90	17.07	15.23	13.58	13.24	12.36
430.0	394.8	632.1	838.2	950.4	 1012	 1142	 1305	 1545	 1848	 2290	 2866	 3449	 3799	 3776	 3321	 2692	 2381	 2308	 2336	 2401	 2492	 2600	 2719	 2855	 3024	 3104	 3050	 2991	 2915	 2534	 1929	 1433	 1008	692.8	505.2	379.2	287.3	210.9	167.6	234.1	853.3	 2737	 3951	 1438	26.47	6.868	4.650	4.093	4.072	3.689	3.557	4.459	4.769	4.995	5.265	5.754	6.443	7.036	7.379	7.739	8.145	9.097	10.20	11.16	12.19	13.43	14.33	15.36	15.87	16.28	16.67	15.95	15.43	14.00	12.68	12.03	11.65
435.0	366.6	562.6	773.7	876.7	953.3	 1065	 1229	 1437	 1724	 2116	 2601	 3089	 3379	 3361	 2986	 2469	 2205	 2117	 2132	 2170	 2216	 2296	 2380	 2503	 2631	 2721	 2673	 2629	 2563	 2264	 1764	 1352	 1022	735.6	555.5	429.1	335.0	250.6	191.6	171.6	283.2	682.7	 1509	 4383	 2214	35.38	6.535	4.906	4.206	3.665	3.320	4.341	4.399	4.538	5.311	5.356	6.377	6.502	7.178	7.176	8.069	8.414	9.319	10.13	11.10	11.89	13.34	13.42	14.19	14.48	14.79	14.18	13.28	12.46	12.20	11.06	11.61
440.0	374.8	523.9	720.3	838.8	911.9	 1009	 1173	 1374	 1626	 1969	 2415	 2843	 3107	 3092	 2747	 2302	 2077	 2000	 1993	 2002	 2036	 2094	 2170	 2266	 2374	 2453	 2419	 2386	 2326	 2078	 1654	 1288	 1007	765.0	581.2	454.3	360.7	274.5	212.0	170.7	167.9	229.6	403.8	 2127	 5075	 1637	23.65	6.216	4.413	3.849	3.581	4.169	4.655	4.474	4.938	5.120	5.898	6.068	6.636	6.809	7.516	7.920	8.885	9.451	10.32	11.34	11.97	12.48	13.16	13.35	13.95	13.36	13.02	11.63	10.65	10.41	10.82
445.0	367.7	501.4	650.9	784.2	857.5	964.4	 1113	 1304	 1540	 1857	 2248	 2636	 2852	 2854	 2558	 2179	 1958	 1892	 1863	 1873	 1882	 1917	 1974	 2057	 2162	 2225	 2199	 2170	 2123	 1924	 1550	 1231	976.1	779.0	606.3	475.3	379.1	292.2	227.1	183.3	151.5	137.1	148.9	568.0	 3074	 4752	285.0	15.83	4.992	4.104	3.687	4.265	4.551	4.481	4.760	5.136	5.622	5.478	6.505	6.679	7.558	7.596	8.600	8.939	9.930	10.08	11.03	11.77	12.14	12.25	12.58	12.42	11.75	10.87	10.24	9.552	9.983
450.0	328.4	492.4	618.2	713.5	796.7	905.4	 1056	 1217	 1427	 1698	 2042	 2354	 2543	 2538	 2289	 1971	 1790	 1722	 1690	 1677	 1675	 1696	 1729	 1804	 1883	 1942	 1924	 1902	 1868	 1703	 1414	 1150	927.3	750.6	620.3	497.8	396.7	310.4	244.4	197.9	159.2	125.2	98.90	168.3	784.4	 2591	 3753	 1251	20.93	5.418	4.102	4.441	4.348	4.341	4.625	4.687	5.342	5.490	6.191	6.327	6.862	6.986	7.772	8.005	8.986	9.556	9.898	10.43	10.81	11.27	11.15	11.14	10.70	10.24	9.326	8.833	8.989
455.0	268.2	460.0	552.6	643.0	720.4	849.0	963.4	 1128	 1293	 1540	 1847	 2076	 2232	 2216	 2018	 1763	 1606	 1541	 1507	 1486	 1466	 1470	 1501	 1540	 1618	 1667	 1652	 1636	 1615	 1493	 1268	 1059	871.7	715.1	602.6	513.7	411.3	320.2	253.6	208.2	167.7	130.5	93.35	85.52	206.0	603.3	 1431	 3998	 1844	25.42	4.994	4.558	4.596	4.411	4.338	4.683	5.136	5.270	5.510	6.107	6.129	6.420	7.044	7.354	7.938	8.718	8.796	9.172	9.283	9.370	10.23	9.758	9.353	8.874	8.448	8.049	7.911
460.0	232.5	401.0	540.3	605.9	679.0	782.5	902.7	 1042	 1206	 1412	 1676	 1901	 2033	 2015	 1838	 1625	 1481	 1427	 1384	 1346	 1322	 1323	 1339	 1373	 1438	 1479	 1473	 1467	 1449	 1348	 1168	984.3	825.6	686.0	581.1	505.2	422.0	327.1	259.4	214.2	173.5	134.3	96.61	71.09	80.60	158.9	348.8	 1880	 4327	 1308	18.73	5.433	4.706	4.334	4.359	4.238	4.738	4.707	5.401	5.766	5.929	6.204	6.231	6.934	7.416	7.887	8.009	8.538	8.545	8.920	9.012	8.486	8.270	7.891	7.710	7.489	7.528
465.0	211.0	338.3	543.3	571.1	642.0	731.4	852.4	974.9	 1138	 1314	 1537	 1740	 1848	 1837	 1690	 1498	 1378	 1316	 1280	 1235	 1212	 1197	 1214	 1245	 1290	 1329	 1326	 1316	 1307	 1229	 1074	926.2	785.1	660.2	560.2	485.0	419.3	332.8	262.8	217.7	175.0	137.4	99.83	70.48	56.06	63.08	98.13	477.7	 2632	 3886	223.3	14.62	5.140	4.486	4.066	4.356	4.526	4.583	5.061	5.421	5.438	5.808	5.603	6.290	7.046	7.324	7.492	8.131	8.467	7.921	8.210	7.819	7.966	7.348	7.175	6.777	6.791
470.0	184.0	299.9	460.0	563.6	582.5	657.3	762.5	879.2	 1027	 1184	 1368	 1552	 1627	 1619	 1491	 1341	 1227	 1173	 1132	 1087	 1061	 1042	 1044	 1072	 1114	 1147	 1144	 1137	 1133	 1074	955.4	838.9	722.5	615.0	524.5	453.4	392.7	329.7	266.4	216.7	177.0	140.1	103.4	75.18	55.60	45.91	45.15	124.4	664.5	 2109	 2890	 1107	20.49	5.363	4.480	4.182	4.485	4.453	4.521	4.880	4.998	5.154	5.568	5.895	6.298	6.494	6.772	7.182	7.294	7.012	6.921	6.936	6.801	6.750	6.535	6.317	6.073
475.0	183.2	268.5	378.7	532.7	543.2	590.9	683.5	788.3	918.5	 1054	 1213	 1359	 1425	 1413	 1314	 1180	 1087	 1043	989.4	952.4	925.1	906.5	896.8	923.7	947.1	981.6	977.2	977.0	975.9	927.7	846.0	751.8	656.6	566.3	490.1	423.0	366.5	311.4	265.9	216.8	176.6	140.8	106.9	80.44	59.97	45.50	36.69	49.14	163.1	484.9	 1028	 2980	 1590	26.84	5.099	4.522	4.241	4.466	4.724	4.700	4.530	4.786	5.362	5.336	5.421	5.540	5.848	6.024	6.277	6.261	6.376	6.190	6.158	5.724	5.916	5.494	5.466
480.0	156.9	234.8	336.3	474.3	546.2	546.7	636.4	723.6	831.0	970.7	 1115	 1242	 1298	 1278	 1190	 1068	993.2	945.3	907.4	867.1	829.4	813.4	807.1	823.8	852.9	870.3	872.6	872.6	870.4	839.4	770.0	693.7	612.6	534.3	466.7	404.6	352.2	296.0	257.2	219.9	175.0	140.5	107.5	84.44	63.64	49.21	37.90	34.07	53.40	121.2	247.7	 1300	 3222	 1225	20.64	4.829	4.214	4.352	4.796	4.445	4.625	4.443	4.798	5.177	4.964	5.429	5.330	5.756	5.730	5.850	5.952	5.863	5.550	5.254	5.395	4.939	5.188
485.0	145.5	207.7	302.5	400.2	545.4	505.9	583.2	670.6	774.9	897.7	 1031	 1152	 1191	 1180	 1092	987.1	916.9	873.7	831.9	795.9	764.2	737.1	735.1	748.2	767.4	787.3	783.6	792.2	794.8	764.7	704.3	640.7	572.2	502.7	444.0	385.6	335.0	284.4	245.3	218.4	177.4	141.5	109.7	85.57	65.46	51.14	40.05	32.64	30.49	41.70	67.22	322.2	 1837	 3132	268.3	13.30	4.539	4.430	4.445	4.367	4.411	4.325	4.319	4.665	4.946	5.012	5.135	5.495	5.177	5.347	5.555	5.075	5.136	5.036	5.160	4.670	4.692
490.0	133.3	196.0	272.6	353.0	469.5	538.7	531.1	603.1	693.9	809.1	930.2	 1015	 1057	 1053	978.4	880.0	817.2	777.0	744.5	709.3	677.9	650.6	649.6	655.3	672.0	687.2	688.7	691.3	696.7	676.4	631.9	582.8	519.8	462.7	409.8	361.4	313.7	269.8	231.8	205.1	178.2	143.1	111.5	87.16	69.58	55.22	44.07	35.33	27.88	25.61	27.86	82.39	451.5	 1535	 2209	 1110	20.99	4.872	4.376	3.916	3.939	3.983	4.121	4.198	4.428	4.410	4.464	4.855	4.797	4.527	5.128	4.577	4.635	4.601	4.543	4.265	4.143
495.0	111.9	182.1	238.9	306.5	379.7	512.9	522.8	543.5	621.5	718.8	819.9	894.3	929.8	923.5	844.1	778.5	716.1	685.0	649.7	625.8	590.3	573.6	562.1	567.8	583.2	595.0	598.2	595.9	600.6	590.7	556.9	515.9	471.3	419.9	372.7	331.2	289.7	252.1	216.1	189.6	169.7	144.3	114.6	89.35	72.66	59.81	47.27	37.93	29.63	23.89	20.67	29.93	109.3	351.6	880.0	 2775	 1604	27.70	4.714	4.134	3.877	3.625	3.569	3.814	4.108	3.823	4.101	4.012	3.780	4.048	4.471	4.098	4.088	3.885	3.866	3.675	3.961
500.0	115.8	151.2	222.5	273.3	321.2	426.4	523.1	494.0	574.0	652.8	746.3	808.5	841.2	826.0	771.4	708.6	647.4	617.6	583.9	557.7	531.2	511.9	502.1	505.8	516.7	527.9	528.4	533.3	536.8	528.3	499.6	466.2	429.4	384.4	343.9	307.2	271.5	235.4	205.5	179.5	156.2	139.4	116.4	90.58	73.23	60.09	49.37	39.71	31.18	23.93	19.46	18.52	33.66	86.06	210.5	 1220	 3049	 1118	20.94	4.286	3.859	3.427	3.490	3.436	3.746	3.632	3.845	3.662	3.666	3.630	3.790	3.530	3.652	3.562	3.700	3.398	3.728
505.0	105.0	147.3	196.9	250.4	289.7	359.7	499.4	469.5	512.8	590.9	680.9	729.9	758.2	739.6	690.7	634.7	584.6	558.6	526.6	506.2	475.0	458.9	448.8	452.3	459.4	472.1	473.3	478.0	480.7	474.6	452.8	423.8	391.6	350.6	318.1	284.4	253.8	222.0	193.0	170.0	149.8	128.9	113.9	93.59	73.38	60.89	49.60	40.68	31.87	25.25	19.09	16.20	16.86	26.50	53.50	299.9	 1688	 2598	277.3	11.56	3.674	3.304	3.291	3.581	3.466	3.182	3.635	3.230	3.237	3.335	3.564	3.359	3.219	3.342	3.285	3.271	3.342
510.0	87.53	127.4	165.0	209.0	255.1	293.4	410.2	485.7	461.3	519.3	582.5	637.5	655.7	654.9	606.5	551.1	515.3	482.2	458.1	438.3	414.1	399.3	388.7	392.0	395.4	406.6	406.0	409.6	412.8	410.1	395.5	369.6	343.5	312.2	284.6	254.4	229.8	200.9	176.8	156.6	136.3	118.9	104.9	91.69	74.89	60.27	49.47	40.36	32.00	25.38	20.28	15.91	13.47	13.76	18.58	72.57	412.0	 1335	 1997	 1020	19.53	3.915	3.166	3.221	3.033	3.106	3.094	3.023	3.020	3.022	3.022	2.808	3.041	2.866	2.854	2.827	2.650
515.0	71.25	105.8	141.8	184.8	223.5	246.6	306.3	434.8	450.7	449.5	503.9	545.1	563.3	556.8	518.9	468.9	446.7	413.7	392.7	375.4	353.9	338.6	334.7	332.9	337.3	344.2	341.7	343.7	349.3	348.1	337.5	320.5	295.9	272.1	247.4	226.0	202.0	180.6	158.9	141.6	125.1	109.7	94.84	84.60	74.48	60.44	48.61	39.59	32.29	25.24	20.76	16.20	13.14	11.67	10.71	21.74	96.42	302.8	703.5	 2148	 1294	26.44	3.624	3.009	2.919	2.808	2.721	2.733	2.883	2.765	2.887	2.663	2.555	2.350	2.300	2.292	2.371
520.0	63.05	98.42	128.4	160.4	198.4	225.5	262.1	364.8	469.3	413.0	454.3	492.2	501.7	498.5	459.3	419.0	391.4	368.8	352.5	335.0	316.1	300.4	294.6	293.0	298.5	303.0	301.3	304.2	307.7	307.1	296.9	286.6	267.6	245.6	225.3	203.6	184.7	164.7	145.6	131.8	117.0	102.1	89.08	77.57	72.01	61.49	48.75	38.76	31.44	24.78	20.40	16.23	13.09	11.14	9.039	10.52	26.24	71.63	166.0	939.4	 2304	302.0	16.96	2.903	2.865	2.528	2.675	2.640	2.421	2.606	2.423	2.229	2.219	2.316	1.961	2.398	1.969
525.0	53.53	89.75	113.0	140.2	176.3	202.3	233.5	293.8	443.7	411.1	413.0	442.0	444.6	448.7	413.7	376.8	353.5	330.9	313.1	297.2	281.8	269.6	268.5	266.3	267.0	272.7	271.2	269.3	274.0	273.5	268.1	257.7	238.4	221.7	202.6	186.0	169.6	151.7	136.4	121.3	108.9	96.25	83.20	72.17	67.39	60.98	48.86	39.04	30.12	24.12	19.94	15.99	12.28	10.46	8.421	8.046	10.57	20.22	40.72	228.9	 1241	 1948	256.7	8.002	2.975	2.322	2.450	2.339	2.269	2.112	2.069	2.124	1.872	2.099	1.820	2.075	1.937
530.0	47.87	77.97	104.2	124.6	154.4	178.3	194.8	242.8	353.6	435.3	371.6	380.4	389.7	382.3	360.9	328.6	303.6	287.6	272.3	259.6	243.7	234.5	229.7	228.2	228.9	231.8	232.8	232.1	236.3	236.9	232.7	222.6	207.1	193.5	176.9	163.6	148.9	134.4	121.2	109.5	98.18	87.30	76.33	66.29	60.30	55.17	48.01	38.79	29.73	23.58	19.41	15.64	12.28	10.40	8.672	7.502	7.235	8.379	12.74	54.21	300.6	983.9	 1486	662.8	18.21	2.677	2.079	2.220	2.124	1.835	1.891	2.001	1.872	1.761	1.747	1.688	1.790
535.0	44.48	66.76	82.19	104.5	127.0	151.8	169.7	199.7	252.4	382.3	394.9	328.6	334.2	328.3	308.2	285.1	262.6	247.9	234.9	220.9	208.2	201.9	195.6	193.4	193.2	195.4	194.7	197.4	201.3	200.6	199.7	187.9	178.8	169.0	154.5	144.1	131.1	118.6	108.4	97.86	87.66	78.48	69.26	61.75	54.01	48.33	43.51	38.61	29.28	22.50	18.22	15.45	11.95	9.787	8.465	7.534	6.324	5.615	6.014	15.36	69.57	222.9	517.9	 1535	943.1	24.42	2.431	2.073	1.993	1.949	1.609	1.873	1.688	1.516	1.526	1.504	1.444
540.0	42.06	67.89	72.18	92.94	109.1	133.4	151.5	180.8	206.8	299.0	422.9	314.9	298.6	292.6	271.1	251.3	232.3	218.7	207.0	197.3	184.7	178.7	172.5	171.6	172.9	173.1	170.8	174.6	178.2	177.3	175.7	168.4	158.1	149.7	137.4	128.3	116.8	107.6	99.41	88.77	81.15	71.68	64.28	57.11	51.38	45.39	39.93	36.64	29.78	22.10	17.82	14.37	11.09	9.739	8.286	7.405	5.953	5.232	4.726	6.316	18.01	52.09	121.7	668.6	 1681	295.1	15.78	2.111	1.911	1.597	1.579	1.688	1.537	1.358	1.253	1.388	1.285
545.0	31.74	53.14	60.43	87.33	104.4	117.3	138.2	152.5	185.5	235.4	385.4	349.0	269.4	263.3	245.2	224.6	208.0	195.4	184.9	177.7	166.9	159.2	155.5	154.1	152.7	153.7	152.6	154.7	158.0	156.9	157.4	148.3	142.6	134.0	124.3	115.4	106.8	97.57	89.29	81.70	73.16	65.85	59.43	52.51	47.01	41.22	36.41	33.10	29.06	22.32	16.83	13.65	11.07	9.223	8.124	6.601	5.811	4.858	4.417	4.060	6.524	13.99	29.69	163.9	906.9	 1463	240.2	6.067	1.750	1.519	1.506	1.474	1.483	1.146	1.411	1.188	1.081
550.0	26.19	51.58	58.91	73.42	88.06	101.0	113.4	132.2	151.8	186.9	279.8	367.9	265.1	225.5	208.3	194.5	177.4	167.6	158.7	151.6	142.6	136.8	133.7	131.9	130.1	131.8	130.0	131.5	134.2	134.9	133.5	128.4	121.8	115.2	107.5	99.32	92.66	85.54	78.11	71.91	64.67	58.55	52.65	47.21	42.75	37.78	32.91	28.80	25.18	21.80	17.16	13.17	10.78	8.854	7.795	6.585	5.634	4.752	4.260	3.724	3.944	5.229	8.755	38.80	220.3	734.6	 1112	496.8	16.75	1.799	1.642	1.372	1.345	1.051	1.318	1.205	1.118
555.0	22.16	34.83	46.60	61.17	73.96	80.58	88.12	110.8	128.9	154.9	196.1	296.7	317.8	191.2	176.1	161.3	148.8	139.6	133.6	126.0	120.4	114.5	111.6	108.3	109.0	110.7	109.3	108.1	111.1	110.7	111.2	105.4	102.3	94.87	90.63	83.65	77.56	71.71	66.39	60.91	55.81	51.09	46.04	41.66	37.44	33.13	29.08	24.85	20.84	19.01	16.74	12.79	9.682	8.135	7.138	6.148	5.555	4.520	4.125	3.472	3.187	3.193	3.659	10.46	50.82	166.3	382.8	 1120	309.6	22.97	1.778	1.286	1.295	1.005	0.914	0.977	0.907
560.0	18.01	27.41	39.22	49.69	62.17	71.10	86.18	101.6	118.7	138.5	158.7	217.9	340.1	196.1	153.1	138.5	127.7	120.5	114.0	110.3	104.1	99.07	96.41	93.66	92.68	93.49	94.24	94.32	94.56	95.45	95.23	92.28	88.69	81.24	75.82	71.93	66.48	62.61	57.36	53.32	48.26	45.84	40.88	36.80	33.38	29.25	25.15	21.42	18.20	16.40	15.72	12.52	8.972	7.283	6.590	5.789	5.112	4.279	3.583	3.138	3.081	2.546	2.406	3.930	12.88	38.58	89.99	481.8	 1111	277.9	12.74	1.406	1.178	1.037	0.879	0.937	0.954
565.0	23.53	26.81	38.36	40.69	54.14	61.64	72.95	85.79	108.8	119.4	135.2	163.0	282.5	242.3	132.4	118.6	109.3	103.0	97.76	94.98	89.56	86.31	82.08	81.75	80.55	80.50	79.40	79.93	81.32	80.66	83.99	79.20	74.17	70.83	65.41	62.68	58.93	54.23	50.46	46.93	42.05	38.61	35.79	31.73	29.53	25.92	22.14	19.36	16.69	13.99	13.03	11.88	8.902	6.993	6.048	5.267	4.505	3.957	3.198	2.968	2.751	2.347	2.261	2.349	4.349	9.792	21.52	117.9	616.1	993.2	204.3	4.415	1.158	1.105	0.928	0.907	0.843
570.0	13.26	20.75	33.46	36.86	43.89	49.03	59.75	66.77	83.36	94.50	108.2	123.3	179.4	270.5	154.1	94.86	87.34	83.48	78.91	74.87	70.67	68.91	66.84	65.69	64.86	64.14	64.30	64.16	65.08	64.74	66.59	62.52	60.36	57.24	53.06	50.39	47.64	44.07	41.05	38.16	35.07	32.32	29.24	27.00	23.43	21.34	18.56	15.84	13.87	11.45	10.28	9.685	8.370	6.698	5.320	4.519	3.913	3.516	2.903	2.671	2.473	2.126	1.800	1.932	2.081	3.399	6.054	27.55	150.2	485.9	707.4	301.9	14.37	1.082	0.843	0.749	0.734
575.0	17.54	23.69	27.56	34.09	33.47	35.09	41.12	52.92	67.62	78.38	86.90	92.78	111.5	190.9	233.8	80.14	68.90	63.74	60.08	58.82	55.87	54.90	52.24	49.93	49.57	49.27	49.97	48.89	50.69	49.67	50.29	49.18	46.01	43.93	41.12	38.98	36.82	33.89	32.17	29.63	28.14	25.67	23.06	21.27	19.57	16.82	14.80	12.76	11.22	9.262	7.935	6.967	7.063	5.931	4.787	3.787	3.518	3.070	2.336	2.242	2.253	1.850	1.784	1.667	1.667	1.932	2.263	7.064	34.29	109.8	242.2	651.8	289.7	17.86	0.958	0.713	0.650
580.0	8.320	20.22	20.63	27.24	29.16	34.46	35.58	43.27	57.74	66.32	73.17	79.19	84.63	120.0	249.2	114.6	55.50	53.33	50.89	47.69	45.67	44.23	42.40	39.72	42.20	40.34	40.47	39.91	40.88	41.32	40.92	39.87	39.01	35.49	34.14	32.33	29.83	28.45	26.09	24.73	23.51	21.02	19.31	18.07	16.32	14.23	12.69	11.13	9.244	7.894	6.512	5.875	5.450	5.537	4.591	3.194	2.925	2.520	2.168	2.139	1.809	1.516	1.558	1.414	1.216	1.519	1.429	2.349	8.487	25.21	56.85	281.6	644.8	220.1	7.457	0.766	0.598
585.0	22.25	20.99	16.93	20.60	23.87	29.45	31.68	34.33	43.59	58.02	65.69	65.54	69.47	79.54	191.2	174.2	48.98	43.60	42.24	41.19	38.98	38.16	36.07	33.72	34.79	33.81	33.85	34.42	33.07	35.00	34.76	32.78	32.45	29.63	28.58	27.78	24.98	23.65	22.26	21.04	19.12	17.48	16.36	15.34	13.31	11.86	10.52	9.305	7.724	6.694	5.785	4.960	4.590	4.695	3.969	3.260	2.672	2.390	2.007	1.807	1.579	1.669	1.463	1.398	1.079	1.051	1.193	1.327	2.660	6.337	13.32	68.86	350.9	557.7	40.22	2.417	0.593
590.0	16.76	15.57	14.57	18.42	20.90	22.97	26.49	29.92	36.95	47.58	56.42	57.59	59.41	58.27	102.6	216.8	95.53	36.32	34.54	32.45	31.43	29.26	29.10	27.29	27.33	27.27	27.35	27.37	28.26	27.66	27.38	26.49	25.80	23.74	23.01	21.67	20.25	19.12	17.61	16.92	15.29	14.29	13.03	11.83	10.72	10.11	8.763	7.435	6.321	5.366	4.768	4.045	3.528	3.503	3.621	3.178	2.469	2.134	1.757	1.639	1.456	1.298	1.127	1.195	1.072	1.038	1.007	0.947	1.301	2.097	3.557	15.90	85.34	268.6	320.6	156.1	11.45
595.0	9.783	10.89	11.41	15.29	14.83	18.49	22.06	25.69	32.91	35.78	46.93	49.27	50.27	47.15	53.35	132.4	210.0	36.47	27.23	24.86	24.25	23.32	23.12	21.23	21.30	20.91	21.30	21.84	21.95	21.75	20.99	19.96	20.37	18.63	17.41	16.76	16.42	14.43	13.66	13.27	12.34	11.67	10.66	9.195	8.570	8.050	7.083	6.141	5.159	4.570	3.644	3.392	2.923	2.657	2.618	2.811	2.391	2.046	1.730	1.423	1.263	1.188	1.170	0.973	0.945	0.967	0.922	0.690	0.879	0.892	1.305	4.079	19.50	60.84	118.1	341.9	203.1
600.0	0.400	12.68	8.128	12.07	15.82	17.29	19.76	22.89	29.00	32.10	41.69	45.96	45.48	41.42	39.54	74.87	235.9	88.72	23.33	21.05	20.04	19.34	19.23	18.87	17.76	18.41	17.42	18.79	18.22	17.91	17.63	17.56	17.32	15.81	14.71	14.03	13.40	12.23	11.40	11.11	10.10	9.728	8.679	8.028	7.414	6.781	5.997	5.234	4.493	3.793	3.260	2.784	2.454	2.367	2.045	2.130	2.285	1.825	1.570	1.201	1.174	1.075	1.014	1.024	0.953	0.868	0.767	0.714	0.792	0.700	0.691	1.377	4.876	13.97	28.08	150.5	350.3
605.0	3.830	10.74	8.139	11.72	12.13	13.65	17.10	20.43	26.74	31.28	40.06	44.34	43.90	38.10	35.79	44.98	167.6	183.3	22.22	17.96	17.63	16.19	16.76	16.59	16.11	15.47	15.28	14.72	16.05	15.86	15.54	14.31	14.06	13.12	12.34	11.46	11.56	10.46	9.593	9.480	8.520	7.953	7.747	7.136	6.346	5.617	5.256	4.650	3.819	3.154	2.887	2.414	2.031	2.125	1.784	1.715	2.055	1.875	1.536	1.122	1.144	1.080	1.075	0.866	0.877	0.752	0.766	0.656	0.709	0.782	0.668	0.700	1.541	3.494	6.651	37.55	187.2
610.0	9.696	7.710	11.40	13.54	10.75	12.88	16.66	19.01	24.03	29.44	36.91	42.71	43.85	37.99	33.64	32.87	80.68	224.6	75.37	15.30	14.08	13.19	13.69	13.26	13.09	12.72	12.76	12.34	12.52	12.45	12.09	11.44	11.06	10.46	10.01	9.355	8.987	8.645	7.880	7.191	6.876	6.379	6.038	5.628	5.131	4.696	4.144	3.659	3.003	2.774	2.317	2.181	1.688	1.750	1.575	1.423	1.486	1.593	1.357	1.109	1.081	0.825	0.899	0.741	0.887	0.791	0.708	0.676	0.596	0.665	0.582	0.568	0.684	1.155	1.895	8.886	46.18
615.0	5.941	5.455	12.43	12.43	8.605	14.28	16.68	20.57	21.84	27.61	31.79	40.30	43.89	36.64	32.28	28.48	37.88	125.0	208.0	19.82	11.68	10.31	11.20	10.11	10.35	9.872	10.04	10.32	9.857	9.931	9.279	9.343	8.799	7.779	7.847	7.689	7.155	6.307	6.347	5.877	5.424	5.083	4.799	4.153	3.850	3.710	3.515	2.946	2.631	2.065	1.922	1.761	1.599	1.314	1.253	1.109	1.263	1.263	1.413	1.146	0.926	0.680	0.912	0.705	0.722	0.712	0.645	0.621	0.740	0.674	0.553	0.511	0.406	0.575	0.911	2.244	10.60
620.0	8.055	14.40	8.677	12.03	7.230	13.71	12.88	17.58	20.70	24.06	31.74	36.34	41.76	37.16	32.95	27.52	26.95	61.29	225.2	75.58	10.35	9.032	9.191	8.797	8.932	8.276	8.453	8.622	8.896	8.411	7.666	7.608	7.259	6.329	6.738	5.877	5.705	5.141	5.271	4.717	4.548	4.342	3.899	3.473	3.138	2.962	2.884	2.317	2.161	1.855	1.656	1.570	1.274	1.133	1.054	0.922	1.019	0.941	1.051	1.150	0.951	0.662	0.674	0.554	0.714	0.670	0.582	0.645	0.738	0.611	0.538	0.475	0.392	0.370	0.525	0.752	2.624
625.0	1.115	13.98	6.292	10.30	8.273	16.57	13.49	15.47	20.20	25.21	29.93	35.07	38.94	38.00	32.40	27.90	24.28	31.84	152.2	180.2	10.55	7.657	7.913	7.687	7.334	7.002	7.412	7.060	7.309	7.207	6.730	6.637	6.173	5.640	5.649	5.007	4.708	4.753	4.259	4.172	4.091	3.616	3.175	3.165	2.866	2.553	2.536	1.978	1.837	1.515	1.585	1.312	1.013	1.093	0.825	0.812	0.877	0.851	0.788	1.076	0.853	0.664	0.635	0.640	0.597	0.733	0.541	0.460	0.505	0.564	0.568	0.463	0.557	0.354	0.309	0.632	1.001
630.0	9.272	9.283	8.428	12.60	9.868	12.28	11.60	17.31	19.29	24.55	27.93	32.71	38.50	40.67	34.77	28.41	24.02	23.00	63.03	211.3	62.25	6.850	6.879	5.963	6.413	5.949	6.048	5.808	6.057	5.836	5.408	5.208	5.162	4.448	4.705	4.094	3.647	3.806	3.535	3.259	3.174	2.877	2.622	2.442	2.451	1.983	1.961	1.563	1.556	1.347	1.181	1.067	0.892	0.911	0.864	0.676	0.699	0.600	0.791	0.764	0.894	0.661	0.624	0.573	0.503	0.555	0.472	0.536	0.479	0.447	0.528	0.460	0.399	0.409	0.313	0.557	0.611
635.0	17.80	10.54	6.677	9.146	10.09	10.73	15.41	16.21	18.19	24.21	29.42	33.58	37.24	41.25	37.20	28.98	26.81	22.47	25.20	106.3	198.7	14.03	5.438	5.359	4.999	4.954	4.471	4.756	5.208	4.716	3.981	3.993	3.913	3.652	3.494	3.343	2.825	2.808	2.550	2.749	2.517	2.211	1.992	1.816	1.983	1.517	1.551	1.269	1.118	1.114	0.881	0.941	0.807	0.790	0.702	0.709	0.547	0.496	0.551	0.566	0.559	0.724	0.688	0.442	0.427	0.614	0.512	0.473	0.561	0.377	0.517	0.358	0.307	0.341	0.393	0.492	0.293
640.0	6.694	12.75	15.62	14.51	9.252	10.28	13.64	14.20	19.33	21.84	28.95	34.57	39.18	40.41	40.00	31.80	27.11	21.31	15.92	46.70	219.6	67.37	5.441	5.176	4.513	4.152	4.088	4.197	4.455	4.080	3.487	3.553	3.084	2.687	3.162	2.786	2.409	2.431	2.012	2.093	2.296	1.561	1.518	1.750	1.714	1.383	1.167	1.174	1.036	0.887	0.840	0.765	0.682	0.646	0.591	0.509	0.476	0.395	0.458	0.616	0.568	0.585	0.600	0.532	0.333	0.645	0.399	0.379	0.472	0.414	0.310	0.344	0.270	0.448	0.427	0.311	0.342
645.0	4.310	11.98	14.79	13.19	14.17	13.13	12.96	17.62	19.08	22.88	29.11	35.51	40.28	40.58	41.39	35.03	27.22	22.89	15.35	21.30	143.8	177.4	6.454	4.495	3.996	3.500	3.183	4.028	3.488	3.605	2.891	3.115	2.876	2.274	2.549	2.280	2.343	1.740	1.683	1.781	1.828	1.564	1.501	1.461	1.218	1.267	1.010	1.002	0.897	1.000	0.763	0.591	0.531	0.590	0.660	0.573	0.393	0.504	0.653	0.610	0.367	0.544	0.597	0.489	0.394	0.553	0.371	0.424	0.421	0.443	0.297	0.426	0.386	0.327	0.509	0.387	0.435
650.0	11.30	15.74	14.58	18.76	15.57	19.19	14.44	18.18	18.97	25.56	30.59	36.05	39.02	42.28	41.92	36.16	29.12	23.00	16.64	14.75	67.11	243.6	30.19	4.186	3.671	3.022	3.047	3.089	3.388	3.227	2.894	2.505	2.313	2.146	2.336	1.897	2.140	1.749	1.488	1.427	1.361	1.463	1.387	1.241	1.041	1.085	0.769	0.810	0.806	0.733	0.450	0.492	0.565	0.462	0.534	0.555	0.409	0.467	0.515	0.380	0.382	0.453	0.701	0.552	0.465	0.357	0.385	0.555	0.335	0.641	0.311	0.477	0.510	0.335	0.342	0.432	0.244
