Sample:	'1
File name:	Default_20230428_112053.FD3
Run date:	'11:14:32, 04/28/2023
Operator:	user
Comment:	'

Instrument
Model:	F-2700 FL Spectrophotometer
Serial number:	2190-003
ROM Version:	4J14000 07

Instrument parameters
Measurement type:	3-D scan
Data mode:	Fluorescence
EX  Start WL:	220.0 nm
EX  End WL:	600.0 nm
EX Sampling interval:	5.0 nm
EM  Start WL:	230.0 nm
EM  End WL:	650.0 nm
EM Sampling interval:	5.0 nm
Scan speed:	12000 nm/min
EX Slit:	5.0 nm
EM Slit:	5.0 nm
PMT Voltage:	700 V
Response:	Auto 
Corrected spectra:	Off
Contour interval:	50.000

Peak integration
Integration method:	Rectangular
Sensitivity:	1
Threshold:	1.000

Peaks
No.	ApexEX/EM(nm)	Height(Data)
1	225.0/565.0	69.02
2	225.0/580.0	64.05
3	225.0/615.0	63.28
4	225.0/635.0	67.23
5	225.0/645.0	64.69
6	230.0/355.0	166.8
7	230.0/570.0	56.55
8	230.0/595.0	50.91
9	235.0/545.0	75.02
10	240.0/520.0	141.2
11	245.0/265.0	221.5
12	245.0/530.0	129.6
13	245.0/575.0	41.45
14	245.0/615.0	33.67
15	245.0/625.0	36.80
16	250.0/540.0	133.0
17	250.0/610.0	32.78
18	255.0/280.0	330.6
19	255.0/555.0	119.2
20	260.0/285.0	451.9
21	260.0/405.0	366.1
22	260.0/565.0	104.4
23	265.0/290.0	456.2
24	265.0/415.0	379.0
25	265.0/435.0	378.6
26	265.0/575.0	95.92
27	270.0/295.0	638.4
28	270.0/400.0	374.7
29	270.0/425.0	373.5
30	270.0/440.0	366.1
31	270.0/590.0	92.10
32	270.0/645.0	30.07
33	275.0/305.0	744.0
34	275.0/420.0	369.9
35	275.0/430.0	371.1
36	275.0/600.0	84.93
37	280.0/310.0	738.6
38	280.0/340.0	430.2
39	280.0/410.0	383.1
40	280.0/440.0	363.8
41	280.0/615.0	67.39
42	285.0/235.0	13.09
43	285.0/315.0	734.0
44	285.0/335.0	429.0
45	285.0/345.0	428.6
46	285.0/375.0	398.8
47	285.0/390.0	391.4
48	285.0/625.0	62.64
49	290.0/320.0	732.4
50	290.0/370.0	392.3
51	290.0/385.0	386.9
52	290.0/640.0	48.05
53	295.0/245.0	9.347
54	300.0/235.0	8.785
55	300.0/335.0	427.3
56	305.0/340.0	456.9
57	310.0/345.0	417.9
58	310.0/400.0	358.5
59	315.0/350.0	342.1
60	320.0/360.0	371.0
61	325.0/365.0	379.8
62	330.0/370.0	328.2
63	335.0/380.0	350.4
64	340.0/385.0	351.2
65	345.0/390.0	308.0
66	350.0/395.0	301.4
67	355.0/405.0	288.8
68	360.0/410.0	269.5
69	365.0/415.0	251.9
70	370.0/425.0	236.1
71	375.0/430.0	203.0
72	385.0/445.0	170.1
73	400.0/465.0	110.0
74	415.0/485.0	67.85
75	420.0/490.0	56.72
76	435.0/510.0	35.45
77	440.0/515.0	31.57
78	445.0/525.0	26.66
79	450.0/530.0	22.66
80	455.0/535.0	18.81
81	460.0/545.0	15.56
82	505.0/275.0	3.454
83	510.0/280.0	3.368
84	515.0/285.0	3.665
85	525.0/290.0	3.381
86	545.0/300.0	4.440
87	550.0/305.0	4.565
88	560.0/310.0	4.141
89	570.0/315.0	3.970
90	575.0/320.0	4.344
91	580.0/325.0	3.789

Data points
	220.0	225.0	230.0	235.0	240.0	245.0	250.0	255.0	260.0	265.0	270.0	275.0	280.0	285.0	290.0	295.0	300.0	305.0	310.0	315.0	320.0	325.0	330.0	335.0	340.0	345.0	350.0	355.0	360.0	365.0	370.0	375.0	380.0	385.0	390.0	395.0	400.0	405.0	410.0	415.0	420.0	425.0	430.0	435.0	440.0	445.0	450.0	455.0	460.0	465.0	470.0	475.0	480.0	485.0	490.0	495.0	500.0	505.0	510.0	515.0	520.0	525.0	530.0	535.0	540.0	545.0	550.0	555.0	560.0	565.0	570.0	575.0	580.0	585.0	590.0	595.0	600.0
230.0	50.01	83.67	652.3	645.3	74.56	28.16	26.08	21.51	16.36	15.89	14.70	13.98	12.96	11.48	9.839	7.664	7.577	6.497	5.092	4.922	4.691	4.918	4.562	3.935	3.589	3.436	3.006	3.040	2.967	3.246	2.823	2.763	2.630	2.871	2.902	2.247	2.308	2.276	2.416	2.282	2.154	2.222	2.059	2.012	1.709	1.804	1.649	2.060	3.418	3.708	2.339	1.604	1.397	1.494	1.522	1.411	1.461	1.479	1.412	1.411	1.550	1.440	1.526	1.338	1.391	1.610	1.426	1.398	1.340	1.485	1.503	1.399	1.424	1.630	1.385	1.365	1.761
235.0	59.78	62.18	291.4	 1162	982.1	118.8	23.70	23.86	21.18	14.64	14.67	10.35	12.24	13.09	8.950	7.701	8.785	6.712	6.080	5.739	4.445	4.302	3.969	3.942	3.861	3.208	3.500	3.463	2.861	3.461	2.415	2.848	2.400	2.665	2.492	2.484	1.989	2.299	2.433	1.792	2.171	2.279	2.188	2.051	1.540	1.858	1.512	1.953	2.050	3.131	4.478	5.330	3.599	1.757	1.722	1.072	1.353	1.400	1.350	1.451	1.975	1.499	1.116	1.459	1.398	1.344	1.528	1.440	1.504	1.476	1.424	1.498	1.327	1.326	1.511	1.515	1.954
240.0	66.50	68.41	99.87	633.8	 1976	 1029	76.61	24.33	22.08	18.21	18.40	13.11	9.917	12.55	9.578	8.941	8.267	6.597	6.381	4.444	5.184	5.228	4.174	3.305	3.472	3.378	3.969	3.027	3.102	3.450	2.456	2.650	2.369	2.538	2.585	2.526	1.910	2.243	2.430	2.292	2.026	1.808	2.188	1.908	1.683	2.137	1.409	2.088	1.579	1.924	3.131	5.887	8.397	7.248	2.925	1.261	1.074	1.648	1.341	1.263	1.441	1.305	1.443	1.209	1.346	1.522	1.268	1.221	1.369	1.697	1.561	1.403	1.422	1.279	1.367	1.324	1.657
245.0	54.23	79.67	74.30	197.3	 1256	 2687	982.4	54.56	21.24	19.59	18.15	16.95	13.21	10.88	7.926	9.347	7.058	5.626	6.654	5.462	6.334	4.839	4.260	3.474	3.370	3.019	3.480	3.331	3.440	3.596	2.877	3.025	2.841	2.211	2.354	2.285	2.203	2.638	2.456	2.433	2.165	2.021	2.244	1.689	1.739	1.868	1.496	1.824	1.604	1.206	1.865	3.017	5.763	10.66	11.34	7.220	2.542	1.827	1.576	1.363	1.455	1.422	1.357	1.513	1.500	1.241	1.485	1.133	1.377	1.366	2.032	1.307	1.414	1.458	1.324	1.551	1.560
250.0	67.70	65.86	91.66	108.3	341.7	 1440	 3027	 2171	314.8	20.85	18.06	15.29	13.57	12.10	9.045	8.125	8.364	7.321	6.120	5.617	5.120	4.455	4.350	3.976	3.690	3.577	3.563	3.031	3.905	3.028	3.494	3.308	2.738	3.167	2.719	2.180	2.432	2.506	2.020	2.238	1.799	2.103	2.135	2.025	1.854	1.807	1.654	1.708	1.511	1.350	1.546	1.720	2.614	4.437	7.655	11.16	13.33	12.31	6.985	2.903	1.600	1.559	1.610	1.548	1.379	1.273	1.433	1.607	1.375	1.306	1.611	1.667	1.395	1.290	1.297	1.434	1.498
255.0	59.77	52.12	59.58	135.8	164.8	357.6	 1150	 4383	 3963	392.9	18.54	17.94	14.20	13.56	10.00	9.995	6.903	6.449	5.952	5.305	5.371	3.906	4.884	4.320	4.074	4.238	3.519	3.340	3.865	3.235	2.878	3.223	2.505	2.508	2.318	2.436	2.435	2.186	1.847	2.158	2.411	2.579	2.543	2.372	1.981	1.858	1.713	1.904	1.560	1.372	1.659	2.071	1.880	2.547	2.910	3.714	5.940	12.91	22.53	20.30	8.570	2.477	1.420	1.300	1.419	1.397	1.601	1.626	1.358	1.469	1.321	1.737	1.368	1.416	1.360	1.583	1.520
260.0	56.52	67.89	49.55	80.74	186.2	167.1	300.1	 2064	 6233	 3607	197.2	19.22	14.79	14.09	8.603	9.319	7.174	7.542	6.790	5.122	5.163	5.028	4.274	4.922	4.214	2.881	3.480	3.266	3.493	3.662	3.155	3.258	2.755	2.846	2.627	1.944	2.186	2.225	2.000	2.163	1.994	2.379	2.094	1.816	1.997	1.888	1.645	1.641	1.687	1.695	1.184	2.262	2.425	2.208	2.031	1.916	2.816	4.360	11.46	21.53	27.38	19.81	5.254	1.926	1.659	1.492	1.640	1.521	1.411	1.251	1.518	1.422	1.629	1.448	1.286	1.579	1.435
265.0	75.94	59.26	37.29	43.61	135.2	221.5	121.4	534.2	 3246	 7488	 1051	83.89	17.22	16.77	11.31	10.42	7.658	6.048	5.586	5.478	5.081	4.981	4.527	4.337	4.163	3.346	4.208	3.753	2.998	3.485	3.339	2.917	3.112	2.575	2.408	2.268	2.162	2.021	1.844	2.003	2.103	2.086	2.126	2.041	2.153	1.986	1.760	1.744	1.821	1.550	1.431	1.770	1.892	2.240	2.164	1.575	1.927	2.184	3.871	7.855	17.50	30.16	29.20	13.33	3.194	1.677	1.763	1.690	1.418	1.527	1.261	1.400	1.651	1.304	1.491	1.821	1.466
270.0	57.40	59.31	49.45	39.56	67.01	176.2	231.1	194.4	809.1	 3413	 6416	 3905	340.7	20.28	15.32	11.66	9.064	7.263	6.872	6.176	5.300	4.685	4.777	4.510	4.540	3.767	3.921	4.018	3.207	3.160	3.188	2.873	2.746	2.920	2.061	2.458	1.991	2.189	2.077	2.035	1.908	2.227	1.954	2.147	2.137	2.113	2.073	1.748	1.537	1.617	1.400	1.568	1.699	2.175	2.559	2.148	2.568	1.894	2.138	2.995	5.323	10.25	18.02	25.30	27.74	22.72	9.588	2.395	1.574	1.367	1.530	1.446	1.355	1.242	1.597	1.497	1.437
275.0	63.78	52.92	45.17	49.07	48.50	76.25	196.1	322.0	250.9	795.2	 2136	 7748	 6013	409.1	17.02	15.29	10.07	8.886	7.880	5.955	5.222	4.858	4.435	4.475	4.422	3.310	3.116	3.958	2.892	3.255	3.425	3.270	2.777	2.873	2.519	2.522	1.927	2.168	1.972	2.108	1.809	1.837	2.563	2.167	1.895	1.859	1.984	1.601	1.594	1.706	1.504	1.521	1.519	1.635	2.017	1.852	2.672	3.454	2.479	2.058	2.347	3.614	5.730	7.266	11.46	27.01	40.02	31.29	11.39	2.034	1.444	1.496	1.264	1.545	1.793	1.459	1.412
280.0	72.68	58.70	48.42	45.79	38.98	43.42	85.75	330.6	323.6	227.1	530.5	 3043	9999.9	 4817	245.8	16.21	12.91	8.944	8.211	6.584	5.512	6.046	4.080	4.596	4.066	3.451	3.254	3.831	3.820	3.204	3.060	2.905	2.852	2.614	2.457	1.983	2.279	2.332	2.048	2.210	2.352	1.955	2.152	2.076	1.881	1.824	1.767	1.677	1.657	1.743	1.625	1.626	1.814	1.447	1.565	1.546	1.801	2.554	3.368	3.110	2.087	1.993	2.561	2.791	3.899	8.338	19.81	39.38	43.55	24.17	4.989	1.749	1.420	1.676	1.576	1.764	1.296
285.0	66.32	61.38	57.35	54.00	35.26	35.84	43.32	166.1	451.9	230.3	177.2	773.5	 4614	9999.9	 3488	92.77	15.94	9.948	7.849	7.469	5.746	6.410	4.971	4.095	4.236	4.164	2.980	4.180	3.995	3.234	3.374	3.471	3.123	2.334	2.784	2.438	2.603	2.387	2.221	2.021	2.086	2.102	1.740	1.878	1.831	1.470	2.130	1.988	1.435	1.649	1.396	1.769	1.843	1.619	1.550	1.365	1.736	1.881	2.404	3.665	3.483	2.390	1.836	1.615	2.320	3.185	5.757	13.77	29.46	47.34	38.75	13.14	2.584	1.421	1.913	1.595	1.534
290.0	63.83	71.35	64.65	62.20	47.52	43.01	43.82	83.68	242.2	456.2	305.3	277.9	 1178	 4402	 9105	 5112	223.2	15.09	9.174	7.627	6.619	6.421	5.414	4.680	4.559	3.863	4.162	3.598	3.886	3.816	3.449	3.613	3.419	2.790	2.700	2.809	2.215	2.551	2.380	2.194	1.946	1.892	1.914	1.708	1.895	1.831	1.961	1.849	1.854	1.565	1.500	1.662	1.499	1.659	1.590	1.484	1.735	1.883	1.742	2.188	2.655	3.381	3.160	2.728	2.064	2.031	2.664	4.568	8.422	16.00	26.76	34.16	34.63	23.63	9.920	2.537	1.752
295.0	70.27	75.36	80.22	71.48	66.68	58.18	54.53	68.68	113.0	276.0	638.4	384.3	416.0	 1109	 2697	 9215	 8017	278.8	14.10	10.56	8.997	5.143	6.365	4.856	4.685	3.816	4.428	3.602	3.818	3.415	3.607	3.187	3.069	2.830	2.151	2.640	2.182	2.571	2.266	2.399	1.992	2.336	1.747	2.283	1.864	1.744	1.948	1.882	2.061	1.568	1.463	1.475	2.065	2.056	1.843	1.372	1.721	1.966	1.640	1.659	1.965	2.376	2.470	3.759	3.875	2.958	2.295	2.661	3.255	4.762	7.221	9.374	15.91	32.92	47.62	35.37	10.55
300.0	72.04	71.56	97.26	87.52	74.41	64.09	60.42	80.22	108.1	178.9	496.4	715.2	349.2	411.3	716.5	 3433	9999.9	 3135	183.6	15.63	11.43	6.414	6.006	5.186	4.833	4.289	4.377	3.688	3.624	3.809	4.077	4.034	3.445	2.892	2.523	2.414	2.579	2.454	2.246	2.393	2.196	2.387	2.228	2.125	1.782	1.932	2.044	1.687	1.914	1.970	1.355	1.840	1.913	2.112	1.729	1.721	1.597	1.699	1.584	1.665	1.999	2.005	2.417	3.117	3.911	4.440	3.043	2.698	2.619	2.709	2.920	3.634	5.068	10.14	26.55	48.26	48.86
305.0	70.94	85.67	98.14	94.23	82.94	71.03	75.45	96.50	115.6	177.4	304.1	744.0	620.1	306.5	296.3	874.3	 4723	9999.9	 2470	86.56	12.07	7.737	6.250	6.194	5.681	4.711	4.839	4.447	3.709	4.531	3.558	3.756	3.414	2.718	2.012	2.398	2.729	2.960	2.288	2.751	2.021	2.244	2.025	1.958	1.736	1.623	2.009	1.791	1.702	1.776	1.669	2.022	1.908	1.902	1.705	2.020	1.493	1.510	1.774	2.088	1.996	2.195	2.116	2.582	2.907	3.644	4.565	3.933	2.759	2.716	2.300	2.552	2.541	3.699	7.590	16.91	36.66
310.0	68.09	86.52	101.1	106.5	85.20	82.26	84.64	110.8	135.3	185.2	256.5	450.5	738.6	579.5	263.2	297.5	 1158	 4474	 8655	 5407	163.4	13.25	8.822	6.880	6.025	4.944	5.085	4.766	4.404	4.245	3.524	3.710	3.595	3.189	2.318	2.344	2.426	2.717	2.248	2.126	1.989	2.158	1.977	2.162	1.766	1.765	1.845	1.950	1.566	1.622	1.677	1.897	1.769	1.909	1.603	1.801	1.855	2.031	1.948	2.077	2.141	2.287	2.230	2.428	2.725	3.214	3.524	3.971	4.141	3.288	2.675	2.510	2.168	2.570	3.317	5.382	10.07
315.0	73.49	98.73	101.6	114.5	102.0	89.42	90.00	123.1	152.7	201.7	266.4	346.7	476.2	734.0	528.0	208.3	330.7	 1044	 2583	 9086	 7246	216.8	11.84	7.689	7.481	6.228	5.289	4.518	4.402	4.345	3.903	3.202	3.716	3.388	2.786	2.079	2.182	2.018	2.494	2.100	1.529	2.179	1.985	2.030	1.717	1.873	1.925	2.019	1.509	1.925	1.600	2.168	1.831	1.733	1.824	1.927	1.752	2.260	1.856	1.761	1.989	2.386	2.464	2.308	2.383	2.851	3.100	3.045	3.526	3.627	3.970	3.347	2.282	2.503	2.232	2.489	3.582
320.0	67.72	98.57	121.7	121.2	102.4	91.90	101.7	129.1	160.4	221.7	284.4	337.5	389.2	549.3	732.4	326.7	163.3	283.3	623.7	 3439	9999.9	 2261	144.6	9.106	7.698	6.283	5.253	4.780	4.318	4.004	3.622	3.394	3.887	3.615	2.933	2.307	2.452	2.403	2.512	1.915	1.886	2.009	2.262	2.030	1.618	2.331	1.714	1.923	1.741	1.720	1.474	1.805	1.889	1.561	2.053	1.967	2.039	2.224	1.807	1.750	1.964	2.360	2.593	2.256	2.722	2.769	2.851	2.712	2.732	3.293	3.629	4.344	3.563	2.360	1.872	1.832	2.427
325.0	74.56	92.48	120.0	140.4	103.8	97.20	118.3	138.7	167.3	228.6	288.4	349.2	388.8	426.4	607.1	540.7	179.2	125.8	185.6	830.9	 4738	9999.9	 1916	73.93	9.197	8.251	5.134	5.859	4.215	4.461	4.046	3.193	4.462	3.378	2.702	2.567	2.455	2.535	2.516	2.165	1.984	2.312	1.946	1.810	1.634	2.184	1.908	1.873	1.815	1.634	1.821	2.043	1.936	1.961	1.778	1.908	2.279	2.003	1.975	2.087	1.996	2.235	2.303	2.065	2.475	2.578	2.605	2.615	2.885	2.941	2.757	3.455	3.789	3.383	2.486	1.795	2.021
330.0	80.83	92.78	130.2	135.3	119.3	106.9	130.8	151.5	182.9	250.7	310.6	369.8	414.4	410.0	421.3	513.9	420.0	163.0	100.4	230.8	 1140	 4413	 7961	 4857	127.3	11.22	7.037	6.178	5.681	4.840	4.192	4.063	3.878	3.024	3.099	2.735	2.792	2.624	2.562	2.178	1.996	2.035	2.232	1.926	2.016	2.047	1.917	2.030	1.987	1.597	1.779	1.924	1.814	2.012	2.148	1.996	2.073	1.968	2.209	2.432	2.197	2.356	2.424	2.699	2.591	2.921	2.696	2.568	2.840	2.613	2.719	2.586	3.044	2.951	3.030	3.203	2.568
335.0	77.32	96.26	128.6	148.9	134.2	108.9	151.2	169.8	205.1	260.9	321.5	388.8	425.7	429.0	377.1	336.9	427.3	385.3	131.6	112.1	300.7	 1018	 2490	 8799	 6845	176.3	10.31	8.608	6.459	5.471	4.884	4.898	3.983	2.978	3.437	2.744	2.460	2.395	2.674	2.158	1.896	2.426	2.420	2.517	2.068	2.292	2.036	1.902	1.756	1.686	1.740	1.816	1.688	2.035	1.988	2.221	2.304	2.259	2.363	2.899	2.730	2.464	2.502	2.717	2.601	2.663	2.913	2.793	3.127	2.508	2.565	2.378	2.495	2.382	2.415	3.200	3.426
340.0	77.62	107.9	150.6	144.5	146.8	137.2	158.1	178.4	215.2	279.4	324.0	380.0	430.2	419.7	371.6	297.4	303.1	456.9	270.7	103.0	124.6	267.5	595.1	 3487	9999.9	 4976	123.8	9.804	6.742	5.765	4.916	5.014	4.201	3.806	3.820	2.677	2.553	2.570	2.332	2.588	2.428	2.147	2.272	2.301	1.789	2.021	2.038	1.780	2.285	1.780	1.614	2.050	1.849	2.171	1.759	1.977	2.507	2.290	2.295	2.670	2.617	2.805	2.579	2.718	2.864	2.864	2.764	3.275	3.035	2.751	2.719	2.676	2.663	2.516	2.522	2.906	3.186
345.0	81.16	106.5	155.9	156.2	140.4	158.3	160.3	182.5	216.8	276.0	332.6	383.0	408.2	428.6	386.2	299.4	257.7	337.0	417.9	176.9	97.56	114.1	175.0	843.6	 5022	9999.9	 1594	67.36	8.854	6.973	6.106	5.064	3.967	4.138	3.708	3.294	2.381	2.776	2.878	2.230	2.325	2.487	2.295	2.009	2.010	2.158	2.040	1.815	2.233	1.874	1.511	1.985	2.363	1.991	2.059	2.246	2.996	2.235	2.654	2.316	2.697	2.829	2.624	2.565	2.596	3.072	2.773	2.871	2.764	3.249	2.841	3.071	2.995	2.927	2.164	2.494	2.062
350.0	85.92	101.1	146.7	161.9	161.8	161.3	188.0	193.5	236.9	279.9	319.5	363.9	405.1	419.8	385.9	320.2	254.6	242.6	335.6	342.1	174.6	102.9	99.81	233.6	 1226	 4690	 7736	 4399	110.8	10.32	6.505	5.510	4.444	4.507	3.743	3.477	3.005	2.848	2.578	2.497	2.640	2.502	1.873	2.095	2.221	1.935	1.922	1.990	1.927	1.919	1.756	2.217	2.134	2.030	1.907	2.108	2.543	2.379	2.401	2.323	2.717	2.802	2.982	2.623	2.582	2.998	2.556	2.960	2.628	2.760	3.096	2.478	2.639	2.658	2.213	2.314	2.322
355.0	76.82	103.1	166.8	161.3	155.4	192.3	203.7	213.4	233.1	270.7	321.3	374.1	394.1	405.7	373.5	334.0	273.2	241.8	238.9	317.3	334.3	165.8	106.8	116.3	322.2	 1085	 2608	 8563	 6087	150.2	8.870	7.344	5.749	4.339	4.193	3.353	3.051	2.996	3.254	2.971	2.431	2.181	1.873	2.131	2.413	2.091	1.860	2.155	1.813	1.846	1.519	2.019	1.939	2.204	2.106	2.235	2.308	2.535	2.352	2.624	2.192	2.802	2.567	2.505	2.618	2.734	2.842	2.766	2.669	2.601	2.566	2.709	2.557	2.629	2.326	2.578	2.412
360.0	71.50	101.6	164.8	163.3	176.3	209.1	224.7	235.7	250.5	270.0	329.7	367.2	387.1	395.6	379.0	337.2	280.3	252.2	236.5	246.4	371.0	282.0	136.4	106.0	136.2	288.5	628.7	 3658	 9961	 4304	100.0	9.215	5.920	4.604	4.063	3.942	3.154	2.938	3.095	2.995	2.317	2.686	2.159	2.236	2.112	1.866	2.143	2.295	1.640	1.457	1.550	2.213	1.993	2.130	2.156	2.228	2.164	2.167	2.500	2.259	2.506	2.733	2.435	2.958	2.767	2.861	2.776	2.990	2.619	2.594	2.615	2.653	2.223	2.334	2.393	3.083	2.323
365.0	70.03	101.2	143.3	188.4	202.0	231.5	235.4	245.1	261.7	290.0	331.6	375.4	392.2	395.5	379.2	340.2	303.6	274.1	254.9	240.6	301.0	379.8	222.0	123.6	103.4	123.6	185.0	894.1	 5120	9999.9	 1403	52.10	7.695	5.914	4.523	3.694	3.192	3.004	2.964	2.808	2.543	2.532	2.098	1.868	1.994	2.174	1.793	2.183	1.758	1.630	1.620	1.944	2.146	2.049	2.231	2.172	2.069	2.186	2.200	2.478	2.605	2.519	2.933	3.007	2.832	2.753	2.589	2.814	2.414	2.703	2.821	2.837	2.594	2.738	2.563	2.828	2.378
370.0	75.50	99.55	142.6	194.3	210.2	241.6	247.3	260.2	275.4	297.2	335.1	361.8	388.4	389.2	392.3	357.7	324.6	296.6	275.8	268.3	264.7	317.2	328.2	210.4	128.5	107.3	104.7	246.5	 1253	 4863	 7833	 4090	86.75	8.561	5.901	4.540	3.612	3.274	3.178	3.069	2.579	2.641	2.509	2.337	2.394	2.032	1.774	2.210	1.877	1.980	1.758	2.293	2.316	2.147	2.100	2.304	2.416	2.429	2.601	2.432	2.378	2.618	2.679	2.823	2.861	2.801	2.530	2.597	2.788	2.564	2.967	2.873	2.608	3.018	2.874	2.434	2.513
375.0	74.41	93.61	155.5	182.2	223.9	250.7	256.6	273.5	283.5	305.9	341.4	362.2	386.9	398.8	384.6	368.9	349.0	320.4	312.0	296.7	274.2	278.8	307.0	344.8	201.6	124.3	105.5	115.0	326.0	 1118	 2836	 8874	 5250	114.4	7.853	5.621	4.447	3.599	2.785	2.880	2.924	2.630	2.635	2.462	2.394	2.204	1.846	1.994	1.947	1.683	1.850	2.612	2.193	2.660	2.390	2.450	2.750	2.504	2.075	2.200	2.346	2.817	2.604	2.859	2.821	2.811	2.569	2.813	2.753	2.665	3.079	2.999	2.594	2.678	3.086	2.764	2.617
380.0	84.32	100.4	150.7	188.2	217.9	257.2	280.4	285.1	296.5	323.1	345.1	355.2	386.9	382.0	386.3	369.4	352.6	341.2	332.1	310.0	296.4	276.8	273.3	350.4	300.5	162.7	113.1	100.4	129.4	289.1	679.2	 4079	 9764	 1288	67.83	6.570	5.355	4.322	3.894	3.029	3.039	2.926	2.498	2.393	2.630	2.266	1.933	2.328	2.087	1.917	2.015	2.186	2.373	2.814	2.419	2.683	2.910	2.207	2.657	2.560	2.702	2.556	2.882	2.534	2.633	2.534	2.733	2.952	2.735	2.775	2.782	3.000	2.704	2.431	2.803	2.621	2.831
385.0	81.74	97.30	149.0	201.3	234.3	273.8	277.1	283.9	317.5	314.7	342.9	366.5	376.6	382.4	386.9	367.6	351.0	352.2	338.0	319.4	300.8	290.8	271.4	291.3	351.2	226.4	137.7	109.8	94.61	113.3	188.3	 1005	 5634	 8712	 1059	23.42	5.779	4.412	4.195	3.014	3.099	2.918	2.307	2.513	2.758	2.596	2.306	2.148	2.287	2.059	1.926	2.258	2.389	2.398	2.383	2.343	2.670	2.247	3.080	2.777	3.064	2.326	2.741	2.817	2.499	2.904	2.607	2.384	2.315	2.931	2.676	2.623	3.169	2.802	2.988	2.877	2.674
390.0	80.60	106.1	146.3	197.0	247.7	277.8	289.8	316.3	330.5	331.0	345.8	377.6	381.8	391.4	377.0	372.4	361.8	361.3	345.8	337.2	325.8	309.4	285.7	273.0	298.6	308.0	207.6	135.4	105.0	88.33	88.17	258.8	 1402	 4768	 6829	 2759	63.88	6.544	4.910	3.837	3.666	3.104	2.932	3.031	2.471	2.389	2.093	2.113	2.183	1.816	2.079	2.334	2.409	2.620	2.444	2.292	2.641	2.359	2.724	2.699	2.732	2.660	2.891	2.921	2.421	2.757	2.630	2.491	2.810	2.910	2.396	2.849	2.885	2.678	2.594	2.858	2.726
395.0	83.56	105.6	139.4	210.6	238.1	292.7	303.4	319.4	335.5	346.0	350.6	365.6	371.0	382.6	377.5	375.2	367.6	356.3	349.7	350.6	332.9	322.0	302.9	275.2	259.9	282.5	301.4	196.5	126.9	100.1	82.08	104.6	344.2	 1092	 2824	 7772	 3864	79.75	6.319	5.305	4.031	3.548	3.322	3.334	2.679	2.318	2.185	2.242	2.197	1.958	2.001	2.717	2.380	2.641	2.600	2.458	3.012	2.814	2.801	2.824	2.753	2.751	2.960	2.336	2.882	2.801	2.546	2.710	2.338	2.825	2.890	2.954	2.936	2.538	2.934	2.752	2.326
400.0	89.62	102.1	151.7	230.3	252.3	305.7	306.3	333.5	359.6	351.7	374.7	365.3	379.7	382.6	381.1	378.5	359.6	345.9	358.5	353.8	338.4	333.1	305.8	282.3	259.1	257.0	294.8	264.7	159.1	120.1	89.69	77.97	115.4	271.6	677.4	 4045	 8005	 1040	45.53	6.353	4.564	4.277	3.829	3.514	2.637	2.223	2.367	2.263	2.275	2.150	2.077	2.747	2.607	2.556	2.439	3.035	2.770	3.137	2.676	2.993	2.866	2.793	3.093	2.515	2.956	2.882	2.984	2.791	2.794	2.595	2.891	2.613	2.700	2.826	2.862	3.007	2.622
405.0	78.93	105.0	149.1	211.7	265.6	289.8	304.2	338.4	366.1	355.0	358.3	373.1	376.7	376.6	379.8	371.6	360.1	351.9	355.3	350.2	341.9	323.1	309.8	287.1	270.4	257.2	252.8	288.8	217.2	136.3	102.3	79.59	70.95	91.69	175.9	 1028	 5046	 6796	841.9	16.11	5.118	3.978	3.654	2.871	2.184	2.292	2.740	2.388	2.005	2.012	2.103	2.087	2.569	2.490	2.534	2.822	3.326	2.809	2.632	3.029	3.161	2.723	2.800	2.643	2.676	2.991	2.844	2.670	3.007	2.419	2.648	2.931	2.574	2.844	2.698	2.567	2.492
410.0	64.10	98.56	156.3	208.5	274.2	289.4	309.8	343.4	365.4	366.0	360.0	378.2	383.1	370.1	376.3	360.5	345.8	346.4	349.4	347.1	337.5	327.2	312.1	296.7	281.0	259.5	239.4	255.3	269.5	192.5	125.1	92.69	69.41	59.75	69.89	251.9	 1285	 4067	 5578	 2168	52.43	5.588	4.007	3.508	2.746	2.784	2.338	2.298	2.171	1.999	2.051	2.621	2.691	2.682	2.605	2.830	3.155	2.689	2.669	2.807	2.852	3.052	2.306	3.082	2.932	2.741	2.967	2.631	2.882	2.552	2.662	2.810	2.703	2.709	2.844	2.566	2.620
415.0	79.68	107.2	159.8	230.0	246.0	282.3	318.3	336.8	341.8	379.0	365.6	366.0	375.1	361.1	364.4	347.6	340.9	336.3	330.9	332.3	326.5	318.4	309.2	296.5	278.3	261.8	242.1	232.5	235.1	251.9	168.8	110.1	78.89	63.86	53.43	82.57	307.3	928.0	 2448	 6277	 2934	69.42	5.057	3.673	3.364	3.393	2.380	2.453	2.235	2.267	2.221	2.427	2.731	2.930	2.315	2.780	2.912	2.696	2.466	2.968	2.919	2.563	2.113	3.000	2.519	2.687	2.986	2.750	2.550	2.609	3.080	2.661	2.409	2.919	3.268	2.633	3.056
420.0	74.65	112.1	142.5	201.2	260.6	294.1	333.0	339.9	354.1	370.1	366.3	369.9	366.9	353.3	361.4	333.8	323.0	325.3	318.5	316.9	316.8	308.3	304.9	289.8	277.4	263.9	246.2	229.2	211.5	246.7	220.8	130.9	90.55	70.80	53.16	50.50	92.05	224.6	589.7	 3429	 6339	917.7	33.99	4.647	4.123	3.543	2.895	2.426	2.414	1.968	2.204	2.611	2.530	2.759	2.484	2.827	2.585	2.897	2.899	2.613	3.142	2.747	2.612	2.828	2.388	2.365	2.923	2.659	2.635	2.523	2.448	2.485	2.434	2.745	2.803	2.642	2.867
425.0	76.74	100.2	134.5	197.2	236.8	288.6	328.3	324.1	352.4	358.7	373.5	368.2	369.7	351.6	347.9	330.5	311.9	320.6	314.4	309.9	307.6	304.1	301.2	287.1	274.1	264.9	243.4	227.1	208.2	214.5	236.1	172.2	104.8	77.58	57.84	46.91	47.34	70.37	147.3	884.5	 4172	 5401	696.8	10.96	4.633	3.673	2.943	2.525	2.637	2.399	2.129	2.571	2.546	2.465	2.846	3.176	2.672	2.646	2.749	2.813	3.077	2.730	2.473	2.538	2.549	2.636	2.649	2.765	2.447	2.576	2.422	2.241	2.652	2.687	2.386	2.796	2.926
430.0	80.45	95.51	144.3	203.0	235.4	290.4	311.8	336.4	362.3	364.5	368.6	371.1	346.9	349.6	335.7	318.7	298.7	297.0	300.0	299.5	297.6	287.9	286.7	286.0	269.4	261.5	243.8	233.1	211.1	199.1	202.0	203.0	142.5	92.51	67.99	53.56	44.10	41.08	52.51	212.4	 1068	 3259	 4469	 1699	45.74	4.888	3.582	3.058	2.872	2.495	2.357	2.679	2.566	2.579	2.958	2.609	2.852	2.869	2.918	2.742	2.649	2.786	2.753	2.891	2.614	2.709	2.641	2.765	2.356	2.627	2.384	2.624	2.636	2.538	2.308	2.691	2.778
435.0	94.97	82.99	132.9	209.5	254.2	282.2	312.2	328.9	376.4	378.6	359.0	358.5	349.4	353.4	323.3	312.9	284.7	289.1	279.8	286.1	287.4	278.3	278.1	279.4	264.1	261.0	240.2	233.3	215.0	201.6	184.4	179.9	179.5	125.9	79.38	63.45	49.78	39.69	36.29	66.57	252.5	744.6	 2103	 5314	898.0	56.12	4.671	3.471	3.076	2.471	1.881	2.670	2.877	2.759	2.578	2.449	3.089	2.949	3.217	2.958	2.817	3.011	2.694	2.558	2.466	2.896	2.516	2.716	2.490	2.427	2.462	2.526	2.716	2.479	2.386	2.530	2.794
440.0	111.9	102.7	151.4	188.2	240.1	277.7	302.7	327.9	373.6	355.4	366.1	358.6	363.8	340.0	312.5	307.9	291.4	275.3	273.0	277.4	272.9	275.0	269.7	271.6	258.6	256.4	242.2	233.0	219.2	205.3	190.9	170.0	176.0	157.6	98.30	69.87	56.46	43.81	34.05	35.57	73.52	179.4	512.3	 3027	 5241	800.1	27.86	4.372	2.933	2.813	2.429	2.562	2.793	2.776	2.893	2.813	3.072	3.237	3.267	2.670	3.123	2.978	2.817	3.100	2.655	2.831	2.411	2.567	2.381	2.388	2.468	2.735	2.319	2.277	2.436	2.984	3.005
445.0	101.7	120.0	137.1	176.5	233.0	248.9	297.7	324.0	359.8	354.4	350.7	356.7	358.0	332.0	310.3	296.5	282.9	263.2	272.9	264.7	263.9	257.9	261.2	253.5	252.6	250.5	231.0	226.8	215.8	203.2	186.0	164.0	158.2	170.1	121.0	77.80	61.33	48.24	38.37	32.37	36.15	54.95	128.1	793.3	 3779	 4933	580.0	9.919	4.182	2.973	2.657	2.744	2.838	2.747	2.918	2.652	3.063	2.828	2.888	3.197	2.644	2.887	2.698	3.008	3.038	2.986	2.601	2.528	2.534	2.595	2.687	2.414	2.571	2.084	2.271	2.626	2.619
450.0	90.85	164.8	173.7	182.1	210.0	258.2	291.1	305.4	353.6	345.1	351.5	350.9	344.1	323.8	300.6	281.0	258.4	251.7	250.5	249.8	246.0	243.1	240.8	241.8	235.2	235.6	228.5	219.9	211.4	197.8	182.2	164.7	144.4	145.1	141.3	102.3	68.39	53.59	43.06	34.46	30.56	31.34	42.52	189.6	982.0	 3197	 4411	 1605	37.55	3.855	3.191	3.229	2.666	3.040	2.805	2.684	2.820	2.991	2.808	3.100	2.778	2.823	2.599	2.796	2.829	2.896	2.821	2.775	2.514	2.492	2.529	2.525	2.571	2.355	2.110	2.461	2.518
455.0	55.93	157.8	351.4	196.0	214.8	234.2	277.1	306.5	331.3	332.6	337.0	336.8	340.6	305.5	291.7	264.6	247.0	238.4	232.5	236.4	228.5	224.3	228.5	225.0	223.0	222.0	215.8	210.5	202.9	190.6	178.9	166.7	138.6	125.8	125.3	126.1	86.51	57.82	47.18	39.96	32.51	27.74	26.19	55.12	228.6	731.5	 2055	 5037	 2116	41.38	4.083	3.897	3.182	3.555	3.082	3.323	3.002	3.265	2.941	3.029	3.062	3.070	2.662	2.522	2.824	2.519	2.810	2.389	2.416	2.491	2.301	2.755	2.576	2.486	2.273	2.026	2.264
460.0	62.44	133.0	447.1	274.0	192.9	242.5	263.3	295.9	311.9	326.4	314.8	326.6	312.8	298.2	275.4	248.9	231.9	222.8	214.0	220.0	209.8	212.3	212.5	209.2	210.8	208.3	205.0	198.5	194.9	188.5	170.6	158.0	138.9	120.1	110.0	118.4	102.3	70.17	49.65	43.51	33.02	27.81	23.46	26.42	62.59	173.6	498.8	 2891	 4946	584.3	22.37	4.378	3.687	2.946	3.333	3.251	3.300	3.121	2.945	2.639	3.017	3.258	2.624	2.768	2.596	2.640	2.647	2.582	2.201	2.228	2.468	2.546	2.876	2.054	2.428	2.130	2.672
465.0	64.74	107.2	420.0	506.2	211.1	228.3	261.3	265.6	292.1	314.8	305.3	318.8	302.9	284.9	269.3	230.1	217.5	209.6	195.1	205.2	192.4	194.3	195.5	196.5	198.2	198.1	193.2	184.8	188.0	180.1	170.1	153.6	135.5	118.2	101.4	101.8	110.0	81.48	52.25	44.62	35.56	29.56	23.81	22.03	26.36	49.36	121.3	752.9	 3509	 3980	472.4	7.826	4.012	3.254	3.355	3.360	2.743	2.979	2.857	3.298	2.806	2.716	3.036	2.549	2.596	2.577	2.446	2.767	2.240	2.787	2.461	2.326	2.610	1.968	2.384	2.282	2.630
470.0	76.13	90.96	219.9	747.7	447.0	217.7	238.6	252.8	273.9	279.2	298.8	284.6	282.8	259.0	240.6	215.7	200.9	191.7	185.5	184.0	176.8	180.1	177.9	176.2	179.2	177.0	174.5	171.7	173.3	165.3	157.3	143.8	126.8	112.8	98.82	89.38	93.79	88.28	65.46	46.47	37.05	31.64	24.58	22.16	19.90	22.87	36.92	177.1	907.5	 2691	 3274	 1179	33.80	4.035	3.649	3.338	3.096	2.875	2.860	2.758	2.866	2.425	2.586	2.583	2.473	2.424	2.299	2.515	2.480	2.470	2.474	2.387	2.491	2.187	1.987	2.582	2.441
475.0	64.40	71.41	119.7	511.0	962.0	246.4	213.3	248.5	261.3	256.9	266.3	257.2	255.1	244.0	222.4	200.1	180.1	173.5	167.8	165.8	159.0	155.0	160.3	161.0	160.0	158.3	159.4	157.2	156.3	156.4	142.2	134.2	117.1	110.3	94.91	81.93	75.90	79.77	79.32	55.73	39.32	32.08	25.38	22.02	18.58	18.17	18.52	48.48	209.9	613.2	 1559	 3492	696.9	41.05	4.016	3.460	3.098	3.513	2.516	2.831	2.621	2.406	3.042	2.370	2.972	2.416	2.020	2.539	2.252	2.361	2.337	2.191	2.365	1.920	2.365	2.353	2.574
480.0	70.31	91.98	103.0	254.6	 1128	526.7	194.4	227.6	248.7	249.4	258.1	247.3	250.5	227.4	214.3	190.6	165.6	164.9	152.0	156.2	147.5	147.4	145.7	148.9	148.7	145.5	153.5	143.6	147.2	144.1	137.1	128.5	113.1	101.3	91.56	79.35	73.58	68.53	74.42	64.35	42.46	34.02	27.44	21.85	19.67	17.49	14.87	19.59	54.70	143.1	380.1	 1984	 3347	619.4	16.36	3.370	2.842	3.088	2.796	2.357	2.578	2.556	2.707	2.170	2.762	2.531	2.322	2.448	2.155	2.228	2.557	2.545	2.130	2.170	2.189	2.283	2.226
485.0	70.60	96.52	94.10	154.7	865.7	 1046	214.5	217.1	228.9	241.2	245.8	239.8	241.3	209.4	203.5	184.0	156.8	151.8	144.8	140.2	141.6	139.5	137.0	136.5	134.8	137.9	140.9	134.4	136.3	135.4	126.5	120.6	108.3	97.38	88.51	78.25	72.95	64.18	63.29	67.85	50.06	35.20	28.79	22.79	21.30	18.22	15.05	13.27	20.60	39.21	91.22	522.4	 2438	 3044	96.40	6.919	3.669	3.266	2.827	2.806	2.555	2.385	2.634	2.063	2.596	2.277	2.310	2.581	2.361	2.149	2.377	2.423	2.284	2.078	2.052	1.996	1.775
490.0	68.92	94.72	102.0	128.8	379.4	 1297	660.0	205.9	212.8	235.9	232.9	225.4	222.3	203.9	186.6	168.0	153.7	139.2	139.1	130.2	127.0	124.6	123.8	125.5	125.4	126.7	127.2	126.9	125.1	123.0	119.9	113.3	103.1	93.17	84.36	75.25	68.05	59.64	53.86	55.63	56.72	42.44	29.92	24.22	21.26	18.66	15.80	13.17	13.78	15.85	26.70	122.3	626.3	 1899	 2595	 1059	35.07	3.660	3.304	3.085	2.765	2.364	2.600	2.503	2.350	2.245	2.349	2.140	2.123	2.083	2.219	2.334	1.989	2.161	2.059	1.885	1.900
495.0	57.31	75.97	106.8	112.5	190.2	743.3	 1445	287.4	193.3	214.7	221.3	212.1	211.7	186.6	164.7	156.6	141.6	126.8	127.1	117.1	115.0	115.2	114.6	109.0	110.1	115.4	114.3	115.1	113.1	115.8	109.8	102.0	95.18	86.50	78.67	71.30	61.39	56.88	51.86	46.11	51.26	48.82	36.02	24.90	23.00	18.44	16.63	15.09	12.65	11.68	12.31	32.92	145.1	432.0	 1229	 3204	745.2	40.94	4.088	3.250	2.805	2.655	2.593	2.583	2.278	2.063	2.241	2.110	2.023	1.784	2.405	1.776	1.673	2.282	2.293	1.918	1.845
500.0	63.00	69.28	98.57	120.2	145.6	317.2	 1612	721.1	179.3	201.3	204.0	199.2	199.0	170.5	156.1	140.7	129.2	117.8	111.1	108.3	108.7	105.1	105.1	103.9	104.6	103.3	103.8	102.5	105.9	106.5	101.1	95.89	89.72	81.25	73.98	66.24	58.85	52.37	48.06	43.66	43.71	45.13	43.40	27.03	21.98	19.69	17.59	14.36	12.76	11.15	9.858	13.43	37.94	101.7	296.2	 1784	 3242	628.4	18.02	3.419	3.132	2.770	2.783	2.401	2.111	2.399	2.093	2.190	2.085	2.193	2.176	1.862	1.809	2.197	2.023	2.066	2.148
505.0	66.16	71.49	75.61	117.5	118.8	177.7	 1127	 1448	220.5	181.4	189.1	189.4	177.5	165.0	150.6	131.7	119.2	110.2	103.5	98.27	98.77	98.27	94.94	92.55	91.30	92.36	98.85	93.75	96.52	95.68	95.16	86.80	83.00	75.92	69.35	62.95	57.11	50.35	44.54	42.51	38.43	40.22	42.43	31.43	22.83	18.70	17.98	14.35	13.06	10.68	8.882	9.407	13.77	28.03	70.59	458.5	 2282	 3014	102.0	5.723	3.471	2.706	2.995	2.677	2.257	2.503	2.189	1.964	2.071	1.951	2.118	1.977	2.119	2.000	2.213	2.027	1.958
510.0	61.39	62.45	80.85	116.2	117.7	129.8	420.8	 1682	853.6	171.8	170.9	164.1	164.0	147.7	135.9	116.8	106.3	97.22	94.84	90.40	88.88	88.12	85.54	83.63	82.82	79.91	84.15	83.36	83.42	87.35	84.61	78.87	73.10	68.36	61.25	56.07	53.73	47.37	42.98	38.54	34.71	32.77	34.20	35.45	27.46	19.52	17.10	14.83	12.35	11.40	9.422	8.817	8.710	11.28	20.71	106.6	584.9	 1843	 2347	893.2	32.81	3.367	2.705	2.683	2.460	2.388	2.204	2.130	2.245	2.109	2.054	1.954	2.329	1.967	1.815	2.022	1.854
515.0	73.72	61.41	83.62	98.96	136.8	116.4	187.5	837.0	 1891	331.6	154.8	150.9	148.9	126.0	125.2	105.6	93.74	87.16	83.70	79.99	76.99	77.43	76.54	73.97	70.87	70.80	73.38	73.12	73.08	76.64	73.33	71.11	65.45	60.92	55.31	48.86	48.07	43.13	40.67	35.54	31.53	27.61	26.96	30.90	31.57	21.48	17.04	14.86	12.46	10.31	8.615	8.279	7.597	7.002	8.898	28.08	134.3	418.0	 1057	 2666	712.3	33.91	2.990	2.947	2.195	2.108	2.397	2.452	2.065	2.027	2.143	1.810	2.406	1.841	1.845	2.553	1.888
520.0	69.44	55.71	78.24	87.20	141.2	109.6	130.4	328.8	 1954	953.8	140.6	138.8	135.9	119.3	109.8	93.81	86.01	78.60	77.20	72.01	68.33	69.97	67.52	67.46	68.83	66.00	65.35	64.38	68.65	68.85	68.44	65.32	57.05	54.26	50.21	45.87	44.10	40.57	35.37	32.78	30.40	25.80	23.92	25.37	29.89	25.27	17.15	14.03	12.12	10.66	8.518	8.135	6.688	6.709	6.211	10.43	34.28	97.45	254.2	 1449	 2498	559.5	12.92	3.072	2.351	2.216	2.166	1.891	2.086	2.002	1.658	1.559	2.200	1.805	1.651	2.347	1.993
525.0	60.53	57.60	79.20	77.85	126.9	122.9	109.3	161.0	 1178	 1849	206.6	131.8	122.8	115.3	98.24	87.22	78.80	70.98	70.34	66.96	61.09	62.24	64.79	61.12	61.31	58.31	56.36	59.60	61.33	61.74	61.11	60.82	53.50	51.34	45.79	43.35	40.20	36.09	32.61	29.77	28.37	23.45	21.21	22.55	24.97	26.66	19.46	14.48	12.00	9.752	8.708	7.703	7.115	6.453	5.567	6.395	12.14	25.41	60.49	369.5	 1673	 2188	98.07	5.110	2.497	2.126	2.182	1.770	2.208	2.076	1.941	1.866	1.844	1.930	1.949	2.108	2.124
530.0	63.74	51.01	67.13	69.07	96.79	129.6	102.8	107.4	397.9	 1888	857.7	127.5	112.4	102.3	91.04	82.87	71.23	64.22	62.26	57.83	56.24	56.49	56.46	52.76	52.50	51.85	51.80	51.03	52.98	52.11	53.56	52.43	48.56	43.78	41.05	38.81	35.08	33.39	30.64	26.96	24.66	22.34	20.34	19.39	18.88	22.09	22.66	16.53	11.41	9.387	8.182	7.501	6.961	5.632	5.864	5.276	6.628	9.548	17.22	86.04	421.7	 1293	 1670	417.0	27.57	2.499	2.050	2.192	1.925	1.759	1.768	1.619	1.713	1.765	1.910	1.756	1.911
535.0	72.53	70.77	62.74	78.39	83.47	114.4	110.5	97.99	160.5	779.3	 2058	347.0	103.4	93.49	79.71	71.67	63.28	53.53	54.10	50.76	49.62	50.71	47.50	45.65	46.77	44.59	45.85	45.42	46.86	45.77	45.15	44.86	42.12	39.30	35.94	34.26	31.65	28.79	25.85	24.52	22.67	19.91	19.14	17.69	15.97	16.68	18.35	18.81	12.60	9.576	8.254	7.205	7.091	5.911	5.543	5.041	5.331	5.666	7.372	22.28	96.86	293.3	720.0	 1811	640.4	24.30	2.668	2.165	1.946	1.944	1.927	1.970	1.667	1.696	1.929	1.983	1.900
540.0	75.36	55.50	70.21	66.35	70.49	92.28	133.0	83.56	102.5	266.7	 1880	931.8	95.48	83.58	71.50	63.93	56.58	51.98	50.44	46.18	45.56	43.44	42.24	41.05	40.44	40.28	42.00	41.47	41.00	42.59	40.45	41.34	35.30	35.16	32.40	30.24	28.52	26.17	24.59	22.57	21.69	18.52	17.18	16.14	14.64	13.18	15.05	18.31	14.74	10.46	7.578	7.008	6.452	6.004	5.713	5.303	4.645	4.571	4.676	8.185	24.53	68.44	172.1	974.5	 1802	456.0	7.542	2.513	1.989	2.027	1.725	2.032	1.799	1.862	1.834	2.106	1.637
545.0	79.49	56.86	64.17	75.02	67.22	74.14	128.8	89.75	86.38	123.8	 1006	 1896	177.5	74.01	64.34	58.12	53.34	47.27	44.94	40.27	40.82	38.13	38.08	39.24	38.26	35.85	36.32	36.83	37.05	37.34	36.51	38.65	33.32	31.91	28.62	27.33	25.05	24.21	23.14	19.95	18.76	17.50	16.18	14.23	13.58	12.96	12.54	14.90	15.56	12.14	8.003	6.318	6.318	5.649	5.673	4.694	4.877	4.691	4.238	5.065	8.580	17.74	41.11	248.5	 1214	 1526	90.00	3.352	1.777	2.160	1.846	1.894	1.620	1.943	1.646	1.796	1.876
550.0	64.97	52.43	59.22	62.12	54.99	60.17	109.5	106.9	75.00	85.12	317.9	 1724	 1011	76.32	55.56	49.55	42.25	40.37	38.56	35.28	33.78	32.24	32.74	33.08	31.77	31.64	30.90	31.04	31.67	33.89	31.49	31.02	28.15	26.95	24.88	23.20	22.16	19.73	19.82	17.20	16.11	15.33	13.68	12.50	11.13	11.06	10.34	10.99	12.75	12.50	8.645	6.104	5.867	5.141	4.990	4.522	4.549	4.255	4.088	4.178	4.746	6.523	11.83	57.92	309.8	931.7	977.8	355.9	19.16	2.004	1.918	1.673	1.740	1.952	1.776	1.585	1.610
555.0	56.00	58.92	59.47	51.84	57.13	61.55	76.57	119.2	80.79	70.79	122.9	630.8	 1920	305.5	51.84	44.55	36.61	33.66	31.76	29.99	28.37	26.64	27.13	26.85	26.42	28.39	24.93	26.21	25.85	26.06	26.77	25.70	22.83	22.33	21.47	19.46	19.14	17.20	16.80	14.13	12.97	12.71	11.61	10.12	9.480	9.746	8.781	8.886	8.130	10.32	10.04	6.152	5.093	4.743	4.319	4.216	4.159	4.139	3.965	3.548	3.740	4.146	4.770	15.24	71.05	211.6	490.3	 1236	462.4	12.00	1.852	1.890	1.934	1.842	1.831	1.735	1.839
560.0	62.08	54.62	52.83	46.44	50.70	55.69	59.41	104.0	94.26	61.61	73.47	194.6	 1643	752.8	46.72	38.32	34.67	30.51	27.90	26.17	23.19	24.65	23.06	21.99	22.85	23.15	22.75	22.56	22.18	24.25	22.00	23.14	20.54	18.77	17.33	16.43	15.78	15.03	13.87	12.99	11.26	11.23	10.40	9.075	8.707	8.316	7.935	7.335	6.686	8.424	9.129	7.015	4.495	4.221	4.079	3.604	3.574	3.876	3.669	3.565	3.194	2.839	3.049	5.303	17.51	49.27	120.4	709.7	 1134	97.47	3.964	1.530	1.568	1.747	1.846	1.671	1.691
565.0	45.66	69.02	54.83	52.72	47.28	46.68	55.10	77.29	104.4	58.00	57.79	85.31	778.3	 1720	125.5	31.73	28.83	27.96	25.84	20.40	21.30	20.57	20.03	18.50	18.56	21.97	18.58	20.20	19.14	19.35	18.01	18.22	17.64	16.87	15.44	13.81	14.03	12.98	11.58	11.23	10.44	9.560	9.324	9.025	7.281	7.135	7.565	6.186	6.125	6.328	8.130	7.749	5.262	4.083	3.697	3.068	3.666	3.541	3.321	3.607	3.359	2.588	3.049	3.027	5.573	12.83	28.98	187.5	823.9	770.1	72.21	1.817	1.570	1.932	1.796	1.948	1.617
570.0	55.63	55.21	56.55	49.76	47.69	37.65	44.68	50.68	91.58	73.28	48.35	58.20	231.9	 1503	873.8	37.21	25.59	23.46	21.06	19.18	19.85	18.22	18.00	16.71	16.00	16.62	16.18	15.88	16.43	16.72	16.37	15.36	15.35	14.65	12.24	12.07	11.64	10.78	10.12	9.692	8.831	7.758	7.947	7.714	6.352	6.626	6.239	5.371	5.348	4.983	5.283	6.356	5.897	4.568	3.199	3.265	2.992	3.200	2.982	3.145	2.981	2.886	2.845	2.743	3.292	4.885	8.095	43.67	214.4	553.6	667.9	219.7	9.387	1.845	1.774	1.850	1.578
575.0	59.29	63.24	56.33	53.33	33.17	41.45	40.54	37.53	63.58	95.92	53.81	44.03	81.10	509.2	 1717	223.0	23.40	22.36	17.79	16.89	16.66	16.43	15.58	14.11	13.96	13.12	13.65	12.98	13.82	15.00	13.42	13.63	12.74	11.93	10.86	10.77	9.974	9.469	8.805	7.711	7.370	6.923	6.759	6.978	5.931	5.430	5.093	4.833	4.397	4.213	4.210	4.321	4.875	4.439	3.042	3.185	2.703	2.573	2.952	2.752	2.486	2.642	2.460	2.603	2.691	3.007	3.269	11.71	48.97	127.1	337.2	724.9	100.5	5.933	2.109	1.952	1.770
580.0	54.12	64.05	41.30	45.92	39.63	36.37	36.29	35.82	44.72	91.99	55.37	38.37	48.26	146.8	 1414	567.7	24.34	19.82	17.67	14.54	13.76	14.83	13.00	12.48	12.86	11.94	12.24	11.64	11.66	11.24	12.14	10.47	10.35	10.25	9.753	8.287	8.567	8.139	7.349	6.682	6.984	5.616	5.628	5.712	5.471	5.151	4.334	4.648	4.267	3.535	3.589	3.591	4.092	4.556	3.201	3.059	2.794	2.661	2.781	2.300	2.077	2.351	2.656	2.646	2.243	2.687	2.192	4.247	12.55	30.04	84.06	441.3	607.9	81.64	3.045	1.643	1.932
585.0	68.65	59.64	55.37	50.54	38.29	38.07	33.99	39.32	36.56	79.81	74.28	43.08	37.63	60.77	658.2	 1388	79.93	17.21	15.57	12.75	13.82	13.74	12.48	9.933	11.08	10.45	10.69	10.03	10.49	9.828	9.420	9.555	8.641	9.443	8.562	7.561	7.165	7.495	6.641	6.275	6.507	5.567	5.430	5.295	5.079	4.498	4.223	4.178	3.836	3.330	3.140	3.414	3.295	4.280	3.759	3.077	2.706	2.497	2.451	2.307	2.109	2.553	2.691	2.311	1.947	2.340	2.108	2.682	4.288	8.107	20.72	119.5	487.2	494.0	54.63	1.879	1.940
590.0	60.87	54.06	46.35	44.21	41.45	34.73	34.55	33.40	35.47	48.98	92.10	50.78	36.41	39.62	185.0	 1189	614.4	19.80	13.25	11.30	11.70	11.46	10.59	9.666	8.938	9.285	9.475	8.064	9.263	8.666	8.992	9.273	7.650	8.128	7.211	6.838	6.422	6.497	5.793	5.471	5.678	4.932	4.341	4.968	4.215	4.105	3.787	3.481	3.208	3.017	2.836	2.744	2.719	2.985	3.498	3.464	3.082	2.464	2.298	2.157	2.198	2.288	2.076	2.294	2.217	1.999	2.010	2.323	2.352	3.337	6.271	28.40	130.5	353.3	398.6	63.95	5.701
595.0	58.40	43.98	50.91	44.23	44.69	34.48	34.73	32.53	27.95	38.43	77.60	72.27	36.34	31.77	56.96	389.1	 1226	140.3	12.38	10.89	10.58	10.27	10.43	8.406	8.489	9.660	8.458	8.316	7.886	7.378	8.236	7.432	7.236	6.901	6.278	6.747	4.875	4.950	5.146	4.151	4.797	4.102	4.198	4.067	3.739	3.600	3.104	2.891	2.850	2.540	2.130	2.798	2.554	2.231	2.737	3.537	2.912	2.402	2.221	2.016	1.867	2.586	1.838	2.087	1.963	1.945	2.008	2.196	2.010	2.354	2.744	7.814	30.57	81.77	215.2	426.5	91.50
600.0	68.83	59.30	47.20	40.39	42.85	36.82	35.53	29.83	29.83	31.50	54.73	84.93	38.07	32.83	31.11	106.6	 1022	411.6	11.20	10.19	9.372	9.605	8.925	7.984	7.284	7.607	8.083	7.435	7.975	7.024	7.408	6.316	6.964	5.861	5.968	5.606	5.589	5.428	4.658	4.191	4.302	4.156	3.690	3.707	4.028	3.458	3.115	2.914	2.603	2.405	1.968	2.392	1.972	2.361	2.207	3.194	2.867	2.737	2.133	1.980	1.709	1.810	2.035	1.992	2.095	1.952	2.219	1.813	1.663	2.061	2.131	3.222	8.367	19.72	54.72	282.1	369.0
605.0	64.72	53.69	50.44	37.90	42.11	34.21	29.60	30.15	30.55	31.70	43.55	82.06	49.08	34.11	25.72	39.24	482.1	938.3	47.67	9.412	8.744	8.551	9.084	7.819	6.632	6.582	7.128	6.947	6.992	6.828	6.309	5.630	5.629	5.663	6.248	4.845	5.086	4.109	4.443	4.322	3.563	3.366	3.732	2.975	3.202	3.162	3.097	2.919	2.424	2.060	1.682	2.227	2.187	2.333	2.071	2.165	2.876	3.135	2.188	2.067	2.056	1.834	1.584	1.808	1.587	2.156	2.138	1.962	1.930	1.955	2.048	2.411	3.192	5.884	13.85	79.66	308.6
610.0	61.04	61.04	46.39	38.58	38.10	31.30	32.78	29.88	23.28	28.89	36.02	62.49	63.95	32.86	22.73	21.52	131.7	839.4	440.0	12.24	8.403	7.778	7.527	6.699	6.724	6.156	6.446	6.078	6.183	5.754	6.405	5.360	4.823	4.692	5.112	4.598	4.480	4.036	4.017	4.011	3.664	3.362	3.161	2.924	2.910	3.137	2.513	2.520	2.511	2.075	1.898	2.106	1.982	1.862	2.058	1.933	2.695	3.058	2.338	1.914	1.695	1.866	1.592	1.937	1.742	1.999	1.996	1.850	1.974	1.857	1.836	1.648	1.995	2.607	4.538	18.97	85.47
615.0	62.53	63.28	59.07	39.35	31.64	33.67	30.11	25.50	25.11	25.22	33.12	41.06	67.39	39.86	23.19	17.43	39.36	290.6	913.6	97.22	7.261	6.557	6.203	5.205	6.773	5.235	5.018	5.550	5.399	5.200	5.087	4.688	4.643	4.582	4.412	4.290	4.461	3.699	3.910	3.507	3.344	3.111	3.017	2.518	2.523	2.761	2.433	2.353	2.083	1.847	1.700	2.002	1.873	1.960	1.727	1.577	2.196	2.546	2.488	2.250	1.765	1.790	1.632	1.807	2.117	1.485	1.858	2.155	1.879	2.031	1.586	1.752	1.689	1.851	2.415	5.500	20.50
620.0	69.31	59.40	51.74	38.91	36.97	28.92	27.71	25.18	25.92	29.36	31.37	30.48	56.49	50.64	20.47	18.00	17.45	77.68	785.1	324.4	7.858	7.368	6.502	5.514	4.751	5.081	4.208	5.020	5.748	5.596	5.641	4.570	4.698	5.089	3.982	3.991	4.165	3.683	3.834	3.106	3.007	2.711	2.217	2.617	2.436	2.374	2.347	2.190	1.958	1.783	1.617	1.947	1.609	1.671	1.883	1.842	2.029	2.055	2.326	2.214	1.788	1.571	1.747	1.491	1.845	1.813	1.846	1.769	1.631	1.837	1.666	1.541	1.530	1.561	1.744	2.098	5.859
625.0	60.35	46.49	50.47	31.74	31.21	36.80	30.32	27.42	24.81	28.22	27.65	33.45	44.84	62.64	25.24	18.51	14.87	24.45	387.9	737.3	30.04	6.953	6.070	4.991	4.212	4.669	5.111	5.133	5.015	4.765	4.535	4.862	4.313	3.957	4.365	4.020	4.227	4.033	3.229	2.947	2.841	2.765	2.549	2.447	2.314	2.256	2.171	1.968	1.821	1.636	1.545	1.585	1.846	1.667	1.810	1.537	1.858	1.980	2.342	2.069	1.986	2.050	1.812	1.364	1.591	1.724	1.702	1.920	1.755	1.883	1.885	1.467	1.456	1.832	1.532	1.631	2.875
630.0	55.58	48.34	50.13	44.69	31.22	35.52	29.89	28.00	25.19	25.73	27.97	31.95	36.44	57.12	32.57	17.54	12.32	12.94	107.1	694.4	326.4	8.596	5.898	5.082	5.200	4.489	4.290	4.472	4.475	3.943	4.405	4.230	4.402	3.807	3.707	3.906	4.119	3.744	3.470	2.970	2.637	2.496	2.436	2.345	2.374	2.292	1.962	2.103	1.706	1.588	1.588	1.641	1.620	1.943	1.713	1.529	1.885	1.670	1.922	2.002	2.097	2.084	1.848	1.412	1.454	1.312	1.806	1.681	1.832	1.748	1.959	1.510	1.727	1.587	1.531	1.525	1.675
635.0	55.96	67.23	39.27	41.74	37.64	30.63	24.16	27.68	26.24	25.02	27.37	31.67	30.24	40.06	45.63	18.84	11.22	11.46	31.85	248.6	724.9	70.50	5.593	4.694	5.023	4.493	3.943	4.345	4.884	4.765	4.019	4.140	3.729	3.722	3.351	3.442	3.492	3.028	3.130	3.103	2.678	2.689	2.404	2.108	2.325	1.917	1.772	2.034	1.800	1.451	1.601	1.316	1.439	1.657	1.525	1.422	1.849	1.735	1.669	1.713	2.051	2.219	1.681	1.566	1.449	1.392	1.806	1.379	1.540	1.607	2.046	1.596	1.833	1.719	1.601	1.682	1.444
640.0	47.74	57.92	46.75	36.85	35.85	26.27	26.20	21.82	27.61	27.88	28.44	27.99	27.57	30.18	48.05	20.57	13.44	10.77	15.45	66.93	654.8	260.6	5.951	4.459	5.157	3.871	3.887	3.757	4.029	3.988	4.434	3.444	3.680	3.774	3.447	3.466	2.675	3.270	2.757	2.921	2.656	2.405	2.354	2.487	1.820	1.822	1.633	1.686	1.707	1.533	1.411	1.226	1.457	1.583	1.416	1.431	1.680	1.620	1.658	1.555	1.648	1.976	1.993	1.500	1.631	1.592	1.580	1.314	1.572	1.761	1.653	2.032	1.584	1.914	1.565	1.434	1.492
645.0	51.09	64.69	46.04	37.23	36.40	27.35	25.93	22.17	27.29	25.44	30.07	29.09	25.75	26.71	42.59	28.41	11.89	10.72	9.496	22.12	343.0	573.0	20.86	4.502	5.367	4.534	4.710	4.180	4.491	3.838	3.666	3.622	3.848	3.669	2.873	2.987	2.790	2.892	2.632	2.287	2.484	2.048	2.283	2.180	1.577	2.285	1.661	1.978	1.372	1.515	1.481	1.469	1.569	1.743	1.318	1.590	1.502	1.682	1.374	1.516	1.725	1.691	1.554	1.510	1.520	1.568	1.355	1.236	1.609	1.669	1.781	1.669	1.448	1.596	1.400	1.604	1.143
650.0	50.72	50.77	35.00	35.32	33.37	32.22	25.04	23.06	28.84	26.57	26.38	28.88	29.71	26.22	32.55	34.94	13.60	9.942	9.428	10.74	107.2	668.3	129.6	5.161	5.032	4.747	4.841	3.759	4.185	3.905	3.470	3.294	3.912	3.269	3.089	3.090	3.150	3.258	2.931	2.626	2.787	2.209	2.481	2.093	1.873	2.119	1.866	1.689	1.609	1.390	1.346	1.348	1.413	1.487	1.667	1.465	1.719	1.625	1.564	1.665	1.785	1.612	1.675	1.570	1.580	1.917	1.632	1.495	1.587	1.380	1.498	1.497	1.595	1.939	1.326	1.426	1.688
