Sample:	'1
File name:	c2025052203引河塌河交汇处.FD3
Run date:	'12:38:19, 05/23/2025
Operator:	Administrator
Comment:	'

Instrument
Model:	F-2700 FL Spectrophotometer
Serial number:	23B8-004
ROM Version:	4J14000 07

Instrument parameters
Measurement type:	3-D scan
Data mode:	Fluorescence
EX  Start WL:	220.0 nm
EX  End WL:	600.0 nm
EX Sampling interval:	5.0 nm
EM  Start WL:	230.0 nm
EM  End WL:	650.0 nm
EM Sampling interval:	5.0 nm
Scan speed:	12000 nm/min
EX Slit:	5.0 nm
EM Slit:	5.0 nm
PMT Voltage:	700 V
Response:	Auto 
Corrected spectra:	Off
Contour interval:	50.000

Peak integration
Integration method:	Rectangular
Sensitivity:	1
Threshold:	1.000

Peaks
No.	ApexEX/EM(nm)	Height(Data)
1	225.0/560.0	88.71
2	225.0/580.0	89.67
3	225.0/605.0	85.63
4	225.0/625.0	84.03
5	230.0/340.0	2626
6	240.0/520.0	267.4
7	245.0/535.0	220.0
8	250.0/545.0	172.9
9	255.0/280.0	557.9
10	255.0/560.0	151.8
11	260.0/285.0	565.8
12	260.0/570.0	120.0
13	265.0/585.0	117.1
14	270.0/600.0	107.0
15	275.0/410.0	1094
16	275.0/610.0	118.5
17	280.0/325.0	1834
18	280.0/620.0	115.8
19	285.0/635.0	90.13
20	460.0/335.0	7.351
21	505.0/275.0	3.166
22	510.0/280.0	3.392
23	520.0/285.0	3.807
24	550.0/305.0	8.500
25	565.0/310.0	8.997
26	570.0/315.0	9.512
27	580.0/320.0	9.625
28	585.0/325.0	9.460

Data points
	220.0	225.0	230.0	235.0	240.0	245.0	250.0	255.0	260.0	265.0	270.0	275.0	280.0	285.0	290.0	295.0	300.0	305.0	310.0	315.0	320.0	325.0	330.0	335.0	340.0	345.0	350.0	355.0	360.0	365.0	370.0	375.0	380.0	385.0	390.0	395.0	400.0	405.0	410.0	415.0	420.0	425.0	430.0	435.0	440.0	445.0	450.0	455.0	460.0	465.0	470.0	475.0	480.0	485.0	490.0	495.0	500.0	505.0	510.0	515.0	520.0	525.0	530.0	535.0	540.0	545.0	550.0	555.0	560.0	565.0	570.0	575.0	580.0	585.0	590.0	595.0	600.0
230.0	77.36	1516	3718	1250	52.00	9.500	7.186	5.884	5.799	4.903	4.748	4.254	3.896	3.514	2.844	2.690	2.083	1.906	1.715	1.599	1.468	1.327	1.313	1.109	1.167	0.951	0.946	0.901	0.920	0.859	0.804	0.780	0.703	0.697	0.623	0.622	0.595	0.546	0.497	0.521	0.604	0.728	0.691	0.543	0.455	0.458	1.976	8.061	13.59	9.681	3.329	0.754	0.377	0.366	0.347	0.321	0.328	0.355	0.358	0.328	0.318	0.335	0.302	0.357	0.337	0.328	0.306	0.314	0.302	0.297	0.344	0.320	0.324	0.326	0.312	0.310	0.311
235.0	133.4	419.5	2224	3791	624.6	82.52	8.733	7.756	6.396	5.680	5.017	5.159	4.335	3.472	2.904	2.738	2.370	1.967	2.055	1.544	1.431	1.428	1.268	1.228	1.088	0.945	0.929	0.915	0.823	0.778	0.722	0.806	0.743	0.830	0.592	0.642	0.630	0.611	0.535	0.539	0.539	0.593	0.700	0.752	0.655	0.477	0.764	2.259	5.242	9.563	12.84	13.05	6.554	1.344	0.376	0.323	0.352	0.350	0.317	0.348	0.357	0.309	0.336	0.347	0.311	0.325	0.340	0.305	0.381	0.278	0.316	0.319	0.380	0.342	0.375	0.312	0.371
240.0	183.1	208.4	661.0	3054	4017	506.8	42.46	8.927	6.676	6.348	5.576	5.327	4.620	3.803	3.092	2.455	2.410	2.121	1.905	1.563	1.504	1.613	1.304	1.174	1.017	0.958	1.065	0.969	0.998	0.936	0.821	0.757	0.724	0.745	0.568	0.554	0.631	0.533	0.595	0.540	0.551	0.531	0.538	0.580	0.814	0.947	0.642	0.962	1.466	2.971	6.964	16.31	20.80	14.09	5.046	0.832	0.446	0.350	0.383	0.328	0.319	0.301	0.345	0.357	0.288	0.341	0.340	0.296	0.333	0.276	0.315	0.306	0.346	0.383	0.376	0.302	0.312
245.0	131.9	247.3	223.7	1016	4211	3779	383.0	20.38	9.295	7.502	6.625	5.343	4.937	3.749	3.473	2.953	2.499	2.140	1.928	1.797	1.359	1.619	1.236	1.294	1.110	1.014	1.014	0.996	1.102	0.880	0.957	0.848	0.740	0.746	0.558	0.558	0.586	0.563	0.589	0.568	0.571	0.557	0.533	0.513	0.675	0.855	0.874	0.979	0.703	0.996	1.916	5.419	14.49	23.95	24.26	13.06	3.692	0.473	0.347	0.382	0.308	0.369	0.318	0.381	0.359	0.323	0.359	0.310	0.352	0.368	0.327	0.296	0.339	0.376	0.409	0.305	0.328
250.0	65.37	158.4	250.4	325.1	1301	3809	4733	1445	99.66	10.34	8.168	6.682	5.345	4.390	3.429	2.975	2.557	2.148	2.015	1.688	1.623	1.537	1.246	1.276	1.237	1.091	1.190	1.004	1.012	0.913	0.860	0.846	0.775	0.758	0.627	0.616	0.649	0.571	0.567	0.572	0.529	0.555	0.548	0.519	0.511	0.592	0.646	0.936	0.986	1.051	0.923	1.588	3.666	7.571	14.42	21.44	27.21	20.64	12.24	3.944	0.642	0.365	0.350	0.360	0.387	0.350	0.369	0.334	0.373	0.352	0.333	0.314	0.333	0.325	0.377	0.350	0.367
255.0	48.16	67.62	157.1	320.5	383.9	955.3	3610	8033	2063	118.1	11.28	9.597	7.722	5.570	4.315	3.636	2.924	2.708	2.073	1.926	1.699	1.596	1.474	1.302	1.097	1.110	1.231	1.121	1.091	0.964	0.830	0.893	0.757	0.743	0.614	0.719	0.694	0.648	0.715	0.527	0.493	0.552	0.507	0.516	0.521	0.496	0.569	0.535	0.626	0.931	1.299	1.606	1.438	2.079	3.615	5.340	10.00	23.44	43.80	30.82	19.38	4.188	0.587	0.401	0.416	0.389	0.386	0.326	0.414	0.364	0.356	0.331	0.399	0.390	0.324	0.327	0.350
260.0	39.12	44.44	70.64	254.7	334.5	285.8	1059	6054	9479	1636	69.46	12.28	8.939	7.316	5.317	4.282	3.210	3.071	2.216	2.310	1.768	1.660	1.534	1.487	1.276	1.229	1.193	1.135	1.017	0.976	0.961	0.930	0.708	0.763	0.721	0.711	0.623	0.623	0.572	0.603	0.584	0.592	0.657	0.533	0.518	0.442	0.507	0.490	0.482	0.566	0.940	1.585	1.879	1.379	1.341	1.654	2.604	6.529	18.55	38.49	59.06	29.77	15.66	2.196	0.588	0.449	0.422	0.400	0.395	0.386	0.374	0.366	0.374	0.344	0.310	0.360	0.377
265.0	40.73	38.43	37.51	118.4	344.0	278.5	296.8	1916	8911	9999.9	1191	33.86	11.66	8.868	6.355	5.079	3.565	3.389	2.649	2.496	1.977	1.829	1.633	1.638	1.374	1.185	1.217	1.271	1.203	1.007	1.046	1.022	0.736	0.836	0.770	0.688	0.647	0.649	0.615	0.667	0.580	0.654	0.601	0.603	0.552	0.403	0.555	0.560	0.474	0.411	0.539	0.903	1.793	2.153	1.597	1.038	1.030	1.856	4.709	11.47	30.97	56.47	70.71	26.69	9.983	1.102	0.464	0.404	0.487	0.404	0.415	0.371	0.377	0.397	0.356	0.401	0.359
270.0	67.29	55.32	46.30	57.88	180.5	363.9	329.4	506.0	2651	8355	9999.9	4067	78.00	13.78	8.915	6.871	4.580	3.723	3.204	2.792	2.258	1.972	1.886	1.637	1.526	1.352	1.258	1.406	1.261	1.177	1.101	1.024	0.793	0.941	0.844	0.801	0.678	0.704	0.669	0.646	0.607	0.643	0.640	0.624	0.551	0.541	0.552	0.553	0.498	0.415	0.468	0.621	0.901	1.328	1.829	2.060	1.997	1.474	1.679	3.122	7.721	16.25	33.52	50.38	66.63	56.73	18.14	8.500	1.288	0.479	0.460	0.501	0.411	0.451	0.400	0.400	0.412
275.0	136.7	114.6	90.59	67.64	96.33	197.2	473.6	391.3	664.8	2008	6309	9999.9	5693	93.03	14.38	9.266	7.059	4.824	3.715	3.234	2.514	2.358	2.134	1.637	1.692	1.436	1.414	1.512	1.454	1.281	1.225	1.078	1.134	0.905	0.896	0.829	0.866	0.826	0.708	0.802	0.702	0.746	0.667	0.688	0.760	0.716	0.686	0.674	0.652	0.509	0.553	0.577	0.622	0.782	0.955	1.304	2.313	3.166	2.419	1.600	2.340	4.248	8.061	12.02	19.37	39.39	80.87	100.3	29.57	10.92	0.861	0.504	0.516	0.489	0.428	0.419	0.437
280.0	220.6	214.3	150.8	101.4	96.00	129.0	300.9	557.9	357.6	538.7	1707	8930	9999.9	1120	58.24	12.22	8.131	5.810	4.265	3.994	3.371	2.773	2.241	2.015	1.982	1.714	1.751	1.473	1.480	1.231	1.267	1.253	1.043	0.962	1.049	0.952	0.967	1.004	0.867	0.857	0.829	0.834	0.836	0.904	0.972	0.914	0.939	0.948	0.755	0.587	0.608	0.674	0.656	0.625	0.830	0.951	1.299	2.370	3.392	3.259	1.939	1.665	2.424	3.450	5.162	10.04	26.67	66.01	100.4	100.9	24.80	6.246	0.626	0.499	0.521	0.492	0.549
285.0	318.4	337.1	244.0	154.7	107.5	118.0	178.2	446.2	565.8	296.9	515.4	2558	9999.9	9999.9	814.1	28.88	11.18	7.928	5.387	4.649	3.777	3.151	2.661	2.326	1.930	1.724	1.790	1.630	1.423	1.371	1.262	1.269	1.146	1.088	1.144	1.058	1.152	1.130	0.962	1.115	0.996	1.069	1.040	1.037	1.141	1.207	1.131	1.172	1.026	0.811	0.738	0.793	0.762	0.679	0.777	0.878	1.071	1.271	1.826	3.071	3.807	2.539	1.656	1.551	2.011	3.214	6.890	16.91	38.25	84.65	113.9	34.95	19.04	2.729	0.661	0.584	0.515
290.0	475.8	486.2	395.1	253.9	160.4	147.1	168.3	261.1	526.9	628.3	424.8	806.4	2926	9679	9999.9	3042	49.94	11.59	8.089	6.071	4.531	3.298	3.180	2.635	2.325	2.051	1.911	1.772	1.646	1.508	1.431	1.322	1.153	1.149	1.179	1.220	1.297	1.309	1.303	1.332	1.214	1.154	1.295	1.272	1.499	1.560	1.490	1.615	1.497	1.279	0.987	1.029	0.973	0.944	0.881	1.006	1.046	1.120	1.167	1.704	2.535	3.354	3.616	3.321	2.336	2.273	2.955	5.137	10.05	21.69	40.54	54.65	84.10	67.99	58.85	14.02	3.968
295.0	673.2	670.5	566.0	377.6	240.8	200.5	215.6	257.7	367.2	678.2	907.9	629.6	1004	2436	5490	9999.9	4403	60.39	12.77	8.393	5.907	4.063	3.534	3.104	2.813	2.358	1.975	1.733	1.704	1.616	1.469	1.312	1.425	1.351	1.174	1.246	1.578	1.692	1.570	1.528	1.394	1.581	1.615	1.670	1.750	1.960	1.946	2.047	2.030	1.704	1.343	1.304	1.134	1.040	1.192	1.193	1.170	1.259	1.557	1.567	1.996	2.232	2.726	4.284	5.490	4.617	3.206	3.311	4.308	6.850	10.55	13.75	21.31	30.05	75.24	118.2	92.76
300.0	790.9	852.9	735.6	505.7	334.8	281.4	320.9	370.4	452.0	659.0	1182	1059	797.3	958.2	1607	7762	9999.9	679.5	40.14	11.04	7.412	5.494	4.602	3.542	3.070	2.684	2.021	2.066	1.865	1.773	1.670	1.454	1.356	1.295	1.425	1.426	1.784	1.688	1.791	1.782	1.479	1.789	1.909	1.933	1.913	2.210	2.379	2.635	2.402	1.935	1.714	1.768	1.684	1.365	1.593	1.492	1.556	1.804	2.075	2.202	2.436	2.610	2.768	3.767	4.869	6.517	6.289	4.576	3.751	4.222	4.861	5.260	6.819	8.605	21.04	53.30	104.9
305.0	954.5	1056	920.7	630.9	424.2	395.1	440.8	556.2	671.1	893.1	1265	1681	1206	897.2	853.3	2325	9999.9	9999.9	528.5	20.97	9.490	6.829	5.084	4.219	3.367	2.827	2.371	2.267	1.990	1.921	1.798	1.526	1.512	1.338	1.446	1.464	1.895	1.982	2.062	2.085	1.751	2.020	2.124	2.307	2.378	2.560	2.666	3.104	3.003	2.388	2.161	2.180	1.983	1.899	1.859	1.860	2.218	2.356	2.447	3.030	3.258	3.284	4.018	4.659	5.125	6.375	8.500	8.476	6.874	5.594	4.879	4.855	4.583	4.938	7.136	14.29	32.21
310.0	1132	1259	1119	779.7	538.3	501.7	572.1	711.7	858.5	1083	1357	1696	1783	1221	881.1	960.0	2915	8568	8993	2165	35.31	9.683	6.950	5.129	3.915	3.362	2.801	2.485	2.129	2.238	1.799	1.580	1.582	1.403	1.532	1.565	1.960	2.234	2.179	2.297	2.111	2.297	2.323	2.569	2.694	3.069	3.150	3.541	3.611	2.940	2.531	2.591	2.408	2.211	2.280	2.291	2.709	3.032	3.243	3.806	3.856	4.326	5.010	5.628	5.928	6.572	7.669	8.396	8.900	8.997	7.374	6.096	5.401	5.146	4.937	5.956	9.554
315.0	1278	1523	1374	933.9	659.7	607.3	661.0	820.1	967.1	1208	1470	1703	1808	1739	1121	756.3	1042	2169	4984	9999.9	3194	40.52	9.909	7.225	4.881	4.061	3.344	2.842	2.514	2.654	1.883	1.669	1.632	1.554	1.457	1.735	2.046	2.238	2.332	2.321	2.278	2.527	2.594	2.678	3.107	3.716	3.765	4.129	4.226	3.506	2.910	2.877	2.709	2.725	2.802	2.728	3.177	3.556	3.627	3.950	4.315	4.933	5.678	6.230	6.848	6.833	7.643	8.209	8.585	8.960	9.512	9.118	7.300	6.159	4.947	4.469	5.012
320.0	1437	1817	1636	1070	765.0	661.2	735.8	884.3	1035	1295	1560	1772	1804	1795	1481	821.7	669.1	752.0	1303	7067	9999.9	505.7	26.13	9.172	6.150	5.005	3.912	3.436	2.873	2.578	2.126	1.752	1.632	1.631	1.601	1.903	2.092	2.222	2.403	2.271	2.505	2.605	2.852	2.954	3.456	3.864	4.285	5.399	4.912	4.135	3.315	3.243	2.951	2.753	2.833	2.794	3.405	3.729	3.967	4.174	4.631	5.099	6.124	6.430	6.928	6.996	7.606	8.332	8.722	8.551	8.944	9.307	9.625	8.383	5.677	4.644	4.583
325.0	1648	2084	2020	1337	860.5	712.6	767.5	924.3	1068	1328	1610	1811	1834	1692	1605	1002	627.5	457.7	416.8	1924	9305	9999.9	402.8	14.70	8.459	6.194	4.131	3.657	3.284	2.885	2.524	2.018	1.766	1.690	1.563	1.673	2.077	2.285	2.288	2.445	2.585	2.526	2.982	3.183	3.913	4.435	4.851	6.187	5.915	4.785	4.092	3.905	3.453	2.972	2.972	2.965	3.535	3.995	3.998	4.366	4.823	5.090	5.833	6.521	7.071	7.629	7.584	8.610	9.394	8.889	8.685	8.439	8.768	9.460	7.934	5.925	4.447
330.0	1830	2346	2391	1703	1065	807.9	789.1	931.4	1082	1326	1600	1815	1826	1658	1445	1167	774.4	434.2	259.8	532.9	2513	7632	7443	1714	28.28	8.477	5.780	4.751	3.832	3.181	2.725	2.278	2.221	1.889	1.839	1.813	2.132	2.362	2.397	2.428	2.545	2.691	3.091	3.483	4.109	5.020	5.624	6.700	6.679	6.103	5.147	5.119	4.401	3.536	3.473	3.206	3.753	3.937	4.127	4.465	4.735	5.431	6.044	6.623	7.085	7.584	7.982	8.325	8.869	8.959	8.576	8.165	8.058	8.030	7.466	7.159	6.373
335.0	1901	2489	2566	1956	1259	911.6	821.0	937.4	1077	1299	1565	1765	1796	1623	1367	1049	926.6	564.8	273.8	261.6	659.5	1802	4676	9999.9	2576	33.42	8.344	5.998	4.242	3.535	3.139	2.382	2.256	1.991	1.944	1.820	2.082	2.320	2.436	2.572	2.576	3.000	3.098	3.416	4.381	5.396	6.091	7.308	7.351	6.717	5.816	5.750	5.040	4.065	3.945	3.428	3.734	3.983	4.197	4.375	4.580	5.331	5.603	6.578	7.093	7.482	7.753	8.562	8.572	8.358	8.601	7.962	7.800	7.802	6.533	6.040	6.082
340.0	1915	2508	2626	2048	1355	961.1	844.1	919.1	1055	1267	1519	1693	1727	1580	1323	998.4	840.0	712.4	345.8	230.0	267.1	487.3	1215	7112	9999.9	425.4	20.78	7.541	5.116	3.957	3.317	2.723	2.293	1.979	1.954	1.829	1.906	2.406	2.404	2.446	2.487	2.951	2.971	3.225	4.092	5.280	6.057	7.231	7.312	6.767	5.731	6.041	5.333	4.312	4.081	3.602	3.796	3.947	4.150	4.407	4.504	5.186	5.877	6.186	6.441	6.790	7.398	8.072	8.056	8.282	8.130	7.970	7.525	7.106	6.512	5.649	5.495
345.0	1808	2488	2571	2046	1401	976.8	850.2	914.1	1027	1211	1423	1604	1633	1504	1272	958.9	752.1	696.1	486.7	256.8	202.4	217.2	347.3	1970	9034	8917	341.0	11.56	6.599	5.054	3.738	3.178	2.520	1.978	1.956	1.943	1.908	2.223	2.268	2.251	2.624	2.681	3.086	3.519	4.177	5.021	5.741	6.850	7.302	6.938	6.021	6.075	5.376	4.348	4.298	3.569	3.820	3.975	4.023	4.202	4.314	4.908	5.579	5.459	6.387	6.482	6.869	7.525	7.756	7.706	7.489	7.915	7.373	6.832	6.388	5.769	5.332
350.0	1701	2256	2375	1977	1409	1020	866.6	900.2	992.1	1149	1319	1467	1494	1388	1194	918.9	714.6	599.9	547.6	408.6	247.2	194.6	185.8	513.3	2506	7060	6365	1441	23.49	6.925	4.938	3.649	2.812	2.291	2.122	1.935	1.908	2.126	2.196	2.196	2.454	2.487	2.958	3.198	3.715	4.745	5.298	6.331	6.644	6.381	5.709	5.880	5.499	4.749	4.558	3.842	3.949	4.044	4.151	4.270	4.321	5.029	5.299	5.614	5.880	6.140	6.492	6.735	7.112	7.073	7.151	7.139	6.784	6.438	6.092	5.570	5.053
355.0	1512	1986	2112	1808	1393	1042	898.8	897.8	959.2	1098	1225	1351	1364	1278	1127	893.7	713.0	583.1	497.5	512.7	381.9	238.7	188.9	219.9	628.7	1660	4445	9863	2140	27.07	6.916	4.656	3.239	2.759	2.397	2.149	2.047	2.229	2.177	2.249	2.405	2.520	2.822	3.065	3.457	4.139	4.730	5.775	6.032	5.952	5.430	5.725	5.391	4.783	4.490	3.872	3.922	4.122	3.929	4.071	4.540	4.650	5.087	5.429	5.484	5.530	5.833	6.161	6.627	6.428	6.585	6.593	6.427	6.275	5.432	5.485	4.863
360.0	1447	1804	1926	1705	1373	1069	918.7	904.7	967.8	1052	1176	1261	1275	1204	1070	871.3	716.1	596.8	498.5	486.1	488.3	316.3	218.4	179.4	231.9	433.6	1178	6953	9287	388.6	16.45	6.145	4.268	3.319	2.461	2.250	2.270	2.098	2.076	2.052	2.259	2.224	2.522	2.896	3.173	3.795	4.546	5.347	5.552	5.390	4.688	5.492	5.093	4.778	4.327	3.950	4.087	4.118	4.071	4.094	4.437	4.679	4.968	5.158	5.542	5.615	5.640	5.641	5.932	6.077	6.237	6.220	6.188	5.935	5.312	5.340	4.708
365.0	1332	1654	1800	1616	1324	1070	941.4	912.7	958.0	1032	1134	1190	1200	1132	1019	855.8	724.2	607.7	517.2	474.0	491.7	430.5	267.9	196.2	168.8	179.3	322.2	1991	8657	7645	300.9	10.20	5.661	3.802	2.984	2.438	2.298	2.372	2.078	2.080	2.165	2.443	2.681	2.695	3.118	3.518	4.153	4.627	5.325	5.110	4.659	5.309	5.228	4.875	4.335	4.163	4.245	4.303	3.991	4.289	4.427	4.340	4.837	5.037	5.475	5.413	5.582	5.440	5.751	5.815	5.749	5.973	5.959	5.524	5.374	4.985	5.017
370.0	1225	1498	1638	1508	1294	1077	949.0	930.8	946.3	1020	1091	1125	1125	1074	968.5	830.9	725.5	635.3	552.7	499.6	466.9	476.3	397.7	257.6	193.3	156.3	157.3	508.2	2478	6741	6039	1270	20.92	5.897	3.890	3.074	2.484	2.498	2.253	2.306	2.262	2.275	2.598	2.555	3.190	3.473	3.751	4.410	4.843	4.461	4.373	4.944	4.869	4.782	4.467	4.201	4.165	4.228	4.231	4.267	4.377	4.460	4.603	5.174	5.200	5.398	5.253	5.258	5.472	5.412	5.586	5.530	5.576	5.627	5.073	4.780	4.851
375.0	1099	1395	1482	1427	1229	1076	963.1	939.9	961.0	1001	1059	1081	1081	1028	922.6	811.4	726.5	654.2	589.7	533.9	486.0	457.4	465.4	381.2	251.3	192.0	162.8	213.7	623.1	1610	4609	8885	1816	23.26	5.776	4.110	3.032	2.865	2.524	2.433	2.250	2.385	2.351	2.751	3.061	3.311	3.634	4.067	4.227	4.154	4.135	4.807	4.620	4.705	4.388	4.048	4.093	4.177	4.240	4.259	4.356	4.666	4.608	5.121	5.033	5.183	5.513	4.994	5.222	5.388	5.324	5.298	5.399	5.192	5.050	4.751	4.931
380.0	1073	1301	1411	1357	1234	1100	979.2	949.9	958.3	1004	1037	1059	1043	1002	896.8	798.5	722.7	660.5	605.4	553.5	512.8	464.6	451.3	457.3	323.9	231.3	190.7	177.4	233.3	432.0	1266	6573	7881	322.3	12.86	5.113	3.643	3.058	2.751	2.427	2.355	2.372	2.359	2.551	2.781	3.141	3.304	3.907	4.184	4.045	3.992	4.579	4.533	4.432	4.714	4.115	4.184	4.251	4.240	4.426	4.318	4.450	4.801	4.794	5.244	4.930	5.227	4.949	5.210	4.940	5.162	4.958	5.044	5.018	4.960	4.696	4.680
385.0	1013	1246	1347	1267	1214	1102	984.6	949.5	955.4	991.6	1018	1037	1026	967.1	871.7	778.3	713.7	668.1	623.5	573.9	525.8	476.5	444.1	454.2	410.9	282.1	229.0	194.2	168.7	187.5	364.3	1938	7462	5986	242.2	7.901	4.494	3.527	2.754	2.574	2.434	2.429	2.490	2.339	2.859	3.142	3.169	3.729	3.966	3.490	3.940	4.224	4.536	4.419	4.708	4.054	4.191	4.478	4.184	4.310	4.514	4.365	4.656	4.498	4.847	4.973	4.872	5.085	4.782	5.177	5.248	4.957	4.984	4.822	4.635	4.611	4.809
390.0	949.5	1161	1244	1225	1165	1094	985.9	948.4	948.8	974.4	998.0	991.0	982.7	937.3	841.2	764.3	704.3	663.2	625.6	586.7	545.2	502.3	462.3	439.5	433.8	378.8	283.8	229.0	185.4	161.0	179.7	509.7	2140	5287	4602	1007	17.60	5.642	3.828	3.088	2.623	2.524	2.445	2.455	2.706	3.027	3.027	3.566	3.663	3.433	3.566	4.303	4.441	4.399	4.434	4.155	4.492	4.353	4.233	4.151	4.399	4.430	4.618	4.629	4.683	4.837	4.559	4.819	4.732	4.799	4.851	4.769	4.736	4.606	4.371	4.602	4.529
395.0	929.1	1079	1180	1156	1137	1064	987.2	971.0	955.1	974.7	995.5	990.4	973.0	934.8	834.7	755.3	703.9	662.1	624.2	595.5	559.3	534.3	495.2	465.0	430.1	437.1	391.8	293.1	237.0	197.0	178.7	218.3	544.8	1267	3435	6571	1509	22.00	5.948	3.905	2.827	2.723	2.547	2.806	2.822	3.012	2.938	3.259	3.691	3.470	3.411	4.065	4.345	4.390	4.646	4.349	4.370	4.421	4.347	4.529	4.317	4.298	4.614	4.745	4.725	4.556	4.532	4.619	4.763	4.772	4.920	4.729	4.452	4.519	4.755	4.582	4.522
400.0	876.5	1046	1157	1118	1103	1050	998.6	982.3	965.2	995.7	1021	1021	999.2	943.7	842.5	766.0	703.8	661.5	625.1	604.2	572.7	554.4	527.3	501.6	464.3	450.9	466.6	380.4	297.0	250.3	219.4	191.9	219.4	352.5	944.2	4728	5931	280.0	14.23	5.042	3.589	3.131	2.823	2.666	2.756	2.997	3.036	3.537	3.628	3.411	3.272	4.298	4.303	4.122	4.439	4.390	4.358	4.614	4.638	4.652	4.553	4.321	4.957	4.670	4.611	4.857	4.600	4.707	4.432	4.738	4.815	4.635	4.430	4.330	4.752	4.564	4.532
405.0	875.4	1045	1097	1103	1085	1037	976.2	965.7	987.9	1023	1067	1056	1039	967.6	863.3	775.2	697.4	661.8	631.5	610.6	592.5	575.0	554.8	537.9	510.1	481.0	496.4	478.9	370.7	309.4	275.5	228.0	180.7	174.8	287.1	1388	5370	4586	220.5	8.289	4.341	3.607	2.845	2.734	2.917	2.957	2.948	3.292	3.537	3.340	3.379	3.949	4.236	4.164	4.597	4.425	4.443	4.892	4.492	4.827	4.510	4.491	4.833	4.705	4.747	4.930	4.681	4.599	4.669	4.920	5.059	5.006	4.601	4.492	4.956	4.643	4.542
410.0	850.8	977.2	1057	1066	1046	1026	983.8	984.9	1009	1043	1084	1094	1061	989.5	878.3	783.0	700.8	647.6	622.4	610.6	595.6	586.9	576.2	567.9	544.9	518.6	509.4	510.3	466.8	385.6	328.4	273.4	207.0	165.6	164.0	389.4	1542	3909	3596	921.2	15.50	4.530	3.318	3.301	3.072	3.114	2.988	3.342	3.474	3.346	3.227	3.985	4.215	4.119	4.370	4.193	4.357	4.751	4.517	4.606	4.676	4.739	4.839	4.721	4.903	4.883	4.665	4.699	4.801	4.882	4.993	4.887	4.637	4.644	4.707	4.466	4.371
415.0	801.1	958.3	999.8	999.3	984.4	978.5	955.4	970.5	986.5	1034	1067	1063	1024	957.4	850.5	752.7	672.1	620.5	605.0	589.0	574.6	573.7	570.7	566.2	548.5	531.7	507.6	493.1	483.5	445.3	360.2	293.2	224.8	173.8	146.1	170.6	403.9	937.5	2474	4893	1305	18.59	4.580	3.625	3.260	3.221	2.997	3.218	3.446	3.127	3.196	3.820	4.370	4.110	4.288	4.023	4.322	4.611	4.360	4.362	4.510	4.481	4.733	4.607	4.608	4.745	4.237	4.470	4.608	4.751	4.652	4.853	4.479	4.366	4.399	4.454	4.369
420.0	752.7	873.8	957.4	963.3	954.4	947.8	935.4	951.2	954.8	995.8	1040	1027	976.4	915.9	813.5	724.5	646.0	596.3	581.9	563.2	555.6	552.2	557.3	554.1	536.4	522.0	498.5	480.6	457.6	456.5	383.3	296.6	227.7	176.7	143.1	122.5	149.9	246.4	650.3	3311	4516	260.9	11.44	4.392	3.665	3.096	3.248	3.171	3.414	3.147	3.231	3.737	4.090	3.928	4.130	4.051	4.204	4.165	4.577	4.404	4.689	4.674	4.733	4.427	4.513	4.550	4.456	4.399	4.473	4.397	4.739	4.431	4.284	4.393	4.181	4.107	4.030
425.0	756.3	845.0	921.9	920.1	929.1	914.7	918.8	928.8	937.9	986.0	1013	994.1	947.5	879.9	778.7	696.2	617.8	572.8	554.2	541.2	535.4	533.6	534.1	538.5	525.5	513.4	493.5	472.3	444.9	438.6	410.4	314.5	232.5	182.7	147.5	115.8	97.13	93.75	168.9	921.3	3753	3639	210.5	6.677	4.088	3.432	3.288	3.345	3.133	3.223	2.998	3.664	3.768	4.039	4.073	4.203	4.275	4.061	4.364	4.515	4.389	4.331	4.775	4.668	4.501	4.572	4.481	4.368	4.302	4.297	4.604	4.262	4.060	4.280	3.889	4.215	3.964
430.0	928.3	818.8	879.4	890.3	890.7	894.9	891.2	898.2	932.8	966.5	991.7	979.5	931.4	849.4	757.6	664.8	593.9	549.0	524.9	515.8	514.6	515.4	522.1	527.2	519.8	509.7	493.7	474.4	446.7	425.9	405.9	354.7	261.5	199.7	160.9	127.4	95.31	67.91	65.69	224.3	1013	2739	2898	886.0	15.73	4.195	3.589	3.374	3.278	3.085	3.065	3.549	3.666	3.682	3.822	3.863	4.097	4.146	4.239	4.321	4.303	4.080	4.623	4.488	4.526	4.368	4.374	4.288	4.338	4.154	4.251	4.088	3.980	4.021	3.733	3.890	3.726
435.0	1664	824.8	819.9	859.2	856.0	862.3	874.4	875.0	915.3	949.0	972.6	946.3	905.6	827.6	737.9	639.0	560.4	520.1	499.7	495.7	491.9	497.8	504.2	510.2	511.5	500.4	492.5	470.9	447.5	421.5	389.5	357.6	302.2	223.2	175.5	139.9	102.7	70.15	49.54	72.51	241.5	635.2	1691	4065	1390	20.87	4.526	3.823	3.467	3.148	3.091	3.434	3.769	3.558	3.716	3.614	4.198	4.047	4.127	4.054	4.375	4.218	4.494	4.696	4.120	4.292	4.389	4.355	4.193	4.126	4.172	4.041	4.081	3.951	3.859	3.597	3.999
440.0	2222	1030	801.1	807.4	839.1	842.8	849.5	868.2	889.0	929.3	950.9	921.0	870.4	789.2	703.4	612.2	538.2	498.9	474.4	472.1	468.9	474.4	482.1	488.7	495.3	486.2	475.4	459.4	440.7	411.8	376.7	338.3	308.6	244.2	181.1	145.6	107.4	73.41	49.40	42.69	72.31	156.3	428.1	2478	4141	252.2	14.15	4.468	3.570	3.246	3.207	3.561	3.478	3.598	3.624	3.722	3.939	3.710	4.048	4.055	4.109	4.140	4.357	4.270	4.179	4.289	4.356	4.198	4.014	3.978	4.100	3.887	3.747	3.749	3.549	3.577	3.415
445.0	2303	1599	787.3	786.7	787.4	820.5	814.1	833.8	852.7	893.8	903.4	883.8	832.5	746.5	663.2	584.3	508.4	465.8	451.5	448.1	441.6	446.7	454.7	462.9	465.5	457.0	452.0	437.4	418.0	395.2	361.8	316.8	285.7	251.8	188.5	146.0	109.5	75.76	51.96	37.87	37.46	51.34	108.6	658.9	3027	3571	203.2	9.765	3.898	3.296	3.124	3.455	3.599	3.499	3.549	3.529	3.880	3.808	3.972	3.809	3.877	3.936	4.112	4.230	4.066	3.842	4.111	4.036	3.948	3.748	3.743	3.672	3.618	3.244	3.484	3.538	3.209
450.0	1457	2622	1071	729.1	731.3	764.4	764.4	786.4	799.0	826.5	839.2	820.3	757.8	680.6	605.0	526.3	464.1	427.2	413.3	406.1	407.5	407.2	413.8	419.9	423.2	415.6	409.1	399.3	384.4	364.4	335.1	296.8	255.1	230.2	197.5	150.8	108.9	77.39	55.64	40.95	33.17	30.37	39.05	159.0	784.0	2302	2491	927.2	15.07	4.060	3.130	3.497	3.587	3.389	3.418	3.328	3.728	3.662	3.627	3.729	3.850	3.977	3.978	3.883	3.970	3.681	3.641	3.655	3.769	3.291	3.483	3.421	3.464	3.190	3.211	3.336	3.156
455.0	734.0	2459	2221	726.8	666.2	697.8	702.9	726.9	737.1	756.4	771.9	747.2	687.8	614.0	551.0	473.9	418.7	389.7	370.9	365.8	366.6	367.9	373.2	381.0	377.8	373.5	368.7	359.5	352.2	333.7	307.8	271.5	229.9	201.2	182.4	161.4	113.4	80.53	57.39	44.95	35.09	28.76	25.42	48.75	185.4	527.2	1186	3321	1307	18.76	3.799	3.644	3.458	3.233	3.175	3.281	3.543	3.485	3.398	3.480	3.759	3.789	3.624	3.520	3.779	3.507	3.634	3.486	3.407	3.107	3.204	3.338	3.295	3.020	2.968	2.990	2.860
460.0	540.4	1557	3150	933.1	621.0	640.5	662.9	682.6	694.7	715.1	715.6	694.4	641.1	573.7	507.3	440.3	387.0	359.9	339.8	337.0	337.7	337.7	343.8	349.8	347.9	342.8	339.5	332.9	327.4	310.8	288.8	257.1	218.8	188.6	166.7	157.3	120.9	83.88	60.03	46.56	37.59	29.60	24.92	25.36	53.12	127.3	286.6	1675	3300	989.4	13.92	4.033	3.447	3.303	3.217	3.030	3.293	3.464	3.313	3.293	3.534	3.648	3.525	3.479	3.401	3.330	3.310	3.414	3.028	2.997	2.888	3.368	2.854	2.940	2.752	2.646	2.689
465.0	510.9	827.1	3111	1859	613.0	604.8	622.9	650.7	652.0	678.7	671.5	653.2	594.1	531.3	466.1	408.7	360.5	331.2	315.5	311.0	310.3	311.3	314.8	317.8	319.6	316.6	313.0	307.9	302.2	292.0	270.5	244.8	210.0	178.9	154.3	142.8	125.8	89.55	61.97	47.52	39.21	31.21	26.10	21.75	24.46	39.07	72.85	416.5	2044	2947	174.8	12.21	3.670	3.489	3.166	3.214	3.098	3.296	3.270	3.125	3.187	3.312	3.294	3.349	3.412	2.991	3.103	3.034	3.133	2.773	2.915	2.782	2.603	2.788	2.769	2.659	2.245
470.0	465.7	537.2	1733	3063	1002	546.5	554.0	583.6	591.8	610.6	605.0	589.4	532.9	475.9	415.3	358.8	319.7	296.9	279.1	275.6	273.1	274.3	275.7	281.2	282.2	281.7	276.5	272.5	268.1	259.1	244.1	218.9	192.3	164.3	140.8	123.0	113.0	94.77	68.48	50.41	39.91	33.04	27.08	22.40	19.65	20.60	25.75	100.9	505.2	1525	2103	877.0	17.10	4.094	3.434	3.017	3.141	3.006	2.918	2.970	2.987	3.014	2.967	3.051	3.160	2.817	2.901	2.765	2.858	2.725	2.583	2.396	2.420	2.441	2.328	2.213	2.288
475.0	434.2	438.5	748.3	2595	2348	550.6	497.6	522.0	525.7	541.7	547.3	508.7	469.1	417.4	364.4	314.5	281.8	258.4	245.7	240.1	236.3	237.0	239.5	243.2	244.9	244.0	240.4	235.8	235.8	226.5	213.7	191.8	167.6	146.6	128.0	110.0	96.24	86.75	74.94	54.07	40.72	33.72	28.25	23.03	19.67	17.43	15.96	31.30	119.6	346.4	703.2	2022	1308	23.50	3.837	2.918	2.903	3.017	2.630	2.822	2.582	2.852	2.629	2.788	2.820	2.757	2.438	2.605	2.419	2.403	2.413	2.308	2.080	2.075	2.116	2.029	2.090
480.0	422.3	437.8	474.5	1483	3259	900.0	462.4	473.8	484.5	490.6	494.3	468.5	428.4	381.6	331.6	288.0	257.8	238.1	225.6	216.4	214.5	215.3	218.6	217.8	220.9	218.1	214.9	212.5	212.0	204.5	195.2	173.5	155.9	135.9	118.3	102.4	88.93	76.74	72.99	59.78	42.35	33.55	29.22	24.32	20.53	17.42	14.59	16.27	34.16	83.63	165.3	809.3	2317	1077	19.40	3.388	2.985	2.910	2.658	2.806	2.646	2.678	2.505	2.651	2.511	2.593	2.447	2.367	2.376	2.418	2.253	2.122	2.027	2.077	2.081	1.870	1.939
485.0	356.4	428.3	405.7	733.5	3150	1817	447.4	446.1	455.3	457.2	463.4	433.4	396.6	354.7	308.2	268.9	239.3	218.1	205.1	202.5	197.7	197.5	199.0	202.9	201.5	199.8	195.1	193.3	194.2	186.7	180.4	162.3	145.1	125.9	110.6	97.02	83.34	70.90	66.13	62.07	48.41	35.67	28.69	25.62	21.18	17.61	15.25	14.11	16.13	25.70	42.87	194.8	1183	2277	222.5	13.56	3.228	2.871	2.856	2.424	2.615	2.511	2.389	2.502	2.398	2.484	2.268	2.228	2.272	2.238	2.043	1.990	2.040	1.924	1.842	1.806	1.742
490.0	298.9	401.2	382.0	446.1	1649	3082	857.4	409.8	414.3	418.7	418.6	398.3	360.9	317.2	279.0	242.5	216.0	197.0	186.7	182.4	176.7	178.4	176.0	178.3	180.3	177.6	174.2	173.5	172.5	170.1	160.2	147.6	131.8	116.1	102.8	90.05	77.23	66.08	58.57	55.82	52.45	40.12	30.64	26.13	21.86	18.66	16.03	13.92	12.43	13.01	15.87	49.39	282.9	971.8	1573	931.8	88.02	3.949	3.088	2.588	2.373	2.385	2.266	2.325	2.384	2.116	2.203	2.119	2.114	1.981	1.836	1.844	1.788	1.816	1.646	1.678	1.647
495.0	254.0	355.0	380.9	354.6	644.1	2619	2320	427.2	372.4	380.5	375.9	359.5	320.3	281.1	251.9	217.5	191.8	175.4	168.3	161.0	154.4	156.5	155.9	157.1	155.8	158.4	154.1	152.9	153.5	150.5	142.5	132.2	118.3	104.4	93.59	82.06	70.95	61.34	54.01	48.59	47.21	45.24	34.05	26.07	22.65	19.29	16.88	14.29	12.25	11.09	10.09	16.77	68.26	221.3	510.5	1755	1510	28.41	3.650	2.709	2.418	2.288	2.106	2.157	2.132	2.080	2.017	1.999	1.921	1.813	1.855	1.544	1.677	1.589	1.557	1.698	1.524
500.0	222.8	303.1	374.1	321.0	374.4	1459	3393	754.6	345.7	348.7	341.5	325.3	291.5	257.7	226.6	196.1	174.6	158.7	151.6	146.7	140.4	141.0	141.1	141.4	140.6	140.7	139.9	138.7	138.8	136.6	129.9	121.5	108.1	96.79	86.49	75.36	67.31	58.08	50.71	45.10	41.69	43.52	37.46	27.57	22.53	19.38	16.51	14.31	12.42	10.53	8.646	9.475	20.44	53.55	119.6	647.0	2136	1156	23.25	2.949	2.354	2.241	2.050	2.005	2.067	2.037	1.968	1.744	1.735	1.714	1.726	1.683	1.474	1.511	1.604	1.667	1.548
505.0	212.2	265.0	358.1	317.7	297.0	656.3	3312	1700	332.3	325.3	316.4	300.4	269.5	236.2	206.0	176.7	161.2	147.1	136.7	132.2	130.6	129.0	129.0	128.5	127.5	126.9	127.0	124.7	123.1	124.4	118.8	109.8	99.09	88.84	79.98	71.26	62.34	54.22	48.50	42.47	38.11	38.17	37.63	30.18	22.71	19.65	16.24	14.86	12.16	10.43	8.655	8.018	9.610	16.31	30.88	152.7	950.8	2111	247.6	15.36	2.403	2.127	2.065	1.916	1.936	1.933	1.786	1.702	1.661	1.734	1.513	1.499	1.583	1.443	1.583	1.445	1.401
510.0	179.7	223.2	267.1	314.6	263.9	342.8	1733	3170	723.1	288.0	284.0	265.7	238.8	207.7	182.2	155.8	141.8	129.0	120.9	117.1	113.8	111.9	111.7	110.7	109.7	109.9	108.6	107.7	108.0	107.7	102.4	96.46	87.79	78.53	69.95	63.94	56.37	49.68	43.93	38.48	35.23	32.03	32.88	31.82	24.84	19.48	16.17	14.23	11.98	10.48	9.009	7.928	7.361	7.988	10.81	37.62	223.3	841.1	1399	845.0	19.38	2.920	2.149	1.804	1.807	1.774	1.654	1.496	1.445	1.501	1.402	1.348	1.430	1.404	1.262	1.260	1.262
515.0	163.2	194.3	205.5	283.7	258.0	245.9	591.7	2894	2177	295.0	244.1	233.6	205.5	181.6	158.2	135.3	122.1	110.8	103.8	100.7	96.67	95.95	95.78	96.13	94.12	92.20	92.06	93.81	91.72	92.37	88.34	82.71	75.91	68.57	60.84	56.23	49.86	44.27	39.81	34.80	32.01	28.85	27.56	28.01	27.23	20.39	15.60	13.80	11.99	10.32	8.269	8.090	6.781	6.371	6.329	11.74	53.16	190.6	411.4	1348	1131	27.50	2.443	1.932	1.775	1.683	1.595	1.417	1.345	1.362	1.288	1.227	1.197	1.146	1.111	1.053	1.175
520.0	159.1	172.8	179.4	234.7	267.4	213.0	289.1	1600	3603	599.4	220.2	204.9	186.2	163.5	142.3	123.3	110.3	99.74	93.70	90.22	86.62	85.84	85.68	83.87	82.43	82.13	82.02	82.52	80.46	82.52	78.02	73.31	67.24	61.19	54.72	50.27	45.61	40.53	37.33	32.79	28.96	26.47	24.86	24.47	26.13	22.51	16.23	13.53	11.85	10.19	8.315	7.979	6.779	6.022	4.927	6.122	14.89	45.58	95.45	483.3	1528	826.7	21.38	2.324	1.869	1.535	1.501	1.442	1.294	1.178	1.260	1.146	1.125	1.072	1.116	0.995	1.115
525.0	150.6	147.2	164.8	194.5	264.6	198.9	207.1	646.7	3773	1580	210.3	187.4	168.0	146.8	129.2	111.4	100.8	91.36	83.88	80.64	77.76	77.52	76.17	74.03	75.47	74.51	75.24	73.24	73.26	74.66	70.84	66.11	60.17	55.26	50.11	44.94	41.15	37.04	33.17	30.56	27.18	24.50	22.48	21.15	23.19	22.66	17.36	13.79	11.41	9.598	8.115	7.297	6.696	5.934	4.783	4.544	6.436	12.89	24.03	113.2	659.7	1475	243.0	13.16	1.911	1.492	1.611	1.324	1.225	1.242	1.067	1.100	1.060	1.162	1.134	0.928	0.952
530.0	129.7	131.2	141.4	158.7	217.5	211.2	172.7	275.7	1961	3469	560.6	167.8	149.1	129.0	112.4	96.54	86.78	80.20	73.10	70.37	68.16	67.09	65.74	64.22	65.43	64.25	64.23	62.79	63.19	63.92	61.24	56.93	52.00	47.99	43.72	40.00	36.53	32.85	30.27	27.43	24.47	22.34	20.55	18.38	18.30	19.72	18.83	14.51	11.01	8.915	7.965	6.868	6.282	5.903	4.957	4.178	4.444	5.608	7.930	27.65	154.7	581.0	976.7	608.9	18.27	2.206	1.485	1.351	1.235	1.110	1.033	0.963	1.021	0.955	0.999	0.868	0.883
535.0	110.7	111.0	129.3	131.7	159.7	220.0	163.2	173.6	600.7	3258	1855	172.1	128.3	111.3	95.83	83.57	73.30	67.63	63.25	59.76	57.59	56.69	55.39	54.21	55.17	54.84	53.68	53.02	54.27	54.09	50.84	49.22	44.62	41.57	38.05	34.52	31.64	28.20	26.40	24.15	21.26	19.50	18.41	16.49	15.08	15.10	16.99	15.47	11.12	8.475	7.485	6.216	5.687	5.155	4.785	4.315	3.868	3.763	4.321	8.319	36.49	131.4	283.4	925.7	788.5	25.96	1.775	1.341	1.230	1.137	0.927	0.990	0.915	0.873	0.811	0.790	0.778
540.0	95.65	113.9	111.7	110.5	124.5	194.2	168.7	141.3	243.5	1683	3792	395.7	114.9	99.29	84.45	72.37	65.67	58.56	56.15	53.32	50.04	49.95	48.16	47.41	46.89	47.45	46.15	47.14	47.39	46.87	44.89	42.59	38.46	36.46	33.83	30.65	28.53	25.48	23.22	21.21	19.25	17.50	16.68	14.86	13.65	13.01	13.81	14.62	11.98	8.389	6.964	6.059	5.398	4.796	4.552	4.564	3.783	3.293	3.296	4.061	10.16	31.40	65.60	326.0	1043	574.2	18.68	1.511	1.265	1.194	0.929	0.938	0.881	0.808	0.749	0.941	0.879
545.0	96.65	106.9	100.4	98.43	109.4	161.3	172.9	123.3	146.5	603.7	4024	1248	109.0	87.86	78.09	65.76	58.37	54.92	48.87	46.38	44.26	44.01	43.26	41.82	42.19	41.66	40.97	40.76	41.39	40.37	40.12	37.64	34.75	31.85	29.05	27.06	25.04	22.82	20.81	19.11	17.37	16.02	14.48	13.63	12.72	11.58	11.31	12.53	11.57	8.727	6.683	5.701	5.099	4.704	4.155	4.295	3.822	3.252	2.730	2.960	4.020	8.783	16.52	76.23	440.9	999.8	231.9	10.37	1.414	1.113	0.991	1.055	0.828	0.776	0.754	0.855	0.813
550.0	87.16	92.68	86.67	87.89	92.92	114.7	171.1	126.4	110.1	216.3	1916	3266	349.1	76.59	65.79	55.55	48.97	45.15	41.37	39.42	37.52	36.88	36.41	35.06	34.79	34.87	34.38	34.06	34.75	33.81	33.38	31.35	28.96	26.78	25.07	22.73	21.09	19.25	17.56	16.34	15.00	13.79	13.01	12.13	10.93	10.12	9.298	9.665	9.877	9.303	6.907	5.433	4.454	4.225	3.815	3.491	3.590	3.245	2.796	2.716	2.696	3.817	5.590	18.75	103.2	383.4	657.3	420.5	17.34	1.611	1.057	0.920	0.819	0.864	0.744	0.707	0.768
555.0	73.08	83.46	85.24	77.50	73.68	84.02	125.5	144.0	91.93	119.8	529.2	3147	1356	79.79	53.84	46.94	39.79	35.89	33.73	31.65	30.46	30.00	29.40	29.51	28.13	27.78	27.50	27.54	28.27	27.47	26.97	25.73	22.90	21.77	20.14	18.47	17.48	15.96	14.39	13.94	12.32	11.36	10.80	9.899	9.275	8.629	7.855	7.704	7.638	8.270	7.291	5.224	4.055	3.736	3.340	3.070	3.182	3.224	2.820	2.618	2.455	2.691	2.961	5.752	24.66	87.20	187.0	588.3	504.4	24.41	1.476	1.059	0.892	0.884	0.616	0.640	0.736
560.0	80.56	88.71	73.79	70.22	64.49	69.76	91.26	151.8	87.26	85.44	182.3	1564	3148	151.2	46.87	40.84	34.64	30.84	28.57	27.77	25.39	25.31	25.30	25.04	24.25	24.27	22.73	22.80	23.00	22.70	22.82	21.83	19.93	18.33	16.74	15.75	14.88	13.75	12.40	11.92	10.07	10.13	9.373	8.594	7.858	7.534	6.837	6.617	6.134	6.644	6.598	5.365	3.632	3.463	3.197	2.905	2.971	2.785	2.726	2.657	2.320	2.390	2.436	2.932	7.358	21.21	43.71	204.4	640.7	250.8	15.57	1.306	0.978	0.823	0.662	0.594	0.634
565.0	81.43	82.35	75.02	65.70	57.74	55.19	74.16	132.5	98.88	70.03	96.59	518.5	3532	809.8	43.08	34.35	29.51	26.67	25.04	23.43	22.85	22.23	21.31	20.77	20.87	20.69	19.69	19.84	19.66	20.04	19.40	18.27	16.94	15.82	14.40	13.47	12.52	12.08	10.88	10.51	9.057	8.828	8.351	7.645	7.089	6.546	5.941	5.531	5.457	5.219	5.767	5.673	4.061	3.116	2.902	2.788	2.761	2.515	2.774	2.898	2.874	2.457	2.356	2.558	3.635	6.693	11.73	48.38	260.7	577.0	200.3	7.211	1.149	0.895	0.642	0.634	0.546
570.0	78.22	80.98	72.68	58.42	49.99	47.76	55.15	95.12	120.0	67.95	70.25	167.2	1740	2530	103.2	29.90	24.99	22.69	20.93	19.54	18.35	17.67	17.58	17.35	16.94	16.62	16.21	16.37	16.36	15.68	15.95	14.67	13.87	12.91	12.22	11.15	10.65	9.566	8.973	8.219	7.702	7.228	6.850	6.339	5.980	5.430	5.065	4.816	4.298	4.154	4.201	4.768	4.076	3.186	2.712	2.661	2.546	2.643	2.616	2.760	3.087	2.940	2.723	2.658	2.970	3.717	4.688	12.76	61.88	223.0	395.8	210.3	15.42	1.288	0.821	0.724	0.653
575.0	73.29	84.38	65.61	55.09	45.82	43.51	45.04	61.14	119.7	81.99	60.85	80.75	466.1	2615	904.9	30.72	21.86	19.56	16.95	15.64	14.97	14.26	14.20	14.08	13.48	13.50	13.31	13.23	12.95	12.52	13.16	11.30	11.27	10.51	9.654	9.136	8.755	7.980	7.360	6.932	6.317	5.791	5.526	5.313	4.966	4.723	4.489	3.914	3.561	3.263	3.176	3.483	3.871	3.320	2.628	2.420	2.411	2.418	2.436	2.573	2.865	3.171	3.037	2.895	3.158	3.336	3.269	4.937	15.87	51.73	112.4	332.8	249.3	20.40	1.164	0.742	0.616
580.0	73.39	89.67	65.53	52.14	45.96	40.08	40.93	48.62	96.00	100.6	59.64	61.52	145.9	1342	2268	80.47	19.08	16.52	14.80	13.40	12.74	12.64	11.92	11.92	11.43	11.45	11.09	10.92	11.27	10.63	11.25	10.13	9.548	8.846	8.439	7.695	7.161	6.953	6.448	5.942	5.488	5.080	4.729	4.383	4.242	4.086	3.542	3.487	3.084	2.863	2.779	2.736	3.258	3.187	2.747	2.399	2.149	2.398	2.511	2.427	2.637	2.828	3.287	2.976	2.887	3.047	2.960	3.335	5.523	13.63	26.89	118.3	365.6	204.7	11.59	0.811	0.653
585.0	83.50	84.47	62.73	51.75	38.95	40.21	37.35	41.26	71.12	117.1	62.46	56.81	70.32	439.3	2677	440.6	17.47	14.23	12.58	11.86	11.38	11.17	10.46	10.29	10.37	9.357	9.659	9.608	9.532	9.076	9.523	8.659	8.434	7.662	7.189	6.779	6.218	5.904	5.267	5.264	5.004	4.457	4.379	3.907	3.895	3.620	3.239	2.978	2.667	2.680	2.409	2.230	2.467	2.899	2.724	2.300	1.861	2.118	2.254	2.259	2.354	2.378	3.000	2.941	2.757	2.864	2.720	2.636	3.061	5.006	7.614	28.55	151.0	350.3	136.7	4.660	0.778
590.0	78.57	82.08	67.09	51.99	40.08	33.57	36.40	37.33	49.72	97.96	83.53	55.56	52.88	132.1	1351	1430	56.82	12.77	10.85	10.28	9.390	9.275	8.744	8.608	8.410	7.861	7.897	8.060	7.621	7.562	7.617	7.091	7.017	6.300	5.928	5.500	5.170	4.831	4.541	4.248	4.193	3.753	3.540	3.327	3.076	3.095	2.817	2.612	2.290	2.262	1.958	1.933	2.024	2.124	2.474	2.321	1.878	1.875	1.932	1.936	1.975	2.193	2.511	2.623	2.628	2.480	2.235	2.188	2.308	2.594	3.296	7.691	35.84	130.9	231.1	134.1	14.00
595.0	80.71	72.21	65.08	51.37	36.26	31.29	35.40	35.99	43.81	70.76	104.4	62.21	51.77	59.13	354.2	1777	553.0	13.12	9.849	8.247	8.053	7.357	7.298	7.027	6.340	6.482	6.333	6.539	6.289	6.278	6.204	5.610	5.680	5.145	4.549	4.485	4.383	3.957	3.708	3.598	3.290	3.267	2.998	2.857	2.614	2.519	2.273	2.213	1.984	1.884	1.556	1.608	1.566	1.604	2.043	2.303	2.143	1.854	1.620	1.669	1.669	1.851	1.968	2.180	2.273	2.049	2.000	1.835	2.041	2.098	2.193	3.001	8.981	30.08	64.06	192.1	183.2
600.0	79.90	79.64	72.33	51.53	37.88	33.83	36.71	35.65	43.04	54.37	107.0	75.11	51.94	44.63	102.4	994.0	1358	35.64	9.135	7.296	7.265	6.317	6.343	5.901	5.796	5.505	5.453	5.889	5.623	5.224	5.379	4.779	4.947	4.315	4.039	4.089	3.723	3.315	3.299	3.124	2.992	2.612	2.512	2.556	2.228	2.271	2.104	1.832	1.866	1.634	1.354	1.410	1.368	1.327	1.551	1.953	1.972	1.680	1.397	1.533	1.469	1.613	1.719	1.866	1.982	2.158	1.955	1.905	1.894	1.992	1.783	1.783	2.955	7.598	15.12	64.54	216.2
605.0	80.05	85.63	71.15	52.37	40.95	30.84	34.22	38.70	45.70	53.19	98.20	95.52	58.04	48.13	47.26	337.7	1728	93.53	8.871	6.830	6.944	5.652	5.449	5.079	5.139	4.884	5.086	5.006	4.911	4.811	4.548	4.208	4.181	3.970	3.680	3.355	3.309	3.144	2.910	2.696	2.275	2.346	2.416	2.104	2.085	2.052	1.916	1.585	1.543	1.495	1.230	1.223	1.215	1.235	1.205	1.550	1.825	1.707	1.400	1.630	1.477	1.474	1.554	1.673	1.802	2.009	2.095	1.830	1.816	1.889	1.580	1.697	1.746	2.580	4.358	15.45	83.84
610.0	81.28	84.41	69.32	51.07	38.37	34.74	36.71	43.55	52.88	62.62	88.70	118.5	80.17	56.63	45.73	103.1	960.7	912.2	32.72	6.157	5.389	5.007	4.913	4.541	4.139	4.053	4.238	4.249	4.167	3.873	3.781	3.699	3.446	3.155	3.095	2.953	2.717	2.771	2.542	2.360	2.091	2.079	1.885	1.742	1.736	1.704	1.543	1.530	1.353	1.251	1.164	1.185	1.086	1.052	1.071	1.197	1.427	1.662	1.505	1.474	1.402	1.422	1.494	1.719	1.659	1.795	1.990	1.906	1.911	1.867	1.741	1.608	1.558	1.506	1.911	4.284	19.86
615.0	77.06	81.47	74.12	55.68	40.55	36.19	37.74	49.84	56.37	71.61	79.66	116.8	100.4	63.23	48.01	48.74	264.4	1246	321.2	6.081	4.560	4.486	4.181	4.112	3.555	3.188	3.579	3.496	3.343	3.324	3.269	3.013	3.081	2.855	2.778	2.568	2.353	2.406	2.316	1.989	1.770	1.720	1.634	1.580	1.450	1.521	1.421	1.469	1.086	1.160	1.056	1.069	0.970	0.843	0.936	0.912	1.250	1.423	1.552	1.456	1.417	1.387	1.516	1.509	1.459	1.691	1.695	2.025	2.075	2.122	1.656	1.619	1.565	1.441	1.263	1.678	5.080
620.0	77.51	80.07	74.18	51.58	38.36	33.29	35.04	44.79	58.59	66.84	77.31	99.39	115.8	66.23	49.20	36.25	80.73	773.7	688.7	15.43	4.383	4.074	3.575	3.307	3.107	3.025	3.085	3.059	2.946	2.803	2.907	2.768	2.588	2.645	2.417	2.362	2.102	2.204	1.907	1.776	1.590	1.606	1.427	1.339	1.314	1.387	1.202	1.331	1.104	1.067	0.943	0.910	0.834	0.831	0.869	0.894	1.051	1.172	1.543	1.583	1.360	1.265	1.406	1.338	1.576	1.418	1.707	1.717	1.984	1.919	1.584	1.424	1.511	1.311	1.105	1.046	1.858
625.0	76.91	84.03	72.90	54.46	36.04	36.68	35.50	46.58	53.47	64.88	73.69	88.39	115.5	70.84	50.32	33.90	37.79	278.0	1169	66.94	4.322	3.626	3.088	3.098	3.103	2.563	2.753	2.733	2.553	2.296	2.643	2.507	2.336	2.137	2.082	2.131	2.011	1.870	1.822	1.725	1.498	1.438	1.408	1.107	1.263	1.151	1.022	1.124	1.072	0.996	0.852	0.795	0.755	0.847	0.765	0.850	0.886	0.991	1.291	1.423	1.384	1.222	1.289	1.311	1.512	1.431	1.655	1.516	1.854	1.849	1.646	1.641	1.334	1.246	1.126	0.943	1.136
630.0	74.50	82.27	69.07	51.51	39.08	34.05	37.11	46.52	50.66	61.95	72.72	82.46	101.7	84.24	51.25	32.79	28.00	78.33	734.6	633.3	16.12	3.274	2.972	2.687	2.614	2.283	2.211	2.159	2.357	2.209	2.087	2.135	1.921	1.854	1.810	1.909	1.680	1.613	1.459	1.365	1.369	1.281	1.054	1.094	1.093	1.086	0.881	1.020	0.941	0.795	0.828	0.723	0.660	0.761	0.707	0.773	0.811	0.861	0.985	1.131	1.236	1.108	1.207	1.178	1.260	1.214	1.370	1.368	1.499	1.521	1.644	1.440	1.122	1.052	0.983	0.847	0.892
635.0	70.83	85.48	76.79	52.82	38.45	37.94	34.68	42.96	51.05	62.91	70.49	79.91	87.52	90.13	58.01	34.37	25.44	30.26	200.2	949.4	72.34	3.749	2.877	2.510	2.198	1.928	2.043	1.822	2.037	1.731	1.836	1.713	1.892	1.609	1.562	1.528	1.440	1.283	1.284	1.155	1.216	1.210	1.017	1.068	1.010	1.030	0.775	0.984	0.766	0.718	0.753	0.675	0.700	0.645	0.676	0.690	0.804	0.788	0.892	0.909	1.146	1.094	1.086	1.082	1.068	1.144	1.000	1.207	1.324	1.218	1.363	1.343	1.197	0.973	0.850	0.807	0.802
640.0	74.28	84.09	79.28	55.61	41.31	34.80	37.88	42.92	47.17	58.70	69.07	82.46	79.98	89.53	64.25	36.42	25.11	20.55	52.66	648.3	497.2	7.958	2.494	2.364	1.917	1.850	1.817	1.890	1.741	1.626	1.471	1.658	1.492	1.622	1.230	1.430	1.333	1.277	1.326	1.118	1.082	1.036	0.997	0.893	0.866	0.938	0.863	0.910	0.765	0.668	0.569	0.617	0.623	0.672	0.808	0.622	0.654	0.668	0.814	0.789	0.925	1.093	1.026	1.057	1.048	1.114	0.990	1.044	1.137	1.260	1.238	1.169	1.243	1.001	0.925	0.728	0.692
645.0	83.39	89.17	79.51	56.25	37.19	32.10	36.10	41.08	48.09	58.48	67.95	80.40	77.11	77.10	68.18	36.34	26.25	17.29	18.25	247.2	848.0	47.30	2.713	2.257	1.697	1.711	1.663	1.731	1.755	1.671	1.315	1.490	1.458	1.377	1.342	1.231	1.187	1.225	1.155	1.055	0.934	0.913	0.903	0.816	0.885	0.891	0.813	0.839	0.779	0.670	0.549	0.635	0.661	0.578	0.621	0.559	0.618	0.594	0.755	0.728	0.783	0.980	1.026	0.976	0.921	1.026	0.968	1.063	1.034	1.207	1.011	1.147	1.105	0.915	0.766	0.740	0.680
650.0	89.83	93.35	77.91	56.77	37.14	34.01	37.77	40.67	45.69	56.20	67.05	73.86	76.39	69.73	71.04	37.39	25.78	16.19	10.09	68.26	766.9	277.8	3.146	2.120	1.962	1.552	1.565	1.582	1.507	1.591	1.459	1.359	1.451	1.287	1.287	1.199	1.192	1.149	1.114	1.010	0.860	0.786	0.844	0.751	0.828	0.729	0.725	0.771	0.791	0.583	0.585	0.598	0.646	0.564	0.553	0.611	0.646	0.546	0.696	0.781	0.770	0.830	0.785	1.008	0.999	0.880	0.875	1.069	0.979	0.953	0.997	1.092	0.946	0.788	0.772	0.681	0.648
