Sample:	'1
File name:	g2025090303ª„√Øπ‹œﬂ 50±∂.FD3
Run date:	'13:12:55, 09/03/2025
Operator:	Administrator
Comment:	'

Instrument
Model:	F-2700 FL Spectrophotometer
Serial number:	23B8-004
ROM Version:	4J14000 07

Instrument parameters
Measurement type:	3-D scan
Data mode:	Fluorescence
EX  Start WL:	220.0 nm
EX  End WL:	600.0 nm
EX Sampling interval:	5.0 nm
EM  Start WL:	230.0 nm
EM  End WL:	650.0 nm
EM Sampling interval:	5.0 nm
Scan speed:	12000 nm/min
EX Slit:	5.0 nm
EM Slit:	5.0 nm
PMT Voltage:	700 V
Response:	Auto 
Corrected spectra:	Off
Contour interval:	50.000

Peak integration
Integration method:	Rectangular
Sensitivity:	1
Threshold:	1.000

Peaks
No.	ApexEX/EM(nm)	Height(Data)
1	230.0/250.0	344.4
2	230.0/500.0	176.0
3	235.0/255.0	431.3
4	235.0/515.0	149.5
5	240.0/265.0	474.9
6	240.0/525.0	136.9
7	245.0/270.0	462.4
8	245.0/535.0	120.2
9	250.0/275.0	591.4
10	250.0/550.0	117.8
11	255.0/565.0	126.8
12	260.0/575.0	170.3
13	265.0/590.0	240.7
14	270.0/300.0	3761
15	270.0/600.0	267.8
16	275.0/305.0	3775
17	275.0/610.0	229.6
18	300.0/335.0	605.4
19	305.0/345.0	472.3
20	310.0/350.0	350.7
21	315.0/355.0	302.3
22	320.0/360.0	247.2
23	325.0/370.0	177.8
24	330.0/375.0	165.4
25	335.0/380.0	170.0
26	340.0/385.0	129.5
27	350.0/400.0	112.0
28	355.0/405.0	97.12
29	360.0/410.0	76.18
30	365.0/420.0	75.70
31	370.0/425.0	70.39
32	375.0/430.0	51.83
33	380.0/440.0	49.26
34	385.0/445.0	45.59
35	390.0/305.0	6.713
36	390.0/450.0	34.18
37	395.0/455.0	31.28
38	400.0/465.0	27.98
39	405.0/470.0	21.54
40	410.0/475.0	19.33
41	415.0/485.0	17.72
42	420.0/490.0	14.04
43	425.0/500.0	12.91
44	430.0/505.0	11.97
45	435.0/510.0	9.767
46	440.0/305.0	4.770
47	440.0/520.0	9.583
48	445.0/525.0	8.282
49	455.0/540.0	6.140
50	460.0/545.0	5.126
51	465.0/555.0	3.627
52	470.0/560.0	3.219
53	475.0/260.0	2.055
54	480.0/575.0	1.777
55	485.0/265.0	2.532
56	495.0/270.0	2.246
57	505.0/275.0	3.499
58	510.0/280.0	4.277
59	520.0/285.0	5.953
60	540.0/295.0	14.80
61	545.0/300.0	17.00
62	550.0/305.0	17.32

Data points
	220.0	225.0	230.0	235.0	240.0	245.0	250.0	255.0	260.0	265.0	270.0	275.0	280.0	285.0	290.0	295.0	300.0	305.0	310.0	315.0	320.0	325.0	330.0	335.0	340.0	345.0	350.0	355.0	360.0	365.0	370.0	375.0	380.0	385.0	390.0	395.0	400.0	405.0	410.0	415.0	420.0	425.0	430.0	435.0	440.0	445.0	450.0	455.0	460.0	465.0	470.0	475.0	480.0	485.0	490.0	495.0	500.0	505.0	510.0	515.0	520.0	525.0	530.0	535.0	540.0	545.0	550.0	555.0	560.0	565.0	570.0	575.0	580.0	585.0	590.0	595.0	600.0
230.0	66.16	708.5	1921	642.1	27.04	2.807	2.455	1.831	1.716	1.620	1.492	1.760	1.216	0.970	0.712	0.526	0.359	0.362	0.293	0.173	0.220	0.207	0.240	0.285	0.133	0.200	0.219	0.167	0.144	0.172	0.147	0.083	0.086	0.098	0.129	0.183	0.136	0.173	0.122	0.141	0.261	0.660	0.615	0.387	0.148	0.087	0.588	3.217	5.921	4.615	1.682	0.313	0.098	0.103	0.086	0.087	0.105	0.062	0.079	0.035	0.077	0.025	0.053	0.069	0.088	0.047	0.055	0.046	0.048	0.071	0.065	0.026	0.059	0.011	0.091	0.019	0.012
235.0	219.4	220.1	997.6	1735	521.1	39.81	2.938	1.734	2.143	1.760	1.693	1.708	1.469	0.766	0.762	0.668	0.358	0.395	0.301	0.173	0.241	0.254	0.239	0.117	0.130	0.183	0.172	0.132	0.199	0.048	0.105	0.123	0.082	0.166	0.119	0.106	0.110	0.150	0.085	0.176	0.201	0.276	0.514	0.664	0.632	0.340	0.239	0.819	2.022	3.542	5.125	6.061	3.038	0.693	0.065	0.076	0.098	0.058	0.132	0.053	0.064	0.042	0.067	0.067	0.098	0.073	0.029	0.095	0.036	0.065	0.067	0.064	0.051	0.061	0.038	0.015	0.009
240.0	268.4	227.2	292.6	1289	1830	399.6	18.43	2.420	2.554	2.658	2.648	2.289	1.377	0.720	0.791	0.604	0.263	0.451	0.216	0.346	0.265	0.387	0.335	0.066	0.150	0.227	0.181	0.165	0.203	0.146	0.096	0.080	0.051	0.188	0.131	0.159	0.105	0.127	0.078	0.109	0.186	0.192	0.226	0.377	0.785	0.826	0.433	0.407	0.521	0.987	2.416	6.565	8.222	6.771	2.521	0.386	0.108	0.097	0.158	0.095	0.016	0.046	0.104	0.170	0.059	0.078	0.020	0.054	0.084	0.028	0.052	0.014	0.048	0.041	0.101	0.022	0.099
245.0	162.7	356.3	174.7	416.4	1728	1844	283.6	9.490	3.105	2.654	2.684	2.368	1.830	1.002	0.867	0.430	0.369	0.496	0.302	0.277	0.179	0.219	0.260	0.124	0.215	0.145	0.173	0.262	0.195	0.145	0.105	0.088	0.072	0.178	0.166	0.093	0.085	0.154	0.104	0.086	0.133	0.192	0.154	0.242	0.311	0.682	0.904	0.848	0.404	0.330	0.654	2.065	4.775	9.486	9.941	5.895	1.699	0.212	0.142	0.086	0.155	0.052	0.081	0.132	0.045	0.051	0.034	0.024	0.093	0.040	0.108	0.006	0.122	0.028	0.173	0.039	0.091
250.0	54.49	216.9	344.4	234.6	532.6	1581	2109	794.5	49.36	3.715	3.102	2.764	2.287	1.129	0.820	0.625	0.472	0.486	0.309	0.333	0.237	0.388	0.233	0.247	0.220	0.269	0.211	0.184	0.153	0.221	0.151	0.183	0.127	0.167	0.174	0.096	0.108	0.116	0.090	0.084	0.206	0.133	0.134	0.171	0.121	0.287	0.480	0.915	1.107	1.037	0.627	0.700	1.226	2.879	5.205	7.964	10.55	9.605	5.671	1.681	0.297	0.079	0.119	0.081	0.088	0.099	0.054	0.047	0.034	0.073	0.148	0.063	0.075	0.024	0.055	0.060	0.077
255.0	22.47	59.47	210.1	431.3	255.4	396.6	1426	2861	1124	46.37	4.339	3.798	2.715	1.825	1.038	1.061	0.832	0.547	0.363	0.309	0.289	0.386	0.292	0.402	0.529	0.172	0.148	0.152	0.172	0.227	0.203	0.171	0.210	0.134	0.256	0.200	0.134	0.097	0.118	0.226	0.187	0.213	0.113	0.096	0.138	0.121	0.221	0.312	0.468	0.824	1.473	1.738	0.833	0.820	1.331	2.000	3.307	7.412	14.21	15.86	8.825	1.913	0.178	0.064	0.112	0.089	0.029	0.054	0.097	0.100	0.077	0.047	0.030	0.067	0.071	0.019	0.141
260.0	18.99	22.22	69.95	354.3	410.5	160.7	413.1	2211	3446	255.0	21.57	4.743	2.855	2.146	1.388	1.101	1.023	0.515	0.595	0.482	0.219	0.380	0.304	0.464	0.274	0.137	0.154	0.152	0.196	0.164	0.173	0.214	0.179	0.189	0.278	0.148	0.082	0.080	0.092	0.155	0.145	0.126	0.058	0.185	0.135	0.130	0.201	0.142	0.140	0.323	0.727	2.055	1.953	1.288	0.594	0.616	0.857	1.924	5.433	12.04	18.81	16.49	6.506	0.972	0.169	0.111	0.078	0.102	0.066	0.094	0.122	0.066	0.068	0.026	0.027	0.046	0.075
265.0	10.40	16.20	24.99	146.7	474.9	307.3	129.7	714.2	3256	2032	197.4	9.853	3.927	2.654	1.408	1.189	0.696	0.684	0.706	0.471	0.271	0.402	0.312	0.405	0.242	0.270	0.162	0.182	0.184	0.204	0.121	0.226	0.128	0.146	0.240	0.174	0.112	0.099	0.111	0.098	0.088	0.113	0.091	0.182	0.126	0.084	0.197	0.090	0.134	0.161	0.238	0.881	1.826	2.532	1.694	0.750	0.377	0.536	1.358	3.356	8.845	16.66	21.68	14.44	4.291	0.435	0.138	0.044	0.053	0.123	0.120	0.079	0.155	0.077	0.096	0.016	0.041
270.0	22.90	19.49	15.53	41.52	201.8	462.4	305.5	214.1	985.3	2527	3215	743.4	41.85	4.075	2.444	1.516	0.975	0.689	0.702	0.552	0.540	0.377	0.347	0.402	0.350	0.314	0.273	0.282	0.179	0.233	0.212	0.179	0.220	0.222	0.251	0.230	0.142	0.160	0.186	0.161	0.110	0.133	0.137	0.138	0.152	0.156	0.172	0.137	0.146	0.126	0.125	0.267	0.571	1.294	1.731	2.246	2.135	1.038	0.673	0.938	2.244	4.571	8.813	14.34	18.06	17.45	10.99	3.649	0.491	0.117	0.112	0.128	0.181	0.104	0.083	0.073	0.073
275.0	101.2	74.48	35.27	24.61	58.73	189.4	591.4	341.2	319.9	717.3	2420	5001	977.4	37.37	4.517	2.234	1.707	1.106	0.951	0.498	0.517	0.528	0.611	0.486	0.340	0.228	0.397	0.253	0.211	0.215	0.211	0.369	0.425	0.510	0.453	0.403	0.348	0.370	0.332	0.305	0.259	0.251	0.366	0.317	0.401	0.288	0.274	0.216	0.209	0.123	0.197	0.115	0.289	0.409	0.589	1.001	2.284	3.499	2.883	1.067	0.956	1.445	2.695	3.857	5.329	9.920	20.69	26.33	16.43	4.285	0.474	0.166	0.128	0.113	0.117	0.143	0.053
280.0	349.2	231.3	102.5	49.87	43.96	91.57	388.2	813.0	344.4	406.8	1064	3817	4496	144.9	17.90	3.530	2.442	1.304	1.025	0.783	0.605	0.720	0.584	0.650	0.517	0.322	0.320	0.367	0.301	0.318	0.437	0.375	0.726	1.046	1.182	0.886	1.033	0.578	0.776	0.728	0.751	0.801	0.776	0.766	0.757	0.750	0.601	0.595	0.352	0.309	0.246	0.238	0.226	0.256	0.361	0.522	0.934	2.083	4.277	4.236	2.347	1.660	2.100	2.413	3.040	4.106	7.849	16.44	26.93	26.64	12.05	1.989	0.239	0.208	0.125	0.117	0.078
285.0	751.5	502.7	244.5	92.39	67.55	104.1	257.4	851.4	1079	876.5	1101	1838	4419	3498	109.0	7.627	3.310	1.437	1.362	1.192	0.822	0.663	0.568	0.621	0.442	0.422	0.283	0.263	0.338	0.344	0.341	0.524	1.300	1.996	2.380	1.951	1.801	1.453	1.437	1.337	1.475	1.472	1.471	1.506	1.534	1.554	1.181	1.100	0.773	0.506	0.346	0.314	0.222	0.307	0.497	0.494	0.791	1.194	2.415	4.558	5.953	4.842	3.714	3.876	4.400	4.690	5.633	7.625	11.97	22.13	28.26	21.91	7.495	0.935	0.280	0.143	0.247
290.0	1385	991.2	499.6	201.2	124.2	164.1	319.3	720.9	1515	2020	1938	1908	2057	3231	3190	410.8	23.06	2.590	1.944	1.259	1.059	0.861	0.779	0.741	0.516	0.479	0.451	0.380	0.377	0.350	0.371	0.787	2.150	3.515	4.208	3.669	3.259	2.883	2.440	2.548	2.407	2.421	2.490	2.771	2.850	2.704	2.259	1.799	1.371	0.998	0.601	0.542	0.517	0.454	0.663	0.710	1.005	1.611	2.343	3.506	5.431	7.106	9.057	9.322	8.647	8.261	8.516	8.616	8.350	9.334	11.53	16.61	19.79	20.21	14.17	5.382	1.117
295.0	1970	1420	745.7	307.0	176.8	220.3	409.5	808.2	1511	2666	3196	2586	1700	1193	2038	3780	574.6	19.61	2.847	1.878	1.323	1.074	1.047	0.864	0.682	0.560	0.362	0.437	0.622	0.564	0.426	1.032	2.796	4.864	5.787	5.327	4.755	4.095	3.400	3.207	3.371	3.354	3.295	3.840	3.719	3.864	3.264	2.626	2.183	1.420	0.997	0.849	0.686	0.708	0.796	1.053	1.365	1.907	2.681	3.716	5.055	6.648	9.314	12.72	14.80	14.02	12.11	11.40	9.716	8.010	6.413	6.069	5.880	8.826	18.31	26.54	20.75
300.0	2233	1682	887.6	384.9	211.2	256.6	448.0	878.9	1580	2601	3761	3226	1852	805.7	675.5	2663	3387	83.07	8.577	2.613	1.887	1.342	1.145	0.867	0.834	0.721	0.661	0.656	0.593	0.550	0.652	1.331	3.165	5.353	6.335	5.781	5.267	4.822	4.022	3.569	3.716	3.718	3.951	4.373	4.451	4.427	3.938	2.964	2.350	1.568	1.222	1.002	0.829	0.803	0.908	1.228	1.538	2.121	3.038	4.169	5.326	7.052	9.160	11.38	14.76	17.00	16.95	13.92	10.99	8.925	6.027	4.160	3.223	3.222	5.607	12.55	24.26
305.0	2326	1786	945.8	421.5	238.1	267.9	471.6	902.5	1584	2516	3557	3775	2097	820.6	342.9	821.7	3113	2650	66.16	3.983	2.305	1.517	1.187	1.127	0.831	0.753	0.755	0.625	0.485	0.394	0.564	1.376	3.475	5.693	6.713	6.268	6.073	4.990	4.215	3.769	3.862	3.977	4.385	4.431	4.770	4.184	3.972	3.462	2.588	1.701	1.318	1.161	0.859	0.909	0.861	1.074	1.569	2.045	3.174	4.194	5.377	7.287	9.364	11.12	13.14	15.62	17.32	17.32	13.88	9.901	6.629	4.110	2.725	2.175	2.169	3.676	7.970
310.0	2219	1702	941.0	427.7	247.1	270.9	448.5	841.1	1472	2314	3111	3396	2513	1008	338.2	299.4	933.9	2288	2366	280.3	15.72	2.381	1.687	1.267	1.024	0.910	0.788	0.689	0.550	0.484	0.626	1.395	3.021	5.387	6.546	6.082	5.435	4.623	4.035	3.719	3.609	3.618	4.165	4.255	4.408	4.260	3.868	3.397	2.676	1.563	1.434	1.146	1.040	0.900	1.066	1.202	1.512	2.001	2.847	3.701	4.992	6.792	8.371	10.44	12.30	13.60	14.48	15.23	14.72	12.44	8.571	5.149	3.187	2.166	1.796	1.944	2.693
315.0	1906	1536	867.1	426.3	260.9	274.7	420.8	744.0	1276	1998	2675	2813	2271	1431	492.6	248.7	314.7	593.3	1538	2801	403.5	11.60	2.049	1.386	1.272	1.019	0.872	0.788	0.606	0.680	0.726	1.194	2.710	4.704	5.889	5.478	5.222	4.417	3.658	3.284	2.908	3.122	3.532	3.837	3.669	3.855	3.482	3.105	2.386	1.590	1.340	1.237	0.986	0.921	1.098	1.171	1.410	1.792	2.390	3.378	4.430	6.438	7.566	9.268	10.92	11.67	12.28	12.37	11.88	10.80	9.959	8.050	5.107	2.886	2.028	2.103	1.874
320.0	1741	1393	829.2	424.1	286.4	298.6	393.0	661.5	1144	1781	2363	2472	1927	1424	794.0	305.2	224.7	226.5	460.1	2041	2409	61.93	5.535	2.217	1.545	1.117	0.928	0.678	0.606	0.683	0.493	0.987	2.444	4.496	4.997	5.030	4.745	3.944	3.174	3.031	2.659	2.870	3.104	3.487	3.209	3.772	3.137	2.795	2.186	1.644	1.242	1.116	1.076	1.024	1.098	1.182	1.503	1.811	2.457	3.053	4.030	5.498	6.631	8.070	9.302	10.47	11.15	11.22	10.26	8.943	7.957	7.445	7.241	5.215	2.953	2.377	2.032
325.0	1585	1268	795.9	459.4	317.1	304.2	386.8	581.5	1005	1560	2079	2172	1696	1160	979.3	473.5	237.2	165.0	178.6	643.1	2300	1872	50.24	3.427	1.916	1.230	0.990	0.719	0.576	0.734	0.682	0.918	2.063	3.846	4.415	4.596	4.087	3.499	2.897	2.654	2.382	2.489	2.816	2.978	3.008	3.344	2.883	2.753	2.004	1.567	1.297	1.260	0.958	1.104	1.099	1.242	1.445	1.772	2.060	2.890	3.482	4.583	5.761	7.025	7.971	9.187	9.453	9.506	9.257	8.434	6.674	5.908	5.998	6.344	5.151	3.224	2.596
330.0	1383	1159	781.0	475.2	350.1	314.8	355.3	501.7	835.5	1273	1708	1820	1441	940.9	745.9	689.3	384.0	180.0	130.1	213.0	693.4	1713	1769	222.3	12.16	2.074	1.284	0.945	0.767	0.733	0.662	1.073	1.807	3.317	3.681	3.644	3.313	2.931	2.561	2.168	2.102	2.163	2.357	2.574	2.740	2.833	2.560	2.551	2.028	1.552	1.259	1.338	1.124	1.078	1.111	1.151	1.286	1.635	1.876	2.306	2.843	3.657	4.602	5.714	6.673	7.553	7.801	7.797	7.760	7.080	5.775	5.054	4.533	4.518	4.609	4.694	4.139
335.0	1202	1059	764.7	497.1	366.9	326.6	337.9	436.5	686.6	1033	1382	1488	1229	821.3	578.1	544.0	605.4	295.2	142.3	129.9	202.5	426.9	1216	2183	330.4	9.977	1.911	1.301	0.903	0.764	0.731	0.920	1.632	2.480	2.950	3.004	2.842	2.594	1.999	1.755	1.829	1.944	1.917	2.167	2.439	2.414	2.392	2.233	2.052	1.615	1.347	1.345	1.090	1.194	1.123	1.076	1.263	1.475	1.566	2.027	2.417	3.225	3.848	4.687	5.430	5.824	6.329	6.379	6.561	6.141	5.034	4.522	3.775	3.472	3.386	3.263	3.777
340.0	1075	1007	730.4	499.5	370.5	333.0	319.8	397.0	589.4	874.9	1159	1254	1067	737.7	517.5	424.4	519.2	462.1	183.2	117.2	96.60	124.7	340.7	1633	1934	52.84	3.993	1.575	1.018	0.978	0.818	0.834	1.555	1.944	2.685	2.564	2.328	2.241	2.095	1.633	1.659	1.659	1.777	1.771	2.308	2.244	2.162	2.245	1.832	1.535	1.310	1.182	1.219	1.117	1.144	1.087	1.187	1.385	1.462	1.694	2.109	2.887	3.166	4.149	4.588	5.132	5.465	5.544	5.571	5.272	4.593	3.986	3.449	3.297	2.931	2.774	2.730
345.0	898.3	924.4	691.9	462.6	359.4	312.2	298.3	350.1	509.0	739.4	973.0	1047	904.0	661.3	468.5	366.1	364.2	472.3	295.6	121.9	72.29	59.88	96.23	493.5	1870	1514	43.63	2.449	1.162	1.035	0.807	0.889	1.271	1.620	2.387	2.129	2.118	2.042	1.746	1.515	1.452	1.480	1.656	1.653	1.875	2.177	2.025	2.147	1.851	1.380	1.215	1.356	1.116	1.017	1.119	1.044	1.153	1.148	1.341	1.608	1.833	2.162	2.778	3.337	3.636	4.104	4.438	4.556	4.683	4.399	3.923	3.431	3.212	3.014	2.691	2.415	2.122
350.0	757.2	776.1	623.0	422.2	333.0	287.7	262.1	297.2	420.5	582.3	763.2	831.0	727.4	544.1	401.2	315.0	273.7	293.6	350.7	223.2	73.04	45.69	44.05	125.9	547.4	1359	1391	195.2	9.924	1.433	1.027	0.978	1.156	1.462	1.917	1.776	1.659	1.568	1.414	1.209	1.171	1.324	1.451	1.497	1.599	1.817	1.713	1.912	1.544	1.343	1.113	1.307	1.137	1.019	1.001	0.917	0.961	1.061	1.082	1.341	1.544	1.961	2.258	2.719	2.954	3.379	3.484	3.718	3.608	3.574	3.119	2.741	2.699	2.421	2.379	2.142	2.070
355.0	643.4	660.8	565.3	386.6	317.0	274.2	240.0	256.1	341.9	452.0	597.3	632.2	571.9	437.8	341.8	273.8	228.1	197.5	212.8	302.3	162.3	48.27	33.40	45.46	134.4	327.3	949.1	1647	291.1	8.039	1.298	1.002	1.113	1.250	1.618	1.433	1.303	1.260	1.100	1.047	1.147	0.984	1.113	1.249	1.415	1.448	1.438	1.588	1.464	1.157	0.955	1.118	0.971	0.858	0.835	0.959	0.968	1.016	1.016	1.127	1.269	1.564	1.791	2.021	2.454	2.600	2.724	2.870	2.942	2.795	2.413	2.267	2.334	2.119	1.927	1.824	1.761
360.0	590.4	614.0	499.3	350.7	289.7	248.5	224.8	226.9	300.1	384.1	496.2	525.9	481.3	373.0	295.1	242.3	200.5	162.6	143.9	215.3	247.2	68.98	33.40	29.39	44.52	84.71	257.9	1228	1526	49.98	3.494	1.329	1.241	1.209	1.333	1.171	1.145	1.096	1.030	0.936	1.109	0.818	1.085	1.226	1.254	1.446	1.351	1.427	1.284	1.043	1.047	1.131	1.010	0.809	0.880	0.743	0.851	0.840	0.847	0.981	1.140	1.268	1.523	1.679	1.974	2.089	2.067	2.328	2.379	2.380	1.983	1.916	1.872	1.898	1.638	1.682	1.496
365.0	532.2	546.1	456.6	327.9	265.1	228.4	201.3	209.4	261.0	329.0	417.3	443.8	403.3	323.0	253.9	213.7	177.7	145.6	117.5	130.6	219.9	172.4	48.18	26.23	25.12	31.23	68.13	368.0	1460	1240	40.50	2.050	1.116	1.323	1.356	1.080	1.077	1.067	0.869	0.809	0.935	0.795	0.978	0.972	1.014	1.278	1.304	1.317	1.141	0.966	0.913	0.981	0.891	0.879	0.754	0.738	0.867	0.810	0.770	0.911	0.972	1.151	1.352	1.422	1.699	1.944	1.733	2.027	1.989	2.001	1.762	1.690	1.708	1.816	1.437	1.415	1.331
370.0	447.1	464.8	398.2	299.6	241.0	210.8	184.2	188.9	218.0	269.2	331.4	359.8	326.0	265.3	215.0	181.1	154.4	126.5	102.6	90.97	113.4	177.8	138.3	41.55	22.24	20.08	25.18	91.04	422.0	1106	1161	177.6	9.390	1.491	1.249	1.112	0.998	0.978	0.808	0.629	0.801	0.689	0.840	0.879	0.909	1.036	1.173	1.136	1.067	0.887	0.805	0.859	0.910	0.774	0.747	0.677	0.746	0.683	0.830	0.782	0.872	1.025	1.127	1.203	1.371	1.452	1.490	1.561	1.731	1.589	1.406	1.464	1.453	1.449	1.243	1.240	1.156
375.0	372.7	409.6	347.8	253.7	213.1	194.2	167.1	162.1	185.6	222.5	269.5	286.3	264.7	219.3	181.1	155.0	130.9	109.7	89.68	74.29	68.53	87.54	165.4	123.0	31.40	18.80	16.34	28.76	100.8	264.2	773.2	1373	254.0	7.061	1.230	1.090	0.903	1.029	0.718	0.651	0.649	0.619	0.716	0.651	0.851	0.908	1.087	1.026	0.915	0.770	0.818	0.786	0.733	0.733	0.662	0.598	0.704	0.631	0.666	0.711	0.826	0.951	0.953	0.957	1.111	1.246	1.305	1.305	1.532	1.308	1.201	1.219	1.269	1.140	0.963	1.119	1.039
380.0	343.4	378.0	324.1	231.2	199.4	176.4	152.9	151.2	163.6	190.7	226.2	240.1	219.4	187.4	158.4	132.2	116.0	97.43	80.51	67.82	54.55	52.95	100.8	170.0	57.60	20.26	14.28	14.92	28.81	64.48	208.7	1013	1278	41.41	3.175	1.349	1.002	0.999	0.631	0.641	0.646	0.737	0.661	0.630	0.759	0.791	0.917	0.932	0.919	0.752	0.717	0.768	0.691	0.729	0.595	0.596	0.601	0.641	0.584	0.723	0.799	0.684	0.802	0.827	0.970	1.020	0.974	1.051	1.128	1.018	1.056	0.990	0.996	1.032	0.877	1.017	0.911
385.0	293.6	324.5	289.5	214.8	181.6	156.2	144.0	136.2	148.6	163.9	193.7	205.6	195.5	161.9	134.9	119.2	103.3	89.08	71.74	61.88	47.90	41.95	54.80	127.6	129.5	38.81	14.51	11.54	12.95	19.92	52.49	300.7	1191	996.9	33.32	1.724	1.014	0.880	0.629	0.677	0.634	0.649	0.638	0.648	0.630	0.731	0.870	0.857	0.801	0.735	0.636	0.651	0.718	0.616	0.610	0.525	0.576	0.485	0.481	0.714	0.656	0.757	0.757	0.744	0.908	0.966	0.957	1.036	0.941	0.958	0.831	0.842	0.902	0.838	0.684	0.759	0.757
390.0	268.0	280.3	261.6	187.6	164.1	141.7	129.7	120.6	129.5	141.6	162.0	171.7	163.1	137.2	115.8	101.8	88.76	76.38	64.58	55.75	44.61	38.27	37.26	59.01	112.6	102.0	31.67	11.05	9.131	9.901	15.99	71.85	338.7	866.0	919.6	142.6	7.951	1.055	0.739	0.720	0.623	0.604	0.610	0.574	0.642	0.734	0.787	0.807	0.639	0.581	0.575	0.590	0.569	0.597	0.528	0.515	0.576	0.544	0.527	0.534	0.598	0.634	0.699	0.704	0.775	0.791	0.831	0.886	0.886	0.830	0.716	0.734	0.702	0.650	0.699	0.732	0.673
395.0	243.3	254.7	233.0	166.2	146.3	127.4	117.0	109.0	114.5	115.7	135.6	140.8	134.6	118.5	100.3	86.00	76.18	64.54	57.51	49.98	41.52	35.36	31.16	33.17	49.59	100.8	93.14	23.49	8.358	7.363	7.980	19.64	79.24	205.3	595.1	1065	214.3	5.962	1.003	0.814	0.645	0.547	0.661	0.503	0.621	0.682	0.664	0.623	0.619	0.513	0.500	0.544	0.544	0.521	0.509	0.450	0.547	0.433	0.468	0.542	0.463	0.662	0.562	0.623	0.612	0.663	0.606	0.680	0.697	0.671	0.628	0.617	0.652	0.579	0.670	0.688	0.568
400.0	226.4	220.9	202.9	155.8	133.6	117.4	102.0	96.14	103.8	103.7	122.3	126.3	114.4	102.9	88.98	78.19	67.45	59.06	51.65	45.60	37.29	33.62	29.25	26.62	27.77	55.24	112.0	51.15	11.90	6.612	6.471	8.404	21.16	49.71	157.4	746.7	978.2	36.02	2.845	0.868	0.757	0.564	0.524	0.482	0.627	0.620	0.599	0.557	0.562	0.526	0.483	0.539	0.490	0.501	0.470	0.380	0.494	0.485	0.480	0.448	0.486	0.507	0.447	0.553	0.500	0.637	0.526	0.649	0.493	0.651	0.642	0.620	0.521	0.617	0.558	0.542	0.530
405.0	219.7	211.5	189.3	143.0	116.9	110.9	97.61	92.75	89.55	93.23	107.5	111.2	102.7	93.13	80.12	70.05	61.21	54.17	47.88	43.05	36.54	30.84	27.54	24.46	21.04	27.52	72.71	97.12	30.71	7.218	6.084	5.419	8.172	13.99	38.48	212.2	855.0	744.6	29.90	1.317	0.727	0.677	0.576	0.553	0.421	0.572	0.565	0.570	0.646	0.439	0.395	0.475	0.421	0.395	0.444	0.379	0.381	0.388	0.434	0.385	0.446	0.431	0.373	0.457	0.558	0.572	0.549	0.531	0.594	0.508	0.600	0.533	0.596	0.483	0.610	0.428	0.446
410.0	190.4	199.7	162.6	127.4	103.0	98.47	85.96	80.72	79.54	81.19	91.01	95.05	90.12	80.99	69.05	61.11	53.64	47.81	42.38	39.05	33.93	29.80	25.92	22.48	18.41	17.77	30.97	70.79	76.18	27.26	6.552	4.883	5.150	6.026	11.02	50.43	235.2	610.2	667.4	131.4	7.145	0.753	0.635	0.603	0.530	0.606	0.544	0.599	0.513	0.436	0.392	0.461	0.426	0.390	0.382	0.375	0.425	0.399	0.409	0.371	0.428	0.500	0.349	0.509	0.440	0.499	0.495	0.457	0.465	0.554	0.539	0.468	0.445	0.494	0.504	0.472	0.412
415.0	151.8	172.6	156.5	113.6	93.09	86.79	80.61	73.10	66.58	69.58	75.02	81.44	76.19	68.98	59.10	52.21	47.32	41.11	37.67	35.12	31.23	27.55	24.20	21.24	17.33	14.52	16.59	27.66	64.95	71.89	19.28	4.860	4.131	3.956	5.198	13.28	54.49	143.3	384.2	737.2	191.3	5.818	0.823	0.628	0.544	0.632	0.426	0.546	0.527	0.489	0.424	0.390	0.422	0.331	0.268	0.388	0.498	0.366	0.358	0.283	0.387	0.438	0.384	0.331	0.421	0.465	0.442	0.375	0.404	0.459	0.493	0.487	0.323	0.337	0.465	0.310	0.351
420.0	148.7	167.1	136.6	109.4	82.23	79.02	75.29	63.11	62.86	62.97	67.84	70.29	66.87	61.61	52.95	45.81	41.40	38.00	34.48	31.99	29.61	26.45	23.32	20.13	16.29	13.28	12.45	14.18	32.64	75.70	46.29	8.858	3.815	3.426	3.889	4.983	13.84	34.07	98.94	477.5	688.4	33.74	2.453	0.728	0.482	0.628	0.440	0.533	0.481	0.411	0.372	0.409	0.415	0.366	0.327	0.357	0.400	0.382	0.249	0.337	0.368	0.357	0.357	0.393	0.310	0.385	0.434	0.373	0.306	0.403	0.430	0.434	0.337	0.328	0.437	0.324	0.393
425.0	145.8	152.3	125.4	95.46	79.37	67.86	66.14	63.08	57.76	57.83	65.24	64.28	62.64	55.28	47.63	41.05	38.49	35.26	31.61	29.93	27.26	25.16	22.65	19.32	15.72	12.16	10.97	9.848	15.01	46.38	70.39	24.66	5.100	3.449	3.261	3.541	4.828	9.371	24.02	131.4	549.6	560.1	28.72	1.188	0.528	0.516	0.715	0.465	0.458	0.399	0.315	0.409	0.396	0.325	0.333	0.333	0.337	0.375	0.253	0.343	0.375	0.329	0.308	0.393	0.358	0.337	0.369	0.358	0.303	0.312	0.455	0.354	0.353	0.267	0.386	0.369	0.285
430.0	312.9	139.1	112.9	85.90	74.74	62.40	58.95	54.72	50.37	51.30	56.03	55.54	54.67	49.87	42.78	38.39	34.40	31.51	28.69	28.39	25.85	23.36	20.70	18.73	14.47	11.76	9.785	8.738	9.367	18.23	46.53	51.83	20.71	4.116	2.532	2.637	2.928	3.699	6.754	31.08	147.2	410.4	416.1	125.6	7.314	0.732	0.608	0.532	0.435	0.341	0.320	0.382	0.350	0.330	0.304	0.265	0.323	0.319	0.286	0.267	0.286	0.294	0.263	0.341	0.321	0.323	0.291	0.322	0.409	0.279	0.328	0.306	0.290	0.322	0.290	0.323	0.305
435.0	816.9	152.5	99.11	81.45	68.93	60.53	55.16	49.61	43.73	45.93	48.53	49.75	45.20	43.03	36.72	33.66	30.71	29.06	26.52	25.15	23.84	22.72	20.37	18.30	14.34	10.46	9.733	8.077	7.699	9.031	16.87	40.75	48.85	15.23	2.881	2.188	2.044	2.694	2.935	8.063	34.07	95.15	244.8	652.8	192.9	7.731	0.756	0.490	0.471	0.343	0.364	0.346	0.350	0.305	0.282	0.284	0.347	0.306	0.344	0.325	0.246	0.241	0.206	0.283	0.306	0.327	0.286	0.269	0.323	0.373	0.336	0.300	0.272	0.182	0.324	0.270	0.192
440.0	1245	278.3	89.41	73.31	61.04	55.29	48.80	44.72	38.85	42.85	45.30	45.48	41.24	38.03	34.57	30.43	29.15	26.82	24.83	24.07	22.91	21.47	19.62	17.65	13.97	10.24	8.933	7.994	6.785	6.335	8.377	19.98	49.26	34.33	6.924	2.030	1.630	1.877	2.313	3.018	8.692	22.77	61.74	397.4	628.5	151.1	3.365	0.611	0.509	0.416	0.329	0.344	0.353	0.357	0.237	0.329	0.308	0.206	0.306	0.290	0.252	0.237	0.257	0.301	0.262	0.313	0.375	0.297	0.242	0.340	0.236	0.312	0.257	0.238	0.215	0.307	0.214
445.0	1210	659.5	95.56	67.52	54.36	50.32	45.95	42.11	36.54	38.14	40.11	42.10	39.11	35.63	30.52	27.95	27.15	24.41	22.86	22.00	22.08	21.00	18.70	16.44	12.61	10.23	8.604	7.271	6.329	5.816	5.757	8.859	28.83	45.59	19.19	2.988	1.498	1.838	2.031	1.979	2.892	6.048	15.27	105.3	456.8	576.2	26.17	1.618	0.557	0.479	0.394	0.360	0.374	0.393	0.358	0.246	0.276	0.205	0.277	0.305	0.258	0.228	0.174	0.284	0.251	0.280	0.308	0.306	0.189	0.256	0.211	0.195	0.324	0.258	0.249	0.235	0.177
450.0	650.6	1215	276.6	63.20	50.99	45.61	41.33	37.86	34.71	32.41	35.03	36.32	34.39	31.65	27.42	25.50	22.82	22.54	21.28	20.58	19.66	19.34	17.10	15.18	12.18	9.733	7.724	6.833	5.820	5.298	4.589	4.872	10.82	28.67	34.18	14.48	2.787	1.535	1.430	1.652	1.907	2.280	4.341	24.64	119.1	368.7	478.9	116.0	7.377	0.546	0.429	0.399	0.357	0.304	0.307	0.267	0.289	0.238	0.285	0.244	0.267	0.238	0.182	0.256	0.187	0.267	0.234	0.231	0.238	0.269	0.213	0.209	0.189	0.236	0.163	0.180	0.212
455.0	207.8	1065	842.2	80.19	43.09	40.34	37.64	34.97	30.26	28.73	29.95	30.85	28.54	27.38	23.89	21.54	20.89	20.55	18.75	18.57	18.80	17.30	15.72	13.55	11.04	9.346	7.419	6.704	5.060	4.611	4.397	3.635	4.684	9.597	25.08	31.28	10.83	1.868	1.185	1.204	1.548	1.661	1.892	6.226	27.58	84.52	209.7	514.5	169.9	8.330	0.533	0.451	0.309	0.317	0.213	0.313	0.260	0.276	0.290	0.216	0.237	0.146	0.160	0.200	0.193	0.258	0.201	0.242	0.249	0.182	0.229	0.170	0.229	0.191	0.184	0.225	0.145
460.0	104.5	566.6	1293	212.1	39.40	35.33	32.09	31.13	27.13	26.87	26.43	28.20	25.70	24.04	21.33	18.46	18.57	19.29	17.36	16.71	16.99	15.90	14.52	13.22	9.692	8.422	7.338	6.002	5.180	4.580	3.558	3.151	3.402	4.269	11.26	29.66	22.66	4.636	1.022	1.019	1.097	1.576	1.537	2.169	6.967	19.99	50.89	273.0	507.4	128.9	4.246	0.609	0.306	0.290	0.300	0.259	0.294	0.270	0.277	0.265	0.215	0.241	0.164	0.225	0.144	0.195	0.187	0.177	0.234	0.284	0.290	0.219	0.215	0.249	0.170	0.175	0.178
465.0	85.93	245.1	1268	561.0	47.10	34.65	30.69	27.23	25.26	25.38	25.04	24.39	24.20	22.36	19.35	17.39	17.30	16.51	15.85	15.33	15.58	15.00	14.00	12.37	9.623	7.465	6.942	5.625	4.702	3.967	3.472	3.041	2.574	2.745	4.773	17.23	27.98	13.11	2.173	1.011	0.918	1.132	1.426	1.430	2.368	5.328	12.34	70.57	340.8	442.4	22.83	2.072	0.443	0.355	0.298	0.298	0.266	0.208	0.210	0.252	0.215	0.284	0.221	0.163	0.194	0.170	0.166	0.158	0.234	0.244	0.168	0.278	0.247	0.142	0.233	0.139	0.139
470.0	137.7	103.3	634.4	1034	190.8	30.71	26.34	24.30	22.65	22.04	20.87	20.70	20.26	19.22	17.47	15.95	14.79	14.49	14.03	13.77	13.72	13.22	12.58	10.82	8.457	6.331	5.902	5.180	4.236	3.889	3.237	2.716	2.376	2.184	2.492	6.451	17.31	21.54	9.329	1.895	0.869	0.898	1.141	1.391	1.446	1.881	3.554	16.68	86.52	252.4	330.2	111.3	8.299	0.442	0.290	0.270	0.281	0.255	0.224	0.213	0.202	0.192	0.182	0.142	0.201	0.181	0.124	0.120	0.177	0.173	0.146	0.184	0.170	0.183	0.189	0.170	0.199
475.0	187.1	83.87	197.0	994.4	623.7	47.45	24.16	21.37	19.85	20.02	18.59	18.54	16.87	17.09	14.57	13.89	13.42	12.87	11.90	11.52	12.19	11.37	10.14	9.384	7.380	5.966	4.941	4.287	3.662	3.425	2.937	2.409	2.169	1.594	1.786	2.695	6.151	15.24	19.33	7.252	1.308	0.922	0.964	1.162	1.472	1.310	1.501	4.413	20.06	57.50	127.4	346.0	168.9	11.10	0.473	0.341	0.241	0.202	0.232	0.222	0.228	0.182	0.152	0.167	0.135	0.236	0.126	0.193	0.172	0.110	0.155	0.123	0.129	0.109	0.189	0.145	0.214
480.0	183.6	116.7	78.10	540.2	1111	153.1	23.86	19.27	17.49	16.32	16.99	17.04	15.95	14.36	13.05	12.49	11.83	10.97	10.83	10.73	10.97	10.43	9.609	8.987	7.170	5.472	4.557	4.138	3.579	3.318	2.812	2.246	1.837	1.605	1.666	1.487	2.643	7.367	18.58	14.22	3.573	0.896	0.875	0.979	1.235	1.437	0.982	1.651	5.123	13.67	30.42	159.0	397.3	143.9	4.676	0.500	0.288	0.203	0.297	0.205	0.215	0.213	0.112	0.154	0.188	0.165	0.120	0.157	0.148	0.106	0.119	0.109	0.107	0.181	0.136	0.118	0.128
485.0	139.1	151.5	49.73	213.3	1169	441.4	24.98	18.52	16.48	15.51	17.06	15.99	13.36	13.67	11.32	10.81	10.53	10.34	10.57	9.833	9.914	9.500	9.097	7.798	6.496	5.224	4.527	3.628	3.359	2.923	2.775	2.227	1.705	1.497	1.448	1.379	1.434	3.224	11.13	17.72	8.686	1.674	0.784	0.915	0.980	1.345	1.200	1.231	1.829	3.793	7.633	39.82	237.7	376.4	27.43	2.113	0.427	0.273	0.362	0.243	0.187	0.205	0.134	0.084	0.151	0.157	0.156	0.134	0.114	0.165	0.104	0.094	0.138	0.101	0.210	0.098	0.108
490.0	75.11	174.9	78.83	75.56	619.5	990.9	141.2	17.64	14.88	14.23	14.05	13.65	12.74	12.10	11.11	9.921	9.601	9.256	9.104	8.637	8.498	8.171	7.652	7.196	6.286	4.676	3.833	3.478	3.070	2.777	2.418	1.955	1.677	1.478	1.337	1.310	1.220	1.716	4.348	11.88	14.04	6.356	1.429	0.921	0.894	0.980	1.308	1.397	1.223	1.639	2.541	9.789	59.20	189.3	302.6	116.3	10.09	0.502	0.374	0.248	0.226	0.193	0.149	0.178	0.134	0.137	0.115	0.133	0.109	0.135	0.118	0.127	0.109	0.082	0.084	0.122	0.106
495.0	35.29	133.5	129.0	44.73	180.0	957.9	442.1	26.91	14.07	13.81	12.70	11.46	11.54	9.967	9.450	8.829	8.933	8.045	7.964	7.994	7.287	7.342	7.053	6.778	5.595	4.239	3.477	2.846	3.087	2.410	2.125	1.746	1.766	1.387	1.252	1.254	1.087	1.175	1.930	4.403	10.96	12.44	5.097	1.204	0.996	0.989	1.171	1.705	1.744	1.329	1.561	3.081	14.30	43.56	115.4	337.2	190.6	13.22	0.579	0.346	0.274	0.240	0.193	0.106	0.126	0.188	0.088	0.144	0.080	0.196	0.123	0.112	0.093	0.105	0.090	0.174	0.104
500.0	23.03	87.63	176.0	50.01	58.74	545.1	986.7	101.0	13.68	13.14	11.78	10.23	9.536	8.812	9.267	7.492	7.197	7.867	6.598	7.363	7.155	6.473	5.807	6.050	4.995	3.917	3.218	2.977	2.392	2.179	1.927	1.687	1.647	1.175	1.230	1.095	0.953	1.003	1.167	1.920	5.605	12.91	9.596	2.779	1.138	0.938	1.058	1.425	1.851	1.580	1.427	1.793	4.346	10.92	28.22	148.2	373.2	154.0	6.280	0.479	0.291	0.208	0.155	0.084	0.204	0.165	0.146	0.157	0.127	0.171	0.083	0.124	0.135	0.078	0.101	0.101	0.106
505.0	21.36	45.86	166.4	82.07	29.69	208.4	1116	306.7	15.78	12.61	10.78	10.09	9.199	8.622	8.375	7.199	6.699	6.810	5.614	6.510	6.355	5.942	5.578	5.421	4.076	3.631	3.151	2.789	2.100	1.925	1.836	1.683	1.456	1.235	1.029	1.004	1.114	1.047	1.057	1.170	2.498	8.393	11.97	5.778	1.623	1.004	1.137	1.334	1.616	1.967	1.578	1.602	2.365	3.807	8.082	37.27	198.3	349.4	30.36	2.641	0.388	0.289	0.148	0.166	0.107	0.159	0.182	0.137	0.128	0.214	0.086	0.144	0.081	0.135	0.165	0.106	0.122
510.0	18.84	26.32	101.0	129.8	34.36	63.68	622.5	879.6	99.38	12.49	10.44	8.983	8.967	7.740	6.736	5.978	6.110	5.839	5.185	5.609	5.575	4.996	4.595	4.526	3.813	3.009	2.760	2.248	2.062	1.915	1.798	1.541	1.327	1.196	1.045	0.960	0.956	0.920	0.966	0.954	1.260	3.445	8.904	9.767	4.694	1.532	1.145	1.211	1.433	1.897	1.998	1.903	2.034	2.359	3.598	10.12	49.13	162.4	219.7	119.4	10.51	0.477	0.208	0.224	0.139	0.185	0.122	0.180	0.100	0.148	0.119	0.199	0.109	0.094	0.117	0.101	0.087
515.0	18.77	20.38	43.14	149.5	64.48	28.07	181.7	982.6	472.7	17.52	10.62	8.507	8.079	6.521	6.003	4.679	5.288	4.964	4.586	4.735	4.649	4.416	3.844	3.946	3.305	2.622	2.384	2.122	1.876	1.786	1.419	1.432	1.254	0.969	0.986	0.935	0.912	0.932	0.757	0.725	0.944	1.500	3.853	8.462	9.098	3.598	1.481	1.257	1.378	1.696	2.002	2.323	2.253	2.128	2.369	3.923	12.44	37.67	78.93	258.0	179.3	13.29	0.379	0.274	0.146	0.197	0.121	0.175	0.066	0.132	0.130	0.118	0.088	0.124	0.071	0.035	0.077
520.0	17.59	19.05	23.62	116.8	109.8	23.08	55.08	603.5	923.5	68.99	9.108	8.293	7.805	6.063	4.894	4.572	4.819	4.390	4.284	4.096	4.447	3.746	3.745	3.490	2.869	2.322	2.267	2.014	1.628	1.565	1.370	1.321	1.182	0.950	0.957	0.834	0.821	0.860	0.727	0.685	0.897	0.935	1.756	5.178	9.583	6.678	2.175	1.342	1.305	1.491	1.648	2.399	2.377	2.054	2.056	2.506	4.210	9.786	19.14	106.4	285.4	131.7	6.752	0.323	0.266	0.182	0.124	0.114	0.090	0.094	0.088	0.095	0.087	0.157	0.072	0.057	0.054
525.0	11.20	18.82	16.41	70.20	136.9	31.48	23.88	233.1	1139	231.6	9.206	7.449	6.685	5.424	4.621	4.091	3.487	3.668	3.738	3.835	3.922	3.313	3.340	3.417	2.623	2.205	1.966	1.808	1.488	1.484	1.382	1.332	1.113	1.001	0.897	0.715	0.760	0.799	0.682	0.729	0.691	0.807	1.036	2.511	6.821	8.282	4.063	1.405	1.303	1.377	1.465	1.794	2.291	2.197	2.041	1.955	2.366	3.582	5.322	25.84	141.0	267.6	31.10	2.181	0.268	0.284	0.176	0.154	0.159	0.115	0.124	0.063	0.122	0.169	0.030	0.089	0.036
530.0	12.65	14.78	12.41	28.65	118.6	76.26	16.17	67.82	691.3	797.6	67.17	7.430	6.151	4.523	4.205	3.442	3.058	3.264	3.296	3.100	3.347	3.169	2.942	2.771	2.248	1.862	1.650	1.472	1.307	1.378	1.188	1.053	0.964	0.896	0.782	0.795	0.706	0.742	0.729	0.666	0.554	0.687	0.792	1.204	3.223	6.858	6.573	3.034	1.441	1.278	1.325	1.455	1.810	2.429	2.287	1.803	1.790	1.910	2.077	6.587	34.04	118.5	186.6	102.0	9.942	0.290	0.169	0.166	0.129	0.093	0.108	0.083	0.091	0.081	0.072	0.086	0.026
535.0	12.90	11.95	11.38	12.64	64.29	120.2	26.06	24.13	199.1	968.9	396.8	9.827	5.735	4.064	3.780	3.042	2.446	2.977	2.941	2.631	2.895	2.553	2.372	2.232	1.843	1.732	1.474	1.175	1.122	1.144	0.985	0.942	0.687	0.806	0.690	0.675	0.706	0.567	0.538	0.569	0.548	0.653	0.613	0.736	1.369	3.112	6.136	5.433	2.329	1.242	1.152	1.359	1.527	1.707	2.362	1.895	1.508	1.406	1.192	2.079	8.107	26.92	60.17	184.0	139.6	11.72	0.320	0.141	0.084	0.104	0.107	0.132	0.076	0.063	0.081	0.101	0.061
540.0	9.304	6.966	9.639	10.60	29.36	119.5	47.00	15.16	54.57	612.1	855.1	34.93	5.007	3.524	3.213	2.562	2.382	2.571	2.460	2.182	2.333	2.223	2.089	1.829	1.411	1.465	1.147	1.027	0.952	1.013	0.767	0.800	0.758	0.729	0.586	0.595	0.646	0.526	0.493	0.472	0.539	0.485	0.493	0.607	0.843	1.556	4.027	6.140	3.799	1.553	0.963	1.173	1.199	1.458	1.842	2.126	1.564	1.151	0.891	1.024	2.430	6.402	14.10	71.74	205.0	103.0	5.050	0.234	0.160	0.091	0.139	0.098	0.023	0.092	0.198	0.101	0.027
545.0	4.494	10.12	10.37	8.442	14.12	98.21	85.53	14.44	22.47	233.8	1097	152.4	5.851	3.802	2.998	2.627	2.306	2.280	2.018	2.039	2.252	1.837	1.724	1.764	1.384	1.230	1.081	1.020	0.999	1.012	0.786	0.694	0.654	0.667	0.656	0.456	0.436	0.634	0.555	0.494	0.495	0.479	0.483	0.650	0.620	0.853	2.104	4.752	5.126	2.397	1.003	0.975	1.015	1.231	1.377	1.781	1.661	1.054	0.841	0.665	0.972	1.726	3.540	17.10	95.11	198.7	30.48	1.880	0.179	0.136	0.120	0.093	0.068	0.079	0.091	0.043	0.057
550.0	12.57	8.956	9.687	6.709	8.124	44.93	117.8	30.95	14.44	68.13	660.9	624.5	33.83	3.839	2.766	2.132	1.873	1.970	1.869	1.769	2.040	1.641	1.468	1.447	1.185	1.049	0.972	0.947	0.829	0.907	0.769	0.534	0.718	0.607	0.541	0.494	0.423	0.490	0.463	0.461	0.403	0.513	0.494	0.538	0.502	0.530	1.027	2.395	4.473	3.579	1.742	0.920	0.983	0.928	1.127	1.342	1.588	1.538	0.801	0.507	0.539	0.677	1.002	4.093	22.64	82.35	129.1	75.07	8.791	0.223	0.131	0.145	0.073	0.088	0.073	0.060	0.070
555.0	22.44	17.32	10.07	7.323	5.395	16.94	96.87	77.19	22.10	36.12	203.7	843.2	160.1	5.825	2.408	1.949	1.723	1.360	1.336	1.399	1.556	1.217	1.198	1.171	1.020	0.761	0.831	0.771	0.656	0.550	0.626	0.587	0.580	0.484	0.603	0.412	0.425	0.334	0.361	0.357	0.439	0.332	0.436	0.405	0.544	0.449	0.619	1.003	2.317	3.627	3.201	1.430	0.732	0.824	0.905	0.961	0.968	1.400	1.217	0.684	0.482	0.418	0.492	1.172	5.469	18.69	39.69	120.7	96.08	9.246	0.202	0.143	0.124	0.083	0.086	0.042	0.053
560.0	42.95	26.36	13.87	9.097	7.127	9.510	59.68	118.3	38.23	41.80	86.15	583.5	525.6	19.99	2.581	1.914	1.635	1.199	1.073	1.196	1.161	1.010	1.097	0.928	0.941	0.765	0.698	0.705	0.497	0.502	0.554	0.514	0.435	0.512	0.524	0.344	0.464	0.386	0.501	0.322	0.379	0.366	0.369	0.435	0.448	0.462	0.490	0.659	1.070	2.493	3.219	2.270	0.837	0.748	0.731	0.765	0.708	0.746	1.360	0.845	0.482	0.318	0.389	0.574	1.605	4.501	9.305	44.66	128.6	33.27	3.643	0.162	0.160	0.048	0.053	0.068	0.097
565.0	53.37	41.94	17.51	9.342	8.092	11.50	34.08	126.8	70.23	58.94	78.95	263.9	745.6	91.24	3.074	1.717	1.507	1.074	0.933	0.941	1.194	0.973	0.968	0.887	0.669	0.684	0.625	0.400	0.468	0.467	0.547	0.430	0.449	0.537	0.435	0.421	0.432	0.446	0.401	0.315	0.390	0.361	0.545	0.423	0.398	0.492	0.510	0.467	0.628	1.375	2.801	2.571	1.092	0.724	0.645	0.595	0.618	0.640	0.977	1.120	0.655	0.386	0.432	0.570	0.759	1.388	2.396	10.80	55.01	111.4	29.06	1.245	0.140	0.104	0.069	0.076	0.084
570.0	85.88	58.67	28.68	13.37	10.23	13.11	26.64	102.5	132.0	93.91	108.5	144.1	508.9	411.5	18.34	1.903	1.285	1.155	0.846	1.011	0.887	0.932	0.927	0.857	0.581	0.513	0.538	0.456	0.488	0.367	0.412	0.404	0.514	0.512	0.510	0.437	0.412	0.411	0.345	0.387	0.341	0.331	0.431	0.409	0.411	0.449	0.418	0.456	0.471	0.681	1.526	2.336	1.711	0.957	0.568	0.534	0.482	0.501	0.577	0.876	1.006	0.688	0.459	0.584	0.699	0.831	1.034	2.959	13.16	45.05	77.55	50.18	6.771	0.204	0.125	0.133	0.043
575.0	114.4	75.18	35.69	18.77	12.94	16.64	26.54	71.97	170.3	142.8	147.7	138.3	200.6	592.9	106.1	2.175	1.290	0.867	0.788	0.823	0.740	0.625	0.673	0.769	0.426	0.337	0.405	0.450	0.336	0.306	0.358	0.410	0.463	0.671	0.537	0.432	0.434	0.441	0.347	0.363	0.352	0.302	0.474	0.426	0.522	0.543	0.450	0.415	0.410	0.428	0.681	1.277	1.777	1.532	0.673	0.437	0.439	0.427	0.453	0.572	0.899	1.205	0.874	0.626	0.672	0.743	0.800	1.196	3.418	10.47	22.38	71.25	62.28	6.850	0.238	0.175	0.105
580.0	124.4	93.33	43.23	20.29	12.14	16.28	29.04	61.09	169.3	195.2	172.3	155.8	116.5	408.5	334.6	8.673	1.210	0.830	0.662	0.713	0.590	0.621	0.534	0.417	0.440	0.375	0.402	0.380	0.329	0.278	0.332	0.539	0.489	0.550	0.554	0.466	0.467	0.468	0.456	0.355	0.389	0.331	0.424	0.440	0.461	0.430	0.419	0.386	0.368	0.360	0.402	0.585	1.430	1.724	0.986	0.526	0.415	0.356	0.458	0.467	0.687	1.173	1.266	0.775	0.752	0.832	0.806	0.897	1.357	2.862	5.342	25.12	78.35	31.56	2.806	0.271	0.119
585.0	139.6	111.4	50.84	25.66	12.84	17.04	32.02	61.26	140.7	234.5	198.6	177.3	107.3	179.6	490.9	46.35	1.067	0.742	0.722	0.666	0.535	0.732	0.605	0.400	0.429	0.273	0.372	0.322	0.311	0.293	0.265	0.394	0.483	0.622	0.794	0.457	0.412	0.416	0.432	0.315	0.397	0.389	0.385	0.596	0.433	0.483	0.329	0.367	0.338	0.298	0.338	0.412	1.026	1.487	1.352	0.648	0.476	0.334	0.438	0.501	0.631	0.815	1.281	1.101	0.940	1.015	0.915	0.907	0.820	1.223	1.424	5.964	32.13	71.34	25.60	1.195	0.203
590.0	159.6	120.4	58.07	24.09	13.78	19.74	33.51	62.40	119.9	240.7	235.2	192.0	114.6	74.71	316.9	207.0	8.026	0.737	0.661	0.730	0.564	0.603	0.522	0.440	0.317	0.372	0.365	0.275	0.264	0.246	0.279	0.304	0.440	0.590	0.753	0.524	0.438	0.479	0.406	0.319	0.453	0.317	0.410	0.429	0.430	0.489	0.381	0.368	0.356	0.286	0.280	0.336	0.513	0.975	1.312	1.069	0.564	0.341	0.445	0.505	0.516	0.698	0.943	1.364	1.201	1.027	0.841	0.971	0.862	0.672	0.640	1.560	7.555	27.06	48.68	33.85	4.824
595.0	154.0	120.6	60.53	24.40	16.13	18.77	32.82	60.96	110.0	206.3	266.1	198.8	118.9	50.30	96.37	346.3	64.82	0.813	0.598	0.527	0.477	0.544	0.310	0.362	0.381	0.328	0.181	0.358	0.144	0.200	0.278	0.217	0.370	0.454	0.739	0.598	0.472	0.401	0.463	0.272	0.404	0.318	0.487	0.441	0.428	0.440	0.398	0.310	0.236	0.208	0.214	0.249	0.310	0.454	0.844	1.224	0.741	0.436	0.390	0.468	0.524	0.633	0.796	0.931	1.388	1.209	1.050	0.963	0.891	0.642	0.499	0.602	1.831	6.158	13.51	41.44	33.00
600.0	152.7	111.5	57.22	28.99	17.51	18.30	32.15	59.08	104.8	178.6	267.8	207.7	122.0	46.34	32.01	239.0	196.8	4.124	0.635	0.440	0.447	0.393	0.385	0.400	0.378	0.294	0.213	0.258	0.177	0.217	0.202	0.151	0.417	0.408	0.651	0.568	0.492	0.495	0.339	0.254	0.322	0.281	0.407	0.458	0.483	0.428	0.403	0.349	0.269	0.235	0.247	0.163	0.302	0.301	0.516	1.031	0.867	0.579	0.396	0.449	0.488	0.539	0.773	0.736	1.155	1.428	1.122	0.892	0.902	0.658	0.416	0.446	0.604	1.470	3.160	13.60	44.12
605.0	155.9	110.9	54.56	29.23	17.17	19.43	32.26	59.05	100.5	162.3	257.3	218.7	120.9	45.43	17.64	95.70	294.4	25.47	0.703	0.411	0.463	0.424	0.340	0.285	0.288	0.253	0.211	0.171	0.156	0.204	0.159	0.146	0.329	0.442	0.610	0.536	0.660	0.482	0.377	0.254	0.333	0.294	0.324	0.362	0.471	0.481	0.375	0.297	0.191	0.230	0.240	0.208	0.269	0.252	0.300	0.629	0.891	0.791	0.349	0.394	0.506	0.534	0.634	0.709	0.965	1.218	1.176	0.906	0.870	0.722	0.372	0.367	0.314	0.466	0.783	3.201	17.14
610.0	139.7	98.04	56.71	26.41	15.34	17.25	28.34	52.85	93.76	147.9	214.1	229.6	124.0	45.00	15.52	27.30	197.4	136.5	4.427	0.509	0.479	0.375	0.309	0.293	0.240	0.322	0.191	0.258	0.176	0.246	0.142	0.239	0.293	0.431	0.514	0.424	0.524	0.472	0.315	0.311	0.325	0.301	0.291	0.374	0.388	0.367	0.304	0.265	0.272	0.187	0.131	0.179	0.178	0.145	0.194	0.337	0.665	0.783	0.471	0.500	0.437	0.459	0.518	0.717	0.847	0.986	1.246	1.140	0.970	0.632	0.420	0.277	0.192	0.255	0.285	0.834	3.993
615.0	123.3	96.45	56.44	26.06	16.73	16.32	25.41	48.56	84.84	130.7	176.9	213.3	129.9	47.58	15.04	11.33	58.73	221.8	41.24	0.731	0.395	0.450	0.270	0.229	0.269	0.280	0.203	0.194	0.150	0.170	0.176	0.181	0.294	0.462	0.445	0.611	0.373	0.546	0.406	0.355	0.306	0.284	0.258	0.368	0.320	0.397	0.283	0.314	0.197	0.140	0.150	0.141	0.140	0.223	0.168	0.212	0.361	0.661	0.588	0.500	0.417	0.349	0.447	0.643	0.677	0.723	0.826	1.043	1.130	0.733	0.351	0.272	0.178	0.128	0.113	0.260	1.046
620.0	118.1	85.35	48.59	25.77	14.01	14.93	23.02	42.47	80.44	119.8	160.1	187.0	140.5	47.16	16.60	8.105	17.44	158.8	120.7	2.110	0.441	0.503	0.305	0.272	0.281	0.286	0.170	0.098	0.184	0.265	0.128	0.172	0.224	0.338	0.362	0.455	0.446	0.332	0.326	0.248	0.345	0.277	0.262	0.302	0.305	0.334	0.339	0.288	0.177	0.163	0.128	0.122	0.168	0.211	0.138	0.153	0.250	0.459	0.615	0.502	0.428	0.454	0.444	0.513	0.706	0.658	0.695	0.925	1.020	0.759	0.457	0.261	0.188	0.134	0.138	0.137	0.299
625.0	101.9	78.03	49.30	23.04	14.94	13.60	20.52	40.89	71.10	114.3	146.0	160.0	143.3	51.45	17.36	8.071	7.250	64.64	196.7	13.57	0.421	0.504	0.398	0.159	0.277	0.182	0.202	0.154	0.117	0.131	0.121	0.160	0.258	0.353	0.380	0.444	0.353	0.272	0.278	0.258	0.238	0.287	0.270	0.300	0.343	0.329	0.283	0.224	0.199	0.174	0.111	0.135	0.129	0.105	0.148	0.141	0.149	0.252	0.542	0.589	0.458	0.480	0.423	0.497	0.618	0.632	0.719	0.822	0.823	0.739	0.626	0.299	0.196	0.189	0.100	0.159	0.165
630.0	90.77	77.67	44.98	21.24	13.44	11.88	19.33	36.08	63.27	98.44	129.8	134.1	124.9	63.37	18.87	8.861	5.864	18.20	140.0	92.14	2.483	0.425	0.343	0.166	0.208	0.248	0.212	0.107	0.110	0.134	0.179	0.181	0.185	0.355	0.315	0.392	0.354	0.266	0.209	0.308	0.213	0.257	0.171	0.293	0.269	0.273	0.226	0.244	0.215	0.139	0.116	0.116	0.100	0.131	0.163	0.157	0.146	0.192	0.325	0.499	0.512	0.431	0.429	0.500	0.553	0.569	0.678	0.734	0.694	0.669	0.667	0.442	0.225	0.159	0.139	0.130	0.098
635.0	95.41	69.10	39.98	18.05	12.73	11.99	17.33	34.94	56.02	84.84	113.0	113.9	97.57	70.53	24.34	10.15	6.699	7.011	42.30	156.9	25.61	0.517	0.344	0.281	0.218	0.207	0.174	0.162	0.243	0.178	0.127	0.096	0.108	0.303	0.303	0.363	0.250	0.262	0.195	0.248	0.186	0.306	0.167	0.257	0.286	0.207	0.213	0.234	0.155	0.126	0.158	0.102	0.104	0.127	0.082	0.073	0.095	0.197	0.229	0.336	0.475	0.509	0.410	0.528	0.478	0.580	0.567	0.483	0.611	0.447	0.570	0.533	0.325	0.176	0.134	0.148	0.125
640.0	85.42	65.78	37.96	16.89	13.55	12.99	16.28	32.55	48.97	76.79	102.9	103.4	82.39	67.41	30.52	12.00	7.602	4.895	12.42	119.2	65.83	1.214	0.372	0.248	0.248	0.201	0.183	0.160	0.139	0.117	0.094	0.107	0.120	0.216	0.305	0.362	0.229	0.219	0.156	0.204	0.197	0.280	0.178	0.217	0.221	0.173	0.246	0.195	0.158	0.082	0.148	0.145	0.097	0.111	0.126	0.089	0.114	0.138	0.102	0.202	0.378	0.486	0.391	0.485	0.449	0.534	0.516	0.556	0.495	0.524	0.444	0.472	0.445	0.202	0.144	0.156	0.089
645.0	75.94	56.04	35.92	18.45	12.78	14.54	15.74	27.09	41.72	67.88	89.87	92.23	71.53	58.56	40.12	12.89	8.072	5.561	5.594	53.30	130.7	8.370	0.294	0.281	0.320	0.183	0.249	0.213	0.080	0.189	0.148	0.155	0.078	0.175	0.279	0.283	0.195	0.210	0.191	0.137	0.220	0.296	0.211	0.134	0.193	0.209	0.222	0.187	0.105	0.183	0.157	0.078	0.077	0.084	0.153	0.078	0.139	0.149	0.085	0.159	0.224	0.442	0.401	0.333	0.407	0.535	0.451	0.470	0.386	0.486	0.311	0.314	0.391	0.291	0.099	0.151	0.051
650.0	64.78	47.35	29.55	16.68	11.81	13.83	16.28	22.65	39.24	61.18	82.90	84.36	64.97	46.83	44.41	15.25	8.594	5.655	4.221	16.69	128.2	41.03	0.583	0.203	0.171	0.158	0.094	0.174	0.111	0.165	0.108	0.099	0.190	0.190	0.247	0.317	0.187	0.103	0.123	0.175	0.178	0.264	0.222	0.224	0.175	0.205	0.225	0.172	0.160	0.112	0.095	0.080	0.099	0.138	0.203	0.075	0.115	0.087	0.191	0.148	0.254	0.346	0.332	0.390	0.430	0.425	0.466	0.440	0.413	0.403	0.264	0.256	0.244	0.400	0.200	0.178	0.059
