Sample:	'1
File name:	S02021万达化工原水4倍.FD3
Run date:	'15:11:45, 07/28/2024
Operator:	horiz
Comment:	'

Instrument
Model:	F-2700 FL Spectrophotometer
Serial number:	23B8-004
ROM Version:	4J14000 07

Instrument parameters
Measurement type:	3-D scan
Data mode:	Fluorescence
EX  Start WL:	220.0 nm
EX  End WL:	600.0 nm
EX Sampling interval:	5.0 nm
EM  Start WL:	230.0 nm
EM  End WL:	650.0 nm
EM Sampling interval:	5.0 nm
Scan speed:	12000 nm/min
EX Slit:	5.0 nm
EM Slit:	5.0 nm
PMT Voltage:	700 V
Response:	Auto 
Corrected spectra:	Off
Contour interval:	50.000

Peak integration
Integration method:	Rectangular
Sensitivity:	1
Threshold:	1.000

Peaks
No.	ApexEX/EM(nm)	Height(Data)
1	225.0/305.0	1462
2	235.0/340.0	3029
3	240.0/265.0	151.5
4	245.0/535.0	107.2
5	250.0/550.0	95.48
6	270.0/300.0	7381
7	270.0/590.0	554.1
8	305.0/390.0	1124
9	365.0/420.0	145.0
10	370.0/425.0	129.4
11	380.0/440.0	93.93
12	385.0/445.0	82.33
13	395.0/460.0	61.76
14	400.0/465.0	55.68
15	405.0/470.0	47.05
16	415.0/485.0	36.86
17	420.0/490.0	31.41
18	425.0/500.0	27.31
19	430.0/505.0	24.17
20	445.0/525.0	14.45
21	455.0/540.0	9.729
22	470.0/560.0	4.929
23	475.0/565.0	4.309
24	480.0/340.0	9.735
25	540.0/300.0	33.45
26	560.0/335.0	19.53

Wavelength data
No.	EX/EM(nm)	Height(Data)	

Data points
	220.0	225.0	230.0	235.0	240.0	245.0	250.0	255.0	260.0	265.0	270.0	275.0	280.0	285.0	290.0	295.0	300.0	305.0	310.0	315.0	320.0	325.0	330.0	335.0	340.0	345.0	350.0	355.0	360.0	365.0	370.0	375.0	380.0	385.0	390.0	395.0	400.0	405.0	410.0	415.0	420.0	425.0	430.0	435.0	440.0	445.0	450.0	455.0	460.0	465.0	470.0	475.0	480.0	485.0	490.0	495.0	500.0	505.0	510.0	515.0	520.0	525.0	530.0	535.0	540.0	545.0	550.0	555.0	560.0	565.0	570.0	575.0	580.0	585.0	590.0	595.0	600.0
230.0	40.45	333.5	1171	553.3	41.02	10.26	8.818	7.953	7.042	7.354	7.295	6.597	5.363	4.425	3.931	3.151	2.855	2.762	2.416	2.318	2.272	2.022	1.918	1.800	1.632	1.515	1.426	1.377	1.417	1.348	1.240	1.154	1.177	1.098	1.039	0.902	0.868	0.856	0.799	0.733	0.765	0.741	0.747	0.696	0.766	0.654	0.744	1.879	3.677	3.802	1.989	0.784	0.562	0.522	0.519	0.519	0.536	0.511	0.542	0.523	0.529	0.508	0.527	0.548	0.528	0.528	0.534	0.525	0.505	0.540	0.512	0.488	0.512	0.513	0.512	0.509	0.568
235.0	53.01	104.1	615.6	1316	498.7	60.83	9.837	8.909	7.341	8.270	7.664	6.795	5.868	4.750	3.701	3.186	2.903	2.525	2.421	2.151	2.090	2.077	1.939	1.646	1.609	1.512	1.442	1.486	1.410	1.335	1.248	1.194	1.274	1.086	0.916	0.909	1.018	0.868	0.861	0.750	0.804	0.705	0.728	0.745	0.749	0.653	0.581	0.871	1.519	2.520	3.962	5.369	3.260	1.257	0.527	0.591	0.547	0.531	0.570	0.553	0.553	0.595	0.536	0.544	0.519	0.521	0.496	0.519	0.546	0.501	0.478	0.439	0.463	0.483	0.491	0.559	0.543
240.0	56.51	63.50	181.2	950.1	1670	412.8	36.28	9.197	8.253	8.840	7.698	6.874	6.144	5.412	3.843	3.670	3.182	2.890	2.420	2.430	2.066	2.113	1.925	1.963	1.666	1.528	1.615	1.561	1.404	1.358	1.326	1.192	1.124	1.108	0.985	0.917	1.049	0.898	0.832	0.703	0.779	0.727	0.776	0.710	0.749	0.763	0.617	0.664	0.799	0.961	1.943	5.352	7.728	6.567	3.130	1.029	0.589	0.588	0.507	0.535	0.572	0.496	0.568	0.605	0.561	0.580	0.496	0.573	0.497	0.502	0.496	0.520	0.488	0.515	0.536	0.502	0.517
245.0	52.72	67.70	72.04	297.0	1537	2124	331.3	21.79	10.80	8.707	8.033	8.314	6.516	5.288	4.063	3.862	2.960	2.784	2.509	2.474	2.178	2.088	2.010	2.044	1.621	1.590	1.701	1.556	1.535	1.301	1.289	1.121	1.174	1.138	0.903	0.872	0.973	0.804	0.876	0.795	0.836	0.772	0.722	0.715	0.758	0.715	0.670	0.717	0.616	0.561	0.798	1.815	4.462	8.906	11.33	7.374	2.862	0.776	0.578	0.568	0.609	0.577	0.559	0.557	0.508	0.472	0.532	0.503	0.544	0.585	0.540	0.557	0.528	0.501	0.497	0.493	0.489
250.0	47.86	56.35	82.26	106.4	465.6	1790	3068	1259	98.78	12.25	10.47	9.029	7.218	5.501	4.795	4.011	3.286	3.070	2.657	2.476	2.446	2.178	1.900	1.860	1.741	1.626	1.716	1.459	1.551	1.471	1.379	1.124	1.138	1.081	0.975	0.980	0.856	0.858	0.851	0.792	0.808	0.793	0.699	0.720	0.715	0.695	0.620	0.706	0.719	0.665	0.617	0.858	1.453	2.893	5.895	9.684	15.14	15.94	11.21	4.109	0.900	0.593	0.541	0.564	0.531	0.544	0.580	0.522	0.556	0.585	0.568	0.535	0.487	0.558	0.548	0.561	0.519
255.0	49.05	38.86	63.04	116.3	150.6	443.5	2138	6002	1891	124.9	15.75	11.85	9.028	6.670	5.927	4.571	3.813	3.458	3.178	2.631	2.528	2.410	2.233	1.889	1.938	1.776	1.801	1.559	1.656	1.558	1.413	1.202	1.124	1.147	1.069	0.997	0.876	0.792	0.967	0.866	0.840	0.855	0.755	0.780	0.708	0.771	0.692	0.649	0.573	0.648	0.779	0.939	0.832	1.122	1.814	2.657	5.243	13.35	29.53	28.38	19.35	5.762	0.807	0.686	0.574	0.624	0.522	0.607	0.625	0.546	0.590	0.571	0.529	0.576	0.510	0.540	0.546
260.0	43.97	43.00	40.43	95.85	140.1	137.2	617.5	4520	8684	1547	79.56	15.83	10.74	8.240	6.134	5.026	4.135	3.877	3.424	3.064	2.771	2.334	2.373	2.356	2.178	1.823	1.827	1.645	1.625	1.531	1.507	1.354	1.239	1.073	0.997	1.005	0.846	0.928	0.957	0.914	0.779	0.755	0.774	0.717	0.837	0.699	0.700	0.612	0.561	0.596	0.711	0.917	1.086	0.944	0.854	1.125	1.750	3.822	12.06	29.37	51.26	29.12	17.06	3.090	0.667	0.685	0.558	0.605	0.629	0.554	0.587	0.590	0.532	0.636	0.561	0.587	0.505
265.0	50.83	40.49	32.21	55.73	151.5	130.9	170.2	1433	8326	9999.9	1180	37.82	13.52	10.07	7.380	5.763	4.731	4.123	3.848	3.515	2.683	2.539	2.307	2.376	2.258	2.293	1.739	1.651	1.993	1.523	1.594	1.390	1.379	1.064	1.022	0.991	0.889	0.986	0.927	0.888	0.882	0.809	0.882	0.812	0.850	0.710	0.714	0.673	0.527	0.582	0.568	0.741	1.007	1.233	1.044	0.838	0.917	1.389	3.337	8.606	25.67	52.93	74.53	27.07	11.61	1.295	0.564	0.641	0.652	0.640	0.624	0.625	0.562	0.599	0.656	0.533	0.572
270.0	98.98	94.46	75.58	53.59	84.34	175.2	172.7	377.9	2523	9037	9999.9	4029	76.30	16.45	10.13	7.755	6.058	4.836	4.288	3.773	3.206	3.047	2.708	2.318	2.369	2.154	1.953	1.761	1.967	1.754	1.542	1.558	1.400	1.288	1.161	1.042	0.979	0.977	0.906	0.913	0.944	0.931	0.913	0.894	0.880	0.812	0.806	0.841	0.799	0.672	0.575	0.644	0.788	0.865	1.210	1.333	1.413	1.145	1.438	2.616	6.628	15.42	34.78	55.65	78.12	64.19	17.33	8.459	1.415	0.728	0.728	0.666	0.643	0.565	0.622	0.575	0.586
275.0	249.6	268.2	206.9	102.1	66.31	120.7	306.9	347.1	793.4	2519	8191	9999.9	5368	90.09	17.29	11.51	7.830	6.263	5.146	4.214	3.735	3.383	3.402	2.829	2.674	2.279	2.065	1.798	1.994	1.750	1.764	1.604	1.527	1.468	1.347	1.103	1.090	0.989	1.002	0.927	0.920	1.015	0.900	1.119	1.220	1.217	1.273	1.238	1.054	0.898	0.734	0.763	0.787	0.708	0.821	1.061	1.871	2.311	2.105	1.962	3.053	5.234	9.675	14.91	25.02	52.97	104.9	120.3	27.22	10.26	1.142	0.874	0.691	0.716	0.698	0.723	0.713
280.0	471.2	506.5	360.8	181.6	109.6	150.9	371.2	765.8	1024	1698	3530	9999.9	9999.9	984.5	53.91	16.16	10.31	7.849	6.514	5.138	4.348	3.919	3.680	3.003	2.807	2.668	2.468	2.075	2.170	1.990	1.852	1.813	1.664	1.503	1.530	1.215	1.286	1.187	1.125	1.117	1.007	1.311	1.244	1.518	1.578	1.709	1.812	1.661	1.464	1.270	0.889	0.851	0.912	0.945	0.956	1.282	1.689	2.618	3.677	4.225	4.384	5.561	7.198	9.006	11.96	19.11	42.91	94.30	137.8	116.8	22.13	4.859	0.917	0.830	0.774	0.698	0.749
285.0	779.1	771.1	519.5	270.6	193.5	280.0	467.2	1169	1961	2199	3355	5283	9999.9	9999.9	684.0	29.62	14.23	9.636	7.626	5.807	5.280	4.597	4.001	3.398	3.312	2.919	2.772	2.318	2.284	2.446	2.027	1.931	1.788	1.586	1.609	1.415	1.259	1.241	1.241	1.211	1.083	1.465	1.599	1.989	2.250	2.315	2.322	2.154	1.882	1.665	1.203	1.053	1.235	1.305	1.497	1.811	2.420	3.070	4.621	7.015	8.757	9.762	10.89	12.93	14.95	15.92	20.69	33.77	66.03	126.7	149.8	31.44	16.16	2.302	0.955	0.735	0.716
290.0	1165	1128	876.0	653.9	758.2	953.6	1499	2258	3515	4518	5164	4878	4817	9999.9	9999.9	2676	47.07	15.37	11.01	8.167	6.400	5.265	4.638	4.128	3.441	3.270	2.981	2.795	2.618	2.663	2.192	2.064	2.040	1.810	1.795	1.543	1.492	1.429	1.395	1.450	1.437	1.844	2.127	2.453	3.057	3.346	3.238	3.105	2.858	2.545	2.208	2.689	2.954	3.342	4.109	4.687	6.185	7.360	8.584	11.24	13.99	17.36	19.97	22.46	23.92	22.67	23.39	23.99	26.59	38.18	62.31	82.12	120.7	96.69	72.18	12.29	2.981
295.0	1453	1409	1157	1072	1339	1827	2444	3346	4576	5977	6855	5750	3183	2885	8884	9999.9	3743	54.50	16.10	11.22	8.402	6.727	5.676	5.003	4.096	3.537	3.496	3.202	2.800	2.868	2.659	2.245	2.202	1.994	1.974	1.532	1.612	1.549	1.365	1.561	1.687	1.991	2.470	2.995	3.569	3.843	3.912	3.855	3.747	3.219	3.312	3.992	4.840	5.940	6.875	7.828	10.04	11.41	13.26	15.54	18.96	21.65	24.32	29.83	32.34	30.32	27.75	26.17	20.43	16.63	18.56	20.97	32.24	56.11	133.7	178.1	33.94
300.0	1510	1458	1275	1316	1686	2273	2991	3897	5014	6223	7381	6226	2976	1308	2535	9999.9	9999.9	594.3	37.46	15.43	11.13	8.199	6.966	5.573	5.153	4.341	3.621	3.582	3.145	2.969	2.584	2.469	2.468	2.259	2.224	1.890	1.755	1.683	1.557	1.672	1.861	2.183	2.477	3.072	3.617	3.917	4.246	4.075	3.868	3.682	3.892	4.949	6.110	6.870	8.521	9.254	12.14	13.34	15.68	17.76	20.95	22.66	25.36	29.72	33.45	33.20	30.33	27.44	19.56	12.70	9.168	7.757	9.832	15.08	39.18	98.52	167.4
305.0	1458	1462	1392	1491	1934	2599	3337	4188	5106	6029	7039	6387	3062	1085	957.6	3193	9999.9	9999.9	454.2	25.15	14.63	10.35	8.604	6.789	5.324	4.853	4.206	3.772	3.493	3.166	2.663	2.600	2.415	2.304	2.223	2.042	1.861	1.718	1.603	1.711	1.867	2.248	2.683	2.951	3.749	4.078	4.077	4.168	4.016	3.976	4.161	5.738	6.962	8.244	9.765	10.91	13.41	14.84	16.61	19.38	21.36	23.19	25.52	28.33	31.28	31.17	31.02	28.55	20.53	12.29	7.609	5.615	5.525	6.088	10.94	24.87	58.76
310.0	1320	1392	1380	1537	1977	2520	3171	3859	4599	5272	6081	5645	3317	1397	853.8	1078	3382	9999.9	9999.9	2005	37.78	15.59	11.09	8.344	6.953	5.625	4.867	4.570	3.803	3.485	3.101	2.894	2.693	2.479	2.166	2.004	1.871	1.711	1.689	1.717	1.843	2.217	2.592	2.814	3.532	3.729	3.788	4.128	4.096	4.134	4.337	5.917	7.215	8.120	9.412	10.65	12.91	14.20	15.44	17.76	19.60	21.27	22.47	25.30	27.52	27.61	26.62	26.25	20.59	14.83	9.642	6.959	5.987	5.403	5.778	8.315	15.54
315.0	1206	1362	1528	1680	2000	2399	2821	3327	3886	4436	5139	4893	3294	2101	1236	838.3	1083	2484	9225	9999.9	3106	42.43	16.35	11.71	8.873	7.123	6.056	5.201	4.702	3.949	3.315	3.548	2.931	2.617	2.435	2.234	2.004	1.829	1.802	1.685	1.811	2.036	2.418	2.577	3.199	3.676	3.686	4.351	4.317	4.405	4.622	6.271	7.341	7.762	8.949	9.812	11.57	12.66	13.60	15.73	16.53	17.78	18.85	21.20	22.98	23.61	22.45	21.98	18.52	14.72	12.83	11.09	8.909	7.475	6.170	5.822	6.768
320.0	1147	1467	1775	1972	2111	2299	2574	2939	3378	3888	4599	4599	3389	2476	1767	938.7	670.1	762.0	2434	9999.9	9999.9	462.3	32.53	15.68	10.63	8.640	6.578	5.832	5.295	4.189	3.855	3.374	3.139	2.695	2.503	2.317	2.007	2.104	1.836	1.832	1.824	2.074	2.411	2.716	3.239	3.991	3.988	4.656	4.935	5.114	5.334	6.744	7.795	8.100	8.552	9.488	10.80	11.55	12.15	13.97	14.71	15.95	16.81	18.74	20.41	21.20	20.68	20.85	18.29	15.05	12.87	12.65	12.20	10.08	7.916	6.606	5.579
325.0	1202	1617	2126	2279	2275	2244	2337	2592	2998	3510	4305	4476	3610	2706	2194	1282	672.9	425.3	668.3	3083	9999.9	9999.9	385.8	23.16	14.50	10.35	7.894	6.440	5.967	4.634	4.319	3.746	3.323	2.848	2.711	2.389	2.012	2.002	1.850	1.921	1.913	2.104	2.187	2.761	3.157	3.793	4.119	4.917	5.462	6.000	6.159	7.768	8.399	8.649	8.747	9.211	10.05	10.58	10.92	12.12	13.36	13.86	14.97	17.10	18.72	19.91	20.24	20.10	18.91	16.59	14.64	13.66	13.62	12.90	10.51	8.212	6.508
330.0	1213	1845	2534	2693	2531	2243	2120	2250	2619	3164	4024	4451	3921	3074	2341	1625	882.2	421.8	304.0	770.5	3273	9999.9	9999.9	1678	33.29	14.93	10.83	8.397	7.148	5.844	5.014	4.165	3.617	3.354	2.919	2.590	2.289	2.261	1.943	1.854	1.958	2.038	2.189	2.565	3.427	3.887	4.527	5.835	6.612	6.848	7.121	8.667	9.437	8.769	8.880	8.668	8.930	9.190	9.602	10.37	11.36	11.88	13.39	15.22	17.05	18.66	19.58	19.86	19.14	18.20	16.64	15.32	14.56	13.43	11.79	10.02	8.763
335.0	1215	2036	2785	2992	2687	2242	1947	1974	2278	2844	3744	4316	4047	3297	2438	1618	1108	550.1	256.5	269.0	789.4	2370	9702	9999.9	2800	39.19	15.21	11.52	9.064	7.340	5.932	4.659	4.251	3.695	3.384	2.797	2.528	2.466	2.199	2.044	2.087	2.094	2.272	2.600	3.231	3.902	4.702	6.256	7.362	7.583	7.691	9.238	9.638	9.166	8.671	8.096	8.620	7.810	8.462	9.114	9.846	10.72	11.64	13.49	15.77	17.34	18.14	19.31	19.53	18.38	17.59	16.23	15.30	13.14	11.64	9.936	9.384
340.0	1138	1996	2846	3029	2676	2168	1816	1762	2035	2592	3477	4085	3938	3280	2425	1560	1037	697.3	297.0	172.5	245.2	578.0	2525	9999.9	9999.9	2204	29.53	14.14	10.96	8.621	6.763	5.301	4.235	4.142	3.502	2.991	2.601	2.580	2.179	2.036	2.033	2.127	2.283	2.497	3.045	4.209	4.840	6.290	7.546	7.602	7.980	9.294	9.735	9.160	8.691	7.805	7.926	7.440	7.239	8.049	8.591	9.624	11.06	12.51	14.17	16.18	16.61	18.26	18.57	17.87	17.69	16.29	14.62	13.20	11.43	9.376	8.260
345.0	1061	1906	2727	2926	2566	2048	1651	1571	1828	2341	3164	3763	3698	3116	2305	1477	923.7	691.2	417.2	173.8	135.1	184.7	610.3	3160	9999.9	9999.9	352.5	20.89	13.38	9.925	7.318	5.861	4.589	4.136	3.251	2.918	2.720	2.395	2.230	2.076	2.068	2.179	2.335	2.428	2.984	3.801	4.654	6.152	7.160	7.576	7.773	9.159	9.176	8.629	8.198	7.504	7.091	6.968	6.624	7.334	7.732	8.589	9.596	11.22	12.49	14.53	15.33	17.00	17.27	16.48	16.89	15.57	14.31	12.53	10.61	9.263	7.783
350.0	928.7	1666	2388	2620	2302	1815	1442	1348	1534	1973	2675	3219	3206	2749	2057	1346	839.6	567.9	469.9	302.2	151.5	118.5	194.1	751.8	3321	9999.9	9999.9	1522	30.34	13.58	9.643	6.954	5.456	4.530	3.698	3.202	2.813	2.528	2.209	2.166	2.104	2.114	2.195	2.319	2.826	3.539	4.211	5.437	6.496	6.546	6.853	8.447	8.321	7.463	7.327	6.540	6.483	6.163	5.961	6.391	6.492	7.449	8.286	9.621	11.02	12.32	13.32	14.32	14.90	14.74	14.29	13.72	12.73	11.37	9.945	8.170	7.096
355.0	832.4	1428	2024	2214	1970	1550	1240	1142	1265	1612	2179	2641	2655	2324	1777	1199	792.3	538.9	412.2	403.3	287.9	149.1	128.4	228.7	783.5	2340	8210	9999.9	2737	37.95	13.11	9.103	6.870	5.128	4.248	3.449	3.087	2.797	2.281	2.174	2.147	2.096	2.265	2.157	2.483	3.088	3.807	4.668	5.712	5.681	5.854	7.314	7.307	6.563	6.609	5.968	5.672	5.402	5.279	5.485	5.552	6.230	6.687	7.745	8.996	10.06	11.58	11.83	12.26	12.40	12.48	11.67	10.94	10.22	8.771	7.344	6.837
360.0	716.5	1230	1730	1900	1737	1382	1112	1003	1108	1381	1869	2258	2288	2031	1585	1116	790.1	573.6	440.4	406.3	414.8	241.7	147.6	135.1	231.3	562.6	2085	9999.9	9999.9	2331	30.00	11.94	8.446	6.520	4.613	3.923	3.253	3.068	2.408	2.324	2.058	2.119	2.137	2.027	2.470	2.809	3.324	4.308	4.851	4.934	5.043	6.432	6.578	5.858	5.871	5.203	5.146	5.095	4.803	4.989	4.827	5.464	6.117	6.914	7.619	8.831	9.630	10.41	11.07	10.92	10.91	10.22	10.03	9.534	7.961	6.977	6.768
365.0	619.9	1058	1545	1655	1548	1239	1015	922.7	989.1	1228	1622	1945	1996	1791	1433	1077	812.7	637.6	522.7	451.1	456.2	386.2	213.7	142.9	125.4	176.6	504.1	2854	9999.9	9999.9	351.1	21.26	10.69	7.754	5.142	4.310	3.635	3.174	2.674	2.466	2.195	2.191	2.225	2.075	2.353	2.701	2.878	3.815	4.351	4.486	4.515	5.738	5.982	5.616	5.171	5.030	4.815	4.552	4.498	4.224	4.343	4.819	5.705	6.321	6.832	7.832	8.610	9.144	9.312	9.741	9.822	9.335	9.317	8.400	7.788	7.099	6.539
370.0	535.2	916.2	1302	1428	1375	1132	924.3	830.7	869.8	1036	1354	1617	1679	1553	1309	1066	886.0	772.8	682.3	596.8	524.8	485.9	380.9	214.4	133.2	108.3	159.5	673.0	3011	9999.9	9999.9	5352	27.96	10.75	7.424	5.503	4.489	3.387	2.935	2.678	2.292	2.191	2.144	2.178	2.260	2.508	2.803	3.428	4.034	3.916	4.151	5.178	5.331	4.988	4.935	4.568	4.394	4.283	4.006	3.952	4.150	4.311	4.964	5.405	5.913	6.627	7.047	7.680	8.280	8.554	8.422	8.305	8.392	7.808	7.435	7.108	6.991
375.0	493.5	797.3	1094	1256	1236	1030	849.2	756.7	774.3	877.3	1121	1341	1416	1358	1219	1072	986.7	922.9	859.9	770.6	662.6	538.7	481.7	355.1	178.1	112.9	94.17	191.7	700.8	2314	7458	9999.9	2495	33.52	10.16	7.090	5.361	4.125	3.465	3.105	2.561	2.358	2.200	2.209	2.346	2.477	2.649	3.217	3.673	3.711	3.797	4.913	4.922	4.911	4.537	4.220	4.197	4.056	3.827	3.815	3.876	3.956	4.263	5.101	5.158	5.460	6.030	6.689	6.949	7.319	7.457	7.520	7.523	7.572	7.235	7.617	7.840
380.0	432.6	716.3	958.6	1143	1132	972.0	802.5	717.6	703.0	795.6	990.3	1175	1256	1242	1161	1080	1050	1022	974.7	887.9	762.2	599.6	491.9	425.4	250.5	131.9	89.78	90.60	190.6	542.7	1873	9902	9999.9	2071	25.40	8.983	6.327	5.088	3.993	3.198	2.797	2.541	2.446	2.265	2.311	2.592	2.649	3.072	3.252	3.428	3.380	4.391	4.918	4.492	4.222	4.062	4.002	3.800	3.749	3.650	3.686	3.750	3.920	4.693	4.741	4.965	5.382	5.926	6.350	6.521	6.837	6.766	7.045	7.399	7.391	7.474	7.701
385.0	421.6	651.4	900.8	1035	1061	936.4	782.2	682.3	655.6	723.8	884.5	1047	1135	1144	1115	1088	1090	1093	1054	970.8	838.2	654.5	511.0	418.7	324.8	171.0	98.88	74.26	81.12	149.7	443.9	2655	9999.9	9999.9	297.1	17.87	8.212	5.842	4.583	3.636	3.099	2.645	2.487	2.269	2.236	2.596	2.446	3.077	3.194	3.328	3.325	4.108	4.544	4.257	4.297	4.069	3.987	3.595	3.596	3.498	3.597	3.371	3.940	4.117	4.256	4.561	4.958	5.365	5.760	5.910	6.455	6.840	7.000	7.097	7.090	7.610	7.835
390.0	387.8	591.6	808.5	936.8	977.0	883.1	752.3	649.4	614.4	660.7	787.5	918.8	1008	1048	1052	1073	1099	1124	1105	1024	886.8	702.4	543.0	403.2	318.0	243.1	135.0	82.18	63.79	68.12	126.1	615.5	2741	9221	9999.9	4448	23.32	8.158	5.632	4.490	3.541	2.912	2.768	2.462	2.367	2.651	2.430	2.855	3.044	3.029	3.203	3.965	4.260	4.175	4.065	3.755	3.835	3.706	3.426	3.440	3.314	3.428	3.466	3.727	3.734	4.140	4.498	4.946	5.304	5.659	5.819	6.308	6.580	6.985	6.991	7.668	8.098
395.0	361.5	541.3	738.1	840.4	901.4	821.0	706.6	623.4	585.1	599.0	706.9	822.2	906.9	950.7	984.2	1026	1067	1108	1099	1025	897.1	714.8	557.0	403.3	287.9	244.5	201.1	107.8	68.99	55.85	59.46	161.4	630.4	2104	5628	9999.9	2128	29.43	7.868	5.875	4.129	3.545	3.171	2.567	2.623	2.565	2.469	2.812	2.906	2.824	3.086	3.659	3.961	3.833	3.840	3.918	3.834	3.601	3.476	3.282	3.409	3.090	3.148	3.549	3.555	3.891	4.214	4.472	4.826	5.113	5.472	5.891	6.491	6.560	6.856	7.272	7.943
400.0	343.0	491.2	663.7	768.0	841.6	784.7	682.3	607.2	565.8	573.9	652.2	755.0	833.0	876.2	929.0	972.3	1022	1068	1061	1002	880.9	700.1	554.5	406.3	279.8	219.1	218.2	149.7	80.51	57.77	47.68	62.44	162.2	486.4	1376	7095	9999.9	1859	22.67	6.884	5.136	4.059	3.647	2.898	2.680	2.715	2.473	2.726	2.782	2.756	2.883	3.620	3.599	3.650	3.626	3.681	3.510	3.425	3.344	3.214	3.092	3.061	3.106	3.355	3.553	3.482	3.940	4.185	4.381	4.427	5.071	5.683	6.016	6.086	6.749	6.693	7.611
405.0	331.5	449.1	592.0	708.5	771.2	738.1	655.1	591.4	550.6	555.2	615.8	706.5	771.9	819.2	863.0	917.5	965.9	1008	1007	951.4	840.5	679.5	543.7	407.8	280.6	208.1	193.6	190.2	106.5	65.85	49.21	43.73	58.73	126.2	323.3	1852	8694	9999.9	1424	16.40	6.224	4.682	3.768	2.923	2.799	2.728	2.592	2.550	2.670	2.491	2.852	3.417	3.547	3.588	3.542	3.448	3.269	3.417	3.249	3.109	3.252	3.021	3.188	3.293	3.340	3.352	3.811	4.031	4.215	4.625	4.877	5.262	5.495	5.728	6.210	6.212	6.841
410.0	299.4	411.5	544.1	639.8	696.2	678.2	624.6	572.5	537.0	534.2	587.4	665.2	715.1	747.1	790.3	834.7	876.0	913.1	914.3	864.2	769.7	631.3	514.3	392.7	278.5	208.3	169.9	171.0	154.1	93.98	56.80	44.03	39.41	48.69	88.95	427.2	2241	6850	9627	3568	21.31	6.383	4.465	3.629	3.056	2.865	2.642	2.614	2.627	2.435	2.568	3.147	3.387	3.240	3.401	3.156	3.382	3.272	3.182	2.997	3.219	3.047	3.112	3.231	3.252	3.330	3.567	3.618	4.044	4.148	4.506	4.871	5.155	5.558	5.670	6.011	6.521
415.0	280.1	373.3	476.0	571.5	642.6	614.3	588.9	555.7	524.6	520.6	563.5	626.9	671.1	683.9	703.9	742.8	771.9	803.4	799.3	764.9	691.9	576.4	482.2	375.7	274.6	209.9	165.3	143.8	148.0	139.4	77.14	50.14	38.65	34.08	38.38	109.9	511.8	1554	4235	9999.9	1967	28.02	6.044	4.362	3.795	3.213	2.738	2.537	2.541	2.265	2.390	2.986	3.019	3.093	3.302	3.060	3.368	3.250	3.167	3.031	3.355	2.989	2.976	3.034	3.257	3.151	3.331	3.569	3.760	3.902	4.032	4.359	4.665	4.914	5.428	5.469	5.766
420.0	255.0	333.5	426.8	522.8	585.0	579.4	554.6	531.9	512.3	512.1	553.5	600.9	631.7	642.5	646.6	670.3	692.7	718.3	721.2	687.8	626.9	529.5	450.5	356.7	268.7	208.5	167.4	139.3	126.8	145.0	107.7	58.06	40.44	32.54	28.01	40.15	126.7	357.8	1013	5390	9884	1719	21.40	5.528	4.272	3.506	2.870	2.626	2.568	2.291	2.153	2.756	2.989	2.827	3.048	3.052	3.310	3.081	3.183	2.819	3.030	2.992	3.098	2.933	3.089	3.207	3.058	3.523	3.519	3.786	3.937	4.182	4.295	4.579	4.646	4.955	5.272
425.0	230.4	312.9	405.9	467.4	537.6	543.6	538.6	521.9	509.3	506.5	551.3	585.8	603.2	597.9	595.9	608.1	632.5	652.3	648.2	623.3	572.9	487.7	419.9	337.3	261.1	206.3	167.8	137.6	117.0	123.6	129.4	76.11	45.22	33.75	27.11	25.47	42.06	91.54	236.9	1356	6487	8995	1339	15.06	5.073	4.087	3.187	2.921	2.740	2.272	2.225	2.770	2.764	2.702	2.949	2.939	3.042	3.029	3.002	2.968	3.083	2.923	2.977	2.874	3.081	3.174	3.160	3.451	3.427	3.594	4.064	3.833	4.037	4.205	4.185	4.553	5.100
430.0	248.9	274.9	359.3	424.6	483.3	511.0	512.9	517.1	506.5	506.6	546.2	569.8	575.7	555.2	542.2	543.2	552.2	565.3	564.9	549.1	505.4	440.7	385.8	320.6	251.9	202.0	167.8	140.5	117.7	106.1	112.7	103.8	62.26	38.12	29.38	23.82	24.19	33.02	63.47	311.9	1637	5248	7401	2996	19.68	5.701	3.884	3.414	2.856	2.380	2.285	2.594	2.634	2.656	2.838	2.869	2.912	2.969	2.924	2.990	2.995	2.908	2.943	2.952	3.156	3.014	3.090	3.311	3.314	3.375	3.680	3.559	3.724	3.760	3.801	4.200	4.314
435.0	328.5	243.3	322.8	381.5	441.6	481.2	488.5	506.4	505.9	512.4	552.5	565.0	559.6	517.6	496.6	482.1	477.1	489.8	489.7	480.9	446.9	393.2	352.8	301.7	241.3	198.4	168.6	143.3	121.4	101.9	91.85	97.25	89.87	46.83	33.20	25.77	22.32	21.32	25.69	79.49	373.6	1188	3185	8637	1852	27.03	5.844	4.159	3.302	2.729	2.328	2.533	2.809	2.646	2.912	2.853	3.058	2.933	2.915	3.172	2.809	2.980	3.088	3.145	3.125	2.905	3.445	3.267	3.262	3.432	3.364	3.437	3.664	3.352	3.562	3.860	3.765
440.0	385.3	284.4	306.0	363.4	422.7	452.7	473.5	494.8	501.9	515.7	549.1	554.9	535.9	498.2	463.4	441.7	435.7	439.6	440.2	432.3	408.3	364.5	333.2	287.1	235.2	194.8	168.7	143.5	123.2	103.2	87.32	81.95	93.93	69.08	39.00	28.00	23.79	20.31	18.85	28.77	93.28	274.4	763.7	4538	8745	1630	19.94	5.406	3.750	2.897	2.410	2.473	2.761	2.586	2.681	2.735	2.787	3.031	2.925	2.895	2.734	2.831	3.103	3.107	3.007	3.066	3.323	3.254	3.158	3.229	3.228	3.303	3.359	3.469	3.314	3.518	3.432
445.0	438.9	391.3	284.5	335.8	395.7	432.3	457.4	484.0	498.8	518.0	536.2	551.4	521.1	472.2	433.2	406.0	396.1	394.7	395.6	391.0	375.0	335.7	311.9	274.1	228.7	191.9	163.0	141.5	122.5	103.2	86.33	74.21	78.39	82.33	50.14	31.42	25.31	22.11	18.71	19.90	32.52	72.03	180.7	1143	5728	8332	1192	15.54	4.435	3.240	2.552	2.745	2.849	2.653	2.590	2.645	2.737	3.068	2.830	2.807	2.853	2.909	3.063	2.993	2.991	3.141	3.171	3.054	3.231	3.331	3.125	3.017	3.123	3.134	3.237	3.148	3.320
450.0	308.0	611.9	349.2	307.4	358.9	394.0	429.3	463.2	482.8	504.8	523.4	534.0	495.9	436.8	393.6	361.5	343.8	342.4	344.1	342.5	330.1	301.7	284.3	252.6	213.8	182.8	157.6	137.5	119.3	101.7	85.91	72.37	63.88	71.07	67.30	43.83	29.02	24.74	21.65	20.30	21.99	29.23	52.00	266.1	1437	4709	6834	2839	17.39	4.587	3.158	3.033	2.881	2.716	2.681	2.635	2.772	2.892	2.659	3.020	2.846	2.757	3.029	3.003	2.893	3.012	3.004	3.092	3.184	3.125	2.978	2.913	2.946	2.906	2.952	2.826	2.938
455.0	193.3	603.4	642.3	291.3	320.7	363.8	400.6	440.0	453.7	482.2	507.1	505.3	461.4	401.9	355.3	317.0	296.9	293.5	295.5	296.6	287.2	267.1	254.9	229.4	195.9	168.7	148.6	132.2	113.5	99.61	83.64	70.15	60.33	55.92	62.72	59.89	38.28	27.15	24.85	22.32	21.80	21.53	24.81	70.72	330.8	1066	2648	7289	1571	21.14	4.332	3.619	3.160	2.876	2.801	2.814	2.713	2.725	2.599	2.788	2.760	2.581	2.831	2.821	2.937	2.933	3.116	2.947	2.936	2.961	2.741	3.037	2.555	2.730	2.783	2.821	2.909
460.0	149.3	410.0	874.8	359.7	295.7	335.4	373.8	415.3	442.3	465.0	486.4	482.9	434.4	375.1	327.2	285.8	263.4	262.3	260.9	264.2	256.4	243.4	232.5	213.4	182.8	157.6	140.2	126.2	109.6	97.17	82.96	69.17	58.54	50.58	51.17	61.76	50.02	31.59	26.23	23.73	22.28	20.48	19.40	27.80	84.00	246.8	621.9	3500	7034	1291	16.54	4.532	3.504	3.093	2.838	2.596	2.823	2.791	2.804	2.703	2.510	2.665	2.794	2.831	2.826	2.939	2.974	2.750	2.919	2.883	2.700	2.751	2.527	2.401	2.498	2.412	2.564
465.0	144.6	236.8	857.2	567.3	277.4	312.7	347.8	389.0	421.7	441.0	467.8	454.2	410.1	347.6	300.5	259.5	239.9	233.8	232.0	237.4	232.4	222.2	214.4	194.2	170.0	148.9	133.4	119.0	104.1	92.84	79.10	66.27	56.48	49.06	44.76	51.31	55.68	38.56	28.79	25.24	22.72	21.03	18.59	18.34	29.36	63.78	146.8	857.9	4409	6283	1039	14.48	4.094	3.292	2.981	2.708	2.774	2.694	2.786	2.722	2.628	2.846	2.645	2.713	2.769	2.842	2.760	2.866	2.586	2.735	2.491	2.548	2.520	2.468	2.463	2.185	2.335
470.0	121.5	157.2	506.1	899.9	377.2	281.1	324.0	360.8	388.6	402.6	430.0	417.5	373.3	316.7	266.5	227.9	207.0	201.9	202.3	205.2	203.6	195.5	189.3	174.3	153.8	137.1	121.5	109.2	97.23	86.26	72.55	62.49	53.60	46.70	41.39	40.50	46.65	47.05	33.97	25.20	22.92	20.96	17.90	16.00	16.23	22.48	39.38	197.3	1090	3380	4777	2142	80.31	4.403	3.302	2.915	2.797	2.710	2.667	2.623	2.525	2.680	2.666	2.733	2.709	2.616	2.679	2.695	2.382	2.646	2.352	2.399	2.209	2.235	2.172	1.994	2.170
475.0	108.8	132.2	249.7	838.6	642.4	270.1	287.0	323.6	352.1	370.0	385.7	381.6	338.0	280.1	233.2	198.4	178.5	173.2	172.2	175.1	175.1	168.1	166.1	153.9	137.9	123.1	108.9	101.0	89.39	77.35	67.42	58.24	49.42	43.67	37.84	34.76	34.82	41.47	41.22	28.34	21.93	20.27	16.87	14.89	13.56	12.76	14.72	48.94	246.9	759.7	1693	4664	1572	23.45	4.139	3.182	2.864	2.676	2.583	2.432	2.467	2.435	2.444	2.523	2.549	2.506	2.431	2.459	2.351	2.409	2.106	2.136	2.014	2.092	1.972	1.953	1.877
480.0	107.5	122.2	163.3	526.9	1085	362.4	263.5	300.7	326.5	349.5	365.2	352.3	314.0	258.2	214.9	181.2	159.3	157.2	154.2	156.5	159.3	152.0	152.4	143.1	125.7	113.7	101.5	92.71	81.69	72.16	63.30	55.29	47.11	40.95	35.03	32.86	30.42	33.74	40.47	33.84	23.27	19.69	16.35	14.24	12.49	10.58	9.178	15.76	59.24	173.3	393.1	2065	4874	1369	18.66	3.732	3.187	2.798	2.614	2.324	2.541	2.413	2.479	2.353	2.352	2.417	2.290	2.161	2.328	2.292	2.042	2.061	1.866	1.833	1.795	1.856	1.691
485.0	111.2	116.2	129.9	275.8	1142	538.9	245.5	277.9	310.9	324.0	342.4	331.6	292.2	243.0	200.3	164.5	143.6	141.8	142.0	144.0	146.1	141.0	140.1	132.7	118.0	104.7	95.59	86.30	75.54	67.76	60.39	52.86	44.44	39.53	34.56	31.36	28.93	28.32	34.31	36.86	26.65	19.32	16.17	14.19	11.82	9.638	7.795	8.447	17.50	42.46	91.61	502.7	2930	4777	1044	12.75	3.460	3.161	2.811	2.433	2.391	2.366	2.412	2.452	2.349	2.286	2.368	2.327	2.176	2.197	2.049	1.922	1.774	1.731	1.863	1.669	1.682
490.0	95.35	108.5	117.0	171.6	669.4	1183	352.7	255.7	291.0	302.9	317.9	306.9	270.3	219.5	180.3	148.0	131.9	125.5	128.3	128.3	130.8	127.2	126.4	119.8	106.3	95.91	87.20	79.05	71.84	63.63	56.50	48.68	41.74	36.68	32.30	29.51	27.02	25.60	26.54	31.32	31.41	22.59	16.46	13.72	11.54	9.518	7.855	6.741	8.065	13.08	23.79	115.8	716.7	2383	4012	1959	87.30	3.914	3.138	2.676	2.633	2.345	2.351	2.348	2.339	2.154	2.221	2.108	2.146	2.075	1.897	1.746	1.659	1.630	1.594	1.535	1.575
495.0	85.39	106.8	125.6	133.2	283.1	1199	986.3	250.1	263.3	274.5	284.6	277.0	242.0	198.6	160.6	132.0	115.6	109.3	111.8	114.2	112.4	112.4	112.6	105.9	95.84	87.93	78.24	72.48	65.73	57.96	51.66	44.72	39.19	34.43	30.57	27.11	25.07	23.48	22.74	23.17	28.26	26.97	18.38	13.56	11.72	9.862	7.780	6.475	5.999	6.625	8.753	29.28	163.0	536.2	1475	4355	1716	25.98	3.912	3.007	2.747	2.484	2.419	2.352	2.045	2.090	2.191	2.076	1.924	1.941	1.857	1.690	1.523	1.518	1.329	1.451	1.406
500.0	80.93	102.1	119.7	118.8	170.1	732.1	1646	348.8	239.2	256.3	263.0	253.9	222.2	180.9	144.6	119.4	104.0	97.94	101.3	104.1	102.4	100.6	101.3	95.37	84.85	79.95	71.93	67.02	59.70	54.41	47.93	41.14	37.17	31.67	28.82	25.57	24.05	22.24	21.07	19.99	22.18	27.31	21.66	13.90	11.42	9.555	7.635	6.535	5.795	5.291	5.317	9.774	39.55	122.9	341.7	1851	4477	1494	21.07	3.429	2.978	2.544	2.281	2.210	2.220	2.155	1.882	1.841	1.911	1.679	1.656	1.581	1.535	1.466	1.420	1.401	1.460
505.0	77.17	86.87	121.4	117.8	132.5	346.7	1817	856.8	222.4	233.7	243.5	230.7	200.1	162.7	131.7	108.6	94.60	89.79	89.98	92.20	93.55	91.87	91.99	86.39	79.51	72.91	66.41	61.23	55.24	50.80	44.36	39.26	34.99	29.81	27.09	24.42	22.25	20.93	20.12	18.52	18.98	22.96	24.17	16.65	11.24	9.677	7.924	6.630	5.777	5.295	4.692	5.485	12.00	30.42	79.89	442.2	2377	4297	1139	14.52	3.135	2.530	2.460	2.092	2.162	1.988	1.810	1.774	1.730	1.483	1.661	1.510	1.531	1.333	1.274	1.346	1.401
510.0	73.09	79.55	98.21	117.6	117.0	177.7	1055	1977	449.1	205.2	219.6	208.1	177.5	145.5	117.0	94.92	81.74	78.74	79.27	80.26	81.13	79.74	80.53	76.55	68.99	63.54	59.30	54.51	49.15	44.16	39.67	35.56	31.00	26.93	24.48	22.33	20.45	19.38	17.91	17.16	16.59	17.19	20.32	19.64	13.76	9.678	7.809	6.700	5.789	5.343	4.828	4.505	5.793	9.619	20.80	101.8	568.5	1959	3229	1561	86.68	3.309	2.482	2.004	2.084	1.814	1.801	1.664	1.646	1.467	1.526	1.323	1.381	1.404	1.245	1.189	1.186
515.0	69.67	80.48	77.28	100.5	106.3	126.5	373.5	2127	1525	210.4	187.6	180.5	155.0	126.5	100.2	81.23	70.27	66.61	68.44	69.41	68.66	68.47	70.14	65.93	59.66	55.67	51.46	47.85	43.41	39.28	35.61	31.12	27.84	24.50	22.13	20.18	18.74	17.28	16.47	15.68	14.82	13.98	14.91	17.44	17.03	11.18	7.706	6.880	5.914	5.024	4.729	4.436	4.262	4.784	7.019	25.27	129.1	439.8	1035	3093	1669	26.44	2.861	2.284	2.127	1.821	1.708	1.709	1.621	1.281	1.370	1.258	1.247	1.195	1.168	1.131	1.133
520.0	67.41	67.95	71.45	88.99	115.4	105.7	174.9	1269	2784	279.7	175.0	160.1	143.0	113.6	92.06	72.60	62.38	60.73	59.70	62.08	61.30	61.57	61.73	57.49	53.46	48.90	45.69	43.41	39.70	36.51	32.08	28.75	25.15	22.06	19.85	18.43	16.97	16.27	14.91	14.47	13.35	12.33	12.37	13.81	16.96	13.22	8.220	6.460	5.614	5.066	4.451	4.240	3.902	3.878	4.044	7.906	31.13	100.4	237.1	1220	3188	1381	21.07	2.665	2.196	1.976	1.632	1.565	1.709	1.330	1.361	1.196	1.161	1.158	1.201	1.095	1.190
525.0	65.70	61.18	65.65	74.50	109.9	98.91	121.3	508.9	3223	1199	164.8	148.8	127.1	99.53	81.36	66.97	56.88	53.68	53.84	54.67	55.86	55.12	55.05	51.32	48.58	45.15	42.11	39.44	35.93	33.35	29.09	25.71	23.65	20.55	18.07	17.10	15.42	14.54	13.64	13.19	12.22	11.53	11.26	11.11	14.37	14.45	9.603	6.406	5.374	4.854	4.377	4.169	3.930	3.438	3.309	3.991	9.232	24.79	55.36	286.1	1526	3052	985.5	14.19	2.446	2.038	1.613	1.494	1.455	1.273	1.175	1.181	1.295	1.186	1.013	1.008	1.103
530.0	63.81	56.71	54.16	61.88	95.16	102.8	99.85	198.5	1789	3088	478.6	129.4	111.0	87.39	71.61	56.98	49.44	46.41	46.33	47.71	47.95	46.56	47.90	45.47	42.11	39.35	36.30	33.99	32.13	29.78	25.89	23.49	20.64	18.23	16.29	14.84	13.74	12.89	12.06	11.77	11.02	10.42	9.826	9.297	10.00	12.35	11.65	8.044	5.534	4.565	4.181	4.040	3.535	3.376	3.145	3.001	4.052	7.462	14.34	66.05	359.9	1290	2198	994.5	18.82	2.648	1.724	1.574	1.456	1.299	1.153	1.158	1.118	1.011	1.015	0.964	0.960
535.0	59.93	55.39	51.02	55.67	72.38	107.2	90.41	114.8	529.4	3218	1658	140.0	93.17	75.64	57.42	49.16	42.06	38.28	40.29	41.29	40.22	39.53	41.11	39.57	36.16	33.77	31.27	29.75	28.06	25.31	22.28	20.52	18.52	16.11	14.39	12.84	12.24	11.54	10.43	10.06	9.982	9.210	8.724	8.036	8.000	8.695	10.60	9.705	6.288	4.643	3.774	3.739	3.246	2.940	3.040	2.645	2.664	3.345	4.873	16.49	81.94	289.7	654.5	1965	1512	27.21	2.189	1.713	1.398	1.286	1.167	1.149	1.089	0.964	1.011	1.002	0.908
540.0	65.20	60.37	50.34	49.50	56.09	98.06	89.26	87.50	195.6	1747	3752	360.3	81.59	66.78	51.41	41.90	36.24	34.69	34.39	35.65	35.49	34.47	35.88	34.55	31.51	29.97	28.28	26.37	24.89	22.23	20.87	17.91	16.05	14.74	13.02	11.75	10.99	10.14	9.669	9.178	8.993	8.319	7.679	7.476	7.188	7.090	7.895	9.729	7.331	4.733	3.679	3.439	2.807	2.781	2.687	2.622	2.264	2.469	2.632	5.461	19.83	66.27	149.4	729.8	2180	1146	21.03	2.034	1.484	1.405	1.119	1.103	1.101	1.009	0.970	0.939	0.845
545.0	70.42	61.74	54.72	48.54	51.71	82.54	94.15	80.09	112.7	613.1	4212	1200	80.72	59.49	46.65	37.77	32.40	30.81	30.04	32.25	31.33	30.27	31.07	30.89	27.98	26.55	24.35	23.07	21.32	19.83	18.40	16.51	14.60	13.04	11.38	10.73	9.672	9.141	8.572	8.108	7.527	7.467	7.240	6.759	6.246	5.988	6.362	8.444	8.396	5.505	3.795	3.207	2.707	2.676	2.465	2.527	2.298	1.993	2.080	2.885	6.058	16.27	35.08	169.5	928.8	2069	241.0	14.75	1.777	1.505	1.236	1.132	1.062	0.870	1.012	0.897	0.860
550.0	71.27	67.97	58.02	45.56	44.26	57.84	95.48	88.00	94.28	223.2	2071	3493	359.8	52.23	39.41	31.91	26.39	25.88	25.51	26.18	25.61	25.82	25.56	24.64	23.76	21.50	20.85	19.08	18.60	16.54	15.44	14.18	12.38	11.09	9.713	9.160	8.336	7.709	7.480	7.238	6.781	6.551	6.271	5.680	5.606	5.236	5.011	5.691	6.937	6.185	4.282	3.109	2.625	2.439	2.146	2.209	2.150	2.155	2.059	1.971	2.629	5.065	9.378	39.34	215.4	780.3	1287	815.9	90.07	2.446	1.273	1.122	1.033	0.941	0.936	0.871	0.837
555.0	92.80	80.16	63.03	44.71	41.21	48.35	82.78	113.6	117.2	171.6	630.6	3517	1276	65.44	33.34	25.90	22.01	20.90	20.73	20.84	20.89	20.93	20.63	20.15	18.60	17.68	16.95	15.85	15.50	14.13	12.59	11.42	10.47	9.300	8.421	7.596	6.919	6.336	6.309	6.141	5.761	5.659	5.162	4.984	4.751	4.678	4.140	4.171	4.810	5.425	4.916	3.471	2.309	2.180	2.122	2.019	1.877	2.021	2.117	1.834	1.936	2.554	3.657	10.26	49.58	175.6	357.0	1150	1120	28.80	1.978	1.242	1.047	0.994	0.831	0.846	0.750
560.0	102.6	94.64	69.45	45.36	41.21	48.92	77.20	143.0	155.0	202.1	328.8	1820	3532	139.8	30.40	23.20	18.97	17.58	17.90	17.85	18.14	17.65	17.47	16.87	16.54	15.34	14.42	14.14	13.06	12.33	10.56	9.589	8.957	7.979	7.403	6.513	6.295	5.579	5.441	5.400	4.981	5.070	4.499	4.508	4.369	3.940	3.597	3.579	3.534	4.367	4.929	3.833	2.409	2.099	1.991	1.854	1.743	1.788	1.886	2.036	1.963	2.064	2.434	4.060	12.98	40.94	82.12	380.4	1287	809.2	22.66	1.445	1.099	1.051	0.855	0.944	0.788
565.0	110.2	101.7	75.89	55.01	40.34	49.79	76.02	155.7	204.4	252.1	313.6	727.9	4036	856.9	30.28	20.82	16.64	16.19	16.20	15.55	15.28	15.78	15.82	15.11	14.54	13.63	12.28	12.02	11.28	10.73	9.894	8.691	7.764	6.847	6.463	5.862	5.436	4.747	4.945	4.553	4.372	4.599	4.181	3.926	3.949	3.654	3.257	3.070	2.993	3.169	4.136	4.309	2.654	2.024	1.746	1.625	1.682	1.856	1.915	2.240	1.974	2.136	2.402	2.825	4.859	11.17	20.41	88.27	488.0	1210	246.2	15.25	1.222	1.091	0.916	0.850	0.789
570.0	131.8	118.1	85.74	52.71	45.26	54.77	86.14	164.2	266.0	326.2	385.7	433.9	1973	2923	236.6	18.92	14.27	12.90	13.13	12.34	12.81	12.65	12.76	12.22	11.86	10.94	10.10	9.597	9.428	8.870	8.136	7.131	6.615	5.929	5.421	4.864	4.787	4.328	4.068	3.926	3.616	3.747	3.552	3.309	3.239	3.097	2.936	2.703	2.488	2.409	2.815	3.567	3.100	2.355	1.734	1.573	1.636	1.751	1.794	2.003	2.255	2.583	2.604	2.728	3.338	4.793	6.744	21.71	112.9	417.3	718.1	523.8	83.76	2.424	0.990	0.875	0.802
575.0	155.4	136.8	93.39	60.81	61.85	82.49	115.4	194.1	319.9	409.0	459.7	417.5	614.2	2886	925.3	28.55	12.97	11.60	11.21	10.77	10.42	10.23	10.93	9.977	9.299	8.705	7.974	7.915	7.602	7.510	6.446	6.233	5.306	4.875	4.719	4.119	4.258	3.862	3.677	3.549	3.134	3.149	2.873	2.764	2.650	2.794	2.470	2.520	2.184	2.149	2.032	2.406	3.118	2.782	1.953	1.798	1.702	1.883	1.829	2.099	2.391	2.819	2.949	3.226	3.337	3.574	4.088	7.098	27.05	94.40	185.2	580.1	693.3	30.45	1.712	0.913	0.787
580.0	149.2	144.9	113.1	93.24	97.28	124.6	171.4	244.7	361.4	475.9	511.2	437.9	298.3	1398	2865	89.55	11.78	10.46	9.290	9.315	9.359	8.425	9.192	9.009	8.179	7.899	7.109	6.748	6.726	6.368	5.730	5.291	4.658	4.091	3.941	3.878	3.831	3.487	3.278	3.065	2.802	2.806	2.706	2.404	2.457	2.328	2.205	2.214	2.032	1.973	1.875	2.006	2.618	2.922	2.272	1.950	1.925	2.130	2.091	2.373	2.716	2.864	3.429	3.384	3.583	3.321	3.487	4.066	7.940	22.72	42.77	177.1	688.7	545.1	23.23	1.232	0.923
585.0	163.4	145.8	127.3	105.1	131.7	162.9	222.5	287.4	385.6	518.8	544.8	452.7	234.0	453.7	3247	596.8	12.85	10.03	8.350	7.826	7.896	7.990	7.839	7.635	6.957	6.719	6.142	5.903	5.970	6.065	5.182	4.696	4.362	3.986	3.509	3.353	3.308	3.139	2.763	2.718	2.248	2.518	2.466	2.184	2.488	2.237	2.109	2.053	2.057	1.775	1.667	1.807	2.218	2.813	2.664	2.194	2.023	2.271	2.281	2.320	2.762	3.275	3.400	3.603	3.701	3.552	3.569	3.359	3.864	6.697	10.99	41.16	239.7	700.8	242.9	15.83	1.057
590.0	163.6	147.2	124.5	105.4	131.0	169.5	219.9	284.3	376.7	499.5	554.1	449.1	216.7	152.9	1528	2206	61.17	9.252	7.800	7.264	6.831	6.686	6.691	6.486	6.025	5.661	5.134	4.997	5.044	4.622	4.226	3.901	3.669	3.357	3.064	2.771	2.814	2.649	2.474	2.225	1.999	2.236	2.119	2.008	2.192	2.144	1.820	1.909	1.799	1.558	1.478	1.638	1.727	2.196	2.643	2.535	2.284	2.165	2.220	2.349	2.738	3.060	3.363	3.751	3.756	3.584	3.335	3.169	2.908	2.973	3.742	10.37	55.43	226.8	427.3	349.7	20.26
595.0	149.5	139.9	113.1	102.1	126.5	161.9	210.4	271.9	356.1	448.0	541.4	431.8	202.0	82.72	388.0	2338	640.6	12.65	7.022	6.527	5.974	5.891	5.711	5.272	5.139	4.640	4.691	4.426	4.166	3.911	3.594	3.339	3.089	2.819	2.523	2.282	2.200	2.260	1.939	2.008	1.866	1.819	1.910	2.035	1.911	1.828	1.693	1.610	1.522	1.412	1.416	1.487	1.467	1.790	2.118	2.482	2.580	2.383	2.138	2.270	2.584	2.796	3.079	3.130	3.463	3.750	3.120	3.074	2.560	2.144	2.005	3.418	13.34	51.45	107.7	328.5	415.7
600.0	134.8	126.3	106.7	105.7	123.5	167.6	212.3	274.2	335.9	420.3	509.8	417.5	191.2	65.17	110.5	1204	1949	53.67	6.685	6.328	5.628	4.988	5.238	5.155	4.494	4.504	4.257	3.762	3.576	3.430	3.120	2.906	2.672	2.435	2.281	2.298	1.915	2.052	1.736	1.815	1.657	1.620	1.623	1.725	1.730	1.803	1.593	1.462	1.422	1.395	1.320	1.481	1.391	1.657	1.785	2.253	2.697	2.456	2.218	2.262	2.498	2.761	2.879	3.107	3.273	3.521	3.008	2.967	2.505	1.960	1.587	1.929	4.046	12.50	25.09	96.77	387.0
605.0	134.4	122.4	105.6	101.6	126.2	170.6	217.6	266.3	326.8	385.1	462.3	389.2	184.0	63.25	48.67	377.4	2396	363.8	7.041	6.081	5.390	4.430	4.656	4.586	3.950	3.900	3.547	3.376	3.509	3.146	2.974	2.617	2.407	2.209	2.063	2.013	1.940	1.757	1.601	1.642	1.625	1.522	1.584	1.568	1.473	1.552	1.464	1.478	1.255	1.244	1.239	1.377	1.351	1.563	1.804	2.017	2.454	2.410	2.220	2.326	2.380	2.692	2.696	3.019	3.071	3.219	2.835	2.990	2.138	1.834	1.584	1.499	1.916	3.802	6.710	22.79	129.9
610.0	122.5	115.0	101.0	102.4	127.2	166.3	206.8	250.3	295.8	341.8	400.3	365.8	178.8	64.21	37.34	102.1	1251	1560	40.77	5.536	5.026	4.143	4.060	3.931	3.483	3.546	3.141	3.110	2.919	2.785	2.708	2.280	2.187	2.050	1.838	1.773	1.707	1.529	1.454	1.448	1.435	1.406	1.397	1.444	1.362	1.362	1.327	1.321	1.288	1.169	1.213	1.278	1.324	1.535	1.580	1.737	2.094	2.346	2.389	2.216	2.245	2.477	2.483	2.578	2.756	2.742	2.687	2.684	2.204	1.680	1.537	1.322	1.441	1.900	2.469	5.986	30.09
615.0	111.0	99.98	90.82	96.04	120.7	149.9	186.3	223.5	264.2	301.0	338.0	316.2	177.2	66.23	38.73	40.96	321.0	1873	476.8	7.247	4.726	3.737	3.629	3.370	3.023	2.883	3.043	2.691	2.316	2.584	2.534	2.187	1.906	2.003	1.683	1.586	1.402	1.493	1.307	1.350	1.330	1.288	1.402	1.207	1.160	1.353	1.210	1.200	1.170	1.044	1.015	1.222	1.136	1.278	1.332	1.463	1.655	2.146	2.251	2.112	2.106	2.153	2.281	2.256	2.554	2.458	2.350	2.500	2.129	1.578	1.416	1.302	1.314	1.464	1.469	2.237	7.538
620.0	107.7	100.4	86.34	88.70	112.8	135.3	167.0	200.0	234.6	261.2	302.1	279.3	174.2	69.07	42.85	29.48	85.51	1080	1425	28.66	4.781	3.623	3.307	3.298	2.990	2.601	2.741	2.562	2.205	2.236	2.230	2.025	1.809	1.761	1.531	1.407	1.472	1.362	1.268	1.320	1.138	1.252	1.233	1.160	1.197	1.181	1.184	1.178	1.111	0.965	1.013	1.158	1.063	1.198	1.237	1.374	1.510	1.696	2.058	2.050	1.899	2.046	2.127	2.091	2.377	2.258	2.254	2.175	2.037	1.649	1.384	1.190	1.173	1.219	1.256	1.335	2.465
625.0	99.29	89.61	83.39	87.88	107.7	128.7	151.6	181.5	209.7	238.6	274.8	251.6	171.3	76.96	45.51	29.45	33.06	361.3	1934	203.8	5.227	3.719	3.284	2.900	2.471	2.590	2.408	2.245	2.067	1.997	1.857	1.844	1.596	1.628	1.421	1.333	1.329	1.257	1.120	1.205	1.045	1.113	1.107	1.151	1.213	1.024	1.044	1.092	1.011	0.871	0.925	1.014	1.055	1.144	1.183	1.244	1.446	1.497	1.904	1.872	1.846	1.958	1.777	2.016	2.187	2.060	1.936	2.022	1.692	1.714	1.350	1.233	1.202	1.184	1.110	1.126	1.210
630.0	95.44	86.90	88.35	87.31	99.45	118.0	139.5	163.6	183.8	209.6	241.5	224.4	155.3	92.67	51.77	31.96	23.10	94.05	1139	997.9	26.24	3.974	3.276	2.890	2.435	2.359	2.113	2.194	1.962	1.938	1.766	1.794	1.499	1.424	1.325	1.289	1.261	1.239	1.127	1.049	1.028	0.984	1.043	1.062	1.001	1.047	0.978	0.999	0.935	0.879	0.854	1.007	1.031	1.098	1.096	1.151	1.415	1.393	1.553	1.601	1.751	1.777	1.644	1.750	1.758	1.829	1.881	1.812	1.634	1.564	1.410	1.269	1.202	1.222	1.044	1.080	1.026
635.0	90.53	86.46	85.91	85.62	96.01	109.2	124.2	145.1	160.6	182.6	209.0	201.2	145.1	104.1	61.66	37.05	22.51	31.37	298.8	1583	329.3	4.830	3.160	2.708	2.626	2.135	2.144	1.774	1.915	1.793	1.650	1.535	1.503	1.300	1.265	1.196	1.105	1.050	1.062	1.017	1.044	0.944	0.847	0.906	0.967	1.040	1.011	0.936	0.935	0.806	0.821	0.949	1.025	1.035	1.054	1.085	1.172	1.363	1.355	1.406	1.541	1.642	1.486	1.596	1.683	1.617	1.613	1.637	1.386	1.396	1.348	1.246	1.145	1.093	0.979	1.058	0.865
640.0	86.58	79.44	92.53	94.24	97.04	99.83	115.5	128.0	140.8	163.6	189.4	187.8	139.5	106.2	74.19	39.93	23.71	17.41	75.29	1071	1016	14.14	3.297	2.801	2.384	2.098	2.019	1.971	1.866	1.880	1.551	1.520	1.364	1.342	1.209	1.061	1.083	1.093	1.059	0.999	0.896	0.793	0.886	0.917	0.958	0.955	0.948	0.897	0.850	0.817	0.840	0.905	0.961	0.982	1.047	1.011	1.138	1.170	1.120	1.214	1.424	1.536	1.405	1.530	1.568	1.477	1.599	1.617	1.387	1.270	1.188	1.172	1.231	1.027	1.014	0.913	0.851
645.0	80.66	88.53	89.71	94.62	95.76	98.70	104.7	113.3	129.0	148.4	177.3	177.6	134.1	104.3	83.02	42.73	23.79	14.31	23.61	400.1	1569	57.20	3.432	2.677	2.304	1.938	1.851	1.905	1.822	1.799	1.649	1.407	1.250	1.378	1.184	0.976	1.036	1.053	0.999	0.928	0.876	0.809	0.858	0.787	0.896	0.886	0.829	0.857	0.747	0.768	0.790	0.904	0.938	0.977	0.903	0.971	1.046	1.104	1.106	1.043	1.218	1.363	1.411	1.402	1.414	1.427	1.456	1.455	1.372	1.168	1.178	1.225	1.309	1.164	0.971	0.893	0.945
650.0	78.55	91.62	92.58	95.86	96.61	94.89	94.68	104.2	121.8	137.1	166.1	168.8	132.3	100.7	85.46	46.09	25.55	13.86	11.23	107.3	1404	413.2	4.911	2.748	2.138	1.898	1.718	1.913	1.738	1.779	1.453	1.347	1.262	1.225	1.086	1.099	0.986	0.920	1.013	0.849	0.785	0.888	0.784	0.807	0.791	0.859	0.780	0.888	0.769	0.826	0.786	0.956	0.881	0.825	0.887	0.962	1.009	1.109	1.019	1.056	1.166	1.202	1.211	1.397	1.270	1.366	1.444	1.428	1.318	1.216	1.057	1.219	1.193	1.163	0.989	0.887	0.894
