Sample:	'1
File name:	Default_20240106_132846.FD3
Run date:	'13:22:25, 01/06/2024
Operator:	dsjg
Comment:	'

Instrument
Model:	F-2700 FL Spectrophotometer
Serial number:	2198-001
ROM Version:	4J14000 07

Instrument parameters
Measurement type:	3-D scan
Data mode:	Fluorescence
EX  Start WL:	220.0 nm
EX  End WL:	600.0 nm
EX Sampling interval:	5.0 nm
EM  Start WL:	230.0 nm
EM  End WL:	650.0 nm
EM Sampling interval:	5.0 nm
Scan speed:	12000 nm/min
EX Slit:	5.0 nm
EM Slit:	5.0 nm
PMT Voltage:	700 V
Response:	Auto 
Corrected spectra:	Off
Contour interval:	50.000

Peak integration
Integration method:	Rectangular
Sensitivity:	1
Threshold:	1.000

Peaks
No.	ApexEX/EM(nm)	Height(Data)
1	225.0/340.0	620.5
2	230.0/620.0	16.14
3	235.0/260.0	61.36
4	240.0/265.0	85.34
5	245.0/270.0	94.96
6	250.0/275.0	132.0
7	250.0/550.0	62.59
8	260.0/570.0	50.25
9	265.0/585.0	52.06
10	270.0/300.0	679.2
11	270.0/595.0	52.19
12	275.0/305.0	740.4
13	275.0/345.0	923.9
14	275.0/605.0	47.31
15	315.0/355.0	234.0
16	320.0/365.0	239.6
17	330.0/375.0	253.6
18	335.0/380.0	259.0
19	560.0/345.0	4.130

Data points
	220.0	225.0	230.0	235.0	240.0	245.0	250.0	255.0	260.0	265.0	270.0	275.0	280.0	285.0	290.0	295.0	300.0	305.0	310.0	315.0	320.0	325.0	330.0	335.0	340.0	345.0	350.0	355.0	360.0	365.0	370.0	375.0	380.0	385.0	390.0	395.0	400.0	405.0	410.0	415.0	420.0	425.0	430.0	435.0	440.0	445.0	450.0	455.0	460.0	465.0	470.0	475.0	480.0	485.0	490.0	495.0	500.0	505.0	510.0	515.0	520.0	525.0	530.0	535.0	540.0	545.0	550.0	555.0	560.0	565.0	570.0	575.0	580.0	585.0	590.0	595.0	600.0
230.0	6.193	123.8	205.6	44.40	0.782	0.687	1.076	0.639	0.889	0.626	0.828	0.658	0.837	0.730	0.454	0.448	0.310	0.479	0.417	0.364	0.357	0.351	0.378	0.409	0.360	0.309	0.337	0.348	0.262	0.255	0.296	0.291	0.266	0.256	0.248	0.390	0.392	0.429	0.336	0.301	0.260	0.302	0.247	0.197	0.174	0.159	0.170	0.452	0.786	0.757	0.449	0.141	0.085	0.093	0.085	0.035	0.056	0.046	0.041	0.041	0.020	0.023	0.007	-0.003	0.019	0.031	0.024	-0.002	-0.028	-0.016	-0.028	-0.021	-0.017	-0.031	0.005	-0.034	0.000
235.0	8.138	36.14	151.4	233.3	79.06	2.860	1.226	1.455	0.900	1.421	0.833	0.656	0.782	0.484	0.403	0.509	0.396	0.505	0.468	0.427	0.270	0.472	0.405	0.324	0.370	0.274	0.294	0.421	0.288	0.360	0.283	0.210	0.217	0.261	0.154	0.284	0.339	0.428	0.334	0.290	0.262	0.313	0.316	0.201	0.236	0.211	0.217	0.263	0.297	0.543	0.757	1.014	0.783	0.287	0.077	0.075	0.039	0.042	0.043	0.029	0.018	0.070	0.031	-0.006	0.019	0.075	0.031	0.021	-0.024	-0.003	-0.038	-0.002	-0.018	-0.045	0.006	0.016	-0.024
240.0	19.94	15.79	52.53	249.1	338.1	73.10	2.621	1.628	1.403	1.134	0.750	0.944	0.956	0.506	0.554	0.702	0.457	0.421	0.367	0.502	0.304	0.304	0.350	0.437	0.388	0.263	0.252	0.330	0.336	0.303	0.345	0.191	0.234	0.272	0.225	0.203	0.278	0.379	0.379	0.391	0.385	0.249	0.242	0.237	0.239	0.230	0.281	0.219	0.227	0.228	0.395	1.103	1.751	1.705	0.890	0.152	0.110	0.087	0.039	-0.005	0.007	0.052	0.037	-0.020	-0.007	-0.002	0.010	0.015	-0.014	-0.004	-0.006	-0.032	0.004	-0.059	0.006	0.001	-0.015
245.0	17.20	25.84	19.28	110.9	460.4	384.0	58.33	1.535	1.510	1.331	1.504	1.349	0.998	0.949	0.414	0.583	0.425	0.413	0.387	0.457	0.502	0.274	0.324	0.463	0.317	0.288	0.339	0.292	0.337	0.311	0.332	0.347	0.251	0.314	0.275	0.208	0.220	0.256	0.355	0.324	0.311	0.274	0.238	0.206	0.256	0.240	0.312	0.297	0.211	0.149	0.234	0.403	1.002	2.246	2.879	2.019	0.712	0.092	0.016	-0.022	0.048	0.100	0.030	0.012	0.014	0.002	0.008	-0.030	-0.001	-0.014	-0.001	0.012	-0.025	-0.040	0.002	-0.009	-0.007
250.0	6.453	30.34	34.58	37.35	184.2	565.2	622.2	158.9	11.39	1.904	1.633	1.432	1.075	1.012	0.486	0.634	0.483	0.531	0.464	0.460	0.453	0.385	0.430	0.435	0.431	0.359	0.348	0.353	0.433	0.343	0.308	0.287	0.322	0.303	0.297	0.278	0.198	0.193	0.260	0.300	0.312	0.307	0.244	0.239	0.246	0.215	0.206	0.237	0.249	0.248	0.248	0.199	0.305	0.814	1.550	2.831	3.953	4.002	2.555	0.845	0.156	0.067	-0.008	0.035	-0.003	-0.003	-0.016	-0.008	0.011	-0.017	-0.027	-0.012	0.004	0.007	-0.026	0.029	-0.003
255.0	2.078	9.798	36.34	54.69	53.78	166.1	668.6	 1111	225.8	11.97	1.788	2.014	1.282	1.025	0.657	0.906	0.535	0.442	0.527	0.563	0.580	0.274	0.456	0.374	0.433	0.381	0.372	0.372	0.497	0.297	0.321	0.247	0.281	0.368	0.258	0.279	0.287	0.241	0.138	0.292	0.199	0.315	0.203	0.342	0.311	0.219	0.181	0.213	0.204	0.210	0.370	0.336	0.253	0.307	0.483	0.784	1.394	3.577	6.451	7.949	4.381	0.995	0.089	0.029	0.019	0.004	0.019	0.027	-0.009	0.019	-0.054	0.034	-0.043	0.040	-0.021	0.003	0.008
260.0	-1.055	2.602	16.99	61.36	57.62	45.41	242.0	 1061	 1166	175.0	6.504	2.398	1.619	1.393	0.922	0.785	0.720	0.621	0.498	0.547	0.506	0.469	0.508	0.515	0.417	0.453	0.536	0.346	0.430	0.324	0.377	0.283	0.365	0.242	0.263	0.314	0.218	0.235	0.171	0.204	0.239	0.264	0.270	0.263	0.273	0.217	0.206	0.224	0.171	0.152	0.232	0.294	0.416	0.376	0.278	0.326	0.422	1.037	2.804	6.350	9.710	7.998	3.149	0.467	0.030	0.078	0.035	-0.015	-0.018	0.048	-0.031	-0.002	-0.017	0.026	-0.013	0.004	-0.029
265.0	1.246	5.708	6.795	40.37	85.34	46.70	64.82	417.2	 1328	 1121	131.2	3.590	2.004	1.874	1.322	0.924	0.789	0.619	0.821	0.599	0.668	0.424	0.407	0.521	0.459	0.370	0.538	0.411	0.375	0.374	0.337	0.431	0.403	0.252	0.245	0.292	0.215	0.237	0.161	0.164	0.127	0.248	0.326	0.240	0.286	0.230	0.254	0.243	0.196	0.177	0.196	0.204	0.363	0.561	0.422	0.266	0.169	0.325	0.740	1.929	5.211	9.807	11.18	7.494	2.053	0.165	0.008	0.004	-0.001	0.012	0.022	0.017	-0.001	-0.018	-0.024	-0.035	-0.018
270.0	24.95	20.30	13.33	15.97	52.22	94.96	69.42	114.2	468.2	 1155	 1288	478.7	28.60	2.101	1.560	1.007	1.124	0.861	0.704	0.656	0.619	0.448	0.468	0.549	0.499	0.380	0.509	0.437	0.438	0.405	0.409	0.387	0.299	0.308	0.352	0.280	0.313	0.272	0.227	0.185	0.266	0.213	0.262	0.347	0.350	0.292	0.341	0.286	0.223	0.186	0.190	0.178	0.227	0.270	0.433	0.558	0.576	0.426	0.303	0.498	1.306	3.021	5.459	8.856	10.54	9.480	5.845	1.782	0.184	0.014	0.033	0.042	0.000	0.032	-0.008	-0.006	-0.004
275.0	74.36	63.67	40.99	17.00	19.18	58.50	132.0	106.5	138.6	332.7	970.4	 1675	679.0	24.15	2.135	1.464	1.245	0.986	0.875	0.679	0.688	0.698	0.498	0.585	0.503	0.511	0.511	0.417	0.572	0.382	0.382	0.422	0.396	0.457	0.475	0.389	0.425	0.303	0.278	0.295	0.282	0.338	0.248	0.391	0.421	0.390	0.412	0.425	0.245	0.233	0.202	0.130	0.148	0.126	0.215	0.328	0.532	0.916	0.833	0.430	0.523	0.788	1.380	2.234	3.448	7.045	13.04	14.26	8.076	1.903	0.062	0.036	0.019	-0.020	0.003	0.048	-0.003
280.0	127.7	113.9	72.03	27.65	16.51	33.99	114.5	170.8	123.0	141.9	364.3	 1282	 1687	132.6	10.63	2.003	1.590	1.274	1.119	0.837	0.721	0.747	0.720	0.574	0.681	0.420	0.583	0.546	0.603	0.375	0.372	0.420	0.434	0.517	0.599	0.507	0.509	0.382	0.356	0.377	0.291	0.371	0.371	0.340	0.430	0.502	0.548	0.522	0.435	0.327	0.349	0.188	0.211	0.243	0.211	0.226	0.288	0.669	0.924	0.951	0.650	0.518	0.669	0.784	1.081	2.155	5.273	10.99	16.45	13.80	6.137	0.650	0.036	0.017	0.067	0.025	-0.041
285.0	191.6	178.5	113.0	46.52	28.54	34.33	78.11	188.7	221.3	169.2	224.5	546.3	 1473	 1465	101.3	4.212	1.807	1.583	1.393	1.051	0.921	0.835	0.839	0.772	0.717	0.549	0.529	0.643	0.526	0.386	0.514	0.399	0.461	0.603	0.701	0.758	0.702	0.566	0.530	0.590	0.406	0.428	0.435	0.476	0.573	0.655	0.650	0.754	0.497	0.567	0.397	0.280	0.212	0.212	0.239	0.212	0.284	0.352	0.613	0.954	1.117	1.139	0.783	0.796	0.844	1.115	1.790	3.516	7.886	14.61	18.77	11.29	2.768	0.162	0.046	0.017	-0.013
290.0	280.2	261.3	179.6	84.97	45.86	52.38	84.21	166.1	292.4	341.3	328.2	380.8	635.9	 1166	 1116	396.0	24.80	2.308	1.993	1.404	1.122	0.981	0.873	0.713	0.811	0.611	0.650	0.608	0.709	0.443	0.542	0.494	0.479	0.671	0.870	0.985	1.014	0.734	0.702	0.678	0.578	0.605	0.630	0.657	0.686	0.825	0.752	0.901	0.796	0.665	0.523	0.417	0.343	0.273	0.294	0.271	0.328	0.402	0.564	0.703	1.023	1.520	1.677	1.737	1.433	1.460	1.556	1.889	2.788	4.812	8.518	11.39	13.59	11.99	6.753	1.811	0.117
295.0	336.5	321.5	240.1	127.4	75.94	74.41	108.3	177.2	299.0	469.6	575.1	490.8	437.3	439.1	753.8	 1661	614.9	26.49	2.491	1.835	1.467	1.418	0.987	1.014	0.981	0.851	0.815	0.743	0.695	0.631	0.626	0.436	0.564	0.785	0.901	1.127	1.075	1.038	0.812	0.771	0.660	0.724	0.726	0.715	0.854	0.905	0.871	1.006	0.907	0.833	0.723	0.532	0.415	0.375	0.363	0.359	0.507	0.498	0.754	0.678	1.067	1.367	1.746	2.267	2.710	2.563	2.099	2.141	2.128	2.331	2.857	3.256	4.422	8.330	15.50	18.10	8.650
300.0	361.2	338.6	266.0	151.2	90.46	89.77	132.8	203.4	307.1	494.3	679.2	639.8	451.9	289.9	286.0	 1139	 2193	478.9	10.86	2.434	2.140	1.511	1.333	1.126	0.941	0.772	0.763	0.624	0.718	0.752	0.614	0.579	0.572	0.858	0.989	1.249	1.112	1.031	0.857	0.872	0.735	0.746	0.798	0.867	0.911	0.897	0.842	0.906	1.034	0.823	0.740	0.635	0.480	0.464	0.415	0.432	0.498	0.542	0.758	0.840	1.128	1.355	1.650	2.174	2.717	3.197	3.248	2.695	2.330	2.006	1.833	1.448	1.479	2.351	6.126	13.21	18.93
305.0	373.3	356.9	271.6	158.5	96.89	102.5	149.4	221.7	325.9	485.2	662.7	740.4	521.2	284.5	152.7	407.7	 1605	 2365	70.33	4.792	2.743	1.849	1.451	1.334	1.017	1.108	0.943	0.816	0.680	0.800	0.682	0.555	0.603	0.789	1.123	1.188	1.230	1.066	1.011	0.836	0.778	0.808	0.820	0.791	0.918	1.059	0.857	0.961	0.906	0.779	0.759	0.789	0.506	0.540	0.446	0.503	0.619	0.626	0.761	1.015	1.276	1.388	1.840	2.042	2.522	2.917	3.566	3.649	2.793	2.103	1.502	1.184	0.815	0.789	1.618	3.889	9.387
310.0	360.9	337.7	257.2	159.0	104.9	114.0	158.0	232.9	341.7	481.3	609.8	699.1	629.5	355.7	151.2	145.0	500.3	 1518	 2103	963.1	20.87	2.802	2.055	1.618	1.248	1.234	1.078	1.037	0.866	0.813	0.768	0.693	0.639	0.844	1.044	1.259	1.138	1.194	1.026	0.843	0.815	0.785	0.786	0.784	0.831	0.986	0.886	0.939	0.866	0.728	0.709	0.678	0.563	0.560	0.517	0.510	0.592	0.726	0.825	1.064	1.312	1.474	1.907	2.200	2.462	2.765	3.007	3.259	3.337	2.810	2.118	1.382	0.939	0.634	0.669	1.092	2.413
315.0	353.5	312.0	237.2	152.5	113.8	125.3	176.1	249.3	360.8	498.5	598.2	644.9	616.2	492.8	228.9	114.2	161.7	390.6	 1020	 2721	478.7	23.14	3.048	2.077	1.885	1.375	1.326	1.148	0.976	0.914	0.818	0.922	0.658	0.693	0.892	1.206	1.220	0.998	0.932	0.877	0.855	0.800	0.700	0.795	0.839	0.908	0.916	0.922	0.837	0.699	0.593	0.620	0.576	0.593	0.474	0.537	0.719	0.842	0.942	1.243	1.349	1.678	1.964	2.348	2.529	2.741	2.688	2.909	2.938	2.746	2.872	1.949	1.342	0.840	0.656	0.593	0.840
320.0	372.8	374.8	283.0	163.4	128.8	140.8	198.2	280.9	401.9	532.9	628.7	673.2	618.8	530.2	361.4	158.6	108.1	133.4	304.9	 1473	 2867	398.8	11.04	2.877	2.259	1.725	1.540	1.324	1.159	1.082	0.990	0.947	0.732	0.907	1.108	1.170	0.989	0.925	0.916	0.875	0.829	0.760	0.762	0.997	0.873	1.142	0.907	1.126	0.996	0.831	0.618	0.568	0.602	0.601	0.548	0.575	0.817	0.963	1.086	1.336	1.495	1.888	2.088	2.389	2.807	2.806	2.921	2.767	2.792	2.722	2.735	2.476	2.234	1.374	1.010	0.648	0.635
325.0	439.4	467.1	372.7	194.6	143.2	168.8	230.4	326.6	443.4	586.2	688.2	733.0	665.9	545.0	449.9	263.3	126.6	94.84	111.2	446.9	 1938	 2879	55.96	5.521	2.758	1.971	1.574	1.479	1.293	1.211	1.082	0.949	0.723	0.873	1.067	1.065	1.027	0.905	0.975	0.827	0.879	0.882	0.872	1.077	1.032	1.154	1.187	1.323	1.181	1.027	0.816	0.676	0.629	0.658	0.729	0.744	0.912	1.080	1.323	1.456	1.732	2.046	2.245	2.579	2.843	3.106	3.228	3.031	3.052	2.899	2.691	2.335	2.488	2.310	1.538	0.886	0.704
330.0	495.6	534.7	414.2	231.1	169.1	194.8	270.1	374.6	498.9	641.5	750.3	794.5	733.2	588.9	457.2	355.9	220.8	115.2	85.51	140.8	549.2	 1757	 2588	 1170	19.03	3.007	2.192	1.849	1.550	1.425	1.117	1.131	0.983	0.904	1.026	1.049	0.973	0.931	0.969	0.882	0.922	0.851	0.885	1.122	1.116	1.225	1.317	1.496	1.427	1.092	0.859	0.759	0.675	0.745	0.779	0.836	1.004	1.150	1.374	1.739	2.014	2.260	2.482	2.767	2.993	3.366	3.291	3.336	3.332	3.154	2.894	2.624	2.381	2.213	2.097	1.711	1.368
335.0	540.2	592.9	456.3	257.1	199.0	225.9	312.2	420.7	556.3	709.3	821.4	867.3	807.5	669.3	498.5	356.3	312.5	191.9	102.1	86.17	160.9	432.4	 1140	 3526	 1714	23.44	3.175	2.531	2.123	1.733	1.450	1.296	0.988	1.125	1.050	1.183	0.968	0.962	0.899	0.895	0.912	0.843	1.000	1.119	1.177	1.349	1.502	1.735	1.589	1.228	0.939	0.843	0.840	0.689	0.853	0.854	1.117	1.208	1.535	1.721	2.187	2.444	2.915	3.110	3.302	3.453	3.743	3.749	3.585	3.326	3.274	3.044	2.749	2.301	1.977	1.652	1.836
340.0	571.4	620.5	478.9	275.2	225.9	257.8	343.7	454.7	594.7	749.7	869.7	906.2	858.5	712.2	534.4	360.8	302.0	271.9	142.8	88.59	84.49	130.7	308.5	 1808	 4015	368.1	13.31	3.392	2.801	1.900	1.567	1.437	1.117	1.052	1.133	1.166	1.088	0.953	0.871	0.887	0.875	0.950	0.986	1.136	1.183	1.409	1.484	1.914	1.702	1.317	0.941	0.971	0.864	1.007	0.842	0.916	1.129	1.553	1.687	1.922	2.521	2.675	3.049	3.339	3.387	3.646	3.823	3.830	3.919	3.664	3.300	3.040	2.905	2.224	2.048	1.714	1.698
345.0	565.8	597.1	485.9	293.3	238.9	278.6	363.4	469.5	608.2	770.9	878.0	923.9	877.1	740.7	558.5	378.5	277.7	278.5	212.0	108.3	75.83	73.98	99.38	500.9	 2595	 3082	298.3	6.268	3.222	2.463	1.891	1.614	1.237	1.300	1.233	1.239	1.148	0.961	0.875	0.901	0.894	1.058	0.974	1.066	1.148	1.303	1.380	1.750	1.706	1.453	1.034	0.952	0.913	0.939	0.931	1.154	1.195	1.570	1.756	1.945	2.433	2.554	3.005	3.475	3.494	3.733	3.759	3.927	4.130	3.868	3.639	3.326	3.128	2.536	2.073	1.822	1.619
350.0	529.8	553.8	452.8	291.7	258.8	300.7	379.0	482.6	621.6	775.2	878.1	923.7	873.4	747.4	574.6	394.5	282.7	242.2	244.4	185.1	105.8	79.42	67.78	146.4	688.4	 2101	 3029	 1232	19.66	3.491	2.410	2.070	1.418	1.348	1.255	1.296	1.024	0.970	0.942	0.964	0.936	0.923	0.964	1.144	1.158	1.302	1.371	1.614	1.490	1.145	1.018	0.910	0.973	0.975	0.965	1.113	1.345	1.616	1.758	2.152	2.408	2.690	2.989	3.351	3.564	3.579	3.760	3.785	3.945	3.735	3.391	3.485	3.110	2.673	2.084	1.770	1.659
355.0	502.2	517.2	417.3	294.2	282.2	327.0	393.4	494.1	623.8	765.7	862.7	909.4	864.7	746.2	583.9	409.3	301.6	244.4	217.6	234.0	186.6	109.4	82.32	82.93	190.7	503.9	 1303	 4080	 1965	26.03	3.486	2.668	1.928	1.420	1.369	1.306	1.082	0.985	1.004	1.031	0.945	0.949	0.954	1.037	1.217	1.332	1.279	1.453	1.498	1.078	0.901	1.007	1.012	1.068	1.160	1.127	1.459	1.752	1.763	2.048	2.470	2.772	2.996	3.415	3.572	3.505	3.749	3.629	3.982	3.542	3.578	3.378	3.089	2.781	2.256	2.080	1.756
360.0	474.5	475.7	391.8	301.4	284.9	336.6	408.7	502.5	623.8	751.8	844.0	885.3	842.7	739.2	584.2	413.7	317.4	256.6	221.5	219.9	239.4	157.6	104.7	86.35	89.87	147.2	337.8	 2039	 4799	365.1	15.29	3.159	2.282	1.732	1.589	1.394	1.067	1.039	1.095	1.006	0.953	0.964	0.970	0.967	1.107	1.325	1.243	1.354	1.355	0.994	0.979	1.046	1.054	1.101	1.123	1.151	1.694	1.649	1.852	2.109	2.280	2.672	2.985	3.224	3.423	3.430	3.702	3.682	3.728	3.620	3.528	3.132	3.143	2.714	2.164	2.016	1.732
365.0	448.4	441.4	369.4	296.2	298.6	343.4	420.0	501.9	619.0	741.2	815.1	859.2	819.0	723.8	578.3	417.9	332.6	273.2	239.6	217.5	239.6	227.1	139.2	103.0	83.88	77.86	107.5	537.8	 3054	 4445	300.8	6.798	2.837	2.245	1.751	1.628	1.225	1.302	1.035	0.991	0.870	0.929	0.995	1.070	1.082	1.180	1.240	1.346	1.187	0.924	0.973	1.029	0.976	1.117	1.211	1.289	1.575	1.586	1.862	2.106	2.414	2.646	2.891	2.977	3.160	3.486	3.551	3.559	3.718	3.584	3.415	3.163	2.948	2.614	2.270	2.117	1.587
370.0	408.0	411.8	344.4	299.6	312.7	360.3	427.3	509.2	611.5	716.5	788.7	819.1	778.2	701.7	570.3	429.8	348.5	299.9	266.5	241.2	231.7	248.3	218.9	145.6	105.7	81.47	69.42	150.5	787.4	 2672	 3220	 1202	18.03	2.890	2.190	1.813	1.362	1.317	1.067	0.991	0.994	0.938	0.900	0.937	1.015	1.167	1.123	1.229	1.136	0.971	0.886	1.018	1.065	1.150	1.160	1.280	1.526	1.662	1.804	2.094	2.227	2.602	2.725	3.010	3.223	3.209	3.257	3.443	3.491	3.340	3.223	3.227	2.947	2.598	2.351	2.134	1.890
375.0	392.4	386.5	323.2	296.3	323.1	374.1	442.7	519.5	595.4	694.6	754.0	784.6	743.3	674.8	560.5	439.2	366.0	326.1	298.3	274.8	252.7	242.5	253.6	223.0	143.4	104.0	78.03	77.40	205.3	622.8	 1417	 4449	 1798	22.40	3.042	2.255	1.812	1.451	1.232	1.046	1.011	0.982	0.991	0.994	0.968	1.084	1.066	1.101	1.081	0.965	0.856	1.025	1.012	1.243	1.416	1.367	1.664	1.816	1.920	2.051	2.282	2.552	2.840	3.026	3.246	3.130	3.202	3.317	3.130	3.077	3.134	3.040	2.994	2.670	2.426	2.280	2.193
380.0	373.0	364.5	314.6	295.1	331.3	397.0	457.1	522.3	588.6	668.9	719.5	743.5	714.2	654.5	555.7	440.8	382.0	347.7	322.8	297.4	273.4	256.7	246.7	259.0	193.8	125.1	91.39	72.27	84.09	165.3	354.3	 2226	 4485	310.0	13.27	2.869	2.016	1.542	1.313	1.210	1.173	1.046	0.962	1.051	0.984	1.080	1.025	1.185	1.054	0.972	0.890	1.002	1.105	1.232	1.270	1.600	1.689	1.753	2.210	2.062	2.315	2.465	2.656	2.889	2.886	3.003	3.049	3.072	3.063	3.186	3.042	3.022	2.847	2.659	2.407	2.367	2.230
385.0	364.4	349.9	300.5	301.6	343.2	401.7	459.0	513.9	574.7	646.3	687.1	715.1	682.9	640.9	548.8	446.1	396.6	361.3	338.4	318.7	292.6	275.5	252.9	255.9	240.5	158.8	108.4	82.80	68.38	72.25	104.6	576.4	 2879	 3723	249.4	5.964	2.375	1.826	1.622	1.347	1.366	1.061	1.041	1.075	0.917	1.115	0.997	1.154	1.015	0.827	0.819	1.030	1.038	1.257	1.350	1.490	1.725	1.901	2.214	2.166	2.238	2.426	2.733	2.746	2.875	2.963	2.820	2.836	2.981	3.146	2.876	3.005	2.720	2.497	2.405	2.275	2.346
390.0	344.2	321.1	301.1	300.0	353.0	410.7	468.2	518.4	572.7	620.9	651.3	671.6	654.4	612.9	540.6	455.9	412.4	378.9	357.0	337.3	316.3	295.1	271.9	252.5	244.5	217.0	150.2	105.6	82.34	67.34	60.86	156.2	738.2	 2229	 2701	996.2	15.38	2.440	1.923	1.603	1.414	1.216	1.106	1.041	1.041	1.100	1.000	1.081	1.000	0.948	0.923	1.087	1.181	1.249	1.416	1.551	1.864	1.882	2.105	2.078	2.248	2.392	2.554	2.626	2.726	2.821	2.846	2.852	2.914	2.868	2.933	2.926	2.855	2.664	2.667	2.347	2.345
395.0	332.1	313.0	301.9	297.9	354.1	415.5	465.4	516.5	558.2	593.3	621.1	632.0	616.1	587.5	524.5	456.1	418.6	396.5	374.8	351.9	330.5	312.0	289.2	265.2	238.9	230.8	211.5	142.4	104.0	84.41	67.95	74.74	192.9	520.6	 1209	 4141	 1510	19.51	2.613	2.015	1.570	1.268	1.295	1.123	1.070	1.172	1.046	1.076	0.929	0.963	0.925	1.058	1.257	1.384	1.521	1.637	1.904	2.091	2.030	2.228	2.338	2.194	2.529	2.530	2.518	2.546	2.678	2.515	2.769	2.922	2.735	2.970	2.793	2.558	2.642	2.407	2.442
400.0	322.6	306.6	297.0	308.4	353.3	422.7	472.0	516.4	551.9	583.8	598.3	602.5	595.8	567.9	510.9	449.8	421.6	399.2	379.8	360.5	339.1	322.3	300.0	276.1	245.7	222.2	226.0	182.0	125.0	99.78	78.42	66.31	77.92	140.8	300.9	 2142	 3702	267.6	11.32	2.540	1.801	1.401	1.307	1.217	1.084	1.176	0.963	1.042	0.943	0.900	0.872	1.262	1.184	1.368	1.556	1.700	1.854	1.944	2.134	2.341	2.320	2.260	2.309	2.442	2.308	2.379	2.539	2.650	2.531	2.912	2.800	2.696	2.770	2.564	2.787	2.603	2.315
405.0	313.5	306.3	285.0	296.7	357.5	428.5	473.0	505.7	537.4	563.2	575.6	582.6	567.7	542.5	499.3	444.7	420.7	398.3	379.5	360.3	341.7	325.9	306.0	281.1	253.8	224.7	214.4	211.2	155.3	114.8	90.91	71.50	59.99	61.81	88.15	550.1	 2306	 3053	217.1	5.041	1.980	1.567	1.358	1.304	1.167	1.114	0.954	1.020	0.971	0.904	0.946	1.148	1.218	1.241	1.499	1.591	1.708	2.070	2.179	2.208	2.282	2.394	2.184	2.367	2.369	2.280	2.487	2.558	2.565	2.594	2.695	2.579	2.619	2.451	2.510	2.418	2.518
410.0	288.2	281.1	267.7	295.5	353.3	412.5	467.1	493.0	514.1	532.7	543.3	546.7	538.0	512.0	476.0	430.3	407.7	390.1	371.6	355.3	337.9	325.4	307.8	285.5	261.1	233.1	210.9	205.5	196.4	146.8	110.2	85.32	66.45	53.01	47.80	141.5	584.2	 1840	 2255	834.4	13.42	2.175	1.633	1.283	1.245	1.156	0.977	1.015	0.919	0.910	0.905	1.110	1.215	1.393	1.414	1.537	1.732	2.123	2.053	2.151	2.153	2.200	2.307	2.214	2.280	2.287	2.357	2.357	2.366	2.346	2.478	2.568	2.521	2.440	2.399	2.374	2.335
415.0	265.6	259.0	272.4	289.0	346.7	401.2	457.9	484.2	496.7	510.6	514.7	516.0	502.0	481.5	445.1	414.7	390.4	373.4	358.5	345.1	329.9	318.3	303.4	287.0	264.3	240.0	218.3	199.5	200.2	187.2	138.8	102.0	78.66	59.76	46.39	56.55	148.1	425.7	 1015	 2794	 1189	17.09	2.337	1.437	1.315	1.193	0.941	0.982	0.850	0.931	1.011	1.151	1.155	1.277	1.419	1.633	1.796	2.030	2.148	2.096	2.100	2.255	2.104	2.240	2.207	2.117	2.216	2.259	2.145	2.189	2.204	2.298	2.364	2.272	2.226	2.163	2.469
420.0	259.4	245.2	248.8	289.8	337.1	398.3	443.6	474.7	484.6	484.5	492.3	491.4	474.4	452.4	425.4	390.4	376.5	361.7	346.0	333.2	317.4	310.8	297.6	281.9	264.6	241.5	222.1	202.9	193.1	195.5	166.8	116.4	90.14	67.76	51.70	42.37	54.22	110.2	248.5	 1421	 2847	243.7	10.09	1.987	1.408	1.241	1.150	1.027	0.977	0.941	1.016	1.039	1.126	1.356	1.620	1.558	1.744	1.869	1.903	2.055	2.244	2.303	2.085	2.184	2.003	1.998	1.941	2.019	2.090	2.215	2.175	2.201	2.207	2.363	2.141	2.182	2.415
425.0	246.4	246.6	245.6	275.3	331.3	390.6	435.4	461.8	468.5	472.8	471.7	465.6	453.1	427.5	406.0	377.2	363.2	350.4	335.8	323.3	311.9	300.6	289.8	276.0	262.2	244.6	224.5	205.8	192.6	185.4	184.6	138.0	98.51	75.28	57.62	44.45	38.10	42.79	68.99	365.2	 1844	 1989	199.2	3.541	1.816	1.437	1.127	1.014	0.973	0.832	0.927	1.078	1.102	1.364	1.399	1.508	1.760	1.794	2.020	2.090	2.033	2.203	2.099	2.310	2.015	2.042	2.124	2.014	1.970	2.167	2.102	2.158	2.244	2.328	1.974	1.987	2.347
430.0	232.2	232.0	230.4	270.2	317.0	373.5	424.3	439.9	456.6	456.8	453.1	441.9	426.8	405.5	377.4	355.2	339.9	330.1	317.0	305.5	298.1	286.5	280.9	270.8	256.9	241.0	225.7	208.6	196.7	180.7	176.2	162.4	120.4	87.18	66.90	52.20	40.91	33.49	32.80	94.47	474.0	 1373	 1865	690.0	11.85	1.791	1.291	1.218	1.056	0.845	0.871	1.059	1.128	1.318	1.359	1.494	1.750	1.847	1.890	1.988	1.979	1.954	1.927	2.092	1.874	1.924	1.979	1.912	1.904	1.936	2.005	2.061	1.997	2.007	1.903	2.009	2.044
435.0	231.3	217.5	224.7	255.2	304.6	364.6	407.7	430.8	440.9	439.9	426.1	416.4	399.4	375.2	349.2	328.9	321.4	310.6	298.6	288.8	283.6	274.5	266.7	261.3	251.3	235.4	223.7	210.3	200.7	183.7	172.0	159.3	146.5	105.2	77.09	61.08	48.19	37.53	30.03	38.01	117.8	318.3	826.5	 2293	963.5	14.02	1.766	1.367	1.178	0.956	0.913	1.098	1.148	1.351	1.474	1.529	1.623	1.844	1.738	1.951	2.004	1.863	1.919	1.933	1.880	1.951	1.795	1.960	1.825	1.912	1.815	1.898	1.778	1.878	1.738	1.832	1.915
440.0	262.8	211.7	213.5	250.3	298.6	353.3	396.1	417.7	427.2	430.3	415.0	397.0	380.6	356.1	336.7	314.2	303.7	295.0	282.8	276.1	270.0	262.7	257.9	252.5	243.4	231.3	220.9	211.3	202.7	186.5	170.2	153.5	148.6	124.1	87.03	68.01	54.44	41.58	33.48	28.52	41.32	81.94	203.6	 1273	 2341	210.1	5.784	1.718	1.275	0.978	0.994	1.159	1.113	1.342	1.449	1.537	1.749	1.806	1.854	1.793	1.954	1.923	1.879	1.781	1.765	1.826	1.766	1.848	1.758	1.758	1.769	1.779	1.860	1.739	1.868	1.711	1.824
445.0	286.4	204.0	215.0	244.0	279.9	342.4	382.4	407.3	418.6	408.8	405.2	385.8	361.7	336.6	316.1	296.0	290.9	280.9	269.1	262.9	255.3	250.5	247.7	242.2	234.9	227.1	217.4	208.3	203.5	187.3	170.4	153.4	141.5	134.4	100.4	73.62	58.32	46.43	37.66	29.35	26.54	31.12	55.09	337.3	 1666	 1689	26.74	2.892	1.456	1.063	0.962	1.089	1.025	1.258	1.379	1.471	1.654	1.723	1.731	1.722	1.934	1.820	1.873	1.744	1.812	1.739	1.704	1.744	1.703	1.657	1.587	1.719	1.623	1.736	1.750	1.808	1.619
450.0	267.3	230.3	197.2	228.1	274.6	326.4	366.3	390.8	395.9	390.8	377.3	357.7	336.0	315.2	294.0	274.3	266.0	256.9	247.4	241.0	234.5	233.2	230.9	226.7	222.4	215.0	209.4	201.2	197.9	184.6	170.5	151.9	135.1	126.9	114.5	87.07	65.72	52.41	42.61	34.51	27.51	23.49	25.02	84.62	433.2	 1208	 1466	501.4	9.126	1.371	1.135	1.153	1.179	1.258	1.295	1.367	1.621	1.645	1.744	1.660	1.733	1.799	1.872	1.720	1.719	1.698	1.596	1.643	1.578	1.525	1.557	1.445	1.564	1.638	1.527	1.603	1.566
455.0	184.7	269.1	202.8	209.6	262.5	309.8	345.0	372.1	371.4	370.1	349.1	327.6	303.4	284.3	268.2	249.1	239.7	231.7	225.7	218.5	213.6	211.5	210.6	210.2	206.2	201.0	195.7	188.9	186.2	177.3	166.7	151.4	133.3	117.2	109.0	102.0	76.32	58.39	47.08	39.11	31.56	25.09	20.29	29.92	104.9	278.9	676.2	 1654	193.7	9.869	1.420	1.164	1.263	1.224	1.304	1.427	1.518	1.532	1.627	1.674	1.650	1.699	1.654	1.702	1.664	1.561	1.441	1.557	1.524	1.427	1.474	1.433	1.387	1.427	1.446	1.447	1.356
460.0	145.1	254.8	220.7	196.0	248.9	287.2	330.2	348.6	358.2	355.1	337.4	307.0	284.8	260.9	244.0	228.8	222.9	214.2	207.4	204.5	198.0	196.6	196.6	196.2	193.5	190.6	186.4	181.7	178.0	172.3	162.2	148.0	132.0	114.8	102.3	100.5	87.58	63.29	50.56	41.73	33.42	27.89	21.03	19.05	32.73	69.14	165.2	927.3	 1525	155.4	4.685	1.450	1.373	1.269	1.341	1.347	1.478	1.418	1.657	1.606	1.681	1.607	1.589	1.571	1.535	1.518	1.486	1.471	1.480	1.243	1.319	1.218	1.257	1.236	1.398	1.341	1.352
465.0	130.7	211.1	249.4	198.1	232.6	278.6	311.1	326.8	342.2	330.7	315.8	289.9	261.4	245.0	226.1	209.8	205.1	197.8	192.0	187.2	184.1	184.0	180.8	185.1	180.0	179.2	177.5	172.1	170.1	165.2	156.8	144.5	128.5	113.3	98.88	93.62	91.22	69.50	53.33	44.31	36.47	29.09	22.96	17.97	17.54	22.89	42.48	244.8	 1193	 1214	21.42	2.494	1.609	1.276	1.330	1.318	1.494	1.433	1.700	1.478	1.504	1.605	1.413	1.467	1.527	1.328	1.320	1.354	1.228	1.069	1.212	1.232	1.193	1.279	1.123	1.167	1.146
470.0	120.4	148.0	239.0	240.0	211.5	252.8	286.0	305.2	311.5	302.1	284.3	262.9	239.6	219.8	203.9	187.7	181.9	177.5	171.5	167.8	166.3	164.5	163.7	165.8	164.5	162.2	160.5	158.0	157.2	153.2	145.6	135.6	121.3	108.1	94.65	85.16	82.40	74.74	58.83	46.02	38.13	30.52	24.31	19.29	15.02	13.09	15.81	59.35	314.9	869.3	 1018	369.6	10.08	1.705	1.358	1.264	1.345	1.397	1.533	1.469	1.397	1.392	1.392	1.387	1.416	1.210	1.203	1.157	1.102	1.122	1.089	1.104	1.074	1.016	1.047	1.055	1.038
475.0	107.4	117.4	180.0	288.2	221.5	227.0	262.5	279.8	282.0	273.0	254.0	233.3	212.3	196.2	179.2	167.7	161.3	154.8	150.0	148.9	146.3	144.7	145.6	146.7	147.1	146.8	143.2	144.0	143.8	138.9	136.2	125.4	114.1	101.5	90.14	81.40	73.99	69.48	65.50	49.52	38.95	31.65	25.31	20.27	15.90	12.50	10.59	18.67	74.27	199.3	462.0	 1154	196.2	10.26	1.412	1.300	1.325	1.350	1.394	1.384	1.404	1.274	1.319	1.220	1.121	1.216	1.101	1.076	1.027	1.001	1.012	0.908	0.986	0.986	0.993	0.832	1.061
480.0	101.5	109.8	140.2	281.6	261.6	212.0	237.5	265.6	265.4	253.5	240.3	218.7	195.7	181.3	166.7	154.0	144.6	143.4	138.9	135.6	134.2	132.4	133.0	135.0	135.4	133.4	133.1	132.6	133.7	130.0	126.8	118.2	107.3	96.17	85.64	76.98	68.79	63.44	64.20	53.85	39.75	32.08	25.60	20.47	15.96	12.43	9.850	10.02	20.90	47.95	112.6	622.8	 1255	175.2	5.299	1.417	1.279	1.411	1.354	1.366	1.342	1.244	1.221	1.168	1.146	1.177	1.042	1.020	0.982	0.896	0.927	0.924	0.994	0.919	0.828	0.843	0.951
485.0	101.1	98.99	125.6	213.5	330.4	219.4	233.6	248.2	248.5	232.0	222.7	202.3	182.3	169.4	154.0	141.9	134.1	130.2	128.8	125.9	124.1	121.3	123.6	125.3	125.8	125.0	122.8	123.6	126.3	122.3	118.7	110.9	101.2	92.08	82.41	74.39	66.28	59.01	57.69	56.22	42.37	32.84	26.35	21.00	16.87	13.18	10.02	8.600	9.546	14.76	28.61	162.2	907.6	 1348	26.25	2.280	1.418	1.407	1.335	1.263	1.253	1.120	1.173	1.164	1.182	1.062	0.940	0.921	0.785	0.878	0.792	0.855	0.981	0.871	0.792	0.823	0.900
490.0	87.89	102.8	113.0	148.1	332.2	310.0	210.7	223.6	229.7	219.9	198.5	183.3	166.6	151.4	137.2	126.7	120.3	116.5	113.6	112.0	109.3	110.5	111.3	112.2	113.3	112.4	112.4	111.2	113.7	112.0	108.9	102.3	94.54	85.90	77.13	69.83	62.69	55.75	51.47	50.05	46.07	35.23	26.74	21.44	17.31	13.92	11.16	8.995	7.650	7.888	10.38	39.55	233.7	885.2	898.2	301.1	8.602	1.576	1.208	1.217	1.259	1.174	1.136	1.086	1.030	1.021	0.913	0.840	0.763	0.777	0.710	0.678	0.849	0.798	0.679	0.698	0.768
495.0	78.86	98.00	102.0	111.8	215.5	444.5	252.1	198.5	207.7	198.7	177.6	165.8	148.9	134.5	120.7	108.7	104.3	101.6	101.0	98.68	96.47	96.37	97.06	99.27	98.79	99.70	99.94	99.59	101.3	100.1	98.67	93.17	86.23	77.43	70.78	63.50	58.21	53.25	46.45	42.81	42.53	38.64	28.58	21.67	18.02	14.28	12.13	9.700	8.028	7.061	6.679	12.61	55.40	202.8	439.5	 1006	199.9	9.302	1.442	1.267	1.189	1.133	0.925	1.000	0.878	0.962	0.778	0.691	0.729	0.673	0.734	0.670	0.795	0.622	0.645	0.585	0.666
500.0	69.73	80.40	95.03	99.60	144.1	411.2	366.1	190.4	188.5	182.5	160.8	154.2	134.1	122.3	110.7	101.4	95.71	92.06	90.35	89.03	88.02	87.35	87.82	89.38	90.89	90.60	90.52	91.16	91.63	91.02	90.35	84.67	79.07	72.66	65.13	59.91	53.79	49.55	44.83	39.30	36.96	36.86	31.42	22.06	17.43	15.11	12.73	10.30	8.806	7.448	6.230	6.969	15.89	48.66	108.2	557.3	996.7	165.7	3.843	1.266	1.143	0.957	0.921	0.886	0.801	0.845	0.702	0.740	0.678	0.652	0.642	0.587	0.601	0.539	0.521	0.593	0.570
505.0	69.13	75.77	91.38	93.98	112.6	291.0	492.3	211.2	174.4	168.4	150.6	137.4	122.8	112.2	100.1	91.20	86.34	82.91	81.86	78.80	79.42	79.10	78.66	81.32	81.09	81.21	81.85	83.35	83.38	83.60	83.19	77.23	72.49	66.88	60.98	55.48	49.95	45.70	41.30	37.13	33.68	32.88	32.09	23.68	17.91	14.85	12.72	10.66	9.183	7.750	6.822	6.012	7.505	14.55	27.41	146.0	740.3	885.1	27.28	1.865	1.215	1.037	0.967	0.889	0.731	0.791	0.730	0.679	0.694	0.589	0.670	0.536	0.545	0.458	0.526	0.471	0.561
510.0	59.90	62.60	80.35	87.11	98.98	165.2	437.2	369.6	165.2	148.8	135.9	122.7	107.9	97.71	86.18	79.98	74.01	72.23	70.64	70.34	68.83	68.27	69.53	70.23	70.70	70.62	70.76	71.85	71.79	73.59	71.90	67.79	63.93	58.29	54.07	49.52	45.25	41.31	37.06	33.90	30.32	28.01	27.88	24.94	19.31	14.76	12.54	10.77	9.421	7.944	7.398	6.224	5.868	7.050	9.397	35.49	192.4	572.9	696.3	120.1	8.220	1.097	0.904	0.798	0.721	0.700	0.632	0.603	0.601	0.493	0.564	0.479	0.500	0.503	0.447	0.475	0.475
515.0	52.20	55.46	67.13	81.75	85.74	112.7	234.7	498.5	232.6	127.1	115.1	107.9	92.97	84.14	74.34	68.95	62.95	60.34	59.82	59.65	57.85	58.14	59.41	60.70	60.63	60.15	61.47	61.67	60.93	64.05	61.26	58.59	55.20	49.92	47.24	42.49	39.44	36.56	33.13	30.03	26.44	24.33	22.34	22.51	21.65	15.76	12.66	10.61	9.250	8.028	7.432	6.463	5.722	5.361	5.301	10.65	45.21	131.0	314.3	768.7	197.2	8.170	0.977	0.794	0.699	0.696	0.587	0.549	0.533	0.495	0.269	0.409	0.431	0.443	0.349	0.425	0.399
520.0	43.97	48.19	55.97	73.18	82.65	96.68	137.7	419.8	377.2	122.6	105.0	98.02	85.18	73.20	67.30	60.84	55.90	53.76	53.95	51.20	51.97	51.49	52.13	53.77	53.61	54.85	54.11	54.28	54.97	56.55	54.89	52.44	49.61	45.37	42.67	38.43	36.19	33.18	30.13	27.27	24.52	22.16	19.84	19.51	20.80	16.90	12.50	10.45	8.929	7.790	6.957	6.434	5.571	5.059	4.337	5.295	12.48	31.04	76.02	427.4	752.4	151.9	2.694	0.828	0.613	0.644	0.576	0.555	0.456	0.375	0.343	0.384	0.379	0.384	0.356	0.318	0.360
525.0	33.78	38.59	49.55	64.21	74.75	82.69	101.8	263.4	496.0	162.2	97.25	85.51	76.88	68.28	59.45	54.68	52.60	49.58	47.92	45.79	46.12	45.36	46.49	47.74	48.16	48.47	48.92	48.23	49.78	50.12	49.66	47.12	44.95	41.11	38.19	34.90	32.56	30.20	27.82	24.98	22.56	20.42	18.00	16.85	17.66	17.72	12.93	10.16	8.737	7.753	6.821	6.165	5.543	4.796	4.215	3.876	5.187	8.744	18.50	109.5	527.9	709.0	26.61	1.235	0.650	0.563	0.497	0.440	0.406	0.442	0.407	0.344	0.388	0.357	0.316	0.252	0.314
530.0	31.87	35.84	38.75	51.50	71.27	73.17	82.58	135.3	386.1	328.0	98.72	75.09	66.75	58.84	52.15	46.85	43.40	42.33	40.73	40.32	39.36	39.15	39.78	40.53	41.06	41.97	41.63	41.52	41.97	42.69	42.72	40.87	39.24	35.15	33.06	30.57	28.39	26.29	24.56	22.55	20.07	17.90	16.44	14.64	14.27	15.12	14.08	10.61	8.318	7.275	6.510	5.723	5.101	4.422	3.868	3.396	3.291	3.661	5.566	25.68	134.3	455.6	552.7	117.5	6.774	0.640	0.531	0.412	0.407	0.368	0.361	0.306	0.324	0.294	0.244	0.285	0.257
535.0	30.73	32.01	32.80	40.53	56.86	71.48	69.95	88.31	184.4	423.7	199.1	65.92	56.26	48.50	43.80	41.22	36.14	36.59	34.35	34.71	33.63	34.56	33.70	34.89	34.56	35.54	35.14	34.95	35.67	36.24	36.46	34.96	32.38	30.16	29.01	26.41	24.33	22.81	21.33	19.37	17.63	15.62	15.08	12.87	12.19	11.52	12.74	11.73	8.626	7.003	5.929	5.431	4.618	4.053	3.810	3.388	2.561	2.431	2.484	6.897	30.98	103.3	240.9	562.4	181.8	6.032	0.519	0.493	0.391	0.321	0.373	0.303	0.229	0.135	0.273	0.243	0.193
540.0	26.77	27.59	27.78	34.75	48.99	69.74	62.38	70.81	98.72	320.4	352.2	71.27	50.70	42.82	39.03	35.04	32.24	31.77	29.17	30.25	29.81	30.06	30.52	30.98	30.56	31.07	30.88	31.08	31.44	31.96	32.65	31.20	28.54	27.01	25.13	23.20	21.72	20.19	19.02	17.50	15.58	14.14	13.25	11.89	10.68	9.821	10.64	11.50	9.282	6.857	5.668	5.283	4.358	3.951	3.612	3.305	2.499	2.057	1.883	2.792	7.988	23.96	57.38	294.8	545.3	29.69	2.240	0.513	0.353	0.400	0.314	0.244	0.213	0.137	0.255	0.255	0.239
545.0	21.47	22.87	27.08	31.95	42.95	63.36	60.34	63.48	72.95	181.0	415.2	133.9	46.24	39.52	34.64	32.13	29.31	28.10	27.53	27.03	26.38	27.26	26.10	26.71	27.52	27.14	28.03	28.12	29.00	29.03	28.92	27.92	25.81	24.10	22.12	21.29	19.69	18.12	17.07	15.43	14.34	12.70	12.20	10.78	9.899	9.243	8.886	10.04	9.787	7.044	5.399	4.799	4.005	3.641	3.229	3.045	2.591	1.968	1.737	1.771	2.762	6.182	13.65	74.51	363.2	447.9	25.81	0.776	0.340	0.306	0.277	0.271	0.175	0.213	0.129	0.209	0.115
550.0	21.38	22.46	24.32	26.21	32.54	49.04	62.59	57.05	59.16	86.79	271.9	291.6	61.24	34.43	30.11	26.62	24.43	23.86	23.23	23.18	22.11	22.61	22.64	23.47	23.19	23.08	23.97	23.88	24.27	24.25	24.41	23.29	21.77	20.27	18.92	18.25	16.63	15.44	14.59	13.66	12.36	11.34	10.42	9.377	8.810	7.957	7.337	7.513	8.448	7.516	5.549	4.379	3.728	3.276	2.897	2.531	2.357	2.050	1.742	1.414	1.639	2.163	3.725	17.26	91.37	275.5	294.2	112.2	6.279	0.401	0.297	0.281	0.208	0.165	0.163	0.160	0.134
555.0	21.79	20.66	19.72	22.80	25.19	37.08	54.95	55.57	52.15	57.04	115.1	303.8	153.1	30.13	25.04	21.50	21.13	19.95	18.71	19.07	18.66	18.36	19.02	19.44	18.77	19.02	18.92	19.75	20.00	20.24	19.97	19.34	18.44	16.96	15.32	15.00	14.26	13.25	12.24	11.34	10.67	9.671	8.813	7.863	7.401	6.798	6.282	5.765	5.978	6.713	6.201	4.560	3.384	3.093	2.623	2.279	1.992	1.879	1.760	1.330	1.151	1.115	1.546	4.444	20.93	62.35	128.2	380.3	163.7	4.905	0.284	0.255	0.171	0.099	0.147	0.125	0.118
560.0	22.50	22.21	20.97	18.05	22.99	28.94	43.69	56.37	49.44	48.14	59.47	203.8	273.1	40.61	21.67	19.02	18.14	16.75	16.47	16.57	16.03	16.00	15.70	16.47	16.82	16.21	16.18	16.75	16.60	17.18	17.03	16.22	15.60	14.60	13.15	13.01	12.57	11.38	10.67	9.740	9.052	8.321	7.531	7.082	6.513	5.726	5.619	5.084	4.915	5.338	5.825	4.622	3.225	2.667	2.292	1.991	1.853	1.710	1.572	1.262	1.038	0.929	0.992	1.543	5.149	14.39	30.36	185.3	374.9	30.28	1.569	0.225	0.100	0.148	0.158	0.088	0.111
565.0	22.07	23.83	20.39	19.55	20.78	23.19	37.15	54.81	47.18	42.32	43.07	105.8	287.5	106.4	18.14	16.55	15.46	14.32	14.61	13.55	13.73	13.18	13.74	14.19	14.18	13.44	14.41	14.12	14.04	14.53	14.33	14.09	12.92	12.21	11.35	10.83	10.50	9.695	8.971	8.018	7.772	7.405	6.655	6.180	5.517	5.067	4.846	4.310	4.121	3.984	4.981	4.487	3.154	2.357	1.943	1.918	1.524	1.436	1.278	1.194	0.889	0.892	0.767	0.885	1.584	3.664	7.233	45.57	227.8	240.7	24.91	0.643	0.198	0.183	0.103	0.099	0.117
570.0	29.16	24.68	23.12	15.40	17.51	20.04	26.49	42.92	50.25	40.16	40.00	54.06	170.3	220.4	39.80	13.31	11.81	11.84	11.61	11.08	10.76	10.78	10.93	11.00	11.24	10.92	11.33	11.21	11.11	11.63	11.38	10.94	10.22	9.470	8.963	8.417	8.073	7.629	7.287	6.634	6.309	5.653	5.245	4.927	4.640	4.297	4.033	3.642	3.346	3.075	3.391	3.696	3.115	2.426	1.780	1.619	1.372	1.226	1.150	1.033	0.858	0.814	0.683	0.691	0.705	1.235	2.041	10.52	55.78	154.7	212.6	89.53	4.694	0.181	0.149	0.073	0.089
575.0	33.47	26.12	20.45	13.47	13.65	17.09	21.32	31.77	48.24	43.57	38.53	40.96	69.47	192.8	116.0	11.78	9.371	8.914	9.026	8.172	8.091	8.237	8.495	8.575	8.485	8.425	8.701	8.735	8.786	8.958	8.514	8.562	7.652	7.324	6.775	6.503	6.410	5.881	5.398	4.921	4.672	4.491	4.362	3.867	3.589	3.333	3.145	2.803	2.572	2.317	2.210	2.406	2.562	2.456	1.706	1.263	1.135	1.011	0.935	0.748	0.853	0.702	0.663	0.570	0.581	0.757	0.781	2.690	12.73	34.95	79.58	223.6	104.1	3.114	0.114	0.128	0.070
580.0	30.71	29.01	20.26	14.22	12.14	14.32	19.62	24.89	43.52	48.45	40.72	39.93	38.42	117.3	209.1	29.21	7.736	7.667	7.232	6.859	6.515	6.692	6.816	6.977	6.731	6.973	6.976	7.210	7.180	7.420	6.925	6.855	6.276	5.899	5.746	5.169	5.146	4.985	4.493	4.091	4.039	3.723	3.385	3.059	2.869	2.664	2.578	2.275	2.102	2.026	1.895	1.734	2.069	2.295	1.633	1.186	1.001	0.769	0.857	0.697	0.637	0.632	0.619	0.557	0.468	0.585	0.547	0.937	3.136	8.084	18.61	102.5	211.5	28.60	0.824	0.092	0.098
585.0	26.25	26.73	19.36	14.04	10.07	13.59	18.60	22.55	37.02	52.06	42.21	38.77	32.10	56.99	198.4	87.98	7.222	6.494	6.110	5.792	5.437	5.732	5.622	5.892	5.542	5.612	5.875	5.829	5.749	5.974	5.917	5.631	5.447	5.176	4.936	4.485	4.247	3.940	3.731	3.241	3.011	2.989	2.925	2.445	2.362	2.239	2.174	2.013	1.809	1.617	1.496	1.444	1.526	2.014	1.706	1.252	0.913	0.712	0.733	0.547	0.627	0.543	0.594	0.643	0.590	0.581	0.509	0.476	0.969	2.071	4.408	25.06	120.4	164.5	21.40	0.255	0.104
590.0	23.50	26.49	19.93	13.01	10.90	11.46	15.68	19.98	30.61	48.54	48.35	38.99	31.66	28.37	101.9	170.8	37.20	5.550	4.912	4.533	4.496	4.539	4.407	4.609	4.416	4.522	4.678	4.619	4.542	4.695	4.443	4.604	4.272	4.049	3.807	3.609	3.382	3.323	2.948	2.638	2.583	2.420	2.302	2.159	1.994	1.862	1.682	1.677	1.476	1.364	1.219	1.196	1.030	1.334	1.438	1.328	0.889	0.668	0.635	0.539	0.486	0.488	0.493	0.620	0.536	0.433	0.377	0.372	0.465	0.659	1.191	5.827	29.30	86.47	119.5	50.31	2.695
595.0	24.34	24.69	17.93	11.52	9.622	8.975	13.42	18.87	27.34	41.75	52.19	42.66	30.51	21.24	34.39	126.0	155.5	6.123	3.999	3.569	3.703	3.639	3.358	3.626	3.413	3.578	3.548	3.402	3.545	3.574	3.557	3.526	3.259	2.923	2.875	2.676	2.501	2.624	2.283	2.307	1.950	1.885	1.824	1.727	1.564	1.555	1.388	1.383	1.170	1.173	0.965	0.849	0.697	0.918	0.991	1.229	0.982	0.604	0.493	0.520	0.442	0.484	0.456	0.483	0.480	0.443	0.400	0.307	0.261	0.389	0.407	1.431	6.646	19.44	42.36	118.1	31.19
600.0	28.31	24.30	17.75	9.979	8.893	8.770	12.47	18.11	24.56	35.00	51.02	44.72	30.45	20.06	14.85	64.34	216.9	32.18	3.703	3.175	3.209	2.974	2.722	3.067	2.951	2.939	2.846	2.842	3.091	2.992	2.877	2.810	2.737	2.477	2.418	2.237	2.105	2.226	1.988	2.051	1.612	1.550	1.636	1.308	1.207	1.285	1.170	1.111	1.115	0.855	0.820	0.799	0.633	0.622	0.674	0.918	0.912	0.732	0.408	0.405	0.419	0.419	0.342	0.406	0.442	0.414	0.377	0.295	0.246	0.356	0.222	0.434	1.656	4.429	9.810	51.50	106.0
605.0	20.47	22.71	16.75	10.22	8.680	9.590	12.67	18.25	22.53	32.41	47.12	47.31	30.19	19.03	10.51	25.19	181.9	81.17	3.394	2.895	2.800	2.515	2.561	2.465	2.565	2.289	2.288	2.654	2.558	2.561	2.519	2.364	2.337	2.229	2.241	1.958	1.778	1.843	1.646	1.471	1.507	1.267	1.182	1.176	0.990	1.084	0.944	0.869	0.885	0.817	0.758	0.720	0.565	0.491	0.534	0.651	0.778	0.818	0.484	0.288	0.327	0.336	0.299	0.354	0.336	0.378	0.430	0.304	0.304	0.278	0.210	0.222	0.508	1.056	2.253	12.46	61.39
610.0	19.93	21.36	15.77	8.868	7.001	8.588	10.85	16.17	21.29	30.36	39.36	46.85	32.19	18.28	8.954	9.588	82.29	182.0	34.76	2.194	2.132	2.014	2.246	2.144	2.138	2.001	1.946	2.136	2.048	2.094	2.111	1.938	1.955	1.826	1.880	1.669	1.482	1.404	1.377	1.170	1.129	1.027	1.006	0.885	0.870	0.891	0.835	0.711	0.639	0.643	0.604	0.515	0.411	0.429	0.415	0.460	0.538	0.651	0.613	0.337	0.269	0.378	0.297	0.315	0.343	0.283	0.375	0.352	0.259	0.184	0.168	0.149	0.203	0.309	0.578	2.865	14.80
615.0	15.97	19.72	14.07	8.596	5.313	7.492	10.29	15.48	19.54	27.51	33.82	40.39	35.73	17.19	8.572	5.930	23.64	120.8	154.7	4.587	1.809	1.633	1.749	1.742	1.757	1.609	1.466	1.470	1.600	1.573	1.559	1.608	1.497	1.381	1.339	1.313	1.231	1.286	1.072	0.847	0.862	0.906	0.793	0.689	0.690	0.725	0.691	0.647	0.532	0.516	0.448	0.461	0.344	0.348	0.330	0.354	0.302	0.486	0.570	0.435	0.252	0.272	0.217	0.268	0.302	0.284	0.257	0.260	0.261	0.171	0.154	0.156	0.115	0.141	0.149	0.637	3.300
620.0	15.91	16.01	16.14	7.340	6.177	7.509	9.409	13.57	19.18	24.72	30.02	36.45	33.77	18.33	9.553	4.853	7.553	56.75	201.7	35.18	1.555	1.417	1.346	1.397	1.445	1.349	1.212	1.234	1.248	1.284	1.268	1.438	1.229	1.110	1.148	1.145	1.052	1.023	0.938	0.731	0.812	0.662	0.622	0.665	0.588	0.639	0.517	0.495	0.485	0.448	0.351	0.358	0.337	0.284	0.322	0.271	0.237	0.328	0.428	0.424	0.279	0.233	0.208	0.252	0.228	0.166	0.243	0.202	0.366	0.192	0.173	0.160	0.035	0.092	0.109	0.163	0.797
625.0	14.28	15.59	11.15	6.121	4.231	7.492	9.245	11.10	17.45	21.52	27.64	34.89	32.00	20.92	9.710	4.785	4.127	20.87	152.2	117.1	1.742	1.376	1.099	1.288	1.355	1.229	1.205	1.096	1.154	1.341	1.187	1.164	1.202	1.031	0.834	0.855	0.825	0.879	0.867	0.693	0.740	0.561	0.578	0.560	0.525	0.593	0.446	0.462	0.368	0.308	0.333	0.334	0.276	0.222	0.182	0.272	0.271	0.237	0.375	0.368	0.292	0.198	0.177	0.261	0.251	0.164	0.195	0.176	0.230	0.133	0.152	0.098	0.039	0.037	0.048	0.035	0.178
630.0	13.50	14.79	8.583	5.916	3.663	6.642	7.791	11.87	16.57	21.69	26.81	31.58	27.96	23.38	10.06	5.073	3.573	6.894	61.04	173.8	33.65	1.238	1.026	1.097	1.077	1.136	1.087	1.055	0.784	1.096	0.975	1.023	0.964	0.829	0.791	0.745	0.752	0.750	0.656	0.574	0.560	0.455	0.424	0.412	0.409	0.499	0.368	0.371	0.340	0.310	0.274	0.239	0.283	0.164	0.193	0.202	0.174	0.132	0.223	0.236	0.326	0.288	0.188	0.176	0.157	0.167	0.110	0.130	0.170	0.160	0.120	0.150	0.031	0.052	0.024	0.042	0.025
635.0	15.61	11.92	10.24	8.000	5.759	5.281	8.547	11.59	15.37	19.96	26.59	28.45	25.32	22.78	12.99	5.800	3.554	3.779	16.33	98.60	147.6	3.696	1.033	0.955	0.856	1.014	0.761	0.769	0.740	0.850	0.763	0.915	0.576	0.744	0.678	0.772	0.629	0.533	0.468	0.438	0.468	0.387	0.401	0.389	0.335	0.370	0.271	0.298	0.237	0.245	0.243	0.144	0.210	0.193	0.156	0.176	0.126	0.158	0.133	0.166	0.207	0.280	0.191	0.200	0.155	0.131	0.092	0.148	0.140	0.076	0.088	0.182	0.080	0.021	0.022	0.009	-0.007
640.0	16.40	10.35	9.532	7.228	4.191	6.002	8.231	11.20	15.77	21.22	24.94	27.75	24.44	21.71	16.69	6.658	4.219	3.264	5.574	40.45	183.9	35.16	0.972	1.019	0.809	0.791	0.751	0.737	0.732	0.742	0.688	0.661	0.534	0.626	0.639	0.573	0.565	0.527	0.413	0.412	0.288	0.401	0.332	0.285	0.278	0.300	0.232	0.242	0.245	0.240	0.213	0.168	0.166	0.165	0.125	0.163	0.124	0.137	0.135	0.154	0.174	0.248	0.189	0.222	0.129	0.147	0.087	0.136	0.084	0.154	0.112	0.080	0.111	0.061	0.052	0.008	-0.050
645.0	14.43	17.31	16.18	8.221	4.275	6.207	10.51	12.73	14.71	20.86	24.89	28.01	24.69	20.30	18.54	8.060	4.920	3.559	2.959	13.65	128.7	113.6	1.447	0.696	0.715	0.724	0.673	0.617	0.576	0.672	0.662	0.536	0.580	0.476	0.554	0.497	0.488	0.386	0.379	0.372	0.324	0.328	0.222	0.206	0.238	0.256	0.229	0.224	0.236	0.223	0.160	0.167	0.187	0.164	0.130	0.164	0.113	0.110	0.137	0.197	0.182	0.233	0.213	0.239	0.195	0.127	0.120	0.111	0.168	0.164	0.058	0.054	0.157	0.154	0.069	0.006	-0.002
650.0	14.05	17.98	13.81	5.921	4.668	6.507	9.542	12.72	16.05	20.21	23.32	28.26	25.47	19.80	17.91	10.61	5.483	3.391	2.707	5.005	58.35	174.9	13.80	0.812	0.643	0.629	0.615	0.575	0.523	0.648	0.583	0.612	0.368	0.473	0.551	0.359	0.365	0.327	0.404	0.289	0.268	0.287	0.207	0.265	0.272	0.198	0.262	0.307	0.192	0.165	0.136	0.108	0.132	0.092	0.062	0.107	0.127	0.199	0.033	0.122	0.114	0.171	0.172	0.199	0.226	0.179	0.139	0.102	0.105	0.084	0.088	0.061	0.092	0.129	0.049	0.087	0.018
