Sample:	'1
File name:	S2025080917ÐÂ²©Â·ÇÅ.FD3
Run date:	'14:01:32, 08/10/2025
Operator:	Administrator
Comment:	'

Instrument
Model:	F-2700 FL Spectrophotometer
Serial number:	3064-004
ROM Version:	4J14000 07

Instrument parameters
Measurement type:	3-D scan
Data mode:	Fluorescence
EX  Start WL:	220.0 nm
EX  End WL:	600.0 nm
EX Sampling interval:	5.0 nm
EM  Start WL:	230.0 nm
EM  End WL:	650.0 nm
EM Sampling interval:	5.0 nm
Scan speed:	12000 nm/min
EX Slit:	5.0 nm
EM Slit:	5.0 nm
PMT Voltage:	700 V
Response:	Auto 
Corrected spectra:	Off
Contour interval:	50.000

Peak integration
Integration method:	Rectangular
Sensitivity:	1
Threshold:	1.000

Peaks
No.	ApexEX/EM(nm)	Height(Data)
1	225.0/575.0	67.13
2	225.0/595.0	49.41
3	230.0/340.0	960.4
4	230.0/615.0	44.04
5	230.0/630.0	33.28
6	245.0/530.0	290.4
7	250.0/545.0	260.4
8	255.0/280.0	634.1
9	255.0/555.0	225.5
10	260.0/285.0	817.2
11	260.0/570.0	188.7
12	265.0/290.0	876.7
13	265.0/580.0	181.6
14	270.0/295.0	 1261
15	270.0/380.0	 1668
16	270.0/595.0	141.6
17	275.0/305.0	 1530
18	275.0/605.0	139.3
19	280.0/310.0	 1488
20	280.0/615.0	115.8
21	285.0/315.0	 1464
22	285.0/630.0	92.31
23	290.0/320.0	 1369
24	290.0/640.0	74.85
25	305.0/340.0	990.8
26	315.0/355.0	857.9
27	320.0/360.0	931.7
28	335.0/380.0	 1001
29	340.0/385.0	998.8
30	480.0/365.0	5.533
31	505.0/275.0	2.933
32	510.0/280.0	3.650
33	520.0/285.0	4.022
34	530.0/290.0	3.899
35	540.0/295.0	5.478
36	545.0/300.0	7.477
37	545.0/380.0	6.956
38	550.0/305.0	6.997
39	550.0/385.0	6.965
40	560.0/310.0	6.470
41	565.0/400.0	7.314
42	570.0/315.0	7.261
43	575.0/320.0	6.613
44	580.0/325.0	6.834
45	590.0/330.0	5.661

Data points
	220.0	225.0	230.0	235.0	240.0	245.0	250.0	255.0	260.0	265.0	270.0	275.0	280.0	285.0	290.0	295.0	300.0	305.0	310.0	315.0	320.0	325.0	330.0	335.0	340.0	345.0	350.0	355.0	360.0	365.0	370.0	375.0	380.0	385.0	390.0	395.0	400.0	405.0	410.0	415.0	420.0	425.0	430.0	435.0	440.0	445.0	450.0	455.0	460.0	465.0	470.0	475.0	480.0	485.0	490.0	495.0	500.0	505.0	510.0	515.0	520.0	525.0	530.0	535.0	540.0	545.0	550.0	555.0	560.0	565.0	570.0	575.0	580.0	585.0	590.0	595.0	600.0
230.0	38.12	 2671	9999.9	 6601	281.9	11.44	8.811	6.325	5.573	5.655	4.965	5.704	4.486	3.903	3.533	3.446	2.856	2.555	2.385	1.709	1.665	1.846	1.693	1.378	1.669	1.312	1.411	1.277	1.129	0.990	0.934	0.997	0.885	0.849	1.043	0.880	0.707	0.744	0.671	0.678	0.700	0.709	0.782	0.595	0.618	0.605	1.656	6.291	11.64	9.203	4.211	0.785	0.503	0.396	0.384	0.338	0.355	0.313	0.348	0.286	0.197	0.312	0.285	0.211	0.227	0.232	0.247	0.195	0.198	0.237	0.195	0.171	0.220	0.135	0.118	0.145	0.126
235.0	50.49	667.4	 4825	9999.9	 6459	370.4	11.48	6.533	5.448	5.145	6.108	5.349	3.908	3.496	4.272	3.911	2.775	2.361	2.049	1.879	1.806	2.177	1.828	1.548	1.731	1.371	1.578	0.998	1.202	0.943	1.092	1.115	0.796	0.842	0.895	0.935	1.049	1.176	0.800	0.783	0.504	0.655	0.751	0.749	0.781	0.522	0.813	1.867	4.409	7.554	11.23	11.66	5.545	1.397	0.311	0.402	0.420	0.297	0.347	0.234	0.251	0.290	0.191	0.287	0.223	0.208	0.262	0.083	0.225	0.235	0.235	0.077	0.283	0.138	0.097	0.259	0.131
240.0	80.72	229.5	 1195	 7303	9999.9	 3905	148.9	11.41	6.660	7.086	6.941	6.444	3.883	3.782	3.914	3.450	2.305	3.193	1.784	2.032	1.845	2.175	1.831	1.964	1.642	1.237	1.198	1.242	1.113	0.893	1.158	1.358	0.903	0.812	0.676	0.671	1.080	1.007	0.827	0.810	0.550	0.526	0.618	0.853	0.933	0.958	0.752	0.858	1.403	2.383	5.501	13.83	16.28	11.59	3.994	0.770	0.456	0.345	0.287	0.240	0.147	0.344	0.343	0.254	0.217	0.288	0.213	0.305	0.296	0.121	0.148	0.195	0.203	0.225	0.197	0.254	0.175
245.0	51.69	160.4	357.0	 1972	 9639	 9967	872.9	58.47	8.234	8.112	6.392	6.953	5.126	5.585	3.644	3.433	3.357	2.227	2.079	2.454	1.954	1.868	1.794	2.240	1.289	1.860	1.197	1.271	0.854	1.016	1.306	1.082	0.890	0.827	0.763	0.591	0.878	0.814	0.803	0.763	0.436	0.538	0.496	0.668	0.587	0.759	0.924	0.875	0.838	0.821	1.482	4.477	10.18	18.24	18.50	9.130	2.844	0.481	0.469	0.316	0.289	0.326	0.391	0.157	0.185	0.255	0.226	0.276	0.293	0.101	0.239	0.139	0.200	0.218	0.268	0.201	0.228
250.0	50.44	107.7	225.5	565.8	 2559	 5589	 7451	 3110	269.5	14.73	9.625	7.725	6.357	5.990	4.436	3.618	2.994	3.193	2.634	2.828	2.015	2.028	1.871	1.859	1.693	1.518	1.659	1.329	1.002	1.246	1.244	0.970	0.877	0.712	0.765	0.746	0.762	0.672	0.740	0.737	0.557	0.594	0.648	0.561	0.487	0.672	0.725	0.908	1.137	1.019	0.828	1.494	2.678	5.891	10.32	16.14	19.18	17.34	10.17	3.296	0.539	0.400	0.321	0.247	0.344	0.203	0.241	0.245	0.171	0.193	0.266	0.180	0.183	0.178	0.178	0.256	0.158
255.0	58.63	81.07	122.6	350.8	733.8	 1305	 3238	 8911	 4752	378.6	15.76	9.251	7.571	6.730	5.565	4.832	2.899	3.219	2.684	2.515	1.988	2.149	1.730	1.878	1.568	1.527	1.772	1.291	1.154	1.366	1.169	1.135	1.124	0.719	1.079	0.826	0.574	0.753	0.557	0.813	0.768	0.924	0.651	0.721	0.690	0.563	0.583	0.802	0.833	0.977	1.164	1.606	1.330	1.647	2.739	4.162	7.484	16.77	29.42	31.77	16.29	3.952	0.330	0.358	0.306	0.339	0.251	0.365	0.189	0.231	0.336	0.204	0.139	0.135	0.107	0.195	0.215
260.0	53.85	66.51	72.58	207.0	454.8	391.5	797.7	 4706	9999.9	 4055	249.9	14.28	9.354	7.652	5.960	4.793	3.568	3.054	2.805	3.202	2.012	2.219	1.884	1.992	1.786	1.526	1.738	1.591	1.385	1.603	1.179	1.292	1.406	0.897	0.949	0.826	0.450	0.892	0.729	0.742	0.720	0.788	0.624	0.786	0.724	0.664	0.584	0.572	0.642	0.713	0.901	1.720	1.858	1.439	1.059	1.302	2.077	4.936	12.67	29.32	40.66	32.08	12.71	1.838	0.350	0.310	0.285	0.292	0.127	0.337	0.298	0.216	0.261	0.297	0.185	0.152	0.234
265.0	63.93	73.87	72.77	106.7	314.1	379.1	248.2	 1229	 5621	9999.9	 3270	130.3	13.83	11.81	7.343	5.177	4.081	3.765	3.731	2.644	2.282	1.982	2.391	1.841	1.829	1.754	1.776	1.520	1.716	1.485	1.116	1.473	1.243	1.128	0.979	0.843	0.840	0.735	0.878	0.814	0.759	0.740	0.594	0.644	0.891	0.520	0.690	0.507	0.569	0.600	0.492	0.945	1.645	2.277	1.617	1.009	0.857	1.488	3.243	8.756	21.68	40.64	50.54	29.70	6.931	0.821	0.402	0.291	0.252	0.352	0.159	0.256	0.437	0.296	0.209	0.202	0.197
270.0	98.86	111.2	100.3	94.93	141.1	309.0	397.7	376.0	 1429	 5317	9999.9	 7636	198.5	16.32	9.026	8.213	5.589	4.633	4.267	3.203	3.079	2.401	2.693	2.154	2.219	1.968	2.149	1.496	1.725	1.471	1.406	1.443	1.285	1.015	1.195	0.887	0.877	0.827	0.677	0.732	0.820	0.726	0.679	0.689	0.868	0.658	0.732	0.648	0.783	0.615	0.441	0.632	0.812	1.246	1.595	2.041	1.926	1.240	1.192	2.424	5.446	11.59	23.79	37.10	44.18	42.87	21.62	6.756	0.697	0.432	0.322	0.251	0.365	0.296	0.252	0.151	0.182
275.0	146.6	181.0	159.9	132.6	79.12	122.5	380.7	534.0	423.8	 1267	 3530	9999.9	9999.9	245.7	16.83	10.90	8.174	5.908	5.094	3.684	3.650	2.743	3.054	2.193	2.562	2.000	1.860	1.662	1.828	1.505	1.723	1.566	1.269	0.794	1.066	0.953	1.099	0.805	0.751	0.682	0.857	0.985	0.830	0.949	0.909	0.949	0.932	0.909	0.794	0.715	0.672	0.581	0.547	0.674	0.808	1.132	1.998	2.933	2.315	1.477	1.791	3.137	5.898	9.085	14.11	31.73	65.01	53.73	32.32	5.518	0.529	0.318	0.438	0.339	0.300	0.187	0.170
280.0	198.9	240.5	224.1	159.8	88.35	73.33	193.0	634.1	477.8	406.3	942.9	 4526	9999.9	 2596	151.9	14.27	10.29	6.579	6.862	5.034	4.182	3.088	3.049	2.616	2.136	2.300	2.067	1.893	1.847	1.646	1.793	1.606	1.495	1.375	1.496	1.137	1.011	1.034	0.945	0.938	0.947	0.889	0.835	1.104	1.050	0.956	1.128	1.312	1.085	0.692	0.789	0.665	0.561	0.451	0.612	0.679	1.319	2.253	3.650	3.401	2.121	1.512	2.063	2.643	4.077	8.555	23.59	50.91	86.67	50.16	20.87	1.961	0.518	0.309	0.353	0.229	0.249
285.0	238.4	299.2	264.0	197.5	102.0	75.70	110.1	376.8	817.2	411.8	386.2	 1259	 6205	9999.9	 2002	80.97	12.00	8.512	6.827	5.184	4.077	3.718	3.211	2.261	2.640	2.369	2.010	1.699	1.607	1.570	1.869	1.645	1.476	1.358	1.301	1.551	1.174	1.302	1.376	0.958	1.030	0.924	0.974	1.073	1.138	1.034	1.527	1.425	1.336	0.881	1.095	0.803	0.597	0.843	0.794	0.685	1.133	1.132	1.817	3.539	4.022	2.827	1.600	1.677	1.921	2.732	6.218	14.03	37.89	73.48	89.87	39.58	8.790	0.773	0.358	0.353	0.395
290.0	295.5	386.2	349.4	272.1	139.1	102.3	120.1	212.3	526.9	876.7	593.5	580.1	 1725	 5599	9999.9	 7318	115.2	16.32	9.275	6.888	5.309	4.649	4.203	3.122	2.824	2.530	2.226	1.855	1.797	2.285	1.712	1.669	1.541	1.331	1.396	1.440	1.536	1.568	1.262	1.280	1.180	1.286	1.135	1.232	1.669	1.517	1.486	1.659	1.503	1.283	1.080	0.891	0.801	0.861	0.702	0.689	0.955	1.093	1.057	1.604	2.463	3.441	3.899	3.437	2.430	2.013	2.810	4.529	10.14	20.14	38.24	57.74	57.54	61.34	25.78	7.852	0.754
295.0	328.9	430.6	407.2	336.0	189.9	141.2	161.5	207.1	328.1	652.6	 1261	742.7	777.7	 1529	 3194	9999.9	9999.9	149.1	14.60	10.25	7.309	5.564	4.769	4.171	3.068	3.025	2.396	2.389	2.171	2.033	2.077	1.919	1.679	1.742	1.384	1.365	1.541	1.641	1.376	1.453	1.461	1.355	1.270	1.100	1.637	1.888	1.616	1.832	1.674	1.561	1.151	0.987	1.053	0.962	0.758	0.964	1.128	1.184	1.284	1.397	1.558	2.055	2.987	5.097	5.478	4.088	2.564	2.765	3.928	6.202	9.726	14.11	17.39	40.95	88.70	59.69	37.59
300.0	357.5	439.7	441.7	358.6	220.9	182.0	211.0	251.0	331.5	521.2	 1123	 1343	710.0	715.5	947.9	 3927	9999.9	 7361	103.4	12.62	9.298	6.728	5.396	5.283	3.478	3.321	2.824	2.504	2.123	1.938	2.281	1.724	1.857	1.314	1.212	1.588	1.797	1.485	1.234	1.731	1.246	1.489	1.250	1.461	1.273	1.654	1.485	1.946	1.910	1.377	1.224	1.347	1.227	0.817	0.886	1.070	0.942	1.464	1.329	1.402	1.463	1.883	2.200	3.298	4.651	7.477	5.553	3.068	3.017	3.458	3.644	4.394	4.916	10.72	29.74	67.29	110.8
305.0	373.6	471.1	463.4	371.8	250.7	221.3	239.3	299.9	385.3	530.9	837.0	 1530	 1141	639.7	518.6	 1080	 5416	9999.9	 1268	63.39	10.19	8.649	6.080	5.531	4.241	3.722	2.928	3.124	2.739	2.019	2.138	2.185	1.648	1.455	1.348	1.733	1.845	1.636	1.240	1.440	1.277	1.455	1.445	1.374	1.466	1.770	1.733	1.585	1.667	1.555	1.328	1.300	1.141	1.177	1.104	1.146	1.207	1.691	1.528	1.916	2.008	2.041	2.133	2.948	3.816	4.935	6.997	6.425	4.307	3.230	2.845	2.950	2.557	3.562	7.625	17.75	46.47
310.0	382.2	504.2	488.2	403.7	298.8	255.6	293.8	353.3	438.6	596.7	779.7	 1128	 1488	 1076	545.8	479.1	 1406	 5129	9999.9	 5025	81.31	13.24	8.208	6.785	4.789	4.137	3.260	2.893	2.758	2.409	2.392	2.309	1.998	1.560	1.591	1.755	1.838	1.727	1.424	1.634	1.439	1.491	1.329	1.438	1.639	1.608	1.785	2.014	1.824	1.611	1.358	1.411	1.435	1.340	1.539	1.343	1.457	1.684	1.592	2.150	2.350	2.451	2.456	2.983	3.184	4.003	4.784	6.204	6.470	5.970	4.480	2.998	2.522	2.165	2.973	5.064	11.54
315.0	385.8	529.9	519.3	436.2	323.5	297.7	346.8	397.9	518.1	659.6	817.3	 1011	 1189	 1464	939.5	456.9	534.5	 1286	 3005	9999.9	 7502	108.9	12.45	8.420	5.896	5.060	4.190	3.358	2.945	2.933	2.299	2.530	2.116	1.951	1.420	1.798	1.668	1.926	1.602	1.505	1.315	1.845	1.702	1.624	1.624	1.806	1.870	2.288	1.966	1.685	1.500	1.649	1.428	1.430	1.335	1.686	1.681	1.818	1.823	2.107	2.216	2.634	2.602	3.412	2.960	4.142	4.322	4.614	4.948	6.153	7.261	5.611	3.502	2.493	2.286	2.504	3.878
320.0	386.7	601.3	645.5	489.7	379.8	341.1	361.2	439.8	551.7	705.2	876.3	 1026	 1124	 1272	 1369	633.6	400.5	475.9	803.1	 3832	9999.9	 5885	77.31	11.22	7.615	6.163	4.575	3.995	3.413	2.834	2.351	2.482	1.920	2.008	1.672	1.798	1.724	1.845	1.785	1.750	1.785	1.430	1.862	1.667	1.714	1.957	2.290	2.417	2.091	1.997	1.853	1.844	1.601	1.429	1.715	1.660	1.929	2.006	1.950	2.179	2.291	2.927	2.961	3.500	3.764	4.121	4.429	4.815	4.504	5.095	6.048	6.613	6.386	4.211	2.707	2.056	2.261
325.0	437.6	651.1	734.3	611.0	443.1	378.8	399.3	481.9	598.2	748.9	956.9	 1095	 1162	 1162	 1341	 1032	466.4	353.6	343.2	999.2	 5419	9999.9	938.5	49.07	10.36	6.660	5.391	4.567	4.191	3.038	2.815	2.444	2.091	1.849	1.641	1.795	1.668	1.469	1.793	1.856	1.602	1.643	1.706	1.541	1.612	2.104	2.428	2.704	2.578	2.087	1.946	2.063	1.648	1.737	1.706	1.842	2.031	1.963	2.262	2.337	2.572	2.866	3.102	3.603	4.053	3.994	4.496	4.593	4.707	5.038	4.953	5.496	6.834	6.768	4.874	2.868	2.364
330.0	472.3	686.2	854.3	779.7	555.5	429.4	434.2	513.5	640.9	807.0	 1011	 1172	 1237	 1190	 1127	 1118	842.8	442.7	306.9	389.7	 1376	 5002	9999.9	 3863	63.98	10.73	7.364	6.028	4.389	4.171	3.191	2.680	2.396	1.912	1.699	1.572	1.890	1.711	1.785	1.624	1.631	1.676	1.841	1.904	1.720	2.114	2.657	2.895	3.126	2.628	2.327	2.434	1.891	2.016	2.082	1.869	2.042	2.123	2.275	2.472	2.857	3.175	3.544	3.900	4.038	4.503	4.584	4.865	5.190	5.177	4.850	5.296	5.161	5.350	5.661	5.244	4.385
335.0	493.4	703.1	939.7	884.7	642.4	482.4	493.8	562.5	698.0	864.5	 1045	 1189	 1287	 1263	 1119	947.7	 1007	797.0	404.6	319.6	480.9	 1239	 3108	9999.9	 6051	87.39	10.62	8.204	5.297	4.443	3.867	3.158	2.634	2.138	1.937	1.753	2.054	1.719	1.986	1.484	2.135	1.645	1.609	2.013	1.973	2.544	2.660	3.273	3.121	2.838	2.711	2.847	2.389	2.433	1.821	2.083	2.371	2.284	2.750	2.874	2.658	3.334	3.585	3.828	4.186	4.648	4.561	5.052	5.459	5.654	4.987	5.045	4.983	4.670	5.007	5.009	5.997
340.0	497.6	723.4	960.4	934.7	719.8	615.6	557.7	622.9	732.1	888.3	 1065	 1208	 1298	 1303	 1145	947.0	878.5	990.8	610.0	351.8	325.8	437.4	816.9	 4146	9999.9	 4772	63.47	11.10	7.759	4.815	4.330	4.011	3.154	2.206	2.352	1.818	1.962	1.793	1.879	1.597	1.811	1.808	1.861	2.005	2.068	2.604	2.956	3.135	3.537	3.248	2.929	2.984	2.718	2.673	2.261	2.373	2.383	2.502	3.002	2.904	3.486	3.614	3.907	3.860	4.267	4.804	4.956	5.038	5.199	5.345	5.185	5.446	5.233	4.868	4.584	4.631	4.756
345.0	489.2	752.8	927.1	955.7	810.7	695.9	627.6	684.6	773.5	932.5	 1092	 1234	 1334	 1298	 1180	976.8	834.8	900.8	869.3	471.7	339.7	302.6	336.4	 1072	 5768	9999.9	775.3	42.04	8.407	5.999	4.714	4.228	3.341	2.501	2.385	2.102	1.962	1.644	1.805	1.654	1.642	1.866	1.787	1.831	2.305	2.534	3.183	3.089	3.565	3.043	2.971	3.426	3.173	3.251	2.652	2.763	2.482	2.818	3.406	3.332	3.421	4.044	3.613	4.191	4.252	4.861	5.131	5.541	5.029	5.490	5.600	5.393	5.335	5.202	4.779	4.450	4.660
350.0	475.6	732.7	914.8	969.5	909.8	817.0	768.0	812.8	904.1	 1023	 1153	 1282	 1341	 1319	 1218	 1043	881.9	815.7	859.7	783.7	490.7	358.2	305.5	412.9	 1479	 5302	 9676	 3262	54.46	10.16	6.772	5.148	3.488	3.182	2.633	2.144	2.316	2.033	2.025	1.955	1.755	1.919	1.920	2.070	2.236	2.471	2.715	3.021	3.465	3.216	2.910	3.443	3.471	3.206	2.871	3.086	3.073	3.127	3.506	3.831	3.918	4.153	4.343	4.507	4.658	4.959	5.089	5.650	5.248	5.810	5.559	5.535	5.633	5.379	5.125	5.252	4.908
355.0	468.5	671.4	925.7	994.0	 1005	969.9	938.9	959.3	 1081	 1198	 1264	 1362	 1384	 1372	 1272	 1127	977.3	876.0	803.6	857.9	808.7	505.9	385.3	344.9	519.4	 1317	 3275	9999.9	 5157	75.46	10.16	6.993	4.736	3.697	2.335	2.234	2.544	2.236	2.140	1.831	1.716	1.757	1.634	2.218	2.318	2.858	3.142	3.229	3.392	3.039	3.174	3.470	4.369	3.655	3.018	3.607	3.608	3.448	3.702	4.018	4.492	4.462	4.536	5.024	4.464	5.552	5.290	5.864	5.966	5.863	6.078	5.755	5.850	5.594	6.003	5.133	5.029
360.0	465.8	662.6	853.9	 1028	 1045	 1041	 1069	 1104	 1218	 1319	 1372	 1407	 1397	 1411	 1321	 1182	 1060	929.2	845.4	813.2	931.7	720.9	479.4	388.0	358.0	466.1	868.6	 4478	9999.9	 4026	50.89	9.291	5.877	4.465	3.310	2.267	2.542	2.269	2.053	1.904	1.994	2.328	1.911	1.979	2.240	2.715	2.671	3.158	3.250	3.116	3.114	3.993	5.068	3.695	3.828	3.860	4.186	4.447	4.386	4.211	5.189	5.162	5.751	5.668	4.939	5.095	5.236	6.051	6.304	6.330	5.770	6.178	6.304	6.053	5.821	5.233	5.556
365.0	473.2	653.1	842.6	 1039	 1079	 1105	 1166	 1198	 1311	 1410	 1449	 1456	 1440	 1432	 1356	 1218	 1107	999.7	909.4	838.5	888.1	906.6	626.9	463.1	377.4	329.9	353.0	 1164	 6248	9999.9	685.3	32.19	7.546	5.256	3.653	2.932	2.743	1.984	2.203	2.109	2.024	2.111	1.912	2.095	2.513	2.377	2.544	3.368	3.231	3.485	2.927	4.132	5.533	4.229	4.030	4.532	4.829	4.277	4.508	4.632	5.379	5.628	5.650	5.628	5.704	5.875	5.484	6.064	6.255	6.969	5.652	5.906	6.287	5.555	6.145	6.006	5.898
370.0	468.5	646.2	831.9	 1060	 1148	 1191	 1249	 1320	 1428	 1517	 1546	 1535	 1513	 1457	 1385	 1271	 1165	 1069	994.3	923.0	890.5	920.7	886.4	637.6	481.7	385.0	307.2	419.2	 1602	 5661	 9486	 2878	45.75	8.102	5.274	3.794	3.009	2.554	2.355	2.172	2.214	1.996	2.156	1.992	2.307	2.376	2.584	2.988	2.929	3.313	3.390	4.090	5.461	4.471	4.464	4.674	5.081	4.903	5.004	5.192	5.632	5.859	5.762	5.689	6.325	5.766	5.893	6.422	6.137	6.214	6.088	6.318	6.924	6.112	6.584	6.363	6.588
375.0	447.5	658.8	836.1	 1057	 1181	 1245	 1335	 1400	 1494	 1605	 1637	 1606	 1574	 1483	 1410	 1289	 1217	 1144	 1077	 1027	972.9	926.0	955.3	914.8	658.2	504.5	389.7	327.9	515.2	 1373	 3547	9999.9	 4234	57.00	9.185	5.316	4.126	3.497	3.129	2.418	2.278	2.241	2.067	2.413	2.243	2.458	2.774	3.087	3.113	3.183	3.245	4.409	4.434	4.521	4.951	5.068	5.193	5.009	5.389	5.200	6.344	5.753	6.416	6.437	6.415	6.485	6.211	6.413	6.442	6.316	5.968	6.595	7.124	6.331	6.923	6.630	7.415
380.0	448.4	671.4	837.4	 1055	 1215	 1286	 1361	 1460	 1551	 1649	 1668	 1649	 1599	 1492	 1419	 1327	 1251	 1194	 1126	 1087	 1027	976.0	960.5	 1001	861.8	614.3	469.9	362.2	322.3	443.5	913.5	 5137	9999.9	 3101	37.67	6.987	5.311	4.009	3.118	2.705	2.636	2.433	2.095	2.151	2.312	2.855	2.798	2.814	3.046	3.541	3.304	4.157	4.431	4.443	5.083	4.734	5.697	5.104	5.582	5.609	6.408	6.036	6.569	6.238	6.317	6.956	6.432	6.725	6.548	6.722	5.779	6.573	6.986	6.299	6.592	6.879	6.602
385.0	456.8	626.7	842.3	 1077	 1199	 1339	 1384	 1524	 1570	 1648	 1661	 1658	 1616	 1517	 1432	 1330	 1262	 1216	 1175	 1120	 1081	 1028	976.6	961.0	998.8	746.9	554.6	420.7	324.6	278.3	330.0	 1326	 6354	9999.9	531.8	20.68	6.534	4.526	3.714	3.122	2.617	2.667	2.890	2.411	2.360	2.523	2.925	2.725	3.061	3.156	3.253	4.065	4.970	4.846	5.138	5.026	4.784	5.353	5.722	5.951	6.033	5.922	6.024	6.391	6.835	6.896	6.965	6.464	6.953	6.736	6.162	6.810	6.215	5.878	6.390	6.425	6.608
390.0	455.2	621.2	846.0	 1045	 1224	 1332	 1414	 1492	 1564	 1640	 1642	 1650	 1612	 1503	 1414	 1328	 1279	 1231	 1198	 1172	 1129	 1086	 1025	971.0	980.6	926.1	698.3	516.0	398.0	305.2	247.5	416.5	 1631	 5507	 7630	 2161	34.52	7.461	4.970	3.827	3.120	2.967	2.795	2.347	2.132	2.833	2.853	3.086	3.110	3.101	3.426	4.065	4.774	4.534	5.007	5.155	5.386	5.521	5.731	6.103	5.837	5.782	6.220	6.321	6.435	6.874	6.296	6.512	6.933	6.568	6.200	6.445	6.493	6.521	6.627	6.908	6.708
395.0	459.6	634.2	795.9	 1060	 1207	 1342	 1415	 1496	 1538	 1612	 1646	 1601	 1595	 1488	 1392	 1319	 1269	 1239	 1222	 1183	 1158	 1131	 1075	 1016	964.4	941.0	892.8	646.1	486.0	379.1	289.5	264.3	478.7	 1312	 3059	 8535	 3284	44.53	7.880	4.835	3.880	3.301	3.008	2.334	2.449	2.614	3.122	3.059	3.229	2.925	3.480	4.095	4.537	4.650	4.653	5.287	5.483	5.965	5.565	6.550	5.852	5.810	6.065	6.304	6.251	5.972	6.102	6.320	6.627	6.801	6.208	6.475	6.771	6.513	7.040	7.308	6.582
400.0	453.4	601.1	791.2	 1004	 1187	 1295	 1389	 1504	 1542	 1594	 1622	 1599	 1542	 1475	 1377	 1305	 1264	 1237	 1208	 1192	 1167	 1147	 1094	 1033	987.1	924.8	934.9	790.2	555.1	437.2	337.7	262.2	251.4	392.1	778.6	 4275	 8809	 2346	29.69	6.738	4.449	3.359	3.031	2.641	2.925	2.766	3.015	2.696	3.182	3.386	3.263	4.250	4.481	4.601	4.671	4.835	5.813	6.156	5.722	6.271	6.040	6.358	6.115	6.809	6.459	6.860	6.119	6.778	6.817	7.314	6.443	5.814	6.484	6.556	6.789	7.074	7.421
405.0	436.7	624.0	779.0	998.9	 1182	 1262	 1403	 1487	 1529	 1569	 1586	 1559	 1507	 1444	 1357	 1287	 1245	 1216	 1206	 1181	 1174	 1142	 1094	 1052	 1008	931.3	893.7	869.3	658.6	497.7	390.0	297.9	228.6	207.8	257.3	 1108	 5533	 7748	438.0	14.66	5.319	4.108	3.321	3.020	2.708	2.747	3.122	2.658	2.919	3.065	2.899	3.927	4.407	4.569	5.008	4.617	5.535	5.766	5.654	5.950	5.908	6.277	5.992	6.386	6.087	6.091	6.226	6.522	6.231	6.545	6.499	6.115	6.178	6.070	6.510	6.787	6.912
410.0	414.7	607.2	736.2	946.5	 1142	 1234	 1340	 1439	 1507	 1544	 1544	 1539	 1459	 1398	 1317	 1252	 1207	 1195	 1177	 1164	 1139	 1123	 1095	 1061	 1014	948.3	878.8	845.0	787.8	610.0	457.7	359.6	268.9	208.4	169.3	325.4	 1417	 4421	 4932	 1731	29.46	6.323	4.241	3.289	3.319	3.068	2.941	3.090	2.963	3.067	3.100	3.963	4.241	4.471	4.675	4.935	5.370	5.184	5.386	5.770	5.745	5.670	5.738	6.007	5.737	6.080	6.283	6.200	6.112	6.266	5.991	5.871	5.714	6.061	6.083	6.901	6.829
415.0	415.2	565.9	745.6	919.8	 1093	 1214	 1300	 1396	 1487	 1498	 1500	 1472	 1431	 1355	 1280	 1220	 1152	 1155	 1130	 1116	 1118	 1090	 1072	 1050	 1009	963.8	887.4	821.1	781.1	742.8	564.4	414.2	319.5	241.1	180.4	174.5	385.0	 1038	 2267	 6680	 2708	39.19	5.451	4.497	3.814	3.256	2.905	3.193	3.131	3.059	3.292	3.702	4.185	4.407	4.543	4.773	5.314	5.041	5.368	5.874	5.783	6.249	5.694	6.238	5.490	5.899	5.943	5.896	6.114	6.364	5.900	5.560	5.368	6.168	6.353	6.151	6.172
420.0	426.1	569.4	705.2	901.8	 1057	 1172	 1280	 1365	 1441	 1500	 1476	 1447	 1360	 1296	 1240	 1175	 1126	 1116	 1096	 1089	 1085	 1072	 1045	 1025	 1005	952.2	893.4	823.2	752.6	758.3	650.7	459.8	356.5	270.4	202.0	159.5	169.0	288.9	572.7	 3436	 6837	464.5	24.19	5.572	4.355	3.898	2.839	3.206	2.764	2.958	3.624	3.775	4.025	4.369	4.353	4.462	5.105	5.097	5.591	5.471	5.658	5.981	5.849	5.592	5.643	5.793	6.047	6.078	5.700	5.619	6.059	5.608	5.628	5.265	6.174	6.150	6.009
425.0	420.2	513.7	679.0	882.7	 1049	 1128	 1271	 1343	 1394	 1443	 1446	 1416	 1341	 1266	 1178	 1126	 1070	 1071	 1070	 1057	 1051	 1042	 1009	 1005	976.5	939.6	894.0	831.3	758.5	721.2	700.6	532.9	389.0	300.3	226.3	170.5	138.0	134.4	177.6	892.4	 4375	 5627	396.9	11.51	5.455	4.457	3.541	2.958	2.990	2.789	3.268	3.813	3.873	4.647	4.289	4.518	5.011	4.906	5.503	5.436	5.347	5.255	5.350	5.735	5.281	5.464	5.928	5.670	5.568	5.268	5.661	5.603	5.888	5.831	5.968	5.507	5.226
430.0	 1122	514.3	666.0	856.7	998.0	 1094	 1219	 1305	 1383	 1400	 1416	 1379	 1297	 1224	 1144	 1092	 1031	 1014	 1004	 1002	997.5	985.5	976.9	969.2	940.2	925.8	881.1	835.9	771.9	716.4	670.7	615.2	466.2	340.3	260.3	199.7	154.7	120.6	104.5	245.3	 1119	 3351	 4075	 1516	27.41	5.983	4.227	3.790	3.343	3.009	3.101	3.546	3.647	4.114	4.481	4.324	4.745	5.018	5.299	5.658	5.515	5.414	5.378	5.251	5.415	5.414	5.445	5.371	5.562	5.199	5.658	5.176	5.751	5.381	5.328	5.288	5.624
435.0	 3152	620.8	642.2	800.2	954.1	 1047	 1174	 1255	 1344	 1359	 1377	 1349	 1257	 1163	 1080	 1018	981.3	956.2	952.3	955.7	939.8	931.6	923.3	929.5	908.0	896.5	868.9	818.0	777.7	719.3	659.2	604.1	541.0	405.1	294.1	229.2	177.6	138.2	104.7	114.9	294.1	783.9	 1807	 5457	 2418	35.41	5.348	4.559	3.855	3.394	3.142	3.265	3.798	3.935	4.339	4.477	4.632	4.997	5.137	5.652	5.406	5.540	5.225	5.261	5.246	5.199	5.010	5.290	5.543	4.680	5.326	4.746	5.208	5.408	5.089	5.277	5.226
440.0	 4290	 1448	634.1	783.2	891.0	 1024	 1125	 1242	 1303	 1356	 1347	 1296	 1220	 1133	 1056	989.6	940.2	916.8	913.4	914.0	902.5	900.1	887.8	889.5	876.7	865.7	845.3	808.5	773.4	722.5	658.8	579.9	551.4	465.4	324.9	251.6	196.6	155.8	117.6	94.37	118.0	213.3	450.8	 2750	 5850	 1744	22.26	5.617	4.681	3.811	4.594	3.512	3.711	4.271	3.859	4.144	4.759	4.948	5.187	5.052	5.196	5.356	5.208	5.518	5.444	5.178	4.939	5.009	4.905	4.623	5.550	4.850	5.205	5.598	4.971	4.865	4.958
445.0	 3688	 3594	659.9	769.8	889.5	 1002	 1109	 1216	 1265	 1308	 1302	 1274	 1176	 1092	 1032	942.8	887.1	867.1	878.4	863.3	848.8	857.1	855.7	857.9	854.1	844.9	822.9	796.1	760.8	719.1	654.8	575.6	519.0	488.2	370.0	266.6	214.3	169.8	130.3	101.4	85.86	93.77	136.8	701.6	 3636	 5439	344.3	13.83	5.851	4.109	7.168	3.826	3.797	4.010	3.821	4.314	4.608	4.280	4.997	5.049	5.005	5.462	5.356	5.486	5.347	5.017	5.021	5.001	4.849	5.167	4.938	4.294	4.784	4.973	4.330	4.792	5.097
450.0	 1650	 5739	 2018	717.4	835.8	923.8	 1021	 1144	 1205	 1246	 1261	 1219	 1124	 1038	965.2	892.1	834.8	819.1	810.0	800.9	789.3	794.1	796.8	797.8	799.6	791.4	775.8	755.1	731.8	695.6	642.9	564.9	497.9	452.8	409.7	311.6	234.8	186.5	148.3	119.0	94.17	78.79	74.35	190.5	920.9	 3056	 3601	 1507	24.32	5.164	10.68	4.353	3.806	3.999	3.905	3.960	4.094	3.989	4.514	4.506	4.862	5.329	4.919	5.185	4.991	4.761	4.694	4.736	4.710	4.804	4.640	4.445	4.497	4.278	4.403	4.610	5.101
455.0	626.3	 3869	 5877	932.2	756.9	875.1	955.3	 1051	 1119	 1176	 1189	 1138	 1061	964.4	902.9	827.8	768.3	760.9	746.6	747.9	726.6	727.2	726.2	732.2	741.1	735.8	732.5	711.0	695.0	664.4	629.5	551.8	485.6	422.1	384.4	348.2	267.7	202.2	164.6	134.8	109.4	87.47	69.31	83.12	237.1	708.8	 1495	 4822	 2197	30.64	14.72	4.683	4.235	3.783	3.751	3.862	4.235	4.161	4.259	4.338	4.211	4.675	4.587	4.808	5.028	4.166	4.230	4.740	4.390	4.506	4.219	4.153	4.212	4.311	3.753	4.259	4.474
460.0	373.6	 1675	 7731	 2793	752.7	816.1	898.1	996.8	 1088	 1108	 1128	 1081	 1004	908.8	840.2	782.5	720.1	710.9	699.0	690.8	677.9	676.2	676.4	679.7	686.1	683.1	678.3	667.5	659.5	630.4	597.5	535.9	470.9	411.4	361.2	342.4	295.0	216.3	171.6	143.2	118.3	93.44	74.73	65.24	88.94	186.7	367.8	 2265	 5115	 1562	37.50	5.044	4.898	3.845	3.851	3.974	4.091	4.105	4.034	4.340	4.311	4.599	4.620	4.656	4.718	4.144	4.173	4.276	3.982	4.063	4.221	4.383	4.283	4.172	3.458	3.960	4.656
465.0	308.5	686.3	 6277	 6465	747.2	756.5	872.6	940.7	 1019	 1069	 1075	 1037	930.9	867.8	789.1	736.8	678.0	658.4	650.1	639.1	632.1	624.6	635.1	637.3	637.9	642.5	641.5	627.7	622.7	598.3	569.6	511.4	459.2	397.4	350.0	321.7	303.3	243.9	182.0	151.7	125.1	101.6	83.37	65.04	59.43	73.31	107.6	563.6	 2939	 4602	 2302	14.71	5.647	4.128	3.922	3.871	3.997	4.210	4.066	4.524	4.009	4.221	4.263	4.550	3.996	4.217	4.326	3.883	3.859	4.282	3.819	4.149	3.968	3.828	3.643	3.955	3.933
470.0	301.6	435.3	 2516	 8675	 2730	689.6	783.3	875.7	932.2	975.3	991.4	945.8	865.7	800.3	732.7	666.4	622.8	597.6	587.0	581.8	570.5	566.3	573.5	570.4	582.2	578.1	581.4	572.8	569.4	553.6	528.7	482.4	430.9	377.1	328.8	293.1	271.6	254.0	203.0	155.5	130.4	109.8	88.22	71.70	59.55	52.71	53.93	150.0	727.3	 2355	 7518	 1420	25.13	5.264	4.195	3.961	3.998	3.936	3.948	4.295	4.356	4.169	4.262	4.160	3.892	4.021	4.001	3.912	3.685	3.813	3.520	3.734	3.704	3.516	3.444	3.443	3.742
475.0	255.2	333.4	865.3	 5002	 8298	802.5	703.8	768.4	869.0	890.2	899.4	872.6	785.0	724.4	646.8	608.1	555.1	538.8	530.1	518.0	502.5	500.2	512.3	505.7	508.5	516.0	525.7	518.6	510.7	503.2	480.4	440.3	404.6	351.5	309.7	273.2	245.2	230.7	218.3	171.4	136.4	110.3	93.51	76.08	64.76	51.99	44.68	59.73	183.1	542.6	 2109	 3286	 1902	35.23	5.042	4.030	3.756	3.620	3.604	3.695	4.111	3.839	4.025	3.681	3.649	3.107	3.599	3.326	3.479	3.601	3.504	3.066	3.011	3.114	3.278	3.349	3.192
480.0	242.7	310.9	466.2	 2009	9999.9	 1911	649.6	717.5	808.4	808.6	826.7	818.4	734.8	672.3	612.9	555.2	522.5	497.3	484.8	477.5	466.8	457.9	468.5	469.7	468.9	476.8	476.3	473.2	475.3	467.9	446.1	417.2	378.3	331.4	296.1	267.4	231.9	210.0	208.3	183.1	139.3	113.7	93.27	79.07	66.35	55.34	45.79	41.44	63.72	139.7	492.1	 1396	 3630	 1427	23.61	5.202	4.272	3.392	3.383	3.436	3.590	3.554	3.620	3.207	3.050	3.386	3.814	2.879	3.128	3.081	3.391	2.864	3.024	3.350	2.858	3.068	3.352
485.0	249.9	284.5	360.8	792.5	 8119	 4594	650.0	695.2	734.7	774.7	785.1	753.3	699.0	631.3	573.7	517.9	487.4	468.2	448.3	442.4	433.1	427.6	433.4	430.7	435.8	436.5	437.7	443.4	440.0	433.8	424.8	392.9	358.6	316.3	283.3	255.0	222.8	199.5	188.1	188.4	150.4	114.4	96.21	82.38	67.81	57.90	47.64	40.75	39.60	51.69	126.3	342.7	 1916	 3474	343.7	14.24	4.928	4.054	3.277	3.341	3.290	3.387	3.628	3.202	3.392	3.172	3.611	2.590	3.307	3.176	3.118	2.538	2.666	3.133	2.650	2.996	2.652
490.0	210.9	278.1	348.2	460.8	 3062	 6556	 1712	633.7	678.4	711.0	722.7	689.3	632.4	579.4	529.0	478.2	443.2	426.8	403.8	397.3	388.8	390.6	390.2	390.2	387.9	389.9	386.1	396.4	398.9	393.6	388.8	359.7	326.7	295.3	265.0	239.8	214.0	191.6	173.0	167.5	158.7	127.4	101.1	84.39	71.25	60.53	51.48	44.11	37.23	34.08	46.97	91.30	466.7	 1617	 2514	 1374	26.68	5.008	3.533	3.488	3.341	3.292	3.221	3.040	3.175	3.121	3.308	2.941	2.789	2.864	2.862	2.609	2.537	2.743	2.510	2.417	2.524
495.0	206.9	251.4	348.2	375.7	997.1	 3854	 4939	765.0	616.6	642.5	640.4	612.6	565.2	526.4	469.5	417.4	392.0	379.2	359.3	358.7	345.4	349.1	344.2	346.6	343.4	345.6	347.1	355.7	350.8	351.5	348.9	320.9	295.7	268.9	243.7	221.0	199.5	175.4	158.9	148.8	142.9	134.9	107.7	86.70	72.46	62.07	53.59	46.50	38.75	32.94	31.61	37.34	117.7	372.4	877.1	 2913	 1904	36.45	5.042	3.304	3.470	3.251	3.580	2.905	2.751	2.706	2.629	2.844	2.639	2.510	2.487	2.565	2.400	2.503	2.072	2.364	2.533
500.0	180.8	228.3	315.2	333.3	503.5	 1529	 6441	 1578	555.5	584.1	574.8	573.6	528.2	482.6	432.4	387.4	359.1	344.3	326.0	333.3	313.2	313.0	311.0	312.7	318.9	315.0	316.9	321.1	321.1	321.7	309.4	297.3	271.5	250.4	224.4	210.5	184.5	169.7	152.9	140.6	128.6	131.1	116.4	88.54	72.24	62.75	55.51	46.99	41.13	34.44	29.96	26.41	41.92	95.67	210.4	 1223	 3381	 1339	24.83	4.209	3.694	3.376	3.119	2.773	2.960	2.580	2.462	2.690	2.336	2.619	2.365	2.379	1.962	2.314	1.974	2.599	2.511
505.0	162.8	212.2	274.7	340.4	388.8	645.0	 4892	 3003	561.5	536.1	547.3	526.2	494.0	445.8	403.7	354.2	332.9	314.2	302.7	291.8	285.2	285.9	286.0	277.0	291.8	286.9	292.5	291.4	292.3	295.6	288.0	278.1	247.6	231.5	212.7	195.2	176.0	160.0	141.7	131.7	116.8	116.4	117.2	92.30	74.62	63.36	54.72	48.34	42.44	34.26	29.36	24.32	24.64	34.40	58.66	296.7	 1741	 3252	365.4	11.90	3.991	3.233	3.280	2.458	2.477	2.862	2.184	2.236	2.241	2.432	2.453	1.918	2.115	2.341	1.939	2.059	1.908
510.0	135.4	188.2	221.9	338.0	329.0	397.6	 1837	 3709	 1412	488.4	487.0	463.5	438.9	403.2	357.4	320.6	295.9	276.7	269.3	257.9	252.6	252.8	248.4	245.7	252.2	252.5	255.0	255.9	260.3	261.1	254.3	244.9	222.8	206.5	187.3	173.5	160.5	147.6	133.0	122.5	109.1	102.7	100.9	95.63	77.62	63.41	54.76	47.14	42.30	34.93	30.18	25.26	21.83	22.12	25.65	76.90	423.0	 1517	 2345	 1197	25.38	3.863	3.319	2.552	2.634	2.480	2.167	1.985	2.166	1.927	1.946	1.710	1.824	2.022	1.796	1.907	1.934
515.0	130.1	152.7	191.7	276.5	335.4	302.2	663.8	 2130	 3479	593.1	433.7	408.6	384.3	354.3	316.3	277.5	263.8	243.2	241.7	228.6	221.0	220.8	215.7	216.3	219.0	216.7	221.6	226.1	229.0	224.9	224.6	213.5	197.5	181.4	169.8	156.0	142.9	132.5	123.9	109.4	100.6	92.28	86.40	86.07	80.62	64.39	53.94	46.74	40.93	35.10	30.63	24.99	21.25	20.10	17.96	28.26	103.8	347.0	820.2	 2513	 1487	33.13	3.843	2.725	2.818	2.323	2.140	2.044	1.994	1.870	1.897	1.798	1.758	1.687	1.993	1.623	1.887
520.0	138.2	128.2	175.4	219.3	330.2	278.1	364.8	908.6	 3991	 1426	405.1	383.7	350.0	316.1	288.4	261.9	239.4	227.9	212.6	205.0	203.7	198.3	197.9	196.1	200.4	195.9	200.4	200.7	205.1	203.8	204.0	189.2	176.1	165.0	153.5	141.2	131.4	122.0	112.0	104.7	93.86	85.14	77.03	75.77	79.82	68.41	53.14	45.29	39.56	34.77	29.86	26.67	22.86	19.31	16.92	17.52	33.63	85.70	194.7	 1080	 2667	400.6	21.60	3.436	2.654	2.067	1.956	1.676	1.793	1.766	1.745	1.919	1.738	1.653	1.659	1.639	1.580
525.0	122.0	120.8	161.3	199.0	323.3	276.1	293.3	436.3	 2859	 2934	427.9	347.9	324.5	293.5	262.2	240.3	216.9	203.2	194.3	187.6	184.0	180.2	179.2	178.7	180.6	177.7	179.2	182.0	180.3	185.0	183.8	171.3	161.7	150.7	138.3	129.1	117.2	113.1	103.8	95.45	87.91	80.17	70.95	67.36	69.53	68.74	56.60	45.73	38.60	34.69	29.12	26.01	22.72	19.81	16.79	15.53	17.36	28.14	50.87	260.8	 1405	 2281	336.8	8.309	2.719	2.489	1.891	1.729	2.023	1.488	1.565	1.564	1.540	1.558	1.475	1.483	1.392
530.0	107.3	109.6	145.6	162.2	248.0	290.4	249.5	293.4	 1098	 3734	 1246	314.1	279.6	257.8	231.3	213.3	188.6	181.2	172.9	167.0	163.1	157.7	152.9	156.5	151.9	154.6	156.7	160.4	159.4	162.0	159.9	152.4	143.2	134.2	125.4	115.2	105.6	98.26	92.62	85.62	78.32	71.08	64.36	60.40	58.11	60.42	57.50	46.06	36.39	32.33	27.70	24.60	21.70	19.05	16.78	14.89	13.76	14.66	19.40	64.82	342.0	 1123	 1751	762.2	22.34	2.738	2.023	2.041	1.482	1.467	1.445	1.640	1.380	1.283	1.320	1.372	1.279
535.0	96.13	91.39	123.1	151.4	192.5	271.0	238.3	248.6	438.7	 2027	 3443	412.0	248.4	229.1	203.8	185.5	164.1	159.1	150.0	142.6	139.4	132.6	134.1	131.6	133.9	132.1	134.2	140.0	134.8	139.6	135.4	132.1	122.6	114.5	106.6	100.7	92.92	85.57	80.24	74.76	68.85	63.33	58.03	53.74	50.27	49.24	52.58	49.71	38.50	30.92	26.69	23.02	20.73	17.91	16.10	15.06	12.61	12.18	11.67	20.55	82.15	256.0	625.1	 1832	415.9	27.47	2.506	2.148	1.724	1.301	1.549	1.352	1.195	1.061	1.064	1.289	1.080
540.0	95.21	102.5	128.1	140.5	157.0	228.4	247.2	208.0	269.6	784.1	 4000	 1158	228.7	206.0	183.6	164.4	146.6	144.0	132.2	129.3	122.6	121.5	119.9	117.9	118.4	118.2	119.7	121.3	119.8	121.0	123.0	116.2	109.4	102.2	92.35	89.22	83.30	76.77	72.51	67.64	62.70	58.87	53.93	49.32	45.17	43.10	44.35	45.95	38.23	29.77	25.46	22.29	19.58	17.28	15.27	14.29	11.98	10.99	10.09	10.84	24.10	61.97	147.7	819.2	 1808	374.5	12.69	1.979	1.703	1.393	1.422	1.263	1.078	0.913	1.038	1.105	0.904
545.0	92.88	92.15	105.5	114.7	127.6	179.0	260.4	199.2	217.4	353.8	 2748	 2722	225.1	182.2	159.4	146.6	134.9	123.3	117.9	113.2	107.2	106.4	104.9	104.4	107.1	105.7	107.6	107.1	108.4	108.8	108.8	101.9	95.93	90.94	83.20	79.78	77.57	68.68	65.19	60.86	56.97	53.08	47.90	44.52	41.72	39.42	38.85	39.28	38.54	30.66	23.91	20.59	18.72	16.66	14.38	12.53	11.53	10.81	9.693	9.065	11.55	18.88	37.35	199.4	 1049	 1710	269.5	4.315	1.628	1.445	1.223	1.141	0.956	0.961	0.845	0.943	1.022
550.0	79.58	90.68	95.07	104.2	116.2	136.8	218.1	205.1	180.1	219.4	993.2	 3539	941.0	155.6	139.4	125.5	116.0	103.8	100.3	97.37	93.30	91.22	87.93	88.78	88.74	89.76	90.65	88.97	89.86	91.47	91.22	87.95	81.73	77.33	71.90	69.40	64.60	58.25	55.27	51.27	49.48	45.10	42.03	38.82	36.94	34.51	31.86	31.56	33.62	30.90	23.46	19.19	17.10	15.17	13.35	12.52	11.27	10.46	8.874	7.826	8.024	9.054	12.20	48.03	257.9	891.3	 1232	481.9	17.40	1.822	1.258	1.161	0.995	0.846	0.779	0.913	0.852
555.0	92.06	83.26	85.52	92.62	105.2	108.2	145.9	225.5	156.0	173.6	347.9	 1761	 2938	210.9	117.1	104.3	95.74	85.91	84.45	80.43	78.65	73.84	70.86	71.31	71.71	72.06	71.39	72.16	75.09	74.71	74.08	71.20	68.75	62.80	59.81	57.18	52.68	48.11	45.45	44.21	40.70	38.56	35.87	33.79	31.11	28.72	26.30	24.63	25.35	26.47	23.58	18.30	14.84	13.08	12.17	10.62	9.974	9.142	8.109	7.700	6.928	6.703	6.926	14.08	60.66	202.1	469.7	 1252	382.4	19.04	1.466	1.062	1.026	1.118	0.687	0.809	1.054
560.0	79.47	73.44	81.18	88.18	85.98	86.95	107.9	211.6	169.7	147.7	185.6	625.0	 3585	735.4	103.1	88.24	82.54	75.42	71.18	65.36	66.23	64.40	59.11	60.46	61.10	60.80	61.89	63.64	62.09	64.11	62.70	59.16	58.00	52.69	50.12	48.23	44.98	41.72	38.74	37.66	35.14	31.88	29.41	28.01	25.98	24.38	23.46	21.65	20.41	21.84	22.26	17.55	13.43	11.58	10.81	9.029	9.025	8.650	8.147	7.199	6.823	5.517	5.295	6.502	16.17	47.97	111.6	596.4	 1180	287.0	5.403	1.161	1.095	0.903	0.704	0.689	0.797
565.0	65.33	63.47	77.33	71.60	66.40	76.99	90.81	165.3	182.5	122.8	142.7	241.8	 2390	 2148	102.0	74.22	68.47	68.31	62.99	56.81	56.24	54.53	51.87	52.52	50.72	51.40	51.15	52.65	54.60	55.16	52.71	50.49	48.71	47.32	42.13	39.98	36.54	36.33	33.87	32.20	29.49	26.12	25.67	24.08	22.48	21.12	20.23	19.40	16.63	17.43	18.75	16.91	12.67	10.46	9.622	8.780	7.969	7.521	7.297	6.218	5.749	4.665	4.655	4.556	6.257	13.20	27.30	148.7	740.4	 1000	51.71	2.541	0.994	0.904	0.723	0.673	0.726
570.0	56.03	55.50	73.09	67.06	59.69	63.12	72.43	108.2	188.7	132.4	114.1	136.6	787.1	 3016	644.3	64.14	55.53	54.28	49.22	47.76	46.61	44.36	42.34	41.45	40.41	40.79	41.62	42.59	43.63	43.69	43.42	40.71	39.14	36.55	33.91	33.39	30.74	28.77	27.38	25.72	24.47	22.05	20.81	19.44	19.35	17.80	16.61	15.46	13.83	13.90	14.11	14.17	12.85	9.570	7.884	7.594	7.007	6.914	6.217	5.932	5.242	4.434	4.129	3.891	4.022	5.275	8.374	35.31	185.4	558.7	558.7	210.9	12.22	1.040	0.674	0.696	0.621
575.0	57.81	67.13	64.04	57.33	51.21	54.13	55.01	75.58	141.4	152.7	98.94	113.0	244.8	 1467	 2192	98.96	44.31	43.20	40.14	37.04	36.50	35.36	33.72	33.14	32.37	33.54	32.62	32.90	32.98	33.28	33.85	32.05	30.66	29.16	26.61	25.66	23.65	23.14	22.61	20.98	19.14	17.89	16.11	15.67	14.95	14.13	12.97	12.50	10.88	10.53	10.45	10.57	11.27	9.554	7.445	6.309	6.080	5.378	5.420	5.031	4.560	4.559	4.098	3.627	3.193	3.215	3.953	9.917	42.91	127.3	260.3	723.7	277.4	7.651	0.862	0.636	0.570
580.0	52.19	54.78	64.41	49.65	45.81	46.24	51.09	57.06	96.76	181.6	102.1	94.68	121.7	467.9	 2792	248.2	39.96	36.11	34.31	32.01	31.01	30.08	28.80	27.75	28.72	28.75	27.53	27.75	27.21	28.09	27.40	26.05	26.20	24.85	21.73	21.60	20.78	18.92	19.11	16.70	15.69	14.84	14.21	13.96	12.86	11.85	11.17	10.55	9.334	8.909	8.465	8.177	9.819	8.527	7.267	5.599	5.056	4.964	4.661	4.524	4.124	3.884	3.493	3.295	3.052	2.684	2.785	4.439	11.43	29.90	63.19	373.6	676.2	55.00	2.108	0.981	0.616
585.0	45.00	42.63	63.28	49.25	44.95	40.39	50.12	54.82	74.23	161.7	111.9	82.00	85.75	159.5	 1813	 1481	42.72	32.09	28.89	27.84	24.56	24.86	24.35	24.90	23.37	24.31	24.23	23.76	21.28	24.53	24.25	22.10	22.12	20.58	19.43	18.19	16.83	15.63	16.08	13.42	14.32	12.78	12.46	11.79	10.83	9.844	9.781	9.129	8.409	7.881	7.008	6.839	6.932	7.615	7.293	5.725	4.226	4.204	4.172	3.768	3.336	3.821	3.599	3.017	2.715	2.359	2.504	2.995	4.100	8.144	15.53	94.44	445.9	446.6	43.63	1.272	0.641
590.0	47.53	48.27	55.58	45.84	42.83	34.03	39.60	48.97	58.29	110.1	141.1	80.55	76.57	83.20	568.3	 2116	428.2	27.25	22.28	23.13	20.82	20.57	19.45	20.04	18.40	18.83	19.09	19.09	19.43	20.47	19.06	18.32	17.62	16.85	15.51	14.31	13.28	12.58	12.73	12.08	11.20	10.34	9.878	9.195	8.996	8.311	8.015	7.679	7.072	6.325	5.962	5.470	4.936	5.585	6.784	5.493	4.103	3.799	3.480	3.284	3.073	3.174	2.819	3.049	2.707	2.384	2.174	2.198	2.497	3.241	4.727	22.30	114.1	310.6	394.0	140.7	5.996
595.0	41.50	49.41	41.94	44.57	41.11	32.01	34.09	37.57	56.70	76.69	141.6	99.06	72.02	65.54	157.0	979.2	 1557	47.39	19.73	17.71	16.19	15.55	15.98	15.64	14.99	15.20	15.13	15.05	15.41	15.68	14.49	14.58	13.24	13.51	11.80	12.44	10.94	9.834	10.18	9.264	8.948	7.841	7.936	7.430	6.653	6.564	6.303	6.497	6.328	4.856	4.663	4.245	4.065	4.353	5.322	5.063	4.239	3.388	3.279	2.872	2.834	2.330	2.253	2.256	2.619	2.432	1.996	1.637	1.850	1.823	2.290	6.198	26.15	71.19	182.0	428.5	58.92
600.0	39.51	41.64	41.84	39.67	41.58	28.88	30.37	35.89	47.82	55.89	116.4	118.4	72.71	55.17	64.70	301.1	 1965	175.8	16.93	14.71	14.50	14.29	12.80	13.53	12.38	13.01	12.46	12.40	13.03	12.50	12.94	11.93	11.53	11.09	10.10	10.25	8.982	8.250	8.579	7.685	7.194	6.840	6.727	5.949	5.865	5.823	5.002	4.842	5.202	4.296	3.982	4.027	3.447	3.355	3.585	4.357	4.423	3.168	2.968	2.488	2.246	2.343	1.917	2.223	2.195	2.238	1.669	1.351	1.322	1.416	1.372	2.324	6.789	16.69	44.63	241.1	373.0
605.0	41.86	38.25	41.12	37.87	30.72	29.48	32.82	36.75	40.87	50.97	88.09	139.3	77.00	55.40	44.97	91.03	 1246	 1018	20.63	14.21	12.32	12.68	10.84	11.58	10.41	10.86	10.37	10.37	11.36	10.82	10.94	10.98	10.20	9.392	9.390	8.360	8.153	7.528	7.052	6.174	6.315	5.514	5.367	5.620	5.062	4.632	4.369	4.590	4.067	3.712	3.629	3.357	2.713	2.649	2.902	3.363	3.970	3.103	2.566	2.110	1.924	1.921	1.495	1.902	1.698	1.798	1.748	1.579	1.182	1.140	0.987	1.349	2.331	4.346	10.68	63.06	269.9
610.0	40.40	33.16	39.47	35.16	28.65	25.94	29.86	33.72	42.67	50.88	66.90	120.6	97.67	53.28	39.85	41.96	380.4	 1492	306.0	12.51	10.40	10.77	9.970	9.732	9.179	8.912	8.685	8.748	8.824	9.144	9.204	8.537	8.466	7.707	7.562	7.047	6.648	6.379	5.837	5.440	4.855	4.630	4.706	4.212	4.192	4.116	3.811	3.684	3.543	3.218	2.905	2.662	2.576	2.368	2.187	2.538	3.367	3.091	2.603	2.044	1.712	1.637	1.839	1.732	1.341	1.630	1.659	1.751	1.152	1.120	0.878	0.944	1.113	1.568	2.807	14.49	70.32
615.0	40.23	34.12	44.04	31.37	26.81	21.29	27.17	30.85	37.92	45.62	58.14	83.27	115.8	58.91	39.14	29.94	99.77	697.2	 1190	30.20	8.657	8.240	7.921	7.697	6.565	7.148	7.066	6.318	7.284	7.961	7.684	7.879	6.368	6.148	6.717	6.003	4.862	4.980	5.109	4.347	3.931	3.674	3.365	3.003	3.392	3.409	2.940	2.983	2.799	2.497	2.294	2.181	1.899	2.028	1.654	2.232	2.214	2.909	2.627	2.096	1.540	1.238	1.420	1.327	1.270	1.310	1.088	1.395	1.179	0.963	1.011	0.783	0.714	0.801	1.174	3.745	16.26
620.0	33.87	26.97	36.02	32.68	25.31	23.28	22.96	28.60	35.19	42.63	55.27	68.15	115.6	70.34	34.92	26.46	36.77	207.7	 1467	139.2	8.154	7.142	6.753	7.240	6.187	6.553	6.475	6.238	5.708	6.727	6.749	6.624	5.275	5.552	5.022	4.837	4.387	3.646	4.271	4.275	3.336	3.216	2.697	2.985	3.091	2.710	2.871	2.430	2.459	2.126	2.099	1.696	1.479	1.733	1.515	1.666	1.657	1.973	2.197	2.057	1.820	1.330	1.133	1.009	1.140	1.123	0.904	1.155	1.298	1.037	0.783	0.622	0.716	0.741	0.682	1.196	3.891
625.0	30.28	25.58	29.83	30.87	25.72	22.81	26.22	28.21	34.51	43.66	55.05	58.32	96.43	83.75	37.28	26.28	21.64	58.86	936.7	758.0	10.79	6.110	5.631	5.889	4.625	5.203	5.427	5.297	4.450	5.211	5.449	5.096	4.831	4.292	4.044	4.109	3.833	3.453	3.168	3.396	2.883	2.952	2.685	2.722	2.504	2.253	2.773	2.299	2.000	1.868	2.026	1.599	1.408	1.369	1.727	1.518	1.388	1.301	1.758	2.001	1.617	1.241	1.010	1.022	1.208	0.943	0.744	1.081	1.105	1.024	0.783	0.563	0.701	0.674	0.622	0.678	1.235
630.0	31.31	33.20	33.28	27.50	21.15	19.95	21.64	25.03	32.32	38.52	51.95	56.36	72.75	92.31	41.87	25.76	18.59	22.23	280.4	 1126	228.1	5.866	5.151	4.725	4.256	4.199	4.137	4.706	3.804	4.147	4.290	3.763	3.694	3.139	3.321	3.054	3.100	2.803	2.567	2.959	2.669	2.248	2.007	2.000	2.013	1.792	1.986	1.636	1.613	1.568	1.416	1.349	1.239	1.007	1.233	1.111	1.136	1.108	1.279	1.458	1.456	1.137	0.979	0.795	0.927	0.891	0.755	0.832	0.981	1.027	0.884	0.691	0.567	0.561	0.466	0.455	0.560
635.0	33.72	27.51	31.58	30.35	19.69	17.23	24.34	25.31	32.06	35.34	47.73	53.24	61.18	81.22	62.69	24.30	19.14	15.78	69.65	524.8	902.9	22.64	5.104	3.687	3.876	3.472	3.678	3.829	3.020	3.418	3.423	3.159	2.671	2.709	2.561	2.741	2.451	2.438	2.219	2.452	2.000	1.713	1.683	1.613	1.407	1.616	1.544	1.291	1.256	1.122	1.034	1.227	1.038	0.743	0.922	0.959	0.993	0.967	0.850	0.957	1.226	1.130	0.881	0.703	0.709	0.704	0.656	0.547	0.710	0.819	0.799	0.686	0.517	0.483	0.502	0.615	0.457
640.0	33.22	27.94	31.53	29.41	18.60	21.95	24.20	24.13	31.07	34.36	42.80	52.91	55.12	65.32	74.85	28.70	20.21	13.42	24.00	153.9	 1114	113.1	4.894	3.194	3.756	3.186	3.472	2.745	2.154	3.171	2.589	2.471	2.029	2.699	2.349	2.328	2.096	1.702	1.918	2.236	1.593	1.392	1.352	1.447	1.295	1.429	1.152	1.136	0.935	0.904	0.940	0.786	0.971	0.827	0.801	0.848	0.786	0.860	0.633	0.613	0.835	1.084	0.692	0.733	0.765	0.581	0.595	0.725	0.579	0.734	0.600	0.744	0.903	0.603	0.555	0.438	0.315
645.0	36.28	24.75	35.60	27.86	24.41	20.09	19.67	21.64	30.76	41.79	42.38	52.91	53.12	57.10	73.54	38.11	19.58	13.68	12.75	42.62	725.3	579.8	7.188	3.436	3.223	2.419	2.702	2.410	2.194	2.397	2.590	2.349	2.215	2.500	2.262	2.051	1.376	1.639	1.716	1.571	1.258	1.546	1.512	1.105	1.322	1.468	1.012	0.926	0.877	0.998	0.717	0.754	0.725	1.024	0.930	0.818	0.670	0.747	0.707	0.686	0.776	0.947	0.795	0.748	0.652	0.489	0.522	0.560	0.549	0.576	0.531	0.612	0.887	0.653	0.453	0.463	0.266
650.0	52.48	24.73	33.32	27.24	25.53	24.74	16.68	23.32	28.42	32.46	33.15	51.47	55.12	48.18	61.94	48.23	21.18	14.99	10.82	16.03	264.0	943.1	54.63	3.499	2.893	2.500	2.383	2.439	2.183	1.912	2.210	2.220	1.808	1.836	1.865	1.715	1.730	1.641	1.660	1.467	1.124	1.303	1.162	1.174	0.906	1.187	0.841	0.826	1.021	0.804	0.733	0.701	0.662	0.742	0.765	0.671	0.599	0.705	0.720	0.420	0.553	0.616	0.923	0.594	0.719	0.639	0.459	0.627	0.439	0.570	0.458	0.462	0.740	0.736	0.504	0.330	0.498
