Sample:	'1
File name:	Default_20231008_141636.FD3
Run date:	'14:10:15, 10/08/2023
Operator:	dsjg
Comment:	'

Instrument
Model:	F-2700 FL Spectrophotometer
Serial number:	2198-001
ROM Version:	4J14000 07

Instrument parameters
Measurement type:	3-D scan
Data mode:	Fluorescence
EX  Start WL:	220.0 nm
EX  End WL:	600.0 nm
EX Sampling interval:	5.0 nm
EM  Start WL:	230.0 nm
EM  End WL:	650.0 nm
EM Sampling interval:	5.0 nm
Scan speed:	12000 nm/min
EX Slit:	5.0 nm
EM Slit:	5.0 nm
PMT Voltage:	700 V
Response:	Auto 
Corrected spectra:	Off
Contour interval:	50.000

Peak integration
Integration method:	Rectangular
Sensitivity:	1
Threshold:	1.000

Peaks
No.	ApexEX/EM(nm)	Height(Data)
1	225.0/345.0	 2052
2	225.0/370.0	 1985
3	270.0/300.0	 7924
4	270.0/590.0	546.2
5	440.0/300.0	11.17
6	445.0/305.0	11.09
7	540.0/300.0	42.19
8	575.0/290.0	40.35

Data points
	220.0	225.0	230.0	235.0	240.0	245.0	250.0	255.0	260.0	265.0	270.0	275.0	280.0	285.0	290.0	295.0	300.0	305.0	310.0	315.0	320.0	325.0	330.0	335.0	340.0	345.0	350.0	355.0	360.0	365.0	370.0	375.0	380.0	385.0	390.0	395.0	400.0	405.0	410.0	415.0	420.0	425.0	430.0	435.0	440.0	445.0	450.0	455.0	460.0	465.0	470.0	475.0	480.0	485.0	490.0	495.0	500.0	505.0	510.0	515.0	520.0	525.0	530.0	535.0	540.0	545.0	550.0	555.0	560.0	565.0	570.0	575.0	580.0	585.0	590.0	595.0	600.0
230.0	126.1	 1364	 1933	322.0	14.55	8.765	7.529	6.788	6.284	6.303	6.256	5.683	4.579	3.735	3.067	2.730	2.178	2.133	2.014	1.782	1.712	1.588	1.512	1.504	1.251	1.308	1.198	1.212	1.120	1.164	1.137	1.056	1.007	0.955	0.906	0.972	0.880	0.878	0.817	0.718	0.760	0.785	0.760	0.718	0.674	0.658	1.139	4.542	9.358	8.580	3.745	0.986	0.528	0.458	0.489	0.442	0.512	0.496	0.483	0.512	0.449	0.460	0.462	0.461	0.500	0.482	0.454	0.448	0.477	0.445	0.431	0.418	0.431	0.443	0.459	0.457	0.459
235.0	64.32	425.3	 1657	 1917	311.1	15.96	7.172	8.015	7.445	6.771	6.208	6.359	4.620	3.818	3.231	2.992	2.225	2.103	2.139	2.049	1.726	1.569	1.541	1.485	1.360	1.242	1.331	1.147	1.162	1.248	1.103	1.073	0.995	1.064	0.894	0.955	0.808	1.013	0.859	0.793	0.781	0.756	0.734	0.815	0.712	0.707	0.754	1.568	3.330	6.080	9.196	10.64	5.563	1.423	0.518	0.463	0.501	0.494	0.520	0.483	0.447	0.465	0.472	0.460	0.470	0.503	0.510	0.450	0.459	0.409	0.413	0.433	0.428	0.479	0.434	0.491	0.448
240.0	78.75	125.1	639.8	 2163	 1878	223.5	11.48	8.415	7.707	7.078	7.034	5.916	5.201	4.093	3.109	2.821	2.370	2.448	2.232	1.809	1.820	1.505	1.449	1.441	1.325	1.394	1.223	1.146	1.283	1.085	1.081	1.146	1.031	0.932	0.983	0.851	0.806	0.875	0.845	0.690	0.768	0.771	0.720	0.743	0.750	0.851	0.753	0.809	1.231	2.059	4.494	10.98	14.92	11.37	4.158	0.856	0.479	0.486	0.497	0.495	0.459	0.474	0.469	0.478	0.454	0.483	0.480	0.440	0.476	0.388	0.497	0.475	0.385	0.447	0.505	0.502	0.493
245.0	77.47	89.38	172.0	992.4	 2700	 1750	145.6	9.613	8.507	7.185	7.317	5.958	5.806	4.132	3.395	2.628	2.800	2.577	2.212	1.673	1.790	1.716	1.505	1.406	1.403	1.473	1.246	1.259	1.249	1.107	1.188	1.103	1.049	0.965	0.827	0.874	0.788	0.790	0.830	0.740	0.765	0.809	0.687	0.817	0.685	0.785	0.824	0.826	0.809	0.862	1.409	3.838	9.237	16.71	16.91	9.691	2.612	0.575	0.478	0.505	0.490	0.496	0.471	0.441	0.431	0.487	0.537	0.401	0.498	0.396	0.480	0.511	0.448	0.477	0.503	0.513	0.450
250.0	46.12	82.10	103.6	259.4	 1122	 2570	 2382	602.7	26.10	8.682	8.351	7.275	5.885	4.767	3.652	2.951	2.765	2.485	2.303	2.015	1.822	1.657	1.590	1.537	1.450	1.436	1.265	1.285	1.306	1.191	1.282	1.149	0.972	0.927	0.844	0.887	0.817	0.791	0.802	0.780	0.748	0.810	0.743	0.765	0.670	0.684	0.739	0.800	0.877	0.738	0.785	1.321	2.664	5.717	10.09	14.88	18.47	15.57	8.673	2.585	0.620	0.514	0.433	0.482	0.492	0.513	0.518	0.478	0.466	0.447	0.501	0.489	0.438	0.434	0.451	0.476	0.477
255.0	33.37	44.73	89.12	130.1	271.5	809.1	 2829	 3601	214.7	24.11	10.81	9.001	6.872	5.418	3.948	3.416	3.011	2.840	2.407	2.352	1.932	1.759	1.615	1.396	1.515	1.401	1.427	1.306	1.369	1.181	1.459	1.057	1.045	0.912	0.985	0.780	0.870	0.810	0.834	0.763	0.719	0.934	0.788	0.713	0.675	0.687	0.684	0.661	0.721	0.757	0.930	1.039	1.078	1.718	2.676	3.971	7.703	16.37	26.86	24.23	13.15	2.777	0.534	0.442	0.480	0.549	0.481	0.508	0.504	0.541	0.498	0.428	0.413	0.446	0.478	0.440	0.505
260.0	33.32	28.29	51.47	111.6	115.3	200.3	 1102	 3910	 3490	177.5	16.47	10.80	7.508	5.828	3.951	4.108	3.116	2.909	2.574	2.439	2.129	1.852	1.717	1.586	1.660	1.443	1.453	1.352	1.387	1.245	1.285	1.106	1.107	1.007	0.938	0.850	0.692	0.826	0.770	0.800	0.749	0.838	0.744	0.739	0.648	0.720	0.624	0.630	0.661	0.602	0.723	1.062	1.084	0.963	1.059	1.376	2.223	5.099	13.19	26.26	34.24	22.22	8.394	1.326	0.533	0.512	0.504	0.458	0.501	0.536	0.429	0.508	0.494	0.457	0.452	0.468	0.534
265.0	27.94	26.62	27.80	72.07	114.7	83.65	277.6	 1716	 4812	 3261	142.3	14.11	9.119	6.386	4.776	3.935	3.379	2.689	2.594	2.450	2.257	1.898	1.818	1.776	1.634	1.387	1.560	1.357	1.389	1.234	1.301	1.027	1.203	0.893	0.924	0.857	0.877	0.834	0.763	0.772	0.776	0.775	0.861	0.756	0.724	0.766	0.643	0.658	0.572	0.513	0.532	0.800	0.940	1.218	1.006	0.873	0.968	1.634	3.547	8.810	21.05	35.07	28.62	18.79	4.763	0.645	0.551	0.512	0.492	0.549	0.462	0.510	0.477	0.518	0.475	0.488	0.475
270.0	54.89	40.54	31.30	40.51	81.53	118.1	130.0	451.1	 1884	 4312	 3459	607.7	45.58	9.766	5.957	4.739	3.868	3.294	2.905	2.684	2.336	2.077	2.016	1.796	1.704	1.572	1.533	1.456	1.389	1.325	1.313	1.242	1.176	1.035	0.986	0.913	0.883	0.839	0.898	0.871	0.840	0.823	0.931	0.925	0.895	0.811	0.677	0.706	0.651	0.552	0.531	0.669	0.670	0.866	1.072	1.201	1.121	1.103	1.432	2.579	5.621	11.47	18.75	29.78	30.18	28.71	13.42	5.080	0.870	0.550	0.499	0.595	0.480	0.528	0.515	0.523	0.517
275.0	283.3	210.7	154.7	114.0	125.5	200.9	281.4	320.6	626.7	 1723	 4351	 6379	935.3	58.17	10.45	6.492	4.496	4.116	3.284	2.934	2.522	2.313	2.220	1.984	1.714	1.625	1.589	1.569	1.339	1.385	1.291	1.402	1.196	1.158	1.246	1.149	1.157	1.123	1.239	1.356	1.383	1.459	1.506	1.433	1.537	1.423	1.277	1.175	1.102	0.990	0.861	0.931	0.966	1.065	1.138	1.291	1.729	2.141	2.300	2.468	3.349	5.156	6.939	10.22	14.29	28.94	46.48	48.01	20.98	5.213	0.810	0.566	0.565	0.529	0.530	0.580	0.563
280.0	766.4	587.3	424.1	295.0	301.8	372.7	610.0	891.5	 1275	 1720	 3022	 6672	 6576	747.6	35.52	8.715	5.899	5.324	4.333	3.301	2.793	2.583	2.395	2.073	2.032	1.770	1.763	1.687	1.421	1.511	1.370	1.388	1.399	1.472	1.566	1.632	1.712	1.769	1.824	2.163	2.340	2.432	2.713	2.959	2.905	2.822	2.623	2.447	2.267	1.800	1.554	1.555	1.698	1.871	1.787	2.151	2.814	3.578	4.277	5.139	6.050	7.574	8.999	10.79	12.27	15.90	26.56	46.76	58.18	29.48	15.12	2.018	0.651	0.624	0.575	0.560	0.605
285.0	 1438	 1026	726.3	510.2	471.9	678.9	990.4	 1566	 2336	 3109	 3605	 4626	 7313	 5850	549.4	17.29	7.830	6.213	5.043	3.974	3.501	2.823	2.800	2.400	2.237	2.034	1.814	1.689	1.592	1.599	1.482	1.433	1.465	1.660	1.976	2.315	2.337	2.510	2.770	3.439	3.709	4.145	4.497	5.005	4.922	4.793	4.201	3.750	3.452	2.816	2.272	2.238	2.552	2.809	3.041	3.438	4.253	5.468	6.524	8.807	10.59	13.01	14.87	17.42	19.00	19.34	20.97	26.33	37.35	50.48	58.65	25.21	7.901	0.882	0.662	0.647	0.645
290.0	 2478	 1814	 1248	916.4	961.7	 1203	 1649	 2452	 3804	 5141	 5596	 5021	 4193	 5488	 5664	 2033	34.95	8.981	5.946	5.047	4.282	3.438	2.970	2.847	2.594	2.301	2.033	1.890	1.851	1.792	1.670	1.609	1.653	2.184	2.788	3.118	3.249	3.782	4.188	4.942	5.506	6.414	6.936	7.754	7.962	7.708	6.776	5.987	5.327	4.531	3.715	3.847	4.182	4.510	5.145	6.049	6.974	8.439	10.31	12.88	16.07	20.37	24.35	28.28	30.67	30.02	28.91	27.33	23.56	23.06	31.33	40.35	36.89	40.41	15.89	6.440	0.965
295.0	 3325	 2501	 1768	 1381	 1467	 1754	 2189	 3171	 4852	 6623	 7323	 6223	 3593	 2301	 3835	 7312	 3138	40.52	8.680	6.580	5.161	4.330	3.686	3.422	2.792	2.627	2.360	2.106	2.080	1.955	2.002	1.734	1.711	2.517	3.575	3.844	3.977	4.712	5.339	6.177	6.854	7.799	9.086	9.754	10.23	10.08	8.858	8.063	7.006	6.225	5.131	5.626	5.776	6.678	7.087	8.647	9.558	11.02	13.21	16.29	20.23	25.45	30.60	36.29	39.81	38.84	37.30	33.98	25.09	17.39	14.67	13.80	15.61	31.90	56.29	64.59	23.99
300.0	 3635	 2807	 2042	 1662	 1753	 2057	 2430	 3456	 5158	 7030	 7924	 6811	 3744	 1679	 1527	 4846	 8020	509.2	28.01	8.627	6.604	4.924	4.168	3.651	3.118	2.736	2.404	2.275	2.109	2.130	1.916	1.989	1.919	2.598	3.675	4.174	4.454	4.982	5.542	6.688	7.180	8.310	9.754	10.30	11.17	11.07	9.741	8.809	8.019	7.167	5.989	6.766	6.813	7.832	8.270	9.892	10.49	11.97	14.32	17.62	21.77	27.54	32.51	38.68	42.19	42.10	41.50	36.06	27.38	17.73	12.12	8.795	7.080	10.76	23.40	49.83	70.74
305.0	 3643	 2889	 2166	 1802	 1887	 2217	 2511	 3517	 5143	 6929	 7842	 6945	 3942	 1729	899.2	 1742	 5809	 7512	423.7	15.70	7.791	5.820	4.743	4.146	3.548	3.008	2.938	2.479	2.263	2.147	1.875	2.005	1.940	2.717	3.555	3.805	4.210	5.038	5.619	6.420	7.086	8.167	9.483	9.978	10.72	11.09	9.893	9.274	8.154	7.005	6.430	7.363	7.473	8.432	9.251	10.77	11.32	12.30	14.87	17.85	21.81	27.95	31.69	38.31	41.93	41.14	40.80	37.69	27.92	18.79	12.57	8.828	6.016	5.411	7.598	15.79	34.46
310.0	 3355	 2718	 2116	 1809	 1928	 2228	 2445	 3331	 4765	 6340	 7168	 6470	 4038	 1981	961.8	762.2	 1846	 4882	 6669	 1723	28.66	8.716	6.095	4.978	4.189	3.516	3.218	2.712	2.511	2.424	2.158	2.091	2.038	2.618	3.621	3.847	4.247	4.519	5.090	6.121	6.628	7.414	8.521	9.118	9.777	10.08	9.002	8.806	8.009	6.834	6.494	7.345	7.828	8.619	9.477	11.13	11.00	12.05	14.35	17.17	20.77	25.93	29.67	34.63	38.27	37.49	37.49	35.08	27.79	20.23	14.51	9.972	7.260	5.618	4.963	5.864	9.802
315.0	 2941	 2465	 1946	 1718	 1859	 2169	 2348	 3120	 4307	 5626	 6370	 5827	 3943	 2302	 1260	735.5	727.1	 1335	 3130	 7793	 2892	35.96	8.356	6.393	4.830	4.117	3.641	3.032	2.851	2.641	2.550	2.083	2.029	2.450	3.185	3.458	3.827	4.126	4.388	5.264	5.696	6.731	7.143	8.081	8.915	8.463	7.990	7.832	7.296	6.375	6.272	7.200	7.471	8.374	9.683	10.77	10.58	11.55	13.61	16.36	19.43	23.31	26.36	31.10	34.08	34.11	34.20	31.71	25.98	20.57	16.42	12.07	9.480	7.066	5.603	4.909	5.037
320.0	 2697	 2281	 1859	 1637	 1780	 2084	 2291	 2977	 4005	 5166	 5823	 5435	 3876	 2492	 1568	901.8	604.1	578.2	994.7	 4141	 8786	 2185	26.43	8.414	5.803	4.830	3.930	3.254	3.012	2.657	2.644	2.176	2.220	2.566	3.028	3.213	3.329	3.856	4.396	4.525	5.070	6.115	6.469	7.133	7.715	8.307	7.678	7.310	6.769	6.058	5.826	6.886	7.392	8.045	9.339	10.53	10.69	11.36	13.69	15.69	18.26	21.77	24.92	28.50	31.18	31.65	31.41	29.53	25.10	20.28	16.84	13.81	11.57	8.823	6.921	5.775	4.703
325.0	 2489	 2171	 1788	 1615	 1725	 2019	 2229	 2884	 3820	 4800	 5402	 5144	 3855	 2625	 1817	 1156	716.5	513.4	470.4	 1299	 5434	 8677	364.6	17.31	7.127	5.690	4.538	3.723	3.434	2.915	2.747	2.454	2.362	2.355	2.797	3.216	3.126	3.583	3.989	3.964	4.659	5.544	5.884	6.533	7.079	7.609	7.274	6.851	6.858	5.952	5.680	6.704	7.204	7.737	8.845	10.15	10.66	11.23	13.26	15.33	17.83	20.61	23.51	26.84	28.62	29.40	29.10	28.16	24.05	20.57	17.31	14.49	12.94	10.89	8.817	7.035	5.435
330.0	 2247	 2087	 1738	 1585	 1675	 1951	 2201	 2793	 3605	 4471	 5027	 4850	 3873	 2845	 2075	 1480	997.8	662.1	480.7	527.8	 1564	 4839	 7099	 3327	26.41	8.106	5.878	4.540	3.874	3.335	3.033	2.685	2.434	2.314	2.658	2.909	3.075	3.300	3.554	3.827	4.241	4.745	5.312	6.056	6.467	7.199	6.814	6.686	6.517	5.827	5.682	6.631	6.883	7.643	8.685	9.732	10.53	11.06	13.13	15.29	17.36	19.79	22.49	25.22	26.23	27.23	27.37	26.25	24.19	21.25	18.41	16.28	14.31	12.49	11.12	9.496	7.754
335.0	 2144	 2040	 1785	 1611	 1653	 1911	 2166	 2723	 3450	 4220	 4712	 4664	 3950	 3091	 2348	 1732	 1311	921.4	628.3	461.7	561.6	 1238	 2907	 8756	 2598	34.13	8.470	6.210	4.792	4.059	3.404	2.960	2.513	2.382	2.486	2.756	2.742	2.944	3.250	3.531	3.937	4.481	4.930	5.406	6.015	6.583	6.408	6.756	6.481	6.039	5.897	6.716	7.219	7.553	8.742	9.139	10.38	11.12	13.01	14.58	16.85	18.77	21.14	24.00	25.36	25.60	25.66	25.63	24.02	21.77	19.86	17.60	16.28	14.40	12.61	11.00	9.943
340.0	 2119	 2048	 1833	 1648	 1644	 1879	 2136	 2672	 3317	 4030	 4496	 4519	 3957	 3227	 2524	 1898	 1452	 1129	780.6	521.3	407.3	455.4	826.0	 4198	 9536	 2092	26.21	8.102	5.773	4.573	3.694	3.186	3.007	2.409	2.602	2.802	2.861	2.977	3.153	3.199	3.680	4.232	4.687	5.204	5.879	6.548	6.497	7.015	6.849	6.370	5.952	6.802	7.219	7.459	8.338	9.233	10.33	11.08	12.81	14.52	16.30	18.36	20.37	22.42	24.08	24.39	24.83	24.95	23.79	22.27	20.30	18.71	17.56	15.14	13.45	11.78	10.96
345.0	 2027	 2052	 1865	 1691	 1650	 1826	 2093	 2577	 3186	 3832	 4288	 4356	 3926	 3296	 2644	 2039	 1557	 1256	947.9	635.3	442.6	338.9	341.2	 1192	 5848	 9280	328.4	17.23	6.836	5.386	4.246	3.354	3.004	2.625	2.644	2.675	2.680	2.915	3.123	3.075	3.528	4.005	4.609	4.922	5.624	6.296	6.627	7.087	7.050	6.261	6.123	6.995	7.322	7.133	8.035	8.925	9.890	10.90	12.44	14.13	15.88	17.84	19.21	21.22	22.81	23.54	24.05	24.23	23.07	22.04	20.53	19.32	18.27	15.98	14.36	12.70	11.36
350.0	 1971	 2045	 1874	 1700	 1634	 1769	 2012	 2444	 2984	 3569	 4010	 4115	 3810	 3297	 2727	 2160	 1700	 1358	 1106	832.4	568.7	407.1	308.9	422.5	 1570	 5161	 7224	 3240	25.06	7.537	5.604	4.362	3.518	2.888	2.720	2.745	2.728	2.845	2.925	3.006	3.386	3.844	4.208	4.876	5.283	6.261	6.251	7.134	6.951	6.415	6.341	7.213	7.253	7.446	8.035	8.689	9.720	10.67	12.02	13.44	15.11	16.46	18.42	20.25	21.55	21.90	22.21	22.91	22.11	21.37	19.97	19.68	18.69	16.96	15.09	13.79	12.62
355.0	 1927	 2049	 1886	 1714	 1590	 1694	 1914	 2261	 2761	 3288	 3705	 3852	 3637	 3227	 2760	 2243	 1816	 1479	 1213	 1001	758.0	527.2	383.5	316.9	492.5	 1254	 2825	 8546	 2450	33.09	8.125	5.448	4.047	3.362	2.946	2.790	2.916	2.932	2.862	3.002	3.299	3.496	4.046	4.737	5.415	6.020	6.118	6.692	6.987	6.644	6.368	7.246	7.224	7.735	7.848	8.499	9.529	10.25	11.18	12.25	13.78	15.23	16.96	18.32	19.57	20.22	20.98	21.30	21.27	20.82	20.21	19.45	18.61	17.56	15.67	14.60	13.54
360.0	 1889	 2014	 1886	 1720	 1572	 1628	 1836	 2144	 2594	 3079	 3484	 3639	 3503	 3169	 2746	 2276	 1889	 1571	 1304	 1080	887.3	646.6	451.9	341.7	290.2	393.0	740.0	 4037	 9219	 2016	25.09	6.544	4.886	3.584	3.314	2.975	2.924	2.927	3.037	3.023	3.350	3.508	4.050	4.730	5.191	6.074	5.885	6.730	6.763	6.797	6.255	7.361	7.286	7.261	7.599	8.226	9.116	9.976	10.49	11.63	13.42	14.60	16.11	17.24	18.59	18.90	20.07	20.30	20.49	19.89	19.72	18.91	18.42	17.48	15.66	14.84	14.09
365.0	 1853	 1975	 1886	 1707	 1555	 1596	 1764	 2044	 2454	 2897	 3286	 3446	 3360	 3074	 2702	 2288	 1934	 1647	 1383	 1148	962.5	770.2	546.8	394.7	282.5	231.7	255.7	 1072	 5768	 8941	315.4	15.93	6.202	4.560	3.655	3.098	3.007	3.037	2.891	2.997	3.192	3.763	3.978	4.628	5.026	6.017	6.177	6.776	6.650	6.526	6.442	7.227	7.303	7.621	7.469	8.053	8.892	9.691	9.991	11.24	12.61	14.02	14.98	16.23	17.91	17.51	18.53	19.18	19.47	19.24	18.39	18.84	17.82	17.79	16.55	15.26	14.63
370.0	 1847	 1985	 1874	 1708	 1545	 1564	 1681	 1925	 2276	 2678	 3027	 3205	 3163	 2943	 2625	 2274	 1972	 1716	 1485	 1257	 1042	873.8	697.6	497.4	347.9	249.0	188.4	325.5	 1502	 5151	 7318	 2969	21.66	6.305	4.625	3.804	3.224	3.200	3.058	3.125	3.366	3.770	3.875	4.566	5.066	6.042	6.216	6.672	6.866	6.452	6.494	7.549	7.417	7.223	7.495	7.730	8.600	9.139	9.839	10.58	11.73	12.78	14.19	15.01	16.36	16.62	17.26	17.96	18.20	18.24	18.01	18.09	17.46	16.75	15.99	15.27	15.18
375.0	 1818	 1978	 1885	 1720	 1551	 1517	 1598	 1811	 2094	 2445	 2773	 2949	 2931	 2774	 2528	 2226	 1982	 1765	 1564	 1351	 1134	945.5	798.8	634.4	435.6	304.6	220.7	194.9	416.1	 1218	 2995	 8535	 2137	27.02	6.330	4.717	3.891	3.386	3.258	3.197	3.452	3.741	3.986	4.627	5.293	6.037	6.145	6.640	6.873	6.292	6.249	7.801	7.608	7.259	7.482	7.721	8.148	8.820	9.364	9.971	11.01	11.79	12.75	14.08	14.75	15.62	16.26	16.48	17.12	17.21	17.29	16.97	16.62	16.22	15.57	15.51	15.42
380.0	 1788	 1960	 1871	 1733	 1572	 1522	 1541	 1709	 1957	 2283	 2580	 2740	 2765	 2637	 2441	 2174	 1974	 1782	 1598	 1403	 1189	996.6	834.1	704.9	514.4	354.5	254.8	190.2	193.9	341.9	753.8	 4234	 8468	 1667	18.82	5.623	4.389	3.577	3.290	3.356	3.357	3.583	4.053	4.626	5.017	5.969	6.070	6.692	6.665	6.399	6.411	7.723	7.692	7.568	7.307	7.583	8.171	8.675	8.889	9.471	10.47	11.07	12.07	13.34	13.68	14.44	15.30	15.73	15.84	16.08	16.28	16.30	16.33	15.64	15.22	15.06	14.90
385.0	 1764	 1928	 1837	 1733	 1566	 1502	 1508	 1638	 1837	 2133	 2414	 2578	 2604	 2513	 2342	 2115	 1929	 1773	 1610	 1429	 1227	 1033	864.3	721.6	584.7	401.3	291.5	212.4	166.3	162.8	226.2	 1108	 5614	 7443	254.4	10.05	5.130	4.360	3.746	3.568	3.328	3.840	3.942	4.710	5.202	5.702	5.952	6.680	6.927	6.534	6.452	7.847	7.465	7.524	7.432	7.422	7.744	8.365	8.412	9.406	9.635	10.43	11.11	12.22	12.55	13.58	14.07	15.01	14.61	15.40	15.44	15.36	15.81	15.26	14.89	14.82	14.65
390.0	 1694	 1853	 1831	 1716	 1566	 1467	 1461	 1541	 1705	 1945	 2198	 2357	 2399	 2323	 2185	 2007	 1866	 1736	 1590	 1433	 1250	 1063	898.1	743.1	613.8	488.1	353.3	256.5	192.2	151.3	130.3	298.2	 1450	 4503	 5821	994.8	17.60	5.657	4.396	3.944	3.718	3.870	4.021	4.498	4.896	5.641	5.993	6.646	6.947	6.346	6.469	7.487	7.591	7.371	7.320	7.456	7.796	8.076	8.333	8.543	8.985	9.772	10.22	11.15	11.95	12.52	12.83	13.54	13.73	14.11	14.48	14.60	14.73	14.20	13.95	14.16	14.18
395.0	 1613	 1816	 1787	 1687	 1542	 1434	 1400	 1434	 1560	 1767	 1982	 2116	 2168	 2121	 2022	 1881	 1775	 1668	 1537	 1406	 1244	 1076	921.6	771.7	633.4	526.3	431.8	311.2	232.8	179.1	134.6	138.6	369.0	 1046	 2545	 6639	 1737	22.06	5.904	4.532	4.306	3.984	4.141	4.444	4.807	5.338	5.917	6.744	6.602	6.454	6.258	7.490	7.688	7.373	6.954	7.285	7.668	7.666	7.801	8.119	8.531	9.042	9.535	10.29	10.64	11.01	11.61	12.48	12.63	12.51	12.94	13.41	13.72	13.38	13.32	13.03	13.21
400.0	 1563	 1767	 1724	 1667	 1521	 1417	 1359	 1364	 1478	 1639	 1830	 1954	 2009	 1976	 1891	 1778	 1686	 1596	 1487	 1367	 1221	 1068	922.7	779.4	643.6	531.4	466.7	364.9	266.7	206.3	154.0	117.0	140.6	272.8	632.1	 3578	 6682	 1317	15.83	5.523	4.954	4.369	4.333	4.469	4.939	5.424	5.777	6.622	6.412	6.003	6.330	7.333	7.650	7.378	6.978	7.423	7.806	7.654	7.555	7.832	8.085	8.436	8.786	9.523	10.02	10.44	11.02	11.04	11.56	12.07	12.04	12.45	12.82	12.54	12.66	12.40	12.79
405.0	 1519	 1682	 1681	 1629	 1488	 1394	 1336	 1330	 1401	 1531	 1696	 1820	 1866	 1841	 1767	 1672	 1595	 1515	 1426	 1319	 1188	 1046	911.2	778.9	646.3	537.7	467.4	406.7	308.4	230.7	176.1	128.2	104.8	110.9	177.2	939.6	 4534	 5759	216.6	9.487	5.404	4.571	4.703	4.417	4.664	5.218	5.311	6.315	6.258	6.029	6.223	7.346	7.538	7.200	7.073	7.115	7.254	7.366	7.699	7.685	7.863	7.760	8.328	8.910	9.260	9.400	10.04	10.32	11.15	11.15	11.08	11.47	11.93	11.93	11.94	12.02	12.13
410.0	 1409	 1576	 1617	 1562	 1450	 1358	 1294	 1261	 1302	 1402	 1536	 1651	 1684	 1667	 1610	 1525	 1469	 1405	 1330	 1241	 1126	 1001	881.8	765.3	647.4	547.4	468.5	413.6	357.9	272.9	205.1	152.3	114.5	91.04	87.77	245.9	 1181	 3710	 4634	892.2	15.57	5.406	4.925	4.788	4.717	5.141	5.242	6.047	6.063	5.841	6.021	7.136	7.203	7.222	6.936	6.957	7.172	7.244	7.223	7.520	7.344	7.577	7.962	8.320	8.414	8.592	9.147	9.499	9.862	10.02	10.42	10.44	10.97	10.63	10.87	11.11	11.10
415.0	 1286	 1450	 1497	 1486	 1383	 1291	 1232	 1186	 1204	 1283	 1385	 1472	 1500	 1498	 1441	 1371	 1330	 1276	 1216	 1139	 1040	936.3	837.1	734.2	635.4	549.5	475.8	412.3	368.4	326.3	241.8	177.6	134.6	102.5	81.51	100.3	298.0	865.1	 2207	 5190	 1424	19.27	5.583	5.028	4.738	4.907	5.014	5.689	5.779	5.697	5.746	6.675	6.865	6.832	6.530	7.014	7.010	7.029	6.942	6.904	7.105	7.075	7.262	7.568	7.801	8.073	8.409	8.475	8.688	9.160	9.409	9.604	9.811	9.340	9.767	9.916	10.20
420.0	 1206	 1367	 1440	 1406	 1324	 1246	 1190	 1131	 1139	 1202	 1291	 1353	 1381	 1363	 1315	 1258	 1219	 1178	 1129	 1060	975.5	886.1	799.5	708.9	623.4	542.2	476.0	415.0	364.3	338.9	275.8	197.6	149.1	113.7	87.26	74.68	106.9	222.2	548.2	 2944	 5148	227.1	13.59	5.291	4.899	5.079	5.112	5.376	5.511	5.471	5.453	6.551	6.405	6.539	6.638	6.469	6.790	6.540	6.815	6.512	6.740	6.742	6.743	7.169	7.458	7.405	7.597	7.871	8.140	8.591	8.561	9.046	9.376	9.046	8.739	9.026	9.411
425.0	 1116	 1279	 1377	 1349	 1277	 1204	 1147	 1076	 1086	 1126	 1199	 1256	 1270	 1259	 1212	 1162	 1126	 1092	 1048	992.6	917.5	840.0	761.3	684.5	604.8	535.3	473.7	416.6	364.4	331.5	299.4	222.5	162.2	124.8	96.73	75.65	69.99	83.46	145.8	784.4	 3789	 4187	196.6	7.587	5.182	4.985	4.968	5.393	5.394	5.120	5.500	6.486	6.394	6.434	6.263	6.431	6.613	6.097	6.712	6.074	6.361	6.618	6.632	6.820	6.669	6.793	7.097	7.341	7.407	8.010	7.730	8.240	8.545	8.322	8.273	8.458	8.738
430.0	 1035	 1199	 1273	 1270	 1202	 1156	 1095	 1031	 1016	 1046	 1099	 1144	 1153	 1137	 1094	 1051	 1016	988.3	952.1	901.6	839.1	773.9	710.1	647.6	580.9	520.6	468.0	417.0	369.5	330.7	297.0	253.1	188.1	140.8	109.4	85.72	70.26	60.07	61.78	195.0	 1009	 2980	 2907	799.5	13.99	5.449	5.061	5.204	5.301	5.000	5.128	6.097	6.100	6.076	6.063	6.135	6.199	6.010	6.247	5.952	6.061	6.011	6.123	6.472	6.295	6.442	6.609	6.713	6.985	7.142	7.256	7.415	7.722	7.470	7.525	7.689	8.021
435.0	 1026	 1068	 1157	 1197	 1132	 1093	 1034	985.4	964.2	975.0	 1015	 1043	 1044	 1022	980.1	939.6	907.7	886.0	851.7	812.6	763.5	711.0	655.5	603.5	547.1	501.4	453.9	410.2	369.5	329.9	291.9	255.9	220.4	161.4	122.7	97.59	78.28	61.87	49.08	68.24	242.2	688.6	 1693	 4655	 1258	16.55	5.569	5.461	5.134	4.975	4.841	5.588	5.696	5.749	5.822	5.773	6.206	5.766	5.908	5.913	5.644	5.635	5.914	5.733	6.079	5.741	5.935	6.014	6.242	6.500	6.321	6.781	6.813	6.744	7.135	6.953	7.416
440.0	 1168	 1004	 1100	 1129	 1083	 1054	 1000	940.6	926.3	921.7	954.6	971.5	971.3	944.6	897.9	857.9	838.9	813.1	783.2	754.4	709.3	662.8	618.1	571.5	522.7	482.3	442.5	403.2	368.4	330.8	291.7	250.4	224.5	182.0	132.1	104.1	83.73	66.19	49.44	42.54	73.64	168.5	430.2	 2979	 4493	205.2	9.774	5.820	5.281	4.940	4.884	5.402	5.394	5.555	5.554	5.314	5.792	5.723	5.882	5.416	5.357	5.658	5.588	5.380	5.601	5.452	5.660	5.813	6.061	6.093	6.115	6.261	6.288	6.199	6.498	6.307	6.629
445.0	 1451	990.6	 1042	 1052	 1024	 1001	951.5	904.1	883.2	884.5	898.7	912.9	904.5	878.7	834.7	792.6	771.1	750.9	724.9	697.5	656.3	619.2	579.7	542.3	499.0	464.0	427.4	393.7	361.0	325.9	288.0	247.5	216.7	192.9	145.2	110.1	88.69	70.16	52.80	39.70	38.91	54.43	109.0	834.9	 3742	 3490	149.4	6.970	5.487	4.852	4.735	5.367	5.310	5.376	5.355	5.103	5.598	5.566	5.745	5.102	5.174	5.277	5.389	5.290	5.514	5.353	5.460	5.584	5.459	5.533	5.536	5.946	5.869	5.911	6.023	6.123	6.243
450.0	 1472	 1263	953.2	968.9	946.0	919.4	890.4	839.2	819.3	817.7	823.3	829.1	812.8	786.5	744.2	701.0	683.9	664.6	645.3	620.5	587.0	556.4	526.5	493.5	460.9	428.7	400.4	371.0	344.4	315.3	279.2	241.8	206.9	183.7	157.1	121.8	93.97	74.00	57.68	43.19	34.86	32.27	39.54	198.9	 1018	 2852	 2697	683.5	12.06	5.071	4.733	5.086	5.108	5.281	5.017	5.076	5.308	5.304	5.271	5.023	5.096	4.958	4.987	4.861	5.043	4.903	4.858	5.047	5.035	5.187	5.163	5.260	5.374	5.260	5.223	5.435	5.607
455.0	 1018	 1687	 1018	880.0	857.4	843.7	811.9	775.7	751.8	752.6	748.0	743.1	723.9	691.2	652.4	616.3	596.9	579.0	562.3	543.7	517.6	493.0	470.2	442.7	415.4	390.8	369.2	344.2	322.4	296.9	268.0	233.9	199.1	170.5	150.6	135.2	103.4	78.28	61.75	47.42	37.38	30.36	26.93	58.42	238.2	662.1	 1649	 3870	 1023	13.30	4.866	5.096	4.963	4.786	4.677	4.690	5.115	5.049	4.912	4.702	4.600	4.462	4.844	4.556	4.642	4.346	4.390	4.688	4.664	4.872	4.635	4.627	4.768	4.520	4.768	4.783	4.866
460.0	699.6	 1675	 1295	816.7	785.1	784.2	757.5	723.9	709.8	700.2	690.5	688.1	662.0	628.2	592.0	558.1	537.6	519.5	506.2	489.8	468.7	446.0	427.5	407.4	381.4	362.1	342.2	322.0	301.9	281.9	255.3	224.6	192.4	162.5	142.1	133.6	110.4	81.75	63.80	50.80	39.94	31.95	25.24	28.71	65.47	157.7	414.9	 2454	 3643	160.5	9.104	5.254	4.849	4.616	4.666	4.212	4.791	4.684	4.715	4.360	4.393	4.352	4.559	4.262	4.222	4.008	4.314	4.173	4.337	4.374	4.421	4.338	4.367	4.376	4.261	4.561	4.415
465.0	560.0	 1304	 1681	840.6	735.4	732.7	708.4	678.6	659.7	657.2	643.9	634.8	610.8	576.5	537.9	508.2	486.3	470.0	456.6	445.8	425.9	406.7	390.8	374.4	354.6	336.2	319.8	301.7	283.1	267.7	245.6	213.8	185.0	158.0	136.7	123.8	113.6	87.50	65.94	53.68	41.38	33.75	26.37	23.15	28.02	45.98	102.0	677.1	 3067	 2765	128.6	6.359	5.006	4.464	4.365	4.377	4.609	4.373	4.378	4.273	4.102	4.119	4.267	4.210	4.037	3.885	4.224	4.024	3.921	3.894	4.049	3.954	3.967	3.888	4.218	4.008	4.120
470.0	477.4	781.8	 1675	 1232	680.4	651.8	643.0	620.1	601.5	593.2	580.6	565.9	538.5	509.3	472.9	444.9	424.4	410.4	396.1	385.7	372.0	356.4	345.1	331.5	316.0	300.6	288.7	272.9	257.8	244.5	224.2	198.2	173.2	148.4	129.0	112.5	104.1	91.76	71.32	53.79	43.74	35.28	28.27	23.63	21.27	22.25	32.42	159.5	837.4	 2221	 1977	625.2	11.56	4.798	4.347	4.212	4.331	4.090	4.018	3.998	3.914	3.783	4.010	3.841	3.708	3.589	3.746	3.577	3.483	3.576	3.551	3.516	3.516	3.579	3.505	3.588	3.705
475.0	407.9	541.7	 1049	 1785	796.2	574.9	575.1	558.9	545.0	528.5	514.1	504.5	474.4	451.7	412.9	385.1	368.6	351.3	340.1	332.6	322.5	309.4	301.1	290.8	278.5	266.3	255.2	243.7	230.5	220.1	203.9	180.4	159.0	138.1	121.0	104.6	93.26	86.35	77.62	57.37	44.81	36.05	29.72	24.42	20.59	18.05	18.13	44.40	193.8	511.3	 1126	 2778	857.5	13.51	4.307	4.055	4.150	3.844	3.795	3.626	3.590	3.625	3.436	3.360	3.526	3.222	3.306	3.358	3.292	3.356	3.080	3.060	3.150	3.130	3.172	3.145	3.192
480.0	389.7	458.8	643.5	 1722	 1159	546.6	524.7	513.8	504.2	492.6	477.7	464.3	433.3	405.9	374.8	347.1	329.7	318.2	306.1	298.4	289.2	280.4	272.4	263.7	253.0	243.1	234.2	222.5	212.2	202.6	187.8	168.7	150.2	130.9	113.7	100.1	89.21	78.91	75.41	61.82	46.22	36.57	30.44	25.24	21.34	17.34	15.33	19.37	50.84	120.8	281.8	 1602	 2647	179.8	8.806	4.190	3.933	3.678	3.618	3.459	3.438	3.455	3.288	3.298	3.249	2.876	3.026	3.092	2.975	3.034	3.021	2.849	3.092	2.998	2.895	2.837	2.990
485.0	357.0	407.6	478.5	 1209	 1612	602.6	493.4	477.6	462.1	455.7	441.3	423.4	400.9	369.3	342.3	314.3	299.5	289.3	281.3	272.0	263.6	255.6	248.0	241.9	232.4	222.9	214.5	205.8	198.2	187.9	175.8	157.1	141.1	124.4	108.7	95.32	85.85	74.40	68.92	63.85	49.41	37.99	31.12	26.26	22.47	18.40	15.14	14.59	19.37	33.79	69.31	424.1	 2091	 1545	146.8	5.376	4.087	3.720	3.614	3.231	3.070	3.098	2.941	3.140	3.159	2.866	2.827	2.896	2.753	2.778	2.850	2.736	2.849	2.709	2.835	2.677	2.768
490.0	308.3	368.8	410.1	657.3	 1556	 1093	466.7	431.4	423.5	411.2	399.8	382.2	355.6	330.8	302.7	276.2	265.2	255.6	247.9	237.6	230.1	225.0	219.1	213.8	206.1	199.1	191.7	184.7	177.3	169.4	158.7	143.5	128.1	114.8	101.2	89.74	80.53	70.13	62.04	58.27	52.86	41.58	32.24	27.00	22.72	19.44	16.02	14.01	13.29	15.01	22.04	100.7	552.3	 1442	 1863	628.5	11.99	3.923	3.503	3.316	3.185	3.064	2.764	2.913	2.835	2.748	2.687	2.637	2.589	2.638	2.579	2.563	2.607	2.532	2.546	2.405	2.615
495.0	273.2	336.9	362.4	422.5	902.6	 1650	640.7	390.5	381.4	370.7	358.9	343.3	312.9	292.4	263.4	239.6	229.4	220.4	214.1	207.7	198.5	196.6	188.5	185.2	181.5	174.8	168.2	162.4	157.7	149.9	142.4	130.6	115.6	104.1	92.49	83.02	74.12	65.04	57.65	51.72	49.14	44.34	34.19	27.57	23.17	19.91	16.92	14.49	12.35	11.33	11.99	28.69	128.7	333.5	 1040	 2522	900.6	13.98	3.786	3.334	3.038	2.919	2.548	2.709	2.510	2.456	2.357	2.432	2.296	2.312	2.231	2.247	2.358	2.355	2.124	2.180	2.243
500.0	237.6	295.8	331.3	348.5	505.2	 1540	 1098	365.9	348.5	336.4	326.6	309.0	286.2	261.4	236.2	216.7	203.0	195.1	188.4	184.2	176.1	172.9	171.2	166.6	161.7	154.6	150.9	145.3	141.6	136.2	128.6	119.0	106.2	95.35	84.90	77.58	68.33	60.71	54.12	48.08	43.88	43.51	36.55	27.59	22.88	19.78	16.99	14.79	12.62	10.79	10.17	12.85	34.28	79.65	257.5	 1419	 2505	197.1	8.946	3.366	2.954	2.747	2.487	2.493	2.429	2.321	2.249	2.219	2.043	2.278	2.100	2.058	2.057	2.197	2.107	1.968	2.105
505.0	225.4	257.7	307.1	309.3	348.2	 1024	 1601	461.4	315.3	305.6	297.3	283.5	262.7	236.5	211.3	193.0	183.1	175.0	170.1	163.6	157.2	154.8	151.7	149.9	143.6	139.4	136.1	130.9	127.6	123.3	117.0	107.9	96.13	88.01	77.62	70.92	63.76	58.12	50.31	44.54	39.81	38.87	37.44	28.96	22.71	19.55	17.24	14.57	12.88	10.87	9.614	9.590	13.32	23.25	62.76	370.4	 1818	 1666	161.1	4.535	3.075	2.580	2.479	2.361	2.260	2.119	2.141	2.035	1.844	2.219	2.077	1.914	1.937	1.842	1.836	1.870	1.887
510.0	186.8	217.6	269.7	273.6	279.0	485.6	 1444	 1037	311.2	271.3	261.1	246.9	228.0	204.8	183.7	166.7	158.5	151.1	144.3	141.4	136.5	133.1	130.6	127.1	125.1	121.0	116.8	113.2	110.2	107.6	102.2	93.28	84.38	77.73	69.08	63.09	57.27	51.45	45.89	41.39	36.65	33.23	32.73	30.47	24.26	19.36	16.60	14.42	12.59	11.04	9.640	8.809	8.721	10.47	18.92	87.26	470.2	 1253	 1613	605.8	11.77	2.868	2.463	2.314	2.171	2.008	1.882	1.941	1.811	1.837	1.891	1.738	1.702	1.627	1.748	1.787	1.670
515.0	154.2	181.0	218.9	236.0	239.8	282.6	709.1	 1551	567.0	240.2	223.5	213.0	195.7	174.5	157.2	143.0	133.9	128.4	122.2	119.2	115.5	112.8	111.9	108.5	105.5	101.9	99.38	96.77	94.02	90.44	88.04	81.43	73.84	68.12	60.66	54.68	50.66	46.23	41.14	36.55	33.06	30.05	27.54	27.54	25.78	19.80	16.02	13.94	12.31	10.55	9.485	8.336	7.533	7.601	8.760	23.90	108.7	285.8	725.4	 1901	781.7	13.86	2.424	2.225	1.983	1.927	1.724	1.723	1.673	1.599	1.613	1.450	1.601	1.460	1.521	1.555	1.642
520.0	144.7	156.7	191.8	215.0	209.4	217.9	348.3	 1344	 1063	236.2	202.3	191.4	176.7	158.0	141.8	127.0	117.5	113.0	108.7	105.3	102.7	99.89	98.63	96.06	94.06	91.14	88.71	85.03	83.27	81.24	78.02	72.89	66.14	60.09	55.00	49.74	45.63	41.78	38.01	33.81	30.36	27.86	25.06	24.00	25.02	20.85	15.79	13.46	11.96	10.76	9.129	8.158	7.128	6.859	6.372	9.378	28.04	66.98	174.8	 1004	 1812	196.3	7.004	2.282	2.008	1.861	1.800	1.699	1.571	1.522	1.508	1.364	1.513	1.344	1.400	1.425	1.382
525.0	125.4	143.8	166.2	188.2	192.0	190.9	223.3	801.7	 1508	378.4	182.4	172.9	157.3	139.7	125.4	115.6	105.7	100.9	97.16	94.33	92.05	89.36	86.99	86.31	84.76	81.59	78.47	75.85	74.89	72.34	68.95	64.94	59.10	53.68	49.46	45.77	41.82	37.91	34.85	31.85	28.27	25.50	23.17	20.95	21.87	20.92	16.80	13.08	11.37	9.829	8.746	8.040	7.284	6.680	5.780	6.226	9.834	18.15	42.00	255.1	 1210	 1503	154.9	3.552	2.088	1.763	1.558	1.557	1.544	1.486	1.376	1.338	1.457	1.349	1.232	1.226	1.336
530.0	105.1	129.3	141.1	155.4	176.0	169.8	175.7	341.8	 1234	 1018	187.6	151.0	136.3	120.5	107.9	99.82	91.68	87.06	83.33	80.87	78.14	76.79	74.05	73.58	71.57	69.05	67.56	65.62	64.45	62.55	60.45	56.40	51.22	46.86	43.13	40.15	36.64	33.25	30.59	28.05	25.17	22.99	20.75	18.74	18.03	18.55	17.32	13.50	10.75	9.360	8.436	7.663	6.650	6.174	5.615	5.548	5.732	7.255	12.23	59.53	304.9	923.3	 1203	447.5	10.74	1.917	1.579	1.495	1.547	1.401	1.313	1.259	1.223	1.193	1.179	1.136	1.188
535.0	97.46	112.6	118.8	127.8	142.9	154.9	147.1	185.3	530.7	 1417	582.8	131.1	116.3	102.9	94.57	85.65	77.90	74.17	71.90	68.46	66.18	64.29	63.95	62.55	60.91	59.49	56.54	54.43	54.68	53.46	52.22	47.99	44.01	39.70	37.10	35.11	32.28	28.96	26.94	24.60	22.41	20.22	18.17	16.82	15.47	15.07	15.62	14.48	10.90	8.736	7.781	7.106	6.049	5.808	5.412	5.009	4.550	4.703	5.290	15.82	70.19	209.5	488.6	 1321	221.4	12.79	1.795	1.575	1.385	1.261	1.350	1.096	1.093	1.131	1.113	1.116	1.060
540.0	96.63	103.1	105.7	112.1	120.7	144.7	133.7	137.0	237.0	 1104	 1115	152.1	105.2	92.93	84.23	76.00	69.38	65.64	62.39	60.24	58.82	57.64	56.36	54.69	52.96	52.10	50.40	47.90	48.03	47.43	45.22	42.32	38.42	35.91	33.46	30.66	29.12	26.19	24.32	22.51	20.26	18.54	16.87	15.29	14.08	13.12	13.33	13.80	11.31	8.760	7.486	6.827	5.797	5.351	5.018	4.841	4.302	3.963	3.843	5.937	17.73	48.77	115.9	657.3	 1240	196.5	6.429	1.575	1.311	1.224	1.304	1.119	1.105	0.972	1.021	1.081	1.027
545.0	86.80	92.13	89.13	104.5	103.7	127.7	127.6	122.9	146.3	608.2	 1424	373.6	95.42	83.68	73.66	67.42	61.82	58.57	55.14	54.10	52.97	50.53	49.89	49.39	46.92	46.46	44.95	43.90	43.33	42.49	40.67	38.29	34.90	31.83	29.90	27.70	25.80	23.57	22.32	20.07	18.89	16.96	15.65	14.07	12.70	12.02	11.61	12.00	11.76	8.632	7.186	6.259	5.651	5.249	4.873	4.686	4.232	3.574	3.271	3.671	6.016	12.72	27.85	164.5	811.5	 1099	29.57	2.557	1.333	1.260	1.193	1.068	1.085	1.008	0.963	0.988	1.034
550.0	86.36	84.70	83.47	94.02	94.27	111.6	123.9	117.0	126.5	262.1	 1011	998.4	119.5	73.13	64.48	57.68	53.23	51.11	47.93	45.38	44.77	44.14	42.20	41.73	40.33	39.31	38.55	37.04	36.54	36.00	34.85	32.92	29.91	27.84	25.66	23.88	22.14	20.53	19.11	17.66	16.48	14.86	13.75	12.64	11.52	10.64	9.999	9.815	10.19	9.342	7.166	6.002	5.101	4.810	4.532	4.352	3.942	3.511	3.124	2.995	3.326	4.801	8.130	38.49	203.1	637.2	835.4	331.0	10.09	1.331	1.121	0.995	1.024	0.916	0.940	0.880	0.989
555.0	114.8	98.96	93.21	92.37	94.28	107.0	130.4	141.3	159.4	208.1	472.0	 1230	587.0	67.14	53.48	48.75	43.40	42.13	40.37	38.39	37.46	36.27	34.92	34.24	33.47	32.68	31.66	31.31	30.96	29.67	29.20	27.58	24.72	23.28	21.61	19.83	18.82	17.40	16.21	15.24	13.84	13.13	11.82	11.03	10.12	9.468	8.495	8.051	8.006	8.394	7.601	5.883	4.769	4.280	4.193	4.036	3.626	3.458	3.226	3.098	2.812	3.097	3.711	10.42	47.18	144.8	323.2	900.4	223.3	11.72	1.279	1.021	1.034	0.955	0.953	0.815	0.917
560.0	149.1	114.3	110.7	98.84	97.32	108.3	136.8	167.7	202.3	249.8	324.1	939.7	 1043	101.3	47.59	42.37	37.90	36.04	34.09	32.92	32.39	31.30	30.61	28.84	28.51	28.27	27.04	26.36	26.44	25.86	24.74	23.42	21.38	20.17	18.31	17.40	16.34	15.30	14.25	13.22	12.23	11.52	10.71	9.667	8.954	8.175	7.974	7.171	6.777	7.109	7.293	6.023	4.624	3.965	3.858	3.787	3.450	3.219	3.118	3.006	2.801	2.997	3.053	4.447	12.60	34.42	76.92	428.0	853.2	179.5	4.526	1.090	1.041	0.896	0.804	0.759	0.768
565.0	166.6	130.1	112.2	95.64	101.9	109.5	140.6	192.7	240.9	301.2	334.7	588.1	 1242	370.7	42.65	36.54	34.37	30.88	29.61	28.51	27.85	26.67	25.75	24.73	24.62	24.14	23.08	23.04	22.48	22.27	20.96	20.18	18.95	17.22	15.97	14.99	14.03	13.10	12.62	11.57	10.97	9.944	9.504	8.652	8.159	7.581	7.263	6.413	5.773	5.644	6.372	5.950	4.550	3.915	3.543	3.425	3.096	3.074	2.850	2.997	2.831	2.983	3.124	3.545	5.248	10.16	19.43	106.4	522.8	724.3	29.78	1.763	1.053	0.866	0.762	0.799	0.770
570.0	199.7	150.7	118.6	93.86	99.10	114.9	149.2	214.0	292.1	368.4	400.3	410.7	821.7	891.9	77.11	30.13	27.39	25.38	24.10	22.69	22.49	21.66	21.14	20.00	19.40	18.73	18.60	18.64	18.13	17.61	16.77	16.20	14.78	13.90	12.97	12.32	11.43	10.79	10.26	9.412	8.769	8.299	7.891	7.125	6.964	6.509	5.988	5.519	5.152	4.673	4.637	4.987	4.535	3.785	3.157	3.115	2.962	2.864	2.825	2.826	2.971	3.108	3.272	3.508	4.070	4.864	6.989	26.11	129.8	397.1	504.2	127.1	8.350	0.884	0.838	0.792	0.730
575.0	234.2	178.8	125.5	98.79	104.8	128.6	165.3	235.0	342.2	441.6	476.3	410.2	391.7	882.7	549.9	28.19	21.84	19.90	18.90	17.73	17.32	16.22	16.44	15.52	15.09	14.60	14.04	14.37	14.07	13.37	13.49	12.58	11.46	10.77	10.59	9.827	9.120	8.726	7.970	7.474	7.286	6.749	6.489	5.750	5.816	5.371	5.002	4.683	4.102	3.767	3.547	3.735	4.175	3.731	2.968	2.717	2.752	2.635	2.748	2.722	2.953	3.335	3.338	3.852	3.798	3.868	4.357	8.391	30.92	90.44	191.8	494.3	198.9	7.154	0.803	0.832	0.687
580.0	257.2	195.5	137.9	111.5	116.0	137.4	178.2	256.0	365.9	484.8	515.2	431.8	263.6	564.4	910.1	70.72	19.22	16.43	15.66	15.30	14.51	13.72	13.54	12.89	12.73	11.88	11.76	12.23	11.24	11.13	11.30	10.62	9.606	8.869	8.799	8.069	7.606	7.304	6.704	6.347	6.286	5.900	5.330	5.073	4.978	4.675	4.322	4.053	3.734	3.374	3.069	2.948	3.363	3.646	3.027	2.470	2.502	2.391	2.453	2.597	2.854	3.146	3.501	4.105	3.850	3.862	3.755	4.500	9.050	21.74	45.49	235.7	514.0	31.97	2.150	0.734	0.763
585.0	260.1	198.8	142.4	119.8	125.2	143.7	180.4	256.5	376.4	506.7	536.9	453.6	242.4	285.2	895.5	353.4	17.49	14.46	13.93	13.54	12.13	11.28	11.10	10.85	10.74	10.59	10.29	10.27	9.713	9.390	9.628	8.803	8.171	7.953	7.162	7.026	6.536	6.013	5.842	5.829	5.337	5.271	4.772	4.669	4.285	4.125	3.769	3.796	3.162	2.990	2.802	2.545	2.723	3.285	3.014	2.369	2.351	2.312	2.424	2.482	2.754	3.054	3.582	3.603	3.981	3.849	3.680	3.535	3.919	6.390	11.35	58.67	310.0	369.5	27.22	1.150	0.747
590.0	280.8	206.1	147.9	119.0	126.6	144.4	178.7	252.2	367.0	502.0	546.2	463.1	243.8	141.9	473.9	720.7	113.2	12.15	11.23	10.96	10.07	9.450	9.211	8.949	8.703	8.335	8.505	8.369	7.688	7.768	7.462	6.898	6.591	6.294	5.719	5.598	5.220	5.168	4.917	4.803	4.469	4.511	3.999	3.865	3.727	3.468	3.398	3.158	2.850	2.570	2.370	2.263	2.244	2.585	2.778	2.543	2.220	2.180	2.287	2.403	2.811	2.960	3.269	3.641	3.897	3.706	3.527	3.390	2.885	2.871	3.663	14.02	76.49	209.1	246.4	104.4	5.781
595.0	265.6	204.1	149.6	121.3	125.2	142.6	172.3	240.4	355.0	478.0	530.6	453.5	243.2	107.2	158.5	595.8	492.6	14.76	9.292	9.365	8.330	7.593	7.753	7.586	6.911	6.583	6.692	6.704	6.333	6.440	5.935	5.730	5.432	5.089	4.751	4.406	4.545	4.025	4.184	3.935	3.961	3.840	3.384	3.216	3.203	3.182	2.963	2.648	2.506	2.198	2.058	1.940	1.982	2.115	2.213	2.472	2.294	2.135	1.796	2.226	2.587	2.801	3.048	3.448	3.649	3.619	3.464	3.220	2.546	1.988	1.894	3.955	17.76	47.63	98.16	278.4	125.6
600.0	252.8	193.6	152.6	122.8	121.1	141.4	165.5	232.0	328.6	446.1	508.6	435.5	239.3	103.1	69.44	323.4	747.1	55.90	8.229	7.954	6.989	7.131	6.678	6.384	6.199	5.705	5.400	5.526	5.611	5.269	5.184	4.957	4.457	4.205	4.315	3.891	3.781	3.666	3.607	3.320	3.406	3.281	2.972	2.788	2.883	2.796	2.564	2.464	2.225	1.997	1.794	1.744	2.003	1.722	1.918	2.223	2.184	2.086	1.834	2.010	2.467	2.657	2.898	3.119	3.410	3.373	3.262	3.095	2.374	1.905	1.562	1.716	4.672	11.31	23.50	133.9	265.3
605.0	245.9	186.3	148.1	116.5	120.0	140.4	157.3	218.3	309.9	416.3	472.4	414.2	233.0	102.1	49.25	133.5	662.4	319.1	7.842	6.661	6.097	5.898	5.830	5.960	5.298	5.069	4.720	4.609	4.775	4.698	4.619	4.323	4.147	3.951	3.983	3.560	3.387	3.323	3.181	2.872	2.791	2.892	2.621	2.558	2.517	2.486	2.273	2.072	1.995	1.723	1.709	1.694	1.633	1.612	1.567	1.870	2.195	2.065	1.907	1.904	2.219	2.497	2.659	2.969	3.371	3.270	3.101	2.851	2.247	1.834	1.468	1.153	1.629	3.112	5.856	33.83	162.9
610.0	222.6	175.0	137.4	110.0	113.4	133.1	144.9	200.4	281.9	372.2	427.6	376.8	223.3	102.5	46.61	49.40	307.9	588.7	106.6	5.889	5.535	4.954	5.033	4.830	4.414	4.228	4.297	4.048	4.058	3.910	4.113	3.621	3.546	3.446	3.439	3.213	3.000	2.899	2.736	2.544	2.299	2.430	2.413	2.373	2.298	2.186	2.008	1.859	1.787	1.587	1.458	1.547	1.398	1.451	1.482	1.597	1.782	1.947	1.867	1.860	1.992	2.220	2.489	2.748	2.955	2.923	2.814	2.685	2.192	1.617	1.368	1.063	1.074	1.310	1.861	8.067	40.79
615.0	193.9	153.9	127.5	103.6	104.1	125.8	135.4	174.1	245.0	327.6	369.3	336.5	210.4	100.3	48.73	29.33	90.37	424.9	442.4	11.29	4.864	4.293	4.192	4.099	3.816	3.574	3.415	3.371	3.317	3.486	3.275	3.054	2.971	2.890	3.055	2.803	2.542	2.230	2.345	2.219	1.940	1.953	1.980	2.024	1.954	1.941	1.809	1.681	1.530	1.366	1.274	1.321	1.161	1.319	1.257	1.403	1.555	1.691	1.686	1.774	1.858	2.088	2.292	2.389	2.659	2.749	2.566	2.438	2.014	1.635	1.196	1.060	0.895	0.988	1.014	2.299	9.594
620.0	184.6	144.8	116.3	97.62	103.5	115.6	124.1	163.8	227.2	301.7	333.9	306.9	199.8	100.8	50.20	26.13	31.77	205.6	632.7	50.91	4.590	3.873	3.684	3.606	3.476	3.341	2.849	3.080	3.111	2.915	2.768	2.779	2.602	2.587	2.316	2.440	2.219	2.071	1.986	1.955	1.743	1.652	1.688	1.767	1.678	1.621	1.654	1.526	1.272	1.187	1.078	1.230	1.178	1.155	1.122	1.312	1.276	1.524	1.557	1.664	1.755	1.805	2.212	2.135	2.320	2.509	2.305	2.419	1.792	1.535	1.227	1.020	0.844	0.858	0.708	1.062	2.637
625.0	161.9	139.7	109.6	90.89	100.3	107.8	113.5	153.2	209.2	271.9	303.0	283.9	188.5	99.99	51.47	27.94	19.42	77.83	504.4	313.6	5.146	3.631	3.578	3.122	2.985	2.917	2.578	2.778	2.540	2.563	2.415	2.467	2.175	2.102	2.158	2.100	1.916	1.867	1.634	1.749	1.625	1.643	1.524	1.658	1.647	1.428	1.441	1.406	1.140	1.123	1.019	1.148	1.019	1.157	1.130	1.236	1.151	1.324	1.400	1.644	1.620	1.728	1.960	2.037	2.233	2.255	2.078	2.055	1.907	1.518	1.292	1.009	0.784	0.836	0.683	0.810	1.160
630.0	148.4	121.3	94.52	82.45	89.28	100.0	104.2	138.5	188.6	241.4	274.5	251.0	172.8	101.4	54.98	30.85	19.46	27.22	208.6	523.4	99.99	3.379	2.993	2.835	2.629	2.442	2.389	2.420	2.098	2.193	2.127	2.132	1.899	2.018	1.950	1.825	1.708	1.698	1.554	1.475	1.372	1.398	1.315	1.379	1.439	1.344	1.305	1.225	1.111	0.976	0.966	0.950	1.008	1.032	1.097	1.058	1.122	1.153	1.247	1.407	1.660	1.630	1.759	1.934	2.085	1.986	2.047	1.872	1.679	1.487	1.259	1.108	0.838	0.837	0.737	0.746	0.802
635.0	129.8	110.7	88.34	78.40	81.41	91.77	95.46	121.6	169.0	212.1	238.9	222.4	160.4	101.2	60.24	34.35	21.73	17.22	58.65	319.5	398.9	8.719	2.877	2.662	2.403	2.205	2.052	1.974	1.872	2.161	1.808	1.891	1.709	1.713	1.620	1.468	1.507	1.485	1.459	1.265	1.216	1.295	1.154	1.206	1.248	1.242	1.146	1.114	0.966	0.908	0.870	0.897	0.929	0.877	0.913	1.009	1.054	1.075	1.049	1.292	1.403	1.516	1.554	1.643	1.789	1.786	1.952	1.653	1.543	1.320	1.115	1.202	0.862	0.803	0.725	0.751	0.753
640.0	123.9	95.05	79.80	72.99	72.36	83.94	90.88	117.9	154.7	193.4	220.9	205.0	148.7	99.42	65.98	37.48	23.86	16.33	21.93	137.3	536.8	45.72	2.894	2.479	2.194	2.077	1.840	1.852	1.782	1.821	1.823	1.682	1.565	1.545	1.500	1.320	1.254	1.257	1.341	1.162	1.227	1.160	1.048	1.112	1.097	1.084	1.092	1.002	0.918	0.844	0.848	0.855	0.899	0.960	0.838	0.953	0.930	1.056	1.027	1.123	1.288	1.484	1.379	1.579	1.696	1.684	1.824	1.635	1.299	1.265	1.299	1.159	0.907	0.825	0.797	0.769	0.790
645.0	109.7	90.68	76.86	69.84	67.01	78.61	84.89	108.7	143.8	178.6	203.2	191.0	141.2	96.85	67.98	40.03	26.27	18.11	14.29	48.47	399.5	278.8	3.755	2.275	2.054	1.851	1.736	1.586	1.632	1.781	1.634	1.635	1.515	1.509	1.381	1.339	1.253	1.288	1.121	1.173	1.073	1.105	1.015	1.002	0.973	0.979	0.959	0.975	0.878	0.753	0.720	0.743	0.782	0.940	0.810	0.942	0.849	0.932	0.965	1.194	1.153	1.389	1.399	1.550	1.658	1.581	1.439	1.548	1.341	1.209	1.130	1.094	0.881	0.984	0.841	0.753	0.750
650.0	103.9	88.80	69.25	66.43	63.13	70.96	81.34	99.48	135.5	167.4	184.4	177.4	134.2	92.49	68.92	42.78	27.59	19.43	13.13	18.57	190.3	469.3	25.72	2.253	2.008	1.904	1.575	1.710	1.570	1.525	1.548	1.432	1.518	1.456	1.372	1.266	1.256	1.175	1.049	1.049	1.007	0.969	0.981	1.025	0.997	0.967	0.873	0.943	0.816	0.785	0.707	0.740	0.799	0.846	0.839	0.857	0.880	0.929	0.931	0.996	1.106	1.131	1.395	1.363	1.530	1.487	1.351	1.464	1.398	1.116	1.092	0.991	0.923	0.920	0.853	0.711	0.707
