Sample:	'1
File name:	t2025032804金星厂内雨水井2.FD3
Run date:	'15:13:53, 03/28/2025
Operator:	Administrator
Comment:	'

Instrument
Model:	F-2700 FL Spectrophotometer
Serial number:	23B8-004
ROM Version:	4J14000 07

Instrument parameters
Measurement type:	3-D scan
Data mode:	Fluorescence
EX  Start WL:	220.0 nm
EX  End WL:	600.0 nm
EX Sampling interval:	5.0 nm
EM  Start WL:	230.0 nm
EM  End WL:	650.0 nm
EM Sampling interval:	5.0 nm
Scan speed:	12000 nm/min
EX Slit:	5.0 nm
EM Slit:	5.0 nm
PMT Voltage:	700 V
Response:	Auto 
Corrected spectra:	Off
Contour interval:	50.000

Peak integration
Integration method:	Rectangular
Sensitivity:	1
Threshold:	1.000

Peaks
No.	ApexEX/EM(nm)	Height(Data)
1	225.0/335.0	3602
2	235.0/400.0	1763
3	235.0/410.0	1759
4	240.0/525.0	244.3
5	245.0/535.0	187.6
6	250.0/550.0	160.0
7	255.0/565.0	170.8
8	265.0/585.0	302.8
9	270.0/300.0	4334
10	270.0/595.0	326.9
11	395.0/305.0	7.042
12	410.0/480.0	61.32
13	430.0/505.0	32.66
14	445.0/300.0	9.121
15	445.0/525.0	19.24
16	455.0/340.0	10.18
17	455.0/540.0	12.81
18	480.0/355.0	9.361
19	485.0/350.0	9.424
20	545.0/300.0	18.52
21	555.0/305.0	18.34

Data points
	220.0	225.0	230.0	235.0	240.0	245.0	250.0	255.0	260.0	265.0	270.0	275.0	280.0	285.0	290.0	295.0	300.0	305.0	310.0	315.0	320.0	325.0	330.0	335.0	340.0	345.0	350.0	355.0	360.0	365.0	370.0	375.0	380.0	385.0	390.0	395.0	400.0	405.0	410.0	415.0	420.0	425.0	430.0	435.0	440.0	445.0	450.0	455.0	460.0	465.0	470.0	475.0	480.0	485.0	490.0	495.0	500.0	505.0	510.0	515.0	520.0	525.0	530.0	535.0	540.0	545.0	550.0	555.0	560.0	565.0	570.0	575.0	580.0	585.0	590.0	595.0	600.0
230.0	82.75	1902	4014	913.5	33.30	6.990	5.664	4.825	4.977	5.081	5.120	4.496	4.376	3.725	3.435	2.960	2.447	2.481	2.275	2.313	1.908	1.923	1.745	1.695	1.615	1.557	1.451	1.394	1.331	1.320	1.423	1.300	1.257	1.134	0.966	1.032	0.876	0.792	0.720	0.721	0.727	0.834	0.848	0.653	0.615	0.601	2.575	9.247	13.99	9.370	3.120	0.669	0.419	0.402	0.384	0.365	0.327	0.325	0.280	0.263	0.238	0.252	0.219	0.227	0.234	0.206	0.201	0.166	0.142	0.194	0.166	0.140	0.133	0.139	0.111	0.136	0.121
235.0	106.7	529.0	2791	4295	610.1	59.38	8.378	6.689	6.481	5.718	5.554	5.405	4.821	4.084	3.795	3.189	2.748	2.770	2.146	2.134	1.802	1.903	1.961	1.856	1.862	1.444	1.396	1.458	1.328	1.354	1.475	1.396	1.127	1.093	0.975	1.037	0.937	0.768	0.788	0.662	0.624	0.796	0.820	0.791	0.820	0.663	1.050	2.658	5.799	10.65	14.31	14.51	6.574	1.418	0.403	0.301	0.352	0.386	0.329	0.289	0.265	0.296	0.246	0.240	0.227	0.232	0.220	0.155	0.154	0.277	0.220	0.158	0.164	0.116	0.113	0.184	0.128
240.0	161.6	197.5	878.4	4085	4672	491.6	31.04	9.397	7.317	6.225	6.128	5.522	5.213	4.854	4.121	3.280	3.153	2.872	2.385	2.362	1.992	2.098	1.923	1.998	1.990	1.653	1.699	1.610	1.300	1.427	1.372	1.458	1.062	1.212	1.002	1.085	0.950	0.666	0.759	0.817	0.674	0.672	0.741	0.749	0.872	0.912	0.987	1.062	1.723	3.364	8.703	20.17	24.07	16.20	5.224	0.765	0.413	0.422	0.370	0.305	0.299	0.281	0.256	0.200	0.244	0.196	0.250	0.165	0.175	0.306	0.132	0.212	0.130	0.143	0.110	0.126	0.110
245.0	112.2	194.2	257.7	1480	6229	4083	371.4	17.48	8.693	7.540	7.347	5.692	5.560	4.735	4.582	3.745	3.027	3.158	2.866	2.427	2.485	2.381	2.144	1.888	1.925	1.579	1.824	1.582	1.311	1.621	1.482	1.408	1.077	1.356	1.163	1.082	0.984	0.850	0.753	0.806	0.687	0.646	0.556	0.704	0.642	0.909	1.127	0.961	0.905	1.227	2.379	7.234	18.13	30.81	26.08	14.77	3.535	0.548	0.315	0.397	0.277	0.291	0.244	0.223	0.209	0.198	0.222	0.186	0.179	0.214	0.198	0.152	0.134	0.169	0.123	0.133	0.132
250.0	52.74	155.1	238.2	412.2	2101	5878	6856	1464	91.95	13.65	10.36	7.802	6.775	5.518	4.874	4.183	3.412	3.240	2.786	2.593	2.327	2.402	2.138	2.056	1.857	1.693	1.799	1.728	1.611	1.552	1.526	1.398	1.293	1.234	1.081	1.065	0.970	0.874	0.824	0.843	0.729	0.693	0.657	0.698	0.624	0.658	0.886	1.092	1.194	1.058	1.096	2.068	4.726	10.30	18.13	29.65	34.81	33.90	13.42	4.828	0.495	0.375	0.320	0.319	0.279	0.255	0.273	0.224	0.216	0.227	0.145	0.128	0.170	0.161	0.137	0.130	0.145
255.0	37.97	59.09	171.6	328.1	550.8	1532	6659	9999.9	2089	103.6	17.15	11.62	8.824	6.791	5.931	4.659	3.758	3.838	2.917	2.777	2.442	2.430	2.443	2.204	1.720	1.789	2.075	2.004	1.746	1.622	1.584	1.632	1.499	1.243	1.078	1.115	0.919	0.998	0.872	0.908	0.859	0.773	0.924	0.645	0.666	0.677	0.638	0.681	0.843	1.167	1.313	1.555	1.632	2.683	4.487	7.443	13.75	36.61	65.76	70.16	21.17	4.381	0.412	0.390	0.359	0.272	0.251	0.247	0.217	0.231	0.165	0.197	0.176	0.189	0.156	0.102	0.169
260.0	30.85	33.83	80.21	271.9	338.2	401.3	2053	9999.9	9999.9	1648	56.10	17.34	12.16	8.517	6.698	5.481	4.163	4.352	3.766	3.105	2.928	2.590	2.450	2.333	2.232	1.824	2.081	1.962	1.882	1.878	1.818	1.669	1.345	1.238	1.106	1.024	0.982	0.962	0.955	0.952	0.963	0.827	0.810	0.803	0.714	0.681	0.658	0.648	0.619	0.723	1.003	1.794	1.607	1.473	1.516	2.170	3.507	9.945	29.91	69.08	85.55	30.09	17.05	2.356	0.393	0.348	0.342	0.307	0.217	0.262	0.277	0.188	0.187	0.202	0.194	0.207	0.196
265.0	42.64	43.65	47.31	133.8	352.9	261.3	513.7	3564	9999.9	9999.9	245.5	31.16	16.42	12.56	8.965	6.734	5.640	4.806	4.189	3.326	2.797	2.641	2.877	2.393	2.174	2.206	1.979	1.982	1.993	1.854	1.756	1.939	1.373	1.432	1.166	1.175	0.999	1.039	1.036	0.958	1.048	0.897	0.871	0.798	0.766	0.784	0.555	0.665	0.576	0.604	0.647	1.001	1.680	1.917	1.478	1.163	1.262	2.673	7.286	20.37	48.60	82.37	101.6	27.71	11.04	0.975	0.429	0.376	0.273	0.254	0.298	0.242	0.218	0.167	0.165	0.224	0.194
270.0	186.9	175.2	123.6	89.40	193.9	367.2	343.3	905.4	3805	9999.9	9999.9	4332	77.76	19.42	13.02	9.592	6.800	5.675	4.577	4.386	3.613	3.238	3.072	2.907	2.518	2.412	2.361	2.293	2.179	1.965	1.978	2.102	1.788	1.728	1.582	1.488	1.331	1.322	1.291	1.340	1.274	1.169	1.287	1.126	1.164	1.121	0.928	1.013	0.944	0.761	0.616	0.726	0.941	1.298	1.688	2.136	1.959	1.591	2.254	5.269	11.93	24.31	50.98	77.18	103.5	80.76	18.06	8.810	1.183	0.428	0.425	0.324	0.277	0.237	0.275	0.295	0.280
275.0	634.2	580.5	412.6	178.1	134.1	244.1	561.2	525.8	1093	2794	9999.9	9999.9	1379	92.27	21.61	14.63	9.594	7.986	6.562	5.385	4.233	3.628	3.499	3.467	3.084	2.798	2.514	2.599	2.191	2.071	2.170	2.390	2.131	2.423	2.237	2.493	1.967	1.923	2.050	1.828	1.901	2.225	2.176	2.071	2.012	2.127	1.934	2.067	1.825	1.521	0.945	0.890	0.744	0.984	1.180	1.485	2.459	3.628	2.945	2.655	3.809	6.682	12.81	18.93	31.00	64.23	129.4	150.8	29.20	11.98	1.103	0.520	0.532	0.371	0.376	0.345	0.369
280.0	1215	1108	800.4	365.8	196.7	233.9	511.8	864.0	847.4	1278	3582	9999.9	9999.9	1103	64.20	20.45	12.94	9.988	8.020	6.411	5.362	4.099	4.167	3.420	3.426	3.034	2.599	2.608	2.255	2.366	2.350	2.537	2.347	3.103	3.131	3.325	2.959	2.569	2.544	2.468	2.856	2.680	3.047	3.298	3.321	3.532	3.323	3.239	2.922	2.228	1.567	1.173	1.146	1.212	1.237	1.240	1.930	3.227	4.108	4.368	3.654	4.047	5.549	7.060	10.03	18.24	45.90	108.4	158.1	148.0	25.42	7.096	0.794	0.468	0.520	0.434	0.410
285.0	1901	1724	1250	637.0	335.6	314.2	503.7	1059	1395	1472	2075	4763	9999.9	9999.9	802.7	37.55	17.99	13.53	9.915	7.957	6.409	5.166	4.501	4.027	3.738	3.240	2.789	2.928	2.494	2.743	2.626	2.596	2.772	3.547	4.118	4.414	3.839	3.695	3.313	3.475	3.801	3.978	4.659	4.552	4.916	5.180	4.697	4.636	4.078	3.180	2.124	1.908	1.722	1.539	1.556	1.616	2.033	2.701	3.547	5.445	6.757	6.150	5.749	6.786	7.866	9.445	15.14	31.38	66.06	143.0	189.9	132.9	19.76	2.686	0.727	0.558	0.554
290.0	2753	2500	1804	966.2	546.8	470.6	651.9	1129	1962	2562	2636	2980	4991	9999.9	9999.9	3181	56.34	21.85	13.89	10.78	7.956	6.642	5.708	4.758	4.156	3.777	3.644	3.263	2.863	3.106	2.820	2.757	3.262	4.451	5.275	5.844	5.178	4.989	4.690	4.528	4.999	5.145	5.612	6.144	6.525	6.759	6.389	6.399	5.747	4.261	3.199	2.740	2.429	2.153	2.092	2.056	2.687	3.351	4.057	5.411	7.171	9.206	10.45	11.56	11.24	11.14	11.90	15.12	21.54	39.23	71.48	116.3	143.7	108.7	96.71	14.41	4.300
295.0	3375	3037	2226	1252	713.9	602.3	804.7	1318	2141	3297	3807	3268	2579	2992	9999.9	9999.9	4650	66.96	22.96	15.74	11.19	8.715	7.006	5.879	5.137	4.456	4.287	4.108	3.350	3.427	2.727	2.975	3.790	5.255	5.913	6.702	6.339	6.080	5.856	5.692	5.909	6.270	6.804	7.491	8.013	8.339	8.046	7.821	6.869	5.244	4.085	3.818	3.107	2.867	2.497	2.624	3.347	3.751	4.696	6.162	7.792	9.887	12.03	15.10	17.02	15.64	14.26	14.34	13.38	14.87	19.99	28.83	36.63	57.44	152.3	224.6	160.9
300.0	3500	3214	2371	1405	830.5	681.7	901.9	1422	2264	3345	4334	3782	2291	1408	3047	9999.9	9999.9	682.6	50.63	22.19	14.27	10.97	8.461	7.386	5.785	5.327	4.918	4.506	3.848	3.697	3.370	3.504	3.891	5.236	6.326	7.019	6.486	6.233	6.349	6.076	6.033	6.880	7.314	7.607	8.606	9.121	8.145	8.169	7.320	5.493	4.330	4.023	3.761	3.222	2.776	3.066	3.499	4.115	5.299	6.387	8.298	10.12	12.01	14.41	17.63	18.52	17.27	15.49	13.04	10.48	9.245	10.17	10.51	14.91	42.83	113.8	227.0
305.0	3517	3178	2367	1408	869.4	741.8	948.9	1449	2300	3281	4182	4166	2456	1210	1089	3666	9999.9	9999.9	552.4	38.52	19.89	14.38	11.09	8.644	7.356	5.823	5.640	5.285	4.263	4.173	3.694	3.842	3.982	5.225	6.387	7.042	6.697	6.762	6.016	6.461	6.113	6.527	7.077	7.644	8.576	8.780	7.882	7.940	7.241	5.655	4.721	4.415	3.654	3.491	3.050	3.495	3.743	4.487	5.548	6.838	8.195	10.35	12.27	14.08	16.54	17.30	18.08	18.34	14.48	10.31	7.938	6.372	5.290	5.819	11.44	28.17	71.37
310.0	3243	2961	2201	1374	883.1	781.6	953.8	1419	2160	3037	3744	3831	2809	1431	801.5	1113	3704	9999.9	9999.9	8215	47.68	22.09	15.37	11.64	9.322	7.270	6.799	5.872	4.828	4.492	4.197	3.962	4.212	5.046	6.110	6.793	6.748	6.255	5.830	6.099	6.045	6.029	6.979	7.409	7.825	8.002	7.518	7.598	6.883	5.214	4.465	4.327	3.828	3.448	3.223	3.484	3.896	4.663	5.367	6.926	7.757	9.511	11.82	13.35	15.19	15.48	15.79	16.55	15.12	12.26	9.262	6.875	4.959	4.382	4.982	8.409	17.65
315.0	3106	2878	2060	1331	888.0	827.3	989.5	1368	1994	2754	3339	3347	2703	1899	976.6	647.8	1051	2511	9999.9	9999.9	3872	56.54	24.25	15.93	12.67	9.301	7.588	6.892	5.874	5.194	4.728	4.502	4.317	5.164	6.101	6.289	6.370	5.720	5.715	5.511	5.589	5.800	6.893	7.007	7.414	7.953	7.181	7.197	6.417	5.127	4.294	4.450	3.930	3.617	3.344	3.852	4.145	4.408	5.359	6.865	7.453	8.805	10.61	12.13	13.17	14.41	14.47	14.60	12.77	11.64	10.76	9.408	6.704	4.791	4.185	4.269	5.861
320.0	3230	2981	2122	1348	949.3	881.3	1026	1371	1919	2587	3135	3154	2564	2020	1336	667.8	512.6	728.9	2782	9999.9	9999.9	3059	45.96	21.99	16.05	11.40	8.437	8.254	6.466	6.031	5.318	4.571	4.614	5.089	5.424	5.779	6.093	5.623	5.523	5.172	5.381	5.832	7.011	7.127	7.877	8.795	7.620	7.787	6.491	5.129	4.215	4.412	4.206	3.929	3.724	3.910	4.348	4.783	5.585	6.655	7.315	8.825	10.35	11.77	12.56	13.49	13.13	13.56	12.29	11.17	9.991	9.572	9.076	6.901	4.870	3.935	3.846
325.0	3373	3231	2385	1499	1084	987.1	1105	1406	1867	2485	2997	3055	2558	1979	1592	883.2	473.7	379.3	765.2	3637	9999.9	9999.9	456.7	36.71	21.28	14.77	10.69	9.575	7.611	6.761	5.907	5.559	4.791	5.142	5.487	5.687	5.695	5.473	5.075	5.099	5.218	5.727	6.531	7.325	8.156	9.082	8.762	8.684	7.320	5.831	4.505	4.714	4.814	4.220	4.208	4.108	4.595	5.235	6.054	6.356	7.281	8.566	9.495	11.14	11.99	12.93	12.99	12.99	12.39	11.40	9.770	8.758	8.617	8.632	7.163	5.464	4.024
330.0	3297	3385	2705	1890	1464	1297	1309	1509	1892	2408	2866	2981	2615	2071	1632	1220	708.4	411.0	381.9	960.1	3754	9999.9	9999.9	8026	43.38	21.46	15.40	12.62	9.193	8.231	7.105	6.436	5.344	5.546	5.531	5.584	5.594	5.524	5.019	5.193	5.063	5.579	6.489	7.336	8.343	9.235	9.194	9.131	8.047	6.553	5.614	5.979	5.774	5.358	5.443	5.187	5.440	6.005	6.377	6.883	7.574	8.497	9.585	10.83	11.72	12.64	12.49	12.52	12.27	11.61	10.67	9.393	8.645	8.351	7.948	7.343	6.311
335.0	3423	3602	3134	2360	1966	1718	1627	1710	1970	2417	2834	2989	2746	2265	1758	1296	1033	623.8	382.5	412.7	968.5	2503	9999.9	9999.9	3373	48.44	24.04	17.94	12.56	10.29	8.284	7.096	6.211	5.474	5.659	5.769	5.583	5.684	5.115	5.228	5.259	5.452	6.097	7.709	8.389	9.339	9.236	9.869	9.258	7.532	6.968	7.426	7.264	6.979	6.543	6.728	6.734	7.155	7.132	7.742	8.245	8.941	9.809	10.67	11.96	11.99	12.31	12.48	12.19	12.42	11.30	10.25	9.581	9.126	7.719	7.030	7.120
340.0	3294	3597	3310	2734	2309	2028	1836	1813	2015	2398	2798	2938	2774	2351	1858	1342	1063	849.2	462.8	326.3	372.5	677.2	2870	9999.9	9999.9	2690	42.84	23.99	16.19	12.33	9.316	8.043	6.832	6.231	5.940	5.806	5.542	5.745	5.131	5.357	4.992	5.420	6.273	7.292	8.259	9.369	9.400	10.18	9.621	8.406	7.528	8.432	8.355	8.025	7.741	7.654	7.544	7.670	7.617	8.324	8.697	8.571	9.691	10.72	11.50	11.61	12.47	12.85	12.18	11.99	11.62	11.05	10.26	9.740	8.331	7.638	6.743
345.0	3026	3512	3349	2923	2549	2257	1979	1888	2026	2339	2705	2828	2733	2366	1892	1387	1028	902.7	618.0	343.7	262.8	285.0	744.1	3893	9999.9	9999.9	402.9	35.24	20.01	14.95	11.19	9.379	7.400	6.545	6.087	6.196	5.636	5.586	5.204	5.232	4.649	5.398	6.220	6.407	7.756	8.662	8.895	9.807	9.612	8.650	7.837	9.056	9.170	8.996	8.617	7.945	8.548	8.208	8.493	8.580	8.654	8.589	9.434	10.29	11.54	11.39	12.07	12.43	11.78	12.23	11.55	10.83	10.74	9.818	8.643	7.884	7.014
350.0	2791	3214	3245	2959	2685	2394	2077	1920	1970	2201	2523	2671	2585	2270	1858	1398	1028	820.3	708.4	488.1	283.7	225.1	286.4	961.3	4310	9999.9	9999.9	8102	39.26	21.42	15.21	11.86	8.460	7.223	6.493	6.401	5.723	5.729	5.261	5.097	4.820	5.143	5.789	6.200	7.305	8.124	8.097	9.215	9.115	8.660	8.154	9.407	9.340	9.424	8.960	8.436	8.760	8.266	8.226	8.027	8.637	8.559	9.097	9.736	10.51	10.79	11.18	11.38	11.31	11.33	11.27	10.42	10.03	9.668	8.877	7.626	7.021
355.0	2464	2912	3031	2878	2704	2385	2068	1863	1891	2049	2310	2434	2374	2130	1766	1365	1027	793.0	645.2	599.6	406.6	252.0	216.2	320.8	1039	2519	9999.9	9999.9	3082	46.26	22.03	15.60	10.68	8.861	7.004	6.515	6.444	6.258	5.499	5.127	4.635	4.957	5.324	5.888	6.444	7.496	7.826	8.612	8.507	8.266	7.732	9.082	9.361	9.206	9.054	8.576	8.517	8.103	8.171	7.538	8.459	8.179	8.716	9.121	9.612	9.710	10.37	10.14	10.59	10.29	10.41	9.859	9.323	9.108	8.486	7.513	7.138
360.0	2133	2633	2839	2747	2624	2336	1999	1787	1781	1925	2134	2239	2179	1985	1655	1313	1015	794.1	631.7	565.2	514.2	323.3	227.8	200.2	328.0	639.5	3049	9999.9	9999.9	2477	38.88	20.77	13.23	10.52	7.993	7.001	6.573	6.248	5.349	4.970	4.740	4.822	5.226	5.605	6.098	6.954	6.915	8.230	8.112	7.624	7.554	8.780	9.159	9.081	8.880	8.585	8.447	7.909	7.707	7.853	7.526	7.651	8.184	8.419	8.852	8.993	9.590	9.207	9.918	9.682	9.322	9.469	8.885	8.836	8.333	7.473	6.772
365.0	2028	2416	2624	2602	2476	2250	1923	1734	1690	1802	1965	2074	2021	1836	1564	1254	994.1	798.7	644.9	536.4	531.8	438.8	272.4	198.8	189.4	230.6	758.4	4580	9999.9	9999.9	370.2	32.92	17.06	12.85	9.638	8.189	7.086	6.316	5.813	5.173	4.826	5.116	5.048	5.243	5.835	6.651	6.537	7.869	7.761	7.152	7.294	8.312	8.778	8.596	8.701	8.115	8.306	7.707	7.411	7.524	7.396	7.025	7.480	8.219	8.288	8.375	8.891	8.703	9.087	8.807	8.864	8.461	8.737	8.040	7.503	7.388	6.693
370.0	1767	2143	2329	2386	2289	2069	1805	1612	1563	1639	1785	1852	1797	1650	1423	1172	963.3	796.5	673.0	565.6	504.0	502.0	405.3	255.0	190.2	167.8	256.5	1107	4716	9999.9	9999.9	6971	35.08	18.57	13.42	10.38	8.433	7.285	6.133	5.728	5.108	5.042	4.963	5.218	5.501	6.180	6.127	6.872	7.136	6.460	6.675	7.914	8.230	8.310	8.296	7.583	7.735	7.131	7.072	6.958	6.863	6.713	6.965	7.424	7.708	7.618	8.089	7.888	7.974	7.864	7.968	7.539	7.659	7.370	6.909	6.750	6.495
375.0	1627	1903	2099	2099	2076	1879	1650	1491	1439	1483	1603	1643	1591	1472	1287	1097	926.2	799.6	699.2	612.7	531.6	494.7	495.5	385.7	242.4	188.8	169.3	328.2	1112	2668	9999.9	9999.9	2644	39.24	19.51	14.04	10.28	8.039	6.913	6.187	5.475	5.212	5.240	4.929	5.562	5.549	5.769	6.114	6.274	6.121	5.950	7.459	7.812	7.693	7.551	7.168	7.107	6.707	6.372	6.739	6.442	6.449	6.333	6.841	7.002	6.754	7.297	7.147	6.789	7.044	7.420	6.990	7.049	6.742	6.297	6.304	6.222
380.0	1479	1757	1948	1944	1929	1782	1565	1407	1370	1401	1485	1510	1459	1350	1196	1038	906.3	809.4	722.2	650.5	571.5	515.2	494.2	473.1	323.1	225.3	173.9	172.0	319.1	657.7	3387	9999.9	9999.9	2043	33.05	17.78	12.78	9.750	7.582	6.904	5.804	5.470	5.455	4.782	5.359	5.607	5.588	6.068	6.227	5.779	5.635	7.281	7.386	7.175	6.848	6.675	6.980	6.389	6.272	6.094	5.896	6.127	6.035	6.149	6.342	6.377	6.745	6.689	6.465	6.704	6.636	6.543	6.391	6.160	6.136	5.953	6.016
385.0	1415	1714	1820	1826	1805	1674	1499	1352	1309	1341	1409	1408	1355	1269	1135	1001	892.2	817.5	748.4	692.0	619.7	557.0	511.0	493.2	420.6	281.3	201.7	157.7	157.3	216.1	828.9	4975	9999.9	9999.9	301.8	25.43	15.48	12.35	8.895	7.448	6.381	5.468	5.360	5.419	5.223	5.461	5.398	5.838	6.038	5.750	5.445	6.634	7.378	7.146	6.800	6.548	6.480	6.345	6.068	5.980	6.066	6.149	6.014	6.153	6.234	5.896	6.131	6.431	6.104	6.085	6.303	5.824	6.068	6.044	6.216	5.243	5.717
390.0	1374	1628	1759	1768	1729	1603	1448	1334	1283	1280	1318	1309	1259	1179	1066	965.1	883.5	832.7	787.3	744.4	683.1	625.5	571.8	509.2	479.4	406.5	276.8	202.9	161.1	148.7	264.8	1196	4787	9999.9	9999.9	5531	29.00	15.98	11.46	9.196	7.520	6.213	6.060	5.555	5.451	5.648	5.200	5.835	5.987	5.464	5.490	6.460	6.775	6.715	6.645	6.525	6.483	6.196	6.071	5.990	5.904	5.625	5.817	5.859	5.866	5.811	5.863	6.109	6.017	5.834	5.879	5.511	6.057	5.524	5.674	5.474	5.566
395.0	1322	1651	1694	1744	1681	1537	1423	1336	1266	1237	1261	1248	1190	1120	1024	946.3	879.6	847.3	824.4	792.7	742.4	692.5	640.3	564.9	501.4	489.0	401.9	277.6	211.5	172.5	169.5	352.5	1131	2637	9999.9	9999.9	2174	32.87	15.72	12.06	9.314	7.853	6.727	6.211	5.725	5.892	5.552	6.164	6.016	5.812	5.631	6.380	6.558	6.784	6.521	6.284	6.578	5.765	6.109	6.035	5.766	5.441	5.700	5.832	5.905	5.834	5.877	5.518	5.884	5.857	5.519	5.545	5.554	5.350	5.371	5.393	5.631
400.0	1369	1594	1706	1763	1674	1510	1408	1321	1255	1216	1233	1229	1157	1084	999.4	935.5	888.6	861.6	852.6	829.4	781.2	744.3	686.8	612.6	538.2	503.4	475.3	358.4	258.6	207.7	173.0	180.3	324.7	644.8	3216	9999.9	9999.9	1729	27.38	14.39	10.72	8.669	7.484	6.644	6.180	6.135	5.741	6.558	5.889	5.448	5.585	6.467	6.553	6.559	6.450	6.539	6.210	5.877	6.161	5.859	6.022	5.569	5.647	5.576	5.672	5.671	5.774	5.348	5.705	5.229	5.496	5.323	5.369	5.329	5.240	5.313	5.521
405.0	1330	1564	1719	1751	1661	1490	1376	1331	1268	1217	1219	1186	1130	1063	982.0	933.1	892.5	875.1	871.6	856.5	814.6	780.1	729.3	651.6	575.5	524.6	498.1	442.2	315.6	245.4	199.3	161.4	158.5	201.6	768.6	4422	9999.9	9999.9	270.6	21.36	12.56	9.983	8.672	6.784	6.433	6.425	5.944	6.708	6.081	5.670	5.489	6.430	6.708	6.672	6.198	6.379	5.997	6.014	6.233	5.987	5.769	5.668	5.648	5.483	5.406	5.579	5.702	5.441	5.432	5.412	5.403	5.445	5.038	5.430	5.133	5.165	5.623
410.0	1312	1559	1721	1759	1641	1466	1370	1314	1248	1195	1195	1158	1101	1036	973.7	916.6	890.9	880.3	878.9	869.7	833.5	805.8	764.9	691.9	622.7	562.8	509.5	474.9	411.0	308.7	240.6	181.6	138.4	114.1	217.9	1036	4163	9999.9	9999.9	4813	24.93	13.50	10.32	8.193	7.223	6.714	6.004	6.243	6.352	5.966	5.728	6.935	6.977	6.594	6.253	5.959	6.044	6.045	6.346	5.927	5.862	5.844	5.501	5.156	5.345	5.524	5.388	5.381	5.320	5.485	5.359	5.306	5.156	5.171	4.887	5.271	5.406
415.0	1304	1562	1688	1733	1600	1420	1325	1286	1245	1176	1156	1120	1059	1014	947.4	899.5	888.0	877.0	877.7	867.1	841.5	817.7	781.1	710.6	650.3	592.1	537.0	477.0	452.7	388.5	285.4	210.6	152.4	106.0	102.2	270.0	958.3	2566	9999.9	9999.9	1958	29.57	14.16	9.867	8.062	7.663	6.343	6.802	6.478	6.112	5.713	6.843	6.542	6.331	6.249	5.893	6.163	6.024	6.270	5.907	5.726	5.742	5.687	5.233	5.337	5.296	5.024	5.325	5.123	5.212	5.163	5.111	4.982	5.031	4.836	5.284	5.344
420.0	1234	1513	1666	1695	1530	1369	1291	1271	1224	1157	1135	1089	1028	989.6	926.4	880.9	860.4	861.1	859.3	856.2	835.8	810.0	777.2	714.9	654.0	607.5	551.0	488.1	450.7	422.2	331.5	233.1	164.2	112.4	81.25	102.7	247.2	604.7	2949	9999.9	9999.9	1607	24.96	12.31	9.677	8.347	6.600	6.888	6.837	6.134	5.742	6.760	6.700	6.498	6.167	5.866	5.753	5.840	6.137	5.985	5.582	5.603	5.365	5.301	5.185	5.137	5.132	5.164	4.655	5.117	5.083	5.194	5.230	5.086	4.770	5.069	4.769
425.0	1220	1443	1614	1637	1495	1320	1242	1251	1189	1141	1104	1065	1014	956.4	901.0	854.5	837.3	831.0	844.1	841.4	813.8	795.0	762.0	711.2	652.8	610.9	556.1	497.0	444.2	418.0	370.2	255.7	177.0	120.1	82.73	69.59	90.48	165.7	692.0	3723	9999.9	9999.9	255.6	17.92	11.23	9.113	7.264	7.181	6.848	5.991	5.505	7.031	6.737	6.567	5.795	5.775	5.856	5.591	5.829	5.875	5.813	5.727	5.536	5.164	4.981	5.135	5.034	5.080	4.835	4.943	4.857	4.929	4.650	4.913	4.436	4.671	4.774
430.0	1297	1340	1520	1561	1406	1243	1185	1177	1151	1089	1066	1021	966.6	914.5	861.4	807.0	800.6	794.3	804.3	801.2	779.8	762.5	733.8	687.3	638.9	603.4	555.3	500.7	445.8	400.0	365.4	297.3	199.2	130.5	89.37	66.13	59.83	69.76	183.2	863.6	3569	9999.9	9999.9	4300	24.00	12.14	8.913	8.438	7.248	6.224	5.825	6.770	6.554	6.158	5.802	5.564	5.639	5.428	5.773	5.571	5.555	5.538	5.240	4.956	4.946	5.090	5.106	4.947	4.619	4.636	4.404	4.670	4.477	4.739	4.495	4.484	4.783
435.0	1904	1263	1409	1444	1344	1159	1108	1118	1093	1038	1012	963.0	919.3	875.5	809.0	767.5	756.7	756.7	757.1	752.5	738.0	721.5	696.6	654.0	617.4	583.9	540.0	495.2	446.0	396.3	340.3	296.8	233.3	146.3	97.71	70.65	56.72	51.70	70.61	218.1	816.4	2415	9999.9	9999.9	1943	28.71	11.92	9.947	8.261	6.619	5.872	7.219	6.381	6.052	5.636	5.556	5.549	5.218	5.560	5.373	5.460	5.337	5.107	4.839	4.821	4.664	4.942	4.542	4.543	4.365	4.361	4.504	4.700	4.695	4.327	4.055	4.457
440.0	2589	1365	1334	1399	1246	1094	1052	1058	1046	993.4	965.8	935.0	881.3	827.7	770.8	731.5	709.0	714.8	718.5	717.6	697.2	680.7	660.7	625.0	592.0	564.1	524.5	479.2	439.2	388.1	330.9	278.3	241.5	166.1	105.4	74.76	59.33	50.10	46.80	74.29	202.8	558.9	2762	9999.9	9999.9	1627	22.59	12.21	9.378	7.082	6.360	6.884	6.595	5.871	5.318	5.249	5.692	5.153	5.258	5.259	5.038	5.196	4.878	4.814	4.679	4.716	4.571	4.630	4.136	4.199	4.396	4.406	4.316	3.968	3.978	4.331	4.158
445.0	2722	1795	1287	1302	1185	1029	1006	1004	984.8	945.5	908.4	883.4	835.8	779.0	728.3	693.7	670.1	676.9	675.9	670.4	658.7	643.2	623.0	594.3	565.1	535.0	503.5	463.7	422.9	374.7	323.4	264.8	225.6	182.8	118.0	79.44	61.73	50.79	42.49	43.24	66.88	143.0	639.7	3260	9999.9	9999.9	225.5	19.30	11.05	7.911	6.644	6.789	6.492	5.889	5.279	5.380	5.297	4.939	5.103	5.131	4.781	5.177	4.639	4.489	4.376	4.601	4.144	4.331	4.295	3.996	4.093	3.951	4.105	3.822	3.589	3.971	4.196
450.0	1880	2843	1417	1189	1061	928.1	901.2	911.4	902.9	865.5	844.0	814.4	768.1	718.9	664.7	627.1	611.8	612.3	607.9	610.3	594.2	584.1	567.7	540.2	513.2	490.8	465.0	429.2	391.5	352.0	307.4	251.0	201.8	169.0	135.5	90.20	65.60	53.11	43.62	36.92	36.11	50.12	160.0	748.2	3220	9999.9	9999.9	4794	21.73	10.34	7.748	7.282	6.692	6.178	5.421	5.313	5.257	4.724	4.833	4.822	4.590	4.602	4.428	4.240	4.228	4.205	4.054	4.050	3.906	3.742	3.690	3.808	3.733	3.559	3.702	3.453	3.945
455.0	1040	2876	2383	1081	943.7	826.1	794.9	812.9	814.3	773.4	761.6	736.4	689.6	650.3	591.3	556.3	543.7	539.7	536.7	544.1	525.7	519.2	502.6	477.9	456.6	442.6	418.9	384.2	358.8	322.0	283.9	232.6	187.0	147.4	128.3	109.6	73.19	55.12	45.52	36.73	30.36	29.90	52.07	181.5	732.4	2346	7033	9999.9	1666	23.35	9.742	8.196	7.507	6.187	5.237	5.123	5.056	4.652	4.438	4.575	4.563	4.461	3.980	3.993	3.928	3.675	3.887	3.553	3.584	3.489	3.329	3.638	3.497	3.676	3.207	3.289	3.331
460.0	705.4	2005	3533	1202	867.0	730.9	723.4	734.6	741.9	722.1	690.8	679.0	626.9	580.6	535.9	500.9	495.2	489.6	486.9	485.1	474.8	465.6	452.0	431.5	413.6	400.4	378.5	351.1	327.6	296.3	263.6	219.3	175.9	137.3	113.8	110.6	84.52	58.18	46.33	37.98	29.95	25.65	27.57	54.28	177.1	538.2	1781	9457	9999.9	1377	20.01	9.769	8.437	6.579	5.455	5.190	5.028	4.666	4.653	4.423	4.319	4.292	3.996	3.852	3.810	3.626	3.599	3.357	3.384	3.240	3.168	3.346	3.411	3.341	3.045	2.846	3.050
465.0	620.2	1159	3839	1898	772.3	671.0	660.0	675.1	678.7	657.7	635.0	614.5	574.3	532.2	489.6	458.1	450.9	441.7	439.1	436.6	431.2	421.4	407.0	391.3	374.6	360.9	343.6	323.3	300.1	274.8	243.9	204.8	166.0	129.1	104.9	97.95	92.30	65.02	47.64	39.39	30.06	23.86	23.01	26.60	52.24	133.1	412.6	2608	9999.9	9999.9	1145	19.82	9.631	7.604	6.005	5.512	5.003	4.258	4.242	4.192	4.142	4.087	3.705	3.569	3.394	3.391	3.363	3.407	3.209	3.158	2.960	2.997	3.140	2.956	3.020	2.855	2.882
470.0	547.7	710.6	2385	3403	1019	579.9	575.2	580.3	593.8	569.8	563.6	540.2	505.3	465.5	427.7	402.5	385.5	383.9	377.4	377.1	368.4	359.2	351.8	337.1	323.4	310.9	298.5	279.0	262.8	243.2	215.8	183.4	150.1	118.7	96.53	82.12	81.56	73.17	52.39	39.99	30.88	25.05	22.02	19.89	24.19	42.04	103.5	595.3	2753	7804	9999.9	4352	95.51	9.683	6.978	5.956	5.423	4.605	4.218	4.091	3.742	3.852	3.461	3.117	3.159	3.176	2.992	2.952	2.813	2.760	2.638	2.789	2.747	2.618	2.733	2.603	2.588
475.0	474.9	556.0	1035	3416	2502	547.2	493.3	503.5	515.6	492.7	482.9	469.0	437.0	400.6	368.2	340.5	328.9	325.3	320.2	321.7	312.1	304.0	297.0	283.6	273.9	265.0	252.8	240.2	224.8	209.7	188.9	161.0	133.8	108.7	89.66	75.66	67.27	66.80	60.60	43.05	31.54	25.92	21.71	18.32	18.04	20.18	32.93	141.9	622.6	1769	4178	9999.9	6285	27.92	8.505	6.398	5.605	4.419	4.222	4.075	3.787	3.500	3.185	2.924	2.859	2.815	2.789	2.681	2.402	2.487	2.301	2.304	2.487	2.252	2.282	2.127	2.294
480.0	434.7	493.9	630.4	2187	4026	805.7	443.8	453.9	461.9	445.4	439.2	422.0	389.0	362.4	330.0	303.9	293.5	291.4	287.1	282.5	274.7	267.4	261.3	252.7	241.9	234.3	225.5	214.2	200.9	187.2	172.1	148.1	123.9	102.3	85.50	71.92	62.14	57.75	61.32	49.53	33.24	24.89	22.20	17.87	16.87	15.56	17.03	40.73	147.5	403.1	986.6	5064	9999.9	1685	24.20	7.651	6.355	5.133	4.411	4.090	3.854	3.166	3.095	2.920	2.620	2.714	2.463	2.435	2.284	2.391	2.283	2.212	2.255	1.922	2.153	1.863	1.975
485.0	416.7	488.6	494.8	1105	4411	1759	424.1	416.7	424.9	417.9	402.6	384.1	356.9	333.1	298.2	278.2	263.3	261.0	256.3	253.3	251.7	241.1	236.2	226.9	216.1	210.6	201.2	195.0	183.4	170.0	156.8	136.8	114.7	96.83	81.70	69.48	60.22	52.89	55.51	53.15	38.18	26.88	22.28	18.80	16.93	14.45	13.55	17.87	41.22	97.23	228.7	1265	7552	9999.9	1440	20.06	8.153	5.563	4.657	4.331	3.675	3.360	3.084	2.886	2.458	2.543	2.564	2.408	2.203	2.164	2.081	2.070	2.046	1.903	1.893	1.739	1.964
490.0	344.9	441.4	442.3	580.1	2584	3847	801.4	378.3	384.6	375.8	363.0	343.5	318.3	294.7	265.4	245.3	234.6	229.2	225.7	225.2	218.5	212.5	209.8	197.7	189.7	186.6	178.6	169.7	162.4	151.9	140.1	123.1	105.9	89.16	76.24	65.66	57.57	50.88	47.97	47.40	43.37	31.48	23.47	19.35	16.73	14.66	12.84	12.89	17.11	28.64	57.73	290.1	1883	6029	9805	5413	116.0	8.823	5.435	4.807	4.078	3.674	2.869	2.748	2.524	2.572	2.365	2.248	2.213	2.150	2.074	1.958	1.864	1.782	1.750	1.725	1.796
495.0	286.7	363.3	425.0	413.4	932.0	3986	2582	369.8	334.1	329.0	317.0	303.3	282.6	253.1	231.8	213.7	202.0	198.9	194.0	192.9	185.3	181.8	178.6	170.4	161.9	159.2	154.3	146.9	137.6	132.9	121.7	109.4	95.12	80.93	69.29	61.25	54.76	47.88	43.66	40.35	40.83	37.50	26.67	19.85	17.27	14.83	12.44	11.79	11.71	13.34	19.28	71.20	426.9	1359	3698	9999.9	7764	31.73	7.865	5.696	4.568	3.815	3.026	2.713	2.466	2.203	2.173	2.152	2.020	1.986	1.823	1.973	1.799	1.604	1.558	1.464	1.800
500.0	238.0	306.1	401.1	350.4	446.4	2413	3996	664.8	303.5	295.9	285.9	274.3	251.0	229.3	204.9	189.3	177.5	175.1	171.4	169.4	162.5	161.3	156.4	149.4	142.8	140.5	134.1	130.3	125.2	118.8	110.7	97.80	88.19	76.32	64.80	57.49	51.36	46.23	41.58	37.09	36.05	36.81	30.38	21.02	17.65	14.56	12.72	11.24	10.39	9.674	10.68	21.92	101.7	310.4	856.2	4424	9999.9	1898	28.50	7.306	4.911	4.130	3.022	2.794	2.614	2.290	2.177	2.104	1.912	1.779	1.695	1.669	1.652	1.494	1.559	1.359	1.563
505.0	205.9	260.3	353.7	331.4	314.4	1026	4773	1758	278.4	268.0	256.4	250.1	223.7	201.5	183.3	169.7	161.2	157.6	152.6	150.5	145.0	140.5	138.1	134.3	126.4	125.5	119.2	114.9	111.0	106.8	99.20	89.01	79.62	69.29	60.28	54.29	48.71	43.30	39.90	34.78	31.06	32.54	32.66	23.84	17.35	14.62	12.50	10.97	9.675	9.109	8.701	11.28	28.82	75.95	198.6	1060	5846	9999.9	1733	23.07	6.232	4.650	3.141	2.693	2.757	2.416	2.110	1.912	1.918	1.695	1.485	1.638	1.439	1.233	1.404	1.320	1.291
510.0	185.6	208.0	293.7	322.5	259.1	411.4	2790	4100	632.0	237.2	225.5	214.7	194.9	176.6	158.6	144.6	139.1	137.3	130.4	128.0	124.0	120.3	116.7	112.7	107.9	106.0	100.9	99.31	94.74	91.36	86.18	78.58	69.63	61.02	54.73	49.77	44.35	39.88	36.79	31.98	28.25	26.84	28.55	26.55	19.38	14.65	12.37	10.48	9.606	8.423	7.988	8.012	12.20	22.88	50.16	243.0	1405	4820	8072	4814	121.2	7.677	3.780	3.034	2.827	2.490	2.078	1.956	1.691	1.589	1.501	1.543	1.343	1.245	1.314	1.205	1.244
515.0	156.5	165.2	220.2	301.3	233.8	239.8	880.9	4866	2280	235.4	198.2	186.5	164.4	149.4	133.7	123.4	116.4	113.4	109.3	107.5	103.6	100.2	98.78	92.73	88.78	88.93	86.12	81.87	80.28	77.60	73.39	67.25	60.88	53.71	48.94	44.90	40.40	36.60	32.61	29.41	25.84	23.51	22.87	24.52	22.22	15.70	11.89	10.13	9.583	8.423	7.701	7.578	7.865	10.21	16.30	59.41	318.7	1083	2605	8842	6162	32.30	5.722	3.633	2.901	2.580	2.244	1.827	1.641	1.543	1.275	1.287	1.127	1.063	1.285	1.110	1.177
520.0	143.3	146.9	187.9	249.3	231.3	189.1	334.8	3003	4780	315.2	177.1	164.6	147.6	133.1	118.0	109.0	101.1	99.92	96.99	95.85	92.03	88.54	85.97	82.45	78.38	78.82	74.07	70.83	68.69	68.46	63.41	60.19	54.39	48.15	44.08	40.43	37.20	34.00	30.34	27.72	24.69	21.40	20.29	19.96	21.90	17.83	12.48	10.07	8.867	7.870	7.358	7.131	6.853	6.750	8.612	18.25	76.28	246.5	597.8	3501	9450	1926	27.53	4.845	3.328	2.730	2.444	1.985	1.645	1.455	1.278	1.244	1.233	1.135	1.126	1.125	1.069
525.0	134.5	144.8	161.7	193.3	244.3	163.2	201.9	1200	5791	1538	163.4	147.2	131.0	119.0	105.0	97.57	92.29	89.73	85.54	84.31	81.39	78.48	76.75	72.30	70.03	68.84	65.53	64.55	61.51	60.95	57.32	53.63	48.96	43.86	40.06	37.11	33.39	31.19	28.31	26.06	22.95	19.60	18.51	16.95	19.01	19.24	13.77	9.756	8.560	7.390	6.795	6.640	6.367	6.192	6.314	8.697	21.39	59.86	138.7	825.1	4463	8678	1624	21.04	4.062	2.918	2.466	1.882	1.509	1.456	1.365	1.140	1.251	1.011	0.845	1.075	1.030
530.0	115.0	128.6	141.7	151.7	209.2	175.8	152.3	394.8	3462	4673	530.5	132.7	114.6	103.5	91.18	83.74	80.00	77.19	72.65	71.59	68.62	66.15	63.85	61.02	59.38	57.61	55.84	53.61	52.96	51.40	49.98	46.30	42.73	38.13	35.63	32.42	30.06	27.67	25.53	23.36	20.75	17.83	16.08	14.79	15.18	16.55	15.41	10.63	8.185	6.968	6.125	6.008	5.762	5.673	5.535	5.931	8.783	17.27	34.81	188.4	1053	3844	5315	2688	115.6	5.243	2.895	1.938	1.844	1.464	1.348	1.068	1.077	1.073	0.907	0.923	0.941
535.0	108.5	108.4	123.7	121.6	148.8	187.6	138.7	187.0	1023	5513	1924	133.9	97.92	88.79	80.29	69.80	66.29	64.64	60.57	58.76	57.23	55.10	52.96	52.25	48.79	47.87	46.24	45.42	43.29	42.74	41.85	40.09	35.76	33.18	29.93	28.33	25.90	23.91	22.46	20.34	18.30	16.04	15.15	12.74	12.63	12.14	14.27	12.69	8.304	6.276	5.649	5.368	5.201	5.096	5.180	5.365	5.054	7.098	10.80	45.33	238.0	862.0	1646	5194	4094	31.56	4.305	2.512	1.951	1.568	1.412	1.057	0.934	1.019	0.843	0.790	0.880
540.0	99.53	114.0	113.8	107.7	114.3	181.0	139.9	131.3	328.2	3361	5525	220.7	90.48	76.60	69.58	63.57	58.58	55.93	53.27	52.11	48.51	48.16	45.97	44.95	42.18	40.95	40.29	39.23	38.70	37.19	36.75	34.26	31.36	29.12	26.34	24.63	23.07	21.74	19.60	18.44	16.83	14.94	12.86	12.10	10.93	10.11	11.63	12.81	9.160	6.132	5.090	4.943	4.675	4.698	4.564	4.700	4.537	4.619	5.329	13.06	55.85	195.8	375.9	2005	6084	1876	26.84	3.439	2.041	1.709	1.534	1.202	0.940	0.836	0.822	0.903	0.730
545.0	109.5	126.2	114.8	97.06	99.53	152.2	150.9	109.0	160.7	1271	7141	1157	83.86	68.11	61.55	55.27	50.46	50.14	45.61	46.37	43.27	41.75	39.16	37.78	36.05	36.22	34.40	34.09	33.77	33.17	31.71	30.34	27.58	25.24	23.78	22.40	20.46	19.63	17.72	16.64	14.88	13.41	11.66	11.01	9.758	8.785	8.936	10.38	9.902	6.699	5.091	4.723	4.463	4.008	4.056	4.307	4.337	3.653	3.749	5.742	15.06	46.68	87.00	469.4	2803	5862	1524	18.89	2.759	2.074	1.722	1.147	1.034	0.841	0.826	0.781	0.689
550.0	135.7	127.7	117.9	90.19	85.02	107.3	160.0	110.5	117.8	386.0	4149	4378	301.2	58.88	51.70	46.37	43.16	40.93	38.29	36.94	35.15	33.53	32.75	30.75	30.07	29.64	28.72	28.17	27.54	27.21	26.39	24.76	23.33	22.01	20.29	19.16	17.53	16.28	15.01	14.23	12.36	11.58	10.37	9.561	8.575	7.892	7.309	7.636	8.472	7.512	5.439	4.208	3.832	3.574	3.646	3.702	3.830	3.567	3.196	3.521	5.536	12.75	21.62	107.5	657.2	2481	3985	1933	109.2	3.759	2.082	1.264	1.105	0.833	0.840	0.758	0.678
555.0	151.2	146.8	132.5	82.64	72.32	79.67	136.9	140.5	111.5	175.8	1174	5651	1355	59.70	43.79	37.85	34.02	33.15	31.01	29.51	27.74	27.30	25.69	24.74	24.35	23.60	22.77	22.64	21.82	21.73	21.30	20.26	18.77	17.77	16.30	15.64	15.01	13.51	12.68	11.26	10.78	9.563	8.882	7.649	7.375	6.513	6.075	5.644	6.109	6.919	6.306	4.301	3.444	3.102	3.014	3.027	3.019	3.132	2.994	2.612	3.081	4.673	6.593	26.11	148.5	555.8	1203	3493	1945	31.40	2.945	1.628	1.246	0.889	0.927	0.855	0.674
560.0	178.4	166.9	144.8	91.34	65.49	69.88	109.9	166.5	120.6	145.8	377.7	3537	4498	136.3	38.42	31.88	29.29	28.78	25.93	24.96	23.35	22.88	21.98	20.60	20.59	19.12	19.03	18.71	18.15	17.88	17.69	17.41	15.72	14.71	14.38	13.22	12.46	11.66	10.59	9.985	9.562	8.446	8.096	7.226	6.345	5.824	5.367	4.839	4.759	5.721	6.050	4.475	3.212	2.915	2.706	2.650	2.684	2.629	2.834	2.745	2.539	2.766	3.391	7.744	35.21	126.3	274.1	1311	3534	1671	25.30	2.224	1.379	1.111	0.812	0.692	0.679
565.0	218.3	206.5	151.4	100.3	65.67	65.83	88.21	170.8	142.7	154.1	215.8	1359	6214	809.0	37.19	28.66	24.87	24.24	23.29	20.98	20.39	19.63	18.76	18.60	16.88	16.41	16.28	15.39	14.91	15.72	15.15	14.47	13.33	11.99	12.10	11.12	10.32	9.941	9.174	8.988	8.159	7.084	6.904	6.378	6.021	5.184	4.865	4.472	3.948	4.188	5.346	4.506	3.460	2.548	2.669	2.409	2.300	2.145	2.544	2.851	2.421	2.115	2.413	3.464	9.755	30.16	63.67	305.1	1577	3644	1186	15.95	2.067	1.237	0.900	0.654	0.684
570.0	269.4	237.7	174.4	102.0	66.59	67.13	84.71	151.0	194.6	189.1	211.2	464.0	3846	3727	94.15	24.86	20.96	20.41	18.68	17.68	16.78	15.66	15.05	14.15	13.47	13.24	13.43	12.49	12.31	12.48	12.20	11.68	11.33	10.46	9.896	9.479	9.101	8.323	7.980	7.374	6.896	6.274	5.694	5.178	5.018	4.557	4.335	3.843	3.541	3.134	3.699	4.188	3.699	2.621	2.241	2.078	2.115	2.014	2.009	2.467	2.523	2.212	2.095	2.380	3.931	8.618	16.25	70.15	368.8	1509	2483	1060	20.01	2.076	1.043	0.881	0.736
575.0	272.6	247.2	173.5	110.4	68.51	65.34	82.96	134.0	230.2	236.9	244.2	271.4	1117	5215	947.5	24.35	18.88	17.04	15.47	14.98	13.40	12.81	12.63	11.48	10.51	10.74	10.34	10.50	10.36	9.657	9.876	9.847	8.933	8.309	8.145	7.931	7.484	6.843	6.516	5.926	5.759	5.187	5.030	4.373	4.406	3.945	3.692	3.381	3.209	2.795	2.756	3.251	3.589	2.935	2.020	1.998	1.955	1.838	1.670	2.049	2.078	2.330	1.955	2.133	2.604	3.681	5.233	17.50	83.86	338.2	740.2	1935	1507	28.47	1.793	0.966	0.732
580.0	282.7	263.6	180.9	114.5	71.55	65.49	81.06	125.5	228.2	273.3	263.1	244.7	359.5	3360	3938	69.66	17.39	14.54	13.43	13.27	11.44	11.17	10.92	10.25	9.426	8.936	8.605	8.701	8.047	8.673	8.177	8.393	7.749	7.367	7.220	6.941	6.248	6.127	5.671	5.250	4.800	4.524	4.037	3.954	3.902	3.624	3.133	3.186	2.787	2.428	2.188	2.370	3.063	3.139	2.192	1.806	1.701	1.636	1.596	1.736	1.729	2.352	2.235	2.075	2.108	2.514	2.883	5.525	20.31	76.96	168.7	735.1	2196	1031	21.13	1.178	0.977
585.0	298.8	261.2	190.1	117.9	78.70	67.81	82.57	119.7	214.4	302.8	283.4	251.0	192.3	1239	5816	452.4	16.20	13.45	11.99	11.26	10.16	9.320	9.697	8.942	8.274	7.765	7.248	7.464	7.282	7.565	6.882	7.192	6.939	6.560	6.325	5.635	5.654	5.202	5.154	4.645	4.321	4.049	3.636	3.592	3.560	3.140	2.997	2.867	2.341	2.220	1.948	1.866	2.280	2.844	2.375	1.884	1.696	1.354	1.541	1.767	1.622	2.095	2.207	2.290	2.206	2.210	2.296	2.685	6.009	18.60	39.08	171.1	988.0	2008	262.4	11.94	1.272
590.0	295.0	253.4	187.9	115.3	70.74	61.77	78.46	116.6	191.9	301.0	308.3	258.3	159.8	346.5	3590	2529	55.09	11.87	10.54	9.587	8.514	7.953	8.102	7.226	6.955	6.822	6.141	6.242	6.257	6.245	5.568	5.706	5.694	5.519	5.142	4.876	4.586	4.362	4.292	3.966	3.650	3.366	3.261	3.164	3.006	2.890	2.653	2.452	2.202	1.889	1.758	1.666	1.693	2.087	2.310	2.050	1.523	1.426	1.494	1.526	1.610	1.800	1.854	2.322	2.292	2.126	1.819	2.061	2.730	5.391	9.877	39.27	231.3	822.3	1322	769.9	19.55
595.0	258.1	245.0	179.1	114.5	67.55	60.45	73.93	115.8	175.2	271.9	326.9	258.9	149.7	130.0	977.8	3734	612.8	13.10	9.680	7.978	7.021	6.805	6.523	6.080	5.894	5.658	5.101	4.975	4.918	4.946	4.636	4.719	4.330	4.493	4.422	4.018	3.687	3.738	3.494	3.371	2.835	3.013	2.953	2.597	2.656	2.375	2.343	2.159	2.030	1.657	1.566	1.435	1.407	1.507	1.762	2.067	1.663	1.383	1.231	1.268	1.379	1.598	1.585	1.904	2.287	2.126	1.734	1.842	1.722	2.222	3.138	9.572	52.28	184.3	394.4	1258	998.1
600.0	234.9	225.2	170.5	109.0	66.33	59.22	72.39	109.4	160.2	240.4	325.2	258.8	152.0	82.33	253.3	2486	2210	39.50	9.038	7.290	6.746	6.226	5.785	5.426	4.965	4.755	4.484	4.391	4.265	4.604	3.890	3.877	3.968	3.929	4.040	3.669	3.358	3.192	3.089	2.760	2.735	2.398	2.695	2.314	2.350	2.104	2.145	2.093	1.855	1.562	1.522	1.312	1.355	1.186	1.306	1.806	1.738	1.350	1.151	1.248	1.295	1.431	1.710	1.593	1.954	2.114	1.793	1.536	1.499	1.497	1.674	2.852	12.39	41.90	89.71	460.0	1363
605.0	225.6	212.5	158.0	104.7	62.92	56.91	66.75	102.1	154.4	225.9	304.3	263.4	150.6	73.21	84.44	939.2	3397	279.6	8.970	6.472	5.990	5.875	5.052	4.320	4.323	4.292	4.032	3.876	3.875	3.841	3.499	3.525	3.294	3.281	3.384	3.169	3.220	3.022	2.602	2.453	2.483	2.136	2.224	2.212	1.998	2.078	1.946	1.701	1.712	1.511	1.201	1.272	1.199	1.016	1.162	1.450	1.743	1.510	1.214	1.228	1.309	1.354	1.485	1.487	1.781	1.913	1.789	1.661	1.369	1.357	1.231	1.240	3.395	9.988	20.77	106.5	587.2
610.0	210.4	195.1	145.6	92.95	60.62	51.43	65.65	95.55	142.8	203.1	259.1	261.8	151.7	73.41	47.91	242.8	2257	1609	35.93	6.740	5.581	4.852	4.531	3.900	3.794	3.630	3.324	3.240	3.056	3.050	3.011	3.081	2.856	2.896	2.817	2.601	2.561	2.592	2.400	2.113	2.084	1.890	1.986	1.893	1.779	1.869	1.656	1.544	1.487	1.291	1.126	1.071	1.032	0.912	0.973	1.055	1.480	1.431	1.295	1.150	1.101	1.175	1.414	1.354	1.520	1.706	1.769	1.696	1.500	1.059	1.016	0.858	1.382	2.691	5.177	24.39	136.1
615.0	181.1	178.1	136.6	80.48	54.95	48.31	55.65	82.87	128.5	183.6	223.6	241.4	158.4	72.09	40.81	71.51	633.3	2929	439.2	7.305	5.196	4.277	3.932	3.481	3.006	2.936	3.021	3.017	2.743	2.383	2.722	2.800	2.438	2.447	2.319	2.195	2.182	2.225	2.084	1.866	1.754	1.698	1.739	1.649	1.468	1.509	1.488	1.366	1.379	1.130	1.036	0.899	0.873	0.873	0.883	0.883	1.083	1.290	1.357	1.059	0.998	1.140	1.209	1.378	1.328	1.481	1.357	1.584	1.606	0.945	0.816	0.729	0.708	1.079	1.590	5.858	30.84
620.0	174.2	151.6	121.0	72.33	52.15	45.59	53.72	76.45	118.3	164.8	195.5	212.9	160.7	72.62	39.86	32.36	159.4	2103	1592	21.51	5.197	4.116	3.763	3.414	3.260	2.763	2.715	2.810	2.404	2.325	2.399	2.268	2.151	2.300	2.193	2.290	2.060	1.787	1.850	1.645	1.534	1.421	1.409	1.465	1.489	1.335	1.344	1.265	1.161	0.988	0.971	0.807	0.757	0.695	0.811	0.724	0.937	0.935	1.269	1.152	0.975	1.009	0.986	1.130	1.158	1.301	1.211	1.320	1.426	1.027	0.798	0.766	0.662	0.628	0.707	1.707	7.231
625.0	162.6	145.0	104.3	73.35	46.65	42.38	53.66	71.90	108.3	153.7	184.8	185.9	158.4	75.51	40.23	24.65	47.14	846.4	2635	73.67	5.373	3.882	3.499	3.198	3.187	2.546	2.606	2.382	2.221	2.244	2.153	2.188	1.933	1.841	1.943	2.012	1.702	1.661	1.716	1.617	1.390	1.396	1.394	1.273	1.398	1.272	1.282	1.196	1.088	0.919	0.808	0.805	0.808	0.703	0.710	0.746	0.808	0.774	0.950	1.077	1.046	0.904	0.893	1.022	1.139	1.193	1.133	1.088	1.263	1.173	0.804	0.654	0.608	0.471	0.539	0.717	1.958
630.0	150.7	126.6	96.79	65.27	43.37	40.38	50.77	69.06	101.5	135.8	163.3	163.7	141.1	86.08	42.75	22.98	22.31	216.5	1910	1227	22.38	4.223	3.455	3.120	2.968	2.460	2.112	2.255	2.247	1.923	2.040	1.980	1.922	1.769	1.697	1.657	1.505	1.409	1.507	1.411	1.270	1.217	1.190	1.149	1.227	1.166	1.064	1.097	0.950	0.889	0.756	0.793	0.784	0.660	0.691	0.703	0.695	0.729	0.777	0.954	1.069	0.912	0.883	0.923	1.009	0.994	1.032	0.996	0.943	0.884	0.835	0.667	0.577	0.496	0.465	0.438	0.796
635.0	141.1	126.0	91.56	59.72	40.96	38.77	46.80	67.25	89.65	121.3	143.1	147.3	121.7	97.24	47.36	25.19	16.68	57.48	561.0	2456	307.5	4.818	3.299	3.112	2.696	2.273	2.140	2.121	1.968	2.013	1.786	1.831	1.561	1.485	1.427	1.454	1.287	1.351	1.237	1.233	1.181	1.049	1.071	1.197	1.040	1.116	0.913	1.010	0.871	0.801	0.555	0.718	0.743	0.602	0.604	0.609	0.723	0.644	0.739	0.797	0.991	0.942	0.885	0.860	0.888	0.973	0.997	0.927	0.776	0.746	0.845	0.785	0.635	0.474	0.440	0.432	0.470
640.0	126.2	120.7	87.61	52.65	44.55	37.32	45.23	63.18	84.60	109.6	131.0	135.7	109.0	94.43	54.84	26.65	16.37	21.70	139.6	1910	1173	11.90	3.732	3.019	2.579	2.250	1.919	1.843	1.704	1.707	1.529	1.615	1.433	1.544	1.383	1.454	1.163	1.260	1.178	1.171	1.035	1.129	1.026	0.976	1.106	1.057	0.985	0.944	0.911	0.710	0.604	0.695	0.709	0.601	0.617	0.678	0.690	0.559	0.596	0.671	0.779	0.964	0.808	0.772	0.896	0.867	0.871	0.769	0.833	0.725	0.665	0.688	0.653	0.525	0.412	0.381	0.398
645.0	136.7	115.5	86.64	61.04	45.37	38.87	41.90	55.46	80.91	104.1	123.4	129.5	104.4	87.08	63.79	28.79	16.47	14.20	38.72	825.9	2104	57.03	4.088	3.044	2.606	2.418	1.947	1.815	1.490	1.694	1.604	1.398	1.373	1.445	1.247	1.418	1.045	1.120	1.061	0.946	0.925	1.088	1.048	0.977	1.095	0.926	0.952	0.893	0.798	0.650	0.650	0.593	0.622	0.629	0.651	0.659	0.609	0.608	0.491	0.543	0.714	0.768	0.926	0.738	0.876	0.876	0.822	0.753	0.879	0.689	0.583	0.585	0.669	0.455	0.464	0.323	0.363
650.0	130.9	121.8	94.74	59.35	44.75	38.95	42.07	55.19	73.14	100.0	115.9	121.5	100.5	80.08	67.71	30.14	17.65	12.89	15.89	230.9	2112	448.3	5.019	3.035	2.401	2.220	1.959	1.778	1.593	1.835	1.448	1.360	1.570	1.250	1.179	1.379	1.006	0.979	0.999	0.921	0.848	0.910	1.073	0.910	0.988	0.911	0.875	0.933	0.736	0.668	0.611	0.582	0.598	0.556	0.613	0.644	0.593	0.564	0.529	0.522	0.652	0.701	0.718	0.728	0.742	0.791	0.786	0.695	0.840	0.660	0.516	0.512	0.565	0.536	0.457	0.381	0.332
