Sample:	'1
File name:	H2025090903Î÷ÐÁÐËºÓ.FD3
Run date:	'17:18:37, 09/10/2025
Operator:	Administrator
Comment:	'

Instrument
Model:	F-2700 FL Spectrophotometer
Serial number:	23C7-003
ROM Version:	4J14000 07

Instrument parameters
Measurement type:	3-D scan
Data mode:	Fluorescence
EX  Start WL:	220.0 nm
EX  End WL:	600.0 nm
EX Sampling interval:	5.0 nm
EM  Start WL:	230.0 nm
EM  End WL:	650.0 nm
EM Sampling interval:	5.0 nm
Scan speed:	12000 nm/min
EX Slit:	5.0 nm
EM Slit:	5.0 nm
PMT Voltage:	700 V
Response:	Auto 
Corrected spectra:	Off
Contour interval:	50.000

Peak integration
Integration method:	Rectangular
Sensitivity:	1
Threshold:	1.000

Peaks
No.	ApexEX/EM(nm)	Height(Data)
1	225.0/310.0	598.2
2	225.0/605.0	53.95
3	230.0/405.0	448.3
4	230.0/500.0	244.7
5	235.0/510.0	196.5
6	240.0/405.0	432.6
7	240.0/415.0	436.9
8	240.0/520.0	167.9
9	245.0/410.0	433.4
10	245.0/535.0	136.4
11	250.0/415.0	438.7
12	250.0/545.0	114.8
13	255.0/280.0	358.9
14	255.0/560.0	101.1
15	260.0/285.0	372.3
16	260.0/440.0	416.3
17	260.0/570.0	83.18
18	265.0/585.0	90.28
19	270.0/300.0	1071
20	270.0/600.0	97.58
21	275.0/305.0	1323
22	275.0/610.0	93.17
23	280.0/310.0	1170
24	280.0/375.0	385.2
25	280.0/620.0	74.44
26	285.0/635.0	45.85
27	300.0/335.0	361.3
28	305.0/340.0	331.7
29	310.0/350.0	287.4
30	315.0/355.0	287.6
31	320.0/360.0	304.3
32	325.0/370.0	283.6
33	330.0/375.0	277.4
34	335.0/380.0	288.5
35	340.0/385.0	265.5
36	350.0/400.0	233.3
37	355.0/405.0	230.3
38	415.0/485.0	46.59
39	430.0/505.0	30.42
40	505.0/275.0	2.132
41	510.0/280.0	2.267
42	520.0/285.0	2.498
43	530.0/290.0	2.820
44	545.0/300.0	5.728
45	550.0/305.0	6.297
46	560.0/310.0	6.159
47	570.0/315.0	5.361
48	575.0/290.0	46.82
49	575.0/320.0	4.302
50	580.0/325.0	3.629

Data points
	220.0	225.0	230.0	235.0	240.0	245.0	250.0	255.0	260.0	265.0	270.0	275.0	280.0	285.0	290.0	295.0	300.0	305.0	310.0	315.0	320.0	325.0	330.0	335.0	340.0	345.0	350.0	355.0	360.0	365.0	370.0	375.0	380.0	385.0	390.0	395.0	400.0	405.0	410.0	415.0	420.0	425.0	430.0	435.0	440.0	445.0	450.0	455.0	460.0	465.0	470.0	475.0	480.0	485.0	490.0	495.0	500.0	505.0	510.0	515.0	520.0	525.0	530.0	535.0	540.0	545.0	550.0	555.0	560.0	565.0	570.0	575.0	580.0	585.0	590.0	595.0	600.0
230.0	47.80	876.6	2803	1076	45.03	6.241	5.163	4.397	3.592	3.465	3.462	3.200	2.904	2.579	2.030	1.748	1.547	1.871	1.385	1.198	1.134	1.064	0.953	0.877	0.786	0.768	0.695	0.706	0.667	0.663	0.561	0.613	0.554	0.515	0.497	0.444	0.408	0.492	0.398	0.393	0.459	0.646	0.716	0.513	0.378	0.365	1.256	6.032	11.13	8.883	3.322	0.702	0.296	0.278	0.297	0.246	0.309	0.263	0.313	0.266	0.258	0.256	0.305	0.263	0.270	0.254	0.324	0.230	0.288	0.253	0.294	0.315	0.254	0.274	0.295	0.302	0.282
235.0	112.8	239.1	1302	2608	1236	72.01	6.111	5.062	4.365	3.905	3.855	3.487	2.878	2.776	2.344	1.530	1.434	2.199	1.235	1.183	1.200	0.983	0.855	0.960	0.796	0.926	0.648	0.700	0.726	0.572	0.509	0.593	0.532	0.499	0.473	0.397	0.426	0.353	0.406	0.392	0.410	0.426	0.577	0.692	0.742	0.482	0.576	1.656	3.764	7.059	9.271	9.783	5.523	1.162	0.330	0.269	0.294	0.296	0.293	0.293	0.242	0.218	0.260	0.248	0.253	0.341	0.325	0.256	0.283	0.256	0.305	0.323	0.286	0.321	0.267	0.271	0.304
240.0	138.4	143.6	345.0	1653	2962	393.1	31.37	4.812	4.558	4.164	3.942	3.496	2.918	2.561	2.296	2.087	1.578	2.052	1.208	1.274	1.088	0.968	0.943	0.995	0.811	0.834	0.851	0.789	0.732	0.588	0.489	0.577	0.515	0.516	0.439	0.413	0.422	0.339	0.419	0.409	0.391	0.392	0.434	0.506	0.746	0.708	0.666	0.731	1.098	2.050	4.495	10.81	13.54	10.00	3.683	0.613	0.285	0.288	0.261	0.313	0.243	0.267	0.290	0.248	0.294	0.300	0.299	0.247	0.325	0.272	0.312	0.280	0.314	0.252	0.273	0.306	0.317
245.0	88.25	179.5	143.0	471.5	2323	2864	302.0	15.17	5.941	5.154	4.695	3.837	3.156	2.485	2.278	1.947	1.741	2.069	1.163	1.429	1.310	1.107	1.085	0.969	0.919	0.721	0.700	0.714	0.772	0.689	0.625	0.615	0.631	0.470	0.529	0.427	0.412	0.358	0.356	0.397	0.391	0.361	0.359	0.335	0.507	0.548	0.801	0.763	0.643	0.674	1.265	3.549	8.531	15.09	15.65	8.652	2.331	0.427	0.345	0.365	0.339	0.274	0.304	0.327	0.309	0.342	0.287	0.282	0.266	0.266	0.299	0.290	0.307	0.256	0.293	0.304	0.324
250.0	38.67	103.9	181.9	186.6	648.6	2086	2903	1105	81.52	6.595	5.573	4.401	3.499	2.828	2.411	2.010	1.985	2.455	1.654	1.463	1.227	1.203	1.058	1.081	0.820	0.855	0.772	0.860	0.733	0.707	0.681	0.540	0.530	0.490	0.526	0.440	0.407	0.423	0.413	0.334	0.395	0.331	0.365	0.393	0.376	0.342	0.544	0.683	0.862	0.883	0.726	1.125	2.250	4.879	8.898	13.18	16.51	14.27	7.919	2.585	0.510	0.297	0.274	0.307	0.321	0.310	0.307	0.268	0.323	0.278	0.341	0.298	0.303	0.307	0.295	0.283	0.320
255.0	23.34	37.03	97.96	216.6	234.7	497.1	1671	4423	1646	99.05	8.015	5.850	3.953	3.593	2.581	2.217	2.038	2.974	1.566	1.413	1.276	1.079	1.119	1.055	1.036	0.824	0.763	0.786	0.762	0.732	0.775	0.612	0.588	0.552	0.525	0.515	0.477	0.407	0.452	0.329	0.338	0.405	0.385	0.429	0.334	0.350	0.355	0.496	0.495	0.731	0.904	1.177	0.908	1.351	2.251	3.298	6.393	14.68	24.04	22.87	12.96	2.628	0.436	0.360	0.300	0.305	0.298	0.307	0.265	0.276	0.260	0.281	0.307	0.288	0.326	0.247	0.276
260.0	24.21	24.01	39.96	150.1	234.5	160.3	440.4	2787	5236	1307	57.92	7.618	5.573	4.416	3.181	2.488	2.082	3.300	1.541	1.440	1.329	1.226	1.086	1.002	1.068	1.004	0.803	0.823	0.757	0.782	0.740	0.652	0.555	0.598	0.473	0.472	0.451	0.404	0.435	0.398	0.329	0.446	0.363	0.373	0.315	0.356	0.366	0.356	0.381	0.423	0.532	1.210	1.408	1.042	0.819	1.132	1.734	4.143	11.16	23.93	32.99	21.74	8.958	1.459	0.331	0.366	0.289	0.263	0.326	0.329	0.277	0.270	0.248	0.255	0.335	0.285	0.356
265.0	26.80	19.98	21.07	59.87	214.7	193.7	128.5	789.6	4059	5760	988.4	21.59	6.779	4.539	3.571	2.598	2.385	3.332	1.671	1.436	1.365	1.360	1.186	0.922	0.946	1.133	0.895	0.790	0.912	0.802	0.732	0.690	0.602	0.508	0.506	0.545	0.439	0.354	0.414	0.382	0.362	0.422	0.372	0.342	0.332	0.386	0.336	0.327	0.340	0.292	0.303	0.661	1.204	1.441	1.099	0.760	0.677	1.187	2.870	7.376	19.01	34.25	28.30	18.84	4.606	0.561	0.296	0.343	0.352	0.356	0.303	0.386	0.246	0.314	0.345	0.363	0.317
270.0	26.22	22.19	16.27	23.54	85.31	217.4	202.2	217.5	1126	4102	6350	2491	61.48	7.686	5.326	3.567	2.643	4.099	1.962	1.703	1.491	1.513	1.450	1.247	1.112	0.947	0.971	0.991	0.868	0.850	0.759	0.665	0.633	0.584	0.603	0.522	0.439	0.449	0.422	0.443	0.381	0.423	0.386	0.417	0.385	0.370	0.355	0.344	0.352	0.281	0.284	0.355	0.570	0.822	1.320	1.487	1.198	0.820	0.963	1.951	4.761	10.53	18.09	29.96	31.04	30.01	11.97	4.282	0.655	0.344	0.333	0.363	0.336	0.301	0.301	0.337	0.298
275.0	36.32	28.06	19.61	18.38	29.09	80.39	265.1	249.9	287.0	972.6	3394	8980	3574	71.91	7.967	4.957	3.534	4.804	2.042	2.117	1.877	1.608	1.546	1.375	1.196	1.063	1.000	0.878	0.889	0.805	0.820	0.697	0.608	0.695	0.618	0.563	0.465	0.480	0.407	0.480	0.461	0.459	0.426	0.457	0.411	0.419	0.445	0.384	0.393	0.334	0.269	0.268	0.373	0.416	0.612	0.835	1.498	2.132	1.490	1.011	1.437	2.761	4.407	7.358	11.49	28.90	50.66	28.13	18.25	4.109	0.526	0.355	0.366	0.362	0.314	0.385	0.378
280.0	55.45	47.63	32.54	22.86	18.45	31.83	138.6	358.9	198.3	256.1	904.2	5552	9195	868.7	39.42	6.622	4.948	5.928	2.588	2.316	2.124	1.704	1.488	1.395	1.373	1.335	1.153	0.922	0.900	0.778	0.787	0.715	0.761	0.692	0.644	0.647	0.511	0.611	0.418	0.520	0.495	0.625	0.477	0.476	0.454	0.444	0.480	0.427	0.462	0.313	0.286	0.333	0.339	0.303	0.396	0.441	0.775	1.552	2.267	1.881	1.120	1.116	1.308	2.056	3.089	7.870	21.35	41.20	62.49	26.96	12.25	1.449	0.433	0.396	0.306	0.339	0.328
285.0	97.48	95.48	65.07	35.85	23.42	24.79	58.18	267.1	372.3	163.1	296.7	1619	7464	7208	596.4	16.49	6.212	7.113	3.254	2.548	2.341	1.962	1.643	1.535	1.427	1.254	1.243	1.081	0.982	0.903	0.783	0.626	0.793	0.772	0.610	0.723	0.612	0.740	0.509	0.537	0.612	0.630	0.621	0.540	0.556	0.568	0.646	0.605	0.479	0.371	0.363	0.397	0.386	0.313	0.356	0.437	0.500	0.685	1.459	2.369	2.498	1.424	0.895	1.082	1.326	2.329	5.575	12.46	32.92	58.39	65.86	22.16	6.490	0.657	0.321	0.379	0.363
290.0	225.4	230.5	177.5	89.88	47.77	41.14	57.24	143.8	368.5	485.9	365.3	659.7	2223	6114	7369	2059	35.52	12.26	4.316	3.127	2.611	2.083	1.667	1.699	1.384	1.274	1.259	1.142	1.045	0.917	0.835	0.776	0.880	0.869	0.953	1.097	1.038	0.923	0.789	0.775	0.733	0.621	0.775	0.738	0.837	0.814	0.807	0.856	0.784	0.599	0.465	0.446	0.461	0.400	0.452	0.482	0.482	0.591	0.848	1.299	2.063	2.657	2.820	2.249	1.767	1.767	2.652	4.284	8.938	17.70	32.67	46.82	41.24	43.80	13.83	5.270	0.698
295.0	372.0	403.8	307.0	161.8	76.75	68.05	81.99	143.9	273.5	601.7	854.5	698.3	952.6	1658	3982	9999.9	2858	52.74	6.345	4.642	3.379	2.746	1.951	1.850	1.528	1.425	1.427	1.113	1.082	1.144	0.878	0.768	0.819	0.927	1.186	1.489	1.401	1.234	1.024	0.977	0.901	0.890	0.972	1.209	1.081	1.153	1.221	1.211	1.027	0.914	0.596	0.607	0.546	0.582	0.524	0.521	0.613	0.737	0.797	1.155	1.451	1.880	2.734	4.345	4.552	3.450	3.033	3.439	4.114	5.888	8.911	11.89	14.38	36.45	66.59	69.72	21.52
300.0	472.9	516.5	395.8	202.0	100.1	85.00	106.4	168.5	283.2	532.4	1071	1005	788.1	694.4	1086	5953	9999.9	2776	24.35	5.558	4.226	3.222	2.264	1.996	1.865	1.570	1.396	1.281	1.099	1.070	0.851	0.946	0.840	1.002	1.328	1.443	1.596	1.395	1.183	1.120	1.038	1.044	1.100	1.387	1.330	1.499	1.505	1.429	1.383	1.089	0.730	0.697	0.597	0.621	0.663	0.556	0.687	0.852	0.961	1.070	1.463	1.884	2.356	3.425	4.956	5.728	4.705	3.858	3.719	3.691	3.913	4.132	4.155	9.641	23.96	58.18	83.39
305.0	531.1	584.7	452.8	236.1	120.6	98.13	124.3	197.0	312.8	529.1	943.7	1323	905.5	522.4	379.4	1595	7568	9999.9	369.6	11.92	5.501	3.722	2.869	2.231	2.009	1.629	1.503	1.208	1.079	1.036	0.959	1.055	0.967	1.205	1.545	1.668	1.768	1.430	1.432	1.108	1.071	1.148	1.154	1.362	1.485	1.449	1.622	1.749	1.551	1.320	0.831	0.799	0.679	0.665	0.570	0.629	0.821	0.881	1.100	1.158	1.740	1.978	2.318	2.967	4.083	5.238	6.297	5.791	4.322	3.747	3.053	2.450	1.903	3.003	6.132	15.56	37.83
310.0	544.3	598.2	466.4	248.2	134.7	108.8	137.8	208.6	331.7	533.8	823.6	1150	1170	604.6	241.1	423.1	1956	9999.9	5983	1534	25.31	5.222	3.475	2.651	2.389	1.802	1.700	1.370	1.329	1.174	1.028	1.130	1.011	1.301	1.583	1.613	1.708	1.575	1.356	1.190	1.081	1.153	1.285	1.340	1.497	1.652	1.718	1.785	1.635	1.302	0.834	0.845	0.732	0.679	0.665	0.724	0.817	0.932	1.085	1.233	1.681	2.075	2.414	2.884	3.518	4.011	4.864	5.844	6.159	5.357	3.586	2.174	1.537	1.446	2.053	4.081	9.199
315.0	553.5	579.0	453.5	245.9	139.1	115.4	145.5	210.5	323.4	514.9	748.1	916.1	990.0	844.7	289.2	172.8	480.3	2319	3314	8475	2181	29.11	4.974	3.506	2.659	2.319	1.913	1.649	1.380	1.276	1.165	0.985	1.015	1.166	1.525	1.742	1.703	1.514	1.268	1.122	1.154	1.165	1.356	1.268	1.357	1.678	1.605	1.722	1.560	1.168	0.919	0.792	0.772	0.761	0.851	0.768	0.854	0.892	1.052	1.297	1.633	2.047	2.254	2.782	3.222	3.622	3.794	4.497	4.337	4.949	5.361	3.674	1.978	1.259	1.335	1.530	2.660
320.0	517.0	558.6	441.1	241.2	141.2	122.9	149.2	207.0	315.8	478.1	677.6	819.9	795.8	765.9	470.6	147.9	161.4	562.8	829.0	4945	7984	374.6	16.67	4.366	3.493	2.538	2.014	1.727	1.526	1.356	1.342	0.982	1.187	1.203	1.547	1.765	1.571	1.510	1.246	1.108	1.149	1.239	1.301	1.291	1.308	1.539	1.512	1.676	1.492	1.220	0.874	0.833	0.783	0.731	0.772	0.707	0.898	1.036	1.141	1.233	1.543	1.975	2.128	2.660	2.975	3.387	3.370	3.884	3.626	3.592	3.975	4.302	3.575	2.070	1.283	1.025	1.310
325.0	477.9	531.7	432.5	240.5	145.0	128.2	148.6	204.4	299.5	448.2	620.5	735.2	687.6	565.2	556.5	258.8	102.6	176.7	215.3	1286	6039	6399	286.8	8.899	4.217	3.251	2.356	1.938	1.662	1.476	1.199	1.097	1.021	1.189	1.402	1.642	1.675	1.507	1.179	1.050	1.073	1.120	1.212	1.187	1.270	1.528	1.450	1.705	1.584	1.205	0.929	0.804	0.794	0.769	0.882	0.805	0.957	0.889	1.027	1.243	1.423	1.823	2.101	2.473	2.927	3.242	3.257	3.464	3.476	3.000	3.028	3.024	3.629	3.277	2.238	1.216	1.105
330.0	432.4	491.8	414.1	254.5	158.2	136.1	154.5	202.7	281.5	405.5	549.2	645.1	609.2	454.9	380.9	391.8	215.7	111.5	88.82	316.5	1551	4630	4787	1288	21.25	4.294	3.200	2.323	1.831	1.671	1.511	1.275	1.083	1.141	1.291	1.431	1.396	1.288	1.138	1.129	1.050	1.030	1.132	1.199	1.341	1.511	1.456	1.543	1.501	1.186	0.959	0.932	0.952	0.790	0.848	0.871	1.011	0.945	1.075	1.232	1.434	1.689	1.981	2.251	2.608	2.736	3.029	3.105	2.958	2.782	2.576	2.224	2.345	2.488	2.797	2.636	2.270
335.0	406.7	457.9	398.1	258.9	177.0	162.4	172.6	201.5	272.3	373.2	490.4	568.8	544.9	415.3	296.8	273.9	361.3	197.2	76.74	112.7	376.7	1071	2638	7014	1978	26.63	4.412	3.228	2.227	1.879	1.571	1.362	1.154	1.267	1.221	1.332	1.259	1.291	1.073	0.995	1.102	1.133	1.152	1.235	1.243	1.313	1.485	1.431	1.499	1.305	0.908	1.028	0.911	0.994	0.854	0.844	1.087	0.989	1.172	1.160	1.427	1.739	1.825	2.032	2.267	2.397	2.645	2.684	2.658	2.528	2.368	2.118	1.858	1.901	1.833	1.865	2.898
340.0	373.6	453.1	396.1	274.3	200.1	182.1	186.2	216.3	268.0	352.8	450.2	519.3	501.8	396.6	284.2	224.9	289.7	331.7	121.8	78.51	125.3	270.4	660.7	4037	6781	340.6	16.40	3.918	2.823	2.397	1.705	1.487	1.406	1.217	1.210	1.323	1.354	1.194	1.049	1.117	1.099	1.052	1.017	1.135	1.170	1.262	1.471	1.545	1.418	1.273	0.963	1.097	1.128	0.960	1.006	0.935	1.028	0.958	1.133	1.251	1.467	1.669	1.718	1.898	2.192	2.196	2.468	2.457	2.638	2.604	2.185	2.182	1.823	1.903	1.614	1.467	2.057
345.0	374.3	422.0	392.6	287.5	219.9	202.9	200.4	225.4	262.8	338.2	421.6	474.3	468.6	378.6	287.2	222.6	215.7	326.4	236.4	97.07	80.27	103.6	180.5	1049	4883	5521	278.9	8.175	3.654	2.849	2.070	1.554	1.367	1.284	1.464	1.195	1.156	1.163	1.032	1.151	1.011	0.988	1.136	1.139	1.144	1.273	1.364	1.504	1.517	1.196	1.001	1.092	1.140	1.075	1.043	0.944	1.095	1.094	1.249	1.277	1.358	1.582	1.651	2.003	2.045	2.294	2.170	2.271	2.223	2.295	2.165	2.115	1.840	1.837	1.589	1.612	1.618
350.0	354.5	403.9	379.3	301.5	244.0	228.0	227.3	239.6	266.2	324.4	388.2	430.7	426.5	365.2	298.5	241.5	208.7	235.6	287.4	218.4	110.4	88.22	91.09	271.5	1254	3633	3818	1183	20.28	3.854	2.728	1.882	1.611	1.423	1.292	1.250	1.265	1.123	1.094	0.985	0.960	1.072	1.048	1.159	1.186	1.355	1.342	1.450	1.423	1.282	1.162	1.162	1.299	1.143	1.049	1.078	1.229	1.267	1.357	1.287	1.370	1.536	1.568	1.916	1.864	2.024	1.966	2.071	2.118	2.218	2.183	2.042	2.036	1.824	1.579	1.755	1.700
355.0	347.7	398.4	369.5	306.1	270.4	259.8	257.5	265.9	279.3	320.0	368.6	405.3	402.1	361.5	310.3	262.3	232.5	220.4	223.8	287.6	227.0	118.7	93.99	118.2	319.9	847.2	1896	5364	1900	26.04	3.882	2.484	1.836	1.467	1.317	1.254	1.225	1.203	1.103	0.976	1.047	1.081	1.023	1.194	1.118	1.307	1.264	1.437	1.344	1.233	1.192	1.236	1.313	1.373	1.352	1.203	1.286	1.334	1.288	1.311	1.437	1.633	1.783	1.707	1.834	1.925	1.915	2.014	2.220	2.073	2.064	1.922	2.071	1.862	1.822	1.824	1.696
360.0	334.4	381.1	374.6	322.8	293.5	286.4	282.4	287.9	295.1	322.2	360.8	389.4	391.0	360.8	320.9	281.3	253.4	233.7	219.3	245.1	304.3	184.8	115.1	97.69	124.8	226.9	474.5	2843	5537	329.2	17.09	3.611	2.248	1.843	1.360	1.359	1.229	1.161	1.150	1.065	1.033	0.982	1.085	1.193	1.123	1.347	1.192	1.468	1.357	1.244	1.214	1.411	1.425	1.461	1.430	1.300	1.438	1.410	1.371	1.446	1.526	1.541	1.793	1.553	1.747	1.690	1.934	1.846	2.099	2.025	2.024	1.922	2.053	1.955	2.030	1.932	1.786
365.0	331.9	367.6	368.8	341.3	316.3	313.4	300.5	298.5	302.1	326.3	362.3	382.0	385.7	362.1	328.5	299.5	273.4	256.3	234.4	228.4	282.8	275.4	154.7	110.5	94.93	99.64	140.4	725.8	3623	4826	280.5	8.745	2.959	2.385	1.683	1.501	1.189	1.210	1.128	1.160	1.023	1.122	1.138	1.080	1.175	1.356	1.310	1.416	1.362	1.336	1.129	1.405	1.497	1.396	1.371	1.326	1.451	1.584	1.405	1.560	1.638	1.604	1.784	1.646	1.785	1.702	1.913	2.057	1.972	2.052	2.017	1.911	1.958	1.984	1.995	2.010	2.059
370.0	339.6	373.8	381.0	350.8	341.7	334.9	326.5	319.6	323.6	338.7	360.0	381.1	383.9	364.5	337.0	313.6	295.9	282.3	263.2	248.2	249.3	283.6	255.5	157.8	111.6	89.77	79.85	196.6	914.2	2913	3286	1145	18.68	3.157	2.218	1.673	1.454	1.390	1.094	1.109	1.066	1.146	1.115	1.183	1.192	1.292	1.353	1.456	1.484	1.420	1.251	1.547	1.425	1.414	1.540	1.572	1.670	1.646	1.613	1.609	1.692	1.642	1.944	1.782	1.775	1.677	1.965	2.041	1.916	2.099	2.043	2.069	2.020	2.095	1.991	2.045	2.211
375.0	353.1	389.1	389.3	370.6	369.0	356.4	343.3	349.9	338.8	354.6	368.5	379.9	385.2	364.1	347.6	330.6	317.5	306.7	292.8	274.7	259.9	251.0	277.4	252.2	149.7	107.4	83.75	93.33	238.2	678.7	1425	4444	1822	24.31	3.118	2.050	1.713	1.494	1.282	1.084	1.210	1.166	1.249	1.257	1.196	1.263	1.436	1.413	1.581	1.406	1.309	1.559	1.613	1.468	1.625	1.490	1.657	1.690	1.729	1.767	1.785	1.738	1.725	1.773	1.816	1.788	1.954	1.932	1.930	2.101	2.144	2.184	2.061	2.150	2.079	2.149	2.150
380.0	353.2	394.1	394.5	385.3	379.1	379.9	367.9	361.0	352.4	369.0	377.9	383.6	382.3	370.2	355.8	339.0	327.1	321.5	308.6	291.8	274.2	255.4	250.7	288.5	209.8	130.7	98.42	80.84	98.26	182.7	352.9	2098	4451	1274	16.53	2.742	1.849	1.599	1.602	1.244	1.282	1.259	1.178	1.246	1.173	1.288	1.349	1.413	1.452	1.486	1.310	1.506	1.558	1.714	1.715	1.665	1.727	1.696	1.870	1.659	1.884	1.766	1.748	1.681	1.919	1.739	2.005	1.884	2.098	2.068	2.133	2.084	2.350	2.267	2.278	2.353	2.217
385.0	357.2	398.3	400.1	389.4	385.3	388.4	374.3	374.2	363.1	371.7	378.6	388.1	384.8	375.6	360.4	344.0	336.7	331.3	320.6	304.4	287.1	264.5	245.8	265.0	265.5	167.9	113.6	89.72	78.29	79.69	106.2	524.2	2528	3877	247.8	9.092	2.395	1.988	1.615	1.352	1.308	1.229	1.202	1.187	1.323	1.291	1.374	1.356	1.545	1.475	1.319	1.558	1.730	1.610	1.740	1.612	1.867	1.895	1.734	1.838	1.857	1.883	1.909	1.791	1.853	1.785	1.961	1.950	1.997	2.178	2.156	2.290	2.238	2.464	2.342	2.164	2.440
390.0	359.3	403.2	418.9	406.8	396.3	401.4	396.7	391.9	385.6	382.9	383.8	392.6	385.6	375.9	366.1	353.1	344.5	339.8	330.4	313.0	300.1	279.8	258.3	243.9	250.7	233.8	158.0	112.1	90.60	72.27	63.42	144.3	622.1	1971	2329	1024	16.78	2.939	1.830	1.537	1.414	1.332	1.266	1.387	1.427	1.350	1.364	1.505	1.560	1.404	1.399	1.614	1.722	1.785	1.849	1.727	1.844	1.941	1.901	1.861	1.831	1.882	1.927	1.926	1.820	1.753	2.021	1.974	2.067	2.079	2.151	2.178	2.191	2.485	2.377	2.317	2.518
395.0	360.0	409.8	420.7	419.7	419.0	407.0	411.9	405.1	397.1	392.4	393.4	400.7	386.3	379.7	365.6	357.6	346.9	345.8	338.3	321.5	308.7	292.0	272.0	250.6	231.2	232.4	226.3	150.7	111.4	89.12	69.22	69.55	165.3	459.4	859.7	2903	1541	23.02	2.788	2.002	1.676	1.517	1.401	1.435	1.393	1.446	1.449	1.435	1.539	1.526	1.416	1.575	1.697	1.685	1.762	1.916	1.860	2.040	1.941	1.811	1.819	1.933	1.867	1.993	1.956	1.882	1.890	2.122	2.003	2.245	2.009	2.029	2.144	2.406	2.364	2.389	2.523
400.0	365.5	408.6	431.8	420.3	425.8	419.3	421.1	417.3	403.0	399.9	402.5	402.3	392.3	381.2	368.7	355.0	346.0	344.1	339.0	324.2	313.6	293.6	281.4	257.1	232.7	218.3	233.3	201.2	133.7	103.2	80.63	63.71	69.57	125.3	213.3	1204	3044	1122	15.67	2.648	2.004	1.668	1.543	1.444	1.333	1.483	1.635	1.496	1.566	1.525	1.420	1.653	1.829	1.786	1.785	1.722	1.855	1.946	1.913	1.927	1.824	2.025	1.860	1.960	2.120	1.837	1.912	1.995	1.981	2.003	1.879	2.052	2.184	2.305	2.372	2.315	2.621
405.0	383.7	417.5	448.3	427.7	432.6	427.4	422.1	420.3	412.2	409.5	402.6	402.7	393.2	379.0	368.2	352.3	343.7	339.2	336.7	325.6	313.4	298.0	286.8	263.8	240.3	217.5	215.2	230.3	171.0	119.8	91.33	70.38	56.41	55.81	67.45	295.5	1489	2821	226.9	10.43	2.187	1.820	1.634	1.528	1.386	1.424	1.562	1.518	1.685	1.410	1.454	1.689	1.802	1.889	1.947	1.802	2.019	1.986	1.825	2.074	1.818	2.117	2.071	1.857	2.110	1.880	2.005	1.949	2.076	2.139	2.173	2.093	2.168	2.197	2.278	2.489	2.487
410.0	376.8	408.2	436.3	431.1	424.3	433.4	427.6	420.2	418.9	414.9	409.3	405.0	391.9	376.3	360.8	345.6	338.2	332.9	329.9	318.9	309.6	297.8	285.4	267.2	248.4	225.9	209.8	212.0	209.4	160.6	111.3	84.06	63.75	49.04	41.18	84.53	360.2	1265	1736	921.9	16.39	2.428	1.835	1.699	1.576	1.570	1.537	1.540	1.665	1.532	1.444	1.745	1.891	1.921	1.834	1.863	1.800	2.029	1.953	1.947	2.175	2.074	1.993	2.055	2.053	1.877	1.960	1.947	2.031	2.119	2.014	2.139	2.210	2.242	2.330	2.478	2.667
415.0	362.0	413.3	425.0	434.9	436.9	431.1	438.7	429.0	427.5	416.5	415.4	400.2	382.8	373.6	350.8	338.1	326.8	323.2	320.9	310.4	302.6	291.4	279.5	267.4	251.1	231.3	213.0	199.5	197.1	199.3	143.2	98.44	73.74	56.19	42.16	42.62	96.69	294.5	562.6	1923	1353	23.11	2.725	1.933	1.613	1.638	1.542	1.613	1.730	1.629	1.597	1.709	1.980	1.771	1.838	1.876	1.877	2.060	2.043	1.996	2.188	1.969	1.858	2.063	2.005	1.962	1.899	1.910	2.155	2.053	2.083	1.961	1.965	2.354	2.184	2.269	2.557
420.0	355.3	400.1	416.0	415.7	429.3	419.5	437.8	426.2	415.9	418.1	410.0	399.7	376.2	363.7	342.9	327.5	318.4	312.4	308.6	303.9	292.9	284.2	278.2	265.7	248.2	233.7	214.6	200.3	186.3	198.1	174.2	115.0	82.72	62.71	46.94	37.09	41.22	79.63	137.4	720.4	2147	958.4	16.54	2.427	1.987	1.758	1.538	1.602	1.657	1.689	1.552	1.771	1.940	1.808	1.856	2.014	1.902	1.884	2.062	1.898	2.038	2.086	1.985	1.973	2.009	1.972	1.871	1.923	2.090	1.970	2.095	1.977	2.181	2.381	2.002	2.206	2.376
425.0	375.4	404.3	416.6	411.2	416.4	421.9	424.8	422.7	420.8	413.7	412.4	396.1	375.6	352.4	336.9	317.2	309.1	304.4	302.1	295.1	282.2	275.8	271.0	259.9	249.4	230.5	213.6	200.4	186.4	181.1	183.8	140.9	92.05	68.25	52.42	39.56	32.33	34.18	43.01	174.8	937.4	2072	220.0	10.25	2.268	1.903	1.822	1.596	1.623	1.569	1.533	1.724	1.704	1.848	1.903	1.931	1.906	1.915	1.910	2.088	1.930	2.055	2.017	2.031	2.064	2.031	1.910	1.862	1.930	1.992	2.051	1.968	1.996	2.212	2.123	2.077	2.210
430.0	626.3	392.0	402.2	403.6	404.1	406.0	419.9	418.3	415.5	414.2	404.7	391.0	372.0	344.0	326.5	308.0	298.0	290.2	286.8	280.1	271.3	266.7	261.0	253.4	244.4	229.6	214.1	201.3	187.6	175.1	168.0	159.3	119.3	80.01	59.44	46.04	35.72	29.23	24.89	50.56	224.2	850.8	1419	842.8	16.02	2.599	1.979	1.774	1.726	1.631	1.503	1.595	1.814	1.757	1.822	1.781	1.912	1.946	1.950	1.987	1.964	2.056	1.993	1.836	1.965	2.042	1.833	1.883	1.924	1.854	1.977	1.938	1.932	2.032	2.069	2.078	2.172
435.0	1395	413.7	382.4	395.4	395.6	394.3	409.8	417.3	413.7	409.8	409.0	390.7	366.2	339.9	313.0	295.9	284.0	281.9	276.5	267.1	263.7	254.7	250.6	243.7	235.8	226.0	215.3	201.0	187.9	174.6	160.6	146.8	140.2	101.6	69.01	52.62	41.83	32.59	25.17	25.73	60.86	198.0	421.8	1546	1322	21.74	2.563	2.029	1.809	1.519	1.439	1.664	1.634	1.705	1.787	1.803	1.906	1.923	1.780	1.966	1.997	1.925	1.904	1.947	1.881	1.982	1.680	1.753	1.840	1.810	1.846	1.894	1.987	1.923	1.945	2.108	2.092
440.0	1795	654.0	384.9	388.2	381.3	394.5	395.7	409.9	416.3	409.0	399.9	383.9	358.3	330.7	309.2	287.3	273.0	267.0	262.8	257.6	252.8	246.4	243.6	238.1	230.4	219.9	209.3	201.3	189.9	174.4	158.6	140.3	134.1	119.3	80.70	57.27	45.56	35.81	27.40	22.81	26.22	54.16	102.5	565.4	1939	891.6	14.71	2.412	1.854	1.572	1.420	1.730	1.688	1.705	1.712	1.850	1.834	1.773	1.878	1.990	2.013	2.025	2.057	1.891	2.024	1.979	1.908	1.788	1.797	1.841	1.935	1.852	1.905	1.987	1.758	1.985	1.908
445.0	1577	1197	375.8	370.5	383.0	384.2	393.9	399.2	406.2	406.4	396.3	375.3	348.3	321.5	296.3	279.5	262.7	258.5	253.8	247.2	241.7	236.6	234.4	226.8	220.5	214.6	204.6	197.4	188.4	176.1	157.6	137.4	123.2	122.5	96.51	64.04	50.00	38.50	30.36	24.04	20.50	23.29	31.84	136.9	819.9	1861	188.1	9.548	2.059	1.722	1.424	1.678	1.726	1.776	1.705	1.828	1.905	1.747	1.881	1.892	1.960	2.054	1.938	1.870	1.933	1.929	1.902	1.937	1.857	1.751	1.897	1.851	1.778	2.000	1.860	1.861	1.980
450.0	788.7	1852	665.7	359.9	362.3	367.7	373.5	384.4	389.3	394.0	385.2	361.2	333.5	308.3	282.3	262.0	248.1	242.1	236.7	227.4	224.6	221.2	219.3	214.0	208.6	203.5	195.9	185.4	179.9	170.3	153.7	135.8	117.0	109.3	104.0	80.63	55.33	42.45	34.22	27.44	22.24	19.13	17.92	39.03	195.3	757.0	1234	699.9	13.13	2.283	1.642	1.600	1.826	1.661	1.721	1.713	1.768	1.772	1.861	1.837	1.915	1.983	1.875	1.880	1.788	1.908	1.845	1.835	1.827	1.771	1.765	1.780	1.875	1.695	1.746	1.806	1.928
455.0	384.8	1399	1629	393.8	339.2	350.4	356.7	362.6	363.5	374.5	369.4	343.7	316.9	289.7	263.2	243.8	230.9	224.2	216.0	208.4	206.0	202.7	201.5	198.7	194.1	189.4	180.6	175.0	171.0	162.1	148.9	131.6	114.0	99.72	91.95	88.82	68.01	47.08	37.69	30.46	24.86	20.21	16.62	18.58	51.15	174.9	370.2	1233	899.7	15.83	2.095	1.856	1.764	1.546	1.561	1.517	1.701	1.751	1.822	1.859	1.686	1.777	1.859	1.747	1.699	1.791	1.783	1.735	1.610	1.718	1.772	1.644	1.821	1.671	1.643	1.588	1.781
460.0	301.7	735.8	2116	601.1	319.4	323.7	338.6	344.4	351.1	356.8	349.7	327.3	303.9	275.0	249.9	227.9	216.4	210.3	202.1	193.2	190.2	189.0	189.1	186.4	181.0	174.8	170.7	165.4	160.8	155.6	144.2	128.0	110.7	97.06	84.81	82.96	77.54	53.24	40.01	32.58	26.78	21.97	17.53	15.01	20.20	45.72	88.73	455.1	1390	610.9	10.25	2.032	1.768	1.449	1.548	1.551	1.567	1.741	1.706	1.684	1.816	1.852	1.867	1.778	1.814	1.716	1.630	1.661	1.675	1.477	1.689	1.676	1.610	1.461	1.561	1.512	1.636
465.0	287.0	394.5	1783	1301	315.8	305.4	319.3	325.1	336.9	339.5	334.5	312.3	290.3	259.9	237.8	214.9	204.0	197.5	187.9	182.6	178.6	176.4	175.7	173.0	169.1	165.0	159.4	156.4	153.3	147.7	137.9	123.5	108.6	93.50	81.35	73.75	76.22	60.84	42.46	33.40	27.78	23.33	19.03	15.52	14.07	18.30	25.91	109.3	631.6	1339	144.0	6.206	1.969	1.706	1.573	1.641	1.682	1.885	1.710	1.552	1.760	1.819	1.628	1.781	1.693	1.648	1.572	1.476	1.546	1.483	1.783	1.651	1.422	1.568	1.410	1.538	1.558
470.0	278.3	285.4	827.4	1885	667.9	288.5	293.4	304.7	310.1	312.7	312.5	288.8	269.7	240.3	218.2	198.9	184.6	179.0	171.9	165.3	161.7	160.1	158.8	157.3	152.3	149.3	144.2	143.0	140.4	136.5	127.7	116.0	102.7	89.00	77.24	68.04	64.69	62.40	49.71	36.01	29.14	24.42	20.01	16.79	14.31	12.97	12.57	30.24	150.7	582.0	857.7	475.1	11.50	2.043	1.653	1.510	1.598	1.638	1.629	1.559	1.569	1.675	1.593	1.596	1.616	1.513	1.490	1.477	1.554	1.404	1.533	1.552	1.332	1.422	1.342	1.453	1.483
475.0	274.7	257.9	367.4	1314	1578	309.5	265.4	275.2	283.3	285.2	285.1	268.5	246.5	220.5	194.3	182.8	170.4	163.2	153.1	148.4	145.3	143.9	141.6	139.5	138.2	136.2	131.5	129.1	129.3	124.2	117.9	107.2	96.26	82.82	73.56	63.78	57.38	54.33	54.55	42.21	30.84	25.17	21.14	17.97	15.16	12.88	10.46	13.04	38.27	134.0	265.8	858.1	566.8	15.07	1.914	1.656	1.510	1.544	1.435	1.427	1.488	1.600	1.596	1.419	1.601	1.308	1.448	1.327	1.345	1.293	1.421	1.390	1.243	1.335	1.237	1.297	1.405
480.0	249.6	249.7	262.7	638.9	1990	441.2	257.0	263.2	270.7	267.2	269.0	253.8	236.4	207.0	184.0	169.9	158.1	151.1	142.7	138.1	133.7	132.7	131.5	131.8	127.4	125.7	124.4	120.6	118.8	115.0	109.9	100.7	91.28	79.78	71.11	62.30	54.97	48.93	50.57	46.52	33.99	25.67	21.91	18.45	15.95	13.35	10.56	9.867	13.88	34.44	63.77	330.8	1011	181.6	8.885	1.750	1.623	1.606	1.373	1.464	1.510	1.369	1.498	1.375	1.506	1.449	1.393	1.256	1.272	1.345	1.325	1.432	1.184	1.107	1.292	1.303	1.269
485.0	216.9	259.3	224.0	320.2	1658	1171	247.4	244.9	255.2	252.8	254.7	241.3	222.2	197.3	174.7	158.5	149.0	140.8	135.0	129.2	126.5	123.9	122.5	122.3	120.3	117.3	115.4	112.4	112.7	108.5	104.0	96.39	86.48	76.66	67.03	59.76	53.90	47.07	44.06	46.59	38.57	27.20	22.31	18.72	16.02	13.88	11.23	9.449	9.201	12.17	18.10	79.63	518.9	947.9	143.7	3.641	1.834	1.573	1.465	1.431	1.405	1.408	1.446	1.343	1.426	1.460	1.367	1.090	1.293	1.226	1.331	1.352	1.141	1.212	1.167	1.241	1.227
490.0	177.1	255.7	219.9	228.3	755.9	1808	536.1	229.9	237.3	239.2	240.5	228.0	206.7	185.8	166.4	148.0	139.1	130.2	125.0	117.7	116.4	113.3	111.8	112.0	108.5	107.6	105.7	103.5	103.2	100.3	96.79	89.33	81.24	72.29	63.96	57.00	51.01	45.39	39.94	39.54	40.26	32.43	23.83	19.52	16.78	14.47	11.85	10.26	8.457	7.767	8.253	21.60	125.2	458.1	792.0	362.5	10.96	1.827	1.580	1.467	1.309	1.370	1.264	1.379	1.283	1.308	1.212	1.226	1.236	1.206	1.115	1.226	1.117	1.204	1.224	1.257	1.153
495.0	157.6	213.8	243.3	189.6	311.0	1301	1440	244.1	216.5	222.5	222.5	207.0	191.0	171.4	151.8	133.8	126.0	115.5	111.1	107.1	103.4	102.9	99.52	98.87	98.87	96.74	93.97	93.83	94.19	92.16	88.04	82.21	74.36	66.89	59.50	53.57	48.03	42.90	37.75	34.87	35.20	35.16	27.09	20.50	17.31	14.65	12.43	10.55	9.002	7.320	6.429	8.839	31.16	105.3	289.9	879.6	201.3	12.74	1.692	1.520	1.331	1.331	1.216	1.283	1.160	1.181	1.213	1.095	1.166	1.226	1.108	1.210	1.009	1.095	1.022	1.128	1.159
500.0	146.8	169.1	244.7	184.7	202.8	650.1	2002	324.6	202.2	207.9	202.6	190.9	176.2	160.6	138.4	124.0	115.4	107.9	103.2	99.15	94.99	93.50	92.21	91.68	89.94	89.96	86.40	85.78	86.50	84.78	81.27	75.42	67.69	63.03	55.81	50.91	45.94	40.63	35.99	32.88	31.10	32.69	30.16	21.98	17.27	14.61	12.63	10.72	9.201	7.364	6.099	5.877	10.47	26.55	68.73	388.8	880.9	175.7	5.666	1.367	1.422	1.364	1.280	1.307	1.165	1.094	1.006	1.042	1.146	1.135	1.109	1.002	0.981	1.091	1.055	1.011	1.142
505.0	137.6	146.9	216.0	188.0	168.1	299.1	1812	959.2	190.9	195.0	188.1	180.1	163.9	149.0	129.9	115.2	105.0	101.2	94.36	90.77	87.21	83.51	84.67	82.15	81.53	80.21	78.88	77.76	78.15	78.42	75.52	70.26	63.97	57.59	52.10	47.28	42.92	38.45	33.71	30.82	28.08	28.45	30.42	24.35	17.55	14.92	12.50	10.68	9.297	7.741	6.249	5.527	5.805	9.063	18.30	94.94	518.9	796.7	26.88	2.163	1.519	1.245	1.079	1.191	1.082	1.014	1.010	1.106	1.067	1.155	1.090	1.100	0.929	0.977	1.014	0.973	0.950
510.0	120.7	125.9	162.1	196.5	156.4	180.0	862.2	1739	416.7	171.1	170.6	160.7	145.9	132.3	114.7	104.4	93.86	89.34	84.45	80.88	77.73	74.23	73.59	73.08	71.98	69.63	69.86	69.02	68.67	68.11	65.58	62.65	57.00	51.32	46.67	42.58	38.64	34.83	31.30	28.55	25.76	24.20	25.09	25.01	19.97	15.00	12.49	10.49	8.836	7.727	6.548	5.398	4.957	5.220	6.846	23.73	127.3	431.9	583.0	113.4	8.607	1.378	1.086	1.138	0.993	0.978	1.034	0.926	0.891	1.069	0.995	0.959	0.964	0.976	0.860	0.937	0.918
515.0	97.67	117.0	127.3	174.0	162.2	135.9	301.2	1442	1267	173.3	149.4	144.9	127.1	116.1	100.9	89.87	83.40	78.14	72.33	70.48	67.03	64.01	64.14	62.87	61.60	60.89	59.27	59.40	59.49	58.91	57.88	54.37	49.88	45.04	41.09	37.45	34.64	30.86	28.05	25.11	23.48	21.46	20.34	21.41	21.26	16.22	12.14	10.56	8.867	7.484	6.493	5.752	4.843	4.373	4.392	7.829	30.66	98.77	238.7	608.3	180.7	8.173	1.096	1.021	0.956	0.982	0.974	0.932	0.808	0.978	0.937	0.847	0.756	0.803	0.835	0.826	0.869
520.0	95.20	109.9	108.8	144.6	167.9	121.8	160.4	739.2	1929	238.4	138.3	126.6	116.0	106.0	92.11	82.02	76.43	69.54	65.35	62.38	60.45	58.11	57.16	56.42	55.05	53.74	53.27	52.65	53.44	53.11	51.64	47.94	44.65	40.29	37.38	33.86	31.13	28.78	26.30	23.39	21.71	19.75	18.41	18.15	20.28	17.65	12.55	10.03	8.616	7.087	6.223	5.531	5.008	4.155	3.870	4.085	9.134	23.91	57.05	312.7	602.8	132.7	2.663	1.137	0.870	1.034	0.929	0.836	0.799	0.854	0.786	0.748	0.752	0.735	0.755	0.725	0.848
525.0	92.57	92.90	101.5	111.0	166.7	118.8	121.9	294.9	1875	827.9	128.9	117.2	107.4	95.99	83.70	75.03	68.44	62.05	58.98	56.68	54.47	53.59	51.20	50.03	50.05	48.03	47.47	47.57	48.18	47.44	46.97	44.04	40.96	36.99	33.99	30.99	28.64	26.10	23.40	22.11	19.75	17.95	17.01	15.49	16.64	17.59	13.59	10.02	8.055	6.950	6.013	5.520	4.962	4.495	3.640	3.382	4.421	7.342	14.50	78.41	392.4	514.9	24.34	1.550	0.951	0.902	0.822	0.820	0.829	0.754	0.721	0.745	0.752	0.663	0.703	0.708	0.792
530.0	79.18	83.85	87.15	91.30	132.4	132.2	105.1	146.3	897.2	1750	316.1	104.2	95.63	82.13	73.10	65.99	59.68	53.94	51.85	48.79	47.34	45.85	44.36	43.73	43.37	41.82	41.81	41.57	42.05	41.60	40.65	37.29	35.60	32.26	29.54	27.68	25.62	23.04	21.18	19.55	17.98	16.24	15.01	14.00	13.79	14.85	14.29	10.70	7.761	6.717	5.751	5.262	4.738	4.445	3.723	3.157	3.198	3.574	5.059	19.04	98.61	309.6	307.6	103.1	6.174	1.001	0.800	0.747	0.787	0.687	0.765	0.712	0.703	0.706	0.651	0.656	0.683
535.0	70.05	79.01	79.01	78.64	91.38	136.4	96.56	100.8	278.9	1580	1141	105.3	82.43	72.07	63.42	56.14	52.48	46.91	45.07	42.80	40.07	40.09	37.99	39.01	37.01	35.72	35.83	35.08	35.60	36.00	34.12	31.89	30.06	28.16	25.64	24.26	22.49	19.62	18.69	16.92	16.01	14.58	13.47	12.52	11.83	11.87	12.65	11.64	8.413	6.457	5.338	4.911	4.371	3.880	3.831	3.159	2.764	2.610	2.881	5.730	23.35	70.76	156.6	436.5	148.2	4.437	0.890	0.748	0.721	0.747	0.653	0.610	0.566	0.623	0.620	0.737	0.676
540.0	68.28	67.08	69.53	73.05	73.74	123.3	108.3	84.10	125.2	809.6	1932	168.8	74.64	67.17	58.56	51.12	46.37	43.74	41.11	37.80	36.53	34.75	35.46	33.36	33.14	32.18	31.93	31.27	32.21	32.18	30.66	28.73	27.24	25.02	23.49	21.73	20.12	18.33	17.10	15.79	14.53	13.46	12.34	11.63	10.73	9.907	10.68	11.30	9.168	6.491	5.060	4.622	4.102	3.809	3.661	3.337	2.967	2.231	2.340	2.678	6.440	17.08	38.29	238.6	415.4	27.10	1.629	0.915	0.795	0.742	0.726	0.622	0.635	0.613	0.635	0.615	0.613
545.0	65.52	61.53	62.59	64.05	63.92	99.02	114.8	74.75	85.56	296.6	2006	660.9	70.88	61.16	53.81	47.09	43.28	39.71	37.04	35.15	32.95	31.99	31.85	30.09	29.55	29.12	27.44	28.95	29.35	28.67	27.83	26.31	24.28	22.81	21.23	19.53	18.14	16.49	15.52	14.38	13.06	12.42	11.46	10.66	10.17	9.128	8.701	9.799	9.489	6.707	4.994	4.468	3.902	3.562	3.440	3.169	3.033	2.209	2.042	1.971	2.687	4.943	9.670	60.89	285.8	329.3	21.42	0.998	0.862	0.680	0.649	0.604	0.662	0.636	0.669	0.570	0.556
550.0	59.14	55.17	57.39	54.58	54.08	67.35	113.1	82.12	69.25	120.8	980.8	1602	207.3	53.29	47.46	41.11	37.55	34.53	32.20	30.91	28.57	28.11	27.12	26.64	26.07	25.17	24.60	24.73	24.98	24.58	23.96	22.58	21.34	19.78	18.30	17.23	15.85	14.72	13.48	12.84	11.70	10.70	9.955	9.297	8.981	8.305	7.553	7.647	8.289	7.315	5.359	4.199	3.618	3.212	3.219	2.958	2.744	2.480	1.995	1.840	1.864	2.288	3.198	14.63	72.75	217.7	247.0	88.52	4.546	0.716	0.666	0.563	0.624	0.538	0.608	0.521	0.495
555.0	49.07	54.48	51.05	46.49	46.06	53.07	83.72	96.80	59.85	72.55	279.0	1619	898.9	52.15	39.92	36.63	32.71	29.77	27.49	25.96	24.26	23.37	23.13	22.61	22.34	21.47	20.96	20.73	20.61	21.11	20.29	18.81	17.70	16.46	15.45	14.44	13.44	12.29	11.82	11.05	10.30	9.259	8.741	8.252	8.154	7.239	6.723	6.245	5.959	6.903	5.737	4.286	3.237	3.186	2.852	2.592	2.416	2.608	2.121	1.615	1.650	1.541	1.762	4.259	17.07	49.89	122.5	311.7	111.4	2.857	0.706	0.601	0.638	0.485	0.539	0.478	0.497
560.0	49.80	50.44	47.25	43.33	41.72	44.70	63.59	101.1	63.34	58.61	106.4	842.2	1686	106.3	36.66	32.53	28.91	26.61	24.30	23.40	21.65	20.88	20.01	19.39	19.16	19.25	18.53	18.47	18.15	19.08	18.10	16.73	15.71	14.97	13.78	12.78	12.35	11.10	10.49	9.864	9.130	8.632	7.577	7.482	7.104	6.684	5.959	5.411	4.887	5.676	5.867	4.621	3.161	2.974	2.768	2.511	2.262	2.203	2.146	1.685	1.507	1.331	1.326	1.922	4.803	11.85	29.86	171.7	293.1	25.56	1.361	0.605	0.554	0.467	0.573	0.531	0.465
565.0	44.68	50.77	40.15	35.68	39.83	40.27	48.29	94.47	67.41	54.45	63.28	289.5	1864	446.7	34.20	27.91	25.63	23.87	21.51	20.41	18.75	18.58	17.73	17.45	17.08	16.95	16.39	16.36	16.34	16.38	16.06	15.46	14.35	13.46	12.10	11.69	10.98	10.09	9.310	8.999	8.105	7.477	7.214	6.604	6.620	6.048	5.513	5.013	4.367	4.591	5.278	4.892	3.277	2.697	2.582	2.308	2.150	2.018	1.918	1.816	1.429	1.292	1.329	1.273	1.925	3.393	7.482	44.32	206.6	212.4	18.94	0.749	0.545	0.430	0.486	0.523	0.463
570.0	40.45	42.04	40.07	35.03	36.27	34.96	36.80	63.90	83.18	52.05	51.51	103.7	914.3	1278	75.02	24.61	21.73	19.72	18.43	16.80	15.97	15.77	14.46	14.56	14.28	13.85	13.34	13.28	13.53	13.60	13.17	12.79	11.74	10.88	9.966	9.678	9.189	8.540	7.891	7.372	6.953	6.496	5.955	5.802	5.319	5.198	4.512	4.269	3.783	3.534	3.772	4.318	3.596	2.795	2.275	2.011	1.972	1.705	1.650	1.697	1.606	1.316	1.200	1.012	1.223	1.497	2.469	10.60	52.82	145.3	180.5	59.60	2.825	0.508	0.487	0.451	0.471
575.0	45.77	37.15	39.98	31.44	28.71	28.56	32.00	43.03	82.84	63.23	49.58	62.11	253.8	1416	598.5	23.92	17.95	15.89	14.45	13.23	12.19	12.43	12.11	11.70	10.99	10.80	10.35	10.86	10.60	10.99	10.36	9.846	9.244	8.616	8.105	8.000	7.236	7.009	6.252	6.109	5.417	5.142	4.800	4.666	4.286	4.350	3.619	3.534	3.140	2.756	2.682	3.027	3.563	2.765	2.147	1.830	1.448	1.536	1.426	1.493	1.401	1.483	1.106	0.985	1.004	1.127	1.187	2.960	12.39	33.46	83.03	191.7	28.19	1.785	0.417	0.429	0.474
580.0	46.23	43.61	40.45	28.45	26.20	25.58	28.36	33.11	66.47	79.63	54.66	56.66	95.32	734.5	1308	59.65	15.39	13.54	12.63	11.59	10.26	10.58	10.11	9.506	9.617	8.535	8.521	8.431	8.588	9.011	8.567	8.294	7.823	7.307	6.640	6.215	5.908	5.842	5.163	5.076	4.524	4.113	4.061	3.722	3.691	3.541	3.056	2.991	2.710	2.437	2.206	2.210	2.901	2.740	2.206	1.618	1.319	1.268	1.242	1.124	1.222	1.234	1.186	0.960	1.056	0.986	0.954	1.315	3.427	8.123	20.36	104.2	164.4	22.38	0.905	0.453	0.481
585.0	48.91	48.01	37.61	26.03	24.32	23.37	24.85	26.89	47.79	90.28	59.62	57.99	61.05	245.0	1530	278.3	13.57	11.40	10.59	9.643	8.818	8.812	8.010	7.936	7.642	7.101	7.503	7.119	7.411	7.477	6.787	6.448	6.366	6.231	5.330	5.189	4.826	4.780	4.229	3.979	3.645	3.438	3.460	3.179	3.218	2.806	2.712	2.437	2.166	2.105	1.890	1.722	1.973	2.354	2.199	1.458	1.210	1.260	1.040	1.063	0.986	0.956	1.218	1.048	0.962	0.942	0.984	0.977	1.426	2.512	5.128	26.86	115.3	124.7	14.59	0.463	0.396
590.0	49.16	49.72	41.85	27.37	19.35	19.63	21.84	24.71	35.99	81.08	76.50	61.09	56.80	84.68	749.8	915.9	45.38	9.667	8.511	7.444	7.245	6.503	6.182	6.256	5.974	5.649	5.880	5.588	5.888	5.771	5.406	5.231	5.056	4.517	4.426	4.231	3.813	3.661	3.323	3.171	3.045	2.688	2.684	2.558	2.523	2.317	2.106	2.057	1.833	1.665	1.449	1.411	1.469	1.768	1.930	1.566	1.179	1.107	0.992	0.915	0.819	0.883	1.033	1.084	0.931	0.892	0.800	0.830	0.877	1.180	1.764	6.501	29.34	79.06	92.00	17.81	1.558
595.0	47.07	49.30	37.75	27.90	18.88	18.73	19.67	23.49	33.06	56.04	95.62	68.05	57.24	47.09	193.0	1010	407.8	9.616	6.891	5.930	5.660	5.163	5.016	4.728	4.494	4.358	4.485	4.256	4.589	4.308	4.414	4.324	3.718	3.517	3.362	3.303	3.000	2.763	2.490	2.391	2.313	2.226	2.202	2.023	2.079	1.981	1.679	1.591	1.402	1.217	1.080	1.084	1.074	1.250	1.507	1.442	1.256	1.012	0.892	0.738	0.730	0.745	0.726	0.841	1.023	0.940	0.687	0.726	0.692	0.807	0.910	1.938	6.969	18.14	40.51	92.58	25.00
600.0	46.46	49.98	39.73	25.63	17.06	15.83	17.52	22.24	30.39	44.87	97.58	76.24	56.20	38.37	56.81	510.8	893.3	30.76	5.783	5.518	4.926	4.801	3.940	4.068	4.147	3.544	3.594	3.556	3.556	3.616	3.590	3.374	3.040	2.963	2.913	2.731	2.609	2.534	2.157	2.026	1.995	1.903	1.907	1.786	1.627	1.593	1.462	1.342	1.253	1.114	0.909	0.888	0.978	1.009	1.135	1.302	1.307	0.946	0.874	0.731	0.653	0.683	0.641	0.636	0.989	1.020	0.767	0.717	0.666	0.736	0.651	0.839	1.924	4.353	9.897	49.41	84.06
605.0	50.39	53.95	41.16	25.04	15.23	15.70	17.61	20.61	28.19	41.30	83.48	88.63	56.50	36.74	25.08	157.9	1010	73.66	5.770	4.948	4.545	4.024	3.515	3.678	3.256	3.306	3.234	3.041	2.898	3.049	3.099	2.945	2.721	2.387	2.675	2.156	2.050	2.255	1.845	1.741	1.558	1.425	1.701	1.560	1.428	1.381	1.363	1.216	1.208	0.899	0.809	0.838	0.832	0.884	0.833	1.008	1.159	0.935	0.870	0.757	0.671	0.700	0.594	0.675	0.727	0.895	0.933	0.750	0.733	0.674	0.578	0.631	0.828	1.273	2.556	12.68	57.32
610.0	49.56	50.72	39.29	24.03	15.12	14.30	16.44	19.84	26.36	38.55	64.17	93.17	61.47	33.29	18.03	43.13	483.5	614.3	28.22	4.157	3.799	3.504	2.952	2.999	2.790	2.685	2.672	2.595	2.611	2.494	2.411	2.400	2.346	2.074	2.081	1.883	1.704	1.831	1.585	1.517	1.384	1.330	1.473	1.253	1.195	1.297	1.147	0.970	0.993	0.841	0.721	0.706	0.762	0.705	0.670	0.761	0.886	0.924	0.713	0.628	0.610	0.622	0.593	0.616	0.599	0.699	0.933	0.769	0.645	0.597	0.538	0.539	0.564	0.592	0.895	3.148	14.51
615.0	47.84	46.14	39.22	19.80	13.29	12.85	14.22	17.72	22.98	37.51	51.94	79.77	69.93	32.71	16.17	15.99	118.8	686.1	269.5	4.597	3.546	2.938	2.885	2.825	2.474	2.078	2.099	2.028	2.116	2.068	2.024	2.150	2.039	1.961	1.638	1.642	1.538	1.557	1.391	1.250	1.164	1.199	1.094	1.047	1.034	1.011	0.986	0.892	0.780	0.664	0.594	0.684	0.638	0.628	0.639	0.524	0.711	0.847	0.762	0.641	0.595	0.517	0.581	0.515	0.509	0.624	0.661	0.778	0.721	0.577	0.497	0.409	0.473	0.392	0.521	0.983	3.514
620.0	48.41	43.68	35.53	21.97	13.87	12.17	14.74	16.90	21.83	33.18	49.13	65.58	74.44	33.38	14.15	9.574	31.49	352.0	542.5	17.53	2.881	2.581	2.469	2.239	2.141	1.829	1.837	1.731	1.961	1.707	1.786	1.693	1.685	1.559	1.445	1.372	1.240	1.218	1.261	1.182	1.008	0.864	0.948	0.941	0.904	0.951	0.888	0.706	0.794	0.686	0.636	0.584	0.566	0.560	0.496	0.502	0.518	0.633	0.724	0.623	0.533	0.542	0.611	0.462	0.508	0.591	0.548	0.726	0.781	0.589	0.424	0.524	0.409	0.393	0.370	0.509	1.186
625.0	45.17	43.58	36.39	19.32	14.43	11.88	12.99	16.63	21.61	32.21	43.71	54.34	72.42	36.77	13.70	7.651	11.40	107.5	716.0	58.59	2.875	2.653	2.117	1.966	1.860	1.644	1.574	1.666	1.580	1.612	1.615	1.528	1.382	1.324	1.371	1.215	1.127	1.037	1.160	1.215	1.015	0.758	0.821	0.794	0.757	0.752	0.743	0.681	0.678	0.569	0.521	0.536	0.551	0.578	0.565	0.444	0.513	0.575	0.625	0.669	0.584	0.525	0.524	0.458	0.513	0.545	0.537	0.637	0.698	0.692	0.389	0.503	0.418	0.406	0.312	0.393	0.631
630.0	43.48	38.65	34.87	19.22	12.85	11.14	12.01	15.50	20.11	28.21	40.46	46.60	57.23	43.64	14.11	7.016	6.682	27.91	366.1	456.8	20.54	2.273	2.009	1.654	1.591	1.487	1.414	1.408	1.349	1.493	1.406	1.228	1.221	1.186	1.082	1.036	0.958	0.993	1.013	0.861	0.921	0.860	0.732	0.679	0.747	0.671	0.612	0.664	0.571	0.462	0.483	0.479	0.436	0.478	0.473	0.440	0.416	0.470	0.504	0.607	0.552	0.508	0.504	0.494	0.488	0.520	0.529	0.570	0.548	0.640	0.602	0.450	0.395	0.349	0.319	0.274	0.415
635.0	40.62	40.18	29.13	18.53	12.51	11.11	11.52	13.65	19.91	25.21	36.07	42.54	41.95	45.85	16.42	7.126	5.159	9.338	90.14	528.3	194.2	2.740	1.792	1.632	1.494	1.343	1.287	1.218	1.190	1.219	1.136	1.116	1.108	0.948	1.021	0.962	0.836	0.831	0.821	0.707	0.793	0.787	0.658	0.651	0.644	0.636	0.488	0.548	0.445	0.443	0.390	0.422	0.392	0.403	0.445	0.403	0.378	0.421	0.359	0.515	0.595	0.454	0.452	0.466	0.478	0.470	0.480	0.510	0.506	0.485	0.623	0.564	0.448	0.374	0.276	0.310	0.355
640.0	38.61	34.25	28.50	16.55	10.84	10.16	10.90	13.92	16.94	23.98	33.66	38.45	36.86	40.34	22.72	7.247	4.569	5.102	22.84	284.2	439.4	9.894	1.621	1.406	1.399	1.244	1.297	1.110	1.099	1.125	0.993	1.084	1.024	0.933	0.948	0.861	0.767	0.736	0.736	0.638	0.653	0.771	0.595	0.583	0.509	0.529	0.553	0.481	0.381	0.463	0.348	0.401	0.409	0.384	0.388	0.364	0.321	0.375	0.368	0.410	0.510	0.523	0.449	0.444	0.404	0.452	0.397	0.490	0.411	0.427	0.493	0.602	0.444	0.350	0.308	0.282	0.404
645.0	35.09	33.07	23.48	16.48	11.63	9.852	11.95	12.33	17.27	22.34	31.04	34.73	32.27	32.03	27.55	8.371	4.883	4.039	7.654	88.89	542.4	47.32	1.794	1.533	1.365	1.264	1.130	0.979	1.034	0.942	1.006	1.042	0.884	0.759	0.911	0.867	0.764	0.735	0.582	0.647	0.645	0.631	0.682	0.560	0.521	0.499	0.460	0.477	0.419	0.380	0.257	0.392	0.384	0.394	0.357	0.397	0.313	0.333	0.378	0.370	0.428	0.455	0.472	0.464	0.409	0.443	0.450	0.428	0.435	0.451	0.443	0.501	0.534	0.426	0.316	0.277	0.315
650.0	35.51	32.75	23.36	17.56	11.18	9.696	9.881	11.40	15.99	20.46	27.44	31.93	29.77	24.38	29.32	10.09	4.931	3.716	4.174	23.20	382.3	250.3	3.122	1.419	1.252	1.147	1.077	0.951	0.948	0.836	0.871	0.861	0.780	0.712	0.730	0.805	0.729	0.637	0.558	0.568	0.594	0.553	0.721	0.595	0.497	0.543	0.424	0.407	0.442	0.340	0.304	0.395	0.330	0.381	0.370	0.360	0.268	0.317	0.412	0.394	0.370	0.415	0.425	0.421	0.474	0.443	0.443	0.393	0.455	0.428	0.420	0.436	0.602	0.466	0.307	0.357	0.331
