Sample:	'1
File name:	S2025080902ÌìÄþËÂ¶«Â·ÇÅ.FD3
Run date:	'15:26:10, 08/10/2025
Operator:	Administrator
Comment:	'

Instrument
Model:	F-2700 FL Spectrophotometer
Serial number:	3064-004
ROM Version:	4J14000 07

Instrument parameters
Measurement type:	3-D scan
Data mode:	Fluorescence
EX  Start WL:	220.0 nm
EX  End WL:	600.0 nm
EX Sampling interval:	5.0 nm
EM  Start WL:	230.0 nm
EM  End WL:	650.0 nm
EM Sampling interval:	5.0 nm
Scan speed:	12000 nm/min
EX Slit:	5.0 nm
EM Slit:	5.0 nm
PMT Voltage:	700 V
Response:	Auto 
Corrected spectra:	Off
Contour interval:	50.000

Peak integration
Integration method:	Rectangular
Sensitivity:	1
Threshold:	1.000

Peaks
No.	ApexEX/EM(nm)	Height(Data)
1	225.0/625.0	23.61
2	230.0/610.0	27.31
3	235.0/510.0	233.1
4	240.0/520.0	213.2
5	245.0/530.0	210.8
6	250.0/270.0	418.1
7	250.0/545.0	196.8
8	255.0/280.0	588.0
9	255.0/555.0	171.8
10	260.0/285.0	736.2
11	260.0/420.0	693.9
12	260.0/570.0	141.8
13	265.0/290.0	663.9
14	265.0/580.0	133.3
15	270.0/295.0	942.0
16	270.0/420.0	699.3
17	270.0/440.0	688.6
18	270.0/595.0	118.8
19	275.0/305.0	 1086
20	275.0/410.0	684.7
21	275.0/605.0	108.8
22	280.0/310.0	987.3
23	280.0/615.0	84.70
24	285.0/315.0	963.2
25	285.0/395.0	647.8
26	285.0/630.0	67.23
27	290.0/320.0	907.9
28	290.0/645.0	55.80
29	295.0/330.0	667.6
30	300.0/335.0	614.5
31	305.0/340.0	659.4
32	310.0/345.0	572.2
33	310.0/405.0	627.2
34	315.0/400.0	623.6
35	320.0/360.0	603.0
36	325.0/365.0	592.1
37	335.0/380.0	610.3
38	340.0/385.0	620.7
39	350.0/400.0	577.1
40	355.0/405.0	567.8
41	365.0/420.0	496.5
42	370.0/425.0	466.3
43	415.0/485.0	131.4
44	435.0/510.0	68.17
45	445.0/525.0	49.24
46	460.0/545.0	28.76
47	505.0/275.0	2.712
48	520.0/285.0	4.011
49	530.0/290.0	3.650
50	540.0/295.0	4.772
51	545.0/300.0	5.122
52	550.0/305.0	5.470
53	560.0/310.0	5.087
54	570.0/315.0	5.021
55	575.0/320.0	4.972
56	585.0/325.0	4.999
57	595.0/330.0	4.446

Data points
	220.0	225.0	230.0	235.0	240.0	245.0	250.0	255.0	260.0	265.0	270.0	275.0	280.0	285.0	290.0	295.0	300.0	305.0	310.0	315.0	320.0	325.0	330.0	335.0	340.0	345.0	350.0	355.0	360.0	365.0	370.0	375.0	380.0	385.0	390.0	395.0	400.0	405.0	410.0	415.0	420.0	425.0	430.0	435.0	440.0	445.0	450.0	455.0	460.0	465.0	470.0	475.0	480.0	485.0	490.0	495.0	500.0	505.0	510.0	515.0	520.0	525.0	530.0	535.0	540.0	545.0	550.0	555.0	560.0	565.0	570.0	575.0	580.0	585.0	590.0	595.0	600.0
230.0	28.75	578.8	 3473	 2006	124.2	13.53	13.10	9.009	7.082	5.606	6.059	5.210	4.667	4.006	3.997	3.621	2.956	2.642	2.149	2.033	1.862	1.742	1.915	1.388	1.582	1.310	1.156	1.387	1.228	1.235	1.075	1.051	1.002	1.057	0.992	1.035	0.902	0.956	0.831	0.864	0.796	0.914	1.562	0.759	0.730	0.724	1.633	5.302	9.281	7.592	3.318	0.978	0.602	0.564	0.539	0.653	0.537	0.573	0.463	0.485	0.473	0.585	0.552	0.401	0.455	0.401	0.437	0.478	0.432	0.438	0.488	0.361	0.460	0.395	0.510	0.463	0.499
235.0	60.12	159.5	 1385	 4317	 2855	184.1	15.70	8.566	8.357	8.028	7.004	5.743	5.434	5.164	3.822	3.296	2.581	2.377	2.245	2.006	1.836	1.886	1.751	1.296	1.393	1.401	1.455	1.556	1.150	1.024	1.207	1.377	0.958	0.932	1.084	1.229	0.890	0.991	0.859	0.742	0.976	0.980	1.959	0.766	0.835	0.891	0.802	1.804	3.514	6.288	8.382	8.766	4.552	1.066	0.588	0.730	0.636	0.654	0.422	0.545	0.403	0.620	0.509	0.403	0.350	0.554	0.573	0.438	0.484	0.525	0.480	0.400	0.523	0.400	0.366	0.420	0.512
240.0	62.22	96.55	354.5	 2516	 7093	978.3	82.32	12.71	11.17	7.941	6.871	6.861	5.379	4.438	3.324	4.395	2.768	2.712	1.942	2.111	1.511	2.032	1.694	1.435	1.641	1.709	1.356	1.687	1.271	1.326	0.954	1.262	0.872	1.242	0.817	0.671	0.844	1.055	0.856	0.872	0.937	1.174	1.380	0.775	0.947	1.138	0.996	0.851	1.336	2.012	4.478	10.77	12.76	9.090	3.121	0.967	0.644	0.510	0.431	0.533	0.465	0.565	0.573	0.511	0.521	0.568	0.437	0.536	0.457	0.476	0.495	0.473	0.498	0.414	0.451	0.553	0.608
245.0	40.30	102.7	159.4	672.7	 4919	 5911	792.0	44.89	10.43	8.127	8.376	6.896	5.923	4.885	3.609	3.918	3.046	2.550	2.729	2.082	1.866	2.075	1.820	1.595	1.487	1.282	1.485	1.335	1.307	1.479	0.840	1.252	1.022	1.235	1.079	0.697	0.810	0.932	0.917	0.772	0.722	0.933	1.050	0.888	1.053	1.040	1.134	1.046	1.015	0.908	1.464	3.752	8.594	13.31	13.66	6.849	2.215	0.767	0.568	0.560	0.416	0.532	0.584	0.408	0.538	0.435	0.415	0.610	0.452	0.422	0.527	0.468	0.484	0.455	0.441	0.714	0.494
250.0	23.88	65.68	165.6	264.5	 1272	 3535	 9349	 2494	207.2	12.20	9.060	7.127	5.146	5.031	4.586	4.191	2.925	2.689	2.784	2.013	1.914	1.761	1.566	1.490	1.696	1.261	1.147	1.302	1.232	1.492	1.224	1.093	1.080	0.879	0.883	0.798	0.871	0.773	0.855	0.782	0.859	0.849	0.885	0.836	0.864	0.767	0.932	1.119	1.140	1.097	1.098	1.246	2.476	4.545	7.830	10.73	13.33	11.36	6.427	2.308	0.686	0.594	0.552	0.469	0.494	0.496	0.419	0.601	0.443	0.361	0.558	0.370	0.471	0.417	0.444	0.595	0.504
255.0	28.15	33.72	83.97	274.9	439.1	834.2	 4841	 5624	 3622	274.4	10.63	8.925	5.837	5.168	4.353	5.289	3.126	2.489	2.494	1.900	2.063	1.906	1.588	1.523	1.683	1.522	1.538	1.237	1.474	1.015	1.517	1.225	0.956	0.827	0.939	0.823	0.618	0.777	0.768	0.758	0.825	1.005	0.986	0.827	0.822	0.812	0.798	1.048	0.936	1.151	1.520	1.591	1.318	1.578	2.292	2.990	5.082	10.50	18.52	18.01	9.526	2.631	0.581	0.563	0.615	0.608	0.513	0.681	0.416	0.345	0.548	0.467	0.422	0.451	0.412	0.631	0.468
260.0	28.11	24.71	39.33	165.4	393.8	290.0	 1206	 2703	 6598	 2938	150.1	10.28	8.946	6.472	5.208	6.016	3.553	3.001	3.167	2.476	1.784	2.414	1.797	1.774	2.065	1.480	1.334	1.469	1.410	1.285	1.454	1.255	1.207	0.766	1.172	0.785	0.742	0.799	0.790	0.822	0.677	0.853	0.968	0.787	0.816	0.821	0.735	0.685	0.721	0.747	0.837	1.725	2.089	1.527	1.115	1.118	1.663	3.235	8.259	17.15	23.83	18.79	6.920	1.369	0.520	0.510	0.588	0.472	0.509	0.395	0.502	0.517	0.492	0.361	0.367	0.548	0.427
265.0	33.52	20.97	27.20	71.50	292.0	351.5	334.6	699.3	 3732	 7071	 2192	55.70	11.39	8.569	6.419	7.068	3.947	3.721	2.854	2.594	2.108	2.425	2.206	1.773	1.816	2.081	1.508	1.664	1.630	1.377	1.155	1.180	1.022	1.182	0.888	0.830	0.836	0.925	0.767	0.794	0.725	0.764	0.972	0.883	0.697	0.680	0.774	0.647	0.730	0.651	0.591	0.959	1.638	1.951	1.766	0.842	0.893	1.235	2.485	5.324	13.10	24.07	27.52	15.84	4.000	0.612	0.523	0.585	0.507	0.608	0.542	0.556	0.527	0.431	0.445	0.584	0.431
270.0	39.63	25.03	21.37	32.85	115.1	310.0	418.1	247.6	962.8	 3432	 6393	 3574	163.9	11.94	8.206	8.048	4.074	3.813	3.037	2.656	2.529	2.412	2.262	2.088	1.692	1.771	1.702	1.453	1.531	1.504	1.269	1.282	1.250	1.044	1.071	0.974	0.890	0.796	0.939	0.806	0.779	0.931	0.973	0.901	0.839	0.860	0.896	0.887	0.640	0.713	0.597	0.772	0.850	1.273	1.847	2.201	1.797	1.239	1.225	1.758	3.651	7.452	13.47	20.18	25.15	21.80	13.18	3.574	0.695	0.601	0.542	0.498	0.587	0.490	0.490	0.501	0.504
275.0	47.01	42.21	28.58	34.92	52.17	100.6	390.2	502.8	289.8	813.8	 2228	 7221	 2943	202.1	12.55	10.45	5.816	4.071	3.411	2.709	2.930	2.493	2.410	2.324	2.278	1.717	1.840	1.485	1.419	1.769	1.388	1.377	1.500	1.040	1.002	1.166	0.992	0.930	0.974	0.867	0.848	0.763	0.821	0.689	0.955	1.009	0.769	0.754	0.805	0.785	0.713	0.694	0.655	0.829	0.895	1.240	2.039	2.712	2.395	1.374	1.420	2.210	3.656	5.015	8.132	16.33	34.19	36.30	17.75	3.302	0.664	0.636	0.503	0.482	0.564	0.569	0.526
280.0	60.75	49.95	35.87	41.07	43.55	39.46	179.2	588.0	416.3	232.6	575.9	 2949	 8416	 2345	112.6	15.33	6.699	5.317	3.922	3.255	2.961	2.428	2.691	2.021	2.307	1.777	1.768	1.542	1.702	1.735	1.381	1.622	1.284	1.059	1.045	1.243	1.176	0.774	0.802	0.897	0.830	0.827	0.756	0.662	0.815	0.859	0.868	0.789	0.837	0.841	0.782	0.718	0.654	0.884	0.683	0.854	1.178	2.022	3.360	3.382	1.758	1.185	1.497	1.634	2.541	4.418	12.97	28.06	43.05	33.90	10.76	1.282	0.575	0.699	0.563	0.493	0.421
285.0	72.95	53.70	49.64	49.17	44.21	32.42	77.32	308.2	736.2	265.7	202.2	770.4	 4112	 8903	 1664	60.84	9.315	4.805	4.832	3.742	3.221	3.031	2.949	2.001	1.574	1.732	1.760	1.414	1.852	1.679	1.716	1.281	1.171	1.161	1.140	1.060	1.069	0.855	1.097	0.837	0.999	1.075	0.893	0.883	0.804	0.933	0.834	1.012	0.847	0.725	0.813	0.626	0.860	0.784	0.676	0.733	0.780	1.201	1.890	3.477	4.011	2.236	1.230	1.135	1.225	1.641	3.566	7.792	19.67	38.80	44.35	25.18	4.742	0.692	0.610	0.563	0.387
290.0	77.36	72.82	76.89	72.36	59.60	40.64	60.72	117.3	420.0	663.9	335.2	291.4	 1081	 3808	 6806	 6829	97.98	8.482	5.763	4.598	3.559	3.616	2.777	2.553	2.087	1.995	1.826	1.594	1.486	1.632	1.513	1.380	1.427	1.358	1.288	1.248	1.181	0.990	0.991	0.843	0.783	1.009	0.873	0.991	0.974	0.836	0.934	1.032	0.892	0.874	0.837	0.703	0.752	0.839	0.770	0.772	0.754	0.861	1.031	1.672	2.465	3.338	3.650	2.931	1.660	1.199	1.663	2.647	5.334	10.86	19.61	29.75	40.80	30.86	16.62	4.370	0.690
295.0	106.8	84.94	108.1	86.64	77.71	57.35	72.67	85.61	168.8	420.3	942.0	399.7	403.3	974.7	 2057	9999.9	 5375	128.9	8.449	5.376	3.918	4.059	3.345	2.696	2.503	2.392	1.728	2.010	2.027	1.831	1.452	1.645	1.314	1.288	1.278	1.207	1.260	1.034	1.160	0.924	0.800	1.014	0.779	0.953	1.039	0.927	1.043	0.979	1.151	0.887	0.946	0.817	0.792	0.853	0.736	0.778	0.823	1.030	1.123	1.290	1.302	1.595	2.058	4.000	4.772	2.767	1.628	1.542	2.179	3.480	5.398	7.521	13.07	21.15	43.52	46.57	20.95
300.0	98.06	105.3	113.9	106.2	89.86	67.36	91.68	88.26	129.1	244.5	775.2	938.6	343.0	379.4	569.9	 3778	 8153	 1414	80.36	7.083	4.661	4.886	3.058	3.323	2.613	2.188	2.397	1.748	1.896	1.794	1.524	1.756	1.771	1.603	1.310	1.120	1.346	0.974	1.075	0.880	1.056	0.891	0.903	1.023	1.238	0.933	1.163	1.004	0.977	0.956	1.060	0.869	0.704	0.840	0.824	0.776	0.881	0.975	1.138	1.197	1.054	1.235	1.563	2.384	3.661	5.122	3.991	2.262	1.938	2.064	2.259	2.716	3.924	5.668	15.33	34.50	52.90
305.0	101.2	110.9	124.4	112.7	99.03	74.69	101.4	104.6	131.0	203.8	437.1	 1086	703.1	286.9	255.1	959.4	 3453	 7750	 1130	40.12	6.608	5.477	3.390	3.039	2.552	2.251	2.467	1.969	1.725	1.731	1.642	1.930	1.589	1.528	1.598	1.205	1.138	1.338	0.982	0.913	1.238	1.015	1.001	1.192	1.222	0.939	1.048	1.159	0.873	1.231	0.945	1.054	0.913	1.087	0.885	0.754	0.893	0.898	1.053	1.097	1.279	1.002	1.415	1.733	2.292	3.248	5.470	4.606	2.853	1.963	1.625	1.523	1.751	2.118	4.127	9.716	23.89
310.0	120.3	127.1	149.8	140.5	111.7	93.68	116.9	127.9	152.6	207.0	314.8	598.0	987.3	617.3	243.7	326.8	871.2	 3170	 5752	 3452	71.38	8.199	4.354	3.872	2.977	2.510	2.286	1.860	1.981	1.854	1.667	1.516	1.622	1.379	1.375	1.265	1.331	1.280	1.093	1.190	1.022	0.984	1.098	1.021	1.039	1.174	1.010	1.036	0.968	1.043	0.844	1.085	0.899	1.036	0.979	1.008	0.960	1.151	1.174	1.200	1.287	1.279	1.303	1.571	1.631	2.026	3.023	3.982	5.087	4.326	2.846	1.652	1.706	1.482	1.770	2.824	6.290
315.0	117.9	138.3	173.3	157.8	119.0	107.6	129.3	139.5	178.1	225.8	306.2	405.4	575.1	963.2	566.8	219.1	285.6	772.3	 1688	 5850	 4639	98.04	7.034	5.176	3.943	3.143	2.765	2.594	2.500	1.757	1.499	1.667	1.599	1.330	1.345	0.894	1.287	1.217	1.135	1.107	0.929	1.249	1.069	1.014	1.316	1.130	0.989	1.213	1.005	1.025	0.889	0.969	0.904	1.126	1.013	0.970	1.021	1.180	1.181	1.095	1.417	1.513	1.368	1.641	1.419	1.846	2.121	2.495	3.162	3.906	5.021	4.183	2.349	1.606	1.451	1.287	2.378
320.0	118.5	166.9	190.0	175.9	130.5	116.3	144.9	158.6	198.7	243.4	314.6	375.4	432.4	675.6	907.9	269.5	178.5	252.3	436.1	 2111	 7108	 3631	63.78	6.239	4.553	3.909	3.462	3.016	2.568	2.171	2.197	1.656	1.878	1.486	1.641	1.230	1.319	1.136	1.137	1.117	1.080	1.299	1.004	1.111	1.282	1.290	1.065	1.464	1.381	1.167	0.945	0.993	0.993	1.148	1.003	1.061	0.977	1.161	1.011	1.276	1.363	1.306	1.673	1.548	1.784	1.712	1.920	2.085	2.554	2.367	3.482	4.972	4.697	2.701	1.644	1.202	1.345
325.0	148.3	179.6	206.8	186.9	148.8	148.3	142.3	173.1	216.8	265.0	323.9	383.2	413.1	473.7	798.6	648.4	200.4	153.5	165.8	538.7	 3166	 7944	855.5	34.36	5.380	4.730	3.939	3.055	2.682	2.092	2.128	1.534	1.743	1.586	1.450	1.306	1.174	1.296	1.366	1.138	1.263	1.235	1.272	1.165	1.433	1.375	1.228	1.460	1.311	1.040	0.939	0.941	1.015	1.006	1.257	0.962	1.216	1.333	1.260	1.478	1.373	1.453	1.615	1.645	1.527	1.953	1.794	2.108	2.501	1.899	2.605	3.578	4.406	4.999	3.387	1.816	1.315
330.0	338.3	191.0	250.2	245.4	193.7	163.6	167.6	188.4	227.1	273.0	343.3	406.4	441.3	434.1	503.6	667.6	532.9	180.4	130.2	189.1	783.1	 3262	 5040	 2907	55.66	6.952	4.701	3.356	2.755	2.472	2.135	1.875	1.673	1.608	1.414	1.349	1.175	1.332	1.262	1.156	1.251	1.115	1.241	1.241	1.274	1.293	1.324	1.394	1.496	1.154	1.192	1.092	0.955	1.145	1.237	1.208	1.156	1.281	1.426	1.532	1.427	1.589	1.568	1.617	1.723	1.823	1.880	2.221	2.482	2.228	2.470	2.607	2.869	3.518	4.190	4.446	2.905
335.0	207.0	209.3	267.3	297.6	227.7	210.8	185.2	209.6	243.3	285.5	359.0	404.1	443.2	450.2	423.1	433.5	614.5	503.5	170.1	137.3	247.3	783.5	 1571	 5485	 4040	77.70	6.213	4.263	3.652	2.457	2.383	2.574	2.002	1.706	1.343	1.212	1.405	1.327	1.189	1.236	1.074	1.416	1.366	1.062	1.153	1.391	1.290	1.898	1.651	1.414	1.471	1.324	1.145	1.216	1.248	1.220	1.384	1.212	1.322	1.524	1.520	1.707	1.646	1.670	1.699	1.967	2.022	2.399	2.494	2.395	2.533	2.478	2.447	2.409	2.710	3.224	3.969
340.0	174.0	211.2	274.7	301.7	244.8	225.7	206.2	222.8	265.5	318.4	370.5	419.9	452.2	452.0	420.1	374.8	442.5	659.4	346.9	157.5	148.8	248.8	410.5	 2159	 6535	 2783	50.71	5.092	4.264	2.824	2.390	2.623	1.839	2.017	1.407	1.737	1.402	1.211	1.388	1.306	1.135	1.201	1.354	0.982	1.202	1.370	1.340	1.476	1.483	1.426	1.519	1.507	1.208	1.325	1.301	1.456	1.619	1.617	1.476	1.358	1.614	2.065	1.735	1.624	1.926	2.169	2.333	2.399	2.539	2.675	2.413	2.432	2.371	2.054	2.440	2.787	3.225
345.0	163.1	214.1	299.9	308.2	272.5	234.8	244.2	235.2	281.5	329.1	388.8	432.7	456.4	468.2	431.0	375.8	359.3	524.5	572.2	243.6	153.5	150.9	163.5	559.8	 3205	 6489	703.0	26.77	5.323	4.064	2.773	2.573	2.153	2.027	1.789	1.620	1.343	1.220	1.202	1.077	1.025	1.156	1.203	1.265	1.314	1.515	1.207	1.665	1.686	1.347	1.471	1.494	1.387	1.355	1.403	1.574	1.660	1.563	1.613	1.244	1.694	1.755	1.774	1.681	2.114	1.927	2.388	2.197	2.327	2.253	2.458	2.473	2.501	2.269	2.425	2.469	2.760
350.0	166.2	200.0	293.9	345.0	315.5	276.6	284.4	276.7	300.7	339.4	402.9	443.3	478.4	478.1	460.4	406.6	368.4	390.9	523.8	500.0	262.4	173.4	150.9	211.3	813.7	 2977	 4660	 2524	47.87	5.527	4.128	3.220	2.478	2.072	1.734	1.537	1.445	1.353	1.384	1.279	1.094	1.374	1.310	1.530	1.195	1.496	1.535	1.437	1.741	1.494	1.489	1.583	1.479	1.548	1.453	1.685	1.636	1.647	1.642	1.605	1.919	1.924	1.987	1.884	2.157	2.127	2.435	2.343	2.304	2.197	2.458	2.594	2.728	2.406	2.500	2.347	2.598
355.0	147.9	201.8	302.1	362.3	352.5	320.7	327.5	334.8	350.3	369.3	431.5	465.2	490.6	485.8	482.5	436.1	408.4	387.0	399.1	519.8	523.8	269.7	196.6	175.6	276.5	732.5	 1603	 5332	 3279	63.91	5.582	3.820	2.586	2.262	1.916	1.770	1.412	1.441	1.409	1.105	1.237	1.481	1.356	1.193	1.317	1.456	1.504	1.550	1.522	1.515	1.451	1.668	1.724	1.796	1.652	1.591	1.856	1.580	1.712	1.653	2.099	1.760	2.092	2.155	2.684	2.352	2.354	2.504	2.269	2.179	2.566	2.622	2.588	2.964	2.554	2.469	2.697
360.0	160.1	211.0	302.3	363.6	377.7	362.5	361.7	350.8	388.6	415.7	463.5	482.2	509.3	505.4	498.8	469.6	437.3	414.5	400.5	434.9	603.0	435.5	249.5	196.5	187.2	254.7	432.1	 2326	 6013	726.7	40.09	4.753	3.550	2.584	2.031	2.053	1.739	1.641	1.389	1.434	1.357	1.302	1.505	1.199	1.151	1.334	1.598	1.438	1.641	1.202	1.551	1.785	1.693	1.739	1.721	1.598	2.018	1.916	1.976	2.071	1.896	2.043	2.322	2.237	2.608	2.297	2.504	2.633	2.513	2.640	2.764	2.540	2.689	2.874	2.721	2.388	2.828
365.0	155.6	226.0	288.3	374.2	380.7	397.0	392.2	385.9	422.1	445.6	479.6	516.0	528.7	538.7	515.1	494.0	476.7	449.6	428.7	428.4	513.4	592.1	357.4	239.6	199.1	174.9	182.4	612.6	 3287	 5526	612.3	19.08	4.510	3.708	2.268	2.176	1.968	1.676	1.473	1.668	1.499	1.416	1.331	1.455	1.432	1.366	1.664	1.400	1.618	1.308	1.770	1.696	2.092	1.892	1.918	1.688	2.166	1.997	2.144	2.072	2.061	2.294	2.464	2.238	2.642	2.518	2.440	2.701	2.812	2.974	2.843	2.439	2.848	2.487	3.108	2.424	2.994
370.0	158.7	202.8	302.0	379.4	410.3	432.6	443.8	439.9	455.0	479.8	513.4	534.1	544.7	551.2	545.2	529.3	507.3	494.7	477.4	464.7	472.3	553.4	562.1	361.1	255.2	204.0	166.6	228.5	848.1	 2890	 4569	 1978	38.15	5.470	3.213	2.468	1.746	1.836	1.798	1.631	1.456	1.477	1.444	1.372	1.437	1.372	1.545	1.408	1.723	1.623	1.502	1.916	1.997	1.968	1.903	1.963	1.956	2.116	2.102	2.231	2.219	2.312	2.635	2.583	2.470	2.616	2.521	2.514	2.714	2.693	2.907	2.836	3.047	2.958	2.975	2.789	2.934
375.0	151.1	208.1	323.1	395.0	458.4	464.5	473.0	472.3	484.1	513.5	537.6	555.2	576.5	573.8	572.9	559.4	545.8	526.4	525.2	512.2	505.9	505.5	562.4	572.2	354.1	258.9	210.2	178.5	281.7	711.1	 1742	 5158	 2714	49.25	4.793	3.094	2.379	1.959	1.795	1.668	1.526	1.399	1.518	1.524	1.317	1.441	1.320	1.520	1.661	1.573	1.639	2.188	1.865	2.213	2.093	1.947	2.287	2.109	2.329	2.471	2.276	2.894	2.666	2.727	2.513	2.831	2.694	2.869	2.895	2.906	2.606	2.976	3.303	3.006	3.136	3.610	3.285
380.0	151.5	216.8	324.8	411.3	490.7	488.4	497.5	513.7	530.8	554.5	566.9	576.7	589.8	589.6	575.2	575.7	559.7	556.0	549.0	541.5	524.2	514.5	514.7	610.3	504.5	320.8	249.0	199.3	178.9	240.9	459.9	 2461	 5524	583.3	28.47	4.235	3.513	2.351	2.003	1.795	1.631	1.420	1.474	1.405	1.690	1.642	1.460	1.677	1.614	1.687	1.684	2.125	1.869	1.946	1.991	1.727	2.468	2.546	2.450	2.732	2.404	2.510	2.502	2.775	2.557	2.980	2.814	2.942	2.894	2.711	3.155	3.112	3.024	3.335	3.281	3.397	3.607
385.0	148.6	229.5	328.5	440.1	490.9	527.1	523.4	544.4	557.9	578.6	614.5	600.9	609.5	602.2	600.6	595.5	573.4	587.4	572.9	569.0	555.5	534.5	510.8	553.4	620.7	420.5	291.3	232.8	185.7	160.2	175.6	648.8	 3285	 4581	463.9	11.92	3.992	3.338	2.380	2.057	1.550	1.579	1.480	1.427	1.625	1.658	1.350	1.685	1.761	1.560	1.683	2.185	2.253	2.129	2.223	2.382	2.333	2.437	2.272	2.377	2.711	2.949	2.820	2.635	2.345	2.833	2.770	3.001	3.222	2.622	3.077	2.908	3.589	3.307	3.127	3.146	4.027
390.0	162.2	237.9	347.2	437.7	494.3	533.3	544.7	574.7	586.3	606.5	626.5	621.1	621.2	619.6	613.3	605.6	586.7	594.6	594.6	592.6	585.6	564.9	536.2	526.0	570.1	566.2	403.9	287.6	226.4	180.0	145.3	218.9	852.9	 2656	 3683	 1501	29.18	4.698	2.912	2.203	1.839	1.676	1.606	1.624	1.589	1.702	1.553	1.893	1.841	1.727	1.791	2.168	2.172	2.239	2.520	2.410	2.294	2.835	2.518	2.573	2.900	2.778	2.859	2.724	2.769	2.915	2.998	3.160	3.072	3.118	3.165	2.952	3.264	3.266	3.388	3.401	3.976
395.0	163.5	233.6	354.3	438.3	505.6	560.4	591.1	606.1	599.0	629.5	648.4	654.0	639.7	647.8	623.9	609.5	600.0	610.7	611.7	616.1	610.2	588.2	566.9	542.4	525.8	552.0	553.8	378.3	283.3	226.3	171.8	150.4	259.8	642.5	 1508	 4268	 2032	37.40	4.300	2.989	2.397	2.162	1.992	1.731	1.671	1.595	1.770	1.771	1.813	1.712	2.012	2.247	2.296	2.408	2.473	2.491	2.457	2.715	2.603	2.893	2.561	2.513	2.720	2.715	2.991	2.683	2.805	3.162	3.221	3.600	3.332	3.209	3.229	3.388	3.544	3.608	3.949
400.0	142.3	238.4	371.8	460.8	510.6	582.1	592.1	635.4	644.6	644.7	658.7	660.9	645.1	638.8	638.4	614.9	607.2	613.4	617.3	623.6	616.8	601.2	585.2	554.0	533.5	515.9	577.1	500.0	334.3	258.5	202.4	156.8	146.1	203.4	394.7	 2130	 4304	482.2	21.70	3.973	2.644	2.314	1.739	1.865	1.801	1.792	1.771	1.842	1.882	1.802	1.910	2.113	2.314	2.545	2.207	2.545	2.584	2.529	2.733	2.821	2.968	2.956	2.840	3.005	3.216	3.255	3.050	3.348	3.088	3.187	2.704	3.318	3.420	3.715	3.682	3.746	4.398
405.0	154.8	239.6	358.8	470.8	520.3	571.4	611.5	646.9	658.1	655.4	671.5	670.8	656.3	642.5	630.7	621.4	600.9	612.1	627.2	620.3	622.5	607.2	592.5	572.2	545.9	515.6	525.9	567.8	418.2	292.8	238.9	181.9	139.1	118.8	140.0	562.1	 2720	 3691	380.7	8.709	3.532	2.640	2.387	1.851	1.460	1.786	1.710	1.841	1.763	1.870	2.020	2.367	2.114	2.349	2.280	2.464	2.748	2.936	2.602	2.825	3.020	2.993	3.007	2.626	2.996	3.154	3.044	3.341	3.168	3.125	3.123	3.033	3.126	3.268	3.686	3.755	3.937
410.0	176.1	240.6	363.4	470.2	527.9	569.0	623.1	645.5	665.9	669.6	682.4	684.7	650.2	641.2	625.3	603.1	593.4	602.3	608.7	616.4	618.9	603.6	592.6	575.1	559.7	529.8	502.2	522.3	518.9	387.0	280.5	217.3	164.7	122.3	99.73	173.6	708.3	 2174	 3001	 1159	25.06	3.776	2.569	2.241	1.974	1.901	1.675	1.836	1.972	1.780	1.811	2.277	2.270	2.589	2.395	2.549	3.017	2.942	2.947	2.888	2.931	2.812	2.764	2.927	2.980	3.381	3.098	3.177	3.038	3.221	3.377	3.304	3.418	3.263	3.422	3.708	3.608
415.0	156.1	236.4	369.5	441.1	532.5	571.0	614.2	671.1	667.9	679.0	685.8	682.8	654.1	636.4	609.7	592.3	583.0	592.1	594.8	601.1	605.6	595.0	594.1	584.9	560.5	540.0	503.9	483.2	495.3	495.3	348.2	254.7	195.2	146.0	109.3	100.2	203.4	519.3	 1262	 3400	 1592	32.96	4.060	2.807	2.425	2.596	2.029	1.905	2.059	1.972	1.868	2.169	2.497	2.542	2.692	2.441	3.020	2.793	3.112	2.739	3.089	2.951	3.099	3.088	3.272	3.000	3.412	3.209	3.315	3.258	2.725	3.350	3.412	3.185	3.585	3.729	3.692
420.0	166.7	257.2	362.4	431.2	524.7	575.9	614.6	667.9	693.9	678.7	699.3	679.9	654.8	636.5	602.4	579.7	572.6	575.5	585.0	583.7	586.5	583.4	582.3	574.3	561.0	535.8	505.5	485.1	461.5	496.5	427.2	283.8	215.6	166.8	124.0	95.51	97.77	153.9	323.2	 1741	 3510	433.1	16.12	3.714	2.744	2.340	1.937	1.947	1.755	1.982	1.703	2.331	2.311	2.505	2.232	2.320	3.146	2.466	2.947	2.912	3.055	3.185	2.864	3.174	3.241	2.828	3.270	3.064	3.588	3.034	2.805	3.331	3.455	3.396	3.295	3.712	3.664
425.0	174.7	246.2	347.0	454.4	513.9	575.6	626.0	670.6	680.8	691.9	691.9	680.2	645.9	629.5	601.5	576.7	561.6	557.5	568.0	579.3	572.1	575.1	568.9	566.7	549.8	535.6	507.9	486.1	451.7	454.7	466.3	342.1	237.9	183.8	140.4	105.5	85.68	79.83	104.8	461.3	 2218	 2870	331.3	7.626	3.458	2.710	2.283	2.141	2.112	1.945	1.854	2.197	2.503	2.471	2.574	2.559	2.767	2.878	2.866	2.774	2.971	3.263	3.191	3.261	3.376	3.060	2.918	3.249	3.428	2.995	3.130	3.112	3.336	3.167	3.291	3.496	3.210
430.0	363.1	231.3	339.6	461.0	513.3	563.7	599.4	653.5	672.2	688.3	693.3	677.1	643.2	618.2	581.1	552.7	539.5	530.1	543.7	558.5	555.5	553.4	548.5	546.3	536.2	526.6	506.3	484.2	457.8	427.3	424.7	403.7	294.4	210.3	158.7	122.8	96.60	77.53	66.73	134.8	576.0	 1694	 2375	932.1	23.15	3.590	2.620	2.341	2.082	1.901	1.958	2.211	2.362	2.295	2.468	2.507	2.860	2.929	2.811	2.865	3.151	3.209	3.012	3.232	3.429	3.081	2.974	2.839	3.044	3.004	3.040	3.190	3.269	2.950	3.245	3.201	3.509
435.0	870.6	275.2	321.7	432.7	485.3	556.4	592.7	647.1	659.7	681.2	680.8	669.7	625.3	594.7	568.4	539.6	508.7	509.3	522.7	523.3	526.3	526.4	522.5	525.8	515.9	522.8	501.7	487.1	457.9	428.7	393.1	380.5	364.6	259.5	184.7	141.5	113.0	89.84	68.84	73.26	159.5	404.2	990.9	 2744	 1338	30.08	3.699	3.234	2.397	1.950	1.943	2.251	2.325	2.520	2.320	2.421	2.361	2.675	2.576	3.058	3.018	3.118	3.080	3.112	3.040	3.104	3.174	3.003	3.208	3.198	3.043	3.147	2.999	3.017	3.054	2.997	3.058
440.0	 1188	534.5	321.7	411.8	468.9	536.1	572.3	617.7	666.2	684.0	688.6	656.9	617.4	582.9	548.6	519.8	496.5	494.9	496.4	508.7	504.5	508.0	503.2	510.6	504.9	500.3	494.4	473.6	452.2	423.4	391.3	351.6	361.1	305.3	206.8	157.1	128.0	101.0	78.95	64.62	71.45	118.7	252.4	 1385	 2935	400.3	17.22	3.996	2.895	2.201	2.228	2.224	2.412	2.227	2.409	2.713	2.785	2.684	2.627	2.798	2.850	3.195	3.063	3.390	3.329	3.491	3.293	2.980	2.749	2.817	3.088	3.199	3.055	2.953	3.192	2.612	2.865
445.0	 1050	 1077	328.3	403.9	464.1	513.8	551.0	595.2	660.4	660.0	670.2	639.5	612.7	565.4	526.3	499.4	477.9	477.2	480.6	489.5	486.7	488.5	480.7	489.1	485.8	479.2	474.3	459.4	447.2	423.3	381.1	347.5	323.8	329.9	244.9	171.3	135.6	108.3	87.32	68.84	58.69	59.39	81.75	361.3	 1822	 2631	304.6	9.123	3.197	2.374	2.336	2.437	2.301	2.362	2.609	2.542	2.791	2.943	2.632	2.662	2.537	3.012	3.120	3.050	3.193	3.214	2.863	2.540	2.881	2.844	3.131	3.036	2.869	3.211	2.934	2.905	3.025
450.0	485.1	 1565	740.5	383.9	461.9	494.1	527.0	580.3	626.8	638.5	659.0	622.2	589.1	546.2	509.5	481.2	458.4	449.5	449.6	458.2	451.5	456.8	456.8	454.1	456.4	454.7	451.0	438.3	429.7	411.4	379.9	338.5	301.6	290.1	277.6	204.6	152.0	118.8	99.89	79.93	65.09	52.72	48.46	105.4	468.2	 1513	 2231	918.3	20.78	3.429	2.631	2.580	2.673	2.378	2.525	2.295	2.554	2.792	2.879	2.748	2.809	3.006	3.073	3.034	2.755	2.993	3.102	2.691	3.015	3.015	2.731	2.617	2.840	2.863	2.644	3.106	2.825
455.0	201.5	 1071	 1665	459.5	413.0	466.9	510.0	569.8	583.2	616.5	616.0	597.8	549.6	515.6	488.5	449.7	430.1	415.0	417.9	421.2	418.7	419.7	417.2	422.1	420.6	425.5	421.0	414.6	402.4	394.3	363.4	328.7	292.9	263.9	252.7	244.2	177.9	130.8	109.4	90.28	73.16	58.61	47.70	52.14	126.9	356.0	852.4	 2477	 1336	27.09	3.714	2.688	2.713	2.622	2.492	2.432	2.554	2.464	2.743	2.254	2.692	2.955	3.274	2.641	2.436	3.108	2.727	2.720	2.540	3.062	2.598	2.887	2.901	2.659	2.894	2.718	2.561
460.0	142.4	484.9	 2319	 1002	373.2	437.9	475.0	524.7	557.8	569.3	579.1	566.7	546.4	486.7	463.1	426.6	400.0	386.3	385.6	390.1	386.1	390.7	390.4	396.8	403.2	398.7	393.5	390.5	381.4	371.9	349.3	318.2	282.2	251.5	227.4	237.0	204.5	143.5	112.8	94.60	77.31	63.39	50.64	44.36	54.37	99.38	211.0	 1159	 2684	319.3	17.77	3.571	3.287	2.724	2.507	2.328	2.588	2.648	2.636	2.522	2.363	3.048	2.996	2.785	2.933	2.762	2.750	2.722	2.611	2.892	2.541	2.876	2.603	2.492	2.849	2.851	2.749
465.0	127.7	246.9	 1865	 2225	398.7	405.9	456.6	516.0	541.9	563.2	558.5	554.5	521.1	474.5	441.4	402.8	378.5	374.7	361.2	366.8	358.4	365.8	368.0	369.4	373.4	373.0	372.5	366.6	368.0	355.9	336.9	307.0	271.3	243.4	216.8	207.2	214.2	164.6	119.0	96.26	81.56	68.20	55.61	45.27	39.00	45.43	66.32	294.5	 1531	 2226	280.3	9.091	3.429	2.625	2.453	2.335	2.522	2.468	2.698	2.589	2.621	2.650	2.705	2.788	2.865	2.709	2.531	2.528	2.340	2.695	2.431	2.751	2.519	2.467	2.391	2.759	2.617
470.0	134.4	172.4	828.6	 3221	 1221	384.5	422.2	476.2	505.7	526.4	518.9	515.6	481.3	440.4	413.4	370.7	353.1	337.0	330.5	328.6	324.5	331.2	329.6	331.7	338.5	338.9	336.8	337.9	334.0	329.2	309.8	286.8	260.2	230.4	205.5	185.1	182.3	177.5	136.7	102.1	85.56	70.59	59.56	49.46	40.81	35.62	36.10	82.72	382.9	 1169	 1840	770.1	21.89	3.430	2.738	2.423	2.440	2.338	2.637	2.371	2.469	2.610	2.646	2.511	2.320	2.566	2.611	2.584	2.331	2.454	2.182	2.695	2.549	2.427	2.515	2.656	2.424
475.0	130.2	149.4	334.8	 1933	 3264	474.5	380.8	436.5	459.0	471.5	480.2	488.8	434.6	405.7	370.7	343.3	315.6	310.8	295.8	296.7	294.0	294.7	296.6	295.6	299.0	304.2	304.5	305.3	305.2	298.6	290.3	267.2	241.3	219.9	193.1	174.1	158.5	158.6	151.6	115.5	87.73	73.07	63.13	53.56	44.27	36.80	31.47	36.92	101.4	274.2	641.7	 1682	 1024	31.45	3.230	2.814	2.605	2.718	2.569	2.311	2.087	2.337	2.596	2.295	2.123	2.228	2.406	2.448	2.391	2.457	2.250	2.182	2.309	2.027	1.961	2.476	2.110
480.0	116.8	156.3	222.2	818.4	 4013	962.1	359.8	394.8	418.9	448.5	461.9	456.4	416.6	389.3	350.5	313.8	295.5	286.4	273.8	275.2	271.1	275.3	272.1	275.4	277.3	280.6	283.4	278.2	285.3	278.6	271.6	251.1	227.6	204.4	185.2	165.1	147.4	138.0	146.3	128.0	94.30	75.02	64.38	53.53	46.38	38.98	32.23	28.00	38.92	75.52	156.9	717.8	 1880	368.9	19.16	3.377	2.716	2.516	2.534	2.354	2.293	2.619	2.402	2.177	2.255	2.245	2.237	2.557	2.169	2.026	2.145	2.164	2.133	1.898	1.905	2.082	1.986
485.0	116.8	171.0	191.3	389.3	 2997	 2549	374.2	374.9	401.9	420.2	438.0	423.2	398.4	356.0	333.3	301.8	280.0	265.4	257.4	253.5	250.5	257.5	251.3	254.4	255.9	262.5	265.6	258.0	260.1	263.3	253.2	234.6	214.4	195.7	177.8	158.2	139.4	128.7	129.6	131.4	102.8	76.14	65.07	54.93	46.33	39.98	34.76	28.56	26.74	31.23	46.69	180.0	991.4	 1733	301.3	8.731	2.999	2.705	2.574	2.618	2.190	2.138	2.116	2.249	2.309	2.253	2.316	2.086	2.058	2.029	2.100	1.871	1.929	1.907	2.114	1.889	1.931
490.0	96.52	159.5	191.9	249.4	 1195	 3374	962.2	352.3	384.6	390.0	393.8	376.6	364.4	335.3	304.8	277.9	252.9	242.3	237.3	229.7	228.8	227.1	228.8	226.0	228.7	234.1	239.0	234.9	234.9	235.2	231.4	215.6	198.8	179.6	164.7	147.3	133.4	120.2	114.0	113.1	111.1	86.63	66.77	55.73	47.98	41.39	36.01	31.02	25.71	22.70	23.21	50.69	244.1	821.9	 1436	680.4	23.88	3.243	2.523	2.287	2.388	2.056	2.123	1.934	1.907	2.180	2.338	1.919	1.904	2.108	1.963	2.072	1.863	1.839	1.824	1.924	1.783
495.0	80.78	121.3	215.6	201.2	441.0	 1881	 2141	421.6	338.3	348.6	363.3	346.2	327.1	314.5	281.4	242.6	229.0	218.0	213.0	207.3	208.6	203.4	202.2	204.6	203.9	206.9	210.2	207.5	210.4	211.3	209.2	195.4	178.7	166.2	154.0	135.5	123.6	113.6	103.9	97.18	99.87	97.29	73.38	57.12	47.44	43.59	37.60	31.20	26.82	23.05	18.96	22.20	63.08	191.5	496.4	 1473	 1077	32.96	3.204	2.319	1.949	2.356	1.807	1.909	1.626	2.129	2.042	2.045	1.916	1.724	1.786	1.756	1.734	1.763	1.845	1.865	1.879
500.0	77.80	106.0	200.2	209.8	252.8	770.3	 2401	775.8	314.5	321.1	332.7	332.4	310.1	277.8	252.5	232.0	211.3	200.9	192.6	186.1	188.5	182.9	179.2	186.4	183.0	185.9	192.8	188.7	192.9	193.5	188.4	180.9	168.3	153.7	138.8	127.5	115.8	106.7	95.89	88.28	85.43	90.67	81.19	58.58	47.60	43.25	36.76	31.63	27.48	23.23	18.59	16.91	23.61	50.94	119.7	621.2	 1853	391.4	20.17	2.493	2.338	2.507	1.974	1.976	1.948	1.860	2.031	1.675	1.862	1.772	1.652	1.658	1.698	1.579	1.801	1.617	1.742
505.0	67.70	92.96	186.3	216.6	212.9	343.0	 1717	 2477	308.7	293.3	308.4	300.4	285.3	265.4	238.2	211.2	189.8	183.0	180.9	171.2	170.4	169.4	167.2	165.4	167.6	170.8	177.0	178.1	175.4	179.2	173.6	162.3	154.8	140.4	130.8	118.4	109.0	100.8	92.96	84.27	75.49	78.49	79.55	63.55	47.57	42.86	37.89	32.18	28.42	23.70	18.55	16.80	15.63	20.35	33.78	152.4	943.8	 1850	312.9	7.419	2.391	2.003	2.221	2.069	1.726	1.982	1.886	1.853	1.825	1.823	1.646	1.518	1.616	1.607	1.520	1.676	1.732
510.0	64.05	78.80	136.6	233.1	205.1	219.3	711.2	 4774	837.8	267.5	272.5	272.8	255.5	235.5	213.4	191.1	170.6	167.2	158.8	152.1	151.9	148.8	148.2	150.2	147.8	153.7	154.2	153.9	154.0	156.1	154.4	147.7	136.1	124.7	117.8	108.1	99.21	90.94	83.80	75.69	68.94	65.72	67.69	68.17	53.22	41.58	36.05	30.96	27.48	23.48	19.60	16.44	13.97	13.20	15.37	40.29	230.8	881.5	 1244	581.6	22.60	2.345	2.131	1.893	1.833	1.817	1.768	1.826	1.640	1.726	1.544	1.413	1.387	1.531	1.427	1.487	1.650
515.0	58.64	70.01	114.4	184.7	211.0	185.2	300.2	 2738	 1929	332.4	245.4	238.8	225.5	204.9	192.7	169.1	151.6	145.3	138.6	132.2	132.5	132.3	129.8	129.0	129.2	130.1	130.4	132.9	132.9	137.8	135.4	126.3	120.8	112.5	105.5	94.06	89.61	82.44	76.83	69.92	61.58	57.00	55.50	58.92	58.44	45.08	34.55	29.80	26.24	23.03	19.23	16.84	14.35	11.56	11.18	15.57	57.54	202.3	434.1	 1287	401.4	28.83	2.713	1.908	1.792	1.774	1.520	1.685	1.354	1.499	1.256	1.122	1.260	1.348	1.331	1.314	1.326
520.0	49.73	71.45	86.41	149.6	213.2	169.8	211.3	953.2	 2288	607.7	229.5	221.8	198.4	185.7	177.6	149.5	144.6	133.1	124.1	125.6	124.3	117.5	115.7	118.3	116.8	117.0	118.6	120.2	118.3	123.8	121.1	117.0	105.9	100.7	95.38	87.01	81.84	74.56	69.80	64.26	57.32	52.88	49.06	49.15	55.68	49.07	36.45	28.79	25.30	22.30	18.54	17.74	14.45	11.82	9.629	10.63	19.06	50.68	104.4	556.3	 1319	358.1	15.69	2.101	1.540	1.861	1.470	1.543	1.423	1.397	1.346	1.349	1.441	1.243	1.265	1.412	1.603
525.0	56.68	70.74	80.95	120.1	208.2	184.7	161.0	369.9	 1681	 1578	224.2	205.9	181.8	167.5	158.1	141.7	135.7	121.3	114.4	110.3	109.2	103.0	105.2	106.2	102.9	106.9	108.3	109.0	112.0	109.5	109.2	104.2	96.43	92.43	85.41	81.70	74.15	68.01	62.74	59.37	53.40	49.90	44.93	42.98	47.58	49.24	38.48	28.75	24.35	22.65	19.12	17.02	14.23	11.92	9.877	9.530	10.15	16.50	28.18	136.2	719.6	 1269	273.7	5.092	1.648	2.011	1.405	1.649	1.233	1.426	1.361	1.293	1.287	1.249	1.207	1.366	1.387
530.0	58.16	52.76	76.09	92.53	166.1	210.8	146.3	202.0	660.9	 2106	718.5	183.8	169.7	154.1	136.9	123.6	117.9	108.5	102.1	98.08	94.79	94.55	92.67	93.29	91.96	92.59	95.28	94.48	96.85	97.36	94.85	93.08	85.98	81.68	74.55	71.16	65.51	61.43	56.30	52.28	49.18	44.18	40.65	38.27	37.07	41.83	41.57	31.18	24.28	20.46	18.07	15.83	13.75	12.31	9.757	9.195	8.576	9.088	11.23	34.37	176.1	615.6	994.7	420.7	19.56	1.791	1.615	1.387	1.315	1.184	1.163	1.190	1.115	1.316	1.224	1.135	1.271
535.0	44.92	53.86	67.12	77.04	113.9	201.5	155.2	145.1	268.6	 1155	 1837	222.3	146.4	136.8	117.9	107.2	101.5	94.18	89.70	85.96	81.67	80.37	78.95	80.12	78.16	80.82	80.70	81.62	81.90	84.61	82.44	77.85	75.90	70.12	67.10	62.93	56.97	53.15	49.29	46.59	43.13	40.62	34.57	33.53	31.92	32.57	37.05	33.02	25.57	19.25	16.88	14.69	12.42	11.43	10.04	8.746	7.736	7.186	7.154	11.33	43.14	141.0	353.2	973.3	379.5	22.74	1.688	1.243	1.163	1.180	1.003	0.982	0.869	1.193	1.250	1.101	1.024
540.0	34.88	49.02	73.36	70.34	98.50	169.1	175.1	130.7	157.4	462.1	 2169	455.9	130.8	121.7	110.1	94.99	90.22	84.23	78.91	73.52	72.53	70.44	73.38	70.04	71.48	71.19	74.17	71.09	73.59	76.69	73.94	70.01	65.30	63.40	59.53	56.48	52.00	46.49	44.54	41.87	39.70	35.60	32.23	30.43	29.28	27.88	29.32	32.59	28.03	19.48	15.71	13.81	11.89	10.59	9.442	9.254	7.246	6.897	6.146	6.670	13.38	34.36	83.20	439.7	996.1	301.1	7.995	1.593	1.028	1.072	1.137	0.890	0.926	1.025	1.225	0.930	1.012
545.0	35.12	43.24	59.55	60.55	81.84	127.0	196.8	121.3	123.5	214.4	 1533	 1354	127.8	110.2	95.37	93.04	79.29	75.25	71.78	68.69	66.41	65.04	62.63	60.46	61.67	63.85	63.78	63.10	64.32	63.71	65.16	63.62	59.60	57.41	54.18	49.50	46.38	43.04	40.40	37.79	35.59	32.28	30.03	28.23	26.84	24.38	24.47	27.89	28.76	21.25	15.26	12.81	11.49	10.11	9.092	8.626	7.433	6.395	5.805	5.481	6.548	10.55	21.14	107.7	571.8	912.5	53.29	3.316	1.034	1.323	1.166	0.843	0.982	1.031	1.057	0.916	0.905
550.0	35.42	44.16	53.01	63.59	62.82	82.15	164.2	144.0	105.2	129.7	561.8	 1831	521.6	96.02	83.54	76.00	70.21	65.27	62.72	58.44	57.76	53.08	52.35	53.52	53.25	53.48	53.19	53.67	54.80	55.76	56.80	54.44	50.90	48.15	45.12	42.03	38.37	37.33	35.35	31.85	30.53	28.06	25.46	23.81	22.82	21.52	20.61	21.10	23.79	22.04	15.32	11.83	10.04	9.511	8.225	7.378	7.331	6.730	5.484	4.823	4.828	5.264	7.181	26.12	140.9	466.5	634.1	219.1	14.83	1.198	1.083	0.965	1.038	0.993	0.805	1.009	0.936
555.0	36.92	44.91	47.32	53.38	53.58	71.84	99.48	171.8	91.43	101.3	201.1	970.0	 1556	114.5	72.08	62.68	61.11	52.99	51.90	47.15	47.89	45.38	44.04	43.74	44.51	44.54	45.72	42.74	42.92	44.63	45.33	43.56	40.86	39.79	36.10	34.17	32.74	30.27	28.03	27.89	25.89	22.99	20.85	19.87	18.03	17.85	16.55	16.03	17.15	18.91	16.59	11.17	9.593	7.966	7.336	6.567	6.893	6.174	5.646	4.626	3.866	3.812	4.055	7.959	33.13	106.4	249.4	677.5	302.2	12.70	1.241	1.027	1.223	0.873	0.609	0.966	0.654
560.0	31.97	37.73	40.68	49.45	50.47	60.94	69.44	166.9	102.8	81.49	111.9	353.5	 1864	303.9	61.12	55.69	51.12	47.54	44.32	41.85	38.89	39.60	38.12	38.25	39.59	36.93	39.40	36.31	37.14	38.03	38.49	37.49	36.90	32.62	30.49	27.98	27.48	26.03	24.01	23.11	22.26	20.15	18.50	17.80	15.70	16.00	14.21	14.11	13.49	14.95	16.04	12.19	8.997	7.215	6.683	5.794	5.985	5.719	4.862	4.439	4.017	3.670	2.763	3.729	9.195	25.45	59.45	324.7	655.9	56.74	3.957	1.138	0.902	0.846	0.746	0.841	0.721
565.0	28.11	36.24	32.24	48.75	47.26	52.28	52.77	129.7	125.4	68.70	83.04	136.1	 1258	 1031	58.31	45.60	42.86	39.65	37.50	36.15	34.97	34.80	30.50	32.99	33.59	32.26	33.66	32.75	33.15	33.79	31.52	30.64	30.43	29.02	26.96	24.52	24.54	22.40	20.17	20.03	18.61	18.40	16.21	15.90	14.48	13.49	12.41	12.05	10.84	11.75	13.08	12.84	8.507	6.777	6.017	5.096	5.205	4.692	4.696	3.913	3.436	3.304	2.910	3.141	3.556	7.262	14.65	81.28	399.3	437.8	46.64	1.964	0.918	0.731	0.654	0.775	0.557
570.0	35.65	32.48	34.11	39.96	39.86	39.99	44.48	75.63	141.8	78.91	63.07	75.65	433.4	 1454	338.4	40.46	36.19	33.22	29.02	28.94	28.72	27.63	26.04	26.04	26.64	25.06	26.14	25.68	26.91	27.16	26.64	26.85	24.77	22.79	21.56	19.82	19.03	18.26	16.54	16.40	14.98	14.22	13.41	12.66	11.24	11.23	10.06	9.821	9.274	8.572	9.277	10.58	9.082	6.684	5.169	4.891	4.550	4.001	3.742	3.782	3.662	2.945	2.538	2.326	2.554	3.059	4.480	19.32	100.3	277.5	370.9	162.1	8.637	0.881	0.610	0.754	0.718
575.0	29.19	24.00	29.82	35.47	32.11	33.58	37.19	46.04	102.9	112.0	55.49	55.67	136.3	735.1	 1161	57.78	29.22	26.35	24.97	20.86	23.21	22.20	21.55	20.49	20.53	19.55	20.46	20.23	20.85	20.89	20.41	19.32	19.56	19.00	16.41	15.63	14.96	14.19	13.53	12.32	12.04	11.59	10.75	10.24	9.026	8.978	8.546	7.458	7.367	6.825	6.701	7.406	8.026	6.808	5.118	3.771	3.922	3.486	3.456	3.393	3.052	2.784	2.701	2.197	2.258	1.992	2.076	5.457	23.34	64.00	156.7	452.5	171.6	5.496	0.893	0.730	0.726
580.0	30.69	26.61	30.24	34.10	32.23	33.43	34.12	41.63	66.49	133.3	51.69	47.11	65.16	246.9	 1408	202.6	24.49	23.22	21.10	18.57	19.52	18.30	16.57	17.73	17.90	16.13	16.14	16.79	17.62	17.99	16.80	15.96	15.90	14.91	13.67	12.83	12.95	12.05	11.71	10.55	9.669	9.783	8.713	8.768	7.534	7.538	7.131	7.041	5.874	5.705	5.240	5.448	6.521	6.819	5.296	3.666	3.327	3.235	3.058	2.568	2.512	2.342	2.597	1.610	2.121	1.779	1.647	2.233	6.296	15.33	38.18	239.4	395.4	50.10	2.101	0.785	0.582
585.0	23.23	28.31	24.10	30.57	26.28	29.30	29.48	36.82	49.39	130.3	75.52	47.31	45.43	87.25	936.9	774.2	24.98	18.72	15.88	17.67	16.56	16.27	14.47	15.47	14.52	13.59	14.15	14.46	15.29	15.24	14.68	14.58	13.27	12.54	12.22	11.38	10.63	10.19	10.50	9.259	8.231	8.231	7.276	7.559	6.349	6.813	6.085	6.030	5.116	4.879	4.182	4.003	4.747	5.836	5.211	3.958	3.278	2.843	2.679	2.459	2.196	2.288	2.359	1.840	1.670	1.499	1.503	1.675	2.349	4.187	9.543	61.19	264.0	292.3	37.56	1.058	0.695
590.0	20.23	24.38	26.70	27.54	27.51	29.23	26.68	32.14	35.76	85.34	110.6	45.30	39.83	45.01	304.7	 1091	141.6	17.47	14.61	14.22	13.01	13.81	12.78	12.23	11.64	11.87	11.47	12.18	11.88	12.03	11.56	11.82	10.97	10.76	9.165	9.500	8.657	8.106	7.998	7.213	6.651	6.721	6.112	5.909	5.437	5.231	4.807	4.951	4.739	3.933	3.690	3.404	3.402	4.231	4.952	4.465	3.209	2.453	2.395	2.383	1.945	2.036	1.904	2.006	1.727	1.525	1.325	1.292	1.456	1.946	2.977	14.38	67.51	182.2	229.2	81.92	4.369
595.0	17.05	22.02	22.27	21.33	26.21	22.85	18.97	26.62	29.86	44.85	118.8	59.21	36.88	32.58	89.20	516.1	765.3	29.38	11.29	11.11	10.44	11.83	10.38	10.51	9.307	9.764	9.449	9.690	9.577	10.33	9.018	9.398	8.857	8.556	7.701	7.729	6.797	6.717	6.423	5.987	6.001	5.484	4.815	4.683	4.396	4.416	4.024	4.013	3.591	3.164	2.988	3.044	2.821	2.825	3.364	4.371	3.816	2.305	2.011	1.766	1.687	1.648	1.698	1.606	1.760	1.368	1.178	1.083	1.258	1.275	1.380	3.912	15.57	41.79	103.7	237.5	54.34
600.0	18.69	20.74	24.25	21.56	24.49	18.89	20.95	23.60	22.76	36.42	89.21	88.77	33.71	28.95	38.26	164.6	950.0	134.7	10.52	10.17	10.15	9.209	8.545	8.020	8.706	8.087	8.313	8.708	8.062	7.796	8.126	8.058	7.511	7.274	6.784	6.273	5.700	5.909	5.660	4.815	4.954	4.786	4.067	4.136	3.923	3.779	3.353	3.612	3.020	2.827	2.714	2.752	2.352	2.397	2.667	3.641	3.672	2.608	2.044	1.599	1.721	1.544	1.376	1.263	1.438	1.592	0.974	0.911	0.991	0.977	1.172	1.530	3.990	10.00	25.62	134.7	210.6
605.0	27.83	19.45	23.73	20.91	20.04	18.57	20.05	24.23	21.92	28.57	58.17	108.8	38.17	30.51	24.74	54.06	618.0	495.3	12.97	9.941	9.222	8.341	7.193	6.742	7.405	6.567	6.908	6.810	7.420	7.051	6.997	6.535	6.177	5.456	6.098	5.122	5.168	4.946	4.473	4.433	4.539	4.281	3.675	3.598	3.293	3.307	3.259	2.913	2.682	2.319	2.363	2.166	2.120	2.158	1.946	2.706	3.300	2.551	1.825	1.342	1.361	1.533	1.196	1.248	1.169	1.403	1.119	0.856	1.121	0.782	0.944	1.035	1.457	2.973	6.260	36.00	148.6
610.0	21.84	21.03	27.31	21.29	19.05	19.32	19.79	19.42	20.64	25.95	36.21	89.80	61.33	28.35	23.23	24.51	196.3	718.2	104.6	7.436	7.319	6.926	6.309	5.887	6.269	5.657	5.380	5.585	6.080	6.086	5.544	5.338	5.451	4.669	4.927	4.553	4.534	4.089	3.810	3.592	3.322	3.267	3.039	2.991	2.755	2.526	2.596	2.529	2.334	2.084	1.898	1.846	1.725	1.590	1.731	1.816	2.366	2.574	2.117	1.606	1.376	1.198	1.111	1.190	1.019	1.130	1.218	1.251	1.012	0.797	0.819	0.933	0.868	1.156	1.905	8.481	39.12
615.0	18.21	20.52	24.46	23.96	20.21	16.98	17.17	18.63	20.93	23.68	29.39	56.08	84.70	31.28	21.78	18.41	53.51	346.4	568.3	15.64	6.233	5.827	5.473	5.323	4.330	5.075	4.477	4.210	4.615	4.900	4.157	4.744	4.141	3.774	3.785	3.722	3.388	3.091	2.906	2.935	2.699	2.587	2.558	2.399	2.552	2.066	1.902	1.940	1.972	1.791	1.594	1.605	1.275	1.459	1.730	1.296	1.559	2.011	2.269	1.791	1.335	1.228	0.954	0.965	0.878	1.007	1.113	1.091	1.151	0.966	0.669	0.749	0.676	0.734	1.066	2.334	9.235
620.0	19.46	17.55	20.53	19.92	19.64	16.02	15.44	19.59	20.07	19.16	27.25	37.65	80.22	39.90	19.02	13.06	19.93	109.4	707.9	102.2	5.368	5.131	4.551	4.211	4.230	4.737	4.145	3.995	4.240	3.792	4.005	4.333	3.518	3.173	3.100	3.188	2.726	2.800	2.526	2.385	2.382	2.154	2.078	2.063	1.888	1.872	1.706	1.755	1.675	1.547	1.467	1.355	1.408	1.300	1.494	1.271	1.296	1.577	1.866	1.673	1.262	1.103	0.925	0.934	0.855	0.988	0.851	0.885	1.220	0.957	0.755	0.600	0.570	0.572	0.739	0.954	2.606
625.0	17.95	23.61	18.41	20.30	17.38	16.87	14.67	16.23	18.91	22.89	24.14	28.22	63.60	58.52	18.77	12.48	13.40	33.51	461.3	361.6	7.656	4.138	4.211	3.816	4.205	3.868	4.037	3.676	3.437	3.112	3.725	3.154	3.101	2.968	3.071	2.759	2.330	2.226	2.087	2.091	2.301	2.095	1.711	1.656	1.822	1.716	1.508	1.652	1.749	1.406	1.343	1.251	1.140	1.121	1.094	1.125	1.159	1.291	1.678	1.609	1.089	0.854	0.983	0.814	0.850	0.810	0.864	0.691	1.021	0.939	0.764	0.654	0.577	0.576	0.698	0.690	0.964
630.0	18.75	20.00	19.43	17.15	15.28	15.77	13.95	15.46	15.45	19.68	22.82	25.16	40.33	67.23	25.48	12.75	11.06	13.72	142.5	536.1	80.99	4.515	3.484	3.099	3.222	3.085	2.826	2.938	3.114	3.040	2.971	2.607	2.662	2.813	2.614	2.307	2.375	2.013	1.894	1.789	1.872	1.688	1.457	1.559	1.595	1.601	1.316	1.327	1.375	1.167	1.068	1.093	1.105	0.847	1.012	0.816	0.991	1.026	1.085	1.439	1.197	0.936	0.878	0.707	0.724	0.686	0.617	0.819	0.788	0.891	1.058	0.648	0.661	0.586	0.609	0.550	0.683
635.0	20.72	17.85	19.58	20.09	17.35	12.34	12.76	12.64	14.28	14.75	21.45	22.54	25.93	53.62	42.76	13.93	10.52	8.427	37.51	259.7	417.0	13.11	3.153	3.281	2.960	3.021	2.405	2.434	2.851	2.481	2.741	2.537	2.549	2.313	1.917	1.765	2.144	1.549	1.627	1.518	1.351	1.411	1.126	1.386	1.193	1.186	1.235	0.951	1.146	0.950	0.816	0.867	0.872	0.914	0.991	0.672	0.749	0.733	0.811	0.988	0.943	1.168	0.825	0.637	0.693	0.690	0.647	0.574	0.657	0.534	0.962	0.872	0.675	0.600	0.639	0.487	0.727
640.0	25.93	17.00	18.97	18.80	14.63	12.04	13.65	12.87	15.83	16.41	22.07	22.85	25.18	37.46	53.76	15.68	10.11	7.644	12.61	79.05	519.1	84.52	3.701	3.146	2.563	2.086	2.245	1.904	2.603	2.095	2.660	1.911	1.789	1.827	1.726	1.823	1.495	1.332	1.332	1.477	1.224	1.305	1.258	1.136	0.847	1.301	0.950	0.932	0.952	0.760	0.921	0.846	0.670	0.676	1.048	0.619	0.762	0.763	0.686	0.905	1.058	1.012	0.862	0.648	0.603	0.591	0.718	0.634	0.713	0.593	0.863	0.860	0.606	0.466	0.463	0.545	0.546
645.0	27.51	18.96	19.19	24.22	17.25	16.47	11.97	13.47	14.31	17.95	19.69	21.59	22.84	25.97	55.80	22.87	9.236	7.042	7.393	22.61	351.7	279.3	4.324	2.582	2.482	2.291	2.290	1.854	2.261	1.807	2.052	1.477	1.663	1.425	1.608	1.573	1.479	1.243	1.183	1.280	1.539	0.972	1.006	0.920	0.794	0.961	0.898	0.942	0.868	0.631	0.725	0.895	0.611	0.824	0.759	0.713	0.772	0.815	0.687	0.635	0.751	1.017	1.030	0.741	0.635	0.625	0.598	0.636	0.657	0.634	0.560	0.670	1.018	0.539	0.533	0.610	0.544
650.0	30.90	18.29	22.87	20.64	16.21	15.24	12.36	12.48	14.26	15.23	16.67	20.92	23.28	22.35	43.04	32.19	9.846	7.435	6.209	8.765	133.0	460.1	28.01	2.187	1.929	2.286	2.147	1.682	1.728	1.696	1.646	1.322	1.578	1.108	1.276	1.288	1.430	1.290	1.322	1.041	1.024	1.030	0.968	0.806	0.910	0.892	0.810	0.806	0.842	0.605	0.575	0.726	0.591	0.761	0.691	0.629	0.734	0.640	0.739	0.541	0.670	0.719	0.864	0.906	0.551	0.721	0.485	0.781	0.518	0.856	0.644	0.617	0.697	0.583	0.512	0.585	0.469
