Sample:	'1
File name:	F2025070401Áù·áÏû·À³Ø.FD3
Run date:	'09:11:14, 07/09/2025
Operator:	Administrator
Comment:	'

Instrument
Model:	F-2700 FL Spectrophotometer
Serial number:	23B8-004
ROM Version:	4J14000 07

Instrument parameters
Measurement type:	3-D scan
Data mode:	Fluorescence
EX  Start WL:	220.0 nm
EX  End WL:	600.0 nm
EX Sampling interval:	5.0 nm
EM  Start WL:	230.0 nm
EM  End WL:	650.0 nm
EM Sampling interval:	5.0 nm
Scan speed:	12000 nm/min
EX Slit:	5.0 nm
EM Slit:	5.0 nm
PMT Voltage:	700 V
Response:	Auto 
Corrected spectra:	Off
Contour interval:	50.000

Peak integration
Integration method:	Rectangular
Sensitivity:	1
Threshold:	1.000

Peaks
No.	ApexEX/EM(nm)	Height(Data)
1	225.0/305.0	643.7
2	225.0/575.0	57.12
3	225.0/595.0	58.94
4	225.0/635.0	33.73
5	230.0/345.0	1118
6	230.0/505.0	264.6
7	235.0/515.0	230.6
8	240.0/265.0	422.1
9	240.0/525.0	205.3
10	245.0/270.0	417.2
11	245.0/540.0	177.9
12	245.0/640.0	15.94
13	250.0/275.0	543.7
14	250.0/550.0	143.6
15	255.0/285.0	632.8
16	255.0/565.0	127.9
17	260.0/290.0	642.5
18	260.0/375.0	685.4
19	260.0/575.0	119.6
20	265.0/295.0	845.9
21	265.0/380.0	689.7
22	265.0/590.0	103.1
23	270.0/300.0	1102
24	270.0/375.0	687.5
25	270.0/600.0	98.27
26	275.0/305.0	1059
27	275.0/335.0	679.1
28	275.0/610.0	78.62
29	280.0/345.0	672.1
30	280.0/625.0	66.10
31	285.0/320.0	884.7
32	285.0/640.0	46.14
33	290.0/325.0	765.2
34	300.0/335.0	526.0
35	305.0/345.0	465.7
36	310.0/350.0	382.4
37	315.0/355.0	369.8
38	320.0/365.0	355.8
39	325.0/370.0	332.6
40	330.0/375.0	322.3
41	335.0/380.0	321.0
42	345.0/395.0	247.2
43	350.0/400.0	238.7
44	365.0/420.0	183.2
45	395.0/460.0	76.07
46	410.0/480.0	43.93
47	425.0/500.0	26.92
48	430.0/505.0	23.57
49	440.0/520.0	16.24
50	455.0/540.0	8.709
51	470.0/560.0	4.221
52	475.0/350.0	3.383
53	485.0/265.0	2.180
54	495.0/270.0	2.154
55	505.0/275.0	3.159
56	510.0/280.0	3.797
57	515.0/285.0	4.038
58	530.0/290.0	3.882
59	540.0/295.0	5.211
60	545.0/300.0	6.671
61	550.0/305.0	6.277
62	560.0/310.0	5.498
63	570.0/315.0	5.497
64	575.0/320.0	5.490
65	585.0/325.0	5.107

Data points
	220.0	225.0	230.0	235.0	240.0	245.0	250.0	255.0	260.0	265.0	270.0	275.0	280.0	285.0	290.0	295.0	300.0	305.0	310.0	315.0	320.0	325.0	330.0	335.0	340.0	345.0	350.0	355.0	360.0	365.0	370.0	375.0	380.0	385.0	390.0	395.0	400.0	405.0	410.0	415.0	420.0	425.0	430.0	435.0	440.0	445.0	450.0	455.0	460.0	465.0	470.0	475.0	480.0	485.0	490.0	495.0	500.0	505.0	510.0	515.0	520.0	525.0	530.0	535.0	540.0	545.0	550.0	555.0	560.0	565.0	570.0	575.0	580.0	585.0	590.0	595.0	600.0
230.0	51.98	979.8	1944	494.6	17.79	3.242	2.486	2.294	1.999	1.832	1.687	1.802	1.479	1.223	1.064	0.759	0.764	0.663	0.571	0.601	0.498	0.383	0.361	0.322	0.308	0.322	0.236	0.269	0.222	0.194	0.208	0.162	0.163	0.185	0.137	0.195	0.198	0.162	0.165	0.157	0.254	0.412	0.364	0.212	0.153	0.162	1.112	4.374	6.602	4.309	1.635	0.277	0.105	0.121	0.077	0.086	0.073	0.095	0.050	0.098	0.080	0.058	0.070	0.086	0.066	0.081	0.054	0.069	0.047	0.049	0.054	0.070	0.065	0.076	0.063	0.066	0.088
235.0	99.72	284.1	1399	1966	461.8	25.83	2.992	2.578	1.691	2.649	1.916	1.496	1.645	1.418	1.137	0.665	0.857	0.607	0.661	0.563	0.462	0.372	0.343	0.364	0.353	0.331	0.240	0.290	0.308	0.238	0.244	0.102	0.213	0.173	0.116	0.200	0.149	0.229	0.176	0.111	0.276	0.249	0.281	0.348	0.447	0.227	0.352	1.172	2.772	4.878	7.041	6.841	2.959	0.565	0.149	0.103	0.093	0.111	0.073	0.080	0.098	0.097	0.036	0.098	0.103	0.072	0.054	0.069	0.070	0.097	0.056	0.082	0.056	0.065	0.074	0.041	0.072
240.0	173.1	141.0	468.3	1961	2139	343.9	12.58	3.604	2.435	2.904	1.893	1.776	1.441	1.444	1.209	0.985	0.824	0.576	0.624	0.595	0.427	0.428	0.379	0.284	0.322	0.247	0.266	0.364	0.239	0.260	0.245	0.130	0.168	0.205	0.118	0.172	0.171	0.189	0.180	0.180	0.194	0.145	0.258	0.288	0.554	0.556	0.382	0.403	0.714	1.627	4.472	9.551	10.93	6.725	2.101	0.234	0.062	0.117	0.092	0.104	0.090	0.084	0.084	0.099	0.095	0.100	0.067	0.062	0.060	0.064	0.063	0.069	0.066	0.094	0.090	0.058	0.091
245.0	131.9	215.5	163.1	769.7	2712	2078	230.5	6.988	4.029	2.879	3.052	2.296	1.890	1.813	1.353	0.945	0.856	0.588	0.638	0.567	0.516	0.443	0.388	0.451	0.399	0.294	0.262	0.262	0.225	0.271	0.277	0.228	0.234	0.171	0.217	0.132	0.111	0.170	0.142	0.180	0.237	0.108	0.110	0.214	0.332	0.564	0.705	0.572	0.367	0.513	1.166	3.650	8.619	13.58	12.20	6.225	1.374	0.159	0.084	0.093	0.111	0.079	0.091	0.094	0.091	0.083	0.057	0.066	0.086	0.087	0.073	0.053	0.104	0.080	0.088	0.074	0.068
250.0	48.56	182.8	263.9	258.3	982.2	2558	2776	798.3	31.75	3.938	3.501	2.674	2.390	1.742	1.283	1.111	0.909	0.657	0.731	0.766	0.542	0.534	0.438	0.425	0.351	0.273	0.281	0.280	0.250	0.237	0.242	0.217	0.178	0.186	0.150	0.146	0.139	0.187	0.143	0.190	0.193	0.159	0.177	0.153	0.198	0.280	0.446	0.776	0.907	0.777	0.565	1.010	2.226	5.024	9.080	13.74	16.57	13.61	6.063	1.600	0.145	0.108	0.119	0.077	0.110	0.095	0.098	0.085	0.080	0.072	0.078	0.074	0.083	0.081	0.086	0.086	0.065
255.0	19.32	58.49	214.6	339.0	289.0	698.7	2866	4351	278.0	24.97	4.927	3.689	2.498	1.981	1.552	1.244	1.148	0.929	0.928	0.760	0.721	0.613	0.509	0.534	0.476	0.405	0.348	0.260	0.325	0.239	0.259	0.263	0.266	0.165	0.149	0.149	0.159	0.154	0.108	0.211	0.234	0.162	0.162	0.172	0.194	0.197	0.196	0.284	0.509	1.014	1.298	1.312	0.899	1.272	2.231	3.544	7.756	17.80	27.81	23.49	9.611	1.472	0.240	0.084	0.116	0.156	0.123	0.090	0.089	0.071	0.095	0.062	0.099	0.068	0.067	0.095	0.063
260.0	18.81	20.20	91.56	337.0	306.6	202.9	964.2	4432	4305	225.0	13.72	5.193	3.369	2.663	1.865	1.709	1.119	0.982	0.854	0.688	0.775	0.657	0.602	0.618	0.383	0.467	0.348	0.307	0.399	0.360	0.312	0.244	0.265	0.183	0.172	0.187	0.188	0.159	0.195	0.142	0.204	0.189	0.192	0.167	0.165	0.169	0.171	0.193	0.259	0.442	0.873	1.731	1.685	0.994	0.662	0.960	1.938	5.174	14.66	28.67	31.71	20.77	6.293	0.575	0.130	0.116	0.162	0.074	0.125	0.080	0.082	0.117	0.107	0.093	0.105	0.101	0.103
265.0	20.01	13.15	33.38	178.8	422.1	207.4	251.2	1699	5919	1950	164.9	7.934	5.044	3.227	2.530	1.865	1.343	1.074	0.994	0.727	0.741	0.802	0.565	0.534	0.489	0.451	0.379	0.390	0.391	0.323	0.403	0.223	0.312	0.278	0.173	0.177	0.163	0.212	0.199	0.147	0.262	0.210	0.198	0.214	0.196	0.131	0.157	0.173	0.123	0.179	0.329	0.962	1.975	2.180	1.193	0.534	0.577	1.371	3.654	9.254	22.16	37.44	30.34	16.89	3.200	0.296	0.177	0.094	0.156	0.147	0.103	0.105	0.128	0.109	0.123	0.118	0.125
270.0	31.89	25.22	24.03	60.52	236.7	417.2	251.3	430.3	2094	4914	4584	670.1	27.48	5.125	3.362	2.497	2.074	1.389	1.006	0.930	0.906	0.734	0.632	0.604	0.505	0.467	0.432	0.392	0.410	0.437	0.311	0.326	0.281	0.245	0.300	0.228	0.243	0.267	0.250	0.215	0.218	0.205	0.189	0.176	0.233	0.223	0.212	0.183	0.178	0.177	0.185	0.335	0.678	1.297	1.944	2.154	1.609	0.889	1.096	2.297	5.455	11.87	20.79	32.09	33.36	29.27	11.89	2.813	0.309	0.190	0.122	0.148	0.142	0.114	0.112	0.109	0.093
275.0	89.69	76.34	61.64	41.70	78.84	238.7	543.7	292.7	514.2	1327	5059	7542	858.6	20.11	5.417	3.284	2.486	1.987	1.315	1.113	1.060	0.911	0.647	0.702	0.685	0.471	0.413	0.421	0.490	0.351	0.357	0.328	0.341	0.350	0.350	0.412	0.301	0.381	0.321	0.318	0.253	0.274	0.248	0.279	0.388	0.308	0.381	0.277	0.329	0.230	0.172	0.243	0.335	0.454	0.698	1.223	2.864	3.159	1.942	1.008	1.559	2.985	5.010	7.781	11.84	28.90	49.52	31.33	17.94	2.906	0.258	0.156	0.167	0.104	0.156	0.152	0.087
280.0	154.9	165.6	120.9	60.84	50.30	97.17	425.2	568.1	250.3	379.4	1611	7495	6447	135.5	11.30	5.061	3.131	2.347	1.914	1.315	1.124	0.852	0.822	0.573	0.570	0.655	0.490	0.486	0.488	0.339	0.434	0.441	0.362	0.411	0.425	0.515	0.538	0.489	0.457	0.428	0.391	0.372	0.437	0.467	0.524	0.521	0.557	0.487	0.530	0.339	0.315	0.289	0.278	0.242	0.414	0.539	1.196	2.546	3.797	3.008	1.178	1.113	1.526	2.256	3.182	7.684	20.11	40.02	55.87	28.76	12.34	1.036	0.221	0.157	0.157	0.217	0.095
285.0	246.3	259.8	199.9	101.0	59.49	67.52	202.4	632.8	327.8	218.1	491.6	2605	8601	4626	95.60	7.229	3.937	3.057	2.159	1.517	1.379	1.061	0.861	0.538	0.686	0.607	0.484	0.478	0.584	0.323	0.454	0.389	0.435	0.459	0.557	0.679	0.648	0.695	0.697	0.435	0.548	0.464	0.589	0.568	0.713	0.813	0.786	0.734	0.676	0.551	0.459	0.333	0.340	0.292	0.361	0.379	0.638	1.040	2.354	4.038	3.414	1.815	1.067	1.182	1.394	2.444	5.210	11.47	28.24	49.76	56.55	23.66	6.028	0.516	0.252	0.198	0.206
290.0	400.6	444.2	329.5	172.3	95.23	85.26	129.5	313.6	642.5	524.5	351.9	787.1	2842	6166	4089	396.7	18.01	4.468	3.123	2.052	1.659	1.281	0.928	0.851	0.732	0.648	0.608	0.582	0.511	0.448	0.511	0.392	0.442	0.502	0.792	0.875	0.981	0.994	0.823	0.665	0.720	0.669	0.685	0.856	1.016	1.183	1.161	1.143	1.052	0.870	0.646	0.556	0.453	0.401	0.428	0.441	0.571	0.688	1.040	1.782	2.799	3.664	3.882	2.927	1.809	1.627	2.184	3.522	7.314	14.04	25.93	36.08	35.35	36.91	15.75	5.288	0.600
295.0	505.9	566.1	443.0	241.8	143.9	120.5	145.2	213.2	382.7	845.9	729.7	475.5	848.2	1614	4490	6039	525.5	13.41	4.223	3.168	2.238	1.721	1.252	1.096	0.957	0.789	0.760	0.638	0.587	0.500	0.496	0.427	0.335	0.643	0.967	1.081	1.149	1.218	0.958	0.879	0.897	0.771	0.838	1.038	1.091	1.396	1.405	1.510	1.236	1.047	0.870	0.856	0.630	0.583	0.659	0.636	0.722	0.851	0.862	1.214	1.482	1.910	3.023	5.116	5.211	3.451	2.153	2.248	3.074	4.427	6.794	8.920	10.47	24.73	47.28	52.28	24.05
300.0	564.9	620.9	489.2	287.2	173.4	156.2	181.1	231.3	319.6	622.0	1102	630.8	462.6	522.8	1354	6033	4828	80.82	7.627	3.865	2.430	2.028	1.335	1.508	1.186	0.850	0.833	0.636	0.668	0.577	0.443	0.415	0.482	0.596	0.952	1.142	1.309	1.308	1.057	0.928	0.954	0.740	0.974	1.178	1.275	1.526	1.531	1.792	1.527	1.232	0.990	0.981	0.791	0.768	0.754	0.752	0.928	0.979	1.056	1.159	1.305	1.526	1.884	3.307	5.119	6.671	4.320	2.854	2.188	2.407	2.740	3.000	3.083	6.541	15.88	36.15	55.47
305.0	568.8	643.7	542.3	319.9	211.4	193.6	227.5	272.2	351.3	495.4	966.2	1059	500.7	335.9	437.3	2026	6597	3512	59.48	5.454	3.324	2.298	1.795	1.484	1.017	0.921	0.766	0.713	0.647	0.603	0.478	0.542	0.491	0.608	0.863	1.139	1.338	1.312	0.994	0.951	1.021	1.035	0.965	1.224	1.279	1.620	1.686	1.984	1.684	1.297	1.087	1.021	0.904	0.917	0.851	0.939	1.047	1.059	1.310	1.494	1.517	1.589	2.010	2.498	3.185	5.058	6.277	5.697	3.563	2.291	2.015	2.071	1.652	2.316	4.370	9.541	22.98
310.0	567.5	640.3	544.3	347.0	245.4	228.6	265.3	312.9	382.2	489.8	681.9	1007	909.2	432.2	284.1	565.9	2133	4570	3843	274.8	12.74	2.993	2.101	1.764	1.267	1.033	0.838	0.809	0.729	0.602	0.537	0.540	0.501	0.604	0.803	1.127	1.267	1.252	1.125	1.074	0.957	0.953	1.143	1.200	1.299	1.548	1.591	1.905	1.655	1.377	1.175	1.140	1.064	0.992	1.010	1.069	1.235	1.315	1.435	1.569	1.775	1.895	2.146	2.560	2.789	3.266	4.107	4.996	5.498	4.977	3.545	2.228	1.736	1.684	2.019	2.897	5.920
315.0	539.6	613.2	553.6	375.0	276.3	259.1	293.6	341.3	396.3	492.4	604.4	722.2	898.8	800.9	331.9	271.0	573.0	1150	3460	4275	386.0	9.747	3.009	2.320	1.734	1.196	1.092	0.694	0.707	0.643	0.716	0.512	0.579	0.690	0.734	1.118	1.175	1.081	1.105	1.019	1.062	0.912	0.955	1.021	1.277	1.573	1.494	1.854	1.635	1.342	1.171	1.233	1.118	1.176	1.198	1.144	1.393	1.405	1.551	1.611	1.945	1.954	2.288	2.383	2.905	2.813	3.201	3.392	3.871	4.566	5.497	4.876	2.870	1.916	1.702	1.614	2.144
320.0	542.5	657.6	590.7	403.9	306.6	270.4	322.7	353.6	404.5	492.6	586.4	658.3	702.5	884.7	562.4	239.0	246.6	325.0	987.6	4201	3566	61.50	5.519	2.798	1.916	1.491	1.089	1.032	0.840	0.761	0.682	0.634	0.555	0.652	0.719	0.899	1.007	1.109	1.121	0.928	0.865	0.867	1.012	1.086	1.396	1.521	1.664	1.974	1.817	1.449	1.257	1.449	1.197	1.282	1.267	1.354	1.432	1.514	1.765	1.696	2.076	1.966	2.356	2.242	2.792	2.862	3.035	3.170	3.320	3.464	3.922	5.490	4.774	3.592	2.228	1.503	1.468
325.0	578.0	704.1	683.8	484.3	331.6	292.8	332.2	366.3	416.9	500.6	595.3	648.7	638.1	707.9	765.2	357.0	194.5	155.6	270.8	1356	4526	2712	47.41	4.226	2.733	1.731	1.317	1.116	0.951	0.863	0.700	0.606	0.591	0.686	0.723	0.875	0.972	0.996	0.967	1.012	0.909	0.959	1.046	1.040	1.401	1.700	1.844	1.951	2.021	1.608	1.418	1.664	1.299	1.403	1.299	1.427	1.465	1.521	1.636	1.819	1.940	2.049	2.220	2.428	2.579	2.698	3.096	3.061	3.191	3.113	3.098	3.681	4.307	5.107	3.887	2.366	1.451
330.0	618.9	840.8	865.1	664.9	425.1	334.6	341.6	383.9	435.4	513.2	604.6	669.4	647.8	598.3	618.9	579.8	306.2	151.9	133.0	351.7	1413	3200	2780	230.8	11.84	2.606	1.872	1.324	0.989	0.947	0.798	0.659	0.634	0.623	0.727	0.868	0.933	0.985	0.879	0.869	0.893	0.954	1.017	1.170	1.569	1.731	2.104	2.453	2.450	2.164	2.062	1.998	1.759	1.621	1.397	1.470	1.554	1.573	1.701	1.834	1.900	2.112	2.438	2.512	2.647	2.953	3.274	3.096	3.183	3.207	3.024	3.243	3.322	3.695	3.958	4.122	3.383
335.0	657.1	905.2	1013	832.3	541.5	396.3	364.9	391.2	446.6	530.1	620.2	679.1	668.1	593.9	512.7	493.8	526.0	247.9	126.2	146.5	366.3	798.3	2405	3447	347.5	10.00	2.618	1.738	1.597	1.121	0.964	0.740	0.592	0.669	0.691	0.756	0.864	0.963	0.865	0.800	0.836	0.875	1.035	1.193	1.635	1.820	2.115	2.932	2.901	2.768	2.447	2.617	2.181	1.970	1.743	1.622	1.614	1.741	1.774	2.119	1.940	2.111	2.542	2.618	3.088	2.944	3.308	3.224	3.400	3.315	3.177	3.359	3.096	3.056	2.949	2.889	3.414
340.0	716.5	901.7	1075	936.8	621.5	455.4	395.1	418.3	461.4	533.5	626.0	673.8	668.6	606.3	497.2	416.5	487.9	410.5	167.3	118.7	143.8	227.2	689.1	3073	2997	53.95	5.325	2.415	1.765	1.210	1.097	0.948	0.737	0.841	0.675	0.771	0.939	0.880	0.894	0.798	0.981	1.008	1.029	1.265	1.519	1.991	2.207	3.066	3.043	2.934	2.710	2.930	2.559	2.048	1.835	1.744	1.833	1.955	1.823	1.965	2.136	2.196	2.485	2.674	2.860	2.872	3.063	3.186	3.391	3.692	3.397	3.259	3.187	3.068	2.946	2.542	2.532
345.0	685.5	946.6	1118	982.3	675.1	502.0	435.7	450.0	475.6	554.4	630.5	668.8	672.1	609.6	507.6	404.6	380.1	465.7	287.1	133.2	110.9	111.8	201.9	967.0	3369	2280	44.90	3.550	2.039	1.641	1.038	0.830	0.790	0.873	0.724	0.834	0.925	0.974	0.814	0.841	0.855	0.922	1.035	1.360	1.541	1.983	2.407	3.104	2.969	3.079	2.967	3.236	2.795	2.347	2.141	1.844	2.092	1.928	1.971	2.106	2.298	2.393	2.484	2.780	2.913	2.926	3.301	3.119	3.371	3.501	3.504	3.307	3.227	2.997	2.614	2.419	2.450
350.0	675.2	927.9	1104	1016	762.7	573.1	500.2	493.7	519.5	579.5	631.0	670.9	665.4	611.2	517.6	417.9	347.2	355.4	382.4	259.1	140.4	111.7	110.9	263.7	1026	2336	2230	210.1	12.14	2.122	1.285	1.207	0.894	0.852	0.733	0.716	0.817	0.955	0.814	0.821	0.878	0.912	1.060	1.241	1.541	1.822	2.165	2.862	3.129	2.886	3.103	3.383	3.034	2.649	2.402	2.259	2.473	2.259	2.234	2.272	2.400	2.508	2.604	2.874	2.962	2.997	3.265	3.072	3.475	3.391	3.460	3.288	3.161	3.000	2.843	2.606	2.573
355.0	620.8	858.6	1062	994.4	828.0	660.4	569.8	550.4	565.4	607.4	640.2	666.7	659.0	607.5	528.6	436.4	361.3	314.0	306.7	369.8	247.5	142.3	113.9	123.5	273.3	575.4	1608	2732	334.0	10.96	1.953	1.411	1.181	0.790	0.837	0.766	0.900	0.878	0.911	0.882	0.792	0.953	0.991	1.165	1.531	1.732	2.118	2.603	2.930	2.882	2.884	3.290	3.025	2.917	2.726	2.648	2.672	2.465	2.549	2.608	2.635	2.669	2.817	2.949	2.959	2.982	3.300	3.237	3.314	3.212	3.368	3.186	3.267	3.120	2.978	2.693	2.477
360.0	621.3	824.5	982.6	962.7	834.9	697.7	610.0	595.1	600.1	630.9	656.9	662.0	653.8	608.4	528.1	446.7	378.4	319.8	282.1	327.1	355.1	199.4	131.3	106.2	118.5	168.4	443.3	2089	2479	264.3	5.347	1.928	1.196	0.862	1.001	0.849	0.870	0.839	0.958	0.790	0.730	0.980	1.057	1.048	1.513	1.571	1.880	2.409	2.773	2.745	2.832	3.370	3.333	3.083	2.790	2.688	2.886	2.743	2.666	2.654	2.753	2.872	3.103	2.955	2.968	2.820	3.155	3.162	3.128	3.053	3.470	3.416	3.342	3.056	2.849	2.783	2.569
365.0	597.7	784.3	949.5	960.4	843.1	727.3	636.1	621.9	635.8	646.1	664.3	662.3	653.4	602.4	529.4	457.0	394.1	338.9	295.7	282.5	355.8	302.1	162.8	119.1	97.03	86.35	132.4	617.4	2413	2113	45.31	3.503	1.604	1.073	0.983	0.962	0.870	0.806	0.885	0.888	0.780	0.911	1.073	1.088	1.515	1.505	1.785	2.160	2.601	2.601	2.888	3.344	3.245	2.965	2.821	2.730	2.929	2.888	3.026	2.792	2.789	2.774	3.078	3.100	3.005	2.910	2.968	3.065	3.427	3.148	3.214	3.533	3.355	2.897	2.763	2.797	2.657
370.0	596.3	769.2	903.7	933.8	846.2	750.5	671.6	656.3	666.0	671.2	679.1	669.2	646.8	598.7	533.9	464.9	409.3	359.3	316.9	289.6	294.2	332.6	271.6	161.2	112.5	88.02	75.53	171.1	699.2	1830	1934	196.3	12.49	1.705	1.249	1.024	0.975	0.948	0.824	0.908	0.871	0.901	1.108	1.098	1.416	1.483	1.780	2.154	2.407	2.468	2.723	3.120	3.334	2.931	2.967	2.787	2.974	3.051	2.976	2.836	2.910	3.156	3.192	3.203	3.093	3.104	3.064	3.172	3.381	3.199	3.031	3.339	3.144	2.978	3.068	3.045	2.812
375.0	563.7	723.5	851.2	898.4	851.8	762.0	702.0	682.5	685.4	683.2	687.5	670.2	635.5	593.4	526.6	468.1	420.1	379.2	340.3	308.2	285.0	280.2	322.3	265.4	153.3	110.9	84.35	84.70	187.0	444.1	1226	2243	306.2	11.81	1.678	1.248	1.156	0.899	0.877	0.882	0.945	0.875	1.162	1.186	1.378	1.528	1.731	2.162	2.253	2.265	2.621	2.799	3.152	3.157	3.077	3.017	3.053	3.034	3.250	3.038	3.201	3.191	3.316	3.339	3.189	3.410	3.259	3.248	3.116	3.065	3.238	3.128	2.883	3.010	2.771	3.054	2.796
380.0	560.6	693.1	805.3	854.0	841.9	765.0	708.6	692.5	674.4	689.7	684.0	668.3	632.4	579.7	523.5	465.9	425.7	386.1	351.0	320.7	293.6	271.7	286.7	321.0	210.5	132.5	97.18	76.70	81.57	126.1	329.6	1585	1970	232.5	4.988	1.713	1.381	0.952	1.146	1.019	0.951	0.956	1.154	1.136	1.297	1.570	1.812	2.195	2.250	2.083	2.461	2.963	3.149	2.953	3.011	3.098	3.205	3.091	3.113	3.229	3.136	3.006	3.030	3.250	3.066	3.140	3.231	3.031	3.043	3.147	3.112	3.210	3.101	2.982	2.869	3.065	2.944
385.0	555.6	654.3	758.6	823.8	812.7	772.5	711.3	686.5	670.4	675.7	676.1	653.0	619.4	571.1	520.7	464.8	424.8	386.7	356.4	327.6	301.3	276.7	258.0	294.6	276.1	162.9	108.2	83.18	66.26	61.56	96.77	452.7	1737	1596	37.82	2.568	1.545	1.023	1.091	0.979	1.063	1.022	1.042	1.037	1.312	1.707	1.619	1.962	2.132	1.983	2.242	2.900	3.172	2.876	2.979	3.137	3.129	3.057	2.917	3.144	3.106	3.053	3.272	3.072	3.102	3.194	3.006	3.048	3.129	3.145	3.144	3.073	3.165	2.861	2.956	3.098	2.696
390.0	533.5	634.7	739.2	770.6	794.2	757.5	704.9	676.2	664.7	666.8	653.5	633.7	604.4	561.2	511.5	453.1	418.0	386.6	357.5	331.5	305.5	280.6	257.6	251.8	271.2	236.9	145.1	97.49	74.24	57.82	53.81	123.1	485.7	1258	1354	157.1	10.90	1.672	1.314	1.202	0.949	1.033	1.069	1.146	1.242	1.510	1.545	1.851	1.975	2.047	2.309	2.787	2.901	2.853	2.926	2.921	3.132	3.129	3.045	3.096	3.120	3.032	3.157	3.040	3.104	3.023	3.050	3.041	3.067	3.052	2.941	3.033	2.845	2.925	2.862	2.937	2.911
395.0	510.2	599.2	697.3	740.9	759.8	733.9	700.3	673.8	656.7	648.3	635.9	622.1	584.7	540.1	485.6	441.4	407.0	380.5	355.1	331.4	304.8	287.3	264.4	243.1	232.6	247.2	216.2	126.4	90.39	68.75	53.38	56.55	128.2	302.6	811.9	1547	252.4	10.59	1.814	1.339	1.131	1.137	1.055	1.191	1.214	1.476	1.550	1.751	1.895	1.977	2.026	2.709	2.790	2.934	2.810	2.990	3.243	2.983	3.132	3.069	3.054	2.886	3.149	3.300	2.977	2.824	2.958	3.021	2.805	2.938	2.807	2.784	2.749	2.845	2.619	2.729	2.739
400.0	491.7	582.2	663.2	706.9	727.1	722.0	692.1	651.6	632.4	634.7	627.2	602.1	569.4	525.9	478.9	431.6	397.7	366.0	350.8	326.3	303.3	283.1	263.9	243.0	223.0	218.4	238.7	171.3	105.3	79.59	60.79	47.19	53.63	84.83	215.9	1045	1403	193.3	4.581	1.593	1.248	1.203	1.098	1.143	1.113	1.361	1.546	1.810	1.773	1.905	1.975	2.391	2.484	2.781	2.891	3.072	2.878	2.849	2.981	2.677	2.929	3.059	3.169	3.140	3.028	2.742	2.746	2.830	2.829	2.800	2.711	2.970	2.700	2.868	2.867	2.901	2.752
405.0	451.1	584.2	643.7	696.8	696.2	698.2	661.2	653.4	624.6	618.2	605.0	584.7	553.0	513.3	471.5	425.5	386.3	360.0	338.7	319.7	297.2	281.2	262.8	242.4	219.0	201.3	214.9	213.9	133.3	91.04	70.10	51.44	41.82	39.18	62.76	295.8	1192	1146	33.49	2.457	1.550	1.151	0.941	1.271	1.217	1.300	1.539	1.615	1.950	1.858	1.793	2.291	2.627	2.748	2.585	3.001	2.927	2.713	3.101	2.854	2.947	3.055	3.098	2.897	2.901	2.826	2.699	2.804	2.939	2.803	3.096	2.610	2.791	2.852	2.623	2.705	2.580
410.0	460.4	550.1	605.9	659.0	658.0	667.1	647.5	636.8	609.2	596.4	585.2	563.7	530.5	493.2	446.6	402.1	373.8	349.3	326.5	306.0	289.3	273.5	257.5	240.5	217.9	198.9	185.8	200.8	186.3	122.2	82.94	61.41	45.93	36.21	33.55	80.08	331.2	889.5	990.0	144.6	9.216	1.482	1.322	1.224	1.238	1.298	1.406	1.605	1.828	1.738	1.741	2.141	2.344	2.526	2.668	2.622	2.983	2.841	2.799	2.858	3.075	2.686	2.859	2.758	2.887	2.752	2.532	2.740	2.802	2.663	2.669	2.638	2.676	2.522	2.622	2.554	2.511
415.0	442.8	510.7	566.2	618.0	624.7	635.7	631.6	623.8	605.6	581.4	556.7	537.5	504.6	470.8	419.5	380.2	349.1	327.8	307.3	288.3	277.3	262.1	250.4	235.1	218.5	198.4	178.9	169.6	184.7	172.4	105.8	72.04	54.61	41.39	31.80	35.02	86.73	213.2	570.5	1120	220.3	8.553	1.411	1.320	1.184	1.320	1.295	1.511	1.667	1.520	1.651	2.165	2.347	2.372	2.603	2.620	2.805	2.710	2.807	2.660	2.817	2.792	2.591	2.598	2.607	2.769	2.625	2.564	2.526	2.585	2.484	2.417	2.682	2.460	2.643	2.253	2.326
420.0	417.3	482.7	545.5	580.8	593.4	610.0	617.7	606.4	586.1	569.0	541.2	520.1	483.5	443.9	402.1	361.2	334.9	311.4	294.6	277.2	265.2	252.2	243.3	227.6	213.7	194.8	178.4	162.2	163.9	183.2	136.6	82.14	60.02	45.44	34.30	27.32	33.50	58.06	151.0	750.8	1022	164.8	3.651	1.392	1.408	1.342	1.261	1.568	1.613	1.654	1.673	2.148	2.237	2.385	2.397	2.451	2.720	2.571	2.693	2.589	2.765	2.548	2.594	2.643	2.821	2.634	2.307	2.630	2.661	2.593	2.480	2.367	2.529	2.282	2.382	2.246	2.277
425.0	419.1	455.2	531.1	557.3	579.0	579.0	602.9	589.5	580.5	548.2	527.7	498.6	462.4	426.5	390.0	348.5	319.6	296.2	280.4	267.8	251.6	242.6	233.6	221.9	207.5	191.8	176.2	163.7	150.8	164.0	162.4	102.1	66.29	49.43	37.36	28.02	23.72	24.94	42.68	209.8	853.7	848.7	30.74	2.238	1.528	1.430	1.261	1.590	1.398	1.518	1.615	2.036	2.211	2.199	2.138	2.147	2.396	2.579	2.607	2.497	2.602	2.334	2.677	2.509	2.642	2.555	2.398	2.340	2.536	2.411	2.402	2.208	2.459	2.236	2.267	2.167	2.323
430.0	486.2	435.7	491.5	511.8	540.9	562.1	577.6	570.0	558.1	529.3	509.1	478.5	443.5	405.7	367.5	327.7	300.0	278.8	265.1	249.6	239.2	229.5	223.4	211.7	201.4	187.6	174.7	162.3	149.4	142.9	149.1	133.4	85.42	56.04	43.32	32.85	25.04	20.28	19.87	54.67	235.5	653.5	747.2	130.3	8.317	1.685	1.289	1.452	1.364	1.380	1.545	1.911	2.011	2.109	2.234	2.193	2.456	2.576	2.479	2.423	2.706	2.501	2.680	2.355	2.486	2.412	2.343	2.302	2.361	2.367	2.348	2.107	2.276	2.173	2.061	1.995	2.161
435.0	811.2	428.6	459.9	502.3	518.5	550.2	561.6	553.5	543.6	517.1	491.3	456.1	428.0	390.0	346.1	308.0	279.4	262.7	247.5	235.5	225.3	215.7	210.8	204.3	193.7	183.0	173.2	160.6	148.7	137.1	128.7	131.5	114.8	70.68	48.64	37.12	28.84	22.40	17.53	21.06	59.19	155.2	446.4	910.2	199.2	7.158	1.748	1.596	1.555	1.423	1.460	1.979	1.982	1.947	2.228	2.219	2.610	2.413	2.705	2.483	2.568	2.514	2.571	2.401	2.344	2.294	2.154	2.235	2.115	2.093	2.299	2.068	2.172	2.128	2.010	2.053	1.965
440.0	1111	520.0	436.6	480.0	501.9	520.1	551.6	537.7	533.1	508.3	478.2	439.4	414.8	378.3	335.2	293.7	266.6	249.7	234.2	222.0	212.9	207.1	200.2	194.4	188.2	179.4	169.3	159.9	148.4	137.4	123.1	117.1	121.9	91.03	55.12	40.87	31.99	24.30	18.60	14.97	21.21	40.60	119.0	640.3	873.7	32.06	3.154	1.643	1.602	1.398	1.460	1.866	1.870	1.847	1.948	2.113	2.230	2.250	2.335	2.347	2.361	2.553	2.462	2.354	2.364	2.392	2.033	2.067	2.198	2.157	2.136	2.204	1.888	2.010	1.877	1.842	1.780
445.0	1233	727.4	438.8	467.8	487.2	508.3	530.2	521.6	522.7	489.9	469.5	431.8	395.2	363.4	318.3	281.4	252.9	239.5	221.5	211.6	203.5	197.7	189.1	185.5	181.0	173.3	168.1	159.7	147.7	137.1	121.4	107.6	107.8	107.5	67.09	44.81	34.74	26.31	20.53	15.52	13.61	15.73	32.07	183.2	766.4	717.2	25.30	2.428	1.933	1.410	1.377	1.766	1.794	1.953	1.824	1.995	2.080	2.231	2.455	2.297	2.408	2.568	2.411	2.378	2.265	2.185	2.198	2.023	2.091	2.133	2.110	2.034	1.877	1.858	1.711	1.680	1.846
450.0	876.4	1296	525.0	419.1	448.8	478.8	498.2	504.1	496.5	467.5	445.1	415.8	378.3	337.9	296.8	259.5	235.6	220.2	205.5	197.5	189.0	182.1	177.5	174.6	168.8	164.0	158.2	149.8	144.0	134.1	118.9	103.1	93.42	96.67	84.59	54.65	38.00	30.01	23.25	17.99	14.04	11.83	13.57	45.91	214.6	586.6	673.5	116.5	6.938	1.457	1.460	1.749	1.719	1.864	1.789	1.886	2.171	2.238	2.287	2.264	2.253	2.422	2.295	2.230	2.154	2.119	2.099	1.964	1.981	2.022	1.889	1.886	1.744	1.738	1.647	1.742	1.557
455.0	436.6	1404	1006	410.6	409.5	441.2	462.7	470.1	463.7	438.7	413.6	384.1	347.2	312.0	271.9	241.3	214.8	202.5	189.9	179.1	170.7	165.8	161.0	160.0	153.9	150.1	147.2	140.9	135.4	127.7	115.1	100.5	88.24	79.14	81.50	73.63	47.04	32.25	25.59	20.28	15.80	12.37	10.46	16.41	52.78	138.7	379.5	765.0	162.5	6.272	1.625	1.618	1.529	1.908	1.806	1.664	2.212	2.136	2.199	2.203	2.175	2.345	2.004	2.162	2.040	1.982	2.004	1.842	1.851	1.698	1.694	1.719	1.677	1.575	1.507	1.576	1.567
460.0	303.6	1008	1575	462.0	368.3	412.2	440.8	438.7	436.0	415.6	393.2	362.2	322.5	284.6	253.1	220.2	198.9	182.5	176.5	163.7	157.8	154.1	149.5	150.0	144.3	140.3	137.5	133.3	130.1	120.6	110.9	98.65	84.31	72.20	69.72	76.07	58.46	35.05	26.84	21.61	17.46	13.42	10.75	10.07	16.61	34.79	98.31	504.8	691.7	116.3	3.423	1.595	1.670	1.679	1.743	1.688	1.980	2.015	1.910	2.032	2.295	2.135	1.758	1.960	1.843	1.779	1.692	1.802	1.838	1.669	1.595	1.576	1.484	1.681	1.555	1.494	1.373
465.0	263.6	553.8	1774	741.8	366.5	380.2	410.9	416.6	410.4	395.4	370.1	339.3	302.4	272.5	237.1	204.8	182.7	169.7	160.6	152.5	144.6	143.0	137.6	137.5	132.8	131.0	127.0	125.7	121.5	114.6	108.8	93.97	81.84	70.23	62.37	66.06	65.08	41.63	28.62	22.92	18.75	14.56	11.62	9.405	9.280	12.16	25.66	141.5	596.8	565.5	21.66	2.324	1.686	1.489	1.566	1.667	1.806	1.825	1.818	1.788	2.081	1.819	1.805	1.945	1.716	1.876	1.682	1.629	1.483	1.625	1.730	1.558	1.504	1.376	1.352	1.288	1.335
470.0	261.7	335.1	1153	1515	442.2	345.1	367.1	382.3	374.0	359.5	334.7	308.8	277.7	246.0	212.6	183.1	165.1	153.6	142.0	135.4	128.2	126.0	123.4	122.1	119.6	118.7	115.4	113.9	111.5	105.7	99.67	88.53	77.54	66.37	57.87	54.13	57.21	51.42	34.67	23.76	19.24	15.21	13.13	10.26	8.353	7.741	9.935	35.01	164.1	425.2	474.3	109.7	7.112	1.657	1.530	1.462	1.669	1.696	1.772	1.826	1.811	1.820	1.751	1.691	1.551	1.734	1.536	1.461	1.461	1.357	1.568	1.416	1.316	1.354	1.231	1.172	1.232
475.0	269.3	251.3	501.8	1613	987.3	314.0	327.1	340.8	339.5	323.6	304.3	280.8	253.9	218.1	189.1	162.3	146.1	135.5	127.3	120.4	114.1	110.7	108.5	107.6	107.3	104.1	104.9	100.6	100.5	96.44	91.56	82.06	72.21	62.46	53.80	47.74	44.78	48.36	43.54	27.28	20.22	16.34	13.22	10.78	9.180	7.196	6.790	11.39	39.55	99.00	237.0	518.2	154.5	6.836	1.607	1.423	1.634	1.393	1.685	1.634	1.636	1.468	1.584	1.587	1.419	1.481	1.386	1.336	1.339	1.279	1.236	1.335	1.176	1.144	1.001	1.004	1.097
480.0	279.3	249.2	303.4	1102	1594	366.0	302.9	320.5	313.0	292.6	284.1	260.3	230.0	200.7	175.9	150.0	135.0	124.3	117.4	110.8	103.7	100.6	97.74	98.63	96.57	96.45	95.57	93.61	93.33	89.26	84.85	75.16	66.89	59.84	51.48	44.96	40.19	40.41	43.93	34.08	21.40	16.38	13.22	11.28	9.463	8.001	6.385	6.335	12.15	24.78	59.84	301.5	509.8	126.4	3.473	1.336	1.492	1.336	1.584	1.439	1.416	1.323	1.559	1.517	1.289	1.372	1.274	1.192	1.183	1.241	1.329	1.120	1.190	1.159	0.971	1.038	1.079
485.0	242.1	254.6	239.4	569.9	1818	545.9	289.5	294.0	286.4	278.3	263.1	245.4	212.7	189.7	163.0	138.5	125.1	115.7	107.1	102.1	96.67	93.66	91.74	90.96	90.35	90.35	87.86	89.29	87.26	83.17	80.25	71.67	64.91	55.95	48.64	43.42	37.94	35.18	38.69	38.08	25.01	17.14	13.70	11.40	9.693	8.322	6.612	5.498	5.933	8.371	15.77	81.43	392.6	463.9	25.55	2.037	1.589	1.502	1.442	1.495	1.509	1.441	1.462	1.453	1.281	1.231	1.278	1.164	1.192	1.236	1.104	1.057	1.119	1.028	0.973	0.999	0.892
490.0	193.4	272.6	225.1	294.9	1177	1424	354.4	272.2	265.9	259.7	242.5	220.0	195.4	170.8	147.3	126.3	112.8	104.2	97.55	91.85	86.65	84.51	82.83	83.06	81.01	80.30	79.27	80.45	79.38	77.33	74.06	66.17	59.83	52.53	46.40	42.14	36.03	32.16	31.30	33.98	30.92	21.19	14.47	11.62	9.626	8.405	6.956	5.722	4.609	4.783	5.928	20.45	104.1	296.9	324.0	113.9	8.505	1.552	1.417	1.394	1.433	1.387	1.188	1.291	1.307	1.169	1.082	1.067	0.997	1.123	0.954	0.949	0.944	0.836	0.861	0.845	0.886
495.0	141.2	236.6	250.6	212.1	483.9	1633	864.0	246.9	242.1	229.5	218.7	193.7	177.2	156.6	133.7	112.3	101.0	89.78	87.69	81.44	77.48	74.08	73.27	72.58	70.92	71.74	71.66	71.20	70.76	70.49	65.67	60.90	54.76	47.85	42.97	39.20	33.81	30.35	26.84	26.52	29.01	26.75	16.69	12.45	9.744	8.608	7.270	6.324	5.070	4.217	3.943	6.989	25.32	69.11	179.3	478.0	183.4	9.385	1.440	1.238	1.295	1.326	1.122	1.088	1.004	0.919	0.947	1.113	0.897	1.057	0.965	0.914	0.835	0.860	0.826	0.700	0.820
500.0	123.0	208.1	259.8	190.7	252.3	1145	1538	279.5	221.5	211.4	200.1	179.6	161.8	142.2	118.9	102.7	90.92	83.21	78.76	76.20	71.64	68.64	66.00	65.92	66.25	64.76	65.48	65.67	63.53	64.55	60.55	56.10	49.97	44.96	39.39	35.76	32.14	28.23	25.96	23.37	24.41	26.92	20.48	13.01	10.14	8.558	7.448	6.180	5.599	4.551	3.533	3.945	7.677	17.42	45.04	255.9	497.9	143.3	4.407	1.267	1.164	1.210	1.128	1.063	1.078	0.954	0.966	0.914	0.837	0.926	0.798	0.876	0.680	0.844	0.732	0.779	0.714
505.0	115.2	158.1	264.6	202.3	180.8	577.4	1865	551.1	202.6	197.6	183.9	167.1	148.7	125.8	107.7	93.72	82.27	77.87	72.23	67.13	63.54	62.76	59.21	59.88	59.38	60.07	58.81	58.09	58.00	58.31	55.09	52.76	46.64	41.05	37.17	32.84	29.95	26.59	24.02	21.55	20.40	23.43	23.57	15.23	10.40	8.445	7.406	6.226	5.815	4.755	3.898	3.409	3.532	5.918	11.89	66.35	328.0	448.8	29.46	2.301	1.233	1.231	0.988	0.899	0.969	0.942	0.919	0.815	0.794	0.795	0.756	0.833	0.602	0.806	0.695	0.691	0.694
510.0	97.70	125.7	199.1	220.1	159.1	257.9	1253	1365	242.9	172.3	161.5	150.3	131.6	113.1	98.44	84.27	73.24	67.36	62.51	57.87	55.23	54.33	52.88	52.17	51.53	52.26	51.46	51.61	51.34	50.96	48.49	46.29	41.02	37.39	32.98	29.88	27.18	24.45	21.81	19.76	17.57	18.15	20.50	18.46	12.03	8.513	7.149	5.939	5.307	4.506	4.122	3.455	2.901	3.206	4.294	16.43	84.26	254.8	282.6	118.9	8.952	1.240	1.043	0.912	0.940	0.899	0.812	0.727	0.730	0.734	0.666	0.617	0.549	0.613	0.630	0.644	0.602
515.0	84.41	101.4	136.4	230.6	159.5	156.3	472.2	1756	699.2	157.7	140.6	131.6	112.8	99.64	83.65	73.51	64.55	58.52	54.02	50.47	48.29	46.50	45.77	44.57	44.11	45.26	43.83	44.76	43.70	44.27	42.22	39.76	36.26	32.00	29.67	26.67	24.38	21.97	19.78	17.79	15.76	14.76	15.25	17.95	15.60	9.804	6.630	6.076	5.031	4.266	4.024	3.781	2.909	2.757	2.681	5.307	20.17	58.45	125.4	364.0	179.2	9.734	1.134	0.852	0.910	0.853	0.793	0.657	0.536	0.686	0.537	0.519	0.505	0.615	0.594	0.531	0.582
520.0	79.60	93.42	106.8	206.5	188.6	130.0	207.9	1238	1425	187.0	127.4	116.3	102.2	90.19	74.64	64.20	56.66	51.15	47.51	45.15	43.70	41.35	41.54	39.99	40.29	39.22	38.59	38.70	39.23	39.80	37.80	34.46	32.36	28.75	26.65	24.64	21.89	20.27	18.34	16.36	14.42	13.31	12.09	14.01	16.24	11.66	7.374	5.745	4.793	4.107	3.773	3.620	3.057	2.714	2.396	2.893	5.845	14.36	30.90	174.6	373.3	133.6	4.611	1.000	0.826	0.701	0.729	0.638	0.572	0.607	0.470	0.555	0.479	0.584	0.514	0.489	0.459
525.0	78.38	75.27	85.87	153.5	205.3	119.7	138.7	580.1	1929	281.6	117.7	104.4	92.51	78.42	65.96	59.62	51.41	46.08	44.13	40.88	37.54	37.68	37.15	36.27	35.78	34.53	33.97	35.99	34.52	34.76	34.78	31.41	29.29	25.95	24.26	22.36	19.65	18.07	16.62	15.06	13.67	11.78	10.97	11.05	14.02	13.87	8.470	5.462	4.767	3.842	3.486	3.444	3.404	2.841	2.164	2.156	2.768	4.513	8.399	43.77	212.2	336.0	30.48	2.115	0.808	0.734	0.673	0.578	0.496	0.488	0.468	0.516	0.474	0.426	0.415	0.372	0.447
530.0	65.29	68.53	79.12	101.8	186.6	143.1	110.8	223.1	1317	1285	159.3	92.97	80.48	68.87	60.33	50.39	43.66	40.24	37.40	35.80	32.97	32.04	31.21	30.95	30.26	30.04	29.71	30.73	29.90	29.73	29.27	27.41	24.98	22.77	20.91	19.31	17.48	16.23	14.81	13.36	12.05	10.81	9.523	9.112	9.809	11.77	10.48	6.585	4.642	3.799	3.337	2.974	2.949	3.118	2.287	2.041	2.080	2.354	3.062	10.96	52.71	166.4	224.2	114.5	9.663	0.718	0.599	0.554	0.539	0.464	0.514	0.423	0.423	0.412	0.370	0.381	0.342
535.0	55.80	61.27	67.76	72.80	128.8	172.7	97.61	118.1	440.9	1788	599.9	82.51	70.02	58.53	51.79	43.52	37.65	34.72	31.42	28.93	28.33	26.35	26.53	25.96	25.44	25.20	25.72	25.29	25.90	25.60	24.77	23.49	20.89	19.70	17.96	17.07	16.01	14.11	12.85	11.19	10.51	9.895	8.338	8.042	7.581	8.233	10.02	8.330	5.205	3.702	3.158	2.818	2.546	2.629	2.526	2.242	1.968	1.790	1.853	3.529	12.81	38.32	80.39	248.5	160.3	10.55	0.638	0.587	0.593	0.421	0.467	0.393	0.353	0.358	0.395	0.383	0.385
540.0	43.31	57.33	60.79	67.62	88.92	177.9	101.3	86.36	166.0	1212	1339	107.5	60.30	51.73	44.33	38.34	33.11	31.12	27.97	25.18	24.66	23.74	23.21	23.38	21.93	22.19	22.46	21.36	22.74	22.30	21.98	20.42	19.35	17.04	15.82	15.25	13.90	12.38	11.46	10.63	9.701	9.079	7.425	7.526	6.793	6.239	7.796	8.709	6.098	3.685	2.804	2.650	2.268	2.154	2.478	2.527	1.908	1.575	1.550	1.723	3.828	9.582	19.42	103.6	262.5	113.9	4.430	0.572	0.580	0.430	0.446	0.310	0.258	0.274	0.372	0.331	0.273
545.0	47.51	52.05	54.26	55.30	67.71	149.6	124.7	73.71	93.81	496.9	1832	203.6	53.52	47.22	38.79	33.02	29.39	26.32	25.24	22.31	21.30	21.52	20.77	19.70	19.31	18.87	19.89	19.16	19.66	19.68	18.78	17.74	16.74	15.39	14.00	13.10	12.09	10.96	10.02	9.371	8.548	7.963	6.500	6.291	5.918	5.336	5.564	7.450	7.381	4.169	2.666	2.481	2.204	2.111	2.055	2.448	2.180	1.660	1.290	1.391	1.843	3.115	5.346	25.26	126.2	241.3	31.21	1.902	0.532	0.444	0.449	0.323	0.309	0.293	0.354	0.292	0.240
550.0	45.29	49.70	44.87	47.39	51.51	91.91	143.6	78.65	66.28	168.1	1154	1087	86.66	39.74	32.22	26.64	24.80	22.81	20.71	18.73	18.01	17.63	16.93	16.26	16.41	16.11	16.22	16.32	16.42	15.92	15.78	14.92	13.70	12.69	11.62	10.85	10.27	9.314	8.545	7.866	7.312	6.492	5.841	5.424	4.748	4.567	4.424	5.044	6.244	5.382	3.177	2.302	1.930	1.761	1.735	1.830	2.037	2.043	1.362	1.170	1.254	1.545	2.075	6.476	30.37	102.7	157.7	91.04	10.03	0.535	0.409	0.337	0.340	0.269	0.277	0.247	0.239
555.0	42.93	50.57	40.22	41.86	42.60	50.38	121.3	102.8	57.85	77.87	347.8	1514	396.2	34.49	26.36	22.39	19.67	18.26	16.79	14.69	14.91	14.31	13.87	12.98	13.66	13.04	13.16	12.86	13.08	12.68	12.66	11.97	11.28	9.781	9.537	8.483	8.409	7.520	7.072	6.496	6.162	5.294	4.818	4.589	4.283	3.712	3.512	3.512	4.067	4.999	3.753	2.420	1.614	1.436	1.462	1.275	1.478	1.797	1.637	1.254	1.065	1.129	1.125	2.178	7.560	23.51	48.69	147.8	118.2	10.58	0.454	0.384	0.342	0.240	0.265	0.207	0.181
560.0	45.96	48.97	42.79	34.86	36.01	39.54	87.85	127.4	54.54	58.00	117.1	989.2	1005	50.66	21.75	19.69	16.99	15.60	15.21	12.73	12.02	11.81	11.16	11.37	11.43	11.05	10.89	10.64	11.10	10.85	10.44	9.676	9.380	8.235	7.705	7.471	6.904	6.339	5.851	5.586	5.175	4.590	4.285	3.993	3.546	3.141	2.941	2.671	2.772	3.891	4.221	2.932	1.724	1.388	1.313	1.257	1.291	1.322	1.612	1.543	1.119	1.106	0.896	1.161	2.259	5.916	11.70	53.65	161.0	84.24	4.585	0.436	0.322	0.218	0.202	0.161	0.194
565.0	47.34	53.90	43.10	33.45	30.25	35.57	58.16	127.9	64.24	48.24	60.94	380.1	1414	130.8	19.44	16.97	14.11	13.76	11.84	11.09	10.35	10.70	9.985	9.613	9.377	9.397	9.049	9.076	9.109	9.202	8.924	8.088	7.879	7.342	6.645	6.263	5.832	5.290	4.996	4.499	4.364	4.029	3.518	3.420	2.907	2.939	2.567	2.433	2.219	2.790	3.624	3.107	1.861	1.369	1.259	1.218	1.135	1.035	1.347	1.696	1.196	0.870	0.860	0.910	1.076	1.935	3.241	13.02	67.78	148.6	31.68	1.846	0.304	0.258	0.165	0.177	0.177
570.0	44.58	55.10	44.77	31.98	25.71	31.36	37.65	96.22	96.24	46.31	47.66	120.8	885.9	771.2	43.60	14.01	11.46	11.20	9.437	8.688	8.647	8.374	8.098	7.805	7.225	7.265	7.085	7.375	7.211	7.505	6.847	6.655	6.000	5.855	5.411	5.196	4.725	4.379	4.104	3.684	3.370	3.242	2.983	2.820	2.478	2.580	2.134	1.956	1.656	1.837	2.269	2.777	2.301	1.441	1.137	0.986	0.992	0.933	1.023	1.349	1.362	1.054	0.824	0.816	0.744	1.049	1.256	3.490	16.13	55.96	93.68	61.93	8.648	0.393	0.180	0.171	0.142
575.0	50.17	57.12	44.92	32.09	25.22	25.07	27.65	50.11	119.6	58.98	42.25	53.98	257.0	1070	264.5	11.80	9.906	8.641	7.492	7.227	7.168	6.657	6.668	6.254	5.959	5.854	6.026	5.591	5.473	5.704	5.299	5.059	4.678	4.703	4.309	4.189	3.894	3.690	3.359	3.034	2.579	2.620	2.335	2.300	2.044	2.059	1.606	1.647	1.423	1.446	1.386	1.835	2.383	1.886	1.104	0.810	0.805	0.819	0.951	0.987	1.096	1.253	0.926	0.720	0.712	0.705	0.847	1.351	4.093	12.96	26.13	80.24	77.99	8.519	0.283	0.175	0.126
580.0	57.54	56.30	49.26	32.12	23.98	23.37	25.23	34.37	106.5	82.09	42.62	40.05	82.52	700.0	682.9	22.42	8.959	6.779	6.618	6.368	5.782	5.755	5.173	4.800	4.629	4.894	5.313	5.093	4.771	4.752	4.882	4.555	3.750	3.875	3.600	3.467	3.327	3.132	2.950	2.640	2.242	2.207	2.087	2.007	1.682	1.655	1.600	1.448	1.370	1.217	1.005	1.160	1.856	2.026	1.236	0.813	0.810	0.698	0.780	0.770	0.757	1.265	1.153	0.789	0.687	0.590	0.733	0.824	1.330	3.291	6.400	27.20	91.86	34.89	3.827	0.204	0.138
585.0	56.24	54.17	47.93	29.72	21.33	22.47	23.93	28.32	74.76	103.1	44.43	39.82	41.98	264.9	950.4	81.77	7.596	5.937	5.981	5.482	4.989	4.696	4.443	4.357	4.275	4.029	4.255	4.267	4.065	4.173	4.100	3.830	3.636	3.212	2.944	2.914	2.863	2.512	2.401	2.305	1.907	1.880	1.823	1.664	1.576	1.431	1.351	1.260	1.117	0.979	0.937	0.818	1.339	1.805	1.408	0.930	0.607	0.734	0.602	0.694	0.593	0.818	1.216	0.898	0.579	0.587	0.660	0.563	0.722	1.070	1.866	6.583	36.27	84.31	29.16	1.299	0.135
590.0	54.41	54.87	44.61	31.21	19.97	20.39	21.62	24.91	44.33	103.1	63.56	38.42	32.61	78.23	591.0	455.3	18.12	5.140	4.630	4.357	4.162	4.110	3.901	3.548	3.633	3.343	3.416	3.384	3.289	3.426	3.331	3.016	2.765	2.737	2.701	2.436	2.319	2.165	1.846	1.886	1.521	1.683	1.479	1.417	1.274	1.173	1.156	1.130	0.927	0.837	0.789	0.733	0.813	1.129	1.477	1.138	0.730	0.629	0.490	0.554	0.491	0.633	0.790	1.102	0.759	0.536	0.507	0.558	0.547	0.526	0.711	1.747	8.521	31.10	58.08	40.60	5.811
595.0	51.25	58.94	36.70	28.88	20.26	18.51	19.24	22.80	30.40	70.89	89.07	40.13	28.58	31.99	167.9	665.4	86.98	5.087	3.575	3.819	3.322	3.239	3.061	2.901	2.865	2.737	2.596	2.572	2.587	2.483	2.649	2.408	2.244	2.014	2.132	2.059	1.778	1.672	1.637	1.562	1.340	1.513	1.182	1.074	1.155	0.902	0.976	0.865	0.783	0.777	0.629	0.628	0.603	0.673	1.130	1.199	1.098	0.683	0.428	0.446	0.406	0.505	0.508	0.631	0.971	0.762	0.505	0.495	0.412	0.395	0.398	0.611	2.057	7.167	15.51	49.24	36.01
600.0	55.57	48.82	38.66	29.41	18.48	16.33	18.98	22.87	27.07	48.86	98.27	45.74	28.44	21.17	48.41	450.6	351.1	8.628	3.276	3.525	2.852	2.764	2.716	2.344	2.484	2.392	2.240	2.192	2.246	2.278	2.195	1.958	1.866	1.908	1.755	1.716	1.573	1.292	1.409	1.331	1.185	1.242	1.063	1.007	0.985	0.952	0.874	0.758	0.615	0.615	0.591	0.635	0.499	0.532	0.776	0.992	1.118	0.766	0.393	0.426	0.390	0.385	0.430	0.615	0.761	0.827	0.651	0.559	0.404	0.387	0.281	0.394	0.597	1.807	3.708	16.27	52.24
605.0	49.41	44.52	37.25	27.87	17.95	15.92	18.92	23.01	26.55	38.47	87.94	60.35	28.87	20.07	21.28	177.4	538.1	42.09	3.095	2.824	2.445	2.282	2.093	2.188	2.131	1.964	2.112	1.788	1.803	1.988	1.766	1.822	1.590	1.574	1.337	1.393	1.300	1.206	1.145	1.161	1.023	0.974	0.861	0.867	0.825	0.755	0.757	0.626	0.603	0.553	0.522	0.506	0.452	0.443	0.481	0.744	0.950	0.805	0.539	0.367	0.338	0.339	0.398	0.455	0.516	0.715	0.802	0.581	0.406	0.345	0.270	0.362	0.318	0.560	0.987	3.928	20.52
610.0	40.28	42.68	37.11	25.17	18.62	16.26	19.18	22.60	26.16	34.24	62.17	78.62	34.99	20.35	15.70	50.10	370.2	257.7	8.147	2.388	1.923	1.894	1.881	1.823	1.661	1.627	1.690	1.622	1.512	1.545	1.406	1.461	1.376	1.321	1.139	1.161	1.044	1.103	0.827	0.892	0.801	0.799	0.703	0.754	0.636	0.647	0.615	0.531	0.537	0.465	0.456	0.406	0.352	0.399	0.404	0.498	0.773	0.814	0.587	0.379	0.330	0.334	0.358	0.374	0.374	0.511	0.659	0.644	0.459	0.324	0.262	0.289	0.265	0.301	0.355	1.031	4.816
615.0	41.33	38.98	33.52	22.75	17.97	15.77	19.03	21.39	23.80	28.56	42.34	78.09	46.20	20.64	13.97	18.68	110.2	411.4	57.55	2.326	1.660	1.515	1.301	1.367	1.163	1.259	1.357	1.231	1.300	1.168	0.970	1.155	1.074	0.897	1.066	0.869	0.852	0.905	0.703	0.770	0.814	0.608	0.650	0.550	0.553	0.698	0.545	0.441	0.419	0.434	0.310	0.306	0.288	0.320	0.310	0.357	0.468	0.554	0.628	0.494	0.298	0.277	0.326	0.324	0.338	0.450	0.428	0.550	0.627	0.368	0.272	0.376	0.253	0.198	0.193	0.369	1.203
620.0	35.48	40.70	33.48	20.70	19.30	16.45	17.95	18.74	21.76	29.09	33.34	62.41	60.17	21.95	14.33	11.73	31.76	303.7	207.7	4.381	1.716	1.250	1.202	1.305	1.040	1.202	1.145	1.021	1.086	0.971	0.973	0.932	0.852	0.802	0.849	0.736	0.757	0.736	0.782	0.653	0.587	0.510	0.613	0.468	0.492	0.564	0.484	0.393	0.393	0.357	0.308	0.273	0.309	0.234	0.236	0.460	0.300	0.465	0.571	0.540	0.359	0.265	0.370	0.350	0.219	0.332	0.323	0.369	0.659	0.424	0.256	0.284	0.226	0.197	0.154	0.251	0.438
625.0	35.35	34.97	27.25	21.08	17.35	13.20	17.39	17.81	22.49	26.84	32.13	45.11	66.10	26.54	14.91	9.640	12.97	125.9	346.6	20.80	1.687	1.286	1.315	1.069	0.904	0.994	0.977	0.861	0.880	1.038	0.897	0.871	0.814	0.626	0.652	0.662	0.665	0.568	0.607	0.580	0.468	0.485	0.469	0.472	0.417	0.437	0.371	0.331	0.314	0.308	0.298	0.313	0.259	0.211	0.271	0.309	0.249	0.382	0.471	0.431	0.370	0.257	0.277	0.332	0.244	0.257	0.352	0.335	0.457	0.589	0.351	0.291	0.185	0.166	0.200	0.227	0.233
630.0	31.87	31.60	27.22	20.45	16.41	13.55	16.53	18.04	22.76	25.27	29.91	35.14	56.60	36.95	14.89	9.922	8.327	35.03	261.0	142.4	3.873	1.181	1.082	0.979	0.860	0.801	0.749	0.737	0.861	0.745	0.670	0.718	0.613	0.566	0.607	0.562	0.542	0.447	0.404	0.435	0.409	0.418	0.378	0.351	0.323	0.333	0.302	0.308	0.277	0.260	0.234	0.246	0.246	0.195	0.240	0.196	0.220	0.227	0.345	0.463	0.442	0.334	0.266	0.277	0.209	0.206	0.310	0.243	0.358	0.419	0.469	0.363	0.177	0.191	0.138	0.199	0.176
635.0	31.24	33.73	25.15	16.87	15.13	13.82	16.58	16.90	19.83	24.19	26.56	30.02	38.74	46.12	18.36	9.438	7.340	11.51	81.02	283.6	34.56	1.105	0.785	0.823	0.615	0.691	0.521	0.697	0.592	0.503	0.526	0.619	0.540	0.467	0.415	0.417	0.381	0.404	0.430	0.413	0.304	0.382	0.315	0.291	0.289	0.258	0.290	0.244	0.282	0.222	0.153	0.243	0.249	0.218	0.186	0.190	0.182	0.201	0.239	0.310	0.409	0.351	0.309	0.227	0.203	0.207	0.265	0.256	0.274	0.338	0.308	0.557	0.263	0.153	0.176	0.156	0.115
640.0	30.05	33.12	22.43	16.82	13.71	15.94	14.56	18.43	19.36	22.84	26.10	28.72	30.11	46.14	22.56	10.16	7.073	6.177	21.96	227.7	125.9	1.810	0.879	0.796	0.559	0.549	0.505	0.484	0.492	0.589	0.479	0.400	0.504	0.441	0.396	0.328	0.407	0.262	0.296	0.429	0.292	0.366	0.270	0.341	0.228	0.244	0.234	0.217	0.246	0.170	0.178	0.209	0.215	0.272	0.176	0.151	0.176	0.196	0.173	0.247	0.288	0.381	0.345	0.204	0.148	0.200	0.231	0.244	0.253	0.230	0.191	0.532	0.391	0.221	0.169	0.142	0.139
645.0	26.18	29.54	24.32	18.26	14.04	14.07	14.50	17.71	18.46	22.30	25.28	27.05	26.56	38.72	30.55	10.97	7.339	5.163	7.203	105.7	227.3	10.43	0.836	0.789	0.530	0.513	0.490	0.487	0.481	0.422	0.383	0.430	0.412	0.428	0.258	0.347	0.377	0.298	0.268	0.295	0.236	0.375	0.250	0.275	0.191	0.288	0.248	0.229	0.243	0.157	0.192	0.153	0.190	0.215	0.199	0.188	0.172	0.169	0.165	0.194	0.262	0.324	0.286	0.218	0.198	0.221	0.210	0.249	0.244	0.230	0.215	0.278	0.365	0.345	0.219	0.154	0.146
650.0	28.18	29.58	26.13	16.81	14.06	12.67	14.42	15.69	17.51	21.54	24.03	25.75	26.50	31.28	35.81	12.39	7.219	4.991	4.023	31.79	239.2	50.12	0.920	0.791	0.551	0.569	0.484	0.399	0.490	0.368	0.383	0.426	0.352	0.340	0.300	0.263	0.389	0.302	0.274	0.301	0.183	0.311	0.255	0.248	0.188	0.180	0.214	0.225	0.235	0.127	0.129	0.143	0.154	0.179	0.118	0.173	0.205	0.176	0.217	0.157	0.215	0.295	0.272	0.217	0.217	0.197	0.209	0.207	0.179	0.179	0.178	0.265	0.444	0.361	0.197	0.153	0.119
