Sample:	'1
File name:	t2025062310 “Ûº“¥Â.FD3
Run date:	'15:16:42, 06/24/2025
Operator:	Administrator
Comment:	'

Instrument
Model:	F-2700 FL Spectrophotometer
Serial number:	23B8-004
ROM Version:	4J14000 07

Instrument parameters
Measurement type:	3-D scan
Data mode:	Fluorescence
EX  Start WL:	220.0 nm
EX  End WL:	600.0 nm
EX Sampling interval:	5.0 nm
EM  Start WL:	230.0 nm
EM  End WL:	650.0 nm
EM Sampling interval:	5.0 nm
Scan speed:	12000 nm/min
EX Slit:	5.0 nm
EM Slit:	5.0 nm
PMT Voltage:	700 V
Response:	Auto 
Corrected spectra:	Off
Contour interval:	50.000

Peak integration
Integration method:	Rectangular
Sensitivity:	1
Threshold:	1.000

Peaks
No.	ApexEX/EM(nm)	Height(Data)
1	225.0/565.0	52.92
2	225.0/645.0	84.42
3	230.0/500.0	311.7
4	230.0/630.0	71.84
5	235.0/340.0	3591
6	235.0/510.0	272.3
7	240.0/265.0	388.5
8	240.0/525.0	245.3
9	245.0/270.0	407.4
10	245.0/540.0	203.4
11	250.0/275.0	534.9
12	250.0/550.0	168.8
13	255.0/285.0	533.6
14	255.0/560.0	135.8
15	260.0/290.0	506.7
16	260.0/575.0	111.4
17	265.0/585.0	91.16
18	275.0/320.0	2902
19	275.0/615.0	181.0
20	280.0/315.0	2887
21	280.0/625.0	160.9
22	325.0/370.0	429.8
23	330.0/375.0	407.9
24	335.0/380.0	377.1
25	350.0/400.0	300.3
26	365.0/420.0	235.4
27	410.0/480.0	55.86
28	475.0/340.0	12.06
29	505.0/275.0	3.190
30	510.0/280.0	3.454
31	515.0/285.0	3.346
32	560.0/320.0	14.01
33	570.0/315.0	13.86
34	585.0/325.0	13.56

Data points
	220.0	225.0	230.0	235.0	240.0	245.0	250.0	255.0	260.0	265.0	270.0	275.0	280.0	285.0	290.0	295.0	300.0	305.0	310.0	315.0	320.0	325.0	330.0	335.0	340.0	345.0	350.0	355.0	360.0	365.0	370.0	375.0	380.0	385.0	390.0	395.0	400.0	405.0	410.0	415.0	420.0	425.0	430.0	435.0	440.0	445.0	450.0	455.0	460.0	465.0	470.0	475.0	480.0	485.0	490.0	495.0	500.0	505.0	510.0	515.0	520.0	525.0	530.0	535.0	540.0	545.0	550.0	555.0	560.0	565.0	570.0	575.0	580.0	585.0	590.0	595.0	600.0
230.0	89.65	1208	1818	389.8	16.35	6.319	6.010	4.980	4.297	3.934	3.416	3.487	2.855	2.612	2.275	1.922	1.448	1.410	1.149	1.043	1.056	0.878	0.810	0.843	0.700	0.704	0.604	0.568	0.596	0.594	0.585	0.567	0.530	0.480	0.427	0.427	0.439	0.397	0.390	0.397	0.427	0.458	0.423	0.361	0.338	0.397	1.722	4.910	6.240	3.664	1.131	0.407	0.254	0.269	0.307	0.306	0.267	0.308	0.305	0.272	0.235	0.268	0.253	0.272	0.287	0.295	0.313	0.281	0.285	0.287	0.309	0.283	0.287	0.274	0.287	0.313	0.326
235.0	89.05	375.1	1676	2023	432.0	21.91	5.757	5.604	4.284	4.142	3.847	3.189	2.897	2.852	2.323	2.015	1.626	1.453	1.142	1.290	0.983	0.859	0.814	0.705	0.704	0.646	0.636	0.604	0.616	0.674	0.559	0.538	0.586	0.507	0.471	0.363	0.388	0.381	0.368	0.351	0.358	0.434	0.493	0.498	0.491	0.447	0.636	1.505	3.310	5.581	7.235	6.207	2.377	0.569	0.301	0.283	0.286	0.285	0.261	0.264	0.349	0.275	0.258	0.256	0.302	0.341	0.316	0.304	0.278	0.304	0.262	0.316	0.308	0.281	0.313	0.309	0.345
240.0	130.4	151.1	603.6	2314	2122	326.9	12.85	6.573	4.679	3.691	3.916	3.340	3.317	3.252	2.605	1.954	1.711	1.480	1.292	1.158	1.191	0.973	0.906	0.767	0.854	0.659	0.627	0.532	0.541	0.723	0.508	0.560	0.535	0.438	0.527	0.435	0.450	0.395	0.360	0.370	0.354	0.418	0.440	0.508	0.561	0.660	0.423	0.595	0.971	2.057	5.066	10.61	10.32	6.247	1.809	0.387	0.347	0.281	0.258	0.308	0.299	0.339	0.246	0.269	0.318	0.274	0.276	0.330	0.357	0.320	0.288	0.361	0.356	0.256	0.318	0.307	0.304
245.0	120.4	181.6	188.2	981.9	3012	1969	214.7	9.694	5.072	4.108	4.252	3.708	3.272	3.047	2.523	2.078	2.003	1.661	1.162	1.083	1.092	1.158	1.109	0.871	0.858	0.609	0.620	0.678	0.558	0.618	0.496	0.499	0.535	0.532	0.446	0.537	0.477	0.466	0.488	0.349	0.374	0.420	0.399	0.371	0.490	0.657	0.692	0.623	0.501	0.727	1.434	4.479	10.05	14.69	11.46	5.052	1.140	0.308	0.302	0.364	0.367	0.303	0.263	0.374	0.296	0.286	0.281	0.248	0.280	0.296	0.318	0.311	0.380	0.287	0.286	0.275	0.427
250.0	60.87	151.9	229.5	297.1	1142	2735	2528	717.1	30.34	6.449	5.267	4.378	3.568	3.261	2.767	2.186	1.961	1.805	1.276	1.160	1.071	1.173	0.888	0.923	0.742	0.744	0.781	0.745	0.638	0.640	0.590	0.577	0.513	0.485	0.441	0.474	0.452	0.462	0.444	0.377	0.411	0.457	0.382	0.324	0.392	0.449	0.525	0.762	0.924	0.740	0.703	1.309	2.772	5.550	9.492	13.17	15.20	11.95	5.685	1.329	0.400	0.311	0.302	0.318	0.302	0.264	0.299	0.270	0.287	0.304	0.286	0.281	0.344	0.279	0.314	0.289	0.304
255.0	37.60	62.54	201.6	306.4	324.6	774.1	2937	4160	291.9	28.00	6.543	5.388	4.615	3.970	2.733	2.264	1.756	2.094	1.316	0.979	1.118	1.041	0.998	1.074	0.689	0.899	0.742	0.733	0.638	0.620	0.557	0.647	0.543	0.498	0.573	0.504	0.447	0.417	0.404	0.372	0.433	0.432	0.397	0.393	0.372	0.421	0.365	0.448	0.544	0.952	1.273	1.085	1.100	1.501	2.463	3.568	7.359	16.75	25.28	20.25	7.753	1.289	0.401	0.337	0.344	0.276	0.342	0.305	0.290	0.386	0.282	0.264	0.303	0.321	0.330	0.299	0.305
260.0	33.07	36.69	93.61	306.0	276.7	226.2	1027	4397	2390	231.2	14.69	7.393	5.255	4.023	3.039	2.399	2.313	1.882	1.652	1.099	1.098	1.142	1.052	0.858	0.680	0.833	0.835	0.705	0.678	0.647	0.516	0.549	0.566	0.470	0.591	0.490	0.390	0.420	0.446	0.403	0.368	0.448	0.439	0.423	0.288	0.411	0.296	0.403	0.321	0.525	1.004	1.708	1.698	1.031	0.907	1.167	2.075	4.961	13.87	25.71	29.20	18.67	5.239	0.652	0.292	0.311	0.277	0.380	0.303	0.373	0.372	0.286	0.294	0.336	0.324	0.296	0.327
265.0	34.32	29.00	38.99	169.5	388.5	217.4	283.3	1739	5280	2029	169.6	9.969	6.398	4.489	3.551	3.025	2.251	1.863	1.738	1.183	1.135	1.144	0.979	0.978	0.963	0.916	0.885	0.826	0.668	0.694	0.575	0.606	0.502	0.508	0.577	0.519	0.563	0.510	0.430	0.362	0.382	0.428	0.470	0.402	0.303	0.372	0.282	0.404	0.281	0.382	0.510	1.136	1.807	1.899	1.238	0.869	0.875	1.524	3.632	8.658	20.45	34.17	28.82	14.38	2.774	0.413	0.346	0.327	0.311	0.353	0.369	0.271	0.372	0.312	0.303	0.284	0.336
270.0	39.96	30.56	26.02	67.81	233.3	407.4	271.2	454.0	1944	4667	4359	692.7	30.72	6.831	4.572	3.582	2.883	2.370	1.673	1.398	1.345	1.247	1.022	1.015	0.963	0.845	0.774	0.729	0.840	0.698	0.637	0.684	0.563	0.554	0.568	0.523	0.511	0.523	0.425	0.443	0.363	0.414	0.412	0.436	0.390	0.414	0.348	0.438	0.331	0.365	0.378	0.559	0.856	1.335	1.980	2.075	1.728	1.121	1.291	2.331	5.221	11.02	18.67	28.01	29.86	20.28	11.07	2.573	0.402	0.369	0.377	0.350	0.372	0.320	0.339	0.368	0.356
275.0	59.71	48.20	40.11	48.16	106.9	261.1	534.9	299.9	480.1	1265	4736	7172	882.3	23.06	6.684	4.654	3.794	2.996	2.248	1.590	1.352	1.212	0.988	1.230	0.929	0.917	0.836	0.749	0.793	0.767	0.692	0.703	0.557	0.564	0.541	0.488	0.525	0.503	0.525	0.432	0.388	0.469	0.414	0.457	0.469	0.441	0.428	0.411	0.380	0.350	0.312	0.475	0.575	0.822	1.009	1.516	2.674	3.190	1.964	1.203	1.556	2.880	4.555	7.011	10.99	24.95	42.67	30.65	15.70	2.465	0.455	0.371	0.361	0.422	0.386	0.395	0.359
280.0	76.90	71.87	53.04	55.50	78.93	140.6	404.4	415.5	220.5	334.0	1481	6922	6291	140.3	13.04	5.877	3.808	3.292	2.204	1.925	1.636	1.362	1.144	1.225	0.897	1.211	0.775	0.895	0.866	0.791	0.722	0.747	0.627	0.726	0.654	0.682	0.550	0.584	0.590	0.457	0.546	0.476	0.448	0.484	0.512	0.529	0.519	0.539	0.465	0.372	0.392	0.448	0.490	0.683	0.719	0.831	1.404	2.424	3.454	2.627	1.304	1.113	1.462	2.107	2.884	6.801	17.24	34.61	50.24	27.53	9.904	1.102	0.411	0.433	0.396	0.434	0.418
285.0	114.9	112.6	83.91	63.52	75.36	99.91	201.7	533.6	325.7	156.0	399.5	2371	7892	4752	101.2	8.834	4.867	3.787	2.789	2.145	1.935	1.623	1.204	1.183	1.020	1.046	1.002	0.897	0.973	0.837	0.871	0.728	0.683	0.681	0.702	0.668	0.643	0.616	0.522	0.494	0.523	0.532	0.400	0.519	0.567	0.551	0.653	0.584	0.597	0.461	0.457	0.501	0.523	0.621	0.590	0.629	0.904	1.157	2.098	3.346	3.165	1.716	0.988	1.038	1.159	1.972	4.442	10.04	25.11	42.54	35.13	22.72	5.272	0.655	0.400	0.377	0.419
290.0	150.6	162.9	137.8	97.54	81.49	94.53	122.8	257.9	506.7	427.6	229.4	649.1	2540	5661	5179	425.9	23.97	5.592	3.451	2.625	2.236	2.076	1.447	1.309	1.143	1.102	1.076	1.011	0.875	0.805	0.896	0.750	0.742	0.735	0.723	0.759	0.648	0.643	0.644	0.570	0.542	0.551	0.487	0.575	0.616	0.637	0.617	0.732	0.763	0.599	0.525	0.611	0.571	0.598	0.574	0.675	0.722	0.773	1.050	1.522	2.337	3.166	3.240	2.127	1.356	1.173	1.657	3.034	6.528	12.04	18.86	30.84	31.70	31.56	15.56	5.155	0.850
295.0	228.2	238.3	222.0	164.5	117.1	124.3	130.7	168.3	280.3	656.1	591.3	334.1	723.4	1488	4195	6281	598.6	24.12	5.272	3.267	2.804	2.144	1.926	1.507	1.259	1.360	1.080	1.071	0.841	0.911	0.813	0.741	0.889	0.745	0.777	0.787	0.729	0.803	0.677	0.605	0.552	0.570	0.562	0.735	0.638	0.850	0.683	0.836	1.017	0.667	0.687	0.721	0.665	0.647	0.735	0.738	0.822	0.826	0.900	1.109	1.325	1.508	2.477	3.915	4.308	2.799	1.711	1.828	2.700	3.821	5.255	7.820	9.386	19.78	39.60	35.60	24.57
300.0	306.8	382.7	370.0	276.6	207.8	208.5	251.8	304.1	330.7	702.7	1177	808.5	663.4	707.2	1434	5566	5265	88.78	16.87	5.206	3.562	2.398	2.107	1.876	1.533	1.384	1.335	1.137	1.038	1.021	0.865	0.909	0.713	0.776	0.863	0.717	0.796	0.831	0.791	0.595	0.685	0.676	0.724	0.739	0.899	1.012	0.978	1.216	1.290	1.127	1.006	1.152	0.837	1.095	1.087	1.181	1.245	1.365	1.588	1.584	1.891	2.235	2.613	3.501	5.037	6.236	4.983	3.469	3.282	3.460	3.664	3.847	4.110	6.609	13.83	27.43	48.04
305.0	483.2	641.3	633.0	482.6	393.4	424.2	470.5	741.7	991.3	1354	1872	1690	1359	1137	1149	2301	6561	4194	74.50	9.722	4.522	3.292	2.686	2.080	1.807	1.482	1.453	1.420	1.137	1.113	0.968	0.949	0.795	0.919	0.927	0.930	0.929	1.016	0.887	0.951	0.984	0.900	0.905	1.031	1.200	1.509	1.689	1.866	2.013	1.822	1.645	1.728	1.587	1.589	1.687	2.070	2.454	2.780	3.214	3.350	4.156	4.646	5.727	6.336	7.368	8.794	10.55	10.24	8.055	7.182	6.786	6.312	6.129	6.741	7.613	10.62	21.02
310.0	674.1	971.4	986.6	777.5	621.7	649.8	839.7	1124	1425	1857	2297	2660	2566	1857	1538	1443	2776	4693	4180	301.7	18.78	4.565	3.559	2.613	2.115	1.732	1.574	1.471	1.272	1.162	1.201	1.090	0.951	0.876	0.992	1.021	1.018	1.036	1.021	1.048	1.073	1.164	1.255	1.309	1.631	1.950	2.253	2.759	2.927	2.621	2.253	2.612	2.440	2.467	2.594	2.848	3.353	4.121	4.652	5.162	5.851	6.734	7.785	8.993	9.309	10.38	11.25	12.90	13.22	12.71	10.73	9.206	8.932	8.740	8.385	7.820	9.929
315.0	904.0	1299	1355	1052	830.8	845.1	1047	1320	1605	2049	2484	2804	2887	2546	1887	1395	1613	1614	2983	4485	459.1	16.09	4.520	3.231	2.628	2.068	1.813	1.640	1.376	1.186	1.212	1.172	1.113	1.021	1.171	1.107	1.005	1.251	1.058	1.123	1.148	1.236	1.389	1.652	1.915	2.504	3.033	3.731	3.996	3.430	3.142	3.559	3.388	3.148	3.485	3.765	4.263	4.993	5.458	6.106	6.489	7.303	8.595	10.15	10.46	11.27	11.86	13.25	13.85	13.55	13.86	12.95	11.90	10.28	9.261	8.018	7.848
320.0	1087	1560	1608	1248	963.3	944.7	1151	1403	1678	2103	2560	2902	2875	2724	2232	1471	1393	921.5	910.4	3642	3993	66.05	9.168	4.183	2.749	2.281	1.815	1.808	1.511	1.423	1.347	1.131	1.135	1.093	1.053	1.135	1.178	1.113	1.144	1.237	1.152	1.429	1.409	1.733	2.124	2.982	3.468	4.276	4.588	3.850	3.527	4.269	3.806	3.641	3.741	3.943	4.606	5.418	5.935	6.186	6.975	7.748	8.855	10.53	10.48	12.32	12.32	13.26	14.01	13.23	13.43	13.81	13.95	12.36	9.979	8.648	7.881
325.0	1199	1771	1948	1505	1112	985.0	1148	1379	1589	1985	2416	2762	2759	2519	2328	1567	1295	758.6	373.7	1111	4156	3254	57.40	6.996	3.740	2.352	2.042	1.829	1.706	1.522	1.210	1.071	1.154	1.243	1.085	1.172	0.996	1.178	1.137	1.274	1.261	1.335	1.534	1.776	2.619	3.165	4.042	5.176	5.458	4.732	4.361	5.043	4.201	3.961	3.808	4.003	4.540	5.056	5.923	6.387	6.696	7.273	8.091	9.397	9.915	11.39	11.94	12.45	13.41	12.60	12.84	12.73	13.16	13.56	11.48	8.999	7.864
330.0	1365	2182	2648	2336	1752	1199	1139	1315	1479	1807	2203	2530	2561	2323	2094	1703	1345	747.1	326.5	384.2	1266	3110	3306	873.2	17.32	3.899	2.841	2.251	1.796	1.569	1.341	1.179	1.231	1.101	1.104	1.039	1.047	1.055	1.071	1.204	1.220	1.382	1.609	1.984	2.798	3.609	4.759	6.370	7.062	6.521	6.668	7.461	6.627	5.930	5.137	4.397	4.535	5.067	5.723	6.242	6.023	6.792	7.266	8.585	9.065	10.04	10.62	11.62	12.23	12.15	12.18	11.60	11.54	11.69	11.06	9.997	9.473
335.0	1503	2594	3347	3327	2634	1588	1203	1279	1389	1667	2023	2337	2414	2219	1947	1587	1493	879.3	405.5	304.3	441.5	838.7	2211	4284	405.3	17.24	3.752	3.035	2.051	1.704	1.369	1.340	1.312	1.212	1.108	1.153	1.017	1.109	1.185	1.158	1.224	1.474	1.811	1.903	3.055	4.329	5.729	7.314	9.085	8.695	9.207	11.07	10.08	9.023	7.191	5.142	4.915	5.235	5.673	5.810	5.777	6.248	7.096	7.925	8.403	9.137	9.934	10.76	11.50	11.19	11.36	11.20	11.01	10.58	9.842	9.172	9.315
340.0	1573	2681	3528	3591	2859	1721	1182	1205	1286	1513	1832	2104	2204	2061	1805	1433	1346	988.2	471.5	304.8	273.1	323.8	671.6	3030	3352	319.3	8.308	3.647	2.392	1.844	1.689	1.384	1.302	1.251	1.244	1.185	1.163	1.295	1.092	1.082	1.227	1.464	1.761	2.072	2.896	4.429	5.397	7.731	9.063	8.978	9.741	12.06	10.94	9.874	7.535	5.194	5.166	5.131	5.228	5.594	5.675	5.571	6.488	7.057	7.547	8.335	8.691	9.683	10.23	10.41	10.30	10.35	9.852	9.647	8.881	8.128	8.221
345.0	1461	2560	3408	3580	2892	1715	1134	1111	1178	1377	1641	1869	1969	1860	1633	1306	1143	950.4	583.7	325.8	248.8	223.3	267.3	911.5	3343	2882	50.71	5.296	2.872	2.214	1.808	1.452	1.364	1.278	1.134	1.154	1.107	1.165	1.150	1.064	1.289	1.423	1.564	1.862	2.828	4.089	5.182	7.247	8.749	8.962	9.604	11.63	10.91	10.16	7.435	5.166	4.806	4.892	4.947	5.278	5.107	5.444	6.016	6.580	6.846	7.380	7.809	8.720	9.126	9.307	9.035	9.153	9.347	9.003	8.364	7.464	7.591
350.0	1366	2367	3284	3582	2987	1763	1119	1069	1097	1254	1461	1648	1718	1649	1467	1206	1021	804.3	646.1	461.9	292.7	234.4	209.0	296.8	976.8	2520	2740	769.0	14.89	3.033	2.310	1.699	1.549	1.239	1.126	1.077	1.001	1.053	1.009	1.026	1.199	1.381	1.541	1.958	2.673	3.795	4.866	6.804	8.408	8.837	9.977	11.95	11.57	10.75	7.661	5.511	4.933	4.691	4.834	4.714	5.014	5.094	5.389	5.785	6.202	6.691	6.935	7.683	7.880	8.222	8.108	8.444	8.365	8.041	7.660	7.123	6.881
355.0	1203	2079	2958	3336	2871	1732	1099	1048	1058	1160	1310	1439	1495	1442	1296	1082	926.5	718.6	559.2	546.2	396.3	265.4	215.3	179.7	280.0	619.5	1749	3372	367.0	15.00	2.918	2.112	1.621	1.356	1.318	1.115	1.020	1.048	0.925	0.960	1.033	1.178	1.420	1.843	2.292	3.409	4.300	6.164	7.562	7.878	8.927	11.08	11.27	9.844	7.521	5.247	5.141	4.735	4.782	4.389	4.946	4.943	4.930	5.578	6.007	5.893	6.149	6.701	7.091	7.169	7.274	7.599	7.648	7.242	6.671	6.505	6.304
360.0	1076	1869	2633	3011	2619	1645	1088	1002	1014	1104	1213	1288	1324	1286	1160	994.4	854.3	673.3	517.4	486.5	477.9	314.4	227.1	164.8	139.2	187.5	475.3	2495	2993	294.7	6.491	2.543	1.873	1.574	1.438	1.270	1.076	1.078	0.977	0.970	1.150	1.031	1.282	1.632	2.053	3.153	3.895	5.652	6.450	7.081	8.220	9.926	9.857	8.888	7.351	5.130	4.875	4.531	4.622	4.549	4.435	4.700	4.919	5.263	5.524	5.851	5.785	6.056	6.228	6.395	6.704	6.785	6.955	6.324	6.297	5.923	5.972
365.0	922.6	1669	2383	2715	2411	1557	1061	981.8	990.8	1060	1134	1187	1200	1163	1060	916.6	790.2	650.5	507.7	442.9	467.0	405.0	257.6	173.0	123.1	105.1	148.4	736.5	2869	2543	46.77	4.030	2.357	1.828	1.469	1.119	1.214	1.172	0.978	1.004	1.220	1.033	1.281	1.484	1.952	2.899	3.560	4.976	6.051	6.352	7.477	9.246	9.103	8.508	7.143	5.106	4.550	4.582	4.401	4.521	4.682	4.488	4.598	4.957	4.950	5.300	5.304	5.620	5.793	6.220	5.984	6.113	6.163	5.849	5.564	5.342	5.521
370.0	868.8	1468	2084	2388	2188	1477	1048	962.8	959.1	1008	1060	1090	1090	1047	951.0	837.2	747.1	622.4	509.2	438.4	408.2	429.8	359.0	218.3	146.7	109.8	92.50	206.2	831.8	2228	2381	199.6	12.74	2.617	1.737	1.298	1.300	1.127	1.034	1.082	1.138	1.127	1.163	1.398	1.686	2.448	3.135	4.429	5.371	5.659	6.335	8.245	8.289	7.710	6.298	4.710	4.440	4.421	4.344	4.372	4.387	4.295	4.557	4.759	4.820	4.855	4.957	5.147	5.194	5.394	5.408	5.451	5.361	5.300	5.209	4.895	5.168
375.0	753.0	1258	1778	2070	1921	1365	1017	931.7	919.9	955.5	999.7	995.9	992.3	935.0	863.1	766.2	690.6	596.4	507.1	443.7	397.9	379.2	407.9	317.9	191.7	139.6	107.8	108.4	228.6	544.3	1572	2782	316.3	12.15	2.294	1.727	1.473	1.222	1.156	1.195	1.074	1.066	1.215	1.342	1.694	2.201	2.609	3.665	4.764	4.796	5.256	7.028	7.300	7.096	5.709	4.552	4.235	3.994	4.111	4.201	3.988	4.483	4.343	4.313	4.445	4.349	4.543	4.687	4.528	4.873	4.796	4.700	4.907	5.020	4.782	4.624	4.583
380.0	683.8	1119	1564	1824	1763	1291	995.9	904.7	890.6	925.6	957.1	945.7	929.1	866.8	804.5	715.2	650.0	571.7	504.6	448.0	400.9	370.1	373.6	377.1	251.7	171.5	132.9	105.5	111.0	162.4	432.6	2088	2449	237.8	4.934	2.071	1.539	1.306	1.166	1.019	0.945	1.023	1.208	1.335	1.718	2.032	2.468	3.430	4.274	4.305	4.886	6.570	6.427	6.411	5.188	4.381	4.121	4.127	4.140	3.868	4.204	4.168	4.152	4.440	4.447	4.299	4.499	4.274	4.568	4.693	4.470	4.529	4.404	4.568	4.358	4.363	4.475
385.0	623.6	1009	1415	1657	1607	1220	961.2	881.7	862.9	892.6	913.1	899.5	886.8	814.1	748.6	678.8	622.9	558.6	498.1	449.4	406.4	372.5	348.7	363.2	327.4	208.8	154.2	121.3	98.57	88.96	132.1	622.9	2351	1951	37.57	3.123	1.945	1.475	1.209	0.989	0.979	0.978	1.083	1.259	1.635	1.832	2.191	3.213	3.713	3.788	4.565	5.569	6.177	5.811	4.925	4.397	4.107	3.927	4.060	3.774	3.983	3.958	4.177	4.215	4.496	4.100	4.297	4.125	4.246	4.261	4.333	3.967	4.463	4.309	4.131	4.205	4.238
390.0	589.3	918.0	1246	1453	1419	1135	930.3	854.9	832.0	846.9	862.9	838.3	822.2	762.0	698.8	636.9	593.4	542.8	493.1	446.0	409.8	380.2	349.2	325.4	330.9	282.7	191.4	139.9	109.8	86.63	76.10	171.6	687.4	1755	1733	155.9	10.27	1.987	1.384	1.218	1.070	1.011	1.153	1.144	1.437	1.820	2.041	2.767	3.289	3.643	4.003	5.095	5.360	5.097	4.666	4.062	4.093	4.029	3.788	3.799	3.689	4.026	3.829	3.922	3.990	3.808	3.913	3.872	3.984	4.072	4.113	3.837	3.923	4.063	3.961	4.180	3.960
395.0	562.5	809.9	1104	1284	1268	1061	890.6	822.8	814.6	816.9	818.5	784.7	759.7	705.6	650.2	601.2	561.6	527.7	481.1	442.9	411.8	382.3	356.3	323.8	299.0	306.4	262.8	172.7	131.2	103.3	77.40	79.83	182.3	429.7	1218	2091	252.9	7.561	1.859	1.405	1.202	1.040	1.221	1.080	1.350	1.619	1.750	2.575	3.008	3.176	3.567	4.344	4.722	4.503	4.130	3.786	3.830	3.955	3.547	3.694	3.670	3.636	3.891	3.990	3.800	3.732	3.677	3.538	3.628	3.784	3.951	3.839	3.718	3.806	3.669	3.457	3.579
400.0	534.6	768.9	1022	1188	1178	1014	866.7	817.5	799.4	780.1	781.8	763.8	731.0	676.4	618.7	573.5	545.7	509.2	472.3	442.4	412.1	387.1	364.3	330.8	297.6	291.2	300.3	219.8	153.3	119.7	88.96	69.47	76.99	121.4	341.0	1626	1781	37.80	3.644	1.537	1.308	1.115	1.192	1.300	1.338	1.687	1.876	2.484	2.755	2.886	3.253	3.961	4.365	4.283	3.857	3.692	3.878	3.448	3.605	3.388	3.764	3.552	3.868	3.785	3.765	3.590	3.751	3.586	3.667	3.526	3.567	3.418	3.632	3.864	3.517	3.521	3.450
405.0	498.3	716.4	955.4	1112	1105	962.0	841.7	802.4	766.1	764.8	761.7	744.0	710.8	662.7	601.9	560.8	527.7	493.5	465.9	436.6	410.2	384.4	364.5	335.1	303.8	277.6	289.6	268.7	181.3	135.7	102.2	76.03	59.88	57.56	97.32	489.7	1750	1340	31.80	2.472	1.682	1.231	1.328	1.307	1.330	1.730	1.902	2.300	2.754	2.625	2.956	3.778	3.977	4.228	3.874	3.508	3.670	3.681	3.503	3.364	3.632	3.595	3.650	3.523	3.761	3.530	3.311	3.263	3.424	3.481	3.354	3.288	3.360	3.500	3.413	3.235	3.495
410.0	451.8	673.0	879.8	1005	1021	905.1	810.1	772.9	748.1	738.9	731.4	704.8	676.6	631.6	573.7	531.6	501.5	474.1	448.3	422.2	400.0	379.5	363.1	336.6	307.8	279.1	265.8	271.0	237.8	167.5	119.1	90.32	67.76	51.94	49.10	129.1	515.8	1274	1260	142.9	7.875	1.698	1.480	1.257	1.444	1.569	1.788	2.195	2.473	2.494	2.702	3.525	3.652	3.897	3.556	3.252	3.438	3.497	3.358	3.446	3.428	3.468	3.367	3.333	3.522	3.193	3.230	3.246	3.350	3.140	3.253	3.269	3.254	3.406	3.308	3.174	3.247
415.0	414.1	637.6	826.4	913.8	940.7	847.9	784.8	760.2	732.6	715.3	690.0	671.6	639.5	591.4	542.4	499.2	473.0	452.7	429.2	404.3	384.8	371.0	355.2	330.0	305.6	280.1	259.7	242.7	247.9	214.8	142.1	104.1	77.37	58.57	45.33	52.83	131.4	310.7	901.3	1459	214.9	6.228	1.579	1.358	1.468	1.476	1.670	2.081	2.418	2.257	2.588	3.173	3.406	3.467	3.324	3.180	3.144	3.329	3.190	3.337	3.642	3.294	3.157	3.071	3.305	2.873	3.216	3.117	3.397	2.969	3.010	2.986	3.131	2.942	3.012	2.963	3.258
420.0	432.6	601.1	794.5	856.3	901.4	819.5	770.9	750.3	713.5	697.4	673.9	643.9	608.1	567.3	516.6	479.3	451.6	431.7	411.4	390.3	371.6	359.1	341.7	327.1	305.0	280.3	257.5	235.2	226.6	235.4	172.2	113.7	86.11	64.71	47.60	39.71	48.20	82.40	249.3	1141	1281	34.47	2.908	1.666	1.485	1.478	1.563	2.046	2.326	2.327	2.460	3.267	3.053	3.140	3.256	3.066	3.171	3.430	3.223	3.241	3.433	3.156	3.246	3.099	3.201	2.942	2.929	3.098	3.179	2.834	2.934	2.802	3.027	3.006	2.784	2.843	3.039
425.0	383.4	576.8	731.8	815.4	843.7	782.8	764.4	734.3	696.1	677.0	654.2	619.1	582.5	548.8	495.8	460.7	433.9	415.6	392.7	380.2	364.7	348.2	333.4	318.7	299.7	277.5	256.8	235.7	215.5	221.3	202.5	132.2	93.78	69.99	53.89	40.41	33.33	33.65	67.04	345.3	1258	988.2	28.30	2.067	1.748	1.447	1.600	1.972	2.256	2.103	2.474	2.974	3.028	3.060	3.017	2.999	3.134	3.154	3.402	3.285	3.297	3.123	3.004	3.208	3.286	2.957	2.958	2.919	3.093	2.705	2.604	2.718	2.806	2.903	3.105	2.789	2.921
430.0	417.4	539.3	692.3	769.0	791.5	761.2	740.9	720.3	681.8	654.0	628.0	600.8	561.2	519.1	473.5	436.5	413.5	394.3	378.0	361.4	346.2	332.5	321.3	309.5	295.1	275.9	257.4	235.6	216.4	201.8	199.5	168.2	114.0	81.47	61.93	46.72	35.32	27.34	29.42	87.61	365.8	916.5	961.1	130.9	7.690	1.860	1.758	1.971	2.140	2.073	2.224	2.935	2.871	2.947	2.886	2.891	2.994	3.089	3.278	3.304	3.153	3.138	2.920	3.093	3.141	3.068	2.839	2.811	2.892	2.803	2.772	2.775	2.782	2.832	2.773	2.710	2.796
435.0	631.2	506.1	647.3	733.6	748.9	739.3	720.7	714.3	676.0	641.9	611.9	578.5	538.7	492.8	448.2	415.3	390.9	374.0	361.9	343.0	331.3	318.4	311.5	299.2	284.3	270.1	256.8	235.5	219.2	198.1	180.8	174.1	147.8	95.99	70.21	55.07	41.69	31.85	25.05	32.75	91.38	221.1	669.0	1209	205.3	6.801	2.003	2.165	1.851	1.948	2.174	2.720	2.758	2.829	2.894	2.699	3.091	3.077	3.348	3.344	3.111	2.933	3.089	3.029	2.829	2.971	2.612	2.663	2.765	2.657	2.549	2.472	2.598	2.637	2.540	2.640	2.695
440.0	888.1	554.2	623.0	691.7	712.0	713.3	712.9	688.8	665.3	632.9	602.0	561.6	520.1	484.3	435.9	395.6	376.0	359.9	344.3	332.4	318.4	305.4	302.6	291.1	278.2	265.8	251.9	233.6	218.2	198.6	174.5	161.7	159.3	117.1	78.34	59.65	47.14	35.26	26.70	23.16	31.99	58.01	184.8	932.0	1176	32.19	3.603	2.183	1.947	2.028	1.998	2.664	2.769	2.665	2.875	3.023	2.971	3.189	3.196	3.020	2.916	2.991	3.079	2.759	2.820	2.719	2.501	2.587	2.679	2.515	2.544	2.407	2.566	2.529	2.540	2.476	2.508
445.0	1032	697.8	597.8	662.6	696.5	681.9	699.9	690.3	642.3	603.1	591.3	547.5	508.9	466.8	416.1	382.7	360.5	344.6	331.2	319.4	304.3	290.9	285.5	278.2	268.8	257.7	244.2	231.5	215.4	199.1	174.7	153.4	147.9	133.0	89.87	64.21	50.60	38.72	29.91	22.83	20.23	23.01	49.22	279.9	1153	893.8	25.73	2.875	2.279	2.087	2.109	2.774	2.638	2.597	2.827	2.878	2.899	2.937	3.133	3.100	2.937	3.033	2.837	2.738	2.841	2.693	2.609	2.717	2.576	2.499	2.415	2.475	2.458	2.442	2.395	2.440	2.504
450.0	822.9	1202	653.3	611.8	645.3	655.6	669.8	654.8	619.7	584.0	560.6	514.8	475.1	431.7	393.7	356.2	337.4	321.2	308.3	297.3	281.8	272.1	267.3	259.1	252.0	244.1	233.8	221.3	208.6	193.8	173.6	149.8	131.6	126.5	108.9	75.14	54.99	41.98	33.45	25.74	20.16	17.26	20.31	70.14	333.9	801.5	873.3	119.6	7.424	2.161	2.000	2.476	2.428	2.610	2.632	2.682	2.961	2.901	2.953	2.959	2.936	2.747	2.701	2.732	2.774	2.596	2.415	2.504	2.483	2.245	2.475	2.223	2.274	2.336	2.318	2.209	2.391
455.0	425.0	1412	1031	572.6	614.8	606.2	621.6	617.9	581.4	554.4	527.3	479.3	442.8	394.4	364.2	331.0	307.4	294.9	281.6	270.0	254.5	249.1	244.0	239.0	234.2	226.9	218.4	207.2	196.5	183.9	168.3	145.3	125.8	112.4	107.2	92.28	62.68	46.82	36.25	29.27	23.32	18.09	15.27	24.12	81.01	192.0	532.7	996.1	170.7	6.897	2.150	2.548	2.377	2.230	2.359	2.518	2.813	2.770	2.698	2.805	2.680	2.628	2.525	2.696	2.665	2.593	2.505	2.309	2.163	2.459	2.240	2.150	2.176	2.296	2.222	2.117	2.315
460.0	307.0	1076	1567	610.7	564.6	569.9	581.4	590.7	562.5	524.2	494.4	463.0	414.9	372.8	342.2	310.3	289.0	272.8	264.8	249.9	238.4	231.9	225.9	224.9	219.0	210.2	205.6	195.8	187.4	179.0	162.4	144.1	121.4	105.4	96.85	96.52	72.72	50.74	39.06	30.41	25.01	20.10	15.95	14.62	25.55	48.97	140.6	697.8	888.4	126.3	3.888	2.502	2.350	2.336	2.248	2.515	2.744	2.646	2.662	2.701	2.710	2.625	2.560	2.599	2.536	2.480	2.392	2.147	2.157	2.203	2.069	2.088	2.069	2.149	2.088	1.848	2.133
465.0	249.6	684.7	1875	849.3	525.5	544.7	551.4	547.6	519.6	496.0	464.0	430.9	392.1	347.9	320.4	289.6	271.4	252.5	243.8	233.3	222.4	214.2	209.9	207.2	200.2	196.7	192.5	185.4	177.9	169.9	153.8	136.9	116.7	101.5	89.45	87.79	81.22	56.15	40.86	31.93	26.45	21.05	16.76	13.77	14.45	17.90	37.10	200.5	805.2	729.0	22.09	2.944	2.219	2.270	2.419	2.164	2.529	2.496	2.606	2.579	2.486	2.436	2.158	2.299	2.331	2.269	2.331	2.249	2.100	2.227	1.929	2.056	1.962	1.840	1.748	1.821	1.913
470.0	232.2	409.1	1306	1668	587.8	499.2	506.6	501.1	483.1	452.5	426.7	397.8	357.9	320.2	289.0	261.2	242.6	230.3	218.4	206.5	197.6	192.5	189.3	185.3	181.7	177.3	172.4	168.6	162.5	156.3	143.3	126.9	110.8	95.24	83.24	74.70	74.35	64.45	45.57	33.43	27.66	23.15	17.99	14.71	13.06	11.67	14.61	50.05	224.0	567.0	622.9	114.9	8.274	2.486	2.312	2.087	2.404	2.396	2.394	2.343	2.338	2.329	2.239	2.312	2.229	2.022	2.006	1.986	1.868	1.961	1.882	1.894	1.846	1.786	1.718	1.621	1.829
475.0	252.4	309.8	611.2	1860	1098	455.7	450.6	457.7	432.3	412.2	385.5	358.5	317.4	289.6	254.6	233.4	214.6	204.1	192.8	183.2	175.6	170.0	166.4	163.8	161.8	157.0	154.6	150.0	146.1	142.1	131.1	117.5	104.3	88.62	76.33	67.36	61.85	62.76	54.01	36.96	28.64	23.52	19.29	15.73	13.37	11.04	10.06	17.08	54.77	132.7	309.4	686.8	175.8	9.447	2.464	2.042	2.306	2.276	2.183	2.516	2.126	2.296	1.907	2.051	1.962	1.892	2.037	1.834	1.832	1.725	1.590	1.729	1.603	1.626	1.602	1.576	1.538
480.0	238.9	280.3	387.5	1313	1756	503.6	421.3	422.9	403.6	377.5	357.7	335.2	297.1	268.5	238.6	215.3	197.9	186.0	177.6	166.3	159.6	154.4	152.1	149.1	148.3	144.3	140.6	138.6	135.4	132.3	123.1	110.4	96.29	84.37	73.28	64.67	55.50	54.59	55.86	42.45	29.51	24.21	19.90	17.09	14.15	12.14	9.532	10.25	17.15	33.61	78.24	391.0	660.2	152.2	4.532	2.201	2.183	2.026	2.221	2.136	2.047	2.052	1.826	1.865	1.658	1.808	1.952	1.753	1.841	1.681	1.539	1.582	1.538	1.466	1.445	1.621	1.555
485.0	216.0	290.5	321.4	738.7	2036	814.2	398.0	401.7	374.3	357.9	338.5	315.2	282.6	252.9	222.1	199.5	184.7	172.4	165.1	153.9	146.0	143.8	142.2	137.3	136.5	132.8	130.8	128.2	126.1	123.6	114.7	105.3	92.52	81.94	70.12	62.47	53.49	49.19	50.86	47.24	33.70	24.33	20.26	17.37	14.92	13.19	10.53	8.766	9.376	11.99	21.52	105.6	492.4	613.9	27.09	3.098	2.272	2.092	2.154	2.032	1.899	2.136	1.683	1.938	1.649	1.707	1.694	1.725	1.808	1.634	1.588	1.506	1.470	1.661	1.386	1.460	1.354
490.0	190.1	291.7	296.8	411.7	1356	1612	450.5	362.6	348.4	333.4	312.8	294.4	258.9	233.1	204.4	181.6	167.1	157.8	150.9	142.3	133.9	129.9	127.6	125.3	123.6	122.2	118.8	117.6	115.7	114.1	105.5	96.32	86.48	76.46	67.23	59.06	51.59	45.73	43.26	44.18	39.45	28.09	21.14	17.96	15.66	13.77	11.34	9.534	8.246	7.625	9.024	27.37	129.0	373.3	514.0	228.6	10.93	2.257	2.154	2.024	1.836	1.848	1.735	1.825	1.682	1.574	1.520	1.506	1.569	1.526	1.345	1.403	1.440	1.372	1.293	1.409	1.331
495.0	147.7	278.0	305.8	305.6	596.7	1817	1004	333.4	310.5	302.1	286.3	269.4	232.9	209.4	183.8	165.1	151.0	142.0	136.8	126.1	119.7	117.2	114.6	113.0	111.0	107.2	108.9	106.3	104.4	102.8	95.73	88.48	78.94	71.40	62.54	55.54	50.18	43.14	39.15	36.55	37.97	34.86	23.31	18.35	15.84	13.86	12.19	10.08	8.576	7.033	6.599	10.04	32.37	87.02	229.8	613.6	217.5	13.54	2.098	1.924	1.679	1.675	1.572	1.509	1.516	1.612	1.457	1.483	1.440	1.380	1.463	1.334	1.389	1.275	1.220	1.223	1.214
500.0	133.4	223.2	311.7	266.8	340.5	1231	1662	377.9	297.5	274.5	261.1	240.8	217.4	191.7	170.9	151.3	138.8	130.0	123.4	115.0	108.5	106.6	101.7	101.6	100.4	97.66	97.72	97.08	94.46	93.48	88.44	81.27	73.32	66.22	58.59	52.66	45.88	40.91	36.62	33.01	32.35	34.41	26.80	19.27	16.10	13.93	12.16	10.40	9.007	7.447	6.205	6.365	10.92	22.54	56.55	295.4	634.1	185.8	7.602	1.893	1.755	1.593	1.478	1.444	1.404	1.472	1.274	1.189	1.300	1.283	1.261	1.261	1.201	1.133	1.036	1.050	1.028
505.0	114.0	180.2	304.3	257.7	273.3	642.7	1956	664.8	277.2	252.5	235.9	219.5	204.2	173.3	155.8	140.0	126.9	119.2	112.6	105.3	99.41	95.83	95.60	92.30	91.90	89.91	88.52	88.76	86.21	85.88	81.56	74.97	68.00	60.78	54.78	48.82	43.81	39.33	34.36	30.58	28.22	30.64	29.31	21.91	16.48	13.76	11.81	10.58	9.083	7.789	6.407	5.601	6.083	8.359	15.50	74.66	372.5	593.7	31.86	3.770	1.794	1.502	1.409	1.540	1.307	1.385	1.348	1.198	1.221	1.178	1.095	1.173	1.064	1.051	1.090	1.079	1.196
510.0	103.9	150.7	252.7	272.3	234.1	327.1	1242	1472	309.4	229.6	215.6	196.8	177.2	154.2	138.4	122.8	111.2	103.6	97.13	91.88	86.10	84.10	83.20	80.41	80.51	78.68	77.91	77.31	76.66	75.34	71.74	66.75	61.09	54.55	49.43	43.68	39.85	35.52	32.12	28.56	25.45	24.54	25.87	24.31	18.34	14.08	11.93	10.52	9.012	7.939	6.750	5.691	5.083	5.052	6.562	19.23	92.87	294.6	421.4	133.5	12.09	1.701	1.466	1.387	1.256	1.263	1.275	1.128	1.153	1.100	1.009	1.079	1.010	1.087	0.971	0.982	1.022
515.0	98.59	128.4	190.6	265.7	217.2	218.0	499.7	1724	843.5	210.0	191.6	177.0	157.8	136.3	120.8	107.9	97.31	91.23	84.33	80.13	74.27	72.06	72.46	69.88	68.94	68.49	67.84	67.43	65.70	65.69	62.42	58.59	53.59	48.65	43.76	38.76	35.66	32.52	29.19	25.34	23.24	20.94	20.56	22.93	21.29	14.70	11.80	10.39	8.854	7.806	6.743	5.943	5.186	4.404	4.411	6.928	23.27	68.06	148.0	420.6	221.8	15.23	1.516	1.311	1.197	1.160	1.178	1.161	0.940	0.898	0.949	0.902	1.002	0.882	1.086	0.937	1.013
520.0	85.49	115.6	158.3	235.9	232.3	182.5	258.7	1181	1531	254.7	171.8	158.6	142.7	125.7	109.8	96.78	89.12	82.04	75.56	71.11	66.78	64.30	64.51	62.20	61.09	60.74	60.29	60.62	59.05	58.45	56.70	51.95	48.43	44.04	40.03	35.30	32.69	29.01	26.22	23.68	21.69	19.35	17.92	19.39	21.20	16.98	11.97	9.752	8.645	7.708	6.440	6.331	5.561	4.720	3.891	4.266	7.591	17.62	35.80	178.4	462.8	184.7	8.325	1.285	1.170	1.139	1.038	1.051	0.930	0.886	0.834	0.879	0.867	0.869	0.822	0.838	0.821
525.0	85.95	105.4	137.9	182.4	245.3	177.9	188.3	566.4	1912	538.0	157.0	143.0	130.1	112.4	101.1	86.52	80.29	73.67	68.58	64.21	60.61	57.75	58.77	56.53	55.92	54.72	54.71	54.32	54.48	52.84	51.76	47.29	42.31	39.17	36.13	32.17	29.79	26.73	23.93	22.39	19.88	18.25	16.24	15.75	18.30	18.03	13.55	9.848	8.347	7.277	6.664	6.151	5.639	4.772	4.138	3.872	4.267	6.278	10.26	43.80	230.9	437.9	130.2	3.479	1.183	1.080	1.047	0.882	0.897	0.904	0.944	0.977	0.985	0.774	0.731	0.770	0.755
530.0	74.55	92.31	112.3	143.9	217.3	184.0	158.4	250.3	1214	1415	208.9	127.3	113.0	100.0	88.21	76.19	68.95	64.64	60.57	55.45	52.78	50.50	49.90	47.79	47.80	47.28	46.76	47.10	46.79	46.61	44.34	41.09	37.82	34.30	31.75	28.86	26.61	24.01	21.88	20.27	18.22	16.75	14.79	14.01	14.48	16.03	15.08	10.67	7.953	6.945	6.127	5.436	5.086	4.914	4.149	3.806	3.400	3.640	4.369	11.64	55.86	191.8	309.0	134.5	12.51	1.211	0.991	0.898	0.892	0.879	0.794	0.852	0.828	0.793	0.746	0.762	0.765
535.0	70.96	83.01	93.99	112.1	159.0	197.6	137.9	153.6	428.3	1695	727.7	117.2	96.11	86.38	76.89	68.47	59.30	54.41	51.78	48.25	45.00	44.54	42.29	42.24	40.79	40.06	40.20	39.04	39.28	39.59	37.87	34.67	32.74	29.51	27.77	25.14	22.90	20.89	19.62	17.71	16.06	14.61	13.31	12.22	12.10	12.34	13.90	12.08	8.489	6.707	5.639	5.125	4.421	4.504	4.338	3.850	3.119	2.847	3.042	4.407	14.12	44.33	94.55	279.0	209.0	15.49	1.116	0.864	0.721	0.730	0.779	0.693	0.667	0.834	0.609	0.822	0.661
540.0	60.14	76.81	83.73	99.39	119.2	203.4	147.7	121.2	187.5	1108	1430	153.1	84.66	76.82	66.90	61.73	54.78	48.25	46.41	41.16	40.90	39.05	38.36	37.00	35.38	34.47	35.23	34.83	34.67	34.03	32.57	30.98	28.42	25.90	24.31	22.06	19.87	19.07	17.73	15.81	14.90	12.98	12.18	11.23	10.69	10.02	11.16	11.98	9.438	6.618	5.308	4.938	4.451	4.104	4.127	4.241	3.219	2.605	2.543	2.764	4.716	11.36	22.73	106.5	314.1	159.9	7.674	0.819	0.785	0.656	0.672	0.639	0.624	0.780	0.594	0.686	0.589
545.0	54.11	64.25	80.43	87.35	90.07	167.7	163.1	105.1	120.2	476.2	1804	371.8	78.13	68.55	59.98	53.45	48.07	42.92	41.35	37.18	35.15	33.60	34.52	32.12	31.48	30.22	30.95	30.59	30.21	30.39	29.68	27.56	25.69	23.45	21.77	19.99	18.32	17.41	15.71	13.94	13.82	11.75	10.40	10.01	9.652	8.700	9.105	10.24	10.02	6.988	5.187	4.700	4.031	3.817	3.536	3.597	3.443	2.787	2.460	2.379	2.511	3.953	6.478	25.80	142.3	299.7	33.38	3.097	0.833	0.765	0.696	0.660	0.725	0.650	0.573	0.601	0.534
550.0	51.74	60.04	67.37	75.07	77.88	114.0	168.8	102.9	91.58	178.6	1090	1174	115.1	59.00	51.93	45.45	39.55	36.21	33.96	30.96	29.59	29.37	28.00	27.03	26.21	25.76	25.38	26.40	25.55	25.59	24.89	23.33	21.39	19.71	18.24	17.08	15.29	14.50	13.04	12.28	11.29	10.33	9.411	8.568	8.131	7.591	7.467	7.583	8.640	7.502	5.584	4.228	3.613	3.347	3.157	3.112	3.309	2.939	2.489	2.051	1.960	2.197	2.604	6.882	34.03	122.2	191.8	111.0	11.20	0.821	0.645	0.641	0.589	0.556	0.539	0.509	0.535
555.0	55.53	53.08	58.58	59.77	69.36	77.58	136.3	121.8	74.94	93.94	342.2	1486	459.4	50.95	42.32	37.84	33.78	29.48	27.16	26.19	23.45	23.27	22.47	21.43	22.01	20.73	21.32	21.00	21.00	21.04	20.29	18.71	17.45	16.32	14.60	14.12	12.55	11.87	10.56	10.50	9.208	8.657	8.014	7.453	7.055	6.687	5.840	5.747	6.258	6.930	5.804	4.310	3.368	2.830	2.869	2.746	2.748	2.615	2.523	2.004	1.787	1.587	1.601	2.618	8.617	28.27	58.53	184.2	144.7	12.30	0.673	0.566	0.573	0.540	0.415	0.518	0.439
560.0	49.03	48.85	54.04	51.84	58.25	65.75	95.66	135.8	70.00	70.50	124.6	947.7	1050	69.08	35.99	31.49	29.01	25.94	23.89	22.23	20.86	19.52	19.41	18.53	18.07	17.98	18.33	18.18	17.85	17.55	17.51	15.82	14.63	13.60	12.55	11.94	11.09	10.27	9.416	8.941	7.780	7.508	6.929	6.619	5.824	5.676	5.024	5.010	4.777	5.794	5.513	4.559	3.209	2.912	2.559	2.418	2.485	2.288	2.493	1.897	1.619	1.453	1.320	1.479	2.829	7.109	13.92	68.60	199.6	99.84	4.881	0.627	0.509	0.554	0.515	0.495	0.494
565.0	37.33	52.92	50.34	49.07	51.46	53.21	67.43	130.2	75.41	56.79	67.20	376.2	1413	148.0	30.57	27.10	23.93	21.46	19.88	18.86	17.80	16.69	16.60	16.20	15.13	15.38	15.45	15.74	14.92	14.68	14.45	13.85	12.64	11.59	10.57	9.941	9.164	8.755	7.929	7.580	6.583	6.460	5.962	5.918	5.350	5.027	4.510	4.111	3.847	4.199	4.988	4.674	3.226	2.381	2.394	2.252	2.136	1.952	2.117	2.039	1.512	1.332	1.313	1.178	1.507	2.420	3.884	16.62	86.54	180.7	32.06	1.944	0.455	0.597	0.484	0.442	0.452
570.0	38.89	44.70	44.86	41.66	42.62	43.40	49.11	95.89	99.52	50.90	51.10	124.2	879.1	794.9	57.11	22.48	19.99	18.43	16.61	15.72	14.47	14.26	13.78	12.98	12.69	12.35	12.41	12.63	12.13	12.26	11.53	11.37	10.16	9.242	8.785	8.230	7.669	7.376	6.585	6.180	5.639	5.341	4.954	4.755	4.289	4.090	3.785	3.527	3.278	3.146	3.583	4.113	3.465	2.534	2.086	1.864	1.740	1.696	1.810	1.616	1.724	1.411	1.178	1.027	1.066	1.267	1.547	4.394	20.73	71.73	116.0	69.77	8.229	0.580	0.476	0.497	0.428
575.0	41.70	44.75	40.91	36.97	35.29	36.19	36.18	53.90	111.4	56.42	43.86	58.93	262.9	1084	289.6	20.25	16.59	14.84	13.73	12.85	11.93	11.24	11.04	10.28	9.991	10.09	10.31	9.816	10.01	10.06	9.536	8.860	8.226	7.763	7.360	6.384	6.184	5.840	5.466	5.231	4.460	4.667	4.293	3.595	3.507	3.482	3.358	3.052	2.752	2.557	2.484	2.871	3.209	2.609	2.012	1.697	1.456	1.564	1.442	1.367	1.459	1.624	1.305	1.013	1.022	1.005	1.011	1.645	5.171	16.58	34.87	105.9	87.15	7.496	0.513	0.437	0.425
580.0	37.66	43.79	37.81	37.73	34.07	32.20	32.28	38.93	98.67	71.87	38.57	41.40	86.88	705.6	719.7	32.58	14.38	12.64	11.30	10.62	10.48	9.432	9.767	8.484	8.781	8.613	8.397	8.606	8.141	8.256	8.203	7.251	6.725	6.584	6.199	5.740	5.439	5.031	4.928	4.159	3.852	3.813	3.445	3.258	3.222	3.148	2.883	2.623	2.261	2.090	1.944	2.200	2.755	2.849	2.006	1.590	1.390	1.394	1.187	1.268	1.300	1.527	1.402	1.117	0.895	0.848	0.867	1.000	1.664	4.203	8.580	38.57	116.7	34.44	3.148	0.447	0.417
585.0	44.12	38.04	35.03	32.15	27.80	29.93	30.47	30.79	69.62	91.16	41.37	36.80	44.00	272.5	985.9	94.47	13.45	11.23	9.991	9.525	9.313	8.534	8.112	7.515	7.288	7.229	7.475	7.134	6.801	7.244	7.238	5.948	6.060	5.600	5.267	4.920	4.832	4.230	4.131	3.876	3.492	3.236	2.958	2.994	2.559	2.576	2.398	2.322	1.993	1.816	1.781	1.749	2.116	2.466	2.064	1.524	1.361	1.319	1.070	1.186	1.108	1.103	1.314	1.159	0.886	0.790	0.761	0.878	0.859	1.486	2.456	9.236	49.68	101.6	28.98	1.372	0.392
590.0	40.57	36.33	35.79	32.50	26.24	27.63	26.87	27.53	43.35	90.99	57.11	35.96	33.11	84.12	614.7	489.2	26.56	10.15	8.224	8.120	7.430	6.672	6.767	6.353	6.141	5.888	6.263	6.085	5.800	6.122	5.868	5.255	4.825	4.689	4.129	4.200	3.907	3.498	3.223	3.030	3.069	2.855	2.550	2.406	2.362	2.108	1.943	1.833	1.710	1.674	1.479	1.444	1.431	1.730	2.077	1.710	1.343	1.161	0.972	1.120	0.874	0.911	0.959	1.200	1.020	0.811	0.740	0.743	0.729	0.821	1.037	2.519	11.89	40.61	71.03	46.29	6.052
595.0	43.55	36.20	33.46	33.96	23.81	24.94	27.14	27.19	32.79	65.01	79.51	39.05	32.05	38.47	180.0	686.0	95.67	9.043	7.385	6.573	6.574	5.824	5.444	5.081	4.674	5.056	4.904	4.846	4.620	5.178	4.369	4.239	4.064	3.701	3.519	3.345	2.982	2.950	2.551	2.475	2.427	2.265	2.158	2.063	1.893	1.823	1.703	1.552	1.488	1.428	1.299	1.135	1.220	1.248	1.719	1.775	1.420	1.038	0.968	0.909	0.859	0.777	0.814	0.811	1.156	1.090	0.755	0.643	0.615	0.627	0.657	0.962	3.039	9.567	20.68	63.44	36.23
600.0	40.32	39.73	39.11	36.02	29.84	26.82	24.68	27.74	31.30	49.44	93.83	51.89	36.83	33.12	59.85	467.2	389.8	15.77	6.111	5.643	5.545	5.427	4.570	4.416	4.123	4.515	3.933	4.432	4.141	3.971	3.815	3.843	3.491	3.385	2.843	2.811	2.691	2.519	2.347	2.178	1.924	1.987	2.035	1.729	1.668	1.599	1.534	1.450	1.267	1.271	1.042	1.172	1.016	0.999	1.265	1.616	1.593	1.038	0.926	0.865	0.731	0.753	0.768	0.718	0.822	1.125	0.843	0.662	0.647	0.578	0.577	0.682	1.112	2.552	5.052	22.49	64.83
605.0	39.78	47.62	44.07	36.54	33.35	26.73	31.85	37.43	42.58	59.77	103.9	83.55	55.74	43.11	42.83	196.1	598.3	57.38	6.214	5.216	4.583	4.933	4.393	3.993	3.947	3.976	3.467	3.653	3.504	3.544	3.591	3.155	3.192	2.982	2.622	2.357	2.566	2.079	1.954	1.963	1.777	1.803	1.610	1.680	1.512	1.421	1.431	1.343	1.117	1.112	0.964	1.076	0.926	0.773	1.031	1.339	1.504	1.180	0.998	0.844	0.799	0.730	0.819	0.729	0.786	1.079	1.067	0.857	0.749	0.670	0.566	0.660	0.750	0.977	1.619	5.636	28.67
610.0	54.43	62.31	51.93	42.15	36.68	34.78	45.47	58.83	73.88	98.45	130.8	153.0	108.0	81.25	69.66	93.02	440.5	308.3	13.58	4.469	4.052	3.730	3.578	3.490	3.238	3.088	2.875	2.982	2.980	2.968	2.786	2.483	2.508	2.407	2.166	2.051	2.039	1.740	1.754	1.661	1.491	1.353	1.364	1.285	1.222	1.252	1.198	1.197	1.044	0.952	0.892	0.901	0.839	0.805	0.895	0.924	1.262	1.298	1.181	0.933	0.827	0.839	0.937	0.864	0.913	1.146	1.233	1.177	0.986	0.862	0.842	0.906	0.795	0.838	1.042	1.793	7.146
615.0	62.35	64.72	62.12	46.04	41.47	42.56	55.33	66.40	88.55	115.0	142.4	181.0	138.6	101.5	87.45	73.35	177.1	482.6	65.34	3.901	3.204	3.222	2.951	2.697	2.640	2.712	2.505	2.412	2.280	2.548	2.435	2.231	2.033	2.060	1.819	1.631	1.650	1.466	1.579	1.340	1.334	1.098	1.268	1.167	1.068	1.045	0.991	1.011	0.887	0.861	0.764	0.832	0.711	0.807	0.740	0.731	0.908	1.194	1.167	0.962	0.889	0.847	0.884	0.997	0.983	1.055	1.152	1.310	1.248	1.042	0.963	0.944	0.840	0.781	0.911	1.050	2.138
620.0	64.30	67.58	68.93	49.70	41.93	44.26	53.12	69.76	84.71	107.0	131.2	163.5	154.7	102.0	86.78	67.08	90.03	368.8	238.3	6.063	3.056	2.822	2.465	2.268	2.393	2.361	2.061	2.275	2.099	2.003	1.949	1.959	1.751	1.711	1.588	1.473	1.424	1.270	1.398	1.176	1.152	1.065	0.971	1.012	1.015	0.978	0.861	0.895	0.856	0.796	0.678	0.723	0.707	0.771	0.739	0.650	0.775	1.059	1.219	0.954	0.838	0.838	0.755	0.912	0.955	0.891	0.958	1.152	1.138	1.070	1.007	0.788	0.801	0.718	0.753	0.790	1.005
625.0	56.47	64.53	68.29	51.01	43.23	45.04	55.94	69.77	81.67	105.0	127.4	145.9	160.9	105.6	84.05	64.53	66.16	175.5	391.9	25.09	2.660	2.368	2.447	2.184	2.012	1.909	1.943	2.121	1.805	1.805	1.671	1.706	1.712	1.614	1.189	1.346	1.262	1.096	1.074	0.952	1.132	0.917	0.897	0.937	0.912	0.791	0.876	0.946	0.764	0.682	0.635	0.615	0.707	0.724	0.661	0.687	0.690	0.743	0.955	0.947	0.952	0.824	0.779	0.864	0.954	0.957	0.870	1.047	1.101	1.196	0.841	0.775	0.936	0.728	0.745	0.770	0.722
630.0	56.38	66.55	71.84	57.89	43.73	45.83	54.27	66.97	81.88	102.5	118.0	134.8	150.4	116.2	88.13	63.31	60.56	68.96	303.7	159.4	4.995	2.315	2.029	1.892	1.840	1.631	1.578	1.709	1.403	1.575	1.423	1.353	1.325	1.231	1.175	1.242	1.072	0.969	0.889	0.877	0.922	0.869	0.854	0.846	0.863	0.784	0.745	0.715	0.700	0.615	0.587	0.579	0.680	0.595	0.608	0.594	0.564	0.696	0.808	0.929	0.945	0.777	0.787	0.807	0.899	0.902	0.872	0.998	0.942	1.096	1.038	0.831	0.873	0.747	0.765	0.785	0.658
635.0	66.71	74.75	70.63	62.78	47.06	47.24	54.26	65.17	83.27	97.45	119.1	132.7	136.4	128.6	89.72	64.18	59.47	40.00	99.60	324.2	39.29	2.154	1.916	1.554	1.630	1.267	1.383	1.333	1.381	1.351	1.258	1.152	1.147	1.073	1.050	0.862	1.016	0.816	0.786	0.724	0.761	0.680	0.756	0.753	0.668	0.767	0.658	0.626	0.668	0.521	0.517	0.553	0.542	0.617	0.591	0.555	0.586	0.667	0.698	0.867	0.847	0.924	0.754	0.899	0.802	0.834	0.983	0.967	0.978	0.971	1.001	0.978	0.985	0.789	0.881	0.702	0.598
640.0	63.65	83.77	70.04	59.92	44.10	47.06	54.10	64.82	75.73	95.13	116.7	127.3	123.4	126.6	93.56	63.77	60.03	32.81	31.07	265.6	142.2	2.927	1.778	1.377	1.287	1.328	1.204	1.230	1.242	1.219	1.144	1.073	0.964	1.094	0.808	0.810	0.790	0.779	0.779	0.646	0.703	0.658	0.593	0.654	0.588	0.658	0.630	0.539	0.627	0.540	0.503	0.452	0.489	0.576	0.501	0.640	0.529	0.654	0.652	0.650	0.830	0.825	0.877	0.864	0.646	0.905	0.920	0.882	0.883	0.909	0.889	0.993	0.897	0.812	0.712	0.696	0.637
645.0	66.41	84.42	73.18	55.78	44.04	44.89	51.27	62.03	71.24	93.15	105.4	124.2	120.3	121.8	97.92	62.49	56.37	31.70	14.53	126.1	264.0	11.28	1.763	1.421	1.332	1.083	1.155	1.144	1.085	1.074	0.926	0.934	0.932	0.838	0.806	0.786	0.756	0.764	0.675	0.637	0.625	0.641	0.548	0.633	0.517	0.621	0.557	0.509	0.698	0.575	0.529	0.507	0.523	0.507	0.470	0.592	0.470	0.576	0.569	0.534	0.660	0.664	0.864	0.721	0.870	0.776	0.808	0.874	0.865	0.884	0.839	0.909	0.935	0.871	0.654	0.703	0.572
650.0	62.92	78.18	79.04	56.34	47.40	42.26	52.38	55.99	66.05	84.87	96.91	112.5	113.7	104.4	98.61	60.38	53.40	29.79	10.25	39.82	281.1	52.54	1.772	1.325	1.266	1.146	1.067	1.062	0.826	0.946	0.952	0.930	0.913	0.750	0.709	0.733	0.759	0.686	0.628	0.691	0.599	0.544	0.554	0.537	0.541	0.567	0.530	0.573	0.601	0.498	0.473	0.442	0.497	0.496	0.512	0.498	0.454	0.545	0.546	0.617	0.580	0.779	0.796	0.719	0.790	0.758	0.764	0.796	0.877	0.833	0.868	0.791	0.860	0.834	0.778	0.645	0.570
