Sample:	'1
File name:	Default_20250716_160731.FD3
Run date:	'16:01:10, 07/16/2025
Operator:	dsjg
Comment:	'

Instrument
Model:	F-2700 FL Spectrophotometer
Serial number:	2198-001
ROM Version:	4J14000 07

Instrument parameters
Measurement type:	3-D scan
Data mode:	Fluorescence
EX  Start WL:	220.0 nm
EX  End WL:	600.0 nm
EX Sampling interval:	5.0 nm
EM  Start WL:	230.0 nm
EM  End WL:	650.0 nm
EM Sampling interval:	5.0 nm
Scan speed:	12000 nm/min
EX Slit:	5.0 nm
EM Slit:	5.0 nm
PMT Voltage:	700 V
Response:	Auto 
Corrected spectra:	Off
Contour interval:	50.000

Peak integration
Integration method:	Rectangular
Sensitivity:	1
Threshold:	1.000

Peaks
No.	ApexEX/EM(nm)	Height(Data)
1	225.0/340.0	 5408
2	240.0/265.0	186.4
3	245.0/270.0	164.0
4	250.0/275.0	181.2
5	250.0/460.0	 1208
6	255.0/280.0	198.6
7	260.0/285.0	187.5
8	265.0/585.0	35.57
9	270.0/300.0	287.8
10	270.0/595.0	32.92
11	275.0/305.0	328.1
12	275.0/340.0	 1586
13	275.0/610.0	28.33
14	280.0/620.0	25.20
15	305.0/455.0	303.6
16	320.0/360.0	264.3
17	335.0/380.0	128.3
18	340.0/385.0	109.9
19	345.0/390.0	93.13
20	350.0/400.0	108.7
21	355.0/405.0	116.7
22	360.0/410.0	110.1
23	365.0/420.0	116.8
24	365.0/455.0	144.0
25	370.0/425.0	126.2
26	380.0/440.0	139.3
27	385.0/445.0	128.4
28	415.0/485.0	24.03
29	425.0/495.0	14.37
30	430.0/505.0	12.80
31	435.0/510.0	10.05
32	440.0/520.0	9.524
33	445.0/525.0	8.572
34	450.0/530.0	6.892
35	455.0/340.0	17.76
36	455.0/540.0	6.205
37	460.0/545.0	5.450
38	470.0/560.0	3.881
39	475.0/565.0	3.261
40	480.0/575.0	2.456
41	485.0/580.0	2.290
42	505.0/275.0	2.160
43	505.0/460.0	6.428
44	515.0/280.0	2.280
45	520.0/285.0	2.160
46	540.0/295.0	2.619
47	545.0/300.0	2.863
48	555.0/340.0	8.388

Data points
	220.0	225.0	230.0	235.0	240.0	245.0	250.0	255.0	260.0	265.0	270.0	275.0	280.0	285.0	290.0	295.0	300.0	305.0	310.0	315.0	320.0	325.0	330.0	335.0	340.0	345.0	350.0	355.0	360.0	365.0	370.0	375.0	380.0	385.0	390.0	395.0	400.0	405.0	410.0	415.0	420.0	425.0	430.0	435.0	440.0	445.0	450.0	455.0	460.0	465.0	470.0	475.0	480.0	485.0	490.0	495.0	500.0	505.0	510.0	515.0	520.0	525.0	530.0	535.0	540.0	545.0	550.0	555.0	560.0	565.0	570.0	575.0	580.0	585.0	590.0	595.0	600.0
230.0	96.43	 1175	 2197	486.7	24.96	14.01	11.86	9.907	8.114	6.698	6.676	5.715	4.834	4.155	3.585	3.123	2.890	2.391	2.230	1.960	1.814	1.746	1.701	1.570	1.503	1.401	1.430	1.413	1.366	1.260	1.276	1.281	1.134	1.143	1.054	1.096	1.117	1.054	1.024	0.984	1.033	1.186	1.287	1.115	0.944	0.853	1.028	3.445	7.000	6.996	3.749	1.387	0.820	0.795	0.785	0.765	0.812	0.780	0.798	0.766	0.823	0.776	0.826	0.814	0.781	0.846	0.775	0.843	0.832	0.878	0.894	0.800	0.866	0.886	0.859	0.941	0.885
235.0	109.9	353.0	 1385	 1875	442.3	25.35	13.31	9.625	8.503	7.090	6.861	5.546	5.491	4.550	3.589	3.183	2.998	2.223	2.328	2.008	1.846	1.760	1.652	1.517	1.441	1.382	1.483	1.375	1.368	1.408	1.233	1.234	1.133	1.137	1.028	1.108	1.119	1.115	1.041	0.981	1.000	1.040	1.097	1.138	1.271	0.983	0.914	1.384	2.523	4.360	6.100	7.531	5.294	1.756	0.829	0.834	0.843	0.873	0.687	0.902	0.763	0.720	0.804	0.823	0.810	0.891	0.797	0.846	0.766	0.833	0.826	0.829	0.800	0.824	0.804	0.899	0.884
240.0	150.2	150.4	436.2	 1630	 1750	303.9	15.08	11.06	8.480	7.557	7.036	6.229	5.377	4.765	3.719	3.165	2.905	2.240	2.390	2.062	1.857	1.777	1.584	1.502	1.604	1.444	1.603	1.409	1.427	1.303	1.235	1.245	1.199	1.182	1.084	0.968	1.119	1.021	0.974	0.974	0.991	0.920	1.071	1.003	1.109	1.307	1.093	1.128	1.206	1.532	2.683	6.722	9.490	7.809	3.551	1.224	0.905	0.818	0.782	0.818	0.836	0.738	0.806	0.822	0.884	0.839	0.859	0.883	0.799	0.870	0.819	0.928	0.869	0.801	0.822	0.992	0.849
245.0	139.1	161.0	139.8	601.1	 1860	 1462	183.3	12.66	9.042	7.634	7.223	5.894	5.076	4.376	3.744	3.307	2.905	2.520	2.367	1.927	2.005	1.767	1.611	1.614	1.565	1.481	1.427	1.415	1.367	1.348	1.300	1.151	1.208	1.130	1.077	0.976	1.007	1.055	1.021	0.937	0.941	0.901	0.931	0.893	0.900	1.197	1.309	1.442	1.055	0.919	1.132	2.403	5.322	8.733	9.241	5.900	2.149	0.897	0.791	0.807	0.814	0.788	0.892	0.761	0.842	0.819	0.776	0.848	0.796	0.891	0.816	0.817	0.877	0.855	0.850	0.833	0.922
250.0	77.32	140.7	156.0	183.1	631.4	 1458	 1451	225.8	26.15	8.263	7.679	6.199	5.111	4.482	3.916	3.330	3.052	2.361	2.193	1.972	1.950	1.763	1.703	1.483	1.537	1.544	1.473	1.482	1.373	1.349	1.305	1.243	1.141	1.060	1.115	1.026	1.006	0.956	1.006	0.955	0.997	0.953	0.984	0.978	0.936	0.944	0.967	1.154	1.238	1.057	0.991	1.222	1.813	3.073	4.835	6.748	7.753	6.693	4.145	1.846	0.937	0.819	0.774	0.788	0.786	0.841	0.820	0.890	0.772	0.816	0.884	0.842	0.868	0.898	0.869	0.937	0.911
255.0	55.00	67.17	138.2	181.3	186.3	386.7	 1135	 1663	282.5	21.52	7.792	6.429	5.719	4.670	4.169	3.160	2.952	2.650	2.249	2.060	2.005	1.864	1.746	1.648	1.493	1.524	1.567	1.476	1.380	1.360	1.387	1.286	1.138	1.106	1.101	0.981	1.057	0.821	1.027	0.964	1.011	0.970	0.946	0.877	0.956	0.893	0.832	0.957	0.963	0.894	1.273	1.506	1.345	1.355	1.679	2.152	2.980	5.112	8.242	8.934	5.178	1.850	0.824	0.859	0.838	0.829	0.843	0.764	0.826	0.780	0.815	0.882	0.833	0.902	0.839	0.912	0.987
260.0	49.92	42.31	69.66	174.5	152.4	115.1	360.0	 1395	 1487	215.1	15.55	6.771	5.971	5.317	3.996	3.348	2.914	2.579	2.337	2.150	1.945	1.817	1.803	1.667	1.497	1.449	1.372	1.571	1.254	1.394	1.250	1.365	1.151	1.122	1.304	0.968	0.972	0.925	1.004	1.043	0.914	0.986	1.023	0.970	0.978	0.898	0.788	0.884	0.831	0.795	0.917	1.545	1.613	1.474	1.092	1.089	1.369	1.952	3.706	6.901	9.805	7.826	3.758	1.260	0.863	0.909	0.871	0.850	0.885	0.799	0.734	0.886	0.817	0.862	0.839	0.838	1.055
265.0	51.97	36.35	38.85	97.16	186.4	107.4	101.4	496.2	 1486	 1228	178.6	7.991	6.223	5.016	4.152	3.341	2.875	2.767	2.415	2.240	1.774	1.909	1.795	1.676	1.511	1.527	1.437	1.424	1.392	1.396	1.280	1.210	1.149	1.088	1.161	1.074	1.002	0.942	0.993	0.978	0.864	1.099	0.920	0.947	0.879	0.932	0.793	0.918	0.748	0.727	0.728	1.012	1.383	1.714	1.651	1.119	0.978	1.105	1.514	2.573	4.998	7.839	9.046	6.281	2.411	1.016	0.836	0.882	0.858	0.935	0.750	0.868	0.910	0.827	0.831	0.862	0.898
270.0	55.18	39.04	30.14	41.00	104.3	164.0	116.7	135.7	483.9	 1090	 1268	450.4	35.31	5.772	4.257	3.636	2.983	2.668	2.395	2.228	1.903	1.884	1.820	1.705	1.512	1.631	1.506	1.421	1.418	1.465	1.322	1.291	1.258	1.205	1.134	1.042	1.011	1.020	0.998	0.977	0.931	0.923	0.991	0.961	0.931	0.959	0.842	0.856	0.755	0.762	0.644	0.821	0.942	1.167	1.421	1.667	1.686	1.344	1.115	1.263	1.833	2.776	4.483	6.096	6.814	6.402	4.362	1.976	1.040	0.929	0.838	0.894	0.883	0.946	0.875	0.817	0.853
275.0	55.35	38.33	31.53	26.08	39.56	88.46	181.2	135.8	130.6	288.6	806.3	 1359	601.6	29.66	4.878	3.624	3.245	2.991	2.377	2.434	1.861	1.854	1.561	1.588	1.599	1.584	1.580	1.394	1.438	1.477	1.265	1.280	1.218	1.154	1.202	1.165	1.037	1.093	0.953	0.980	0.938	0.966	1.005	0.915	0.945	1.077	0.845	0.820	0.744	0.628	0.620	0.885	0.810	0.758	0.972	1.053	1.587	2.160	1.854	1.523	1.126	1.324	1.717	2.134	2.623	4.161	7.061	7.838	5.226	2.160	0.955	0.918	0.883	0.886	0.955	0.858	0.925
280.0	60.86	45.37	35.60	26.91	22.60	37.53	126.4	198.6	100.0	85.09	253.0	942.7	 1314	158.0	13.29	4.219	3.455	2.856	2.529	2.165	2.190	1.829	1.630	1.713	1.618	1.387	1.517	1.440	1.464	1.389	1.232	1.297	1.329	1.208	1.152	1.113	1.125	1.160	0.935	1.062	1.002	0.944	1.015	0.952	0.932	1.058	0.828	0.882	0.731	0.737	0.737	0.807	0.752	0.779	0.850	0.916	1.069	1.479	1.837	2.280	1.640	1.171	1.030	1.164	1.257	1.753	2.995	5.557	7.619	7.595	4.110	1.334	0.948	0.826	0.959	0.876	0.852
285.0	73.82	51.22	37.32	27.37	21.65	22.94	58.98	179.9	187.5	68.64	82.73	328.0	 1038	 1087	120.0	6.484	4.003	3.128	2.796	2.446	2.392	1.957	1.677	1.550	1.561	1.488	1.493	1.407	1.390	1.388	1.353	1.357	1.244	1.271	1.249	1.271	1.257	1.134	1.154	1.029	1.058	0.993	1.003	1.027	0.853	0.976	0.931	0.928	0.812	0.776	0.774	0.831	0.781	0.764	0.760	0.862	0.861	0.985	1.375	1.872	2.160	1.834	1.144	1.029	0.959	1.127	1.442	2.161	3.794	6.615	8.221	5.910	2.484	1.079	0.920	0.792	0.894
290.0	78.65	62.27	49.94	31.46	27.15	23.62	33.93	84.08	175.6	191.3	97.85	116.0	340.3	759.3	914.2	413.3	27.78	3.500	2.936	2.541	2.283	2.206	1.772	1.660	1.604	1.636	1.548	1.524	1.385	1.301	1.311	1.325	1.268	1.361	1.409	1.318	1.279	1.232	1.176	1.062	0.977	0.993	1.040	0.981	0.953	0.918	0.978	0.919	0.829	0.821	0.777	0.852	0.816	0.836	0.757	0.811	0.840	0.921	1.013	1.215	1.421	1.863	2.021	1.874	1.396	1.117	1.199	1.350	1.669	2.555	3.863	5.122	6.516	6.153	4.191	1.918	1.032
295.0	89.65	77.33	57.37	42.50	34.23	31.26	34.40	52.20	93.84	204.9	244.1	117.0	126.8	214.5	509.3	 1070	581.7	25.29	3.571	2.609	2.139	2.240	1.847	1.779	1.653	1.687	1.486	1.459	1.512	1.355	1.444	1.338	1.302	1.416	1.579	1.324	1.326	1.217	1.225	1.192	1.100	1.080	1.060	0.990	0.962	1.034	0.893	0.950	0.860	0.867	0.743	0.879	0.786	0.854	0.767	0.863	0.925	0.938	0.997	1.051	1.125	1.240	1.415	2.025	2.619	2.202	1.563	1.121	1.269	1.404	1.785	1.860	2.626	3.902	6.797	8.289	5.197
300.0	107.5	84.21	66.07	53.80	37.07	36.49	41.40	55.35	72.99	146.0	287.8	215.8	100.8	88.80	168.1	665.9	 1158	396.3	10.07	2.922	2.375	2.286	1.983	1.822	1.718	1.559	1.506	1.560	1.493	1.501	1.479	1.354	1.348	1.421	1.479	1.517	1.381	1.313	1.241	1.169	1.043	1.142	1.050	0.991	1.066	1.082	0.885	0.989	0.852	0.829	0.750	0.942	0.889	0.917	0.863	0.888	0.898	1.024	1.109	1.040	1.002	1.237	1.214	1.539	2.242	2.863	2.358	1.602	1.247	1.238	1.291	1.287	1.456	1.793	3.034	5.753	8.411
305.0	109.3	92.56	74.71	57.46	47.36	47.86	52.07	69.72	78.70	116.8	230.3	328.1	172.2	74.38	68.57	226.4	792.0	 1088	78.72	4.876	2.853	2.281	1.831	1.903	1.864	1.649	1.643	1.633	1.735	1.379	1.481	1.512	1.278	1.370	1.510	1.600	1.502	1.237	1.259	1.168	1.141	1.010	1.235	1.064	1.011	1.040	0.859	0.910	0.922	0.870	0.751	0.884	0.901	0.878	0.975	0.995	1.020	1.030	1.072	1.127	1.015	1.175	1.321	1.340	1.539	2.116	2.628	2.687	2.029	1.383	1.315	1.322	1.282	1.299	1.585	2.396	4.168
310.0	141.9	137.7	97.91	66.13	60.05	66.98	84.96	101.4	119.4	147.4	197.7	282.2	319.4	140.2	70.05	84.31	249.1	655.6	721.7	307.7	20.04	3.104	2.236	1.990	1.731	1.688	1.660	1.603	1.586	1.534	1.430	1.352	1.321	1.326	1.572	1.676	1.465	1.404	1.272	1.286	1.151	1.132	1.178	1.099	1.148	1.061	1.045	1.027	0.974	0.880	0.790	0.979	0.893	0.962	0.986	1.017	1.121	1.168	1.314	1.271	1.264	1.318	1.518	1.594	1.542	1.714	2.000	2.376	2.785	2.548	1.984	1.551	1.396	1.305	1.255	1.454	1.851
315.0	441.2	524.6	294.7	121.4	96.55	116.9	158.1	192.5	235.1	262.6	274.8	339.6	373.9	389.7	142.7	93.44	106.3	189.3	378.6	929.9	441.4	20.26	3.163	2.227	1.994	1.802	1.810	1.641	1.691	1.608	1.387	1.458	1.292	1.482	1.632	1.494	1.532	1.496	1.499	1.282	1.376	1.533	1.394	1.615	1.795	2.042	2.204	2.493	1.876	1.224	1.132	1.059	1.139	1.094	1.224	1.293	1.302	1.585	1.697	1.678	1.974	1.868	2.026	2.066	2.249	2.346	2.528	2.403	2.634	2.655	3.332	2.997	1.944	1.601	1.336	1.414	1.385
320.0	 1468	 1411	898.9	329.6	183.6	214.7	287.7	360.2	454.5	534.0	617.1	636.6	592.3	597.7	444.5	206.1	118.1	116.4	154.8	537.9	 1021	310.1	10.15	2.860	2.292	1.786	1.922	1.751	1.618	1.620	1.562	1.637	1.403	1.583	1.690	1.811	1.631	1.771	1.869	1.814	1.975	2.228	2.260	3.078	3.963	4.886	5.495	6.626	5.254	3.385	1.962	1.663	1.514	1.457	1.561	1.660	1.671	1.956	2.507	2.623	2.992	3.313	3.413	3.502	3.646	3.681	3.955	3.804	3.644	3.663	3.673	4.134	3.980	2.864	2.207	1.852	1.487
325.0	 2636	 3137	 2026	692.5	354.1	342.0	450.0	558.8	688.0	817.3	941.4	979.4	886.1	776.9	682.9	420.6	203.8	149.8	124.5	223.6	695.0	954.6	61.90	5.616	2.714	2.080	1.893	1.761	1.839	1.530	1.466	1.585	1.466	1.454	1.700	1.935	2.073	2.064	2.236	2.436	2.658	3.158	3.825	4.870	5.942	7.906	9.332	10.98	9.636	6.428	3.848	2.852	2.288	2.167	2.003	2.068	2.364	2.814	3.301	3.422	4.022	4.242	4.573	5.211	4.996	5.261	5.479	5.227	5.037	5.064	4.646	4.857	4.950	4.725	3.845	2.790	2.092
330.0	 3118	 4040	 2896	 1249	642.7	503.0	588.1	729.9	868.3	 1023	 1187	 1234	 1130	956.6	772.9	624.6	395.5	234.6	168.6	158.6	283.5	605.7	619.2	246.2	16.94	2.414	2.086	1.722	1.765	1.746	1.554	1.583	1.549	1.563	1.942	2.194	2.184	2.318	2.570	2.614	3.043	3.734	4.200	5.467	6.965	9.431	11.25	13.74	12.36	9.194	5.960	4.828	3.705	3.090	2.879	2.764	3.053	3.371	3.882	4.013	4.669	5.172	5.499	5.908	6.336	6.506	6.734	6.728	6.399	6.381	6.082	5.639	5.394	5.119	5.035	4.301	3.502
335.0	 3830	 5132	 3689	 1731	893.4	667.1	742.3	887.6	 1047	 1235	 1437	 1509	 1383	 1165	898.2	667.5	566.1	381.4	230.4	180.0	193.7	234.0	338.8	850.0	361.4	15.98	2.643	1.899	1.948	1.802	1.643	1.487	1.669	1.637	2.020	2.363	2.372	2.542	2.831	3.075	3.536	4.287	5.021	6.602	8.672	11.41	13.65	16.24	15.23	11.16	7.744	6.728	5.013	4.423	3.692	3.322	3.648	3.852	4.354	4.901	5.286	6.167	6.407	7.106	7.669	7.847	8.063	7.814	7.688	7.615	6.978	6.609	6.118	5.604	4.925	4.346	4.648
340.0	 3971	 5408	 4059	 1973	 1024	735.4	784.3	949.9	 1105	 1294	 1510	 1586	 1474	 1239	950.4	693.2	558.5	494.0	285.5	197.8	180.2	156.0	138.3	451.2	905.8	257.3	6.209	2.102	2.054	1.829	1.639	1.634	1.656	1.579	1.980	2.214	2.373	2.683	2.821	3.156	3.627	4.554	5.461	7.043	9.075	12.28	14.38	17.76	16.41	12.30	8.692	7.588	5.820	4.932	3.977	3.719	3.978	4.409	4.778	5.191	5.454	6.173	6.759	7.527	7.895	8.154	8.176	8.388	8.069	7.957	7.559	6.896	6.494	6.044	4.861	4.463	4.530
345.0	 3752	 5068	 3957	 2047	 1076	760.3	766.5	916.1	 1053	 1241	 1436	 1515	 1407	 1208	935.6	682.1	513.9	483.5	369.6	211.6	176.1	140.4	87.49	145.8	586.1	833.2	50.65	3.496	2.247	1.972	1.812	1.750	1.629	1.627	1.981	2.085	2.243	2.525	2.652	3.082	3.460	4.181	4.819	6.187	8.426	10.98	13.19	16.13	15.26	11.90	8.798	7.627	5.913	4.782	4.148	3.791	4.007	4.198	4.717	5.111	5.226	5.848	6.625	7.126	7.636	7.733	8.061	8.025	7.878	7.664	7.394	6.786	6.501	5.574	5.309	4.496	4.273
350.0	 3215	 4354	 3512	 1957	 1065	729.6	709.4	821.4	945.8	 1107	 1286	 1338	 1261	 1096	863.3	640.9	476.2	397.4	373.8	284.2	179.9	133.1	78.09	56.99	163.4	489.4	527.7	212.9	14.34	2.278	1.868	1.804	1.659	1.748	1.959	2.069	2.171	2.333	2.591	2.863	3.162	3.688	4.437	5.475	7.301	9.481	11.30	14.18	13.42	10.77	8.267	7.412	5.819	4.923	4.040	3.753	3.751	4.021	4.076	4.716	4.932	5.406	6.073	6.306	7.085	7.132	7.514	7.103	6.913	6.870	6.682	6.370	5.835	5.251	5.126	4.369	4.082
355.0	 2718	 3708	 3044	 1775	997.7	670.0	632.2	721.9	821.6	948.5	 1111	 1170	 1104	956.1	767.5	580.2	432.8	336.9	285.6	295.0	236.5	129.8	73.35	37.75	48.89	120.4	250.6	726.3	323.5	14.48	2.135	1.839	1.541	1.684	1.789	1.937	2.231	2.176	2.265	2.658	2.852	3.162	4.073	4.692	6.266	8.150	9.507	12.10	11.90	9.629	7.470	7.058	5.560	4.751	3.914	3.560	3.523	3.518	3.628	4.188	4.549	4.967	5.535	5.784	6.307	6.273	6.577	6.024	6.368	6.258	6.128	5.512	5.378	4.926	4.709	4.109	3.715
360.0	 2217	 3042	 2655	 1587	915.0	610.1	577.9	624.6	709.1	816.9	949.9	 1003	957.3	836.7	684.0	526.7	393.1	307.2	239.0	230.9	264.3	158.9	72.14	34.69	25.54	37.14	71.09	375.8	796.9	228.6	5.770	2.101	1.756	1.837	1.976	1.960	1.915	2.005	2.342	2.525	2.474	3.049	3.416	3.979	5.186	7.017	7.975	10.33	9.930	8.256	6.780	6.405	5.145	4.417	3.613	3.305	3.161	3.218	3.566	3.852	4.050	4.378	4.765	5.130	5.452	5.505	5.659	5.630	5.853	5.674	5.293	5.246	4.648	4.504	4.159	3.847	3.591
365.0	 1864	 2557	 2248	 1397	826.4	555.4	501.1	537.1	608.6	702.8	815.3	853.5	823.2	729.0	603.3	468.1	358.3	281.0	214.5	182.0	218.2	207.2	86.27	35.03	21.92	21.24	26.29	107.8	513.7	736.2	47.34	3.142	1.881	1.901	1.879	1.800	1.844	2.007	2.040	2.193	2.314	2.587	2.991	3.325	4.196	5.949	6.651	8.276	8.364	7.045	5.730	5.656	4.928	4.003	3.361	3.010	2.910	3.034	3.121	3.330	3.534	3.996	4.334	4.298	4.726	4.726	4.757	5.086	5.125	4.797	4.877	4.615	4.514	4.236	3.765	3.481	3.309
370.0	 1444	 1996	 1779	 1168	702.0	482.8	429.4	448.6	503.8	572.3	658.6	691.8	670.7	602.6	502.3	397.4	311.6	248.9	191.8	151.5	147.9	177.7	139.9	49.65	22.16	18.00	17.34	33.87	140.9	434.1	489.5	191.5	12.16	2.074	1.828	1.851	1.748	1.845	1.859	2.002	1.996	2.212	2.447	3.015	3.581	4.754	5.289	6.578	6.831	5.708	4.858	4.861	4.344	3.662	2.977	2.680	2.773	2.736	2.724	2.928	2.964	3.277	3.544	3.676	3.863	3.874	4.100	4.141	4.237	4.062	4.171	4.010	3.937	3.631	3.300	3.197	2.936
375.0	 1107	 1490	 1400	950.6	601.3	407.8	354.2	366.9	404.2	451.6	519.3	555.3	536.0	479.8	405.8	327.6	265.3	213.1	168.1	131.4	114.4	111.0	133.3	111.6	35.78	19.34	17.30	18.46	40.88	105.7	229.6	643.6	274.7	13.83	2.110	1.949	1.894	1.700	1.655	1.878	1.768	2.066	2.200	2.482	2.742	3.533	4.247	5.370	5.172	4.724	3.964	4.282	3.438	3.062	2.650	2.345	2.256	2.278	2.347	2.448	2.907	2.909	2.838	3.105	3.363	3.273	3.424	3.421	3.635	3.539	3.440	3.522	3.299	3.066	3.055	2.687	2.738
380.0	874.5	 1191	 1145	793.5	525.8	365.8	306.6	316.1	341.5	379.1	434.6	462.1	447.5	407.2	350.0	281.4	231.7	190.8	152.0	119.6	100.8	88.10	90.87	128.3	62.83	23.89	18.78	17.03	19.83	32.12	62.52	328.9	664.7	206.4	4.866	1.904	1.824	1.838	1.634	1.879	1.665	1.903	1.996	2.031	2.595	2.912	3.319	4.176	4.122	3.890	3.339	3.863	3.076	2.724	2.413	2.183	2.220	2.077	2.210	2.257	2.457	2.423	2.435	2.879	2.884	2.875	2.869	3.005	3.065	3.080	3.071	2.996	2.982	2.836	2.690	2.508	2.402
385.0	685.0	962.2	929.0	676.8	459.6	320.2	270.4	281.5	290.8	330.9	372.6	400.6	387.0	353.1	300.5	252.9	204.5	172.2	138.4	110.7	91.91	78.86	67.50	94.01	109.9	44.41	21.15	18.19	16.71	16.64	21.30	91.63	431.4	659.9	38.49	2.776	2.082	1.847	1.578	1.745	1.681	1.632	1.847	1.979	2.145	2.851	3.017	3.455	3.584	3.346	3.018	3.302	2.732	2.510	2.250	1.989	1.964	1.985	2.053	2.044	2.223	2.352	2.320	2.421	2.650	2.650	2.733	2.848	2.834	2.766	2.891	2.832	2.674	2.681	2.513	2.267	2.200
390.0	562.7	752.2	747.8	567.0	383.0	282.2	241.8	238.2	244.2	271.4	308.7	328.0	322.3	295.5	255.2	214.4	179.0	154.9	124.4	101.0	85.76	73.85	59.83	58.16	88.57	93.13	42.87	22.82	20.14	16.76	15.54	29.60	117.4	383.0	377.5	149.8	11.15	2.306	1.811	1.695	1.524	1.533	1.763	1.801	1.854	2.377	2.512	2.863	3.026	2.836	2.585	2.836	2.479	2.313	2.026	1.820	1.801	1.877	1.890	1.898	1.987	2.074	2.240	2.129	2.247	2.330	2.447	2.457	2.580	2.433	2.414	2.425	2.421	2.313	2.322	2.063	2.092
395.0	420.7	584.8	586.3	469.8	330.8	247.6	212.8	210.7	211.3	229.2	258.7	275.3	270.8	250.4	217.8	183.1	158.4	137.8	114.7	94.54	83.68	72.69	60.23	50.46	56.93	85.48	98.17	45.63	27.60	23.94	21.45	22.26	40.57	99.09	178.5	491.1	221.8	10.94	2.115	1.888	1.500	1.394	1.560	1.641	1.789	1.946	2.041	2.430	2.514	2.268	2.086	2.482	2.289	2.166	1.865	1.762	1.711	1.691	1.804	1.626	1.683	1.860	1.951	1.918	1.964	2.114	2.091	2.170	2.313	2.136	2.226	2.172	2.151	2.141	2.379	2.205	2.200
400.0	353.6	489.8	496.8	428.8	302.8	238.4	209.0	199.9	201.3	216.1	237.5	251.5	249.7	225.2	200.9	170.9	146.6	131.2	110.4	93.90	81.59	75.26	64.68	55.07	53.38	65.29	108.7	86.16	41.25	32.94	30.09	28.91	30.52	40.23	58.44	259.6	503.5	40.49	5.125	1.976	1.730	1.535	1.498	1.566	1.603	1.884	1.915	2.203	2.176	1.981	1.922	2.252	2.178	1.975	1.750	1.723	1.776	1.689	1.696	1.758	1.714	1.736	1.789	1.917	1.813	1.907	2.000	1.999	2.232	2.101	2.076	1.986	1.920	2.000	1.987	2.150	2.007
405.0	326.0	411.1	434.3	385.5	285.4	235.1	208.7	202.3	196.1	205.5	232.7	239.3	232.8	214.9	188.7	164.7	142.1	126.5	110.1	94.76	84.67	79.02	70.77	63.39	60.29	61.80	87.20	116.7	60.49	45.09	40.85	39.55	36.76	35.07	35.42	84.78	320.3	411.8	33.77	2.997	1.638	1.499	1.482	1.471	1.640	1.840	1.788	1.878	1.961	1.972	1.807	1.995	1.962	1.866	1.668	1.668	1.774	1.712	1.810	1.760	1.829	1.839	1.805	1.689	1.837	1.701	1.799	1.875	1.988	1.960	1.925	1.889	1.771	1.829	1.839	1.777	1.972
410.0	283.7	360.7	386.3	352.6	282.3	253.6	236.3	219.5	203.1	203.7	222.5	226.4	221.8	203.8	180.5	159.9	138.5	126.6	111.4	98.16	87.66	82.88	76.65	71.58	68.52	66.92	75.21	99.87	110.1	75.25	55.81	52.03	46.94	41.39	37.40	43.54	97.09	253.1	302.1	128.1	8.417	1.618	1.541	1.396	1.474	1.509	1.588	1.777	1.851	1.737	1.665	1.977	1.863	1.947	1.898	1.903	1.940	1.936	1.803	1.810	1.823	1.789	1.791	1.783	1.886	1.804	1.758	1.842	1.812	1.822	1.858	1.850	1.881	1.834	1.793	1.750	1.820
415.0	263.7	331.7	358.5	342.1	300.5	287.2	281.1	252.4	210.7	200.8	206.1	211.8	205.5	193.3	173.5	154.2	139.5	131.0	115.5	101.7	90.42	84.95	79.96	75.27	72.61	71.15	73.35	79.83	100.3	116.0	76.50	59.57	52.97	45.70	40.67	35.55	40.20	68.27	138.0	365.1	166.3	7.415	1.534	1.495	1.441	1.511	1.553	1.710	1.738	1.588	1.629	2.014	1.912	2.050	2.124	2.006	2.207	2.090	1.978	2.003	1.941	1.768	1.794	1.782	1.680	1.691	1.725	1.691	1.676	1.698	1.758	1.815	1.839	1.793	1.742	1.844	1.898
420.0	246.3	317.8	341.2	349.7	334.2	345.3	347.8	297.2	238.6	199.5	199.6	204.5	201.0	188.1	171.5	156.4	147.7	141.9	126.2	109.6	95.17	84.60	80.51	76.37	77.05	74.46	76.16	78.00	84.18	116.8	105.2	70.07	57.06	49.27	42.12	35.32	27.35	26.64	39.17	185.5	359.3	36.93	3.406	1.591	1.510	1.501	1.620	1.642	1.759	1.528	1.637	1.918	2.031	2.149	2.280	2.259	2.483	2.474	2.316	2.239	2.022	1.811	1.936	1.703	1.812	1.676	1.603	1.638	1.848	1.608	1.714	1.888	1.871	1.746	1.948	1.800	1.799
425.0	271.6	320.2	353.0	358.3	384.1	410.7	431.6	365.3	272.9	213.1	198.6	199.2	201.8	187.8	177.3	167.3	161.4	154.8	138.8	121.9	101.2	87.31	81.65	80.52	80.65	80.51	82.11	82.36	82.93	102.7	126.2	93.42	65.19	53.49	46.40	37.48	26.47	18.08	15.93	51.47	229.5	281.6	30.77	2.060	1.573	1.521	1.542	1.737	1.791	1.574	1.707	2.087	2.190	2.480	2.529	2.657	2.733	2.831	2.813	2.639	2.190	1.983	2.089	1.793	1.693	1.705	1.601	1.800	1.746	1.737	1.698	1.780	1.879	1.871	1.985	1.849	1.761
430.0	299.5	329.5	378.2	416.8	469.6	534.0	578.3	492.3	336.5	240.6	205.5	207.9	207.6	205.5	196.7	192.0	186.5	184.9	171.2	148.1	115.2	95.87	87.32	87.23	89.67	91.52	95.89	96.88	96.43	101.0	118.9	127.3	95.13	66.38	55.37	44.18	31.53	19.65	12.14	16.77	62.22	180.5	240.5	101.2	7.188	1.613	1.549	1.791	1.782	1.704	1.732	2.208	2.521	2.825	2.949	3.107	3.385	3.479	3.470	3.229	2.754	2.364	2.261	1.897	1.809	1.753	1.641	1.661	1.846	1.746	1.710	1.817	1.960	1.994	2.080	2.004	2.092
435.0	507.0	360.1	412.9	492.3	580.6	703.5	763.1	644.6	421.6	275.9	217.2	215.5	225.0	222.6	218.7	220.6	223.2	224.2	207.6	176.0	131.6	104.4	93.45	95.67	99.10	104.4	111.4	115.0	115.9	116.3	117.7	131.5	131.7	91.59	67.69	52.83	36.92	23.17	13.14	9.496	18.45	44.27	105.4	282.1	131.0	5.759	1.732	1.793	1.851	1.799	1.891	2.248	2.810	3.165	3.539	3.734	4.397	4.447	4.292	3.932	3.244	2.922	2.588	1.942	1.771	1.756	1.656	1.733	1.929	1.907	1.861	1.886	1.913	2.251	2.220	2.364	2.372
440.0	884.1	402.7	445.1	540.9	675.8	810.3	893.6	746.0	498.4	298.4	225.0	220.9	228.3	232.6	233.2	240.9	248.0	251.8	233.8	195.9	142.9	108.5	98.12	100.6	104.5	111.6	119.6	126.1	127.3	127.7	126.2	127.2	139.3	116.0	77.29	57.55	40.67	25.46	14.55	8.798	8.571	12.93	27.88	153.9	288.9	32.51	2.854	1.872	1.843	1.979	2.070	2.621	3.172	3.495	3.972	4.137	5.084	4.912	4.922	4.621	3.741	3.282	2.574	2.078	1.845	1.900	1.868	1.739	1.934	1.905	1.996	2.199	1.998	2.208	2.180	2.483	2.435
445.0	 1265	524.7	460.8	580.1	733.2	924.4	 1010	844.6	537.2	318.5	230.4	223.5	237.0	243.8	244.4	255.8	265.3	271.5	257.0	214.1	152.7	111.4	99.36	101.6	108.8	114.8	127.7	134.1	135.6	134.8	135.2	127.4	127.0	128.4	91.93	61.01	42.27	26.39	15.74	9.562	6.478	5.980	8.875	42.89	202.5	239.0	23.07	2.260	1.922	2.180	2.234	2.869	3.342	3.829	4.432	4.436	5.248	5.722	5.413	5.098	4.266	3.466	2.851	2.193	2.019	1.798	1.942	1.832	1.841	1.901	1.938	2.184	2.013	2.344	2.354	2.443	2.490
450.0	 1229	984.6	505.1	611.6	793.5	 1009	 1124	938.4	592.2	333.8	227.9	222.1	235.4	249.3	255.3	270.1	283.6	292.9	275.3	229.1	158.2	112.3	98.45	100.5	109.0	119.0	131.4	137.6	141.8	141.1	140.2	131.2	119.3	115.0	105.7	72.46	45.04	27.41	16.27	10.36	6.612	4.747	4.587	11.98	54.39	163.1	209.1	82.49	6.210	2.157	2.320	2.995	3.527	4.048	4.687	4.880	5.813	5.929	5.931	5.359	4.533	3.676	2.946	2.169	1.931	1.711	1.809	1.802	1.845	1.953	2.042	2.259	2.092	2.276	2.509	2.510	2.690
455.0	699.2	 1451	728.3	633.8	824.6	 1065	 1192	995.0	625.3	342.4	221.7	215.9	231.5	247.4	259.3	274.2	291.1	303.6	288.6	237.1	160.8	110.0	94.78	99.43	107.3	117.3	131.1	137.3	143.8	144.0	142.1	132.3	117.5	102.0	95.76	85.59	52.68	28.57	16.96	10.67	6.601	4.777	3.603	4.934	14.22	39.61	94.30	237.9	107.2	4.987	2.162	3.029	3.633	4.113	4.897	5.375	6.131	6.424	6.387	5.588	4.841	3.768	2.820	2.344	1.909	1.723	1.701	1.775	1.806	1.984	2.063	2.134	2.057	2.324	2.518	2.607	2.561
460.0	447.4	 1309	 1079	636.7	821.9	 1067	 1208	 1016	632.6	342.0	214.9	210.9	228.0	241.9	256.1	274.1	291.3	301.1	286.0	236.0	158.2	107.2	91.83	94.82	105.6	116.0	129.2	135.3	141.5	142.1	142.1	131.1	116.1	98.84	85.27	82.82	61.54	31.79	17.31	10.65	6.694	4.752	3.444	3.271	5.134	11.01	24.74	132.2	242.1	24.88	3.066	3.302	3.524	4.197	4.837	5.554	6.376	6.428	6.087	5.661	4.762	3.639	2.849	2.275	1.931	1.703	1.735	1.714	1.914	1.958	2.050	2.078	2.217	2.392	2.502	2.519	2.529
465.0	373.2	918.5	 1441	729.7	812.6	 1046	 1170	995.4	617.3	325.3	212.0	199.0	222.6	235.7	250.0	264.2	284.4	294.5	277.8	229.6	153.6	102.1	88.59	92.42	102.3	112.5	126.1	132.4	137.4	140.4	137.1	128.5	112.7	94.15	78.87	70.12	65.28	37.96	18.50	10.52	7.006	5.007	3.491	2.884	3.087	4.756	7.718	37.26	175.5	178.6	19.22	3.328	3.519	4.087	4.787	5.368	5.987	6.286	6.220	5.516	4.788	3.736	2.952	2.233	1.892	1.596	1.629	1.783	1.852	1.843	2.016	1.999	2.298	2.161	2.317	2.528	2.498
470.0	341.1	526.9	 1284	 1149	786.8	988.4	 1101	940.3	585.0	307.5	193.7	186.6	202.8	222.0	228.6	246.8	266.2	274.0	259.7	212.9	142.4	93.10	82.18	84.61	94.47	104.3	116.5	122.6	128.9	129.8	128.3	120.3	104.6	87.32	71.77	58.60	52.33	43.75	24.36	11.15	6.866	4.704	3.718	3.139	2.814	3.103	3.777	10.40	47.78	123.8	151.7	66.87	6.193	3.919	4.484	5.104	5.768	6.051	6.108	5.229	4.530	3.552	2.766	2.198	1.853	1.584	1.527	1.664	1.740	1.816	1.929	2.019	2.080	2.140	2.339	2.352	2.415
475.0	327.8	398.8	714.4	 1458	928.1	899.6	 1007	845.9	531.0	279.3	177.6	173.4	183.0	197.0	208.0	221.0	240.6	247.2	238.7	196.6	129.4	85.05	73.23	76.13	84.69	93.53	105.1	109.9	114.8	117.1	116.1	109.5	96.29	78.98	64.21	51.16	40.28	35.03	31.49	15.27	6.977	4.472	3.787	2.863	2.954	2.760	2.830	4.184	12.62	29.93	68.26	171.2	29.71	5.781	4.161	4.863	5.509	5.716	5.562	4.899	3.939	3.262	2.608	2.045	1.684	1.507	1.356	1.687	1.736	1.690	1.887	1.985	1.917	1.943	2.207	2.370	2.357
480.0	322.7	348.1	456.5	 1233	 1194	846.8	933.5	779.3	483.6	259.8	161.1	159.2	171.0	179.3	190.8	202.2	223.4	227.6	217.2	180.7	119.4	78.14	67.31	69.05	76.71	84.78	95.80	101.9	106.4	107.8	106.1	99.11	88.34	72.98	59.18	47.44	34.50	26.67	29.22	21.31	8.705	4.657	3.633	2.924	2.783	2.887	2.541	2.854	4.631	8.451	18.22	91.63	160.2	27.24	4.708	4.473	5.044	5.250	4.898	4.413	3.624	2.949	2.383	2.096	1.608	1.508	1.365	1.483	1.510	1.736	1.859	1.716	1.790	1.957	2.054	2.195	2.286
485.0	312.2	326.9	374.2	828.5	 1414	872.4	849.8	729.1	449.5	243.4	151.7	146.9	158.8	165.8	175.5	189.1	204.4	211.6	199.9	165.6	109.2	71.85	61.22	64.15	69.61	77.71	88.52	93.35	97.99	100.2	97.92	91.53	80.28	67.02	54.34	42.49	31.37	21.42	21.73	24.03	12.62	5.083	3.714	2.911	2.897	2.797	2.499	2.451	2.807	3.512	6.046	26.01	119.9	142.9	21.03	4.405	4.853	5.011	4.726	4.283	3.536	2.860	2.267	1.962	1.609	1.384	1.489	1.439	1.457	1.451	1.648	1.609	1.758	1.795	2.012	2.031	2.186
490.0	267.9	312.3	317.5	499.1	 1171	 1120	774.8	634.7	397.4	215.2	138.0	130.5	140.9	146.6	155.0	166.5	179.4	185.4	177.1	145.6	96.14	63.46	53.85	56.41	61.26	69.73	77.77	82.23	86.09	88.33	86.96	80.97	71.30	59.81	48.22	37.64	27.65	19.01	14.94	17.80	17.52	9.369	4.229	2.864	2.690	2.632	2.573	2.566	2.301	2.278	2.954	7.864	33.29	92.72	123.4	54.38	6.754	4.626	4.316	3.974	3.386	2.637	2.202	1.683	1.474	1.501	1.453	1.391	1.458	1.489	1.547	1.593	1.682	1.734	1.817	1.952	2.050
495.0	217.5	292.1	287.2	366.6	684.2	 1258	809.7	536.4	339.8	187.9	122.5	114.3	123.0	128.3	131.3	142.8	152.8	160.6	151.5	123.0	81.99	54.63	46.58	48.10	53.03	60.29	66.69	70.78	75.64	76.13	74.88	69.81	60.80	50.78	40.75	32.57	23.94	16.64	12.57	10.63	13.64	14.37	7.131	3.314	2.748	2.487	2.309	2.597	2.356	1.921	2.060	3.600	9.557	23.34	62.44	147.5	32.35	6.670	3.702	3.394	2.971	2.302	1.831	1.599	1.446	1.310	1.432	1.324	1.328	1.474	1.565	1.625	1.458	1.477	1.609	1.723	1.906
500.0	192.4	260.4	269.9	306.4	461.7	 1056	989.4	478.6	299.2	166.1	109.7	102.4	110.1	114.6	117.7	124.6	134.2	140.3	132.3	107.0	72.77	47.86	41.43	42.91	46.47	52.08	58.74	62.05	67.24	67.55	65.80	61.73	54.38	44.96	36.87	29.21	21.86	14.68	10.79	8.000	9.220	14.30	11.24	4.445	2.751	2.452	2.328	2.344	2.235	1.955	1.875	2.442	4.047	7.385	17.57	81.22	142.8	30.99	3.975	3.111	2.703	2.134	1.859	1.594	1.397	1.250	1.333	1.306	1.293	1.280	1.500	1.465	1.383	1.482	1.545	1.662	1.816
505.0	171.6	220.6	250.8	275.6	367.0	721.4	 1095	497.3	263.3	147.0	99.39	92.35	97.29	102.7	102.6	107.2	120.1	122.8	117.3	94.97	64.84	42.48	35.97	38.32	41.44	46.56	50.95	55.47	59.60	59.53	57.86	54.46	47.34	40.50	33.02	25.15	19.28	13.53	9.549	7.172	6.654	9.953	12.80	7.148	3.084	2.389	2.142	2.269	2.057	2.106	1.832	2.071	2.623	3.696	6.126	23.38	103.1	220.8	20.67	3.017	2.428	1.998	1.775	1.570	1.276	1.190	1.242	1.250	1.189	1.204	1.384	1.431	1.348	1.456	1.596	1.537	1.787
510.0	154.3	170.4	214.9	244.6	296.2	443.5	862.2	690.2	236.0	124.3	85.66	80.54	85.33	85.71	86.80	89.88	98.90	102.0	96.05	79.64	54.50	36.53	30.69	32.17	35.13	39.05	43.48	46.31	49.26	48.87	48.41	45.43	40.36	33.74	27.69	21.44	16.56	11.78	8.076	6.545	5.235	5.779	9.269	10.05	5.702	2.739	2.088	2.080	1.991	1.957	1.851	2.033	2.073	2.559	3.319	7.261	28.82	140.0	99.29	42.48	4.337	1.873	1.628	1.401	1.177	1.111	1.185	1.182	1.190	1.159	1.315	1.356	1.364	1.264	1.474	1.431	1.509
515.0	128.3	137.3	174.2	225.7	250.2	319.4	485.1	763.5	317.9	104.3	71.47	68.87	69.96	72.52	72.02	74.80	81.04	82.61	78.49	64.99	44.41	30.33	25.83	27.26	29.15	32.00	36.15	37.85	39.49	39.45	40.17	37.52	32.88	27.35	22.78	18.28	13.11	10.09	7.259	5.854	4.388	4.085	4.898	8.481	9.311	4.394	2.221	2.013	1.816	1.646	1.620	2.146	1.889	2.011	2.388	3.398	8.345	33.61	45.14	110.7	30.72	3.036	1.598	1.382	1.156	1.097	1.094	1.288	1.112	1.301	1.201	1.213	1.271	1.219	1.388	1.437	1.359
520.0	115.2	119.0	143.2	200.5	222.8	264.7	325.9	602.7	473.9	99.85	63.29	60.11	61.18	63.99	62.76	63.67	68.30	70.69	66.03	56.46	37.85	26.15	22.35	23.02	25.51	27.50	30.72	32.18	33.67	34.80	34.46	32.27	27.58	23.36	19.64	15.58	11.66	8.735	6.895	5.281	4.161	3.611	3.483	5.499	9.524	6.912	2.885	1.902	1.777	1.635	1.531	2.003	1.958	1.841	2.027	2.674	3.565	9.360	12.81	59.64	100.7	23.85	1.957	1.186	1.156	1.061	1.117	1.080	1.122	1.183	1.187	1.039	1.210	1.217	1.351	1.356	1.439
525.0	104.2	106.6	127.6	169.4	212.2	223.4	253.7	374.7	573.0	151.6	57.81	53.58	55.09	53.84	54.67	56.40	59.26	60.82	57.22	49.63	33.37	23.41	20.07	20.80	22.60	24.80	27.24	28.03	28.42	30.07	30.05	27.52	24.15	20.67	17.20	13.92	10.68	8.123	5.735	4.664	4.077	3.415	2.998	3.496	7.101	8.572	4.666	2.088	1.618	1.571	1.504	1.784	2.030	2.009	1.961	2.247	2.406	3.701	4.519	16.93	68.98	86.39	16.45	1.246	1.103	1.077	1.026	1.078	1.042	1.103	1.345	1.168	1.190	1.227	1.319	1.189	1.387
530.0	88.22	100.3	103.3	126.8	185.3	196.1	200.2	213.5	409.1	320.0	67.85	46.49	47.33	46.84	46.09	46.24	49.28	50.13	47.73	39.53	28.12	19.46	16.68	17.34	18.43	20.17	22.25	23.24	24.37	25.27	25.21	22.87	20.70	17.26	14.60	11.82	9.060	6.956	5.183	4.369	3.675	3.119	2.821	2.646	4.030	6.814	6.892	3.687	1.915	1.525	1.497	1.576	1.815	1.973	1.914	1.931	1.906	2.321	2.547	5.271	18.91	53.19	70.28	20.11	2.685	1.100	1.033	1.039	1.061	1.015	1.153	1.023	1.107	1.162	1.172	1.137	1.175
535.0	78.88	89.39	90.47	98.76	144.8	174.4	165.1	146.0	186.1	385.7	172.1	39.59	40.84	39.14	38.73	38.91	39.76	40.45	39.48	31.97	23.25	15.96	14.13	14.74	15.60	17.15	18.64	19.01	20.12	20.42	20.30	19.13	17.06	14.18	12.04	9.673	7.674	5.971	4.521	3.857	3.422	2.756	2.721	2.339	2.703	3.663	6.110	5.750	3.075	1.727	1.506	1.517	1.785	1.785	1.959	2.040	1.738	1.889	1.831	2.604	5.482	13.21	29.90	73.80	28.23	2.318	0.988	1.028	1.027	1.048	0.984	1.058	1.028	1.164	1.110	1.171	1.172
540.0	81.07	74.05	79.51	85.08	114.7	156.7	148.4	119.0	104.0	280.3	270.5	48.74	36.53	33.27	33.22	33.60	34.32	34.75	32.59	27.45	19.21	13.88	12.60	11.99	14.02	14.56	15.72	16.95	17.12	17.33	17.50	16.57	14.85	12.62	10.45	8.461	6.934	5.160	4.265	3.688	3.099	2.575	2.511	2.175	2.367	2.456	4.103	6.205	4.501	2.071	1.376	1.404	1.545	1.626	1.672	1.923	1.823	1.586	1.644	1.768	2.375	4.059	8.159	38.74	73.60	21.53	1.447	1.047	0.960	1.029	1.006	1.067	1.092	1.008	1.022	1.088	1.216
545.0	72.87	63.64	70.44	75.41	91.60	137.2	135.2	101.0	74.83	147.2	332.5	104.3	32.31	29.47	29.64	28.96	30.15	31.56	29.31	24.26	16.41	12.61	10.90	10.74	11.69	12.51	14.07	14.76	15.01	15.33	15.45	13.87	12.99	10.99	9.327	7.735	6.165	4.930	3.673	3.368	2.806	2.632	2.268	2.208	2.228	2.037	2.736	5.218	5.450	2.798	1.501	1.417	1.439	1.542	1.570	1.844	1.882	1.612	1.545	1.554	1.551	1.878	2.831	10.85	48.09	64.95	13.70	1.043	0.997	0.949	1.054	1.031	0.973	1.017	1.124	1.000	1.196
550.0	72.77	63.20	58.51	67.83	75.57	103.0	121.3	87.64	58.05	64.67	213.2	228.9	45.64	26.06	24.78	24.43	25.28	25.56	23.78	20.12	14.39	10.58	9.490	9.542	9.844	10.53	11.24	12.14	12.44	12.68	12.37	12.03	10.65	9.398	7.872	6.642	5.273	4.310	3.449	3.190	2.664	2.425	2.197	2.048	1.957	1.908	1.935	3.045	4.695	4.135	2.385	1.453	1.371	1.367	1.357	1.457	1.698	1.670	1.459	1.362	1.297	1.423	1.525	3.282	12.99	37.74	42.12	19.25	2.432	1.009	0.973	0.998	0.915	1.048	0.994	0.980	1.058
555.0	65.60	59.98	51.38	57.62	61.18	73.67	99.57	82.21	48.39	39.98	80.69	233.2	136.2	22.69	20.78	20.18	20.28	20.25	19.04	16.25	11.96	9.127	7.906	8.015	7.959	9.068	9.631	10.16	10.12	10.41	9.738	10.10	8.874	7.673	6.658	5.465	4.415	4.100	3.301	2.874	2.290	2.381	2.082	1.942	1.897	1.681	1.586	1.919	2.655	4.117	3.711	2.140	1.398	1.255	1.198	1.270	1.467	1.587	1.550	1.368	1.250	1.207	1.152	1.501	3.707	9.347	18.57	51.95	25.84	1.954	0.938	0.936	0.974	0.965	0.966	0.997	0.950
560.0	58.46	57.76	49.57	49.47	52.77	60.27	78.72	78.46	42.61	30.04	36.14	152.5	213.0	33.32	17.77	17.90	18.06	18.01	16.33	14.28	10.72	7.716	6.863	6.988	7.081	7.629	8.188	8.940	8.897	8.977	8.680	8.587	7.386	7.075	5.611	4.747	3.995	3.446	2.915	2.542	2.141	2.199	1.790	1.912	1.775	1.624	1.552	1.474	1.778	2.886	3.881	2.733	1.534	1.165	1.248	1.254	1.226	1.314	1.536	1.401	1.262	1.086	1.163	1.105	1.605	2.819	5.226	25.11	50.81	17.07	1.390	1.007	0.991	0.933	0.996	0.918	0.993
565.0	60.67	49.96	45.28	43.16	48.13	50.92	62.07	71.13	45.03	26.70	24.48	74.04	217.4	85.10	15.68	15.82	15.94	14.87	13.90	11.72	9.651	7.058	5.960	6.514	6.272	6.590	6.937	7.181	7.447	7.915	7.500	7.538	6.583	5.846	4.933	4.494	3.616	3.013	2.795	2.263	2.164	2.116	1.881	1.664	1.757	1.494	1.436	1.384	1.433	1.883	3.185	3.261	1.966	1.265	1.095	1.117	1.187	1.253	1.413	1.385	1.233	1.123	1.044	1.054	1.089	1.482	1.949	7.074	30.77	37.99	9.842	1.020	1.029	0.902	0.980	0.908	1.003
570.0	56.14	47.16	41.70	36.50	38.14	41.71	47.10	55.15	48.21	23.03	19.67	32.41	123.7	160.7	33.75	12.66	12.48	12.20	10.99	9.585	7.623	5.953	5.173	5.160	5.234	5.532	5.700	6.080	6.141	6.290	6.167	6.076	5.462	4.825	4.108	3.618	2.994	2.624	2.459	2.174	1.921	1.737	1.732	1.513	1.528	1.388	1.328	1.284	1.298	1.309	1.885	2.735	2.366	1.594	1.079	1.088	1.123	1.080	1.202	1.179	1.223	1.156	1.051	1.014	0.979	1.016	1.235	2.348	8.411	22.35	31.22	14.53	1.826	1.011	0.907	0.935	1.018
575.0	51.56	43.48	34.54	31.05	31.17	35.89	33.83	38.08	44.00	26.94	16.86	19.39	44.72	135.6	110.2	11.10	9.982	9.332	8.695	7.578	6.053	5.041	4.281	4.277	4.237	4.391	4.618	4.634	4.800	5.006	5.163	5.128	4.299	3.862	3.328	2.992	2.548	2.362	2.116	1.876	1.640	1.627	1.429	1.411	1.379	1.220	1.191	1.206	1.167	1.011	1.184	1.776	2.456	2.202	1.292	1.028	1.067	1.041	1.173	1.003	1.149	1.085	1.171	0.980	0.969	0.980	1.025	1.228	2.605	5.748	12.10	30.05	15.73	1.889	0.928	0.954	1.046
580.0	53.06	42.29	32.76	28.02	30.78	29.20	27.55	29.73	38.34	33.35	17.15	16.26	21.12	82.75	151.4	23.88	8.819	7.894	7.162	6.808	5.344	4.354	3.892	3.890	3.883	3.631	3.802	4.137	4.232	4.116	4.404	4.513	3.574	3.214	2.766	2.723	2.422	2.094	1.874	1.735	1.606	1.375	1.335	1.248	1.347	1.376	1.094	1.124	1.022	0.911	0.974	1.209	1.952	2.290	1.657	1.160	1.017	1.014	1.087	1.066	1.060	1.042	1.090	1.031	0.986	0.885	0.864	1.018	1.377	1.984	3.578	14.25	28.77	11.58	1.285	0.938	0.963
585.0	55.40	39.23	31.52	29.86	26.52	25.97	27.18	23.36	28.47	35.57	19.32	15.43	15.16	36.91	133.8	71.48	7.757	7.488	6.455	5.883	4.898	3.767	3.805	3.149	3.331	3.119	3.528	3.286	3.906	3.584	3.727	3.776	3.213	2.937	2.551	2.296	2.137	1.859	1.646	1.520	1.601	1.350	1.516	1.231	1.211	1.231	1.134	1.245	0.999	0.917	0.811	1.042	1.513	2.003	1.801	1.288	1.079	0.956	1.066	0.948	0.838	1.024	1.112	1.107	1.025	0.870	0.892	0.972	1.094	1.164	1.572	4.216	17.19	27.70	6.284	1.014	1.004
590.0	52.86	38.84	32.44	27.09	21.60	22.58	22.63	20.18	19.74	31.74	26.24	14.39	13.12	16.58	69.02	120.2	25.39	6.213	5.604	4.795	4.089	3.359	3.057	2.827	2.733	2.975	3.013	3.010	3.320	3.137	3.223	3.165	2.802	2.584	2.435	2.025	1.807	1.593	1.511	1.370	1.461	1.312	1.280	1.170	1.135	1.153	1.136	1.074	1.001	0.788	0.749	0.926	1.000	1.393	1.700	1.650	1.155	1.025	1.004	0.911	0.822	1.038	0.990	1.039	1.123	0.923	0.875	0.958	0.975	1.015	1.094	1.629	4.926	14.43	17.30	8.994	1.599
595.0	54.54	40.47	32.56	22.44	20.61	19.97	20.12	17.98	15.62	22.36	32.92	15.91	12.48	11.30	23.61	88.36	85.43	6.697	4.785	4.373	3.476	3.168	2.737	2.605	2.665	2.770	2.672	2.736	2.767	2.704	2.885	2.530	2.426	2.326	2.038	1.884	1.857	1.392	1.426	1.368	1.471	1.173	1.266	1.104	1.024	1.102	1.020	1.025	0.972	0.763	0.727	1.010	0.881	0.978	1.298	1.724	1.407	1.191	0.921	0.926	0.935	0.923	0.882	0.958	1.046	0.984	0.939	0.911	0.913	0.937	0.972	1.073	1.830	3.920	6.622	16.50	10.10
600.0	45.76	41.22	30.92	24.19	20.88	20.15	19.39	17.50	15.32	16.42	31.27	21.07	12.62	9.826	11.36	48.84	113.9	19.13	4.323	4.038	3.144	2.900	2.378	2.433	2.396	2.368	2.627	2.320	2.436	2.522	2.499	2.291	2.186	2.032	1.815	1.671	1.736	1.489	1.411	1.397	1.291	1.120	1.174	1.061	1.036	1.055	0.957	1.068	0.890	0.868	0.705	0.938	0.938	0.805	1.028	1.420	1.498	1.299	0.955	0.883	0.911	0.977	0.920	0.928	0.942	1.042	1.024	1.061	0.895	0.867	1.041	0.946	1.174	1.567	2.188	8.087	17.01
605.0	43.83	35.52	31.61	22.10	20.27	19.48	17.10	15.18	13.98	14.90	26.54	27.03	13.33	8.612	8.392	21.06	93.38	54.93	4.169	3.719	3.013	2.591	2.482	2.220	2.284	2.126	2.342	2.244	2.261	2.259	2.258	2.062	2.022	1.879	1.489	1.562	1.513	1.456	1.263	1.105	1.123	1.227	1.089	1.086	1.057	0.984	0.892	1.028	0.827	0.788	0.694	0.860	0.835	0.842	0.850	1.121	1.474	1.238	0.992	0.832	0.876	0.917	0.884	0.921	0.995	0.906	1.048	0.930	0.954	0.887	0.988	0.930	0.969	0.979	1.183	2.707	9.876
610.0	46.21	38.80	29.73	22.29	20.15	16.49	16.24	15.35	13.84	14.26	20.48	28.33	16.97	9.010	7.393	9.373	42.90	85.16	20.25	3.447	2.850	2.430	2.164	2.125	2.104	1.994	2.097	2.148	1.987	1.970	2.135	1.968	1.842	1.703	1.547	1.499	1.393	1.407	1.347	1.144	1.195	1.101	1.083	1.067	0.956	0.965	0.899	0.927	0.835	0.785	0.737	0.805	0.739	0.837	0.844	0.943	1.217	1.170	1.178	0.916	0.914	0.849	0.995	0.869	0.919	0.905	1.035	1.039	0.884	0.921	0.947	0.804	0.795	0.878	1.024	1.301	3.190
615.0	49.63	40.14	31.84	23.16	17.69	15.41	16.96	15.96	13.67	13.38	16.19	22.21	23.48	9.964	7.170	6.631	14.67	57.60	64.94	4.167	2.662	2.229	2.200	2.032	1.838	1.876	2.103	1.946	1.880	1.841	2.021	1.688	1.851	1.709	1.524	1.415	1.259	1.352	1.335	1.175	1.097	1.026	1.028	0.934	0.909	1.015	0.814	0.854	0.761	0.769	0.708	0.763	0.715	0.854	0.761	0.891	1.006	1.132	1.231	1.067	0.905	0.866	0.975	0.809	0.894	0.948	0.931	0.935	1.062	0.911	0.987	0.800	0.793	0.867	0.950	0.912	1.433
620.0	49.28	38.90	31.15	23.45	18.77	15.51	16.88	15.43	13.59	14.50	14.47	19.18	25.20	12.12	7.272	6.387	7.394	28.57	81.64	17.26	2.596	2.139	2.114	1.816	1.776	1.821	1.921	1.705	1.653	1.737	1.833	1.737	1.703	1.520	1.601	1.328	1.149	1.191	1.288	1.096	1.100	1.103	0.971	0.912	0.923	0.943	0.870	0.884	0.872	0.666	0.713	0.772	0.876	0.777	0.729	0.766	0.833	1.106	1.066	1.103	0.917	0.847	0.900	0.781	0.897	0.894	0.930	0.944	0.967	0.921	0.855	0.813	0.926	0.847	0.890	0.849	1.033
625.0	50.50	41.41	30.42	23.22	17.70	15.91	16.26	14.96	13.78	14.93	14.97	16.54	24.56	16.57	7.109	6.101	5.482	12.06	60.91	45.77	2.895	2.188	1.814	1.898	1.778	1.957	1.610	1.803	1.806	1.809	1.647	1.570	1.701	1.484	1.457	1.322	1.133	1.207	1.092	1.180	1.118	1.128	1.001	0.896	0.928	0.866	0.870	0.802	0.777	0.642	0.707	0.870	0.818	0.777	0.770	0.815	0.869	1.001	1.075	1.002	1.030	0.885	0.876	0.835	0.838	0.972	0.925	0.897	0.963	0.988	0.894	0.845	0.914	0.849	0.892	0.991	0.921
630.0	57.61	45.59	31.32	23.91	17.54	17.28	16.77	16.84	16.98	16.61	18.18	17.43	21.66	22.71	10.44	6.447	5.323	6.291	26.40	64.75	16.42	2.234	1.974	1.807	1.715	1.662	1.650	1.666	1.619	1.664	1.698	1.509	1.566	1.362	1.253	1.307	1.193	1.101	1.072	1.117	1.047	1.121	1.018	0.966	0.922	0.928	0.817	0.837	0.797	0.679	0.663	0.746	0.774	0.766	0.786	0.771	0.925	0.910	0.872	1.016	1.010	0.979	0.908	0.871	0.857	0.906	0.933	0.928	0.848	0.997	0.959	0.899	0.959	0.883	0.881	0.884	0.902
635.0	71.25	71.14	46.75	24.19	19.96	20.08	19.24	21.58	21.00	21.36	23.36	23.78	22.57	26.38	17.94	8.339	6.372	5.689	9.519	38.56	52.02	3.420	1.801	1.730	1.654	1.559	1.681	1.636	1.664	1.474	1.479	1.537	1.407	1.289	1.241	1.234	1.103	1.173	1.167	1.023	1.126	1.045	1.036	0.874	0.948	0.980	0.860	1.011	0.799	0.656	0.613	0.727	0.742	0.775	0.764	0.720	0.891	0.904	0.821	0.983	0.907	1.120	0.941	0.912	0.857	1.003	0.913	0.909	0.880	0.909	0.942	0.983	0.997	0.848	0.873	0.921	0.922
640.0	97.98	107.5	63.60	29.14	22.12	20.49	22.11	25.90	25.18	30.41	32.46	31.14	29.45	29.40	24.56	11.86	7.980	6.306	6.229	19.20	64.09	14.41	1.908	1.678	1.614	1.550	1.619	1.580	1.644	1.394	1.479	1.467	1.349	1.357	1.269	1.198	1.150	1.104	0.979	0.967	0.992	1.185	1.112	0.922	0.947	0.964	0.990	1.052	0.919	0.764	0.648	0.738	0.752	0.744	0.799	0.782	0.862	0.825	0.885	0.913	0.912	1.074	1.056	0.954	0.891	0.904	1.039	0.962	0.911	0.989	0.963	1.062	1.060	0.921	0.895	0.996	0.971
645.0	137.5	141.7	85.87	35.17	25.79	24.58	24.83	28.48	32.39	36.11	39.14	37.61	35.73	32.75	29.31	15.94	9.354	7.642	6.104	9.255	47.52	37.89	2.303	1.860	1.554	1.328	1.606	1.422	1.717	1.507	1.377	1.475	1.334	1.316	1.260	1.215	1.099	1.009	1.143	0.924	1.041	1.087	1.156	1.094	1.070	1.039	1.137	1.113	1.043	0.886	0.710	0.826	0.764	0.744	0.905	0.837	0.841	0.900	0.987	0.962	0.924	1.047	1.173	1.031	0.980	1.044	1.007	1.091	0.994	0.932	1.094	1.010	1.013	0.955	0.989	1.030	0.950
650.0	141.5	154.3	103.9	47.09	28.19	23.78	26.94	29.73	34.54	39.03	41.54	43.94	39.59	33.71	30.35	21.09	10.54	8.537	6.409	6.173	24.66	56.70	6.167	1.938	1.524	1.609	1.562	1.268	1.584	1.413	1.389	1.395	1.285	1.269	1.289	1.294	1.088	0.995	1.095	0.944	1.080	0.984	1.170	1.062	1.002	1.090	1.200	1.271	1.077	0.888	0.730	0.908	0.817	0.730	0.783	0.842	0.838	0.917	0.909	0.885	0.907	0.907	1.135	1.046	1.017	0.988	1.019	0.941	1.028	0.942	0.967	0.954	1.055	1.050	1.077	0.913	0.927
