Sample:	'1
File name:	t2025022713Ò»²ã³Ø2  8Íò±¶.FD3
Run date:	'10:25:44, 02/28/2025
Operator:	Administrator
Comment:	'

Instrument
Model:	F-2700 FL Spectrophotometer
Serial number:	23B8-004
ROM Version:	4J14000 07

Instrument parameters
Measurement type:	3-D scan
Data mode:	Fluorescence
EX  Start WL:	220.0 nm
EX  End WL:	600.0 nm
EX Sampling interval:	5.0 nm
EM  Start WL:	230.0 nm
EM  End WL:	650.0 nm
EM Sampling interval:	5.0 nm
Scan speed:	12000 nm/min
EX Slit:	5.0 nm
EM Slit:	5.0 nm
PMT Voltage:	700 V
Response:	Auto 
Corrected spectra:	Off
Contour interval:	50.000

Peak integration
Integration method:	Rectangular
Sensitivity:	1
Threshold:	1.000

Peaks
No.	ApexEX/EM(nm)	Height(Data)
1	225.0/490.0	182.0
2	230.0/500.0	162.6
3	235.0/255.0	398.9
4	235.0/515.0	132.7
5	240.0/265.0	487.3
6	240.0/525.0	125.4
7	245.0/270.0	500.7
8	245.0/540.0	119.0
9	250.0/275.0	689.7
10	250.0/550.0	114.3
11	255.0/565.0	159.0
12	265.0/585.0	342.2
13	270.0/300.0	4513
14	270.0/595.0	338.4
15	295.0/330.0	323.4
16	300.0/335.0	299.5
17	305.0/345.0	256.6
18	310.0/350.0	182.4
19	315.0/355.0	181.7
20	320.0/360.0	167.4
21	325.0/370.0	129.8
22	330.0/375.0	119.9
23	335.0/380.0	134.1
24	340.0/385.0	107.7
25	350.0/400.0	90.52
26	355.0/405.0	82.11
27	360.0/410.0	60.09
28	365.0/420.0	62.56
29	370.0/425.0	59.71
30	375.0/430.0	45.39
31	380.0/440.0	41.70
32	385.0/300.0	11.27
33	385.0/445.0	39.08
34	390.0/450.0	29.69
35	395.0/460.0	25.95
36	400.0/465.0	24.44
37	405.0/470.0	18.51
38	410.0/475.0	16.62
39	415.0/485.0	14.70
40	420.0/490.0	12.14
41	425.0/500.0	11.24
42	430.0/505.0	10.35
43	435.0/510.0	8.172
44	440.0/300.0	7.418
45	440.0/520.0	7.821
46	445.0/525.0	6.890
47	455.0/540.0	4.300
48	460.0/545.0	4.088
49	470.0/560.0	2.638
50	475.0/260.0	2.037
51	480.0/265.0	2.177
52	480.0/575.0	1.624
53	485.0/585.0	1.517
54	495.0/270.0	2.237
55	510.0/280.0	5.196
56	545.0/300.0	20.95
57	550.0/305.0	19.24
58	585.0/325.0	3.794

Data points
	220.0	225.0	230.0	235.0	240.0	245.0	250.0	255.0	260.0	265.0	270.0	275.0	280.0	285.0	290.0	295.0	300.0	305.0	310.0	315.0	320.0	325.0	330.0	335.0	340.0	345.0	350.0	355.0	360.0	365.0	370.0	375.0	380.0	385.0	390.0	395.0	400.0	405.0	410.0	415.0	420.0	425.0	430.0	435.0	440.0	445.0	450.0	455.0	460.0	465.0	470.0	475.0	480.0	485.0	490.0	495.0	500.0	505.0	510.0	515.0	520.0	525.0	530.0	535.0	540.0	545.0	550.0	555.0	560.0	565.0	570.0	575.0	580.0	585.0	590.0	595.0	600.0
230.0	87.98	1151	2631	681.0	23.26	4.182	3.056	2.618	2.404	2.467	2.599	2.014	1.503	0.970	0.808	0.662	0.594	0.579	0.489	0.487	0.448	0.373	0.300	0.280	0.292	0.308	0.340	0.233	0.270	0.261	0.220	0.224	0.244	0.210	0.192	0.184	0.225	0.190	0.203	0.227	0.421	0.760	0.742	0.386	0.191	0.191	1.208	4.886	8.057	5.375	1.687	0.305	0.135	0.151	0.120	0.125	0.142	0.119	0.100	0.124	0.115	0.118	0.130	0.117	0.126	0.125	0.111	0.123	0.114	0.140	0.116	0.117	0.122	0.112	0.100	0.129	0.123
235.0	231.9	328.2	1561	2196	479.1	29.92	4.452	3.018	2.793	1.905	3.241	2.200	1.693	1.073	0.715	0.747	0.621	0.565	0.429	0.365	0.450	0.394	0.302	0.299	0.304	0.300	0.320	0.206	0.282	0.227	0.212	0.204	0.219	0.212	0.215	0.214	0.182	0.194	0.167	0.191	0.259	0.348	0.642	0.796	0.593	0.379	0.431	1.320	3.208	5.321	6.865	6.114	2.461	0.485	0.131	0.127	0.140	0.125	0.135	0.156	0.104	0.102	0.102	0.136	0.112	0.115	0.109	0.143	0.086	0.167	0.131	0.104	0.136	0.142	0.136	0.153	0.148
240.0	327.1	231.9	474.3	1850	2027	346.8	17.20	3.933	3.260	2.751	3.251	2.502	1.497	1.152	0.807	0.988	0.630	0.542	0.404	0.352	0.440	0.372	0.325	0.376	0.308	0.305	0.397	0.217	0.244	0.292	0.227	0.194	0.233	0.192	0.244	0.171	0.225	0.216	0.165	0.186	0.179	0.189	0.351	0.590	0.818	0.858	0.484	0.474	0.873	1.618	4.088	8.662	9.556	6.344	1.654	0.242	0.131	0.140	0.139	0.139	0.104	0.127	0.119	0.159	0.120	0.142	0.133	0.121	0.122	0.132	0.119	0.103	0.125	0.133	0.149	0.115	0.128
245.0	219.8	337.0	194.1	636.0	2305	1922	255.4	6.939	3.963	3.160	3.484	2.281	1.692	0.932	0.931	0.960	0.561	0.658	0.397	0.414	0.426	0.451	0.327	0.353	0.321	0.349	0.347	0.243	0.271	0.295	0.308	0.232	0.233	0.238	0.237	0.187	0.182	0.192	0.189	0.196	0.140	0.199	0.254	0.298	0.489	0.836	1.056	0.757	0.478	0.496	1.104	3.006	7.441	12.06	10.01	5.181	1.075	0.184	0.158	0.139	0.156	0.124	0.119	0.125	0.142	0.176	0.152	0.104	0.133	0.127	0.135	0.123	0.146	0.138	0.109	0.119	0.117
250.0	77.51	238.5	318.3	252.4	760.7	2037	2906	709.5	34.00	4.723	4.147	3.045	2.002	1.361	1.316	0.966	0.764	0.763	0.552	0.506	0.522	0.398	0.370	0.440	0.321	0.322	0.331	0.285	0.314	0.263	0.239	0.173	0.270	0.243	0.213	0.212	0.187	0.196	0.206	0.209	0.182	0.167	0.185	0.207	0.236	0.346	0.572	0.925	1.035	0.909	0.636	0.867	1.950	4.112	6.888	10.80	12.03	9.553	4.519	1.110	0.219	0.158	0.154	0.116	0.144	0.167	0.151	0.118	0.128	0.131	0.144	0.118	0.111	0.150	0.128	0.121	0.150
255.0	39.21	69.23	229.0	398.9	275.4	540.3	2507	2737	280.1	30.94	5.669	4.155	2.501	1.936	1.417	1.009	0.878	0.968	0.644	0.546	0.541	0.454	0.416	0.357	0.340	0.427	0.372	0.320	0.357	0.330	0.279	0.272	0.279	0.269	0.231	0.196	0.241	0.170	0.215	0.237	0.230	0.175	0.189	0.227	0.214	0.231	0.256	0.351	0.560	1.056	1.303	1.230	0.906	1.114	1.788	2.795	5.177	12.01	18.88	16.87	7.193	1.089	0.214	0.196	0.165	0.179	0.249	0.120	0.179	0.138	0.127	0.107	0.095	0.170	0.139	0.103	0.145
260.0	28.95	31.19	88.98	356.3	366.2	193.0	800.1	2958	3781	227.2	14.04	4.830	3.848	2.152	1.522	1.085	1.190	0.898	0.689	0.506	0.700	0.462	0.428	0.403	0.287	0.366	0.371	0.405	0.382	0.320	0.295	0.245	0.279	0.275	0.254	0.192	0.218	0.227	0.191	0.222	0.257	0.182	0.205	0.213	0.208	0.190	0.206	0.207	0.250	0.434	0.917	2.037	1.844	0.958	0.715	0.905	1.437	3.462	9.402	20.21	25.06	15.13	4.815	0.534	0.202	0.152	0.217	0.152	0.191	0.159	0.148	0.141	0.130	0.139	0.122	0.127	0.180
265.0	26.06	21.72	30.89	171.0	487.3	286.6	247.5	1096	4739	1910	163.3	7.599	4.049	2.689	1.814	1.151	1.198	1.109	0.875	0.721	0.781	0.547	0.514	0.468	0.393	0.358	0.493	0.383	0.255	0.300	0.284	0.306	0.299	0.324	0.307	0.280	0.234	0.218	0.215	0.174	0.201	0.260	0.215	0.226	0.277	0.208	0.170	0.171	0.190	0.216	0.408	1.099	2.177	2.176	1.269	0.653	0.690	1.144	2.457	6.520	15.59	25.28	25.36	12.13	2.408	0.279	0.215	0.164	0.219	0.127	0.150	0.158	0.147	0.155	0.120	0.141	0.173
270.0	40.28	25.48	24.28	66.84	268.1	500.7	327.1	329.8	1626	3362	3734	627.0	25.84	4.126	2.374	1.718	1.436	1.205	0.959	0.754	0.927	0.635	0.579	0.439	0.486	0.403	0.440	0.426	0.337	0.423	0.293	0.349	0.333	0.345	0.338	0.334	0.306	0.281	0.293	0.234	0.250	0.267	0.247	0.239	0.267	0.259	0.218	0.198	0.168	0.209	0.215	0.440	0.834	1.441	2.089	2.237	1.936	1.086	1.006	1.795	3.975	8.014	14.54	19.58	22.63	18.00	9.392	2.294	0.351	0.175	0.188	0.158	0.157	0.161	0.132	0.152	0.160
275.0	211.3	123.8	70.35	68.11	142.0	322.0	689.7	364.0	535.5	1049	3759	5541	800.1	20.30	3.667	2.528	1.986	1.503	1.048	0.869	0.983	0.642	0.562	0.425	0.534	0.453	0.452	0.512	0.444	0.444	0.360	0.570	0.649	0.751	0.824	0.723	0.615	0.592	0.562	0.529	0.489	0.563	0.559	0.545	0.622	0.474	0.447	0.345	0.288	0.343	0.248	0.345	0.520	0.779	1.123	1.749	3.057	3.640	2.521	1.430	1.687	2.730	4.118	5.518	8.563	17.63	30.81	27.30	13.95	2.373	0.366	0.238	0.178	0.229	0.199	0.202	0.203
280.0	696.1	420.7	263.3	179.3	173.9	263.6	628.3	927.7	694.5	900.5	1807	5334	4912	129.0	9.147	3.834	2.927	2.241	1.302	0.993	1.249	0.762	0.608	0.578	0.661	0.616	0.522	0.451	0.432	0.441	0.550	1.003	1.461	2.124	2.265	1.587	1.410	1.247	1.203	1.324	1.345	1.365	1.496	1.589	1.550	1.288	0.847	0.923	0.688	0.647	0.593	0.698	0.661	0.776	0.862	1.226	1.918	3.396	5.196	4.333	3.056	3.194	3.616	4.557	5.621	7.563	14.92	26.02	36.35	24.20	9.649	1.272	0.313	0.300	0.214	0.249	0.249
285.0	1519	926.1	568.1	411.8	305.5	322.5	560.1	1218	1509	1565	1838	2836	6117	3301	83.59	5.708	3.670	2.548	1.685	1.217	1.410	0.906	0.760	0.645	0.674	0.640	0.544	0.525	0.519	0.441	0.760	1.609	3.179	4.615	4.413	3.455	2.571	2.696	2.305	2.431	2.659	2.699	2.815	3.021	2.961	2.585	2.004	1.981	1.500	1.326	1.206	1.368	1.163	0.999	1.183	1.567	1.924	2.748	4.472	6.646	7.592	6.744	6.514	7.282	8.270	8.260	9.432	12.12	19.88	30.21	33.24	21.17	5.370	0.724	0.322	0.355	0.343
290.0	2649	1704	1086	751.9	499.8	448.8	680.0	1284	2327	2942	2895	2605	2648	4075	2564	346.9	12.27	3.935	2.458	1.850	1.773	1.114	0.992	0.868	0.736	0.744	0.624	0.741	0.543	0.610	0.895	2.508	5.524	7.836	7.580	5.794	4.914	4.370	4.029	4.255	4.480	4.643	5.017	5.206	5.186	4.591	3.870	3.379	2.783	2.428	2.164	2.276	1.929	1.694	1.660	1.925	2.532	3.182	4.477	6.426	8.978	11.72	13.23	13.62	13.58	12.58	12.19	12.34	11.32	11.30	16.01	23.32	25.43	25.60	12.75	3.956	0.751
295.0	3422	2359	1518	1056	653.1	544.4	795.1	1404	2457	3807	4035	3054	1632	1258	2611	3989	90.21	9.233	3.237	2.656	2.404	1.173	1.164	1.059	0.967	0.780	0.854	0.821	0.575	0.636	1.237	3.238	6.902	10.61	9.700	7.945	6.605	5.802	5.361	5.533	5.475	6.210	6.312	6.848	6.755	6.277	5.024	4.483	3.999	3.260	2.987	2.983	2.542	2.146	1.870	2.236	2.878	3.728	4.922	6.906	8.842	11.93	14.77	18.64	20.55	17.69	15.50	14.48	11.34	7.319	6.164	6.799	7.875	16.14	25.12	29.99	17.86
300.0	3667	2586	1695	1161	727.4	557.4	806.2	1444	2433	3658	4513	3387	1486	594.7	848.2	3631	3605	73.03	4.918	2.612	2.817	1.488	1.280	1.055	0.930	0.761	0.938	0.810	0.652	0.677	1.132	3.482	7.810	11.27	10.80	8.973	7.014	6.761	5.728	5.477	5.948	6.651	6.797	7.264	7.418	6.873	5.439	5.226	4.421	3.698	3.344	3.435	2.782	2.274	2.083	2.254	3.022	3.892	5.001	6.833	8.900	11.68	14.08	17.59	20.88	20.95	18.43	15.33	11.28	6.658	4.205	3.420	2.990	4.850	8.500	19.06	30.81
305.0	3702	2541	1678	1146	710.8	539.4	762.0	1362	2296	3323	4119	3656	1501	469.1	299.4	1225	4706	3061	50.30	3.663	3.366	2.039	1.595	1.170	1.119	1.002	0.945	0.773	0.679	0.664	1.108	3.090	7.391	10.73	10.38	8.582	6.803	6.648	5.574	5.700	5.796	6.425	7.028	7.139	6.940	6.537	5.391	4.844	4.476	3.652	3.293	3.506	2.913	2.377	1.936	2.109	2.938	3.854	4.878	6.555	8.556	11.18	13.26	15.69	18.30	18.82	19.24	17.24	11.89	6.487	3.942	2.912	2.223	2.242	2.733	5.328	12.10
310.0	3173	2223	1511	1017	622.9	459.7	640.1	1136	1919	2726	3229	3048	1714	523.5	186.7	323.3	1519	3619	1863	241.0	12.62	2.603	1.822	1.450	1.217	1.141	1.034	0.851	0.791	0.630	1.062	2.828	6.281	9.059	9.199	8.129	6.444	5.757	5.014	4.898	5.087	5.622	5.597	5.958	6.027	5.548	4.625	4.374	4.016	3.325	2.876	3.110	2.520	2.071	1.751	1.882	2.462	3.049	4.179	5.541	7.147	9.154	10.97	13.29	14.59	14.70	14.27	14.33	11.89	8.187	5.065	2.939	1.974	1.537	1.416	1.894	3.296
315.0	2497	1776	1238	832.2	506.6	364.5	493.0	852.7	1443	2084	2393	2177	1411	815.1	206.2	118.5	365.4	885.6	1886	3016	396.5	6.221	2.363	1.913	1.327	1.134	1.154	0.942	0.807	0.876	0.853	2.399	5.089	7.278	7.631	6.448	5.355	4.924	4.129	3.861	4.196	4.514	4.519	4.717	4.875	4.871	3.915	3.574	3.044	2.778	2.411	2.666	1.971	1.647	1.558	1.626	1.987	2.427	3.225	4.374	5.542	7.013	8.299	10.17	10.90	11.07	10.58	10.29	7.894	6.485	5.996	5.069	2.747	1.516	1.096	1.086	1.303
320.0	2003	1445	1021	672.2	416.5	292.5	398.7	674.5	1140	1625	1871	1681	998.3	790.1	396.5	82.62	105.7	214.6	548.1	2712	3598	55.89	3.643	2.178	1.613	1.358	1.107	1.126	0.973	0.743	0.882	1.985	4.010	6.262	6.074	5.215	4.606	4.251	3.465	3.285	3.415	3.565	3.945	4.108	3.865	3.803	3.322	3.014	2.662	2.251	1.948	2.294	1.699	1.383	1.294	1.259	1.570	1.898	2.460	3.465	4.175	5.476	6.565	7.918	8.792	8.763	8.477	7.815	6.400	4.679	3.817	4.610	4.575	2.872	1.259	0.858	0.693
325.0	1650	1206	848.4	561.1	341.9	235.0	310.4	521.1	872.7	1268	1474	1316	757.2	511.3	538.6	115.1	48.54	62.85	136.0	882.4	4326	2019	42.83	3.044	2.061	1.545	1.240	1.200	0.865	0.717	0.946	1.591	3.174	4.806	4.951	4.574	4.022	3.605	2.972	2.769	2.797	2.971	3.167	3.271	3.112	3.164	2.670	2.652	2.347	1.906	1.794	1.971	1.367	1.168	1.006	1.057	1.155	1.614	1.995	2.615	3.453	4.225	5.426	6.091	7.075	6.717	6.616	6.273	5.133	3.422	2.930	2.751	3.397	3.794	3.051	1.391	0.734
330.0	1235	924.3	674.8	438.3	271.7	183.7	227.3	375.9	631.0	909.3	1062	959.3	558.7	312.5	316.3	323.4	130.2	32.51	41.91	209.8	1320	2199	1543	208.3	8.939	2.121	1.694	1.310	1.020	0.828	0.827	1.430	2.529	3.645	3.988	3.533	3.166	2.742	2.293	2.109	2.120	2.328	2.430	2.517	2.327	2.382	2.083	2.021	1.781	1.549	1.396	1.448	1.128	0.903	0.789	0.874	0.986	1.267	1.524	1.938	2.496	3.178	3.768	4.372	5.001	4.926	4.785	4.629	3.723	2.823	2.074	1.830	1.833	1.910	2.360	2.415	2.146
335.0	948.2	718.5	526.5	326.4	213.3	136.5	168.3	264.6	438.6	627.9	740.4	684.9	417.1	223.7	150.9	195.2	299.5	75.93	21.80	56.91	304.6	534.9	1488	2527	299.1	7.720	2.536	1.687	1.215	1.028	0.944	1.272	1.928	2.771	2.946	2.758	2.328	2.203	1.912	1.517	1.705	1.738	1.766	1.724	1.732	1.884	1.613	1.685	1.499	1.298	1.056	1.104	0.902	0.773	0.608	0.622	0.764	0.911	1.094	1.403	1.719	2.136	2.479	3.160	3.595	3.379	3.481	3.287	2.820	2.213	1.665	1.543	1.165	1.124	1.157	1.182	2.028
340.0	737.3	585.8	428.1	272.3	168.7	115.6	132.3	203.8	329.8	459.6	556.0	516.6	332.8	182.2	100.8	90.54	235.7	227.5	39.53	21.98	78.78	128.5	420.9	2067	1997	51.15	4.411	2.180	1.541	1.117	0.949	1.248	1.626	2.355	2.434	2.216	2.057	1.802	1.503	1.406	1.318	1.416	1.406	1.467	1.505	1.611	1.369	1.406	1.253	1.092	0.868	0.963	0.799	0.677	0.539	0.517	0.638	0.737	0.866	1.085	1.301	1.744	1.942	2.389	2.635	2.535	2.789	2.541	2.258	1.799	1.332	1.265	0.961	0.863	0.751	0.723	0.908
345.0	609.9	491.7	361.6	228.2	156.3	94.82	108.6	161.5	248.9	357.2	427.1	401.6	265.7	157.1	83.02	52.91	103.8	256.6	81.23	20.59	26.65	37.44	103.3	634.3	2123	1931	41.52	3.041	1.796	1.225	1.116	1.108	1.603	1.969	2.011	2.077	1.727	1.633	1.439	1.156	1.174	1.202	1.121	1.144	1.274	1.396	1.164	1.126	1.109	0.796	0.740	0.812	0.659	0.632	0.500	0.488	0.478	0.653	0.782	0.819	1.063	1.392	1.540	1.912	2.067	2.198	2.042	2.066	1.807	1.487	1.099	1.129	0.882	0.675	0.630	0.517	0.569
350.0	495.5	385.4	289.7	192.3	119.7	76.90	85.27	120.1	182.0	250.1	305.7	292.2	200.0	125.9	66.87	39.84	43.59	112.9	182.4	105.2	23.94	16.38	30.83	150.0	631.5	1771	2267	205.4	11.45	1.621	1.178	1.109	1.396	1.630	1.760	1.513	1.438	1.199	1.212	0.878	0.970	0.927	0.925	0.985	1.031	1.057	0.920	0.934	0.884	0.700	0.649	0.697	0.572	0.511	0.398	0.407	0.452	0.513	0.656	0.715	0.803	1.031	1.176	1.457	1.499	1.608	1.575	1.542	1.420	1.165	0.898	0.848	0.684	0.570	0.508	0.439	0.456
355.0	392.2	310.2	232.7	160.4	98.14	63.16	66.56	84.69	127.4	178.8	218.3	212.4	152.2	99.85	58.43	35.05	27.64	39.88	83.55	181.7	67.02	16.13	14.69	40.79	146.9	417.5	1592	2799	330.6	9.912	1.602	1.153	1.335	1.455	1.483	1.363	1.225	0.971	0.972	0.747	0.816	0.746	0.834	0.806	0.855	0.752	0.745	0.779	0.701	0.649	0.531	0.608	0.573	0.445	0.412	0.357	0.434	0.418	0.565	0.521	0.680	0.674	0.829	1.127	1.145	1.208	1.209	1.087	1.087	0.875	0.764	0.734	0.607	0.558	0.488	0.425	0.392
360.0	309.5	272.6	193.0	137.6	86.23	58.35	59.24	72.38	101.2	135.3	171.3	170.6	124.1	84.88	52.11	32.78	24.67	23.87	34.77	114.3	167.4	47.88	12.03	16.11	39.01	99.88	416.5	1977	2503	253.9	4.173	1.388	1.429	1.329	1.315	1.293	0.957	1.060	0.844	0.750	0.827	0.700	0.741	0.668	0.753	0.682	0.702	0.718	0.636	0.600	0.478	0.519	0.474	0.392	0.351	0.321	0.354	0.439	0.415	0.562	0.563	0.672	0.811	0.888	0.861	0.964	0.951	0.840	0.934	0.762	0.666	0.593	0.580	0.543	0.401	0.447	0.382
365.0	295.8	245.4	179.2	116.2	77.35	57.26	55.53	60.69	84.12	110.3	138.4	139.1	105.3	75.74	48.48	30.84	24.82	21.11	22.46	48.12	148.4	129.2	24.13	10.68	14.86	28.62	99.87	555.1	2300	1886	43.34	2.341	1.647	1.454	1.258	1.311	0.955	1.011	0.862	0.756	0.786	0.625	0.681	0.690	0.637	0.646	0.638	0.634	0.565	0.479	0.442	0.453	0.396	0.392	0.326	0.374	0.287	0.413	0.419	0.455	0.560	0.559	0.683	0.736	0.777	0.899	0.685	0.826	0.721	0.726	0.678	0.543	0.533	0.489	0.407	0.420	0.397
370.0	246.7	218.4	163.7	107.0	71.30	54.88	50.41	52.34	68.89	88.33	107.3	109.5	87.43	67.13	46.40	32.93	25.96	23.21	22.03	26.86	64.16	129.8	94.17	25.87	10.11	12.76	27.87	130.0	641.9	1514	1566	183.7	11.74	1.469	1.374	1.236	1.030	0.969	0.812	0.696	0.671	0.597	0.682	0.599	0.610	0.602	0.567	0.543	0.510	0.427	0.384	0.439	0.384	0.381	0.368	0.299	0.304	0.362	0.360	0.400	0.441	0.473	0.552	0.645	0.630	0.680	0.630	0.671	0.652	0.611	0.602	0.513	0.529	0.468	0.387	0.369	0.428
375.0	215.5	191.1	143.1	102.0	70.41	55.17	50.92	46.40	56.56	69.51	83.11	88.66	71.15	57.32	42.91	34.01	29.04	26.79	24.20	23.89	30.91	56.06	119.9	96.62	19.13	8.982	11.60	33.97	147.4	351.4	916.3	1612	290.1	11.66	1.698	1.364	1.032	1.016	0.745	0.738	0.668	0.538	0.602	0.689	0.585	0.555	0.572	0.527	0.523	0.433	0.374	0.386	0.400	0.372	0.337	0.302	0.295	0.427	0.346	0.318	0.396	0.454	0.531	0.605	0.559	0.532	0.595	0.575	0.568	0.521	0.601	0.502	0.501	0.461	0.334	0.341	0.404
380.0	202.7	170.0	132.6	97.04	71.89	52.39	47.05	43.88	49.66	60.14	69.63	74.60	63.72	53.24	41.92	35.15	31.94	29.81	25.63	24.53	24.48	28.37	68.63	134.1	49.31	11.09	8.086	11.97	37.27	83.10	233.0	1049	1547	224.6	4.609	1.389	1.077	1.192	0.849	0.797	0.662	0.580	0.596	0.623	0.522	0.495	0.521	0.433	0.570	0.437	0.355	0.367	0.374	0.329	0.382	0.337	0.408	0.351	0.343	0.345	0.351	0.412	0.408	0.435	0.458	0.446	0.495	0.592	0.532	0.494	0.465	0.456	0.510	0.384	0.375	0.422	0.404
385.0	189.1	147.8	122.5	98.78	76.34	53.42	44.43	42.42	44.17	52.11	61.99	65.50	59.91	52.11	41.20	34.10	32.04	31.46	27.44	25.14	23.35	22.09	32.88	96.63	107.7	28.58	7.181	6.755	12.46	22.31	56.14	284.2	1227	1290	36.87	2.371	1.281	1.208	0.834	0.833	0.675	0.574	0.549	0.564	0.551	0.435	0.518	0.481	0.505	0.373	0.357	0.394	0.420	0.387	0.378	0.354	0.355	0.314	0.343	0.296	0.367	0.330	0.355	0.355	0.421	0.421	0.482	0.392	0.517	0.432	0.481	0.413	0.507	0.466	0.373	0.393	0.420
390.0	182.3	145.6	118.5	90.36	73.15	53.47	45.06	39.67	39.65	45.94	52.05	56.89	50.72	45.97	38.77	34.65	32.94	32.64	30.05	27.08	23.39	21.40	21.39	39.97	87.75	75.36	25.98	6.269	6.239	8.261	15.67	66.98	326.5	892.6	1079	406.7	10.79	1.470	0.951	0.781	0.759	0.645	0.614	0.640	0.522	0.430	0.446	0.419	0.431	0.404	0.335	0.415	0.384	0.378	0.328	0.367	0.357	0.298	0.296	0.327	0.330	0.294	0.374	0.353	0.402	0.352	0.476	0.444	0.465	0.396	0.420	0.413	0.492	0.470	0.465	0.433	0.457
395.0	167.5	144.5	116.6	89.54	67.52	54.39	42.91	36.89	35.85	38.65	45.01	47.18	45.07	41.54	37.02	34.90	34.77	32.36	31.40	28.15	25.04	20.57	18.93	20.27	34.32	76.03	77.07	18.04	5.074	4.950	6.741	17.68	75.43	205.9	562.2	1380	252.1	14.72	1.105	0.780	0.735	0.565	0.620	0.647	0.518	0.445	0.491	0.446	0.419	0.380	0.387	0.376	0.386	0.406	0.346	0.316	0.288	0.373	0.315	0.313	0.329	0.236	0.338	0.334	0.369	0.390	0.432	0.413	0.419	0.399	0.405	0.391	0.419	0.389	0.407	0.539	0.538
400.0	156.3	137.0	105.7	84.32	69.57	50.09	42.69	32.94	33.33	36.14	42.08	44.02	42.33	39.07	35.08	34.71	34.39	32.75	30.98	28.43	24.64	21.26	17.92	15.28	17.11	38.92	90.52	46.77	7.864	3.942	4.321	6.573	19.26	48.97	139.7	796.4	1143	230.8	4.667	0.971	0.719	0.695	0.646	0.631	0.503	0.575	0.435	0.420	0.412	0.401	0.341	0.405	0.368	0.319	0.311	0.313	0.295	0.320	0.293	0.289	0.267	0.247	0.282	0.295	0.358	0.305	0.443	0.390	0.300	0.318	0.371	0.347	0.419	0.336	0.341	0.464	0.487
405.0	159.1	114.2	107.5	82.21	70.67	48.70	39.21	33.61	32.21	33.33	39.77	39.73	40.22	38.33	34.22	34.49	32.81	32.54	30.85	28.50	24.56	20.79	17.18	14.03	12.68	18.12	57.41	82.11	25.92	4.550	3.628	3.890	6.887	13.30	34.01	210.1	842.9	1450	33.29	1.756	0.952	0.688	0.659	0.698	0.518	0.541	0.456	0.444	0.441	0.404	0.336	0.355	0.321	0.307	0.311	0.351	0.279	0.337	0.351	0.284	0.260	0.238	0.251	0.314	0.329	0.289	0.371	0.315	0.365	0.317	0.410	0.377	0.423	0.325	0.414	0.365	0.408
410.0	152.4	118.6	103.8	80.39	62.73	46.95	36.31	31.36	28.76	29.26	34.14	36.12	34.57	34.54	33.50	31.67	31.24	30.69	28.76	26.88	24.35	20.22	16.45	13.26	10.68	10.97	22.50	55.99	60.09	22.68	4.350	2.873	3.717	5.325	9.692	49.18	220.0	955.2	891.6	141.4	9.700	0.860	0.724	0.643	0.517	0.546	0.453	0.446	0.428	0.374	0.384	0.373	0.373	0.294	0.310	0.316	0.305	0.277	0.280	0.299	0.263	0.262	0.272	0.316	0.314	0.308	0.322	0.337	0.320	0.301	0.354	0.352	0.407	0.348	0.414	0.413	0.392
415.0	141.4	110.3	100.0	72.67	62.42	42.84	32.07	26.57	25.96	27.49	31.23	33.77	33.10	32.24	32.42	29.58	29.52	28.71	27.26	25.65	22.57	19.01	15.74	12.12	9.986	8.648	10.32	20.23	51.01	60.78	16.31	3.102	2.506	3.022	4.325	12.76	50.70	218.4	440.0	873.9	226.3	11.01	1.047	0.763	0.597	0.420	0.587	0.417	0.470	0.357	0.343	0.341	0.356	0.361	0.341	0.318	0.328	0.275	0.301	0.261	0.273	0.296	0.287	0.278	0.267	0.335	0.333	0.314	0.282	0.323	0.259	0.345	0.338	0.410	0.342	0.358	0.373
420.0	115.5	110.5	87.80	70.65	56.56	36.83	31.88	26.83	24.81	25.80	28.87	30.35	29.72	30.37	30.43	29.09	27.16	27.45	26.50	24.41	21.00	18.00	14.76	11.61	9.231	7.918	7.411	9.109	24.20	62.56	41.21	6.592	2.185	2.310	3.052	4.795	12.79	50.64	108.6	513.6	940.9	178.9	3.645	0.983	0.694	0.524	0.492	0.422	0.464	0.352	0.356	0.341	0.360	0.370	0.376	0.272	0.261	0.298	0.269	0.245	0.310	0.282	0.270	0.260	0.304	0.321	0.316	0.316	0.312	0.271	0.269	0.288	0.292	0.374	0.384	0.374	0.365
425.0	130.8	102.1	89.35	71.09	52.99	33.92	27.15	25.84	22.50	24.69	25.92	28.89	28.77	28.51	28.07	27.72	25.72	25.00	24.32	22.46	19.82	17.06	13.61	11.36	8.941	7.485	6.556	6.088	9.689	36.84	59.71	21.94	3.168	1.933	2.384	3.095	4.652	13.02	26.06	135.2	673.2	731.8	30.82	1.681	0.730	0.610	0.565	0.456	0.435	0.399	0.347	0.340	0.289	0.334	0.326	0.308	0.226	0.262	0.225	0.267	0.301	0.198	0.244	0.246	0.297	0.305	0.316	0.259	0.334	0.307	0.217	0.281	0.282	0.326	0.294	0.372	0.352
430.0	465.4	101.0	85.30	66.06	49.44	34.07	26.25	22.48	20.95	22.88	23.52	26.17	26.25	26.47	26.00	25.87	24.95	23.23	22.52	20.77	18.03	15.99	12.93	10.72	8.351	7.065	6.049	5.027	5.277	13.59	38.20	45.39	17.29	2.861	1.862	2.106	2.829	4.580	7.151	31.75	173.8	462.8	697.5	132.4	8.209	0.661	0.604	0.481	0.475	0.423	0.334	0.349	0.332	0.300	0.312	0.300	0.227	0.210	0.248	0.258	0.271	0.250	0.247	0.249	0.246	0.253	0.279	0.276	0.265	0.302	0.231	0.251	0.317	0.309	0.307	0.330	0.332
435.0	1321	145.5	82.62	59.99	45.15	30.97	22.72	20.46	18.65	18.99	21.13	23.35	24.71	24.09	22.59	23.53	22.77	20.88	20.29	18.86	16.38	13.96	11.36	10.12	7.859	6.852	6.036	4.535	3.967	5.405	12.98	33.64	41.49	11.71	2.048	1.649	1.721	2.758	3.098	8.167	40.07	106.1	361.5	1134	200.0	8.376	0.729	0.561	0.538	0.420	0.292	0.394	0.354	0.348	0.312	0.264	0.218	0.267	0.222	0.220	0.251	0.278	0.234	0.237	0.239	0.246	0.270	0.277	0.238	0.299	0.239	0.278	0.294	0.283	0.264	0.283	0.322
440.0	1876	387.8	82.15	60.80	43.12	28.62	21.16	18.58	19.48	19.48	20.18	22.84	23.49	22.05	21.82	21.63	21.97	19.97	18.63	17.59	15.49	13.13	11.25	9.122	6.968	6.247	5.708	4.239	3.563	3.671	5.400	15.87	41.70	28.84	5.180	1.431	1.425	2.057	2.318	2.911	10.11	25.00	91.10	740.0	718.6	152.5	3.093	0.629	0.634	0.493	0.324	0.353	0.311	0.290	0.239	0.260	0.218	0.213	0.248	0.218	0.213	0.199	0.289	0.262	0.224	0.283	0.275	0.258	0.212	0.306	0.334	0.244	0.309	0.295	0.303	0.320	0.284
445.0	1843	939.1	87.34	57.02	38.18	27.78	20.55	17.77	17.26	17.01	20.08	22.37	20.44	20.07	20.63	19.52	20.24	19.08	17.92	16.48	14.43	12.33	9.998	8.705	6.963	5.766	5.027	4.025	3.172	2.906	3.262	6.458	24.18	39.08	15.16	2.250	1.214	1.448	1.914	2.033	3.226	6.553	21.73	200.9	548.4	654.2	25.66	1.407	0.693	0.576	0.331	0.365	0.281	0.268	0.238	0.268	0.224	0.252	0.300	0.221	0.232	0.200	0.219	0.231	0.191	0.291	0.260	0.287	0.214	0.242	0.281	0.272	0.275	0.265	0.247	0.285	0.264
450.0	995.3	1686	335.3	54.19	36.89	25.33	19.84	16.53	16.02	16.34	18.01	20.46	18.93	18.91	18.06	17.87	17.56	16.66	16.21	14.75	12.89	10.79	9.322	7.635	6.214	5.450	4.612	3.632	3.025	2.682	2.577	3.201	8.473	25.06	29.69	11.61	2.135	1.266	1.312	1.685	2.005	2.363	5.822	46.10	144.8	439.7	602.5	114.7	7.425	0.603	0.409	0.395	0.282	0.281	0.230	0.254	0.204	0.253	0.273	0.243	0.223	0.212	0.184	0.245	0.224	0.251	0.223	0.210	0.230	0.237	0.276	0.284	0.289	0.290	0.244	0.246	0.264
455.0	315.1	1534	1069	68.65	30.11	22.39	17.52	16.89	14.52	14.93	16.63	17.68	16.87	16.23	16.86	15.33	14.58	14.63	14.31	12.52	11.80	9.447	8.464	6.266	5.320	5.015	4.045	3.223	2.836	2.444	2.358	2.191	3.419	8.180	22.31	25.91	8.828	1.449	1.164	1.282	1.501	1.801	2.131	11.23	33.26	100.9	300.5	629.8	180.3	6.517	0.508	0.366	0.355	0.282	0.234	0.273	0.223	0.284	0.227	0.246	0.199	0.240	0.250	0.226	0.225	0.207	0.249	0.192	0.187	0.198	0.296	0.308	0.229	0.279	0.197	0.300	0.264
460.0	138.4	857.7	1716	220.2	30.70	19.32	15.83	15.53	13.51	13.15	14.21	16.03	14.81	15.01	15.88	14.88	12.66	12.62	12.92	11.87	10.23	8.992	7.856	5.990	5.165	4.756	3.832	3.320	2.733	2.132	2.208	1.717	2.065	3.351	9.894	25.95	18.55	4.050	1.036	0.949	1.159	1.632	1.440	3.304	8.247	23.51	73.96	367.5	810.8	124.3	2.569	0.492	0.419	0.334	0.305	0.235	0.242	0.230	0.227	0.248	0.266	0.255	0.209	0.182	0.261	0.228	0.200	0.187	0.278	0.219	0.253	0.194	0.224	0.241	0.167	0.243	0.216
465.0	103.1	350.4	1739	636.6	33.81	17.90	13.77	14.10	12.55	12.07	13.14	15.53	14.37	13.99	14.12	13.80	12.31	11.12	11.16	10.73	8.866	7.774	6.795	5.842	4.545	4.316	3.968	3.191	2.534	2.006	1.987	1.762	1.509	2.190	3.938	15.39	24.44	10.40	1.785	0.857	0.835	1.128	1.596	1.577	2.530	6.021	17.58	96.41	629.0	619.6	20.79	1.015	0.469	0.312	0.288	0.226	0.299	0.231	0.242	0.269	0.216	0.203	0.217	0.213	0.238	0.175	0.187	0.212	0.214	0.240	0.212	0.251	0.180	0.202	0.215	0.271	0.241
470.0	155.5	130.0	926.4	1321	185.2	17.16	12.51	12.27	11.19	11.34	11.62	13.37	12.42	11.45	11.74	11.37	11.10	9.766	9.570	8.955	8.127	6.909	5.872	5.131	4.027	3.753	3.416	2.716	2.174	1.967	1.754	1.559	1.403	1.523	1.903	5.505	15.85	18.51	7.858	1.494	0.776	0.873	1.060	1.290	1.350	1.993	4.705	22.48	166.4	433.0	432.7	101.3	5.818	0.364	0.294	0.312	0.257	0.262	0.243	0.251	0.206	0.215	0.219	0.217	0.203	0.191	0.211	0.210	0.224	0.200	0.177	0.213	0.210	0.218	0.234	0.242	0.198
475.0	219.4	95.15	272.6	1240	623.0	26.89	11.28	11.62	10.16	9.624	9.882	11.50	10.68	10.11	9.873	9.655	9.193	8.432	8.435	7.684	7.263	5.790	4.916	4.101	3.657	3.334	2.866	2.419	2.014	1.809	1.644	1.608	1.312	1.287	1.210	2.154	5.385	13.80	16.62	5.409	0.945	0.620	0.794	0.894	1.317	1.208	1.545	5.632	37.78	98.60	199.7	372.7	144.1	5.353	0.441	0.404	0.240	0.271	0.300	0.213	0.200	0.197	0.220	0.193	0.191	0.188	0.168	0.178	0.192	0.196	0.207	0.216	0.217	0.170	0.176	0.197	0.200
480.0	204.1	111.2	97.06	735.6	1282	122.9	12.46	10.02	9.017	9.659	9.502	10.67	10.02	9.570	8.604	8.815	8.870	8.201	7.229	6.901	6.340	5.377	4.364	4.183	3.395	2.734	2.660	2.145	1.723	1.812	1.624	1.392	1.237	1.217	0.833	1.385	2.282	6.790	16.12	11.33	2.470	0.712	0.701	0.715	1.146	1.183	0.901	1.862	9.021	22.68	48.63	201.5	420.6	27.16	2.180	0.441	0.269	0.309	0.276	0.198	0.228	0.206	0.211	0.224	0.193	0.193	0.175	0.173	0.211	0.211	0.178	0.195	0.194	0.177	0.172	0.192	0.203
485.0	164.2	153.9	58.29	295.2	1441	415.8	14.62	10.27	8.721	9.182	8.280	9.533	8.790	9.102	8.163	7.970	7.376	7.444	6.646	6.360	5.577	5.380	4.160	3.592	3.118	2.758	2.528	2.095	1.788	1.777	1.483	1.224	1.179	0.986	0.954	0.938	1.180	2.715	10.10	14.70	6.828	1.223	0.618	0.605	0.809	1.272	0.974	0.942	2.588	5.649	11.61	52.90	309.4	373.3	23.79	1.039	0.275	0.303	0.251	0.242	0.204	0.167	0.208	0.224	0.195	0.171	0.169	0.152	0.218	0.213	0.211	0.155	0.186	0.172	0.146	0.215	0.198
490.0	94.59	182.0	76.94	89.21	820.9	1066	134.4	9.811	8.183	8.126	8.014	8.252	7.810	7.914	6.991	7.019	6.216	6.111	5.775	5.407	5.093	4.353	3.563	3.295	2.777	2.554	2.264	1.828	1.560	1.512	1.453	1.167	1.016	0.965	0.914	0.869	0.878	1.362	3.737	10.34	12.14	5.022	1.076	0.532	0.565	0.755	1.012	0.961	1.069	1.733	3.122	12.42	80.62	244.6	308.9	110.8	6.300	0.393	0.314	0.312	0.276	0.209	0.264	0.203	0.225	0.182	0.199	0.185	0.211	0.201	0.224	0.184	0.176	0.179	0.151	0.185	0.179
495.0	55.41	151.3	130.9	43.96	241.2	1154	644.8	15.31	8.549	7.363	7.742	8.146	7.251	6.527	6.421	6.208	5.809	5.109	5.505	4.920	4.798	3.840	3.467	2.975	2.730	2.172	1.864	1.866	1.671	1.414	1.373	1.134	0.971	1.036	0.860	0.765	0.771	0.936	1.467	3.937	9.699	10.49	3.577	0.762	0.632	0.517	0.700	1.001	0.974	0.814	1.077	3.162	18.58	55.87	170.1	479.1	148.9	6.250	0.409	0.388	0.335	0.219	0.211	0.226	0.277	0.203	0.247	0.179	0.284	0.156	0.175	0.161	0.194	0.203	0.171	0.186	0.179
500.0	35.03	96.00	162.6	45.69	69.43	700.6	1190	82.52	7.854	7.087	7.037	7.827	6.844	6.362	5.825	5.078	5.302	4.562	4.603	4.317	3.916	3.540	3.042	2.739	2.185	1.968	1.837	1.449	1.401	1.278	1.261	1.005	1.035	0.975	0.713	0.845	0.689	0.828	0.862	1.570	4.995	11.24	7.476	1.689	0.494	0.434	0.531	0.728	1.141	0.753	0.584	1.015	4.505	12.95	41.94	258.7	355.8	29.71	2.668	0.337	0.356	0.257	0.185	0.240	0.233	0.162	0.257	0.154	0.198	0.188	0.205	0.159	0.216	0.163	0.180	0.170	0.196
505.0	33.56	48.94	159.4	69.29	30.17	281.9	1405	295.2	8.506	6.859	6.955	6.574	5.586	5.467	5.084	4.859	4.570	4.217	3.996	3.976	3.293	2.999	2.531	2.444	2.028	1.924	1.647	1.417	1.087	1.357	1.195	0.980	0.850	0.940	0.697	0.717	0.682	0.581	0.749	0.928	2.057	7.772	10.35	4.401	0.906	0.433	0.395	0.550	0.961	0.972	0.554	0.595	1.381	3.364	9.977	66.60	239.8	347.6	26.71	1.015	0.370	0.253	0.194	0.201	0.233	0.193	0.243	0.135	0.189	0.227	0.177	0.174	0.188	0.168	0.144	0.142	0.179
510.0	26.86	29.46	104.9	116.6	27.54	78.67	828.8	998.4	85.01	6.519	6.319	6.570	5.344	4.430	4.303	4.423	3.873	3.735	3.563	3.443	2.951	2.609	2.272	2.015	1.935	1.744	1.632	1.251	1.038	1.167	1.091	0.824	0.823	0.847	0.711	0.718	0.646	0.577	0.543	0.638	0.997	3.123	7.640	8.172	3.398	0.711	0.419	0.468	0.630	0.843	0.888	0.617	0.623	1.065	2.640	15.40	61.37	207.6	249.5	111.8	7.992	0.358	0.217	0.200	0.204	0.206	0.191	0.199	0.175	0.185	0.190	0.167	0.179	0.167	0.136	0.156	0.194
515.0	27.27	24.11	44.50	132.7	56.75	28.68	241.2	1190	500.4	11.37	6.080	6.258	4.474	3.825	3.639	3.659	3.446	3.438	2.781	2.788	2.641	2.267	2.166	1.876	1.548	1.538	1.504	1.012	1.082	1.027	1.010	0.788	0.773	0.698	0.660	0.599	0.530	0.643	0.492	0.565	0.551	1.200	2.836	7.182	7.214	2.382	0.511	0.397	0.443	0.550	0.775	0.959	0.527	0.509	0.953	3.826	13.98	47.09	110.0	375.3	175.6	6.953	0.320	0.233	0.236	0.185	0.208	0.198	0.206	0.174	0.175	0.174	0.151	0.210	0.127	0.151	0.183
520.0	23.75	20.33	23.11	101.1	100.6	20.25	67.82	779.7	1058	60.52	6.080	5.658	4.081	3.688	3.280	3.249	3.217	2.852	2.614	2.357	2.258	1.926	1.881	1.722	1.487	1.458	1.271	1.055	0.932	0.807	0.893	0.810	0.639	0.656	0.630	0.559	0.493	0.513	0.448	0.484	0.497	0.653	1.198	4.095	7.821	4.900	1.172	0.414	0.397	0.409	0.495	0.996	0.823	0.513	0.482	1.235	3.415	10.84	26.31	189.7	375.9	100.7	3.298	0.298	0.309	0.198	0.193	0.198	0.262	0.179	0.205	0.186	0.143	0.179	0.148	0.160	0.156
525.0	21.29	15.84	18.07	62.44	125.4	31.95	29.82	315.3	1364	228.7	6.006	6.036	4.623	3.572	3.205	2.877	3.206	2.700	2.691	2.617	2.048	1.928	1.700	1.655	1.431	1.468	1.105	0.933	0.989	0.717	0.774	0.761	0.708	0.527	0.579	0.435	0.461	0.513	0.474	0.443	0.447	0.462	0.610	1.737	5.412	6.890	2.729	0.596	0.321	0.300	0.365	0.664	1.000	0.706	0.429	0.633	1.117	2.839	6.282	47.39	216.9	247.8	28.12	1.329	0.321	0.224	0.156	0.206	0.184	0.127	0.160	0.145	0.190	0.171	0.176	0.165	0.165
530.0	21.16	16.03	13.79	26.84	112.0	72.62	21.20	88.74	846.8	959.0	70.46	5.428	4.085	3.374	2.857	2.633	2.672	2.445	2.307	2.280	1.791	1.619	1.443	1.272	1.229	1.072	1.065	0.896	0.844	0.754	0.736	0.711	0.625	0.521	0.560	0.430	0.469	0.439	0.425	0.392	0.361	0.363	0.395	0.835	2.307	5.268	5.161	2.020	0.503	0.280	0.299	0.375	0.658	0.916	0.667	0.424	0.521	0.950	1.764	10.99	53.27	132.2	199.1	105.1	8.638	0.301	0.193	0.244	0.196	0.131	0.179	0.149	0.173	0.176	0.150	0.153	0.135
535.0	17.35	17.17	12.74	14.68	62.67	111.1	28.21	31.24	246.0	1194	470.8	8.755	3.801	2.774	2.791	2.270	2.212	2.127	1.769	1.904	1.524	1.642	1.347	1.058	1.118	0.947	0.861	0.710	0.828	0.685	0.611	0.680	0.523	0.540	0.516	0.475	0.464	0.404	0.447	0.344	0.311	0.298	0.325	0.535	0.878	2.320	4.939	4.063	1.497	0.368	0.221	0.307	0.346	0.542	1.024	0.678	0.401	0.427	0.724	2.717	12.18	29.97	72.64	229.0	160.2	10.60	0.243	0.253	0.232	0.154	0.173	0.158	0.146	0.168	0.151	0.159	0.131
540.0	19.16	14.97	12.63	10.25	31.13	119.0	55.08	16.93	66.26	750.8	1076	38.66	4.364	2.912	2.548	1.989	1.601	1.924	1.543	1.617	1.434	1.335	1.217	0.937	0.954	0.945	0.776	0.822	0.843	0.491	0.603	0.583	0.437	0.457	0.479	0.395	0.365	0.360	0.385	0.329	0.267	0.286	0.334	0.401	0.492	0.946	3.107	4.300	2.951	0.658	0.291	0.225	0.265	0.390	0.647	0.911	0.452	0.323	0.467	0.879	3.009	6.974	16.97	97.43	270.8	115.9	3.868	0.242	0.195	0.197	0.174	0.155	0.136	0.130	0.128	0.207	0.126
545.0	20.78	17.14	10.90	9.804	17.37	91.82	91.93	16.65	24.05	285.1	1393	170.5	5.078	2.820	2.009	1.738	1.747	1.707	1.495	1.391	1.392	1.193	1.052	0.883	0.877	0.846	0.817	0.712	0.639	0.503	0.596	0.501	0.495	0.418	0.496	0.365	0.315	0.346	0.295	0.310	0.271	0.261	0.321	0.324	0.379	0.513	1.470	3.569	4.088	1.594	0.416	0.196	0.215	0.277	0.446	0.855	0.808	0.401	0.321	0.432	0.948	1.798	4.081	23.47	134.3	244.8	29.35	1.753	0.310	0.227	0.187	0.161	0.140	0.144	0.154	0.165	0.145
550.0	25.37	18.92	11.41	10.59	13.72	48.18	114.3	37.29	20.52	86.47	827.5	901.5	43.92	3.110	2.101	1.818	1.600	1.628	1.305	1.201	1.154	1.071	0.922	0.732	0.717	0.752	0.637	0.607	0.561	0.491	0.537	0.486	0.530	0.476	0.453	0.352	0.312	0.407	0.348	0.338	0.303	0.266	0.295	0.308	0.315	0.349	0.575	1.652	3.355	2.850	1.117	0.323	0.236	0.240	0.325	0.511	0.817	0.840	0.449	0.351	0.474	0.657	1.180	5.569	32.11	105.8	143.7	100.9	9.918	0.320	0.217	0.165	0.152	0.142	0.147	0.154	0.143
555.0	61.93	37.27	18.26	16.51	16.08	27.01	94.07	93.08	41.09	68.45	267.9	1175	309.1	5.098	2.019	1.693	1.459	1.161	1.219	1.098	1.071	0.965	0.794	0.719	0.574	0.587	0.557	0.626	0.630	0.502	0.556	0.518	0.455	0.484	0.527	0.382	0.341	0.404	0.319	0.346	0.355	0.311	0.316	0.385	0.344	0.354	0.312	0.609	1.640	2.838	2.197	0.845	0.241	0.238	0.250	0.300	0.429	0.812	0.815	0.425	0.426	0.468	0.576	1.637	7.605	24.08	45.05	164.5	125.8	11.38	0.270	0.191	0.198	0.188	0.188	0.147	0.147
560.0	99.70	61.35	38.17	25.68	21.88	23.55	67.85	138.7	75.51	91.68	146.9	744.9	764.1	22.01	2.430	1.869	1.419	1.074	1.153	0.840	0.891	0.909	0.780	0.612	0.543	0.594	0.504	0.569	0.519	0.444	0.463	0.459	0.501	0.555	0.497	0.465	0.335	0.474	0.447	0.414	0.404	0.318	0.413	0.371	0.466	0.313	0.333	0.380	0.760	1.914	2.638	1.564	0.425	0.253	0.194	0.256	0.360	0.600	0.953	0.841	0.538	0.498	0.637	0.874	2.285	5.954	10.86	59.92	170.5	91.18	5.834	0.238	0.186	0.169	0.149	0.192	0.187
565.0	141.0	96.43	58.25	36.69	26.95	27.66	56.07	159.0	126.3	138.1	157.1	356.7	1054	105.4	2.570	1.724	1.435	1.027	0.954	0.803	0.787	0.759	0.647	0.662	0.471	0.537	0.556	0.476	0.483	0.407	0.334	0.501	0.631	0.649	0.700	0.621	0.474	0.471	0.477	0.396	0.392	0.452	0.502	0.421	0.481	0.354	0.386	0.340	0.514	1.022	2.271	2.067	0.805	0.311	0.260	0.269	0.310	0.397	0.801	1.298	0.765	0.617	0.726	0.913	1.264	2.089	3.216	14.44	73.83	154.7	31.74	1.958	0.222	0.203	0.205	0.141	0.173
570.0	206.9	124.8	80.50	57.26	37.73	32.76	53.72	142.9	197.4	192.6	208.6	217.9	665.9	494.6	20.47	1.648	1.280	1.036	0.864	0.764	0.810	0.738	0.588	0.522	0.435	0.452	0.434	0.488	0.384	0.462	0.367	0.515	0.737	0.839	0.787	0.680	0.605	0.637	0.531	0.489	0.554	0.530	0.559	0.514	0.621	0.457	0.415	0.414	0.427	0.562	1.139	1.807	1.458	0.622	0.346	0.306	0.339	0.412	0.548	0.974	1.276	1.002	0.966	1.078	1.221	1.379	1.657	4.050	17.71	57.92	102.9	65.08	9.602	0.340	0.193	0.168	0.179
575.0	257.4	158.7	104.9	67.97	45.99	39.38	59.28	125.9	251.7	260.0	256.6	218.0	243.1	637.2	113.0	2.011	1.162	0.960	0.683	0.716	0.716	0.706	0.461	0.461	0.340	0.368	0.340	0.424	0.399	0.350	0.425	0.496	0.810	0.932	0.968	0.691	0.658	0.642	0.647	0.475	0.603	0.603	0.671	0.659	0.631	0.577	0.445	0.487	0.543	0.429	0.613	1.028	1.624	1.172	0.522	0.276	0.380	0.400	0.515	0.794	1.168	1.391	1.228	1.116	1.410	1.265	1.299	1.959	4.638	13.33	28.28	83.01	87.91	13.31	0.271	0.190	0.178
580.0	289.7	172.4	107.7	71.68	52.97	40.12	62.04	120.1	248.9	309.9	287.9	232.9	131.6	401.5	421.8	9.723	1.410	1.040	0.926	0.787	0.951	0.621	0.615	0.572	0.522	0.390	0.420	0.389	0.365	0.368	0.402	0.522	0.717	1.203	1.089	0.818	0.746	0.655	0.557	0.634	0.632	0.574	0.751	0.757	0.724	0.595	0.454	0.447	0.448	0.437	0.412	0.635	1.290	1.430	0.738	0.373	0.441	0.448	0.545	0.699	0.960	1.394	1.688	1.451	1.453	1.313	1.245	1.364	1.863	3.582	6.699	27.74	100.1	75.19	4.566	0.183	0.203
585.0	295.4	190.2	120.2	80.69	55.90	45.94	62.12	118.2	223.7	342.2	306.1	241.4	111.4	159.2	582.3	54.76	1.511	1.112	0.797	0.636	0.773	0.459	0.533	0.481	0.439	0.429	0.475	0.380	0.315	0.373	0.374	0.508	0.787	1.049	1.112	0.846	0.742	0.734	0.581	0.734	0.615	0.614	0.643	0.788	0.706	0.581	0.484	0.564	0.438	0.381	0.347	0.485	0.873	1.517	1.124	0.602	0.418	0.465	0.544	0.657	0.817	1.203	1.849	1.780	1.542	1.400	1.538	1.295	1.254	1.409	1.829	6.610	38.35	101.4	29.85	1.694	0.240
590.0	295.5	207.5	126.2	90.24	57.77	45.55	61.69	115.9	200.3	335.5	329.6	246.3	104.8	59.34	354.8	277.0	8.905	1.044	0.759	0.674	0.572	0.531	0.500	0.409	0.437	0.363	0.360	0.306	0.330	0.341	0.322	0.418	0.848	1.073	1.046	0.839	0.660	0.681	0.608	0.600	0.599	0.699	0.633	0.692	0.683	0.678	0.533	0.526	0.476	0.399	0.353	0.421	0.501	0.925	1.168	0.853	0.489	0.412	0.498	0.639	0.917	1.143	1.442	1.805	1.747	1.552	1.466	1.307	1.038	0.813	0.690	1.722	8.984	34.60	58.05	43.82	8.023
595.0	291.2	193.1	124.5	87.72	56.38	42.88	57.64	106.0	178.7	289.8	338.4	232.3	102.4	34.83	101.0	377.7	73.05	1.167	0.823	0.692	0.545	0.546	0.454	0.382	0.327	0.366	0.423	0.307	0.321	0.309	0.291	0.397	0.723	1.071	1.044	0.966	0.753	0.722	0.547	0.545	0.546	0.548	0.648	0.672	0.696	0.547	0.497	0.523	0.420	0.372	0.411	0.384	0.338	0.485	0.832	1.015	0.808	0.542	0.464	0.664	0.829	0.982	1.164	1.405	1.904	1.662	1.530	1.169	0.943	0.586	0.520	0.618	2.209	7.913	15.38	48.56	60.10
600.0	262.2	177.8	113.9	86.91	49.18	37.34	57.11	100.4	164.1	252.9	322.5	228.8	96.72	30.56	30.16	252.2	238.8	4.293	0.842	0.776	0.597	0.527	0.398	0.450	0.371	0.406	0.440	0.350	0.355	0.299	0.319	0.451	0.696	1.013	0.973	0.919	0.755	0.671	0.567	0.451	0.521	0.574	0.591	0.617	0.674	0.642	0.520	0.551	0.436	0.335	0.318	0.368	0.319	0.322	0.517	0.860	0.914	0.564	0.493	0.595	0.716	0.938	1.034	1.171	1.695	1.759	1.473	1.202	0.828	0.539	0.402	0.391	0.707	1.941	3.658	15.51	63.01
605.0	256.0	172.8	115.3	80.42	46.30	36.10	52.16	90.79	152.4	223.1	295.7	230.9	93.38	28.48	13.91	100.4	349.0	28.01	0.877	0.716	0.607	0.553	0.462	0.409	0.367	0.369	0.360	0.325	0.347	0.282	0.297	0.357	0.609	0.812	1.074	0.817	0.941	0.587	0.436	0.483	0.501	0.577	0.539	0.573	0.590	0.554	0.490	0.497	0.409	0.387	0.296	0.294	0.321	0.228	0.366	0.661	0.943	0.715	0.549	0.590	0.730	0.853	0.927	1.048	1.314	1.455	1.461	1.169	0.794	0.489	0.378	0.308	0.307	0.562	0.968	3.684	23.09
610.0	231.4	158.3	98.54	71.27	42.59	32.11	42.78	79.72	130.2	191.6	236.4	225.0	88.80	26.47	10.06	27.56	235.1	162.0	4.017	0.800	0.625	0.510	0.450	0.379	0.393	0.342	0.386	0.289	0.293	0.266	0.324	0.415	0.573	0.720	0.787	0.605	0.737	0.676	0.500	0.442	0.426	0.525	0.507	0.519	0.548	0.468	0.441	0.390	0.393	0.324	0.277	0.296	0.282	0.251	0.276	0.386	0.646	0.749	0.598	0.553	0.730	0.752	0.880	0.959	1.087	1.138	1.177	1.274	0.817	0.588	0.340	0.282	0.279	0.266	0.377	0.978	5.387
615.0	203.6	146.4	85.81	62.12	36.11	26.84	36.22	66.78	112.7	162.1	187.4	193.9	93.65	24.92	8.985	9.106	69.81	290.5	43.55	0.764	0.691	0.494	0.373	0.358	0.352	0.295	0.391	0.283	0.249	0.234	0.309	0.376	0.508	0.716	0.684	0.587	0.550	0.562	0.537	0.400	0.371	0.554	0.503	0.500	0.468	0.403	0.435	0.332	0.340	0.278	0.250	0.250	0.274	0.240	0.237	0.309	0.412	0.591	0.746	0.597	0.643	0.628	0.765	0.883	1.010	0.979	1.016	1.064	0.844	0.537	0.302	0.280	0.261	0.203	0.218	0.373	1.336
620.0	174.3	127.7	75.80	53.41	32.15	23.52	33.49	59.59	99.12	144.5	162.5	160.9	100.4	25.14	8.312	4.681	18.68	214.7	134.5	1.900	0.833	0.432	0.377	0.397	0.415	0.264	0.331	0.407	0.250	0.247	0.282	0.358	0.519	0.598	0.705	0.626	0.571	0.451	0.552	0.468	0.433	0.476	0.474	0.450	0.439	0.422	0.364	0.350	0.280	0.290	0.237	0.292	0.268	0.184	0.178	0.246	0.293	0.461	0.606	0.687	0.621	0.596	0.711	0.763	0.947	0.849	0.805	0.796	0.839	0.655	0.345	0.264	0.266	0.147	0.173	0.220	0.442
625.0	151.1	97.85	68.37	50.35	29.57	22.68	30.32	53.15	85.02	123.8	141.7	129.2	100.6	28.55	7.913	4.068	5.868	89.01	216.2	14.74	0.690	0.511	0.432	0.327	0.309	0.281	0.346	0.290	0.235	0.266	0.308	0.306	0.560	0.586	0.616	0.644	0.470	0.426	0.478	0.434	0.346	0.361	0.347	0.442	0.371	0.395	0.333	0.378	0.244	0.244	0.224	0.277	0.227	0.200	0.203	0.227	0.222	0.320	0.505	0.668	0.489	0.593	0.654	0.672	0.720	0.802	0.647	0.735	0.758	0.729	0.391	0.295	0.236	0.202	0.157	0.143	0.216
630.0	131.4	87.87	61.79	40.50	25.24	18.79	23.68	42.75	68.88	102.1	118.8	103.6	79.68	37.98	8.102	3.333	2.739	23.50	159.4	117.9	2.342	0.517	0.434	0.284	0.296	0.340	0.304	0.325	0.295	0.231	0.290	0.273	0.457	0.502	0.527	0.489	0.434	0.391	0.449	0.403	0.396	0.337	0.332	0.377	0.334	0.373	0.294	0.325	0.254	0.199	0.200	0.215	0.180	0.206	0.203	0.162	0.212	0.258	0.357	0.557	0.599	0.572	0.544	0.643	0.654	0.640	0.591	0.580	0.533	0.526	0.506	0.348	0.210	0.164	0.161	0.163	0.183
635.0	107.3	76.69	53.71	32.36	21.56	17.45	19.31	34.31	56.89	82.44	95.75	81.96	54.30	45.12	10.33	3.112	2.343	6.449	49.20	213.1	29.17	0.567	0.477	0.373	0.319	0.375	0.368	0.274	0.306	0.255	0.251	0.259	0.312	0.494	0.488	0.446	0.401	0.395	0.364	0.289	0.377	0.401	0.338	0.322	0.342	0.284	0.254	0.236	0.206	0.167	0.200	0.245	0.173	0.184	0.152	0.125	0.228	0.205	0.277	0.387	0.493	0.511	0.480	0.511	0.584	0.593	0.640	0.524	0.355	0.342	0.395	0.483	0.262	0.167	0.151	0.171	0.169
640.0	80.83	66.18	42.54	29.96	20.88	14.96	16.36	30.11	47.68	69.95	82.42	70.12	41.18	42.67	16.17	3.511	2.037	2.785	13.15	163.7	106.1	1.064	0.460	0.374	0.266	0.306	0.272	0.292	0.320	0.229	0.262	0.254	0.282	0.403	0.391	0.440	0.374	0.325	0.322	0.252	0.280	0.398	0.267	0.322	0.328	0.274	0.200	0.215	0.246	0.171	0.208	0.199	0.192	0.131	0.177	0.131	0.160	0.179	0.234	0.252	0.411	0.542	0.443	0.489	0.499	0.484	0.502	0.411	0.396	0.328	0.302	0.385	0.374	0.184	0.187	0.181	0.156
645.0	73.88	59.87	39.25	25.79	18.96	12.15	16.35	26.58	41.17	61.10	71.26	61.84	34.12	33.06	22.21	3.476	1.899	1.480	4.040	73.23	192.0	7.011	0.458	0.292	0.347	0.329	0.313	0.226	0.240	0.195	0.234	0.268	0.305	0.368	0.391	0.386	0.372	0.279	0.300	0.227	0.217	0.352	0.343	0.266	0.289	0.246	0.230	0.202	0.296	0.170	0.166	0.160	0.203	0.145	0.120	0.127	0.179	0.184	0.206	0.224	0.317	0.486	0.475	0.473	0.429	0.414	0.425	0.452	0.332	0.287	0.237	0.338	0.344	0.238	0.209	0.127	0.204
650.0	74.73	49.71	38.08	21.89	15.83	11.25	14.42	21.16	34.10	49.32	58.23	53.28	28.92	22.16	26.69	4.438	1.745	1.018	1.738	21.16	194.2	39.47	0.493	0.333	0.324	0.331	0.373	0.267	0.245	0.204	0.253	0.247	0.259	0.299	0.330	0.340	0.317	0.242	0.269	0.249	0.198	0.321	0.364	0.247	0.316	0.293	0.258	0.202	0.250	0.170	0.172	0.165	0.230	0.171	0.133	0.144	0.148	0.165	0.180	0.198	0.234	0.352	0.386	0.524	0.356	0.378	0.451	0.352	0.328	0.265	0.195	0.225	0.291	0.296	0.266	0.123	0.198
