Sample:	'1
File name:	C2025021101–§’Ú«≈.FD3
Run date:	'09:46:12, 02/12/2025
Operator:	Administrator
Comment:	'

Instrument
Model:	F-2700 FL Spectrophotometer
Serial number:	23B8-004
ROM Version:	4J14000 07

Instrument parameters
Measurement type:	3-D scan
Data mode:	Fluorescence
EX  Start WL:	220.0 nm
EX  End WL:	600.0 nm
EX Sampling interval:	5.0 nm
EM  Start WL:	230.0 nm
EM  End WL:	650.0 nm
EM Sampling interval:	5.0 nm
Scan speed:	12000 nm/min
EX Slit:	5.0 nm
EM Slit:	5.0 nm
PMT Voltage:	700 V
Response:	Auto 
Corrected spectra:	Off
Contour interval:	50.000

Peak integration
Integration method:	Rectangular
Sensitivity:	1
Threshold:	1.000

Peaks
No.	ApexEX/EM(nm)	Height(Data)
1	225.0/615.0	92.68
2	230.0/345.0	9170
3	255.0/440.0	5691
4	265.0/375.0	4271
5	265.0/585.0	288.8
6	270.0/595.0	289.5
7	275.0/340.0	5801
8	275.0/415.0	6690
9	275.0/610.0	275.0
10	340.0/415.0	5055
11	460.0/345.0	25.31
12	475.0/350.0	25.98
13	505.0/275.0	2.641
14	535.0/270.0	58.67
15	540.0/415.0	29.28
16	565.0/415.0	29.28
17	570.0/340.0	28.62
18	570.0/410.0	28.67

Data points
	220.0	225.0	230.0	235.0	240.0	245.0	250.0	255.0	260.0	265.0	270.0	275.0	280.0	285.0	290.0	295.0	300.0	305.0	310.0	315.0	320.0	325.0	330.0	335.0	340.0	345.0	350.0	355.0	360.0	365.0	370.0	375.0	380.0	385.0	390.0	395.0	400.0	405.0	410.0	415.0	420.0	425.0	430.0	435.0	440.0	445.0	450.0	455.0	460.0	465.0	470.0	475.0	480.0	485.0	490.0	495.0	500.0	505.0	510.0	515.0	520.0	525.0	530.0	535.0	540.0	545.0	550.0	555.0	560.0	565.0	570.0	575.0	580.0	585.0	590.0	595.0	600.0
230.0	11.30	509.6	1618	560.6	25.90	4.760	3.958	4.041	4.074	4.316	4.740	4.804	4.371	3.830	3.301	2.639	2.515	2.170	2.025	1.923	1.889	1.894	1.896	1.775	1.709	1.493	1.447	1.301	1.307	1.216	1.100	0.924	0.835	0.738	0.642	0.477	0.398	0.326	0.293	0.242	0.222	0.192	0.224	0.187	0.164	0.165	0.552	2.779	5.619	4.615	1.726	0.293	0.123	0.094	0.086	0.079	0.070	0.086	0.071	0.067	0.061	0.041	0.024	0.044	0.024	0.032	0.023	0.019	0.015	0.015	0.016	0.006	0.004	-0.007	-0.003	-0.014	0.005
235.0	22.51	144.2	1209	2493	508.7	41.00	4.885	5.070	4.587	4.920	5.470	4.854	5.248	3.597	3.594	2.699	2.805	2.229	1.935	1.741	1.922	1.727	1.990	1.671	1.651	1.716	1.450	1.376	1.304	1.113	0.961	0.829	0.758	0.772	0.614	0.489	0.375	0.394	0.311	0.261	0.278	0.237	0.203	0.237	0.169	0.124	0.250	0.788	2.360	5.464	8.777	9.536	3.815	0.591	0.125	0.051	0.092	0.101	0.126	0.032	0.050	0.042	0.017	0.041	0.056	0.027	0.051	0.037	0.009	0.038	0.003	0.023	0.023	0.004	-0.015	0.017	-0.016
240.0	41.59	67.19	375.6	2430	3292	392.6	20.45	7.177	6.339	5.558	5.686	5.575	5.115	4.436	3.527	2.991	2.784	2.361	2.290	2.054	1.997	1.842	1.786	1.905	1.778	1.855	1.584	1.325	1.302	1.083	1.054	0.937	0.694	0.755	0.653	0.472	0.503	0.323	0.285	0.234	0.274	0.206	0.206	0.229	0.233	0.247	0.217	0.365	0.645	1.797	5.189	13.78	17.27	10.48	3.313	0.321	0.082	0.080	0.103	0.065	0.085	0.054	0.042	0.039	0.060	0.027	0.056	0.028	0.031	0.024	0.021	0.028	0.011	0.032	0.026	0.043	0.006
245.0	39.07	92.98	123.2	879.3	4022	3117	280.2	12.17	6.401	6.769	7.068	6.241	6.062	4.354	3.876	2.838	2.743	2.447	1.996	2.120	2.130	2.047	1.790	1.879	1.811	1.766	1.566	1.314	1.294	1.128	0.976	0.918	0.613	0.779	0.629	0.520	0.483	0.316	0.303	0.264	0.314	0.176	0.232	0.203	0.241	0.303	0.352	0.373	0.289	0.561	1.422	5.189	13.83	22.79	20.93	10.03	1.898	0.222	0.124	0.090	0.089	0.054	0.047	0.030	0.069	0.031	0.044	0.057	0.052	0.069	0.026	0.014	-0.010	0.015	0.000	0.030	0.009
250.0	23.64	75.57	146.1	256.1	1356	3946	4493	1106	56.76	9.640	8.746	7.499	6.675	5.399	4.057	3.183	3.232	2.644	2.176	2.490	2.272	2.233	1.883	1.959	1.798	1.764	1.668	1.474	1.411	1.327	1.168	0.846	0.779	0.699	0.646	0.546	0.558	0.338	0.318	0.307	0.292	0.249	0.215	0.215	0.233	0.209	0.301	0.445	0.590	0.552	0.619	1.340	3.494	7.871	15.46	21.22	27.09	17.67	9.678	2.187	0.224	0.090	0.110	0.089	0.102	0.052	0.039	0.080	0.031	0.042	0.036	0.046	0.001	0.037	0.022	0.031	0.027
255.0	17.72	27.13	112.3	235.0	364.7	1031	4352	8008	1492	49.17	11.56	10.31	7.842	6.816	5.004	3.686	3.562	2.989	2.580	2.406	2.303	2.444	2.258	1.887	2.083	1.725	1.842	1.565	1.426	1.447	1.272	0.996	0.904	0.687	0.669	0.570	0.495	0.404	0.337	0.227	0.323	0.234	0.291	0.280	0.265	0.265	0.256	0.274	0.408	0.578	0.852	0.885	1.067	1.930	3.662	5.386	12.37	29.12	48.75	27.20	14.54	2.033	0.183	0.156	0.136	0.139	0.069	0.087	0.073	0.067	0.052	0.048	0.066	0.062	0.051	0.030	0.069
260.0	21.55	19.97	51.11	213.8	250.1	271.8	1375	7565	8644	234.6	25.16	12.59	9.180	7.753	6.310	4.386	3.730	3.289	2.749	2.714	2.625	2.405	2.352	2.232	2.179	1.988	1.776	1.609	1.483	1.484	1.314	1.150	0.993	0.703	0.595	0.579	0.666	0.448	0.378	0.288	0.350	0.237	0.318	0.280	0.242	0.216	0.200	0.242	0.243	0.314	0.678	1.288	1.397	0.863	0.981	1.401	3.031	8.385	24.23	48.54	61.38	24.72	10.69	0.924	0.237	0.171	0.096	0.116	0.103	0.119	0.051	0.074	0.048	0.075	0.056	0.049	0.062
265.0	19.12	17.51	26.83	104.6	283.5	193.8	350.9	2663	9999.9	7939	184.0	18.30	12.51	9.023	7.035	5.618	4.563	3.468	3.306	2.929	2.432	2.306	2.367	2.349	2.222	2.075	1.974	1.906	1.622	1.606	1.552	1.159	0.935	0.834	0.673	0.566	0.581	0.493	0.427	0.359	0.368	0.333	0.324	0.274	0.266	0.219	0.232	0.263	0.218	0.251	0.312	0.790	1.285	1.540	1.003	0.569	0.858	2.159	5.852	15.76	40.36	66.81	70.37	21.54	5.498	0.367	0.150	0.130	0.110	0.121	0.108	0.099	0.097	0.135	0.098	0.066	0.061
270.0	34.59	39.42	39.43	51.54	152.6	312.3	244.2	653.0	3374	9819	9999.9	743.3	45.98	13.12	8.940	6.571	5.441	4.008	3.631	3.128	2.956	2.751	2.651	2.565	2.285	2.091	1.941	2.105	1.629	1.601	1.524	1.101	1.036	0.976	0.731	0.709	0.622	0.502	0.511	0.407	0.336	0.335	0.343	0.335	0.338	0.321	0.317	0.306	0.298	0.271	0.265	0.339	0.599	0.970	1.512	1.566	1.315	1.016	1.630	3.841	9.814	20.81	40.08	58.67	51.94	56.51	14.70	5.531	0.466	0.200	0.190	0.156	0.092	0.142	0.127	0.093	0.080
275.0	75.97	111.5	96.24	75.71	78.66	176.5	424.7	342.3	845.1	2518	9485	9999.9	1035	42.40	13.40	8.749	7.039	5.081	4.034	3.847	3.280	3.127	3.051	2.726	2.491	2.391	2.374	2.231	1.871	1.712	1.346	1.199	1.029	0.966	0.832	0.763	0.714	0.563	0.481	0.393	0.448	0.486	0.407	0.409	0.478	0.455	0.533	0.487	0.433	0.405	0.376	0.397	0.429	0.502	0.653	1.042	1.954	2.641	1.664	1.420	2.683	5.174	9.477	14.16	19.75	53.56	98.81	97.88	23.59	6.111	0.482	0.237	0.216	0.167	0.127	0.190	0.068
280.0	161.3	219.7	212.7	137.5	105.5	134.8	355.5	555.1	411.3	778.5	3021	9999.9	9536	721.8	23.96	13.19	8.313	6.245	4.683	4.066	3.807	3.331	3.073	2.986	2.804	2.491	2.428	2.082	1.844	1.478	1.533	1.438	1.227	1.079	0.975	0.801	0.895	0.666	0.566	0.469	0.465	0.472	0.498	0.648	0.512	0.715	0.721	0.808	0.722	0.660	0.577	0.548	0.444	0.574	0.532	0.697	1.210	2.376	3.264	2.744	1.994	2.272	3.546	4.417	6.135	14.96	38.38	86.41	119.7	32.20	19.16	2.475	0.331	0.257	0.194	0.154	0.155
285.0	285.1	404.0	376.0	240.4	165.9	172.5	291.1	681.9	765.3	777.0	1366	4231	9999.9	7619	107.3	18.20	11.60	8.545	5.606	5.000	4.433	3.642	3.240	3.275	3.153	2.760	2.715	2.272	1.946	1.835	1.560	1.584	1.317	1.351	1.099	0.985	0.928	0.845	0.719	0.603	0.592	0.629	0.618	0.762	0.820	1.018	1.125	1.270	1.237	1.031	0.816	0.721	0.732	0.690	0.692	0.925	1.230	1.552	2.790	4.003	4.277	3.622	3.188	3.967	4.791	6.734	11.89	25.53	57.33	98.26	127.5	30.13	13.73	1.107	0.295	0.226	0.247
290.0	483.6	680.0	663.1	433.5	285.5	286.8	397.6	695.4	1231	1554	1641	2245	4501	9999.9	9999.9	1908	33.83	11.90	8.278	6.658	5.139	4.707	3.909	3.567	3.108	2.988	2.855	2.567	2.316	2.231	1.785	1.695	1.538	1.391	1.436	1.275	1.033	0.989	0.911	0.734	0.747	0.748	0.852	1.083	1.192	1.451	1.822	2.154	2.039	1.640	1.346	1.396	1.301	1.130	1.149	1.438	1.726	2.045	2.543	3.673	5.088	6.409	7.506	7.535	7.624	7.919	8.976	11.96	18.15	29.44	55.11	75.38	102.8	82.16	59.67	10.87	1.692
295.0	707.6	959.7	929.7	634.0	435.3	430.7	579.7	895.4	1431	2293	2686	2469	2270	3018	9999.9	9999.9	627.3	33.45	12.53	9.103	6.211	6.082	4.562	4.396	3.724	3.336	3.078	2.922	2.644	2.443	1.970	1.911	1.792	1.533	1.510	1.441	1.368	1.195	1.055	0.934	0.916	1.000	1.037	1.278	1.617	2.236	2.396	2.833	2.651	2.295	1.934	2.069	1.688	1.787	1.643	2.103	2.337	2.939	3.457	4.605	5.687	7.439	8.869	11.62	13.32	12.83	11.50	11.78	12.70	12.75	16.80	20.22	28.64	51.75	122.0	149.0	32.49
300.0	783.8	1164	1138	800.4	556.0	580.3	757.5	1108	1694	2516	3421	3079	2150	1489	3185	9999.9	9999.9	471.3	21.24	11.30	8.297	7.046	5.517	4.812	4.632	3.848	3.477	3.009	2.574	2.651	2.180	1.832	1.770	1.547	1.801	1.499	1.339	1.295	1.191	1.095	1.029	1.045	1.028	1.381	1.772	2.585	2.619	3.372	3.457	2.787	2.381	2.564	2.224	2.243	2.114	2.672	3.044	3.764	4.718	5.549	6.615	8.442	10.06	12.35	15.37	16.73	15.85	14.25	13.34	11.02	9.757	9.101	9.560	14.43	38.19	89.30	136.5
305.0	876.5	1290	1271	962.8	701.3	745.2	989.5	1376	2001	2852	3779	3922	2628	1525	1357	4120	9999.9	4911	72.45	16.89	10.65	8.474	7.037	5.593	5.136	4.212	3.598	3.353	2.653	2.669	2.555	2.162	1.784	1.580	1.794	1.759	1.499	1.417	1.309	1.096	1.202	1.085	1.273	1.619	1.927	2.526	3.093	3.714	3.694	3.119	2.835	2.999	2.811	2.854	2.906	3.431	4.104	4.661	5.841	7.012	8.446	10.01	11.70	13.76	16.77	17.75	19.97	19.22	16.32	12.81	10.71	8.724	7.200	7.362	11.65	23.90	51.99
310.0	930.0	1363	1412	1098	862.9	912.8	1193	1631	2261	3086	3855	4164	3354	2011	1263	1510	4264	9999.9	9999.9	1529	26.97	12.09	8.978	7.030	5.778	4.684	4.370	3.851	3.304	2.933	2.687	2.370	2.119	1.934	1.858	1.706	1.541	1.372	1.226	1.204	1.163	1.192	1.350	1.704	2.070	2.700	3.252	4.023	4.152	3.638	3.386	3.628	3.436	3.388	3.639	4.029	5.110	5.912	6.914	8.192	9.452	10.86	13.43	15.05	17.35	18.44	19.60	20.18	19.52	17.18	13.95	10.77	8.709	7.623	7.344	9.017	14.85
315.0	983.9	1558	1662	1284	1038	1092	1399	1810	2410	3219	3921	4154	3643	2730	1634	1165	1511	2747	9999.9	9999.9	467.0	28.42	12.89	9.454	7.478	5.738	5.053	4.435	3.842	3.395	3.204	2.689	2.033	1.905	1.828	1.837	1.543	1.366	1.314	1.265	1.284	1.242	1.614	1.680	2.252	2.979	3.575	4.784	4.546	4.345	3.911	4.171	3.889	3.849	4.256	4.752	5.519	6.818	7.016	9.447	10.17	11.76	14.30	15.84	17.26	18.37	19.28	20.18	19.78	18.49	17.60	14.93	12.08	9.975	8.334	7.589	8.010
320.0	1318	2219	2398	1706	1241	1246	1559	2012	2612	3432	4165	4438	3953	3288	2262	1385	1098	1026	3030	9999.9	9999.9	385.5	21.92	12.61	8.878	7.148	5.812	5.133	3.984	3.813	3.624	2.872	2.273	2.089	2.069	1.752	1.624	1.667	1.337	1.276	1.301	1.279	1.832	2.023	2.648	3.966	4.799	6.655	6.933	5.871	5.066	5.218	4.827	4.767	4.779	5.250	6.332	7.758	8.220	10.29	11.02	12.87	14.95	16.82	18.24	19.29	20.48	21.40	20.50	19.69	19.01	17.79	16.58	14.13	11.12	9.074	8.033
325.0	1754	3463	4116	2848	1687	1482	1772	2271	2895	3759	4550	4860	4449	3723	2929	1857	1219	788.4	987.5	3778	9999.9	9999.9	58.40	17.77	11.05	8.579	6.748	5.687	4.630	4.144	3.684	3.218	2.420	2.005	2.129	1.845	1.754	1.674	1.416	1.417	1.453	1.686	2.133	2.405	3.573	5.470	7.716	10.49	11.99	10.06	8.452	7.735	6.443	5.853	5.716	6.219	7.174	8.423	9.842	11.19	12.36	14.21	16.62	18.62	19.78	21.39	22.64	24.05	22.66	22.32	21.56	20.03	19.58	18.10	15.46	11.89	9.786
330.0	2233	4720	6476	5050	2931	2010	2086	2556	3227	4086	4929	5358	5028	4314	3449	2558	1656	996.1	714.1	1206	3831	9999.9	9585	1412	27.72	12.48	9.073	7.133	5.474	4.794	4.061	3.418	2.705	2.393	2.280	1.945	1.968	1.645	1.447	1.540	1.734	1.737	2.307	2.933	4.543	7.169	10.29	14.91	17.91	16.79	14.68	14.17	11.10	9.275	7.977	7.817	8.605	9.721	11.12	12.59	13.90	15.92	18.23	19.94	21.90	23.25	24.90	25.78	26.04	25.79	24.81	23.13	22.07	20.02	18.58	16.77	14.37
335.0	2567	5536	8071	6911	4330	2686	2421	2830	3488	4363	5196	5690	5473	4857	3896	2978	2222	1386	931.7	844.3	1302	2771	9455	9999.9	2082	31.61	12.95	9.301	6.996	6.070	4.872	3.970	3.197	2.885	2.466	1.956	2.111	1.657	1.642	1.698	1.703	1.993	2.353	3.467	5.145	8.252	11.91	18.27	21.81	21.96	19.41	20.17	17.01	13.46	10.96	9.503	10.34	10.98	12.17	13.61	15.22	16.96	18.60	21.44	22.79	24.45	26.43	27.36	27.37	28.02	27.36	25.89	24.20	22.84	20.65	18.47	17.12
340.0	2754	5964	8967	7890	5099	3150	2657	3012	3629	4468	5292	5801	5666	5102	4155	3180	2425	1740	1150	910.7	867.4	1054	2944	9999.9	9999.9	368.4	23.97	12.08	8.839	6.992	5.472	4.373	3.415	3.114	2.743	2.383	2.147	1.819	1.760	1.829	1.786	2.068	2.422	3.490	5.461	8.674	12.91	19.07	24.48	24.45	22.59	23.87	20.41	15.76	12.66	10.89	11.24	11.82	12.99	14.45	15.89	17.74	18.92	22.23	23.61	24.91	26.55	27.93	27.92	28.10	28.62	26.79	25.88	24.48	21.54	20.18	17.81
345.0	2675	5940	9170	8305	5488	3368	2798	3072	3646	4459	5237	5684	5616	5109	4241	3299	2464	1938	1404	1042	868.8	780.8	1063	3600	9999.9	9999.9	292.6	18.03	10.97	8.091	6.303	4.741	3.908	3.334	2.872	2.511	2.317	1.951	1.917	1.819	1.721	2.087	2.349	3.592	5.331	8.669	12.67	19.95	25.31	24.81	23.80	25.36	22.23	17.21	13.71	11.50	11.58	12.37	13.31	14.75	15.90	18.33	19.52	21.92	23.68	24.27	26.53	27.48	27.56	27.57	28.22	27.24	26.01	24.89	22.56	21.21	18.44
350.0	2509	5553	8493	8192	5699	3601	2926	3144	3613	4275	4963	5399	5345	4914	4182	3339	2552	2005	1678	1333	1050	887.0	785.1	1185	3607	9999.9	8489	1376	28.10	11.86	7.801	5.935	4.264	3.593	3.043	2.522	2.219	2.071	1.876	1.711	1.797	1.934	2.469	3.512	5.019	7.903	11.47	18.17	23.12	23.76	23.55	25.98	23.00	18.42	14.76	12.46	12.40	13.16	13.67	14.51	16.23	17.35	18.80	20.75	22.39	23.47	25.16	25.20	26.38	26.51	26.71	26.40	25.36	23.86	22.80	21.09	19.17
355.0	2299	4901	7675	7654	5700	3738	3053	3188	3555	4106	4661	5013	5004	4659	4042	3320	2651	2144	1831	1666	1361	1110	912.8	806.2	1167	2588	7429	9999.9	2229	33.82	12.42	8.267	5.607	4.419	3.523	2.777	2.407	2.192	2.060	1.760	1.855	1.917	2.399	3.065	4.384	7.269	10.37	16.17	20.41	21.61	21.58	24.14	22.38	18.52	15.43	12.61	13.20	13.23	14.11	14.48	15.74	17.42	18.40	19.81	20.60	22.11	22.82	23.90	24.84	25.23	25.12	25.28	24.42	23.98	22.52	21.06	19.48
360.0	2106	4446	7064	7227	5541	3801	3168	3268	3575	4018	4450	4736	4734	4443	3920	3300	2744	2288	2006	1849	1679	1379	1124	881.8	781.7	926.5	2196	9999	9999.9	365.3	27.02	12.05	7.122	5.102	3.787	3.271	2.813	2.506	2.214	2.015	1.830	1.871	2.294	3.110	3.972	6.733	9.411	14.58	18.29	19.43	20.56	23.26	21.53	18.50	15.17	13.58	14.04	13.44	14.04	14.51	15.99	17.10	18.12	19.58	19.80	21.04	21.16	22.59	23.37	23.98	24.12	23.88	23.94	23.44	22.11	20.87	19.77
365.0	1888	4055	6346	6797	5490	3937	3326	3425	3704	4049	4344	4489	4470	4251	3820	3316	2846	2480	2228	2077	1982	1767	1429	1130	905.3	736.2	833.8	3200	9999.9	9999.9	315.0	21.82	10.04	6.476	4.934	3.562	3.038	2.645	2.227	2.044	2.022	1.902	2.153	2.812	4.051	6.272	8.629	13.47	17.15	17.94	19.28	22.46	21.05	18.93	15.74	14.06	14.89	14.64	14.81	15.48	16.39	17.44	18.68	19.45	20.11	20.53	20.71	21.00	21.93	22.44	22.79	22.69	22.91	22.93	21.48	20.94	20.21
370.0	1661	3580	5706	6347	5472	4186	3627	3707	3956	4226	4319	4268	4210	4038	3713	3337	2989	2760	2606	2482	2377	2254	1990	1604	1292	1008	789.6	1153	3309	9719	9999.9	1331	27.94	11.61	7.145	4.579	3.573	2.996	2.465	2.231	2.211	2.014	2.290	2.711	3.673	5.534	7.992	11.51	15.50	16.71	17.71	21.30	20.81	19.01	16.73	15.38	15.80	15.73	16.05	16.93	17.76	18.27	19.47	20.18	20.46	20.03	19.81	19.80	20.90	21.03	21.45	21.31	21.61	21.80	20.77	21.31	20.75
375.0	1606	3132	5163	5857	5307	4310	3803	3882	4074	4271	4219	4027	3987	3832	3579	3305	3079	2956	2882	2812	2722	2593	2432	2107	1723	1382	1065	930.7	1227	2570	6811	9999.9	2157	33.28	12.79	6.791	4.993	3.472	2.803	2.594	2.113	2.415	2.339	2.799	3.557	5.197	6.974	10.87	13.47	14.98	16.37	20.23	19.90	18.48	16.92	15.21	16.27	16.21	17.21	18.11	18.74	19.16	19.96	20.12	20.03	19.28	19.40	19.20	19.50	19.66	20.15	21.03	20.49	21.55	20.24	20.08	20.50
380.0	1472	2885	4688	5487	5118	4317	3876	3916	4092	4214	4089	3864	3831	3711	3494	3272	3113	3042	3011	2986	2929	2823	2671	2454	2076	1696	1347	1089	938.8	1039	2040	8706	9999.9	1621	28.52	10.50	6.793	4.505	3.280	2.630	2.350	2.359	2.455	2.765	3.338	4.695	6.769	9.585	12.58	13.77	15.14	18.90	19.35	18.13	17.18	15.42	16.85	17.01	17.26	18.22	18.12	18.94	19.91	19.97	19.81	18.68	17.89	18.18	18.86	19.03	19.84	19.66	19.82	20.81	20.04	20.40	20.15
385.0	1346	2699	4400	5233	5004	4367	4019	4011	4139	4240	4048	3793	3732	3644	3456	3267	3136	3111	3134	3149	3129	3060	2910	2731	2444	2043	1661	1363	1099	878.0	892.9	2743	9967	9648	275.4	21.23	10.30	5.978	4.210	3.097	2.543	2.474	2.744	2.887	3.212	4.562	6.264	9.120	11.83	12.79	14.64	18.76	18.54	17.79	17.62	16.56	17.21	17.06	17.91	18.65	19.05	19.51	19.56	20.05	19.67	18.53	17.50	17.28	17.93	18.65	19.14	19.51	19.29	20.38	20.49	20.02	20.28
390.0	1300	2597	4190	5069	5048	4587	4305	4289	4392	4470	4209	3890	3846	3755	3559	3362	3237	3246	3316	3401	3442	3443	3341	3168	2950	2627	2207	1874	1548	1202	919.9	1094	3025	7593	8818	1148	26.96	12.47	6.777	4.176	3.150	2.766	2.794	2.884	3.577	4.716	6.070	8.895	11.20	12.41	14.14	18.26	18.48	18.74	17.89	17.61	18.21	18.65	18.87	19.16	20.31	20.41	20.96	21.13	20.35	19.00	18.11	17.95	18.51	19.13	19.55	20.47	20.37	20.75	20.55	20.65	20.69
395.0	1309	2537	4028	4991	5139	4821	4620	4622	4689	4873	4608	4297	4275	4164	3893	3557	3382	3385	3491	3647	3759	3826	3828	3711	3504	3271	2928	2526	2168	1748	1327	1039	1194	2069	5318	9632	1827	32.85	14.02	7.094	4.127	3.345	3.303	3.421	3.626	5.042	6.005	8.748	10.61	11.91	13.28	17.68	18.71	19.46	19.17	18.79	20.32	20.25	20.48	21.12	21.45	21.93	22.47	22.34	21.89	19.91	19.85	19.61	20.37	20.87	21.18	21.35	22.20	21.96	21.61	21.30	21.66
400.0	1314	2434	3868	4902	5139	4993	4862	4923	5002	5263	5131	4924	4861	4735	4336	3850	3522	3487	3605	3811	3977	4127	4192	4152	4000	3790	3517	3141	2736	2270	1765	1314	1007	947.6	1644	6444	9296	1434	28.88	10.96	5.961	3.996	3.685	3.618	4.060	4.943	5.971	8.709	10.92	11.84	13.42	17.47	18.93	19.87	19.70	19.17	20.97	21.91	22.10	22.84	22.46	23.72	23.74	23.94	23.69	22.31	21.73	21.49	22.32	22.90	23.14	23.39	24.33	23.96	22.30	23.14	22.75
405.0	1301	2458	3869	4854	5190	5194	5117	5205	5379	5731	5781	5692	5601	5376	4861	4176	3691	3605	3717	3952	4176	4398	4526	4570	4479	4296	4047	3748	3302	2796	2229	1679	1200	877.7	823.7	2036	7615	7585	248.7	20.43	8.243	5.252	4.349	3.905	4.315	5.242	6.210	8.672	10.36	11.78	13.34	17.35	19.32	19.91	20.18	20.68	22.12	22.74	23.04	23.70	23.72	24.72	25.27	25.77	26.44	24.57	24.33	24.51	24.71	26.07	25.37	25.77	26.48	26.08	24.54	24.40	23.41
410.0	1368	2456	3783	4780	5239	5341	5373	5501	5794	6264	6462	6464	6373	6056	5388	4482	3854	3678	3786	4053	4334	4632	4829	4968	4938	4780	4552	4276	3885	3344	2720	2092	1514	1079	810.2	884.2	2278	5547	6374	1087	21.85	8.107	5.556	4.880	4.609	5.290	6.406	8.593	10.56	11.56	13.36	17.55	19.20	20.44	21.12	21.61	23.61	23.82	24.18	25.28	25.66	26.15	26.96	28.33	28.65	27.72	27.04	27.31	27.59	28.65	28.67	28.40	28.23	28.15	26.53	25.63	24.55
415.0	1278	2323	3660	4644	5167	5378	5495	5597	5879	6373	6656	6690	6593	6258	5535	4534	3821	3619	3728	3975	4308	4620	4866	5053	5055	4946	4739	4463	4123	3639	2985	2321	1706	1239	898.8	698.2	828.2	1444	3468	7374	1659	25.43	8.854	6.119	5.386	5.714	6.303	8.414	10.55	11.61	13.07	17.46	18.93	20.46	21.83	22.17	24.23	24.32	25.03	24.92	26.47	26.66	27.77	29.03	29.28	28.19	27.68	27.88	29.05	29.28	28.33	28.84	28.97	28.27	26.65	25.24	24.55
420.0	1265	2256	3462	4464	5031	5315	5459	5568	5785	6251	6560	6600	6518	6178	5449	4456	3712	3499	3601	3838	4161	4480	4743	4934	4968	4880	4699	4451	4119	3693	3070	2396	1780	1308	956.2	691.5	533.8	526.7	962.1	4626	6876	1245	19.37	7.678	6.089	6.162	6.540	7.893	10.14	11.22	12.56	16.47	18.85	20.12	21.35	21.83	23.83	24.58	25.17	25.30	26.35	26.24	26.89	28.62	28.13	27.18	26.83	27.69	28.52	28.23	28.27	28.38	28.39	27.52	26.14	24.28	23.52
425.0	1221	2189	3308	4293	4936	5245	5387	5541	5693	6107	6407	6509	6407	6072	5347	4352	3608	3375	3460	3690	3998	4308	4581	4785	4833	4783	4614	4393	4074	3665	3117	2460	1837	1364	1010	724.6	503.0	349.5	351.2	1309	5304	5660	230.2	13.53	7.381	6.273	6.809	8.037	9.935	10.71	12.28	16.34	18.63	19.84	20.90	21.82	23.95	24.37	25.07	25.19	25.67	26.11	26.56	27.49	27.79	27.21	27.14	27.15	27.61	27.62	27.70	27.66	27.50	27.33	26.13	24.66	23.10
430.0	1174	2054	3183	4174	4846	5210	5465	5545	5690	6022	6355	6472	6380	6000	5259	4280	3523	3269	3334	3542	3804	4108	4389	4612	4681	4649	4507	4324	4042	3645	3135	2544	1938	1456	1097	806.5	562.1	362.9	254.9	400.1	1461	4006	4998	1001	19.12	8.575	7.477	8.594	9.352	10.43	12.06	16.16	18.21	19.82	20.89	22.00	24.26	24.95	24.63	25.38	25.31	26.25	26.94	27.16	27.71	27.20	26.40	27.41	27.49	27.93	27.44	27.92	27.22	26.55	25.06	23.67	22.42
435.0	1228	1941	3089	4027	4752	5264	5564	5653	5684	5977	6255	6385	6270	5912	5181	4199	3450	3173	3212	3371	3605	3898	4180	4387	4487	4472	4360	4215	3952	3588	3104	2567	2021	1531	1172	882.4	635.0	421.3	278.9	231.9	418.7	970.4	2758	6332	1521	23.48	9.127	9.204	10.17	10.23	11.82	16.25	17.75	20.11	21.38	22.16	25.42	25.03	25.88	25.82	26.07	26.51	26.21	26.76	27.04	26.05	26.23	26.72	27.21	27.03	27.32	26.92	26.75	26.13	24.93	22.93	21.66
440.0	1282	1938	2978	3934	4697	5240	5615	5691	5619	5779	6071	6179	6028	5696	5006	4048	3348	3067	3085	3214	3414	3681	3951	4160	4256	4253	4150	4031	3802	3471	3017	2509	2016	1566	1198	924.0	676.5	461.4	309.5	217.5	204.0	288.8	736.9	4146	6041	1155	18.29	10.36	10.41	10.33	11.53	15.97	17.42	20.16	20.90	21.83	25.57	25.95	25.65	26.03	25.59	25.38	25.65	25.83	25.87	25.17	25.77	26.09	25.78	26.00	26.05	26.36	25.53	25.00	24.01	22.26	20.83
445.0	1270	1952	2877	3815	4576	5157	5587	5600	5449	5494	5693	5816	5676	5350	4717	3831	3193	2923	2930	3037	3191	3433	3679	3869	3968	3967	3891	3768	3585	3278	2882	2408	1945	1548	1208	933.7	693.4	488.6	337.5	234.6	174.8	149.4	223.0	1171	4896	5472	193.5	15.45	10.60	10.67	11.46	15.07	16.61	18.55	20.28	21.60	24.86	25.63	25.70	25.39	24.96	24.77	24.65	24.57	24.40	24.41	23.89	24.59	24.14	24.61	24.09	24.29	23.92	24.02	22.63	21.56	20.03
450.0	1053	2095	2761	3568	4347	4982	5423	5391	5129	5009	5119	5220	5090	4816	4238	3492	2934	2695	2676	2748	2855	3039	3255	3418	3526	3531	3468	3370	3212	2975	2631	2218	1810	1467	1187	932.2	703.0	511.4	368.1	264.6	192.5	140.0	124.4	314.6	1346	4010	4738	882.5	18.87	11.67	11.97	15.09	16.42	18.23	19.97	21.18	23.78	24.53	24.90	24.02	23.60	23.12	23.01	22.46	22.17	21.26	21.89	21.76	21.73	22.67	21.95	22.03	21.84	21.52	20.36	19.83	18.54
455.0	880.9	2081	2903	3329	4071	4736	5152	5096	4732	4537	4554	4614	4477	4245	3746	3123	2643	2440	2407	2447	2509	2641	2840	2979	3067	3074	3030	2961	2837	2651	2365	2018	1667	1362	1130	918.1	703.0	526.8	393.5	293.8	217.3	157.0	119.7	137.3	347.4	952.2	2530	5092	1239	21.08	13.06	15.19	15.58	17.42	19.12	20.27	23.10	23.77	23.44	23.18	21.90	21.01	20.99	20.52	19.90	18.81	19.35	19.70	19.13	20.35	19.36	19.43	19.34	18.98	18.31	17.99	17.05
460.0	776.0	1853	3213	3200	3850	4463	4888	4842	4429	4182	4157	4210	4087	3851	3407	2866	2439	2247	2208	2216	2264	2365	2546	2665	2742	2757	2721	2667	2575	2412	2166	1870	1552	1287	1070	889.6	709.1	535.8	406.2	309.6	233.8	173.7	130.8	106.7	134.5	256.1	657.9	3211	4947	907.0	18.71	15.22	15.73	16.32	17.51	18.88	21.62	21.88	22.50	21.65	20.63	19.82	19.25	19.24	18.14	17.24	17.78	17.93	17.75	18.15	17.90	18.38	17.78	17.49	17.30	16.23	15.50
465.0	700.9	1508	3349	3392	3620	4207	4601	4548	4149	3859	3821	3839	3740	3515	3127	2612	2238	2077	2024	2032	2049	2143	2277	2397	2466	2482	2457	2412	2337	2203	1990	1728	1455	1211	1012	849.6	697.4	538.1	415.3	318.8	247.7	187.3	144.8	111.7	96.60	107.8	187.6	897.3	4120	4159	158.3	18.34	15.75	15.73	17.44	17.88	20.83	21.12	21.28	20.26	19.30	18.36	17.85	17.21	17.06	16.23	16.42	16.45	16.43	16.72	16.36	16.93	16.78	15.88	15.55	14.96	14.31
470.0	646.0	1237	2615	4086	3455	3796	4171	4095	3710	3413	3353	3366	3262	3056	2710	2296	1972	1830	1782	1769	1772	1841	1948	2055	2114	2127	2113	2076	2025	1912	1745	1530	1299	1096	931.2	783.1	655.8	528.3	416.7	326.3	257.1	201.5	157.6	124.4	99.91	85.35	91.42	239.5	1138	2994	3423	796.7	22.25	16.58	16.81	16.88	19.54	19.33	19.04	18.39	17.62	16.70	16.32	15.16	14.82	14.54	14.79	14.45	14.67	14.45	14.76	14.46	14.38	14.47	13.40	13.17	12.71
475.0	575.1	1055	1834	4004	4003	3379	3683	3587	3254	2949	2855	2858	2773	2610	2310	1964	1691	1576	1538	1513	1500	1549	1637	1719	1769	1781	1770	1739	1700	1626	1493	1323	1135	974.6	833.2	707.3	600.8	497.8	412.0	326.6	263.2	210.4	168.3	134.1	110.0	89.70	77.67	99.17	287.9	706.7	1697	3438	1084	25.57	16.22	16.01	17.89	17.53	17.29	15.93	15.65	14.63	14.12	13.31	12.88	12.30	12.82	12.53	12.97	12.26	12.53	12.81	12.48	12.19	11.58	11.26	11.07
480.0	502.3	966.3	1534	3114	4743	3233	3331	3261	2925	2638	2552	2525	2459	2302	2040	1739	1518	1406	1378	1345	1328	1356	1430	1501	1546	1551	1541	1527	1488	1435	1321	1177	1023	881.2	766.7	656.2	559.0	468.1	398.9	326.8	266.7	213.8	174.6	142.7	117.7	95.83	80.58	72.26	103.5	188.2	436.9	1971	3234	929.7	22.01	16.00	16.65	15.55	15.95	14.43	14.07	13.19	12.57	12.03	11.25	10.98	10.98	10.78	11.52	10.76	10.91	11.52	11.08	11.07	10.82	9.991	9.551
485.0	472.3	876.9	1386	2268	4936	3557	3095	3003	2678	2407	2305	2289	2215	2059	1824	1570	1380	1275	1248	1209	1192	1216	1271	1338	1376	1389	1371	1353	1330	1278	1190	1071	936.3	813.7	709.8	615.8	528.7	446.0	385.6	326.0	270.4	217.7	180.9	150.3	124.6	103.2	85.75	72.78	68.03	77.55	126.0	542.5	2490	3187	185.1	19.30	16.37	15.28	14.90	13.82	13.15	12.07	11.51	11.22	10.40	10.01	10.27	9.890	10.20	9.770	10.26	10.13	10.02	9.586	9.603	9.313	9.158
490.0	414.5	812.8	1242	1793	3584	4529	2958	2687	2383	2139	2048	2020	1930	1805	1597	1382	1214	1125	1099	1064	1041	1052	1102	1156	1193	1197	1184	1173	1154	1111	1043	945.2	834.5	733.2	642.5	566.2	487.8	420.0	361.8	315.1	270.7	221.7	186.5	158.1	134.5	113.5	96.12	80.41	67.91	60.07	63.00	150.6	674.3	2023	2260	837.9	23.68	15.40	14.31	12.81	11.93	11.26	10.23	9.695	9.407	8.821	9.112	8.754	9.053	8.658	8.875	8.904	8.584	8.385	8.301	7.991	8.021
495.0	350.3	709.4	1103	1515	2276	4598	3469	2370	2081	1857	1789	1772	1685	1560	1380	1187	1051	980.1	945.8	920.8	891.6	900.6	943.1	981.5	1019	1029	1009	1002	987.7	953.4	901.0	821.2	729.6	651.8	576.0	510.5	449.4	389.7	340.1	295.5	261.5	227.7	192.1	163.8	141.6	123.3	106.8	90.66	75.84	63.30	55.69	68.72	178.9	481.0	1273	3433	1301	26.90	13.94	11.80	11.21	9.871	9.325	8.513	8.204	7.679	7.580	7.890	8.118	7.701	8.007	7.687	7.330	7.556	7.201	7.245	7.088
500.0	297.6	623.7	1041	1349	1801	3468	4615	2270	1876	1684	1597	1583	1513	1387	1224	1059	934.0	873.6	845.9	816.7	787.5	795.4	823.8	863.4	901.2	908.5	889.8	880.0	872.2	845.6	802.8	733.4	655.8	589.3	523.8	468.2	416.4	363.5	321.5	279.8	248.7	224.3	193.2	165.8	143.9	127.6	111.9	96.86	81.42	68.27	57.64	54.09	72.23	134.0	332.5	1912	3459	938.6	21.98	11.73	10.53	9.167	8.788	7.731	7.646	7.274	6.808	7.186	7.533	7.066	7.306	6.965	6.951	6.841	6.494	6.214	6.165
505.0	297.1	541.5	932.2	1238	1544	2359	5027	2636	1691	1527	1451	1421	1352	1237	1089	949.3	836.3	779.3	758.2	725.4	699.7	706.8	731.3	772.2	792.2	802.9	785.3	778.9	772.3	751.6	714.1	654.4	590.7	529.9	477.0	427.1	382.1	337.8	301.0	266.5	236.7	215.2	194.0	166.7	145.4	130.1	114.6	99.50	84.88	73.51	61.90	54.16	51.27	59.49	99.40	514.8	2369	3040	206.6	15.99	9.721	9.014	7.769	7.118	7.135	6.798	6.656	6.743	6.778	6.296	6.628	6.065	6.211	6.320	5.785	5.747	5.565
510.0	242.0	457.8	801.9	1105	1316	1655	3525	4178	1639	1317	1259	1229	1158	1054	925.8	808.0	719.7	665.3	643.8	619.4	595.8	599.0	622.9	654.5	669.8	677.6	664.4	656.0	647.7	639.6	607.6	560.3	507.7	457.5	415.8	375.6	340.2	304.2	274.2	245.1	220.2	199.4	183.6	166.3	147.0	130.2	116.7	102.2	88.73	77.02	66.67	56.81	49.31	45.62	49.19	137.8	623.7	1817	2035	836.1	19.72	8.667	7.412	6.633	6.215	5.934	5.869	5.780	6.049	5.748	5.555	5.383	5.220	5.214	4.879	4.720	4.538
515.0	195.7	386.7	665.8	940.2	1119	1294	1887	4632	2291	1136	1079	1039	981.4	886.4	778.3	679.6	605.2	558.0	539.7	513.7	499.3	504.5	523.2	545.5	556.9	561.2	553.5	544.2	539.7	530.8	507.7	469.2	431.3	389.8	355.6	326.1	295.2	268.5	243.6	220.7	202.3	181.8	166.9	158.0	145.4	128.7	116.0	102.5	89.02	78.26	68.78	58.62	50.44	43.90	39.07	54.76	158.5	424.6	952.1	2545	1106	23.65	7.339	6.162	6.003	5.206	5.108	5.032	5.255	4.774	4.853	4.513	4.723	4.168	4.437	3.968	3.914
520.0	181.4	331.6	564.4	826.2	1015	1122	1322	3295	3864	1113	956.7	918.3	858.4	779.4	679.9	591.6	528.5	488.2	470.3	448.9	434.6	437.5	456.7	470.6	482.9	488.8	481.0	470.0	464.6	459.0	444.8	411.9	377.0	344.9	314.5	291.6	265.1	242.9	222.3	204.1	186.7	169.9	154.7	146.6	141.9	129.0	113.0	99.92	88.65	77.97	67.70	59.23	49.66	43.13	37.04	36.01	55.45	111.0	238.1	1285	2368	232.4	18.10	6.060	5.179	4.924	4.449	4.720	4.447	4.503	4.122	3.880	4.201	3.969	3.874	3.466	3.794
525.0	168.6	296.4	505.8	724.1	916.6	995.6	1091	1808	4767	1571	863.1	828.9	764.4	691.2	597.8	518.8	467.6	432.7	414.6	397.0	382.8	385.6	400.8	409.7	425.3	430.2	422.1	413.2	408.4	403.6	386.3	361.5	332.9	304.6	280.2	258.8	238.5	219.8	203.7	188.7	172.6	159.9	147.3	136.9	133.3	125.7	111.2	97.43	85.84	76.14	67.21	57.72	49.04	43.45	36.23	31.92	32.01	40.52	66.44	329.1	1445	1836	213.2	11.17	5.481	4.765	4.350	4.134	3.915	4.065	3.582	3.587	3.673	3.572	3.448	2.951	3.432
530.0	142.2	262.5	444.8	602.5	777.7	850.1	909.8	1068	3146	3439	893.8	706.4	649.7	579.5	501.9	435.9	392.1	364.5	349.4	337.0	323.5	325.6	337.5	345.8	355.2	359.3	350.9	344.7	343.6	339.8	329.1	305.6	282.1	260.9	240.3	225.0	207.9	191.6	178.7	167.7	155.0	143.8	134.5	125.6	118.9	114.1	105.9	91.80	81.68	71.82	63.26	55.07	47.26	41.50	35.00	29.97	26.22	25.02	27.43	83.64	366.3	1040	1540	706.5	17.55	4.905	4.189	3.603	3.615	3.374	3.192	3.251	3.152	2.811	2.908	2.743	2.798
535.0	119.0	224.9	355.1	500.0	629.0	745.1	760.5	778.6	1305	4126	1643	595.5	541.2	484.0	413.7	360.4	324.9	298.3	289.1	278.9	267.2	267.7	276.4	286.7	293.8	295.2	292.0	283.3	283.9	282.2	270.7	253.5	237.3	218.6	203.6	189.4	175.2	164.8	153.0	145.0	134.8	127.4	118.8	112.7	106.2	101.8	97.61	87.13	75.06	65.51	59.06	51.23	44.00	38.78	32.86	28.63	23.69	20.80	17.96	28.31	89.22	239.0	571.2	1557	931.6	23.28	4.032	3.504	3.377	2.824	2.767	2.580	2.557	2.350	2.572	2.323	2.362
540.0	91.84	184.9	313.6	424.3	518.8	655.8	657.1	652.8	740.7	2660	3487	600.3	474.4	414.6	357.0	308.2	282.0	255.7	249.5	238.7	228.2	231.3	239.0	245.7	252.7	253.5	247.9	243.2	242.1	240.8	228.0	216.1	202.9	187.9	176.4	165.2	153.5	142.9	135.7	128.1	121.3	113.2	105.3	101.3	95.78	91.78	87.21	80.88	70.67	60.63	54.85	47.04	40.58	36.12	31.44	26.47	22.38	18.88	15.47	15.79	27.64	59.45	136.7	684.0	1628	238.5	16.79	3.516	2.979	2.662	2.562	2.410	2.326	2.157	2.068	2.031	1.981
545.0	74.88	176.9	279.8	380.9	454.1	558.0	597.6	547.1	554.3	1202	4447	1011	411.7	362.2	309.2	267.3	242.2	222.6	216.4	205.0	195.6	198.2	206.9	211.9	216.2	216.6	213.6	209.0	209.4	206.3	199.7	188.3	174.1	162.7	152.2	144.3	134.6	125.5	120.3	112.8	107.4	101.4	94.94	90.14	87.59	83.14	78.72	73.44	66.74	56.38	50.26	43.74	38.53	33.36	28.76	24.67	21.01	17.69	14.25	12.47	13.10	19.50	35.68	167.2	841.5	1370	218.2	10.21	2.881	2.438	2.240	2.095	2.196	1.931	1.777	1.753	1.669
550.0	78.26	149.8	229.4	312.8	364.8	437.9	515.3	456.9	438.0	572.2	2661	3039	433.4	296.4	253.4	219.1	195.3	181.4	173.1	166.5	160.5	160.5	167.1	171.4	175.5	176.6	172.8	168.8	169.2	168.8	161.6	153.0	144.2	133.6	124.9	118.6	110.7	106.1	100.9	95.28	90.48	85.65	81.18	77.32	74.77	71.12	67.00	62.01	57.61	51.13	45.18	38.50	33.82	29.24	25.24	21.91	18.99	16.03	12.78	10.80	9.439	9.857	12.62	41.37	203.6	632.0	1024	546.7	17.76	2.760	2.191	2.019	1.736	1.603	1.514	1.530	1.377
555.0	71.34	128.4	192.2	241.6	294.1	329.9	399.8	398.0	349.2	376.5	904.0	3860	1083	238.3	197.7	173.0	153.7	141.6	136.5	131.8	126.7	127.8	129.7	134.1	137.8	140.5	135.8	133.2	131.4	132.4	127.0	121.3	113.5	105.7	99.23	94.37	89.50	85.29	80.52	76.89	72.90	70.68	67.10	64.44	61.49	58.71	54.66	51.43	47.45	43.35	39.24	33.65	27.77	24.69	22.04	18.67	16.55	13.99	11.97	9.719	7.687	7.017	6.987	13.01	48.66	144.0	326.2	926.9	749.8	24.30	2.302	1.821	1.589	1.266	1.198	1.284	1.103
560.0	66.78	112.6	174.5	203.8	249.2	278.7	330.3	366.9	308.0	306.0	427.5	2411	2706	245.3	164.4	144.4	128.1	116.9	113.2	108.7	104.5	105.1	107.8	111.6	114.9	114.8	112.7	110.9	108.1	107.6	106.0	101.1	93.78	87.85	83.04	77.58	73.85	71.12	68.01	65.64	62.11	59.77	57.02	54.60	52.79	50.42	47.23	43.98	40.88	37.25	34.46	29.84	24.09	21.23	19.12	16.37	14.68	12.36	10.47	8.898	6.833	6.018	5.172	6.332	13.92	35.12	76.37	348.3	1047	247.4	18.05	1.918	1.475	1.240	1.082	1.086	0.945
565.0	67.42	110.4	157.8	182.3	218.5	232.5	268.7	332.7	288.7	279.2	308.7	986.7	3706	544.9	138.7	120.3	107.0	97.25	94.54	90.07	87.57	88.22	89.95	93.76	93.97	95.40	93.70	92.84	90.20	90.62	87.94	83.54	79.33	74.05	69.60	65.80	62.83	59.96	57.32	55.76	52.37	50.89	48.52	47.16	45.13	43.80	41.00	37.54	34.39	31.69	29.70	26.29	21.14	19.08	16.56	14.55	13.02	10.55	9.302	8.222	6.482	5.548	4.829	4.698	5.941	10.45	19.66	82.87	459.8	856.2	220.4	10.78	1.507	1.308	1.071	0.976	0.765
570.0	66.38	112.5	142.2	153.5	174.7	188.0	212.9	261.9	287.7	255.6	270.2	417.9	2286	1931	169.2	95.86	86.40	78.96	76.07	72.03	70.51	69.25	70.69	73.49	74.93	76.39	73.41	73.09	71.10	72.09	69.32	66.02	62.06	57.87	54.82	52.65	50.19	47.62	46.60	44.81	42.39	40.79	39.77	38.58	37.26	35.72	33.44	30.99	27.93	25.52	23.93	21.87	18.80	16.09	13.70	12.03	11.02	9.394	7.890	7.034	6.089	5.216	4.644	3.974	4.132	4.855	6.961	20.94	108.3	341.2	602.6	397.2	17.90	1.627	0.942	0.754	0.715
575.0	73.85	108.7	127.7	138.7	150.1	153.2	174.2	206.5	272.3	257.3	261.4	280.0	732.7	2934	671.8	77.98	66.91	62.49	58.59	56.19	53.89	54.09	55.35	56.23	58.00	58.31	56.54	55.95	55.75	55.02	54.60	51.09	48.39	45.44	43.07	41.74	39.10	37.75	37.16	35.31	34.59	31.95	31.28	30.38	28.97	28.71	27.02	25.16	22.91	20.95	18.75	17.36	15.64	13.91	11.42	10.22	9.133	7.903	6.414	5.944	5.175	5.000	4.177	3.922	3.461	3.665	4.057	6.919	26.19	78.04	171.8	531.6	491.8	24.79	1.180	0.830	0.583
580.0	72.74	108.7	132.7	129.6	128.7	135.5	153.3	178.5	247.5	278.7	262.6	253.8	306.8	1946	1890	87.99	57.23	51.06	48.29	46.82	44.74	46.24	45.67	46.89	47.61	47.83	47.50	46.30	46.88	45.53	45.22	43.29	39.52	38.09	35.72	34.46	32.35	31.67	30.88	29.76	28.03	26.58	26.34	25.70	25.00	24.27	23.35	21.31	19.14	17.55	15.86	14.23	13.51	12.08	9.857	8.815	7.844	6.458	5.768	5.132	4.472	4.430	3.986	3.441	3.223	3.351	3.304	3.806	7.783	19.19	40.22	183.9	600.1	245.9	17.40	0.868	0.614
585.0	76.32	102.2	121.4	117.1	111.6	117.8	137.6	161.0	217.7	288.8	270.4	252.8	207.4	768.5	2749	266.7	47.32	43.78	40.91	40.45	37.62	38.02	38.21	39.63	40.50	39.83	39.47	38.31	38.25	38.76	37.87	35.73	33.13	32.63	29.71	28.30	26.60	26.91	25.74	24.54	23.74	22.30	22.46	21.13	21.15	20.70	19.81	17.66	16.57	15.05	13.79	12.14	11.14	10.25	9.169	7.494	7.018	5.644	5.169	4.406	4.108	3.734	3.866	3.337	3.191	3.240	2.892	2.946	3.529	5.846	10.37	43.17	239.5	550.8	210.1	8.757	0.696
590.0	68.95	100.7	117.5	105.1	98.47	105.6	121.1	146.6	186.2	272.5	280.9	252.2	183.0	262.6	1776	1319	60.81	35.83	33.47	32.53	30.40	30.48	30.87	32.50	32.23	32.11	31.32	30.88	30.05	30.88	29.69	28.38	26.50	25.27	23.92	22.83	21.92	21.45	21.23	19.63	19.24	18.54	18.13	17.49	17.34	16.36	15.52	14.40	13.28	12.32	10.87	9.713	8.773	8.265	7.728	6.714	5.684	4.864	4.449	3.644	3.470	3.233	3.274	3.343	2.968	2.850	2.658	2.512	2.478	2.785	3.473	10.63	55.61	204.0	397.9	259.9	16.52
595.0	65.79	104.4	114.8	94.45	88.87	93.71	107.7	131.5	170.6	239.7	289.5	247.2	173.6	135.0	516.7	2162	409.2	28.94	26.40	25.51	24.01	24.11	23.89	24.91	25.40	24.75	25.36	24.66	24.27	23.98	22.59	22.17	20.90	19.11	18.33	17.89	17.07	16.38	16.52	15.59	15.16	14.39	13.96	13.86	13.50	12.78	12.46	11.54	10.42	9.685	8.750	7.639	6.946	6.118	6.277	5.555	5.155	4.268	3.576	3.166	2.988	2.664	2.867	2.648	2.831	2.666	2.473	2.280	2.135	1.841	1.785	3.230	13.15	46.10	105.9	297.5	253.6
600.0	67.04	98.56	95.16	91.96	79.40	83.73	101.3	123.1	160.9	223.8	289.3	244.5	171.2	108.3	164.6	1539	1271	34.77	22.41	20.86	19.41	20.37	20.44	20.36	20.36	20.20	20.37	20.32	20.55	19.38	18.94	18.06	17.05	16.10	14.73	14.44	13.99	13.65	13.52	12.47	12.69	11.41	11.87	11.56	11.24	10.67	10.42	9.509	8.819	8.012	7.449	6.490	5.906	5.115	4.936	4.740	4.690	3.786	3.040	2.788	2.756	2.381	2.439	2.497	2.343	2.394	2.398	1.955	1.776	1.513	1.512	1.492	3.515	10.84	24.29	95.53	319.9
605.0	60.62	94.96	90.74	86.00	74.99	79.46	95.06	116.4	156.7	210.5	277.2	256.8	175.8	104.2	82.15	619.8	1997	80.46	20.15	18.79	16.64	17.41	17.31	16.92	17.14	17.16	16.80	17.29	16.46	15.98	15.77	14.97	14.28	13.54	12.75	12.07	11.66	11.41	11.08	10.53	10.86	9.645	9.356	9.618	9.130	9.122	8.688	8.242	7.386	6.590	6.252	5.130	4.769	4.457	4.150	4.139	4.060	3.515	2.899	2.453	2.483	2.196	2.175	2.335	2.317	2.392	2.485	1.917	1.803	1.499	1.243	1.122	1.496	2.961	5.932	22.17	119.7
610.0	55.25	89.41	89.82	82.45	73.07	76.12	91.66	116.4	155.9	206.0	256.1	275.0	188.3	112.5	73.71	187.9	1418	867.4	29.86	15.27	13.85	13.54	13.53	13.61	13.77	13.79	13.64	13.03	13.39	12.98	12.54	11.78	11.22	10.65	10.28	9.491	9.652	8.810	8.794	8.393	8.416	7.938	7.655	7.544	7.231	7.352	6.928	6.488	5.858	5.463	4.995	4.359	3.843	3.460	3.227	3.150	3.254	3.033	2.688	2.200	2.025	1.920	2.016	1.974	2.114	2.066	2.130	2.003	1.907	1.523	1.178	1.120	0.955	1.220	1.860	5.360	27.58
615.0	52.17	92.68	84.37	76.56	67.16	74.56	85.98	115.9	146.8	198.4	238.9	263.7	199.4	120.3	74.06	85.23	438.0	1538	225.8	12.40	11.45	10.61	10.97	11.19	10.70	10.80	10.66	10.87	10.20	9.833	9.693	9.557	8.635	8.554	7.672	7.461	7.155	6.864	6.529	6.587	6.293	6.231	5.958	6.180	5.643	5.550	5.200	5.041	4.727	4.250	3.763	3.346	3.241	2.832	2.671	2.377	2.484	2.290	2.296	1.801	1.837	1.616	1.675	1.630	1.914	1.881	1.782	1.758	1.692	1.403	1.100	0.912	0.802	0.784	0.833	1.634	6.496
620.0	48.58	85.68	83.22	68.49	60.45	70.28	79.42	109.4	138.2	181.8	217.5	239.0	200.9	119.4	73.15	61.64	135.0	1169	594.1	15.35	9.856	8.988	9.681	8.902	8.596	8.631	8.547	9.195	8.275	8.164	8.010	7.200	6.969	6.892	6.507	6.153	5.602	5.505	5.577	5.323	5.276	5.063	5.007	5.047	4.713	4.305	4.490	4.214	3.863	3.429	3.019	2.799	2.506	2.569	2.087	1.957	1.999	2.106	1.934	1.757	1.668	1.611	1.472	1.522	1.555	1.637	1.471	1.693	1.586	1.408	1.115	1.008	0.813	0.643	0.647	0.709	1.750
625.0	52.58	74.62	82.43	69.56	60.79	67.00	78.57	101.0	129.5	169.9	203.5	220.7	200.5	123.2	75.95	59.44	60.05	504.4	1295	52.99	8.816	8.257	8.107	7.310	7.580	7.141	7.431	7.413	7.167	6.804	6.480	6.198	5.741	5.379	5.194	5.090	4.693	4.426	4.687	4.323	4.202	4.003	3.885	3.904	3.538	3.991	3.824	3.573	3.215	2.992	2.593	2.413	2.267	2.029	1.834	1.700	1.729	1.773	1.658	1.672	1.356	1.374	1.329	1.396	1.517	1.383	1.285	1.555	1.440	1.333	1.086	0.972	0.844	0.513	0.548	0.479	0.691
630.0	47.76	71.92	78.07	67.82	58.23	60.58	74.91	96.12	123.0	161.8	189.8	204.6	188.4	132.2	77.40	58.97	42.72	140.1	1039	618.7	13.95	6.906	6.406	6.417	6.455	6.008	5.802	5.843	5.694	5.538	5.198	5.287	4.641	4.569	4.261	4.083	3.623	3.699	3.522	3.562	3.272	3.252	3.055	3.097	3.075	3.095	2.922	2.776	2.605	2.364	2.226	1.912	1.847	1.616	1.485	1.429	1.461	1.289	1.318	1.414	1.265	1.175	1.212	1.264	1.180	1.278	1.349	1.335	1.238	1.209	1.156	0.867	0.730	0.613	0.598	0.400	0.476
635.0	39.87	72.97	77.37	67.35	55.42	58.89	74.23	91.37	118.7	154.0	181.4	195.1	175.6	141.1	85.23	62.16	40.99	49.08	328.6	1210	62.71	6.263	5.577	5.538	5.473	5.296	4.791	4.954	4.648	4.576	4.236	4.064	3.987	3.138	3.445	3.148	2.928	2.788	2.570	2.941	2.626	2.653	2.500	2.394	2.269	2.358	2.384	2.083	2.063	1.712	1.578	1.507	1.472	1.297	1.279	1.253	1.109	1.041	1.039	1.045	1.122	1.222	1.266	1.159	1.139	1.124	1.203	1.143	1.182	1.158	1.193	1.032	0.842	0.547	0.473	0.466	0.385
640.0	51.78	82.44	92.94	64.98	58.47	58.97	73.43	89.88	117.7	149.8	179.8	189.6	170.3	146.3	93.49	68.27	43.86	31.22	89.20	1002	445.8	8.056	5.337	4.719	4.577	4.746	4.057	4.090	4.102	3.886	3.684	3.231	3.150	2.760	2.764	2.552	2.425	2.388	2.176	2.150	2.175	2.161	1.995	1.981	1.918	1.943	1.963	1.711	1.709	1.561	1.375	1.348	1.020	1.149	1.048	1.013	0.930	0.906	0.905	1.014	1.029	1.159	1.132	1.059	1.004	1.076	1.243	1.116	1.157	1.129	0.976	0.827	0.907	0.597	0.595	0.521	0.448
645.0	56.34	97.39	107.2	77.42	57.89	55.37	71.26	88.78	117.8	146.6	179.2	190.1	169.2	145.2	107.6	71.68	47.06	27.74	31.52	475.3	988.9	36.47	5.129	4.304	4.080	3.945	3.697	3.522	3.576	3.293	3.065	2.834	2.572	2.401	2.321	2.152	2.069	1.927	1.982	1.793	1.770	1.738	1.545	1.558	1.669	1.631	1.616	1.484	1.431	1.341	1.059	1.116	0.944	0.891	0.869	0.838	0.837	0.846	0.780	0.853	0.923	0.989	1.096	1.109	1.069	1.048	1.161	1.026	1.047	0.970	0.955	0.904	0.989	0.758	0.597	0.463	0.381
650.0	61.55	128.9	136.6	92.26	61.02	57.26	71.53	91.45	116.8	148.1	177.7	189.4	171.7	148.3	116.3	76.10	49.10	28.76	20.27	144.1	1092	231.7	4.919	4.034	3.691	3.431	3.156	2.764	3.199	2.512	2.566	2.433	2.172	2.095	2.089	1.796	1.794	1.874	1.772	1.526	1.321	1.488	1.278	1.240	1.292	1.393	1.516	1.433	1.344	1.224	1.001	1.048	0.876	0.903	0.714	0.793	0.748	0.800	0.715	0.822	0.763	0.930	0.872	1.081	1.116	1.045	1.095	1.007	0.959	0.970	0.987	0.815	0.893	0.812	0.699	0.553	0.439
