Sample:	'1
File name:	t2025062311 “Ûº“¥Â±±.FD3
Run date:	'15:24:49, 06/24/2025
Operator:	Administrator
Comment:	'

Instrument
Model:	F-2700 FL Spectrophotometer
Serial number:	23B8-004
ROM Version:	4J14000 07

Instrument parameters
Measurement type:	3-D scan
Data mode:	Fluorescence
EX  Start WL:	220.0 nm
EX  End WL:	600.0 nm
EX Sampling interval:	5.0 nm
EM  Start WL:	230.0 nm
EM  End WL:	650.0 nm
EM Sampling interval:	5.0 nm
Scan speed:	12000 nm/min
EX Slit:	5.0 nm
EM Slit:	5.0 nm
PMT Voltage:	700 V
Response:	Auto 
Corrected spectra:	Off
Contour interval:	50.000

Peak integration
Integration method:	Rectangular
Sensitivity:	1
Threshold:	1.000

Peaks
No.	ApexEX/EM(nm)	Height(Data)
1	225.0/580.0	49.17
2	225.0/615.0	68.28
3	225.0/625.0	68.34
4	230.0/340.0	3177
5	230.0/500.0	346.5
6	235.0/510.0	298.6
7	240.0/265.0	382.1
8	240.0/525.0	254.6
9	245.0/270.0	433.2
10	245.0/535.0	218.4
11	250.0/275.0	563.5
12	250.0/550.0	174.2
13	255.0/280.0	555.7
14	255.0/560.0	147.1
15	260.0/290.0	505.5
16	260.0/575.0	116.1
17	265.0/585.0	95.70
18	275.0/320.0	2420
19	275.0/615.0	160.0
20	280.0/315.0	2430
21	280.0/625.0	140.4
22	285.0/640.0	113.1
23	325.0/370.0	441.7
24	330.0/375.0	428.3
25	335.0/380.0	406.4
26	425.0/500.0	36.68
27	455.0/540.0	12.34
28	475.0/350.0	10.47
29	480.0/355.0	9.666
30	485.0/265.0	1.929
31	495.0/270.0	2.196
32	505.0/275.0	3.114
33	510.0/280.0	3.666
34	515.0/285.0	3.534
35	570.0/315.0	11.83
36	575.0/320.0	11.75
37	585.0/325.0	11.65

Data points
	220.0	225.0	230.0	235.0	240.0	245.0	250.0	255.0	260.0	265.0	270.0	275.0	280.0	285.0	290.0	295.0	300.0	305.0	310.0	315.0	320.0	325.0	330.0	335.0	340.0	345.0	350.0	355.0	360.0	365.0	370.0	375.0	380.0	385.0	390.0	395.0	400.0	405.0	410.0	415.0	420.0	425.0	430.0	435.0	440.0	445.0	450.0	455.0	460.0	465.0	470.0	475.0	480.0	485.0	490.0	495.0	500.0	505.0	510.0	515.0	520.0	525.0	530.0	535.0	540.0	545.0	550.0	555.0	560.0	565.0	570.0	575.0	580.0	585.0	590.0	595.0	600.0
230.0	63.53	849.0	1425	340.0	14.99	6.493	5.075	4.747	3.989	3.574	3.388	3.239	2.896	2.319	1.964	1.704	1.644	1.334	1.174	0.995	0.933	0.845	0.811	0.678	0.623	0.620	0.672	0.587	0.574	0.549	0.563	0.494	0.483	0.483	0.448	0.402	0.411	0.368	0.383	0.396	0.423	0.463	0.418	0.355	0.322	0.366	1.206	3.675	5.033	3.027	0.988	0.350	0.257	0.285	0.267	0.244	0.282	0.262	0.269	0.259	0.250	0.262	0.291	0.262	0.265	0.306	0.263	0.261	0.260	0.296	0.284	0.295	0.300	0.305	0.273	0.277	0.305
235.0	73.29	271.7	1180	1826	380.5	18.49	6.196	5.516	3.478	4.037	3.546	3.202	2.818	2.625	2.384	1.853	1.709	1.232	1.231	0.921	1.014	0.953	0.867	0.738	0.665	0.641	0.604	0.621	0.582	0.540	0.601	0.536	0.438	0.508	0.414	0.380	0.436	0.479	0.381	0.375	0.468	0.405	0.417	0.448	0.514	0.362	0.493	1.161	2.619	4.259	5.642	5.116	2.005	0.536	0.255	0.255	0.257	0.243	0.275	0.332	0.299	0.255	0.272	0.253	0.270	0.374	0.245	0.272	0.294	0.282	0.257	0.286	0.267	0.303	0.255	0.241	0.328
240.0	135.7	122.9	411.4	2083	1625	281.2	11.08	5.540	3.898	3.808	4.054	3.256	3.005	2.452	2.146	1.904	1.541	1.186	1.133	1.075	0.979	0.934	0.766	0.720	0.617	0.629	0.706	0.601	0.642	0.568	0.562	0.471	0.548	0.509	0.393	0.464	0.458	0.381	0.406	0.364	0.356	0.367	0.363	0.473	0.596	0.612	0.413	0.507	0.818	1.575	3.835	8.263	8.500	4.820	1.522	0.338	0.342	0.266	0.281	0.290	0.330	0.252	0.272	0.243	0.275	0.278	0.221	0.276	0.338	0.291	0.257	0.263	0.295	0.307	0.233	0.301	0.323
245.0	128.7	166.7	135.6	855.3	2191	1536	180.1	8.157	5.466	4.775	4.033	3.540	3.130	2.496	2.160	1.735	1.571	1.527	1.278	0.956	1.016	0.990	0.769	0.747	0.684	0.731	0.715	0.591	0.595	0.541	0.582	0.479	0.481	0.503	0.437	0.432	0.394	0.396	0.375	0.389	0.370	0.342	0.396	0.367	0.534	0.626	0.763	0.629	0.466	0.543	1.146	3.251	7.448	10.84	9.209	4.441	0.982	0.289	0.313	0.283	0.291	0.232	0.283	0.304	0.249	0.260	0.232	0.234	0.337	0.355	0.266	0.267	0.316	0.277	0.277	0.281	0.317
250.0	61.72	157.1	204.4	264.7	807.6	2026	2129	594.7	27.58	5.781	5.061	4.272	3.248	2.692	2.527	1.852	1.739	1.413	1.198	1.190	0.987	0.925	0.819	0.752	0.765	0.757	0.674	0.553	0.617	0.604	0.558	0.543	0.514	0.494	0.442	0.419	0.380	0.409	0.350	0.398	0.355	0.374	0.361	0.346	0.411	0.463	0.569	0.758	0.830	0.710	0.603	1.024	2.057	3.988	7.094	10.33	12.10	9.685	4.718	1.281	0.326	0.282	0.280	0.297	0.273	0.254	0.241	0.229	0.342	0.325	0.287	0.281	0.325	0.283	0.279	0.286	0.298
255.0	38.39	58.90	198.1	301.1	250.2	579.9	2187	2812	288.2	23.98	5.813	5.079	3.790	3.215	2.569	2.036	1.918	1.484	1.545	1.065	1.053	0.876	0.733	0.826	0.779	0.769	0.670	0.611	0.714	0.770	0.590	0.502	0.540	0.481	0.350	0.390	0.446	0.379	0.322	0.346	0.357	0.396	0.391	0.382	0.384	0.450	0.402	0.415	0.576	0.914	1.189	1.133	0.873	1.164	1.830	2.823	5.624	12.91	20.27	16.64	6.654	1.215	0.305	0.300	0.298	0.296	0.267	0.272	0.350	0.314	0.348	0.287	0.303	0.311	0.274	0.314	0.297
260.0	28.54	34.70	83.51	296.6	266.5	189.1	762.0	3233	2341	225.5	13.62	5.836	4.642	3.614	2.915	2.560	1.879	1.564	1.389	1.563	1.018	1.024	0.767	0.938	0.733	0.781	0.809	0.681	0.586	0.740	0.557	0.514	0.555	0.490	0.425	0.385	0.397	0.402	0.423	0.376	0.418	0.375	0.393	0.402	0.355	0.367	0.340	0.356	0.439	0.474	0.926	1.608	1.422	0.848	0.798	0.956	1.681	3.827	10.27	19.99	23.85	15.36	4.811	0.607	0.322	0.281	0.299	0.301	0.302	0.315	0.292	0.279	0.322	0.320	0.281	0.276	0.305
265.0	31.61	25.81	41.19	173.1	382.1	225.7	233.8	1292	4272	1998	165.4	9.001	5.907	4.034	3.142	2.323	1.887	1.650	1.563	1.385	1.171	1.005	0.873	0.921	0.870	0.747	0.754	0.777	0.691	0.783	0.734	0.604	0.529	0.511	0.468	0.508	0.463	0.456	0.432	0.432	0.383	0.362	0.400	0.438	0.343	0.385	0.327	0.385	0.334	0.314	0.444	0.992	1.699	1.929	1.314	0.803	0.766	1.335	2.796	6.679	15.84	26.37	26.15	12.99	2.423	0.451	0.306	0.354	0.311	0.305	0.329	0.291	0.310	0.354	0.304	0.285	0.428
270.0	42.09	31.71	30.42	80.40	249.1	433.2	295.5	364.6	1561	3837	3826	674.5	29.29	5.445	4.283	3.112	2.312	2.053	1.612	1.425	1.248	1.262	1.139	0.929	0.851	0.765	0.791	0.766	0.737	0.741	0.618	0.594	0.620	0.594	0.456	0.509	0.483	0.422	0.417	0.428	0.391	0.376	0.438	0.441	0.352	0.361	0.356	0.388	0.325	0.297	0.339	0.566	0.838	1.435	1.940	2.196	1.906	1.226	1.183	1.915	4.193	8.551	15.60	23.29	26.28	19.66	10.51	2.473	0.446	0.368	0.354	0.337	0.313	0.288	0.319	0.346	0.340
275.0	60.65	50.80	48.74	61.68	134.4	301.5	563.5	314.5	404.1	1045	3847	6379	869.6	20.73	6.219	4.230	2.958	2.400	1.887	1.660	1.393	1.311	1.247	0.942	1.048	0.823	0.830	0.935	0.686	0.828	0.626	0.627	0.722	0.656	0.563	0.501	0.501	0.448	0.460	0.460	0.484	0.467	0.468	0.471	0.423	0.404	0.355	0.495	0.346	0.346	0.380	0.485	0.565	0.799	1.059	1.513	2.790	3.114	2.075	1.232	1.452	2.293	3.934	5.815	9.336	20.31	36.65	30.27	15.65	2.418	0.431	0.381	0.333	0.305	0.361	0.338	0.362
280.0	95.14	89.48	74.39	67.81	107.0	197.1	444.1	555.7	215.1	286.5	1212	5716	5748	139.5	12.30	5.095	4.106	2.474	2.078	1.780	1.492	1.312	1.312	1.042	1.229	0.869	0.850	0.812	0.764	0.736	0.691	0.715	0.634	0.635	0.591	0.480	0.562	0.482	0.458	0.498	0.521	0.463	0.445	0.427	0.514	0.477	0.435	0.533	0.368	0.363	0.460	0.442	0.604	0.705	0.843	1.020	1.633	2.509	3.666	2.643	1.372	1.033	1.380	1.807	2.505	5.530	14.52	29.92	42.19	27.32	10.25	1.090	0.361	0.363	0.357	0.386	0.315
285.0	132.9	124.5	101.6	80.98	105.8	155.3	250.0	551.7	332.8	152.1	346.4	1919	6686	4457	99.35	7.138	4.379	3.440	2.395	1.950	1.662	1.302	1.277	1.184	1.040	1.101	0.871	0.858	0.783	0.777	0.796	0.762	0.668	0.732	0.664	0.623	0.635	0.597	0.535	0.570	0.485	0.521	0.536	0.529	0.502	0.573	0.578	0.576	0.543	0.407	0.410	0.541	0.529	0.591	0.732	0.861	1.197	1.329	2.192	3.534	3.338	1.749	1.021	0.988	1.074	1.679	3.830	8.492	20.14	36.49	35.06	22.13	5.755	0.662	0.375	0.398	0.336
290.0	183.1	201.6	165.9	119.0	114.8	136.7	159.9	272.3	505.5	445.1	221.5	553.7	2105	4875	4649	416.4	21.77	5.078	3.270	2.348	1.957	1.644	1.453	1.221	1.140	1.176	1.027	0.830	0.863	0.855	0.785	0.703	0.704	0.755	0.725	0.690	0.684	0.583	0.639	0.572	0.584	0.535	0.654	0.630	0.578	0.682	0.722	0.724	0.687	0.566	0.589	0.658	0.648	0.658	0.721	0.802	0.839	0.940	1.244	1.545	2.192	2.941	3.216	2.533	1.297	1.183	1.667	2.592	5.198	10.18	16.44	26.31	29.15	29.38	15.32	5.158	0.731
295.0	241.2	281.9	259.3	184.9	142.3	149.6	153.1	182.0	285.7	653.8	621.1	313.7	627.8	1291	3452	5801	578.6	21.78	4.982	3.257	2.116	1.890	1.720	1.322	1.224	1.167	1.143	0.855	1.017	0.893	0.699	0.736	0.764	0.828	0.784	0.806	0.761	0.763	0.715	0.640	0.753	0.581	0.679	0.718	0.692	0.939	0.863	1.000	0.962	0.894	0.701	0.862	0.659	0.762	0.768	0.791	0.866	0.854	0.935	1.171	1.294	1.585	2.404	3.853	4.419	2.674	1.825	1.763	2.190	3.415	4.668	6.907	8.383	16.92	34.35	35.50	23.59
300.0	325.0	408.7	386.9	281.9	224.1	223.1	257.3	306.2	334.1	668.2	1140	790.1	606.4	634.4	1187	4666	5043	87.96	15.05	4.489	3.230	2.265	1.968	1.685	1.382	1.197	1.067	0.957	1.160	0.841	0.836	0.745	0.773	0.854	0.854	0.878	0.771	0.824	0.820	0.754	0.763	0.819	0.816	0.881	0.939	1.012	1.026	1.283	1.391	1.196	0.941	1.076	1.060	0.991	1.085	1.179	1.168	1.333	1.499	1.662	1.708	2.081	2.459	3.300	5.117	5.917	4.984	3.565	2.966	3.069	3.275	3.549	3.755	5.624	11.62	23.78	41.01
305.0	493.4	633.1	629.5	453.7	371.5	401.6	463.1	652.7	852.0	1163	1652	1662	1282	1004	981.8	1881	5590	3993	73.07	8.927	4.433	2.954	2.233	1.837	1.558	1.276	1.146	1.148	1.195	0.993	1.100	0.807	0.892	0.879	0.970	0.859	1.043	0.990	0.892	0.891	0.797	0.888	1.029	1.048	1.125	1.421	1.584	1.872	1.846	1.550	1.478	1.661	1.425	1.494	1.602	1.715	2.112	2.395	2.858	3.193	3.638	3.958	4.690	5.462	6.773	7.592	9.394	8.877	7.274	6.269	5.625	5.521	4.915	5.524	6.152	8.880	16.96
310.0	681.6	921.1	923.4	695.7	559.6	579.6	735.0	951.7	1196	1559	1929	2281	2227	1569	1262	1180	2271	4019	3713	299.2	18.36	4.242	2.967	2.326	2.001	1.711	1.571	1.220	1.211	1.095	1.149	0.906	0.990	0.991	1.015	1.003	1.161	1.032	1.024	1.075	1.124	1.049	1.127	1.291	1.605	1.966	2.146	2.636	2.645	2.253	2.240	2.488	2.311	2.023	2.266	2.674	3.046	3.399	4.108	4.611	4.936	5.633	6.428	7.250	8.137	8.413	9.916	10.56	11.14	10.52	9.119	7.482	6.781	7.054	6.605	6.156	7.697
315.0	898.5	1230	1217	922.1	729.6	724.3	903.7	1133	1339	1713	2058	2344	2430	2176	1553	1156	1295	1362	2471	4355	457.0	15.58	4.215	2.930	2.309	1.830	1.739	1.553	1.123	1.272	1.040	0.941	0.982	0.977	1.043	1.229	1.161	1.211	1.001	1.076	1.146	1.275	1.437	1.458	1.825	2.500	2.864	3.570	3.331	2.954	2.800	3.174	2.893	2.714	2.906	3.113	3.574	4.074	4.583	5.221	5.535	6.177	7.145	8.038	8.713	9.236	9.705	10.72	11.15	11.47	11.83	11.25	9.772	8.469	7.224	6.415	6.349
320.0	1040	1490	1456	1092	849.9	805.6	966.9	1188	1411	1761	2143	2420	2397	2312	1892	1237	1121	765.7	752.7	3149	3863	65.99	8.608	3.823	2.581	2.075	1.962	1.655	1.386	1.248	1.133	1.064	1.001	1.008	1.181	1.187	1.157	1.162	1.100	1.100	1.113	1.256	1.446	1.608	2.105	2.863	3.625	4.325	4.144	3.434	3.348	3.748	3.153	3.167	3.028	3.393	3.936	4.255	4.948	5.439	5.812	6.507	7.191	8.272	9.048	9.576	10.53	10.88	11.40	10.89	11.34	11.75	11.55	10.64	8.424	6.932	5.917
325.0	1183	1669	1718	1319	951.5	853.4	987.2	1176	1347	1688	2034	2308	2300	2121	1991	1353	1053	634.5	317.9	939.3	3609	3112	56.90	6.239	3.191	2.599	2.009	1.649	1.550	1.437	1.107	1.172	1.013	1.015	1.246	1.059	1.208	1.155	1.042	1.028	1.344	1.331	1.515	1.883	2.268	3.032	3.816	4.745	5.000	4.156	3.890	4.237	3.732	3.393	3.403	3.354	4.258	4.378	4.874	5.538	5.857	6.303	7.021	7.918	8.271	9.015	10.05	10.39	10.78	11.10	10.60	10.43	10.89	11.65	9.561	7.735	6.296
330.0	1349	2052	2389	2059	1498	1040	1002	1138	1266	1551	1870	2143	2164	1975	1795	1496	1133	632.3	286.7	334.0	1079	2743	2968	248.7	16.99	3.566	2.466	2.047	1.817	1.554	1.230	1.243	1.103	1.064	1.159	1.080	1.176	1.146	1.041	1.153	1.324	1.444	1.593	2.029	2.692	3.609	4.606	6.023	6.253	5.904	5.883	6.563	5.569	5.155	4.339	3.812	4.185	4.542	4.833	5.212	5.344	5.779	6.643	7.207	7.494	8.453	9.206	9.744	10.25	10.20	9.980	9.586	9.850	9.637	9.104	8.577	7.566
335.0	1518	2398	3008	2864	2254	1372	1051	1117	1219	1460	1735	2016	2073	1914	1676	1402	1295	765.8	361.7	269.5	380.3	736.9	1907	3581	401.6	17.31	3.826	2.222	2.041	1.764	1.432	1.213	1.199	1.161	1.113	1.197	1.084	1.078	1.131	1.262	1.251	1.494	1.682	2.214	2.788	4.261	5.175	6.869	7.928	7.522	7.848	9.333	8.735	7.781	6.181	4.484	4.482	4.512	4.822	4.895	5.419	5.603	6.206	6.816	7.475	7.840	8.282	9.235	9.538	9.532	9.359	9.211	9.420	8.744	8.667	7.839	7.893
340.0	1478	2485	3177	3161	2470	1473	1056	1081	1151	1359	1607	1835	1906	1800	1568	1277	1174	899.6	428.5	276.5	243.3	288.4	575.1	2570	3239	333.6	7.727	3.023	2.161	1.920	1.670	1.319	1.302	1.232	1.175	1.093	1.108	1.138	1.180	1.307	1.350	1.672	1.781	2.257	2.818	4.294	5.370	7.089	8.238	8.156	8.498	10.23	9.350	8.485	6.440	4.704	4.519	4.334	4.642	4.843	4.878	5.190	5.756	6.293	7.147	7.447	7.603	8.289	8.597	8.820	9.198	8.929	8.766	8.363	8.017	7.261	7.325
345.0	1458	2375	3145	3156	2488	1498	1025	1023	1075	1248	1462	1663	1734	1637	1440	1170	1005	862.6	545.1	308.6	228.7	204.4	236.7	774.9	2985	2934	50.09	4.552	2.725	2.149	1.661	1.340	1.317	1.240	1.225	1.116	1.022	1.183	1.099	1.373	1.161	1.472	1.861	2.038	2.858	3.831	4.834	6.835	7.949	8.186	8.391	10.42	9.523	8.681	6.149	4.781	4.398	4.285	4.362	4.542	4.632	4.805	5.352	5.602	6.342	6.756	6.899	7.348	7.851	8.239	8.610	8.331	7.565	7.592	7.185	6.818	6.410
350.0	1362	2249	3023	3161	2584	1579	1054	1009	1042	1166	1330	1490	1543	1485	1323	1094	917.8	736.5	615.9	444.9	276.8	221.1	193.6	263.7	870.3	2425	2442	221.4	14.55	2.879	2.266	1.626	1.419	1.383	1.154	1.131	1.109	1.117	1.023	1.167	1.162	1.398	1.759	2.054	2.567	3.606	4.727	6.691	7.614	7.759	8.431	10.47	9.620	8.778	6.470	5.007	4.350	4.327	4.262	4.491	4.487	4.736	5.007	5.351	5.963	5.969	6.324	6.694	7.052	7.107	7.400	7.423	7.102	7.362	6.606	6.734	5.796
355.0	1210	2046	2762	2971	2533	1583	1078	1012	1016	1112	1232	1342	1366	1333	1189	1013	851.1	678.2	539.3	535.5	392.7	257.8	210.2	174.0	260.2	600.1	1524	2900	363.3	14.08	2.787	2.122	1.597	1.343	1.241	1.136	1.106	1.013	1.071	1.006	1.099	1.388	1.671	1.838	2.444	3.242	4.037	5.897	6.957	7.157	7.719	9.505	9.666	8.533	6.648	4.969	4.638	4.192	4.160	4.437	4.294	4.460	4.831	5.288	5.667	5.470	5.754	5.958	6.437	6.328	6.710	6.926	6.672	6.787	5.936	5.895	5.460
360.0	1138	1817	2482	2686	2366	1513	1063	989.3	997.8	1060	1142	1225	1249	1211	1085	941.7	804.4	647.6	504.7	484.4	479.0	319.3	228.5	168.9	142.5	188.4	418.0	2061	2748	288.2	6.190	2.646	1.750	1.697	1.311	1.259	1.022	1.085	1.058	1.029	1.134	1.183	1.560	1.722	2.274	3.123	3.821	5.476	6.165	6.673	7.229	8.809	8.886	7.795	6.227	4.965	4.650	4.171	4.502	4.289	4.490	4.424	4.538	5.070	5.279	5.097	5.552	5.470	5.599	5.521	6.042	6.229	6.276	6.155	6.071	5.395	5.268
365.0	1013	1672	2220	2464	2216	1468	1045	980.3	989.4	1028	1101	1139	1152	1115	1018	887.3	768.7	630.9	504.9	445.3	470.9	412.4	265.8	185.8	132.5	111.3	138.6	608.5	2567	2316	46.94	4.079	2.123	1.937	1.419	1.294	1.393	1.034	1.089	0.989	1.141	1.236	1.416	1.710	2.221	2.644	3.631	5.006	5.513	6.371	6.564	8.325	7.834	7.471	6.221	4.799	4.528	4.291	4.311	4.300	4.485	4.509	4.746	4.754	5.056	4.944	5.519	5.097	5.029	5.235	5.662	5.693	5.721	5.578	5.578	4.905	5.245
370.0	937.8	1487	1989	2191	2025	1418	1052	982.7	972.9	1017	1056	1074	1065	1018	936.7	827.0	733.4	623.2	514.8	448.8	424.0	441.7	372.7	235.6	161.3	121.2	98.45	180.7	745.3	1990	2155	199.9	12.66	2.477	1.798	1.317	1.186	1.119	1.070	1.030	1.101	1.127	1.313	1.602	1.921	2.639	3.214	4.386	4.873	5.335	6.000	7.491	7.180	7.141	5.928	4.710	4.464	4.234	4.364	4.239	4.257	4.458	4.703	4.457	4.801	4.889	4.883	4.753	5.011	4.886	5.094	5.005	5.214	5.238	5.034	4.806	4.773
375.0	832.5	1279	1707	1955	1848	1357	1028	964.4	962.7	990.0	1013	1010	992.7	928.9	855.7	773.8	696.8	614.3	525.5	467.1	423.8	398.5	428.3	343.8	207.9	157.5	118.2	108.8	212.8	490.9	1404	2516	311.0	12.10	2.163	1.668	1.447	1.244	1.122	1.054	1.218	0.983	1.234	1.327	1.747	2.320	2.808	3.718	4.216	4.373	5.357	6.845	6.723	6.733	5.427	4.576	4.365	4.200	4.402	4.138	4.173	4.364	4.363	4.420	4.355	4.770	4.496	4.441	4.798	4.501	4.619	4.489	4.760	4.751	4.468	4.482	4.660
380.0	772.1	1189	1553	1779	1692	1297	1029	950.5	939.8	963.6	970.2	966.8	941.2	874.8	808.1	733.9	669.0	597.9	529.0	474.4	431.3	396.0	396.6	406.4	279.3	190.5	146.0	111.9	110.4	153.5	389.0	1870	2223	231.8	5.253	2.092	1.593	1.244	1.142	1.081	1.127	1.006	1.300	1.372	1.709	2.092	2.740	3.419	3.874	4.150	4.841	6.148	6.112	6.071	5.199	4.381	4.300	4.015	4.302	4.226	4.335	4.287	4.251	4.453	4.411	4.651	4.399	4.468	4.510	4.381	4.539	4.274	4.365	4.337	4.499	4.349	4.349
385.0	709.3	1089	1450	1616	1552	1230	1012	931.0	913.9	944.7	943.7	924.5	896.5	839.2	761.9	702.2	652.8	589.8	528.1	481.6	442.2	401.8	380.8	392.3	353.3	230.0	170.8	129.9	103.1	89.78	125.5	557.2	2103	1830	37.89	3.059	1.865	1.455	1.104	1.081	1.110	0.894	1.290	1.367	1.533	1.965	2.587	3.280	3.455	3.970	4.414	5.418	5.515	5.592	5.044	4.316	4.212	4.032	4.279	4.137	4.020	4.339	4.351	4.342	4.271	4.497	4.289	4.139	4.130	4.271	4.550	4.265	4.378	4.324	4.338	4.189	4.403
390.0	660.0	1000	1317	1450	1414	1168	975.6	915.6	889.8	902.3	901.4	874.6	847.4	790.1	718.8	668.9	620.6	573.0	525.9	484.9	448.7	408.6	378.6	357.0	357.3	308.9	208.8	154.5	120.2	92.51	79.18	158.9	616.1	1645	1703	154.6	10.11	1.892	1.472	1.434	1.159	1.064	1.211	1.352	1.468	1.922	2.359	2.939	3.272	3.504	3.824	4.782	5.065	5.281	4.626	4.137	4.180	4.093	3.939	4.084	3.745	3.924	4.015	4.123	3.980	4.045	3.935	3.872	3.991	4.058	4.372	4.017	4.275	4.131	4.011	3.832	4.147
395.0	638.4	915.1	1184	1288	1291	1099	942.2	899.6	878.8	867.5	844.3	838.7	803.1	744.0	687.2	639.9	599.3	556.3	518.3	486.9	452.9	415.9	389.9	357.4	330.7	334.8	283.7	191.0	144.3	111.7	83.48	81.71	169.3	405.3	1165	1819	246.2	7.837	2.046	1.498	1.305	1.227	1.252	1.401	1.346	1.783	2.066	2.689	2.898	3.227	3.626	4.255	4.582	4.685	4.290	3.788	4.359	3.735	3.762	3.756	3.674	3.832	3.737	3.914	4.123	3.802	3.813	3.686	3.764	3.830	3.863	3.817	4.025	3.943	3.787	3.892	4.004
400.0	591.1	845.6	1087	1188	1209	1057	920.2	881.9	836.3	834.4	827.8	816.8	778.1	716.4	664.1	614.2	576.8	544.6	506.2	483.5	450.0	421.8	396.1	366.9	330.0	317.6	322.4	237.5	168.0	129.6	96.79	76.14	78.05	118.1	325.2	1410	1560	37.76	3.873	1.855	1.368	1.279	1.189	1.270	1.408	1.737	1.966	2.627	2.864	2.959	3.228	3.987	4.206	4.214	4.281	3.756	3.973	3.856	3.995	4.037	3.753	3.823	3.706	3.956	3.471	3.658	3.779	3.536	3.585	3.935	3.764	3.718	3.841	3.707	3.635	3.591	3.743
405.0	550.9	796.9	1044	1130	1142	1022	903.6	858.5	818.1	818.8	804.5	791.3	747.0	696.4	644.1	599.7	565.0	529.0	502.0	474.7	446.3	421.5	399.6	369.1	335.5	309.9	312.2	292.3	200.2	149.8	113.0	83.95	65.69	60.55	95.70	426.0	1543	1205	31.94	2.684	1.570	1.488	1.392	1.327	1.404	1.649	1.956	2.538	2.814	2.829	2.996	3.843	4.091	4.155	3.846	3.631	3.792	3.722	3.676	3.787	3.651	3.747	3.656	3.802	3.631	3.985	3.319	3.622	3.602	3.675	3.651	3.644	3.606	3.657	3.680	3.589	3.625
410.0	543.9	754.8	965.6	1069	1059	970.9	890.8	834.5	798.3	798.0	782.3	753.4	715.3	665.1	613.9	573.6	540.8	513.0	487.9	463.6	437.5	415.8	396.3	369.5	341.3	309.4	289.6	292.2	257.4	183.3	133.0	100.8	75.38	56.38	51.79	116.2	456.4	1130	1219	144.0	8.279	1.721	1.453	1.440	1.481	1.634	1.972	2.301	2.608	2.620	2.830	3.559	3.812	3.821	3.798	3.380	3.700	3.618	3.545	3.651	3.657	3.707	3.503	3.704	3.673	3.503	3.380	3.462	3.384	3.556	3.525	3.497	3.466	3.393	3.478	3.594	3.486
415.0	530.5	725.1	879.4	983.2	996.8	934.3	873.5	833.4	790.7	770.4	740.1	716.2	681.7	629.9	581.5	548.3	514.2	491.8	465.2	445.9	425.1	402.7	386.9	366.7	340.4	311.2	285.4	267.3	269.9	234.3	158.8	115.9	86.66	65.14	48.35	51.30	119.4	276.5	847.6	1392	215.9	6.062	1.725	1.502	1.399	1.673	1.813	2.295	2.370	2.446	2.522	3.452	3.437	3.677	3.653	3.437	3.641	3.710	3.541	3.875	3.517	3.597	3.343	3.368	3.287	3.350	3.238	3.272	3.253	3.201	3.211	3.281	3.352	3.250	3.244	3.415	3.416
420.0	518.3	698.3	843.6	906.5	942.6	895.4	857.2	812.2	777.9	746.7	716.7	694.4	650.1	604.5	560.5	524.8	493.0	471.5	448.7	427.8	409.2	393.8	377.6	359.9	338.5	311.6	286.1	261.5	250.0	256.6	191.1	126.4	96.06	71.91	52.09	41.65	47.75	76.68	233.8	1056	1235	34.45	3.046	1.843	1.452	1.847	1.828	2.277	2.245	2.323	2.403	3.085	3.519	3.572	3.346	3.291	3.468	3.552	3.706	3.563	3.480	3.555	3.483	3.349	3.131	3.107	3.193	3.048	3.080	2.959	3.071	3.174	3.150	3.069	2.902	3.142	3.243
425.0	479.1	654.9	814.2	892.3	903.2	869.9	841.7	807.9	766.8	726.4	718.2	671.8	629.1	583.5	536.4	500.2	468.7	454.4	436.9	417.0	396.3	379.9	373.8	350.2	333.2	308.0	286.2	260.4	239.6	243.6	220.7	148.7	104.5	79.50	59.18	43.50	35.43	34.64	64.72	317.5	1218	888.4	28.15	2.304	1.587	1.875	1.817	2.110	2.223	2.205	2.437	3.272	3.377	3.244	3.231	3.106	3.558	3.355	3.458	3.565	3.586	3.385	3.415	3.163	3.144	3.065	3.215	2.836	2.898	3.038	2.710	3.060	3.053	3.267	2.977	2.996	3.135
430.0	504.5	618.8	759.0	844.4	857.6	838.8	819.8	791.7	739.1	715.7	697.3	649.8	602.1	560.1	508.7	473.8	449.7	430.4	414.9	396.0	377.5	364.4	356.6	340.3	327.7	305.0	283.9	262.9	240.9	223.9	219.5	184.9	126.7	90.48	68.85	52.23	39.69	29.96	30.19	82.26	357.0	818.1	862.1	130.5	7.520	2.104	1.805	2.186	2.151	2.133	2.361	2.924	3.154	3.234	3.085	3.139	3.319	3.423	3.424	3.350	3.483	3.294	3.292	3.142	3.197	3.044	2.981	2.954	2.900	2.955	2.936	2.960	2.974	2.983	2.784	2.800	2.996
435.0	664.2	598.3	725.6	810.1	827.6	810.7	803.3	785.4	740.0	700.1	665.6	623.7	576.1	539.0	489.1	450.9	431.5	406.4	395.7	377.6	359.8	350.6	340.8	330.7	313.1	298.6	281.0	263.7	243.6	221.2	201.7	192.3	158.8	107.4	78.06	60.46	45.83	34.70	26.27	32.93	90.04	198.6	595.6	1082	199.3	6.685	2.266	2.315	2.273	2.123	2.301	2.752	3.077	3.114	3.179	2.951	3.238	3.351	3.341	3.314	3.330	3.105	3.328	3.031	3.047	3.049	2.912	2.835	2.807	2.854	2.990	2.871	2.731	2.714	2.778	2.813	2.791
440.0	856.4	593.9	705.0	777.4	796.7	796.0	797.2	777.4	725.5	692.2	658.8	614.2	565.5	519.2	477.9	438.2	409.6	391.6	379.3	360.3	340.6	336.0	326.7	319.3	307.7	293.8	276.5	261.8	241.9	221.1	198.1	179.1	173.9	128.4	86.62	66.30	51.25	39.07	29.21	24.22	32.27	53.59	165.1	828.6	1011	31.79	3.644	2.405	2.246	2.123	2.300	2.874	2.859	2.954	3.054	3.143	3.381	3.313	3.338	3.254	3.182	3.148	3.490	3.053	2.951	2.827	2.855	2.945	2.903	2.659	2.801	2.617	2.694	2.471	2.743	2.730	2.664
445.0	976.1	723.4	657.9	747.1	752.5	755.7	773.3	765.6	715.6	665.7	638.5	601.5	540.5	498.0	455.0	412.9	391.8	373.9	363.6	347.7	330.7	320.5	312.3	306.4	296.6	283.1	271.6	257.4	240.0	221.9	198.6	172.1	163.8	145.7	98.36	71.58	55.74	42.25	32.39	24.62	21.32	22.86	45.57	248.9	969.1	808.1	25.42	2.938	2.407	2.026	2.075	2.799	2.798	2.903	2.936	3.002	3.044	3.510	3.334	3.256	3.065	3.312	3.209	3.055	3.105	3.060	2.634	2.665	2.954	2.599	2.545	2.468	2.662	2.730	2.787	2.504	2.622
450.0	757.9	1090	693.4	688.7	720.3	727.4	742.4	736.2	685.7	644.3	607.5	570.2	517.7	468.7	427.7	385.6	366.1	350.9	336.4	323.3	306.9	299.9	291.1	286.8	279.9	269.7	254.9	245.3	232.4	215.1	194.4	166.7	148.2	139.0	118.7	84.14	60.47	46.53	36.33	27.84	22.46	18.27	20.00	63.47	279.2	722.5	792.8	118.9	7.579	2.329	1.998	2.811	2.608	2.838	2.868	2.985	3.044	3.181	3.386	3.168	3.138	3.166	3.122	2.866	2.906	2.757	2.675	2.627	2.682	2.499	2.415	2.439	2.529	2.473	2.599	2.381	2.502
455.0	453.4	1234	979.0	636.6	659.1	674.8	693.9	703.0	639.6	599.4	568.7	531.6	487.7	436.2	392.2	363.0	337.2	321.4	309.7	294.9	279.7	271.9	268.0	262.4	257.8	250.8	236.1	232.1	221.9	206.4	189.0	161.6	140.3	122.3	117.9	101.5	68.01	51.12	40.74	32.03	24.93	19.34	16.10	23.20	69.77	173.9	481.2	935.7	170.4	6.843	2.322	2.572	2.493	2.589	2.698	2.763	3.144	3.073	3.105	2.911	2.972	2.977	2.789	2.800	2.760	2.386	2.395	2.361	2.392	2.377	2.453	2.440	2.410	2.247	2.299	2.317	2.292
460.0	347.2	952.0	1317	657.0	618.5	636.2	660.3	661.7	606.1	566.8	540.3	496.4	455.7	414.8	367.4	339.7	312.9	296.8	290.0	273.5	263.2	251.5	248.2	245.4	240.2	233.2	223.5	217.3	210.5	198.2	183.0	158.3	134.5	116.4	105.6	103.0	80.16	54.92	42.98	33.52	26.83	21.56	16.44	15.24	23.97	45.50	127.3	645.9	861.8	122.6	3.928	2.658	2.477	2.474	2.605	2.660	3.013	3.055	3.047	2.887	2.897	2.861	2.820	2.598	2.777	2.584	2.396	2.555	2.377	2.246	2.302	2.098	2.125	2.142	2.150	2.357	2.137
465.0	330.9	631.6	1527	854.7	578.0	600.9	617.9	617.2	573.4	543.3	511.8	469.5	430.2	389.4	347.3	314.8	292.2	276.0	267.4	255.8	245.3	235.0	231.5	228.9	223.4	220.2	212.5	206.3	200.5	189.5	171.2	153.1	131.2	110.5	97.88	94.63	88.27	60.40	44.63	35.35	28.45	23.06	17.63	14.39	14.51	17.28	34.19	183.6	774.5	669.3	22.12	3.241	2.605	2.503	2.328	2.561	2.621	2.818	2.795	2.858	2.778	2.607	2.600	2.577	2.365	2.660	2.282	2.310	2.161	2.114	2.112	2.230	2.186	2.007	2.154	2.044	2.067
470.0	291.5	439.2	1122	1429	614.4	547.9	563.5	566.0	535.5	492.6	465.8	436.1	392.8	353.5	313.7	285.3	265.0	249.7	240.1	228.6	217.3	210.4	207.1	204.9	200.3	197.2	191.1	188.8	183.2	173.6	160.3	143.1	124.1	105.1	92.50	81.56	79.31	68.79	49.75	36.75	29.95	24.29	19.61	16.23	13.52	11.85	14.33	46.75	214.8	507.6	562.1	114.4	8.335	2.537	2.418	2.388	2.492	2.585	2.650	2.623	2.618	2.454	2.352	2.399	2.291	2.204	2.009	2.020	1.952	2.079	1.901	1.998	1.967	1.898	1.922	1.875	2.003
475.0	279.9	346.9	592.6	1529	1003	492.0	513.1	506.5	479.0	454.3	423.5	393.1	359.7	315.0	278.9	257.1	233.7	220.8	212.6	200.4	191.1	184.9	186.2	182.7	176.3	175.2	169.0	167.4	163.8	158.5	146.9	130.8	114.4	98.15	84.52	74.77	66.37	66.77	57.80	40.47	30.96	25.36	20.69	17.00	14.27	11.60	10.61	16.41	52.83	119.3	275.2	610.5	171.4	9.415	2.534	2.275	2.431	2.439	2.449	2.533	2.357	2.318	2.062	1.896	2.135	1.945	1.820	1.915	2.039	1.880	1.697	1.954	1.846	1.746	1.782	1.557	1.883
480.0	285.0	337.6	411.6	1118	1500	524.3	473.0	470.1	446.5	428.4	396.1	365.7	329.7	297.0	256.7	236.1	216.0	203.6	194.0	185.1	173.2	168.5	167.6	165.7	162.8	160.6	157.9	153.8	151.4	145.1	135.4	122.7	108.4	94.00	81.81	70.33	61.94	58.47	59.26	46.02	32.88	25.78	21.91	17.68	15.28	12.45	10.51	10.09	17.19	31.04	69.87	344.0	597.5	146.9	4.953	2.434	2.391	2.378	2.175	2.307	2.212	2.217	2.114	1.950	2.099	1.796	1.909	1.927	1.884	1.809	1.544	1.752	1.750	1.666	1.591	1.560	1.623
485.0	265.7	336.4	364.7	669.6	1660	775.1	441.0	441.4	423.3	389.2	377.1	345.9	311.1	276.1	241.0	219.8	199.7	187.0	178.0	170.6	163.0	155.8	155.2	154.0	150.1	149.0	146.6	143.4	141.8	136.5	128.3	116.3	102.8	89.63	77.37	69.24	59.52	52.87	54.63	51.07	36.29	27.00	22.56	18.49	15.48	13.79	11.25	9.463	9.613	11.55	19.59	92.79	437.1	552.6	27.43	3.325	2.335	2.173	2.122	2.248	2.092	2.034	2.081	2.236	1.939	1.783	1.781	1.871	1.796	1.656	1.528	1.533	1.541	1.604	1.647	1.498	1.587
490.0	212.9	334.6	343.6	417.3	1137	1380	472.9	404.1	385.7	359.6	345.3	317.0	285.9	252.4	225.1	201.0	182.6	170.4	161.4	154.4	147.1	142.5	140.1	138.8	135.6	134.6	133.4	130.2	129.5	126.6	117.9	108.4	95.70	84.54	74.21	65.47	56.45	49.53	46.16	46.96	41.80	30.33	23.11	19.32	16.27	14.08	11.95	10.12	8.681	8.062	8.726	24.42	115.0	332.2	482.2	121.8	10.84	2.209	2.134	2.124	1.960	1.839	1.944	1.887	1.893	1.664	1.600	1.628	1.711	1.522	1.500	1.402	1.423	1.464	1.410	1.484	1.442
495.0	174.3	297.2	334.5	324.2	556.9	1491	912.1	365.0	343.7	328.7	311.2	283.7	252.0	231.1	202.8	180.1	163.7	154.2	145.3	137.3	130.6	129.0	125.7	124.6	121.5	119.7	118.9	117.0	115.7	113.4	106.5	97.85	88.22	78.06	69.00	61.86	53.25	46.49	41.83	38.87	40.61	36.01	25.56	19.75	17.41	14.49	12.48	10.87	9.225	7.707	6.497	9.596	29.07	77.63	208.2	565.6	211.0	13.79	2.137	2.072	1.920	1.668	1.770	1.622	1.866	1.554	1.532	1.455	1.535	1.477	1.367	1.319	1.318	1.336	1.179	1.310	1.411
500.0	159.6	250.7	346.5	293.9	352.0	1051	1432	397.7	319.7	305.8	291.6	258.0	236.0	212.7	182.8	161.0	151.8	141.6	134.8	125.7	120.1	114.7	112.3	112.0	109.3	109.7	107.2	106.8	105.9	103.6	98.70	90.06	80.71	72.57	65.05	57.60	50.64	45.03	39.03	35.52	35.17	36.68	29.68	20.75	17.44	15.01	12.95	11.04	9.694	7.927	6.161	6.440	10.10	20.52	51.37	273.8	574.0	179.9	7.379	1.979	1.718	1.736	1.782	1.538	1.650	1.447	1.445	1.422	1.463	1.328	1.221	1.355	1.199	1.151	1.080	1.101	1.214
505.0	155.2	209.0	326.8	297.0	287.9	592.1	1629	647.7	302.8	275.6	263.4	245.9	217.7	194.0	168.2	148.2	136.4	128.4	120.6	114.1	109.3	104.1	102.4	102.6	98.29	100.1	97.89	96.35	96.66	95.25	91.23	83.82	74.14	66.74	60.05	54.11	47.70	42.57	36.93	33.40	30.63	32.13	31.23	23.32	17.60	15.27	12.91	10.91	9.199	8.286	6.543	5.817	6.333	7.973	14.49	68.91	330.9	538.3	31.73	3.776	1.695	1.700	1.694	1.494	1.518	1.259	1.295	1.259	1.218	1.212	1.141	1.222	1.164	1.293	1.115	1.064	1.166
510.0	131.3	179.8	261.7	298.6	254.3	329.0	1081	1307	322.8	250.2	235.1	218.5	194.0	170.6	153.4	133.5	120.8	112.3	106.4	100.8	95.10	92.08	91.05	88.90	88.57	86.63	85.59	84.65	84.15	83.21	80.43	74.52	67.07	60.27	54.02	48.17	43.09	38.83	33.99	30.81	27.70	26.24	27.66	25.86	19.30	15.25	12.60	10.93	9.487	8.135	7.122	5.877	5.344	5.236	6.299	18.24	82.44	262.8	377.4	131.4	11.97	1.833	1.561	1.420	1.389	1.308	1.261	1.100	1.196	1.233	1.135	1.112	1.097	1.170	1.102	0.987	1.009
515.0	119.2	157.3	207.4	287.8	250.5	234.8	460.1	1502	777.1	223.4	205.4	192.0	171.0	152.3	133.8	116.3	105.3	98.83	91.59	87.69	82.22	80.91	77.95	76.31	75.83	73.80	73.35	73.56	72.48	72.40	70.37	63.89	58.56	52.63	48.14	43.62	38.93	34.87	30.75	28.04	24.85	23.15	21.85	24.33	22.59	16.04	12.10	11.06	9.026	7.869	7.459	6.428	5.350	4.790	4.333	6.993	21.40	61.27	131.3	378.2	215.5	14.94	1.739	1.526	1.178	1.333	1.163	1.157	1.064	1.006	1.013	1.057	0.918	0.959	1.081	0.927	0.909
520.0	109.4	141.8	161.6	245.9	252.1	205.3	268.5	1037	1376	259.4	189.4	176.2	151.9	137.3	119.9	105.3	94.76	87.20	81.65	79.43	74.20	71.30	69.95	68.82	67.92	65.44	65.68	65.18	66.19	65.10	63.34	58.66	53.18	48.32	43.16	39.26	35.56	32.24	29.41	25.63	22.31	21.77	19.26	20.52	22.26	17.61	12.66	10.46	9.026	8.143	7.162	6.432	5.747	4.642	4.466	4.421	7.630	16.42	32.25	158.4	409.4	175.6	8.460	1.449	1.216	1.245	1.126	1.106	0.983	0.961	0.917	0.888	0.969	0.866	0.953	0.850	0.931
525.0	100.3	116.3	139.9	198.7	254.6	190.8	207.1	516.5	1684	515.0	171.8	160.4	138.9	125.0	109.2	94.39	86.50	79.71	74.02	70.33	67.66	64.48	63.11	61.48	60.00	60.37	59.10	58.42	59.39	57.81	58.00	51.99	48.09	43.91	39.38	35.41	32.98	29.91	26.69	24.41	21.77	19.84	17.61	17.15	19.57	18.88	14.15	10.27	8.821	7.851	6.852	6.048	5.818	5.071	4.564	3.694	4.263	6.083	9.449	39.40	201.7	390.7	122.1	3.713	1.287	1.171	1.028	0.995	0.963	0.892	0.871	0.897	0.755	0.838	0.851	0.767	0.876
530.0	88.76	109.0	125.0	156.0	225.7	201.6	176.4	247.8	1082	1281	212.6	138.7	123.8	107.9	95.86	82.98	74.61	69.65	65.62	60.92	57.95	55.51	53.91	53.26	52.07	52.02	51.34	50.60	51.59	50.70	49.11	45.16	41.04	38.05	34.49	31.40	28.63	25.99	24.22	21.67	19.56	17.60	15.89	14.84	15.10	16.75	16.06	11.27	8.634	7.393	6.535	5.801	5.412	4.819	4.447	3.749	3.656	3.887	4.384	10.84	49.09	167.4	280.2	133.0	12.27	1.219	0.965	0.895	0.882	0.833	0.822	0.839	0.762	0.788	0.769	0.746	0.749
535.0	74.53	100.4	102.7	127.6	169.3	218.4	158.3	167.5	398.0	1498	699.0	121.6	104.3	91.69	83.71	71.90	64.27	59.39	54.90	51.60	49.10	47.70	45.93	44.70	44.72	43.73	44.14	43.21	43.68	43.45	41.52	39.04	35.90	33.68	30.08	26.97	25.14	22.85	21.07	19.10	17.99	15.96	14.09	13.45	12.49	12.40	14.44	12.03	8.572	6.866	5.841	5.121	4.975	4.480	4.298	3.965	3.534	3.223	2.904	4.526	12.66	38.96	84.64	266.2	198.2	15.13	1.142	1.020	0.869	0.802	0.860	0.654	0.684	0.728	0.763	0.729	0.798
540.0	68.07	87.24	89.04	109.2	131.2	205.6	158.4	135.1	183.8	960.1	1358	162.4	92.28	81.69	73.84	65.05	56.43	53.59	48.80	46.58	43.82	41.23	40.11	39.65	40.64	38.38	38.22	37.66	38.62	37.83	36.82	34.08	31.80	29.13	26.26	24.06	21.97	20.16	19.13	16.85	15.75	14.03	13.19	11.88	10.92	10.60	11.97	12.34	9.657	6.706	5.676	5.036	4.547	4.438	4.085	4.140	3.473	3.032	2.758	3.023	4.631	10.26	20.43	100.4	283.4	144.8	7.378	1.138	0.793	0.828	0.793	0.659	0.736	0.603	0.736	0.687	0.726
545.0	69.69	89.52	82.99	98.95	108.7	173.2	170.9	117.3	124.7	416.8	1648	380.1	84.41	74.14	63.35	57.93	51.93	46.69	42.91	40.42	38.03	36.77	35.95	35.64	35.73	33.43	33.28	33.85	33.39	34.41	32.21	30.21	27.87	25.76	23.75	21.92	19.56	18.07	16.65	15.60	13.98	12.61	11.87	10.81	10.26	9.073	9.658	10.96	10.11	7.366	5.355	4.804	4.210	3.937	3.805	3.907	3.654	3.008	2.525	2.643	2.636	3.651	5.877	24.47	126.5	269.8	33.22	3.021	0.911	0.820	0.662	0.661	0.695	0.560	0.625	0.654	0.680
550.0	58.44	67.88	76.01	81.62	88.85	125.1	174.2	112.7	96.23	169.9	964.9	1108	120.6	62.50	53.75	47.85	43.05	39.56	37.25	34.59	32.98	31.14	30.52	29.77	29.07	28.03	27.14	28.26	28.42	28.28	27.00	25.65	23.37	21.65	20.06	18.45	17.12	15.33	14.06	13.26	12.06	11.00	10.05	9.305	8.866	8.194	7.631	8.069	9.038	8.008	5.656	4.484	3.799	3.664	3.288	3.342	3.517	3.079	2.457	2.307	2.109	2.246	2.583	6.727	30.30	109.2	174.2	101.8	10.93	0.835	0.658	0.667	0.607	0.552	0.585	0.519	0.600
555.0	57.38	60.44	64.94	66.30	71.13	87.26	141.3	132.1	83.37	96.15	308.0	1343	463.0	54.76	45.42	39.00	35.67	32.92	29.29	28.49	25.69	25.73	24.76	24.60	23.88	23.19	22.77	22.36	23.29	22.63	21.94	21.05	18.64	17.67	16.10	15.03	13.92	12.48	11.54	10.86	9.986	8.935	8.411	7.795	7.208	6.850	6.332	6.100	6.592	7.151	6.134	4.397	3.511	3.061	2.951	2.961	2.808	2.804	2.623	2.231	1.787	1.768	1.728	2.471	7.672	25.28	52.83	162.5	130.6	11.77	0.710	0.603	0.595	0.525	0.568	0.543	0.572
560.0	49.96	55.14	58.66	60.95	64.66	67.71	105.2	147.1	76.41	73.10	119.7	825.3	1017	71.76	37.55	33.97	30.19	27.56	25.32	23.98	21.40	21.95	20.34	20.44	20.05	19.38	19.38	19.49	20.21	18.92	18.66	17.95	16.22	14.90	14.30	12.96	11.85	10.55	10.22	9.024	8.610	7.987	7.408	7.064	6.514	5.888	5.800	5.243	4.839	5.858	5.938	4.689	3.195	2.926	2.640	2.526	2.384	2.530	2.456	2.200	1.639	1.578	1.464	1.771	2.705	6.444	12.79	59.89	175.2	91.75	5.090	0.734	0.562	0.546	0.523	0.573	0.499
565.0	45.03	52.88	53.91	56.90	51.89	58.29	73.69	139.6	79.13	59.08	70.70	324.4	1320	150.0	33.99	29.65	25.61	22.72	21.34	20.29	18.64	18.33	17.89	17.35	16.81	16.81	16.65	16.77	16.38	16.49	16.27	14.77	13.80	12.63	12.10	10.93	9.867	9.267	9.047	7.721	7.445	6.818	6.661	5.999	5.748	5.430	4.720	4.579	4.274	4.366	5.143	4.611	3.233	2.733	2.599	2.292	2.235	2.143	2.119	2.373	1.788	1.466	1.296	1.395	1.549	2.394	3.682	14.54	74.95	161.5	31.98	2.123	0.588	0.441	0.477	0.469	0.492
570.0	47.18	48.39	48.89	49.50	47.24	47.77	53.90	97.54	103.7	55.02	54.15	112.3	785.0	773.1	58.23	23.79	21.15	19.29	17.59	16.57	15.57	15.17	14.41	13.75	13.74	13.20	13.40	13.60	13.46	13.45	12.45	12.22	11.31	10.01	9.473	8.859	8.265	7.846	7.001	6.496	6.066	5.692	5.344	4.912	4.675	4.514	4.029	3.799	3.345	3.345	3.673	3.896	3.505	2.552	2.280	2.071	1.903	1.842	1.794	2.006	1.910	1.657	1.275	1.185	1.258	1.375	1.613	4.020	17.98	63.80	104.0	63.80	8.328	0.523	0.431	0.453	0.458
575.0	49.96	44.85	46.88	45.04	41.31	39.95	43.53	56.94	116.1	59.65	44.94	56.91	235.0	983.9	291.2	21.14	17.74	15.34	14.37	13.89	13.15	12.45	11.87	11.80	10.90	11.00	11.07	10.75	10.69	10.87	9.503	9.799	8.844	8.223	7.778	7.021	6.825	6.322	5.700	5.591	4.774	4.881	4.284	4.067	3.781	3.626	3.209	3.122	2.790	2.452	2.602	2.936	3.396	2.848	2.138	1.719	1.650	1.692	1.501	1.599	1.600	1.843	1.445	1.038	1.157	1.144	1.161	1.557	4.599	14.80	30.85	93.94	82.89	7.629	0.482	0.502	0.569
580.0	47.86	49.17	42.88	35.21	35.43	37.84	35.55	44.35	96.06	78.16	41.50	44.24	80.77	610.2	699.8	29.92	15.54	13.16	12.23	11.54	11.30	10.28	10.17	9.942	9.669	9.026	8.620	8.623	8.960	9.082	8.045	8.384	7.543	6.984	6.315	5.718	5.682	5.263	4.925	4.544	4.213	4.141	3.521	3.551	3.283	3.244	2.873	2.745	2.477	2.284	2.095	2.398	2.786	2.906	2.206	1.707	1.584	1.472	1.399	1.351	1.324	1.585	1.642	1.082	1.027	0.931	0.935	0.978	1.524	3.847	7.629	34.26	108.1	34.25	3.192	0.472	0.431
585.0	49.50	46.08	40.05	30.92	31.23	30.32	33.27	36.01	67.35	95.70	43.91	40.79	44.33	233.3	915.9	89.20	13.37	11.55	10.54	9.763	9.469	9.182	8.330	8.952	7.905	7.659	7.543	7.483	8.235	7.696	7.499	6.995	6.658	6.373	5.520	5.317	4.960	4.405	4.357	3.927	3.640	3.733	3.243	3.131	2.891	2.622	2.643	2.415	2.303	2.054	1.926	1.848	2.211	2.712	2.203	1.830	1.428	1.219	1.295	1.362	1.162	1.356	1.466	1.253	0.949	0.940	0.908	0.817	0.850	1.427	2.241	8.433	44.98	91.13	28.13	1.397	0.428
590.0	41.55	44.96	39.54	33.10	28.76	28.64	28.13	31.35	44.73	91.74	60.73	36.28	34.78	75.56	540.5	477.0	24.94	10.02	8.584	8.513	7.764	7.267	7.301	7.171	6.937	6.273	6.405	6.427	6.490	6.370	6.022	5.709	5.347	5.253	4.760	4.459	4.150	3.702	3.695	3.401	3.121	2.925	2.836	2.512	2.422	2.372	2.253	2.073	1.898	1.660	1.570	1.498	1.604	1.926	2.038	1.891	1.449	1.097	1.180	1.160	0.956	1.075	1.063	1.253	1.125	0.950	0.788	0.833	0.769	0.910	1.045	2.357	10.83	36.13	63.48	41.44	5.199
595.0	39.54	41.94	40.71	34.05	30.52	28.77	26.13	28.31	35.16	65.76	83.19	40.68	33.85	37.18	158.8	642.7	94.13	9.502	7.353	6.735	6.275	6.056	6.040	5.383	5.610	5.152	5.180	5.267	5.262	4.881	4.958	4.476	4.370	4.074	3.717	3.731	3.314	3.000	3.073	2.935	2.698	2.321	2.349	2.257	1.975	1.865	1.823	1.708	1.590	1.604	1.344	1.148	1.179	1.372	1.537	1.935	1.532	1.113	1.048	0.978	0.875	0.859	0.811	0.990	1.080	1.019	0.686	0.713	0.737	0.708	0.653	0.960	2.866	8.532	18.15	55.29	35.70
600.0	38.46	38.17	43.74	34.40	28.20	29.24	28.21	30.84	34.29	51.26	96.96	52.53	36.56	33.17	55.12	418.3	384.7	14.91	6.842	5.347	5.150	5.266	4.982	4.570	4.807	4.627	4.329	4.471	4.247	4.583	4.077	4.067	3.717	3.292	3.103	2.961	3.002	2.671	2.654	2.491	2.203	2.095	1.964	2.027	1.796	1.659	1.629	1.539	1.563	1.300	1.169	1.115	1.027	1.165	1.159	1.513	1.616	1.274	0.950	0.883	0.818	0.709	0.795	0.892	0.971	1.036	0.842	0.722	0.657	0.626	0.554	0.677	1.073	2.335	4.498	19.78	57.44
605.0	45.82	48.25	46.65	36.37	32.07	29.22	31.14	38.27	40.82	53.79	100.6	82.29	50.50	41.61	39.36	173.6	566.8	54.51	6.333	5.285	4.543	4.571	4.048	4.154	4.179	3.978	4.197	4.084	3.805	3.701	3.616	3.539	3.180	2.943	2.853	2.454	2.357	2.503	2.226	2.164	1.983	1.748	1.795	1.737	1.427	1.620	1.467	1.340	1.299	1.067	1.022	0.943	1.027	0.987	0.960	1.208	1.492	1.309	0.939	0.852	0.883	0.763	0.890	0.885	0.949	0.963	1.048	0.821	0.717	0.720	0.661	0.673	0.648	0.901	1.332	4.974	24.52
610.0	53.64	56.43	53.64	41.86	36.54	37.51	42.12	51.73	64.86	83.17	116.3	140.1	92.33	70.14	60.06	78.70	395.0	293.0	12.21	4.702	4.245	3.831	3.596	3.407	3.220	3.298	3.110	3.253	3.045	3.172	2.867	2.932	2.575	2.521	2.347	2.200	2.046	2.078	1.799	1.705	1.633	1.549	1.510	1.368	1.287	1.336	1.277	1.154	1.116	0.956	0.896	0.869	0.998	0.881	0.880	0.961	1.138	1.310	1.174	0.899	0.842	0.831	0.917	0.863	0.937	0.919	1.161	1.103	0.926	0.842	0.699	0.667	0.675	0.802	0.728	1.646	6.140
615.0	54.08	68.28	59.01	49.25	36.19	38.85	49.11	61.76	76.32	96.31	116.7	160.0	125.1	83.97	73.52	61.01	151.8	448.1	65.12	4.066	3.637	3.376	3.112	2.865	2.684	2.868	2.628	2.478	2.686	2.431	2.408	2.550	2.171	2.122	1.881	1.846	1.600	1.643	1.600	1.541	1.432	1.239	1.238	1.105	1.188	1.170	1.069	1.035	0.956	0.864	0.788	0.791	0.837	0.667	0.651	0.706	0.825	1.112	1.287	1.008	0.851	0.889	0.845	0.857	0.970	0.893	0.903	1.135	1.188	0.883	0.867	0.797	0.789	0.787	0.724	0.835	1.867
620.0	54.98	65.19	57.27	50.84	37.37	37.39	47.48	56.63	72.25	94.69	109.7	145.1	135.6	87.03	74.16	54.70	74.42	327.3	230.9	5.638	3.168	3.140	2.644	2.573	2.566	2.381	2.231	2.187	2.155	2.363	2.040	2.057	1.865	1.674	1.613	1.719	1.385	1.446	1.228	1.282	1.125	1.219	0.968	1.035	1.107	1.026	0.962	0.932	0.910	0.818	0.690	0.658	0.727	0.647	0.635	0.713	0.766	0.867	1.133	0.979	0.786	0.733	0.750	0.897	0.929	0.860	0.928	0.981	1.163	0.890	0.841	0.794	0.742	0.676	0.707	0.605	0.948
625.0	57.58	68.34	62.06	49.81	38.97	39.06	49.21	58.43	70.19	91.00	105.4	125.9	140.4	89.92	73.14	52.76	52.87	149.0	376.7	23.07	2.967	2.606	2.186	2.512	2.263	2.293	2.025	1.860	1.997	1.901	1.833	1.752	1.605	1.543	1.482	1.358	1.270	1.098	1.167	1.110	1.043	0.992	1.002	0.937	0.970	0.789	0.866	0.803	0.816	0.735	0.645	0.720	0.639	0.671	0.585	0.669	0.575	0.768	0.921	0.990	0.851	0.714	0.804	0.754	0.854	0.866	0.880	0.877	1.000	1.095	0.900	0.814	0.751	0.779	0.676	0.640	0.634
630.0	58.55	66.20	61.34	54.37	39.50	40.63	47.95	57.88	70.68	85.07	100.6	116.4	130.0	98.04	72.83	52.47	48.33	57.46	277.8	154.3	4.811	2.203	2.132	2.031	1.728	1.908	1.735	1.753	1.749	1.755	1.640	1.444	1.492	1.336	1.326	1.150	1.067	1.041	0.973	0.975	0.859	0.862	0.832	0.839	0.789	0.703	0.767	0.742	0.700	0.647	0.636	0.588	0.636	0.621	0.482	0.557	0.601	0.669	0.777	0.818	0.865	0.772	0.707	0.739	0.842	0.818	0.808	0.816	0.857	0.972	0.962	0.836	0.712	0.737	0.694	0.554	0.557
635.0	59.40	64.68	69.87	55.50	39.98	41.60	49.27	60.05	69.42	83.21	96.17	112.9	115.3	110.8	74.68	53.31	47.48	34.37	89.13	305.9	37.06	1.952	1.737	1.794	1.488	1.569	1.486	1.544	1.378	1.448	1.450	1.198	1.224	1.092	1.222	0.944	0.947	0.917	0.874	0.845	0.759	0.765	0.639	0.696	0.751	0.644	0.626	0.640	0.623	0.587	0.506	0.517	0.570	0.549	0.543	0.487	0.535	0.585	0.699	0.727	0.775	0.808	0.702	0.685	0.660	0.768	0.831	0.874	0.742	0.769	0.824	0.908	0.717	0.725	0.567	0.611	0.595
640.0	58.78	73.05	72.49	52.91	43.45	39.02	48.51	58.34	64.91	82.93	97.06	108.5	106.9	113.1	79.22	53.25	48.05	28.41	28.13	246.1	140.1	2.589	1.680	1.501	1.269	1.467	1.487	1.237	1.226	1.179	1.155	1.145	1.001	0.884	1.015	0.822	0.772	0.648	0.776	0.755	0.704	0.715	0.524	0.602	0.586	0.662	0.575	0.612	0.590	0.556	0.495	0.483	0.548	0.523	0.497	0.491	0.527	0.597	0.564	0.702	0.708	0.744	0.756	0.741	0.697	0.800	0.691	0.913	0.772	0.765	0.698	0.986	0.792	0.636	0.658	0.638	0.560
645.0	60.29	73.98	71.25	54.87	41.85	37.43	45.07	53.83	61.47	78.97	93.27	105.4	99.24	100.3	86.11	52.50	47.68	26.81	12.73	113.5	254.1	11.41	1.615	1.431	1.255	1.271	1.365	1.201	1.128	1.095	0.977	0.997	0.892	0.847	0.760	0.741	0.847	0.671	0.654	0.741	0.709	0.557	0.553	0.566	0.539	0.624	0.583	0.592	0.545	0.542	0.517	0.438	0.427	0.468	0.490	0.457	0.487	0.574	0.484	0.678	0.697	0.669	0.688	0.749	0.723	0.681	0.875	0.739	0.762	0.774	0.712	0.932	0.875	0.669	0.651	0.647	0.558
650.0	61.69	77.40	70.85	53.56	41.45	34.36	45.54	50.95	59.79	73.60	84.64	95.28	93.00	88.61	86.88	50.89	44.36	25.26	9.073	35.53	262.9	54.11	1.512	1.329	1.166	1.017	1.121	1.016	1.143	1.090	1.056	0.817	0.731	0.659	0.605	0.644	0.701	0.661	0.521	0.684	0.589	0.574	0.678	0.521	0.538	0.607	0.532	0.541	0.504	0.427	0.457	0.464	0.431	0.485	0.532	0.372	0.478	0.471	0.506	0.578	0.565	0.668	0.696	0.739	0.696	0.718	0.903	0.698	0.697	0.716	0.677	0.730	0.764	0.694	0.682	0.595	0.579
