Sample:	'1
File name:	1.FD3
Run date:	'15:57:14, 09/08/2025
Operator:	Administrator
Comment:	'

Instrument
Model:	F-2700 FL Spectrophotometer
Serial number:	3064-004
ROM Version:	4J14000 07

Instrument parameters
Measurement type:	3-D scan
Data mode:	Fluorescence
EX  Start WL:	220.0 nm
EX  End WL:	600.0 nm
EX Sampling interval:	5.0 nm
EM  Start WL:	230.0 nm
EM  End WL:	650.0 nm
EM Sampling interval:	5.0 nm
Scan speed:	12000 nm/min
EX Slit:	5.0 nm
EM Slit:	5.0 nm
PMT Voltage:	700 V
Response:	Auto 
Corrected spectra:	Off
Contour interval:	1000.000

Processing performed
Spectral arithmetic
Spectrum 1:	1.000 * 1(C2025081902东兴污水处理厂排口(1).FD3)
Operation:	plus
Spectrum 2:	1.000 * 1(C2025081901博瑞污水处理厂总排口.FD3)

Peak integration
Integration method:	Rectangular
Sensitivity:	1
Threshold:	1.000

Peaks
No.	ApexEX/EM(nm)	Height(Data)
1	235.0/625.0	32.21
2	240.0/260.0	668.6
3	240.0/630.0	29.18
4	245.0/265.0	657.4
5	245.0/645.0	28.27
6	255.0/280.0	1258
7	260.0/285.0	1626
8	260.0/565.0	515.2
9	265.0/290.0	1582
10	265.0/580.0	421.2
11	270.0/295.0	2233
12	270.0/590.0	325.5
13	275.0/305.0	2679
14	275.0/445.0	7432
15	275.0/605.0	278.4
16	280.0/310.0	2601
17	280.0/615.0	229.8
18	285.0/315.0	2649
19	285.0/630.0	182.2
20	290.0/320.0	2587
21	290.0/645.0	144.0
22	295.0/330.0	2169
23	300.0/335.0	2085
24	305.0/340.0	2196
25	360.0/445.0	6766
26	480.0/260.0	3.324
27	485.0/265.0	4.297
28	495.0/270.0	3.907
29	505.0/275.0	5.988
30	515.0/280.0	6.668
31	520.0/285.0	7.506
32	530.0/290.0	7.667
33	540.0/295.0	10.51
34	545.0/300.0	11.72
35	545.0/450.0	32.47
36	550.0/305.0	12.75
37	560.0/310.0	11.74
38	570.0/315.0	12.97
39	575.0/320.0	12.81
40	585.0/325.0	12.65
41	590.0/330.0	11.51

Data points
	220.0	225.0	230.0	235.0	240.0	245.0	250.0	255.0	260.0	265.0	270.0	275.0	280.0	285.0	290.0	295.0	300.0	305.0	310.0	315.0	320.0	325.0	330.0	335.0	340.0	345.0	350.0	355.0	360.0	365.0	370.0	375.0	380.0	385.0	390.0	395.0	400.0	405.0	410.0	415.0	420.0	425.0	430.0	435.0	440.0	445.0	450.0	455.0	460.0	465.0	470.0	475.0	480.0	485.0	490.0	495.0	500.0	505.0	510.0	515.0	520.0	525.0	530.0	535.0	540.0	545.0	550.0	555.0	560.0	565.0	570.0	575.0	580.0	585.0	590.0	595.0	600.0
230.0	15.08	485.2	3438	2119	128.0	9.986	9.164	7.823	8.601	7.101	7.666	8.503	6.648	5.958	4.781	4.770	3.814	3.295	3.399	3.333	3.266	3.317	3.033	2.540	2.682	2.837	2.858	2.567	2.786	2.534	2.130	2.056	1.965	1.385	1.355	1.283	1.255	0.965	1.040	0.920	0.935	0.779	0.775	0.699	0.611	0.601	1.751	6.351	12.01	9.560	4.128	0.984	0.463	0.491	0.420	0.404	0.380	0.322	0.303	0.285	0.198	0.203	0.278	0.186	0.280	0.192	0.107	0.198	0.162	0.059	0.059	0.116	0.177	0.027	0.086	0.043	-0.017
235.0	51.18	137.5	1463	4367	1927	212.6	13.60	10.85	9.551	6.258	8.626	7.053	6.507	4.470	5.487	4.747	4.081	3.279	4.080	2.563	3.661	3.250	3.493	2.875	3.108	3.090	2.213	2.943	2.461	2.480	2.185	1.889	1.936	1.433	1.626	1.068	1.407	0.855	1.068	0.868	0.685	0.674	0.739	0.964	0.701	0.958	0.859	2.131	4.702	8.274	13.10	13.56	6.165	2.077	0.376	0.409	0.285	0.366	0.353	0.307	0.206	0.260	0.069	0.298	0.223	0.254	0.114	0.224	0.123	0.127	0.032	0.172	0.153	0.015	0.064	0.094	-0.091
240.0	68.41	103.8	379.4	2485	5781	1648	109.8	9.243	7.996	10.60	8.747	7.505	6.673	5.914	5.091	5.400	4.501	3.971	3.494	3.029	3.501	3.004	3.377	2.814	3.222	3.314	2.537	2.720	2.192	2.426	2.014	2.424	1.957	1.317	1.356	0.830	1.117	0.829	1.070	0.937	0.578	0.838	0.738	0.968	0.832	1.409	1.120	1.108	1.595	2.742	7.139	16.73	19.94	15.48	5.001	0.843	0.429	0.480	0.489	0.200	0.215	0.255	0.388	0.224	0.321	0.216	0.154	0.086	0.203	0.125	0.167	0.160	0.132	0.031	0.123	0.098	-0.020
245.0	42.02	155.2	184.5	665.1	3963	6760	1343	52.23	12.69	13.00	9.244	10.14	7.612	7.297	5.151	5.556	4.907	3.861	3.140	3.200	3.370	3.123	3.257	2.754	3.093	3.157	2.888	2.524	2.616	2.079	2.523	2.783	1.719	1.721	1.660	1.055	0.998	0.958	0.879	1.111	0.716	0.895	0.661	0.801	0.629	1.227	1.588	1.259	1.055	1.216	1.966	5.653	13.52	23.99	24.23	13.46	3.566	0.642	0.529	0.362	0.279	0.421	0.390	0.104	0.228	0.150	0.080	0.111	0.277	0.110	0.180	0.176	0.215	0.091	0.228	0.117	0.016
250.0	17.03	87.96	265.1	340.1	1061	3983	7005	4122	373.9	18.94	13.08	11.18	9.426	8.010	6.266	6.809	4.569	3.631	3.713	3.886	3.744	3.103	2.683	3.471	3.296	3.451	2.699	2.970	2.667	2.410	2.291	2.356	1.493	1.604	1.506	1.157	0.899	0.744	0.945	1.089	0.710	0.782	0.757	0.617	0.649	0.752	1.039	1.285	1.742	1.510	1.300	1.914	3.665	7.847	13.40	20.50	26.30	23.53	13.18	3.938	0.712	0.368	0.358	0.195	0.294	0.201	0.257	0.224	0.166	0.071	0.085	0.030	0.197	0.141	0.182	0.073	0.001
255.0	10.04	26.90	123.9	464.5	509.9	948.6	2968	9563	6770	504.0	18.08	18.04	13.22	9.050	7.258	6.123	5.417	4.315	3.797	4.642	3.856	3.001	2.992	3.648	3.629	3.759	3.281	2.561	2.587	2.949	2.388	1.863	1.566	1.732	1.271	1.245	1.054	0.779	0.744	0.731	0.946	1.086	0.524	0.606	1.144	0.830	0.527	0.600	0.957	1.588	2.219	2.427	1.849	2.398	3.570	5.195	9.737	21.94	39.40	42.42	22.21	4.888	0.828	0.365	0.339	0.395	0.306	0.153	0.246	0.194	0.326	0.146	0.078	0.162	-0.044	0.327	0.205
260.0	5.657	9.958	41.08	281.5	668.6	411.7	752.2	4726	9999.9	5952	280.6	19.84	15.83	11.01	9.357	7.360	5.924	4.756	4.140	4.262	4.158	3.143	3.249	3.770	3.175	3.190	2.834	2.821	3.017	3.188	3.024	2.289	1.870	1.582	1.488	1.022	0.975	1.000	1.009	0.675	1.002	0.947	0.847	0.934	0.831	0.911	0.691	0.597	0.812	0.670	1.408	2.674	3.324	2.114	1.632	1.692	2.543	6.083	17.34	39.94	55.42	45.28	17.30	2.280	0.252	0.391	0.277	0.377	0.131	0.297	0.199	0.068	0.116	0.087	0.217	0.175	0.284
265.0	7.396	6.465	20.29	96.86	553.7	657.4	279.4	1235	7277	9999.9	4547	109.5	20.23	15.25	11.32	8.219	5.741	5.373	6.142	4.653	4.366	4.151	3.564	3.712	3.628	3.182	3.360	3.474	3.265	2.828	2.777	2.255	2.284	1.872	1.521	1.256	1.243	0.871	0.872	0.774	0.719	0.615	0.878	0.964	0.623	0.608	0.651	0.871	0.685	0.501	0.905	1.324	2.975	4.297	2.927	1.488	1.001	1.986	4.626	11.82	28.81	57.36	66.48	40.02	9.315	0.808	0.378	0.239	0.167	0.424	0.196	0.093	0.427	0.027	0.185	0.143	0.124
270.0	19.30	18.15	28.00	43.00	183.8	611.6	770.2	467.1	1866	7359	9999.9	8438	330.7	23.82	15.36	10.51	7.613	6.626	5.827	5.459	4.578	4.026	4.050	3.501	3.897	3.406	3.497	3.299	3.208	2.863	3.026	2.498	2.127	2.262	1.635	1.278	1.291	0.851	0.925	0.907	0.697	0.680	0.819	0.995	0.822	0.696	0.835	0.894	0.702	0.710	0.700	0.747	1.301	2.329	3.155	3.907	3.533	2.466	1.689	3.211	7.264	16.51	30.47	48.93	61.36	57.98	32.94	8.662	0.819	0.350	0.238	0.160	0.289	0.193	0.298	0.153	0.175
275.0	35.20	51.72	61.69	62.42	68.08	198.9	775.1	1066	588.7	1753	4968	9999.9	9999.9	403.7	23.37	13.41	9.172	8.262	6.373	5.977	5.676	4.700	4.154	4.178	4.502	3.098	3.281	3.087	3.232	2.842	3.100	2.733	2.153	1.985	1.751	1.415	1.392	1.181	0.790	1.163	0.855	0.730	0.864	0.893	0.997	0.908	1.125	1.054	1.076	0.854	0.587	0.898	0.752	1.173	1.259	1.606	4.123	5.988	5.172	2.321	2.137	4.428	7.630	11.84	18.58	42.57	82.86	89.65	45.37	7.706	0.510	0.268	0.195	0.215	0.208	0.134	0.203
280.0	56.98	102.3	101.9	70.05	64.02	85.90	327.6	1258	917.7	550.2	1298	6723	9999.9	4851	230.9	19.52	11.48	9.581	8.102	6.309	5.475	4.886	5.238	4.342	4.085	3.794	3.580	2.895	3.246	3.451	3.527	2.393	1.972	1.896	1.979	1.336	1.599	1.442	0.914	0.965	0.890	0.884	0.956	1.013	1.072	1.011	1.384	1.119	1.200	1.224	1.009	0.918	0.676	0.739	0.806	0.958	1.777	3.532	6.476	6.668	2.883	2.070	2.327	3.657	4.972	11.30	30.07	69.69	108.7	80.56	26.86	2.340	0.316	0.373	0.232	0.284	0.314
285.0	59.75	122.7	141.9	122.3	82.08	72.75	146.1	663.4	1626	657.9	515.2	1819	9163	9999.9	3571	101.4	15.47	11.54	10.15	7.164	6.177	5.146	4.975	5.072	4.941	4.251	3.651	3.089	3.980	2.818	3.524	2.204	2.482	1.955	1.987	1.814	1.492	1.087	1.126	1.143	1.151	0.955	0.929	1.096	0.938	1.077	1.765	1.261	1.271	1.282	0.861	0.885	0.786	0.693	0.943	0.688	1.167	1.776	3.009	6.607	7.506	4.992	1.820	1.906	2.010	3.459	7.944	18.88	46.88	94.72	105.9	60.89	11.68	0.950	0.214	0.270	0.213
290.0	104.6	172.4	214.1	183.2	135.9	120.4	148.4	320.0	958.0	1582	789.4	805.4	2527	8609	9999.9	9919	199.8	18.59	12.19	8.565	7.399	6.191	5.448	4.899	4.891	4.241	4.120	3.892	3.692	3.585	3.431	2.454	2.499	2.584	2.087	1.791	1.337	1.430	1.350	0.972	1.210	1.239	0.795	1.010	1.001	1.370	1.653	1.682	1.580	1.506	1.070	1.245	1.011	0.815	0.884	0.903	1.032	1.343	1.843	2.798	4.546	7.092	7.667	6.595	3.367	2.671	3.608	6.112	12.34	25.73	45.92	71.51	83.12	76.90	39.67	9.951	0.734
295.0	123.4	213.3	292.5	259.2	197.5	167.9	214.0	279.2	493.3	1041	2233	987.6	1138	2385	5057	9999.9	9999.9	255.5	18.05	12.36	8.806	6.863	5.759	5.278	5.410	4.204	4.013	4.839	3.848	4.086	3.341	2.742	2.404	2.650	2.309	1.696	1.860	1.321	1.501	1.108	0.942	1.302	0.870	1.041	1.522	1.474	1.441	1.547	1.683	1.577	1.327	1.333	1.128	1.144	1.250	0.987	1.231	1.353	1.745	1.926	2.521	3.317	4.684	8.710	10.51	6.845	3.841	3.938	5.428	7.810	12.36	17.80	23.89	49.58	107.2	107.0	53.73
300.0	127.3	224.9	312.8	290.0	238.4	222.0	268.3	330.5	457.2	719.9	1866	2354	1048	1121	1570	5750	9999.9	6777	164.2	15.83	11.24	8.845	6.908	5.757	6.256	5.349	4.569	5.035	3.396	3.493	3.132	3.265	2.686	2.332	1.937	1.979	1.731	1.472	1.337	1.211	1.246	1.201	0.894	1.332	1.204	1.313	1.131	2.126	1.674	1.696	1.500	1.761	1.285	1.240	1.551	1.335	1.651	1.655	1.510	2.026	1.964	2.295	2.988	4.737	9.749	11.72	8.818	5.409	4.119	4.604	5.271	6.535	7.174	13.09	35.45	83.95	129.5
305.0	137.9	244.2	330.1	324.0	254.5	265.4	316.8	392.7	501.6	684.8	1236	2679	1997	1005	892.5	1610	7814	9999.9	2333	81.56	13.81	10.68	9.149	6.301	6.423	5.608	4.905	4.603	4.078	4.208	3.460	2.879	3.075	2.081	1.830	1.523	1.908	1.700	1.583	1.303	1.058	1.248	1.152	1.156	1.120	1.384	1.745	2.205	1.809	1.602	1.827	1.920	1.560	1.271	1.598	1.579	1.613	1.889	1.880	1.869	2.215	2.752	2.598	3.685	5.533	8.173	12.75	11.80	7.288	4.433	4.446	4.231	4.601	4.743	9.528	22.21	54.03
310.0	145.3	258.1	347.7	362.6	303.3	311.0	365.6	459.0	569.3	737.5	1062	1711	2601	1898	926.2	766.0	2037	7323	9999.9	8083	141.7	16.02	11.44	8.263	7.186	6.375	5.973	4.591	4.640	4.185	3.430	3.274	3.391	2.402	1.994	1.775	1.743	1.784	1.746	1.351	1.316	1.218	1.221	1.036	1.212	1.334	1.650	2.159	1.785	1.738	1.708	1.827	1.863	1.746	1.907	1.761	1.840	2.081	2.270	2.358	2.648	3.108	3.250	3.835	4.630	5.341	7.451	9.873	11.74	11.14	7.237	4.987	4.047	3.373	3.890	6.755	13.53
315.0	160.7	284.9	383.7	389.5	357.4	342.6	403.8	530.8	657.1	820.2	1100	1412	1843	2649	1759	748.0	819.8	1887	3938	9999.9	9999.9	189.8	15.63	10.81	8.949	7.727	6.469	5.526	4.843	4.010	3.989	3.400	3.772	2.420	2.250	2.207	2.203	1.957	1.613	1.464	1.435	1.565	1.189	1.381	1.620	1.960	1.684	1.971	2.041	1.809	1.970	2.019	1.801	1.973	1.876	1.773	2.124	2.125	2.513	2.580	3.073	2.961	3.614	4.119	4.433	5.348	5.795	6.860	8.058	10.15	12.97	11.57	6.657	4.507	3.391	3.396	4.931
320.0	183.4	317.8	487.7	477.9	414.5	400.6	462.2	581.5	762.4	911.1	1184	1451	1664	2125	2587	1166	684.8	783.6	1134	4797	9999.9	7658	126.1	15.04	9.730	8.787	6.564	5.665	5.437	4.310	4.268	3.482	3.200	2.933	2.547	2.114	2.120	2.130	1.448	1.567	1.330	1.204	1.168	1.306	1.596	1.782	1.912	2.005	2.488	2.130	2.148	1.996	1.958	2.062	2.003	2.033	2.286	2.790	2.627	3.022	3.610	3.100	4.173	4.618	4.856	6.014	6.311	6.519	7.002	8.035	10.07	12.81	12.52	7.573	4.447	3.670	3.786
325.0	201.0	389.3	598.3	624.3	493.5	472.7	524.3	639.9	825.8	1010	1298	1555	1701	1822	2441	2007	865.2	648.9	587.7	1340	7093	9999.9	1748	65.86	13.54	8.863	7.740	6.416	5.929	4.748	4.174	3.834	3.222	3.031	2.606	2.228	1.901	1.947	1.383	1.499	1.452	1.658	1.084	1.502	1.615	2.170	2.105	2.503	3.077	2.517	2.225	2.299	1.975	2.410	2.265	2.380	2.682	3.066	3.044	3.336	3.522	3.686	4.318	5.000	5.499	6.220	6.537	7.023	7.453	7.337	7.641	8.552	12.16	12.65	8.707	5.498	4.657
330.0	218.2	437.8	727.6	811.3	661.2	576.3	620.0	733.2	886.9	1136	1438	1688	1847	1869	1965	2169	1722	899.7	623.2	669.8	1892	6616	9999.9	6323	112.2	15.03	10.29	7.691	6.466	5.490	5.038	4.428	3.370	3.053	2.574	2.484	2.044	1.906	1.531	1.567	1.350	1.343	1.316	1.545	1.796	2.111	2.673	3.077	3.557	3.059	2.856	3.037	2.798	2.382	2.408	2.850	3.208	3.227	3.343	3.747	3.805	4.322	5.005	5.325	6.069	6.182	7.207	7.622	7.617	7.907	7.961	8.032	9.364	9.898	11.51	10.78	8.597
335.0	239.6	463.4	818.1	978.3	850.8	739.1	728.8	829.4	1007	1279	1598	1851	2034	2034	1969	1829	2085	1740	889.7	711.3	833.1	1756	3450	9999.9	8721	152.2	17.14	11.18	8.262	6.784	5.523	5.235	3.522	3.336	2.764	2.380	1.977	1.987	1.921	1.827	1.276	1.161	1.547	1.944	1.954	2.346	2.761	3.565	4.007	3.817	3.411	3.628	3.412	3.250	2.839	2.953	3.547	3.082	3.711	3.883	4.363	5.014	5.717	6.129	6.596	6.855	7.558	7.436	8.584	8.239	8.822	8.662	9.667	8.701	9.163	10.22	12.71
340.0	254.9	505.0	891.3	1059	949.4	885.5	845.8	937.6	1126	1391	1710	1934	2156	2158	2088	1839	1820	2196	1405	880.2	742.4	794.4	1058	4683	9999.9	4088	105.3	15.61	9.722	6.886	5.915	5.034	4.262	3.478	2.881	2.477	2.048	2.125	1.715	1.428	1.411	1.417	1.372	2.059	2.239	2.469	2.965	3.817	3.893	3.954	3.850	4.068	3.621	3.816	3.641	3.678	4.017	3.604	4.368	4.310	4.223	4.880	5.373	6.659	7.041	7.063	8.213	8.745	9.063	9.146	8.667	9.002	9.201	9.007	9.039	9.223	9.846
345.0	253.5	545.6	939.3	1162	1055	992.7	983.2	1062	1256	1498	1815	2043	2262	2281	2221	1957	1790	2028	2047	1225	892.9	747.0	658.8	1387	6794	9999.9	1426	60.35	14.61	9.184	6.263	5.673	4.958	3.223	3.353	2.770	1.861	2.110	1.574	1.624	1.145	1.346	1.389	1.889	1.775	2.492	2.588	3.650	4.300	3.909	3.933	4.098	3.888	3.881	3.672	4.134	4.118	4.214	4.472	4.397	4.928	5.165	5.813	6.657	7.433	7.939	8.291	8.628	8.930	9.580	9.179	9.446	10.15	9.621	9.505	9.345	9.328
350.0	266.8	541.6	978.5	1227	1185	1165	1172	1251	1420	1675	1983	2237	2392	2465	2393	2171	1989	1963	2162	2045	1411	1089	894.3	891.3	2006	6253	9764	5110	100.9	17.51	9.831	6.954	5.139	4.276	3.277	2.732	2.216	1.983	1.803	1.682	1.378	1.588	1.588	1.885	2.106	2.546	2.753	3.325	4.288	4.284	4.080	4.666	4.483	4.690	4.195	4.418	5.001	4.943	5.014	5.300	5.882	6.012	6.540	7.525	8.314	9.057	9.330	9.487	9.812	10.03	9.979	11.04	10.71	10.76	10.78	10.37	10.80
355.0	286.4	564.7	1018	1303	1382	1378	1439	1485	1683	1970	2234	2477	2618	2697	2628	2453	2294	2234	2232	2414	2364	1678	1356	1178	1207	1949	3536	9999.9	6807	129.8	17.91	9.985	6.242	5.119	3.900	2.899	2.703	2.292	1.915	2.120	1.366	1.737	1.846	1.824	2.336	2.591	2.776	3.793	4.383	4.101	4.522	5.116	5.095	5.902	5.447	5.644	5.310	5.379	6.244	6.444	6.441	7.436	8.265	8.273	9.219	9.379	10.36	10.97	10.09	10.77	11.36	11.98	11.46	11.51	11.32	12.08	12.35
360.0	289.3	585.1	1043	1373	1494	1570	1596	1730	1901	2214	2459	2668	2788	2830	2791	2637	2534	2502	2463	2518	2833	2375	1822	1544	1271	1204	1330	4831	9999.9	1456	84.47	14.32	8.106	5.488	4.382	3.604	2.933	2.370	2.557	2.270	1.773	1.989	2.040	1.999	1.978	2.612	2.988	3.683	4.265	4.782	4.493	5.245	5.722	6.048	5.588	5.803	5.753	6.105	6.279	7.226	7.113	8.256	8.928	9.367	9.574	11.48	10.52	11.69	11.10	12.04	11.94	12.29	12.92	12.75	12.57	12.43	13.67
365.0	291.6	606.0	1059	1383	1667	1680	1789	1878	2092	2405	2680	2827	2936	2936	2933	2813	2743	2734	2725	2726	2896	3011	2371	1927	1573	1270	997.9	1577	6759	9999.9	1207	41.61	12.99	7.572	5.472	3.626	2.970	2.766	2.456	2.437	1.986	2.046	2.096	1.827	2.247	2.434	3.163	3.967	4.413	4.428	4.901	6.193	6.182	6.607	6.123	6.320	7.132	7.126	6.845	8.277	7.904	8.826	9.194	9.898	10.25	11.24	10.99	12.12	12.33	12.87	12.91	13.42	13.88	14.19	13.59	13.81	14.63
370.0	306.5	596.2	1094	1494	1770	1882	1985	2098	2318	2640	2912	3055	3150	3129	3108	3024	2979	2998	3065	3092	3138	3258	3178	2575	2053	1638	1225	1021	1988	5806	8957	3822	79.34	14.01	7.383	4.733	3.707	3.339	2.604	2.018	2.171	2.142	2.156	1.931	2.346	2.664	3.326	4.427	4.390	4.808	5.092	6.305	6.483	6.794	7.232	6.934	7.875	8.029	8.279	8.767	8.508	9.733	9.875	10.97	11.55	11.98	12.45	11.80	12.98	13.29	13.34	13.49	14.25	14.45	14.84	15.48	16.10
375.0	322.2	640.3	1141	1581	1891	2074	2137	2325	2565	2817	3084	3245	3337	3289	3243	3165	3163	3231	3358	3447	3474	3465	3526	3380	2632	2094	1613	1175	1030	1674	3495	9999.9	5111	97.09	14.09	7.648	5.212	3.826	3.383	2.517	2.045	2.409	2.218	2.500	2.587	3.161	3.586	4.455	4.639	5.297	5.306	6.661	7.072	7.499	7.032	7.933	8.342	8.807	8.780	9.628	10.22	10.62	11.00	11.90	12.60	12.49	12.96	12.44	14.10	13.56	13.73	14.60	14.43	13.95	15.58	15.97	17.71
380.0	332.2	663.6	1191	1674	2008	2184	2293	2439	2693	2949	3233	3424	3434	3382	3305	3228	3301	3378	3495	3626	3703	3659	3620	3685	3195	2453	1933	1411	998.4	881.8	1132	4833	9999.9	1153	59.08	12.36	7.333	4.995	3.597	2.985	2.351	2.334	2.579	2.590	2.520	3.353	3.770	4.587	5.057	5.300	5.963	6.525	7.414	7.949	7.391	8.383	8.332	8.745	8.884	9.956	9.961	10.90	11.03	12.39	13.18	13.37	13.37	12.90	14.59	13.72	13.43	14.84	14.79	15.06	15.95	16.33	17.64
385.0	356.2	687.2	1242	1723	2068	2285	2425	2555	2741	3023	3345	3499	3524	3448	3374	3295	3341	3469	3592	3748	3843	3822	3763	3711	3608	2858	2225	1667	1186	864.9	708.4	1454	6247	8677	897.8	29.22	10.75	6.755	4.538	3.409	2.615	2.843	2.510	2.893	2.688	2.883	3.874	4.755	5.074	5.448	5.997	6.969	7.858	8.036	8.003	8.993	8.697	9.624	9.670	10.10	9.947	11.39	11.62	12.23	12.83	14.20	13.97	13.88	14.94	14.67	13.88	14.88	15.61	15.06	15.91	16.60	18.30
390.0	369.5	704.9	1269	1773	2143	2376	2530	2689	2919	3187	3482	3579	3614	3534	3433	3330	3386	3511	3679	3866	3975	4000	3959	3837	3710	3434	2735	2080	1557	1159	858.3	808.7	1820	5002	6927	2737	62.33	13.18	6.846	4.613	3.373	3.202	2.925	3.175	3.169	3.174	3.828	4.764	5.428	5.567	6.154	7.508	8.063	8.187	8.851	9.092	9.516	10.33	10.32	11.23	10.95	11.94	12.20	13.15	13.51	13.87	14.04	14.66	15.19	15.24	14.72	14.94	15.27	15.65	16.50	16.86	17.56
395.0	372.5	733.1	1313	1862	2232	2497	2660	2887	3084	3375	3625	3745	3764	3628	3510	3349	3393	3542	3721	3906	4087	4173	4147	4027	3841	3670	3387	2633	2015	1591	1224	918.5	901.8	1436	2869	7855	3660	78.58	13.44	7.436	4.649	3.652	2.903	2.994	3.056	3.908	3.936	4.965	6.170	6.367	6.364	7.612	8.199	9.104	8.890	10.26	10.32	10.44	10.99	11.91	12.24	12.04	11.85	13.92	13.98	13.85	14.54	15.40	16.29	15.93	15.53	15.92	15.95	15.80	16.68	17.96	18.01
400.0	371.5	764.7	1363	1915	2335	2620	2788	3084	3252	3550	3830	3936	3914	3706	3524	3376	3368	3520	3738	3915	4114	4236	4255	4210	4034	3806	3673	3174	2456	1969	1569	1176	870.3	765.3	947.4	3943	7928	941.9	45.93	10.83	7.054	4.853	3.444	3.553	2.999	3.917	4.725	5.617	6.237	6.243	6.730	8.783	8.661	9.932	9.556	10.00	11.11	11.11	11.41	12.41	13.08	12.50	13.65	14.86	15.05	14.42	15.33	15.70	16.30	16.03	15.83	16.43	16.00	15.69	17.40	17.14	18.58
405.0	388.2	822.1	1403	2003	2454	2756	2955	3260	3423	3714	4047	4193	4127	3838	3527	3354	3363	3504	3700	3927	4102	4253	4349	4343	4236	4028	3841	3627	2978	2395	1949	1490	1084	772.2	598.9	1207	4963	6672	709.9	23.45	9.753	5.725	4.451	4.346	3.290	4.103	4.552	5.319	6.121	6.750	6.676	9.129	9.465	10.46	10.06	10.97	11.93	11.68	11.95	12.59	12.99	14.24	14.26	15.11	14.95	15.60	16.75	16.58	17.22	16.92	16.61	16.58	16.06	15.10	17.11	16.66	18.10
410.0	405.0	851.7	1489	2135	2666	3058	3303	3570	3875	4168	4427	4615	4473	4012	3586	3361	3336	3456	3663	3904	4137	4323	4457	4527	4521	4408	4236	4041	3762	3189	2595	2042	1522	1082	741.9	664.6	1458	3944	5298	1987	52.09	10.54	6.313	4.651	4.095	4.713	5.022	5.717	6.762	6.830	7.305	8.970	10.15	11.24	11.01	11.61	12.19	13.11	13.12	14.15	14.79	15.84	15.90	17.01	16.65	17.56	17.31	18.66	18.26	17.47	16.67	16.47	16.46	16.07	16.76	17.60	18.20
415.0	431.4	842.2	1630	2320	2915	3359	3757	4008	4449	4729	5022	5139	4877	4233	3634	3355	3292	3416	3625	3885	4150	4385	4584	4748	4845	4833	4760	4573	4374	4103	3413	2707	2066	1503	1032	723.5	693.3	1106	2251	5892	1852	60.85	11.05	6.244	5.478	4.998	5.437	6.157	7.299	7.425	8.168	9.712	10.43	12.34	11.88	12.89	14.63	15.16	15.15	15.60	16.65	17.92	17.93	18.91	19.49	19.39	18.51	20.39	19.85	18.51	17.65	16.58	16.44	16.60	16.14	17.67	17.59
420.0	469.8	861.9	1658	2432	3153	3676	4073	4450	4839	5172	5507	5561	5211	4388	3636	3323	3239	3394	3591	3851	4154	4424	4675	4925	5077	5167	5157	5013	4836	4675	4124	3264	2513	1852	1291	880.3	618.1	531.6	691.4	3018	5747	828.2	31.46	10.01	6.842	5.804	5.676	6.409	7.718	7.658	8.358	10.76	10.96	13.56	13.10	14.27	15.93	16.44	16.47	17.55	18.68	19.12	20.16	20.26	20.87	21.54	21.48	21.66	21.10	19.60	17.52	16.98	16.31	15.78	16.36	17.90	17.30
425.0	487.4	954.9	1722	2550	3390	3885	4430	4859	5290	5643	5945	5955	5588	4506	3684	3307	3234	3318	3555	3814	4135	4437	4736	5019	5247	5438	5491	5431	5288	5094	4712	3852	2942	2194	1552	1060	700.9	474.1	375.3	878.7	3716	4881	357.4	18.05	9.029	7.293	6.232	7.249	7.839	7.689	9.358	11.82	12.18	13.99	13.96	15.21	16.78	17.71	18.20	18.86	20.91	21.55	21.40	22.54	22.69	22.92	23.19	22.41	22.00	20.07	18.49	17.01	16.69	16.67	16.18	16.95	17.58
430.0	609.4	1018	1787	2710	3648	4337	4892	5433	5970	6253	6541	6561	5971	4730	3718	3290	3191	3275	3502	3781	4110	4459	4818	5160	5477	5740	5896	5963	5897	5699	5245	4571	3584	2657	1911	1327	892.5	578.4	385.1	385.7	1032	2895	3911	1527	45.14	10.36	8.226	8.715	8.976	9.028	10.02	12.11	13.66	16.32	16.10	17.18	19.15	20.21	20.85	21.89	23.60	23.68	24.04	24.66	24.66	26.02	26.03	25.04	25.15	22.09	19.90	18.42	16.68	16.54	17.23	17.35	17.83
435.0	926.6	1081	1896	2829	3832	4644	5340	5950	6553	6776	7062	7055	6331	4896	3715	3231	3143	3221	3421	3725	4077	4429	4839	5224	5643	6000	6240	6399	6414	6230	5748	5054	4214	3144	2257	1598	1090	720.7	470.4	341.7	394.8	758.3	1653	4593	856.5	55.82	11.74	11.13	10.55	10.22	10.56	13.97	15.59	18.29	18.35	19.43	21.99	23.29	23.74	24.97	26.42	26.64	26.90	28.48	27.99	28.33	27.18	28.15	27.05	25.16	21.33	19.51	18.50	17.52	16.93	18.10	18.75
440.0	1109	1234	1933	2951	3936	4821	5537	6330	6789	7043	7292	7309	6516	4967	3721	3203	3072	3163	3353	3641	3994	4385	4809	5249	5688	6088	6395	6591	6669	6540	6060	5313	4465	3483	2496	1772	1221	818.7	543.5	372.8	286.3	301.6	469.4	2306	4542	754.3	32.20	14.37	12.17	11.14	11.43	14.47	16.62	18.60	19.20	20.86	23.00	24.67	25.43	26.23	27.87	28.38	28.22	29.76	28.22	29.89	29.49	29.36	27.82	25.91	21.99	20.27	18.22	18.66	18.05	18.64	20.13
445.0	1111	1585	1948	2945	4042	4942	5672	6523	6978	7229	7425	7432	6541	4969	3686	3139	3022	3089	3263	3547	3899	4296	4737	5177	5640	6066	6429	6670	6766	6691	6235	5490	4575	3681	2707	1890	1327	900.6	613.6	421.6	294.8	223.8	212.9	635.9	2926	4266	546.4	23.20	14.89	12.38	13.41	15.94	17.67	19.30	19.98	22.38	23.72	26.65	27.11	27.55	29.11	29.17	29.44	31.12	29.99	31.76	31.11	30.96	28.93	25.93	23.83	20.87	19.85	18.93	18.80	19.79	20.03
450.0	819.1	2069	2301	2965	4063	4964	5726	6499	6994	7221	7387	7368	6457	4864	3564	3020	2878	2935	3102	3371	3718	4072	4527	4967	5455	5884	6270	6556	6702	6663	6253	5533	4602	3701	2858	2060	1421	992.3	695.4	489.6	342.9	247.8	184.6	240.1	788.0	2444	3557	1440	46.66	16.22	15.04	17.54	19.10	20.88	21.90	23.68	25.43	26.49	28.48	30.66	30.54	31.30	31.18	32.22	32.04	32.47	32.32	31.34	30.58	27.52	24.56	22.80	19.89	19.23	19.42	20.52	20.42
455.0	638.8	1739	3235	2918	3914	4749	5518	6270	6794	6959	7118	7056	6231	4616	3394	2874	2696	2737	2896	3126	3450	3777	4210	4662	5104	5563	5953	6249	6427	6428	6100	5399	4536	3610	2817	2165	1517	1049	755.0	540.7	395.3	287.4	209.0	177.0	267.0	613.6	1360	3912	2001	54.12	17.88	19.16	18.72	21.41	21.09	24.27	25.56	26.22	27.70	29.14	29.46	30.67	29.46	30.34	31.22	30.51	31.33	30.39	29.47	26.79	23.30	21.19	20.30	18.85	20.01	19.52	20.22
460.0	569.9	1216	3627	3290	3650	4521	5318	6095	6581	6696	6829	6725	5945	4418	3187	2726	2532	2604	2722	2951	3216	3548	3962	4385	4822	5264	5625	5939	6107	6130	5835	5221	4389	3521	2730	2115	1571	1094	780.3	573.8	425.9	317.0	234.2	178.4	161.1	215.9	369.4	1822	4109	610.7	37.73	20.01	18.78	19.74	21.18	22.67	23.22	25.46	26.59	28.02	28.69	28.25	27.33	28.51	28.52	29.81	30.18	29.21	26.85	24.34	21.78	19.68	18.89	18.13	17.61	18.19	18.08
465.0	523.2	987.2	3183	4142	3460	4298	4993	5756	6261	6347	6475	6400	5608	4174	3020	2547	2386	2432	2526	2731	3019	3320	3692	4091	4521	4921	5264	5574	5782	5803	5523	4960	4196	3389	2624	2021	1557	1132	794.7	588.8	449.8	340.3	253.7	193.0	151.4	135.8	150.6	484.4	2335	3449	501.2	25.66	18.51	18.86	19.39	19.81	22.61	24.14	24.43	25.63	25.94	26.87	25.77	27.05	27.40	27.59	27.39	27.19	25.11	23.11	20.43	18.71	16.07	15.63	15.40	16.17	16.46
470.0	457.4	849.6	2015	4932	3942	3957	4575	5262	5682	5848	5920	5808	5143	3815	2768	2332	2184	2197	2285	2458	2717	2986	3332	3689	4058	4418	4739	5048	5225	5271	5049	4547	3877	3138	2447	1877	1448	1126	823.4	604.0	461.6	357.8	271.7	209.2	164.8	132.5	110.9	169.0	604.9	1805	2574	1150	47.44	18.68	17.10	18.53	19.84	20.78	21.40	23.60	23.57	23.58	23.69	24.19	24.35	24.86	24.94	24.07	22.99	19.73	17.48	15.74	15.09	13.77	13.03	14.26	14.25
475.0	407.6	711.9	1453	3574	5400	3566	4084	4766	5111	5280	5325	5239	4603	3398	2502	2088	1966	1940	2044	2180	2395	2641	2933	3253	3568	3903	4172	4439	4648	4686	4521	4081	3488	2841	2228	1729	1319	1041	838.8	620.8	460.7	365.8	286.7	224.3	179.2	140.8	116.8	106.0	187.4	444.1	906.1	2542	723.9	60.70	17.61	17.02	18.27	18.69	19.63	20.31	20.67	21.37	20.92	21.05	20.83	21.19	22.11	20.74	19.80	17.55	15.95	13.30	12.28	11.67	11.55	12.16	12.64
480.0	359.8	684.5	1273	2401	5698	4014	3742	4388	4734	4774	4858	4808	4217	3129	2302	1931	1779	1790	1860	1973	2149	2386	2647	2938	3224	3521	3781	4017	4231	4261	4094	3729	3190	2624	2085	1606	1233	962.1	804.7	637.8	472.2	366.9	291.0	230.0	190.3	150.0	123.4	99.68	99.24	143.5	239.9	1085	2626	684.7	36.88	16.60	16.01	17.08	18.07	18.67	18.45	19.66	19.03	18.89	19.79	19.30	19.86	18.86	18.42	16.20	13.78	11.94	10.52	10.86	10.14	10.61	11.38
485.0	313.5	656.8	1089	1819	4605	5211	3468	3991	4313	4419	4477	4392	3861	2872	2124	1783	1663	1647	1701	1848	1986	2163	2411	2667	2923	3193	3439	3635	3842	3883	3761	3417	2929	2420	1932	1501	1158	904.5	741.2	634.1	488.8	371.6	293.6	238.3	199.6	156.5	129.0	103.8	86.25	79.56	92.38	284.8	1433	2498	506.6	21.97	16.23	15.95	16.71	17.07	17.52	18.25	17.16	17.76	17.60	17.80	18.03	16.40	16.44	15.14	12.73	10.58	10.15	9.661	9.474	9.848	9.680
490.0	281.7	579.3	1025	1550	2857	5701	4061	3524	3816	3916	3958	3907	3428	2574	1904	1598	1492	1477	1515	1619	1753	1907	2123	2335	2566	2790	3026	3190	3352	3420	3306	3003	2605	2150	1731	1363	1067	835.6	673.0	578.7	492.8	386.9	298.7	240.3	199.4	163.3	135.4	111.4	88.27	71.33	63.57	97.21	366.3	1187	1999	974.0	49.00	15.83	15.78	14.89	15.62	15.74	15.56	15.32	15.27	15.78	15.67	14.67	14.63	12.94	11.65	9.455	8.996	8.560	8.010	8.823	8.851
495.0	246.3	488.9	934.6	1354	2005	3990	5632	3228	3341	3440	3432	3378	2998	2258	1678	1400	1306	1285	1329	1411	1519	1663	1818	2016	2203	2406	2600	2739	2883	2941	2843	2596	2262	1885	1526	1213	959.5	760.1	609.7	511.7	449.4	391.9	307.0	237.9	203.2	168.2	141.7	117.4	94.22	75.17	61.35	59.59	111.5	291.1	690.0	2130	782.2	60.06	15.01	13.64	13.35	12.50	13.65	13.71	13.60	14.00	14.13	13.87	12.62	10.98	9.317	8.658	7.565	7.961	7.689	7.705	7.736
500.0	209.5	414.5	835.6	1270	1705	2569	5993	3532	2971	3056	3061	3025	2671	2023	1504	1283	1171	1157	1199	1255	1356	1489	1619	1787	1945	2123	2280	2417	2554	2597	2517	2304	2024	1685	1370	1090	874.1	700.4	566.8	469.9	410.0	371.1	318.0	240.8	198.9	169.4	141.5	119.8	99.12	78.22	63.67	52.29	56.25	92.55	180.2	894.9	2369	687.0	35.80	14.20	12.34	12.29	12.95	12.72	12.36	11.74	12.37	12.18	10.89	9.635	8.719	7.425	7.178	6.965	6.611	6.954	6.881
505.0	183.3	374.3	754.5	1144	1490	1962	4714	4901	2649	2711	2738	2719	2361	1805	1371	1170	1059	1044	1071	1127	1214	1327	1444	1588	1726	1887	2018	2139	2269	2313	2240	2068	1802	1510	1241	992.1	795.8	645.0	525.3	443.6	375.1	337.2	308.0	250.4	194.3	168.5	141.2	120.2	99.78	80.21	64.81	52.37	45.83	50.05	65.12	230.2	1262	2334	510.2	18.19	12.15	11.75	11.06	11.56	10.68	10.63	10.42	10.83	9.977	8.851	8.198	6.556	6.865	5.982	6.204	6.292	6.503
510.0	170.1	323.2	619.8	1035	1316	1589	2688	5526	3263	2332	2341	2326	2038	1567	1197	1011	924.6	907.4	929.4	976.1	1041	1130	1234	1350	1476	1603	1718	1821	1914	1956	1897	1764	1536	1295	1064	859.8	695.8	568.1	468.0	398.4	339.2	294.5	272.7	251.5	201.0	163.5	136.9	116.5	98.14	82.29	66.60	55.16	45.01	41.20	39.92	73.51	318.6	1103	1761	652.5	43.20	11.31	10.18	9.857	9.611	9.641	9.172	9.538	8.731	7.921	6.911	6.461	5.490	5.464	5.355	5.246	5.939
515.0	140.3	246.1	500.7	861.9	1183	1328	1729	3702	5236	2107	1987	1976	1742	1349	1034	869.2	811.9	774.2	793.9	835.0	884.8	950.7	1037	1134	1239	1332	1434	1517	1596	1629	1598	1472	1284	1096	909.1	741.4	599.6	494.9	414.5	350.9	301.5	262.4	235.7	224.9	204.2	163.3	131.7	110.2	95.89	80.26	67.29	57.56	46.01	39.01	33.61	39.38	90.11	262.6	612.3	1763	741.7	47.89	9.967	9.037	8.005	8.907	8.537	8.659	7.567	7.008	5.911	5.581	4.917	4.896	4.814	4.616	4.706
520.0	128.6	229.4	414.9	736.0	1089	1153	1426	2192	5788	2487	1730	1730	1517	1176	913.8	776.1	716.2	694.4	709.5	731.6	781.6	837.9	910.5	994.3	1084	1162	1236	1320	1390	1418	1390	1289	1129	969.0	798.0	659.5	536.7	442.8	377.7	319.2	278.1	242.8	208.6	194.4	193.2	168.5	130.9	109.0	92.22	78.58	67.09	55.51	48.01	39.71	34.64	30.72	40.09	74.61	154.5	769.3	1840	593.0	22.33	8.520	7.382	8.233	7.322	7.399	7.442	6.304	5.828	4.903	4.510	4.747	4.563	4.604	4.218
525.0	116.0	207.9	390.1	606.6	1013	1074	1219	1544	4426	4288	1555	1518	1369	1056	820.0	690.0	637.8	622.2	625.9	652.8	682.1	743.6	805.1	875.9	947.3	1019	1092	1160	1217	1246	1213	1134	992.6	847.1	705.6	583.4	479.3	400.7	338.0	289.3	255.1	222.4	196.3	176.0	167.5	166.1	134.9	104.7	90.00	76.41	65.19	53.31	47.28	40.04	34.22	30.07	28.23	32.97	49.46	194.4	991.9	1726	105.7	10.67	6.688	7.247	6.819	6.509	6.312	5.564	5.066	4.869	4.310	4.059	4.164	3.723	3.772
530.0	104.2	181.0	323.5	512.2	799.7	1015	1032	1210	2237	5226	2399	1296	1167	907.7	706.0	593.5	549.9	535.0	537.8	563.1	586.3	629.3	677.7	734.3	791.7	849.3	915.8	967.3	1013	1046	1018	949.5	838.2	717.8	601.5	498.6	414.6	347.3	296.3	254.6	222.4	197.6	173.1	155.3	142.4	143.8	135.2	107.5	85.14	73.00	60.96	51.48	44.64	38.80	33.55	29.14	25.90	24.96	25.92	56.14	247.4	831.3	1210	432.2	34.00	6.413	6.337	6.042	5.176	4.986	4.555	3.777	3.721	3.479	3.628	3.344	3.447
535.0	89.91	140.1	267.3	423.0	621.2	907.6	903.1	973.4	1244	3175	4836	1215	982.5	753.5	601.8	512.0	467.5	450.1	448.3	470.4	491.2	526.3	564.7	611.2	659.9	710.4	757.4	802.4	836.6	858.4	839.1	782.3	692.8	599.5	504.5	417.3	346.4	293.5	254.5	220.3	194.2	173.8	151.3	135.8	125.6	116.3	120.6	111.3	85.26	67.08	57.19	48.50	41.91	36.23	33.34	28.77	23.92	22.17	19.25	25.14	65.58	195.3	436.9	1286	631.7	30.37	5.824	5.289	4.887	4.557	3.959	3.619	2.953	2.886	2.794	2.926	2.547
540.0	81.17	126.1	218.2	361.3	505.2	722.1	855.7	846.0	958.6	1614	5531	1667	843.8	666.1	518.6	449.8	408.6	395.8	399.5	404.6	425.9	456.7	488.3	527.5	574.3	608.2	647.4	682.7	715.7	737.0	725.4	674.2	596.2	517.8	434.9	365.8	304.3	257.6	222.7	197.9	173.1	154.7	137.8	122.6	111.2	100.7	100.6	105.4	86.59	65.77	52.93	45.75	38.37	33.90	31.51	28.29	24.91	20.82	17.78	16.94	24.86	53.00	108.6	583.2	1360	434.1	12.00	5.231	4.106	4.019	3.481	3.160	2.880	2.609	2.818	2.592	2.639
545.0	67.61	115.2	213.8	325.2	426.1	593.6	821.9	749.6	816.5	985.6	3941	3664	759.2	581.8	455.1	393.0	361.5	353.6	354.2	359.8	380.2	395.4	427.0	462.8	489.3	527.8	555.6	585.6	619.2	634.4	627.7	582.6	521.9	446.3	381.2	320.1	264.2	229.7	199.6	173.5	155.1	139.7	122.7	111.8	100.1	89.96	87.66	90.81	85.11	65.61	50.62	42.23	36.98	31.99	29.00	26.07	24.48	20.38	18.27	16.19	15.44	21.23	32.53	146.0	767.6	1202	95.58	6.626	4.260	3.380	3.244	3.304	2.885	2.537	2.271	2.419	2.548
550.0	63.94	103.9	174.7	266.2	356.1	448.3	683.9	708.8	669.1	716.2	1666	4651	1555	477.4	378.9	321.5	301.6	290.2	293.2	300.6	313.2	326.7	350.9	372.6	399.6	428.9	451.6	475.0	501.8	516.3	511.0	472.7	423.1	365.0	308.7	264.0	218.7	191.3	166.4	146.9	131.7	118.1	104.0	95.60	87.03	78.82	73.84	70.34	72.89	66.13	50.25	39.04	33.19	29.15	27.04	23.64	22.11	19.52	16.82	14.94	12.84	13.44	14.77	39.07	191.0	614.5	794.0	347.0	21.12	3.515	2.979	2.412	2.242	2.107	1.989	1.965	1.772
555.0	54.30	92.60	153.8	227.0	290.2	354.1	472.2	666.4	541.0	549.4	776.8	2489	3945	480.0	306.7	257.7	244.0	235.6	233.2	241.7	252.1	260.0	279.8	295.1	316.5	338.4	355.6	369.9	393.0	402.0	397.3	370.6	327.3	287.0	241.5	208.8	175.4	152.7	136.1	120.4	107.9	96.89	86.62	79.34	72.45	66.49	62.51	56.55	56.05	57.43	49.57	36.28	29.01	26.29	22.54	21.78	18.98	17.58	15.91	13.11	12.29	11.17	10.40	14.73	48.52	143.1	317.8	888.3	399.1	13.94	3.005	2.464	2.061	1.983	1.865	1.877	1.696
560.0	51.94	78.23	136.6	185.0	234.5	289.3	349.6	600.9	497.4	451.2	513.4	1042	4612	903.5	258.7	225.5	205.8	199.6	193.5	203.3	202.4	216.6	230.2	242.3	259.8	275.8	289.5	305.1	321.2	328.5	323.1	304.7	270.7	236.6	202.6	174.5	147.5	127.1	112.8	101.0	90.17	83.75	76.82	66.29	61.98	58.19	53.69	48.50	44.04	45.29	46.48	36.91	26.46	22.98	21.09	19.59	17.70	15.42	14.86	13.25	11.27	9.759	9.479	9.455	16.67	37.13	79.00	424.8	855.2	102.6	5.952	2.412	1.879	2.061	1.583	1.510	1.654
565.0	38.47	68.58	117.3	152.5	203.9	243.9	288.4	469.7	515.2	394.1	400.9	527.4	3085	2685	236.8	190.0	174.9	168.0	163.2	168.7	172.8	181.0	192.5	202.2	215.2	228.7	241.0	255.9	264.5	265.8	270.6	251.0	225.9	196.6	171.5	144.9	123.1	105.5	96.27	86.25	76.60	69.49	66.22	57.70	52.98	49.57	44.91	41.07	38.16	36.52	39.53	36.32	26.19	20.52	19.26	17.30	16.27	14.80	12.90	12.74	11.21	8.723	8.145	8.283	9.947	13.56	22.46	108.5	524.1	665.9	74.59	2.791	1.972	1.717	1.583	1.406	1.300
570.0	32.24	57.40	90.46	128.1	161.3	193.8	226.0	316.6	485.3	358.9	324.3	349.8	1109	3668	922.7	158.3	137.6	133.7	131.9	132.9	137.3	141.4	148.4	157.4	168.1	179.0	187.8	197.7	204.9	206.6	208.1	193.6	174.9	151.4	133.3	113.5	96.71	83.92	76.23	68.01	61.26	55.24	52.00	46.40	43.09	40.24	37.69	32.90	30.51	28.15	27.92	28.86	25.92	19.44	15.65	14.50	13.52	12.22	11.89	11.00	10.69	9.283	8.746	7.701	7.799	8.434	9.756	29.10	133.9	382.9	491.0	182.3	9.001	1.637	1.565	1.279	1.235
575.0	37.63	52.54	83.31	90.05	124.4	149.1	171.3	211.7	369.4	405.6	255.9	257.7	415.7	1757	2999	176.5	108.9	106.7	100.9	104.1	105.3	107.8	110.7	121.5	127.8	136.1	141.6	148.2	157.8	156.1	157.3	144.2	131.8	115.3	99.38	86.33	74.74	66.08	58.71	53.86	48.41	44.14	40.01	36.39	34.68	31.94	30.09	26.85	24.62	22.39	20.34	21.28	21.87	19.81	14.75	12.70	11.65	10.74	9.594	9.197	9.715	9.309	8.254	7.581	6.862	7.167	7.162	11.09	33.83	89.78	208.4	511.8	103.4	5.540	1.655	1.126	1.097
580.0	28.17	48.45	66.13	84.69	107.5	132.0	144.5	161.0	252.6	421.2	240.5	216.4	243.3	614.8	3551	454.6	90.48	88.22	86.02	86.79	87.96	87.44	92.54	98.91	104.1	109.7	115.1	119.6	125.6	125.8	126.4	118.1	106.6	95.33	80.63	68.72	61.11	55.33	48.64	43.06	41.29	36.58	34.29	30.93	30.20	26.56	25.30	23.20	20.87	18.35	16.50	16.33	17.76	17.72	14.25	11.22	10.62	9.593	9.187	8.529	8.303	8.531	8.437	6.637	6.399	6.348	5.547	6.845	11.64	23.48	52.83	261.8	457.1	78.92	2.213	1.281	0.947
585.0	32.99	37.23	59.61	80.71	96.94	115.0	125.7	146.1	184.9	360.6	265.2	198.2	188.9	252.6	2230	1896	86.34	74.81	69.89	71.56	73.35	75.86	78.65	82.86	86.31	94.11	95.82	100.7	103.4	104.7	104.4	97.33	90.55	77.69	67.80	59.50	49.54	45.47	40.34	37.97	33.46	30.38	28.30	26.18	24.70	22.86	20.75	19.20	17.85	16.29	15.10	13.64	13.34	16.04	14.05	10.81	9.324	8.801	7.950	7.445	7.110	7.193	8.684	7.010	6.128	5.808	5.904	5.875	6.643	8.415	15.12	67.44	311.3	371.4	47.07	1.327	1.091
590.0	21.41	29.29	55.10	69.33	81.31	95.64	103.5	113.7	138.3	245.8	325.5	184.7	159.5	154.3	725.8	2606	578.7	59.92	58.60	56.57	59.30	58.82	62.64	65.60	67.09	70.46	75.02	78.66	81.57	83.07	82.46	76.63	67.57	60.84	52.47	46.15	39.64	36.08	32.86	29.85	27.29	24.79	23.06	21.12	19.44	18.23	17.20	15.63	14.73	13.64	12.16	11.25	10.21	11.50	12.25	11.59	8.663	7.285	7.057	6.559	6.104	5.651	6.411	6.280	5.610	5.137	4.756	4.746	4.717	4.826	5.878	17.06	79.90	230.2	281.9	62.78	4.256
595.0	22.45	29.87	44.34	59.56	71.26	79.05	82.60	99.89	110.7	155.1	315.4	206.7	142.3	123.1	227.7	1170	2030	77.86	45.68	44.60	45.26	44.82	49.29	51.58	53.44	54.90	56.86	60.29	62.18	61.53	64.77	57.05	52.71	47.56	41.90	36.65	31.20	28.92	25.21	22.87	21.92	19.14	18.76	16.48	15.93	14.07	14.07	12.58	12.50	10.30	9.573	8.823	7.756	7.776	9.119	10.14	8.584	6.321	5.729	5.320	4.597	4.689	4.801	4.854	5.162	4.897	3.892	3.635	3.374	3.108	3.158	5.575	18.99	52.87	127.6	295.4	85.87
600.0	20.58	22.63	41.72	45.68	59.57	64.29	66.97	87.51	99.45	116.7	231.5	251.3	134.9	104.9	119.0	375.0	2378	304.5	37.31	38.28	36.68	38.49	39.70	41.00	43.37	44.21	46.70	49.81	48.85	49.90	51.64	47.08	43.76	39.09	33.20	30.64	25.91	22.72	20.74	19.65	17.76	16.58	14.55	13.70	13.01	12.38	11.86	10.73	10.17	9.043	8.027	7.208	6.104	6.663	6.931	8.766	8.750	7.036	4.942	4.453	4.341	3.882	4.094	3.736	3.996	4.549	3.896	3.569	2.962	2.629	2.499	2.371	5.413	12.79	31.48	166.8	267.8
605.0	10.21	24.37	33.80	48.41	51.85	59.40	60.37	77.40	83.77	97.05	169.6	278.4	142.9	100.6	90.00	134.2	1475	1247	38.63	30.61	31.90	31.89	34.09	35.20	36.16	37.41	37.10	40.63	42.87	43.21	41.49	37.53	35.32	31.26	27.66	24.75	21.36	19.33	18.18	15.30	14.58	13.76	12.57	11.04	11.18	10.13	10.39	9.039	8.354	7.960	6.781	5.812	5.251	5.514	5.356	6.639	7.837	6.504	4.714	4.030	3.338	3.468	3.680	3.080	3.447	3.554	3.569	2.970	2.768	2.441	2.120	1.422	2.190	3.999	7.767	43.36	190.5
610.0	14.62	26.15	34.31	44.18	44.11	48.76	51.08	63.26	77.64	82.73	117.4	236.3	184.6	95.01	77.76	67.94	454.5	1757	323.4	26.76	25.54	26.40	26.83	27.94	28.61	30.22	30.24	32.12	32.88	33.66	33.34	30.74	28.14	24.65	21.48	19.55	16.50	14.80	14.09	12.04	11.68	10.46	10.11	9.625	8.701	8.115	7.678	7.034	6.787	6.223	5.468	4.951	4.536	4.307	4.258	4.788	5.872	6.161	4.942	3.602	2.987	2.820	2.530	2.656	2.787	2.662	3.196	2.649	2.462	1.811	1.896	1.482	1.302	1.799	2.355	10.40	49.40
615.0	9.396	14.33	32.35	34.65	36.96	45.83	48.09	58.75	67.40	75.10	96.34	148.3	229.8	101.6	68.02	51.91	131.0	793.8	1368	43.55	19.61	21.39	21.29	21.56	23.39	21.89	23.18	24.94	24.78	25.37	23.93	23.16	21.98	18.69	16.43	14.87	13.73	11.85	9.984	9.564	9.377	7.737	7.972	7.769	6.914	6.132	5.927	5.534	5.228	4.719	4.413	3.820	3.593	3.121	3.370	3.418	3.773	4.878	4.777	3.759	2.766	2.146	2.130	1.719	2.010	2.000	2.174	2.432	2.010	1.493	1.575	1.056	1.188	1.020	1.005	3.094	11.30
620.0	13.40	11.00	33.89	28.36	29.58	37.19	36.81	51.30	63.99	67.74	83.18	115.5	214.6	122.4	64.77	47.06	53.19	240.3	1661	227.6	16.35	17.74	16.65	18.26	18.18	18.54	20.13	19.56	20.48	20.23	21.26	19.00	17.12	15.08	13.79	12.54	11.06	9.656	8.733	8.026	7.681	6.438	6.422	5.794	5.613	5.381	5.051	5.063	4.499	3.818	3.293	3.113	2.579	2.610	2.535	2.831	2.646	3.877	4.059	3.497	2.534	1.952	1.663	1.750	1.776	1.974	1.879	1.716	2.419	1.622	1.356	1.032	0.856	0.859	0.587	1.307	2.885
625.0	7.953	11.11	24.42	32.21	26.94	31.66	36.31	49.52	60.14	63.96	79.28	99.69	175.1	154.8	63.20	44.84	35.94	74.24	1044	923.0	18.78	16.64	14.64	15.44	14.33	15.18	15.90	15.53	16.09	16.61	16.99	15.61	13.75	12.84	11.10	9.610	8.658	7.909	7.795	6.641	5.655	5.446	5.103	5.156	4.774	4.242	4.189	3.630	3.261	3.506	2.965	2.632	2.281	2.206	2.242	2.343	2.215	2.476	3.146	3.383	2.633	2.074	1.501	1.509	1.507	1.591	1.407	1.353	1.733	1.928	1.429	0.879	0.551	0.649	0.400	0.728	0.974
630.0	3.370	14.25	23.92	28.55	29.18	27.17	32.38	43.51	52.52	58.82	70.90	85.71	119.7	182.2	81.43	44.51	32.37	36.29	317.4	1298	175.0	12.58	11.55	11.93	12.06	12.28	12.62	12.85	12.74	13.02	13.29	11.84	11.20	10.22	8.402	8.260	7.020	6.256	5.798	5.094	4.721	4.355	4.255	3.759	3.635	3.486	3.377	2.931	2.684	2.713	2.392	2.177	1.899	1.879	1.749	1.746	1.553	1.877	2.246	2.604	2.605	2.068	1.296	1.449	1.322	1.330	1.079	1.275	1.380	1.564	1.414	0.900	0.646	0.575	0.466	0.547	0.668
635.0	12.41	13.47	17.21	22.33	22.00	23.65	28.27	36.18	43.78	57.62	67.50	76.56	92.35	143.7	122.0	43.67	30.62	26.00	85.07	588.1	1015	25.97	9.047	9.838	9.556	9.377	9.988	9.359	10.12	9.735	10.48	9.027	8.668	8.188	6.376	6.390	5.450	4.864	4.362	4.165	3.953	3.459	3.105	2.841	2.887	2.665	2.306	2.224	2.103	2.068	1.786	1.731	1.533	1.608	1.360	1.477	1.358	1.502	1.323	1.393	2.253	2.037	1.229	1.258	1.107	0.967	0.837	1.182	0.859	0.945	1.016	1.270	0.790	0.417	0.621	0.287	0.401
640.0	11.46	14.60	17.01	21.32	25.46	26.06	33.34	37.77	44.58	56.41	71.79	75.82	81.99	107.1	137.3	50.32	31.02	24.18	35.45	176.2	1240	178.7	9.081	8.964	7.639	8.129	7.963	8.044	8.541	8.433	9.061	7.867	6.754	6.439	5.322	4.757	4.627	4.168	3.449	3.060	3.046	2.942	2.385	2.329	2.217	2.143	2.237	1.656	1.845	1.769	1.559	1.573	1.270	1.401	0.991	1.389	1.158	0.963	1.035	1.111	1.380	1.718	1.562	1.049	0.844	0.895	0.890	0.999	0.939	0.845	0.797	1.254	1.134	0.547	0.625	0.395	0.276
645.0	8.225	11.74	22.28	26.72	23.16	28.27	26.86	27.67	40.39	50.93	66.74	74.93	79.42	88.30	144.0	71.05	34.24	26.96	25.04	54.28	790.6	674.5	10.70	7.745	6.888	6.772	6.094	7.176	7.262	7.138	7.081	6.471	5.911	4.653	4.119	3.607	4.099	3.487	3.017	2.834	2.310	2.307	2.064	2.141	2.042	1.734	1.519	1.774	1.599	1.515	1.310	0.995	1.112	1.159	0.761	1.050	0.921	0.927	0.830	1.095	0.808	1.337	1.558	0.978	0.666	0.758	0.785	0.864	0.649	0.684	0.930	1.033	0.916	0.817	0.534	0.619	0.255
650.0	6.482	22.91	26.97	27.90	24.63	22.36	26.30	29.75	42.12	50.29	63.06	74.33	75.52	78.00	118.2	95.57	36.44	29.55	22.89	25.30	285.7	1070	56.96	6.606	5.665	5.149	5.727	6.428	5.976	6.182	6.091	5.112	5.800	4.157	3.831	3.349	3.174	2.811	2.555	2.291	2.181	1.622	1.913	1.630	1.555	1.654	1.158	1.442	1.410	1.262	1.238	0.904	0.987	0.918	0.632	0.827	0.706	0.912	0.911	0.828	0.815	1.027	1.387	1.120	0.883	0.758	0.786	0.712	0.586	0.760	0.736	0.574	0.857	0.934	0.517	0.452	0.470
