Sample:	'1
File name:	L2025090905ÀûºÓÂ·ÇÅ.FD3
Run date:	'17:46:07, 09/09/2025
Operator:	Administrator
Comment:	'

Instrument
Model:	F-2700 FL Spectrophotometer
Serial number:	3064-004
ROM Version:	4J14000 07

Instrument parameters
Measurement type:	3-D scan
Data mode:	Fluorescence
EX  Start WL:	220.0 nm
EX  End WL:	600.0 nm
EX Sampling interval:	5.0 nm
EM  Start WL:	230.0 nm
EM  End WL:	650.0 nm
EM Sampling interval:	5.0 nm
Scan speed:	12000 nm/min
EX Slit:	5.0 nm
EM Slit:	5.0 nm
PMT Voltage:	700 V
Response:	Auto 
Corrected spectra:	Off
Contour interval:	50.000

Peak integration
Integration method:	Rectangular
Sensitivity:	1
Threshold:	1.000

Peaks
No.	ApexEX/EM(nm)	Height(Data)
1	225.0/615.0	34.15
2	230.0/600.0	47.73
3	230.0/630.0	32.26
4	235.0/590.0	47.22
5	235.0/625.0	37.89
6	245.0/265.0	314.0
7	245.0/530.0	272.6
8	250.0/380.0	 1451
9	250.0/545.0	252.3
10	255.0/280.0	647.6
11	255.0/395.0	 1475
12	255.0/555.0	209.9
13	260.0/285.0	865.8
14	260.0/405.0	 1440
15	260.0/570.0	188.9
16	265.0/290.0	 1046
17	265.0/580.0	190.8
18	270.0/295.0	 1504
19	270.0/590.0	177.0
20	275.0/305.0	 1873
21	275.0/605.0	161.6
22	280.0/310.0	 1783
23	280.0/615.0	132.6
24	285.0/315.0	 1706
25	285.0/375.0	 1567
26	285.0/630.0	105.1
27	290.0/320.0	 1595
28	290.0/640.0	90.24
29	305.0/340.0	 1140
30	315.0/355.0	966.0
31	320.0/360.0	 1036
32	325.0/365.0	 1022
33	335.0/380.0	 1034
34	460.0/345.0	4.071
35	460.0/545.0	31.06
36	495.0/270.0	2.123
37	505.0/275.0	2.788
38	510.0/280.0	3.328
39	520.0/285.0	4.204
40	530.0/290.0	4.679
41	545.0/300.0	7.858
42	550.0/305.0	8.041
43	560.0/310.0	7.805
44	570.0/315.0	7.747
45	575.0/320.0	8.177
46	580.0/325.0	7.622
47	580.0/365.0	7.500
48	590.0/330.0	6.731

Data points
	220.0	225.0	230.0	235.0	240.0	245.0	250.0	255.0	260.0	265.0	270.0	275.0	280.0	285.0	290.0	295.0	300.0	305.0	310.0	315.0	320.0	325.0	330.0	335.0	340.0	345.0	350.0	355.0	360.0	365.0	370.0	375.0	380.0	385.0	390.0	395.0	400.0	405.0	410.0	415.0	420.0	425.0	430.0	435.0	440.0	445.0	450.0	455.0	460.0	465.0	470.0	475.0	480.0	485.0	490.0	495.0	500.0	505.0	510.0	515.0	520.0	525.0	530.0	535.0	540.0	545.0	550.0	555.0	560.0	565.0	570.0	575.0	580.0	585.0	590.0	595.0	600.0
230.0	16.96	383.7	 2650	 1234	103.5	7.697	6.747	5.506	4.451	4.909	4.038	3.997	4.070	4.352	3.809	2.508	2.599	2.147	1.901	2.029	1.691	1.587	1.437	1.143	0.945	1.022	0.829	1.109	0.910	0.953	0.846	0.730	0.691	0.802	0.668	0.763	0.634	0.682	0.635	0.372	0.548	0.651	0.546	0.537	0.520	0.464	1.315	4.807	7.862	5.668	2.151	0.523	0.374	0.311	0.278	0.262	0.361	0.185	0.265	0.188	0.245	0.199	0.180	0.275	0.260	0.139	0.207	0.136	0.122	0.118	0.096	0.119	0.122	0.125	0.176	0.193	0.143
235.0	32.22	105.1	 1213	 2569	 1123	181.4	8.905	9.150	4.838	5.755	3.797	4.770	3.698	3.598	2.484	2.639	2.621	1.909	1.999	2.990	1.887	1.422	1.367	1.272	1.652	0.774	1.235	0.996	0.875	0.845	0.696	0.607	0.639	0.837	0.822	1.040	0.581	0.712	0.689	0.609	0.534	0.525	0.416	0.691	0.629	0.500	0.664	1.374	2.991	5.765	7.787	6.677	3.475	0.995	0.226	0.260	0.328	0.358	0.349	0.128	0.374	0.272	0.096	0.075	0.283	0.163	0.069	0.108	0.108	0.154	0.092	0.011	0.132	0.123	0.143	0.102	0.167
240.0	51.92	69.91	316.2	 1507	 3931	972.6	55.78	6.895	8.722	4.418	6.186	6.043	3.785	3.001	2.810	2.951	2.554	2.734	2.332	2.367	1.898	2.037	1.692	1.925	1.520	1.237	1.081	1.050	1.059	0.900	0.614	1.096	0.605	0.627	0.877	0.787	0.529	0.523	0.746	0.659	0.801	0.496	0.417	0.497	0.934	0.840	0.871	0.556	0.951	1.841	4.669	9.201	11.20	7.012	2.154	0.619	0.345	0.219	0.389	0.203	0.247	0.168	0.264	0.140	0.075	0.142	0.326	0.103	0.135	0.129	0.298	0.294	-0.013	0.079	0.136	0.096	0.128
245.0	29.02	104.2	122.5	415.9	 2801	 4292	715.7	28.03	7.593	6.614	7.142	6.627	4.312	4.213	3.377	3.464	2.204	3.383	2.020	1.896	1.929	1.969	1.735	1.772	1.583	1.192	1.247	0.854	1.062	0.952	0.588	0.914	0.633	0.836	0.870	0.580	0.385	0.566	0.588	0.530	0.770	0.531	0.306	0.414	0.706	0.729	0.924	0.775	0.719	0.718	1.432	3.335	8.130	12.73	12.85	5.967	1.484	0.192	0.209	0.292	0.209	0.259	0.242	0.240	0.038	0.171	0.212	0.170	0.161	0.355	0.218	0.191	0.183	0.198	0.237	0.169	0.154
250.0	9.812	54.57	143.7	180.8	753.8	 2594	 3934	 2171	190.3	9.252	8.414	7.690	5.009	4.328	4.328	3.705	2.758	2.794	2.290	2.133	1.637	1.971	1.793	1.338	1.405	1.252	1.048	1.218	0.970	0.995	0.896	1.060	0.788	1.029	0.815	0.606	0.389	0.536	0.432	0.486	0.758	0.569	0.418	0.461	0.501	0.642	0.601	0.759	0.998	0.778	0.753	1.111	2.166	4.486	9.102	11.91	14.47	12.24	6.007	1.678	0.379	0.222	0.159	0.282	0.192	0.258	0.181	0.117	0.247	0.268	0.244	0.148	0.197	0.190	0.257	0.071	0.151
255.0	9.115	20.10	67.72	220.1	301.7	611.7	 1792	 5445	 3456	240.1	12.36	10.73	5.722	5.347	5.549	3.742	3.186	3.559	3.906	2.472	1.913	2.004	1.913	1.176	1.301	1.279	1.079	1.189	1.306	1.225	1.372	1.059	0.919	0.886	0.981	0.491	0.848	0.585	0.458	0.575	0.501	0.620	0.460	0.329	0.532	0.625	0.468	0.805	0.794	0.937	1.273	1.075	0.905	1.220	2.358	3.203	6.535	15.26	24.71	21.40	9.062	1.606	0.276	0.290	0.209	0.246	0.282	0.046	0.339	0.290	0.197	0.362	0.159	0.087	0.255	0.378	0.262
260.0	7.564	22.53	31.03	144.4	324.2	223.0	463.5	 2863	 7166	 3016	115.5	12.16	8.666	7.350	6.043	3.999	3.450	3.482	2.679	2.236	1.827	2.490	1.992	1.469	1.420	1.616	1.460	1.242	1.151	1.109	1.044	1.095	0.835	0.665	0.592	0.651	0.568	0.656	0.507	0.498	0.395	0.445	0.748	0.504	0.552	0.428	0.431	0.582	0.475	0.519	0.901	1.270	1.869	0.974	0.873	1.139	1.783	4.811	12.97	25.39	31.63	21.43	5.795	0.546	0.360	0.493	0.318	0.253	0.399	0.265	0.186	0.208	0.010	0.141	0.143	0.374	0.330
265.0	9.366	18.34	20.26	60.45	273.6	314.0	152.2	769.6	 4513	 8471	 2259	51.10	10.66	8.464	6.067	4.090	4.106	3.855	2.763	2.582	2.081	2.036	2.417	1.630	1.381	1.503	1.050	1.039	1.481	0.949	1.205	0.809	0.695	0.836	0.723	0.773	0.524	0.731	0.401	0.626	0.270	0.583	0.736	0.426	0.731	0.512	0.450	0.641	0.366	0.464	0.557	0.823	1.881	1.776	1.364	0.691	0.760	1.450	3.583	8.988	21.24	36.55	36.74	17.08	2.764	0.403	0.348	0.321	0.390	0.212	0.304	0.215	0.143	0.101	0.062	0.253	0.102
270.0	23.70	20.57	23.09	27.80	104.4	302.1	352.7	259.2	 1192	 4522	 8390	 4579	157.6	14.45	9.374	6.651	5.071	4.107	3.023	2.946	2.350	2.427	2.173	1.632	1.745	1.458	1.461	1.267	1.126	0.983	1.308	0.950	0.633	0.748	0.767	0.663	0.551	0.674	0.588	0.627	0.465	0.515	0.801	0.617	0.480	0.723	0.578	0.686	0.390	0.450	0.524	0.481	0.865	1.016	1.705	2.123	1.568	1.054	1.137	2.422	5.622	11.99	22.28	33.37	37.58	29.35	14.08	2.717	0.316	0.181	0.149	0.229	0.194	0.143	0.124	0.268	0.114
275.0	59.64	55.33	60.38	40.75	50.54	116.7	396.8	508.2	375.5	 1116	 3277	9999.9	 3026	186.4	14.04	8.822	6.410	4.593	3.971	2.989	2.708	2.513	2.236	2.321	1.745	1.471	1.715	1.568	0.879	1.387	1.411	1.056	1.019	0.756	0.811	0.747	0.930	0.882	0.870	0.709	0.727	0.693	0.680	0.692	0.782	0.648	0.795	0.632	0.606	0.636	0.530	0.573	0.563	0.634	0.614	1.173	2.354	2.788	2.020	1.303	1.842	3.096	5.568	8.649	14.69	34.03	56.57	44.90	18.45	1.988	0.282	0.271	0.208	0.262	0.174	0.244	0.249
280.0	105.1	113.3	113.1	77.80	56.55	68.39	207.5	647.6	488.1	421.2	970.9	 4611	9999.9	 2452	103.8	11.37	8.392	5.749	5.031	4.477	3.300	2.946	2.125	2.785	2.097	1.742	1.518	1.499	1.063	1.275	1.467	0.801	0.941	1.154	0.633	1.014	1.040	1.004	1.137	1.014	0.920	0.893	0.915	1.039	1.116	0.899	0.966	0.872	0.659	0.793	0.665	0.426	0.529	0.455	0.459	0.538	1.137	1.956	3.328	3.024	1.838	1.292	2.018	2.766	4.503	10.40	26.03	55.50	71.00	38.31	9.315	0.692	0.366	0.260	0.275	0.314	0.345
285.0	155.3	181.5	194.7	139.3	87.02	86.05	143.9	416.3	865.8	483.2	519.6	 1427	 6198	9999.9	 1770	45.28	10.16	7.467	5.639	4.079	3.943	3.267	2.405	2.425	2.146	2.030	1.450	1.419	1.190	1.392	1.462	0.999	0.921	1.089	0.884	1.062	1.077	1.244	1.302	1.284	0.849	1.087	1.101	1.201	1.331	1.213	1.097	1.357	0.953	1.020	0.920	0.653	0.678	0.790	0.778	0.821	0.766	1.231	2.439	3.923	4.204	2.813	1.732	1.580	2.076	3.854	7.335	17.87	40.39	72.37	54.04	27.00	3.365	0.291	0.347	0.355	0.210
290.0	226.7	281.8	303.3	233.8	152.1	142.1	169.8	281.5	643.2	 1046	793.2	816.7	 1899	 5622	9999.9	 5603	97.75	12.09	7.808	5.533	4.410	3.379	3.115	2.753	2.449	2.303	1.743	1.957	1.334	1.572	1.253	0.992	1.140	1.140	0.930	0.986	1.219	1.457	1.306	1.444	1.333	1.252	1.295	1.421	1.656	1.870	1.723	1.545	1.410	1.200	1.017	1.026	0.898	0.847	0.743	1.043	1.006	1.374	1.623	2.340	3.489	4.185	4.679	3.745	3.244	2.938	3.587	5.914	10.94	22.14	35.29	52.45	54.64	47.96	19.36	3.850	0.448
295.0	254.5	354.1	408.8	328.9	222.8	211.1	230.1	300.3	472.8	850.3	 1504	 1037	 1005	 1629	 3331	9999.9	 8025	123.5	11.47	7.417	5.659	4.060	4.047	3.125	3.369	2.905	2.127	1.878	1.539	1.865	1.462	1.281	1.150	1.149	1.087	0.970	1.602	1.598	1.672	1.617	1.747	1.605	1.220	1.654	1.835	1.721	2.209	1.874	1.733	1.637	1.092	1.478	1.051	1.189	1.086	1.373	1.177	1.522	1.701	1.857	2.418	2.866	4.016	5.850	6.530	4.805	3.483	3.890	4.922	6.783	9.072	13.38	19.02	45.40	80.45	54.19	26.50
300.0	289.8	375.6	444.3	386.3	301.9	248.0	276.9	345.9	475.1	707.3	 1396	 1659	987.6	852.4	 1031	 3977	9999.9	 1457	80.93	9.410	7.572	4.572	4.509	3.492	2.748	3.215	2.022	2.003	1.662	1.799	1.451	1.202	1.466	1.043	1.177	1.093	1.414	1.477	1.510	1.618	1.667	1.629	1.687	1.696	1.939	2.206	2.231	1.879	1.876	1.572	1.328	1.480	1.407	1.281	1.132	1.331	1.410	1.562	1.603	2.053	2.143	2.556	2.965	4.120	6.761	7.858	5.904	4.875	3.921	3.619	3.839	4.602	5.559	12.56	30.66	66.64	94.19
305.0	292.5	401.1	467.0	410.1	333.2	296.5	335.3	410.6	529.1	732.0	 1120	 1873	 1444	797.9	610.4	 1142	 5247	9999.9	 1183	40.88	9.504	6.557	5.462	3.743	3.256	2.810	2.370	1.753	1.724	1.691	1.407	1.079	1.338	1.247	1.213	1.284	1.012	1.455	1.753	1.612	1.894	1.772	1.955	1.930	1.766	2.065	1.979	2.240	1.878	1.713	1.620	1.444	1.603	1.451	1.269	1.554	1.522	1.559	2.096	2.235	2.381	2.428	3.276	4.201	4.850	6.867	8.041	7.397	5.111	3.485	3.511	3.064	2.770	4.281	7.898	19.09	47.12
310.0	291.0	401.3	486.3	428.0	352.2	356.8	398.7	481.7	608.4	772.9	 1031	 1418	 1783	 1285	679.7	580.0	 1425	 4866	 8883	 4687	71.79	9.772	7.160	5.154	3.949	3.305	2.804	2.223	2.118	1.988	2.014	1.653	1.362	1.210	1.076	1.313	1.254	1.550	1.847	1.794	1.934	1.727	1.595	1.776	1.684	1.783	1.966	2.204	1.862	1.703	1.464	1.768	1.738	1.651	1.590	1.754	1.850	1.989	2.194	2.427	2.561	2.682	3.415	3.555	4.287	5.068	6.006	7.306	7.805	6.776	4.882	3.233	2.800	2.814	3.295	5.822	12.17
315.0	284.2	388.4	487.6	470.1	372.9	373.7	429.0	539.1	673.3	822.0	 1053	 1255	 1430	 1706	 1131	578.3	613.2	 1283	 2734	9999.9	 6669	95.36	10.04	6.715	5.232	4.103	3.150	2.690	1.856	2.458	2.140	1.589	1.252	1.657	1.314	1.192	1.576	1.335	1.661	1.600	1.712	1.824	1.904	1.691	1.955	1.914	2.384	2.152	1.909	1.943	1.518	1.649	1.788	1.644	1.738	2.260	1.933	2.274	2.139	2.722	3.110	3.157	3.077	3.898	4.073	4.360	4.967	5.341	6.074	6.935	7.747	6.760	4.310	3.084	2.834	3.292	4.356
320.0	312.5	460.4	572.5	547.8	427.5	404.6	441.5	571.2	715.0	872.2	 1092	 1262	 1358	 1480	 1595	806.7	506.4	539.3	771.1	 3643	9999.9	 4926	64.38	8.946	5.542	4.845	3.714	2.928	2.016	2.051	2.370	1.840	1.571	1.432	1.314	1.634	1.292	1.365	1.747	1.693	1.802	1.869	1.920	1.725	1.733	2.130	2.241	2.528	2.537	2.210	1.754	1.976	2.097	1.644	1.901	2.074	2.365	2.573	2.608	2.970	3.196	3.631	3.816	3.962	4.349	4.733	5.439	5.686	5.881	5.782	6.980	8.177	6.501	4.762	3.179	2.681	2.815
325.0	350.9	530.1	726.6	675.3	530.1	461.3	498.4	604.1	750.5	909.6	 1104	 1283	 1365	 1363	 1570	 1251	603.0	444.2	379.1	968.2	 4995	9999.9	902.3	37.45	8.500	6.306	4.244	3.409	2.786	2.378	2.014	1.676	1.907	1.632	1.099	1.564	1.494	1.401	1.675	1.424	1.814	1.618	1.828	2.005	1.991	2.864	2.518	3.040	3.346	2.533	2.164	2.125	2.188	1.974	2.003	2.436	2.093	2.727	3.067	2.883	3.315	3.477	4.272	4.026	4.819	4.805	5.435	5.525	5.505	5.526	6.146	6.315	7.622	6.970	4.982	3.528	3.102
330.0	332.2	590.0	827.2	824.6	618.3	524.3	546.0	659.8	774.4	926.8	 1149	 1305	 1409	 1370	 1327	 1340	 1036	557.3	368.2	415.8	 1291	 4555	 8630	 3711	58.02	9.113	5.597	4.088	3.377	2.670	2.264	1.738	1.678	1.799	1.531	1.450	1.574	1.560	1.655	1.526	1.806	1.717	1.545	2.118	2.111	2.780	2.986	3.376	3.225	3.081	2.613	2.685	2.630	2.195	2.083	2.166	2.339	2.804	2.862	2.976	3.369	3.826	3.844	4.300	4.758	4.756	5.662	5.501	5.738	5.981	6.229	5.779	5.898	6.487	6.731	6.125	5.435
335.0	368.8	618.6	930.5	933.6	731.3	617.0	609.1	692.7	811.6	965.5	 1188	 1344	 1427	 1410	 1301	 1156	 1170	947.6	483.1	366.8	480.9	 1160	 2690	 9294	 5524	78.27	9.589	6.117	4.604	3.455	3.107	2.179	2.145	1.968	1.428	1.444	1.623	1.271	1.371	1.316	1.954	1.840	1.687	2.022	2.226	2.739	2.887	3.469	3.573	3.422	3.138	2.879	2.945	2.707	2.827	2.531	2.623	2.945	3.316	3.031	3.578	4.045	4.066	4.380	5.135	5.433	5.267	5.821	5.908	5.825	6.075	5.775	5.554	5.615	5.747	5.992	6.973
340.0	351.2	607.8	967.6	 1024	822.2	720.2	687.6	725.3	847.3	 1014	 1195	 1335	 1443	 1449	 1334	 1140	 1032	 1140	707.9	419.6	365.0	445.3	737.9	 3650	9999.9	 4164	54.23	10.13	5.737	4.436	3.161	2.773	2.113	1.806	2.011	1.606	1.744	1.630	1.722	1.681	1.845	1.734	1.889	2.116	2.341	2.751	3.099	3.596	3.826	3.631	3.187	3.351	3.147	2.871	2.879	2.720	3.300	2.728	3.155	3.354	3.198	4.063	4.116	4.269	4.773	5.163	5.532	5.274	5.986	6.126	6.410	5.908	5.173	6.227	5.233	5.153	6.082
345.0	339.5	587.7	941.4	 1083	932.7	822.9	756.7	806.0	904.3	 1045	 1207	 1334	 1446	 1460	 1375	 1170	996.0	 1032	 1000	561.7	392.4	344.1	341.4	970.6	 5167	9999.9	747.0	33.78	7.781	5.320	4.194	2.927	2.449	2.283	2.179	1.842	1.684	1.907	1.841	1.776	1.734	1.712	1.949	2.083	2.421	2.959	3.037	3.534	4.071	3.434	3.494	3.594	3.048	3.209	3.150	2.831	3.124	2.929	3.528	3.386	3.704	4.068	4.373	4.657	4.628	4.892	5.509	5.714	5.852	6.335	5.888	5.940	5.910	5.957	5.480	5.253	6.006
350.0	329.3	571.0	906.1	 1084	 1038	959.5	899.2	931.4	993.4	 1106	 1238	 1355	 1455	 1467	 1401	 1240	 1059	957.4	983.9	909.5	572.7	418.9	337.9	414.3	 1347	 4750	 8016	 3143	51.62	9.922	5.065	3.669	2.558	2.418	1.908	1.832	1.510	1.685	2.003	1.712	1.724	1.647	1.730	1.917	2.233	2.528	2.699	3.570	3.803	3.384	3.446	4.110	3.782	3.605	3.540	3.592	3.491	3.659	3.703	3.884	3.789	4.212	4.701	4.552	5.188	5.226	5.473	5.810	5.733	6.456	5.947	6.329	5.943	6.006	5.841	5.792	5.746
355.0	309.3	566.6	889.2	 1100	 1116	 1086	 1064	 1060	 1108	 1189	 1301	 1378	 1493	 1472	 1459	 1313	 1142	 1022	934.7	966.0	912.8	588.4	437.0	375.4	510.6	 1211	 2729	 8788	 4729	70.48	8.609	5.300	3.372	2.503	2.191	2.087	2.010	1.771	1.700	1.721	1.475	1.574	2.149	1.828	2.355	2.226	2.801	3.182	3.553	3.757	3.578	3.962	4.401	3.741	3.735	3.948	4.423	3.827	3.783	3.940	3.783	4.604	4.737	5.374	5.397	5.220	5.972	5.969	5.983	6.040	5.857	6.095	6.077	6.443	6.605	6.215	6.397
360.0	308.9	534.4	864.0	 1106	 1148	 1168	 1187	 1141	 1206	 1260	 1375	 1417	 1500	 1502	 1475	 1358	 1211	 1097	981.3	920.7	 1036	818.5	540.6	435.6	378.7	467.5	753.3	 3778	9999.9	 3560	46.47	7.818	5.189	3.088	2.259	2.208	2.236	1.667	1.714	1.632	1.653	1.592	1.786	2.250	2.248	2.478	2.609	3.086	3.361	3.307	3.321	4.035	4.336	4.318	3.980	3.929	4.533	4.731	4.441	4.188	4.462	5.242	5.276	5.263	5.390	5.158	6.098	5.938	6.450	6.666	6.304	6.199	6.809	6.714	6.746	6.761	6.464
365.0	307.7	516.4	863.2	 1099	 1189	 1248	 1233	 1223	 1262	 1355	 1427	 1467	 1519	 1523	 1481	 1365	 1242	 1142	 1043	962.9	984.7	 1022	695.5	509.2	411.5	348.3	339.9	 1001	 5447	 9903	664.8	26.78	6.655	4.597	2.829	2.343	2.143	1.993	1.880	1.908	1.654	1.861	2.185	2.226	2.163	2.515	2.776	3.186	3.139	3.358	3.668	4.531	3.995	4.270	4.056	4.582	4.430	4.642	4.540	4.682	5.036	5.006	4.869	5.688	5.330	6.081	6.021	5.918	6.587	6.405	6.828	5.864	7.500	6.243	6.949	6.697	7.129
370.0	303.6	534.7	840.2	 1090	 1227	 1318	 1330	 1337	 1347	 1411	 1478	 1517	 1526	 1536	 1510	 1411	 1309	 1225	 1122	 1038	986.2	 1010	950.4	694.2	509.9	404.3	318.5	393.7	 1401	 4876	 7532	 2720	42.60	7.267	4.188	2.855	2.419	2.388	1.990	2.092	1.696	2.088	1.964	1.972	2.358	2.577	2.487	3.066	3.270	3.492	3.782	4.218	4.623	4.655	4.950	4.659	5.061	5.034	4.537	4.927	5.368	5.145	4.905	5.841	5.586	6.050	6.009	5.815	6.505	6.290	6.815	6.426	6.801	6.619	6.980	6.672	6.787
375.0	336.1	514.5	791.8	 1041	 1278	 1396	 1407	 1398	 1404	 1440	 1522	 1549	 1552	 1567	 1509	 1426	 1333	 1282	 1221	 1130	 1051	994.9	 1010	959.9	672.4	511.9	400.0	331.1	477.9	 1201	 2797	 8490	 3878	54.43	6.728	3.930	3.061	2.513	2.352	2.143	1.658	1.818	1.701	2.348	2.322	2.521	2.521	3.247	3.324	3.334	3.465	4.382	4.652	4.645	4.922	5.284	5.316	4.824	5.571	5.418	6.191	5.625	5.651	6.059	5.722	6.429	6.431	6.036	6.299	6.327	6.828	6.550	7.159	6.086	6.531	6.915	6.881
380.0	319.8	479.8	794.7	 1072	 1279	 1392	 1451	 1406	 1409	 1496	 1532	 1546	 1551	 1552	 1499	 1429	 1358	 1321	 1254	 1178	 1108	 1024	986.9	 1034	867.5	600.0	468.0	368.9	319.2	410.2	746.8	 3941	 8770	 2711	34.37	6.001	3.909	2.963	2.604	2.185	1.797	1.717	2.189	2.313	2.420	2.421	2.631	2.712	3.317	3.308	3.630	4.540	4.762	4.457	4.910	5.132	5.770	5.228	5.253	5.335	5.782	5.674	6.000	5.732	5.985	6.050	6.155	6.046	6.744	6.395	6.597	6.965	7.006	6.463	6.860	6.685	7.537
385.0	321.2	470.0	774.2	 1034	 1251	 1396	 1443	 1430	 1431	 1483	 1519	 1524	 1533	 1546	 1486	 1416	 1371	 1324	 1262	 1206	 1142	 1078	999.2	986.7	994.5	729.7	536.6	427.1	324.6	277.1	297.8	 1030	 5087	 7991	507.9	17.50	5.848	3.571	2.772	2.481	2.299	1.995	2.325	2.368	2.027	2.671	2.591	2.935	3.058	3.112	3.416	4.509	4.197	4.765	5.181	4.989	5.363	5.387	5.174	5.665	5.602	5.721	5.543	5.722	5.880	5.507	5.784	6.576	6.359	6.307	6.940	6.253	7.081	7.178	6.931	6.952	7.590
390.0	300.0	492.6	752.8	998.0	 1237	 1376	 1434	 1445	 1444	 1468	 1490	 1515	 1512	 1506	 1465	 1396	 1361	 1325	 1262	 1239	 1164	 1111	 1038	971.5	962.5	905.4	679.4	507.8	395.9	303.7	239.1	354.3	 1310	 4272	 5013	 2052	32.85	5.628	3.714	2.838	2.523	2.100	2.238	2.075	2.096	2.351	2.791	2.854	3.162	3.406	3.241	4.152	4.278	4.676	4.945	4.905	5.558	5.444	5.339	5.439	5.744	5.673	5.670	6.018	5.873	6.082	5.853	6.099	5.907	6.161	6.413	5.960	6.717	6.948	6.742	7.512	7.141
395.0	293.5	491.7	772.8	 1007	 1152	 1352	 1424	 1475	 1434	 1454	 1502	 1493	 1498	 1478	 1428	 1388	 1341	 1308	 1271	 1237	 1187	 1139	 1073	 1006	938.6	928.7	872.4	629.4	475.5	371.4	283.8	246.6	404.6	 1029	 2133	 6600	 2934	42.87	5.652	3.880	2.756	2.436	2.299	2.611	2.366	2.643	2.444	2.749	3.248	2.862	3.551	4.329	4.289	4.590	4.680	4.708	5.397	5.657	5.221	5.390	5.373	5.598	5.025	5.170	5.215	5.488	5.778	6.016	6.354	6.228	6.045	6.314	6.562	5.854	7.038	7.118	7.266
400.0	297.7	503.5	703.0	995.6	 1161	 1349	 1404	 1459	 1420	 1449	 1474	 1453	 1478	 1429	 1406	 1356	 1313	 1290	 1255	 1236	 1185	 1147	 1083	 1027	951.7	894.0	903.1	769.8	547.1	424.2	326.3	256.4	224.9	319.8	553.1	 3244	 6736	507.0	25.73	5.008	3.622	2.616	2.533	2.736	2.175	2.712	2.322	2.572	3.266	2.990	3.343	4.084	4.324	4.701	5.184	4.637	5.317	5.218	5.185	5.235	5.449	5.829	5.630	5.469	5.168	5.949	5.756	5.887	5.958	6.423	6.042	5.937	6.386	6.519	6.522	6.756	6.629
405.0	282.7	471.3	693.7	969.0	 1180	 1283	 1391	 1416	 1440	 1406	 1438	 1418	 1411	 1404	 1364	 1314	 1279	 1264	 1246	 1220	 1172	 1148	 1093	 1027	971.4	900.6	862.5	860.2	643.5	473.5	369.0	287.2	207.2	178.2	196.7	836.2	 4117	 5829	423.1	12.63	4.442	3.277	2.344	2.717	2.286	2.202	2.306	2.895	3.192	3.141	3.247	3.855	3.826	4.397	5.404	5.013	5.754	5.248	5.069	5.371	5.262	5.627	5.807	5.319	5.128	5.424	5.626	5.580	5.772	6.175	6.072	5.934	6.120	6.642	6.810	7.036	6.299
410.0	269.4	438.6	673.1	926.2	 1123	 1240	 1352	 1395	 1405	 1394	 1411	 1384	 1355	 1358	 1310	 1268	 1231	 1209	 1208	 1177	 1152	 1121	 1078	 1034	971.9	907.0	839.2	823.0	767.3	582.9	433.0	328.1	241.1	177.9	139.3	252.8	 1050	 3314	 4067	 1573	27.81	4.774	3.739	3.135	2.628	2.629	2.303	2.918	2.943	3.029	3.032	3.837	3.899	4.285	4.730	4.895	5.519	5.288	5.374	5.117	5.490	5.325	5.619	5.366	5.303	5.138	5.452	5.282	5.565	5.750	5.772	5.897	5.905	5.957	6.231	6.662	6.569
415.0	296.1	416.5	624.2	875.2	 1102	 1190	 1295	 1346	 1372	 1351	 1373	 1356	 1302	 1309	 1238	 1208	 1160	 1165	 1160	 1136	 1105	 1080	 1052	 1023	968.4	909.8	851.8	792.6	753.5	709.5	512.4	375.9	279.4	206.6	150.6	143.0	292.2	782.2	 1711	 4889	 2247	37.26	5.316	4.053	3.127	3.086	2.451	2.495	2.944	2.813	3.035	3.538	3.808	4.311	4.454	4.623	5.282	5.054	5.448	5.435	5.267	5.059	5.136	5.859	5.240	5.508	5.377	5.084	5.201	5.314	5.458	5.423	6.056	5.829	5.845	5.889	6.575
420.0	274.1	401.0	616.3	843.1	 1009	 1175	 1264	 1340	 1333	 1354	 1334	 1308	 1261	 1252	 1186	 1156	 1117	 1128	 1117	 1090	 1068	 1052	 1027	993.3	953.4	909.3	836.4	793.1	720.6	727.4	600.7	419.9	311.9	230.6	169.2	131.9	135.7	222.2	432.5	 2419	 4965	454.8	21.57	4.858	4.039	3.134	2.673	2.818	3.134	2.868	2.953	3.515	3.768	3.882	4.371	4.402	4.827	4.551	5.175	4.859	5.351	5.629	5.172	5.765	5.202	5.275	5.169	5.459	5.704	5.501	5.035	5.572	5.592	5.624	5.967	5.741	5.732
425.0	266.7	397.8	608.9	809.7	953.6	 1109	 1247	 1293	 1304	 1320	 1309	 1282	 1233	 1196	 1164	 1116	 1071	 1083	 1071	 1045	 1014	 1007	999.1	965.0	936.1	899.7	840.7	782.2	718.4	678.3	648.3	488.0	338.6	256.7	189.7	143.5	114.6	107.4	138.2	623.7	 3065	 3667	371.5	10.24	3.987	3.543	2.829	2.761	2.809	2.487	2.820	3.166	3.933	3.947	4.175	3.909	4.933	4.627	5.147	4.735	5.217	5.336	5.332	4.878	5.193	5.068	5.210	5.393	5.101	4.915	4.766	5.186	5.132	5.179	6.096	5.544	5.513
430.0	396.0	390.2	561.4	776.0	940.4	 1057	 1181	 1261	 1295	 1297	 1272	 1237	 1191	 1141	 1110	 1054	 1016	 1014	 1010	993.3	979.7	960.7	948.2	930.5	903.1	876.4	827.8	776.6	719.8	658.6	619.7	561.2	413.5	291.0	221.6	169.6	127.3	99.39	83.40	178.6	780.5	 2239	 3230	 1303	25.06	4.608	3.299	3.254	2.963	2.843	2.842	3.394	3.587	3.928	3.835	3.947	4.601	4.758	4.887	4.956	5.042	4.964	5.469	4.975	5.019	4.824	4.612	4.883	4.772	5.044	5.113	5.215	4.790	5.066	5.749	5.359	5.576
435.0	709.9	397.6	523.9	708.4	889.5	 1029	 1124	 1231	 1252	 1274	 1250	 1194	 1151	 1102	 1069	 1007	964.7	952.0	950.0	938.1	915.4	903.4	905.2	887.1	858.2	839.8	811.5	769.0	717.9	659.8	594.5	540.3	493.5	347.0	248.6	197.1	150.4	116.2	88.59	90.59	211.2	529.7	 1312	 3829	 1899	32.42	4.471	3.947	3.027	2.899	2.666	3.277	3.547	3.351	3.935	3.949	4.628	4.888	5.187	4.774	4.995	5.096	4.897	4.832	4.651	5.039	4.948	5.112	4.903	4.490	4.973	5.008	4.771	4.964	5.608	5.229	5.144
440.0	819.8	566.9	499.7	686.7	840.3	974.2	 1084	 1217	 1249	 1239	 1234	 1186	 1126	 1063	 1015	962.9	916.0	902.7	902.0	896.7	881.6	862.5	856.7	846.5	840.4	816.7	789.0	750.4	714.1	653.4	586.2	515.2	495.8	407.0	278.8	217.1	165.9	130.5	98.10	79.16	92.06	151.6	328.7	 1891	 4210	412.6	17.94	4.891	3.480	2.957	2.768	3.312	3.518	3.537	3.825	4.075	4.173	4.301	5.074	4.436	4.941	4.359	4.694	4.613	4.630	4.530	4.717	4.702	4.690	4.356	5.050	4.232	4.819	4.845	5.010	5.022	4.898
445.0	687.2	846.0	488.5	659.0	825.6	940.1	 1042	 1181	 1210	 1237	 1201	 1164	 1089	 1031	967.9	917.3	872.9	864.6	853.6	851.4	831.2	820.3	816.0	811.8	800.0	789.3	772.7	734.6	701.5	651.1	587.7	513.3	463.9	432.9	326.2	234.9	182.3	140.9	110.1	88.71	72.51	72.56	102.6	483.5	 2604	 3317	314.1	9.658	4.590	3.710	3.130	3.512	3.131	3.387	3.829	3.833	3.992	4.046	4.340	4.525	4.647	4.858	4.833	4.370	4.509	4.755	4.374	4.859	4.226	4.107	4.886	4.389	4.466	4.756	4.222	4.416	4.494
450.0	372.6	 1095	825.2	614.7	754.0	874.2	990.5	 1105	 1150	 1170	 1155	 1114	 1025	979.8	905.1	864.3	816.5	809.7	788.7	783.1	775.9	762.9	762.7	750.5	749.5	738.0	732.8	702.7	672.4	635.0	577.0	508.5	441.2	404.0	363.6	275.1	202.8	158.4	125.8	100.8	78.28	64.18	58.99	134.4	661.1	 2000	 2844	 1147	21.77	4.480	3.503	3.497	3.057	3.438	3.518	3.921	3.847	3.970	4.600	4.199	4.356	4.709	4.297	4.603	4.311	4.241	4.222	4.638	4.326	4.417	4.385	4.023	4.332	4.841	4.268	4.149	4.622
455.0	238.7	747.1	 1553	643.3	705.1	805.2	906.6	 1010	 1075	 1102	 1099	 1055	992.4	906.8	836.8	791.5	757.9	736.4	723.2	713.2	709.4	694.5	697.7	689.6	692.6	680.7	670.4	661.6	638.4	608.0	553.0	490.3	431.8	374.8	346.2	316.3	236.5	174.2	140.7	113.0	90.45	70.71	56.38	61.60	172.1	466.9	 1136	 3324	 1567	25.97	4.244	3.834	3.302	3.605	3.778	3.476	3.714	4.144	4.194	4.096	4.202	4.258	4.171	4.661	3.987	4.203	4.107	4.066	3.967	4.038	4.125	3.905	3.656	4.180	3.961	3.550	4.361
460.0	190.7	450.7	 1919	931.0	654.3	754.8	863.3	963.0	 1024	 1076	 1024	990.4	922.9	865.8	797.6	749.1	702.5	676.5	681.0	663.2	653.9	640.0	646.0	648.3	646.7	644.2	627.4	621.2	607.0	576.1	532.4	487.0	418.4	364.1	324.3	319.3	264.7	187.9	150.5	120.5	95.78	78.07	61.99	50.85	66.89	126.5	280.3	 1609	 3464	320.6	14.44	4.192	3.674	3.517	3.820	3.345	3.731	3.876	3.876	4.085	4.207	4.681	4.689	4.297	4.201	3.902	4.296	4.100	3.330	3.445	3.822	3.876	4.131	4.101	3.833	3.823	3.834
465.0	175.6	298.5	 1617	 1422	645.3	698.7	819.3	921.2	944.5	 1020	979.5	922.8	880.0	812.2	770.9	699.1	659.1	643.5	635.1	623.1	608.4	603.9	599.9	605.5	603.7	603.3	598.4	592.1	568.1	546.1	511.6	472.3	408.2	351.7	310.0	291.5	276.2	209.6	156.0	129.0	100.2	83.72	66.86	50.89	48.03	52.49	82.76	409.0	 2135	 2567	253.8	8.075	3.716	3.668	3.567	3.767	3.267	3.419	3.427	3.679	4.323	3.994	4.435	4.035	4.295	3.711	3.498	3.701	3.399	3.468	3.466	3.889	3.184	3.218	3.579	3.644	3.732
470.0	163.9	237.0	786.0	 1915	 1026	652.5	735.3	835.8	894.7	945.8	910.9	859.4	815.8	746.0	704.8	641.0	596.9	583.7	570.9	558.1	557.2	542.6	544.7	545.2	542.4	539.1	542.1	542.2	525.4	512.9	477.9	438.2	387.7	338.9	295.5	265.5	249.8	228.1	177.0	133.6	109.7	87.91	71.72	57.77	47.29	40.20	41.56	110.3	535.4	 1539	 2133	898.0	19.91	4.229	3.612	3.575	3.363	3.269	3.496	3.576	3.775	3.381	4.103	3.578	3.602	3.695	3.134	3.346	3.229	3.288	3.266	3.384	3.169	3.137	3.330	3.203	3.384
475.0	148.6	214.9	423.1	 1233	 2958	688.6	670.4	747.5	828.0	862.4	835.5	799.0	751.4	677.6	638.8	575.7	543.8	529.4	506.9	494.1	491.4	486.2	475.8	481.6	481.2	485.1	489.3	488.3	480.5	465.9	444.1	409.9	358.4	321.1	277.8	247.7	224.0	208.3	196.8	147.3	114.3	91.99	75.04	61.88	50.43	42.57	34.92	45.58	136.5	356.7	816.9	 2279	 1060	25.96	4.081	3.149	3.502	3.150	3.624	3.011	3.480	3.303	3.445	3.531	3.207	3.195	3.146	3.199	2.905	3.220	3.337	3.025	2.554	2.704	2.985	3.021	3.152
480.0	144.9	198.6	302.5	641.8	 3721	 1105	622.2	702.7	773.9	793.8	786.4	737.2	695.3	632.2	586.0	528.0	501.1	481.8	459.8	451.1	444.0	442.5	442.7	439.2	442.4	444.7	448.5	447.3	444.7	428.7	412.0	381.8	338.8	303.4	269.5	239.0	208.2	188.4	190.3	165.6	120.4	94.29	77.38	65.72	53.97	43.57	35.97	32.06	48.63	94.09	198.6	 1020	 2348	351.7	13.43	3.724	3.781	3.196	3.329	3.207	3.576	3.261	3.159	3.450	2.622	3.326	2.909	2.950	2.912	3.339	3.264	2.698	2.784	2.627	3.050	2.622	2.913
485.0	126.1	215.9	252.9	425.7	 2531	 2327	597.1	618.6	714.1	736.1	735.5	696.1	652.1	593.3	550.0	492.0	468.4	447.5	427.5	417.9	413.3	405.8	401.7	408.2	409.6	410.4	417.3	410.1	409.7	402.2	387.1	359.1	323.8	288.5	257.2	230.8	201.0	178.9	169.8	166.5	131.2	96.04	80.89	68.55	55.43	45.90	38.48	31.48	30.83	36.31	56.75	254.8	 1390	 2022	270.1	7.013	3.790	3.541	2.938	3.008	2.860	3.368	2.996	3.221	2.717	2.798	2.779	2.677	2.848	3.079	2.520	2.960	2.463	2.609	2.590	2.273	2.719
490.0	115.9	196.6	259.6	334.0	 1031	 2616	 1158	589.5	636.5	678.6	674.3	643.9	590.6	544.2	489.7	453.4	417.7	402.5	391.7	374.2	370.2	366.9	360.5	365.2	362.7	369.5	370.7	369.0	371.5	367.8	350.6	326.0	300.2	269.9	241.3	216.8	189.5	170.3	155.4	147.5	138.6	110.7	82.83	69.00	57.92	48.76	42.07	33.15	28.53	25.01	26.18	67.58	343.8	 1059	 1658	730.1	20.59	3.807	3.205	2.912	3.145	2.757	2.865	2.963	2.736	2.716	2.855	2.616	2.870	2.703	2.198	2.504	2.151	2.542	2.320	2.060	2.188
495.0	90.71	160.0	279.5	299.1	491.8	 1475	 2366	649.6	577.7	598.5	611.2	569.4	525.7	494.1	440.0	400.5	374.0	357.4	347.1	333.6	328.6	321.7	315.2	323.7	323.5	325.3	325.8	326.3	335.7	326.9	316.9	290.1	274.5	245.7	221.4	200.8	179.5	160.5	140.3	129.1	125.1	119.0	90.80	69.51	60.34	51.10	42.55	35.21	29.58	23.37	19.84	26.74	85.52	244.5	624.4	 1871	399.7	25.61	3.541	3.083	2.562	2.984	2.832	2.523	2.492	2.164	2.694	2.637	2.308	2.524	2.361	2.109	2.133	1.830	2.310	2.090	1.878
500.0	75.61	141.0	250.0	292.4	341.9	711.7	 2632	 1089	565.9	553.0	544.2	519.7	494.8	450.3	414.5	364.2	342.6	324.5	316.4	305.5	295.5	292.7	286.3	290.2	292.8	296.2	293.7	292.9	306.0	298.5	287.6	270.2	250.5	228.6	208.4	188.4	169.0	151.0	134.0	121.7	110.5	114.2	94.29	72.59	58.97	50.30	41.99	36.16	29.70	24.87	18.77	17.92	28.75	62.61	150.4	834.5	 1952	364.1	13.90	3.348	2.510	2.807	2.539	2.469	2.191	2.322	2.128	2.330	2.362	2.266	2.533	2.075	1.752	1.872	2.101	1.884	1.957
505.0	78.20	123.2	217.7	291.2	291.6	434.4	 1899	 1968	519.4	510.3	515.5	480.5	457.3	415.4	378.4	336.2	310.4	293.5	285.4	276.9	271.7	265.3	261.6	266.7	264.6	264.3	269.7	272.8	276.0	275.4	260.1	252.3	231.0	211.2	195.7	177.6	158.3	143.7	127.7	115.5	100.6	98.86	99.75	78.88	59.10	48.52	42.19	37.03	30.57	25.52	20.01	16.43	16.71	21.75	40.31	204.7	 1135	 1883	277.0	5.676	2.663	2.416	2.215	2.538	2.581	2.243	2.266	2.208	1.999	2.043	2.340	1.806	1.783	1.769	1.998	1.927	1.911
510.0	69.40	109.2	173.4	277.6	274.3	317.9	852.4	 2360	 1077	457.0	453.6	427.8	415.4	373.3	333.1	300.6	270.7	260.8	251.6	242.3	234.2	229.6	230.3	230.3	234.7	233.5	235.5	236.8	238.9	240.7	231.8	220.9	204.3	186.9	170.0	156.4	142.8	131.1	115.8	104.1	93.92	85.23	85.36	81.54	63.09	49.18	40.95	34.64	30.75	24.94	20.89	16.80	13.92	13.65	16.90	51.96	279.5	961.0	 1426	598.6	19.01	3.013	2.641	2.285	2.276	2.256	2.038	1.857	1.664	1.854	1.627	1.603	1.632	1.480	1.672	1.714	1.887
515.0	58.70	91.41	140.8	239.9	290.4	261.8	409.8	 1351	 2387	539.3	398.1	377.2	356.0	325.8	290.7	260.2	234.6	226.0	220.0	213.5	201.1	198.5	198.0	197.1	201.8	200.5	204.6	203.3	209.5	207.5	203.7	190.6	179.1	165.0	150.3	140.0	124.2	117.5	103.5	95.93	85.26	76.90	70.07	71.49	67.59	52.45	41.27	34.44	29.33	24.76	21.25	17.40	14.20	12.88	11.82	18.36	68.28	219.9	513.8	 1525	391.5	22.41	2.689	2.392	1.997	1.929	1.927	1.948	1.532	1.766	1.767	1.724	1.388	1.569	1.352	1.758	1.207
520.0	56.06	92.42	120.8	189.8	280.0	249.0	283.8	623.8	 2681	 1072	365.5	340.7	320.1	294.0	261.8	237.8	212.3	206.6	196.5	187.5	185.3	182.8	177.6	176.1	176.6	179.4	182.2	182.2	185.9	186.2	181.2	171.4	161.6	150.1	138.4	125.5	115.5	105.1	96.39	87.93	77.65	70.70	63.15	61.77	63.86	58.25	41.75	34.00	29.69	24.03	20.77	17.38	14.97	12.21	10.58	11.55	21.18	54.32	122.5	686.8	 1513	335.6	9.289	2.770	2.002	2.053	1.627	1.562	1.377	1.290	1.617	1.814	1.229	1.130	1.268	1.314	1.198
525.0	48.27	86.28	113.6	151.7	253.9	251.3	232.4	357.4	 1933	 2179	351.7	313.1	291.5	264.8	240.1	214.7	196.8	187.5	177.1	172.7	167.4	161.2	161.5	162.6	162.1	163.3	162.0	168.3	168.4	167.9	163.0	156.0	150.3	136.2	123.3	114.6	105.8	97.77	89.27	79.98	71.12	66.43	60.22	55.67	55.50	57.99	45.59	33.88	27.22	23.73	19.93	17.66	14.76	12.47	10.58	9.330	11.07	18.43	33.22	167.4	876.4	 1368	52.61	3.995	2.098	1.967	1.619	1.606	1.506	1.143	1.552	1.460	1.291	1.149	1.198	1.393	1.295
530.0	38.30	74.61	111.2	137.9	200.7	272.6	218.1	261.1	780.2	 2715	 1026	280.4	252.1	231.5	211.6	184.9	175.7	159.5	157.1	146.7	144.5	142.2	140.4	139.1	139.9	139.8	140.6	143.2	145.6	144.7	143.2	138.6	127.9	117.6	108.8	101.9	93.21	85.55	79.02	71.61	65.35	59.08	51.44	47.92	45.42	49.39	47.48	36.80	26.76	23.22	19.04	17.08	14.61	12.09	10.83	9.179	8.912	9.862	12.68	41.92	214.7	697.9	 1027	226.8	16.48	1.953	1.656	1.449	1.411	1.182	1.367	1.248	1.064	1.179	0.987	1.185	1.146
535.0	41.04	56.91	85.98	111.8	152.8	236.3	218.7	205.7	336.8	 1460	 2589	377.5	220.1	204.3	185.0	163.2	150.8	135.8	132.7	124.2	120.8	123.4	121.7	117.4	116.6	117.9	119.3	119.3	121.3	124.8	122.2	118.3	109.2	99.54	95.00	87.43	82.68	74.90	71.27	61.08	59.22	51.79	47.03	42.96	39.06	37.75	40.71	39.70	28.48	21.73	18.29	15.87	13.50	11.55	10.69	9.851	8.467	7.893	8.216	14.09	52.44	160.1	387.0	 1043	366.4	16.94	1.873	1.251	1.313	1.191	1.300	1.098	1.295	0.959	0.922	0.998	1.307
540.0	41.59	49.43	74.67	90.35	116.3	197.1	237.3	184.2	232.4	583.0	 2900	992.2	192.6	182.2	171.7	140.7	131.7	128.7	117.5	113.0	109.0	107.3	110.1	101.4	102.3	105.5	105.3	109.2	110.4	109.4	106.1	103.1	95.49	88.12	85.76	78.12	71.65	67.66	63.99	56.54	52.44	47.86	43.18	38.57	35.64	32.66	33.52	37.31	31.03	21.80	16.43	14.39	12.65	11.00	9.423	9.482	9.072	6.885	6.977	7.367	15.43	39.15	92.70	483.5	 1071	280.4	5.588	1.465	1.091	1.206	1.257	0.877	1.074	1.073	0.853	0.938	0.898
545.0	33.82	45.87	65.18	82.98	97.70	151.3	252.3	177.7	187.4	297.7	 1855	 2199	195.7	160.7	147.0	131.8	120.8	114.5	108.4	98.74	96.63	95.02	94.23	90.41	93.02	92.46	95.75	95.10	98.19	98.36	95.63	92.66	84.85	79.24	75.97	71.45	63.80	61.21	57.00	51.20	47.79	42.50	39.13	35.16	31.81	30.02	29.38	30.44	31.06	23.13	16.36	13.74	12.25	10.45	9.996	8.751	9.091	6.614	6.065	5.723	7.066	12.26	24.19	117.9	626.7	950.1	50.56	2.375	1.258	1.257	1.006	0.899	0.885	1.011	0.924	1.121	0.878
550.0	38.83	38.62	58.07	75.21	86.64	116.8	197.2	202.2	158.8	199.9	665.6	 2580	857.2	138.7	121.4	112.0	102.5	89.84	90.86	83.04	82.61	80.41	77.67	78.04	78.33	77.87	79.63	80.79	81.73	80.03	80.25	78.69	72.06	68.30	64.39	59.44	54.09	51.69	48.23	43.79	40.08	37.48	33.03	30.39	28.08	25.56	24.57	23.19	26.16	24.11	17.33	13.12	10.71	9.789	9.118	8.116	8.183	7.244	5.962	5.401	5.458	5.992	8.236	29.19	154.0	501.4	683.5	210.5	12.09	1.352	0.902	0.983	0.823	0.849	0.886	0.757	0.654
555.0	39.68	38.79	60.85	64.32	69.50	84.19	135.3	209.9	155.3	152.4	272.0	 1171	 2431	210.8	103.0	92.02	82.02	74.43	73.78	70.70	65.95	65.67	64.69	63.84	63.25	63.64	66.22	65.72	67.05	64.87	65.85	62.38	60.90	55.39	52.75	47.82	45.85	42.53	38.12	35.54	32.79	31.83	26.91	26.28	23.15	21.63	20.40	18.92	18.36	20.18	17.83	13.30	9.840	8.567	7.899	6.952	6.575	6.342	5.867	5.147	5.005	4.243	4.644	8.676	36.71	113.8	271.2	716.2	288.8	8.997	1.159	0.753	0.890	0.712	0.765	0.761	0.605
560.0	36.34	39.82	56.47	59.58	65.88	77.83	96.22	191.1	175.5	137.1	171.0	426.3	 2633	758.0	89.38	77.53	71.41	62.82	62.07	63.61	57.65	54.94	53.58	54.11	53.40	54.04	53.75	53.91	58.26	55.39	53.77	52.40	50.13	47.21	44.32	40.96	38.19	37.00	32.80	30.78	28.41	27.31	23.52	21.81	20.50	18.65	17.75	16.32	14.73	16.10	16.94	13.21	9.251	8.060	7.251	6.495	5.579	5.872	5.876	5.012	3.840	3.964	3.525	4.298	10.04	27.27	64.85	346.4	685.5	54.61	2.712	0.915	1.013	0.657	0.713	0.681	0.703
565.0	36.43	44.69	56.67	59.16	60.55	69.18	89.42	157.2	188.8	128.7	141.5	187.6	 1597	 1877	90.39	65.41	64.14	56.22	53.63	52.66	47.45	46.18	47.37	45.30	45.93	47.75	46.85	46.35	46.61	46.82	46.64	44.53	42.76	39.49	37.53	35.19	32.87	31.80	28.86	25.53	24.37	22.40	19.76	19.50	17.46	17.01	15.59	14.62	12.61	11.96	14.55	13.66	9.447	6.860	6.443	5.454	5.468	5.039	5.360	4.750	4.009	3.726	3.089	3.117	4.606	7.361	16.24	86.47	426.2	550.0	43.34	1.412	0.942	0.704	0.640	0.585	0.594
570.0	30.85	47.74	53.74	59.95	57.56	59.08	67.61	102.2	188.9	139.7	122.4	132.5	530.6	 2247	638.1	56.47	50.26	45.48	42.11	42.12	39.62	38.33	37.58	37.19	36.46	37.77	37.01	37.81	36.54	37.71	36.65	35.50	33.73	31.92	29.74	28.85	26.61	24.96	22.81	21.15	20.06	18.05	16.28	16.07	14.96	13.72	12.86	11.59	10.22	10.03	10.12	10.67	9.700	7.191	5.624	4.773	4.570	4.268	4.241	3.772	4.238	3.708	2.864	2.812	3.077	3.621	5.422	20.98	107.1	318.3	393.7	144.2	6.519	0.698	0.695	0.572	0.556
575.0	30.34	40.27	55.16	55.37	53.86	53.05	60.15	72.02	143.4	177.7	115.2	117.7	200.0	958.2	 2019	103.5	42.02	36.67	33.25	34.11	31.56	28.25	28.74	29.13	27.77	28.98	28.82	29.21	29.06	29.64	28.10	29.18	26.20	24.68	24.39	22.66	20.91	19.67	18.59	17.09	15.33	13.77	13.74	12.34	12.24	10.73	10.04	8.651	8.244	8.245	7.190	7.549	8.884	7.590	5.718	4.091	4.176	4.026	3.732	3.312	3.516	3.512	2.745	2.655	2.429	2.587	2.687	6.291	25.48	72.45	171.9	417.1	55.27	4.101	0.451	0.552	0.466
580.0	35.00	46.27	43.93	50.28	48.45	52.43	50.39	63.78	95.74	190.8	119.5	117.0	121.0	309.8	 2219	254.2	35.63	32.40	28.60	30.31	26.88	23.82	24.68	23.68	23.66	23.76	24.26	23.17	23.28	25.12	23.71	23.28	20.85	20.55	19.40	18.37	18.08	16.36	16.07	14.28	13.49	11.97	10.92	10.49	10.25	8.871	8.471	7.295	7.565	6.973	5.700	5.909	7.031	6.989	5.729	3.881	3.817	3.231	3.353	3.024	2.714	3.056	2.737	2.518	2.339	2.172	1.785	2.753	6.945	17.48	41.59	217.5	359.8	47.13	1.376	0.454	0.589
585.0	30.92	44.37	45.32	42.61	43.70	41.21	41.25	60.11	78.09	171.0	141.9	111.6	98.39	123.1	 1290	 1344	40.41	26.93	23.96	24.13	21.20	21.10	20.60	20.55	20.66	20.13	20.52	20.81	20.67	20.73	20.68	18.42	19.02	18.56	15.98	15.54	15.51	14.15	13.27	12.32	10.96	10.51	9.197	8.779	8.444	7.458	7.252	6.568	6.293	5.687	4.879	4.563	5.321	6.610	5.368	3.926	3.074	2.816	2.884	2.589	2.704	2.640	2.881	2.169	1.924	1.780	1.921	1.776	2.649	4.885	10.36	54.98	249.6	294.3	31.43	0.877	0.535
590.0	32.41	37.91	41.90	47.22	36.78	42.83	40.58	49.90	69.22	114.3	177.0	107.7	90.83	76.00	397.2	 1695	425.1	23.57	20.27	19.69	18.24	17.01	16.86	17.05	16.53	16.22	16.33	16.54	16.35	16.76	16.73	15.33	15.73	13.96	14.02	12.31	11.93	11.51	10.40	10.06	8.982	8.345	8.002	7.096	6.902	6.149	6.040	5.724	5.115	4.888	3.896	3.683	3.562	4.378	4.819	4.490	3.093	2.551	2.450	2.442	2.186	2.028	2.234	2.166	1.908	1.626	1.597	1.480	1.534	2.061	3.047	13.12	63.90	185.7	226.5	36.21	3.173
595.0	27.47	35.59	45.83	44.03	33.50	36.69	37.71	47.06	53.16	80.26	162.8	131.4	86.76	63.36	125.7	704.0	 1418	49.84	17.72	15.08	13.75	14.61	12.91	14.36	14.05	12.06	13.97	13.93	13.23	12.86	12.88	12.59	12.06	11.73	10.78	9.935	9.198	8.931	8.637	8.224	7.095	6.709	6.675	6.048	5.663	5.020	4.683	4.450	4.272	3.989	3.315	3.334	2.834	2.833	3.639	3.909	3.532	2.535	1.846	1.903	1.828	1.674	1.701	1.731	2.102	1.531	1.395	1.120	1.182	1.049	1.286	3.435	14.96	42.45	104.5	247.6	50.19
600.0	31.11	34.89	47.73	43.11	33.72	28.65	46.06	46.93	54.87	71.02	134.9	154.9	86.58	63.24	63.17	216.2	 1599	178.8	15.12	13.57	12.47	12.08	10.96	12.14	11.94	11.29	11.52	11.25	10.80	10.71	11.22	10.85	10.55	9.098	9.243	8.650	7.954	6.922	7.155	7.206	6.274	6.018	5.103	5.740	4.981	4.673	4.076	3.762	3.832	3.232	2.738	3.009	2.349	2.268	2.629	3.266	2.931	2.375	2.121	1.584	1.891	1.807	1.534	1.591	1.647	1.536	1.524	1.227	1.051	1.111	1.013	1.195	3.966	10.09	25.45	139.9	210.6
605.0	19.66	29.26	38.07	37.59	28.05	31.55	35.25	41.83	50.03	65.20	102.8	161.6	90.99	58.76	46.71	72.20	932.5	926.5	18.13	12.32	10.64	10.36	9.401	9.561	9.943	9.967	9.594	9.126	10.75	10.39	9.471	9.288	8.443	7.664	7.440	6.973	6.752	6.491	6.116	5.391	5.496	4.886	4.635	4.518	4.131	3.761	3.766	3.014	3.260	2.761	2.862	2.529	2.028	2.085	2.016	2.628	3.270	2.585	1.898	1.456	1.499	1.487	1.577	1.402	1.259	1.559	1.636	1.039	0.965	0.891	0.821	0.726	1.299	2.791	6.061	36.04	151.8
610.0	21.43	30.95	33.07	31.14	31.80	32.42	34.69	38.94	51.40	63.63	79.79	137.1	118.2	62.90	44.46	38.58	278.0	 1234	290.0	10.49	9.097	8.402	7.721	7.652	7.753	7.933	7.399	7.249	8.280	8.439	7.797	7.214	6.491	6.299	5.874	5.584	5.795	5.264	4.980	4.261	4.201	3.740	3.537	3.166	3.262	3.324	2.907	2.891	2.484	2.350	2.257	2.213	1.832	1.786	1.719	2.023	2.188	2.790	2.102	1.653	1.302	1.208	1.155	1.119	1.133	1.224	1.277	1.250	0.956	0.758	0.706	0.624	0.976	1.035	1.700	8.474	38.76
615.0	20.20	34.15	32.65	33.16	24.81	30.32	26.77	34.96	45.61	54.77	77.47	102.2	132.6	68.63	40.72	32.52	78.93	531.1	 1057	27.95	7.308	8.013	5.521	6.382	6.180	6.076	5.684	5.533	5.688	6.307	5.678	5.880	5.566	5.269	4.384	4.567	4.508	3.781	4.099	3.281	3.199	2.874	2.644	2.754	2.553	2.562	2.481	2.033	1.828	1.980	2.002	1.704	1.542	1.574	1.175	1.516	1.306	2.043	2.139	1.762	1.376	1.133	0.990	0.965	0.800	1.087	0.994	1.430	1.000	0.762	0.617	0.622	0.658	0.580	0.734	2.232	8.993
620.0	17.13	25.18	31.40	34.89	28.72	29.26	29.29	29.99	40.47	53.96	69.19	85.13	130.3	87.68	44.10	29.93	37.02	158.8	 1228	137.1	7.656	6.358	5.645	4.672	4.968	5.650	5.145	4.926	5.349	4.868	5.197	4.482	4.793	4.235	4.262	3.591	4.024	3.362	3.697	3.139	2.519	2.508	2.313	2.276	2.249	2.114	1.756	1.769	1.658	1.587	1.283	1.546	1.511	1.001	0.966	1.336	0.793	1.726	1.955	1.752	1.149	0.887	1.042	0.800	0.858	0.861	0.960	0.940	1.108	0.771	0.574	0.499	0.622	0.354	0.542	0.671	2.273
625.0	20.64	15.61	26.98	37.89	24.17	28.39	33.17	31.81	41.41	54.99	68.85	78.13	110.6	102.7	43.68	31.24	25.78	49.25	753.5	685.5	10.25	5.309	5.101	4.318	4.536	4.148	4.347	4.369	4.703	4.615	3.941	3.639	3.643	3.749	3.248	3.265	3.410	3.030	2.978	2.535	2.219	2.530	1.954	1.709	1.859	1.858	1.620	1.770	1.362	1.428	1.053	1.265	1.102	0.884	0.806	1.002	1.001	1.227	1.580	1.450	1.079	0.792	1.067	0.725	0.956	0.773	1.120	0.757	1.015	0.929	0.587	0.488	0.679	0.311	0.555	0.547	0.936
630.0	16.03	16.40	32.26	30.13	25.00	23.95	27.78	32.72	35.08	49.93	65.16	73.50	84.68	105.1	54.47	31.12	24.05	22.76	223.9	953.1	196.2	4.807	4.244	3.978	3.554	3.693	3.458	4.009	3.493	3.783	3.465	3.420	3.171	2.750	2.618	2.993	2.387	2.177	2.211	2.194	2.206	1.963	1.624	1.332	1.416	1.687	1.456	1.390	1.348	1.177	0.958	0.927	1.049	0.746	0.733	0.758	0.841	0.949	1.052	1.132	1.191	0.908	0.849	0.690	0.728	0.588	0.775	0.637	0.787	0.790	0.881	0.499	0.630	0.363	0.410	0.388	0.524
635.0	19.25	14.61	32.23	28.60	18.54	22.65	23.43	30.91	34.19	44.22	59.09	67.48	67.53	88.29	78.30	32.56	23.06	17.58	58.91	426.3	762.0	16.68	4.088	3.202	3.497	3.165	2.778	2.506	2.591	3.068	2.365	2.943	2.745	2.240	1.959	2.132	1.913	1.926	1.889	1.636	1.706	1.611	1.117	1.121	1.212	1.164	1.259	1.019	1.065	0.864	0.691	0.984	0.836	0.766	0.829	0.831	0.915	0.730	0.694	1.116	1.008	0.737	0.793	0.738	0.617	0.425	0.829	0.610	0.956	0.877	0.674	0.952	0.645	0.451	0.347	0.434	0.442
640.0	17.21	23.72	30.83	29.72	21.31	23.98	24.55	25.99	42.16	43.63	56.30	63.73	62.31	74.28	90.24	38.75	24.45	16.67	22.26	124.3	923.0	104.6	4.085	3.290	3.026	2.842	2.549	2.342	2.714	3.167	1.978	2.840	2.015	1.980	1.895	1.962	1.678	1.541	1.605	1.283	1.455	1.433	1.187	0.902	1.476	0.723	1.141	1.105	0.875	0.756	0.897	0.655	0.654	0.585	0.532	0.513	0.895	0.514	0.589	0.711	1.018	0.884	0.747	0.733	0.695	0.609	0.745	0.611	0.652	0.729	0.551	0.878	0.914	0.390	0.235	0.707	0.339
645.0	19.04	25.60	33.83	26.89	27.36	22.99	27.36	27.70	37.16	45.05	55.49	63.46	66.36	62.34	86.37	48.95	26.56	18.77	13.59	36.30	595.6	486.9	5.146	3.021	2.185	2.075	2.435	1.856	2.222	2.248	1.699	2.078	1.548	1.364	1.624	1.442	1.773	1.439	1.094	1.312	1.074	1.281	1.329	0.948	0.919	0.778	0.903	1.124	0.832	0.662	0.641	0.516	0.548	0.633	0.643	0.623	0.615	0.508	0.545	0.679	0.581	0.818	0.804	0.877	0.529	0.572	0.874	0.541	0.573	0.401	0.468	0.827	0.919	0.709	0.358	0.170	0.241
650.0	27.32	24.03	34.46	31.87	21.92	20.83	23.35	29.34	36.21	38.49	53.92	59.57	61.18	58.19	74.87	59.81	26.76	20.32	12.13	14.91	222.7	807.1	37.59	2.904	2.029	2.318	1.644	2.068	1.803	2.120	1.372	2.064	1.915	1.598	1.596	1.226	1.259	1.200	1.304	1.119	1.080	1.047	0.835	0.796	0.676	0.784	0.852	0.786	0.707	0.592	0.643	0.525	0.584	0.413	0.396	0.501	0.422	0.399	0.574	0.620	0.373	0.577	0.826	0.891	0.446	0.624	0.499	0.631	0.438	0.534	0.538	0.606	0.546	0.524	0.316	0.399	0.263
