Sample:	'1
File name:	t2025070402Â³ÑôÌ¼ËØÔ­Ë®.FD3
Run date:	'13:04:00, 07/11/2025
Operator:	Administrator
Comment:	'

Instrument
Model:	F-2700 FL Spectrophotometer
Serial number:	23C7-003
ROM Version:	4J14000 07

Instrument parameters
Measurement type:	3-D scan
Data mode:	Fluorescence
EX  Start WL:	220.0 nm
EX  End WL:	600.0 nm
EX Sampling interval:	5.0 nm
EM  Start WL:	230.0 nm
EM  End WL:	650.0 nm
EM Sampling interval:	5.0 nm
Scan speed:	12000 nm/min
EX Slit:	5.0 nm
EM Slit:	5.0 nm
PMT Voltage:	700 V
Response:	Auto 
Corrected spectra:	Off
Contour interval:	50.000

Peak integration
Integration method:	Rectangular
Sensitivity:	1
Threshold:	1.000

Peaks
No.	ApexEX/EM(nm)	Height(Data)
1	230.0/345.0	2231
2	235.0/260.0	164.7
3	235.0/615.0	33.52
4	240.0/265.0	214.2
5	240.0/375.0	3300
6	245.0/270.0	225.4
7	250.0/275.0	329.0
8	255.0/285.0	483.2
9	255.0/370.0	2947
10	255.0/560.0	172.3
11	260.0/575.0	139.0
12	265.0/295.0	886.7
13	265.0/585.0	120.1
14	270.0/600.0	111.4
15	275.0/375.0	3027
16	275.0/615.0	111.7
17	280.0/340.0	3167
18	280.0/625.0	106.6
19	330.0/375.0	1457
20	445.0/525.0	26.68
21	485.0/375.0	11.53
22	515.0/285.0	2.658
23	515.0/370.0	12.23
24	555.0/375.0	12.77
25	570.0/335.0	14.80

Data points
	220.0	225.0	230.0	235.0	240.0	245.0	250.0	255.0	260.0	265.0	270.0	275.0	280.0	285.0	290.0	295.0	300.0	305.0	310.0	315.0	320.0	325.0	330.0	335.0	340.0	345.0	350.0	355.0	360.0	365.0	370.0	375.0	380.0	385.0	390.0	395.0	400.0	405.0	410.0	415.0	420.0	425.0	430.0	435.0	440.0	445.0	450.0	455.0	460.0	465.0	470.0	475.0	480.0	485.0	490.0	495.0	500.0	505.0	510.0	515.0	520.0	525.0	530.0	535.0	540.0	545.0	550.0	555.0	560.0	565.0	570.0	575.0	580.0	585.0	590.0	595.0	600.0
230.0	9.940	132.0	310.3	85.49	5.427	3.543	3.845	2.942	2.601	2.755	2.657	2.840	2.334	2.208	1.862	1.632	1.612	1.245	0.981	0.990	0.953	0.882	0.731	0.711	0.651	0.573	0.563	0.493	0.423	0.418	0.343	0.433	0.370	0.315	0.255	0.196	0.208	0.234	0.182	0.167	0.180	0.192	0.172	0.150	0.144	0.147	0.187	0.496	0.913	0.837	0.330	0.187	0.111	0.110	0.128	0.140	0.108	0.130	0.091	0.076	0.092	0.098	0.099	0.118	0.152	0.139	0.097	0.068	0.101	0.110	0.110	0.085	0.106	0.060	0.123	0.118	0.102
235.0	12.05	48.38	426.3	597.3	187.2	5.140	2.793	3.400	2.829	2.501	2.435	2.845	2.523	2.457	2.017	1.247	1.433	1.382	1.205	0.845	0.968	0.782	0.747	0.677	0.611	0.484	0.600	0.572	0.440	0.487	0.349	0.348	0.340	0.186	0.309	0.232	0.164	0.231	0.178	0.218	0.200	0.218	0.211	0.156	0.102	0.186	0.175	0.166	0.590	1.461	2.336	2.284	0.808	0.164	0.141	0.115	0.135	0.168	0.151	0.130	0.043	0.107	0.087	0.121	0.122	0.151	0.122	0.059	0.085	0.153	0.109	0.131	0.140	0.097	0.102	0.117	0.096
240.0	18.93	23.97	172.7	981.0	1012	139.4	4.424	3.842	2.836	2.630	3.027	2.703	2.399	2.363	2.384	1.640	1.717	1.294	1.121	1.003	1.057	0.865	0.779	0.702	0.728	0.590	0.605	0.497	0.502	0.442	0.358	0.327	0.314	0.202	0.306	0.310	0.201	0.212	0.187	0.133	0.143	0.135	0.179	0.145	0.104	0.261	0.141	0.120	0.249	0.648	1.845	4.214	4.448	2.518	0.692	0.119	0.123	0.107	0.118	0.087	0.069	0.103	0.154	0.126	0.136	0.120	0.077	0.050	0.089	0.178	0.156	0.123	0.081	0.103	0.115	0.103	0.034
245.0	22.06	30.57	49.23	455.2	1530	990.8	83.29	4.954	3.193	2.680	3.683	3.071	2.773	2.526	2.226	1.711	1.541	1.241	0.974	1.156	0.963	0.907	0.817	0.818	0.716	0.594	0.616	0.547	0.542	0.428	0.365	0.481	0.291	0.321	0.300	0.210	0.197	0.241	0.221	0.101	0.110	0.125	0.166	0.091	0.150	0.256	0.211	0.204	0.200	0.230	0.586	2.039	4.621	6.225	4.680	2.040	0.377	0.127	0.064	0.138	0.059	0.097	0.125	0.120	0.145	0.154	0.090	0.087	0.134	0.143	0.157	0.093	0.118	0.141	0.151	0.085	0.035
250.0	14.00	41.74	73.33	129.9	598.3	1497	1137	157.3	12.64	4.002	3.669	3.548	2.957	2.591	1.943	1.955	1.622	1.258	1.257	1.214	1.076	0.791	0.801	0.868	0.694	0.583	0.588	0.524	0.514	0.407	0.406	0.335	0.307	0.327	0.245	0.236	0.250	0.289	0.211	0.177	0.171	0.195	0.154	0.200	0.163	0.156	0.181	0.251	0.327	0.259	0.308	0.589	1.356	2.742	4.614	6.140	6.461	4.672	1.839	0.428	0.111	0.109	0.156	0.083	0.100	0.171	0.062	0.112	0.084	0.093	0.139	0.132	0.118	0.133	0.075	0.136	0.067
255.0	8.925	18.66	89.30	138.8	159.6	429.8	1572	2016	217.1	9.711	3.378	4.525	3.238	2.910	2.111	2.122	1.671	1.651	1.129	1.203	1.001	0.865	0.952	0.894	0.826	0.621	0.593	0.505	0.666	0.402	0.382	0.355	0.323	0.373	0.228	0.249	0.210	0.182	0.250	0.183	0.194	0.161	0.192	0.171	0.141	0.152	0.154	0.171	0.238	0.386	0.623	0.584	0.467	0.776	1.145	1.847	4.171	8.827	11.13	7.864	2.732	0.415	0.172	0.168	0.068	0.127	0.050	0.130	0.039	0.134	0.130	0.192	0.092	0.130	0.102	0.146	0.142
260.0	7.548	9.470	42.35	164.7	139.3	114.2	557.0	2266	1830	163.5	6.997	5.004	3.762	3.460	2.455	2.087	2.032	1.673	1.548	1.124	1.000	0.959	0.918	0.821	0.851	0.644	0.636	0.471	0.593	0.464	0.412	0.360	0.307	0.389	0.275	0.248	0.318	0.269	0.256	0.212	0.209	0.191	0.224	0.236	0.137	0.130	0.185	0.117	0.126	0.219	0.484	1.001	0.844	0.435	0.356	0.532	1.100	3.122	7.704	13.18	13.60	6.893	1.385	0.229	0.060	0.117	0.148	0.084	0.151	0.064	0.136	0.121	0.087	0.073	0.131	0.176	0.131
265.0	8.860	9.978	17.76	94.24	214.2	98.15	143.2	928.0	2833	1549	115.8	6.825	4.605	3.822	3.002	2.485	1.983	1.620	1.561	1.409	0.991	1.016	1.040	0.863	0.965	0.617	0.838	0.590	0.494	0.506	0.483	0.350	0.293	0.272	0.349	0.366	0.297	0.158	0.242	0.166	0.284	0.134	0.217	0.235	0.244	0.151	0.164	0.112	0.107	0.168	0.235	0.594	1.012	1.041	0.512	0.233	0.349	0.923	2.151	5.571	12.42	16.51	13.10	4.595	0.651	0.140	0.111	0.094	0.069	0.105	0.122	0.164	0.078	0.100	0.104	0.134	0.107
270.0	13.93	14.15	16.78	34.74	128.8	225.4	134.7	252.2	1075	2720	2660	505.5	19.16	5.072	3.855	2.806	2.383	1.780	1.587	1.486	1.309	1.132	1.109	0.848	0.882	0.681	0.719	0.595	0.583	0.458	0.531	0.416	0.314	0.329	0.332	0.271	0.232	0.170	0.200	0.177	0.229	0.148	0.216	0.189	0.199	0.147	0.181	0.123	0.156	0.150	0.157	0.269	0.480	0.756	0.969	1.164	0.768	0.517	0.751	1.523	3.483	6.783	11.54	15.25	15.51	10.37	3.904	0.646	0.130	0.152	0.135	0.127	0.121	0.090	0.177	0.153	0.177
275.0	24.59	34.59	38.99	30.37	52.24	154.0	329.0	215.3	350.4	854.5	3028	4345	151.7	14.01	4.401	3.190	2.863	2.155	1.858	1.340	1.338	1.180	1.051	1.089	0.954	0.734	0.665	0.577	0.580	0.412	0.398	0.471	0.363	0.416	0.280	0.304	0.336	0.281	0.203	0.231	0.182	0.251	0.256	0.174	0.212	0.202	0.228	0.214	0.184	0.223	0.137	0.142	0.261	0.358	0.482	0.949	1.670	1.717	0.990	0.852	1.274	2.046	3.246	4.519	8.570	18.87	24.99	16.39	4.454	0.467	0.156	0.084	0.156	0.132	0.083	0.069	0.099
280.0	41.70	60.44	72.24	55.73	54.89	100.1	314.6	335.7	275.8	387.4	1141	4463	4011	118.0	7.947	4.312	2.864	2.240	1.767	1.550	1.389	1.204	1.095	1.068	0.953	0.890	0.747	0.784	0.553	0.504	0.593	0.402	0.337	0.399	0.353	0.330	0.272	0.225	0.218	0.234	0.218	0.237	0.288	0.172	0.192	0.216	0.223	0.352	0.253	0.300	0.176	0.250	0.246	0.289	0.419	0.550	1.125	1.873	2.094	1.621	1.115	1.300	1.755	1.913	2.947	6.626	14.99	27.59	26.54	11.27	1.743	0.200	0.199	0.161	0.083	0.067	0.146
285.0	52.00	86.79	117.3	98.49	92.15	118.6	218.7	483.2	473.1	368.0	563.0	1714	5301	3119	80.42	6.083	4.084	2.992	1.979	1.738	1.530	1.139	1.177	1.167	0.922	1.011	1.007	0.781	0.619	0.689	0.469	0.395	0.465	0.284	0.457	0.317	0.213	0.313	0.240	0.203	0.285	0.147	0.221	0.247	0.235	0.277	0.259	0.345	0.391	0.364	0.312	0.414	0.371	0.452	0.450	0.554	0.778	1.183	1.811	2.658	2.514	1.664	1.776	1.596	2.085	2.757	4.755	10.40	21.72	30.33	22.56	7.240	0.799	0.164	0.091	0.079	0.151
290.0	66.75	128.0	182.0	166.5	150.5	167.1	210.9	353.7	636.5	651.0	566.4	724.5	1879	4113	3091	345.9	17.15	4.260	2.798	2.140	1.824	1.381	1.361	1.196	1.052	0.910	0.905	0.779	0.525	0.737	0.513	0.485	0.501	0.368	0.372	0.350	0.251	0.336	0.244	0.228	0.216	0.220	0.185	0.247	0.223	0.337	0.356	0.553	0.539	0.601	0.541	0.676	0.589	0.668	0.705	0.708	0.866	0.965	1.319	1.906	2.611	3.225	3.130	2.455	2.302	2.356	2.546	3.819	6.537	11.47	18.61	22.94	24.67	14.74	6.061	0.840	0.178
295.0	76.23	161.2	251.1	246.3	222.9	222.4	252.7	323.9	496.9	886.7	883.8	657.5	790.6	1194	3198	5223	483.6	15.00	3.843	2.985	1.956	1.855	1.433	1.295	1.103	1.036	0.798	0.762	0.573	0.787	0.544	0.522	0.649	0.382	0.347	0.388	0.301	0.292	0.260	0.262	0.238	0.216	0.196	0.224	0.273	0.376	0.438	0.635	0.703	0.686	0.681	0.849	0.888	0.983	1.033	1.038	1.000	1.164	1.269	1.557	1.928	2.438	3.640	4.609	4.113	3.480	2.653	2.867	3.372	4.025	5.234	6.607	11.58	25.44	35.71	22.63	7.199
300.0	84.88	184.4	281.7	298.1	280.6	281.7	315.0	352.5	501.7	799.0	1230	889.3	688.0	578.6	1040	4639	4626	75.05	9.013	3.785	2.679	2.069	1.738	1.614	1.310	1.190	1.010	0.805	0.640	0.729	0.624	0.460	0.529	0.403	0.337	0.390	0.377	0.304	0.258	0.222	0.253	0.151	0.193	0.231	0.263	0.365	0.580	0.750	0.749	0.835	0.895	1.034	1.192	1.092	1.107	1.118	1.287	1.344	1.612	1.689	2.013	2.307	3.000	3.904	5.338	5.536	3.897	3.216	3.232	3.043	2.839	2.721	3.730	7.649	18.10	36.52	32.81
305.0	91.38	217.7	341.3	352.7	355.4	351.7	401.8	477.7	623.3	854.7	1298	1403	944.2	642.8	568.0	1595	5531	3610	59.50	6.713	3.651	2.740	1.924	1.656	1.267	1.255	1.178	1.078	0.761	0.776	0.643	0.568	0.521	0.436	0.368	0.404	0.345	0.225	0.257	0.239	0.301	0.246	0.285	0.238	0.304	0.487	0.514	0.822	1.005	0.870	1.035	1.389	1.305	1.287	1.416	1.352	1.688	1.984	2.063	2.263	2.533	2.647	3.482	3.855	4.703	6.100	6.875	5.642	4.558	4.015	3.379	2.818	2.632	3.147	5.705	12.39	26.48
310.0	105.5	255.8	406.3	426.5	424.5	437.0	539.5	618.3	784.1	1055	1367	1675	1562	1016	733.7	802.4	1890	4150	4034	263.6	18.00	4.199	2.851	2.022	1.580	1.435	1.293	0.932	0.840	0.937	0.705	0.639	0.569	0.494	0.360	0.455	0.366	0.350	0.340	0.322	0.252	0.293	0.243	0.311	0.295	0.468	0.632	0.855	1.099	1.045	1.315	1.545	1.658	1.625	1.654	1.693	2.111	2.508	2.585	2.845	3.096	3.744	4.185	4.584	5.315	5.977	6.838	7.540	7.760	6.788	5.339	4.537	3.958	3.540	3.835	5.134	8.283
315.0	169.4	414.8	539.8	523.0	517.7	539.6	658.7	763.9	954.9	1284	1608	1847	1968	1757	1015	872.5	961.8	1326	2907	5214	411.0	19.39	4.559	2.936	2.051	1.775	1.538	1.152	0.949	0.896	0.756	0.644	0.520	0.501	0.487	0.424	0.324	0.358	0.318	0.274	0.269	0.227	0.299	0.372	0.494	0.662	0.901	1.307	1.480	1.466	1.457	2.009	2.002	1.988	1.964	2.110	2.633	2.898	3.214	3.514	3.881	4.705	5.133	5.719	6.343	6.920	7.280	8.095	8.752	9.210	9.006	7.726	5.836	5.263	4.965	4.718	5.178
320.0	324.6	820.8	867.6	682.4	610.2	635.0	793.1	933.1	1186	1603	2031	2336	2411	2373	1789	1256	990.1	815.6	1012	3833	3692	323.8	10.55	3.788	2.603	2.056	1.562	1.330	1.089	1.061	0.807	0.698	0.714	0.521	0.545	0.442	0.380	0.473	0.443	0.356	0.308	0.317	0.302	0.443	0.622	1.061	1.877	2.548	2.744	2.261	1.921	2.354	2.346	2.377	2.388	2.521	3.064	3.469	3.871	4.277	4.732	5.675	6.417	7.258	7.844	8.641	9.340	10.21	10.39	11.23	11.20	11.56	9.732	7.672	7.340	6.507	6.335
325.0	473.5	1306	1392	946.5	748.8	744.9	898.6	1086	1401	1923	2447	2840	2907	2789	2460	1747	1232	859.8	622.1	1252	4229	3220	50.53	7.546	3.706	2.507	1.967	1.446	1.466	1.029	0.858	0.753	0.609	0.536	0.561	0.481	0.423	0.389	0.423	0.354	0.366	0.320	0.362	0.509	0.767	1.685	2.752	3.864	3.948	3.312	2.942	3.052	2.808	2.690	2.750	2.899	3.295	3.778	4.469	5.240	5.679	6.566	7.744	8.706	9.530	10.47	11.74	12.11	12.84	12.94	13.09	13.30	12.94	11.43	10.21	8.848	8.065
330.0	533.4	1493	1742	1302	984.8	896.8	1004	1181	1507	2017	2561	2997	3088	2941	2544	2134	1521	994.8	656.4	610.0	1329	3184	3645	1094	19.37	4.490	2.834	1.795	1.645	1.167	1.161	0.955	0.794	0.667	0.674	0.588	0.445	0.468	0.405	0.375	0.346	0.442	0.415	0.587	0.888	1.828	3.152	4.628	4.964	4.385	3.924	4.153	3.763	3.474	3.198	3.399	3.895	4.224	4.660	5.326	6.053	7.145	8.012	9.096	10.20	11.00	12.00	12.96	13.58	13.95	14.18	13.80	12.96	12.32	11.90	11.20	9.879
335.0	589.6	1675	2006	1694	1328	1117	1171	1283	1600	2092	2614	3034	3162	3022	2570	2150	1808	1212	781.1	586.8	625.6	935.9	2093	5032	370.5	24.03	4.648	2.649	1.914	1.298	1.382	1.039	0.884	0.711	0.728	0.693	0.580	0.528	0.551	0.391	0.531	0.486	0.468	0.619	0.990	2.004	3.303	5.125	5.850	5.331	4.932	5.321	4.944	4.411	4.116	4.188	4.278	4.944	5.184	5.693	6.424	7.317	8.366	9.404	10.20	10.99	12.40	13.37	13.56	14.38	14.80	13.92	13.59	12.75	11.63	11.57	11.13
340.0	594.8	1731	2195	1972	1623	1342	1309	1408	1691	2153	2629	3034	3167	3053	2622	2154	1822	1433	913.5	661.8	546.4	496.8	697.9	2947	4690	328.9	15.78	4.338	2.522	1.614	1.502	1.199	0.820	0.887	0.710	0.668	0.608	0.600	0.524	0.459	0.428	0.417	0.462	0.606	1.016	1.865	3.498	5.330	6.276	5.834	5.725	6.578	6.201	5.577	5.103	4.903	4.915	5.538	5.888	6.078	6.852	7.569	8.927	9.549	10.15	11.09	12.61	13.09	13.75	14.15	14.70	14.31	13.43	12.78	11.66	11.78	10.78
345.0	574.3	1655	2231	2172	1925	1579	1466	1570	1783	2201	2576	2927	3032	2944	2572	2128	1755	1482	1097	765.9	603.5	480.5	426.8	926.1	3469	2890	261.2	9.376	3.647	1.988	1.667	1.363	0.937	0.978	0.771	0.708	0.573	0.619	0.513	0.393	0.340	0.350	0.466	0.589	1.087	1.846	3.218	5.056	5.999	5.950	6.089	7.683	7.070	6.829	6.036	5.487	5.721	5.980	6.363	6.623	7.279	8.070	8.853	9.831	10.18	11.09	11.88	12.44	12.87	13.69	14.19	14.00	13.30	12.37	11.29	11.50	10.80
350.0	515.6	1468	2203	2472	2409	2218	2150	2251	2294	2522	2727	2904	2951	2862	2559	2177	1869	1467	1232	987.7	747.2	594.3	488.5	492.9	1049	2434	3097	1090	19.77	4.094	2.452	1.863	1.203	0.983	0.914	0.755	0.592	0.597	0.561	0.474	0.449	0.444	0.427	0.624	1.000	1.699	2.799	4.603	5.876	5.941	6.548	8.883	8.628	8.665	8.103	7.789	8.096	8.691	9.101	9.512	9.582	9.682	10.11	10.62	10.78	11.28	11.72	12.35	12.71	13.09	13.26	13.51	13.15	12.64	11.68	11.71	11.36
355.0	453.6	1318	2163	2599	2750	2576	2563	2669	2600	2702	2806	2850	2842	2758	2505	2182	1920	1502	1221	1135	953.7	725.2	595.3	481.3	496.0	722.3	1459	4004	1678	24.28	4.488	2.632	1.514	1.201	0.948	0.877	0.609	0.626	0.655	0.560	0.407	0.447	0.485	0.594	0.898	1.610	2.600	4.214	5.244	5.944	6.847	8.991	9.705	9.546	9.166	9.263	9.635	10.42	10.61	11.34	11.12	10.47	10.91	11.53	11.46	11.31	11.55	12.27	12.29	12.50	12.54	13.44	12.73	12.29	11.78	11.60	11.60
360.0	422.9	1172	2073	2590	2783	2650	2551	2648	2611	2688	2707	2713	2677	2584	2372	2101	1866	1501	1237	1132	1084	845.7	672.0	531.1	422.3	373.5	476.5	2048	4206	320.9	16.83	3.996	2.365	1.315	1.080	1.003	0.640	0.660	0.587	0.555	0.413	0.496	0.427	0.570	0.814	1.434	2.318	3.730	5.062	5.766	6.689	9.285	9.722	9.830	9.476	9.264	9.776	10.26	10.75	11.07	10.95	10.85	11.08	10.90	11.14	10.83	11.14	11.66	11.50	11.82	11.68	12.56	12.17	11.69	11.22	11.53	11.27
365.0	382.2	1115	1942	2583	2831	2690	2587	2694	2642	2688	2674	2619	2544	2453	2270	2036	1840	1501	1264	1140	1112	1005	789.9	624.6	476.1	359.6	292.4	610.8	2649	3649	263.0	11.29	3.713	1.870	1.347	1.168	0.729	0.708	0.604	0.572	0.540	0.448	0.487	0.575	0.757	1.218	2.218	3.413	4.710	5.494	6.748	9.167	9.835	10.21	9.421	9.653	9.779	10.19	10.35	10.93	11.23	10.97	11.11	11.24	10.75	10.72	10.66	10.91	11.16	11.43	11.24	11.72	11.23	11.08	10.55	11.52	11.01
370.0	353.7	1025	1959	2753	3096	2938	2849	2947	2897	2936	2921	2800	2554	2380	2219	2030	1890	1582	1382	1294	1248	1237	1171	955.8	752.7	603.0	452.6	376.7	796.6	2222	2770	1024	19.69	3.846	2.019	1.377	0.961	0.836	0.630	0.657	0.593	0.506	0.474	0.630	0.821	1.243	2.060	3.100	4.666	5.423	6.770	9.954	10.83	11.01	10.51	10.30	10.68	11.28	11.68	12.23	12.14	12.08	12.15	12.09	12.06	11.77	11.62	11.63	11.29	11.19	10.98	11.30	11.27	10.81	10.46	11.12	11.45
375.0	329.7	942.4	1919	2799	3300	2971	2763	2881	2878	2978	3019	3027	2590	2252	2081	1926	1826	1594	1452	1409	1384	1402	1457	1328	1105	994.3	754.6	507.7	442.8	667.3	1245	3362	1478	22.44	3.801	1.987	1.152	0.935	0.817	0.712	0.641	0.602	0.539	0.748	0.750	1.074	1.826	3.116	4.450	5.245	6.964	10.37	11.14	11.53	10.84	10.44	10.72	11.17	11.47	11.78	11.76	11.89	12.48	12.15	12.12	12.11	12.57	12.77	11.59	10.75	10.53	10.63	10.62	10.49	9.888	10.86	11.41
380.0	301.2	858.2	1783	2619	3097	2781	2581	2612	2657	2756	2795	2834	2476	2118	1933	1786	1716	1525	1409	1378	1357	1347	1378	1350	1163	1002	820.0	574.6	415.0	348.0	436.7	1680	3312	275.2	13.89	3.190	1.738	1.139	0.916	0.703	0.722	0.589	0.557	0.616	0.670	1.072	1.789	2.912	3.968	4.934	6.366	9.492	10.46	10.97	10.63	9.677	10.11	10.11	10.58	11.10	10.81	11.17	11.51	11.47	11.11	10.99	11.28	12.30	10.92	10.03	10.03	9.962	9.757	9.774	9.478	9.863	10.24
385.0	280.0	783.4	1661	2426	2864	2611	2425	2440	2433	2500	2547	2544	2269	1982	1810	1677	1604	1446	1344	1311	1282	1268	1266	1220	1133	942.4	766.3	562.5	404.5	292.2	260.4	507.3	2012	2270	212.4	7.411	2.717	1.377	0.929	0.824	0.706	0.603	0.610	0.660	0.677	1.072	1.614	2.518	3.808	4.599	5.708	8.531	9.579	10.25	9.469	8.998	9.125	9.105	9.894	10.00	10.29	10.09	10.16	10.22	10.36	9.463	10.23	10.78	10.27	9.474	8.979	9.208	9.281	9.035	8.944	9.308	9.678
390.0	256.5	727.8	1522	2274	2671	2494	2319	2329	2294	2352	2363	2360	2096	1839	1686	1580	1515	1379	1297	1270	1252	1240	1239	1164	1091	995.3	784.1	578.1	421.1	313.0	258.3	236.6	570.9	1491	2000	776.4	14.17	2.608	1.331	1.016	0.786	0.694	0.644	0.687	0.735	1.000	1.451	2.335	3.496	4.074	5.462	8.067	8.973	9.539	9.100	8.669	8.828	8.979	9.357	9.324	9.564	9.540	9.586	9.392	9.557	9.348	9.674	9.794	9.164	8.897	8.472	8.603	8.555	8.495	8.327	8.810	9.132
395.0	233.0	666.7	1408	2081	2508	2371	2195	2166	2119	2174	2188	2223	1958	1683	1548	1452	1403	1300	1239	1217	1207	1204	1215	1148	1064	1026	879.7	642.3	463.7	344.1	277.7	207.2	236.6	413.9	862.6	2606	963.1	15.33	2.584	1.485	0.929	0.766	0.731	0.697	0.892	1.091	1.227	2.101	3.110	3.834	4.916	7.247	8.393	8.921	8.293	8.152	8.173	8.317	8.710	8.639	8.628	8.823	8.893	8.789	9.019	8.421	9.184	9.337	8.386	7.972	8.065	7.845	8.000	7.606	7.447	7.888	8.327
400.0	204.5	626.2	1265	1882	2273	2209	2062	2000	1946	1964	1974	2014	1810	1562	1435	1349	1298	1215	1160	1143	1121	1126	1121	1069	986.5	929.9	854.2	678.2	488.0	361.5	286.5	214.2	178.3	181.6	259.0	1320	2229	225.5	7.825	2.218	1.271	0.996	0.778	0.694	0.863	1.073	1.238	2.041	2.866	3.698	4.588	6.713	7.406	8.147	7.546	7.664	7.751	7.849	7.863	8.267	7.890	8.073	7.863	8.022	7.757	7.621	8.217	8.449	7.951	7.712	7.162	7.288	7.335	6.821	7.200	7.338	7.872
405.0	199.1	566.2	1146	1719	2074	2075	1959	1899	1800	1787	1777	1790	1639	1445	1344	1260	1202	1134	1090	1065	1049	1027	1021	967.5	900.9	831.5	759.2	676.1	504.0	373.3	298.5	223.1	176.9	142.4	126.2	368.2	1407	1804	31.41	4.555	1.813	1.066	0.823	0.695	0.811	0.851	1.138	1.945	2.664	3.525	4.275	6.079	6.720	7.546	7.008	7.072	7.670	7.339	7.452	7.582	7.544	7.200	7.140	7.073	7.137	6.907	7.129	7.461	7.207	6.918	6.774	6.737	6.763	6.474	6.864	6.919	7.235
410.0	186.6	509.3	1049	1554	1883	1953	1919	1850	1714	1649	1605	1594	1457	1315	1221	1155	1111	1047	999.3	978.2	954.0	927.7	920.1	874.4	812.4	750.1	675.3	609.0	527.4	406.4	314.9	242.8	192.3	153.6	115.5	142.6	390.4	1154	1396	475.9	10.78	1.878	0.985	0.789	0.863	0.876	1.145	1.706	2.422	3.119	3.863	5.467	6.105	6.556	6.611	6.790	7.337	7.121	7.407	7.449	7.231	6.849	6.689	6.616	6.406	6.247	6.376	6.617	6.547	6.112	6.238	5.985	6.046	6.307	6.096	6.695	6.657
415.0	170.6	472.6	945.4	1414	1722	1863	1882	1816	1658	1550	1478	1440	1318	1194	1111	1052	1014	954.9	918.4	888.2	868.7	850.2	836.2	805.0	753.3	701.0	630.7	558.2	502.6	448.2	341.9	259.9	211.3	170.8	128.7	105.0	142.3	300.9	650.4	1608	223.6	9.664	1.561	0.981	0.852	0.949	1.102	1.689	2.202	2.752	3.634	4.856	5.500	6.302	6.098	6.637	7.131	7.059	7.154	7.345	6.751	6.749	6.247	6.348	5.700	6.042	6.105	5.757	5.683	5.352	5.424	5.547	5.537	5.556	5.466	6.042	5.892
420.0	164.6	431.4	877.5	1276	1607	1759	1814	1746	1587	1460	1368	1325	1206	1098	1032	976.2	933.7	889.3	855.4	829.1	801.3	785.0	772.2	745.8	700.3	653.7	595.6	532.5	471.9	439.6	369.0	273.1	217.5	177.1	135.9	100.2	90.84	110.6	183.0	880.0	1451	185.4	3.933	1.335	1.090	0.986	0.975	1.611	2.016	2.544	3.284	4.296	5.192	5.793	5.742	6.189	6.822	7.006	6.679	6.828	6.694	6.351	5.828	5.966	5.455	5.208	5.403	5.432	5.196	5.246	5.022	5.140	4.959	5.110	5.285	5.296	5.450
425.0	159.0	397.3	816.9	1201	1502	1664	1724	1676	1517	1375	1273	1214	1115	1015	953.9	904.2	869.8	832.0	796.9	769.8	748.0	726.1	713.4	688.6	648.9	611.5	561.6	510.6	448.7	410.7	381.5	291.0	220.6	177.7	138.3	102.1	82.27	69.87	71.83	243.7	1046	1226	27.44	2.286	1.310	1.225	1.022	1.563	1.938	2.310	2.969	4.157	4.898	5.509	5.269	5.757	6.801	6.618	6.474	6.541	6.340	5.887	5.903	5.153	4.931	5.021	5.068	4.909	4.592	4.699	4.575	4.830	4.872	4.767	5.058	5.170	5.280
430.0	153.8	372.7	742.4	1090	1367	1557	1647	1594	1446	1280	1167	1092	1012	931.5	876.7	827.5	795.5	757.0	723.7	703.6	678.6	659.2	647.1	626.9	595.8	561.5	520.4	481.6	429.2	387.3	355.8	313.4	240.9	183.3	142.8	108.3	85.33	66.32	51.44	77.41	279.5	854.8	1049	328.0	7.928	1.562	1.166	1.561	1.864	2.184	2.751	3.812	4.444	5.007	5.132	5.419	6.267	6.201	6.306	6.238	6.123	5.701	5.430	4.778	4.771	4.591	4.370	4.410	4.178	4.357	4.308	4.196	4.448	4.344	4.549	4.614	4.860
435.0	147.6	355.5	674.3	1009	1275	1465	1590	1557	1408	1200	1098	1001	920.6	850.4	794.1	754.6	726.7	692.8	662.2	645.0	620.9	602.6	586.3	573.9	551.2	519.4	490.1	461.7	418.0	378.7	337.6	301.8	268.5	198.5	149.6	115.9	93.56	71.66	52.30	43.88	79.45	204.6	541.1	1306	200.6	6.889	1.539	1.696	1.832	2.068	2.488	3.550	3.957	4.558	4.745	5.236	5.871	6.164	6.096	6.052	5.804	5.533	5.132	4.508	4.113	4.176	4.108	4.021	4.088	3.902	3.853	3.950	3.893	4.040	4.084	4.070	4.302
440.0	145.4	327.2	649.5	961.3	1215	1427	1540	1525	1376	1170	1036	948.0	868.0	794.6	747.3	704.4	678.0	650.1	620.9	603.3	581.2	560.7	551.1	541.3	525.5	497.9	471.9	443.9	407.8	372.4	329.7	287.2	267.5	220.7	158.9	121.6	99.81	77.23	56.47	39.80	37.19	59.00	140.4	786.0	1247	152.8	2.685	1.798	1.960	2.110	2.306	3.163	3.858	4.310	4.710	5.155	5.733	6.154	5.954	6.037	5.729	5.321	4.763	4.561	3.969	4.105	3.827	3.849	3.907	3.650	3.610	3.738	3.828	3.882	3.471	3.877	4.198
445.0	149.2	317.9	597.2	897.3	1136	1364	1500	1486	1338	1114	976.5	899.1	824.4	746.5	704.5	665.4	635.2	611.6	583.7	569.2	546.0	529.0	517.2	510.6	491.5	472.6	451.2	427.6	397.9	364.9	323.6	278.1	249.5	227.0	172.7	125.3	102.6	80.95	60.29	41.19	31.13	28.56	42.66	216.4	977.6	988.9	21.67	2.325	2.037	1.986	2.250	3.160	3.636	4.098	4.435	4.985	5.614	5.811	5.856	5.847	5.841	5.028	4.897	4.418	3.951	3.829	3.527	3.529	3.478	3.393	3.626	3.597	3.590	3.724	3.373	3.785	3.858
450.0	137.9	325.9	558.6	812.0	1047	1256	1402	1396	1253	1046	918.8	820.6	750.7	682.7	648.4	605.7	575.1	555.1	534.4	516.0	497.0	484.1	475.2	471.2	456.4	439.0	421.2	404.2	379.6	349.9	311.9	266.9	230.6	207.7	181.1	134.2	103.8	82.41	62.92	45.58	33.04	25.17	23.35	58.76	263.3	752.6	843.9	104.9	6.515	2.176	2.338	3.140	3.348	3.827	4.237	4.494	5.170	5.380	5.527	5.479	5.320	4.905	4.372	4.213	3.683	3.530	3.308	3.354	3.324	3.146	3.346	3.204	3.233	3.256	3.087	3.533	3.557
455.0	118.6	344.8	547.7	751.0	957.2	1135	1278	1289	1146	971.3	833.2	744.7	675.5	617.6	582.5	545.5	519.6	492.5	480.2	464.6	445.5	434.4	432.3	427.5	412.9	399.4	387.9	375.5	356.0	328.1	295.8	255.5	216.2	187.7	168.1	145.8	109.9	82.42	64.19	48.22	36.77	27.53	21.80	25.78	68.54	178.3	458.3	948.3	155.4	5.029	2.479	3.017	2.967	3.706	3.891	4.209	4.682	4.782	4.891	4.994	4.886	4.468	4.142	3.835	3.297	3.369	3.112	3.259	3.172	2.952	3.187	2.947	3.015	2.876	2.731	3.109	3.344
460.0	113.8	339.7	621.9	706.8	886.2	1045	1196	1198	1086	902.1	780.8	692.2	625.9	573.1	541.2	495.7	471.9	451.6	440.4	425.1	408.5	399.2	399.6	395.9	384.9	374.0	360.2	354.2	336.3	313.5	281.9	244.2	207.5	176.5	152.0	142.7	117.9	84.77	65.80	50.58	38.68	30.07	23.20	19.94	26.26	48.13	117.7	604.7	849.5	103.6	3.281	3.037	2.766	3.336	3.705	3.798	4.522	4.654	4.737	4.850	4.599	4.292	3.862	3.436	3.065	2.964	2.750	2.929	2.954	2.682	2.767	2.846	2.804	2.772	2.654	2.655	3.056
465.0	96.75	267.4	729.1	722.8	812.2	989.1	1112	1116	1010	851.8	733.7	650.6	583.3	534.7	500.5	460.4	437.5	416.2	405.0	391.7	377.7	370.7	368.7	370.2	360.6	348.8	338.1	331.2	316.3	298.7	268.7	233.2	197.7	168.0	142.6	128.3	120.3	90.76	66.16	51.52	40.49	31.85	25.15	20.42	17.77	19.96	33.49	167.3	702.9	638.0	18.14	3.452	3.043	3.242	3.385	3.733	4.303	4.332	4.382	4.455	4.262	4.127	3.652	3.299	3.133	2.715	2.666	2.658	2.484	2.637	2.625	2.559	2.726	2.571	2.701	2.539	2.771
470.0	95.30	209.4	635.2	983.8	775.1	885.3	1006	1014	911.7	776.0	660.8	584.8	529.4	478.9	449.3	414.4	391.1	373.4	362.1	350.2	338.5	331.0	328.5	331.8	324.2	316.4	308.6	303.1	292.1	275.2	247.9	217.1	185.3	158.6	133.7	116.1	107.1	96.88	71.02	52.90	41.75	33.50	27.43	22.18	17.98	15.12	15.82	44.32	191.8	509.4	559.6	96.58	6.631	3.256	3.162	3.433	3.607	3.949	3.944	4.122	3.834	3.715	3.290	2.937	2.909	2.614	2.544	2.434	2.369	2.345	2.253	2.319	2.272	2.330	2.482	2.300	2.350
475.0	86.70	178.5	428.7	1130	941.7	783.2	903.0	896.0	817.5	688.6	590.7	525.2	472.4	429.0	396.9	363.7	344.9	331.0	317.8	308.5	298.7	294.4	292.5	295.1	289.6	284.9	277.6	272.5	263.9	249.5	228.4	199.2	171.9	147.0	125.7	106.3	92.85	88.89	78.39	56.61	42.73	35.42	29.35	24.01	20.16	15.87	13.54	18.26	49.60	121.6	295.9	641.9	138.2	5.729	3.280	3.299	3.419	3.644	3.510	3.510	3.622	3.331	3.151	2.594	2.464	2.371	2.168	2.137	1.907	2.120	2.084	1.878	2.113	2.008	2.164	2.063	2.436
480.0	87.89	176.4	337.6	887.0	1271	750.6	825.4	824.2	753.7	633.3	546.4	489.7	434.7	397.2	365.3	335.7	316.6	302.8	289.2	282.2	271.5	269.9	267.8	270.2	267.2	262.6	256.8	253.4	244.5	232.1	213.5	186.6	161.3	138.0	118.7	101.1	87.81	79.61	75.90	62.10	44.34	36.25	30.27	25.53	21.65	17.35	14.23	13.04	18.79	33.94	77.04	392.5	630.9	24.66	3.810	3.273	3.287	3.352	3.313	3.387	3.157	2.939	2.681	2.513	2.015	2.263	2.132	2.055	1.985	1.977	1.838	1.805	1.724	1.826	1.917	1.881	1.985
485.0	83.35	162.4	289.1	622.1	1403	852.6	759.3	765.0	700.4	596.1	507.9	454.3	401.9	372.4	338.4	307.1	291.0	275.5	267.5	260.0	252.1	248.1	246.6	251.8	247.0	245.0	242.1	238.3	231.8	217.7	200.5	175.4	152.1	131.3	112.3	96.67	83.68	74.51	69.58	64.64	48.56	36.89	30.77	25.76	22.45	18.89	15.04	12.85	12.59	14.52	23.65	109.9	526.1	547.2	20.44	3.548	3.260	3.215	3.163	3.181	2.991	2.790	2.468	2.356	2.098	2.029	2.034	1.908	2.058	1.927	1.702	1.691	1.740	1.649	1.751	1.791	1.831
490.0	73.68	156.3	271.1	447.3	1018	1252	720.9	694.5	637.3	543.8	467.0	416.9	371.9	335.5	306.7	278.2	260.9	248.8	240.6	234.1	226.9	224.8	224.5	228.7	228.0	223.0	220.1	217.8	210.6	199.9	185.5	162.7	141.7	121.3	105.5	90.83	79.73	69.95	61.61	58.91	53.22	40.59	32.04	27.46	23.56	20.24	16.88	14.11	12.38	11.68	12.56	31.14	144.1	409.5	393.0	99.51	7.565	3.500	3.151	2.934	2.911	2.655	2.341	2.343	2.067	1.828	1.775	1.800	1.636	1.653	1.550	1.615	1.647	1.442	1.613	1.634	1.571
495.0	57.88	147.4	260.4	364.2	586.8	1362	928.3	619.7	569.4	486.4	426.9	373.6	341.3	304.6	273.2	248.5	233.9	222.7	215.9	208.9	201.9	201.1	201.6	206.4	202.6	197.1	196.0	195.4	190.1	180.4	168.8	147.3	128.5	112.0	97.21	84.64	73.86	65.69	57.57	51.14	49.77	46.02	35.03	28.50	24.57	21.37	18.38	15.51	13.37	12.46	11.50	14.60	39.00	99.10	259.1	626.5	153.8	6.434	3.349	3.193	2.764	2.424	2.225	1.999	1.907	1.724	1.711	1.684	1.602	1.470	1.498	1.382	1.367	1.523	1.507	1.574	1.580
500.0	58.47	138.3	253.0	327.9	447.5	1000	1282	581.7	520.7	446.6	394.9	347.8	313.5	277.7	249.7	228.9	211.8	203.1	194.7	190.4	184.1	182.9	182.0	186.0	185.2	180.7	178.5	178.6	175.1	166.3	155.1	134.8	119.0	103.1	90.87	79.88	69.78	61.75	54.76	48.19	44.80	45.53	39.28	29.74	25.23	22.03	19.02	16.66	14.68	13.11	11.93	11.87	16.31	29.78	69.31	370.1	601.9	26.87	4.593	3.332	2.585	2.415	2.014	1.885	1.758	1.541	1.611	1.508	1.385	1.295	1.412	1.409	1.264	1.381	1.304	1.215	1.375
505.0	55.90	121.3	247.3	305.6	373.8	639.8	1451	678.0	471.9	411.5	361.7	324.0	287.0	257.1	230.0	210.2	194.4	181.3	175.9	170.7	167.6	167.2	167.6	168.9	167.5	165.2	162.5	163.6	160.6	154.0	141.9	125.9	108.9	96.00	84.12	73.74	64.88	57.62	51.00	45.57	40.18	40.69	40.39	31.60	25.40	22.09	19.53	17.64	15.73	14.55	12.80	12.60	12.58	15.64	23.87	103.2	456.2	463.7	22.79	3.753	2.850	2.318	2.069	1.660	1.512	1.366	1.471	1.346	1.309	1.259	1.248	1.285	1.191	1.454	1.254	1.178	1.331
510.0	46.53	102.0	210.3	287.7	324.3	427.7	1004	1108	452.2	363.2	319.5	289.1	254.0	228.9	204.0	185.3	169.1	157.7	152.1	147.5	146.4	145.0	146.1	148.0	146.9	145.2	142.5	142.9	139.4	134.6	125.3	110.2	96.62	84.71	75.14	65.52	58.28	52.44	46.57	41.91	37.18	34.81	36.37	34.35	27.79	23.08	19.62	18.52	17.07	16.09	14.95	14.32	13.63	13.89	15.62	32.81	125.8	330.2	314.0	97.08	6.819	2.424	1.988	1.645	1.520	1.427	1.352	1.208	1.229	1.219	1.189	1.206	1.131	1.115	1.090	1.108	1.105
515.0	38.60	87.02	167.4	271.5	293.6	342.7	519.8	1224	700.9	316.8	283.3	253.3	222.2	195.4	178.6	157.9	144.0	135.3	130.9	127.5	125.0	125.6	123.7	126.8	127.1	124.2	122.9	123.0	120.1	114.7	107.2	95.61	83.50	73.64	65.45	57.46	51.45	47.38	41.12	37.40	33.17	30.77	30.11	32.29	31.06	23.59	20.51	18.68	17.85	16.69	16.01	16.01	14.82	14.82	15.49	18.34	38.48	83.27	176.3	423.7	137.1	4.633	2.144	1.639	1.348	1.348	1.233	1.015	1.168	0.984	1.197	0.974	0.966	1.031	0.907	1.000	0.867
520.0	37.82	78.15	144.1	245.1	271.1	286.8	355.3	856.2	1096	308.7	249.4	227.0	199.5	173.5	160.1	142.6	130.6	120.9	114.9	112.7	111.0	110.5	110.7	111.5	111.0	110.4	109.5	109.3	106.9	101.2	96.47	84.53	76.07	64.78	58.90	51.78	46.30	43.19	37.46	33.80	30.55	28.68	27.18	28.18	30.09	25.72	20.72	18.78	18.19	17.23	15.91	15.99	15.85	15.08	15.19	15.39	19.11	27.53	49.20	242.0	407.6	26.48	2.527	1.807	1.330	1.096	1.050	1.048	0.962	0.882	1.035	1.005	0.913	0.898	0.941	0.872	0.804
525.0	35.31	75.80	126.1	199.2	268.0	259.4	289.4	486.1	1289	441.4	228.6	203.8	182.9	158.3	144.5	127.4	118.5	107.7	101.9	100.6	98.17	98.43	99.40	99.34	98.95	99.09	97.88	97.98	95.33	91.44	85.92	76.15	67.89	58.90	52.31	47.48	42.75	38.92	34.78	30.99	28.14	26.66	25.57	24.66	26.41	26.68	21.30	18.25	17.82	16.93	16.20	16.22	15.55	15.44	14.84	14.65	14.98	15.16	18.67	66.90	286.4	219.3	20.90	2.010	1.353	1.310	1.116	1.010	0.829	0.882	0.964	0.849	0.806	0.787	0.814	0.740	0.801
530.0	32.96	65.69	107.5	157.5	237.5	235.2	248.5	297.9	826.8	964.3	250.7	178.7	160.4	138.7	125.7	110.3	101.3	93.75	88.45	86.20	84.87	84.86	85.52	86.33	86.26	84.14	83.28	83.36	82.19	79.48	73.11	66.42	58.70	51.59	46.17	40.92	37.68	33.87	30.86	28.19	25.50	24.10	22.94	21.61	21.76	23.78	22.01	18.55	16.47	16.01	15.57	15.13	14.59	14.59	14.49	14.28	13.44	12.30	11.37	20.62	76.23	185.4	230.7	81.61	4.021	1.175	1.046	0.898	0.961	0.726	0.817	0.705	0.804	0.777	0.724	0.709	0.724
535.0	29.63	54.22	92.92	128.1	188.3	230.0	210.1	222.1	354.9	1116	557.4	157.4	139.7	122.0	107.5	95.40	85.38	78.75	74.65	72.76	72.78	71.91	71.26	73.11	74.19	71.94	70.12	69.49	68.99	65.92	62.17	55.91	48.93	43.54	39.02	35.94	32.29	29.13	26.77	24.30	22.16	21.34	20.11	19.12	18.49	19.40	20.34	19.07	15.86	14.76	14.28	13.97	13.91	14.01	13.97	13.66	12.51	11.11	9.542	9.894	21.47	45.15	112.5	273.0	28.38	2.748	1.123	0.858	0.778	0.750	0.731	0.646	0.624	0.622	0.612	0.627	0.679
540.0	26.01	47.30	83.52	114.6	153.3	219.6	191.8	190.6	217.1	740.3	1037	173.2	125.9	108.9	95.64	86.38	76.01	69.59	66.15	63.57	64.44	63.95	62.61	64.56	65.34	63.06	62.99	61.45	62.44	58.55	55.75	48.52	44.97	38.42	34.73	31.54	28.83	25.98	24.67	21.75	20.55	19.12	18.28	17.50	17.22	16.45	17.57	18.30	16.22	13.73	13.44	12.90	13.08	13.15	13.12	13.31	12.28	10.54	9.129	7.536	8.935	13.55	28.94	149.3	224.8	25.09	1.527	0.923	0.688	0.667	0.547	0.641	0.578	0.607	0.606	0.654	0.612
545.0	19.58	44.81	72.46	98.21	120.9	192.6	194.2	176.2	181.2	356.2	1245	346.4	112.9	98.54	87.01	77.21	67.98	62.88	59.05	57.86	57.98	57.22	57.46	59.08	57.30	56.38	55.55	55.10	55.07	53.44	49.57	44.58	39.26	34.92	31.19	28.07	25.84	23.28	22.41	20.31	18.53	17.67	16.63	15.99	15.46	14.95	14.90	16.21	16.26	13.75	12.75	12.03	12.34	12.53	12.36	12.64	11.83	10.02	8.384	6.788	5.905	6.362	9.303	39.67	170.6	202.4	18.26	1.173	0.675	0.691	0.661	0.662	0.604	0.528	0.538	0.575	0.412
550.0	17.18	40.16	66.92	90.23	108.2	143.3	188.7	160.3	153.9	189.9	738.0	916.1	133.9	87.02	76.68	66.37	58.37	53.60	52.27	49.70	49.88	48.78	48.86	50.47	48.94	47.97	47.75	46.82	47.27	45.48	41.53	37.82	33.61	30.56	26.90	23.88	22.33	20.36	18.83	17.36	16.43	15.53	14.66	14.45	13.83	13.23	12.75	13.39	14.51	13.68	12.11	11.15	11.16	11.41	11.30	11.19	11.25	9.618	7.769	6.661	5.421	4.695	4.773	11.12	44.59	133.3	170.3	60.63	2.654	0.762	0.648	0.539	0.530	0.434	0.490	0.503	0.364
555.0	20.45	32.81	62.06	79.66	87.34	109.8	158.5	161.8	136.5	140.7	273.3	1031	453.0	76.64	65.94	56.41	51.40	45.54	43.36	41.32	41.96	41.47	40.96	41.63	40.68	40.20	39.26	39.05	39.40	37.59	35.15	32.31	28.65	25.29	22.96	20.76	18.92	16.85	16.23	14.92	14.15	13.35	12.87	12.65	12.22	11.62	11.21	11.21	11.52	12.26	12.01	10.36	10.37	10.14	10.57	10.15	9.938	8.694	7.419	6.402	5.087	4.146	3.699	4.599	11.62	31.40	77.63	190.9	28.06	1.734	0.730	0.532	0.487	0.438	0.380	0.466	0.303
560.0	22.86	38.15	54.27	72.34	82.43	93.31	126.7	172.3	129.8	127.7	152.3	625.5	896.3	91.36	57.41	48.79	43.99	41.45	38.38	35.58	36.81	34.84	35.85	35.60	35.92	35.60	34.19	34.91	33.80	32.44	30.80	27.83	24.79	22.33	20.38	17.54	16.51	15.22	14.48	12.84	12.50	11.68	11.48	11.13	10.95	10.45	10.41	9.789	10.18	10.80	11.64	10.30	8.989	9.151	9.731	9.460	9.000	7.993	7.202	5.851	4.650	3.962	3.266	3.090	4.479	8.591	19.42	102.5	170.4	22.64	0.851	0.570	0.502	0.399	0.437	0.393	0.312
565.0	21.62	28.32	53.85	65.01	76.17	84.59	105.5	162.5	125.7	116.9	125.0	266.6	1082	146.2	51.98	43.19	37.79	34.96	32.82	30.65	31.75	31.00	32.07	31.79	31.45	30.82	30.72	30.37	29.21	28.29	26.62	24.51	21.42	19.81	17.38	15.55	14.92	13.35	12.21	11.40	11.11	10.38	9.896	9.818	9.915	9.323	9.331	8.946	8.539	9.098	10.28	9.935	8.660	8.465	8.264	8.349	8.343	7.562	6.781	5.769	4.704	3.898	3.156	2.722	2.664	3.333	5.639	26.82	121.5	141.2	14.10	0.628	0.482	0.458	0.362	0.531	0.289
570.0	19.76	30.92	49.18	53.05	65.04	74.15	86.78	127.4	138.9	104.9	109.2	126.7	600.6	711.6	71.99	36.86	32.25	28.75	27.11	25.25	25.69	25.37	26.22	25.99	25.11	24.86	24.59	24.34	24.08	22.91	22.24	20.00	17.64	16.46	14.12	12.76	11.88	10.91	10.04	9.275	8.998	8.656	8.223	8.306	7.975	7.824	7.652	7.229	7.072	7.142	7.807	8.224	8.167	7.289	7.126	6.929	7.004	6.290	5.557	4.940	4.182	3.456	2.693	2.291	2.015	2.149	2.408	6.932	31.26	93.36	110.1	17.57	1.261	0.384	0.343	0.366	0.329
575.0	22.40	33.34	45.62	50.75	59.05	61.90	72.44	88.76	139.0	103.8	97.30	87.91	193.9	842.8	342.2	29.46	26.21	23.50	21.20	19.93	19.68	19.61	20.04	20.19	19.86	19.29	18.71	19.02	18.66	17.80	16.41	15.22	13.73	12.24	10.97	9.824	8.939	8.434	7.835	7.462	6.827	6.684	6.523	6.605	6.004	6.248	5.985	5.727	5.755	5.596	5.736	6.161	6.923	6.321	5.921	5.681	5.389	4.726	4.466	4.118	3.536	3.103	2.464	2.056	1.689	1.588	1.489	2.316	7.633	21.61	51.85	111.9	23.73	0.674	0.323	0.254	0.254
580.0	19.79	29.27	40.59	46.98	55.85	54.28	58.85	71.27	116.6	116.1	91.66	78.15	91.48	493.3	743.8	39.57	20.88	18.90	17.26	16.28	16.01	16.19	15.99	17.00	16.18	15.73	15.14	15.13	14.97	14.45	13.39	12.54	11.30	9.982	9.227	8.254	7.382	6.968	6.603	5.985	5.683	5.596	5.483	5.488	5.208	5.079	4.981	4.805	4.589	4.644	4.506	4.682	5.409	5.521	5.194	4.649	4.452	4.022	3.446	3.139	2.974	2.614	2.248	1.635	1.590	1.357	1.151	1.355	2.380	5.383	12.78	64.18	96.10	14.42	0.519	0.184	0.221
585.0	16.71	28.51	38.71	40.15	47.50	52.39	51.65	60.97	93.11	120.1	86.68	72.66	65.60	187.1	927.5	93.96	16.87	15.66	14.07	13.50	13.27	13.24	13.28	14.00	12.94	12.95	12.52	12.63	12.41	11.66	11.44	10.14	8.904	7.983	7.141	6.652	6.186	5.704	5.469	4.841	4.712	4.578	4.259	4.559	4.318	4.106	4.032	4.037	3.898	3.756	3.911	3.732	4.072	4.620	4.715	3.955	3.570	3.352	2.900	2.543	2.353	2.081	2.088	1.570	1.406	1.183	1.009	1.024	1.077	1.700	3.280	16.90	72.84	69.97	6.233	0.206	0.203
590.0	16.32	30.09	39.34	38.80	42.86	43.09	46.05	52.14	68.21	110.5	94.50	69.86	57.42	72.27	505.1	519.9	33.93	12.16	11.07	10.75	10.45	10.48	10.08	10.50	10.30	9.669	9.377	9.797	9.470	9.139	8.576	7.563	6.976	5.999	5.800	5.218	4.604	4.299	4.168	3.808	3.789	3.589	3.333	3.404	3.328	3.124	3.114	3.102	2.917	2.965	2.900	3.041	2.963	3.543	3.792	3.358	2.901	2.685	2.258	2.006	1.945	1.696	1.657	1.567	1.277	1.078	0.855	0.815	0.781	0.801	1.196	4.109	19.14	51.15	45.65	12.13	0.512
595.0	15.57	24.72	35.38	36.41	39.15	36.90	40.26	46.26	54.75	82.81	109.1	68.91	55.09	43.02	143.0	644.8	207.2	10.01	8.796	8.009	7.976	7.618	8.153	8.074	7.739	7.106	7.073	7.513	7.536	6.989	6.338	5.973	5.313	4.420	4.091	3.950	3.589	3.198	3.161	2.845	2.780	2.684	2.593	2.526	2.596	2.371	2.368	2.307	2.070	2.213	2.234	2.106	2.304	2.411	2.859	2.909	2.449	2.146	1.836	1.718	1.473	1.318	1.222	1.246	1.089	1.016	0.830	0.746	0.651	0.591	0.570	1.275	4.580	11.95	27.21	55.82	12.76
600.0	17.53	23.27	34.96	33.32	35.10	36.20	38.67	42.71	49.86	68.78	111.4	77.12	54.70	39.34	51.59	383.2	493.1	15.67	7.275	6.837	6.750	6.297	6.199	6.104	6.355	5.761	5.952	6.038	5.844	5.799	5.483	4.861	4.366	3.854	3.495	3.259	3.169	2.581	2.729	2.283	2.325	1.986	2.076	2.132	2.136	1.961	1.934	1.874	1.831	1.826	1.823	1.936	1.920	1.818	2.075	2.444	2.418	1.880	1.612	1.548	1.146	1.223	1.046	1.110	1.028	1.083	0.759	0.709	0.637	0.455	0.461	0.623	1.320	2.912	6.953	36.75	46.93
605.0	17.30	19.61	31.84	32.34	34.45	33.17	38.31	43.73	51.48	64.27	103.3	90.21	59.17	40.72	32.29	140.0	636.7	61.63	6.555	5.588	5.579	5.492	5.236	5.481	5.566	4.991	5.006	4.982	4.825	4.678	4.809	4.021	3.619	3.221	2.978	2.618	2.443	2.221	2.188	1.978	2.004	1.774	1.764	1.648	1.738	1.576	1.679	1.557	1.551	1.542	1.566	1.717	1.615	1.541	1.663	1.990	1.953	1.606	1.382	1.220	1.171	1.072	0.889	0.944	0.814	0.951	0.866	0.652	0.622	0.485	0.406	0.532	0.615	0.942	1.848	10.20	41.63
610.0	15.12	21.10	31.65	33.45	32.30	32.15	37.91	44.10	51.42	63.68	91.54	109.6	72.01	48.82	33.78	52.06	373.9	354.4	15.59	4.834	4.513	4.378	4.253	4.375	4.375	3.920	3.981	3.915	3.884	3.581	3.476	3.221	2.896	2.620	2.405	2.071	1.892	1.781	1.622	1.588	1.588	1.406	1.436	1.396	1.372	1.307	1.350	1.246	1.200	1.185	1.186	1.300	1.327	1.275	1.318	1.370	1.597	1.540	1.253	1.067	1.007	0.904	0.810	0.717	0.818	0.848	0.905	0.753	0.578	0.511	0.387	0.461	0.411	0.476	0.651	2.499	11.70
615.0	13.48	22.62	29.76	33.52	32.28	33.31	39.26	43.56	53.09	68.60	82.24	111.7	90.60	55.78	40.97	36.16	111.7	478.1	68.30	4.576	3.583	3.443	3.705	3.283	3.573	3.092	3.259	3.187	3.230	2.959	2.849	2.346	2.201	1.975	1.955	1.565	1.541	1.321	1.377	1.268	1.176	1.152	1.198	1.102	1.128	1.037	1.069	0.977	0.918	0.903	0.920	0.954	0.957	1.004	1.010	1.140	1.106	1.262	1.032	0.951	0.695	0.980	0.675	0.613	0.724	0.788	0.768	0.733	0.712	0.642	0.516	0.443	0.393	0.317	0.363	0.815	2.874
620.0	18.05	20.58	25.93	33.31	31.02	33.71	37.97	43.51	53.93	68.26	78.01	100.7	101.7	60.06	43.13	33.54	45.64	306.3	313.6	7.993	3.473	2.910	3.006	2.787	2.672	2.586	2.728	2.638	2.491	2.375	2.454	2.130	1.900	1.695	1.647	1.219	1.223	1.082	0.935	1.028	1.119	0.966	0.920	0.863	0.950	0.894	0.850	0.741	0.869	0.764	0.737	0.737	0.753	0.748	0.837	0.931	0.887	0.927	0.937	0.882	0.772	0.780	0.693	0.634	0.637	0.596	0.670	0.687	0.761	0.599	0.547	0.440	0.386	0.299	0.256	0.449	0.888
625.0	15.37	21.20	26.20	30.87	30.86	32.53	34.30	41.57	50.95	65.49	79.16	91.00	106.6	64.79	46.45	35.76	30.70	123.1	459.1	40.93	3.261	2.754	2.673	2.176	2.424	2.299	2.513	2.194	2.292	2.009	2.017	1.801	1.531	1.481	1.406	1.148	1.096	1.065	0.869	0.917	0.809	0.806	0.835	0.723	0.803	0.715	0.681	0.714	0.687	0.657	0.592	0.640	0.690	0.695	0.732	0.763	0.792	0.823	0.882	0.956	0.672	0.690	0.581	0.554	0.751	0.606	0.558	0.710	0.713	0.703	0.566	0.375	0.490	0.344	0.320	0.300	0.384
630.0	15.50	25.20	31.39	29.90	29.17	31.06	36.86	41.56	49.93	63.64	80.38	88.54	104.0	77.66	51.03	39.19	31.24	45.26	299.7	248.5	8.149	2.428	2.215	2.087	2.065	1.788	1.970	1.664	1.881	1.596	1.341	1.466	1.355	1.100	1.044	0.940	0.865	0.821	0.798	0.744	0.673	0.616	0.688	0.639	0.618	0.568	0.661	0.627	0.648	0.531	0.525	0.566	0.582	0.575	0.684	0.607	0.632	0.684	0.665	0.782	0.666	0.602	0.508	0.595	0.583	0.481	0.485	0.593	0.609	0.706	0.588	0.435	0.391	0.370	0.362	0.337	0.248
635.0	16.16	27.92	34.31	33.50	27.00	28.99	37.26	43.73	51.15	66.47	84.20	94.84	97.56	95.43	61.87	44.83	34.62	28.80	89.74	382.4	53.49	2.322	2.074	1.860	1.681	1.628	1.451	1.309	1.378	1.316	1.133	1.040	1.159	0.899	0.892	0.670	0.663	0.654	0.666	0.629	0.669	0.467	0.677	0.496	0.485	0.444	0.559	0.458	0.472	0.489	0.393	0.481	0.470	0.540	0.471	0.480	0.556	0.475	0.466	0.648	0.603	0.583	0.514	0.542	0.526	0.585	0.551	0.574	0.563	0.607	0.616	0.559	0.499	0.450	0.396	0.394	0.299
640.0	17.64	40.15	42.21	33.18	29.58	31.48	39.26	43.95	54.74	73.51	89.52	99.99	101.3	104.5	75.32	51.83	39.99	28.74	33.35	266.2	231.2	4.056	1.631	1.582	1.601	1.436	1.294	1.068	1.044	1.183	0.986	0.868	0.860	0.774	0.731	0.559	0.595	0.534	0.526	0.519	0.484	0.486	0.511	0.483	0.409	0.516	0.537	0.559	0.453	0.425	0.401	0.414	0.383	0.400	0.419	0.374	0.415	0.411	0.396	0.469	0.565	0.535	0.563	0.620	0.578	0.565	0.500	0.566	0.574	0.633	0.506	0.567	0.517	0.436	0.409	0.342	0.350
645.0	24.21	54.69	55.11	35.39	33.72	32.57	38.68	46.28	58.21	77.79	96.07	108.3	113.0	113.8	91.33	62.35	45.03	31.56	21.93	108.5	358.9	24.20	1.770	1.397	1.431	1.216	1.109	0.994	0.960	0.975	0.952	0.902	0.728	0.665	0.646	0.494	0.460	0.499	0.434	0.470	0.467	0.381	0.410	0.352	0.369	0.470	0.446	0.568	0.414	0.380	0.380	0.438	0.377	0.365	0.392	0.386	0.425	0.443	0.379	0.440	0.541	0.586	0.553	0.611	0.635	0.536	0.611	0.552	0.589	0.649	0.536	0.575	0.604	0.470	0.479	0.397	0.469
650.0	31.11	58.10	57.30	39.56	33.61	34.35	40.46	46.47	60.38	79.85	102.1	113.3	118.7	113.5	98.22	67.52	47.10	32.90	20.07	36.59	320.2	114.0	2.072	1.172	1.256	1.180	0.971	0.949	0.799	0.843	0.816	0.766	0.611	0.561	0.555	0.434	0.411	0.364	0.391	0.309	0.350	0.372	0.313	0.324	0.362	0.452	0.394	0.405	0.530	0.356	0.302	0.396	0.358	0.376	0.348	0.350	0.346	0.441	0.409	0.378	0.492	0.569	0.608	0.669	0.592	0.623	0.633	0.626	0.674	0.673	0.536	0.641	0.638	0.502	0.470	0.409	0.409
