Sample:	'1
File name:	C2024121017袁家屋子东南闸口.FD3
Run date:	'10:14:03, 12/11/2024
Operator:	Administrator
Comment:	'

Instrument
Model:	F-2700 FL Spectrophotometer
Serial number:	23B8-004
ROM Version:	4J14000 07

Instrument parameters
Measurement type:	3-D scan
Data mode:	Fluorescence
EX  Start WL:	220.0 nm
EX  End WL:	600.0 nm
EX Sampling interval:	5.0 nm
EM  Start WL:	230.0 nm
EM  End WL:	650.0 nm
EM Sampling interval:	5.0 nm
Scan speed:	12000 nm/min
EX Slit:	5.0 nm
EM Slit:	5.0 nm
PMT Voltage:	700 V
Response:	Auto 
Corrected spectra:	Off
Contour interval:	50.000

Peak integration
Integration method:	Rectangular
Sensitivity:	1
Threshold:	1.000

Peaks
No.	ApexEX/EM(nm)	Height(Data)
1	225.0/310.0	755.9
2	225.0/595.0	53.69
3	225.0/605.0	55.16
4	225.0/625.0	46.35
5	230.0/340.0	955.5
6	230.0/500.0	289.9
7	230.0/565.0	50.69
8	230.0/585.0	56.75
9	230.0/600.0	54.24
10	230.0/635.0	38.02
11	235.0/510.0	254.9
12	240.0/265.0	374.9
13	240.0/395.0	702.1
14	240.0/415.0	675.0
15	240.0/525.0	232.1
16	245.0/270.0	373.2
17	245.0/535.0	189.7
18	250.0/275.0	462.1
19	250.0/545.0	168.3
20	255.0/280.0	608.4
21	255.0/560.0	137.3
22	260.0/285.0	632.1
23	260.0/570.0	115.4
24	265.0/400.0	602.7
25	265.0/585.0	132.9
26	270.0/300.0	1563
27	270.0/600.0	127.3
28	275.0/305.0	1874
29	275.0/610.0	125.4
30	280.0/620.0	99.59
31	300.0/335.0	575.0
32	310.0/350.0	422.3
33	315.0/355.0	398.4
34	320.0/360.0	392.7
35	325.0/370.0	372.3
36	330.0/375.0	364.7
37	335.0/380.0	366.0
38	340.0/390.0	339.3
39	345.0/395.0	325.9
40	350.0/400.0	325.1
41	415.0/485.0	51.93
42	430.0/505.0	31.24
43	445.0/525.0	19.36
44	505.0/275.0	2.865
45	510.0/280.0	3.236
46	520.0/285.0	3.571
47	530.0/290.0	3.808
48	540.0/295.0	6.109
49	545.0/300.0	7.207
50	555.0/305.0	8.168
51	560.0/310.0	7.395
52	570.0/315.0	6.221

Data points
	220.0	225.0	230.0	235.0	240.0	245.0	250.0	255.0	260.0	265.0	270.0	275.0	280.0	285.0	290.0	295.0	300.0	305.0	310.0	315.0	320.0	325.0	330.0	335.0	340.0	345.0	350.0	355.0	360.0	365.0	370.0	375.0	380.0	385.0	390.0	395.0	400.0	405.0	410.0	415.0	420.0	425.0	430.0	435.0	440.0	445.0	450.0	455.0	460.0	465.0	470.0	475.0	480.0	485.0	490.0	495.0	500.0	505.0	510.0	515.0	520.0	525.0	530.0	535.0	540.0	545.0	550.0	555.0	560.0	565.0	570.0	575.0	580.0	585.0	590.0	595.0	600.0
230.0	31.58	625.8	2091	798.5	41.21	3.999	2.819	2.740	2.570	2.059	2.268	2.409	1.574	1.602	1.276	1.080	1.011	0.792	0.851	0.719	0.645	0.620	0.500	0.498	0.482	0.416	0.400	0.374	0.314	0.338	0.294	0.240	0.309	0.246	0.229	0.230	0.223	0.216	0.212	0.187	0.190	0.263	0.285	0.215	0.161	0.153	0.568	3.212	6.907	5.902	2.408	0.460	0.154	0.113	0.111	0.128	0.104	0.105	0.111	0.091	0.088	0.079	0.089	0.085	0.082	0.061	0.090	0.080	0.087	0.079	0.082	0.069	0.068	0.068	0.073	0.069	0.068
235.0	84.99	183.8	1156	2360	657.9	76.31	4.498	3.470	3.090	2.585	2.343	2.386	1.763	1.993	1.366	1.183	0.928	0.901	0.734	0.622	0.543	0.649	0.545	0.468	0.510	0.311	0.373	0.320	0.292	0.342	0.258	0.308	0.261	0.264	0.209	0.259	0.178	0.209	0.214	0.180	0.154	0.183	0.245	0.326	0.321	0.220	0.268	0.899	2.405	4.917	8.309	8.938	4.730	1.134	0.173	0.141	0.128	0.127	0.114	0.092	0.099	0.082	0.081	0.071	0.089	0.071	0.091	0.071	0.087	0.082	0.077	0.062	0.059	0.068	0.073	0.094	0.071
240.0	109.7	139.9	327.7	1715	2888	535.0	37.18	4.996	3.596	3.322	2.647	2.539	2.080	1.953	1.694	1.353	1.100	1.151	0.821	0.746	0.616	0.570	0.605	0.512	0.550	0.424	0.408	0.459	0.359	0.328	0.352	0.294	0.330	0.317	0.258	0.241	0.213	0.188	0.202	0.205	0.199	0.152	0.204	0.242	0.362	0.423	0.339	0.338	0.689	1.409	4.009	10.74	14.14	11.63	4.073	0.530	0.180	0.134	0.161	0.094	0.117	0.075	0.110	0.076	0.097	0.085	0.091	0.076	0.069	0.084	0.061	0.050	0.088	0.066	0.064	0.071	0.115
245.0	69.26	182.7	148.3	533.6	2667	3235	397.6	16.55	4.042	4.427	2.863	2.680	2.091	1.817	1.562	1.224	1.247	1.048	0.930	0.801	0.647	0.583	0.511	0.644	0.507	0.429	0.459	0.375	0.356	0.342	0.364	0.353	0.301	0.333	0.228	0.202	0.192	0.201	0.199	0.181	0.216	0.194	0.180	0.182	0.242	0.396	0.546	0.543	0.395	0.436	1.071	3.188	8.778	17.21	19.06	10.76	3.018	0.263	0.140	0.122	0.113	0.094	0.112	0.121	0.116	0.069	0.082	0.088	0.084	0.081	0.060	0.067	0.097	0.064	0.073	0.090	0.101
250.0	29.78	122.8	226.2	230.5	787.3	2586	3645	1408	90.37	6.683	4.189	3.701	3.336	2.258	1.867	1.342	1.329	1.108	0.934	0.771	0.753	0.623	0.515	0.600	0.554	0.493	0.465	0.419	0.380	0.341	0.346	0.327	0.338	0.320	0.262	0.226	0.201	0.234	0.222	0.218	0.227	0.195	0.193	0.206	0.222	0.245	0.326	0.507	0.756	0.691	0.670	0.920	2.175	5.117	10.19	15.94	21.84	18.83	10.82	3.024	0.341	0.165	0.116	0.138	0.123	0.086	0.118	0.086	0.084	0.090	0.083	0.094	0.104	0.062	0.085	0.086	0.094
255.0	18.50	43.79	135.4	316.6	297.9	630.0	2198	5473	1991	104.4	7.142	5.752	4.198	3.327	2.191	1.954	1.621	1.273	1.016	0.781	0.797	0.722	0.690	0.616	0.475	0.494	0.531	0.487	0.423	0.471	0.491	0.389	0.413	0.285	0.238	0.255	0.249	0.226	0.273	0.191	0.216	0.232	0.244	0.175	0.208	0.206	0.199	0.211	0.341	0.689	1.068	1.159	0.971	1.364	2.452	3.857	7.042	16.73	33.57	29.06	17.53	3.417	0.270	0.205	0.144	0.100	0.161	0.098	0.097	0.117	0.104	0.091	0.091	0.076	0.128	0.066	0.087
260.0	13.44	23.94	51.82	240.1	369.0	218.4	608.8	3616	6410	1548	48.12	7.475	5.212	3.851	3.039	2.133	1.687	1.540	1.045	0.937	0.898	0.654	0.651	0.610	0.561	0.590	0.565	0.537	0.470	0.452	0.485	0.387	0.339	0.312	0.286	0.237	0.226	0.256	0.198	0.255	0.159	0.248	0.237	0.198	0.187	0.184	0.166	0.152	0.183	0.288	0.589	1.342	1.684	0.992	0.755	1.061	1.800	4.343	13.02	28.70	46.46	28.30	13.53	1.890	0.228	0.140	0.150	0.124	0.114	0.097	0.140	0.108	0.126	0.125	0.105	0.103	0.107
265.0	17.31	18.42	22.85	102.3	374.9	296.7	185.5	1088	5358	6727	254.5	17.95	6.974	5.361	3.717	2.421	2.001	1.556	1.144	1.187	0.985	0.896	0.766	0.754	0.637	0.612	0.603	0.527	0.527	0.566	0.438	0.457	0.363	0.373	0.362	0.319	0.307	0.274	0.230	0.193	0.170	0.256	0.175	0.209	0.210	0.188	0.197	0.172	0.195	0.192	0.261	0.639	1.297	1.636	1.366	0.700	0.681	1.252	3.196	7.996	22.49	42.44	55.22	25.41	8.812	0.632	0.238	0.140	0.139	0.121	0.124	0.136	0.124	0.142	0.101	0.103	0.113
270.0	34.71	30.74	27.79	43.75	159.6	373.2	335.8	314.5	1536	5090	7136	2514	62.49	7.944	4.948	3.355	2.825	1.944	1.423	1.371	1.187	1.066	0.896	0.827	0.762	0.733	0.708	0.597	0.536	0.623	0.493	0.489	0.440	0.405	0.421	0.324	0.298	0.261	0.262	0.230	0.244	0.288	0.199	0.267	0.225	0.213	0.239	0.234	0.189	0.229	0.191	0.343	0.512	0.894	1.487	1.813	1.719	1.124	1.139	2.065	5.374	11.69	24.19	37.07	49.56	43.69	17.04	7.496	0.939	0.272	0.207	0.175	0.194	0.131	0.160	0.134	0.121
275.0	65.08	79.77	67.81	49.01	69.06	163.6	462.1	388.6	407.6	1228	3930	9999.9	1367	68.73	7.382	5.225	3.527	2.447	2.152	1.561	1.313	1.223	1.168	1.089	0.792	0.720	0.662	0.640	0.577	0.586	0.459	0.569	0.473	0.522	0.538	0.414	0.357	0.310	0.350	0.287	0.265	0.313	0.293	0.265	0.294	0.357	0.349	0.336	0.341	0.332	0.235	0.280	0.297	0.412	0.656	0.866	1.788	2.865	2.203	1.220	1.520	2.861	5.665	8.771	13.33	26.78	57.55	74.97	27.50	9.828	0.683	0.233	0.228	0.172	0.150	0.145	0.210
280.0	122.5	150.7	119.4	83.56	66.05	89.48	268.7	608.4	311.4	356.9	1082	6209	9803	1007	31.91	7.251	4.256	3.296	2.366	1.944	1.423	1.328	1.022	0.933	0.819	0.868	0.808	0.719	0.530	0.739	0.613	0.604	0.527	0.515	0.622	0.433	0.461	0.429	0.386	0.363	0.301	0.356	0.340	0.363	0.381	0.432	0.498	0.516	0.509	0.373	0.299	0.362	0.361	0.336	0.432	0.499	0.844	1.796	3.236	3.084	1.862	1.167	1.687	2.492	3.435	6.771	18.16	46.18	73.48	75.18	23.59	5.751	0.417	0.253	0.208	0.205	0.230
285.0	187.1	233.7	198.5	124.7	90.72	82.05	139.0	456.1	632.1	279.9	416.5	1863	8035	8300	132.4	15.27	6.154	4.047	2.850	2.147	1.840	1.397	1.209	1.069	0.981	0.908	0.948	0.755	0.614	0.653	0.589	0.576	0.549	0.565	0.683	0.575	0.559	0.499	0.449	0.349	0.417	0.379	0.489	0.481	0.525	0.610	0.653	0.666	0.609	0.579	0.440	0.444	0.455	0.335	0.446	0.486	0.535	0.873	1.532	2.898	3.571	2.423	1.241	1.296	1.625	2.476	4.923	11.99	27.37	60.79	82.46	33.66	18.68	2.625	0.336	0.314	0.296
290.0	315.9	401.1	371.9	227.5	143.0	117.1	136.0	264.1	618.4	811.4	600.3	865.8	2503	6293	7263	2153	36.59	6.001	3.944	3.155	2.260	1.836	1.618	1.272	1.202	1.104	0.994	0.870	0.774	0.791	0.645	0.669	0.664	0.718	0.819	0.812	0.681	0.611	0.526	0.520	0.463	0.486	0.596	0.600	0.710	0.938	0.989	1.089	1.082	0.841	0.715	0.605	0.571	0.564	0.567	0.572	0.643	0.776	1.002	1.436	2.287	3.130	3.808	3.377	2.666	2.627	2.940	4.552	7.977	16.27	28.94	40.10	60.98	52.16	45.78	13.49	3.496
295.0	442.5	577.0	553.9	336.1	206.7	166.3	186.8	275.1	467.4	940.9	1295	983.8	1178	1751	3853	9099	738.9	39.29	6.610	4.465	3.098	2.153	1.823	1.604	1.331	1.182	1.071	1.099	0.777	0.834	0.847	0.687	0.775	0.751	0.931	1.006	0.921	0.770	0.641	0.613	0.581	0.633	0.654	0.809	0.922	1.087	1.267	1.561	1.381	1.144	1.060	0.931	0.766	0.753	0.806	0.687	0.775	0.861	1.097	1.304	1.847	2.410	3.068	4.511	6.109	5.626	4.104	4.127	4.754	6.190	8.625	10.33	15.26	21.96	53.23	86.76	35.95
300.0	479.7	672.0	650.8	415.8	245.3	204.9	229.1	322.3	499.2	853.0	1563	1448	1026	799.4	1090	5516	8247	593.4	18.30	5.955	3.804	2.651	2.260	1.786	1.649	1.044	1.462	1.334	0.938	0.928	0.831	0.787	0.697	0.803	1.076	1.013	1.019	0.932	0.802	0.579	0.698	0.722	0.778	0.881	1.007	1.440	1.539	1.849	1.644	1.464	1.130	1.128	0.855	0.843	0.883	0.823	1.018	1.044	1.488	1.678	1.943	2.403	2.806	3.896	5.491	7.207	6.798	5.524	4.545	4.489	4.535	4.158	4.617	5.956	14.36	37.28	67.66
305.0	514.3	744.6	717.0	450.9	281.0	240.2	278.3	378.1	565.0	861.3	1395	1874	1248	667.7	442.6	1564	6787	5229	79.70	9.965	4.998	3.391	2.740	2.222	1.781	1.493	1.366	1.234	1.146	1.003	0.883	0.744	0.817	0.889	1.046	1.125	0.941	0.966	0.777	0.633	0.749	0.773	0.735	0.902	1.019	1.626	1.623	1.999	1.951	1.622	1.248	1.287	1.039	0.993	0.880	1.033	1.049	1.302	1.598	2.170	2.355	2.647	3.257	3.934	4.711	6.037	7.763	8.168	6.196	4.982	3.912	2.887	2.564	2.556	4.019	9.213	20.47
310.0	549.9	755.9	714.9	487.7	309.8	262.0	308.0	420.0	607.5	887.9	1233	1624	1608	834.1	350.4	479.9	1881	4804	5523	1547	24.70	5.529	3.553	2.809	2.140	1.742	1.385	1.363	1.142	0.989	0.874	0.866	0.855	0.997	1.145	1.218	1.160	1.010	0.753	0.673	0.726	0.748	0.839	0.921	1.054	1.515	1.584	2.021	1.906	1.669	1.344	1.305	1.184	1.135	1.031	1.185	1.168	1.437	1.695	2.092	2.372	2.891	3.594	4.103	4.690	5.337	6.119	7.048	7.395	7.183	5.452	3.513	2.388	1.898	1.938	2.902	5.335
315.0	524.3	703.8	693.8	484.6	318.0	292.7	336.4	435.9	608.0	875.3	1151	1339	1374	1155	474.6	276.0	533.7	1166	3164	7193	515.5	26.98	4.956	3.982	2.709	1.981	1.770	1.723	1.393	1.264	1.007	0.979	0.873	1.071	1.220	1.171	1.061	0.910	0.865	0.748	0.685	0.789	0.854	0.912	1.113	1.469	1.630	1.943	1.876	1.527	1.342	1.295	1.222	1.188	1.084	1.230	1.350	1.754	1.804	2.037	2.371	2.774	3.313	3.896	4.096	5.067	5.315	5.496	5.628	5.864	6.221	5.405	3.888	2.205	1.651	1.640	2.152
320.0	502.2	722.1	730.2	497.6	343.2	312.0	357.6	453.2	614.6	839.3	1091	1240	1175	1075	741.1	294.5	259.8	350.7	830.5	4513	6338	432.1	12.94	4.906	3.305	2.527	2.007	1.860	1.415	1.192	1.174	1.066	1.025	1.044	1.222	1.031	1.040	0.912	0.854	0.719	0.707	0.680	0.803	0.903	1.129	1.501	1.612	1.891	2.057	1.744	1.383	1.281	1.229	1.245	1.261	1.204	1.415	1.689	1.764	2.080	2.413	2.718	3.559	3.882	3.909	4.889	4.899	4.929	5.035	5.219	4.596	4.990	5.100	4.098	2.361	1.672	1.556
325.0	515.0	739.5	810.7	571.1	377.6	337.1	373.3	462.8	605.4	818.8	1054	1177	1081	878.1	846.4	467.5	229.7	183.8	249.1	1256	5378	3873	61.04	7.244	4.100	3.260	2.322	1.997	1.712	1.340	1.200	1.098	0.979	1.069	1.191	0.996	0.971	0.953	0.703	0.673	0.648	0.768	0.703	0.916	1.134	1.518	1.615	1.915	2.188	1.777	1.481	1.536	1.430	1.321	1.441	1.312	1.425	1.742	1.619	2.135	2.353	2.702	3.348	3.642	3.878	4.598	4.557	4.896	4.676	4.772	4.258	3.884	3.987	4.714	4.051	2.488	1.669
330.0	516.5	770.9	869.0	673.1	463.4	367.9	391.8	476.8	597.5	780.4	990.3	1081	1010	782.4	663.4	632.7	394.5	189.1	144.7	340.6	1478	3728	4390	1283	20.67	4.635	3.219	2.383	1.962	1.610	1.461	1.228	1.122	1.089	1.075	1.008	0.958	0.912	0.736	0.717	0.768	0.770	0.743	0.974	1.173	1.499	1.730	2.207	2.318	1.981	1.679	1.794	1.782	1.345	1.563	1.348	1.633	1.794	1.869	2.168	2.392	2.617	3.137	3.440	3.645	4.356	4.191	4.580	4.555	4.312	3.906	3.505	3.056	3.437	3.492	3.558	3.423
335.0	489.2	786.1	903.6	746.4	529.5	425.9	416.5	495.9	589.0	742.7	915.4	1011	952.2	759.5	588.3	517.5	575.0	328.8	155.5	160.4	386.4	892.8	2634	5968	421.5	22.91	4.514	2.987	2.471	1.810	1.567	1.398	1.266	1.199	1.039	1.205	0.963	0.841	0.758	0.670	0.728	0.842	0.860	0.964	1.092	1.420	1.789	2.272	2.309	2.234	1.893	2.170	2.005	1.687	1.651	1.534	1.717	1.673	1.976	2.093	2.373	2.695	2.959	3.115	3.672	4.130	3.925	4.194	4.360	4.041	3.951	3.558	3.247	2.957	2.911	2.726	3.228
340.0	492.8	776.5	955.5	782.6	576.8	461.0	440.8	513.1	589.7	726.1	858.9	949.5	901.0	751.9	582.2	467.9	497.7	491.8	222.1	139.5	158.6	252.0	695.2	3843	5316	370.3	11.00	4.042	3.020	2.376	1.784	1.665	1.405	1.101	1.164	1.098	0.934	0.871	0.747	0.779	0.614	0.815	0.910	0.945	1.184	1.349	1.717	2.118	2.320	2.205	2.091	2.268	2.071	1.825	1.758	1.683	1.680	1.807	2.078	2.064	2.238	2.530	2.895	3.294	3.418	3.562	3.732	4.217	4.160	3.944	3.715	3.472	3.160	2.907	2.783	2.462	2.569
345.0	443.5	728.3	919.5	783.3	606.5	476.8	463.6	505.7	580.0	701.1	809.9	890.1	850.9	721.0	577.4	462.7	412.5	489.7	364.2	166.0	126.7	120.3	202.9	1076	4597	3267	52.97	6.214	3.616	2.481	2.195	1.884	1.471	1.395	1.201	1.008	0.965	0.819	0.765	0.799	0.736	0.763	0.753	0.871	1.162	1.327	1.498	1.973	2.257	2.277	2.080	2.186	2.223	1.881	1.820	1.634	1.931	1.887	1.920	2.046	2.235	2.523	2.797	3.113	3.291	3.472	3.396	3.717	3.648	3.724	3.560	3.146	2.881	3.028	2.622	2.367	2.463
350.0	436.2	692.3	850.8	783.6	635.3	515.9	495.4	514.3	579.8	659.5	749.6	817.1	793.9	695.8	576.3	475.0	397.1	384.2	422.3	306.5	164.0	118.5	111.7	288.6	1290	3201	3634	1083	18.46	3.645	2.571	1.948	1.589	1.401	1.141	1.003	0.912	0.842	0.761	0.761	0.720	0.706	0.747	0.871	1.021	1.277	1.502	1.939	1.995	2.135	2.028	2.128	2.213	2.037	1.954	1.709	1.892	1.943	2.049	2.104	2.191	2.514	2.829	2.953	3.017	3.252	3.225	3.428	3.340	3.373	3.424	3.092	2.983	3.005	2.699	2.498	2.568
355.0	387.4	627.0	794.3	779.4	632.9	555.0	516.8	521.4	561.4	631.8	706.1	758.4	742.3	665.7	577.1	488.3	417.4	364.1	345.5	398.4	290.6	158.1	119.4	135.3	335.9	768.5	2274	4843	391.0	20.67	3.502	2.583	1.846	1.407	1.283	1.095	1.001	0.917	0.851	0.785	0.729	0.613	0.813	0.894	1.066	1.273	1.369	1.785	2.030	2.044	1.883	2.165	2.200	2.197	1.967	1.878	2.022	2.215	2.013	2.023	2.342	2.454	2.745	2.731	2.883	3.056	3.062	3.241	3.180	3.370	3.354	3.076	3.052	3.039	2.490	2.359	2.729
360.0	395.1	595.0	752.3	752.3	652.0	577.0	536.2	521.6	567.7	619.6	684.5	713.7	712.8	650.2	572.2	495.1	431.9	379.6	333.5	363.2	392.7	231.9	144.8	119.3	137.5	214.9	609.4	3283	4442	343.3	10.51	3.336	2.158	1.707	1.462	1.158	1.056	0.926	0.717	0.767	0.723	0.675	0.783	0.879	0.948	1.136	1.320	1.733	1.959	1.994	1.825	2.260	2.069	2.031	2.122	2.036	1.925	2.133	2.181	2.090	2.389	2.541	2.675	2.694	2.778	2.893	3.001	2.944	3.040	3.149	3.150	2.882	3.262	2.980	2.637	2.759	2.703
365.0	382.2	592.1	706.7	739.7	662.9	591.2	549.7	538.4	569.4	621.5	660.4	689.9	682.6	633.0	566.2	504.5	444.3	397.4	353.5	330.2	382.9	342.1	187.9	135.4	110.8	105.4	177.8	943.1	4036	3032	49.33	5.348	2.710	2.107	1.582	1.376	1.078	1.025	0.838	0.839	0.663	0.698	0.745	0.870	0.871	1.054	1.303	1.558	1.864	1.882	1.818	2.244	2.267	2.150	1.954	1.854	2.054	2.020	2.051	2.193	2.216	2.526	2.453	2.651	2.617	2.819	2.637	2.880	3.098	3.023	2.903	2.902	2.864	2.941	2.729	2.858	2.595
370.0	372.6	536.2	682.8	717.6	666.3	618.1	576.2	557.9	570.3	604.0	644.7	655.3	656.1	617.6	561.5	509.5	466.7	422.0	385.1	347.3	337.2	372.3	309.2	190.3	134.6	104.6	98.48	252.7	1149	2953	3340	985.5	16.39	3.132	2.011	1.544	1.277	1.198	0.932	0.853	0.788	0.807	0.728	0.805	0.911	1.016	1.190	1.609	1.875	1.758	1.738	2.231	2.314	2.262	2.183	2.165	2.203	2.289	2.213	2.353	2.320	2.546	2.552	2.528	2.664	2.761	2.722	2.696	2.882	2.883	2.997	2.842	2.766	2.784	2.758	2.772	2.729
375.0	364.0	514.3	644.6	704.9	687.0	647.3	603.0	573.1	577.9	595.7	630.6	638.7	634.6	606.0	563.7	515.0	481.2	445.7	414.1	380.7	348.4	336.6	364.7	303.1	179.7	131.8	106.4	115.8	298.0	709.8	2089	4269	337.1	19.30	3.014	2.103	1.522	1.086	1.118	0.923	0.889	0.753	0.800	0.831	0.963	0.981	1.216	1.523	1.781	1.641	1.829	2.097	2.186	2.267	2.090	2.292	2.307	2.185	2.130	2.113	2.262	2.423	2.484	2.607	2.655	2.618	2.719	2.586	2.854	2.738	2.764	2.960	2.831	2.886	2.785	2.859	2.790
380.0	339.3	535.4	659.1	697.1	683.3	645.7	602.7	583.4	585.7	588.8	620.5	631.2	621.7	588.6	551.3	515.9	489.0	457.7	432.3	401.8	367.3	336.6	343.5	366.0	249.7	161.2	125.7	102.1	120.8	197.7	559.1	2848	3711	293.3	9.760	2.788	1.893	1.433	1.320	1.063	0.857	0.964	0.873	0.779	0.943	0.966	1.180	1.414	1.774	1.629	1.727	2.155	2.072	2.395	2.141	2.224	2.427	2.224	2.328	2.279	2.235	2.486	2.565	2.652	2.675	2.569	2.667	2.386	2.688	2.749	2.593	2.728	2.683	2.769	2.700	2.778	3.015
385.0	345.6	497.2	632.4	695.1	690.6	648.7	616.1	591.1	594.2	589.3	619.0	610.7	606.9	589.9	549.9	517.9	495.1	469.9	448.2	419.7	384.3	350.5	329.0	353.9	327.5	204.9	148.7	115.3	98.26	93.86	162.7	811.1	3236	2539	219.3	5.022	2.410	1.756	1.369	1.177	0.934	0.949	0.827	0.872	0.900	1.062	1.132	1.572	1.686	1.573	1.773	2.320	2.143	2.253	2.177	2.166	2.344	2.432	2.261	2.269	2.508	2.440	2.575	2.576	2.507	2.664	2.774	2.456	2.471	2.768	2.632	2.703	2.773	2.842	2.427	2.868	2.962
390.0	351.0	504.1	637.3	678.5	687.2	657.8	618.9	598.4	589.9	592.1	605.1	609.0	591.4	575.0	543.9	515.2	494.7	478.8	458.5	435.1	403.6	371.1	343.7	328.7	339.3	297.6	200.4	145.7	115.4	93.81	88.48	217.1	904.2	2258	2593	800.8	14.72	2.558	1.717	1.353	1.005	0.911	0.888	0.836	0.952	1.210	1.225	1.489	1.663	1.653	1.691	2.125	2.324	2.459	2.184	2.200	2.472	2.465	2.413	2.352	2.338	2.458	2.535	2.567	2.434	2.474	2.561	2.517	2.530	2.548	2.696	2.803	2.599	2.720	2.515	2.817	2.815
395.0	323.2	478.8	620.1	687.9	702.1	663.2	632.1	599.9	595.6	600.5	601.7	593.9	591.2	570.2	537.2	509.6	497.2	478.9	464.9	445.7	419.5	394.4	364.6	337.6	313.5	325.9	286.7	192.1	145.9	118.3	93.53	98.33	236.5	544.3	1515	3222	1097	17.99	2.621	1.615	1.230	1.134	1.173	0.927	0.923	1.239	1.313	1.330	1.602	1.626	1.631	2.295	2.324	2.322	2.414	2.261	2.335	2.353	2.481	2.522	2.351	2.433	2.511	2.588	2.514	2.451	2.579	2.648	2.582	2.552	2.581	2.551	2.484	2.811	2.634	2.876	2.875
400.0	327.1	490.3	609.9	673.3	669.1	668.1	644.5	612.2	595.8	602.7	602.7	594.9	584.7	561.1	532.2	506.3	492.0	477.5	466.9	445.3	424.4	402.5	378.2	351.0	319.7	308.3	325.1	247.2	171.5	137.8	107.6	83.33	95.26	152.4	401.2	2023	3020	258.7	10.35	2.105	1.466	1.269	1.091	0.905	1.005	1.180	1.191	1.334	1.618	1.595	1.688	2.212	2.364	2.304	2.347	2.327	2.612	2.560	2.485	2.290	2.539	2.349	2.440	2.523	2.408	2.650	2.542	2.548	2.432	2.464	2.741	2.672	2.564	2.653	2.610	2.732	2.850
405.0	331.6	493.2	604.0	668.6	671.7	666.3	653.3	619.0	604.0	596.7	598.4	585.5	579.9	558.0	519.6	503.3	486.2	473.5	460.3	442.4	427.8	404.3	384.2	360.6	331.8	306.9	312.5	299.9	209.8	154.0	121.7	89.80	71.48	70.25	114.5	557.7	2321	2173	204.6	4.575	1.877	1.453	1.165	1.019	1.043	1.298	1.214	1.338	1.669	1.472	1.721	2.123	2.288	2.264	2.436	2.142	2.693	2.406	2.550	2.237	2.420	2.290	2.421	2.488	2.413	2.527	2.418	2.571	2.464	2.576	2.397	2.684	2.559	2.659	2.555	2.610	2.777
410.0	323.6	466.1	572.8	666.5	670.7	666.7	640.7	621.0	602.6	597.3	599.3	583.8	570.3	548.2	514.3	488.7	473.5	461.2	449.5	437.5	422.6	404.5	387.0	368.7	339.4	313.3	294.6	295.7	272.4	197.3	142.1	104.8	76.60	60.79	57.34	145.9	624.9	1666	2089	731.7	13.85	2.087	1.403	1.192	1.108	1.236	1.274	1.442	1.518	1.625	1.630	2.032	2.289	2.340	2.341	2.191	2.639	2.563	2.416	2.417	2.466	2.470	2.523	2.497	2.421	2.271	2.381	2.411	2.490	2.410	2.536	2.487	2.634	2.471	2.451	2.551	2.665
415.0	304.6	457.0	556.7	641.9	675.0	651.3	628.0	626.8	603.9	589.3	598.6	570.5	551.1	534.5	499.2	479.2	452.3	440.6	432.0	423.5	410.4	393.7	382.8	363.9	342.5	317.6	293.1	275.2	280.2	254.6	172.7	121.5	90.56	69.13	52.32	59.34	157.4	391.9	1074	2440	980.8	18.53	2.128	1.545	1.290	1.251	1.263	1.520	1.554	1.618	1.681	2.100	2.180	2.333	2.373	2.240	2.315	2.506	2.456	2.547	2.581	2.456	2.503	2.514	2.212	2.415	2.277	2.279	2.368	2.477	2.324	2.507	2.536	2.548	2.460	2.288	2.562
420.0	298.2	435.9	545.5	626.3	642.2	643.0	625.8	610.9	594.8	584.7	576.6	563.6	537.9	512.1	487.4	458.6	432.6	425.5	420.3	406.7	394.2	382.1	373.6	358.4	339.2	315.9	291.1	267.8	258.9	267.0	209.3	134.5	100.6	76.32	56.11	44.33	56.43	102.0	272.0	1404	2268	250.7	11.00	1.984	1.577	1.428	1.285	1.502	1.484	1.653	1.753	1.965	2.211	2.165	2.232	2.110	2.171	2.531	2.341	2.485	2.549	2.616	2.285	2.723	2.274	2.424	2.374	2.304	2.269	2.347	2.443	2.596	2.328	2.409	2.675	2.398	2.405
425.0	303.2	414.1	538.5	618.7	619.8	622.4	616.7	605.6	587.8	584.6	570.3	550.7	526.0	502.9	472.2	444.4	419.7	410.8	404.7	391.6	384.5	370.1	362.8	350.2	332.5	311.4	292.0	267.6	249.4	249.4	236.9	158.8	107.3	83.09	60.96	44.25	37.63	39.92	73.30	373.0	1646	2007	203.4	4.711	1.813	1.635	1.381	1.478	1.543	1.595	1.656	1.864	2.086	2.083	2.195	2.166	2.364	2.534	2.455	2.461	2.380	2.364	2.469	2.391	2.448	2.392	2.183	2.150	2.159	2.263	2.457	2.271	2.482	2.313	2.309	2.287	2.262
430.0	354.5	406.7	529.1	584.7	602.3	606.4	615.0	593.7	582.6	573.5	555.7	540.9	513.6	480.0	452.3	422.7	402.0	391.1	385.1	374.2	366.4	356.1	351.4	337.8	325.4	306.0	287.1	268.1	245.9	230.0	221.7	193.7	132.7	93.20	69.30	51.25	39.17	30.71	32.05	94.75	428.5	1296	1773	690.0	14.05	2.140	1.724	1.660	1.616	1.640	1.652	2.019	2.107	2.079	2.327	2.144	2.322	2.305	2.341	2.274	2.379	2.292	2.379	2.379	2.432	2.248	2.185	2.163	2.144	2.281	2.261	2.141	2.302	2.287	2.189	2.215	2.380
435.0	595.2	393.9	496.2	558.9	587.0	605.3	610.1	594.6	572.5	559.0	556.5	528.6	490.9	465.7	430.0	403.0	385.5	377.3	365.4	355.2	347.4	341.9	335.0	324.3	313.3	298.1	283.1	269.7	245.4	227.3	203.3	189.6	165.2	113.1	78.40	59.76	44.29	33.32	27.54	35.06	105.9	300.5	807.6	2146	1023	19.74	2.232	1.893	1.727	1.645	1.601	1.991	2.063	1.921	2.204	2.155	2.413	2.456	2.158	2.325	2.553	2.266	2.327	2.341	2.233	2.130	2.098	2.265	2.057	2.052	2.193	2.054	2.227	2.112	2.176	2.058	2.133
440.0	823.0	483.1	478.2	543.2	582.8	578.6	589.7	580.8	567.9	559.2	543.8	522.5	485.6	455.8	417.0	383.8	369.3	361.7	351.3	341.8	332.1	327.8	321.7	315.0	305.6	291.6	278.0	261.5	244.4	223.8	198.1	173.9	171.8	137.4	88.66	65.01	48.92	37.79	28.93	24.12	36.74	76.67	199.5	1153	2166	240.7	12.23	2.099	1.785	1.670	1.697	1.910	1.810	2.174	1.994	2.157	2.299	2.308	2.458	2.342	2.358	2.311	2.269	2.187	2.280	2.159	2.215	2.019	2.157	2.053	1.982	2.201	2.010	2.134	1.943	2.031	2.170
445.0	829.7	740.1	472.1	517.0	555.6	565.8	564.8	570.6	567.5	549.2	538.4	505.6	475.3	439.2	401.0	370.8	351.7	345.3	330.7	322.5	315.5	307.8	308.7	302.1	293.3	282.0	269.7	256.1	240.8	220.5	196.0	166.3	157.3	150.1	104.3	70.72	52.29	41.62	32.10	24.79	22.92	28.29	53.39	297.0	1445	1910	189.7	7.065	2.173	1.583	1.667	2.064	1.884	2.074	2.122	2.142	2.429	2.236	2.234	2.315	2.288	2.410	2.244	2.233	2.049	2.223	2.078	2.110	2.181	2.009	2.027	1.912	1.974	2.041	1.888	1.977	2.258
450.0	529.8	1196	635.8	489.4	524.0	527.4	535.5	552.8	533.9	526.4	512.8	476.9	443.4	414.1	376.0	350.8	327.7	316.5	309.4	301.7	289.1	285.6	284.9	279.4	271.7	262.3	252.5	242.2	227.9	213.7	189.8	162.2	141.0	136.0	121.1	86.16	59.78	46.42	36.05	28.44	22.82	19.59	22.17	74.31	366.7	1146	1638	767.9	13.33	2.232	1.844	2.000	2.086	2.002	2.016	1.979	2.170	2.125	2.194	2.173	2.185	2.247	2.255	2.261	2.103	2.021	2.028	1.977	2.069	2.012	1.917	2.030	1.946	1.930	1.824	1.789	2.014
455.0	275.7	1151	1280	505.2	492.6	498.1	520.2	522.0	503.8	500.7	482.6	449.9	415.6	384.6	344.7	320.3	302.6	293.8	280.9	275.7	265.3	256.8	256.0	255.9	247.4	240.0	236.5	223.9	215.2	202.4	181.6	157.6	133.8	118.4	113.0	103.1	70.91	50.21	39.54	31.07	25.39	20.38	16.76	25.86	89.12	263.3	652.3	1887	984.4	17.10	2.281	2.272	2.154	2.039	2.057	1.846	2.140	2.075	2.243	2.035	1.985	2.210	2.228	1.983	2.018	2.031	1.771	1.871	2.005	1.873	1.804	1.741	1.963	1.822	1.838	1.726	1.924
460.0	221.0	714.6	1778	691.6	445.8	484.5	483.3	490.9	482.7	472.9	454.7	428.4	397.4	359.4	319.3	297.5	283.5	272.7	260.2	256.1	245.7	240.1	235.9	233.2	226.7	224.8	219.8	210.6	202.6	193.8	172.1	151.5	130.3	112.9	101.2	101.5	83.24	55.87	42.17	33.48	27.26	21.08	17.44	16.55	28.14	65.42	156.9	888.4	1972	702.8	12.46	2.490	2.196	1.924	1.894	1.932	2.151	1.994	2.026	1.969	2.044	2.108	2.085	2.063	1.988	1.983	1.859	1.777	2.004	1.692	1.767	1.639	1.865	1.815	1.584	1.753	1.687
465.0	222.6	414.7	1727	1054	435.1	450.8	447.3	465.3	456.7	442.5	427.4	405.9	369.6	333.7	301.2	277.8	263.2	251.6	241.4	234.4	225.7	224.1	220.0	216.9	212.3	210.3	203.2	196.4	191.1	182.8	165.3	146.8	126.5	107.7	93.41	88.96	87.37	64.32	44.30	34.89	28.73	21.58	18.08	14.93	15.48	22.08	41.22	220.6	1159	1591	166.3	9.872	2.393	1.890	1.927	1.916	2.203	1.820	1.872	1.866	1.957	1.926	1.793	1.889	1.949	1.792	1.654	1.755	1.568	1.628	1.755	1.654	1.560	1.633	1.470	1.607	1.547
470.0	198.2	283.1	963.5	1855	657.3	409.3	424.1	424.7	419.5	406.8	392.8	372.3	338.6	304.6	273.4	252.7	237.7	226.0	217.1	210.5	201.7	199.7	194.4	194.6	193.0	188.9	182.3	180.0	173.7	167.4	152.4	136.8	119.4	102.6	87.91	77.84	74.77	70.20	51.87	37.25	29.28	23.49	19.72	15.93	13.79	13.29	16.11	54.74	286.3	856.8	1196	696.1	14.94	2.505	2.054	1.889	2.050	2.006	1.840	1.812	1.896	1.792	1.768	1.695	1.790	1.680	1.574	1.525	1.511	1.486	1.679	1.447	1.441	1.361	1.418	1.444	1.469
475.0	195.0	233.8	444.6	1573	1623	419.4	376.4	382.9	384.7	371.5	361.1	341.1	303.7	278.4	246.6	227.1	211.1	203.7	192.1	185.8	178.4	175.2	172.3	171.8	168.6	165.9	162.3	160.2	155.0	150.5	139.3	124.7	110.4	96.77	83.65	70.90	64.26	61.87	59.93	43.81	30.40	24.75	20.70	17.00	14.48	12.26	10.98	18.16	68.72	195.6	406.3	1277	862.2	21.29	2.560	2.040	1.938	1.832	1.798	1.640	1.718	1.690	1.639	1.484	1.643	1.445	1.462	1.337	1.336	1.347	1.387	1.233	1.315	1.292	1.301	1.216	1.311
480.0	193.7	233.5	303.9	916.7	2225	615.4	349.6	362.9	356.5	342.2	334.6	315.0	281.3	257.6	229.1	203.6	193.1	183.6	177.1	170.4	164.1	159.8	158.5	156.0	154.5	152.2	148.4	146.9	144.0	139.5	130.2	118.1	103.4	91.60	80.45	68.45	59.85	53.69	56.97	50.30	33.94	25.91	21.45	17.91	14.76	12.56	10.72	10.15	20.74	47.89	96.16	506.9	1488	721.7	16.56	2.028	1.897	1.883	1.738	1.735	1.559	1.691	1.610	1.393	1.562	1.387	1.355	1.349	1.414	1.256	1.198	1.286	1.336	1.201	1.209	1.170	1.248
485.0	169.7	248.1	255.5	453.9	2046	1323	345.8	337.7	330.9	327.7	318.2	301.5	264.5	243.3	215.6	194.1	180.9	169.6	164.1	156.9	151.2	146.0	145.2	144.6	141.7	141.0	139.1	136.5	135.3	131.6	122.6	112.7	99.47	88.21	76.68	66.52	58.20	51.32	49.62	51.93	39.38	26.92	21.45	18.23	15.46	12.92	11.13	9.440	10.23	15.18	25.43	122.4	763.6	1502	205.1	10.61	2.259	1.782	1.710	1.621	1.784	1.487	1.426	1.314	1.509	1.386	1.273	1.405	1.293	1.286	1.164	1.039	1.220	1.188	1.150	1.200	1.056
490.0	129.8	248.3	268.3	304.1	1069	2106	660.3	311.8	306.4	301.0	293.5	276.3	249.6	225.0	195.5	180.8	165.7	154.6	151.2	143.0	137.4	132.2	131.1	129.7	128.4	127.9	125.6	124.4	123.9	119.9	113.4	103.9	93.04	83.36	72.51	64.89	55.73	48.83	43.53	44.92	43.17	32.30	23.21	19.25	16.12	13.78	11.59	9.906	8.497	8.337	9.767	31.00	184.2	657.7	1166	713.9	17.32	2.515	1.737	1.656	1.674	1.309	1.483	1.274	1.405	1.256	1.201	1.250	1.208	1.109	1.179	1.021	1.134	1.076	1.056	1.033	1.078
495.0	105.5	203.4	279.5	240.9	435.0	1666	1628	316.5	281.3	271.7	265.3	250.9	229.3	198.7	174.8	159.3	146.3	140.6	135.0	128.5	122.4	119.4	118.2	115.6	113.8	113.6	113.1	111.1	112.4	107.8	105.8	94.83	85.27	76.50	67.62	60.79	52.14	46.21	41.05	37.52	37.81	37.82	26.84	19.35	16.74	14.70	12.30	10.37	8.547	7.251	6.599	10.83	44.30	149.9	390.5	1259	1009	24.92	2.048	1.755	1.478	1.440	1.387	1.230	1.382	1.123	1.142	1.181	1.132	1.105	1.147	0.894	0.967	1.041	0.969	0.939	0.873
500.0	94.34	157.6	289.9	229.1	271.3	916.5	2270	443.5	254.8	253.7	244.1	228.6	209.2	181.4	159.5	147.7	132.2	127.0	121.2	115.0	111.8	107.1	104.7	103.5	102.3	103.4	103.6	100.5	101.7	100.6	96.16	88.10	79.09	71.18	63.10	58.34	49.55	45.03	40.17	33.87	32.41	35.40	30.60	21.33	16.43	14.39	12.34	10.53	8.834	7.457	6.245	6.301	13.36	36.49	91.71	489.9	1511	763.5	18.49	1.920	1.431	1.513	1.393	1.160	1.261	1.085	1.061	1.044	1.084	1.073	0.948	0.927	0.907	0.952	0.913	0.911	0.755
505.0	97.53	134.1	257.7	246.2	217.4	440.4	2080	1132	239.6	229.4	225.6	214.0	192.6	167.5	151.0	135.2	123.5	117.7	110.7	104.0	98.91	98.25	94.77	93.76	93.65	93.23	93.19	92.66	93.53	92.01	87.89	80.16	73.41	66.59	58.92	54.13	46.97	41.72	37.00	32.19	29.70	30.26	31.24	24.56	17.57	14.14	12.30	10.44	8.723	7.652	6.235	5.344	6.401	11.35	23.39	117.0	715.2	1488	228.0	11.62	1.786	1.488	1.242	1.115	1.169	1.095	1.005	0.959	1.001	1.005	0.941	0.844	0.819	0.888	0.774	0.898	0.764
510.0	80.20	116.6	191.9	254.9	197.1	248.4	1054	2028	479.7	212.5	202.8	193.4	174.4	153.5	132.8	119.3	108.3	102.0	98.41	91.29	87.52	85.93	83.25	82.20	83.59	81.43	81.76	82.02	81.66	80.86	77.76	72.05	66.43	60.76	53.47	48.69	43.42	38.65	33.58	30.28	26.43	24.93	26.50	26.06	19.81	14.65	11.94	10.19	8.567	7.320	6.284	5.649	5.079	5.734	8.048	28.68	170.4	627.9	1036	615.9	17.01	1.908	1.363	1.247	1.021	1.004	0.886	0.926	0.886	0.955	0.802	0.841	0.747	0.804	0.734	0.700	0.712
515.0	73.23	101.2	137.8	226.8	208.5	185.0	383.3	1714	1405	211.7	177.9	169.8	149.3	132.6	114.0	103.5	94.03	87.72	83.55	78.91	76.10	72.03	72.61	71.46	70.42	70.03	72.13	71.13	71.12	69.74	68.36	63.32	58.19	52.22	47.92	43.32	39.02	34.52	31.29	26.85	23.89	21.40	20.48	22.62	22.19	16.52	11.32	9.962	8.285	7.181	6.389	5.556	4.933	4.324	4.630	8.962	40.37	142.1	324.8	1040	813.7	24.78	1.763	1.363	1.032	1.003	1.005	0.912	0.765	0.719	0.752	0.794	0.721	0.635	0.655	0.649	0.681
520.0	68.79	88.38	113.4	191.0	225.7	161.9	210.0	911.7	2168	309.3	160.7	153.7	133.9	120.1	104.5	93.48	86.00	78.30	76.31	70.30	68.92	64.55	64.00	63.59	64.37	62.58	62.92	62.92	63.50	62.67	60.98	56.27	53.01	47.51	43.78	38.66	35.69	32.19	28.80	24.57	22.36	20.43	18.34	18.22	21.15	18.62	12.29	9.697	8.654	6.920	6.100	5.277	5.098	4.032	3.711	4.445	11.36	33.74	75.46	391.9	1156	620.6	18.52	1.518	1.161	0.988	0.936	0.893	0.779	0.748	0.675	0.722	0.697	0.716	0.599	0.606	0.693
525.0	66.78	78.23	98.74	150.6	232.1	155.7	158.7	389.4	2144	945.5	152.5	140.6	121.2	106.6	93.89	84.56	78.35	71.55	68.80	64.12	60.99	58.27	58.77	56.64	57.78	56.17	55.38	56.37	55.95	56.63	55.36	51.18	47.33	44.16	40.72	35.83	32.83	29.53	26.61	23.22	20.22	18.55	16.80	15.71	17.48	19.36	14.01	9.872	7.832	6.793	5.844	5.134	5.068	4.165	3.610	3.539	4.783	9.556	18.82	92.55	517.2	1140	228.7	10.88	1.266	1.017	0.845	0.878	0.703	0.639	0.610	0.701	0.593	0.554	0.570	0.580	0.553
530.0	52.73	70.27	91.12	114.0	189.3	187.9	136.9	190.8	1077	1935	357.5	119.6	107.6	95.09	82.69	73.70	67.43	61.79	59.35	55.36	53.11	50.58	50.10	49.32	49.54	48.28	48.68	48.25	49.04	49.15	48.32	44.98	41.86	38.47	34.51	31.81	28.63	26.10	23.43	20.73	18.56	16.54	14.98	13.80	13.55	15.60	15.43	11.12	7.842	6.408	5.748	4.944	4.430	4.380	3.627	3.097	3.266	4.029	5.931	22.24	121.8	455.2	784.5	502.9	17.21	1.563	0.910	0.782	0.650	0.590	0.638	0.659	0.588	0.497	0.509	0.457	0.465
535.0	42.22	67.15	80.37	92.23	128.0	189.7	129.7	129.1	349.2	1707	1212	121.3	93.32	81.69	71.78	63.85	58.38	53.18	49.79	47.17	45.43	42.41	42.80	41.57	42.65	40.75	42.05	41.82	42.65	42.15	41.44	38.69	34.91	32.68	29.60	27.71	24.69	22.42	20.04	18.46	16.31	14.98	13.70	11.89	11.41	11.65	13.01	12.50	8.613	6.340	5.031	4.651	3.906	3.852	3.730	3.298	2.933	2.596	2.904	6.466	28.52	102.8	231.9	760.6	649.8	25.11	1.195	0.945	0.686	0.583	0.613	0.562	0.548	0.391	0.475	0.405	0.374
540.0	35.66	58.10	64.42	83.54	94.68	174.1	143.6	106.9	158.3	882.2	1981	198.4	81.84	72.01	64.72	55.13	50.49	47.36	43.52	42.14	38.64	38.19	36.81	36.21	36.60	36.23	35.68	36.44	37.39	36.49	35.76	33.88	30.27	28.85	25.94	24.08	21.43	20.30	17.89	16.72	14.86	13.28	12.51	10.77	10.12	9.030	10.07	11.60	9.534	6.244	4.995	4.383	3.857	3.378	3.435	3.274	2.825	2.306	2.189	2.921	7.541	24.20	53.64	273.5	864.8	250.7	17.99	0.931	0.736	0.695	0.512	0.571	0.465	0.450	0.417	0.417	0.392
545.0	34.45	52.17	61.67	73.57	75.51	133.7	168.3	97.95	103.2	333.1	2015	638.1	76.90	65.11	56.93	47.87	44.73	41.26	38.39	36.62	34.83	33.06	32.61	32.48	31.68	31.20	32.00	32.12	31.91	32.16	31.49	28.91	26.89	25.24	23.27	21.62	19.35	17.74	15.57	14.31	13.39	12.03	11.05	9.621	9.037	8.080	8.031	9.931	9.859	6.732	4.923	4.003	3.414	3.189	3.145	2.914	2.973	2.113	1.814	2.009	2.830	6.554	13.10	63.93	369.6	785.2	221.7	10.27	0.832	0.671	0.598	0.507	0.448	0.470	0.426	0.333	0.411
550.0	35.59	48.05	56.58	61.10	60.80	88.46	156.4	108.1	80.33	134.6	981.6	1548	137.8	54.91	47.79	40.61	38.35	35.10	32.42	30.33	28.77	27.55	27.03	26.35	25.97	26.49	26.40	26.56	25.84	26.29	26.19	24.02	22.90	21.14	19.24	18.15	16.13	14.97	13.63	12.12	10.98	10.18	9.275	8.517	7.745	7.229	6.559	6.944	8.048	7.513	5.358	3.885	3.059	2.763	2.711	2.536	2.776	2.265	1.931	1.617	1.732	2.430	3.883	15.27	86.32	307.7	567.9	386.4	17.13	1.160	0.590	0.483	0.511	0.405	0.351	0.309	0.326
555.0	29.21	42.55	51.82	50.51	55.27	59.86	113.2	130.8	71.33	78.85	289.7	1510	730.9	50.91	39.91	33.67	30.40	29.00	26.36	24.22	23.26	22.44	21.47	21.50	20.80	21.20	20.75	21.00	21.35	20.87	20.96	19.61	18.68	17.47	15.42	14.36	13.58	12.49	11.24	10.42	9.001	8.531	7.843	7.076	6.754	6.021	5.367	5.124	5.625	6.621	6.023	4.174	2.782	2.460	2.274	2.387	2.073	2.162	2.101	1.433	1.303	1.467	1.619	4.284	20.02	69.42	161.4	508.0	471.9	25.22	0.968	0.559	0.407	0.344	0.406	0.375	0.330
560.0	28.78	35.80	48.17	46.06	47.62	50.45	73.45	137.3	70.95	61.97	112.7	811.1	1429	99.74	33.95	28.55	26.28	24.20	22.37	21.25	19.34	19.31	18.18	18.32	17.77	17.91	18.47	17.21	18.18	17.83	18.03	16.69	16.03	14.94	13.24	12.65	11.27	10.14	9.556	8.723	7.752	7.168	6.924	6.423	5.808	5.452	4.866	4.324	4.243	4.898	5.736	4.560	2.965	2.349	2.026	1.923	1.870	1.646	2.031	1.574	1.178	1.152	1.149	1.722	5.080	16.22	37.05	173.7	563.6	247.9	17.62	0.650	0.384	0.338	0.388	0.342	0.240
565.0	29.93	44.42	50.69	48.07	39.46	44.65	51.82	123.4	88.42	56.88	66.88	294.5	1601	349.2	30.36	24.52	21.90	20.48	19.31	18.06	16.38	16.13	15.78	15.31	15.52	15.28	14.65	15.16	15.19	15.61	15.35	14.12	13.61	12.80	11.37	10.45	9.931	9.302	8.054	7.366	6.864	5.997	5.830	5.486	5.022	4.511	4.286	3.626	3.429	3.559	4.825	4.322	3.082	2.112	1.893	1.853	1.689	1.500	1.617	1.672	1.246	0.939	0.977	0.997	1.697	4.406	8.953	40.27	223.9	522.0	208.7	8.490	0.505	0.371	0.340	0.324	0.229
570.0	38.73	43.88	45.49	40.83	36.47	35.22	38.92	82.65	115.4	59.76	57.08	110.0	860.7	1042	70.53	20.98	17.86	16.78	15.91	14.94	13.44	13.39	12.72	12.64	12.46	12.19	11.49	12.50	12.68	12.13	12.25	11.24	10.71	10.26	9.342	8.650	7.814	7.330	6.708	6.124	5.745	5.065	4.670	4.390	4.144	3.890	3.686	3.142	3.074	2.752	3.062	3.615	3.119	2.330	1.673	1.587	1.489	1.306	1.244	1.326	1.529	1.109	0.919	0.840	0.969	1.577	2.544	9.612	51.91	195.4	368.8	261.6	16.44	0.746	0.324	0.305	0.238
575.0	45.19	45.95	46.43	40.63	33.36	33.84	34.41	50.77	112.0	80.93	57.75	71.84	255.8	1154	413.2	18.23	14.54	13.51	12.62	12.19	10.75	10.87	10.17	9.809	9.638	9.861	9.438	10.10	9.917	9.822	9.906	9.062	8.074	7.403	7.366	6.736	6.489	5.642	5.196	4.810	4.631	4.215	3.847	3.562	3.257	3.224	2.894	2.526	2.456	2.139	2.055	2.428	3.028	2.638	1.716	1.420	1.162	1.171	1.200	0.966	1.182	1.261	1.091	0.718	0.749	0.917	1.141	2.722	12.08	44.10	100.8	310.6	252.8	23.43	0.581	0.350	0.243
580.0	40.55	45.04	49.56	37.78	31.99	28.80	32.44	39.54	87.72	115.0	65.88	67.02	103.2	666.9	902.6	37.30	12.96	11.68	10.76	10.62	9.662	9.131	8.553	7.904	7.980	8.196	7.965	7.840	8.073	8.345	8.150	7.433	6.986	6.298	6.094	5.647	5.533	4.934	4.473	4.240	3.528	3.710	3.525	3.134	2.934	2.750	2.424	2.277	1.961	1.860	1.641	1.884	2.433	2.478	1.914	1.427	1.146	1.011	0.934	0.794	0.843	1.022	1.260	0.958	0.709	0.772	0.806	1.151	3.167	10.34	23.17	103.2	338.8	220.9	15.51	0.472	0.281
585.0	39.08	46.43	56.75	38.99	29.68	26.91	28.69	36.11	64.67	132.9	77.45	69.45	71.32	245.8	1099	107.3	11.47	10.04	9.039	8.614	8.292	7.438	7.163	7.374	7.348	7.251	6.509	6.954	6.767	7.210	6.869	6.211	5.857	5.789	5.244	4.816	4.373	4.077	4.080	3.511	3.048	3.057	2.836	2.624	2.634	2.283	2.176	1.958	1.724	1.561	1.547	1.432	1.737	2.197	2.157	1.408	0.963	0.957	0.771	0.697	0.735	0.785	1.137	0.931	0.721	0.773	0.720	0.763	1.299	2.757	5.618	23.86	131.2	340.3	160.4	7.601	0.276
590.0	41.13	52.65	50.50	38.39	28.72	25.30	25.43	33.22	49.96	114.3	105.1	77.44	65.82	87.55	607.6	594.5	30.33	8.798	7.520	7.089	6.456	6.306	5.877	5.838	5.811	5.664	5.533	5.562	5.633	5.788	5.678	5.211	4.885	4.656	4.111	3.998	3.744	3.333	3.208	2.928	2.788	2.562	2.418	2.239	2.047	1.821	1.718	1.703	1.492	1.317	1.281	1.160	1.283	1.592	1.853	1.683	1.065	0.802	0.762	0.657	0.657	0.676	0.803	1.070	0.924	0.749	0.711	0.691	0.774	1.093	1.739	5.735	30.30	118.2	230.2	140.5	16.25
595.0	36.53	53.69	49.04	36.89	24.56	24.01	25.79	33.80	43.28	83.53	125.9	87.37	67.95	49.78	167.9	741.8	202.0	7.633	6.574	5.887	5.628	4.825	4.550	5.015	4.619	4.226	4.409	4.494	4.542	4.484	4.577	4.044	3.909	3.698	3.453	3.397	3.122	2.773	2.390	2.531	2.108	1.958	1.811	1.774	1.705	1.465	1.460	1.418	1.217	1.160	1.080	0.944	1.051	1.002	1.278	1.571	1.355	0.709	0.687	0.659	0.573	0.546	0.689	0.781	1.000	0.893	0.698	0.727	0.689	0.790	0.739	1.709	7.035	26.59	60.19	171.3	204.5
600.0	42.55	48.72	54.24	37.55	23.98	23.38	24.51	28.41	41.47	64.83	127.3	95.54	68.71	41.92	51.65	454.5	491.5	14.68	5.555	4.881	4.773	4.412	4.291	4.272	4.228	3.931	3.876	3.818	3.530	3.746	3.637	3.567	3.444	3.077	2.793	2.706	2.536	2.331	2.007	1.953	1.972	1.741	1.573	1.556	1.487	1.451	1.329	1.215	1.028	0.927	0.898	0.807	0.885	0.748	0.873	1.317	1.498	0.943	0.587	0.512	0.635	0.563	0.555	0.632	0.857	1.009	0.767	0.655	0.540	0.676	0.549	0.657	1.843	6.170	13.74	54.12	209.6
605.0	43.11	55.16	47.44	35.94	27.25	21.43	23.91	32.08	41.93	58.04	112.0	112.7	70.40	41.25	25.63	163.0	660.5	65.29	4.916	4.389	4.066	3.770	3.759	3.243	3.882	3.362	3.343	3.380	3.157	3.386	3.370	2.827	2.700	2.439	2.386	2.385	2.172	1.918	1.793	1.620	1.590	1.580	1.357	1.426	1.175	1.127	1.142	1.128	1.057	0.955	0.805	0.711	0.661	0.695	0.726	0.902	1.133	0.940	0.689	0.514	0.551	0.540	0.499	0.590	0.676	0.803	0.952	0.609	0.512	0.535	0.527	0.414	0.647	1.600	3.315	12.51	74.47
610.0	36.41	54.25	45.80	35.10	23.78	18.84	22.06	30.73	41.61	56.17	91.06	125.4	77.29	41.34	20.08	47.47	400.1	358.9	14.06	3.830	3.277	3.017	2.975	2.794	2.963	2.840	2.707	2.769	2.543	2.531	2.495	2.394	2.110	2.115	2.010	1.903	1.761	1.551	1.425	1.321	1.348	1.202	1.075	1.116	1.018	0.943	0.956	0.877	0.851	0.740	0.640	0.577	0.614	0.536	0.524	0.643	0.844	1.025	0.771	0.510	0.501	0.462	0.482	0.492	0.565	0.655	0.820	0.738	0.601	0.496	0.453	0.338	0.384	0.564	0.963	3.030	17.10
615.0	36.18	47.83	41.26	30.30	20.62	17.98	20.19	27.20	38.13	51.89	74.32	110.2	89.54	39.96	19.07	18.84	112.6	492.5	73.30	3.380	3.091	2.532	2.518	2.110	2.170	2.155	1.997	2.169	2.043	1.862	2.027	2.080	1.671	1.628	1.719	1.453	1.282	1.117	1.236	0.983	1.004	0.961	0.851	0.880	0.845	0.896	0.830	0.703	0.715	0.608	0.593	0.459	0.457	0.426	0.455	0.440	0.500	0.777	0.790	0.616	0.488	0.420	0.378	0.503	0.515	0.533	0.653	0.675	0.662	0.523	0.431	0.419	0.255	0.265	0.367	0.836	3.980
620.0	37.36	42.31	40.23	29.35	22.76	16.87	19.04	24.53	37.32	47.86	68.98	91.22	99.59	41.84	18.58	12.89	32.44	324.7	300.4	6.275	2.401	2.289	1.970	1.707	1.885	1.747	1.768	1.777	1.615	1.789	1.709	1.808	1.431	1.422	1.584	1.196	1.145	1.188	1.097	0.978	0.789	0.803	0.867	0.764	0.713	0.711	0.690	0.532	0.606	0.525	0.445	0.422	0.395	0.353	0.443	0.394	0.360	0.606	0.670	0.621	0.459	0.463	0.339	0.408	0.469	0.448	0.501	0.609	0.678	0.559	0.420	0.395	0.287	0.274	0.229	0.369	1.029
625.0	34.44	46.35	37.33	27.03	21.02	16.35	19.89	24.52	35.69	46.02	63.47	79.49	97.03	46.00	17.96	11.08	13.71	126.1	449.2	37.80	2.134	2.202	1.764	1.664	1.661	1.599	1.487	1.400	1.557	1.527	1.531	1.399	1.212	1.245	1.188	1.086	1.019	0.871	0.933	0.889	0.754	0.745	0.810	0.604	0.682	0.578	0.589	0.522	0.600	0.405	0.405	0.380	0.358	0.387	0.387	0.317	0.357	0.427	0.520	0.491	0.512	0.384	0.338	0.415	0.374	0.433	0.480	0.487	0.577	0.707	0.417	0.303	0.301	0.244	0.209	0.213	0.376
630.0	26.97	38.06	35.67	24.83	17.79	16.29	19.59	23.52	32.24	44.65	58.18	67.72	80.99	56.16	18.54	10.76	9.288	34.93	299.2	232.8	6.056	1.838	1.562	1.572	1.259	1.349	1.250	1.154	1.244	1.305	1.231	1.092	1.047	0.994	0.927	0.807	0.837	0.774	0.719	0.715	0.649	0.598	0.598	0.502	0.541	0.517	0.453	0.501	0.447	0.323	0.376	0.328	0.345	0.320	0.301	0.313	0.313	0.341	0.380	0.428	0.560	0.446	0.333	0.412	0.395	0.414	0.383	0.434	0.445	0.570	0.494	0.360	0.244	0.192	0.221	0.212	0.177
635.0	24.82	36.66	38.02	25.45	15.71	15.61	17.14	22.43	30.80	40.17	53.78	57.70	61.90	61.77	23.41	11.28	7.746	12.13	86.41	360.3	51.85	1.826	1.352	1.333	1.169	1.114	1.111	1.025	1.037	1.124	0.863	0.965	0.829	0.830	0.823	0.706	0.695	0.594	0.557	0.567	0.474	0.503	0.455	0.385	0.416	0.381	0.460	0.444	0.375	0.315	0.281	0.279	0.241	0.312	0.299	0.330	0.248	0.276	0.291	0.317	0.437	0.418	0.318	0.326	0.356	0.301	0.395	0.330	0.381	0.434	0.418	0.494	0.321	0.182	0.202	0.184	0.189
640.0	24.01	35.74	33.58	24.52	16.84	16.25	16.87	20.86	26.94	37.29	50.71	53.22	53.52	55.47	29.71	11.96	8.320	7.406	23.21	261.4	198.5	3.416	1.239	1.049	0.974	0.990	0.932	0.921	0.949	0.923	0.800	0.775	0.831	0.821	0.739	0.643	0.469	0.501	0.453	0.501	0.392	0.433	0.337	0.348	0.392	0.393	0.358	0.359	0.364	0.284	0.284	0.345	0.288	0.278	0.228	0.212	0.231	0.229	0.293	0.297	0.404	0.368	0.388	0.348	0.342	0.293	0.366	0.350	0.339	0.343	0.352	0.430	0.343	0.243	0.192	0.150	0.170
645.0	26.81	33.05	31.22	20.73	20.38	14.21	14.27	20.61	25.65	34.14	45.53	50.55	48.95	44.41	36.72	13.23	8.321	5.880	8.349	109.4	323.8	20.70	1.289	1.051	1.013	0.779	0.947	0.769	0.812	0.721	0.637	0.658	0.647	0.690	0.589	0.466	0.471	0.484	0.435	0.457	0.381	0.358	0.317	0.368	0.334	0.327	0.271	0.300	0.278	0.307	0.180	0.277	0.234	0.244	0.193	0.237	0.217	0.201	0.283	0.216	0.282	0.368	0.391	0.302	0.302	0.264	0.350	0.329	0.302	0.258	0.271	0.298	0.351	0.323	0.223	0.112	0.159
650.0	19.61	31.54	32.66	22.92	18.26	13.50	17.57	20.05	24.96	33.54	42.40	47.13	42.01	36.17	39.50	15.39	8.782	5.756	4.880	31.58	300.1	65.09	1.522	0.985	0.823	0.680	0.698	0.709	0.649	0.665	0.706	0.569	0.553	0.564	0.542	0.470	0.440	0.459	0.401	0.361	0.434	0.307	0.259	0.281	0.263	0.266	0.279	0.284	0.276	0.250	0.208	0.211	0.218	0.207	0.158	0.260	0.210	0.246	0.227	0.210	0.169	0.243	0.389	0.336	0.262	0.291	0.342	0.318	0.258	0.281	0.274	0.269	0.300	0.411	0.256	0.146	0.149
