Sample:	'1
File name:	Default_20230303_094830.FD3
Run date:	'09:42:08, 03/03/2023
Operator:	user
Comment:	'

Instrument
Model:	F-2700 FL Spectrophotometer
Serial number:	2190-003
ROM Version:	4J14000 07

Instrument parameters
Measurement type:	3-D scan
Data mode:	Fluorescence
EX  Start WL:	220.0 nm
EX  End WL:	600.0 nm
EX Sampling interval:	5.0 nm
EM  Start WL:	230.0 nm
EM  End WL:	650.0 nm
EM Sampling interval:	5.0 nm
Scan speed:	12000 nm/min
EX Slit:	5.0 nm
EM Slit:	5.0 nm
PMT Voltage:	700 V
Response:	Auto 
Corrected spectra:	Off
Contour interval:	50.000

Peak integration
Integration method:	Rectangular
Sensitivity:	1
Threshold:	1.000

Peaks
No.	ApexEX/EM(nm)	Height(Data)
1	235.0/390.0	 2049
2	240.0/385.0	 2119
3	245.0/265.0	-82.39
4	255.0/280.0	141.8
5	260.0/285.0	267.9
6	260.0/565.0	-24.21
7	265.0/290.0	428.2
8	265.0/575.0	-36.38
9	270.0/590.0	-23.05
10	275.0/370.0	 2581
11	275.0/600.0	-0.828
12	280.0/615.0	18.02
13	285.0/625.0	14.05
14	290.0/640.0	15.48
15	315.0/390.0	 2167
16	320.0/395.0	 2170
17	470.0/385.0	-2.328
18	480.0/380.0	-2.458
19	505.0/440.0	-3.471
20	560.0/365.0	-2.127
21	570.0/350.0	-2.504
22	585.0/380.0	-1.872

Data points
	220.0	225.0	230.0	235.0	240.0	245.0	250.0	255.0	260.0	265.0	270.0	275.0	280.0	285.0	290.0	295.0	300.0	305.0	310.0	315.0	320.0	325.0	330.0	335.0	340.0	345.0	350.0	355.0	360.0	365.0	370.0	375.0	380.0	385.0	390.0	395.0	400.0	405.0	410.0	415.0	420.0	425.0	430.0	435.0	440.0	445.0	450.0	455.0	460.0	465.0	470.0	475.0	480.0	485.0	490.0	495.0	500.0	505.0	510.0	515.0	520.0	525.0	530.0	535.0	540.0	545.0	550.0	555.0	560.0	565.0	570.0	575.0	580.0	585.0	590.0	595.0	600.0
230.0	-872.7	-455.7	 1311	607.8	-285.1	-283.9	-245.1	-210.6	-187.8	-165.8	-145.0	-123.3	-104.3	-84.91	-68.25	-55.92	-47.22	-40.08	-35.60	-31.28	-27.89	-25.29	-23.58	-21.71	-20.00	-19.23	-18.18	-17.78	-17.23	-16.55	-16.15	-15.21	-14.19	-13.51	-12.29	-11.02	-10.66	-10.78	-10.51	-10.43	-9.915	-9.894	-9.651	-9.399	-9.078	-8.877	-7.664	-6.444	-4.218	-3.691	-5.313	-7.435	-7.294	-7.660	-7.389	-7.743	-7.982	-7.949	-7.985	-7.967	-8.014	-8.087	-8.154	-8.153	-8.130	-8.318	-8.277	-8.398	-8.438	-8.468	-8.422	-8.496	-8.595	-8.484	-8.640	-8.998	-9.115
235.0	-871.2	-675.7	119.3	 1180	623.3	-225.7	-250.6	-209.3	-184.7	-163.2	-147.2	-120.7	-105.4	-86.27	-68.22	-56.33	-47.40	-39.82	-35.41	-31.26	-28.56	-25.86	-23.85	-21.92	-20.51	-19.66	-18.15	-17.69	-17.16	-16.42	-16.14	-15.29	-14.30	-13.16	-12.58	-11.12	-10.69	-10.96	-10.72	-10.13	-10.01	-9.865	-9.634	-9.541	-8.855	-8.711	-7.852	-7.526	-6.189	-4.619	-3.783	-4.972	-6.110	-7.357	-7.531	-7.697	-7.863	-8.132	-7.976	-7.935	-8.082	-7.922	-8.100	-8.141	-8.060	-8.325	-8.453	-8.260	-8.588	-8.425	-8.358	-8.525	-8.519	-8.515	-8.586	-9.191	-9.186
240.0	-823.6	-666.3	-387.7	361.1	 1594	459.5	-205.5	-209.8	-186.6	-163.3	-142.4	-122.2	-102.3	-85.03	-68.29	-55.84	-46.73	-40.21	-34.60	-31.18	-28.22	-25.16	-23.32	-22.09	-20.33	-19.12	-17.83	-17.57	-17.23	-16.90	-16.02	-15.55	-14.10	-13.27	-12.23	-11.46	-11.13	-10.84	-10.59	-10.30	-10.12	-9.808	-9.791	-9.385	-9.156	-8.679	-7.852	-7.819	-7.118	-5.692	-5.051	-4.514	-3.663	-5.352	-7.028	-7.766	-7.769	-8.140	-8.046	-7.997	-8.102	-8.010	-8.234	-8.175	-8.275	-8.112	-8.298	-8.297	-8.419	-8.498	-8.489	-8.491	-8.568	-8.581	-8.769	-9.137	-9.210
245.0	-828.1	-655.4	-487.4	-220.0	812.1	 1716	380.3	-201.5	-181.4	-167.4	-141.5	-123.5	-100.9	-85.28	-68.18	-55.40	-47.12	-39.34	-35.66	-31.24	-28.14	-24.95	-23.13	-21.93	-20.36	-19.12	-18.03	-17.81	-17.30	-16.57	-15.11	-15.43	-14.18	-13.25	-12.22	-11.46	-11.02	-11.08	-10.55	-10.51	-9.905	-9.881	-9.799	-9.471	-9.235	-8.729	-7.715	-7.788	-7.090	-6.273	-6.052	-6.523	-5.031	-3.008	-3.213	-5.478	-6.817	-8.184	-7.743	-8.105	-7.976	-8.124	-8.250	-8.287	-8.311	-8.324	-8.159	-8.348	-8.419	-8.366	-8.526	-8.510	-8.594	-8.550	-8.749	-9.038	-9.116
250.0	-869.5	-707.6	-439.6	-310.6	-47.82	802.4	 1736	930.2	-35.80	-163.7	-144.3	-119.6	-100.4	-84.84	-68.99	-56.31	-46.59	-39.48	-34.94	-31.64	-28.46	-25.63	-23.20	-21.79	-20.31	-18.95	-17.90	-17.24	-17.56	-17.05	-15.89	-15.24	-14.35	-13.44	-12.42	-11.43	-11.19	-10.91	-10.59	-10.09	-9.888	-9.966	-9.927	-9.456	-9.095	-8.792	-7.766	-7.968	-6.960	-6.022	-6.142	-7.259	-6.783	-6.162	-4.837	-3.753	7.362	-4.335	-5.943	-7.632	-8.080	-7.891	-8.132	-8.207	-8.026	-8.220	-8.201	-8.243	-8.340	-8.403	-8.441	-8.585	-8.592	-8.460	-8.590	-9.163	-9.204
255.0	-914.4	-704.7	-510.9	-279.7	-197.1	-16.01	487.7	 2272	 1510	5.785	-141.5	-117.5	-101.7	-82.76	-68.09	-57.19	-46.32	-39.46	-34.79	-31.38	-27.51	-25.92	-23.49	-21.77	-20.15	-18.99	-17.91	-17.48	-17.28	-16.74	-15.88	-15.21	-14.33	-13.62	-12.45	-11.44	-11.21	-10.91	-10.57	-10.14	-9.863	-9.655	-9.522	-9.293	-9.125	-8.970	-7.589	-7.878	-7.107	-6.048	-6.065	-7.117	-7.131	-7.403	-6.787	-6.971	-3.164	-3.698	-0.566	-1.115	-5.438	-7.860	-8.039	-8.124	-8.064	-7.992	-8.288	-8.184	-8.401	-8.259	-8.382	-8.643	-8.547	-8.653	-8.651	-8.868	-9.188
260.0	-899.3	-720.5	-541.8	-358.9	-146.8	-182.0	-66.80	994.4	 2928	 1241	-36.52	-120.6	-100.9	-83.46	-68.01	-55.94	-46.14	-39.05	-36.09	-30.29	-27.59	-26.00	-22.54	-21.91	-20.34	-18.62	-18.38	-17.67	-17.09	-16.91	-16.11	-15.17	-14.30	-13.79	-12.40	-11.14	-11.00	-11.01	-10.52	-10.10	-9.817	-9.868	-9.549	-9.500	-9.083	-9.037	-7.611	-7.813	-7.159	-6.143	-6.157	-6.717	-6.803	-7.355	-7.317	-7.533	-6.937	-6.851	-4.364	-0.162	1.529	-1.808	-6.572	-7.928	-8.090	-8.021	-8.461	-8.137	-8.286	-8.300	-8.340	-8.376	-8.462	-8.536	-8.547	-9.017	-9.274
265.0	-879.0	-710.2	-550.9	-396.2	-195.8	-82.39	-173.6	93.45	 1566	 3592	 1096	-95.86	-100.3	-81.97	-66.52	-55.34	-46.35	-39.62	-35.21	-30.51	-27.69	-25.20	-22.35	-21.54	-20.62	-19.12	-18.33	-17.59	-17.32	-16.66	-16.09	-15.23	-14.16	-13.52	-12.30	-11.33	-10.96	-11.00	-10.70	-10.31	-9.866	-9.786	-9.730	-9.582	-9.196	-9.021	-7.491	-7.852	-7.131	-6.120	-6.144	-7.048	-6.868	-7.168	-7.080	-7.435	-7.605	-7.652	-7.263	-5.583	-2.105	3.404	2.882	-3.863	-7.722	-8.127	-8.229	-8.151	-8.178	-8.393	-8.396	-8.619	-8.392	-8.583	-8.749	-9.025	-9.261
270.0	-860.2	-688.1	-547.0	-409.7	-292.6	-120.7	-30.88	-93.19	262.2	 1619	 4080	 2084	137.2	-78.38	-65.12	-54.94	-46.54	-39.15	-34.20	-30.51	-28.00	-24.86	-22.87	-21.61	-20.43	-19.34	-17.80	-17.79	-16.91	-16.64	-15.87	-14.92	-13.91	-13.39	-12.23	-11.32	-10.92	-11.14	-10.63	-10.40	-9.852	-10.05	-9.589	-9.168	-8.965	-8.760	-7.499	-7.770	-7.036	-6.010	-6.302	-7.304	-7.075	-7.436	-7.043	-6.979	-7.255	-7.736	-7.739	-7.352	-6.472	-4.573	-1.860	0.599	2.566	0.398	-4.904	-7.797	-8.356	-8.486	-8.406	-8.559	-8.468	-8.478	-8.675	-9.026	-9.058
275.0	-763.0	-665.8	-507.0	-396.7	-326.8	-232.7	-38.76	82.02	-24.49	281.4	 1303	 3978	 3318	157.2	-62.62	-52.98	-46.05	-38.63	-34.14	-31.13	-26.87	-24.89	-22.87	-21.38	-19.93	-18.73	-17.88	-17.14	-17.05	-17.00	-15.53	-14.79	-13.87	-13.69	-12.30	-11.71	-10.69	-11.18	-10.56	-10.24	-9.766	-9.860	-9.672	-9.199	-8.875	-8.549	-7.333	-7.496	-7.007	-6.090	-6.104	-7.279	-7.213	-7.697	-7.348	-7.287	-7.249	-7.051	-7.331	-7.542	-7.559	-7.206	-6.559	-5.838	-4.130	1.860	7.950	5.746	-4.081	-8.269	-8.540	-8.616	-8.377	-8.396	-8.529	-8.800	-9.228
280.0	-741.1	-552.1	-411.4	-350.7	-309.6	-254.0	-146.2	141.8	101.8	22.65	270.8	 1628	 5044	 2696	45.13	-52.00	-44.95	-38.31	-34.09	-30.27	-27.28	-25.42	-23.01	-21.19	-19.78	-18.81	-17.49	-17.11	-17.01	-16.72	-15.50	-14.98	-13.95	-13.31	-12.17	-11.16	-10.82	-10.78	-10.39	-9.917	-9.476	-9.741	-9.508	-8.926	-8.841	-8.170	-7.344	-7.507	-7.059	-6.126	-6.054	-7.386	-7.161	-7.643	-7.238	-7.171	-7.771	-7.259	-7.117	-7.214	-7.722	-7.913	-7.627	-7.483	-7.045	-5.333	-0.326	8.792	11.37	2.955	-6.349	-8.554	-8.414	-8.411	-8.713	-8.973	-9.184
285.0	-649.0	-395.3	-327.6	-295.6	-275.9	-233.0	-183.6	-3.755	267.9	108.9	88.83	429.8	 2490	 5573	660.6	-17.14	-43.33	-38.60	-33.52	-30.02	-26.98	-24.89	-23.25	-21.08	-19.46	-18.54	-17.81	-17.49	-17.27	-16.00	-15.76	-14.97	-13.79	-13.31	-12.19	-10.86	-10.39	-10.31	-10.14	-9.579	-9.422	-9.325	-9.393	-9.061	-8.432	-8.270	-7.243	-7.487	-6.755	-5.944	-6.126	-7.234	-7.296	-7.570	-7.047	-7.500	-7.646	-7.660	-7.224	-6.912	-6.995	-7.699	-7.621	-7.716	-7.487	-7.171	-5.981	-2.389	4.885	14.31	9.699	-1.899	-7.820	-8.435	-8.675	-8.845	-9.024
290.0	-419.3	-205.5	-134.7	-170.7	-191.4	-181.7	-148.6	-45.57	179.8	428.2	344.3	368.2	826.4	 2546	 4472	 2291	132.3	-36.43	-32.31	-29.40	-27.05	-24.77	-23.16	-20.97	-19.83	-18.70	-17.41	-17.67	-17.11	-16.40	-16.02	-15.06	-13.63	-13.20	-12.07	-10.86	-10.28	-10.21	-9.853	-9.541	-9.320	-9.465	-9.050	-8.767	-8.212	-7.949	-6.818	-7.219	-6.514	-5.643	-5.915	-6.998	-7.058	-7.498	-7.068	-7.392	-7.641	-7.666	-7.495	-7.608	-7.051	-6.871	-6.730	-7.044	-7.445	-7.217	-6.923	-6.274	-4.556	-0.772	4.413	8.140	8.566	4.325	-3.936	-8.211	-8.998
295.0	-210.8	-70.45	92.94	-29.41	-80.51	-116.2	-80.04	10.21	137.3	380.6	804.8	688.6	651.1	905.8	 1574	 4336	 3230	168.3	-30.10	-27.73	-26.17	-24.27	-22.86	-20.69	-19.57	-18.56	-17.64	-17.84	-16.48	-16.78	-15.82	-14.88	-13.78	-13.33	-11.75	-10.22	-10.08	-9.640	-9.228	-9.326	-8.897	-8.990	-9.050	-8.233	-8.484	-7.569	-6.833	-6.779	-6.163	-5.351	-5.649	-6.895	-6.438	-7.364	-6.772	-7.347	-7.523	-7.527	-7.430	-7.496	-7.317	-7.138	-6.839	-6.215	-6.521	-6.811	-6.713	-6.742	-6.575	-5.812	-5.109	-3.906	-0.645	9.527	18.70	11.61	-3.067
300.0	-74.26	100.6	254.2	116.2	14.75	-50.47	13.56	59.07	209.0	378.2	863.9	 1138	841.0	706.0	642.8	 1795	 5136	 2509	91.85	-26.44	-25.49	-24.07	-21.87	-20.62	-19.25	-18.52	-16.72	-16.98	-16.87	-16.07	-15.73	-14.92	-13.86	-12.49	-11.59	-10.37	-9.567	-9.355	-9.140	-9.018	-9.187	-8.896	-8.687	-8.366	-8.239	-7.340	-6.719	-6.223	-5.981	-5.216	-5.461	-6.616	-6.388	-7.061	-6.749	-7.315	-7.394	-7.413	-7.246	-7.327	-7.043	-7.210	-6.914	-6.443	-5.928	-5.511	-5.605	-6.356	-6.538	-6.759	-6.685	-6.551	-6.152	-3.207	5.744	20.22	21.49
305.0	-11.75	193.7	344.9	245.3	93.28	31.54	58.71	165.6	314.1	497.6	876.9	 1418	 1175	869.1	587.7	639.7	 2515	 5560	 1903	11.58	-23.64	-23.19	-21.50	-20.88	-18.51	-17.77	-16.41	-17.29	-15.97	-16.38	-15.64	-14.60	-13.90	-12.79	-11.80	-9.854	-9.568	-9.233	-8.972	-9.007	-9.050	-9.289	-8.424	-8.106	-7.821	-7.505	-6.749	-6.148	-5.896	-5.230	-5.242	-6.604	-6.552	-6.966	-6.733	-7.184	-7.297	-7.220	-7.209	-7.011	-6.663	-6.715	-6.603	-6.255	-6.013	-5.296	-4.581	-5.285	-5.890	-6.539	-6.459	-7.080	-6.919	-6.797	-4.822	0.927	14.09
310.0	96.25	287.9	420.7	284.0	177.9	135.2	139.8	262.5	448.0	680.1	 1025	 1375	 1654	 1381	833.7	565.7	837.3	 2568	 4799	 2351	104.3	-19.55	-20.65	-19.96	-18.24	-17.84	-16.46	-17.12	-16.53	-16.26	-15.41	-14.70	-13.79	-12.70	-11.89	-10.18	-9.613	-9.199	-9.007	-8.802	-8.567	-8.783	-8.273	-7.950	-7.702	-7.551	-6.302	-6.062	-5.663	-4.850	-5.002	-6.433	-6.142	-6.690	-6.766	-7.033	-6.853	-6.928	-6.932	-6.799	-6.819	-6.479	-6.403	-5.943	-5.726	-5.393	-4.943	-4.573	-4.441	-5.383	-5.419	-6.247	-6.652	-6.861	-6.822	-5.999	-2.825
315.0	184.8	434.8	502.9	414.4	259.6	203.4	206.2	379.1	566.1	824.0	 1187	 1511	 1712	 1804	 1302	761.6	604.7	847.9	 1643	 4592	 2336	149.9	-18.32	-19.32	-17.87	-18.43	-15.81	-17.19	-16.67	-16.00	-14.87	-14.05	-13.51	-12.74	-11.27	-10.31	-9.380	-9.197	-8.992	-8.811	-8.606	-8.715	-8.310	-7.640	-7.857	-7.145	-6.305	-6.230	-5.426	-4.922	-5.006	-6.029	-6.091	-6.410	-6.528	-6.796	-6.722	-6.564	-6.540	-6.649	-6.309	-6.238	-5.843	-5.998	-5.206	-4.898	-4.960	-4.769	-4.212	-4.398	-4.568	-4.891	-5.955	-6.312	-6.543	-7.005	-6.527
320.0	249.3	584.1	669.3	523.4	298.6	273.2	306.2	436.6	707.7	967.6	 1346	 1654	 1798	 1835	 1684	 1026	663.0	567.4	609.6	 1934	 5159	 1932	81.71	-16.26	-17.32	-17.14	-15.61	-16.38	-16.60	-16.23	-14.95	-13.98	-13.43	-12.82	-11.57	-10.33	-9.546	-9.296	-8.684	-8.589	-8.567	-8.558	-8.022	-7.816	-7.526	-6.640	-6.044	-5.930	-5.178	-4.529	-4.831	-6.078	-5.904	-6.229	-6.343	-6.461	-6.703	-6.459	-6.452	-6.335	-6.085	-5.751	-5.775	-5.265	-5.161	-4.693	-4.890	-4.226	-3.885	-4.177	-4.101	-3.403	-4.988	-5.764	-6.464	-6.828	-7.157
325.0	585.5	840.9	871.3	673.6	430.0	340.7	372.2	557.6	793.1	 1095	 1441	 1780	 1927	 1893	 1792	 1395	835.2	595.6	452.6	640.7	 2566	 5286	 1509	22.83	-16.46	-15.92	-13.81	-15.84	-16.05	-15.50	-15.23	-14.36	-13.17	-12.98	-11.68	-10.05	-9.880	-9.033	-8.259	-8.642	-8.104	-8.555	-7.501	-7.874	-7.545	-6.513	-5.263	-5.819	-5.011	-4.316	-4.706	-6.078	-5.917	-6.277	-6.386	-6.448	-6.260	-6.562	-6.100	-6.011	-6.110	-5.201	-5.257	-4.788	-5.083	-4.777	-4.519	-3.424	-3.873	-4.574	-4.374	-3.907	-3.382	-4.424	-6.032	-6.431	-6.855
330.0	698.7	 1069	 1211	971.3	682.6	489.2	480.3	689.6	926.6	 1276	 1598	 1956	 2118	 2044	 1880	 1583	 1216	799.8	552.7	444.2	768.8	 2398	 4372	 2327	86.56	-12.53	-11.95	-15.78	-15.56	-15.43	-15.19	-14.00	-13.41	-13.17	-11.83	-10.39	-9.694	-9.105	-8.781	-8.702	-8.062	-8.394	-7.734	-7.526	-6.588	-6.380	-4.945	-4.961	-4.482	-3.995	-4.175	-5.250	-5.574	-5.901	-5.894	-6.328	-6.338	-6.241	-6.003	-5.575	-5.701	-5.449	-5.073	-4.955	-4.384	-4.431	-3.883	-3.504	-3.897	-3.896	-3.859	-3.820	-4.019	-4.290	-4.542	-4.685	-6.244
335.0	977.2	 1283	 1566	 1308	 1067	723.3	653.4	788.7	 1039	 1420	 1793	 2081	 2291	 2235	 2023	 1638	 1448	 1157	738.2	532.1	440.0	700.4	 1490	 4772	 3736	127.1	-6.569	-13.99	-14.68	-14.87	-14.50	-13.71	-13.17	-12.74	-11.37	-10.35	-9.562	-9.154	-8.676	-8.840	-8.019	-8.357	-7.590	-7.234	-6.277	-6.448	-4.809	-4.469	-3.880	-3.342	-3.869	-4.753	-4.821	-5.305	-5.569	-5.891	-5.902	-5.967	-5.890	-5.690	-5.351	-4.967	-4.820	-4.361	-3.927	-3.903	-3.769	-3.077	-3.524	-3.564	-3.504	-3.298	-3.665	-3.923	-4.252	-4.337	-4.211
340.0	878.4	 1389	 1717	 1535	 1269	860.9	740.1	879.3	 1140	 1532	 1832	 2166	 2340	 2348	 2127	 1706	 1449	 1311	967.9	654.0	462.7	392.0	497.1	 2041	 5742	 1599	119.9	-11.22	-12.93	-14.57	-13.75	-13.88	-13.18	-12.19	-11.17	-10.45	-9.770	-9.319	-8.984	-8.088	-7.804	-8.186	-7.577	-6.925	-5.657	-5.608	-4.226	-4.202	-3.645	-2.795	-3.679	-4.310	-4.506	-5.267	-5.618	-5.799	-5.345	-5.810	-5.693	-5.684	-4.577	-4.537	-4.434	-4.446	-4.012	-3.783	-3.220	-2.971	-3.502	-3.881	-2.873	-3.254	-4.046	-3.734	-4.155	-4.524	-5.088
345.0	918.1	 1416	 1734	 1582	 1443	 1028	884.4	985.2	 1288	 1536	 1928	 2239	 2409	 2408	 2193	 1817	 1524	 1347	 1218	846.9	583.1	434.4	336.7	640.8	 2888	 5659	 1562	29.81	-10.87	-13.15	-13.77	-13.12	-12.57	-11.76	-11.45	-10.25	-9.805	-9.409	-9.205	-8.538	-8.315	-8.103	-7.420	-6.512	-6.100	-5.794	-4.641	-3.970	-3.409	-3.089	-3.302	-4.015	-4.441	-4.655	-5.385	-5.563	-5.560	-5.709	-5.599	-5.262	-4.435	-4.357	-4.032	-3.642	-3.353	-3.318	-3.369	-3.152	-3.082	-3.244	-3.241	-2.994	-2.939	-3.637	-4.363	-4.421	-4.724
350.0	979.7	 1451	 1839	 1775	 1644	 1257	 1058	 1113	 1404	 1702	 2104	 2374	 2478	 2445	 2282	 1924	 1642	 1437	 1330	 1184	854.8	649.6	496.2	455.2	889.6	 2740	9999.9	 2763	77.63	-9.466	-12.43	-13.05	-11.85	-11.94	-11.04	-9.988	-9.538	-8.898	-8.884	-8.526	-7.954	-8.049	-7.207	-6.556	-6.103	-5.602	-4.433	-3.921	-3.208	-2.628	-3.083	-3.532	-3.861	-4.123	-4.665	-5.166	-4.896	-5.199	-5.064	-4.607	-4.387	-4.419	-4.082	-3.606	-3.475	-3.426	-3.141	-3.155	-2.550	-3.364	-2.504	-2.884	-3.113	-3.422	-3.936	-4.078	-4.242
355.0	 1073	 1630	 1880	 1878	 1791	 1526	 1278	 1311	 1564	 1890	 2212	 2471	 2507	 2423	 2348	 2031	 1784	 1591	 1454	 1381	 1232	937.7	732.6	584.1	542.2	836.2	 3652	 5168	 3698	109.0	-9.460	-11.34	-11.37	-11.63	-11.28	-10.07	-9.091	-9.005	-8.581	-8.322	-7.445	-7.256	-7.620	-6.919	-5.550	-5.342	-3.852	-3.714	-3.029	-2.954	-2.794	-3.447	-3.311	-3.763	-4.371	-4.985	-4.780	-4.744	-4.971	-4.338	-4.676	-4.454	-3.619	-3.851	-3.616	-3.640	-3.049	-3.129	-2.510	-2.324	-2.702	-2.894	-2.656	-2.658	-3.357	-3.549	-3.650
360.0	 1046	 1653	 1929	 1936	 1904	 1615	 1417	 1473	 1652	 1959	 2293	 2524	 2531	 2484	 2387	 2109	 1879	 1720	 1592	 1504	 1430	 1212	933.3	740.5	578.7	498.6	 1027	 2295	 6072	 1393	65.55	-9.232	-10.80	-11.52	-10.70	-10.01	-9.251	-9.100	-8.778	-8.164	-7.457	-7.738	-7.257	-6.758	-6.122	-5.587	-4.114	-4.491	-3.067	-2.941	-3.143	-3.185	-3.251	-3.741	-4.080	-4.452	-4.437	-4.638	-4.173	-4.137	-3.962	-3.769	-3.825	-3.448	-3.366	-3.355	-2.662	-2.853	-2.371	-2.132	-2.523	-2.516	-2.414	-2.619	-3.017	-3.234	-2.940
365.0	 1071	 1581	 1988	 1997	 1969	 1727	 1554	 1584	 1790	 2086	 2335	 2539	 2549	 2473	 2381	 2145	 1959	 1817	 1713	 1633	 1534	 1454	 1184	909.9	692.2	527.4	503.4	702.0	 3210	 5905	 1158	21.76	-9.392	-10.45	-10.38	-9.561	-9.169	-9.014	-8.625	-7.991	-7.533	-7.902	-7.208	-6.595	-5.858	-5.509	-4.401	-4.257	-3.155	-2.713	-2.779	-3.438	-3.304	-3.664	-4.011	-3.994	-4.311	-4.656	-4.434	-3.763	-3.728	-3.408	-3.667	-2.794	-2.875	-3.184	-2.803	-2.498	-2.127	-2.607	-2.906	-2.285	-2.225	-3.290	-2.402	-3.191	-2.672
370.0	 1144	 1617	 1913	 1997	 1988	 1831	 1666	 1666	 1851	 2115	 2372	 2581	 2552	 2477	 2363	 2197	 2044	 1954	 1878	 1812	 1717	 1639	 1508	 1202	923.9	688.5	524.4	422.1	925.6	 3000	 4981	 2712	60.07	-6.695	-8.833	-9.018	-8.495	-8.750	-8.350	-7.653	-7.583	-7.577	-7.141	-6.314	-5.861	-5.698	-4.529	-4.188	-3.319	-2.784	-2.501	-3.247	-2.893	-3.318	-3.315	-3.794	-4.158	-4.384	-3.978	-3.693	-3.490	-3.431	-3.788	-2.975	-2.703	-2.760	-3.007	-2.603	-2.573	-2.886	-2.755	-2.369	-2.624	-2.753	-2.831	-2.577	-2.728
375.0	 1116	 1702	 1787	 2023	 2105	 1963	 1750	 1819	 1887	 2191	 2397	 2542	 2527	 2457	 2397	 2239	 2099	 2028	 2020	 1991	 1907	 1795	 1699	 1529	 1200	907.8	678.0	478.9	456.2	821.4	 1883	 5697	 3435	82.50	-5.821	-7.369	-8.168	-7.911	-8.098	-7.837	-7.222	-7.340	-6.974	-6.174	-5.754	-4.892	-3.800	-4.067	-3.572	-2.481	-2.412	-3.180	-2.832	-3.641	-2.858	-3.555	-3.582	-4.032	-3.291	-3.883	-3.399	-3.843	-3.451	-3.045	-2.761	-2.578	-3.171	-2.480	-2.859	-2.746	-2.972	-2.046	-2.656	-2.327	-2.564	-2.489	-1.998
380.0	 1163	 1490	 1886	 2073	 2117	 1952	 1851	 1837	 1921	 2122	 2384	 2455	 2494	 2434	 2318	 2212	 2109	 2070	 2117	 2097	 2037	 1930	 1823	 1683	 1425	 1086	833.3	599.2	440.3	413.2	574.7	 2694	 6212	 1105	49.77	-5.864	-7.519	-7.739	-8.066	-7.748	-7.520	-7.416	-6.891	-6.518	-5.957	-5.038	-3.800	-3.717	-3.420	-2.810	-2.481	-2.903	-2.458	-3.162	-2.608	-3.354	-3.768	-4.285	-3.191	-3.980	-4.061	-3.451	-3.519	-3.315	-2.565	-2.667	-2.914	-2.765	-2.751	-2.973	-2.660	-2.485	-2.033	-1.872	-2.905	-2.935	-1.812
385.0	968.3	 1505	 1849	 1987	 2119	 2077	 1855	 1799	 1912	 2099	 2319	 2406	 2476	 2384	 2288	 2187	 2083	 2127	 2139	 2146	 2104	 2055	 1924	 1756	 1596	 1268	971.9	718.1	518.2	394.7	327.7	767.7	 3605	 5587	905.0	10.17	-5.597	-7.338	-7.842	-7.446	-6.875	-7.114	-6.792	-6.637	-6.003	-5.735	-4.402	-3.934	-3.517	-2.885	-2.328	-2.592	-3.019	-2.899	-3.314	-3.156	-3.829	-3.928	-3.739	-3.779	-3.463	-3.491	-3.672	-3.341	-3.045	-2.770	-3.184	-2.930	-2.491	-2.436	-2.846	-2.186	-3.011	-2.514	-2.886	-2.619	-1.929
390.0	971.5	 1546	 1840	 2049	 2044	 2017	 1886	 1846	 1869	 2053	 2244	 2336	 2333	 2301	 2238	 2122	 2089	 2099	 2155	 2167	 2165	 2113	 1992	 1844	 1672	 1467	 1164	861.7	649.8	472.2	341.4	340.0	983.7	 3041	 5214	 1962	43.89	-4.793	-6.247	-6.795	-6.532	-6.772	-6.461	-6.347	-5.912	-5.470	-4.362	-4.055	-3.177	-2.951	-2.366	-2.731	-2.955	-3.074	-3.384	-3.181	-3.398	-3.810	-3.838	-3.947	-3.625	-3.849	-3.962	-3.869	-3.275	-2.963	-3.156	-2.964	-2.944	-3.030	-2.893	-2.457	-2.811	-2.444	-2.358	-2.809	-2.174
395.0	882.8	 1461	 1933	 1922	 2043	 1989	 1874	 1860	 1890	 2011	 2095	 2241	 2194	 2224	 2151	 2067	 2056	 2052	 2105	 2148	 2170	 2124	 2055	 1914	 1751	 1555	 1350	 1045	785.1	588.5	428.3	313.0	366.4	772.8	 2190	 5315	 2682	56.62	-4.247	-5.453	-6.040	-6.523	-6.544	-6.177	-5.813	-5.319	-4.231	-3.848	-3.309	-2.859	-2.658	-2.944	-2.666	-3.691	-3.287	-3.376	-3.251	-3.797	-3.933	-3.958	-3.389	-3.926	-3.671	-3.587	-3.421	-3.105	-3.564	-3.334	-3.156	-2.849	-2.950	-2.708	-3.140	-2.280	-2.044	-2.698	-2.421
400.0	919.6	 1444	 1833	 1957	 2034	 1973	 1894	 1857	 1876	 1925	 2067	 2170	 2153	 2128	 2100	 2003	 2011	 2005	 2066	 2125	 2149	 2138	 2069	 1936	 1775	 1592	 1421	 1204	904.7	683.7	522.7	361.1	270.2	288.5	583.9	 2777	 5423	872.9	30.01	-4.763	-5.435	-6.045	-6.230	-5.840	-5.524	-5.514	-4.285	-4.129	-3.331	-2.981	-2.730	-2.907	-2.803	-3.417	-3.229	-3.381	-3.664	-3.809	-4.159	-3.996	-4.024	-3.674	-3.660	-4.055	-3.630	-3.618	-3.596	-3.232	-3.757	-2.729	-3.043	-3.144	-3.360	-1.892	-2.270	-2.904	-2.784
405.0	886.4	 1284	 1824	 1874	 1954	 1947	 1851	 1846	 1883	 1887	 1999	 2102	 2044	 2034	 2032	 1958	 1980	 1963	 2033	 2084	 2105	 2088	 2033	 1954	 1806	 1628	 1448	 1297	 1026	778.5	593.4	427.0	290.8	217.4	220.2	749.3	 3365	 4543	685.1	7.848	-4.957	-5.891	-6.481	-5.834	-6.025	-5.498	-3.845	-4.489	-3.686	-3.034	-2.866	-3.450	-3.385	-3.415	-3.341	-3.309	-3.680	-3.908	-3.996	-3.901	-3.970	-3.829	-3.921	-3.837	-3.789	-3.574	-3.673	-3.410	-3.552	-3.393	-3.573	-3.392	-3.222	-2.747	-3.222	-2.747	-2.816
410.0	812.2	 1324	 1604	 1798	 1843	 1892	 1782	 1753	 1815	 1856	 1953	 2013	 1996	 1949	 1914	 1884	 1866	 1890	 1941	 1988	 2028	 2009	 1993	 1928	 1803	 1651	 1472	 1317	 1155	916.1	692.7	509.2	361.9	252.3	181.9	248.9	892.4	 2666	 3729	 1568	37.28	-3.791	-5.480	-5.823	-5.421	-5.411	-4.283	-4.234	-3.783	-2.947	-2.949	-3.721	-3.282	-3.327	-3.365	-3.538	-3.741	-4.142	-3.921	-3.959	-4.110	-4.134	-3.883	-3.648	-3.979	-4.117	-3.942	-3.459	-3.673	-3.570	-3.252	-3.703	-3.621	-3.496	-3.392	-2.982	-3.205
415.0	868.8	 1116	 1532	 1767	 1789	 1780	 1720	 1690	 1774	 1825	 1906	 1915	 1877	 1812	 1815	 1776	 1751	 1773	 1814	 1880	 1905	 1938	 1929	 1864	 1754	 1637	 1495	 1326	 1174	 1038	802.6	592.3	427.2	304.8	215.1	169.1	271.6	641.4	 1609	 4091	 2096	52.46	-4.470	-5.124	-5.397	-5.704	-4.654	-4.221	-3.780	-3.118	-2.972	-3.881	-3.598	-3.740	-3.659	-3.632	-4.048	-3.946	-4.262	-4.315	-4.091	-4.057	-4.196	-4.120	-4.271	-4.240	-4.192	-4.217	-3.399	-3.946	-3.798	-3.701	-3.648	-3.838	-3.475	-3.273	-2.972
420.0	689.5	 1104	 1385	 1681	 1802	 1739	 1730	 1659	 1710	 1747	 1864	 1877	 1811	 1746	 1719	 1706	 1678	 1691	 1723	 1768	 1814	 1831	 1832	 1793	 1715	 1619	 1483	 1337	 1189	 1058	892.6	658.4	482.3	348.5	247.3	171.1	148.9	198.1	414.2	 2111	 4206	772.5	20.13	-4.145	-5.130	-5.211	-4.332	-4.111	-3.944	-3.116	-2.938	-3.839	-3.326	-3.765	-3.693	-3.766	-3.713	-4.150	-4.398	-4.578	-4.515	-3.460	-3.611	-4.072	-4.513	-4.441	-4.252	-3.822	-4.321	-3.854	-4.239	-4.008	-3.946	-3.511	-3.340	-3.461	-3.435
425.0	648.7	 1148	 1316	 1598	 1612	 1644	 1614	 1660	 1659	 1689	 1752	 1796	 1738	 1682	 1629	 1617	 1607	 1611	 1638	 1684	 1717	 1732	 1745	 1727	 1677	 1589	 1455	 1326	 1189	 1046	938.7	720.1	532.6	383.6	275.5	195.2	137.4	111.7	135.1	554.6	 2604	 3643	574.7	2.766	-4.088	-4.245	-4.485	-4.292	-3.599	-3.225	-3.098	-3.330	-3.561	-3.358	-3.693	-3.892	-3.784	-3.681	-4.547	-4.695	-4.728	-4.464	-4.227	-4.379	-4.503	-4.322	-4.321	-4.079	-4.329	-4.039	-4.127	-3.942	-4.120	-3.593	-3.655	-3.616	-3.670
430.0	793.4	976.8	 1345	 1473	 1618	 1535	 1588	 1598	 1621	 1643	 1692	 1723	 1655	 1580	 1535	 1511	 1491	 1518	 1538	 1582	 1584	 1624	 1622	 1626	 1592	 1525	 1418	 1311	 1193	 1058	931.7	785.0	595.5	429.1	312.1	228.2	160.2	112.2	87.51	161.9	675.4	 2061	 3001	 1233	30.83	-3.423	-3.975	-4.018	-3.574	-3.221	-3.270	-3.677	-3.856	-4.082	-3.832	-4.317	-3.915	-4.236	-4.429	-4.178	-4.474	-4.588	-4.564	-4.655	-4.288	-4.313	-4.142	-4.048	-4.498	-4.402	-4.450	-4.247	-4.210	-4.367	-4.305	-4.162	-4.086
435.0	 1344	813.5	 1204	 1348	 1485	 1520	 1529	 1538	 1540	 1620	 1638	 1662	 1558	 1480	 1432	 1411	 1403	 1404	 1433	 1468	 1480	 1512	 1530	 1517	 1504	 1453	 1375	 1296	 1182	 1071	921.3	782.8	648.2	489.0	353.8	259.3	184.9	129.7	94.30	85.03	183.6	482.5	 1323	 3620	758.4	40.82	-2.645	-3.787	-3.518	-3.137	-3.333	-3.771	-3.616	-4.232	-4.084	-4.262	-4.231	-4.593	-4.592	-4.581	-4.375	-4.968	-4.585	-5.012	-4.533	-4.615	-4.226	-4.950	-4.257	-4.450	-4.742	-4.285	-4.476	-4.377	-4.696	-4.660	-4.742
440.0	 1374	 1056	 1219	 1349	 1457	 1483	 1467	 1465	 1493	 1539	 1548	 1582	 1533	 1383	 1359	 1335	 1310	 1308	 1349	 1375	 1385	 1409	 1431	 1440	 1429	 1383	 1324	 1253	 1171	 1048	917.4	778.0	657.1	530.8	376.9	273.8	206.0	146.0	105.7	77.68	79.48	133.2	329.6	 1986	 3557	666.5	14.49	-2.914	-3.576	-2.959	-2.872	-3.746	-3.465	-4.366	-3.899	-4.541	-4.542	-3.471	-4.725	-4.755	-4.782	-4.530	-4.402	-4.477	-4.877	-4.865	-4.686	-4.535	-5.191	-5.125	-5.016	-4.654	-4.291	-4.658	-4.744	-4.708	-4.487
445.0	 1165	 1432	 1034	 1254	 1371	 1368	 1402	 1389	 1456	 1519	 1543	 1509	 1467	 1318	 1297	 1273	 1232	 1250	 1250	 1287	 1302	 1327	 1339	 1356	 1346	 1309	 1283	 1212	 1142	 1027	914.8	771.1	639.8	539.4	410.5	292.9	221.2	159.8	117.7	84.16	64.66	60.87	93.18	520.9	 2460	 3382	452.6	1.336	-2.933	-2.884	-2.488	-3.928	-3.819	-4.218	-3.989	-4.867	-4.056	-3.950	-4.354	-4.773	-4.562	-3.885	-4.697	-4.522	-5.140	-5.149	-5.184	-4.834	-4.967	-5.473	-5.448	-4.674	-4.865	-4.682	-4.566	-5.199	-5.454
450.0	528.9	 1609	 1205	 1133	 1227	 1239	 1251	 1314	 1327	 1360	 1391	 1394	 1328	 1231	 1180	 1175	 1145	 1130	 1142	 1169	 1182	 1202	 1224	 1235	 1238	 1218	 1188	 1132	 1074	983.3	874.4	741.0	620.4	518.0	424.7	325.3	234.7	174.7	129.4	95.75	69.59	50.84	46.83	133.2	640.8	 2101	 2989	 1094	24.62	-2.012	-2.945	-3.900	-3.984	-3.983	-4.349	-4.646	-4.346	-4.651	-4.795	-4.861	-4.871	-4.607	-5.090	-4.826	-4.976	-5.143	-4.948	-5.026	-5.122	-5.130	-5.358	-5.446	-5.140	-5.440	-5.128	-5.461	-5.550
455.0	162.5	 1012	 1590	 1083	 1046	 1118	 1135	 1177	 1234	 1286	 1287	 1264	 1216	 1114	 1066	 1046	 1016	 1009	 1021	 1043	 1049	 1071	 1091	 1108	 1111	 1098	 1077	 1029	976.4	906.9	814.5	709.7	588.5	489.2	407.0	345.8	256.0	184.7	137.1	107.5	76.76	57.24	42.80	52.57	157.4	483.9	 1384	 3363	603.1	28.16	-2.196	-3.593	-4.129	-3.935	-4.433	-4.413	-4.742	-4.891	-4.944	-5.315	-5.085	-5.186	-5.184	-5.141	-5.367	-5.235	-5.577	-4.760	-5.676	-5.330	-5.804	-5.936	-5.261	-5.627	-5.872	-6.128	-5.523
460.0	48.36	626.0	 1717	 1212	954.7	 1020	 1074	 1089	 1166	 1157	 1221	 1171	 1155	 1031	992.3	954.5	927.0	919.8	919.9	932.0	951.5	978.7	 1006	999.2	 1016	 1006	998.5	960.9	915.0	850.5	769.4	669.4	560.9	463.3	384.0	328.4	267.6	195.8	147.6	113.3	85.41	58.81	45.19	35.95	52.79	119.7	339.0	 1913	 3175	472.2	12.32	-3.627	-3.754	-4.147	-4.941	-4.798	-4.512	-5.051	-5.062	-5.069	-4.983	-5.243	-5.555	-5.037	-5.478	-5.728	-5.725	-5.419	-5.907	-5.764	-5.994	-5.737	-5.907	-5.691	-5.621	-6.188	-5.277
465.0	-3.647	306.6	 1350	 1443	849.2	938.5	973.6	988.9	 1058	 1100	 1155	 1061	 1019	956.6	909.2	863.1	867.9	845.2	846.0	854.4	861.6	884.5	902.6	900.9	915.7	919.8	910.2	881.2	847.3	791.1	717.5	628.9	536.4	440.3	358.8	309.5	265.5	206.4	147.1	115.0	88.53	65.13	48.09	36.47	31.35	41.60	86.37	503.1	 2302	 2767	384.3	-0.220	-3.104	-4.144	-4.390	-4.910	-4.685	-5.414	-5.684	-5.275	-5.413	-5.201	-5.552	-5.556	-5.596	-5.683	-5.716	-5.788	-5.835	-5.737	-6.011	-6.038	-6.087	-5.682	-5.596	-6.470	-6.044
470.0	-153.7	181.0	687.4	 1534	 1010	824.3	854.3	902.1	924.8	954.8	994.9	962.0	911.0	837.5	803.8	755.6	757.1	741.0	741.2	743.8	747.5	775.8	789.9	798.0	802.1	804.6	801.8	778.5	752.6	708.2	649.4	575.0	490.8	411.5	335.0	280.9	243.6	205.8	158.5	115.8	89.81	69.50	52.35	38.93	31.42	26.72	31.67	120.6	594.5	 1798	 2249	846.3	19.95	-3.602	-4.437	-4.927	-4.950	-5.535	-5.602	-5.627	-5.728	-5.653	-6.063	-5.497	-5.711	-5.836	-5.956	-5.929	-5.699	-6.054	-6.063	-6.214	-6.000	-6.271	-6.209	-6.519	-6.431
475.0	-195.0	67.15	393.5	 1042	 1529	747.3	742.2	788.4	800.2	842.9	851.1	852.3	780.5	743.6	715.9	659.4	655.7	645.3	641.3	635.8	652.3	670.5	678.4	682.2	700.3	695.7	695.8	684.3	666.3	632.3	577.1	515.8	447.5	379.0	310.5	259.5	220.2	192.6	167.2	126.4	94.51	71.91	56.36	41.88	33.15	25.88	22.85	37.23	140.3	410.1	 1001	 2366	563.6	25.33	-3.820	-4.751	-4.564	-5.607	-5.514	-5.591	-5.951	-6.142	-6.158	-5.981	-6.235	-6.087	-5.899	-6.015	-6.095	-6.586	-6.405	-6.407	-6.612	-6.672	-6.613	-6.763	-6.297
480.0	-244.9	12.15	298.5	619.0	 1582	935.2	630.8	673.7	718.1	781.7	789.9	774.3	735.0	657.8	635.6	594.7	596.2	584.7	574.3	571.0	584.4	586.8	618.3	619.2	637.4	636.8	633.7	618.0	594.8	575.5	534.1	475.7	411.8	349.7	296.3	249.2	210.2	176.9	157.2	137.2	96.56	74.80	59.11	44.62	37.78	28.08	22.84	22.43	39.60	98.14	243.0	 1298	 2306	489.0	5.162	-4.549	-4.528	-5.748	-5.821	-5.772	-5.871	-6.118	-5.964	-6.010	-6.323	-6.099	-5.838	-6.651	-6.410	-6.645	-6.766	-6.600	-6.783	-6.369	-6.872	-7.174	-6.954
485.0	-278.8	-34.59	184.3	397.1	 1257	 1235	604.4	611.3	655.6	680.4	699.8	678.2	672.6	611.0	592.7	554.5	545.9	531.1	522.1	526.7	531.5	537.5	560.1	567.0	575.9	580.4	589.1	567.2	550.8	530.1	490.9	442.6	386.3	331.0	283.8	235.3	198.8	170.6	149.0	135.4	102.5	75.85	60.50	47.63	39.08	30.43	24.69	19.78	19.51	29.87	60.40	338.5	 1648	 2124	72.25	-2.362	-4.603	-5.677	-5.964	-6.114	-5.789	-6.255	-6.191	-6.127	-6.221	-6.257	-6.180	-6.714	-6.697	-6.691	-6.887	-6.793	-6.731	-6.505	-7.063	-7.114	-7.105
490.0	-364.8	-76.93	163.2	314.4	642.6	 1361	893.1	558.2	590.4	616.1	624.8	633.1	585.1	547.8	523.2	490.8	483.0	460.7	460.5	465.2	465.0	476.0	494.0	496.5	507.2	514.6	511.9	505.7	494.6	474.9	443.0	394.8	354.2	306.0	262.3	222.1	188.4	161.6	137.4	123.5	109.9	86.18	61.14	50.29	41.88	33.93	28.45	22.29	18.32	16.79	21.48	80.24	423.6	 1315	 1797	762.9	23.35	-4.756	-5.535	-5.749	-5.975	-6.365	-6.348	-6.326	-6.574	-6.397	-6.599	-6.536	-6.684	-6.911	-7.019	-6.909	-6.676	-6.474	-7.124	-7.361	-7.314
495.0	-454.1	-146.6	23.87	197.6	390.7	863.6	 1443	478.9	507.3	555.2	581.3	569.3	517.4	484.7	469.2	433.6	426.3	400.9	401.3	407.1	402.5	413.3	428.6	431.0	434.7	447.6	446.3	442.2	433.3	415.0	395.0	352.0	313.8	271.2	240.8	206.2	176.1	147.6	128.2	111.8	98.54	89.62	68.14	52.36	42.88	36.69	31.19	24.42	21.63	16.75	15.55	24.00	97.95	297.3	845.8	 2264	645.1	21.95	-5.423	-5.774	-5.491	-6.142	-6.525	-6.756	-6.656	-6.439	-6.533	-6.734	-6.867	-7.220	-7.281	-7.000	-7.186	-7.107	-7.243	-7.540	-7.464
500.0	-472.5	-198.2	24.56	163.4	283.0	494.6	 1493	680.6	427.8	486.1	522.8	491.6	469.4	442.5	409.0	380.6	377.3	360.1	353.4	364.1	364.0	369.8	373.4	383.5	392.2	398.2	403.7	398.7	394.5	376.8	352.8	322.8	288.7	245.7	217.9	191.6	163.6	136.9	120.5	103.1	91.40	87.47	71.49	55.73	44.02	37.16	31.36	26.19	20.61	18.39	13.93	11.90	25.88	69.03	202.1	 1234	 3099	496.8	3.690	-5.548	-5.826	-6.126	-6.645	-6.727	-6.365	-6.930	-6.668	-6.968	-6.731	-7.003	-7.258	-7.115	-7.075	-7.168	-7.381	-7.512	-7.896
505.0	-522.9	-245.7	-37.47	80.83	203.9	299.6	990.1	 1038	395.0	401.7	472.1	434.6	432.7	397.3	365.2	354.2	332.3	321.2	320.9	322.6	316.6	330.2	330.3	342.6	355.2	356.2	369.6	351.7	351.0	339.5	313.5	291.8	255.3	227.3	202.1	173.9	152.2	131.2	111.1	95.36	83.05	75.54	72.39	58.41	45.23	36.32	32.21	27.78	21.84	18.84	14.67	9.575	10.83	18.18	46.12	314.8	 2246	 2087	76.29	-3.501	-5.805	-6.166	-6.708	-6.764	-6.395	-6.925	-7.081	-7.130	-6.929	-7.028	-7.353	-7.298	-7.242	-7.341	-7.559	-7.822	-7.554
510.0	-575.4	-319.0	-108.0	60.12	138.7	219.1	456.3	 1176	668.6	339.1	367.8	377.5	370.9	343.9	317.2	297.8	287.7	273.1	269.5	270.7	269.6	279.9	283.6	292.9	299.9	306.8	309.1	300.8	298.1	286.8	277.1	247.5	223.2	200.1	176.4	156.2	134.0	118.3	98.23	88.61	76.52	65.90	63.41	57.67	48.03	36.60	32.21	26.57	22.77	18.64	15.31	10.11	8.662	7.034	11.84	69.97	577.9	 1262	 1632	352.9	17.78	-5.763	-6.260	-6.784	-6.715	-7.063	-6.995	-6.968	-7.328	-7.346	-7.398	-7.234	-7.448	-7.571	-7.689	-7.896	-7.784
515.0	-580.1	-394.8	-235.1	22.98	98.79	148.8	203.6	654.9	 1129	365.6	298.9	300.6	308.4	287.5	262.4	253.7	239.3	227.5	227.2	226.9	226.6	230.6	236.0	248.0	253.5	254.2	255.2	257.7	248.2	241.2	228.6	211.2	191.1	170.1	153.2	135.8	114.5	102.5	89.78	79.69	69.17	58.81	51.05	49.90	46.42	38.53	31.21	24.46	21.93	19.18	14.99	10.99	8.218	4.872	4.075	15.43	127.7	281.5	732.3	 1785	576.9	17.83	-6.232	-6.736	-6.876	-6.991	-7.034	-7.216	-7.578	-7.184	-7.469	-7.407	-7.467	-7.711	-7.778	-7.823	-7.935
520.0	-663.8	-416.2	-255.2	-60.85	75.54	109.1	151.0	302.7	 1126	643.5	274.7	263.1	249.4	255.9	225.5	218.3	209.2	198.0	198.8	198.1	191.3	199.9	204.1	210.5	223.2	223.8	226.8	223.3	219.3	212.8	196.3	185.2	168.4	149.9	133.0	120.7	102.5	92.44	81.83	72.46	61.51	54.24	46.24	42.94	45.27	39.41	29.65	22.95	21.37	18.20	14.86	10.09	7.280	4.565	2.601	3.242	27.41	60.77	170.9	983.2	 1789	434.8	0.977	-6.338	-7.043	-6.868	-7.031	-7.371	-7.481	-7.458	-7.611	-7.628	-7.758	-7.897	-7.898	-7.771	-8.227
525.0	-674.4	-479.9	-272.4	-120.8	59.42	98.88	114.4	166.9	712.5	 1103	247.6	212.8	218.2	224.6	203.7	187.2	176.8	169.8	167.9	175.0	164.9	172.3	178.1	188.8	192.0	196.3	206.2	195.8	186.6	187.3	175.3	164.3	146.7	133.2	121.0	105.5	95.04	83.53	71.18	64.76	58.12	49.12	43.60	37.53	38.95	38.43	32.05	22.64	19.63	17.79	14.25	10.19	6.804	4.245	2.336	0.805	4.439	11.44	34.87	246.6	 1192	 1561	73.89	-4.878	-6.826	-7.124	-6.955	-7.625	-7.233	-7.653	-7.752	-7.701	-7.640	-8.153	-7.966	-8.281	-8.343
530.0	-727.6	-514.8	-325.5	-158.8	-32.55	63.44	56.61	96.46	284.2	 1097	587.0	184.2	188.0	182.2	167.7	156.4	149.3	142.6	139.4	142.2	142.5	146.4	146.8	159.1	159.9	166.9	170.9	161.5	159.6	156.5	149.1	138.5	127.3	113.8	102.0	91.71	80.60	72.00	63.75	55.54	49.53	44.04	37.40	33.73	30.91	32.70	32.11	24.16	18.87	15.98	13.02	9.312	7.078	3.715	1.777	-0.261	-0.754	-0.075	4.521	51.61	296.7	914.5	 1171	336.7	12.45	-6.919	-7.223	-7.403	-7.581	-7.525	-7.853	-7.790	-7.797	-7.869	-7.892	-8.296	-8.383
535.0	-684.7	-581.4	-363.0	-202.6	-116.4	8.586	34.90	32.84	118.2	475.1	 1169	243.3	147.1	151.2	135.5	118.1	122.3	107.5	115.2	115.5	113.2	116.0	119.5	130.3	131.7	138.5	136.7	133.5	129.0	126.2	123.1	112.8	103.4	97.84	83.97	75.92	66.99	62.75	52.98	48.38	42.02	38.18	32.94	28.26	25.58	24.86	26.32	23.01	18.45	14.10	11.26	7.149	5.285	2.891	2.261	-0.497	-1.803	-2.345	-2.174	7.872	61.75	200.8	506.5	 1270	498.0	8.533	-7.234	-7.410	-7.484	-7.609	-7.658	-7.850	-7.836	-7.994	-8.123	-8.182	-8.529
540.0	-753.0	-565.8	-380.7	-229.8	-158.2	-42.81	29.57	19.00	55.60	161.7	 1084	536.9	122.6	116.8	110.6	100.3	103.0	87.44	93.10	98.37	96.29	100.5	104.8	108.6	109.6	115.0	118.2	114.4	113.8	105.0	103.0	97.08	88.35	81.19	71.40	66.64	60.77	53.84	46.61	42.73	36.74	32.97	27.51	23.55	22.30	20.91	21.21	21.85	19.27	13.63	10.17	6.328	4.261	2.620	0.833	-0.950	-1.546	-3.597	-4.288	-1.948	9.686	40.48	114.9	673.4	 1260	80.73	-3.439	-7.229	-7.559	-8.180	-7.705	-8.066	-7.876	-7.905	-8.115	-8.151	-8.489
545.0	-783.5	-579.0	-375.7	-282.4	-163.5	-71.52	14.73	7.169	26.29	60.28	653.2	927.9	122.5	92.88	96.00	76.60	81.82	73.12	77.02	78.76	81.92	79.63	87.03	91.25	93.58	97.66	102.5	95.86	97.05	90.40	89.49	83.16	78.15	68.17	62.94	56.17	53.36	46.16	39.92	35.91	32.22	26.64	23.65	21.13	18.55	18.08	16.84	18.55	17.92	14.38	9.259	5.463	3.662	0.979	0.105	-1.419	-2.342	-3.874	-4.242	-4.303	-2.228	4.719	20.93	165.2	834.1	 1010	65.42	-6.656	-7.204	-8.160	-7.711	-8.178	-7.732	-8.075	-8.073	-8.361	-8.565
550.0	-792.4	-599.7	-403.7	-291.7	-196.0	-121.6	-49.04	-5.151	-18.61	15.97	189.7	830.7	459.6	58.73	65.33	59.79	57.45	57.27	58.62	57.43	60.91	62.40	67.55	69.61	72.57	77.38	79.74	73.83	77.21	72.93	71.64	66.05	61.93	54.67	49.55	44.88	41.35	35.81	32.18	28.31	25.60	21.98	19.15	16.89	15.54	14.19	13.50	12.97	13.91	13.41	8.254	4.624	2.498	0.120	-0.496	-2.123	-2.828	-3.969	-4.923	-5.277	-4.891	-3.676	-0.275	31.73	206.0	618.0	731.2	273.6	4.821	-7.810	-7.850	-7.909	-8.079	-8.196	-8.099	-8.717	-8.798
555.0	-856.0	-621.3	-433.1	-306.7	-237.2	-165.0	-98.83	-26.35	-26.38	-25.86	35.75	301.1	920.0	131.0	37.38	43.99	35.63	38.44	37.53	39.46	40.98	45.48	48.19	51.18	56.40	60.53	61.62	54.76	56.45	53.45	52.25	48.74	42.39	41.69	36.66	33.59	31.15	26.23	23.69	22.56	19.14	16.96	14.85	11.74	10.97	9.928	9.358	8.290	9.110	10.41	7.991	3.317	0.927	-1.297	-1.879	-3.038	-3.966	-4.844	-4.934	-5.545	-5.739	-5.484	-5.417	1.929	40.58	133.6	345.1	852.8	316.9	-1.004	-7.769	-7.874	-7.960	-8.016	-8.233	-8.772	-8.859
560.0	-808.8	-610.4	-465.9	-336.6	-233.9	-182.5	-125.2	-61.74	-46.24	-47.58	-8.649	79.97	809.3	423.1	25.24	23.23	23.51	25.99	30.50	28.81	29.56	30.68	31.93	38.47	39.85	42.96	46.38	44.04	44.01	42.51	37.66	37.84	34.41	32.29	28.90	25.95	22.96	22.33	19.41	15.93	15.14	11.09	10.54	9.252	7.611	8.117	6.648	5.724	6.066	6.652	6.724	2.577	0.104	-1.940	-2.569	-4.005	-4.390	-4.669	-5.484	-5.535	-6.367	-6.277	-6.470	-4.839	3.785	24.28	77.23	474.3	746.4	71.97	-6.646	-8.033	-8.270	-8.281	-8.337	-8.747	-8.528
565.0	-774.5	-639.0	-469.3	-333.6	-255.9	-183.4	-156.5	-99.02	-24.21	-52.36	-40.25	15.06	417.2	785.3	33.85	5.651	12.44	14.46	17.67	19.21	20.63	24.32	25.14	25.32	30.69	33.28	37.38	34.03	33.50	30.67	32.24	30.08	26.93	25.19	21.25	20.12	17.68	15.40	14.83	11.37	11.18	8.311	7.485	7.053	5.747	4.954	4.238	3.451	4.274	3.132	4.061	2.092	-0.175	-2.521	-3.378	-4.182	-4.822	-5.170	-5.704	-5.963	-6.545	-6.612	-6.982	-6.632	-4.469	-0.251	11.64	118.2	544.6	590.7	48.30	-7.812	-8.189	-8.495	-8.193	-8.648	-8.864
570.0	-795.1	-649.5	-475.6	-349.8	-281.2	-205.9	-174.0	-132.7	-49.51	-46.89	-48.03	-20.03	99.02	680.5	358.8	-1.991	0.704	3.125	6.495	8.106	10.91	13.11	15.21	16.60	20.63	21.93	23.54	23.01	23.50	20.80	21.06	20.75	17.68	17.20	14.71	13.83	12.23	10.48	9.600	7.337	7.136	5.444	3.450	3.373	3.259	2.151	2.254	1.575	1.418	1.643	1.637	0.076	0.013	-2.620	-3.786	-4.202	-5.407	-5.742	-6.028	-6.504	-6.521	-6.635	-7.117	-7.240	-6.801	-5.746	-3.354	20.35	135.9	387.9	456.4	151.0	-2.197	-8.335	-8.296	-8.529	-8.862
575.0	-838.4	-644.2	-482.7	-364.4	-289.6	-218.9	-181.8	-146.9	-96.34	-36.38	-49.58	-33.79	1.528	226.8	739.4	69.21	-8.840	-6.172	-6.625	0.288	1.029	2.563	7.757	9.983	12.91	12.96	14.17	13.72	14.15	14.08	11.95	12.36	10.62	9.616	8.693	8.963	6.614	5.477	6.134	3.953	2.883	1.419	0.502	0.321	0.118	0.413	0.837	-0.130	-0.708	-0.402	-0.743	-2.028	-1.787	-2.927	-3.967	-5.176	-5.703	-6.134	-6.465	-6.721	-6.808	-6.921	-7.277	-7.484	-7.151	-7.253	-6.848	-1.495	23.90	81.46	222.4	498.0	77.03	-5.145	-8.434	-8.625	-9.140
580.0	-799.8	-589.9	-483.0	-376.3	-295.2	-232.1	-191.6	-154.4	-104.9	-39.37	-48.62	-40.53	-17.97	44.04	634.0	311.8	-14.30	-12.68	-9.134	-4.979	-3.273	-0.654	1.977	2.522	7.609	5.563	9.073	7.338	8.762	8.721	7.345	7.043	6.418	5.021	5.658	4.245	3.803	2.465	4.127	2.100	0.744	-0.682	-1.167	-1.549	-0.841	-1.142	-0.338	-1.924	-1.874	-1.020	-1.881	-2.971	-2.777	-2.902	-3.946	-5.524	-6.390	-6.106	-6.469	-6.632	-6.728	-6.931	-6.923	-7.456	-7.503	-7.458	-7.774	-6.257	-0.610	11.95	48.27	294.7	438.2	58.11	-7.854	-8.653	-8.849
585.0	-811.9	-606.7	-495.3	-366.9	-300.5	-251.0	-192.5	-154.9	-117.1	-56.60	-32.24	-42.82	-22.23	-8.860	305.7	585.1	-1.467	-16.11	-12.03	-9.789	-9.407	-4.410	-1.295	-0.508	2.018	3.285	4.593	2.568	3.400	4.864	3.766	2.804	3.495	2.384	1.922	2.915	1.945	0.278	0.267	-0.437	-1.160	-1.597	-2.083	-1.717	-2.262	-2.928	-1.374	-2.904	-2.256	-1.607	-2.250	-3.772	-3.711	-3.640	-3.720	-5.266	-6.378	-6.765	-6.504	-6.911	-7.247	-7.087	-7.025	-7.178	-7.444	-7.615	-7.414	-7.292	-6.264	-3.648	4.456	73.73	341.4	337.9	33.52	-8.584	-9.017
590.0	-818.0	-640.6	-497.5	-377.5	-303.3	-252.3	-194.9	-162.0	-128.7	-89.06	-23.05	-34.54	-24.70	-18.15	59.58	486.5	234.3	-20.39	-18.03	-13.67	-10.93	-9.492	-6.134	-5.455	-3.488	-2.079	-1.117	-0.195	-1.059	0.317	-0.103	-0.263	0.019	-0.122	-0.558	-0.373	-0.578	-1.274	-2.048	-2.149	-3.234	-3.522	-3.703	-3.310	-3.328	-3.756	-3.053	-3.671	-3.298	-2.666	-2.830	-4.572	-4.636	-5.086	-4.355	-5.278	-6.332	-6.848	-6.888	-7.221	-7.380	-7.408	-7.381	-7.314	-7.432	-7.529	-7.876	-7.792	-7.539	-7.176	-5.166	10.11	84.95	240.2	268.2	44.28	-5.794
595.0	-806.4	-650.9	-472.4	-382.9	-305.1	-255.6	-194.9	-166.3	-134.8	-105.3	-43.78	-28.16	-23.96	-16.09	-6.776	141.9	501.8	36.37	-22.46	-17.99	-14.61	-13.04	-11.62	-7.902	-7.864	-5.544	-5.234	-3.502	-4.537	-3.531	-3.160	-3.793	-2.945	-2.815	-3.468	-2.981	-3.096	-3.363	-3.660	-4.451	-4.595	-4.457	-5.075	-4.803	-4.361	-5.293	-4.216	-4.629	-3.942	-3.465	-3.779	-5.289	-5.305	-5.914	-5.249	-5.450	-6.075	-6.748	-6.967	-7.480	-7.496	-7.601	-7.416	-7.559	-7.586	-7.478	-7.824	-7.959	-7.939	-8.090	-7.654	-4.166	12.58	48.10	138.1	286.6	65.19
600.0	-803.9	-674.2	-498.0	-397.5	-314.6	-256.7	-211.8	-169.2	-133.7	-104.4	-60.88	-0.828	-17.17	-17.46	-19.34	13.96	413.4	200.9	-22.23	-20.65	-17.24	-14.02	-14.06	-10.26	-10.06	-7.377	-7.440	-5.371	-6.453	-6.188	-5.177	-5.789	-3.301	-4.964	-4.841	-3.590	-4.414	-4.399	-4.704	-5.083	-5.635	-5.382	-6.317	-5.383	-5.104	-6.007	-4.690	-4.879	-4.521	-4.109	-4.513	-5.835	-5.420	-6.214	-5.700	-5.870	-5.771	-6.601	-7.003	-7.478	-7.534	-7.592	-7.598	-7.656	-7.660	-7.696	-7.916	-7.810	-7.866	-8.067	-8.289	-7.303	-3.652	4.229	28.28	184.0	250.2
605.0	-830.9	-654.0	-494.9	-368.0	-316.0	-234.6	-221.1	-169.7	-142.5	-110.6	-68.13	-5.540	-15.02	-21.19	-19.08	-16.37	189.9	407.8	-8.120	-20.88	-18.15	-15.47	-15.38	-12.31	-10.97	-10.07	-8.275	-8.649	-8.708	-7.942	-6.979	-5.879	-6.513	-6.395	-6.060	-5.815	-5.834	-5.676	-6.054	-5.631	-5.824	-6.479	-5.969	-6.166	-6.122	-6.452	-5.104	-5.627	-4.748	-4.252	-4.563	-5.813	-5.545	-6.447	-6.423	-6.544	-6.311	-6.483	-7.153	-7.324	-7.565	-7.647	-7.788	-7.715	-7.736	-7.846	-7.670	-7.945	-7.920	-8.138	-8.211	-8.080	-7.241	-5.528	-0.255	43.90	200.4
610.0	-826.9	-656.3	-499.6	-390.0	-321.4	-253.9	-214.5	-170.4	-150.6	-108.7	-77.93	-18.34	0.152	-12.97	-16.48	-24.32	29.02	362.6	169.9	-21.66	-19.87	-18.94	-16.94	-15.18	-12.65	-12.50	-10.69	-10.32	-10.63	-10.16	-9.265	-8.312	-8.139	-8.191	-7.096	-6.832	-6.970	-6.782	-7.172	-6.988	-7.070	-7.290	-7.395	-7.058	-6.939	-6.359	-5.898	-6.054	-5.440	-4.717	-4.679	-6.272	-6.118	-6.636	-6.656	-6.957	-6.998	-6.748	-7.036	-7.360	-7.604	-7.615	-7.703	-7.856	-7.991	-7.790	-7.744	-7.763	-8.037	-8.292	-8.182	-8.412	-8.032	-7.781	-6.659	3.057	47.46
615.0	-854.6	-676.5	-499.0	-393.5	-310.2	-251.2	-215.3	-182.6	-145.1	-113.8	-77.25	-32.17	18.02	-3.934	-14.35	-21.29	-15.15	115.0	384.0	22.18	-21.43	-20.97	-18.95	-15.89	-14.46	-14.39	-12.33	-11.97	-12.25	-12.16	-10.69	-10.28	-9.549	-9.410	-8.788	-8.165	-8.206	-7.897	-7.823	-7.962	-7.654	-7.955	-8.071	-7.508	-7.457	-7.103	-6.469	-6.688	-5.999	-4.993	-5.176	-6.369	-6.457	-6.969	-6.699	-7.151	-7.312	-7.142	-7.038	-7.556	-7.640	-7.824	-7.701	-8.035	-7.783	-7.741	-7.853	-7.909	-7.929	-8.102	-8.200	-8.285	-8.253	-8.248	-7.997	-6.179	3.509
620.0	-911.8	-631.3	-488.4	-400.0	-330.3	-259.9	-217.7	-180.1	-150.0	-108.3	-78.98	-33.13	5.568	8.605	-15.24	-21.24	-21.09	11.16	341.9	163.2	-22.91	-21.32	-19.54	-17.94	-14.82	-15.84	-13.21	-13.71	-12.97	-13.01	-11.96	-11.10	-9.950	-10.16	-9.312	-8.730	-7.627	-8.131	-8.078	-8.042	-8.240	-8.311	-8.259	-7.754	-8.027	-7.333	-6.635	-6.582	-6.219	-5.200	-5.309	-6.232	-6.279	-7.097	-6.855	-7.315	-7.371	-7.625	-7.224	-7.274	-7.551	-7.845	-7.680	-7.775	-7.899	-7.774	-7.977	-7.949	-8.133	-8.091	-8.305	-8.141	-8.245	-8.301	-8.023	-8.120	-6.194
625.0	-851.9	-660.0	-501.4	-404.1	-319.3	-265.0	-201.9	-175.7	-156.6	-114.7	-82.46	-31.90	-3.926	14.05	-13.46	-16.66	-20.89	-13.60	162.8	329.1	-10.96	-21.49	-19.86	-18.04	-16.51	-15.91	-13.86	-14.24	-13.79	-14.02	-12.66	-12.18	-10.92	-10.59	-9.596	-8.941	-8.467	-8.725	-8.615	-8.519	-8.467	-8.640	-8.299	-8.491	-7.868	-7.904	-6.608	-6.777	-6.250	-5.190	-5.578	-6.613	-6.616	-7.176	-7.020	-7.325	-7.768	-7.942	-7.571	-7.418	-7.494	-7.727	-7.910	-7.880	-7.853	-8.001	-7.767	-7.886	-7.648	-8.034	-8.349	-8.345	-8.389	-8.294	-8.490	-8.765	-8.502
630.0	-865.4	-633.5	-529.0	-399.5	-314.7	-260.2	-213.5	-179.2	-148.8	-110.0	-75.04	-44.83	-14.75	13.78	-3.679	-17.05	-19.19	-18.61	26.58	310.3	147.5	-21.37	-20.43	-18.82	-17.56	-15.91	-14.74	-14.92	-14.67	-14.51	-13.38	-12.83	-12.32	-11.21	-10.60	-9.147	-9.169	-9.073	-9.191	-8.983	-8.974	-8.985	-8.730	-8.750	-7.973	-8.165	-6.898	-7.089	-6.356	-5.551	-5.739	-6.694	-6.847	-7.377	-7.082	-7.382	-7.671	-7.964	-7.598	-7.612	-7.476	-7.725	-7.984	-8.009	-7.826	-7.971	-8.083	-7.971	-8.057	-8.026	-8.253	-8.367	-8.262	-8.347	-8.446	-8.850	-8.948
635.0	-837.8	-637.0	-496.1	-383.3	-325.5	-249.3	-218.9	-180.0	-148.7	-111.4	-78.62	-46.64	-12.46	1.243	7.002	-10.04	-17.00	-19.64	-10.54	97.82	343.4	10.18	-21.48	-19.65	-18.11	-16.66	-16.00	-15.96	-15.06	-15.05	-14.24	-13.20	-12.64	-11.68	-11.22	-9.953	-9.544	-9.511	-9.410	-9.438	-9.246	-9.189	-9.008	-8.740	-8.339	-8.381	-7.276	-7.124	-6.517	-5.704	-5.794	-6.962	-6.899	-7.307	-7.234	-7.643	-7.679	-7.947	-7.723	-7.620	-7.572	-7.600	-7.832	-7.864	-7.768	-8.115	-8.066	-8.241	-7.968	-8.433	-8.142	-8.275	-8.401	-8.391	-8.531	-8.629	-9.067
640.0	-864.4	-673.8	-520.3	-373.0	-332.2	-252.6	-219.5	-175.8	-148.4	-109.7	-76.20	-47.20	-18.73	-9.914	15.48	-3.082	-17.23	-17.37	-16.99	10.04	306.1	125.9	-21.84	-19.50	-18.19	-17.63	-15.82	-16.25	-15.14	-15.64	-14.47	-13.94	-12.67	-12.11	-11.52	-10.59	-9.672	-10.16	-9.945	-9.651	-9.468	-9.439	-9.081	-9.134	-8.376	-8.358	-7.434	-7.615	-6.808	-5.932	-5.932	-7.109	-7.227	-7.301	-7.327	-7.581	-7.827	-7.793	-7.937	-7.710	-7.562	-7.692	-7.664	-7.779	-7.776	-8.131	-7.894	-8.289	-8.028	-8.311	-8.130	-8.384	-8.310	-8.312	-8.613	-8.847	-8.871
645.0	-850.3	-661.9	-486.5	-399.1	-321.6	-256.2	-217.0	-174.0	-144.7	-107.1	-77.48	-44.78	-20.11	-3.565	11.16	2.019	-12.03	-14.10	-17.42	-13.41	159.4	269.5	-13.41	-20.21	-18.56	-18.11	-16.71	-16.44	-15.71	-15.60	-14.81	-14.40	-12.79	-12.39	-11.57	-10.55	-10.07	-10.52	-9.653	-9.798	-9.371	-9.511	-9.506	-9.100	-8.425	-8.513	-7.552	-7.600	-6.754	-5.859	-5.816	-7.141	-7.113	-7.465	-7.385	-7.457	-7.867	-7.754	-7.701	-7.875	-7.900	-7.622	-7.791	-8.024	-7.876	-7.965	-8.001	-8.219	-8.043	-8.131	-8.056	-8.335	-8.260	-8.435	-8.756	-8.764	-9.053
650.0	-851.1	-692.9	-485.7	-404.6	-315.3	-266.2	-218.5	-175.8	-147.8	-108.9	-73.71	-53.49	-29.15	-6.450	3.378	5.173	-10.44	-13.33	-18.53	-18.82	34.84	307.3	44.21	-20.40	-18.83	-17.91	-17.27	-16.50	-15.99	-15.99	-15.24	-14.44	-13.33	-12.46	-11.85	-10.83	-10.47	-10.33	-9.622	-9.356	-9.525	-9.631	-9.542	-8.898	-8.502	-8.559	-7.366	-7.702	-6.818	-5.952	-5.952	-7.211	-7.131	-7.507	-7.410	-7.542	-8.022	-7.739	-7.869	-7.834	-7.854	-7.899	-7.765	-7.840	-7.936	-7.934	-8.051	-8.291	-8.050	-8.262	-8.295	-8.380	-8.036	-8.357	-8.568	-8.683	-9.029
