Sample:	'1
File name:	G2025070804Ωπ«≈’Ú«≈.FD3
Run date:	'12:45:50, 07/09/2025
Operator:	Administrator
Comment:	'

Instrument
Model:	F-2700 FL Spectrophotometer
Serial number:	23B8-004
ROM Version:	4J14000 07

Instrument parameters
Measurement type:	3-D scan
Data mode:	Fluorescence
EX  Start WL:	220.0 nm
EX  End WL:	600.0 nm
EX Sampling interval:	5.0 nm
EM  Start WL:	230.0 nm
EM  End WL:	650.0 nm
EM Sampling interval:	5.0 nm
Scan speed:	12000 nm/min
EX Slit:	5.0 nm
EM Slit:	5.0 nm
PMT Voltage:	700 V
Response:	Auto 
Corrected spectra:	Off
Contour interval:	50.000

Peak integration
Integration method:	Rectangular
Sensitivity:	1
Threshold:	1.000

Peaks
No.	ApexEX/EM(nm)	Height(Data)
1	225.0/555.0	79.93
2	225.0/580.0	76.79
3	225.0/600.0	65.49
4	230.0/340.0	1934
5	240.0/265.0	367.9
6	245.0/270.0	373.4
7	245.0/535.0	237.3
8	250.0/275.0	484.5
9	250.0/550.0	185.5
10	255.0/285.0	572.2
11	255.0/560.0	147.5
12	260.0/290.0	581.5
13	260.0/575.0	127.3
14	265.0/295.0	777.8
15	265.0/380.0	1118
16	265.0/585.0	106.1
17	270.0/300.0	1068
18	270.0/375.0	1118
19	270.0/600.0	103.5
20	275.0/310.0	1213
21	275.0/340.0	1229
22	275.0/365.0	1124
23	275.0/410.0	1276
24	275.0/610.0	91.89
25	280.0/315.0	1190
26	280.0/625.0	81.30
27	285.0/320.0	1195
28	285.0/635.0	60.04
29	440.0/520.0	25.24
30	460.0/340.0	5.881
31	475.0/350.0	5.678
32	485.0/265.0	2.172
33	505.0/275.0	3.405
34	510.0/280.0	3.911
35	515.0/285.0	3.865
36	530.0/290.0	3.921
37	535.0/270.0	40.51
38	545.0/300.0	5.868
39	550.0/305.0	6.892
40	560.0/310.0	6.807
41	565.0/340.0	6.661
42	570.0/315.0	7.327
43	575.0/320.0	7.254
44	585.0/325.0	7.256

Data points
	220.0	225.0	230.0	235.0	240.0	245.0	250.0	255.0	260.0	265.0	270.0	275.0	280.0	285.0	290.0	295.0	300.0	305.0	310.0	315.0	320.0	325.0	330.0	335.0	340.0	345.0	350.0	355.0	360.0	365.0	370.0	375.0	380.0	385.0	390.0	395.0	400.0	405.0	410.0	415.0	420.0	425.0	430.0	435.0	440.0	445.0	450.0	455.0	460.0	465.0	470.0	475.0	480.0	485.0	490.0	495.0	500.0	505.0	510.0	515.0	520.0	525.0	530.0	535.0	540.0	545.0	550.0	555.0	560.0	565.0	570.0	575.0	580.0	585.0	590.0	595.0	600.0
230.0	62.32	1176	2336	598.5	28.07	8.447	6.552	5.420	4.760	4.365	4.291	3.718	3.599	2.858	2.653	2.032	1.842	1.814	1.565	1.395	1.216	1.208	1.234	1.089	1.018	0.930	0.941	0.856	0.821	0.845	0.771	0.719	0.713	0.650	0.583	0.565	0.542	0.547	0.511	0.461	0.508	0.594	0.558	0.496	0.430	0.434	1.669	6.089	9.477	6.203	2.321	0.616	0.375	0.328	0.328	0.339	0.363	0.345	0.351	0.362	0.349	0.353	0.347	0.335	0.330	0.344	0.347	0.373	0.356	0.356	0.338	0.356	0.363	0.346	0.348	0.336	0.365
235.0	95.39	339.7	1776	2575	491.8	34.87	7.022	6.179	5.818	5.393	4.779	3.967	3.577	2.953	2.620	1.901	1.724	1.926	1.578	1.408	1.426	1.230	1.155	1.116	1.111	0.952	1.013	0.922	0.891	0.870	0.747	0.708	0.744	0.594	0.606	0.583	0.488	0.604	0.471	0.518	0.450	0.516	0.547	0.666	0.582	0.547	0.681	1.865	4.174	7.225	10.34	9.754	4.222	0.770	0.399	0.338	0.325	0.386	0.390	0.396	0.329	0.322	0.320	0.290	0.382	0.349	0.350	0.276	0.418	0.375	0.356	0.345	0.296	0.338	0.363	0.344	0.394
240.0	143.4	159.1	589.1	2641	2694	371.9	19.20	8.175	6.095	5.493	5.184	4.287	3.791	3.189	3.083	2.390	1.939	1.873	1.809	1.349	1.326	1.319	1.165	1.139	1.066	1.094	0.884	0.892	0.892	0.954	0.818	0.809	0.697	0.610	0.613	0.580	0.501	0.624	0.520	0.513	0.565	0.552	0.441	0.609	0.708	0.720	0.617	0.773	1.266	2.404	6.321	13.78	16.09	9.959	3.312	0.607	0.354	0.336	0.351	0.342	0.344	0.368	0.326	0.375	0.411	0.338	0.399	0.316	0.390	0.415	0.353	0.445	0.318	0.390	0.352	0.354	0.481
245.0	125.1	201.4	188.2	1015	3547	2662	258.3	11.17	6.742	6.070	5.443	4.668	3.871	3.422	3.175	2.408	1.856	1.892	1.853	1.487	1.578	1.265	1.257	1.295	1.064	1.062	0.980	1.052	0.932	0.840	0.742	0.772	0.774	0.625	0.588	0.586	0.517	0.588	0.534	0.551	0.561	0.529	0.441	0.474	0.614	0.801	0.861	0.845	0.694	0.819	1.780	5.191	12.61	19.95	18.20	8.302	1.934	0.437	0.376	0.411	0.350	0.329	0.345	0.404	0.386	0.375	0.418	0.356	0.392	0.407	0.449	0.422	0.410	0.358	0.326	0.455	0.476
250.0	63.11	167.5	215.2	306.0	1281	3404	3534	949.0	46.71	7.793	6.026	5.632	4.237	3.697	3.190	2.724	2.191	2.000	2.002	1.594	1.485	1.285	1.262	1.240	1.143	1.132	0.896	0.955	0.965	0.864	0.831	0.871	0.668	0.733	0.666	0.578	0.553	0.566	0.558	0.531	0.561	0.478	0.506	0.481	0.492	0.554	0.703	0.865	1.006	0.910	0.860	1.531	3.423	7.028	12.75	18.35	22.38	17.06	9.290	2.401	0.507	0.405	0.396	0.378	0.410	0.443	0.428	0.336	0.361	0.364	0.374	0.369	0.358	0.367	0.394	0.427	0.428
255.0	43.72	64.31	186.5	327.2	358.1	948.0	3733	5522	1259	39.99	9.009	6.089	4.772	4.464	3.761	3.004	2.670	2.213	2.081	1.806	1.493	1.539	1.233	1.180	1.215	0.989	1.018	1.041	0.880	0.810	0.920	0.759	0.691	0.693	0.600	0.587	0.609	0.564	0.547	0.488	0.483	0.556	0.554	0.409	0.499	0.540	0.462	0.500	0.728	1.070	1.426	1.392	1.294	1.923	3.232	4.784	9.947	22.52	36.36	27.06	13.11	2.306	0.480	0.397	0.375	0.420	0.428	0.430	0.431	0.347	0.351	0.438	0.371	0.361	0.389	0.405	0.463
260.0	39.66	40.22	89.72	316.3	294.0	254.5	1283	5672	5782	236.3	21.44	8.311	6.662	5.110	4.069	3.356	2.684	2.312	2.002	1.877	1.470	1.582	1.211	1.243	1.296	1.189	1.059	1.053	0.878	0.856	0.898	0.851	0.720	0.676	0.762	0.595	0.664	0.488	0.609	0.525	0.580	0.462	0.580	0.510	0.462	0.586	0.489	0.450	0.552	0.608	1.169	2.014	1.737	1.163	1.085	1.436	2.624	6.633	18.13	35.72	44.60	24.47	9.634	1.248	0.373	0.452	0.445	0.429	0.426	0.372	0.390	0.472	0.387	0.430	0.372	0.383	0.424
265.0	41.40	32.26	41.86	172.5	367.9	203.7	328.5	2232	7635	5183	180.2	13.11	8.061	5.568	4.827	3.523	2.994	2.566	2.295	2.138	1.598	1.526	1.432	1.256	1.353	1.271	1.116	1.005	0.962	0.909	0.949	0.893	0.826	0.811	0.666	0.666	0.598	0.645	0.578	0.514	0.500	0.540	0.558	0.524	0.441	0.524	0.458	0.442	0.419	0.396	0.582	1.243	1.819	2.172	1.387	0.791	1.002	1.915	4.682	11.55	28.10	47.65	32.91	20.85	5.042	0.640	0.510	0.447	0.462	0.369	0.372	0.415	0.408	0.402	0.398	0.389	0.402
270.0	58.12	48.61	41.94	68.73	212.6	373.4	253.4	559.0	2711	6887	5827	738.0	37.73	8.463	6.254	4.213	3.399	3.103	2.543	2.298	1.765	1.658	1.489	1.441	1.411	1.236	1.069	1.093	0.930	0.970	1.051	0.898	0.881	0.734	0.718	0.681	0.630	0.601	0.622	0.603	0.548	0.540	0.633	0.572	0.508	0.516	0.534	0.496	0.450	0.440	0.423	0.664	0.848	1.456	1.911	2.166	1.897	1.238	1.515	3.025	7.044	14.92	24.28	40.51	39.27	39.66	14.40	4.625	0.663	0.464	0.408	0.447	0.435	0.419	0.435	0.411	0.479
275.0	111.8	122.4	87.98	66.14	84.69	220.2	484.5	311.2	659.8	1834	6450	9999.9	996.1	31.42	8.453	6.127	4.463	3.702	2.946	2.418	1.880	1.757	1.534	1.403	1.585	1.251	1.113	1.160	1.284	0.987	0.982	0.935	0.848	0.830	0.869	0.823	0.708	0.621	0.682	0.609	0.640	0.609	0.682	0.696	0.654	0.660	0.626	0.649	0.616	0.509	0.497	0.564	0.579	0.730	0.896	1.416	2.706	3.405	2.149	1.383	2.123	3.832	6.001	9.903	14.29	35.46	63.75	64.71	21.98	4.596	0.550	0.575	0.498	0.438	0.481	0.496	0.458
280.0	181.3	209.3	158.6	92.70	63.02	106.0	379.8	523.9	274.2	491.1	2048	9855	8616	143.1	16.63	7.569	5.670	4.148	3.263	2.577	2.250	2.102	1.873	1.661	1.531	1.306	1.206	1.377	1.176	1.259	1.036	0.922	0.844	1.076	0.900	0.900	0.796	0.736	0.746	0.670	0.730	0.726	0.726	0.933	0.830	0.944	0.969	1.049	0.806	0.681	0.591	0.609	0.606	0.598	0.572	0.747	1.416	2.704	3.911	2.857	1.613	1.522	2.055	2.959	3.881	9.408	25.15	55.36	76.83	32.19	16.31	1.875	0.574	0.529	0.507	0.505	0.487
285.0	277.2	300.2	250.5	132.0	74.06	77.37	189.0	572.2	328.7	238.7	584.9	3413	9999.9	6425	104.1	11.00	7.365	4.887	3.945	3.094	2.734	2.310	1.938	1.605	1.551	1.259	1.382	1.385	1.089	1.260	1.089	1.006	0.996	1.138	0.971	1.060	0.975	0.825	0.884	0.731	0.741	0.743	0.855	1.026	0.951	1.121	1.237	1.273	1.072	0.854	0.697	0.650	0.687	0.645	0.591	0.630	0.891	1.363	2.559	3.865	3.705	2.264	1.447	1.455	1.884	3.094	6.525	15.61	36.48	63.97	77.43	27.54	9.480	0.985	0.558	0.495	0.534
290.0	369.0	434.9	350.0	197.1	108.9	97.00	135.0	304.1	581.5	494.4	365.5	969.3	3440	8559	7558	423.3	24.34	6.907	5.324	4.047	3.237	2.607	2.175	1.952	2.015	1.512	1.524	1.324	1.370	1.252	1.089	1.104	1.089	1.130	1.121	1.207	1.038	0.991	0.977	0.902	0.882	0.849	1.001	1.063	1.265	1.408	1.481	1.478	1.429	1.179	0.883	0.884	0.779	0.747	0.755	0.688	0.853	0.968	1.384	1.884	2.868	3.704	3.921	2.929	2.093	1.958	2.751	4.728	9.469	17.94	33.92	46.27	58.22	49.11	18.21	7.703	1.118
295.0	437.5	521.3	439.5	270.5	161.2	147.4	162.2	226.6	367.6	777.8	698.9	538.3	1011	2248	6643	6547	589.5	20.40	6.971	5.036	3.914	2.976	2.349	2.157	2.088	1.801	1.465	1.662	1.346	1.237	1.200	1.245	1.049	1.134	1.169	1.277	1.162	1.168	1.108	1.040	0.854	0.907	0.919	1.127	1.430	1.589	1.554	1.719	1.695	1.427	1.121	1.223	0.955	0.890	0.936	0.878	1.061	1.086	1.257	1.388	1.802	2.317	3.220	4.880	5.262	3.292	2.576	2.807	3.917	5.723	8.866	11.46	16.51	31.17	62.96	76.43	28.73
300.0	479.4	585.8	508.2	320.1	212.6	195.2	217.1	278.2	343.4	633.3	1068	687.6	572.7	739.0	2006	8116	5604	85.31	11.32	6.734	4.516	3.372	2.620	2.283	2.277	2.067	1.532	1.601	1.330	1.472	1.255	1.267	1.172	1.267	1.347	1.289	1.226	1.354	1.081	1.025	0.916	1.015	1.111	1.088	1.508	1.561	1.691	1.857	1.848	1.628	1.208	1.308	1.243	1.096	1.106	1.120	1.340	1.348	1.406	1.655	1.873	2.131	2.494	3.312	5.112	5.868	4.824	3.563	3.133	3.335	3.949	3.936	5.215	8.531	20.31	49.56	77.58
305.0	521.3	628.4	543.8	372.6	267.6	256.9	304.3	366.0	457.1	630.5	1058	1177	678.2	522.6	685.2	2776	9415	4473	66.22	9.317	5.851	4.170	2.950	2.752	2.626	2.057	1.823	1.683	1.512	1.616	1.297	1.389	1.225	1.245	1.343	1.337	1.317	1.270	1.078	1.138	1.132	1.186	1.232	1.225	1.461	1.622	1.833	2.085	2.015	1.751	1.480	1.475	1.487	1.477	1.316	1.395	1.531	1.836	1.871	2.313	2.392	2.558	2.925	3.485	4.530	5.646	6.892	6.240	4.459	3.559	3.467	2.970	3.145	3.621	6.158	13.18	29.37
310.0	529.2	665.8	617.3	438.8	328.7	323.6	384.4	463.8	563.9	702.4	917.8	1213	1130	665.1	490.0	830.1	3061	6715	6003	301.5	19.11	5.733	4.391	3.349	2.768	2.386	1.989	1.954	1.704	1.718	1.427	1.504	1.329	1.372	1.363	1.351	1.305	1.391	1.176	1.196	1.138	1.188	1.155	1.315	1.481	1.792	1.891	2.295	2.170	1.815	1.612	1.866	1.553	1.581	1.602	1.844	2.058	2.253	2.310	2.518	2.794	3.058	3.450	4.019	4.308	4.802	5.518	6.232	6.807	6.449	5.113	3.763	3.345	3.074	3.443	4.603	8.072
315.0	561.1	713.0	684.7	501.6	394.2	383.4	446.6	524.6	632.5	772.1	921.0	1044	1190	1060	574.1	455.4	882.7	1719	5158	7742	457.2	16.82	6.049	4.445	3.346	2.752	2.511	2.112	1.867	1.737	1.386	1.286	1.310	1.297	1.398	1.500	1.294	1.400	1.272	1.187	1.050	1.210	1.203	1.387	1.585	1.890	2.018	2.446	2.306	2.007	1.636	2.063	1.969	1.687	1.884	2.030	2.242	2.431	2.695	2.925	2.884	3.314	3.685	4.363	4.655	4.741	5.023	5.240	5.829	6.373	7.327	6.340	4.656	3.447	2.946	3.064	3.527
320.0	658.7	863.6	807.6	584.7	464.6	441.5	493.5	582.1	680.8	831.8	960.6	1059	1085	1195	833.9	455.1	461.7	547.1	1491	6722	4196	65.73	9.619	5.700	4.115	3.233	2.509	2.082	1.891	1.840	1.579	1.326	1.331	1.402	1.399	1.404	1.274	1.399	1.102	1.293	1.077	1.230	1.308	1.555	1.825	2.255	2.421	2.764	2.733	2.173	1.896	2.166	2.151	1.945	2.087	2.237	2.424	2.643	2.945	2.948	3.017	3.619	4.037	4.420	4.558	5.039	5.042	5.357	5.443	5.596	6.281	7.254	6.813	5.031	3.475	3.171	3.042
325.0	778.1	1140	1090	767.6	540.9	501.4	543.5	625.1	726.7	884.9	1025	1116	1097	1086	1082	611.9	422.1	328.9	454.2	2141	6948	3588	54.94	7.863	5.154	3.895	2.726	2.354	2.295	2.188	1.709	1.437	1.512	1.456	1.446	1.326	1.240	1.438	1.375	1.311	1.152	1.369	1.356	1.723	2.241	2.593	3.074	3.654	3.662	2.968	2.455	2.677	2.265	2.287	2.290	2.306	2.839	2.726	3.107	3.091	3.401	3.937	4.113	4.423	4.853	5.353	5.338	5.736	5.959	5.907	5.914	5.776	6.649	7.256	5.807	4.156	3.376
330.0	912.2	1381	1479	1094	718.5	590.7	595.8	664.3	770.9	924.7	1071	1164	1149	1055	1003	866.2	563.5	340.7	270.7	599.1	2178	5098	4907	1072	18.01	5.470	3.819	2.988	2.476	2.332	1.795	1.583	1.429	1.514	1.378	1.324	1.272	1.311	1.315	1.250	1.342	1.447	1.548	1.840	2.357	2.881	3.596	4.489	4.516	4.184	3.617	3.650	3.143	2.739	2.663	2.727	2.921	3.143	3.177	3.575	3.648	3.963	4.336	4.853	5.238	5.545	5.489	5.710	6.061	6.082	5.845	5.621	5.801	6.057	6.181	5.977	5.316
335.0	1064	1576	1778	1398	954.1	726.8	675.7	709.7	818.4	968.4	1115	1216	1212	1106	964.5	855.2	825.3	481.8	296.3	304.4	595.4	1275	4027	6823	410.1	18.59	5.207	3.641	2.683	2.571	2.101	1.728	1.670	1.563	1.630	1.441	1.308	1.264	1.269	1.324	1.333	1.468	1.565	1.971	2.373	3.351	3.935	5.074	5.354	4.886	4.231	4.460	3.953	3.605	3.207	3.251	3.434	3.192	3.226	3.791	3.609	4.212	4.516	5.002	5.249	5.462	5.660	6.082	6.067	6.369	6.265	6.178	5.910	5.933	5.428	5.244	5.766
340.0	1052	1699	1934	1556	1077	804.1	733.1	757.4	839.4	986.5	1127	1229	1226	1134	980.6	822.4	828.6	672.8	366.7	271.1	271.2	376.2	1139	5460	5776	332.5	9.839	4.758	3.535	2.735	2.291	2.135	1.767	1.523	1.459	1.319	1.496	1.368	1.392	1.268	1.389	1.533	1.753	2.122	2.768	3.572	4.200	5.584	5.881	5.474	4.756	4.947	4.490	4.176	3.804	3.362	3.600	3.394	3.582	3.802	4.070	4.251	4.784	5.037	5.109	5.498	5.876	6.354	6.171	6.661	6.433	6.034	6.281	6.001	5.891	5.383	5.500
345.0	1034	1644	1910	1631	1159	868.7	761.0	774.0	859.5	971.5	1112	1203	1204	1130	995.4	826.0	741.3	735.7	502.2	302.2	229.2	201.0	338.4	1664	6110	3245	50.44	6.797	4.626	3.156	2.626	2.238	1.792	1.681	1.545	1.430	1.523	1.262	1.348	1.273	1.377	1.579	1.812	2.034	2.576	3.376	4.235	5.344	5.673	5.538	5.035	5.589	5.098	4.375	3.740	3.560	3.914	3.671	3.710	3.642	4.172	4.096	4.775	4.859	5.353	5.352	5.948	5.734	6.207	6.529	6.076	6.108	6.305	6.010	5.775	5.611	5.396
350.0	994.4	1543	1855	1652	1238	955.3	829.5	818.2	882.0	976.5	1094	1159	1167	1110	996.7	849.5	734.4	663.0	623.0	455.5	286.1	213.9	198.8	456.7	1814	4067	4111	1054	17.87	4.336	3.192	2.510	2.002	1.843	1.654	1.547	1.471	1.319	1.325	1.298	1.368	1.497	1.663	1.945	2.455	3.322	3.996	5.105	5.468	5.334	5.080	5.678	5.283	4.800	4.184	3.864	3.974	3.909	3.995	4.030	4.246	4.404	4.762	4.816	5.391	5.243	5.706	5.725	5.993	6.196	6.039	6.238	6.259	6.017	5.644	5.679	5.374
355.0	934.4	1468	1757	1597	1305	1041	923.6	900.8	937.1	1002	1079	1131	1127	1100	997.8	872.8	772.7	670.1	605.5	606.0	436.2	283.4	220.4	231.3	489.1	994.7	2885	5662	391.0	20.86	4.726	3.080	2.407	2.209	1.724	1.727	1.539	1.332	1.380	1.486	1.381	1.525	1.573	1.869	2.279	2.831	3.884	4.574	5.242	5.275	4.885	5.388	5.349	4.942	4.508	4.210	4.287	4.153	4.078	4.507	4.397	4.685	4.810	5.100	5.711	5.274	5.560	5.779	5.944	6.032	5.527	5.809	6.028	6.065	5.700	5.601	5.744
360.0	911.4	1370	1662	1570	1317	1101	995.2	953.1	995.9	1030	1091	1118	1124	1091	997.5	890.3	806.2	698.6	615.9	604.3	567.0	377.7	270.1	217.4	224.4	296.8	780.7	4009	5172	343.6	11.65	4.152	3.138	2.247	1.836	1.724	1.707	1.484	1.352	1.383	1.326	1.437	1.503	1.851	2.265	2.917	3.395	4.566	4.994	5.055	4.876	5.394	5.166	5.114	4.875	4.753	4.775	4.548	4.564	4.610	4.666	4.753	4.885	5.385	5.475	5.439	5.235	5.749	5.838	6.133	5.428	5.851	6.027	6.091	5.982	5.934	5.612
365.0	854.5	1288	1566	1546	1352	1162	1051	1009	1040	1068	1100	1124	1112	1074	1003	905.5	827.7	736.9	650.1	597.3	604.2	512.0	336.9	252.3	198.0	165.6	240.3	1148	4782	3151	50.27	6.970	3.582	2.898	2.079	1.648	1.670	1.551	1.429	1.376	1.448	1.403	1.617	1.792	2.328	2.743	3.364	4.010	4.694	4.844	4.797	5.374	5.405	5.058	4.978	4.793	4.943	4.820	4.756	4.722	4.921	5.065	5.034	5.594	5.518	5.591	5.664	5.183	5.708	5.768	5.586	5.846	5.820	6.025	5.791	5.554	5.982
370.0	824.3	1191	1472	1494	1370	1198	1098	1062	1068	1094	1117	1118	1094	1053	998.2	914.5	850.6	774.7	705.9	639.9	595.3	584.0	482.5	331.4	241.0	178.3	152.6	322.3	1355	3422	3791	1060	17.62	3.921	2.674	2.102	1.809	1.594	1.470	1.421	1.341	1.452	1.617	1.877	2.144	2.577	3.136	3.781	4.282	4.354	4.546	5.368	5.334	5.298	4.870	4.858	4.980	5.028	4.898	5.057	4.960	5.319	5.318	5.674	5.336	5.406	5.327	5.426	5.462	5.694	5.721	5.878	5.935	5.884	5.757	5.794	5.878
375.0	769.5	1150	1418	1458	1354	1238	1145	1094	1105	1110	1118	1102	1089	1040	983.6	917.3	865.5	811.9	751.5	684.2	629.7	580.3	568.5	464.2	308.4	225.3	169.2	168.2	367.7	829.2	2376	5041	1439	20.55	3.877	2.866	2.175	1.745	1.494	1.406	1.492	1.643	1.632	1.868	2.137	2.719	2.889	3.859	4.187	4.231	4.384	5.404	5.345	5.224	5.108	4.981	5.106	4.909	5.142	4.964	5.050	5.408	5.584	5.512	5.517	5.689	5.543	5.276	5.772	5.595	6.007	5.827	5.796	5.749	5.956	5.787	6.310
380.0	776.2	1101	1348	1431	1348	1238	1155	1114	1107	1118	1115	1099	1074	1016	972.7	912.3	862.5	822.1	772.9	718.0	657.6	595.4	562.1	542.2	388.9	269.5	201.8	159.2	168.0	244.5	634.0	3332	4609	298.8	11.05	3.446	2.599	1.954	1.565	1.659	1.515	1.505	1.582	1.912	1.993	2.496	2.810	3.732	3.968	3.917	4.074	5.069	5.096	5.503	5.009	5.030	5.256	5.577	5.316	5.152	5.493	5.328	5.522	5.588	5.305	5.378	5.504	5.731	5.803	5.581	5.705	5.674	5.514	5.501	5.682	6.009	5.919
385.0	751.9	1069	1297	1373	1341	1244	1171	1115	1114	1114	1104	1081	1058	1003	951.5	896.4	853.6	817.8	784.6	736.1	679.0	622.8	560.4	545.7	480.1	325.6	240.8	184.2	145.6	131.9	196.3	929.3	3782	2633	226.1	6.339	3.500	2.266	1.680	1.471	1.570	1.653	1.662	1.883	1.936	2.257	2.806	3.755	3.775	3.582	4.281	4.907	4.967	5.422	5.044	4.999	5.389	5.569	5.146	5.084	5.384	5.555	5.593	5.396	5.379	5.461	5.345	5.561	5.516	5.355	5.787	5.479	5.314	5.582	5.681	5.778	5.905
390.0	751.6	1008	1226	1311	1311	1247	1184	1127	1108	1110	1091	1070	1047	994.9	944.7	888.0	850.1	817.3	778.9	744.9	697.2	647.3	585.9	539.3	509.9	431.3	309.8	236.8	185.0	146.0	129.0	268.0	1045	2548	2896	845.9	16.64	4.054	2.532	1.971	1.684	1.607	1.717	1.852	2.022	2.356	2.759	3.466	3.704	3.562	3.898	4.960	4.926	5.375	5.024	5.013	5.529	5.499	5.409	5.191	5.288	5.489	5.592	5.248	5.382	5.237	5.384	5.409	5.414	5.315	5.494	5.431	5.529	5.533	5.544	5.839	5.808
395.0	686.1	982.6	1159	1271	1285	1234	1169	1151	1122	1115	1126	1102	1073	1010	945.7	885.5	844.5	809.4	778.0	749.4	714.8	672.7	624.7	573.2	526.2	502.3	439.7	325.2	257.9	212.7	170.5	165.1	305.9	634.8	1733	3655	1162	20.14	4.404	2.633	1.959	1.940	1.729	1.905	2.207	2.303	2.837	3.228	3.576	3.547	3.854	4.881	4.882	4.979	5.005	4.970	5.472	5.409	5.272	5.228	4.910	5.678	5.282	5.387	5.483	5.251	5.127	5.463	5.383	5.369	5.355	5.327	5.511	5.745	5.637	5.747	5.711
400.0	698.2	959.1	1123	1249	1262	1233	1198	1155	1143	1155	1185	1157	1114	1057	972.9	894.0	841.8	801.3	772.0	761.5	730.1	700.2	666.9	620.3	571.7	535.7	530.6	439.9	342.0	289.5	239.1	192.9	182.9	225.3	490.0	2359	3391	259.1	12.07	3.583	2.292	2.053	1.912	1.972	2.251	2.506	2.759	3.075	3.597	3.469	3.767	4.658	4.728	5.143	5.145	5.192	5.420	5.443	5.377	5.336	5.494	5.494	5.420	5.481	5.543	5.537	5.437	5.536	5.743	5.387	5.421	5.403	5.464	5.740	5.682	5.572	5.660
405.0	675.0	904.1	1123	1224	1252	1236	1205	1189	1176	1195	1230	1229	1190	1111	1007	915.6	839.8	792.8	769.9	760.5	742.1	726.8	703.2	672.0	632.6	589.3	579.7	555.6	442.2	374.6	314.9	255.5	199.7	168.6	200.4	695.6	2724	2219	197.3	5.990	2.818	2.302	2.034	2.047	2.293	2.435	2.631	3.311	3.484	3.513	3.806	4.759	4.868	5.200	5.222	5.321	5.410	5.624	5.712	5.483	5.490	5.427	5.647	5.496	5.485	5.610	5.352	5.569	5.603	5.539	5.491	5.457	5.455	5.873	6.005	5.729	5.819
410.0	664.9	894.1	1076	1172	1221	1216	1192	1186	1190	1229	1274	1276	1227	1144	1029	917.7	825.9	773.2	752.2	742.2	737.9	733.0	723.9	707.3	680.8	646.0	614.9	606.7	561.4	471.7	393.0	320.7	247.8	191.6	163.0	244.0	776.8	1916	2239	689.6	13.53	2.968	2.349	2.137	2.331	2.530	2.750	3.311	3.540	3.402	3.780	4.834	4.700	5.020	5.418	5.223	5.492	5.605	5.734	5.623	5.559	5.817	5.702	5.786	5.583	5.626	5.602	5.527	5.477	5.572	5.355	5.479	5.494	5.762	5.604	5.376	5.153
415.0	604.5	874.3	1010	1129	1181	1179	1162	1161	1164	1203	1237	1252	1193	1108	995.3	875.2	786.3	737.3	714.5	707.9	705.4	705.6	703.9	694.8	681.3	653.4	618.9	589.7	578.0	533.4	429.4	345.3	266.7	205.1	158.9	147.3	235.0	472.1	1259	2639	261.7	15.13	2.941	2.450	2.362	2.491	2.634	3.106	3.260	3.403	3.357	4.294	4.600	4.874	5.382	5.098	5.418	5.113	5.706	5.386	5.623	5.576	5.640	5.376	5.349	5.231	5.302	5.316	5.582	5.203	5.421	5.457	5.719	5.427	5.268	5.268	4.964
420.0	586.0	805.1	978.4	1079	1132	1157	1154	1137	1136	1168	1192	1197	1140	1064	947.0	834.7	743.6	699.7	683.7	673.4	670.3	674.5	675.8	675.3	663.0	639.7	609.0	573.6	549.0	536.0	454.5	351.5	270.6	205.9	158.5	126.2	114.8	141.3	330.0	1673	2115	227.1	7.596	2.802	2.546	2.458	2.548	2.991	3.050	3.304	3.382	4.111	4.499	4.934	4.984	5.083	5.376	4.973	5.225	5.406	5.424	5.555	5.507	5.356	5.122	5.530	5.178	5.278	5.001	5.364	4.952	5.149	5.262	4.969	4.962	4.944	5.016
425.0	540.7	776.1	941.3	1054	1082	1125	1121	1115	1120	1139	1176	1162	1104	1024	912.0	795.5	714.5	668.0	649.5	640.5	641.5	647.9	655.1	657.2	643.0	629.2	604.2	567.3	532.9	519.5	479.9	374.1	279.1	214.3	164.9	125.8	91.72	69.71	95.67	459.5	1854	1905	34.65	4.065	2.708	2.591	2.812	2.870	3.215	3.198	3.273	4.330	4.314	4.814	4.765	4.670	5.253	5.359	5.111	5.229	5.243	5.257	5.485	5.382	5.162	5.238	5.171	5.073	5.104	5.107	5.003	4.754	4.964	4.637	4.522	4.817	4.863
430.0	627.6	750.9	912.3	1015	1056	1088	1108	1100	1104	1129	1156	1143	1087	995.7	884.3	769.7	678.4	635.5	615.2	611.3	613.9	622.5	632.1	639.7	641.0	629.4	607.4	578.6	546.8	515.6	483.2	421.0	312.1	234.6	183.6	139.8	97.40	61.61	47.89	118.7	506.9	1468	1722	535.2	11.97	3.042	2.964	3.036	3.209	3.058	3.272	4.185	4.254	4.568	4.750	4.765	5.165	5.302	5.197	5.276	5.076	5.086	5.165	5.518	5.224	5.042	4.981	5.085	4.870	4.858	4.888	4.639	4.809	4.662	4.673	4.624	4.781
435.0	836.2	725.5	876.2	986.9	1013	1046	1082	1077	1086	1112	1135	1119	1064	963.0	858.3	740.0	651.3	597.7	580.4	580.0	581.9	591.8	607.0	621.2	624.0	617.8	605.0	582.4	553.7	519.8	473.3	428.3	353.2	260.4	199.4	154.1	108.1	68.49	42.01	47.41	126.6	344.9	1002	2094	242.3	13.49	3.379	3.121	3.104	2.961	3.247	4.033	4.071	4.483	4.382	4.695	5.034	4.972	5.203	5.239	4.682	4.979	5.109	5.248	5.110	5.048	4.851	4.884	4.764	4.767	4.672	4.723	4.554	4.601	4.465	4.491	4.608
440.0	1141	751.8	837.2	945.2	988.1	1029	1061	1061	1059	1082	1103	1087	1029	925.8	814.1	708.4	615.9	570.4	551.2	550.2	553.7	562.5	579.4	591.8	598.2	597.9	582.0	566.9	542.5	508.3	464.8	408.9	357.8	277.6	206.4	157.4	115.1	72.64	45.45	34.02	44.72	89.29	262.3	1442	1916	202.1	6.840	3.554	3.446	2.984	3.083	3.830	4.093	4.526	4.332	4.718	4.917	5.185	5.279	5.057	4.907	5.108	4.754	5.315	4.790	4.762	4.645	4.696	4.663	4.668	4.603	4.396	4.516	4.584	4.050	4.136	4.358
445.0	1282	975.5	813.4	876.9	961.8	1003	1026	1031	1044	1052	1050	1020	969.3	883.1	773.3	662.8	582.4	537.3	524.7	518.9	521.0	528.4	541.4	556.9	561.1	563.6	552.8	540.6	518.2	485.5	443.3	384.5	332.2	285.6	212.7	157.5	114.9	75.84	48.15	34.44	29.83	33.87	69.88	405.7	1716	1671	28.93	4.350	3.590	3.162	3.067	3.751	4.003	4.141	4.414	4.274	4.713	4.858	5.054	4.819	4.777	4.863	4.670	4.911	4.429	4.514	4.647	4.340	4.369	4.419	4.429	4.312	4.163	4.372	4.075	4.035	3.704
450.0	954.8	1462	883.8	823.9	911.1	938.9	978.0	965.5	972.6	970.5	959.3	940.1	875.2	794.9	700.0	602.8	535.8	495.8	480.2	471.5	472.0	480.6	491.6	500.3	504.7	506.5	499.6	490.6	470.7	445.2	406.6	352.2	296.8	258.7	216.5	160.5	114.1	77.90	52.90	38.04	29.14	24.37	28.67	100.5	474.1	1337	1534	459.3	10.59	3.347	3.109	3.780	3.792	4.012	4.080	4.211	4.532	4.529	4.681	4.705	4.626	4.693	4.736	4.681	4.319	4.286	4.380	4.224	4.067	4.181	4.065	4.071	3.933	4.002	3.744	3.767	3.757
455.0	551.1	1626	1362	777.3	834.0	875.3	906.9	911.0	888.7	894.0	877.5	853.2	797.9	721.8	630.1	542.6	483.3	450.4	430.9	423.1	423.2	424.4	437.5	445.4	454.3	452.3	448.5	438.6	424.9	403.8	370.3	327.1	272.2	227.0	200.9	168.5	117.6	79.91	56.73	41.93	33.50	25.27	21.82	34.13	115.2	313.1	852.2	1787	198.2	11.37	3.502	3.625	3.578	3.829	3.817	3.894	4.432	4.524	4.418	4.497	4.338	4.542	4.483	4.327	4.107	4.142	4.173	4.081	3.868	3.893	3.651	3.587	3.798	3.854	3.326	3.530	3.482
460.0	408.7	1296	1974	829.2	785.8	822.3	862.4	865.8	839.0	830.6	822.7	788.6	733.5	663.3	580.0	499.6	447.6	416.6	397.8	385.2	387.6	387.1	400.9	409.0	415.8	418.1	411.0	402.9	394.4	375.7	345.9	304.9	256.9	212.7	184.8	166.4	125.1	82.88	58.66	44.62	35.83	27.72	21.91	20.60	35.99	78.46	218.6	1155	1540	155.4	6.922	3.832	3.698	3.627	3.515	3.620	4.247	4.149	4.165	4.196	4.082	4.303	4.005	4.148	3.954	3.906	3.742	4.079	3.724	3.494	3.389	3.542	3.464	3.347	3.182	3.329	3.502
465.0	363.5	805.1	2257	1186	740.3	780.2	813.1	814.3	783.0	779.3	767.9	737.1	682.8	614.6	542.1	463.5	411.4	381.7	369.5	358.5	354.8	357.6	366.6	373.3	379.4	384.1	379.5	374.7	367.3	349.4	322.8	288.7	241.5	203.3	171.2	153.5	129.3	88.45	61.38	45.93	37.04	30.40	23.19	18.86	19.36	26.77	56.50	321.5	1351	1250	125.0	5.130	3.757	3.648	3.489	3.749	3.933	3.877	4.234	4.026	3.871	4.088	3.953	3.895	3.727	3.707	3.609	3.527	3.448	3.265	3.225	3.329	3.163	3.062	2.893	3.085	3.151
470.0	348.2	528.0	1567	2074	815.1	705.4	731.0	736.1	716.3	703.9	691.6	661.9	604.5	545.6	479.1	412.5	366.3	341.4	326.0	318.9	314.1	314.3	320.0	328.2	333.6	336.1	336.0	334.2	325.6	311.3	290.9	260.6	221.0	184.4	155.9	134.9	117.6	94.63	66.66	47.95	38.51	31.74	24.85	20.24	16.99	16.11	20.89	79.04	371.1	961.7	1101	372.9	10.81	3.696	3.403	3.445	3.838	3.586	3.825	3.589	3.514	3.591	3.545	3.540	3.397	3.325	3.190	3.158	2.980	3.034	2.984	2.924	2.933	2.839	2.773	2.755	2.846
475.0	341.1	424.4	778.2	2297	1451	635.3	665.2	652.3	648.5	624.1	610.0	584.2	534.8	474.9	415.3	358.9	317.6	298.9	287.7	275.4	270.2	271.7	276.3	282.2	287.0	287.9	289.8	286.6	280.1	271.2	254.2	225.9	194.0	166.0	139.8	118.5	100.8	89.72	73.70	51.91	39.61	32.02	25.88	21.63	17.59	15.19	14.05	25.22	88.90	223.2	542.6	1206	199.7	12.80	3.556	3.509	3.533	3.496	3.400	3.247	3.174	3.313	3.122	3.205	3.018	2.996	2.799	2.817	3.079	2.940	2.796	2.534	2.674	2.346	2.616	2.295	2.516
480.0	316.1	388.2	512.0	1640	2221	706.2	611.0	612.7	587.6	571.3	558.7	532.5	484.8	431.4	373.7	323.5	291.2	269.6	259.3	248.4	244.7	243.6	248.0	253.5	258.5	258.1	256.1	255.1	248.6	245.3	228.6	203.6	178.0	152.1	127.5	110.3	91.16	78.96	74.04	56.64	40.30	32.68	27.04	22.00	18.17	15.98	13.24	13.74	26.47	55.55	136.2	692.2	1119	180.4	7.081	3.444	3.434	3.345	3.059	3.202	3.032	3.123	2.958	2.904	2.872	2.678	2.647	2.639	2.620	2.628	2.749	2.482	2.263	2.275	2.190	2.195	2.328
485.0	298.0	388.0	423.9	950.8	2575	1067	561.4	559.7	549.1	535.0	521.3	492.1	444.3	396.8	346.3	298.6	269.9	247.2	235.4	231.3	222.1	220.1	226.0	231.2	232.7	233.9	231.9	230.5	226.2	223.3	209.9	187.5	163.8	140.0	119.5	103.7	87.26	72.63	67.73	60.36	44.29	33.35	28.32	23.09	19.14	16.31	13.50	11.47	12.94	18.31	35.46	186.4	882.3	1021	28.57	4.514	3.085	3.508	3.071	2.845	3.146	2.845	2.808	2.755	2.632	2.710	2.552	2.308	2.668	2.390	2.501	2.351	2.135	2.307	2.133	2.276	2.290
490.0	244.5	382.7	385.4	546.2	1789	2095	632.1	514.8	495.4	483.4	467.9	444.2	396.8	354.3	308.2	268.6	243.7	221.1	212.5	207.6	200.3	197.9	198.8	203.9	205.0	205.4	205.4	203.8	200.6	197.5	187.9	168.9	148.4	128.6	110.1	96.14	81.02	67.42	59.34	56.68	50.38	37.73	28.49	23.53	20.34	17.25	14.71	12.31	10.73	10.19	13.28	46.10	234.1	672.3	900.1	357.8	12.29	3.373	2.891	2.783	2.870	2.718	2.558	2.528	2.527	2.439	2.305	2.203	2.254	2.216	2.207	2.225	1.930	2.042	1.991	1.997	1.847
495.0	209.6	343.6	395.7	413.3	795.8	2412	1238	461.0	446.7	443.2	417.7	396.9	351.7	315.6	275.1	240.4	215.9	198.0	189.6	180.3	174.4	175.0	174.9	179.3	178.3	180.8	178.5	178.6	174.5	174.9	165.5	150.6	132.5	114.1	100.4	88.47	74.47	62.48	53.70	48.28	48.16	42.76	30.74	24.29	20.02	17.66	14.83	13.00	10.92	8.993	8.595	15.10	56.49	155.7	453.8	1118	228.4	14.66	3.191	2.944	2.673	2.413	2.344	2.369	2.311	2.338	2.003	1.950	2.039	2.092	1.904	1.892	1.960	1.779	1.779	1.747	1.735
500.0	177.0	286.2	397.7	362.9	466.7	1756	2096	498.6	407.0	395.2	380.9	356.3	317.5	289.2	248.5	213.5	195.6	182.8	170.0	163.4	158.8	156.9	156.6	158.6	160.0	162.3	160.7	158.6	158.9	156.6	147.7	135.1	120.0	105.4	92.27	81.97	69.73	59.21	51.04	43.99	42.63	42.23	34.40	24.64	20.48	17.79	14.81	13.25	11.40	9.109	7.637	8.278	16.73	38.69	112.4	603.5	1081	201.3	8.118	2.905	2.435	2.375	2.370	2.262	2.044	2.089	2.077	1.848	2.038	1.783	1.753	1.885	1.751	1.712	1.588	1.626	1.697
505.0	166.4	237.6	366.3	343.3	362.6	957.5	2618	803.9	367.8	361.6	350.6	327.6	290.5	257.6	224.7	194.7	176.2	163.5	157.0	146.1	142.4	141.7	142.0	143.6	144.0	143.7	147.2	142.3	143.7	142.3	132.9	122.7	109.6	97.50	84.80	75.45	64.04	55.33	48.16	41.51	37.97	37.77	35.73	27.01	21.13	18.14	15.77	12.82	11.27	9.290	7.816	6.919	7.993	12.47	28.65	157.5	750.6	979.0	152.4	4.298	2.369	2.224	2.176	2.185	2.059	1.891	1.886	1.752	1.837	1.717	1.624	1.692	1.605	1.566	1.548	1.564	1.485
510.0	147.8	202.6	310.9	340.6	303.8	465.4	1847	1881	427.3	319.1	306.4	286.1	256.3	226.8	197.0	170.2	152.9	141.8	135.7	128.5	124.8	122.7	121.7	122.5	123.5	122.0	123.7	123.6	123.0	121.8	115.7	108.0	95.61	83.82	74.42	65.87	57.58	50.37	43.35	38.37	34.32	32.03	32.33	29.85	22.26	17.50	14.77	12.97	10.95	9.466	7.981	6.838	6.246	6.788	9.943	38.49	193.3	573.4	777.5	305.2	12.29	2.327	2.048	2.006	2.002	1.776	1.818	1.718	1.635	1.697	1.507	1.423	1.537	1.470	1.341	1.499	1.397
515.0	133.7	170.9	232.8	322.5	281.3	307.9	749.2	2465	995.2	284.9	261.6	243.5	223.2	197.3	171.0	147.0	131.2	124.6	115.8	110.0	105.7	104.2	102.9	106.2	105.3	104.5	103.6	104.8	103.2	101.6	98.45	91.57	81.68	72.20	65.22	58.24	50.40	44.05	39.39	34.95	30.56	27.79	26.19	28.33	24.87	18.47	14.39	12.50	10.94	9.008	7.959	7.113	6.083	5.513	5.512	11.81	46.06	131.4	318.9	825.1	233.3	15.63	2.039	1.971	1.881	1.803	1.753	1.437	1.457	1.450	1.315	1.316	1.393	1.369	1.487	1.233	1.287
520.0	130.5	156.4	199.8	283.2	279.9	251.0	374.7	1822	1977	319.8	236.7	222.5	197.5	170.5	149.3	131.9	115.8	107.6	104.0	96.90	94.16	91.38	90.47	92.49	91.47	91.94	91.85	92.11	91.88	90.38	86.03	78.87	72.37	65.35	57.84	52.18	45.21	40.66	35.63	32.12	28.66	25.51	22.87	24.10	25.24	19.60	14.74	12.13	10.37	8.847	7.912	7.145	6.037	5.243	4.817	5.976	13.30	31.99	76.85	395.5	790.3	204.9	9.313	1.856	1.655	1.668	1.529	1.360	1.360	1.146	1.355	1.221	1.316	1.277	1.269	1.175	1.220
525.0	104.9	140.2	167.8	237.2	277.4	223.8	254.6	897.6	2691	643.0	212.4	199.3	174.6	152.6	134.3	115.6	105.5	95.94	91.74	86.71	84.15	82.66	81.52	81.73	80.91	81.16	80.39	80.38	80.28	79.26	77.29	69.92	64.45	59.12	52.28	47.51	41.16	37.13	32.97	29.59	26.84	23.31	20.73	20.45	22.51	20.91	15.30	12.02	9.999	8.307	7.720	6.881	6.294	5.855	4.668	4.625	5.917	9.793	19.71	98.69	465.2	723.2	159.6	3.994	1.655	1.523	1.560	1.335	1.368	1.161	1.220	1.243	1.077	1.204	1.178	1.155	1.130
530.0	95.20	123.1	147.8	174.9	253.8	218.1	203.0	365.4	1873	1898	234.4	171.7	154.1	133.9	117.0	100.0	90.97	83.71	79.22	73.26	71.98	71.21	69.27	69.51	69.33	68.64	69.12	68.90	68.51	68.29	65.43	59.92	55.27	50.76	45.23	40.57	36.55	32.51	29.22	26.45	23.55	21.04	18.89	17.88	17.37	18.70	17.02	12.35	9.313	7.960	7.142	6.444	5.714	5.586	4.668	4.184	4.224	4.935	6.805	24.24	114.9	362.8	549.6	249.6	13.00	1.667	1.395	1.359	1.317	1.113	1.074	1.119	0.979	1.001	1.002	1.017	1.085
535.0	83.12	104.5	115.8	141.5	190.7	237.3	176.5	207.0	659.0	2539	898.9	156.1	131.0	114.0	100.1	86.22	77.15	70.52	65.66	64.13	60.14	58.34	58.92	57.98	59.22	57.56	57.42	58.21	57.30	58.15	54.53	51.02	46.68	43.54	38.45	35.03	31.53	27.94	25.71	23.07	21.04	18.90	16.89	15.43	14.42	14.66	16.27	13.81	9.342	7.689	6.478	6.206	5.245	5.161	4.781	4.287	3.670	3.560	4.049	7.831	27.82	82.92	187.1	541.6	238.4	17.33	1.487	1.225	1.240	1.054	1.045	0.951	0.884	0.953	0.899	0.898	0.917
540.0	73.05	89.20	102.5	126.6	144.7	231.6	166.5	154.2	265.6	1716	1805	185.2	113.5	101.8	86.94	74.98	67.90	62.87	57.74	56.44	53.89	51.89	51.75	50.81	50.14	49.76	49.99	49.55	49.87	49.43	46.46	44.68	40.63	37.71	33.39	31.97	27.83	24.81	23.21	19.88	18.22	17.21	15.20	13.88	12.42	11.87	13.26	13.52	10.29	7.648	6.426	5.704	5.237	4.805	4.591	4.233	3.738	3.259	3.203	4.042	8.166	20.30	44.26	220.1	544.5	207.4	10.48	1.441	1.155	1.011	1.063	0.897	0.896	0.932	0.711	0.802	0.831
545.0	70.40	82.27	99.24	114.0	119.7	200.4	175.5	131.5	158.4	724.6	2643	472.6	102.4	88.29	75.70	65.25	60.90	54.83	51.12	47.96	47.01	44.89	45.18	43.78	43.03	43.57	42.67	42.70	43.27	42.95	40.86	38.26	34.75	32.95	29.34	26.85	25.27	22.57	20.53	18.07	16.32	15.19	13.73	12.55	11.61	10.56	10.68	12.35	10.97	7.612	6.068	5.312	4.928	4.343	4.031	4.116	3.712	3.207	2.923	2.823	3.665	6.018	11.45	52.64	264.5	516.0	159.4	4.518	1.164	0.970	1.051	0.900	0.882	0.876	0.697	0.796	0.847
550.0	66.67	75.73	92.24	93.22	99.23	138.4	185.5	123.1	120.7	258.1	1639	1682	137.3	73.85	64.25	55.42	50.73	45.95	43.93	39.77	39.17	37.58	37.44	36.65	35.84	35.79	35.67	35.46	35.34	35.68	34.45	32.42	29.08	27.06	24.03	22.73	20.43	18.94	17.08	15.50	14.43	12.93	11.86	10.89	10.23	9.179	8.528	9.355	9.671	8.272	6.035	4.828	4.268	3.976	3.537	3.491	3.637	3.518	2.802	2.476	2.449	2.864	4.031	13.11	63.28	216.3	362.7	141.7	13.95	1.213	1.029	0.845	0.874	0.745	0.766	0.741	0.720
555.0	60.93	79.93	76.08	81.30	83.25	98.81	154.4	135.5	96.25	126.9	504.5	2252	652.5	64.68	53.17	46.69	40.04	36.76	34.55	33.61	32.69	29.77	29.49	29.25	28.90	28.46	28.13	27.94	28.45	28.68	26.95	25.07	23.93	21.51	19.51	17.76	16.65	15.80	13.83	12.48	12.17	11.13	10.07	9.325	8.639	8.062	7.047	6.498	6.962	7.610	6.478	4.572	3.670	3.320	3.025	2.937	2.811	3.088	3.119	2.131	2.069	1.944	2.271	4.335	15.36	49.37	107.6	303.1	230.5	18.55	1.049	0.750	0.755	0.717	0.644	0.738	0.680
560.0	74.98	77.75	78.65	73.09	69.43	73.64	115.4	147.5	85.93	90.04	173.7	1424	1373	90.36	45.49	38.59	34.80	31.80	30.50	28.50	26.88	25.17	25.23	24.80	24.05	24.95	23.85	23.62	24.25	23.62	22.52	20.93	20.08	18.80	16.66	15.30	14.16	12.93	11.94	10.54	9.964	9.459	8.753	7.998	7.061	6.913	6.100	5.551	5.512	6.316	6.154	4.857	3.480	3.144	2.779	2.649	2.628	2.497	2.930	2.175	1.920	1.689	1.819	2.277	4.536	12.08	25.29	109.4	330.3	186.9	10.80	0.901	0.792	0.682	0.636	0.660	0.636
565.0	75.72	77.06	71.67	66.57	60.07	62.88	80.99	145.7	93.28	73.70	94.22	541.4	2125	307.8	40.69	33.69	29.66	26.78	25.58	23.60	22.25	21.48	21.43	21.02	20.28	21.39	19.93	19.73	19.42	19.63	18.50	17.65	16.70	15.38	14.21	12.66	11.78	11.34	10.61	8.744	8.579	7.952	7.293	7.259	6.480	5.533	5.475	5.161	4.594	4.710	5.376	5.003	3.426	2.738	2.666	2.371	2.332	2.155	2.477	2.464	1.855	1.564	1.564	1.650	2.057	3.641	6.840	26.03	133.6	316.2	127.2	4.783	0.857	0.688	0.751	0.671	0.571
570.0	72.01	77.25	67.18	54.32	51.80	54.02	58.96	109.1	112.7	65.28	69.75	175.0	1301	1267	71.31	27.38	24.48	21.87	20.67	19.47	18.53	17.68	16.86	16.79	16.56	16.61	16.34	15.86	15.95	16.26	15.08	14.30	13.62	12.83	11.53	10.56	9.643	9.286	8.360	7.295	7.061	6.669	6.014	5.864	5.494	5.070	4.579	4.287	3.929	3.582	3.875	4.268	3.584	2.867	2.242	2.104	2.127	1.979	1.967	2.081	2.051	1.597	1.284	1.393	1.365	1.786	2.478	6.843	31.53	115.8	209.9	123.8	13.50	0.949	0.696	0.586	0.583
575.0	70.71	72.18	65.76	51.65	45.73	45.16	49.04	68.62	127.3	72.92	58.09	81.53	378.0	1684	458.9	25.25	19.82	18.01	16.41	15.12	15.32	14.08	13.27	13.31	13.75	12.77	12.25	12.99	12.89	12.49	12.48	11.57	10.80	10.01	9.108	8.353	8.204	7.434	6.885	6.046	5.966	5.579	4.903	4.672	4.376	4.250	3.837	3.363	3.074	2.883	2.881	3.132	3.450	2.982	2.149	1.962	1.674	1.799	1.578	1.691	1.694	1.836	1.455	1.278	1.266	1.316	1.511	2.434	7.878	26.67	56.58	166.8	171.9	17.61	0.753	0.557	0.538
580.0	67.61	76.79	65.80	50.76	42.28	41.82	43.13	50.56	110.5	89.05	54.89	58.77	121.8	1050	1005	40.94	17.11	15.55	14.08	13.11	12.84	11.38	10.60	11.37	11.48	11.23	10.45	10.81	10.70	10.25	10.13	9.409	9.256	8.457	7.676	7.303	6.618	6.202	5.803	5.322	4.741	4.513	4.333	3.785	3.690	3.497	3.319	2.833	2.733	2.466	2.438	2.483	2.976	2.843	2.221	1.643	1.541	1.607	1.374	1.362	1.415	1.817	1.624	1.242	1.147	1.227	1.241	1.377	2.547	6.766	13.41	54.79	194.0	126.8	9.004	0.633	0.583
585.0	67.06	71.46	64.42	48.45	40.73	38.55	40.21	42.49	78.20	106.1	56.65	53.60	60.27	393.2	1535	105.6	15.20	12.66	12.21	10.67	11.10	10.05	9.387	9.735	9.220	9.243	9.480	9.275	9.406	9.463	9.206	8.318	7.829	7.255	6.703	5.882	5.572	5.352	4.876	4.483	4.037	4.021	3.653	3.442	3.337	3.078	2.879	2.594	2.397	2.090	2.123	1.978	2.272	2.709	2.312	1.690	1.315	1.460	1.278	1.319	1.341	1.393	1.567	1.405	1.144	1.035	1.087	1.163	1.401	2.300	3.825	13.16	72.70	188.6	35.96	3.778	0.607
590.0	63.86	65.78	60.66	44.98	35.73	33.10	36.12	38.03	52.50	104.7	70.68	50.56	46.05	117.7	928.2	792.6	34.22	11.39	10.42	9.318	9.170	8.283	8.440	7.666	7.770	7.817	7.471	7.519	7.586	7.594	7.185	6.801	6.281	5.909	5.381	4.922	4.625	4.385	4.119	3.861	3.421	3.358	3.076	2.925	2.713	2.596	2.346	2.239	2.010	1.930	1.687	1.670	1.654	2.107	2.231	1.971	1.366	1.382	1.188	1.189	1.109	1.115	1.194	1.452	1.321	0.967	1.046	1.004	1.012	1.212	1.495	3.651	17.11	66.10	116.6	80.15	11.81
595.0	60.37	58.40	57.71	41.42	33.83	31.18	33.04	35.79	43.25	76.35	95.89	51.85	40.76	50.39	261.3	1108	235.6	10.05	8.604	7.826	7.139	7.427	6.842	6.336	6.648	6.333	6.013	6.225	6.278	5.994	5.582	5.437	4.696	4.901	4.238	3.945	4.015	3.646	3.507	3.077	2.787	2.680	2.626	2.397	2.320	2.145	2.016	1.876	1.641	1.573	1.508	1.425	1.378	1.293	1.667	2.028	1.638	1.334	1.047	1.053	0.968	0.906	1.012	1.139	1.363	1.224	0.954	0.923	0.932	0.880	0.929	1.476	4.396	15.24	31.29	97.02	106.5
600.0	56.93	65.49	54.95	39.06	30.84	31.33	32.56	35.61	37.64	58.56	103.5	58.22	40.20	33.97	77.06	726.1	655.1	18.52	7.549	7.114	6.482	6.194	5.484	5.833	5.438	5.369	5.301	5.230	5.051	5.248	4.808	4.717	4.338	4.074	3.697	3.369	3.218	3.127	2.982	2.759	2.378	2.395	2.113	2.235	1.993	1.900	1.868	1.715	1.600	1.395	1.375	1.167	1.269	1.137	1.353	1.694	1.695	1.393	1.091	0.988	0.915	0.830	0.897	0.926	1.061	1.215	1.088	0.863	0.879	0.758	0.818	0.875	1.546	3.865	7.466	31.38	113.8
605.0	55.44	61.93	50.09	38.04	32.96	30.00	30.56	32.59	38.72	48.96	94.01	71.49	42.68	33.37	35.89	279.9	966.1	67.65	7.211	6.122	5.666	5.564	4.888	4.404	4.723	4.606	4.609	4.684	4.339	4.411	4.142	4.027	3.741	3.583	3.271	3.084	2.676	2.807	2.484	2.436	2.182	2.162	1.948	1.946	1.691	1.711	1.538	1.553	1.379	1.256	1.217	1.117	1.062	0.962	1.227	1.273	1.579	1.378	0.978	0.881	0.848	0.807	0.808	0.856	0.922	1.200	1.085	0.804	0.822	0.690	0.725	0.761	0.770	1.408	2.136	7.502	41.86
610.0	54.45	58.95	50.28	37.51	30.30	30.14	31.78	34.58	40.93	49.24	75.00	91.89	52.47	36.21	28.52	81.98	640.3	480.9	15.84	5.396	4.635	4.707	4.203	4.160	4.125	4.130	3.898	3.769	3.656	3.672	3.424	3.436	3.193	2.897	2.809	2.495	2.294	2.271	2.153	1.941	1.738	1.766	1.649	1.711	1.451	1.455	1.290	1.306	1.181	1.097	0.987	1.038	0.915	0.940	0.955	1.005	1.192	1.380	1.139	0.915	0.751	0.780	0.719	0.812	0.777	0.965	1.069	0.974	0.921	0.774	0.789	0.672	0.645	0.822	0.911	2.107	9.926
615.0	57.14	56.71	43.38	35.80	29.43	27.69	30.97	33.00	42.15	47.92	62.09	89.09	62.76	36.58	27.57	32.35	189.7	751.0	75.57	4.855	4.285	3.710	3.421	3.393	3.313	3.214	3.063	3.006	3.038	2.857	2.949	2.788	2.372	2.367	2.305	2.111	2.061	1.824	1.917	1.685	1.424	1.497	1.331	1.249	1.282	1.219	1.036	1.198	0.987	0.967	0.861	0.901	0.795	0.820	0.778	0.810	0.931	1.074	1.097	1.001	0.804	0.764	0.695	0.793	0.760	0.825	0.964	0.981	1.000	0.731	0.800	0.659	0.620	0.612	0.625	0.922	2.582
620.0	50.07	51.15	41.39	36.30	28.57	24.70	30.90	31.85	38.79	46.61	52.81	75.73	74.86	37.80	27.54	20.74	56.12	538.5	409.9	7.914	3.801	3.576	3.240	2.956	2.925	2.982	2.706	2.472	2.603	2.652	2.618	2.236	2.333	2.070	2.001	1.634	1.706	1.660	1.563	1.274	1.264	1.313	1.252	1.132	1.193	1.112	0.934	0.979	0.949	0.832	0.758	0.732	0.776	0.706	0.788	0.712	0.784	0.946	1.057	1.039	0.819	0.710	0.768	0.775	0.697	0.765	0.781	0.851	1.181	0.867	0.666	0.554	0.668	0.576	0.586	0.730	1.026
625.0	52.70	50.77	44.43	35.71	27.34	26.06	26.60	31.30	36.74	43.77	52.14	62.43	81.30	41.60	27.75	19.54	24.41	220.2	672.2	40.08	3.499	3.273	2.881	2.744	3.123	2.648	2.376	2.217	2.176	2.267	2.335	2.050	1.957	1.836	1.828	1.643	1.610	1.440	1.557	1.235	1.231	1.137	1.128	1.033	0.985	0.939	0.874	0.814	0.847	0.744	0.646	0.642	0.666	0.620	0.613	0.623	0.663	0.725	0.897	0.863	0.809	0.665	0.749	0.746	0.667	0.854	0.646	0.803	0.975	0.909	0.685	0.583	0.563	0.591	0.512	0.621	0.676
630.0	51.62	47.70	44.65	32.19	26.69	26.00	27.34	32.93	36.41	42.81	47.32	53.06	70.69	53.25	27.43	18.75	16.73	61.43	486.3	314.6	7.614	2.834	2.646	2.516	2.297	2.200	1.993	2.065	1.936	2.138	1.939	1.892	1.646	1.709	1.572	1.410	1.386	1.257	1.194	1.194	1.085	0.914	1.027	0.912	0.917	0.879	0.917	0.765	0.709	0.687	0.601	0.588	0.611	0.541	0.567	0.588	0.559	0.675	0.819	0.854	0.747	0.756	0.726	0.669	0.632	0.731	0.697	0.699	0.780	0.780	0.761	0.669	0.654	0.521	0.505	0.556	0.553
635.0	53.54	48.06	41.63	30.83	30.09	25.98	27.99	32.42	36.00	42.10	47.60	50.01	54.54	60.04	30.03	18.59	15.61	21.87	147.9	559.2	55.17	2.708	2.741	2.099	1.934	1.894	1.948	1.680	1.671	1.684	1.447	1.602	1.420	1.385	1.201	1.173	1.106	1.151	1.026	1.003	0.982	0.904	0.883	0.768	0.977	0.739	0.800	0.706	0.645	0.540	0.512	0.570	0.568	0.553	0.485	0.532	0.586	0.641	0.668	0.662	0.773	0.721	0.612	0.727	0.629	0.708	0.658	0.651	0.623	0.687	0.748	0.808	0.681	0.631	0.537	0.496	0.574
640.0	46.84	48.85	44.15	30.61	25.45	26.37	27.91	31.37	33.83	39.37	47.78	48.03	49.67	59.43	37.47	20.24	15.74	13.44	40.75	438.7	256.1	4.330	2.197	1.999	1.700	1.848	1.660	1.689	1.445	1.494	1.468	1.345	1.440	1.204	1.164	1.059	1.014	1.069	0.958	0.952	0.917	0.842	0.829	0.645	0.715	0.658	0.602	0.659	0.677	0.547	0.477	0.529	0.562	0.542	0.492	0.601	0.502	0.559	0.551	0.640	0.694	0.783	0.635	0.649	0.636	0.630	0.649	0.644	0.568	0.620	0.650	0.870	0.748	0.569	0.530	0.481	0.517
645.0	45.05	50.44	48.03	34.81	25.51	26.91	26.87	28.75	32.57	37.22	44.14	47.26	48.39	54.61	44.68	22.33	16.25	12.27	15.27	196.2	465.6	21.12	2.197	1.810	1.678	1.565	1.578	1.571	1.313	1.476	1.231	1.230	1.267	1.121	1.009	1.087	0.955	1.039	0.942	0.787	0.800	0.701	0.796	0.525	0.640	0.691	0.638	0.645	0.642	0.488	0.502	0.518	0.587	0.528	0.529	0.486	0.489	0.501	0.532	0.543	0.634	0.626	0.643	0.671	0.667	0.604	0.583	0.549	0.614	0.585	0.654	0.730	0.798	0.683	0.564	0.565	0.512
650.0	49.89	57.22	50.51	36.42	27.95	25.60	27.62	29.13	32.76	35.57	44.06	48.35	45.09	47.84	49.51	23.17	16.87	12.73	9.435	59.66	478.0	65.53	2.280	1.749	1.752	1.476	1.406	1.410	1.312	1.363	1.184	1.247	0.996	1.048	0.973	1.009	1.082	0.886	0.817	0.722	0.637	0.695	0.800	0.613	0.539	0.604	0.615	0.637	0.576	0.461	0.479	0.514	0.525	0.475	0.498	0.517	0.449	0.481	0.581	0.513	0.529	0.593	0.703	0.609	0.602	0.639	0.612	0.538	0.625	0.583	0.646	0.634	0.740	0.711	0.616	0.470	0.519
