Sample:	'1
File name:	G2025090905医药产业园对面 5倍.FD3
Run date:	'14:31:11, 09/10/2025
Operator:	Administrator
Comment:	'

Instrument
Model:	F-2700 FL Spectrophotometer
Serial number:	24D1-003
ROM Version:	4J14000 07

Instrument parameters
Measurement type:	3-D scan
Data mode:	Fluorescence
EX  Start WL:	220.0 nm
EX  End WL:	600.0 nm
EX Sampling interval:	5.0 nm
EM  Start WL:	230.0 nm
EM  End WL:	650.0 nm
EM Sampling interval:	5.0 nm
Scan speed:	12000 nm/min
EX Slit:	5.0 nm
EM Slit:	5.0 nm
PMT Voltage:	700 V
Response:	Auto 
Corrected spectra:	Off
Contour interval:	50.000

Peak integration
Integration method:	Rectangular
Sensitivity:	1
Threshold:	1.000

Peaks
No.	ApexEX/EM(nm)	Height(Data)
1	225.0/290.0	1951
2	225.0/330.0	1141
3	225.0/570.0	204.1
4	230.0/500.0	200.3
5	235.0/515.0	187.2
6	240.0/525.0	165.7
7	245.0/405.0	337.9
8	245.0/540.0	147.8
9	250.0/550.0	140.2
10	255.0/280.0	735.5
11	255.0/560.0	134.9
12	260.0/285.0	822.9
13	260.0/575.0	138.3
14	265.0/585.0	138.6
15	270.0/300.0	1538
16	270.0/600.0	138.2
17	275.0/305.0	1758
18	275.0/335.0	1329
19	275.0/610.0	123.0
20	280.0/310.0	1554
21	280.0/620.0	105.8
22	285.0/315.0	1366
23	285.0/635.0	79.07
24	305.0/340.0	544.5
25	315.0/355.0	335.2
26	320.0/360.0	369.1
27	325.0/365.0	345.1
28	325.0/410.0	301.7
29	335.0/380.0	323.8
30	340.0/385.0	307.9
31	350.0/400.0	282.0
32	355.0/405.0	282.8
33	360.0/410.0	259.2
34	365.0/420.0	248.1
35	370.0/425.0	229.1
36	390.0/300.0	4.678
37	395.0/295.0	4.763
38	400.0/465.0	85.70
39	415.0/485.0	56.38
40	425.0/500.0	42.35
41	430.0/505.0	37.41
42	455.0/290.0	5.704
43	465.0/555.0	10.94
44	470.0/560.0	9.033
45	505.0/275.0	3.427
46	515.0/280.0	4.143
47	520.0/285.0	4.764
48	530.0/290.0	5.010
49	540.0/295.0	6.595
50	545.0/300.0	7.722
51	550.0/305.0	7.684
52	560.0/310.0	6.943
53	570.0/315.0	6.807
54	575.0/320.0	6.106

Data points
	220.0	225.0	230.0	235.0	240.0	245.0	250.0	255.0	260.0	265.0	270.0	275.0	280.0	285.0	290.0	295.0	300.0	305.0	310.0	315.0	320.0	325.0	330.0	335.0	340.0	345.0	350.0	355.0	360.0	365.0	370.0	375.0	380.0	385.0	390.0	395.0	400.0	405.0	410.0	415.0	420.0	425.0	430.0	435.0	440.0	445.0	450.0	455.0	460.0	465.0	470.0	475.0	480.0	485.0	490.0	495.0	500.0	505.0	510.0	515.0	520.0	525.0	530.0	535.0	540.0	545.0	550.0	555.0	560.0	565.0	570.0	575.0	580.0	585.0	590.0	595.0	600.0
230.0	144.9	3979	7390	1563	41.39	12.67	10.10	8.385	7.017	6.746	6.340	5.724	5.190	4.580	3.627	3.158	2.670	2.387	2.163	2.025	1.929	1.691	1.611	1.562	1.496	1.403	1.195	1.301	1.144	1.159	1.114	1.095	0.963	0.811	0.878	0.834	0.804	0.731	0.692	0.683	0.893	1.072	1.068	0.846	0.666	0.738	3.574	15.82	26.23	18.02	5.840	1.307	0.575	0.533	0.497	0.523	0.555	0.507	0.521	0.502	0.452	0.485	0.484	0.486	0.482	0.446	0.501	0.451	0.514	0.525	0.505	0.472	0.529	0.528	0.485	0.481	0.504
235.0	173.0	1055	4641	7338	521.2	71.60	12.13	9.388	8.277	7.376	7.226	6.097	5.343	5.138	3.584	2.993	2.844	2.567	2.538	2.249	2.216	1.917	1.797	1.618	1.414	1.434	1.275	1.213	1.190	1.094	1.147	0.974	0.934	0.870	0.945	0.838	0.665	0.778	0.934	0.642	0.703	0.794	0.960	1.183	0.999	0.788	1.341	4.325	9.410	15.79	23.42	21.82	13.16	2.992	0.543	0.523	0.559	0.533	0.506	0.416	0.557	0.454	0.493	0.545	0.423	0.430	0.489	0.558	0.463	0.518	0.581	0.583	0.467	0.406	0.438	0.486	0.585
240.0	243.6	352.8	1338	6337	7479	436.5	35.94	11.77	9.599	8.204	7.167	6.074	6.009	4.800	4.426	3.302	2.776	2.677	2.589	2.449	2.143	1.904	1.738	1.558	1.498	1.304	1.348	1.413	1.332	0.960	1.162	1.065	1.075	1.010	0.931	1.007	0.808	0.722	0.826	0.685	0.606	0.706	0.688	0.872	1.231	1.247	1.157	1.571	2.562	4.459	11.51	28.30	37.36	22.33	9.851	1.446	0.587	0.561	0.528	0.443	0.473	0.630	0.491	0.449	0.417	0.459	0.455	0.437	0.512	0.425	0.489	0.704	0.441	0.427	0.513	0.474	0.505
245.0	200.5	306.3	376.3	2053	8054	7593	348.3	18.35	10.79	10.22	7.502	7.150	5.800	4.873	4.719	3.393	2.927	2.795	2.394	2.063	2.100	1.499	1.666	1.550	1.496	1.270	1.455	1.263	1.188	1.058	1.111	1.047	1.053	0.889	0.998	0.846	0.720	0.765	0.631	0.766	0.609	0.661	0.637	0.616	0.970	1.158	1.251	1.253	1.130	1.435	3.071	8.809	20.99	36.00	41.70	20.07	6.063	0.913	0.600	0.552	0.468	0.562	0.557	0.488	0.598	0.431	0.457	0.492	0.585	0.555	0.439	0.729	0.477	0.512	0.505	0.505	0.516
250.0	81.83	223.2	329.9	555.2	2453	7254	9082	1373	95.20	13.09	10.40	8.592	6.980	5.647	4.705	3.517	3.145	2.920	2.501	2.390	2.219	1.859	1.728	1.721	1.656	1.512	1.571	1.333	1.142	1.146	1.192	0.992	1.058	0.935	1.000	0.821	0.809	0.882	0.740	0.719	0.742	0.669	0.663	0.663	0.685	0.765	0.854	1.256	1.462	1.378	1.396	2.435	5.335	10.74	21.13	31.03	33.78	36.28	14.48	6.392	0.953	0.568	0.560	0.513	0.618	0.467	0.495	0.469	0.521	0.436	0.496	0.564	0.490	0.464	0.506	0.473	0.514
255.0	45.05	80.87	219.0	434.3	644.4	1774	6219	9999.9	2112	111.0	14.92	11.04	8.546	6.585	5.301	4.828	3.415	3.013	2.743	2.516	2.310	2.092	1.939	1.755	1.611	1.542	1.394	1.370	1.237	1.136	1.152	1.104	1.067	0.969	0.895	0.942	0.778	0.841	0.664	0.714	0.725	0.846	0.724	0.631	0.671	0.591	0.639	0.751	0.868	1.401	1.794	1.813	1.977	2.833	5.208	7.529	11.73	29.20	55.39	61.76	22.84	7.116	0.889	0.634	0.592	0.424	0.507	0.496	0.667	0.483	0.521	0.525	0.540	0.494	0.567	0.528	0.428
260.0	39.99	41.72	90.93	323.5	418.2	454.2	1759	9211	9999.9	1673	65.95	14.34	10.77	7.975	6.611	5.407	3.950	3.075	3.122	2.722	2.618	2.399	2.162	1.672	1.770	1.496	1.506	1.547	1.383	1.230	1.199	1.230	1.095	0.997	0.956	0.915	0.786	0.877	0.764	0.707	0.669	0.759	0.668	0.697	0.634	0.701	0.605	0.685	0.637	0.806	1.119	2.003	2.173	1.847	1.863	2.106	3.144	7.678	22.10	53.21	74.40	31.29	17.70	2.721	0.704	0.424	0.526	0.548	0.537	0.565	0.535	0.506	0.534	0.495	0.617	0.594	0.599
265.0	49.91	49.95	47.19	151.7	434.9	317.5	435.7	2846	9999.9	9999.9	1341	29.22	14.08	9.753	7.211	5.825	4.622	3.779	3.178	3.006	2.447	2.288	2.228	2.173	1.778	1.638	1.237	1.610	1.404	1.472	1.182	1.241	1.064	1.011	0.992	0.939	0.837	0.782	0.746	0.664	0.597	0.695	0.732	0.778	0.739	0.809	0.777	0.697	0.588	0.673	0.658	1.069	1.749	2.277	1.995	1.371	1.325	2.168	5.597	14.81	35.84	65.46	88.01	28.39	11.44	0.978	0.585	0.490	0.528	0.568	0.542	0.540	0.560	0.465	0.530	0.619	0.559
270.0	242.3	254.2	193.7	108.3	199.6	418.5	347.0	716.6	3055	9999.9	9999.9	5299	89.11	15.93	10.87	7.617	5.572	4.666	3.602	3.192	2.685	2.517	2.495	2.219	1.835	1.761	1.510	1.585	1.436	1.409	1.418	1.395	1.288	1.232	1.285	1.358	1.136	1.092	0.947	0.852	0.853	0.894	0.946	0.974	1.114	1.149	1.199	1.187	1.110	0.927	0.721	0.737	0.935	1.323	1.939	2.364	2.419	1.667	2.007	3.984	8.767	18.09	38.10	56.07	76.28	63.21	17.96	9.023	1.254	0.601	0.607	0.557	0.623	0.606	0.636	0.551	0.543
275.0	735.3	813.1	591.5	236.4	99.33	200.5	542.6	457.1	815.1	2460	7430	9999.9	8585	111.4	16.04	10.62	7.341	6.415	4.577	3.424	3.152	3.002	2.480	2.380	2.131	1.693	1.794	1.639	1.577	1.608	1.387	1.399	1.612	1.874	2.351	2.253	1.776	1.450	1.466	1.128	1.261	1.636	1.487	1.708	1.937	2.454	2.550	2.543	2.300	1.830	1.097	0.848	0.837	0.837	0.989	1.226	2.288	3.427	3.197	2.401	2.841	4.923	9.486	13.56	21.65	43.19	90.44	116.3	28.23	10.88	0.881	0.630	0.654	0.644	0.667	0.592	0.563
280.0	1191	1307	935.4	353.3	102.1	118.3	365.4	735.5	440.0	745.5	2088	9999.9	9999.9	6003	74.68	14.03	9.424	7.294	5.548	4.026	3.241	3.406	2.738	2.380	2.537	1.836	2.040	1.798	1.805	1.461	1.556	1.416	1.678	2.426	3.250	3.296	2.446	1.842	1.494	1.572	1.642	1.938	2.082	2.550	2.890	3.603	3.713	4.030	3.610	2.515	1.633	1.158	0.831	0.823	0.789	0.914	1.437	2.264	3.675	4.143	2.578	2.417	3.414	4.305	5.998	11.42	31.26	79.82	119.8	108.8	21.81	4.042	0.787	0.685	0.758	0.697	0.707
285.0	1509	1736	1253	463.7	128.7	116.3	220.8	625.0	822.9	506.2	756.9	3026	9999.9	9999.9	1002	45.78	12.41	8.936	6.108	4.617	3.884	3.566	2.857	2.602	2.534	2.052	2.045	1.843	1.681	1.423	1.616	1.744	2.060	3.052	3.888	4.137	3.341	2.481	2.060	2.011	1.936	2.316	2.652	3.139	3.814	4.535	4.520	5.031	4.426	3.195	1.933	1.472	0.983	0.904	0.896	0.874	1.263	1.507	2.198	3.756	4.764	3.733	2.645	2.467	2.753	4.132	8.335	20.92	47.94	103.8	132.6	31.99	14.25	1.339	0.911	0.968	0.716
290.0	1729	1951	1425	549.0	162.4	132.4	205.6	393.1	819.6	1007	749.1	1116	2976	9999.9	9999.9	9199	59.40	13.53	8.619	6.388	4.724	4.034	3.369	2.959	2.593	2.399	2.148	2.034	1.837	1.666	1.572	1.736	2.429	3.397	4.456	4.551	3.682	2.835	2.278	2.386	2.385	2.568	2.935	3.399	4.209	4.916	4.717	5.704	4.976	3.674	2.337	1.658	1.263	1.106	0.956	0.980	1.161	1.434	1.696	2.400	3.370	4.243	5.010	4.507	3.428	3.194	3.960	6.761	12.72	26.95	50.28	70.76	102.8	82.72	58.07	10.64	1.678
295.0	1711	1938	1433	587.2	191.6	159.5	223.9	358.1	596.3	1065	1405	968.1	1182	2584	4935	9999.9	5913	73.21	13.81	8.757	6.536	5.196	4.049	3.584	3.100	2.677	2.199	2.212	2.071	1.813	1.599	1.611	2.394	3.413	4.597	4.763	3.967	2.991	2.523	2.477	2.351	2.590	2.956	3.507	4.216	4.849	5.143	5.557	5.072	3.595	2.471	1.795	1.526	1.059	1.119	1.093	1.284	1.365	1.678	1.933	2.509	2.983	3.848	5.707	6.595	5.818	4.233	4.442	5.556	8.291	13.19	17.48	27.36	51.69	116.4	145.8	32.32
300.0	1628	1836	1360	584.8	211.1	173.5	244.2	361.1	554.8	884.3	1538	1370	915.8	986.3	1370	7291	9999.9	4508	53.33	12.42	8.444	6.307	5.024	4.343	3.233	2.999	2.290	2.307	2.293	1.894	1.875	1.844	2.611	3.299	4.678	4.266	4.017	3.062	2.635	2.519	2.344	2.704	2.979	3.409	4.105	4.693	4.990	5.392	4.780	3.626	2.330	1.778	1.452	1.128	1.056	1.196	1.272	1.460	1.852	2.027	2.541	2.756	3.507	4.275	6.076	7.722	6.501	4.769	4.532	4.576	5.174	5.920	7.463	13.29	36.21	92.55	144.6
305.0	1500	1653	1240	571.1	229.8	192.8	251.8	389.5	554.2	815.6	1264	1758	1154	707.4	546.0	1920	9999.9	9999.9	3326	35.59	11.56	7.909	5.366	4.603	3.782	3.334	2.849	2.718	2.193	2.060	1.634	1.943	2.481	3.362	3.935	4.073	3.710	2.905	2.583	2.409	2.542	2.572	2.990	3.342	3.828	4.577	4.525	4.818	4.577	3.457	2.249	1.808	1.408	1.213	1.200	1.259	1.505	1.662	2.041	1.969	2.828	2.638	3.316	4.052	4.735	6.428	7.684	7.656	5.733	4.309	3.593	3.484	3.264	4.348	9.177	23.63	55.45
310.0	1292	1372	1081	518.1	238.9	209.9	273.2	409.9	582.8	822.4	1096	1461	1554	959.7	453.0	585.3	2519	8834	9999.9	7946	44.08	11.43	7.196	5.452	4.451	3.708	3.038	2.726	2.480	2.408	1.902	1.865	2.253	3.164	3.507	3.730	3.471	2.884	2.352	2.283	2.282	2.396	2.626	2.974	3.484	3.945	3.962	4.183	3.906	3.000	2.119	1.717	1.431	1.338	1.335	1.341	1.657	1.708	1.995	2.195	2.771	2.962	3.503	4.062	4.296	5.155	5.463	6.512	6.943	6.292	5.171	3.437	2.603	2.544	3.419	6.334	13.49
315.0	1139	1224	929.0	474.0	256.9	237.0	305.9	433.7	616.0	825.6	1072	1254	1312	1366	701.7	341.8	671.4	2049	4268	9999.9	4280	55.90	11.18	7.548	5.885	4.335	3.453	2.982	2.897	2.447	2.074	1.897	2.017	2.814	3.427	3.297	3.046	2.826	2.378	2.317	2.262	2.304	2.530	2.623	3.060	3.574	3.395	3.454	3.477	2.710	1.956	1.806	1.556	1.423	1.410	1.476	1.535	1.906	2.171	2.497	2.902	3.247	3.467	3.917	4.376	4.634	4.841	5.299	5.492	5.924	6.807	6.035	3.957	2.762	2.254	2.806	4.017
320.0	1061	1125	873.5	471.3	271.4	260.3	338.7	466.2	648.7	864.2	1099	1241	1201	1250	1053	402.3	285.0	537.2	1049	6262	9999.9	3531	42.58	9.912	6.967	4.684	3.928	3.327	2.826	2.859	2.089	1.971	1.989	2.623	3.138	2.844	2.971	2.706	2.345	2.187	2.103	2.343	2.436	2.791	2.992	3.395	3.254	3.498	3.330	2.488	1.955	1.708	1.648	1.391	1.400	1.589	1.628	1.967	2.274	2.777	2.888	3.316	3.476	4.370	4.208	4.845	4.827	5.104	5.210	5.369	5.329	6.106	6.020	3.877	2.500	2.129	2.043
325.0	1028	1102	890.7	512.8	291.6	281.5	359.1	508.2	683.3	907.0	1145	1249	1210	1083	1085	669.2	249.7	220.2	301.3	1566	8813	9999.9	2758	30.17	9.241	6.198	4.964	3.483	3.285	2.763	2.291	2.058	2.066	2.560	2.743	2.717	2.772	2.508	2.275	2.180	2.089	2.365	2.535	2.621	2.844	3.154	3.203	3.528	3.266	2.541	2.140	1.979	1.760	1.451	1.687	1.556	1.775	1.983	2.299	2.710	2.889	3.529	3.607	3.897	4.315	4.804	4.794	5.420	5.333	5.224	4.867	4.822	5.601	5.318	4.268	2.646	1.860
330.0	1030	1141	953.0	580.7	347.8	313.1	388.8	544.7	727.8	965.0	1190	1305	1256	1076	894.1	783.1	494.4	203.7	150.9	409.0	2174	7583	9999.9	6612	172.6	9.437	6.202	4.408	3.744	3.105	2.746	2.333	2.271	2.432	2.646	2.616	2.575	2.422	2.202	2.278	2.066	2.291	2.566	2.481	2.909	3.286	3.247	3.501	3.512	2.804	2.417	2.219	1.889	1.631	1.749	1.682	2.022	2.153	2.359	2.781	3.153	3.581	3.983	4.400	4.580	5.017	4.965	5.452	5.344	5.301	4.880	4.736	4.403	4.385	4.564	4.061	3.548
335.0	1065	1134	939.4	620.0	369.3	338.0	423.4	578.9	764.5	1007	1216	1329	1279	1110	841.0	603.2	620.6	401.9	149.8	161.4	535.9	1741	4068	9999.9	3516	48.82	9.507	6.709	4.711	3.706	3.178	2.467	2.337	2.250	2.581	2.480	2.457	2.257	2.316	2.218	2.201	2.208	2.525	2.586	2.927	3.187	3.275	3.744	3.573	2.982	2.303	2.327	1.983	1.740	1.757	1.973	2.229	2.192	2.374	2.960	3.327	3.768	3.883	4.540	4.513	5.071	5.153	5.511	5.189	5.308	5.053	4.781	4.183	3.903	3.475	3.228	3.615
340.0	1045	1101	935.0	631.6	398.1	347.7	429.8	576.2	782.7	998.7	1206	1321	1285	1103	838.5	548.6	470.0	544.5	250.9	120.1	177.9	436.0	981.6	5936	9999.9	3044	37.17	8.576	5.811	4.575	3.206	2.642	2.614	2.552	2.639	2.414	2.672	2.434	2.240	2.160	2.184	2.172	2.445	2.763	2.782	3.041	3.388	3.694	3.369	3.100	2.416	2.318	2.133	1.866	1.821	1.768	2.129	2.238	2.435	2.768	3.394	3.722	3.922	4.490	4.735	5.083	5.001	5.171	5.265	5.308	5.128	4.742	4.080	3.690	3.224	2.675	2.824
345.0	1029	1100	912.2	640.3	416.0	369.0	430.5	570.0	766.2	982.7	1168	1280	1246	1080	834.2	542.8	377.2	453.4	416.3	155.6	109.5	152.4	263.4	1483	8262	9999.9	2375	25.87	7.398	5.541	3.818	3.262	2.783	2.548	2.467	2.304	2.370	2.320	2.198	2.127	2.281	2.407	2.463	2.505	2.915	3.063	3.175	3.282	3.436	3.035	2.381	2.556	2.179	1.849	1.809	1.831	2.130	2.293	2.523	2.861	3.340	3.590	4.206	4.256	4.742	5.200	4.768	5.135	5.220	5.356	4.860	4.758	4.307	3.675	3.155	2.626	2.518
350.0	957.2	1019	879.4	610.2	421.3	369.5	431.1	556.7	730.9	928.6	1106	1198	1172	1030	802.1	521.1	351.4	308.3	381.0	324.6	146.4	103.6	114.5	374.3	2052	6936	9999.9	5294	32.02	7.804	5.353	4.047	2.957	2.779	2.589	2.446	2.392	2.212	2.281	2.232	2.155	2.256	2.261	2.490	2.805	3.027	3.055	3.304	3.196	2.745	2.347	2.448	2.126	1.807	1.857	1.846	2.140	2.300	2.523	2.754	3.126	3.371	4.037	4.140	4.498	4.604	4.628	4.689	4.956	4.957	4.591	4.596	4.278	3.572	3.246	2.740	2.437
355.0	881.1	950.6	782.4	569.4	407.7	365.9	424.3	535.5	695.7	860.7	1014	1098	1067	948.6	755.1	506.4	344.2	271.0	255.4	335.2	307.6	135.6	99.22	140.9	501.1	1588	3874	9999.9	3126	39.14	7.669	5.225	3.465	3.150	2.654	2.384	2.246	2.241	2.245	2.281	2.066	2.011	2.267	2.419	2.706	2.934	2.841	3.032	2.839	2.549	2.226	2.195	2.072	1.949	1.818	1.720	1.997	2.178	2.290	2.739	2.952	3.211	3.525	3.864	4.173	4.258	4.409	4.392	4.468	4.528	4.556	4.028	4.026	3.480	3.352	2.689	2.358
360.0	823.2	855.0	726.5	530.5	409.3	370.9	414.7	515.9	661.0	808.8	949.6	1024	1001	889.3	714.6	493.7	342.7	270.1	231.3	253.9	369.1	233.7	114.5	99.43	166.5	393.9	926.4	5351	9999.9	2535	30.28	6.493	4.460	3.586	2.751	2.498	2.334	2.267	2.136	2.123	1.902	1.999	2.217	2.175	2.513	2.750	2.669	2.977	2.803	2.316	2.137	2.090	2.083	2.003	1.831	1.733	2.013	2.133	2.306	2.666	2.982	3.140	3.456	3.777	3.640	4.089	4.011	4.214	4.268	4.508	4.128	3.728	3.724	3.175	3.050	2.556	2.448
365.0	802.9	808.7	670.2	496.5	398.7	364.4	407.9	502.2	618.1	767.1	873.4	947.9	932.1	831.5	680.4	473.3	343.2	272.1	235.8	221.6	298.1	345.1	175.8	105.7	102.4	135.8	243.4	1329	7324	9999.9	2026	15.03	5.955	4.281	3.194	2.747	2.636	2.210	2.219	2.156	1.951	2.032	2.280	2.235	2.719	2.690	2.640	2.620	2.720	2.250	2.168	2.162	2.006	1.965	1.844	1.882	1.885	2.170	2.234	2.554	2.840	2.933	3.341	3.490	3.600	3.492	3.712	4.018	4.031	4.161	4.166	3.842	3.408	3.106	2.954	2.524	2.340
370.0	729.0	738.1	620.9	472.1	381.8	361.7	392.5	464.2	572.5	697.4	796.2	851.4	841.7	758.9	625.5	449.1	338.6	283.0	250.1	230.1	239.4	305.5	304.9	171.1	107.5	93.96	101.3	329.9	1819	7098	9999.9	3654	23.89	5.794	4.110	3.308	2.809	2.466	2.239	2.223	2.024	2.018	2.263	2.202	2.477	2.484	2.360	2.478	2.375	2.063	1.794	2.143	1.878	1.820	1.921	1.800	2.023	1.979	2.275	2.301	2.716	2.818	3.009	3.441	3.190	3.365	3.498	3.532	3.666	3.728	3.726	3.468	3.387	3.061	2.717	2.615	2.332
375.0	663.3	671.5	564.9	442.9	378.9	370.2	369.6	436.6	525.4	625.0	719.6	757.1	743.0	678.4	572.6	419.1	334.0	292.4	267.2	245.9	238.5	243.2	298.3	301.6	154.3	101.5	81.61	115.4	435.1	1619	4073	9999.9	2508	30.75	5.525	4.334	3.369	2.970	2.288	2.167	1.940	2.107	2.102	2.078	2.089	2.433	2.362	2.394	2.174	1.937	1.773	2.052	1.785	1.766	1.979	1.960	1.872	1.978	2.203	2.125	2.371	2.529	2.734	2.742	2.844	2.884	3.327	3.210	3.199	3.293	3.186	3.158	3.170	2.841	2.697	2.461	2.204
380.0	600.6	621.6	521.7	436.3	371.2	360.0	366.3	409.0	484.7	573.2	657.8	698.1	685.1	621.1	527.0	404.3	329.9	295.9	276.9	260.6	249.2	236.8	250.3	323.8	240.4	123.4	87.54	76.14	134.4	388.5	973.2	6286	9999.9	1959	20.72	5.058	4.062	3.238	2.573	2.394	1.939	1.919	2.021	2.048	2.189	2.412	2.187	2.106	2.149	1.885	1.740	1.904	1.887	1.814	1.865	1.927	1.879	2.051	2.087	2.020	2.071	2.331	2.455	2.580	2.839	2.841	2.885	2.963	3.159	3.120	2.918	3.043	3.067	2.536	2.762	2.334	2.363
385.0	558.1	564.0	490.9	412.6	379.6	361.4	356.9	398.7	464.7	535.0	588.9	635.5	631.0	580.7	497.3	397.7	330.6	300.6	281.9	273.9	260.7	245.4	234.6	271.8	307.9	179.3	104.2	78.70	76.59	120.9	245.3	1654	7601	9565	296.9	12.35	4.741	3.967	2.895	2.356	1.922	2.041	2.049	2.007	2.116	2.480	2.183	2.154	2.086	1.761	1.623	1.887	1.804	1.856	2.031	1.893	1.899	1.957	1.914	2.255	2.118	2.494	2.447	2.496	2.739	2.552	2.753	2.831	2.942	2.877	2.827	2.808	2.908	2.652	2.328	2.381	2.546
390.0	516.2	527.1	465.8	395.5	363.1	352.1	349.2	374.7	425.9	485.7	542.8	573.5	569.4	527.2	462.6	377.1	324.0	302.6	292.4	281.7	275.1	261.8	248.2	241.6	269.3	269.3	168.7	103.4	82.77	78.12	94.19	399.9	1969	6020	7487	2708	19.79	5.057	3.618	2.781	2.181	2.129	2.131	2.049	1.949	2.105	2.171	2.101	1.938	1.784	1.641	1.914	1.801	1.825	1.830	1.697	1.866	1.830	1.834	2.048	2.050	2.143	2.220	2.258	2.403	2.361	2.368	2.529	2.495	2.564	2.761	2.588	2.496	2.627	2.397	2.267	2.441
395.0	478.4	484.1	431.2	374.3	344.6	336.1	333.0	352.4	405.3	450.3	494.0	522.4	512.5	479.6	431.7	359.7	319.8	304.3	295.7	294.1	286.6	282.5	271.4	252.2	242.1	262.6	268.5	163.2	110.6	90.58	77.95	131.2	470.5	1381	3385	8571	2051	25.57	4.837	3.381	2.612	2.274	2.149	1.982	2.132	1.980	1.846	1.911	1.909	1.701	1.669	1.669	1.927	1.672	1.935	1.667	1.985	1.812	1.699	1.819	1.865	2.119	2.173	2.333	2.317	2.268	2.213	2.309	2.410	2.312	2.553	2.488	2.469	2.446	2.376	2.311	2.446
400.0	446.0	446.6	416.8	362.5	341.3	331.3	325.6	344.9	377.0	433.8	465.6	489.1	478.3	452.9	410.8	352.0	317.1	306.9	299.6	300.1	298.2	290.5	285.5	268.6	246.9	241.1	282.0	240.8	144.1	108.6	87.60	82.81	144.1	337.0	826.5	4597	8045	1576	18.27	4.325	3.183	2.573	2.353	2.076	2.175	1.941	1.967	1.876	1.818	1.624	1.617	1.909	1.776	1.658	1.802	1.789	1.821	1.755	1.601	1.750	1.797	1.838	2.103	2.055	2.172	2.507	2.180	2.088	2.306	2.170	2.443	2.514	2.618	2.224	2.203	2.188	2.519
405.0	413.6	435.9	407.1	345.5	333.6	337.9	331.3	339.1	368.7	411.1	447.2	464.1	457.6	424.7	391.4	343.1	308.0	301.8	299.6	300.4	300.5	300.4	297.1	280.0	261.3	243.1	249.3	282.8	200.1	128.6	103.0	78.49	79.84	110.7	212.1	1184	5419	7028	262.3	10.19	3.861	3.002	2.478	2.150	2.149	2.085	1.930	1.918	1.856	1.721	1.578	1.721	1.731	1.684	1.723	1.656	1.817	1.717	1.814	1.874	1.820	1.842	1.901	2.067	2.115	2.068	2.148	2.200	2.202	2.182	2.234	2.415	2.462	2.008	2.298	2.309	2.316
410.0	386.1	395.5	365.2	344.6	318.7	326.9	325.0	330.1	357.4	389.9	423.4	433.2	429.6	406.8	370.0	326.6	301.0	293.5	290.3	293.8	299.7	301.7	300.1	292.5	274.2	251.6	237.7	253.7	259.2	178.6	124.4	91.69	74.94	68.24	80.49	289.7	1391	4357	5465	1140	17.23	3.840	3.158	2.389	2.201	2.117	1.922	1.847	1.871	1.661	1.539	1.794	1.693	1.713	1.746	1.678	1.893	1.795	1.752	1.755	1.788	1.792	1.921	1.850	2.086	1.853	2.070	2.007	2.082	1.996	2.206	2.167	2.171	1.988	2.148	2.013	2.180
415.0	359.9	360.3	347.5	326.6	310.4	302.5	305.1	316.8	338.3	364.6	395.9	408.0	403.4	373.7	344.0	310.2	286.2	280.2	279.6	283.9	292.5	300.3	300.2	295.2	278.8	263.3	238.5	228.3	241.0	244.5	164.0	105.5	81.21	65.03	55.55	92.36	332.0	997.7	2434	6011	1753	22.30	3.644	2.812	2.484	2.258	1.943	1.828	1.811	1.581	1.569	1.829	1.904	1.531	1.652	1.681	1.953	1.638	1.897	1.751	1.806	1.733	1.894	1.853	2.106	2.000	1.907	1.893	1.933	1.947	2.068	1.950	1.891	1.870	2.082	1.941	2.076
420.0	342.8	348.9	328.0	309.7	304.8	299.5	294.2	308.5	322.9	356.7	371.2	385.1	373.9	352.7	327.4	286.5	274.1	267.6	270.4	275.5	281.9	292.6	298.2	294.5	282.6	264.4	244.0	227.6	220.9	248.1	208.1	121.3	89.06	68.35	53.66	51.59	96.54	239.4	590.1	3321	5863	1330	15.89	3.348	2.648	2.365	1.864	1.915	1.755	1.668	1.541	1.805	1.638	1.627	1.572	1.699	1.780	1.620	1.895	1.831	1.732	1.677	1.943	1.857	1.968	1.843	1.688	1.638	1.703	1.974	1.919	1.871	1.982	1.778	1.998	2.006	2.160
425.0	302.5	315.0	315.5	305.3	298.9	289.4	289.6	305.5	315.4	335.2	356.4	362.5	348.4	332.1	311.4	276.1	260.3	257.8	257.0	265.7	275.1	279.7	291.8	288.3	281.2	266.5	251.4	230.8	214.5	220.0	229.1	150.1	97.38	72.38	55.39	45.54	47.09	71.43	146.1	854.3	3910	5138	248.3	8.904	3.137	2.596	2.176	1.944	1.645	1.453	1.562	1.828	1.633	1.577	1.656	1.661	1.890	1.694	1.660	1.761	1.775	1.625	1.669	1.825	1.769	1.781	1.833	1.828	1.858	1.957	1.728	1.950	1.818	1.785	1.758	1.876	2.141
430.0	540.9	309.4	291.4	287.2	285.6	285.5	281.4	291.2	304.9	324.4	340.6	344.6	327.6	309.0	287.9	262.7	248.0	244.5	244.6	253.6	262.7	270.5	280.3	281.5	277.5	264.3	250.0	232.1	214.2	199.1	199.5	185.2	124.1	81.07	61.88	48.69	40.73	37.61	48.34	203.1	995.4	3126	4166	1049	15.88	3.343	2.636	2.307	1.879	1.478	1.426	1.688	1.722	1.664	1.621	1.623	1.721	1.734	1.649	1.632	1.780	1.636	1.681	1.811	1.715	1.849	1.763	1.788	1.783	1.767	1.574	1.755	1.831	1.698	1.759	1.903	1.986
435.0	1607	292.5	282.8	274.4	264.6	279.8	273.6	284.0	298.2	314.7	323.0	327.1	310.4	288.4	268.5	242.5	231.8	227.1	229.5	238.6	248.5	258.3	267.8	272.1	271.2	257.4	246.8	232.4	214.7	195.2	173.5	171.9	162.7	100.9	69.09	53.14	43.69	33.40	29.85	59.61	232.7	713.2	1815	4767	1663	22.55	3.384	2.593	2.075	1.706	1.494	1.759	1.681	1.502	1.679	1.442	1.647	1.613	1.724	1.576	1.717	1.799	1.466	1.548	1.551	1.632	1.596	1.640	1.587	1.660	1.551	1.672	1.558	1.544	1.866	1.686	1.758
440.0	2989	441.2	267.1	260.0	263.0	267.4	268.3	271.7	289.1	302.8	310.7	311.1	291.6	274.0	254.2	232.5	222.1	217.2	223.3	228.1	239.5	248.8	256.5	259.0	260.0	251.0	239.2	226.7	211.5	190.7	169.8	152.5	161.1	126.2	77.59	56.99	45.22	34.65	27.61	29.31	64.62	169.0	436.4	2618	5068	1275	14.29	3.312	2.160	1.871	1.519	1.682	1.838	1.480	1.571	1.448	1.709	1.780	1.629	1.460	1.475	1.659	1.732	1.651	1.528	1.650	1.664	1.620	1.606	1.524	1.569	1.679	1.565	1.620	1.700	1.486	1.602
445.0	3552	1124	251.7	266.1	252.2	254.5	256.7	269.6	281.6	294.6	297.5	294.4	279.9	257.9	238.6	220.4	210.8	207.3	211.6	216.9	225.4	236.9	245.8	251.6	251.4	243.1	234.5	220.5	208.8	189.2	166.3	142.0	137.6	139.9	97.09	61.50	48.42	37.85	28.61	24.39	28.62	48.87	107.4	673.9	3329	4592	212.2	9.403	2.470	2.049	1.659	1.755	1.857	1.453	1.588	1.606	1.673	1.661	1.697	1.618	1.573	1.563	1.607	1.651	1.603	1.584	1.588	1.607	1.450	1.616	1.478	1.615	1.594	1.688	1.731	1.615	1.702
450.0	2165	3100	517.3	246.0	238.7	245.6	246.4	259.9	270.1	274.3	278.5	275.7	260.3	236.7	218.2	200.2	195.4	193.7	194.2	199.5	207.0	217.8	228.2	232.8	233.6	226.7	218.9	210.2	196.7	183.7	161.7	138.0	119.5	121.0	112.9	79.28	52.64	40.80	31.96	26.54	23.63	24.69	35.02	159.8	841.9	2690	3619	945.2	13.98	2.650	1.923	1.928	1.882	1.640	1.566	1.647	1.616	1.625	1.630	1.701	1.520	1.492	1.576	1.462	1.672	1.476	1.409	1.550	1.491	1.526	1.384	1.385	1.612	1.445	1.598	1.646	1.657
455.0	704.4	3540	2048	243.6	225.5	239.6	235.7	245.4	251.8	256.9	255.6	245.8	236.9	217.8	199.7	177.9	172.9	175.3	177.0	180.6	189.8	197.8	208.6	210.1	214.1	209.5	204.0	197.1	186.3	171.2	154.5	131.2	112.8	99.86	102.3	98.92	63.70	44.75	35.46	29.69	25.07	21.88	20.94	46.05	195.6	612.6	1499	3846	1389	16.61	2.563	2.148	1.991	1.719	1.635	1.612	1.598	1.544	1.451	1.513	1.495	1.667	1.561	1.498	1.595	1.296	1.472	1.400	1.447	1.439	1.330	1.362	1.439	1.421	1.437	1.402	1.447
460.0	307.7	2330	3710	451.2	215.1	223.1	224.3	237.4	242.5	248.3	243.9	232.4	221.0	204.0	181.6	167.1	159.3	158.7	162.2	167.4	176.9	183.0	193.3	199.0	200.0	196.7	191.9	184.4	174.4	161.1	147.8	126.9	109.2	94.31	87.95	97.61	79.69	50.03	38.35	31.96	26.31	22.65	19.47	21.63	52.74	144.1	358.3	2058	3881	943.4	11.71	2.535	2.087	1.855	1.678	1.675	1.616	1.485	1.361	1.560	1.483	1.516	1.395	1.517	1.364	1.325	1.419	1.401	1.392	1.457	1.288	1.356	1.294	1.187	1.336	1.303	1.526
465.0	222.8	958.4	4271	1447	198.7	209.3	212.0	230.3	227.9	233.9	227.7	219.7	205.2	186.4	166.7	156.0	150.6	147.6	148.2	154.7	162.2	170.2	180.1	181.5	184.4	183.5	178.0	173.5	164.1	154.9	138.8	122.4	106.0	89.73	79.41	83.71	85.70	60.85	41.39	33.65	29.27	23.48	20.46	17.56	21.72	40.26	87.14	522.4	2547	3295	171.8	7.978	2.426	1.762	1.911	1.712	1.676	1.492	1.485	1.453	1.654	1.444	1.375	1.466	1.518	1.231	1.193	1.509	1.289	1.387	1.240	1.402	1.362	1.268	1.375	1.187	1.254
470.0	215.4	361.0	2467	3679	403.6	197.4	201.6	204.6	213.8	213.4	209.0	200.8	183.7	166.8	151.1	137.8	135.8	132.7	133.1	137.9	144.6	153.4	158.8	163.0	163.5	163.5	159.2	155.1	148.7	141.2	128.6	114.8	98.46	85.07	74.75	69.91	73.79	71.17	51.33	36.11	30.59	25.14	21.41	17.73	16.26	17.54	26.52	122.5	644.1	1977	2503	841.9	15.14	2.448	2.172	1.813	1.677	1.575	1.458	1.379	1.512	1.417	1.424	1.324	1.328	1.359	1.192	1.239	1.300	1.219	1.109	1.292	1.273	1.168	1.196	1.157	1.212
475.0	234.2	209.9	738.2	3889	2207	192.6	177.7	196.6	190.5	195.3	189.7	182.3	162.3	149.8	132.1	122.8	118.1	115.2	117.6	121.0	126.0	133.0	138.7	142.5	142.6	144.4	139.8	135.2	131.9	126.5	116.1	104.2	91.45	81.21	70.98	63.43	59.26	64.44	61.89	42.89	31.10	26.24	22.20	18.09	15.55	13.18	13.27	33.21	148.2	449.3	1003	2582	1338	20.51	2.400	1.973	1.859	1.778	1.460	1.468	1.396	1.360	1.299	1.292	1.150	1.282	1.183	1.103	1.133	0.993	1.065	1.166	1.256	1.050	1.140	1.157	1.264
480.0	247.4	179.4	281.2	2357	4031	379.3	171.4	189.1	179.2	178.5	176.5	167.4	151.4	139.2	122.5	113.8	106.9	106.0	107.6	110.1	112.5	120.2	124.4	126.2	129.3	130.1	127.1	124.1	120.8	115.4	108.2	96.60	84.48	76.67	67.65	60.24	55.26	53.72	61.40	51.61	34.05	27.41	22.90	19.28	16.10	13.49	10.90	13.84	38.23	104.4	238.6	1298	2783	1053	15.31	2.343	2.189	1.673	1.444	1.427	1.385	1.267	1.390	1.219	1.117	1.112	1.201	1.025	1.164	1.002	1.021	1.154	1.054	0.917	0.915	1.233	1.299
485.0	216.4	210.7	167.7	897.6	4496	1502	167.1	167.2	166.3	168.0	165.9	157.1	142.1	129.5	111.9	104.7	96.43	96.91	97.45	101.9	104.4	110.2	113.6	115.7	118.9	118.6	117.6	114.4	112.2	109.0	100.5	91.58	80.95	73.05	64.21	58.63	52.92	49.06	53.48	56.38	39.94	28.55	23.61	20.40	16.60	13.61	11.14	9.975	14.68	28.00	57.82	327.3	1607	2701	215.5	9.800	2.411	1.916	1.515	1.401	1.465	1.268	1.315	1.230	1.098	1.133	1.128	1.024	1.049	1.074	1.092	1.150	1.083	0.961	0.929	1.270	1.132
490.0	153.5	229.8	157.5	313.3	2513	3823	526.4	157.7	157.0	157.0	153.9	143.3	129.4	117.0	103.1	93.68	87.01	87.39	87.63	90.17	94.08	99.39	102.2	104.4	107.3	106.5	104.1	103.9	101.8	98.71	92.49	84.29	75.61	69.02	61.27	56.12	51.06	46.62	44.89	49.33	47.13	33.88	25.40	20.75	17.54	14.67	12.11	10.22	9.551	11.39	17.63	77.63	393.0	1328	1812	902.1	15.84	2.347	1.743	1.531	1.400	1.329	1.220	1.208	1.030	1.134	1.082	1.092	1.006	1.041	1.102	1.046	1.033	1.061	0.959	1.197	1.033
495.0	117.4	210.3	179.1	170.7	731.7	4015	2370	159.6	142.9	142.7	145.5	127.5	117.4	101.4	92.96	79.69	77.51	78.46	77.86	79.08	82.51	88.70	88.95	93.70	94.50	94.11	93.16	92.39	91.60	88.47	82.50	77.37	70.63	64.48	58.69	52.73	48.28	43.93	40.91	40.77	44.05	42.33	30.39	21.74	18.65	15.93	12.95	10.92	9.816	9.000	9.195	22.04	92.32	301.6	726.7	2460	1390	22.11	2.229	1.705	1.456	1.314	1.320	1.134	1.115	1.108	1.012	0.938	1.072	0.922	1.108	1.005	1.010	1.060	0.950	1.011	0.789
500.0	101.6	168.8	200.3	138.5	255.5	2371	4357	304.3	135.9	138.3	135.9	119.4	111.1	94.89	85.75	74.46	69.70	70.92	70.41	72.93	75.12	79.01	81.28	83.88	86.36	84.47	84.53	84.02	82.56	82.46	78.02	71.97	66.06	60.37	54.10	49.55	46.42	42.92	39.38	36.56	37.97	42.35	34.74	23.98	18.85	16.41	13.99	11.55	10.32	9.041	7.564	9.897	25.14	71.65	172.1	1126	2611	916.5	15.09	2.012	1.537	1.391	1.302	1.256	1.073	1.057	0.967	0.909	1.118	0.818	1.082	0.893	0.852	0.957	0.855	1.067	1.002
505.0	106.5	129.0	199.8	140.8	141.9	883.8	4887	1453	129.2	129.3	122.4	114.6	102.3	89.51	80.69	68.47	62.19	65.21	64.07	67.73	70.08	71.23	74.30	75.67	77.95	77.86	76.40	76.22	77.00	75.12	72.21	67.85	61.38	57.35	51.65	47.16	44.74	41.76	37.06	34.46	33.18	37.40	37.41	27.66	19.70	16.82	14.07	12.29	10.67	9.497	7.695	7.572	10.77	20.34	42.57	274.4	1458	2333	222.1	7.403	1.732	1.502	1.254	1.167	1.135	1.040	0.982	0.804	0.962	0.829	0.935	0.803	0.827	0.804	0.895	0.975	1.051
510.0	90.06	105.0	161.1	175.9	113.2	285.9	2631	3743	447.5	119.7	114.7	106.6	92.73	78.60	70.60	61.19	56.74	56.68	56.61	58.35	61.39	62.01	64.42	66.61	68.13	67.37	66.24	66.06	67.20	66.82	64.80	60.36	55.55	50.81	46.87	43.48	40.38	38.08	35.12	32.63	30.22	30.59	33.04	31.68	23.62	17.16	14.73	12.55	10.73	9.824	8.443	7.532	7.771	9.127	13.69	65.05	356.2	1183	1631	769.4	14.36	1.751	1.384	1.187	1.077	1.118	1.058	0.924	0.968	0.922	0.968	0.847	0.800	0.781	0.846	0.915	0.823
515.0	84.32	83.68	103.3	187.2	117.8	136.2	730.6	4203	2082	118.2	105.3	96.79	85.96	72.94	60.59	52.60	48.20	49.38	49.94	50.60	52.24	53.48	55.53	57.22	58.92	58.53	57.09	57.53	58.14	57.94	56.32	53.06	49.28	45.44	42.63	39.03	36.56	34.34	31.74	29.36	27.48	26.38	25.61	30.18	28.62	19.37	14.79	12.86	10.65	9.823	8.470	8.229	6.852	6.673	7.205	18.19	82.44	267.3	614.5	1756	954.5	19.31	1.548	1.457	1.142	1.168	1.045	0.945	0.987	0.855	0.870	0.824	0.590	0.839	0.887	0.867	0.674
520.0	73.20	73.74	79.94	157.7	141.0	94.29	235.1	2420	4565	235.2	96.34	88.94	77.13	66.03	54.28	46.98	43.64	44.76	44.02	45.40	46.24	48.82	50.96	50.61	51.75	53.05	50.85	51.35	52.32	52.74	51.80	48.39	44.03	42.57	38.46	35.70	34.02	32.50	29.91	28.42	25.15	24.20	23.00	25.89	28.09	22.01	15.33	12.18	10.63	9.107	8.477	7.734	7.001	5.999	5.422	7.642	21.02	62.27	144.5	839.5	1812	234.8	10.32	1.543	1.263	1.176	0.959	0.907	0.931	0.904	0.871	0.717	0.821	0.884	0.773	0.762	0.733
525.0	69.95	75.92	73.82	113.2	165.7	85.28	120.2	868.3	5341	1363	92.21	78.38	71.76	60.06	49.48	43.46	40.36	40.48	40.03	40.74	42.06	42.57	45.31	46.32	46.11	46.39	46.53	46.59	47.11	48.32	46.74	44.08	40.41	39.20	35.38	33.57	31.37	29.85	27.84	26.50	23.63	22.76	21.12	21.14	24.87	24.08	17.00	12.51	10.61	9.118	8.313	7.784	7.216	6.281	5.183	5.274	7.436	16.55	34.75	207.9	1065	1505	193.6	3.809	1.302	1.171	1.107	0.867	0.973	0.881	0.905	0.746	0.645	0.791	0.695	0.741	0.736
530.0	67.95	71.14	65.67	73.83	149.6	110.0	82.82	265.1	2846	4392	404.1	73.87	64.29	53.66	43.63	39.11	35.52	35.11	34.57	35.70	36.36	37.72	39.36	39.72	40.53	40.42	39.37	40.53	41.32	41.56	40.00	38.89	36.71	34.25	31.88	29.59	28.16	26.15	25.02	23.62	21.78	20.71	19.60	18.26	19.19	21.46	19.53	13.69	10.33	9.193	7.993	7.250	6.568	5.987	5.200	4.361	4.403	6.003	9.842	48.34	262.8	833.0	1171	453.2	12.00	1.277	0.921	0.968	0.966	0.899	0.796	0.807	0.724	0.750	0.679	0.815	0.813
535.0	58.64	64.08	68.23	60.32	95.17	144.5	75.42	111.8	767.5	4757	1813	78.27	54.86	46.33	39.06	32.93	30.83	30.64	31.13	30.23	31.60	31.56	32.57	34.05	34.13	34.35	34.21	34.65	34.83	35.66	35.36	33.28	31.46	29.47	28.60	25.65	24.32	23.56	21.96	21.02	19.59	18.57	17.34	16.31	15.48	16.03	18.70	16.70	11.34	8.712	7.437	6.928	5.879	5.482	5.211	4.326	3.740	3.540	4.245	12.57	60.22	188.7	465.7	1254	243.6	14.29	1.142	0.934	0.929	0.861	0.764	0.637	0.743	0.725	0.799	0.715	0.714
540.0	72.06	80.66	71.52	53.88	64.49	147.8	93.28	75.18	231.3	2628	4832	177.5	50.82	43.83	35.53	30.03	28.17	28.62	26.36	27.60	27.90	28.45	29.35	30.20	31.25	30.46	29.95	30.97	32.02	32.06	31.51	29.67	28.88	26.79	24.88	23.28	22.55	21.01	20.30	19.85	18.24	17.16	16.09	14.85	13.87	13.61	15.29	16.47	12.18	8.877	7.187	6.472	5.982	5.083	4.875	4.371	3.686	3.089	2.807	4.486	14.89	43.65	110.8	640.5	1176	207.9	6.716	1.102	1.060	0.949	0.754	0.732	0.761	0.636	0.712	0.708	0.663
545.0	94.24	93.35	91.64	54.55	52.75	117.9	118.0	65.00	107.7	906.7	5720	1198	49.56	40.61	33.22	28.74	26.17	25.72	23.76	25.53	25.28	25.43	25.99	26.93	28.10	27.51	27.31	27.70	28.57	28.17	28.70	26.86	25.63	24.61	22.47	21.21	20.58	19.65	18.54	17.54	16.73	15.77	14.25	13.63	12.73	12.27	13.11	15.08	13.44	9.439	6.975	6.173	5.697	4.750	4.398	4.092	3.813	2.938	2.399	2.623	4.737	11.18	26.30	161.7	786.2	1039	161.8	2.238	1.129	0.883	0.934	0.857	0.703	0.588	0.598	0.638	0.604
550.0	115.8	124.3	110.6	60.57	45.24	72.28	140.2	78.59	73.38	264.4	2907	4291	381.6	37.08	30.12	25.51	23.16	22.42	21.42	21.91	21.71	22.66	23.14	23.19	23.77	23.77	24.22	24.47	24.69	24.92	24.60	23.55	21.97	21.27	19.85	18.61	17.81	17.36	16.32	15.58	14.63	14.00	13.17	12.61	11.91	11.01	10.70	11.37	12.51	10.87	7.666	5.746	5.104	4.465	3.919	3.613	3.356	3.064	2.392	2.035	2.509	3.730	7.200	37.52	199.1	620.4	856.0	322.5	9.879	1.003	0.860	0.779	0.752	0.694	0.704	0.685	0.562
555.0	148.0	159.7	127.8	59.87	40.58	48.01	115.6	110.6	61.44	108.4	758.5	4561	2489	44.48	26.74	22.78	19.23	18.69	18.80	17.80	18.72	19.91	19.05	20.65	20.13	20.40	19.74	20.71	21.45	20.93	20.87	20.60	19.36	18.50	16.82	15.61	15.15	15.02	14.21	13.06	12.42	12.44	11.43	10.77	10.35	9.697	9.128	8.988	9.451	10.94	8.301	5.894	4.844	4.134	3.643	3.237	2.801	2.793	2.460	2.061	1.871	2.203	2.780	9.461	45.41	140.7	360.2	972.0	232.8	9.498	0.838	0.788	0.744	0.698	0.775	0.689	0.664
560.0	156.6	177.1	134.8	67.88	42.32	41.67	78.42	134.9	66.46	70.04	219.4	2420	4691	138.0	26.31	20.31	17.77	17.77	17.43	16.64	16.37	16.87	17.40	17.59	17.75	18.14	17.82	18.06	18.45	18.95	17.92	18.02	17.01	16.16	15.39	13.88	13.77	13.48	12.52	12.17	11.79	10.72	10.39	10.03	9.665	9.125	7.902	7.908	7.436	9.025	9.033	6.571	4.718	3.863	3.306	3.214	2.634	2.375	2.271	2.133	1.856	1.672	1.647	3.293	11.25	32.50	86.79	530.2	849.7	170.3	2.845	0.891	0.692	0.734	0.691	0.680	0.642
565.0	180.1	191.6	151.8	71.46	37.35	36.72	57.94	134.8	89.28	64.07	98.78	798.5	4982	1028	25.28	17.59	17.16	15.41	15.43	14.31	14.91	14.81	15.10	15.72	15.58	16.27	15.18	15.66	16.12	17.06	16.23	15.70	14.88	14.31	13.89	12.23	11.92	11.74	11.27	10.65	10.27	9.674	8.957	8.991	8.241	8.375	7.218	6.944	6.546	7.070	7.786	6.930	4.814	3.776	3.320	2.772	2.472	2.137	1.976	2.316	1.749	1.500	1.507	1.705	3.360	8.522	20.39	137.6	588.3	691.4	29.76	1.284	0.865	0.637	0.634	0.542	0.676
570.0	200.4	204.1	157.3	71.92	37.36	34.28	43.46	98.88	124.3	66.56	70.77	227.0	2277	3748	309.1	16.81	14.66	13.17	12.80	12.41	12.91	12.49	12.79	13.10	12.64	13.13	13.03	12.73	12.96	13.44	13.46	13.33	12.10	11.89	11.35	10.59	10.19	9.794	9.552	8.693	8.386	8.190	7.790	7.688	7.282	6.826	6.332	5.957	5.627	5.154	5.584	6.348	5.172	3.657	2.809	2.365	2.112	1.918	1.886	1.923	2.014	1.630	1.424	1.372	1.686	2.876	5.510	31.85	152.0	435.3	508.0	123.2	4.592	0.774	0.662	0.714	0.701
575.0	189.2	197.9	149.5	67.93	31.98	30.31	35.77	62.10	138.3	87.22	64.53	98.68	574.3	3488	2081	22.49	12.32	11.73	10.74	10.25	10.02	9.968	10.20	10.88	10.11	10.21	10.01	10.23	10.56	10.71	10.34	10.29	9.629	9.631	9.054	8.873	8.572	8.062	7.755	7.322	6.950	6.717	6.232	6.065	5.780	5.694	5.405	4.548	4.599	3.950	3.830	4.663	4.952	3.939	2.686	2.032	1.790	1.722	1.590	1.423	1.621	1.878	1.262	1.368	1.100	1.489	2.050	7.917	34.79	99.09	237.5	528.3	146.2	2.222	0.778	0.596	0.660
580.0	187.6	195.2	143.0	63.88	29.13	30.10	34.29	47.78	120.8	112.1	67.80	71.67	167.9	1630	3857	94.15	10.34	9.688	9.059	8.473	8.750	9.207	9.006	8.468	8.685	8.597	8.554	8.685	8.634	8.746	8.647	8.208	8.088	7.844	7.496	7.478	7.406	6.685	6.437	6.208	5.771	5.465	5.336	5.281	4.875	4.960	4.607	4.365	3.836	3.523	3.190	3.259	4.041	3.893	2.933	1.756	1.555	1.517	1.495	1.298	1.368	1.699	1.595	1.271	1.048	1.259	1.232	2.514	8.683	22.96	58.21	314.3	441.1	27.49	0.942	0.577	0.690
585.0	172.6	189.6	141.9	60.89	25.67	27.55	33.26	44.62	89.93	138.6	78.91	66.33	80.40	499.2	3898	763.8	10.88	8.522	8.500	7.913	7.324	7.989	7.239	7.543	7.203	7.488	7.049	7.198	7.030	7.434	7.752	7.106	7.234	6.637	6.242	6.119	5.775	5.774	5.455	5.331	4.977	4.734	4.505	4.394	4.201	4.479	4.250	3.833	3.383	2.956	2.618	2.648	2.985	3.597	3.120	2.137	1.669	1.313	1.435	1.128	1.215	1.451	1.661	1.508	1.016	1.026	1.050	1.353	2.646	6.078	13.77	84.88	360.9	247.6	21.14	0.739	0.712
590.0	157.1	179.5	133.5	57.75	26.51	26.69	30.65	38.59	61.90	131.8	102.6	70.79	62.60	143.8	1659	2776	65.36	8.369	7.276	6.597	6.096	6.561	5.959	6.287	5.905	6.003	5.978	6.038	5.819	6.191	6.028	5.729	5.706	5.604	5.418	5.189	4.883	4.703	4.493	4.275	4.115	4.021	3.877	3.755	3.433	3.490	3.200	3.208	2.744	2.501	2.249	2.154	2.044	2.555	3.006	2.356	1.666	1.238	1.234	1.045	1.071	1.103	1.293	1.542	1.152	1.063	1.024	1.060	1.380	2.125	3.936	19.64	99.20	241.4	254.2	61.43	1.905
595.0	142.4	158.8	120.0	49.47	25.57	25.54	28.59	36.69	51.53	91.35	134.8	77.82	60.19	64.14	403.4	2503	780.9	11.15	6.499	5.507	5.597	5.577	4.875	5.034	5.426	5.038	4.778	4.862	4.712	5.365	4.676	4.608	4.564	4.256	4.480	4.409	3.964	3.908	3.676	3.359	3.681	3.187	3.065	3.099	2.912	2.990	2.693	2.522	2.353	2.060	1.875	1.723	1.699	1.851	2.203	2.344	1.778	1.385	1.197	0.915	0.950	1.149	1.049	1.147	1.356	1.155	0.999	1.004	1.121	1.217	1.577	5.037	22.67	56.69	153.8	272.1	31.60
600.0	132.7	139.2	109.6	47.55	25.21	21.71	26.39	32.27	45.80	70.18	138.2	90.25	58.12	46.42	107.6	1133	2443	56.81	6.084	5.158	5.135	4.625	4.450	4.756	4.677	4.071	4.260	4.321	4.200	4.451	4.147	3.888	3.905	3.824	3.647	3.637	3.484	3.306	3.054	2.986	2.898	2.966	2.775	2.569	2.699	2.488	2.283	2.321	1.927	1.763	1.731	1.538	1.335	1.553	1.684	2.143	1.881	1.381	1.044	1.024	0.869	1.074	1.046	1.121	1.213	1.199	1.039	0.968	0.888	0.905	0.989	1.705	5.653	13.28	39.95	194.8	223.7
605.0	113.1	129.9	94.75	48.32	25.33	21.55	26.45	29.31	45.23	61.22	120.1	104.4	60.98	42.29	41.37	327.3	2662	508.7	6.385	4.863	4.750	4.112	4.169	4.232	4.056	3.951	3.800	3.513	3.976	4.236	3.666	3.492	3.608	3.247	3.155	3.288	3.125	2.875	2.836	2.591	2.448	2.806	2.443	2.347	2.316	2.318	2.198	2.138	1.896	1.582	1.397	1.398	1.195	1.351	1.363	1.648	1.893	1.389	1.096	1.038	0.945	0.954	0.872	0.966	1.028	1.165	1.205	0.906	0.790	0.813	0.866	1.015	1.731	3.559	9.604	57.56	205.0
610.0	108.9	110.7	85.06	42.52	22.78	19.68	23.52	28.85	41.14	54.27	88.92	123.0	70.95	40.40	28.10	85.45	1201	1847	45.87	4.774	4.261	3.794	3.787	3.708	3.417	3.245	3.358	3.165	3.391	3.565	3.162	3.034	3.140	3.020	2.869	2.994	2.613	2.742	2.388	2.138	2.061	2.195	2.007	1.949	1.885	1.892	1.817	1.815	1.660	1.353	1.299	1.155	1.110	1.108	1.073	1.155	1.673	1.470	1.244	0.906	0.928	0.881	0.874	0.827	0.934	0.948	1.202	1.140	0.906	0.801	0.824	0.803	0.914	1.407	2.682	13.47	58.34
615.0	100.7	100.1	76.44	40.61	19.90	17.41	22.85	27.13	39.88	51.71	69.04	112.4	94.84	42.55	24.57	29.18	288.6	1824	612.0	6.184	4.021	3.301	3.023	3.054	2.912	3.133	2.943	3.261	3.034	3.065	2.816	2.736	2.808	2.820	2.836	2.589	2.320	2.358	2.269	1.877	1.561	1.803	1.577	1.790	1.710	1.467	1.479	1.534	1.454	1.150	1.040	1.157	0.981	0.929	0.907	0.868	1.138	1.384	1.290	0.951	0.862	0.860	0.744	0.885	0.763	1.049	0.997	1.128	1.117	0.719	0.809	0.771	0.723	0.793	1.096	3.542	13.52
620.0	94.95	96.47	66.75	36.30	20.88	17.43	22.74	25.37	34.61	51.52	59.86	89.38	105.8	46.21	25.41	17.39	72.21	890.2	1723	34.90	4.056	3.451	3.038	2.812	2.897	2.676	2.523	2.444	2.600	2.594	2.559	2.360	2.338	2.416	2.356	2.355	2.093	2.039	2.141	1.576	1.438	1.618	1.481	1.466	1.432	1.423	1.273	1.323	1.171	1.089	0.910	1.007	0.876	0.793	0.820	0.879	0.973	0.989	1.254	1.137	0.918	0.720	0.801	0.892	0.842	0.934	0.841	0.938	1.162	1.012	0.838	0.732	0.744	0.603	0.756	1.329	3.587
625.0	93.07	85.27	64.89	34.21	20.35	18.75	20.81	25.31	36.05	47.43	55.94	74.36	104.8	53.81	24.90	14.43	23.05	262.8	1994	339.3	3.994	3.298	3.043	2.710	2.303	2.573	2.210	2.326	2.368	2.273	2.226	2.110	2.296	2.068	2.048	1.965	2.186	1.956	1.787	1.658	1.543	1.382	1.273	1.396	1.404	1.265	1.245	1.310	1.135	0.921	0.732	0.927	0.897	0.724	0.844	0.737	0.962	0.954	1.041	1.188	0.816	0.695	0.785	0.839	0.691	0.986	0.768	0.847	0.987	1.140	0.987	0.773	0.675	0.531	0.583	0.755	1.268
630.0	78.30	76.36	56.96	35.11	20.69	18.79	21.71	26.03	35.22	44.73	54.37	65.74	83.96	72.40	27.18	14.39	12.25	65.57	966.3	1335	31.49	3.073	2.733	2.469	2.274	2.476	2.164	2.307	2.123	2.217	2.025	1.825	1.877	1.731	1.913	1.839	1.711	1.604	1.393	1.489	1.500	1.164	1.166	1.238	1.213	1.150	1.076	1.145	0.955	0.871	0.805	0.833	0.816	0.709	0.811	0.714	0.782	0.770	0.770	1.039	0.977	0.762	0.809	0.729	0.714	0.736	0.856	0.776	0.851	1.026	0.937	0.754	0.700	0.557	0.606	0.635	0.828
635.0	74.84	70.78	57.00	29.32	19.24	17.80	20.19	25.27	32.46	42.78	52.75	57.55	63.09	79.07	37.12	15.01	9.307	19.89	232.4	1464	453.6	3.973	2.619	2.727	2.258	2.050	2.101	1.759	1.964	2.115	1.577	1.673	1.599	1.669	1.565	1.649	1.461	1.398	1.239	1.303	1.390	1.214	1.050	1.047	1.038	1.050	0.996	1.081	0.923	0.804	0.801	0.712	0.731	0.649	0.709	0.739	0.738	0.732	0.765	0.747	0.976	1.056	0.808	0.873	0.793	0.898	0.702	0.773	0.808	0.831	0.807	0.926	0.678	0.532	0.638	0.562	0.646
640.0	68.62	65.09	51.00	28.37	16.99	17.18	18.61	23.93	33.23	43.51	50.06	55.57	55.00	69.54	47.56	16.01	9.151	9.412	57.18	779.6	1200	17.58	2.677	2.383	2.198	2.013	1.947	1.675	1.920	1.890	1.930	1.674	1.490	1.620	1.395	1.353	1.354	1.364	1.180	1.164	1.273	1.316	0.981	0.946	0.960	0.962	0.845	0.811	0.759	0.787	0.636	0.609	0.687	0.598	0.743	0.693	0.757	0.629	0.680	0.782	0.994	0.925	0.810	0.829	0.638	0.728	0.710	0.713	0.723	0.759	0.774	1.009	0.723	0.684	0.605	0.561	0.607
645.0	68.32	59.15	47.61	25.74	18.32	17.32	18.94	25.12	30.77	40.69	52.68	53.64	50.08	57.34	55.75	17.58	9.186	7.652	17.32	239.1	1514	66.71	3.030	2.282	2.107	1.871	1.721	1.643	1.692	1.827	1.629	1.570	1.283	1.538	1.359	1.274	1.337	1.258	1.096	1.104	0.946	1.223	1.062	0.808	0.929	0.845	0.813	0.815	0.714	0.729	0.598	0.628	0.674	0.585	0.729	0.627	0.749	0.550	0.658	0.675	0.836	0.765	0.844	0.738	0.677	0.647	0.667	0.658	0.688	0.815	0.766	0.906	0.893	0.665	0.633	0.571	0.639
650.0	70.84	57.16	44.38	25.44	17.62	16.95	20.26	24.10	33.51	40.84	49.16	53.81	50.97	49.28	55.98	22.16	9.849	6.890	8.070	60.32	1084	506.2	4.508	2.198	1.957	1.868	1.843	1.485	1.406	1.499	1.589	1.497	1.278	1.289	1.226	1.249	1.292	1.093	1.067	1.061	0.924	0.999	1.174	0.803	0.788	0.932	0.800	0.780	0.627	0.699	0.604	0.594	0.622	0.611	0.715	0.573	0.734	0.623	0.661	0.581	0.695	0.677	0.793	0.784	0.684	0.639	0.605	0.731	0.653	0.836	0.749	0.786	0.878	0.763	0.752	0.560	0.544
