Sample:	'1
File name:	ÒÚÀû.FD3
Run date:	'14:43:38, 06/17/2025
Operator:	dsjg
Comment:	'

Instrument
Model:	F-2700 FL Spectrophotometer
Serial number:	2198-001
ROM Version:	4J14000 07

Instrument parameters
Measurement type:	3-D scan
Data mode:	Fluorescence
EX  Start WL:	220.0 nm
EX  End WL:	600.0 nm
EX Sampling interval:	5.0 nm
EM  Start WL:	230.0 nm
EM  End WL:	650.0 nm
EM Sampling interval:	5.0 nm
Scan speed:	12000 nm/min
EX Slit:	5.0 nm
EM Slit:	5.0 nm
PMT Voltage:	700 V
Response:	Auto 
Corrected spectra:	Off
Contour interval:	50.000

Peak integration
Integration method:	Rectangular
Sensitivity:	1
Threshold:	1.000

Peaks
No.	ApexEX/EM(nm)	Height(Data)
1	225.0/315.0	208.7
2	225.0/360.0	215.1
3	225.0/370.0	212.2
4	225.0/540.0	45.59
5	230.0/405.0	183.4
6	230.0/505.0	116.3
7	235.0/410.0	174.3
8	235.0/520.0	94.13
9	240.0/525.0	87.00
10	245.0/425.0	177.7
11	245.0/535.0	68.93
12	250.0/405.0	178.7
13	250.0/545.0	60.28
14	250.0/595.0	12.93
15	255.0/280.0	215.7
16	255.0/395.0	176.9
17	255.0/555.0	51.19
18	260.0/285.0	231.6
19	260.0/435.0	189.1
20	260.0/570.0	43.53
21	260.0/635.0	10.46
22	265.0/290.0	244.2
23	265.0/425.0	189.6
24	265.0/585.0	38.48
25	270.0/300.0	324.5
26	270.0/595.0	36.61
27	275.0/305.0	391.7
28	275.0/605.0	32.85
29	280.0/310.0	365.8
30	280.0/345.0	231.6
31	280.0/620.0	26.18
32	285.0/315.0	362.8
33	285.0/630.0	22.34
34	290.0/320.0	322.4
35	290.0/640.0	17.17
36	295.0/330.0	249.7
37	300.0/335.0	229.8
38	305.0/340.0	238.6
39	310.0/345.0	206.4
40	315.0/355.0	180.8
41	320.0/360.0	210.9
42	325.0/365.0	193.0
43	335.0/380.0	192.7
44	340.0/385.0	184.6
45	350.0/400.0	158.0
46	355.0/405.0	154.0
47	360.0/410.0	135.4
48	365.0/415.0	126.4
49	370.0/425.0	121.8
50	375.0/430.0	101.4
51	380.0/435.0	90.78
52	385.0/445.0	86.26
53	390.0/450.0	71.82
54	395.0/455.0	64.00
55	400.0/465.0	59.55
56	405.0/470.0	48.93
57	410.0/475.0	43.72
58	415.0/485.0	39.19
59	420.0/490.0	34.11
60	425.0/495.0	29.35
61	430.0/505.0	24.93
62	435.0/510.0	20.21
63	440.0/515.0	17.84
64	445.0/525.0	14.85
65	450.0/530.0	11.99
66	460.0/545.0	8.292
67	465.0/550.0	6.747
68	475.0/565.0	4.499
69	540.0/295.0	2.078
70	550.0/305.0	2.262
71	560.0/310.0	2.217
72	570.0/315.0	2.211
73	580.0/320.0	2.169
74	585.0/325.0	1.965

Data points
	220.0	225.0	230.0	235.0	240.0	245.0	250.0	255.0	260.0	265.0	270.0	275.0	280.0	285.0	290.0	295.0	300.0	305.0	310.0	315.0	320.0	325.0	330.0	335.0	340.0	345.0	350.0	355.0	360.0	365.0	370.0	375.0	380.0	385.0	390.0	395.0	400.0	405.0	410.0	415.0	420.0	425.0	430.0	435.0	440.0	445.0	450.0	455.0	460.0	465.0	470.0	475.0	480.0	485.0	490.0	495.0	500.0	505.0	510.0	515.0	520.0	525.0	530.0	535.0	540.0	545.0	550.0	555.0	560.0	565.0	570.0	575.0	580.0	585.0	590.0	595.0	600.0
230.0	169.3	 3117	 6110	 1546	45.46	8.486	6.242	5.158	4.431	3.636	3.526	3.168	2.509	2.345	1.427	1.549	1.340	1.253	1.105	1.109	1.023	1.006	1.038	0.903	0.873	0.757	0.813	0.810	0.669	0.762	0.764	0.645	0.695	0.622	0.638	0.678	0.619	0.636	0.608	0.528	0.597	0.736	0.670	0.634	0.492	0.479	0.857	4.072	9.801	9.946	5.215	1.389	0.415	0.388	0.386	0.382	0.436	0.422	0.382	0.339	0.396	0.369	0.369	0.354	0.402	0.373	0.386	0.404	0.409	0.376	0.407	0.392	0.462	0.390	0.408	0.415	0.364
235.0	118.8	851.5	 3555	 4711	756.4	58.05	7.355	5.618	5.097	3.335	4.280	2.597	2.323	2.022	2.032	1.615	1.433	1.507	0.940	1.033	0.922	0.996	1.146	0.930	0.791	0.902	0.866	0.826	0.860	0.717	0.852	0.821	0.683	0.524	0.672	0.593	0.571	0.513	0.643	0.502	0.603	0.611	0.645	0.769	0.664	0.606	0.651	1.305	3.077	5.517	8.355	11.08	6.827	1.930	0.486	0.379	0.414	0.325	0.411	0.400	0.409	0.299	0.343	0.410	0.356	0.400	0.371	0.519	0.337	0.400	0.450	0.374	0.416	0.329	0.455	0.437	0.426
240.0	130.0	246.3	 1065	 3697	 4353	566.0	28.25	6.071	5.193	3.782	4.184	2.989	2.677	2.126	1.969	1.463	1.539	1.332	1.070	0.925	1.097	0.791	0.847	0.871	0.934	0.899	0.784	0.863	0.851	0.665	0.696	0.766	0.712	0.725	0.512	0.543	0.529	0.542	0.597	0.535	0.568	0.637	0.497	0.608	0.617	0.716	0.678	0.671	0.953	1.616	3.498	8.939	13.48	11.20	4.970	1.181	0.569	0.377	0.373	0.395	0.423	0.334	0.378	0.403	0.410	0.440	0.372	0.433	0.427	0.422	0.410	0.296	0.401	0.425	0.424	0.448	0.399
245.0	118.4	163.2	284.0	 1276	 4353	 3579	400.4	11.49	6.077	4.792	3.539	2.820	2.838	2.477	2.250	1.760	1.381	1.426	1.203	1.185	1.117	0.990	0.766	0.953	0.694	0.887	0.752	0.775	0.888	0.641	0.765	0.574	0.628	0.602	0.610	0.471	0.486	0.557	0.711	0.508	0.515	0.620	0.542	0.566	0.509	0.746	0.791	0.872	0.615	0.660	1.105	2.776	7.037	12.56	14.07	8.475	2.803	0.634	0.319	0.352	0.468	0.392	0.313	0.409	0.422	0.330	0.425	0.364	0.375	0.414	0.415	0.366	0.416	0.348	0.415	0.390	0.385
250.0	57.95	116.8	184.6	339.7	 1433	 3335	 3666	 1169	62.27	5.970	4.426	3.283	3.023	2.673	2.073	1.687	1.595	1.421	1.291	1.177	1.017	0.992	0.897	0.859	0.848	0.775	0.704	0.833	0.807	0.705	0.742	0.653	0.579	0.601	0.559	0.532	0.483	0.512	0.544	0.651	0.595	0.606	0.546	0.517	0.536	0.522	0.596	0.720	0.800	0.755	0.747	0.984	1.995	3.902	6.936	9.676	11.80	10.32	6.097	2.201	0.501	0.317	0.352	0.518	0.369	0.378	0.331	0.408	0.397	0.446	0.440	0.350	0.368	0.379	0.473	0.419	0.441
255.0	40.86	51.64	120.2	201.1	371.7	842.6	 2975	 3977	 1310	60.69	5.820	4.589	3.234	3.003	2.690	1.392	1.574	1.329	1.328	1.266	1.062	0.927	0.812	0.961	0.956	0.903	0.726	0.890	0.843	0.812	0.721	0.600	0.579	0.641	0.490	0.579	0.682	0.582	0.486	0.476	0.579	0.464	0.549	0.449	0.567	0.538	0.442	0.547	0.531	0.674	0.815	1.056	1.096	1.270	1.935	2.545	4.121	8.251	13.92	14.66	7.642	2.160	0.486	0.474	0.332	0.444	0.431	0.443	0.383	0.397	0.482	0.367	0.402	0.422	0.471	0.440	0.369
260.0	36.48	32.56	53.95	157.4	198.0	216.9	918.5	 3123	 3310	363.0	27.33	5.339	3.746	3.367	2.502	1.899	2.005	1.625	1.152	1.347	1.004	1.163	0.701	0.873	0.938	0.845	0.810	0.890	0.821	0.953	0.752	0.638	0.651	0.691	0.509	0.564	0.550	0.578	0.505	0.559	0.505	0.479	0.605	0.437	0.491	0.509	0.600	0.540	0.551	0.448	0.561	1.015	1.203	1.056	0.855	0.922	1.277	2.410	5.648	11.64	15.23	13.18	5.548	1.178	0.372	0.405	0.457	0.394	0.360	0.452	0.461	0.386	0.346	0.446	0.429	0.442	0.468
265.0	35.76	23.63	26.33	77.69	180.8	138.4	228.1	986.8	 2907	 2715	293.4	11.95	4.895	3.664	2.973	2.361	2.200	1.649	1.465	1.258	1.114	1.184	0.951	0.914	1.019	0.848	0.964	0.988	0.778	0.817	0.805	0.699	0.631	0.661	0.619	0.547	0.540	0.468	0.618	0.596	0.447	0.530	0.548	0.454	0.522	0.513	0.562	0.469	0.372	0.395	0.381	0.615	0.947	1.142	1.012	0.841	0.691	1.009	1.653	3.589	7.793	14.39	16.02	10.31	3.113	0.602	0.412	0.462	0.422	0.450	0.449	0.413	0.383	0.420	0.383	0.398	0.425
270.0	49.82	32.99	21.99	32.50	89.11	163.4	151.2	251.5	886.8	 2125	 2541	 1078	78.01	5.559	3.254	2.702	2.168	1.845	1.473	1.374	1.199	1.156	1.075	1.035	1.019	0.878	0.746	0.943	0.861	0.811	0.841	0.721	0.635	0.564	0.694	0.637	0.635	0.590	0.633	0.504	0.524	0.590	0.487	0.590	0.606	0.568	0.545	0.470	0.404	0.420	0.320	0.527	0.572	0.677	0.934	1.335	1.162	0.952	0.816	1.130	2.148	4.399	7.015	10.75	12.46	11.05	7.421	2.839	0.708	0.440	0.446	0.395	0.414	0.388	0.406	0.440	0.349
275.0	89.52	51.07	25.83	19.92	32.29	80.16	186.7	181.5	235.4	541.1	 1442	 2973	 1563	95.18	4.157	3.268	2.590	2.055	1.730	1.424	1.482	1.174	1.135	1.145	1.033	1.162	0.891	0.923	0.848	0.746	0.843	0.813	0.586	0.709	0.889	0.845	0.718	0.750	0.753	0.718	0.530	0.617	0.676	0.773	0.655	0.655	0.652	0.462	0.441	0.347	0.415	0.561	0.469	0.530	0.601	0.689	1.045	1.470	1.489	1.066	0.960	1.276	2.065	3.004	3.964	7.307	13.26	16.01	10.03	2.939	0.594	0.472	0.426	0.419	0.440	0.500	0.453
280.0	107.9	56.31	31.09	27.38	21.43	37.72	123.0	215.7	158.6	169.2	431.8	 1792	 3033	 1204	49.73	3.827	3.136	2.089	2.175	1.682	1.266	1.302	1.183	1.041	1.256	0.872	0.875	0.837	0.827	1.011	0.789	0.931	0.662	0.834	0.944	0.979	0.915	0.844	0.774	0.708	0.654	0.703	0.700	0.661	0.596	0.813	0.687	0.568	0.443	0.402	0.343	0.575	0.523	0.441	0.495	0.526	0.668	0.984	1.577	1.672	1.061	0.745	0.900	1.297	1.326	2.252	5.087	10.68	16.57	15.16	6.890	1.279	0.367	0.397	0.394	0.457	0.434
285.0	136.8	79.26	42.46	31.79	20.72	28.18	59.61	169.3	231.6	128.5	155.8	567.9	 2001	 2858	893.4	17.55	3.349	2.663	2.491	1.759	1.593	1.528	1.355	1.270	1.288	0.984	0.873	0.745	0.967	0.750	0.745	0.859	0.747	0.902	1.125	1.128	1.113	0.897	0.902	0.874	0.758	0.729	0.857	0.955	0.694	0.792	0.681	0.563	0.507	0.429	0.396	0.551	0.431	0.512	0.565	0.534	0.601	0.578	0.996	1.410	1.646	1.553	0.981	0.846	0.856	1.097	1.745	3.301	7.099	13.14	16.29	11.97	4.195	0.700	0.458	0.478	0.545
290.0	156.6	112.9	68.80	47.19	34.73	32.32	44.06	92.36	194.7	244.2	171.2	207.5	605.1	 1569	 2308	 1226	57.76	3.800	2.812	2.238	1.807	1.546	1.505	1.325	1.068	1.064	0.965	1.022	0.848	0.803	0.725	0.946	0.771	0.931	1.022	1.309	1.139	1.054	1.146	0.884	0.917	0.875	0.958	0.883	0.726	0.922	0.769	0.713	0.606	0.531	0.514	0.563	0.571	0.550	0.489	0.472	0.605	0.634	0.677	0.908	1.124	1.503	1.627	1.615	1.270	0.984	1.051	1.391	2.208	4.027	6.641	9.947	12.48	12.11	8.123	3.406	0.665
295.0	195.4	151.9	102.6	83.85	57.87	40.87	47.93	70.30	117.2	230.8	320.9	207.4	225.3	430.8	972.4	 2318	 1107	71.69	3.614	2.922	2.216	1.770	1.673	1.213	1.101	1.009	0.978	1.034	0.807	0.876	0.904	0.803	0.769	0.787	1.138	1.133	1.200	1.152	1.008	0.913	0.939	0.969	0.940	1.010	0.757	0.956	0.734	0.802	0.879	0.703	0.534	0.644	0.617	0.552	0.619	0.576	0.641	0.621	0.563	0.815	0.797	0.945	1.143	1.808	2.078	1.819	1.334	1.069	1.337	1.585	2.203	2.717	3.931	6.594	13.13	18.23	11.08
300.0	250.1	172.4	128.4	112.5	74.60	54.71	56.20	69.50	99.52	177.3	324.5	316.6	181.5	184.1	303.4	 1151	 2681	935.3	40.71	3.448	2.571	1.805	1.744	1.328	1.386	1.138	1.127	0.980	1.084	0.898	0.847	0.874	0.779	1.011	1.115	1.210	1.156	1.256	1.005	1.068	1.057	0.838	1.001	0.803	0.825	0.885	0.952	0.910	0.809	0.834	0.643	0.714	0.679	0.617	0.633	0.633	0.585	0.732	0.598	0.743	0.746	0.790	0.963	1.430	1.681	2.174	2.213	1.381	1.124	1.179	1.207	1.207	1.390	2.159	4.836	10.57	17.30
305.0	232.6	182.8	160.5	121.0	87.55	60.68	60.10	76.95	100.5	152.9	258.0	391.7	268.9	151.2	144.7	356.1	 1466	 2869	723.5	15.67	3.158	2.017	1.862	1.440	1.392	1.110	1.205	1.160	1.166	0.963	0.876	0.958	0.898	0.940	1.087	1.267	1.117	1.284	0.990	1.076	1.053	1.058	0.934	0.813	0.786	0.828	0.808	1.038	0.826	0.761	0.781	0.813	0.767	0.677	0.579	0.588	0.622	0.743	0.750	0.759	0.740	0.864	1.039	1.109	1.093	1.761	2.262	2.209	1.853	1.181	1.366	0.937	1.049	1.045	1.651	3.221	6.830
310.0	211.3	191.5	164.1	137.1	93.38	66.97	71.13	83.00	108.9	142.7	197.9	294.4	365.8	260.6	128.0	128.9	413.2	 1346	 2372	 1300	42.68	3.187	2.293	1.998	1.766	1.232	1.425	1.164	1.128	1.056	1.025	0.985	0.952	0.924	0.930	1.288	1.171	1.212	0.999	1.057	0.984	0.984	0.785	0.847	0.838	0.925	0.902	1.005	0.808	0.777	0.742	0.824	0.845	0.716	0.672	0.624	0.611	0.679	0.755	0.874	0.797	0.872	1.105	1.010	1.191	1.384	1.615	1.753	2.217	2.135	1.793	1.251	1.002	0.825	0.898	1.286	2.021
315.0	202.9	208.7	164.2	129.3	93.88	69.21	78.74	89.62	108.6	141.2	184.9	226.2	284.3	362.8	202.1	91.63	129.3	333.2	835.3	 2350	 2062	54.24	3.525	2.589	2.063	1.539	1.353	1.280	1.266	1.016	1.015	1.034	0.829	0.922	1.148	1.074	1.231	1.159	1.069	1.021	0.905	0.948	0.831	0.910	0.887	0.868	0.884	0.963	0.910	0.724	0.683	0.787	0.888	0.766	0.673	0.684	0.814	0.816	0.879	0.885	0.888	0.864	1.093	1.154	1.221	1.296	1.390	1.392	1.525	1.788	2.211	1.946	1.445	0.847	0.690	0.839	0.917
320.0	206.9	199.3	172.8	130.4	98.69	73.52	82.57	97.06	116.4	145.7	184.8	207.5	235.8	302.2	322.4	131.6	71.26	102.4	221.0	995.1	 3035	703.4	31.98	3.135	2.552	1.908	1.774	1.394	1.173	1.234	1.060	0.920	0.944	1.065	0.913	1.056	1.145	1.131	1.183	0.981	0.885	0.875	0.815	0.858	0.944	0.911	0.804	1.059	0.925	0.762	0.675	0.754	0.852	0.766	0.767	0.746	0.782	0.794	0.779	0.854	0.904	0.825	0.989	1.146	1.139	1.032	1.133	1.372	1.353	1.282	1.560	1.916	2.169	1.542	0.882	0.730	0.762
325.0	207.9	211.0	179.9	135.9	97.48	77.11	83.49	98.86	118.9	150.8	177.9	207.6	224.3	233.6	304.7	233.5	78.29	56.24	71.34	272.7	 1439	 2934	566.1	12.60	2.801	2.173	1.700	1.480	1.332	1.241	1.175	1.003	1.077	0.947	1.025	0.991	1.310	1.061	1.014	0.947	0.990	0.901	0.768	0.915	0.881	0.872	0.830	1.053	0.941	0.878	0.617	0.814	0.861	0.709	0.777	0.747	0.755	0.730	0.810	0.862	0.930	1.025	0.942	1.042	1.026	1.092	1.307	1.243	1.211	1.350	1.252	1.391	1.915	1.965	1.570	0.971	0.758
330.0	205.3	215.1	193.9	149.2	102.0	84.66	88.73	102.8	122.5	154.8	184.5	214.6	222.4	210.1	217.0	249.7	183.4	71.61	46.19	81.95	374.7	 1323	 2350	 1257	34.76	3.020	2.218	1.794	1.448	1.401	1.340	1.179	1.073	1.028	0.962	1.033	1.079	1.014	1.108	0.961	0.875	0.875	0.866	0.770	0.878	0.914	0.852	0.922	0.956	0.886	0.737	0.813	0.798	0.805	0.807	0.843	0.758	0.770	0.889	0.963	0.943	1.059	1.013	1.048	1.186	1.206	1.288	1.292	1.309	1.325	1.239	1.322	1.383	1.479	1.573	1.730	1.473
335.0	226.3	223.3	200.8	153.4	111.7	94.81	98.48	111.1	132.6	160.0	189.8	219.3	223.0	212.7	189.1	173.6	229.8	176.1	57.97	49.25	107.3	318.1	784.6	 2544	 1916	45.47	3.252	2.196	1.994	1.623	1.414	1.432	1.127	0.970	1.005	1.012	1.060	0.963	0.942	0.938	0.795	0.823	0.913	0.850	0.974	0.986	0.874	1.069	0.996	0.865	0.752	0.816	0.920	0.713	0.779	0.757	0.769	0.879	0.938	0.816	0.944	1.069	1.089	1.114	1.104	1.334	1.404	1.393	1.403	1.557	1.303	1.306	1.091	1.277	1.285	1.290	1.453
340.0	239.3	223.0	204.9	160.1	121.1	103.4	106.4	120.9	140.2	167.4	192.4	222.6	229.7	213.4	186.5	149.9	170.9	238.6	109.4	50.12	53.70	96.40	204.4	 1046	 3145	587.7	26.57	2.481	2.091	1.839	1.683	1.315	1.129	0.934	1.139	1.059	1.045	0.930	0.998	0.985	0.919	0.950	0.859	0.819	1.012	0.834	0.915	0.930	1.066	0.868	0.771	0.816	0.826	0.792	0.920	0.906	0.854	0.861	1.085	0.815	1.041	1.073	1.232	1.188	1.149	1.340	1.255	1.272	1.333	1.373	1.174	1.133	1.189	1.209	1.074	1.090	1.204
345.0	239.6	231.0	202.3	160.1	128.8	115.0	110.8	124.6	143.5	165.3	196.7	224.5	231.6	216.0	187.1	146.6	133.1	197.8	206.4	77.00	48.94	52.40	68.50	281.9	 1571	 2921	466.1	10.12	2.600	1.921	1.783	1.415	1.106	0.952	1.185	1.061	1.155	0.999	0.931	0.792	0.841	0.931	0.878	0.751	0.987	0.977	0.910	1.070	0.959	0.828	0.806	0.862	1.007	0.855	0.850	0.922	0.856	1.038	1.064	0.892	0.901	1.162	1.153	1.260	1.138	1.238	1.294	1.306	1.346	1.347	1.157	1.136	1.229	1.124	1.019	0.941	1.096
350.0	230.8	217.9	195.4	171.2	133.7	119.4	119.3	126.0	145.1	167.8	192.5	216.8	228.3	220.5	190.6	153.6	125.7	134.7	191.9	161.3	75.58	50.36	45.96	87.29	401.4	 1386	 2279	 1125	30.42	3.026	2.011	1.623	1.377	1.142	1.141	1.076	1.091	0.976	1.000	0.910	0.873	0.859	0.860	0.819	0.912	1.033	0.959	0.935	0.917	0.912	0.758	0.893	1.009	0.793	0.846	0.897	0.867	0.913	0.929	0.838	0.988	1.056	1.283	1.243	1.157	1.196	1.250	1.227	1.311	1.297	1.259	1.228	1.216	1.152	1.116	1.024	1.135
355.0	213.6	208.6	189.5	168.4	143.9	126.1	129.0	135.8	148.7	172.8	194.6	218.4	226.9	216.2	194.4	158.6	136.0	120.0	129.6	180.8	175.5	73.76	50.50	51.85	114.4	328.9	767.4	 2447	 1648	41.73	2.927	2.281	1.701	1.322	1.493	1.131	0.966	1.040	0.791	1.078	0.898	0.829	0.890	0.815	0.927	0.928	0.921	1.002	0.962	0.800	0.728	0.932	0.963	0.947	0.840	0.991	0.804	0.812	0.958	0.891	1.022	1.042	1.201	1.305	1.237	1.275	1.314	1.322	1.347	1.194	1.206	1.220	1.284	1.153	1.094	1.105	1.201
360.0	212.1	215.1	182.6	164.0	148.3	128.2	139.6	147.0	154.7	171.8	197.9	216.2	223.1	215.1	197.5	165.6	139.2	123.3	116.4	135.1	210.9	106.6	62.64	49.77	55.13	95.12	194.8	 1029	 2894	535.2	23.79	2.696	2.214	1.577	1.406	1.144	1.009	1.077	0.827	0.972	0.873	0.724	0.856	0.878	0.917	0.932	0.971	1.078	0.917	0.895	0.713	0.860	0.977	0.959	0.920	1.070	0.987	0.998	0.998	0.915	0.978	1.181	1.055	1.249	1.196	1.185	1.178	1.350	1.352	1.184	1.428	1.209	1.416	1.150	1.231	1.038	1.018
365.0	205.0	208.7	183.8	165.1	155.0	140.1	141.8	146.7	157.7	180.6	198.8	216.3	221.9	214.9	197.0	168.4	145.8	131.1	120.3	118.8	170.3	193.0	91.02	55.50	47.47	48.15	63.09	267.1	 1528	 2719	421.5	9.412	2.354	1.679	1.413	1.105	1.073	0.927	0.869	0.977	0.792	0.821	0.876	0.869	0.860	0.879	1.011	1.145	0.866	0.796	0.802	0.918	0.930	0.874	1.110	1.087	0.956	0.958	0.892	0.926	1.054	1.090	1.051	1.319	1.257	1.158	1.145	1.377	1.452	1.247	1.543	1.272	1.261	1.231	1.202	1.191	1.125
370.0	203.7	212.2	184.0	170.8	153.7	148.6	146.9	152.0	164.7	179.6	194.3	214.6	221.9	216.8	198.0	171.7	152.7	140.8	130.2	122.2	131.4	173.6	173.3	83.24	57.88	47.76	41.35	80.36	387.3	 1373	 2263	 1003	26.45	2.433	1.665	1.415	1.238	1.049	1.113	0.952	0.963	0.905	0.867	0.854	0.892	0.850	0.981	0.952	0.937	0.794	0.751	0.869	0.957	0.922	0.935	0.959	1.107	0.909	1.022	1.034	1.043	1.121	1.046	1.171	1.223	1.203	1.192	1.242	1.469	1.280	1.342	1.370	1.269	1.185	1.213	1.179	1.172
375.0	188.4	203.7	189.9	165.5	156.7	158.8	158.5	159.3	164.0	182.5	197.2	211.2	221.8	212.1	198.6	175.8	157.7	149.0	141.8	132.0	127.0	132.5	169.5	174.1	84.47	58.06	46.87	46.21	107.1	325.5	807.7	 2368	 1457	34.33	2.383	1.707	1.422	1.097	1.165	0.978	1.070	0.784	0.850	0.897	0.812	0.902	0.861	0.925	0.946	0.797	0.810	0.964	1.037	1.003	0.970	0.902	1.040	0.911	1.129	1.063	1.058	1.242	1.059	1.247	1.330	1.286	1.182	1.289	1.258	1.249	1.338	1.295	1.201	1.314	1.095	1.134	1.181
380.0	185.2	205.6	187.0	169.6	159.4	158.4	167.2	166.3	175.7	180.8	200.4	204.6	218.1	205.1	192.8	176.2	157.5	151.2	145.3	139.6	130.9	125.3	134.8	192.7	141.9	70.82	53.07	45.78	49.76	92.41	202.9	 1036	 2691	442.1	18.92	2.137	1.627	1.442	1.138	0.945	1.071	0.854	1.080	0.854	0.900	0.992	0.981	0.927	1.021	0.790	0.798	0.916	0.989	0.970	1.031	1.039	1.003	1.042	1.112	1.143	1.169	1.196	1.068	1.178	1.245	1.255	1.308	1.165	1.116	1.265	1.301	1.402	1.344	1.198	1.135	1.326	1.166
385.0	182.8	200.2	171.7	178.8	161.5	165.3	167.6	168.8	176.6	184.5	192.8	206.7	210.7	205.4	193.0	174.9	164.6	154.8	151.1	143.3	137.2	128.0	123.6	156.8	184.6	89.52	61.65	48.58	41.23	44.26	62.31	266.7	 1483	 2274	328.6	6.289	1.787	1.604	1.196	1.025	1.019	1.055	1.139	0.845	0.924	0.861	0.953	0.952	1.061	0.789	0.827	0.954	0.909	1.106	1.108	1.003	1.060	1.243	1.046	1.038	1.078	1.268	1.146	1.092	1.320	1.193	1.137	1.301	1.335	1.298	1.248	1.406	1.283	1.202	1.114	1.091	1.246
390.0	188.0	195.6	177.7	175.3	169.9	165.4	168.0	169.9	173.3	183.4	191.9	203.6	207.7	206.4	189.6	173.0	162.9	155.7	152.2	147.7	141.4	132.6	126.3	128.3	159.1	155.7	96.28	60.11	46.70	39.60	35.52	74.18	371.7	 1176	 1752	761.5	21.17	2.042	1.507	1.171	1.050	1.115	1.096	0.885	0.906	0.864	0.888	0.927	1.040	0.814	0.746	0.965	0.890	1.033	1.136	1.095	1.049	1.063	1.162	1.080	1.146	1.178	1.226	1.179	1.254	1.174	1.215	1.191	1.288	1.214	1.198	1.272	1.277	1.216	1.182	1.151	1.258
395.0	183.2	194.4	181.6	175.8	166.8	171.0	174.9	176.9	173.2	185.4	191.8	200.6	205.2	198.4	186.7	170.9	163.1	156.7	156.0	148.5	144.2	138.6	130.7	123.5	123.6	148.6	153.8	82.50	58.49	45.48	34.28	35.52	95.85	273.5	636.8	 1873	 1109	28.08	2.149	1.404	1.219	1.246	1.052	0.926	0.961	0.821	0.886	0.888	0.935	0.873	0.791	0.957	0.896	1.057	1.139	1.130	1.119	1.172	1.135	1.213	1.111	1.141	1.265	1.234	1.193	1.072	1.242	1.111	1.295	1.298	1.316	1.299	1.276	1.162	1.169	1.094	1.175
400.0	172.5	188.3	177.3	174.1	174.1	165.7	171.7	172.6	181.1	183.5	195.5	198.8	197.9	192.7	181.8	171.0	157.0	156.8	155.1	148.8	143.7	139.8	132.0	125.7	119.2	120.3	158.0	129.0	68.93	50.61	39.16	31.45	38.45	72.44	156.8	835.4	 2034	369.0	16.17	1.756	1.042	1.369	1.160	0.944	1.018	0.965	0.785	0.891	0.848	0.817	0.833	0.955	1.019	1.058	1.035	1.222	1.058	1.109	1.042	1.205	1.179	1.139	1.164	1.253	1.131	1.174	1.053	1.166	1.177	1.198	1.197	1.139	1.214	1.205	1.194	1.194	1.320
405.0	157.8	182.2	183.4	171.9	169.4	174.4	178.7	174.5	182.9	185.3	193.9	193.7	195.8	190.6	177.7	165.7	157.7	153.0	151.3	147.7	144.2	140.0	133.2	127.8	118.3	111.7	127.6	154.0	96.96	58.18	43.03	32.30	27.27	29.59	45.53	211.7	 1102	 1776	282.8	6.391	1.658	1.362	1.192	1.015	0.937	0.961	0.851	0.840	0.896	0.926	0.830	1.040	0.920	1.189	1.072	0.991	1.055	1.135	1.215	1.282	1.159	1.040	1.196	1.277	1.103	1.204	1.163	1.171	1.236	1.071	1.248	1.111	1.301	1.132	1.263	1.223	1.203
410.0	163.9	175.0	171.9	174.3	170.6	170.1	175.1	177.3	181.4	185.0	190.5	194.8	187.8	185.1	173.1	162.2	152.4	149.0	147.9	143.8	141.9	136.8	131.9	127.6	119.6	111.3	108.1	126.9	135.4	85.38	52.11	38.04	28.99	24.36	22.57	56.67	272.9	914.7	 1392	599.4	19.38	1.781	1.325	1.157	0.991	1.021	0.904	0.871	0.870	0.859	0.819	0.981	0.997	1.069	1.012	1.030	1.092	1.155	1.227	1.233	1.220	1.215	1.190	1.242	1.244	1.058	1.192	1.102	1.147	1.034	1.259	1.110	1.226	1.017	1.262	1.212	1.212
415.0	150.2	172.1	172.4	170.1	166.4	171.7	176.7	176.7	179.5	181.2	192.1	190.1	182.6	176.3	164.1	150.7	144.6	142.0	142.5	138.1	138.8	133.4	130.3	126.4	120.8	111.2	104.9	101.7	119.3	126.4	72.54	45.76	33.84	26.62	20.53	24.63	69.70	212.6	507.8	 1421	358.2	24.95	1.462	1.344	1.141	1.057	0.967	0.847	0.807	0.832	0.776	0.997	1.074	1.142	1.038	1.088	1.117	1.106	1.163	1.248	1.212	1.258	1.225	1.105	1.138	1.200	1.173	1.112	1.132	1.104	1.078	1.142	1.193	1.130	1.226	1.182	1.210
420.0	154.5	162.0	160.5	163.5	166.2	173.4	168.4	180.6	179.2	183.9	186.9	188.0	180.7	176.3	156.9	146.4	139.6	138.5	135.2	132.5	131.1	129.8	126.8	126.0	118.8	109.4	103.5	96.95	98.60	124.2	106.2	54.94	37.74	28.74	22.67	19.17	26.35	55.50	124.0	615.8	 1591	330.2	14.76	1.560	1.281	1.183	1.028	0.870	0.920	0.870	0.837	1.026	1.120	1.169	1.025	0.988	1.029	1.039	1.103	1.246	1.291	1.241	1.094	1.157	1.252	1.023	1.130	1.240	1.048	1.147	1.015	1.086	1.217	1.116	1.088	1.156	1.100
425.0	145.2	167.7	154.6	162.5	166.4	177.7	170.8	182.4	185.5	189.6	189.3	182.3	176.4	171.1	152.1	140.3	136.5	133.9	132.4	131.0	129.2	126.9	122.3	123.0	117.4	109.4	103.3	96.17	91.18	102.1	121.8	74.79	43.14	31.87	25.33	20.81	18.37	21.56	35.35	153.8	901.3	 1369	255.2	4.926	1.622	1.517	1.354	0.893	0.913	0.845	0.861	1.112	0.958	1.137	1.102	1.096	1.099	0.935	1.164	1.091	1.207	1.151	1.160	1.206	1.165	0.950	1.141	1.175	1.183	1.189	1.071	1.123	1.050	1.133	1.095	1.191	1.059
430.0	223.7	165.5	152.5	155.3	163.0	174.5	176.7	181.7	187.9	185.0	184.4	181.6	173.0	164.4	148.0	137.1	133.3	130.4	126.7	125.1	124.5	122.4	120.3	118.3	115.0	109.8	102.8	95.82	90.82	87.16	98.94	101.4	61.40	38.80	29.03	23.58	18.86	16.83	16.80	41.68	224.8	705.1	 1078	479.7	16.61	1.690	1.304	1.003	1.003	0.882	0.873	0.966	0.969	1.050	1.159	1.101	1.162	1.088	1.156	1.143	1.197	1.212	1.185	1.237	1.251	0.980	1.018	1.160	1.189	1.103	1.162	1.166	1.008	1.107	1.102	1.104	1.054
435.0	802.7	150.6	150.9	159.3	162.4	164.0	175.8	184.3	189.1	187.8	185.4	184.9	172.6	158.1	144.8	132.2	124.7	123.2	122.0	120.0	116.8	116.7	114.3	113.3	111.3	106.3	101.4	96.82	90.15	84.43	80.62	89.26	90.78	56.54	35.02	27.33	22.27	18.06	15.24	18.26	57.42	164.1	390.0	 1184	329.3	22.03	1.872	1.276	1.074	0.875	0.822	0.958	1.016	1.057	1.112	1.083	1.289	1.142	1.159	1.373	1.247	1.242	1.255	1.141	1.182	1.073	1.091	1.115	1.181	1.113	1.010	1.060	1.200	1.009	1.074	0.963	0.921
440.0	 1851	210.2	157.2	158.1	167.3	175.6	174.5	184.7	187.1	185.9	180.8	182.9	167.8	156.7	142.1	130.3	119.8	120.9	117.7	115.4	114.1	112.3	109.8	108.1	108.3	105.0	99.45	95.95	90.30	82.69	75.15	74.88	90.18	77.07	42.33	29.84	23.90	19.94	16.88	14.92	21.53	43.84	96.42	554.4	 1262	285.7	9.367	1.553	1.127	1.064	1.005	0.921	1.068	1.055	1.074	1.159	1.351	1.171	1.183	1.240	1.219	1.263	1.188	1.183	1.129	1.063	1.008	1.104	1.055	1.214	1.195	1.094	1.085	0.880	0.978	0.985	0.991
445.0	 2960	580.2	147.9	152.5	164.3	166.5	174.7	183.7	185.8	185.8	183.6	178.1	162.0	153.2	139.4	125.2	119.9	113.4	112.4	108.6	108.2	109.5	107.1	105.7	105.4	103.3	97.93	94.65	89.79	83.83	74.45	68.62	75.15	86.26	56.58	34.17	26.96	21.90	18.94	15.85	15.26	17.98	28.80	142.7	775.6	 1195	186.2	4.078	1.388	1.185	1.032	1.045	1.105	1.051	1.065	1.133	1.256	1.129	1.182	1.255	1.138	1.237	1.177	1.176	1.092	1.189	0.916	0.978	1.114	1.163	1.054	0.918	1.068	0.792	1.017	0.961	1.030
450.0	 2809	 2101	232.9	145.8	154.6	161.6	171.7	179.6	180.8	182.2	178.4	174.6	160.7	145.5	132.1	119.0	112.6	108.4	106.5	103.8	101.8	100.7	99.10	97.11	99.18	97.13	92.49	90.49	86.84	82.32	74.25	67.04	62.49	70.49	71.82	47.94	31.26	24.72	21.34	18.41	16.02	14.37	15.09	39.00	196.3	657.0	992.7	419.8	13.22	1.425	1.146	1.140	1.161	1.060	1.117	1.095	1.119	1.068	1.153	1.190	1.207	1.254	1.194	1.131	1.179	1.134	1.070	1.063	1.075	0.952	0.968	0.939	0.978	0.865	1.002	0.941	1.019
455.0	 1148	 3403	879.5	144.3	150.0	157.3	162.3	181.0	180.3	177.6	177.1	164.2	151.5	139.4	124.1	111.3	106.9	101.8	93.98	96.30	94.37	94.62	92.07	89.26	90.53	89.76	89.23	84.24	81.95	77.85	72.42	66.10	58.13	55.94	61.07	64.00	42.45	28.16	23.96	20.73	17.99	15.93	13.74	17.22	51.24	153.5	367.6	 1033	271.4	15.74	1.509	1.133	1.183	0.989	1.079	1.126	1.227	1.145	1.289	1.119	1.303	1.193	1.324	1.146	1.065	1.176	1.089	1.080	1.011	1.011	1.232	0.913	0.852	0.896	0.870	0.900	0.927
460.0	402.3	 2875	 1852	215.3	144.3	150.2	154.9	173.5	175.6	176.5	167.7	159.8	147.3	131.5	117.9	107.8	99.69	96.09	91.41	89.18	86.78	86.58	87.72	85.65	85.48	84.80	84.10	81.33	77.86	75.01	70.19	64.98	58.37	51.45	50.40	61.18	54.33	32.92	25.88	22.10	19.79	17.28	14.83	13.54	19.28	40.64	90.17	471.1	 1038	213.5	8.518	1.396	1.340	1.112	1.162	1.168	1.295	1.251	1.047	1.163	1.296	0.980	1.211	0.959	1.124	1.182	1.045	1.004	0.941	0.989	0.978	0.842	0.964	0.886	0.841	0.779	0.841
465.0	186.8	 1578	 2714	604.9	141.5	143.5	153.8	163.5	166.4	165.4	160.6	152.0	142.1	122.9	112.7	101.7	93.48	89.53	86.42	84.92	81.95	81.78	80.43	81.18	79.37	79.46	78.87	77.87	74.64	72.82	68.10	62.57	56.05	49.94	45.64	49.76	59.55	42.33	27.39	23.26	20.50	17.95	15.77	13.18	12.38	16.07	25.45	119.0	635.3	931.7	154.1	3.536	1.385	1.176	1.148	1.184	1.290	1.091	1.155	1.253	1.145	1.203	0.998	1.040	1.225	1.068	1.045	0.934	0.982	1.024	0.952	0.911	0.999	0.871	0.857	0.766	0.830
470.0	144.2	517.5	 2081	 1643	257.4	133.0	144.3	146.7	152.6	152.5	150.1	143.1	128.0	117.1	102.7	94.54	86.54	83.61	79.72	76.36	75.62	74.71	73.36	72.86	72.25	71.48	72.03	70.67	68.26	66.88	63.66	58.32	53.48	46.34	42.33	40.92	46.20	48.93	35.37	24.77	21.28	18.57	15.97	13.60	11.84	10.78	11.34	31.16	159.6	507.6	718.8	329.2	12.88	1.475	1.285	1.235	1.207	1.138	1.124	1.055	1.135	1.143	0.974	1.034	1.043	1.067	0.904	0.968	0.896	0.920	0.904	0.846	0.942	0.847	0.899	0.891	0.915
475.0	138.2	196.0	754.4	 2426	797.0	131.7	132.2	140.1	145.5	137.8	140.6	133.2	121.4	111.6	97.72	86.64	80.57	75.45	72.79	67.65	67.12	65.92	64.45	65.97	65.48	64.64	65.19	63.67	61.93	61.60	59.51	55.06	48.52	44.18	39.42	37.00	36.68	40.93	43.72	31.23	22.23	18.90	16.38	14.25	12.03	10.29	8.287	11.94	39.32	116.7	247.9	727.8	257.1	15.36	1.433	1.256	1.149	1.087	1.166	1.141	1.185	1.211	0.997	1.010	1.004	1.121	0.876	0.982	0.830	0.923	0.815	0.723	0.796	0.797	0.758	0.747	0.833
480.0	139.2	129.8	264.1	 1767	 1882	192.6	126.1	129.0	140.7	139.8	130.2	125.8	114.0	107.3	90.80	79.05	74.99	70.94	67.83	63.37	62.84	60.85	58.72	59.61	61.46	60.17	60.04	59.45	57.81	58.07	56.10	51.33	47.43	42.05	38.07	35.38	32.48	33.25	41.40	37.72	24.89	18.79	16.71	14.31	12.50	10.62	8.096	7.698	12.73	29.21	59.46	311.2	747.2	217.0	7.735	1.242	1.095	1.185	1.204	1.178	1.193	1.040	0.946	0.832	0.991	0.981	0.873	0.961	0.861	0.893	0.736	0.689	0.758	0.770	0.808	0.740	0.750
485.0	127.0	118.5	130.4	845.0	 2429	516.8	121.6	127.8	131.8	127.7	121.6	121.9	110.1	99.50	84.12	75.22	71.07	65.34	63.35	59.98	59.45	58.11	57.25	57.31	56.38	56.04	56.31	55.32	54.92	54.95	52.21	48.55	44.62	40.59	36.46	34.59	31.74	29.35	33.74	39.19	29.98	20.48	16.49	14.03	12.32	10.44	8.315	7.051	7.278	9.912	16.06	76.64	431.6	727.9	36.57	3.105	1.155	1.167	1.109	1.133	1.017	1.053	0.967	0.840	0.989	0.886	1.004	1.045	0.890	0.827	0.819	0.787	0.740	0.685	0.781	0.679	0.862
490.0	108.9	126.9	99.22	283.3	 1563	 1346	195.7	113.9	116.4	117.3	114.3	110.9	101.0	92.29	79.75	70.97	64.79	60.28	56.91	54.81	54.27	51.99	52.25	51.42	51.49	51.05	50.06	49.78	51.28	50.33	49.11	45.03	41.28	38.05	34.73	32.61	29.36	27.15	26.88	31.38	34.11	24.69	17.05	14.33	12.33	10.50	8.663	7.468	6.285	5.883	6.766	19.84	106.2	358.8	561.8	155.0	13.19	1.454	1.121	0.977	0.964	0.948	1.037	0.933	1.051	0.863	1.000	0.911	0.843	0.737	0.812	0.783	0.675	0.660	0.715	0.745	0.775
495.0	86.48	128.0	102.7	127.1	531.0	 1575	549.5	105.9	103.4	104.8	102.3	100.2	90.01	83.24	71.06	63.48	59.09	55.97	50.53	49.39	48.44	46.19	46.15	46.16	45.53	45.39	43.94	44.57	44.82	43.66	44.16	40.43	37.69	35.06	32.20	29.73	26.84	25.99	23.61	24.20	28.05	29.35	20.59	14.31	12.46	10.59	8.671	7.625	6.110	5.151	4.756	6.989	26.03	82.50	209.9	630.8	268.2	15.44	1.344	1.187	1.007	0.909	1.043	1.010	0.950	0.894	0.853	0.951	0.744	0.724	0.823	0.690	0.743	0.637	0.674	0.742	0.822
500.0	72.97	109.7	113.8	86.31	194.0	997.5	 1099	158.3	98.82	100.4	96.68	92.78	82.50	77.55	66.95	57.10	54.69	49.83	47.71	44.99	43.52	42.02	42.52	42.30	41.35	40.51	40.55	40.64	41.10	41.51	40.11	37.17	35.11	32.74	30.58	27.13	25.49	24.63	21.61	21.67	22.52	27.17	24.32	15.64	12.03	10.23	8.370	7.573	6.269	4.997	4.061	4.388	8.203	20.54	50.28	277.1	695.7	218.4	6.450	1.249	1.126	0.867	0.912	0.898	0.891	0.833	0.828	0.719	0.811	0.714	0.719	0.811	0.705	0.734	0.872	0.788	0.786
505.0	77.17	85.35	116.3	85.18	104.4	449.4	 1304	373.1	93.89	91.33	90.04	87.86	77.68	72.81	62.83	53.76	51.24	45.65	44.10	40.27	39.51	38.59	38.76	37.81	37.53	36.76	37.46	36.60	37.07	38.01	37.26	34.77	32.18	30.11	27.40	25.77	23.23	22.36	20.78	19.66	18.58	21.55	24.93	17.90	12.13	9.991	8.162	7.642	6.149	5.342	4.286	3.738	4.078	6.753	13.23	68.00	386.5	652.3	38.42	2.718	1.107	0.927	1.014	0.887	0.939	0.810	0.825	0.716	0.843	0.780	0.720	0.724	0.753	0.671	0.807	0.594	0.616
510.0	61.40	61.85	98.46	89.39	79.43	163.5	808.8	884.6	164.6	82.42	81.54	78.28	70.35	64.22	54.13	48.43	43.58	40.67	38.37	36.92	34.41	34.03	33.15	32.52	32.68	32.36	33.41	32.76	33.06	33.02	32.45	30.54	28.43	26.98	25.06	22.92	21.24	19.94	18.58	17.68	16.45	16.55	19.53	20.21	14.91	9.980	8.080	6.860	6.127	5.150	4.558	3.907	3.481	3.790	4.877	16.87	94.11	318.0	472.7	161.1	12.33	1.146	0.989	0.784	0.821	0.823	0.735	0.684	0.849	0.742	0.721	0.652	0.736	0.610	0.673	0.664	0.741
515.0	61.27	53.77	70.74	92.29	75.74	83.51	276.2	918.6	427.9	78.90	73.51	70.91	61.31	57.10	47.93	41.76	37.79	36.15	33.35	32.32	29.99	30.12	29.77	28.38	27.65	29.07	28.15	28.93	28.61	28.23	28.01	26.35	24.66	23.47	21.52	20.56	18.72	17.37	16.50	15.94	14.45	13.89	13.74	16.31	17.84	11.78	7.967	6.478	5.884	5.087	4.314	3.986	3.432	3.031	2.875	5.425	22.47	72.56	162.4	481.9	248.0	12.52	0.844	0.780	0.784	0.809	0.788	0.691	0.717	0.707	0.681	0.728	0.710	0.591	0.598	0.583	0.649
520.0	60.43	51.36	55.57	94.13	74.06	63.64	109.3	574.3	839.9	134.9	63.59	63.63	56.23	51.09	43.45	37.40	36.69	32.77	29.93	29.81	27.78	26.78	26.20	25.40	25.72	26.13	25.56	25.29	25.36	24.83	24.80	23.49	22.25	21.05	19.02	18.26	16.62	16.07	15.25	14.08	12.86	12.61	11.23	12.46	16.23	14.44	8.949	6.181	5.501	4.748	4.036	3.693	3.716	2.775	2.533	2.970	6.492	17.57	38.67	210.7	517.9	175.1	4.371	0.910	0.733	0.713	0.856	0.657	0.675	0.648	0.697	0.675	0.637	0.611	0.707	0.641	0.635
525.0	52.63	49.37	51.10	70.21	87.00	53.90	65.19	252.1	906.0	333.4	62.11	55.52	55.43	45.15	39.61	37.04	32.55	28.56	27.56	26.51	24.51	24.33	23.39	22.36	23.53	23.52	23.35	22.49	23.14	22.58	23.15	21.28	20.86	19.12	17.59	16.50	15.87	15.09	13.79	13.03	11.99	11.23	10.65	10.19	12.81	14.85	10.36	6.574	5.513	4.683	3.917	3.513	3.252	2.920	2.365	2.354	2.950	5.457	10.17	51.58	277.5	469.0	36.13	1.944	0.873	0.594	0.762	0.623	0.683	0.674	0.657	0.680	0.603	0.548	0.669	0.581	0.778
530.0	51.49	46.69	42.12	51.29	75.99	59.09	52.25	98.21	506.6	711.0	151.1	50.76	47.18	40.54	35.45	31.07	28.72	25.97	24.05	23.22	22.20	21.27	20.41	20.60	20.68	19.99	20.25	19.77	20.28	19.24	19.68	18.28	18.39	16.69	15.38	14.55	13.79	12.76	12.22	11.79	11.15	9.995	9.504	8.972	9.196	11.34	11.99	8.228	5.540	4.392	3.762	3.423	2.945	2.875	2.445	2.126	2.223	2.705	3.575	12.78	67.43	229.1	298.7	143.3	9.704	0.812	0.666	0.618	0.717	0.686	0.620	0.626	0.595	0.603	0.587	0.496	0.637
535.0	41.58	41.81	39.74	40.87	58.20	68.93	46.82	56.81	168.9	647.9	475.2	54.06	40.86	34.99	30.85	29.33	25.06	23.05	20.79	20.03	19.16	18.00	18.52	18.23	17.42	17.90	17.56	17.09	16.99	16.78	16.68	16.21	15.62	14.17	13.04	12.77	11.68	11.16	10.91	10.28	9.414	8.661	8.094	7.410	7.267	7.996	10.16	10.01	6.662	4.301	3.687	3.442	2.753	2.682	2.480	2.321	2.009	2.031	2.026	4.141	16.17	52.23	108.0	347.6	203.0	9.009	0.716	0.642	0.619	0.664	0.691	0.548	0.594	0.560	0.539	0.532	0.557
540.0	44.05	45.59	35.72	34.76	42.90	66.16	52.63	43.92	71.48	372.9	710.5	129.9	36.42	31.42	28.39	25.17	21.45	20.90	18.92	17.25	16.84	16.29	15.88	15.75	14.91	15.99	14.50	15.53	15.65	15.40	15.05	14.35	14.33	13.30	11.67	11.47	11.12	10.22	9.297	9.320	8.485	8.273	7.691	6.745	6.593	6.617	7.322	9.329	7.978	4.762	3.399	3.175	2.667	2.479	2.199	2.253	1.959	1.856	1.739	2.119	4.632	12.74	25.88	151.6	373.8	40.01	3.404	0.689	0.610	0.798	0.577	0.567	0.566	0.495	0.482	0.553	0.675
545.0	48.33	39.38	32.38	31.40	34.06	55.65	60.28	41.37	44.81	158.1	652.9	292.3	34.47	30.12	25.99	23.35	19.96	19.38	17.90	15.25	15.65	15.10	14.48	13.74	13.27	14.12	13.28	13.71	13.79	14.29	13.75	13.15	12.50	11.75	10.98	10.35	9.665	9.134	8.763	8.335	7.707	7.545	6.411	6.269	6.144	5.656	5.482	7.298	8.292	5.603	3.548	3.052	2.579	2.206	2.149	2.106	1.965	1.858	1.554	1.458	1.946	3.710	6.558	37.33	202.0	304.2	34.63	1.462	0.631	0.636	0.463	0.695	0.499	0.533	0.427	0.503	0.585
550.0	42.52	37.17	30.20	27.53	28.10	38.71	57.89	41.55	37.04	65.71	328.9	550.4	124.1	26.59	21.83	19.30	18.29	16.78	15.50	13.92	13.81	13.32	12.77	11.92	12.16	12.06	11.50	11.49	11.80	12.06	12.12	11.35	10.38	10.05	9.597	9.134	8.219	8.153	7.529	7.465	6.790	6.557	6.066	5.435	5.501	5.011	4.659	4.936	6.624	6.747	4.607	3.151	2.314	2.087	2.053	1.914	1.753	1.828	1.612	1.393	1.285	1.612	2.266	9.197	49.19	156.6	240.9	117.0	8.018	0.688	0.543	0.604	0.485	0.572	0.537	0.547	0.534
555.0	36.75	34.03	28.70	24.40	26.57	24.54	43.28	51.19	32.67	39.14	107.9	416.7	402.7	87.38	19.49	16.98	15.99	13.91	13.15	12.00	12.30	11.16	10.80	10.53	10.30	10.38	9.693	9.591	9.959	10.14	10.08	9.708	8.798	8.549	8.140	7.581	6.802	6.740	6.573	6.242	5.642	5.601	5.172	4.666	4.915	4.187	3.881	3.869	4.163	5.908	5.800	3.466	2.307	2.034	1.800	1.702	1.621	1.733	1.600	1.481	1.226	1.075	1.245	2.818	11.66	35.76	82.40	250.7	138.6	6.362	0.642	0.614	0.468	0.470	0.462	0.447	0.454
560.0	35.76	27.25	23.96	20.64	24.57	22.67	36.28	49.58	35.58	31.58	47.98	218.1	526.6	902.7	17.15	15.54	14.70	12.65	11.08	10.49	10.30	10.18	9.587	9.144	8.788	8.900	8.362	8.192	8.969	8.891	8.461	8.241	7.742	7.134	6.885	6.690	6.516	6.198	5.866	5.384	5.175	4.730	4.564	4.183	4.119	3.794	3.369	3.275	3.129	4.237	5.264	4.222	2.418	1.777	1.723	1.643	1.431	1.293	1.638	1.339	1.228	1.043	1.011	1.368	3.396	8.752	19.64	105.0	248.5	38.71	2.332	0.569	0.424	0.462	0.524	0.517	0.536
565.0	38.57	32.83	23.67	18.68	21.48	19.58	29.10	44.42	39.64	27.04	30.92	89.05	430.3	 1755	17.34	13.85	11.85	11.33	9.839	9.610	8.626	8.620	8.275	8.024	7.542	7.648	7.716	7.428	7.632	7.633	7.208	6.768	6.243	6.464	6.657	5.678	5.856	5.416	5.091	4.767	4.345	4.076	3.920	3.751	3.563	3.437	3.079	2.936	2.583	2.900	3.930	4.499	2.714	1.758	1.607	1.553	1.441	1.200	1.173	1.355	1.142	1.042	1.019	0.868	1.580	2.559	5.107	25.66	130.6	205.0	30.28	1.022	0.498	0.550	0.508	0.505	0.426
570.0	39.87	27.64	21.50	17.40	17.78	15.79	20.44	31.93	43.53	27.25	25.43	37.47	197.5	 1050	103.6	11.33	9.325	8.695	8.232	7.627	6.806	7.057	6.659	6.325	6.196	6.433	6.359	6.308	5.960	6.009	6.052	5.788	5.119	5.191	4.812	4.669	4.554	4.099	3.945	3.921	3.550	3.433	3.401	3.063	2.855	2.747	2.496	2.369	2.092	2.047	2.322	3.322	3.175	2.126	1.502	1.310	1.337	1.197	1.076	1.193	1.128	0.981	0.891	0.868	1.004	1.172	1.816	6.380	31.87	100.9	143.0	66.91	4.691	0.517	0.552	0.500	0.469
575.0	39.21	28.18	20.49	17.09	16.99	14.19	16.28	21.22	38.88	32.96	22.04	23.31	60.74	488.1	319.0	19.84	8.073	7.578	6.193	6.636	5.183	5.644	5.232	4.808	5.354	4.884	5.033	4.893	5.013	4.973	4.669	4.630	4.129	4.259	3.736	3.744	3.378	3.128	2.937	2.970	2.890	2.804	2.922	2.572	2.363	2.110	2.133	2.061	1.787	1.681	1.446	2.035	2.652	2.524	1.819	1.283	1.222	0.935	0.891	0.979	1.018	1.015	0.941	0.714	0.828	0.766	1.061	1.942	7.589	23.05	48.74	136.0	39.81	3.684	0.489	0.532	0.436
580.0	38.46	26.94	20.01	16.06	13.98	13.32	13.61	16.88	30.33	38.38	20.40	18.98	25.67	198.7	376.9	95.57	6.853	6.011	5.916	5.312	4.608	5.149	4.506	4.299	4.349	4.394	4.412	4.141	4.395	4.072	4.124	3.712	3.493	3.439	3.233	3.425	2.849	2.797	2.788	2.543	2.471	2.593	2.241	2.094	2.074	1.859	1.729	1.683	1.442	1.486	1.217	1.491	2.204	2.492	1.861	1.215	1.023	0.947	0.846	0.998	0.988	0.833	0.988	0.710	0.834	0.625	0.717	0.908	2.144	5.636	11.75	57.55	129.8	33.28	1.642	0.581	0.470
585.0	34.26	27.40	18.70	15.78	15.09	12.31	12.45	14.31	21.33	38.48	25.98	19.18	17.83	67.28	270.6	239.1	7.951	5.123	5.012	4.241	4.328	4.517	3.732	3.536	3.819	3.480	3.344	3.530	3.761	3.272	3.545	2.941	2.988	2.984	2.711	2.870	2.567	2.455	2.397	2.291	2.339	2.106	1.841	1.792	1.716	1.673	1.431	1.584	1.211	1.148	1.077	1.152	1.414	1.877	2.059	1.392	0.886	0.877	0.800	0.931	0.844	0.655	0.858	0.741	0.786	0.601	0.677	0.665	1.041	1.731	3.073	14.24	70.75	113.1	23.06	0.872	0.567
590.0	39.43	28.06	18.23	18.83	15.39	12.11	11.44	13.43	16.84	29.87	33.90	17.72	15.36	25.28	114.7	304.1	82.31	4.570	4.207	3.904	3.644	3.404	3.281	3.097	3.020	3.225	2.778	2.921	3.129	2.993	2.866	2.734	2.444	2.605	2.479	2.184	2.244	2.092	1.945	1.955	1.841	1.709	1.680	1.536	1.415	1.479	1.282	1.273	1.158	1.072	0.901	0.905	1.015	1.289	1.783	1.573	1.117	0.817	0.792	0.787	0.739	0.645	0.660	0.664	0.828	0.690	0.654	0.620	0.719	0.899	1.155	3.601	17.28	54.55	77.27	26.80	3.048
595.0	39.66	25.44	19.39	19.44	15.38	11.59	12.93	10.70	12.74	20.64	36.61	21.96	14.15	15.39	33.82	169.7	254.4	12.58	3.795	3.363	3.099	2.596	2.707	2.939	2.549	2.594	2.268	2.342	2.471	2.390	2.464	2.175	2.174	2.220	1.997	1.871	1.717	1.691	1.568	1.637	1.510	1.291	1.369	1.363	1.222	1.111	1.079	1.217	1.051	0.872	0.791	0.763	0.929	0.925	1.123	1.437	1.345	0.832	0.670	0.679	0.658	0.698	0.533	0.635	0.699	0.669	0.554	0.549	0.509	0.749	0.639	1.254	4.186	12.68	26.07	70.72	36.30
600.0	37.05	27.70	22.68	17.65	13.32	11.71	11.81	10.40	12.81	14.04	31.89	28.46	14.95	12.79	14.13	74.89	286.5	73.61	3.265	2.880	2.538	2.558	2.460	2.822	2.498	2.254	1.965	2.110	2.163	1.811	2.030	1.862	1.992	1.818	1.863	1.541	1.775	1.533	1.428	1.290	1.320	1.363	1.134	1.220	0.941	1.059	0.939	0.948	0.853	0.799	0.695	0.656	0.824	0.767	0.871	1.261	1.344	0.988	0.689	0.701	0.514	0.603	0.620	0.655	0.553	0.707	0.601	0.524	0.509	0.486	0.545	0.662	1.307	3.151	6.337	29.91	73.59
605.0	25.98	26.55	19.42	14.99	11.24	10.30	9.527	10.79	13.36	12.92	23.89	32.85	15.94	12.11	10.35	27.02	190.8	190.6	5.139	2.949	2.295	2.508	2.122	2.210	2.433	1.862	1.975	1.860	1.920	1.971	1.717	1.847	1.776	1.669	1.625	1.508	1.413	1.439	1.203	1.161	1.022	1.288	1.152	1.018	0.988	0.964	0.907	0.922	0.733	0.685	0.665	0.670	0.616	0.714	0.659	0.863	1.246	0.984	0.830	0.607	0.564	0.597	0.637	0.673	0.606	0.623	0.652	0.535	0.491	0.489	0.365	0.480	0.709	1.028	1.837	7.510	38.48
610.0	27.90	26.03	20.82	16.67	11.11	9.536	9.991	10.28	11.34	12.26	18.04	28.95	21.10	11.67	8.640	10.98	75.14	230.1	66.89	2.811	2.172	2.235	1.891	1.788	1.851	1.723	1.590	1.516	1.513	1.662	1.558	1.560	1.580	1.393	1.336	1.204	1.237	1.276	1.226	0.995	0.863	1.107	1.043	0.901	0.888	0.859	0.869	0.744	0.717	0.640	0.624	0.552	0.607	0.562	0.578	0.562	0.845	1.066	0.907	0.712	0.544	0.543	0.506	0.543	0.535	0.580	0.534	0.591	0.561	0.556	0.409	0.489	0.595	0.595	0.814	2.082	9.566
615.0	26.55	26.85	18.83	16.35	12.73	9.513	8.333	10.32	10.56	11.79	13.61	20.69	24.86	12.83	8.266	7.462	20.93	120.4	204.7	10.55	2.099	1.912	1.651	1.547	1.341	1.541	1.685	1.240	1.304	1.529	1.465	1.385	1.304	1.154	1.087	1.246	1.070	1.246	1.019	0.971	0.817	0.990	0.788	0.745	0.773	0.822	0.732	0.556	0.593	0.611	0.563	0.593	0.498	0.499	0.508	0.519	0.627	0.952	0.868	0.846	0.658	0.471	0.514	0.482	0.537	0.463	0.468	0.477	0.594	0.512	0.441	0.460	0.430	0.435	0.564	0.797	2.493
620.0	24.18	20.90	19.39	12.56	11.32	7.144	8.733	7.986	8.619	11.52	13.03	16.69	26.18	15.94	8.677	5.984	7.699	50.11	222.6	67.06	2.213	1.614	1.358	1.429	1.530	1.368	1.604	0.924	1.276	1.361	1.349	1.383	1.411	1.062	1.059	0.932	1.101	1.030	0.846	0.931	0.790	0.721	0.859	0.744	0.781	0.738	0.630	0.604	0.644	0.570	0.476	0.494	0.584	0.424	0.465	0.504	0.598	0.635	0.795	0.814	0.640	0.414	0.414	0.375	0.403	0.455	0.498	0.457	0.494	0.458	0.521	0.479	0.607	0.482	0.469	0.562	0.971
625.0	28.01	19.38	19.54	14.68	11.49	7.543	7.653	8.719	10.05	10.40	11.13	13.36	23.68	20.69	8.044	5.549	4.590	17.13	143.7	162.5	3.227	1.391	1.312	1.411	1.475	1.417	1.282	1.081	1.065	1.158	1.245	1.301	1.180	1.015	1.126	0.788	0.965	0.943	0.808	0.905	0.756	0.637	0.780	0.787	0.674	0.756	0.636	0.632	0.577	0.539	0.473	0.542	0.544	0.379	0.490	0.467	0.563	0.605	0.723	0.941	0.736	0.565	0.395	0.433	0.424	0.494	0.530	0.540	0.432	0.565	0.513	0.481	0.515	0.393	0.345	0.509	0.640
630.0	24.50	21.01	18.43	15.41	8.897	7.109	8.801	8.474	9.155	10.86	11.45	11.50	17.02	22.34	11.09	4.912	4.036	6.228	52.84	189.4	55.28	1.611	1.462	1.268	1.365	1.168	1.082	0.937	1.058	1.040	1.062	1.097	1.045	1.060	0.919	0.695	0.830	0.867	0.820	0.671	0.670	0.696	0.704	0.641	0.635	0.681	0.602	0.601	0.462	0.452	0.380	0.464	0.466	0.405	0.434	0.387	0.471	0.452	0.561	0.710	0.671	0.544	0.451	0.478	0.416	0.414	0.472	0.478	0.479	0.551	0.596	0.503	0.476	0.414	0.416	0.462	0.473
635.0	18.97	19.59	16.33	15.25	9.159	7.487	6.517	7.712	10.46	9.252	10.70	12.08	12.77	19.91	15.85	5.165	3.931	4.013	14.18	88.03	170.1	7.798	1.320	1.298	1.056	0.967	1.070	0.792	1.082	0.989	1.220	1.034	0.824	1.061	0.911	0.799	0.774	0.819	0.786	0.583	0.621	0.585	0.594	0.658	0.514	0.492	0.524	0.533	0.504	0.402	0.358	0.429	0.394	0.419	0.421	0.346	0.428	0.411	0.482	0.499	0.483	0.728	0.630	0.461	0.405	0.405	0.417	0.424	0.508	0.505	0.588	0.448	0.449	0.373	0.439	0.469	0.401
640.0	21.88	18.47	17.21	14.90	10.07	7.767	5.707	6.841	8.561	9.279	9.677	11.28	11.42	15.31	17.17	7.062	4.223	2.796	4.873	32.71	187.5	51.76	1.457	1.374	0.947	0.793	1.089	0.984	0.959	0.921	1.075	0.760	0.612	0.876	0.838	0.636	0.879	0.717	0.827	0.523	0.549	0.618	0.690	0.578	0.554	0.471	0.645	0.588	0.464	0.429	0.355	0.290	0.430	0.380	0.366	0.321	0.438	0.431	0.452	0.517	0.416	0.627	0.576	0.450	0.424	0.343	0.399	0.398	0.411	0.456	0.440	0.423	0.532	0.434	0.399	0.392	0.420
645.0	27.31	23.88	24.53	12.59	8.862	7.782	6.515	5.978	8.791	9.650	8.874	9.623	10.96	11.86	16.24	7.941	3.467	2.676	3.255	10.88	115.8	136.2	2.440	1.193	1.136	0.958	0.968	0.935	0.825	0.935	0.883	0.803	0.814	0.902	0.753	0.588	0.727	0.706	0.709	0.563	0.594	0.541	0.904	0.645	0.502	0.542	0.626	0.475	0.371	0.405	0.349	0.356	0.372	0.421	0.337	0.370	0.452	0.429	0.386	0.442	0.398	0.539	0.501	0.585	0.433	0.416	0.367	0.387	0.375	0.452	0.368	0.438	0.491	0.475	0.422	0.407	0.521
650.0	30.82	21.72	20.13	13.12	9.032	6.240	9.597	5.283	9.018	8.733	9.638	10.89	8.959	10.12	15.05	10.59	3.985	2.754	2.606	4.104	48.76	182.0	20.02	1.087	1.070	0.947	0.936	0.877	0.802	1.014	0.867	0.762	0.896	0.692	0.692	0.478	0.652	0.809	0.622	0.613	0.557	0.564	0.697	0.627	0.430	0.419	0.546	0.428	0.359	0.345	0.425	0.403	0.319	0.424	0.407	0.312	0.355	0.423	0.517	0.373	0.399	0.529	0.543	0.512	0.474	0.403	0.383	0.379	0.408	0.408	0.430	0.407	0.424	0.511	0.444	0.377	0.482
