Sample:	'1
File name:	t2025080713 Î÷ÍõÌÇÒµÕ¢.FD3
Run date:	'11:55:21, 08/08/2025
Operator:	Administrator
Comment:	'

Instrument
Model:	F-2700 FL Spectrophotometer
Serial number:	23B8-004
ROM Version:	4J14000 07

Instrument parameters
Measurement type:	3-D scan
Data mode:	Fluorescence
EX  Start WL:	220.0 nm
EX  End WL:	600.0 nm
EX Sampling interval:	5.0 nm
EM  Start WL:	230.0 nm
EM  End WL:	650.0 nm
EM Sampling interval:	5.0 nm
Scan speed:	12000 nm/min
EX Slit:	5.0 nm
EM Slit:	5.0 nm
PMT Voltage:	700 V
Response:	Auto 
Corrected spectra:	Off
Contour interval:	50.000

Peak integration
Integration method:	Rectangular
Sensitivity:	1
Threshold:	1.000

Peaks
No.	ApexEX/EM(nm)	Height(Data)
1	225.0/615.0	100.1
2	225.0/635.0	105.8
3	230.0/340.0	3460
4	235.0/510.0	385.7
5	240.0/525.0	331.2
6	245.0/270.0	387.1
7	245.0/535.0	263.2
8	250.0/545.0	214.9
9	255.0/280.0	649.7
10	255.0/560.0	177.1
11	260.0/285.0	619.3
12	260.0/575.0	142.8
13	265.0/585.0	128.2
14	275.0/615.0	206.6
15	280.0/320.0	3432
16	280.0/625.0	188.5
17	285.0/640.0	152.6
18	440.0/520.0	39.29
19	475.0/340.0	9.515
20	505.0/275.0	3.080
21	515.0/280.0	3.337
22	520.0/285.0	3.845
23	530.0/290.0	3.734
24	580.0/320.0	13.83
25	585.0/325.0	13.48

Data points
	220.0	225.0	230.0	235.0	240.0	245.0	250.0	255.0	260.0	265.0	270.0	275.0	280.0	285.0	290.0	295.0	300.0	305.0	310.0	315.0	320.0	325.0	330.0	335.0	340.0	345.0	350.0	355.0	360.0	365.0	370.0	375.0	380.0	385.0	390.0	395.0	400.0	405.0	410.0	415.0	420.0	425.0	430.0	435.0	440.0	445.0	450.0	455.0	460.0	465.0	470.0	475.0	480.0	485.0	490.0	495.0	500.0	505.0	510.0	515.0	520.0	525.0	530.0	535.0	540.0	545.0	550.0	555.0	560.0	565.0	570.0	575.0	580.0	585.0	590.0	595.0	600.0
230.0	77.57	1450	4155	1453	62.98	10.07	8.468	7.519	6.377	5.606	5.183	5.037	4.158	3.690	3.133	2.686	2.378	2.206	1.987	1.598	1.571	1.449	1.222	1.185	1.152	1.109	0.980	0.967	0.886	0.960	0.822	0.755	0.763	0.667	0.638	0.608	0.554	0.543	0.497	0.533	0.564	0.674	0.763	0.560	0.449	0.485	1.441	6.895	12.43	9.217	3.876	0.848	0.384	0.344	0.359	0.337	0.344	0.358	0.351	0.327	0.334	0.334	0.361	0.354	0.381	0.329	0.371	0.341	0.311	0.333	0.378	0.362	0.348	0.383	0.350	0.344	0.348
235.0	174.9	399.2	2232	4051	729.4	96.41	10.07	8.356	7.192	6.049	5.900	4.772	4.256	4.121	3.894	2.829	2.371	2.250	2.001	1.482	1.507	1.397	1.195	1.236	1.208	1.037	1.041	1.099	0.800	0.922	0.901	0.708	0.790	0.715	0.630	0.609	0.471	0.546	0.444	0.505	0.577	0.536	0.636	0.712	0.767	0.594	0.682	1.896	4.246	7.364	11.51	12.73	6.456	1.813	0.493	0.359	0.329	0.359	0.342	0.318	0.349	0.306	0.413	0.345	0.359	0.344	0.326	0.327	0.353	0.323	0.345	0.485	0.372	0.340	0.352	0.349	0.334
240.0	206.8	207.6	630.1	3007	4391	588.3	54.85	9.119	8.641	7.168	5.850	4.880	4.432	4.098	4.087	3.102	2.480	2.343	2.010	1.669	1.813	1.584	1.345	1.168	1.258	1.109	1.065	1.065	0.844	0.866	0.772	0.675	0.752	0.644	0.636	0.582	0.571	0.674	0.507	0.505	0.519	0.646	0.585	0.570	0.843	0.881	0.754	0.811	1.269	2.150	5.350	13.78	18.36	14.10	5.758	1.209	0.405	0.391	0.389	0.338	0.363	0.369	0.376	0.412	0.358	0.405	0.350	0.314	0.350	0.344	0.377	0.487	0.365	0.378	0.413	0.421	0.347
245.0	131.8	255.1	238.3	964.0	4151	4351	453.0	26.63	9.961	8.504	7.469	5.916	5.197	4.609	3.410	3.077	2.546	2.417	2.116	1.753	1.648	1.427	1.346	1.297	1.067	1.172	0.993	1.038	0.894	0.906	0.856	0.716	0.701	0.669	0.675	0.581	0.545	0.552	0.532	0.469	0.587	0.549	0.484	0.494	0.596	0.831	0.902	0.953	0.695	0.761	1.481	4.183	10.88	20.96	22.05	14.38	4.453	0.807	0.414	0.341	0.404	0.378	0.398	0.374	0.409	0.360	0.322	0.354	0.328	0.362	0.431	0.396	0.342	0.359	0.319	0.356	0.351
250.0	71.37	158.1	278.2	333.5	1255	3827	4968	1665	118.7	11.24	8.658	7.312	5.965	4.894	4.158	3.283	2.737	2.594	2.058	1.819	1.685	1.557	1.345	1.245	1.202	1.195	1.008	1.042	1.125	0.980	0.936	0.912	0.734	0.787	0.642	0.613	0.583	0.554	0.561	0.578	0.535	0.517	0.493	0.527	0.540	0.558	0.643	0.875	1.040	0.935	0.881	1.338	2.855	6.228	11.25	18.09	23.81	21.76	13.31	4.889	0.915	0.426	0.409	0.405	0.425	0.336	0.357	0.360	0.358	0.377	0.390	0.385	0.364	0.379	0.336	0.361	0.381
255.0	54.17	65.18	163.3	354.7	402.6	939.6	3272	7975	2448	144.1	12.69	9.744	6.339	5.163	5.008	3.685	2.699	2.897	2.316	1.830	1.710	1.505	1.499	1.317	1.241	1.188	1.153	1.011	1.091	0.953	0.893	0.853	0.754	0.761	0.694	0.604	0.621	0.552	0.541	0.523	0.511	0.533	0.529	0.452	0.463	0.427	0.446	0.518	0.597	0.909	1.381	1.571	1.366	1.731	2.904	4.436	7.399	16.22	32.93	32.17	22.32	6.230	0.828	0.432	0.428	0.345	0.371	0.381	0.462	0.384	0.402	0.428	0.365	0.379	0.350	0.352	0.377
260.0	46.00	41.74	63.28	266.1	373.0	293.5	919.1	5431	9276	1929	78.97	14.18	8.908	6.591	5.104	4.497	3.234	2.904	2.792	2.179	1.830	1.677	1.535	1.442	1.349	1.196	1.303	1.134	1.150	1.002	0.942	0.892	0.710	0.661	0.717	0.770	0.567	0.522	0.488	0.534	0.442	0.555	0.489	0.539	0.472	0.508	0.421	0.445	0.471	0.501	0.841	1.569	1.995	1.435	1.189	1.407	2.111	4.278	11.77	26.48	44.96	31.88	18.97	3.643	0.485	0.394	0.392	0.384	0.421	0.409	0.423	0.433	0.404	0.395	0.346	0.332	0.375
265.0	48.98	41.44	38.29	117.0	379.3	314.5	259.0	1626	7888	9574	1387	32.19	10.92	8.147	6.535	4.664	3.845	3.129	2.964	2.469	1.891	1.527	1.374	1.480	1.245	1.312	1.221	1.046	1.154	1.168	0.891	0.863	0.887	0.729	0.741	0.716	0.527	0.602	0.553	0.602	0.551	0.515	0.542	0.588	0.521	0.467	0.423	0.457	0.438	0.356	0.474	0.858	1.442	2.094	1.859	0.989	0.916	1.353	3.095	7.242	18.76	37.15	54.85	29.87	13.86	1.754	0.489	0.462	0.487	0.378	0.473	0.384	0.383	0.359	0.351	0.419	0.404
270.0	75.84	64.29	47.68	55.79	167.2	387.1	340.7	432.9	2277	7397	9999.9	3557	87.54	12.04	8.704	5.905	4.803	3.845	3.019	2.753	2.141	1.850	1.695	1.694	1.397	1.267	1.313	1.229	1.215	1.055	1.068	0.948	0.979	0.862	0.769	0.825	0.664	0.628	0.580	0.615	0.594	0.597	0.537	0.604	0.564	0.490	0.571	0.531	0.485	0.392	0.382	0.520	0.712	1.123	1.667	2.043	1.993	1.468	1.303	2.115	4.741	9.881	21.12	32.71	45.74	42.68	20.30	10.30	1.871	0.417	0.480	0.472	0.421	0.436	0.386	0.414	0.471
275.0	136.2	133.4	95.50	57.95	71.29	167.9	484.0	416.4	582.3	1790	5728	9999.9	1642	99.26	12.53	8.689	6.241	4.489	3.939	2.941	2.313	2.025	2.160	1.637	1.473	1.424	1.376	1.357	1.062	1.271	1.048	1.054	0.972	0.829	0.908	0.955	0.987	0.766	0.742	0.722	0.725	0.651	0.614	0.680	0.783	0.658	0.662	0.655	0.666	0.472	0.406	0.508	0.528	0.637	0.781	1.022	2.042	3.080	2.563	1.709	1.582	2.685	5.256	7.954	12.06	21.48	47.56	70.12	31.14	13.45	1.304	0.488	0.522	0.485	0.423	0.405	0.449
280.0	234.4	231.0	168.8	89.15	67.74	90.27	287.5	649.7	358.9	500.7	1587	8169	9999.9	1271	54.51	11.10	7.315	5.949	3.932	3.257	2.922	2.537	2.118	1.869	1.625	1.459	1.462	1.412	1.195	1.258	1.140	1.062	0.948	1.033	1.160	1.105	1.041	0.922	0.892	0.847	0.721	0.796	0.914	0.861	0.892	0.863	0.847	0.816	0.787	0.599	0.507	0.579	0.475	0.668	0.571	0.657	1.068	1.754	3.181	3.337	2.103	1.408	1.823	2.406	3.434	5.779	14.20	36.60	62.55	70.11	26.53	7.282	0.742	0.512	0.496	0.429	0.477
285.0	353.6	317.8	230.9	126.4	85.12	81.60	148.5	506.1	619.3	310.8	513.2	2473	9999.9	9999.9	856.7	22.66	9.909	7.087	4.623	3.357	3.448	2.699	2.198	2.006	1.910	1.877	1.491	1.427	1.145	1.283	1.208	1.052	1.132	1.060	1.251	1.193	1.270	1.099	1.035	0.998	0.860	0.924	0.978	0.911	0.921	0.995	1.044	1.061	0.914	0.787	0.607	0.596	0.507	0.668	0.592	0.778	0.902	0.996	1.605	2.925	3.845	2.707	1.580	1.408	1.596	2.319	4.038	9.421	21.14	48.22	72.22	35.52	19.71	2.980	0.684	0.383	0.521
290.0	434.9	436.8	345.3	199.7	127.3	121.7	140.3	272.7	618.4	723.4	462.8	822.5	2973	8908	9999.9	2829	51.19	11.07	6.517	4.779	3.928	2.960	2.396	2.262	2.077	1.895	1.772	1.555	1.642	1.357	1.383	1.082	1.215	1.209	1.403	1.506	1.365	1.399	1.255	1.104	1.100	1.032	1.073	1.112	1.269	1.391	1.246	1.375	1.142	1.016	0.889	0.830	0.775	0.788	0.718	0.850	0.840	0.932	1.112	1.558	2.437	3.021	3.734	3.167	2.253	1.958	2.217	3.354	5.898	12.58	23.60	34.47	52.09	47.67	41.00	13.58	3.145
295.0	536.5	582.0	468.3	298.7	221.9	195.3	226.5	296.0	442.2	862.4	1033	691.2	1043	2299	5783	9999.9	897.5	62.22	10.62	6.509	5.188	3.857	3.055	2.549	2.213	2.049	1.875	1.694	1.457	1.580	1.246	1.229	1.339	1.297	1.451	1.675	1.544	1.466	1.510	1.373	1.415	1.330	1.409	1.318	1.670	1.668	1.465	1.780	1.522	1.296	1.073	1.120	1.086	1.003	1.073	1.115	1.178	1.363	1.337	1.417	1.789	2.198	2.684	4.046	5.556	4.472	3.020	2.908	3.338	4.579	6.978	9.032	13.17	19.38	46.21	74.84	36.57
300.0	733.5	783.8	689.8	460.9	359.5	349.6	427.4	468.0	708.2	1050	1701	1446	1112	1151	1918	8088	9999.9	741.6	41.33	9.740	6.356	4.607	3.493	3.192	2.612	2.523	2.021	1.927	1.658	1.529	1.285	1.375	1.449	1.488	1.644	1.837	1.850	1.779	1.686	1.622	1.498	1.615	1.697	1.580	1.867	2.004	2.119	2.268	2.014	1.691	1.625	1.636	1.533	1.442	1.487	1.818	1.797	2.064	2.276	2.422	2.596	2.981	3.342	4.276	5.497	6.948	6.929	5.318	4.914	4.789	4.659	4.867	5.609	6.891	13.91	33.98	61.81
305.0	990.8	1082	1002	705.9	576.2	587.7	767.8	1007	1321	1768	2378	2829	1851	1542	1492	2988	9999.9	6509	538.7	20.02	8.625	6.218	4.540	3.770	2.987	2.810	2.058	2.139	1.882	1.697	1.667	1.370	1.506	1.580	1.691	1.916	2.373	2.143	1.950	1.965	2.018	1.989	2.018	2.222	2.283	2.515	2.986	2.808	2.956	2.075	2.064	2.305	2.140	2.222	2.378	2.689	2.840	3.436	3.842	4.296	4.768	5.667	6.009	7.002	7.864	8.942	10.87	11.19	9.507	8.026	7.484	7.143	6.324	6.495	7.635	11.91	21.40
310.0	1248	1455	1360	981.8	784.5	825.9	1067	1357	1695	2180	2695	3218	3075	2262	1793	1713	3712	7826	8212	2021	34.76	8.899	6.125	4.553	3.580	3.131	2.506	2.277	2.115	1.924	1.763	1.654	1.574	1.866	1.771	2.097	2.397	2.288	2.286	2.347	2.210	2.315	2.356	2.577	2.746	3.125	3.502	4.002	3.584	3.093	3.003	3.161	2.930	3.124	3.125	3.382	4.074	4.715	5.387	5.732	5.920	6.836	7.933	8.780	9.472	10.24	11.50	12.37	12.78	12.71	10.86	9.485	8.291	8.171	7.499	7.550	9.206
315.0	1486	1891	1788	1290	1052	1064	1315	1584	1884	2376	2904	3307	3377	3049	2203	1622	1966	2405	5258	9999.9	618.8	36.70	8.332	5.671	3.908	3.837	2.902	2.686	2.393	2.050	1.770	1.749	1.623	1.921	1.999	2.257	2.485	2.486	2.580	2.504	2.260	2.564	2.583	2.832	3.255	3.847	4.419	4.918	4.633	3.768	3.718	3.899	3.716	3.699	3.839	3.980	4.942	5.438	6.094	6.319	6.876	7.551	8.757	9.992	10.40	10.96	12.08	12.35	12.75	13.28	12.92	13.03	11.38	9.592	8.362	7.799	7.105
320.0	1672	2193	2083	1506	1210	1181	1421	1703	1969	2471	2994	3414	3432	3271	2662	1773	1677	1239	1556	7367	9649	515.0	19.50	7.830	5.360	4.006	3.467	2.883	2.710	2.075	1.950	1.968	1.774	1.831	1.932	2.253	2.508	2.762	2.541	2.591	2.502	2.840	2.735	3.037	3.649	4.245	4.896	5.607	5.698	4.639	4.281	4.545	4.270	4.203	4.458	4.637	5.598	6.183	6.644	6.969	7.553	7.848	8.497	9.886	10.50	11.42	12.11	12.70	12.81	13.28	12.88	13.13	13.83	12.16	10.21	8.490	7.146
325.0	1849	2506	2429	1756	1311	1242	1427	1712	1911	2401	2895	3296	3314	3063	2841	1943	1599	998.3	635.5	2210	8960	4667	72.53	12.58	7.018	4.820	3.929	3.126	2.977	2.477	2.403	1.925	1.861	1.836	2.068	2.153	2.341	2.507	2.711	2.524	2.566	2.837	2.876	3.246	3.845	4.819	5.173	6.236	6.456	5.274	4.878	5.380	4.912	4.431	4.627	4.677	5.779	6.036	6.183	6.741	7.162	7.451	8.439	9.425	10.85	11.30	11.44	12.19	12.83	12.97	12.52	12.38	13.02	13.48	11.95	9.176	7.629
330.0	2032	2725	2898	2326	1730	1396	1427	1629	1797	2190	2667	3043	3093	2829	2550	2093	1672	977.9	511.0	721.9	2598	6095	6509	1556	27.29	7.489	5.094	3.737	3.412	2.832	2.462	2.173	2.000	1.983	2.006	2.091	2.194	2.417	2.523	2.595	2.861	2.913	3.197	3.579	4.251	5.381	5.913	7.332	7.603	6.897	6.290	6.634	5.933	5.701	5.163	4.925	5.458	5.709	6.348	6.515	6.695	6.986	7.983	8.666	9.575	10.18	10.85	11.49	11.99	12.61	11.90	11.58	11.56	11.81	10.99	10.33	9.056
335.0	2194	3041	3378	2989	2315	1711	1496	1596	1712	2031	2473	2814	2926	2720	2395	1977	1876	1160	608.6	497.7	788.7	1546	4658	9414	492.6	30.10	6.802	5.411	4.209	3.236	2.669	2.555	2.195	2.079	2.055	2.162	2.159	2.367	2.709	2.626	2.642	2.961	3.234	3.749	4.569	5.539	6.465	7.869	8.596	8.345	7.840	8.916	8.173	7.465	6.679	5.448	5.681	5.714	6.187	6.514	6.411	6.517	7.292	7.918	8.569	9.353	10.38	10.29	11.17	11.61	10.87	11.71	10.95	10.55	9.960	9.144	9.365
340.0	2206	3037	3460	3141	2495	1787	1470	1521	1614	1903	2265	2582	2699	2547	2253	1825	1740	1328	698.7	480.7	413.9	501.7	1316	6759	8087	424.6	15.75	6.371	5.012	3.881	2.986	2.882	2.185	2.137	2.148	2.227	2.239	2.398	2.610	2.529	2.779	3.006	3.332	3.776	4.454	5.458	6.434	8.153	8.882	8.765	8.267	9.515	8.483	8.031	7.318	5.749	5.526	5.820	6.159	6.274	6.027	6.195	6.908	7.556	8.273	8.675	9.158	9.524	10.31	10.41	10.71	10.55	10.33	9.506	9.261	8.495	8.470
345.0	2079	2867	3346	3096	2507	1742	1425	1423	1505	1747	2037	2323	2428	2303	2058	1680	1503	1298	826.1	508.5	350.8	291.2	431.3	1995	7828	3834	60.83	9.498	6.065	4.446	3.238	2.786	2.347	2.262	2.276	2.167	2.019	2.338	2.367	2.399	2.595	2.735	3.332	3.481	4.418	5.426	6.121	7.553	8.259	8.422	7.896	9.283	8.619	8.071	6.883	5.748	5.485	5.451	5.728	5.777	5.627	5.859	6.378	6.952	7.597	7.849	8.132	8.708	9.466	9.619	9.612	9.822	9.075	9.456	8.791	8.064	7.511
350.0	1920	2661	3113	3021	2539	1820	1393	1375	1411	1592	1823	2054	2133	2059	1852	1552	1360	1127	927.8	668.7	403.4	293.5	277.0	567.3	2262	5229	5367	1308	22.86	6.065	4.167	3.067	2.845	2.253	2.223	2.103	2.179	2.159	2.294	2.484	2.503	2.636	2.939	3.426	3.951	4.897	5.742	7.157	7.831	7.880	7.922	9.376	8.936	8.326	6.752	5.868	5.568	5.429	5.482	5.452	5.489	5.662	5.849	6.273	6.787	6.997	7.378	7.787	8.340	8.456	8.707	8.517	8.283	8.425	8.016	7.539	7.009
355.0	1770	2430	2853	2809	2470	1843	1432	1347	1363	1489	1648	1815	1890	1841	1689	1441	1274	1035	852.8	804.5	556.6	353.3	285.6	287.1	601.0	1277	3870	7621	442.1	25.01	5.929	4.082	3.266	2.443	2.093	2.205	2.168	2.145	2.334	2.307	2.306	2.634	2.778	3.339	3.804	4.271	5.640	6.355	7.167	7.160	7.325	8.793	8.408	8.136	6.578	5.622	5.811	5.397	5.451	5.146	5.127	5.196	5.421	5.745	6.222	6.381	6.632	6.979	6.788	7.433	7.372	7.602	7.901	7.643	7.335	7.109	6.671
360.0	1636	2182	2545	2566	2342	1802	1408	1333	1343	1419	1549	1665	1719	1686	1548	1340	1199	997.6	810.4	768.4	689.5	435.7	320.8	247.6	258.5	367.9	1057	5644	6773	380.9	13.17	5.363	3.770	3.036	2.207	2.138	2.350	2.076	2.286	2.095	2.167	2.446	2.556	3.004	3.407	4.026	4.656	6.056	6.408	6.526	6.764	8.338	7.765	8.014	6.618	5.378	5.753	5.398	5.221	5.355	5.289	5.189	5.402	5.672	5.923	5.975	6.232	6.379	6.364	6.734	6.723	6.755	7.214	7.174	6.954	6.458	6.530
365.0	1533	1971	2386	2423	2202	1741	1406	1299	1306	1393	1466	1541	1583	1553	1441	1277	1149	978.6	815.3	713.8	707.2	565.0	372.1	273.5	212.9	188.7	306.2	1666	6791	3484	55.15	8.717	4.970	3.558	2.651	2.367	2.467	2.167	2.128	2.263	2.153	2.288	2.513	2.802	3.336	3.826	4.110	5.442	6.009	6.099	6.048	7.684	7.676	7.242	6.465	5.621	5.364	5.359	5.098	5.132	5.136	4.918	5.230	5.089	5.306	5.707	5.982	5.690	6.102	6.316	6.098	6.400	6.735	6.703	6.382	5.913	6.055
370.0	1368	1785	2140	2196	2074	1698	1389	1308	1290	1341	1388	1439	1456	1424	1335	1215	1107	973.1	830.4	729.3	656.9	638.7	520.9	346.4	248.8	187.9	171.5	444.7	1975	4775	4922	1159	19.16	4.961	3.567	2.940	2.456	2.454	2.202	2.141	2.229	2.408	2.486	2.672	3.108	3.469	3.876	4.864	5.420	5.381	5.709	6.899	7.018	7.087	6.340	5.515	5.499	5.443	5.078	5.149	4.920	4.866	5.198	5.375	5.363	5.303	5.532	5.492	5.469	5.922	5.858	6.010	5.972	6.103	5.916	5.912	5.835
375.0	1259	1618	1899	1998	1940	1638	1385	1295	1269	1310	1337	1347	1351	1318	1245	1143	1060	960.9	842.1	753.6	660.9	607.4	613.5	488.0	315.3	237.3	180.4	202.0	511.8	1167	3646	6723	374.8	21.20	5.049	3.639	3.031	2.755	2.162	2.285	2.398	2.375	2.293	2.420	3.071	3.332	3.696	4.547	5.158	4.846	5.193	6.450	6.424	6.586	6.134	5.378	5.343	5.376	5.007	5.113	4.943	5.026	4.862	5.226	5.256	4.943	5.033	5.353	5.368	5.387	5.496	5.549	5.351	5.427	5.335	5.381	5.640
380.0	1123	1522	1740	1851	1837	1601	1386	1287	1274	1281	1288	1295	1294	1240	1170	1084	1027	942.8	847.1	772.0	679.7	610.2	593.0	581.4	409.1	280.6	213.8	173.2	206.2	325.2	997.3	5016	5655	313.7	11.49	4.734	3.497	2.848	2.441	2.460	2.396	2.160	2.488	2.424	2.967	2.968	3.532	4.336	4.663	4.496	4.922	6.156	6.269	6.238	5.582	5.442	5.228	5.011	5.032	4.937	4.972	4.790	4.979	5.197	5.315	4.942	4.774	4.973	5.116	5.310	5.305	5.259	5.345	5.297	5.057	5.385	5.285
385.0	1121	1416	1636	1739	1719	1566	1349	1282	1253	1250	1259	1259	1240	1184	1123	1048	998.8	925.1	852.7	783.6	700.8	627.5	579.1	588.4	510.2	340.3	253.5	194.1	162.5	154.2	281.3	1473	5539	2871	44.51	7.251	4.284	3.495	2.714	2.469	2.310	2.289	2.290	2.609	2.878	3.071	3.398	3.809	3.953	4.367	4.615	5.731	5.647	6.004	5.532	4.980	5.445	5.097	5.279	5.014	4.749	4.693	4.942	5.053	5.021	5.119	4.717	4.852	4.883	5.013	4.884	5.259	5.112	5.089	5.053	4.981	5.303
390.0	1060	1348	1526	1627	1604	1500	1321	1269	1212	1219	1214	1195	1180	1131	1070	1003	963.1	906.6	845.5	784.1	719.2	657.8	600.6	559.5	542.8	460.5	323.2	242.8	189.9	150.2	146.5	388.2	1582	3627	3708	928.9	16.65	4.755	3.355	2.816	2.482	2.288	2.412	2.510	2.674	2.956	3.257	3.776	4.028	3.960	4.250	5.262	5.410	5.695	5.384	5.134	5.269	4.989	5.028	4.877	4.962	4.863	4.747	4.819	4.827	4.748	4.733	4.750	4.713	4.799	4.678	5.048	4.907	4.835	4.928	4.906	5.066
395.0	997.8	1269	1444	1504	1523	1434	1299	1248	1194	1184	1177	1157	1125	1090	1030	964.9	926.6	880.7	834.0	786.4	729.3	674.7	624.9	574.2	527.2	519.8	439.4	312.0	240.3	189.9	150.5	169.8	409.3	882.2	2580	4988	311.2	19.21	4.920	3.409	2.788	2.785	2.499	2.665	2.699	2.968	2.947	3.646	3.850	3.723	3.941	4.999	5.226	5.256	5.327	4.968	5.057	5.004	4.931	4.682	4.705	4.789	4.898	4.845	4.740	4.543	4.594	4.699	4.722	4.659	4.219	4.800	4.443	4.611	4.903	4.617	4.967
400.0	1009	1238	1347	1457	1457	1388	1290	1222	1209	1180	1155	1136	1092	1058	994.7	938.2	897.9	865.5	823.8	775.0	729.2	687.2	644.2	596.1	540.0	509.5	508.9	395.0	284.2	226.8	177.6	142.3	164.6	249.6	697.7	3472	4272	271.0	11.15	4.256	3.198	3.022	2.620	2.476	2.711	3.006	2.969	3.375	3.654	3.470	3.888	4.797	4.857	5.087	4.964	4.837	5.230	5.058	5.039	4.719	4.658	4.665	5.061	4.700	4.492	4.382	4.733	4.535	4.579	4.377	4.314	4.587	4.323	4.550	4.401	4.695	4.809
405.0	962.9	1138	1298	1394	1423	1348	1265	1226	1193	1167	1130	1121	1075	1018	969.3	909.8	875.6	844.4	815.2	766.4	724.9	690.2	652.2	608.4	559.3	512.5	507.4	472.0	344.2	262.9	210.6	158.9	129.0	121.8	203.4	994.4	3886	2455	39.78	6.650	3.806	3.088	2.847	2.674	2.544	3.010	2.999	3.350	3.671	3.416	3.738	4.587	4.491	4.844	4.621	4.535	4.846	4.785	4.782	4.773	4.317	4.627	4.827	4.645	4.337	4.291	4.478	4.510	4.210	4.252	4.233	4.215	4.393	4.414	4.312	4.326	4.268
410.0	928.0	1084	1242	1317	1332	1282	1223	1199	1155	1138	1108	1085	1028	982.8	928.1	871.4	838.0	809.4	781.2	747.7	714.7	686.0	652.3	618.1	576.9	527.6	494.7	485.5	434.6	328.0	248.8	191.7	144.9	111.9	106.6	265.7	1083	2636	2880	838.2	15.15	3.978	3.258	3.026	2.712	2.811	2.959	3.399	3.372	3.327	3.651	4.337	4.491	4.634	4.424	4.477	4.774	4.835	4.872	4.597	4.421	4.653	4.566	4.566	4.367	4.110	4.120	4.242	4.182	4.090	4.089	4.180	4.199	4.394	4.123	4.199	4.372
415.0	872.8	1053	1166	1249	1237	1238	1182	1181	1137	1118	1074	1042	987.0	935.2	875.1	831.0	790.3	770.7	743.0	716.0	692.7	668.8	641.4	608.8	577.6	536.0	494.6	461.6	451.7	406.3	293.6	220.3	166.0	124.4	97.77	112.5	277.9	631.2	1750	3689	286.1	18.16	4.251	3.366	3.132	2.770	2.882	3.343	3.169	3.174	3.626	3.996	4.484	4.341	4.434	4.263	4.955	4.838	4.829	4.593	4.586	4.595	4.436	4.443	4.237	3.897	4.056	3.882	4.066	3.867	3.875	3.982	4.119	3.772	4.079	4.012	4.155
420.0	833.1	1011	1128	1162	1208	1188	1153	1142	1116	1088	1046	1010	956.8	903.5	837.4	794.3	758.7	729.2	713.9	685.5	671.3	644.0	627.5	600.8	573.4	536.0	497.9	457.8	433.4	428.9	343.5	240.6	182.9	138.4	104.7	85.63	103.6	170.0	456.6	2352	3237	258.3	10.78	3.859	3.183	2.977	2.884	3.238	3.324	3.117	3.386	3.726	4.291	4.367	4.209	4.568	4.686	4.561	4.519	4.272	4.442	4.357	4.356	4.143	4.373	3.711	3.846	3.867	3.846	3.546	3.799	3.875	3.884	3.835	3.973	3.823	4.016
425.0	821.3	979.2	1083	1124	1128	1149	1123	1115	1081	1061	1018	983.4	920.6	875.0	804.3	761.4	726.2	695.7	678.3	656.5	641.6	619.3	613.5	591.7	566.1	533.1	497.4	457.0	423.4	410.8	382.5	275.2	197.3	149.1	114.8	86.16	72.08	72.07	125.5	641.7	2623	2247	204.1	6.431	4.025	2.969	2.957	3.335	3.159	3.005	3.208	3.747	4.041	4.231	3.899	4.262	4.567	4.357	4.404	4.454	4.418	4.271	4.159	4.486	4.104	3.893	3.824	3.985	3.731	3.688	3.776	3.815	3.713	3.797	3.666	3.729	3.637
430.0	1100	909.5	1024	1064	1093	1092	1079	1088	1058	1033	1002	950.6	888.7	829.0	765.3	719.8	681.8	660.1	647.8	628.2	609.8	593.3	588.4	572.1	552.0	526.0	492.9	461.9	429.8	394.0	373.4	326.3	234.9	169.8	130.7	98.81	76.09	58.92	58.27	164.9	700.6	1860	2344	798.1	16.02	4.058	3.385	3.365	3.168	3.062	3.113	3.731	3.894	3.975	4.020	4.048	4.380	4.295	4.273	4.350	4.166	4.258	4.243	4.228	4.178	3.747	4.062	3.747	3.543	3.643	3.642	3.626	3.495	3.535	3.561	3.575	3.820
435.0	2118	860.5	962.3	1012	1046	1054	1035	1052	1032	1011	968.8	910.7	853.3	798.4	734.5	679.1	649.2	624.9	616.7	593.5	580.4	568.0	565.1	546.9	539.4	513.8	486.7	460.6	431.3	394.7	357.4	330.2	283.9	199.3	147.8	114.5	87.80	65.47	49.60	64.23	176.5	437.1	1194	3049	1206	20.93	4.240	3.679	3.296	3.122	3.053	3.690	3.878	3.697	3.907	4.002	4.172	4.226	4.287	4.081	4.235	3.898	3.956	4.122	3.863	3.737	3.932	3.580	3.665	3.468	3.208	3.505	3.600	3.419	3.250	3.243	3.463
440.0	2859	1111	905.2	968.0	994.2	1023	1023	1032	1023	980.4	957.7	886.4	816.0	764.4	695.8	640.0	615.5	595.2	579.6	564.4	555.1	543.3	539.6	530.4	518.6	500.9	476.2	453.2	429.0	393.2	351.0	312.9	291.2	228.2	162.0	123.7	94.82	72.08	53.96	46.01	63.37	116.2	302.7	1733	3096	253.9	14.23	4.235	3.493	3.203	3.091	3.621	3.537	3.986	3.767	3.812	3.988	3.904	4.101	4.077	3.879	3.956	3.832	3.882	3.896	3.845	3.768	3.570	3.592	3.288	3.075	3.055	3.317	3.317	3.213	3.421	3.304
445.0	2686	1816	872.2	910.8	929.1	956.6	978.3	994.3	995.8	947.3	932.7	851.7	795.1	739.8	668.5	615.4	586.8	562.1	551.1	530.8	526.2	516.9	514.4	505.1	497.0	479.1	462.7	444.2	415.8	388.2	343.4	303.9	275.2	246.8	181.8	131.0	101.6	80.03	61.12	46.28	41.82	46.94	84.27	455.7	2130	2091	200.8	8.671	3.989	3.296	3.092	3.622	3.762	3.726	3.604	3.702	3.938	3.903	4.047	3.921	4.146	4.012	3.938	3.619	3.715	3.653	3.578	3.470	3.284	3.319	3.114	3.069	3.290	3.185	3.109	2.961	3.205
450.0	1620	2884	1209	858.4	871.4	897.8	924.6	944.9	930.7	910.6	872.8	809.0	745.1	684.7	621.3	569.0	539.3	518.5	506.3	493.5	481.0	478.3	474.9	469.4	460.6	448.4	434.6	415.8	397.7	373.0	336.8	294.5	253.6	231.6	204.6	151.4	111.1	86.94	68.67	52.92	42.62	35.67	38.38	116.9	550.3	1542	2007	778.2	15.24	4.034	3.257	3.709	3.513	3.686	3.472	3.491	3.667	3.848	3.778	3.834	3.697	3.896	3.724	3.632	3.633	3.518	3.442	3.355	2.989	3.192	3.215	2.913	3.107	2.957	2.894	2.966	3.028
455.0	809.8	2494	2506	843.5	810.0	820.5	868.5	876.4	869.0	843.1	814.0	758.6	689.4	626.9	571.1	523.3	495.7	467.0	460.3	448.7	435.5	432.6	432.2	430.4	420.8	410.9	400.8	388.9	371.0	351.3	321.8	281.6	241.5	211.1	194.0	171.4	126.0	94.02	73.53	58.62	47.47	37.88	32.47	44.18	137.5	358.8	852.8	2436	1111	19.04	4.021	3.943	3.301	3.792	3.304	3.450	3.485	3.460	3.804	3.557	3.461	3.516	3.470	3.410	3.350	3.242	3.292	2.755	2.901	3.319	2.765	2.834	2.725	2.640	2.792	2.670	2.722
460.0	595.3	1570	3312	1070	754.5	772.9	811.6	824.7	821.4	799.4	766.0	713.7	647.3	583.0	533.3	483.5	456.2	435.4	421.1	416.1	404.9	401.6	399.8	398.9	391.3	384.2	377.4	364.9	353.6	333.9	308.8	273.7	232.1	201.8	179.6	171.7	139.9	100.2	77.05	62.16	50.52	41.05	33.17	30.39	47.21	93.03	210.3	1202	2455	755.9	14.52	4.390	3.413	3.598	3.252	3.457	3.425	3.343	3.664	3.584	3.569	3.361	3.384	3.371	3.300	3.147	2.999	2.825	2.709	2.863	2.679	2.576	2.589	2.527	2.438	2.534	2.595
465.0	504.7	894.9	3143	1950	717.9	717.3	757.7	766.6	775.7	751.4	718.6	671.6	599.5	552.3	498.6	449.1	422.7	408.0	392.4	379.9	375.8	369.3	369.2	366.9	362.6	358.0	350.6	342.1	331.7	315.5	294.6	260.9	224.1	193.9	168.0	155.4	147.2	110.9	81.30	64.77	53.87	42.99	34.67	28.81	28.32	35.12	58.82	305.7	1512	2123	183.2	10.93	3.868	3.485	3.315	3.270	3.314	3.260	3.344	3.373	3.342	3.251	3.284	3.282	3.163	3.129	2.857	2.628	2.794	2.651	2.541	2.526	2.299	2.640	2.340	2.608	2.475
470.0	480.6	619.0	1755	3112	1060	655.8	688.0	699.8	701.4	687.3	658.7	614.2	558.2	498.3	448.6	407.5	381.3	365.6	352.1	340.6	333.0	331.0	330.3	329.9	325.8	321.5	316.3	309.6	302.8	290.3	270.0	242.3	210.5	182.7	157.3	139.6	132.7	118.2	90.35	68.95	55.30	46.06	37.09	30.79	26.43	23.79	25.85	78.66	380.2	1144	1427	736.8	15.97	4.041	3.473	3.131	3.273	3.109	3.103	3.045	2.991	3.019	3.130	3.028	2.788	2.895	2.693	2.428	2.574	2.629	2.358	2.266	2.287	2.478	2.075	2.213	2.142
475.0	505.5	507.7	815.4	2638	2314	644.4	610.0	627.7	631.9	625.9	593.0	563.6	507.7	447.4	401.1	365.1	339.3	324.5	311.0	305.8	297.8	293.3	291.7	293.4	291.9	285.1	280.7	274.6	272.1	262.0	247.8	223.9	194.0	171.1	147.9	129.1	116.7	108.8	99.40	75.17	57.10	48.16	39.70	32.75	27.69	23.37	20.19	29.27	94.08	263.8	537.5	1569	879.8	21.94	3.810	3.215	3.204	3.002	2.812	2.787	2.606	2.686	2.837	2.850	2.571	2.647	2.431	2.394	2.386	2.339	2.213	2.059	2.038	2.140	2.004	2.122	2.198
480.0	462.8	511.2	537.5	1568	3255	896.4	575.7	587.6	598.8	592.3	560.9	515.3	474.9	415.7	377.7	340.4	314.6	298.0	287.7	280.0	271.8	270.6	267.8	268.3	268.2	262.3	259.4	253.4	249.5	243.2	228.1	207.8	185.6	162.2	141.0	123.8	109.0	98.81	99.51	81.64	61.10	49.61	41.38	34.84	29.40	24.35	19.22	19.26	31.18	66.90	130.4	703.3	1739	235.7	15.93	3.499	3.262	2.903	2.814	2.767	2.509	2.830	2.564	2.502	2.488	2.299	2.241	2.399	2.212	2.010	2.005	1.996	2.045	2.077	1.835	1.936	1.983
485.0	401.5	491.0	458.4	835.4	3118	1703	538.6	552.7	549.8	555.9	530.1	492.3	449.1	391.8	350.6	317.9	297.2	283.2	269.8	259.8	255.7	251.4	248.1	250.0	249.9	245.5	239.6	236.8	234.7	227.4	217.3	196.5	175.6	153.7	135.9	122.1	106.1	93.37	89.67	85.85	67.35	50.29	42.46	36.49	30.36	25.91	20.52	17.96	17.94	23.78	36.48	176.7	984.2	1569	207.1	9.948	3.493	2.779	2.881	2.630	2.431	2.616	2.348	2.436	2.385	2.293	2.203	2.338	2.248	1.896	1.819	1.949	1.978	2.036	1.874	1.900	1.701
490.0	335.2	464.8	447.3	523.8	1721	2971	826.0	506.2	508.9	509.6	493.9	456.7	410.0	363.0	323.9	292.6	271.7	257.1	243.8	235.7	230.6	224.9	224.0	225.2	225.6	220.0	218.7	216.1	215.5	210.4	198.6	183.5	163.1	145.7	128.9	115.4	101.5	88.81	81.72	79.06	73.44	56.75	44.12	37.65	32.21	27.19	22.80	19.24	15.98	15.09	16.47	46.48	243.7	796.9	1330	710.6	17.86	3.726	2.912	2.683	2.591	2.464	2.365	2.400	2.209	2.099	2.203	2.026	1.921	1.954	1.712	1.736	1.765	1.787	1.772	1.806	1.680
495.0	270.6	402.8	453.4	422.2	732.7	2606	2039	492.0	467.5	456.4	451.5	411.2	371.3	325.1	292.5	260.8	243.4	228.0	218.0	209.9	204.5	201.5	202.9	199.0	202.0	198.7	194.9	194.9	195.4	190.8	179.8	167.7	150.5	135.0	120.8	108.2	96.14	83.60	75.79	70.00	68.94	63.45	48.11	38.11	33.26	28.44	24.27	20.58	17.28	14.24	12.70	18.08	60.54	184.0	482.9	1448	966.4	25.11	3.367	2.632	2.386	2.286	2.187	2.230	2.270	2.121	2.048	1.904	1.801	1.858	1.622	1.662	1.592	1.589	1.659	1.597	1.686
500.0	265.2	342.4	439.4	376.3	450.1	1516	3103	680.7	432.5	419.5	414.9	382.5	341.4	302.6	268.4	240.3	223.3	211.2	202.0	190.7	186.6	182.4	184.7	183.2	180.5	179.6	178.2	176.3	178.4	176.6	166.7	155.1	141.7	127.2	111.8	101.1	90.39	80.06	72.64	64.24	61.89	62.05	53.00	39.42	32.98	28.78	24.59	21.05	17.75	14.44	12.07	11.94	19.92	47.01	115.7	613.5	1634	254.3	18.34	2.921	2.431	2.262	2.123	2.079	2.107	1.867	1.851	1.926	1.675	1.759	1.625	1.567	1.538	1.687	1.695	1.535	1.424
505.0	243.3	295.9	410.6	371.7	356.0	748.5	3140	1382	416.7	398.1	380.7	358.7	318.5	280.8	247.8	225.9	206.5	191.7	183.6	177.0	168.6	167.9	168.2	167.6	166.1	162.4	164.2	162.1	163.0	160.6	152.8	143.0	129.0	116.8	105.6	94.09	85.65	76.28	68.46	61.24	55.28	55.49	55.76	42.03	32.76	28.80	25.06	21.39	18.10	14.81	12.53	10.86	11.12	16.73	30.99	150.5	838.4	1435	230.4	11.24	2.722	2.422	2.090	1.988	1.943	1.866	1.711	1.911	1.696	1.668	1.550	1.499	1.492	1.540	1.564	1.374	1.350
510.0	229.3	250.9	336.9	385.7	320.9	408.6	1725	2756	607.9	357.1	343.9	316.7	284.2	251.8	218.5	199.4	182.4	170.8	162.1	156.2	150.2	146.9	146.1	147.5	145.8	143.8	144.5	144.2	144.4	143.0	136.3	127.8	114.4	106.0	94.97	86.02	78.28	70.10	63.92	57.18	51.02	47.81	50.22	45.58	35.81	28.58	24.38	21.36	17.76	15.22	12.93	11.06	9.717	9.895	12.40	38.46	203.8	669.0	1079	593.7	17.79	2.853	2.051	1.961	1.774	1.802	1.641	1.604	1.416	1.414	1.444	1.422	1.390	1.356	1.315	1.263	1.278
515.0	212.8	221.1	263.9	353.8	315.8	288.1	652.3	2715	1692	337.5	305.8	282.2	257.0	221.0	196.7	172.9	159.6	147.8	141.9	135.0	130.4	129.2	126.8	127.5	126.8	124.1	125.8	124.2	125.2	124.3	118.2	112.1	100.5	94.53	84.64	76.95	70.36	63.65	57.92	52.27	47.08	42.74	41.84	42.21	39.06	29.81	23.94	20.61	18.21	15.09	12.90	12.04	9.845	8.728	8.151	13.42	49.58	153.3	355.2	1083	759.1	25.02	2.451	2.105	1.807	1.733	1.542	1.363	1.368	1.242	1.309	1.381	1.241	1.270	1.177	1.124	1.268
520.0	174.4	202.5	225.0	291.2	324.5	264.3	351.4	1596	2864	388.2	274.4	257.3	233.8	206.1	176.7	152.8	142.3	132.3	128.6	121.6	119.7	116.3	113.4	113.9	112.4	111.4	111.5	112.5	112.0	113.1	106.9	101.9	92.61	83.47	76.72	70.23	65.38	58.41	53.22	47.93	43.76	40.38	36.85	37.39	39.29	31.54	24.41	20.53	17.23	15.42	12.78	11.96	10.31	8.628	7.637	8.102	15.56	38.13	84.75	437.4	1172	256.2	17.31	2.192	1.728	1.682	1.492	1.457	1.347	1.238	1.184	1.253	1.135	1.211	1.160	1.209	1.083
525.0	158.7	184.9	203.8	246.4	331.2	257.7	262.7	728.0	3216	1044	260.0	231.0	210.9	184.3	159.6	143.1	129.8	121.9	115.9	113.2	106.4	106.6	102.9	103.4	100.8	101.4	100.1	100.1	100.3	100.4	96.59	91.31	83.79	75.74	69.38	63.95	60.20	54.72	48.79	44.61	40.53	37.25	34.47	33.22	34.60	33.31	25.21	19.54	17.02	14.81	12.79	11.43	10.51	8.405	7.105	6.799	7.921	12.54	22.48	105.7	561.0	1040	225.7	8.725	1.942	1.633	1.385	1.371	1.186	1.203	1.158	1.200	1.094	1.027	1.157	1.179	1.130
530.0	150.0	164.1	177.4	193.9	278.3	259.5	221.1	339.2	1857	2561	418.1	208.4	185.8	163.0	143.2	124.5	117.2	108.4	102.4	96.01	93.89	91.69	88.21	89.97	89.79	87.51	87.15	88.71	88.22	87.00	84.92	80.02	73.66	68.24	62.05	56.93	52.65	48.55	44.77	40.86	37.06	34.23	30.90	29.27	28.28	29.79	26.70	20.40	16.44	14.15	12.14	10.82	9.572	8.436	7.337	6.433	6.003	6.850	8.536	26.84	135.5	464.4	765.4	446.8	16.85	1.991	1.527	1.251	1.160	1.186	1.067	1.043	1.024	1.022	1.000	1.011	0.986
535.0	129.6	143.3	158.5	158.7	216.4	263.2	200.1	224.0	631.9	2781	1375	187.8	165.8	139.3	125.6	107.6	101.0	92.45	87.38	83.05	82.26	77.77	76.36	77.23	76.51	75.86	74.46	76.01	75.83	75.70	71.88	69.33	65.01	59.25	54.60	49.49	46.27	42.42	39.56	36.84	32.81	29.66	27.43	26.71	24.38	23.80	24.38	22.21	16.05	13.37	11.30	9.785	8.807	8.043	7.634	6.675	5.457	5.290	5.309	8.893	33.03	106.4	241.8	743.1	553.4	23.20	1.843	1.447	1.205	1.112	1.134	0.894	1.012	0.948	0.894	0.738	0.872
540.0	121.7	133.8	136.0	143.9	160.7	249.4	201.3	180.3	283.5	1663	2458	252.2	147.5	124.4	111.1	97.95	88.68	81.64	78.06	75.91	70.35	68.78	66.44	67.48	68.10	67.41	64.58	65.28	67.09	66.96	63.70	61.76	57.62	52.88	48.20	43.61	41.79	38.38	34.78	33.03	30.11	27.40	24.89	23.58	22.08	21.28	21.21	21.62	16.79	12.66	10.49	9.696	8.104	7.501	7.111	6.632	5.787	4.685	4.502	4.906	10.13	26.17	57.15	285.2	808.3	249.6	15.36	1.571	1.280	1.063	1.020	0.949	0.903	0.954	0.818	0.777	0.823
545.0	135.1	117.1	123.8	129.1	131.1	202.6	214.9	162.2	181.6	693.9	3040	690.4	132.0	113.9	95.36	86.24	78.47	73.71	68.92	65.55	62.10	60.52	60.02	60.79	58.09	58.11	56.31	58.87	61.24	60.00	56.43	54.28	50.67	46.02	43.21	39.00	37.27	34.43	31.55	29.84	27.27	24.82	22.62	21.22	19.69	18.54	17.46	19.80	17.43	12.81	10.57	9.384	7.978	6.843	6.350	6.118	5.618	4.440	4.192	4.171	4.705	8.065	14.63	68.30	367.3	731.3	204.7	7.072	1.330	1.125	1.024	0.990	0.779	0.845	0.741	0.735	0.796
550.0	111.4	113.8	115.5	107.0	110.1	140.8	211.1	151.6	141.7	266.2	1755	2074	184.9	96.67	82.57	73.89	66.56	62.77	58.58	54.70	52.63	50.81	50.02	49.89	49.73	49.15	47.99	48.51	49.09	49.53	47.10	45.02	42.36	38.18	36.42	33.46	31.29	29.31	27.14	25.14	23.49	21.31	19.72	18.58	17.13	15.80	14.50	15.23	15.44	13.18	10.32	8.260	7.222	6.485	5.890	5.422	5.261	4.924	4.069	3.563	3.358	4.001	5.342	17.15	87.56	305.3	514.2	259.8	16.06	1.358	0.955	0.903	0.768	0.842	0.721	0.709	0.707
555.0	95.42	97.52	100.9	96.68	92.41	101.5	170.9	167.3	117.5	148.7	545.8	2516	854.1	85.70	69.45	62.35	56.25	51.55	47.88	45.07	43.27	41.65	40.16	41.07	39.93	39.64	39.74	39.50	40.24	39.35	38.43	38.30	34.44	31.51	29.71	28.58	25.35	24.12	22.60	20.94	19.15	17.77	16.32	15.65	13.88	13.26	12.24	11.61	11.45	11.99	10.53	7.646	6.153	5.638	5.429	4.716	4.556	4.432	3.864	3.474	2.911	2.887	2.914	5.500	21.16	69.68	154.1	453.6	261.5	21.40	1.070	0.835	0.816	0.736	0.749	0.764	0.585
560.0	86.96	92.90	89.08	81.12	78.68	86.37	130.0	177.1	108.1	110.9	204.2	1561	1768	129.4	61.03	52.43	46.87	43.91	39.57	38.39	37.01	35.79	34.76	34.22	34.32	33.46	33.30	33.68	33.78	33.65	33.88	31.90	29.17	26.78	25.18	23.01	21.95	20.33	19.31	18.05	16.39	15.46	14.45	13.24	12.66	11.78	10.51	9.501	8.921	9.794	9.721	7.586	5.880	4.909	4.714	4.359	3.915	3.548	3.813	3.448	2.713	2.351	2.456	2.827	6.139	16.99	36.12	168.8	467.8	224.4	12.78	1.120	0.851	0.760	0.679	0.616	0.657
565.0	87.09	81.28	87.00	77.68	70.27	74.91	93.22	171.6	117.3	95.64	112.5	611.9	2465	397.2	53.50	44.89	40.32	38.65	34.71	33.27	32.15	30.55	29.29	29.97	29.22	29.07	28.56	28.82	29.64	29.65	28.49	26.86	24.76	22.43	21.52	19.82	19.01	17.71	17.01	15.58	14.39	13.43	12.27	11.51	10.85	10.26	9.590	8.395	7.698	7.852	8.738	7.902	5.662	4.487	4.413	4.034	3.851	3.355	3.191	3.368	2.558	2.392	1.991	2.162	2.718	5.144	9.422	40.29	203.2	447.2	160.0	5.116	0.849	0.687	0.604	0.671	0.700
570.0	88.10	82.97	85.49	66.13	62.61	62.00	70.20	122.9	138.1	85.59	86.13	204.4	1495	1471	95.23	38.93	33.80	31.68	27.76	27.07	26.09	24.84	24.24	24.50	24.33	22.97	23.55	23.50	23.40	23.80	23.03	22.30	20.17	18.63	17.39	16.52	15.46	14.34	13.17	12.66	12.08	11.01	10.20	9.894	9.047	8.285	7.867	7.120	6.340	6.133	6.393	6.661	5.799	4.394	3.738	3.492	3.323	3.058	2.751	2.700	2.780	2.354	1.911	1.953	1.937	2.402	3.414	10.19	48.23	175.3	304.7	148.1	14.34	0.904	0.636	0.607	0.573
575.0	83.01	79.31	77.54	57.09	54.84	52.33	56.72	79.15	142.8	91.75	74.15	101.1	441.8	1937	542.9	34.13	27.08	25.20	22.99	21.68	21.48	20.51	19.53	19.88	19.39	18.80	19.19	18.63	18.30	19.38	18.36	17.50	16.34	14.58	13.89	13.43	12.62	11.75	11.44	9.991	9.770	8.647	8.008	7.596	7.460	6.966	6.367	6.013	5.714	4.800	4.694	5.057	5.418	4.402	3.308	3.012	2.866	2.730	2.373	2.293	2.361	2.451	1.878	1.786	1.618	1.732	1.778	3.476	11.97	40.06	87.26	247.8	220.9	18.17	0.854	0.796	0.588
580.0	77.33	79.12	73.57	54.97	51.67	45.66	50.95	60.41	117.5	112.4	72.06	74.75	146.1	1233	1228	57.28	24.02	20.72	20.37	18.82	18.24	17.52	16.56	16.33	15.99	15.72	16.30	15.90	15.52	15.76	15.35	15.17	13.62	12.84	12.07	11.40	10.84	10.18	9.199	8.632	8.405	7.928	7.166	6.787	6.512	5.894	5.674	5.142	4.872	4.143	4.049	3.860	4.632	4.119	3.475	2.743	2.472	2.116	2.312	2.094	1.914	2.251	2.148	1.505	1.589	1.677	1.524	1.881	3.755	9.811	20.58	88.35	282.7	161.3	9.495	0.689	0.623
585.0	78.89	70.25	71.79	51.64	48.05	42.04	47.23	52.71	86.83	128.2	71.49	65.99	74.05	471.3	1769	136.4	21.56	19.16	17.94	16.55	14.94	15.17	14.75	14.04	13.63	13.55	13.62	13.50	13.41	13.27	13.12	12.28	11.71	11.17	10.38	9.796	9.297	8.748	7.857	7.558	6.995	7.265	6.316	5.798	5.590	5.031	4.933	4.722	4.243	3.592	3.676	3.259	3.551	3.941	3.434	2.621	2.447	2.106	2.073	1.952	1.685	1.909	2.104	1.746	1.435	1.545	1.428	1.471	1.711	3.101	5.506	21.18	115.6	267.8	104.3	3.866	0.608
590.0	74.70	70.18	62.70	49.92	42.09	41.75	42.04	44.68	64.71	121.8	93.11	65.47	58.90	145.4	1080	854.3	47.33	16.37	14.79	13.96	12.73	12.60	11.93	11.93	11.67	11.17	11.09	11.08	11.21	11.17	10.67	10.13	9.803	8.937	8.507	8.050	7.462	6.891	6.514	6.218	5.529	5.494	5.266	5.008	4.673	4.496	4.215	3.906	3.398	2.978	2.990	2.585	2.754	2.963	3.411	2.914	2.287	1.801	1.737	1.756	1.513	1.613	1.624	1.781	1.570	1.398	1.343	1.215	1.358	1.499	1.956	5.494	27.27	99.73	181.0	106.9	12.97
595.0	78.82	75.13	61.75	49.14	39.75	37.77	38.59	45.33	53.91	90.52	120.2	67.99	57.20	65.07	310.2	1282	287.8	15.94	12.62	11.53	10.28	10.13	9.621	9.407	9.325	8.942	8.583	9.220	9.388	8.997	8.663	8.197	7.796	7.325	6.630	6.612	5.949	5.744	5.403	5.115	4.724	4.382	4.061	4.025	3.924	3.716	3.376	3.133	2.807	2.668	2.333	2.340	2.203	2.122	2.657	2.577	2.457	1.825	1.647	1.434	1.407	1.342	1.303	1.300	1.499	1.459	1.131	1.034	1.082	1.049	1.212	1.840	6.746	22.88	49.84	146.3	142.4
600.0	75.96	76.45	66.90	47.85	37.64	37.61	41.69	50.26	53.19	77.19	132.1	80.54	61.25	51.70	99.53	853.5	776.1	28.21	10.89	9.742	8.979	9.129	8.845	7.777	7.764	7.836	7.559	8.004	8.041	7.695	7.255	6.762	6.988	6.266	5.751	5.596	5.457	4.875	4.864	4.474	3.843	4.090	3.605	3.479	3.424	3.128	2.737	2.667	2.424	2.200	2.087	1.960	1.832	1.896	1.907	2.389	2.197	1.805	1.411	1.366	1.237	1.205	1.339	1.219	1.417	1.446	1.269	1.205	1.022	0.911	0.904	1.042	2.158	5.657	11.84	49.86	166.1
605.0	80.62	83.96	69.10	52.10	44.66	40.73	49.44	56.37	62.84	84.28	140.9	121.2	82.90	63.98	63.76	341.6	1142	91.60	10.91	8.545	8.030	7.723	7.472	6.460	6.670	7.211	6.220	6.491	6.271	7.111	6.452	5.935	5.819	5.102	5.022	4.936	4.363	4.303	4.078	3.678	3.493	3.624	3.230	3.073	2.947	2.849	2.479	2.335	2.261	1.818	1.879	1.796	1.603	1.648	1.562	1.935	2.263	2.060	1.355	1.301	1.202	1.140	1.132	1.186	1.168	1.255	1.317	1.217	0.976	0.982	0.885	0.974	1.181	1.841	3.203	11.99	63.94
610.0	92.62	93.85	73.24	56.42	50.27	49.54	61.79	73.69	91.12	117.7	160.9	191.4	134.8	101.6	84.92	135.6	772.0	595.1	26.06	7.577	6.599	6.182	6.233	5.768	5.746	5.688	5.386	5.429	5.182	5.510	5.085	4.774	4.973	4.132	4.289	4.048	3.672	3.476	3.334	2.919	2.932	2.934	2.596	2.432	2.404	2.283	2.259	1.977	1.894	1.662	1.615	1.553	1.404	1.361	1.254	1.486	1.843	1.886	1.605	1.296	1.198	1.210	1.160	1.338	1.280	1.186	1.380	1.462	1.212	1.130	1.016	0.934	0.996	1.148	1.321	3.319	15.20
615.0	84.52	100.1	85.58	58.33	52.28	50.15	66.52	84.67	103.4	133.1	160.6	206.6	175.6	120.6	96.70	88.67	264.2	906.2	95.69	6.581	5.830	5.355	4.845	4.964	4.785	4.659	4.299	4.240	4.182	4.604	4.347	4.031	3.828	3.418	3.285	3.340	3.164	2.915	2.578	2.671	2.471	2.281	2.159	1.863	2.027	1.865	1.868	1.821	1.623	1.396	1.472	1.219	1.191	1.301	1.149	1.110	1.425	1.540	1.624	1.348	1.260	1.107	1.106	1.083	1.151	1.186	1.280	1.489	1.343	1.172	1.111	0.944	0.924	1.003	0.998	1.349	4.011
620.0	88.26	99.25	83.84	65.98	54.25	55.99	66.88	87.19	99.71	131.1	152.4	186.2	186.5	122.3	99.37	74.14	113.5	626.7	507.0	12.78	5.399	4.548	4.230	4.383	4.248	3.814	3.921	3.988	3.584	3.608	3.402	3.429	3.369	2.974	2.985	2.832	2.788	2.688	2.271	2.218	1.923	1.781	1.910	1.688	1.712	1.695	1.687	1.641	1.487	1.264	1.257	1.119	1.098	1.215	1.034	1.060	1.136	1.299	1.537	1.386	1.116	1.126	1.084	1.134	1.091	1.182	1.111	1.301	1.406	1.305	0.939	1.013	0.883	0.955	0.905	1.077	1.495
625.0	92.66	98.46	95.63	64.28	54.64	55.39	67.30	88.56	98.63	122.2	151.0	166.0	188.5	130.0	99.19	73.06	77.83	261.9	795.3	58.76	4.786	4.182	3.547	3.780	3.750	3.287	3.175	3.260	3.000	3.230	3.012	3.239	2.802	2.719	2.622	2.353	2.291	2.255	2.122	1.925	1.870	1.605	1.558	1.358	1.501	1.465	1.402	1.384	1.238	1.131	1.110	1.078	1.005	1.048	1.036	1.002	1.074	0.991	1.298	1.365	1.177	1.011	1.004	1.055	1.030	1.058	1.258	1.230	1.135	1.257	1.130	0.885	0.990	0.854	0.843	0.898	0.946
630.0	86.02	103.6	91.81	69.56	56.56	55.95	70.13	81.30	95.48	119.3	142.7	155.6	173.4	140.5	99.97	72.23	70.09	93.09	548.8	402.0	13.00	3.863	3.349	3.322	2.865	2.990	2.734	2.826	2.799	2.652	2.591	2.583	2.354	2.104	1.931	2.065	1.977	1.795	1.770	1.635	1.583	1.527	1.315	1.312	1.353	1.316	1.225	1.238	1.094	0.979	0.907	0.968	0.923	0.900	0.848	0.877	0.905	0.939	1.003	1.147	1.087	1.072	1.064	0.972	1.033	1.043	1.044	1.037	1.051	1.170	1.206	1.065	0.931	0.837	0.764	0.798	0.789
635.0	94.61	105.8	95.18	72.04	59.17	56.83	66.13	82.38	93.17	115.7	136.7	153.6	158.3	152.4	106.7	74.90	68.56	50.21	163.6	653.9	73.26	3.780	2.835	2.738	2.310	2.525	2.349	2.462	2.274	2.325	2.155	2.110	1.822	1.970	1.771	1.583	1.655	1.501	1.419	1.381	1.211	1.211	1.127	1.082	1.051	1.142	0.965	1.068	1.015	0.874	0.850	0.813	0.803	0.872	0.706	0.749	0.813	0.780	0.877	0.964	1.016	0.976	0.967	0.881	0.885	1.022	0.984	1.038	1.058	1.016	0.957	1.129	0.966	0.838	0.824	0.779	0.768
640.0	97.95	98.16	96.85	71.35	56.09	66.61	68.34	77.95	93.44	111.6	134.2	148.7	151.2	152.6	115.4	77.09	69.23	42.60	49.96	475.5	347.0	7.374	2.766	2.317	2.369	2.227	2.299	2.096	1.906	1.916	1.991	1.787	1.960	1.662	1.569	1.561	1.457	1.369	1.320	1.175	1.174	1.097	1.148	1.134	0.993	0.940	1.061	1.033	0.981	0.766	0.747	0.862	0.794	0.845	0.776	0.801	0.750	0.759	0.875	0.916	0.950	0.963	0.921	0.933	0.885	1.072	0.909	1.011	0.897	0.955	0.961	0.999	1.063	0.928	0.771	0.757	0.703
645.0	94.84	103.7	99.91	66.36	62.67	57.50	67.68	77.30	86.62	103.7	129.9	145.3	143.4	139.5	122.4	79.15	68.04	40.33	23.13	194.8	575.9	39.73	2.547	2.220	2.122	1.998	1.992	1.635	2.068	1.643	1.643	1.660	1.630	1.473	1.426	1.440	1.324	1.366	1.193	1.065	1.141	1.088	0.978	0.995	0.949	0.859	0.872	0.873	0.861	0.706	0.700	0.688	0.714	0.667	0.739	0.673	0.745	0.668	0.749	0.836	0.903	0.928	0.975	0.939	0.875	1.004	0.966	0.860	0.966	0.973	1.024	0.940	1.014	0.976	0.876	0.740	0.680
650.0	101.5	97.97	104.4	72.01	58.56	53.40	63.16	74.32	82.19	97.08	117.4	137.2	136.8	124.5	119.7	77.02	65.00	38.25	17.66	59.31	542.5	183.0	3.432	2.209	1.909	1.836	1.890	1.604	1.809	1.570	1.575	1.473	1.477	1.356	1.316	1.490	1.141	1.258	1.019	0.932	1.198	0.925	0.951	0.797	0.842	0.842	0.906	0.925	0.931	0.634	0.724	0.613	0.643	0.536	0.659	0.653	0.701	0.680	0.666	0.726	0.784	0.791	0.933	0.892	0.836	0.882	0.929	0.847	0.991	0.955	0.992	0.900	1.029	0.934	0.934	0.761	0.663
