Sample:	'1
File name:	G2025070816–§’Ú«≈.FD3
Run date:	'14:50:40, 07/09/2025
Operator:	Administrator
Comment:	'

Instrument
Model:	F-2700 FL Spectrophotometer
Serial number:	23B8-004
ROM Version:	4J14000 07

Instrument parameters
Measurement type:	3-D scan
Data mode:	Fluorescence
EX  Start WL:	220.0 nm
EX  End WL:	600.0 nm
EX Sampling interval:	5.0 nm
EM  Start WL:	230.0 nm
EM  End WL:	650.0 nm
EM Sampling interval:	5.0 nm
Scan speed:	12000 nm/min
EX Slit:	5.0 nm
EM Slit:	5.0 nm
PMT Voltage:	700 V
Response:	Auto 
Corrected spectra:	Off
Contour interval:	50.000

Peak integration
Integration method:	Rectangular
Sensitivity:	1
Threshold:	1.000

Peaks
No.	ApexEX/EM(nm)	Height(Data)
1	225.0/605.0	82.64
2	230.0/345.0	6239
3	230.0/600.0	83.62
4	230.0/620.0	70.68
5	230.0/635.0	68.09
6	240.0/265.0	316.1
7	245.0/270.0	341.3
8	250.0/275.0	455.3
9	255.0/285.0	518.9
10	260.0/290.0	585.2
11	265.0/585.0	141.1
12	270.0/600.0	135.7
13	275.0/415.0	5811
14	275.0/430.0	5614
15	275.0/615.0	137.5
16	275.0/645.0	94.99
17	280.0/345.0	3193
18	280.0/625.0	119.0
19	285.0/640.0	96.19
20	335.0/415.0	3071
21	475.0/345.0	18.08
22	505.0/275.0	2.937
23	505.0/440.0	19.40
24	510.0/280.0	3.098
25	520.0/285.0	3.530
26	525.0/290.0	3.835
27	555.0/415.0	21.24
28	560.0/410.0	21.24
29	575.0/290.0	43.39
30	575.0/345.0	16.04

Data points
	220.0	225.0	230.0	235.0	240.0	245.0	250.0	255.0	260.0	265.0	270.0	275.0	280.0	285.0	290.0	295.0	300.0	305.0	310.0	315.0	320.0	325.0	330.0	335.0	340.0	345.0	350.0	355.0	360.0	365.0	370.0	375.0	380.0	385.0	390.0	395.0	400.0	405.0	410.0	415.0	420.0	425.0	430.0	435.0	440.0	445.0	450.0	455.0	460.0	465.0	470.0	475.0	480.0	485.0	490.0	495.0	500.0	505.0	510.0	515.0	520.0	525.0	530.0	535.0	540.0	545.0	550.0	555.0	560.0	565.0	570.0	575.0	580.0	585.0	590.0	595.0	600.0
230.0	48.08	751.5	1639	428.0	21.74	7.084	6.447	6.085	5.184	4.603	4.765	4.532	4.530	3.917	3.344	3.064	2.417	2.148	1.977	1.748	1.805	1.538	1.629	1.433	1.401	1.280	1.233	1.101	1.152	1.064	1.035	0.853	0.816	0.829	0.741	0.617	0.595	0.546	0.442	0.529	0.432	0.514	0.481	0.417	0.407	0.372	1.047	3.452	5.745	4.199	1.607	0.465	0.303	0.286	0.295	0.273	0.296	0.313	0.299	0.302	0.296	0.310	0.287	0.283	0.288	0.284	0.290	0.310	0.275	0.316	0.293	0.327	0.345	0.297	0.312	0.331	0.309
235.0	76.24	220.1	1221	1886	438.4	31.86	6.932	6.923	6.931	4.892	5.286	5.222	4.679	3.800	3.424	2.815	2.593	2.035	2.123	1.715	1.770	1.696	1.699	1.396	1.365	1.292	1.230	1.280	1.116	1.151	0.999	0.967	0.845	0.678	0.685	0.579	0.640	0.455	0.474	0.473	0.340	0.430	0.496	0.476	0.489	0.391	0.523	1.113	2.480	4.644	6.615	6.842	3.002	0.797	0.318	0.296	0.293	0.266	0.284	0.359	0.290	0.296	0.282	0.346	0.278	0.291	0.298	0.261	0.294	0.298	0.285	0.319	0.303	0.361	0.405	0.292	0.308
240.0	95.67	108.5	397.4	1872	2030	330.6	15.94	6.863	6.766	5.038	5.604	5.025	4.653	4.182	3.992	2.947	2.443	2.328	2.224	1.765	2.105	1.520	1.726	1.499	1.471	1.107	1.360	1.411	1.186	1.133	0.890	0.958	0.748	0.782	0.680	0.603	0.598	0.441	0.458	0.535	0.384	0.491	0.500	0.491	0.581	0.511	0.460	0.550	0.789	1.603	4.126	9.601	10.83	7.607	2.503	0.547	0.335	0.288	0.345	0.299	0.328	0.300	0.297	0.289	0.295	0.327	0.337	0.361	0.285	0.297	0.315	0.305	0.316	0.346	0.387	0.311	0.311
245.0	79.68	139.4	134.5	706.9	2615	1996	233.9	10.59	6.893	6.364	5.896	5.346	4.820	4.084	4.076	3.213	2.614	2.239	2.387	1.932	1.798	1.735	1.577	1.668	1.641	1.098	1.503	1.158	1.103	1.103	1.024	0.976	0.846	0.876	0.718	0.727	0.538	0.587	0.427	0.514	0.491	0.458	0.472	0.383	0.494	0.547	0.644	0.609	0.500	0.583	1.246	3.681	8.417	14.45	12.96	6.626	1.644	0.399	0.332	0.362	0.370	0.324	0.327	0.323	0.324	0.331	0.363	0.360	0.314	0.306	0.330	0.347	0.290	0.314	0.435	0.293	0.296
250.0	45.73	117.4	176.7	223.1	940.3	2541	2748	783.4	37.57	7.836	7.007	6.365	5.445	4.344	3.933	3.249	2.734	2.314	2.403	2.058	1.839	1.796	1.675	1.534	1.514	1.332	1.496	1.327	1.180	1.172	1.057	1.037	0.889	0.867	0.742	0.715	0.635	0.535	0.473	0.417	0.475	0.471	0.433	0.420	0.439	0.446	0.562	0.734	0.851	0.679	0.707	1.125	2.381	5.120	9.122	13.81	17.11	14.31	7.203	1.881	0.421	0.386	0.293	0.317	0.293	0.341	0.321	0.357	0.340	0.327	0.306	0.304	0.365	0.280	0.377	0.311	0.340
255.0	36.47	51.31	151.2	250.0	272.3	706.9	2846	4380	278.4	32.57	8.491	7.342	5.762	5.051	4.167	3.548	2.899	2.490	2.369	2.209	2.005	1.966	1.868	1.483	1.638	1.532	1.714	1.259	1.210	1.170	1.202	1.116	1.009	0.806	0.748	0.689	0.679	0.540	0.409	0.414	0.467	0.478	0.420	0.458	0.429	0.378	0.406	0.423	0.629	0.737	1.248	1.128	0.976	1.435	2.359	3.667	7.606	17.86	28.41	24.42	10.43	1.921	0.345	0.307	0.351	0.308	0.356	0.326	0.351	0.333	0.294	0.333	0.372	0.339	0.342	0.340	0.378
260.0	29.24	29.68	70.31	241.1	240.8	203.5	974.3	4548	4414	227.0	17.74	9.032	6.176	5.921	5.371	3.418	3.227	2.641	2.552	2.212	2.083	2.060	1.889	1.710	1.782	1.551	1.382	1.388	1.328	1.079	1.175	1.011	1.008	0.863	0.775	0.723	0.626	0.562	0.513	0.419	0.502	0.514	0.423	0.485	0.408	0.410	0.354	0.494	0.398	0.455	0.917	1.482	1.448	1.065	0.885	1.174	2.112	5.319	14.31	28.36	32.08	22.21	7.574	1.042	0.423	0.417	0.325	0.344	0.320	0.337	0.327	0.371	0.366	0.409	0.358	0.389	0.367
265.0	31.92	24.01	33.73	141.1	316.1	182.1	267.5	1785	6119	4175	170.0	11.00	8.191	6.386	5.368	3.764	3.293	2.841	2.671	2.385	2.172	2.068	1.884	2.092	1.966	1.470	1.562	1.399	1.286	1.325	1.311	1.055	1.024	0.927	0.735	0.726	0.575	0.487	0.567	0.479	0.544	0.545	0.456	0.509	0.437	0.440	0.438	0.397	0.419	0.392	0.486	0.909	1.610	1.927	1.262	0.747	0.902	1.534	3.792	9.533	22.21	39.01	31.60	18.86	4.090	0.532	0.379	0.351	0.365	0.377	0.320	0.366	0.333	0.416	0.344	0.368	0.377
270.0	51.61	39.90	40.50	63.35	198.7	341.3	236.4	462.6	2208	5713	4997	696.2	34.78	8.999	6.621	5.027	4.037	3.104	2.936	2.717	2.328	2.076	1.951	2.054	1.896	1.574	1.633	1.566	1.340	1.378	1.301	1.115	1.056	0.944	0.833	0.716	0.707	0.558	0.557	0.539	0.616	0.512	0.487	0.490	0.442	0.435	0.461	0.420	0.469	0.376	0.364	0.528	0.793	1.308	1.725	2.011	1.668	1.181	1.364	2.566	5.622	12.30	21.03	34.15	35.18	33.27	13.56	4.032	0.620	0.454	0.387	0.469	0.385	0.381	0.347	0.392	0.417
275.0	87.13	98.86	86.46	63.31	99.42	226.7	455.3	282.4	555.7	1537	5613	8722	927.2	27.27	9.207	6.155	4.822	3.774	3.213	3.029	2.486	2.341	2.039	1.900	1.906	1.645	1.623	1.588	1.586	1.385	1.426	1.183	1.181	0.940	0.886	0.866	0.770	0.608	0.606	0.601	0.593	0.583	0.505	0.495	0.506	0.608	0.561	0.619	0.595	0.494	0.484	0.498	0.558	0.722	0.924	1.400	2.367	2.937	1.882	1.284	1.791	3.187	5.124	8.460	12.50	30.73	56.02	32.43	20.77	3.906	0.529	0.476	0.459	0.432	0.445	0.439	0.408
280.0	158.7	193.4	163.1	101.5	95.89	142.8	376.0	381.5	262.7	441.5	1825	8677	7763	137.8	15.57	8.516	5.205	4.475	3.738	3.241	2.676	2.471	2.218	2.004	2.005	1.854	1.729	1.825	1.644	1.467	1.477	1.227	1.112	0.919	0.994	0.983	0.800	0.726	0.684	0.596	0.558	0.726	0.660	0.646	0.729	0.708	0.722	0.768	0.721	0.629	0.614	0.526	0.574	0.646	0.728	1.002	1.408	2.346	3.098	2.690	1.478	1.344	1.732	2.575	3.456	8.452	22.44	43.12	65.08	31.15	15.09	1.508	0.533	0.466	0.451	0.426	0.412
285.0	256.1	280.6	248.4	149.4	117.6	134.0	225.8	518.9	325.2	255.5	571.4	3136	9999.9	5713	99.90	11.40	6.837	5.265	4.233	3.367	2.957	2.995	2.237	2.276	2.167	1.720	1.822	1.842	1.588	1.532	1.570	1.308	1.181	1.000	1.162	1.108	0.929	0.870	0.804	0.640	0.590	0.765	0.701	0.852	0.899	0.865	1.033	1.037	1.055	0.820	0.678	0.736	0.775	0.731	0.816	0.874	0.939	1.372	2.214	3.279	3.530	2.000	1.390	1.459	1.730	2.878	6.098	12.75	32.43	58.42	69.96	26.58	8.360	0.895	0.483	0.436	0.410
290.0	363.1	447.2	389.2	254.6	179.3	173.8	204.4	338.1	585.2	519.7	457.2	1009	3477	7798	6745	413.5	23.26	7.390	5.407	4.044	3.529	3.177	2.850	2.437	2.464	1.884	1.716	1.788	1.622	1.557	1.492	1.454	1.239	1.197	1.207	1.223	1.029	0.935	0.911	0.766	0.761	0.832	0.806	0.954	1.072	1.341	1.330	1.440	1.437	1.208	1.059	1.010	0.886	0.958	0.912	0.974	1.021	1.206	1.559	1.986	2.858	3.835	3.670	3.034	2.186	2.331	2.939	4.545	8.979	17.14	31.92	43.39	40.29	46.31	17.69	7.352	0.923
295.0	458.0	578.4	546.5	368.9	272.2	240.5	270.6	326.5	470.1	869.6	857.0	736.8	1184	2189	6333	6450	566.6	20.34	7.584	5.359	4.412	3.703	3.212	2.597	2.553	2.169	1.912	1.851	1.652	1.802	1.497	1.262	1.230	1.174	1.340	1.201	1.164	1.031	1.060	0.847	0.863	0.866	1.005	1.129	1.306	1.466	1.745	1.791	1.817	1.584	1.443	1.317	1.296	1.222	1.283	1.315	1.426	1.593	1.745	1.884	2.195	2.494	3.369	5.031	5.163	4.227	3.579	3.687	4.543	6.075	9.127	11.57	13.20	31.20	60.88	72.14	28.23
300.0	551.6	699.4	664.0	489.9	350.9	333.8	363.4	386.6	548.6	850.0	1315	1014	878.0	903.9	2043	7832	5480	84.70	13.12	6.893	5.145	3.984	3.441	2.827	2.945	2.312	2.056	1.962	1.764	1.843	1.668	1.367	1.218	1.214	1.364	1.321	1.209	1.110	1.171	0.937	0.917	1.040	0.963	1.182	1.581	1.765	1.943	2.267	2.142	1.974	1.796	1.729	1.724	1.576	1.480	1.675	1.931	1.850	2.301	2.249	2.466	2.833	3.464	4.506	6.038	7.600	6.109	5.078	4.435	4.618	4.835	5.233	5.122	9.030	20.83	47.76	73.64
305.0	624.4	822.3	795.7	592.0	450.1	450.1	466.6	595.6	768.0	1013	1502	1605	1167	867.7	898.5	2856	9029	4323	67.13	9.702	6.828	4.782	3.763	3.207	3.145	2.552	2.430	2.187	2.039	1.929	1.592	1.414	1.274	1.175	1.350	1.398	1.226	1.204	1.125	1.173	0.994	1.147	1.225	1.427	1.566	1.839	2.327	2.557	2.332	2.135	2.064	2.220	2.045	2.004	1.955	2.080	2.280	2.570	2.856	3.285	3.338	3.739	4.357	5.169	5.922	7.893	9.092	8.437	6.813	5.836	5.542	4.824	4.456	4.788	7.033	13.59	29.95
310.0	675.5	926.3	922.7	714.4	578.6	579.5	667.8	793.8	974.5	1233	1565	1904	1779	1161	855.0	1054	3143	6489	5644	295.5	19.31	6.607	4.856	3.876	3.471	2.898	2.468	2.385	2.178	1.973	1.806	1.580	1.511	1.306	1.381	1.403	1.280	1.218	1.192	1.194	1.199	1.362	1.329	1.557	1.667	2.143	2.508	2.777	2.857	2.538	2.373	2.690	2.392	2.347	2.448	2.754	2.912	3.193	3.676	4.196	4.359	4.802	5.396	6.418	6.961	7.701	8.553	9.206	9.749	9.079	7.953	6.308	5.594	5.325	4.876	5.834	9.238
315.0	786.9	1111	1076	847.3	688.6	691.1	799.2	940.9	1123	1376	1683	1907	2000	1710	1064	795.4	1128	1789	5023	7231	440.8	16.45	6.575	4.973	4.098	3.443	2.827	2.647	2.304	2.076	1.946	1.663	1.508	1.507	1.484	1.419	1.437	1.216	1.255	1.269	1.118	1.188	1.426	1.700	1.974	2.591	2.768	3.330	3.401	2.946	2.954	3.250	2.901	2.806	2.903	3.087	3.403	3.923	4.362	4.617	4.917	5.274	6.257	6.793	7.294	8.235	8.564	9.183	9.274	9.658	10.70	9.363	7.579	6.436	5.363	5.004	5.301
320.0	1012	1497	1443	1096	835.1	798.8	912.9	1052	1257	1539	1845	2068	2082	2028	1472	914.3	807.7	723.3	1516	6472	4161	66.04	12.11	7.326	4.917	4.118	2.930	2.954	2.458	2.263	2.222	1.894	1.645	1.611	1.553	1.473	1.420	1.393	1.322	1.217	1.220	1.408	1.632	1.746	2.388	3.171	3.947	4.527	4.609	3.729	3.549	3.767	3.659	3.271	3.382	3.652	4.101	4.302	4.941	5.369	5.567	5.811	6.815	7.313	8.289	8.961	9.215	10.16	10.47	10.50	10.77	11.09	10.54	8.640	7.002	5.979	5.154
325.0	1455	2315	2381	1790	1160	973.8	1049	1204	1424	1723	2042	2329	2302	2159	1911	1221	865.3	586.4	568.8	2143	6728	3507	55.40	10.84	6.223	4.355	3.680	3.520	2.859	2.451	2.395	2.097	1.564	1.626	1.615	1.418	1.599	1.581	1.472	1.414	1.321	1.527	1.892	2.463	3.239	4.568	5.780	7.012	7.039	6.265	5.610	5.516	4.797	4.224	4.133	4.240	4.706	4.852	5.258	6.135	6.152	6.902	7.588	8.471	9.510	10.17	10.34	10.86	11.56	11.69	11.30	11.46	11.42	11.69	10.12	7.981	6.562
330.0	2107	3507	4055	3288	1986	1348	1282	1429	1669	2003	2402	2684	2696	2491	2173	1754	1209	759.2	534.3	767.7	2254	5000	4701	1022	21.69	6.789	4.801	3.772	3.375	2.892	2.608	2.207	1.877	1.741	1.748	1.598	1.535	1.522	1.515	1.542	1.506	1.821	2.408	3.312	4.544	6.334	8.136	10.89	11.87	10.80	10.20	10.07	8.239	6.400	5.582	5.544	5.792	5.960	6.247	7.316	7.331	8.106	8.764	9.837	10.57	11.51	12.08	12.85	13.22	13.53	13.54	13.07	12.88	12.24	12.42	11.48	10.15
335.0	2496	4351	5259	4513	2931	1833	1565	1656	1885	2234	2651	2958	2996	2821	2431	2008	1675	1093	707.2	663.0	890.8	1487	4098	6505	405.3	23.12	7.316	4.825	3.917	3.261	2.943	2.545	2.108	1.869	1.898	1.810	1.624	1.665	1.683	1.796	1.740	2.075	2.848	3.715	5.324	7.581	10.24	13.57	14.98	13.95	13.61	14.78	12.01	9.936	7.952	6.854	6.890	7.133	7.180	7.639	8.286	9.094	10.14	11.02	11.81	12.57	13.41	13.95	14.84	15.02	14.99	14.82	14.77	13.54	13.75	12.36	11.95
340.0	2754	4771	5928	5159	3428	2180	1742	1787	2018	2375	2777	3083	3139	2973	2592	2135	1804	1402	928.3	752.4	689.1	725.4	1414	5424	3513	332.6	14.68	6.601	5.113	3.447	3.101	2.509	2.222	1.927	1.817	1.892	1.708	1.843	1.694	1.810	1.864	2.252	2.905	3.908	5.832	8.394	10.82	14.61	16.79	15.77	16.07	17.41	13.69	11.64	9.348	7.666	7.845	7.697	7.872	8.324	8.972	10.11	10.74	11.44	12.19	13.17	14.11	14.79	15.22	15.45	15.86	15.73	15.58	14.78	13.90	13.14	12.63
345.0	2817	4849	6239	5513	3664	2352	1849	1866	2093	2440	2813	3099	3193	3036	2681	2222	1821	1553	1163	868.0	727.4	635.4	696.9	1858	5476	3215	52.39	10.51	6.232	4.208	3.596	2.652	2.341	2.102	1.885	1.933	1.879	1.701	1.617	1.655	2.038	2.299	2.820	4.087	5.921	8.613	10.77	15.30	17.38	16.94	16.92	18.08	15.03	12.56	9.951	8.812	8.143	8.285	8.674	8.953	9.291	9.760	10.83	11.85	12.69	13.32	14.16	15.30	15.37	15.76	15.87	16.04	15.71	15.71	14.63	13.41	12.91
350.0	2675	4648	5998	5509	3827	2549	2021	2016	2178	2448	2776	3009	3095	2974	2684	2286	1897	1602	1405	1140	901.0	766.2	659.2	777.7	1833	4008	3984	1021	20.56	6.249	4.178	3.072	2.726	2.205	1.982	1.994	1.831	1.824	1.659	1.716	2.005	2.334	2.922	3.850	5.479	7.973	10.59	14.51	16.70	16.23	16.68	17.88	15.65	13.17	10.67	9.258	9.237	8.885	9.289	9.142	9.540	10.31	10.92	11.60	12.66	12.93	13.93	14.67	14.74	15.29	15.73	15.59	15.58	15.54	14.75	14.26	13.62
355.0	2558	4263	5555	5269	3849	2675	2181	2123	2251	2437	2699	2899	2968	2890	2663	2343	2001	1721	1520	1433	1193	958.3	796.2	655.0	720.8	1110	2867	5471	389.5	22.91	6.556	4.119	3.147	2.439	2.202	1.968	1.845	1.968	1.640	1.874	1.845	2.438	2.901	3.656	5.338	7.456	10.02	13.41	15.59	15.11	15.47	17.19	15.39	13.03	11.10	9.412	9.858	9.425	9.580	9.906	10.04	10.35	11.45	12.04	12.50	12.69	13.45	13.50	13.92	14.94	15.19	15.12	15.05	15.45	14.54	14.34	13.86
360.0	2345	3959	5062	4956	3787	2717	2264	2227	2296	2467	2669	2825	2878	2817	2626	2360	2082	1831	1641	1542	1434	1154	928.7	720.1	560.8	497.6	858.3	3975	4993	337.4	15.89	5.622	3.756	2.813	2.459	2.039	2.068	1.975	1.796	1.921	1.773	2.136	2.687	3.460	4.724	6.838	8.785	12.57	14.32	14.00	14.49	16.47	14.63	13.13	11.34	9.928	10.27	9.868	9.756	10.02	10.54	10.85	11.39	12.01	11.58	12.55	13.13	13.48	14.01	14.03	15.01	14.64	14.66	15.42	14.53	14.40	13.78
365.0	2133	3647	4713	4693	3659	2726	2327	2298	2345	2491	2645	2752	2786	2742	2577	2362	2131	1940	1762	1637	1574	1387	1079	833.6	616.1	431.0	376.3	1209	4721	3112	51.43	9.482	5.157	3.736	2.704	2.298	2.228	1.899	1.869	1.845	1.931	2.092	2.671	3.356	4.854	6.454	8.469	11.20	12.99	13.03	13.74	15.32	14.48	12.85	11.47	10.45	10.76	10.42	10.44	10.13	10.39	11.43	11.38	11.63	11.90	12.37	12.68	13.09	13.09	13.63	14.28	14.31	14.59	15.12	14.36	14.54	14.61
370.0	1995	3268	4294	4320	3541	2794	2439	2377	2396	2483	2607	2679	2692	2641	2517	2355	2196	2045	1921	1810	1698	1594	1350	1034	764.5	533.0	369.0	457.4	1414	3390	3739	1033	20.00	5.708	3.575	2.843	2.494	1.940	1.855	1.816	1.981	2.287	2.617	3.339	4.321	5.927	7.737	10.08	11.62	11.85	12.74	14.56	13.68	12.72	11.52	10.73	10.96	10.54	10.71	10.76	10.80	11.36	11.45	11.90	12.12	12.00	12.33	12.54	12.56	13.21	13.46	13.80	14.08	14.49	14.16	14.63	14.64
375.0	1826	2978	3837	3991	3434	2853	2507	2425	2430	2482	2566	2628	2606	2558	2459	2335	2213	2129	2043	1964	1848	1714	1558	1283	950.7	693.6	476.6	384.8	504.1	898.1	2397	4914	346.1	23.16	6.531	4.261	3.148	2.444	2.023	1.848	1.934	2.210	2.600	3.171	4.056	5.504	7.004	9.366	10.55	10.80	11.64	13.63	13.13	12.48	11.51	10.49	11.35	10.82	11.24	10.72	10.87	10.94	11.70	11.82	12.27	11.99	12.53	12.13	12.72	12.78	13.32	13.25	13.95	13.76	14.29	14.17	14.46
380.0	1709	2790	3596	3757	3349	2853	2547	2448	2429	2478	2530	2578	2558	2507	2414	2306	2219	2167	2103	2036	1930	1799	1629	1444	1120	820.3	599.8	446.8	369.0	371.7	709.9	3300	4253	298.0	17.26	7.473	4.960	3.491	2.325	2.028	1.941	2.006	2.465	3.119	3.690	4.980	6.463	8.774	9.989	10.05	10.75	12.75	12.69	12.34	11.32	10.41	10.94	11.00	11.29	11.06	11.06	10.93	11.27	11.14	12.56	11.87	11.89	11.96	12.69	12.49	13.41	12.77	13.60	13.52	14.15	14.21	14.37
385.0	1615	2574	3344	3523	3251	2841	2588	2481	2455	2499	2550	2569	2529	2487	2384	2281	2209	2171	2138	2089	1993	1862	1701	1522	1282	956.6	716.4	547.1	418.5	320.3	323.2	992.2	3683	2625	228.2	16.85	9.419	5.276	3.103	2.426	2.087	2.298	2.409	2.871	3.731	5.021	6.196	7.896	9.453	9.281	10.35	12.55	12.21	11.77	11.36	10.85	11.08	11.34	11.13	11.22	11.41	11.10	11.41	11.89	12.01	11.91	11.44	12.18	12.67	12.60	13.04	13.11	13.00	14.05	14.28	13.81	14.44
390.0	1555	2435	3144	3348	3193	2887	2677	2568	2562	2622	2700	2735	2684	2604	2462	2329	2232	2184	2165	2142	2079	1989	1838	1654	1471	1236	960.5	762.3	610.4	473.5	369.2	441.9	1136	2594	2887	841.6	29.03	16.00	7.280	3.552	2.310	2.378	2.598	2.960	3.925	4.837	5.718	7.706	8.801	8.939	9.668	12.08	11.58	11.96	11.56	11.08	11.74	11.71	11.90	11.51	11.83	11.20	11.82	11.75	12.09	12.14	12.07	12.34	12.45	12.71	13.00	13.27	13.57	13.73	13.54	13.55	14.51
395.0	1498	2282	3025	3252	3171	3010	2830	2791	2844	3015	3196	3273	3200	3042	2796	2545	2347	2249	2242	2249	2229	2190	2089	1954	1775	1609	1410	1168	981.2	820.6	678.3	571.7	575.7	865.2	1900	3683	1169	38.78	19.03	7.229	3.595	2.934	2.855	3.236	3.842	5.044	5.957	7.402	8.480	8.800	9.645	11.93	12.15	12.25	12.24	12.27	12.41	12.54	12.24	12.69	12.25	12.48	13.13	13.24	14.02	13.66	13.70	13.54	13.84	14.56	14.34	14.56	14.90	14.82	14.82	14.32	14.87
400.0	1427	2269	2896	3184	3198	3092	3048	3059	3238	3576	3892	4018	3952	3696	3300	2885	2527	2356	2360	2381	2422	2433	2403	2318	2166	2010	1871	1647	1424	1251	1065	891.0	733.2	681.4	862.1	2603	3445	275.3	35.53	13.12	5.241	3.886	3.274	3.307	4.219	5.123	5.926	7.396	8.553	8.661	9.721	12.35	12.44	12.86	13.00	12.74	13.18	13.24	13.34	13.38	13.43	13.82	14.41	15.15	15.70	15.47	15.33	15.96	16.66	16.55	16.33	16.83	16.40	16.08	15.84	15.87	16.05
405.0	1405	2168	2875	3156	3265	3222	3252	3374	3679	4237	4696	4915	4782	4433	3892	3268	2756	2502	2483	2543	2618	2692	2731	2710	2600	2465	2328	2168	1933	1720	1523	1300	1056	878.5	793.1	1159	2963	2231	219.1	21.73	7.720	4.613	3.767	3.570	4.503	5.395	6.043	7.730	8.835	9.064	10.06	12.91	12.69	13.45	13.85	13.87	14.14	14.38	14.44	15.21	15.00	15.61	16.46	16.93	18.18	18.05	18.15	18.39	19.19	18.93	19.07	19.05	18.44	18.82	17.56	17.54	16.96
410.0	1376	2103	2740	3096	3278	3364	3476	3687	4107	4786	5453	5680	5569	5110	4427	3605	2941	2605	2565	2640	2771	2904	3002	3041	2994	2877	2739	2594	2424	2178	1962	1698	1393	1144	977.0	900.1	1204	2073	2229	669.8	19.05	6.318	4.797	4.272	4.753	5.455	6.181	8.036	8.961	9.086	10.31	13.26	13.44	14.52	14.10	14.38	15.04	15.57	15.66	15.95	16.17	17.15	17.84	18.82	20.14	20.16	20.80	20.70	21.24	21.19	20.96	21.15	20.69	20.07	19.25	18.40	17.73
415.0	1330	1986	2592	2980	3236	3386	3553	3770	4202	4896	5575	5811	5686	5196	4498	3627	2895	2554	2502	2578	2729	2877	3009	3071	3052	2951	2824	2677	2528	2341	2103	1813	1496	1229	1033	845.3	710.0	704.5	1319	2570	261.0	18.39	5.738	4.720	4.934	5.294	6.305	7.702	8.904	8.847	10.06	12.65	13.47	14.44	14.50	14.69	15.26	15.82	16.27	16.54	16.54	16.98	17.96	19.22	20.03	20.53	20.63	21.24	21.01	21.22	21.24	20.87	20.27	19.75	18.92	18.27	17.28
420.0	1297	1877	2505	2904	3153	3377	3585	3769	4167	4768	5425	5659	5527	5053	4350	3508	2808	2468	2408	2488	2624	2766	2906	2986	2965	2884	2774	2618	2469	2328	2103	1805	1484	1217	1016	813.2	584.8	381.9	420.1	1665	2092	224.3	10.77	5.336	4.986	5.500	6.144	7.652	8.555	8.541	9.597	12.56	13.37	14.15	14.42	14.65	15.31	16.31	16.18	16.02	16.43	17.09	17.27	19.00	19.40	19.98	20.05	20.76	19.96	20.89	20.60	20.75	20.18	19.35	17.99	17.31	16.52
425.0	1229	1857	2442	2841	3151	3404	3640	3833	4124	4704	5320	5551	5432	4975	4266	3416	2744	2398	2339	2421	2536	2690	2838	2922	2923	2840	2741	2603	2449	2304	2128	1818	1498	1238	1028	814.5	564.1	316.9	196.2	487.8	1827	1869	35.32	6.862	5.225	5.598	6.264	7.411	8.541	8.556	9.455	12.68	13.59	14.02	14.32	14.49	15.70	16.26	16.80	16.69	16.48	16.89	17.57	18.53	19.48	19.69	19.97	20.54	19.77	20.55	20.48	20.05	19.56	19.13	17.75	17.00	15.90
430.0	1252	1812	2418	2812	3202	3537	3836	4019	4272	4803	5388	5614	5474	5014	4297	3442	2730	2381	2298	2377	2488	2642	2804	2911	2932	2876	2799	2674	2534	2378	2214	1952	1610	1326	1107	881.4	608.9	335.6	165.6	165.5	517.6	1461	1658	501.4	14.31	6.432	6.432	7.820	8.346	8.639	9.573	12.49	13.50	14.34	15.12	15.28	17.02	17.50	17.50	17.44	17.08	17.35	18.15	18.66	19.63	19.54	20.05	20.40	19.90	20.47	20.40	19.74	19.74	19.33	18.15	17.18	16.00
435.0	1396	1814	2405	2840	3314	3725	4115	4240	4420	4852	5363	5609	5453	4991	4294	3428	2729	2357	2275	2336	2418	2575	2743	2858	2912	2867	2819	2697	2573	2437	2267	2029	1715	1408	1175	943.7	662.9	368.2	180.5	107.9	155.9	359.2	983.5	2053	240.5	16.21	7.444	8.305	8.419	8.748	9.625	12.58	13.57	14.56	15.57	16.45	18.11	18.20	18.55	18.64	18.20	18.27	18.40	18.70	19.49	19.93	19.84	20.38	20.05	20.82	20.20	19.66	19.84	20.00	17.79	16.69	16.37
440.0	1600	1852	2308	2830	3354	3820	4287	4359	4384	4707	5200	5426	5265	4796	4139	3329	2656	2299	2208	2254	2318	2451	2619	2736	2794	2767	2724	2624	2509	2383	2226	1980	1700	1414	1171	939.0	664.5	377.4	189.7	101.4	80.66	111.1	269.5	1415	1895	198.6	11.17	8.695	8.793	8.746	9.598	12.64	13.43	14.97	15.54	16.38	18.68	19.40	19.32	19.39	18.78	17.90	18.31	18.34	19.02	18.76	18.90	19.71	19.14	20.01	19.71	18.64	18.60	18.91	17.55	16.85	15.57
445.0	1681	1979	2277	2815	3368	3866	4303	4337	4307	4457	4844	5022	4886	4467	3869	3138	2522	2195	2109	2136	2174	2280	2428	2542	2597	2573	2547	2464	2363	2242	2100	1864	1598	1359	1118	893.6	635.4	372.2	196.3	108.4	70.11	60.33	85.11	406.8	1730	1607	29.99	10.14	8.885	8.752	9.354	12.35	13.46	15.04	15.17	16.68	18.40	19.21	19.11	18.75	18.05	18.08	17.56	17.68	17.72	17.98	18.06	19.06	18.10	18.74	18.85	18.27	17.82	17.21	16.07	15.65	15.12
450.0	1389	2334	2263	2714	3283	3850	4248	4235	4073	4053	4277	4433	4296	3966	3455	2820	2299	2030	1949	1948	1955	2025	2148	2245	2295	2281	2255	2189	2104	2010	1875	1665	1424	1213	1026	814.4	580.0	350.5	195.3	115.2	77.07	56.80	49.73	113.6	488.3	1283	1455	427.6	15.06	8.767	9.252	11.73	12.97	14.20	15.08	16.39	18.34	19.19	19.05	18.28	17.51	17.18	16.17	16.16	15.93	16.01	16.10	16.17	16.12	16.55	16.54	16.35	15.93	15.68	14.59	14.71	13.99
455.0	1081	2345	2545	2560	3144	3670	4100	4061	3787	3655	3788	3891	3757	3484	3044	2522	2084	1849	1775	1740	1729	1775	1873	1964	2011	2006	1977	1928	1864	1783	1670	1489	1275	1075	923.3	755.2	536.7	332.9	195.8	124.2	87.43	63.75	48.37	53.53	130.3	311.0	817.0	1682	198.0	15.63	9.275	11.17	12.70	14.01	14.41	15.94	17.61	18.23	18.18	17.55	16.73	15.54	14.98	14.89	14.67	14.46	14.50	14.43	14.30	14.37	14.71	14.07	13.85	13.69	13.09	13.04	12.63
460.0	960.2	1959	2951	2494	3014	3552	3939	3897	3570	3381	3470	3552	3411	3184	2773	2312	1914	1714	1642	1610	1572	1603	1696	1774	1817	1818	1799	1756	1706	1637	1539	1377	1181	995.2	851.1	709.5	517.9	323.2	196.3	129.7	92.57	69.92	52.98	44.37	53.84	90.31	218.4	1096	1451	154.5	12.69	11.43	12.26	13.07	13.89	15.13	16.84	17.42	17.76	17.15	15.98	14.73	14.34	13.61	13.21	12.92	13.10	13.09	13.24	13.46	13.30	13.03	12.55	12.79	12.26	11.99	11.91
465.0	903.7	1567	3079	2676	2853	3374	3787	3699	3326	3115	3165	3238	3124	2906	2536	2116	1770	1589	1530	1482	1440	1458	1541	1612	1651	1657	1643	1610	1567	1512	1423	1280	1099	929.7	791.3	658.2	502.8	319.6	197.2	131.9	97.58	74.08	57.58	46.07	40.91	43.43	67.51	313.2	1267	1185	122.6	12.24	11.48	12.39	13.26	14.49	16.05	16.87	16.98	15.55	15.37	13.60	13.23	12.54	11.98	11.93	12.11	12.36	12.23	12.74	12.36	11.69	12.00	12.23	11.51	10.92	10.80
470.0	819.7	1264	2396	3180	2701	3072	3440	3362	2988	2754	2751	2810	2707	2517	2213	1862	1565	1401	1346	1302	1252	1262	1322	1387	1426	1434	1422	1400	1368	1320	1246	1127	972.7	823.4	703.8	583.0	449.2	306.3	195.7	133.8	101.4	79.16	62.03	50.00	41.50	36.09	37.08	88.33	356.1	906.7	1025	347.2	16.91	11.81	12.19	13.18	15.04	15.70	15.68	14.51	13.87	12.94	11.81	11.33	10.67	10.54	10.69	10.87	10.82	10.99	11.01	10.51	10.50	10.64	10.13	9.912	10.14
475.0	745.7	1112	1681	3150	2937	2708	3065	2982	2625	2356	2335	2358	2269	2112	1863	1589	1353	1206	1166	1116	1063	1064	1110	1160	1184	1203	1191	1176	1148	1115	1056	955.0	830.1	707.1	603.7	502.8	387.2	275.3	193.3	134.4	101.8	81.21	66.37	53.52	44.33	37.54	32.84	40.02	96.03	218.6	512.8	1126	198.0	18.50	11.12	11.90	13.47	13.85	13.90	12.64	12.09	11.25	10.11	9.938	9.348	9.191	9.411	9.005	8.949	9.413	9.406	8.982	9.013	8.902	8.939	8.606	8.399
480.0	704.0	1024	1352	2517	3381	2558	2779	2693	2361	2098	2063	2060	1980	1850	1637	1405	1203	1088	1039	995.8	936.9	935.1	966.1	1009	1030	1043	1040	1026	1007	978.2	924.7	837.0	729.9	622.8	535.9	447.9	346.4	249.9	186.0	136.7	103.5	81.67	67.79	56.71	47.17	39.47	33.23	30.92	39.19	62.72	135.5	647.7	1043	178.6	13.75	11.05	12.70	13.06	12.53	11.86	11.13	10.34	9.052	8.878	8.374	8.356	8.237	7.995	7.725	8.554	8.063	8.244	7.847	7.643	7.652	7.247	7.486
485.0	631.0	946.5	1210	1888	3501	2669	2528	2442	2143	1889	1834	1839	1752	1640	1454	1255	1081	986.8	942.0	892.4	839.1	830.0	855.2	895.5	912.9	921.9	918.8	909.1	892.3	867.4	823.2	749.6	653.1	559.2	484.2	404.3	315.7	227.1	176.8	139.3	106.5	84.49	69.75	58.82	49.97	41.55	35.13	29.82	27.73	29.24	42.69	180.7	825.2	952.4	30.38	12.00	11.47	11.56	11.73	11.16	10.01	9.604	8.541	7.839	7.503	7.533	7.526	7.310	7.323	7.436	7.353	7.109	7.097	6.912	6.909	6.929	6.766
490.0	538.2	861.7	1089	1447	2695	3220	2328	2173	1881	1657	1591	1587	1516	1416	1258	1086	947.0	863.1	826.9	780.2	728.5	716.0	737.1	770.8	783.7	797.5	789.0	783.7	769.2	754.4	714.0	651.9	574.9	492.6	427.2	359.2	283.7	209.2	160.6	133.1	111.3	87.60	71.28	60.59	52.00	44.41	38.02	32.03	26.89	23.53	23.65	52.53	225.6	628.7	832.3	332.7	18.50	11.02	10.52	9.936	9.201	8.470	7.395	6.913	6.826	6.673	6.554	6.421	6.427	6.576	6.590	6.237	6.434	6.475	6.261	6.251	6.262
495.0	466.2	771.7	992.5	1224	1791	3253	2534	1885	1636	1451	1380	1372	1307	1199	1077	926.7	818.1	749.7	707.8	673.9	622.9	612.0	630.9	654.3	667.3	677.9	672.0	671.0	656.4	645.4	616.8	562.5	497.2	429.5	376.8	317.5	253.6	190.9	148.0	121.4	107.8	92.33	74.07	62.33	53.57	45.76	39.02	34.94	28.46	23.21	20.78	24.98	61.66	152.7	425.2	1028	227.0	19.83	9.501	8.689	8.193	7.458	6.707	6.220	6.026	5.674	5.524	5.483	5.662	5.787	5.918	5.575	5.487	5.677	5.514	5.189	5.441
500.0	416.5	669.8	920.0	1081	1404	2583	2998	1731	1461	1289	1228	1209	1149	1058	943.4	820.9	728.3	664.4	630.1	597.8	551.0	534.3	553.6	574.9	587.9	591.6	592.9	589.6	577.1	571.5	544.2	500.1	441.3	384.6	337.8	286.4	232.7	177.2	139.4	113.6	100.3	91.26	76.59	61.73	53.58	46.72	39.87	35.34	29.45	24.29	21.27	20.27	26.10	44.85	111.9	563.2	1002	196.2	13.29	8.148	7.519	7.056	5.945	5.785	5.537	5.060	4.955	4.937	4.971	5.088	5.309	4.990	5.177	4.780	4.870	4.983	4.964
505.0	383.0	612.3	839.9	993.8	1197	1850	3254	1827	1293	1132	1084	1070	1019	938.1	841.4	728.3	636.7	590.2	560.7	529.8	487.9	472.6	486.3	506.0	513.6	523.4	520.9	518.6	512.1	508.0	481.8	442.8	395.1	343.5	301.7	259.8	212.1	163.4	128.7	106.6	92.75	86.49	77.58	62.11	53.22	46.24	39.82	35.34	29.85	25.58	21.37	19.36	18.15	21.31	35.19	153.6	702.9	893.2	147.8	8.756	7.009	6.162	5.386	5.476	5.144	4.894	4.538	4.691	4.572	4.688	4.671	4.480	4.389	4.383	4.112	4.360	4.331
510.0	330.7	516.7	711.4	865.2	1017	1303	2469	2466	1175	971.6	915.9	902.4	854.2	789.6	710.9	618.9	548.9	498.8	472.9	450.4	414.5	399.0	411.5	425.3	432.8	436.0	436.9	431.3	428.5	422.8	406.3	372.8	334.9	292.7	257.5	221.0	184.0	145.4	116.6	97.96	84.58	76.89	71.32	63.53	53.82	45.62	39.33	34.46	29.83	26.04	22.49	19.42	17.09	16.62	18.71	43.99	187.5	532.1	708.6	275.5	15.04	5.839	4.966	4.618	4.450	4.516	4.059	4.111	3.889	4.014	3.832	3.886	3.861	3.896	3.817	3.742	3.711
515.0	287.7	428.5	588.8	751.3	877.7	1009	1445	2755	1456	828.6	764.7	753.9	706.9	646.3	587.2	511.1	453.0	414.6	394.1	369.2	343.6	333.4	337.4	349.8	355.9	357.0	358.1	356.7	352.2	349.0	335.2	307.6	277.3	245.3	215.8	186.6	157.6	127.2	103.1	88.42	77.87	68.13	62.73	59.61	53.86	45.24	38.29	34.00	29.09	25.62	21.68	20.26	17.14	15.80	14.87	19.70	51.07	127.8	295.6	749.5	228.3	17.08	4.626	4.013	4.020	3.656	3.692	3.421	3.285	3.600	3.280	3.373	3.355	3.458	3.265	3.163	3.104
520.0	254.0	370.4	499.6	656.1	793.2	857.1	1023	2138	2106	763.9	668.5	653.9	612.1	559.6	504.3	442.4	398.0	361.1	342.1	321.8	295.7	285.3	292.1	300.5	305.1	304.3	305.7	304.6	299.9	297.9	286.3	265.4	238.8	210.6	188.3	163.8	139.8	113.4	93.09	81.84	70.61	62.71	57.35	54.16	53.30	44.94	37.31	32.70	28.70	25.09	22.13	19.89	17.15	15.71	14.51	14.28	20.64	37.29	76.23	364.3	718.9	195.4	10.23	3.959	3.531	3.178	3.440	3.119	3.058	3.115	3.044	3.002	2.958	2.785	2.820	2.730	2.853
525.0	221.2	310.8	436.1	565.3	715.7	743.3	831.7	1318	2620	937.7	582.3	568.9	532.9	486.8	440.9	384.9	344.0	315.6	301.5	283.4	262.0	248.5	252.7	260.4	262.6	264.0	262.8	262.0	262.0	258.2	249.2	230.9	209.8	186.1	165.6	144.1	123.7	102.6	85.86	74.88	65.87	58.96	52.82	49.75	49.29	44.60	36.88	31.68	27.84	24.04	21.40	19.81	17.27	16.05	14.37	12.85	13.95	16.70	24.24	94.87	425.2	659.9	149.3	5.704	3.349	2.961	2.939	2.839	2.857	2.766	2.767	2.724	2.458	2.677	2.371	2.432	2.555
530.0	198.9	280.2	372.0	470.3	605.5	653.2	681.5	794.6	1920	1798	571.2	482.1	454.0	411.2	365.5	322.9	288.2	265.1	251.4	235.7	216.7	209.4	212.7	215.8	218.7	221.9	219.5	218.1	215.4	214.8	207.2	193.4	175.6	156.5	138.9	122.8	105.3	88.98	75.66	65.24	59.92	52.77	48.20	44.09	41.47	41.08	37.24	30.97	26.34	22.95	20.33	18.51	16.76	15.52	13.72	12.40	12.17	12.12	12.37	27.19	108.4	334.3	497.3	138.3	13.80	2.940	2.719	2.518	2.463	2.391	2.457	2.261	2.176	2.257	2.158	2.259	2.134
535.0	166.4	220.0	306.4	376.4	486.3	565.1	566.0	575.8	874.2	2305	985.0	404.7	372.8	336.7	300.8	265.2	240.1	218.0	206.0	192.9	179.7	171.5	174.4	177.6	178.7	179.6	178.8	177.0	177.2	174.9	170.4	156.8	143.7	129.2	113.7	102.6	89.06	75.98	66.06	57.08	52.14	46.56	42.68	39.31	35.69	35.17	34.37	30.47	25.24	21.41	19.03	16.92	15.11	14.36	13.42	11.98	11.25	9.886	9.762	11.92	29.56	79.28	170.1	465.8	231.2	17.09	2.547	2.271	2.107	2.065	2.095	1.952	1.992	1.814	1.975	1.864	1.738
540.0	147.8	210.5	262.5	334.3	408.8	496.4	490.7	462.8	508.1	1614	1746	384.0	317.5	295.6	259.1	227.8	203.3	188.6	177.4	168.2	153.6	148.0	147.7	152.1	153.9	152.8	150.6	150.5	151.7	148.4	144.4	134.0	123.6	110.1	99.27	88.45	77.12	67.17	58.08	52.42	46.31	41.89	38.27	34.44	32.54	30.14	30.11	28.87	24.17	19.97	17.98	15.53	14.10	13.29	12.83	12.01	10.79	9.073	8.576	7.842	11.32	21.79	41.97	196.1	491.0	195.1	10.72	2.202	1.991	1.711	1.848	1.659	1.646	1.764	1.549	1.564	1.637
545.0	126.9	183.1	231.3	280.2	331.5	426.8	451.8	402.0	379.4	800.8	2324	565.2	278.7	253.7	226.1	198.7	175.2	164.1	150.8	144.0	133.5	128.9	126.7	130.4	131.4	130.5	130.9	128.7	129.7	127.4	122.8	116.0	105.5	95.45	85.60	77.19	67.47	59.52	50.92	45.78	41.28	38.12	34.29	31.57	29.85	27.26	25.57	26.06	23.90	19.38	16.61	15.22	13.71	12.30	11.69	11.34	9.969	8.855	7.833	6.681	7.043	8.874	12.91	48.52	237.9	461.2	142.3	4.701	1.921	1.608	1.612	1.703	1.528	1.668	1.531	1.408	1.390
550.0	118.5	154.1	208.4	231.4	266.4	335.9	385.6	332.9	302.5	387.6	1502	1506	278.9	202.5	181.6	159.2	143.2	132.2	123.2	117.1	105.9	103.2	102.8	105.2	104.6	105.1	104.7	103.8	105.1	102.8	99.13	93.45	85.06	77.41	69.60	63.78	55.12	48.96	42.55	38.52	34.94	32.27	29.55	27.53	25.08	23.45	21.67	21.44	20.66	18.45	15.32	13.59	12.26	10.88	10.13	9.805	9.211	8.329	7.180	6.182	5.795	5.594	6.222	13.71	57.85	193.4	321.1	139.6	13.96	1.729	1.545	1.453	1.327	1.396	1.347	1.238	1.296
555.0	95.87	133.4	158.1	182.3	210.8	243.6	305.7	290.5	236.8	245.8	549.8	1944	638.1	161.3	143.1	125.3	111.0	103.9	98.77	90.05	82.99	79.64	81.49	82.26	82.74	82.13	81.75	81.66	80.32	80.28	78.65	73.03	67.34	61.25	54.98	50.03	44.39	39.14	34.53	31.64	29.59	26.41	24.70	22.53	21.24	19.49	18.50	16.91	16.59	16.26	14.45	11.59	10.72	9.296	8.890	8.633	7.921	7.515	6.685	5.811	4.830	4.479	4.116	5.573	15.00	45.21	95.15	271.7	217.7	17.57	1.629	1.307	1.204	1.104	1.170	1.070	1.057
560.0	87.81	124.8	141.1	155.1	168.9	191.6	239.2	266.0	200.6	192.6	257.2	1280	1310	160.8	119.9	103.5	93.36	84.53	82.60	74.75	70.69	65.89	67.79	68.48	66.61	68.19	66.27	65.38	66.38	64.85	63.99	59.44	56.17	49.85	45.86	41.47	36.79	33.12	29.55	26.72	25.15	22.66	20.92	19.72	18.41	17.02	15.43	14.48	13.98	13.33	13.27	11.19	9.337	8.404	7.494	7.381	7.149	6.469	6.134	5.443	4.314	3.771	3.420	3.429	5.372	12.06	23.25	98.22	294.7	166.4	10.28	1.304	1.084	0.929	1.042	0.937	0.970
565.0	82.83	108.8	129.7	132.8	140.0	168.5	187.4	236.3	182.8	161.5	172.3	543.4	1849	320.7	99.73	86.54	77.24	71.28	67.50	61.52	59.77	56.06	56.79	56.71	56.16	56.40	54.79	53.88	54.89	53.49	53.30	49.85	47.29	42.12	37.91	34.46	30.93	27.72	24.88	22.73	20.49	19.82	17.99	16.68	15.79	14.62	13.32	12.37	11.83	11.23	11.50	10.24	8.587	7.692	6.554	6.652	6.525	5.692	5.286	5.113	4.035	3.653	3.166	2.920	3.146	4.564	7.001	24.03	119.3	276.7	110.7	4.466	1.097	0.918	0.855	0.886	0.897
570.0	72.18	102.3	110.4	115.7	123.7	129.3	141.1	186.2	181.1	139.3	136.1	221.4	1151	1109	108.9	69.35	62.78	56.68	53.10	50.08	45.95	44.90	44.16	44.27	44.88	43.88	43.27	43.12	43.52	42.36	41.61	39.52	36.56	32.87	30.60	27.26	24.81	22.95	19.89	18.64	17.06	16.46	14.95	13.62	12.41	11.86	11.12	10.59	9.711	8.899	8.724	8.966	7.843	6.872	5.944	5.609	5.517	4.625	4.516	4.204	4.062	3.246	2.954	2.642	2.529	2.753	3.143	6.979	28.73	101.6	183.4	109.4	13.26	1.098	0.835	0.845	0.750
575.0	68.85	98.65	100.5	92.82	100.3	105.3	113.2	130.6	176.1	125.3	115.2	131.6	375.7	1451	419.7	56.78	49.24	44.56	42.79	39.87	36.42	34.99	33.84	34.12	34.35	34.67	32.66	33.05	33.48	33.28	32.06	30.40	28.00	26.19	23.71	21.87	19.11	17.71	15.84	14.89	13.92	12.98	12.53	11.13	9.763	9.674	8.966	8.523	8.035	7.318	6.715	6.957	6.905	6.031	5.013	4.703	4.483	4.090	4.038	3.563	3.443	3.265	2.908	2.435	2.271	2.085	2.223	3.110	7.730	24.11	49.79	146.6	146.0	16.03	0.951	0.749	0.622
580.0	73.17	86.79	98.34	89.33	84.18	88.32	98.48	105.6	150.1	131.5	105.4	108.5	155.0	936.5	949.9	64.06	41.65	37.29	34.98	32.67	30.89	28.05	28.61	27.94	29.02	28.58	28.07	27.37	27.86	27.24	26.92	24.76	23.38	21.30	19.42	18.19	16.53	14.77	13.62	12.83	11.62	10.95	10.36	9.909	8.682	8.675	7.694	7.131	6.854	6.323	5.598	5.496	5.951	5.801	4.792	4.074	4.008	3.569	3.427	3.030	3.023	2.992	2.914	2.331	2.168	1.974	1.952	2.141	3.088	6.706	12.27	48.71	168.1	108.8	7.491	0.809	0.679
585.0	76.97	91.28	93.31	82.80	77.97	77.95	87.47	90.31	119.5	141.1	102.1	100.9	99.08	374.8	1336	112.0	36.25	31.22	30.16	28.38	25.78	24.17	24.31	24.57	23.47	24.26	23.22	23.25	23.34	23.25	22.34	21.04	20.11	18.09	16.24	15.06	14.02	12.72	11.83	10.81	9.994	9.379	8.621	8.274	7.969	7.587	6.624	6.194	5.869	5.616	4.866	4.673	4.631	5.331	4.728	3.743	3.437	3.308	3.120	2.730	2.444	2.532	2.607	2.371	2.124	1.817	1.776	1.817	1.946	2.655	3.871	11.97	64.28	166.2	34.83	3.039	0.744
590.0	71.05	89.25	85.23	76.76	68.66	70.28	75.20	76.30	90.90	134.8	111.1	93.01	83.85	137.9	825.4	660.2	46.02	26.74	24.07	22.49	20.86	19.79	19.24	19.64	19.02	19.41	18.89	18.54	18.58	18.43	18.00	17.25	15.86	14.84	13.30	11.95	11.53	10.49	9.390	8.596	8.233	7.897	7.120	6.803	6.509	6.162	5.662	5.389	5.007	4.553	4.218	3.999	3.835	4.025	4.182	3.848	3.226	2.933	2.733	2.353	2.130	2.124	2.185	2.114	2.136	1.678	1.642	1.634	1.505	1.635	1.702	3.585	15.34	58.74	101.7	70.82	10.74
595.0	66.98	83.77	80.54	71.34	59.34	63.89	66.80	68.00	78.75	110.2	127.7	92.20	77.53	76.96	248.7	969.0	215.9	22.55	19.58	18.12	16.90	15.73	15.91	15.33	15.29	14.62	15.33	14.09	15.06	14.55	13.98	13.57	12.48	11.82	10.44	9.866	9.311	8.239	7.649	6.835	6.338	6.341	5.592	5.610	5.440	5.199	4.547	4.335	4.172	3.614	3.592	3.216	3.061	2.981	3.374	3.271	3.092	2.629	2.270	2.015	1.884	1.738	1.760	1.847	1.854	1.786	1.483	1.400	1.452	1.287	1.190	1.620	4.177	13.71	27.40	86.48	90.11
600.0	69.10	72.68	83.62	68.00	57.84	56.03	64.72	64.77	69.67	88.74	135.7	93.72	76.38	62.25	88.53	648.3	588.3	25.91	16.63	14.89	13.83	13.20	13.20	12.96	12.97	12.99	12.48	12.15	12.24	12.33	11.90	11.31	10.51	9.860	8.770	8.768	7.793	6.940	6.166	5.827	5.348	4.975	4.811	4.873	4.569	4.222	4.037	3.743	3.515	3.173	3.004	2.907	2.583	2.402	2.621	2.835	2.876	2.420	1.971	1.813	1.612	1.653	1.527	1.474	1.694	1.653	1.426	1.417	1.243	1.068	1.096	1.126	1.704	3.639	6.631	27.90	98.47
605.0	66.79	82.64	74.14	64.57	55.12	54.68	58.60	63.06	71.52	82.38	131.4	112.5	81.54	63.38	54.19	262.2	860.2	68.86	14.11	12.77	12.35	11.42	11.04	10.34	10.51	11.41	10.62	10.40	10.21	10.22	10.27	9.652	8.800	8.348	7.294	7.214	6.605	5.858	5.431	5.029	4.640	4.201	4.156	4.021	3.964	3.477	3.431	3.187	3.017	2.640	2.449	2.525	2.336	2.176	2.030	2.183	2.432	2.425	1.875	1.640	1.529	1.528	1.499	1.378	1.517	1.581	1.735	1.275	1.110	1.152	1.186	1.006	1.049	1.378	2.071	6.806	37.22
610.0	67.81	74.68	71.93	60.22	51.37	53.12	57.64	63.22	73.32	88.46	116.6	136.9	95.14	68.95	52.57	90.74	589.5	438.7	20.47	10.83	9.755	9.328	8.963	8.523	8.629	8.852	8.491	8.466	7.889	8.134	7.970	7.766	6.958	6.831	5.956	5.537	5.115	4.751	4.206	4.146	3.785	3.523	3.374	3.218	3.101	2.872	2.829	2.706	2.425	2.300	2.087	2.042	1.946	1.869	1.814	1.806	1.984	2.150	1.804	1.613	1.402	1.417	1.329	1.318	1.199	1.293	1.537	1.366	1.120	1.037	1.027	0.916	0.858	0.943	0.955	1.942	8.900
615.0	55.16	71.83	68.51	55.07	48.54	49.15	54.61	59.78	72.24	85.92	103.2	137.5	106.6	70.09	52.29	49.57	187.9	685.2	75.80	9.011	8.199	7.497	7.586	6.908	6.639	7.162	6.903	6.836	6.253	6.477	6.344	6.371	5.478	5.199	4.670	4.441	4.154	4.070	3.528	3.211	3.048	2.863	2.613	2.735	2.428	2.159	2.337	2.133	1.961	1.968	1.816	1.730	1.532	1.458	1.521	1.565	1.573	1.724	1.610	1.419	1.186	1.134	1.252	1.256	1.178	1.147	1.182	1.241	1.244	1.009	0.978	0.908	0.726	0.845	0.761	0.991	2.487
620.0	55.61	68.30	70.68	51.12	50.23	46.90	51.72	59.16	68.01	83.34	93.00	123.5	113.6	72.70	52.19	39.65	67.65	507.8	367.8	10.89	6.926	6.462	6.116	6.222	5.989	5.994	5.760	5.504	5.645	5.467	5.365	4.965	4.644	4.514	3.826	3.819	3.489	3.323	2.935	2.582	2.618	2.597	2.357	2.151	2.029	2.016	1.873	1.833	1.755	1.687	1.598	1.482	1.415	1.328	1.309	1.232	1.158	1.452	1.456	1.375	1.261	1.161	1.034	1.120	1.083	1.077	0.970	1.087	1.353	1.083	0.974	0.812	0.697	0.867	0.705	0.654	1.094
625.0	51.98	67.10	60.81	54.47	45.72	45.35	50.81	57.81	64.40	77.24	88.97	109.1	119.0	76.71	51.74	37.60	36.80	219.0	606.1	38.72	6.241	6.005	5.310	5.490	5.285	4.840	5.053	4.836	4.873	4.637	4.649	4.416	3.925	3.591	3.376	3.493	2.923	2.930	2.407	2.173	2.279	2.168	1.962	1.879	1.745	1.825	1.773	1.591	1.640	1.465	1.467	1.241	1.261	1.218	1.164	1.158	1.016	1.141	1.176	1.408	1.233	0.977	0.909	1.071	1.007	1.019	1.013	1.003	1.249	1.126	1.034	0.829	0.687	0.708	0.721	0.682	0.641
630.0	54.93	60.66	65.56	51.36	45.63	42.38	46.37	57.01	61.68	74.39	86.59	98.67	110.9	85.22	54.49	37.26	30.10	67.23	452.5	284.1	9.340	5.325	4.732	4.631	4.137	4.147	4.239	3.977	3.947	3.879	3.905	3.527	3.237	3.022	2.670	2.651	2.518	2.366	2.148	1.873	1.732	1.676	1.558	1.499	1.574	1.459	1.384	1.389	1.196	1.093	1.153	1.110	1.117	1.033	0.996	0.987	0.899	0.996	0.993	1.261	1.110	1.034	0.966	0.900	0.928	0.937	0.984	0.961	1.039	1.013	1.032	0.861	0.752	0.702	0.702	0.591	0.547
635.0	59.14	66.86	68.09	51.47	44.17	42.76	47.20	54.36	61.62	71.20	84.62	92.04	99.78	94.50	58.05	39.41	31.03	29.94	142.6	509.6	53.93	4.306	3.970	3.788	3.399	3.462	3.427	3.242	3.296	2.966	3.165	3.089	2.405	2.245	2.277	2.095	2.007	1.650	1.698	1.466	1.338	1.331	1.298	1.202	1.259	1.107	1.173	1.124	1.053	1.014	0.955	0.961	0.908	0.911	0.838	0.851	0.904	0.837	0.961	0.891	0.956	0.992	0.886	0.822	0.883	0.934	0.832	0.884	0.930	0.871	1.004	0.941	0.783	0.638	0.697	0.603	0.504
640.0	52.68	71.20	65.51	54.68	43.53	42.44	46.25	56.79	60.44	72.84	82.92	94.28	92.64	96.19	65.13	41.46	32.39	21.74	42.59	412.1	233.2	5.540	3.646	3.100	2.989	3.336	2.833	2.713	2.827	2.680	2.545	2.402	2.198	2.019	1.871	1.710	1.637	1.455	1.507	1.290	1.167	1.069	1.144	1.077	1.107	1.094	1.067	1.016	0.919	0.950	0.844	0.871	0.783	0.783	0.768	0.762	0.764	0.831	0.930	0.737	0.986	0.909	0.944	0.863	0.889	0.888	0.910	0.885	0.825	0.876	0.879	0.922	0.874	0.727	0.651	0.549	0.591
645.0	60.32	78.82	77.42	61.77	42.84	43.41	47.75	52.41	60.96	73.56	87.32	94.99	91.00	92.48	75.03	44.34	33.79	20.78	19.01	192.5	427.3	21.52	3.479	3.204	2.753	2.620	2.540	2.488	2.449	2.685	2.224	2.119	2.039	1.762	1.668	1.502	1.372	1.235	1.253	1.071	1.049	1.008	1.047	0.867	0.938	0.901	1.087	0.932	0.893	0.717	0.778	0.742	0.699	0.692	0.714	0.728	0.682	0.776	0.762	0.690	0.757	0.921	0.824	0.794	0.877	0.839	0.926	0.941	0.757	0.776	0.862	0.913	0.831	0.715	0.635	0.539	0.529
650.0	65.17	88.67	91.64	69.67	45.62	41.77	47.24	52.25	61.59	71.19	86.41	93.38	94.90	85.31	80.22	47.46	34.70	22.52	13.96	61.71	445.5	65.52	3.453	3.061	2.636	2.346	2.252	2.186	2.028	2.192	2.099	1.923	1.842	1.649	1.458	1.560	1.376	1.132	1.013	1.020	1.026	0.905	1.099	0.782	0.828	0.865	0.956	0.965	0.924	0.705	0.807	0.761	0.644	0.665	0.665	0.583	0.713	0.750	0.680	0.634	0.684	0.798	0.738	0.734	0.702	0.807	0.784	0.891	0.799	0.760	0.794	0.758	0.868	0.762	0.605	0.661	0.578
