Sample:	'1
File name:	T2025052307.FD3
Run date:	'14:12:04, 05/26/2025
Operator:	Administrator
Comment:	'

Instrument
Model:	F-2700 FL Spectrophotometer
Serial number:	23B8-004
ROM Version:	4J14000 07

Instrument parameters
Measurement type:	3-D scan
Data mode:	Fluorescence
EX  Start WL:	220.0 nm
EX  End WL:	600.0 nm
EX Sampling interval:	5.0 nm
EM  Start WL:	230.0 nm
EM  End WL:	650.0 nm
EM Sampling interval:	5.0 nm
Scan speed:	12000 nm/min
EX Slit:	5.0 nm
EM Slit:	5.0 nm
PMT Voltage:	700 V
Response:	Auto 
Corrected spectra:	Off
Contour interval:	50.000

Peak integration
Integration method:	Rectangular
Sensitivity:	1
Threshold:	1.000

Peaks
No.	ApexEX/EM(nm)	Height(Data)
1	225.0/580.0	121.7
2	225.0/605.0	109.7
3	225.0/635.0	76.96
4	230.0/345.0	2559
5	245.0/395.0	2119
6	245.0/405.0	2123
7	260.0/570.0	190.5
8	265.0/585.0	180.8
9	270.0/415.0	2239
10	270.0/595.0	174.0
11	275.0/345.0	2881
12	275.0/610.0	167.2
13	280.0/620.0	138.3
14	460.0/340.0	7.694
15	475.0/350.0	8.261
16	520.0/285.0	4.643
17	555.0/340.0	13.39

Data points
	220.0	225.0	230.0	235.0	240.0	245.0	250.0	255.0	260.0	265.0	270.0	275.0	280.0	285.0	290.0	295.0	300.0	305.0	310.0	315.0	320.0	325.0	330.0	335.0	340.0	345.0	350.0	355.0	360.0	365.0	370.0	375.0	380.0	385.0	390.0	395.0	400.0	405.0	410.0	415.0	420.0	425.0	430.0	435.0	440.0	445.0	450.0	455.0	460.0	465.0	470.0	475.0	480.0	485.0	490.0	495.0	500.0	505.0	510.0	515.0	520.0	525.0	530.0	535.0	540.0	545.0	550.0	555.0	560.0	565.0	570.0	575.0	580.0	585.0	590.0	595.0	600.0
230.0	42.65	1219	3874	1556	77.39	12.10	11.14	9.532	8.196	9.182	7.882	7.854	6.879	6.442	5.155	4.527	3.813	3.617	3.413	3.260	2.731	2.596	2.454	2.248	2.248	1.951	1.849	1.687	1.697	1.651	1.488	1.393	1.341	1.289	1.234	1.102	1.013	0.952	0.836	0.764	0.807	0.760	0.725	0.709	0.691	0.672	1.578	6.617	13.22	10.89	4.496	1.069	0.474	0.429	0.433	0.402	0.436	0.374	0.403	0.375	0.362	0.332	0.311	0.340	0.320	0.282	0.297	0.294	0.273	0.276	0.262	0.246	0.247	0.232	0.244	0.247	0.237
235.0	58.06	352.1	2746	6357	2853	181.9	17.16	10.88	10.86	10.14	8.833	8.546	8.025	6.874	5.741	4.654	4.245	3.729	3.511	3.198	2.763	2.794	2.571	2.472	2.210	1.983	2.036	1.745	1.652	1.618	1.389	1.528	1.401	1.450	1.181	1.076	1.012	1.011	0.995	0.771	0.803	0.810	0.819	0.779	0.666	0.714	0.853	2.007	5.471	11.82	20.00	21.53	12.67	2.659	0.579	0.469	0.522	0.410	0.384	0.396	0.327	0.339	0.314	0.344	0.280	0.285	0.276	0.291	0.277	0.305	0.235	0.286	0.274	0.256	0.273	0.261	0.240
240.0	86.30	141.3	858.5	5748	9949	2696	110.4	16.98	16.56	12.20	9.983	9.727	8.862	7.352	6.121	5.217	4.514	4.185	3.773	3.551	3.072	2.540	2.671	2.555	2.592	2.154	2.005	1.827	1.709	1.969	1.475	1.445	1.396	1.450	1.239	1.187	1.083	0.982	0.931	0.906	0.846	0.835	0.739	0.741	0.749	0.797	0.726	0.935	1.747	3.755	10.92	30.15	44.43	23.77	11.83	1.669	0.558	0.440	0.444	0.412	0.351	0.430	0.419	0.309	0.344	0.301	0.291	0.304	0.280	0.271	0.277	0.339	0.261	0.283	0.254	0.288	0.259
245.0	84.29	121.6	251.2	1975	9999.9	9999.9	2078	51.34	19.82	15.49	13.67	11.37	9.350	7.898	7.249	6.044	4.999	4.367	4.028	3.740	3.314	2.620	2.899	2.767	2.694	2.403	1.984	1.892	1.848	1.894	1.668	1.579	1.558	1.276	1.197	1.270	0.946	1.085	0.949	0.887	0.890	0.875	0.724	0.704	0.811	0.830	0.839	0.938	0.874	1.288	2.969	9.919	30.59	55.02	62.61	22.84	9.380	0.959	0.466	0.452	0.394	0.405	0.386	0.357	0.323	0.304	0.322	0.298	0.298	0.369	0.282	0.342	0.313	0.276	0.267	0.267	0.289
250.0	67.76	109.0	188.1	525.1	3179	9999.9	9999.9	5902	146.8	25.44	19.36	14.99	12.22	10.05	8.055	6.660	5.585	4.786	4.213	4.032	3.786	3.182	2.876	2.758	2.895	2.381	2.423	2.059	2.093	1.827	1.762	1.654	1.515	1.234	1.302	1.216	1.188	1.183	0.941	0.870	0.878	0.774	0.836	0.856	0.782	0.771	0.737	0.872	0.925	1.006	1.191	2.719	7.592	17.28	37.08	56.98	80.65	68.40	17.81	8.702	1.183	0.497	0.452	0.429	0.424	0.368	0.358	0.381	0.361	0.320	0.288	0.335	0.317	0.376	0.286	0.290	0.335
255.0	61.42	66.66	132.4	305.1	805.7	2494	9999.9	9999.9	9549	194.3	30.74	21.16	17.34	12.11	9.124	7.467	7.016	5.895	4.961	4.325	3.663	3.424	3.322	3.040	2.824	2.778	2.437	2.331	2.246	2.296	1.954	1.728	1.546	1.350	1.510	1.420	1.350	1.101	0.968	1.095	1.004	0.847	0.930	0.897	0.849	0.834	0.690	0.769	0.768	0.945	1.293	1.577	2.324	4.428	8.823	13.79	28.27	68.30	124.6	133.2	27.91	11.39	0.977	0.622	0.550	0.449	0.611	0.536	0.543	0.416	0.324	0.407	0.271	0.403	0.313	0.315	0.383
260.0	72.70	54.94	71.91	211.4	383.5	642.0	2983	9999.9	9999.9	2122	137.3	31.13	22.27	16.52	11.59	8.585	7.184	6.649	5.272	4.615	4.338	3.737	3.414	3.312	3.041	2.721	2.531	2.387	2.222	2.060	2.145	1.690	1.942	1.557	1.487	1.480	1.297	1.174	1.120	1.139	1.064	0.888	1.025	0.946	0.819	0.900	0.805	0.825	0.719	0.752	0.904	1.528	1.715	1.898	2.571	3.653	6.997	18.18	52.35	122.8	165.8	141.0	23.77	6.287	0.776	0.613	0.643	0.525	0.483	0.488	0.318	0.413	0.361	0.405	0.355	0.407	0.343
265.0	70.28	57.87	59.93	114.6	331.3	342.6	757.6	3879	9999.9	9999.9	1719	80.77	28.28	21.54	14.98	10.73	9.390	7.251	5.555	5.127	4.712	3.862	3.716	3.389	3.273	2.668	2.766	2.517	2.430	2.422	2.317	2.092	1.876	1.586	1.611	1.306	1.293	1.265	1.256	1.175	1.067	1.049	1.005	0.993	0.941	0.911	0.880	0.815	0.718	0.676	0.726	1.004	1.616	1.983	2.045	1.725	2.236	4.664	12.60	34.90	87.54	177.3	205.5	32.87	18.21	2.454	0.759	0.667	0.593	0.533	0.444	0.436	0.434	0.514	0.438	0.437	0.358
270.0	110.6	106.6	89.40	84.83	186.1	356.6	426.0	983.0	4123	9999.9	9999.9	6821	111.9	34.96	21.95	15.94	12.03	9.192	7.528	6.285	5.594	4.721	4.453	3.942	3.549	3.195	3.171	2.556	2.700	2.578	2.506	2.423	2.118	1.913	1.746	1.568	1.449	1.383	1.348	1.219	1.260	1.139	1.137	1.189	1.025	1.036	0.999	0.957	0.894	0.758	0.808	0.835	1.091	1.367	1.902	2.215	2.241	2.351	3.689	8.587	20.81	49.47	95.37	133.2	188.3	138.4	101.5	12.85	3.074	0.784	0.678	0.593	0.587	0.556	0.475	0.495	0.491
275.0	235.3	240.9	207.5	133.4	136.4	217.0	475.1	526.5	1059	2651	9999.9	9999.9	9695	132.6	39.18	24.49	16.77	12.28	9.669	8.032	6.889	5.944	5.189	4.808	3.943	3.406	3.699	3.113	3.128	3.014	2.861	2.689	2.535	2.331	1.890	1.671	1.721	1.595	1.400	1.487	1.383	1.345	1.299	1.311	1.339	1.345	1.322	1.338	1.215	1.086	0.926	0.932	0.894	1.082	1.273	1.392	2.345	3.169	3.092	3.219	5.517	12.06	22.44	31.53	53.18	103.5	238.0	253.2	33.44	19.33	2.627	0.876	0.838	0.714	0.566	0.582	0.595
280.0	360.3	390.7	352.0	214.0	157.5	195.0	355.7	621.2	505.7	818.4	3094	9999.9	9999.9	7103	101.5	34.02	22.62	16.20	11.96	9.185	7.911	6.715	6.101	5.311	4.348	3.899	3.711	3.645	3.316	2.845	3.106	2.594	2.426	2.460	2.307	2.294	1.991	1.780	1.723	1.700	1.496	1.459	1.572	1.528	1.568	1.607	1.514	1.833	1.554	1.352	1.198	1.174	1.091	1.165	1.237	1.246	1.757	2.407	3.490	3.769	3.202	3.953	6.357	8.437	13.64	25.92	76.52	175.6	278.6	246.2	31.70	14.01	1.580	0.966	0.725	0.711	0.725
285.0	515.4	584.6	518.6	323.4	207.6	217.6	290.7	549.1	706.5	567.4	1090	3905	9999.9	9999.9	1000	72.83	30.84	21.09	14.84	11.35	9.501	7.564	6.472	5.997	5.039	4.449	4.115	3.781	3.322	3.143	3.127	2.865	2.706	2.699	2.660	2.413	2.280	2.130	1.788	1.903	1.558	1.644	1.832	1.802	1.970	1.974	2.054	2.317	2.046	1.790	1.399	1.333	1.261	1.203	1.470	1.357	1.665	1.847	2.596	3.623	4.643	3.872	3.472	3.908	5.226	8.135	19.35	44.39	103.9	227.0	322.7	226.3	26.54	8.667	1.235	0.997	0.834
290.0	682.9	823.4	767.0	480.6	300.8	289.3	342.2	456.0	777.1	990.2	996.7	1556	4186	9999.9	9999.9	9999.9	76.22	34.36	21.91	15.95	12.02	9.010	7.830	6.944	5.971	5.393	4.690	4.333	3.907	3.556	3.222	3.203	3.008	2.837	3.058	2.741	2.634	2.433	2.264	2.033	1.942	1.988	2.054	2.038	2.339	2.396	2.641	2.875	2.734	2.459	1.971	1.814	1.658	1.623	1.712	1.760	1.970	2.172	2.410	2.807	3.597	4.631	5.325	5.526	5.046	5.206	7.846	13.25	26.58	57.57	112.1	181.5	202.5	245.7	140.3	18.36	8.239
295.0	809.4	1029	1003	641.4	416.8	380.1	441.0	536.2	758.8	1188	1577	1408	1764	2851	9999.9	9999.9	5965	87.66	34.93	23.12	16.50	11.97	9.847	8.801	7.183	6.006	5.301	5.041	4.388	4.352	3.647	3.759	3.134	2.808	3.167	3.183	2.829	2.704	2.696	2.350	2.118	2.138	2.222	2.408	2.546	2.871	3.026	3.441	3.341	3.109	2.293	2.168	2.255	1.893	2.117	2.211	2.508	2.782	2.952	3.124	3.713	4.342	4.949	6.780	8.274	7.369	7.202	7.620	10.89	16.80	28.20	43.29	50.20	93.66	207.8	342.8	248.5
300.0	921.8	1160	1127	776.9	500.1	464.9	531.3	666.2	895.7	1248	1886	1792	1470	1314	2926	9999.9	9999.9	4694	71.13	32.18	21.07	15.48	11.48	10.39	7.867	6.674	6.067	5.685	4.954	4.567	4.122	3.843	3.477	3.244	3.224	3.332	3.010	2.737	2.722	2.611	2.384	2.419	2.443	2.580	2.745	2.991	3.359	3.828	3.939	3.460	2.682	2.697	2.508	2.374	2.347	2.507	3.040	3.048	3.455	3.816	4.157	4.992	5.402	6.546	8.221	9.695	9.415	8.291	8.229	8.788	10.26	13.07	13.95	23.57	55.63	150.2	303.0
305.0	970.6	1204	1262	867.3	575.5	552.2	656.6	815.9	1070	1402	1893	2290	1663	1160	1150	3398	9999.9	9999.9	635.6	56.40	27.79	19.09	14.73	11.30	9.754	8.205	6.652	6.345	5.618	4.948	4.328	3.819	3.795	3.499	3.729	3.525	3.341	3.358	2.861	2.714	2.595	2.394	2.530	2.767	2.848	3.518	3.662	4.171	4.177	3.702	2.973	2.954	2.964	2.535	2.894	2.968	3.546	3.647	3.916	4.466	5.029	5.615	6.099	7.169	8.094	9.373	10.51	10.82	9.727	8.324	7.433	7.560	6.703	8.156	14.89	36.53	88.54
310.0	978.8	1294	1330	938.1	665.6	653.1	770.9	955.3	1222	1598	1971	2290	2203	1477	941.3	1137	3601	9999.9	9999.9	9999.9	58.65	29.27	20.26	14.87	11.99	9.452	8.213	7.155	6.299	5.298	5.087	4.323	4.238	3.858	3.626	3.642	3.470	3.106	2.991	2.917	2.675	2.676	2.604	2.606	3.076	3.459	3.775	4.345	4.257	3.761	3.109	3.243	3.223	2.922	3.218	3.223	3.763	4.126	4.462	4.990	5.795	6.526	7.190	7.844	8.716	9.287	10.09	10.65	11.30	11.15	8.955	7.347	6.020	5.582	6.301	10.65	22.06
315.0	1018	1359	1398	1019	750.2	739.1	871.4	1074	1382	1751	2127	2323	2273	1970	1151	755.9	1110	2525	9999.9	9999.9	4350	65.96	29.73	20.27	15.19	11.28	9.203	8.349	7.076	6.111	5.776	4.604	4.259	4.092	3.963	3.731	3.528	3.146	3.073	2.994	2.647	2.928	2.646	2.909	3.185	3.483	4.095	4.667	4.601	4.053	3.352	3.532	3.512	3.281	3.584	3.463	4.082	4.496	4.947	5.647	6.680	7.039	7.869	8.571	9.342	10.24	10.17	10.62	10.97	11.15	10.81	10.23	7.888	6.000	5.203	5.491	7.425
320.0	1080	1509	1492	1117	829.5	800.0	942.3	1175	1478	1864	2235	2447	2329	2077	1539	808.1	623.3	802.0	2686	9999.9	9999.9	3624	57.11	28.00	19.04	13.78	10.87	9.808	7.759	7.095	5.712	5.213	4.685	4.403	4.439	3.902	3.639	3.167	3.111	3.153	2.825	2.847	2.906	3.217	3.429	3.817	4.102	4.959	5.024	4.208	3.749	3.778	3.731	3.387	3.641	3.619	4.305	4.835	5.363	6.227	7.033	7.432	8.320	9.116	9.896	10.41	11.16	11.41	11.11	11.12	10.77	9.976	9.960	8.034	5.915	5.008	4.842
325.0	1193	1653	1762	1323	928.2	859.6	1011	1245	1567	1966	2350	2560	2468	2111	1754	1016	607.6	470.6	790.3	3311	9999.9	9999.9	495.6	46.05	24.43	18.39	12.79	10.70	8.778	8.025	6.717	5.849	4.903	4.458	4.602	4.047	3.714	3.458	3.362	3.083	2.842	3.072	2.999	3.196	3.754	4.424	4.506	5.121	5.680	5.079	4.307	4.354	4.025	3.700	3.782	3.886	4.615	5.250	5.776	6.651	7.187	7.687	8.761	9.829	10.58	11.12	11.47	11.71	11.84	11.64	10.83	10.50	9.575	9.777	8.236	6.226	5.071
330.0	1358	1877	2138	1744	1232	1013	1095	1332	1670	2075	2487	2722	2671	2290	1820	1329	852.1	517.6	450.9	941.6	3647	9999.9	9999.9	9999.9	48.75	26.48	18.35	13.43	10.70	9.126	7.870	6.290	5.529	4.870	4.647	4.083	3.941	3.685	3.579	3.224	3.077	3.036	3.175	3.201	3.899	4.753	5.118	6.218	6.690	5.986	5.385	5.663	5.110	4.621	4.622	4.359	5.119	5.617	6.073	6.713	7.583	8.275	9.369	10.35	11.20	11.45	12.17	12.24	12.48	12.38	11.81	11.02	10.23	9.709	8.974	8.000	7.155
335.0	1421	2046	2413	2093	1562	1223	1210	1426	1772	2164	2608	2837	2821	2467	1936	1390	1107	728.2	472.1	486.8	1030	2517	9999.9	9999.9	3552	55.65	26.77	18.90	13.98	11.43	9.364	7.671	6.440	5.586	4.926	4.499	4.148	4.182	3.800	3.274	3.136	3.094	3.379	3.668	4.136	4.952	5.459	7.217	7.300	6.509	6.445	6.873	6.162	5.731	5.646	5.264	5.695	6.059	6.453	7.229	7.925	8.886	9.674	10.92	11.72	11.92	12.80	12.59	13.33	13.10	12.52	12.35	10.64	10.29	8.925	8.032	7.891
340.0	1471	2142	2548	2246	1741	1355	1301	1501	1808	2230	2630	2879	2874	2547	2031	1444	1128	929.4	585.6	442.3	493.4	775.2	2800	9999.9	9999.9	3033	47.83	24.40	17.52	13.40	10.88	8.636	6.517	6.114	5.312	4.759	4.390	4.233	4.088	3.287	3.276	3.510	3.515	3.539	4.143	4.831	5.916	6.836	7.694	7.255	6.829	7.640	6.524	6.130	6.102	5.853	6.219	6.699	6.890	7.115	8.142	9.072	10.49	11.14	11.69	12.03	13.06	13.39	13.39	13.29	12.74	12.81	11.47	11.04	9.366	8.221	7.319
345.0	1453	2130	2559	2388	1911	1508	1387	1568	1853	2241	2625	2881	2849	2550	2064	1506	1133	986.0	746.0	513.8	432.2	440.0	825.8	3594	9999.9	9999.9	424.2	37.81	21.47	16.25	12.25	9.475	7.832	6.577	5.556	4.779	4.525	4.037	3.952	3.473	3.266	3.513	3.379	3.996	4.223	4.923	5.770	7.361	7.678	7.330	7.119	7.946	7.114	6.812	6.654	5.846	6.544	6.540	7.076	7.455	8.403	8.955	10.34	10.78	11.68	12.13	12.98	13.28	13.00	13.25	13.12	12.32	12.05	10.82	9.711	8.610	7.746
350.0	1409	2007	2507	2455	2043	1657	1506	1645	1920	2251	2591	2802	2801	2517	2082	1562	1194	989.5	897.3	718.0	530.7	450.2	453.2	994.5	4009	9999.9	9999.9	8367	42.59	22.72	15.79	11.93	8.773	7.310	5.985	5.359	4.588	4.243	3.913	3.684	3.371	3.450	3.489	3.825	4.210	4.957	5.690	6.827	7.554	7.172	7.311	8.261	7.877	7.381	7.225	6.489	6.897	7.164	7.491	7.938	8.673	9.103	10.14	10.93	11.52	11.73	12.21	12.97	12.57	13.12	12.79	12.57	11.67	10.86	9.813	9.026	8.091
355.0	1319	1870	2359	2429	2142	1816	1667	1779	1988	2278	2554	2706	2709	2445	2055	1607	1279	1062	932.9	890.5	726.0	548.8	450.1	480.0	1069	2505	9999.9	9999.9	3214	49.77	23.13	15.87	11.70	8.551	6.800	5.966	5.179	4.414	4.017	3.663	3.368	3.512	3.576	3.611	4.016	4.657	5.288	6.250	7.298	7.134	7.236	8.192	7.986	7.762	7.813	7.088	7.452	7.914	8.014	8.197	8.787	9.449	10.26	10.75	11.03	11.51	12.30	12.41	12.43	12.73	12.20	11.91	11.34	10.65	9.759	9.234	8.725
360.0	1247	1823	2274	2376	2178	1907	1754	1857	2051	2294	2541	2641	2644	2401	2052	1631	1328	1131	988.6	931.9	883.7	674.9	514.5	419.4	459.0	716.2	2898	9999.9	9999.9	2683	41.69	20.41	14.85	10.41	7.946	6.532	5.753	5.198	4.095	3.819	3.634	3.627	3.496	3.811	3.896	4.337	5.347	6.124	6.825	6.769	6.909	7.915	8.396	7.834	8.091	7.346	8.078	7.986	8.214	8.648	9.161	9.918	10.38	10.71	10.86	11.18	12.01	12.07	12.19	12.02	12.27	12.37	11.33	10.84	9.796	9.462	8.667
365.0	1207	1782	2138	2329	2193	1966	1841	1904	2105	2316	2523	2587	2548	2343	2022	1637	1372	1195	1064	968.2	947.1	834.7	608.4	466.8	373.3	353.4	785.7	3882	9999.9	9999.9	387.2	32.79	18.22	12.99	9.645	7.147	5.922	5.295	4.651	4.016	3.895	3.741	3.766	3.674	3.954	4.551	5.195	5.967	6.314	6.813	6.870	8.116	8.602	8.209	8.137	7.866	8.047	8.588	8.588	9.030	9.300	10.12	10.13	10.59	11.52	11.19	11.76	11.97	11.86	12.06	12.10	11.72	11.27	10.84	9.787	9.405	9.195
370.0	1125	1643	2038	2244	2217	2051	1913	1960	2117	2288	2462	2497	2458	2262	1978	1641	1412	1266	1155	1061	986.7	946.8	796.4	585.6	439.1	342.2	363.3	1004	4314	9999.9	9999.9	7476	36.75	19.29	12.56	9.124	7.149	5.911	5.067	4.496	4.077	3.976	3.703	3.680	3.864	4.558	4.774	5.777	6.287	6.624	6.584	8.238	8.720	8.181	8.314	7.985	8.385	8.922	8.706	9.150	9.122	9.999	10.13	10.48	11.39	10.84	11.30	11.41	11.35	11.58	11.42	11.32	10.98	10.44	9.778	9.173	9.131
375.0	1055	1518	1911	2192	2207	2108	1966	1990	2097	2256	2390	2417	2329	2156	1904	1630	1445	1325	1228	1151	1063	991.5	934.0	768.5	558.4	422.2	339.8	406.6	1091	2554	9999.9	9999.9	2747	41.36	18.70	12.46	9.240	6.984	5.560	4.991	4.860	4.318	4.053	4.055	3.942	4.305	4.645	5.548	5.966	6.260	6.269	7.881	8.479	8.620	8.501	8.271	8.775	8.693	8.646	9.289	9.709	9.842	9.920	10.76	10.79	10.91	10.77	11.03	10.61	11.17	10.77	10.53	10.29	10.06	9.671	9.552	8.941
380.0	994.1	1459	1857	2096	2207	2109	1973	2009	2076	2228	2330	2347	2246	2085	1860	1620	1453	1355	1281	1205	1124	1047	962.0	887.3	676.7	504.0	389.1	319.4	405.2	689.5	3035	9999.9	9999.9	2232	33.89	16.44	11.75	8.588	6.613	5.455	4.868	4.471	4.227	3.998	4.208	4.504	4.648	5.347	5.968	5.866	6.322	7.474	8.190	8.442	8.546	8.014	8.830	8.600	8.629	9.088	9.686	9.953	10.00	10.35	10.56	11.15	10.31	10.63	10.37	10.59	10.25	10.46	10.08	9.875	9.625	9.235	9.118
385.0	955.2	1361	1756	2070	2204	2110	2019	1980	2079	2196	2264	2252	2170	2020	1819	1600	1455	1371	1309	1244	1168	1100	1001	924.1	803.2	594.3	457.1	349.2	294.5	303.4	795.1	4020	9999.9	9999.9	316.3	25.99	14.76	10.67	8.033	6.014	5.141	4.584	4.199	4.098	4.018	4.570	4.502	5.305	5.969	5.468	6.273	7.551	8.484	8.248	8.856	8.214	8.914	8.455	9.003	8.966	9.526	9.863	9.886	9.986	10.35	10.49	10.01	10.21	10.06	10.53	10.09	10.16	9.604	10.03	9.170	8.920	8.955
390.0	912.9	1305	1698	1977	2136	2116	2011	1990	2038	2143	2183	2157	2084	1951	1761	1572	1452	1379	1327	1271	1216	1152	1067	965.2	884.5	749.7	568.9	437.8	345.9	281.3	333.3	1018	4122	9999.9	9999.9	6034	29.96	15.45	10.84	7.911	6.302	5.281	4.575	4.463	4.303	4.446	4.536	5.330	5.669	5.614	6.038	7.270	8.324	8.174	8.655	8.098	8.821	8.895	9.280	9.187	9.509	9.630	9.464	9.989	9.773	9.905	9.916	9.718	9.825	9.905	9.700	9.670	9.612	9.526	9.060	8.899	9.165
395.0	835.0	1223	1619	1897	2077	2119	2035	2014	2056	2105	2149	2115	2021	1892	1729	1557	1448	1380	1342	1301	1255	1191	1130	1035	947.7	860.5	731.7	563.2	443.2	353.7	297.7	390.4	1033	2507	9999.9	9999.9	2296	35.39	16.01	10.45	7.898	6.075	5.356	4.894	4.549	4.727	4.554	5.200	5.461	5.682	5.773	7.265	8.390	8.402	8.766	8.106	9.049	9.065	9.098	9.361	9.266	9.358	9.559	9.697	9.691	9.888	9.500	9.446	9.672	8.961	9.487	9.658	8.782	9.292	9.190	9.065	8.850
400.0	803.4	1230	1554	1866	2062	2112	2054	2051	2080	2130	2155	2121	2007	1871	1710	1549	1449	1388	1344	1309	1270	1222	1168	1093	1003	910.0	839.2	687.1	538.4	433.1	346.2	296.6	380.4	666.6	2849	9999.9	9999.9	1944	29.55	13.12	9.261	7.067	5.916	5.155	4.926	4.909	4.617	5.041	5.645	5.703	5.727	7.507	8.189	8.187	8.539	8.143	9.118	9.158	9.117	9.493	9.626	9.164	9.511	9.629	10.07	9.947	9.670	9.428	9.576	9.417	9.473	9.491	8.738	9.011	8.704	9.422	8.911
405.0	793.7	1153	1519	1854	2079	2123	2077	2074	2116	2161	2178	2138	2021	1867	1714	1551	1450	1393	1335	1306	1274	1245	1197	1137	1054	966.5	898.8	803.1	638.6	515.9	412.1	320.9	270.8	282.5	734.0	3503	9999.9	9999.9	286.0	22.15	11.99	8.386	6.694	5.575	4.947	4.827	4.666	5.222	5.576	5.629	5.900	7.323	8.166	8.357	8.808	8.364	9.214	9.249	9.603	9.490	9.602	9.610	9.542	9.857	10.11	9.650	9.699	8.999	9.648	9.212	8.939	9.340	9.360	8.833	8.834	9.034	8.853
410.0	764.5	1090	1486	1818	2035	2109	2105	2129	2155	2200	2229	2171	2025	1867	1703	1535	1437	1371	1318	1283	1262	1244	1212	1171	1109	1031	946.5	877.5	773.5	632.4	504.9	395.5	301.6	240.4	290.0	876.8	3533	9999.9	9999.9	5327	26.24	11.99	8.830	7.041	5.712	5.149	4.961	5.439	5.728	5.592	5.826	7.229	8.151	8.220	8.772	8.431	9.251	9.257	9.394	9.425	9.654	10.05	9.872	10.22	9.996	9.960	9.792	9.720	9.467	9.579	9.203	9.251	9.111	9.003	8.777	8.950	8.906
415.0	758.1	1070	1482	1777	2014	2088	2080	2136	2203	2216	2239	2163	2007	1829	1658	1507	1409	1336	1281	1236	1222	1217	1201	1177	1133	1064	985.4	906.7	841.3	747.1	592.1	460.9	352.7	264.0	218.3	306.5	867.3	2418	9454	9999.9	2107	31.55	12.18	8.603	6.770	5.802	5.102	5.408	5.647	6.024	5.572	7.249	8.446	8.301	8.588	8.477	9.218	9.150	9.628	9.185	9.638	9.873	9.881	10.08	10.27	9.856	9.756	9.453	9.658	9.221	9.299	8.579	8.944	8.774	8.395	8.499	8.514
420.0	730.5	1021	1391	1753	1965	2054	2074	2134	2179	2222	2230	2148	1977	1776	1614	1462	1363	1292	1234	1203	1180	1182	1175	1165	1126	1075	1001	925.1	856.2	794.7	661.4	505.8	389.3	292.8	219.9	193.4	281.6	603.0	2495	9999.9	9999.9	1827	25.90	11.08	8.285	6.847	5.618	5.647	5.845	5.813	5.616	7.301	7.970	7.910	8.570	8.175	8.935	8.970	9.626	9.627	9.556	9.845	9.861	9.945	9.703	9.860	9.894	9.514	9.670	9.347	8.946	8.503	8.814	8.793	8.407	8.543	8.766
425.0	685.1	961.5	1347	1688	1926	1998	2039	2123	2164	2212	2211	2109	1927	1746	1569	1422	1326	1251	1201	1164	1142	1149	1144	1141	1115	1074	1017	937.9	864.0	802.2	709.6	550.0	419.9	318.8	236.8	182.3	163.7	206.0	609.6	3020	9999.9	9999.9	274.6	19.87	10.58	8.175	6.303	6.319	5.844	5.871	5.538	7.230	7.906	8.027	8.226	8.524	8.831	9.412	9.720	9.516	9.966	10.05	10.25	9.966	10.14	9.681	9.589	8.950	9.233	9.008	8.797	8.235	8.540	8.169	8.212	7.794	8.524
430.0	711.4	954.5	1320	1638	1854	1964	2027	2114	2162	2194	2198	2083	1879	1691	1518	1362	1282	1192	1140	1104	1093	1101	1103	1109	1093	1065	1013	953.4	880.5	814.4	735.9	617.2	470.8	355.5	272.8	204.9	159.7	133.1	198.8	723.0	2996	9999.9	9999.9	4955	24.32	11.70	7.797	7.196	6.459	5.638	5.816	7.242	7.798	7.710	8.348	8.078	8.835	9.520	9.245	9.342	9.712	10.09	10.11	9.864	9.857	9.793	9.203	8.990	8.756	8.458	8.468	8.165	8.247	8.094	7.901	7.485	8.038
435.0	949.3	911.2	1234	1571	1800	1942	1993	2063	2138	2160	2186	2035	1826	1639	1466	1315	1222	1140	1081	1043	1038	1050	1059	1067	1066	1040	1007	951.6	893.7	825.2	742.3	644.2	532.3	401.6	305.4	235.7	180.9	135.6	121.7	219.6	711.3	2321	6890	9999.9	2042	31.19	11.59	8.877	7.361	6.654	5.985	7.520	7.763	8.083	8.456	7.907	8.791	9.097	9.493	9.644	9.211	9.634	9.772	9.553	9.709	9.793	9.504	9.011	8.846	8.247	7.844	8.028	7.968	7.718	7.665	7.740	7.551
440.0	1174	952.8	1186	1514	1758	1878	1983	2039	2108	2134	2134	2008	1779	1587	1408	1262	1171	1093	1038	997.5	993.3	999.6	1014	1029	1031	1011	988.9	934.3	883.0	824.1	745.1	645.5	554.7	436.6	327.0	253.6	199.6	149.6	115.2	116.6	209.8	557.7	1750	9303	9999.9	1858	24.85	11.08	8.255	7.113	6.415	7.300	7.851	8.008	8.266	7.870	8.978	9.288	8.972	9.524	9.570	9.600	9.681	9.643	9.683	9.289	9.252	8.614	8.368	8.185	7.680	7.959	7.608	7.649	7.317	7.238	7.232
445.0	1209	1189	1164	1461	1685	1827	1909	1986	2039	2084	2064	1929	1710	1526	1353	1197	1119	1038	981.3	946.6	940.5	943.2	969.4	978.9	986.6	977.1	952.1	909.9	868.7	817.1	740.8	635.7	542.8	457.2	350.3	271.2	213.3	162.5	125.4	105.1	108.3	171.5	430.5	2539	9999.9	9999.9	1392	21.94	9.895	7.851	6.789	7.627	7.912	7.821	8.059	7.789	8.762	8.970	9.049	9.198	9.236	9.288	9.695	9.334	9.666	9.070	8.518	8.239	8.400	7.718	7.647	7.449	7.269	7.472	7.233	6.742	7.376
450.0	895.9	1813	1283	1351	1587	1701	1791	1877	1942	1968	1941	1814	1604	1425	1255	1117	1036	960.5	901.8	872.2	863.9	868.8	893.0	903.3	913.4	906.4	890.7	859.5	824.0	782.5	713.4	620.4	523.1	449.1	373.5	292.7	228.7	179.3	142.7	114.5	96.53	95.47	142.0	603.4	2709	8920	9999.9	5163	92.42	10.65	7.928	8.078	7.981	7.716	7.993	7.717	8.738	8.656	8.688	9.021	8.935	9.026	9.039	8.901	9.150	8.552	8.423	7.952	7.788	7.304	7.183	7.162	6.898	6.962	6.749	6.432	6.782
455.0	579.5	1874	2267	1302	1456	1567	1640	1733	1798	1829	1793	1675	1479	1310	1144	1014	944.2	871.9	817.3	788.3	775.4	785.4	807.7	819.8	827.8	824.3	818.0	794.6	769.8	735.3	673.1	594.5	504.7	430.3	368.1	313.8	244.6	194.6	157.5	128.4	104.9	89.86	84.84	175.8	637.2	2041	5057	9999.9	6743	25.42	10.45	8.895	8.420	7.736	7.685	7.711	8.387	8.236	8.010	8.404	8.247	8.399	8.693	8.724	8.619	8.072	7.736	7.537	7.328	6.968	6.531	6.393	6.333	6.168	6.137	6.267	5.938
460.0	448.0	1364	3253	1636	1348	1482	1540	1626	1681	1715	1673	1558	1380	1223	1068	939.0	863.6	803.5	752.5	725.6	714.2	726.0	737.4	761.7	762.6	762.2	756.1	741.4	720.1	692.5	641.6	569.2	486.7	415.0	355.7	312.9	259.4	204.0	165.3	138.4	114.8	93.56	78.08	84.57	179.0	483.8	1219	6365	9999.9	1492	21.78	10.88	9.072	7.891	7.821	7.766	7.837	7.832	7.620	8.063	8.107	8.163	7.876	8.026	7.919	7.648	7.133	7.191	6.698	6.456	6.332	6.056	6.030	5.651	5.837	5.809	5.637
465.0	404.6	879.9	3575	2809	1286	1366	1458	1519	1558	1615	1566	1456	1282	1132	988.0	868.2	797.0	745.7	696.4	667.7	659.0	666.7	680.1	698.2	708.3	706.5	698.0	685.8	672.6	652.1	606.6	540.9	466.9	399.9	340.5	299.7	266.8	214.0	170.4	143.9	120.0	99.09	80.31	69.11	80.38	140.3	298.3	1605	8072	9999.9	1279	22.28	10.34	8.748	7.924	7.600	7.615	7.326	7.521	7.359	8.185	7.600	7.504	7.481	7.595	7.338	6.972	6.473	6.390	6.241	5.952	5.751	5.710	5.028	5.595	5.276	5.292
470.0	378.9	600.9	2281	5090	2036	1236	1317	1366	1416	1443	1412	1304	1149	1011	882.5	779.5	709.9	662.5	617.1	595.1	583.2	586.3	599.7	614.8	620.6	625.8	620.0	614.7	606.4	587.7	546.9	496.0	437.1	373.6	322.7	282.3	250.8	219.1	180.8	147.8	125.5	104.4	85.50	69.68	61.74	66.17	94.52	381.8	2018	6117	9241	4785	108.2	11.26	8.603	7.327	7.802	7.233	7.006	7.160	7.180	7.273	7.003	7.046	6.826	6.622	6.312	6.198	5.918	5.595	5.279	5.324	5.245	5.049	4.741	4.744	4.930
475.0	345.4	508.4	1035	4870	4888	1264	1157	1229	1253	1288	1254	1158	1011	887.3	781.1	685.2	623.7	576.7	539.4	519.3	509.8	511.6	525.8	534.7	541.2	545.5	539.6	537.0	535.1	520.1	495.1	448.6	397.9	344.9	301.4	265.0	231.4	206.5	184.7	151.9	127.8	106.2	88.34	73.31	59.58	51.96	51.46	109.7	468.7	1383	3099	8977	5688	29.74	10.87	8.100	7.630	7.373	6.723	6.343	6.523	6.470	6.614	6.238	6.419	6.161	5.185	5.293	5.080	5.042	5.161	4.530	4.629	4.479	4.198	4.123	4.260
480.0	318.0	469.3	687.8	3035	7446	2097	1075	1129	1154	1178	1149	1064	922.5	808.7	715.7	630.0	571.3	526.7	493.3	469.1	464.8	462.4	477.2	486.2	488.6	494.1	490.2	489.2	487.6	479.3	453.6	413.9	369.8	326.1	284.1	251.1	220.6	197.2	181.6	157.2	129.8	108.4	90.29	74.37	60.48	50.67	42.71	50.10	124.7	325.4	720.4	3568	9932	1724	27.89	9.700	8.084	7.313	6.622	6.233	6.420	6.266	6.045	6.001	5.703	5.444	5.168	5.164	4.959	4.703	4.687	4.265	4.202	4.163	4.022	4.037	4.054
485.0	297.3	435.3	572.0	1482	7529	4255	1059	1034	1086	1094	1070	985.0	867.2	752.5	660.9	583.4	522.8	489.6	457.2	436.3	428.6	430.0	434.4	447.7	447.2	454.8	452.6	449.8	448.8	442.5	423.0	388.1	348.6	309.8	271.7	240.4	212.8	190.1	172.3	159.2	133.2	109.6	90.80	75.49	62.73	51.60	42.95	38.65	49.89	91.28	176.9	850.1	5102	9077	1570	23.09	9.396	7.681	6.638	6.502	6.034	6.081	5.725	5.478	5.434	5.310	4.919	4.665	4.504	4.308	4.292	4.194	3.895	3.612	3.793	3.849	3.818
490.0	274.0	390.3	527.5	825.6	4090	8278	2293	951.2	984.1	997.6	974.4	893.1	790.7	684.5	598.3	524.5	476.3	440.5	409.6	393.1	386.5	384.6	390.2	398.8	402.8	406.4	406.5	405.4	406.3	399.5	385.5	354.9	322.1	287.3	256.3	228.0	202.1	181.9	163.1	151.8	137.4	114.0	94.24	78.25	66.95	55.36	46.10	39.35	36.17	41.32	57.13	205.7	1217	4045	7262	4577	125.0	11.45	7.473	6.576	5.892	5.881	5.499	5.339	5.062	5.156	4.783	4.588	4.205	4.156	3.936	3.910	3.727	3.386	3.567	3.312	3.561
495.0	241.3	358.6	498.5	624.9	1525	7315	6919	1045	882.8	906.6	870.7	791.3	705.6	614.9	533.1	464.7	423.0	389.1	364.9	348.6	341.6	341.6	344.5	347.5	354.6	360.2	361.4	358.6	359.0	356.6	347.6	321.5	294.8	262.6	236.0	212.6	190.2	172.0	154.2	142.1	130.2	118.8	98.67	79.89	69.92	58.79	49.65	42.57	35.97	33.39	33.00	63.56	286.2	916.7	2318	7566	6268	191.6	10.31	7.346	5.870	5.662	5.471	5.046	4.840	4.793	4.470	3.857	3.926	3.842	3.555	3.685	3.334	3.185	2.999	3.199	3.178
500.0	221.4	316.8	472.5	561.2	813.2	4027	9999.9	2060	816.8	826.0	791.5	717.9	646.2	563.3	484.7	420.2	386.5	354.1	332.7	319.1	310.0	308.5	308.5	312.7	321.6	326.1	324.4	327.4	326.0	326.2	318.1	299.0	268.7	243.6	219.6	199.9	180.2	162.7	148.0	134.6	122.2	115.0	100.2	81.46	70.06	60.33	51.75	45.34	37.64	32.90	29.13	33.31	79.76	218.9	537.5	2800	8928	1971	31.27	8.581	6.420	5.465	5.533	4.901	4.360	4.293	4.012	3.636	3.814	3.270	3.526	3.363	3.142	3.040	2.920	2.905	2.914
505.0	196.6	278.3	425.1	507.7	613.2	1668	9999.9	5004	786.0	755.3	725.5	670.5	596.9	519.6	439.1	385.0	351.0	322.1	301.2	287.5	280.7	280.1	281.6	287.0	292.1	293.9	293.4	296.2	298.1	299.6	291.9	273.0	248.3	226.5	206.5	187.0	170.3	154.6	140.7	128.0	116.3	108.4	100.4	84.77	71.32	61.22	52.74	46.51	38.73	34.75	29.81	27.33	35.10	64.25	134.7	658.8	3995	8085	1756	25.39	7.353	5.734	5.119	4.439	4.130	4.047	3.743	3.427	3.365	3.208	3.283	3.081	2.782	2.625	2.774	2.915	2.688
510.0	182.1	234.3	360.7	477.8	519.3	796.9	5147	9643	1791	680.0	651.1	596.3	527.7	456.4	389.6	338.5	308.1	285.4	265.0	251.8	246.6	245.0	245.9	249.5	254.7	255.1	259.0	259.9	263.3	262.5	255.6	242.3	222.0	203.2	184.9	169.1	154.6	141.3	129.9	118.4	108.2	98.32	92.54	85.32	72.82	61.72	53.35	47.16	40.18	35.21	30.71	27.68	26.15	30.86	44.52	160.6	939.0	3360	5883	3616	124.0	8.821	5.295	4.767	4.185	3.782	3.562	3.255	3.068	2.859	3.022	2.801	2.652	2.605	2.429	2.495	2.240
515.0	153.8	210.9	296.4	429.1	470.2	534.9	1638	8602	6723	758.1	578.1	524.4	458.4	397.9	338.6	294.7	265.9	244.2	226.6	219.1	211.7	210.9	210.5	214.8	218.3	220.7	223.2	223.7	229.0	228.0	222.8	211.9	193.7	178.7	162.9	150.8	138.1	126.4	116.1	107.7	99.21	90.91	83.51	79.40	72.80	61.99	52.92	46.41	40.08	35.44	30.75	28.19	24.85	23.89	24.25	48.67	220.9	759.4	1745	5530	4492	182.0	7.445	5.058	4.249	3.731	3.297	3.166	3.058	2.788	2.595	2.351	2.354	2.284	2.173	2.181	2.143
520.0	136.2	188.4	255.4	370.5	443.4	456.6	723.3	4599	9999.9	1704	524.1	472.9	415.9	360.7	306.6	265.1	238.4	218.9	206.1	195.8	189.7	188.7	190.5	193.2	192.3	195.4	199.5	198.0	201.7	206.1	200.3	190.0	175.2	160.1	148.3	137.4	126.4	118.2	107.3	99.86	92.08	84.78	76.88	73.12	70.36	63.22	52.23	45.55	40.53	35.39	30.87	27.63	24.22	21.47	19.74	23.60	60.68	179.4	402.4	2000	6176	1949	29.84	5.733	4.459	3.819	3.137	2.995	2.917	2.653	2.353	2.351	2.611	1.994	2.071	1.954	1.832
525.0	127.7	167.8	236.0	309.5	422.2	406.9	486.9	1750	9999.9	4957	510.5	433.9	381.1	328.8	280.1	241.8	216.8	196.8	185.9	174.5	170.8	169.1	170.6	171.5	172.2	177.1	178.8	178.9	181.1	186.1	180.9	173.3	160.5	144.1	135.8	126.2	115.1	108.2	100.7	92.86	85.62	79.30	72.61	66.47	64.85	60.80	51.87	44.70	38.52	34.29	30.63	27.31	23.32	20.98	18.76	17.65	24.51	49.45	98.91	467.7	2690	5610	1622	22.82	4.841	3.987	3.208	2.883	2.683	2.609	2.176	2.153	2.280	1.953	1.821	1.880	1.708
530.0	125.7	151.5	209.6	261.8	355.0	380.1	385.4	701.1	5420	9999.9	1338	385.0	331.4	286.8	245.3	209.5	187.4	169.9	159.1	153.2	148.7	147.0	146.8	148.3	149.1	152.2	153.7	156.0	157.9	161.3	157.8	151.2	140.6	129.2	119.0	110.3	101.7	95.92	89.04	83.26	76.80	71.69	65.37	60.35	57.57	55.32	51.47	43.42	36.87	32.83	29.39	26.41	22.80	20.41	17.84	16.02	15.94	19.80	30.07	111.7	629.3	2278	4057	2129	117.0	6.072	3.515	2.801	2.812	2.352	2.210	1.947	1.899	1.785	1.683	1.595	1.615
535.0	106.2	135.7	188.2	225.5	283.7	354.6	331.1	419.3	1600	9697	6710	428.1	288.3	242.6	207.0	177.7	159.7	146.7	136.4	131.7	126.5	126.5	126.9	126.5	130.2	131.6	130.2	133.3	134.6	136.4	134.8	127.9	119.5	110.9	102.5	95.76	89.29	83.46	77.72	72.85	68.29	62.97	58.81	53.98	51.18	48.67	46.47	42.41	35.54	31.23	27.19	24.41	21.17	19.41	16.98	15.50	13.71	13.16	14.17	31.61	146.6	513.8	1178	3648	2006	32.58	4.760	3.394	2.552	2.503	2.010	1.867	1.691	1.603	1.527	1.548	1.502
540.0	94.64	119.9	163.2	200.4	242.0	312.1	313.0	315.7	607.8	4938	9999.9	1099	254.4	214.9	184.6	158.8	141.0	130.0	121.4	114.1	111.6	111.6	110.9	110.9	114.4	116.0	114.3	116.0	118.7	120.0	118.7	113.5	107.1	97.77	90.64	84.91	79.40	72.68	68.67	65.79	61.18	57.00	53.77	49.68	47.77	43.51	41.51	39.82	34.41	29.44	25.51	23.31	20.13	18.33	16.17	14.88	12.64	11.37	10.57	13.58	38.51	120.3	270.3	1311	3894	1771	27.52	3.977	2.821	2.348	2.102	1.664	1.476	1.431	1.629	1.523	1.409
545.0	90.01	116.1	148.4	171.1	201.9	264.7	297.1	272.1	352.0	1721	9999.9	3986	247.8	197.0	165.4	137.4	124.9	113.9	106.2	104.3	98.25	97.36	97.51	97.78	98.49	100.9	99.20	101.4	105.1	104.1	105.9	100.6	94.32	87.30	79.57	75.78	70.01	65.54	62.21	59.03	55.08	52.07	48.74	44.77	42.94	38.57	36.73	36.28	32.94	28.49	24.17	21.37	18.87	16.47	15.27	13.64	12.32	10.65	9.143	9.112	14.14	32.06	65.66	305.6	1707	3812	1346	20.04	3.367	2.369	2.002	1.752	1.560	1.414	1.416	1.392	1.262
550.0	91.31	116.0	129.3	152.2	172.6	201.4	267.6	250.5	262.4	587.0	5095	9985	843.9	170.3	140.6	118.4	105.8	96.25	89.88	85.71	82.71	80.40	80.59	82.11	82.66	83.19	84.01	84.08	86.51	87.22	87.67	83.70	77.91	72.47	67.41	63.21	59.44	56.32	52.86	49.78	47.15	44.83	41.90	39.12	36.85	33.59	31.73	29.91	29.01	26.66	22.28	19.31	16.92	15.01	13.39	12.27	11.13	9.661	8.568	7.705	8.177	11.96	19.17	72.39	398.1	1488	2657	1146	109.2	4.123	2.186	1.827	1.509	1.318	1.265	1.199	1.130
555.0	89.04	109.4	127.6	137.5	140.3	162.3	214.0	240.2	209.5	290.6	1397	9272	5202	174.0	116.2	97.77	86.14	80.12	75.55	71.57	68.45	65.90	66.25	66.68	65.74	67.36	68.32	67.04	69.49	70.86	70.97	68.43	63.19	59.40	55.17	51.65	47.91	46.15	42.75	41.96	39.75	36.94	35.55	32.31	31.06	28.50	26.39	24.80	23.60	22.51	20.55	17.20	14.29	13.06	11.47	10.95	9.514	8.636	8.124	7.139	6.644	6.443	8.070	19.51	92.07	335.0	752.3	2187	1808	32.32	3.063	1.846	1.518	1.270	1.235	1.184	0.982
560.0	89.14	106.7	114.2	118.8	122.2	135.1	171.9	226.5	186.9	209.7	463.6	4488	9940	596.4	100.9	85.36	74.04	68.30	62.85	59.06	59.44	56.00	57.76	55.74	56.36	56.66	57.08	57.52	59.45	61.00	60.49	57.07	53.77	50.03	46.58	44.09	41.19	38.42	37.00	35.47	33.79	31.43	29.59	27.72	27.16	25.16	23.13	21.85	19.79	19.97	18.53	15.84	13.08	11.73	10.43	9.745	8.385	7.796	7.307	6.755	5.441	5.122	5.444	7.396	24.10	77.85	172.0	776.9	2422	1344	25.57	2.352	1.612	1.336	1.306	1.070	0.969
565.0	95.35	112.4	113.8	110.8	107.1	123.8	145.0	207.2	185.8	176.0	238.6	1463	9999.9	2669	97.33	76.93	64.98	57.59	53.77	50.09	51.15	48.49	48.25	47.80	47.62	47.59	49.54	49.32	50.30	50.77	51.29	49.10	46.37	43.37	40.29	37.79	35.58	33.25	32.25	30.20	29.13	27.45	25.92	24.65	23.46	21.41	20.05	19.30	17.25	16.24	16.10	14.86	12.18	10.54	9.472	8.606	7.723	6.908	6.345	6.043	5.255	4.795	4.428	4.684	8.429	20.10	41.35	180.2	995.2	2275	841.1	17.29	1.924	1.370	1.160	1.003	0.909
570.0	92.16	113.4	114.0	102.9	91.88	105.4	117.2	157.9	190.5	159.2	177.4	454.5	4946	7849	451.9	65.07	54.25	48.35	44.98	41.60	42.18	40.72	38.70	39.55	39.50	38.83	40.25	40.23	40.26	41.50	41.69	39.12	37.57	35.38	32.52	31.00	29.27	27.64	26.95	24.98	24.25	22.57	21.25	20.51	19.66	18.46	16.73	16.38	14.35	13.55	12.86	12.45	10.90	9.526	8.134	7.331	6.714	6.231	5.705	5.435	4.962	4.447	3.993	3.871	4.813	7.044	11.69	42.62	231.4	869.7	1528	845.3	21.01	2.306	1.261	1.047	0.915
575.0	89.10	113.4	114.9	88.59	86.33	88.85	101.4	121.6	181.9	164.4	157.4	211.3	1304	7784	3521	70.75	45.91	41.15	37.89	35.17	33.40	31.81	31.29	32.42	32.46	31.84	33.11	32.49	32.81	32.77	33.90	31.88	29.88	28.12	26.12	25.48	23.69	23.83	21.84	20.72	19.02	18.20	17.49	16.62	16.21	15.12	14.17	13.41	12.03	11.18	10.41	9.527	9.568	8.368	7.044	6.376	5.880	5.424	4.891	4.661	4.417	4.171	3.647	3.465	3.538	4.055	4.858	11.43	53.71	196.0	428.2	1269	1093	30.09	1.828	1.089	1.030
580.0	94.82	121.7	115.9	89.12	79.80	81.35	91.67	104.9	151.2	171.2	147.8	154.4	390.0	3880	7352	123.5	41.23	35.91	32.79	30.20	28.90	27.40	26.33	26.85	27.34	27.15	27.29	27.39	27.84	28.40	28.96	26.75	25.32	24.42	22.50	21.94	21.05	20.87	18.80	17.45	15.88	15.70	15.35	14.41	13.62	13.04	12.20	11.51	10.50	9.640	8.926	7.911	7.888	7.639	6.590	5.984	5.178	4.961	4.227	3.872	3.987	3.863	3.652	3.380	3.100	3.264	3.182	4.597	13.95	45.62	98.18	443.7	1404	781.2	22.14	1.297	0.971
585.0	99.01	119.1	107.7	90.49	74.28	76.98	82.24	96.48	126.0	180.8	151.6	141.7	179.0	1242	8288	851.9	40.24	31.44	28.84	26.97	24.53	24.72	23.37	24.15	23.91	23.40	23.50	23.44	24.55	23.99	24.68	22.93	22.40	20.65	19.06	18.93	18.31	17.88	16.51	14.80	13.78	13.58	12.55	12.24	11.69	11.40	10.48	10.07	8.940	8.214	7.817	6.809	6.562	6.833	6.325	5.401	4.859	4.102	3.998	3.760	3.578	3.446	3.652	3.339	2.966	2.939	2.585	3.025	4.916	12.10	23.83	103.0	572.4	1312	265.9	13.56	1.166
590.0	95.07	109.3	108.2	81.26	72.56	69.53	72.54	85.85	104.8	164.8	164.6	136.9	132.8	353.4	4037	5087	236.8	28.06	24.24	22.63	20.90	20.42	19.66	19.84	19.63	19.38	19.08	19.56	19.55	19.82	19.70	18.44	18.00	16.66	15.49	15.40	14.83	14.57	13.51	12.29	11.82	11.49	10.48	10.17	9.891	9.440	8.816	8.361	7.338	6.951	6.408	5.884	5.414	5.515	5.531	5.040	4.412	3.656	3.616	3.359	3.063	3.149	3.050	3.031	2.859	2.655	2.362	2.502	2.679	4.296	6.830	24.47	132.6	489.9	827.4	542.5	20.23
595.0	86.70	106.8	107.1	85.95	65.74	62.15	67.91	79.65	99.00	130.2	174.0	138.3	120.0	141.2	1031	5643	1950	31.36	20.89	19.19	17.87	16.49	16.64	16.02	16.13	15.89	15.22	15.19	15.97	15.89	15.58	14.74	13.92	13.30	12.77	12.29	12.10	11.41	10.98	9.705	9.199	9.185	8.288	8.364	8.185	8.013	7.194	7.229	6.365	5.802	5.161	4.920	4.600	4.402	4.211	4.628	3.974	3.544	3.234	3.025	2.679	2.669	2.695	2.768	2.664	2.462	2.104	2.231	2.235	2.358	2.746	6.697	30.80	110.2	229.0	718.5	667.8
600.0	76.00	107.8	97.32	75.81	63.07	56.50	64.58	76.30	91.23	117.5	172.7	144.6	113.4	92.99	274.5	3031	4522	79.02	19.91	16.88	15.06	15.31	13.90	14.08	13.72	12.45	13.77	12.44	13.57	13.61	13.43	12.67	11.71	11.19	10.87	10.50	10.07	9.708	9.473	8.871	7.808	7.508	6.974	7.143	6.734	6.508	6.316	6.103	5.436	5.097	4.679	4.127	4.085	3.870	3.490	3.708	3.825	3.299	2.907	2.602	2.585	2.287	2.411	2.623	2.493	2.536	2.244	2.172	1.913	1.891	1.802	2.641	8.068	25.59	52.52	241.0	794.6
605.0	79.11	109.7	87.59	69.61	59.64	53.34	64.31	74.38	90.96	108.8	157.8	158.6	114.5	84.90	100.7	987.9	5576	570.7	20.13	15.86	13.54	13.16	12.56	12.40	11.64	10.95	11.64	11.31	11.36	11.36	11.05	11.24	10.29	9.801	9.454	8.787	8.586	8.048	8.163	7.264	6.861	6.603	6.124	6.218	5.817	5.628	5.748	5.421	4.606	4.334	3.994	3.568	3.641	3.415	3.127	3.301	3.447	3.035	2.660	2.515	2.430	2.130	2.198	2.169	2.370	2.296	2.113	1.900	1.802	1.731	1.702	1.704	2.735	6.740	12.82	55.83	309.0
610.0	72.84	93.65	86.79	71.31	51.75	49.98	58.25	72.46	88.29	106.8	139.0	167.2	119.5	83.61	62.75	258.6	3001	3312	57.77	14.46	11.91	11.47	10.61	10.45	9.942	9.348	9.802	9.833	9.684	9.423	9.225	9.045	8.550	8.049	7.909	7.340	7.194	6.861	6.484	6.350	5.687	5.376	5.094	5.021	4.902	4.806	4.451	4.415	3.933	3.641	3.178	3.011	3.008	2.763	2.490	2.649	2.757	2.814	2.473	2.193	2.139	1.866	2.047	1.942	2.046	2.059	2.041	1.903	1.725	1.674	1.531	1.478	1.525	2.403	3.753	13.34	71.30
615.0	73.63	88.61	76.96	70.60	50.58	46.67	55.48	69.76	83.34	101.8	125.7	155.1	130.5	83.62	55.17	84.12	775.8	4116	627.0	15.17	10.90	10.09	8.995	9.168	8.119	8.269	8.138	8.250	7.821	7.516	7.663	7.164	6.922	6.773	6.364	6.119	6.006	5.577	5.276	4.717	4.841	4.226	4.542	4.195	4.097	3.758	3.750	3.712	3.183	2.970	2.733	2.591	2.476	2.429	2.146	2.006	2.239	2.253	2.323	2.222	1.990	1.852	1.829	1.863	1.759	1.915	1.710	1.889	1.778	1.623	1.394	1.364	1.200	1.346	1.674	3.760	16.58
620.0	77.07	76.56	79.25	66.06	47.13	46.04	59.67	70.21	80.69	98.30	116.6	137.6	138.3	87.16	54.78	44.51	197.8	2436	2889	46.77	10.81	9.228	8.330	7.913	7.706	7.247	7.196	7.052	6.711	6.627	6.318	6.231	6.216	6.029	6.094	5.420	5.197	4.950	4.619	4.316	3.983	3.595	3.873	3.468	3.243	3.465	3.004	3.237	2.775	2.536	2.311	2.116	2.300	1.901	1.927	1.716	1.932	1.906	2.118	2.067	1.814	1.753	1.846	1.615	1.558	1.739	1.432	1.640	1.668	1.639	1.237	1.282	1.240	1.134	1.168	1.591	4.297
625.0	64.66	71.76	71.49	61.37	47.44	44.57	52.17	66.10	79.71	94.79	110.2	124.6	134.8	89.66	54.11	36.38	64.39	836.5	4066	358.2	11.30	8.697	7.739	7.305	7.086	6.091	5.874	6.183	5.721	6.277	5.476	5.663	5.553	5.126	5.061	4.927	4.720	4.429	4.147	3.891	3.499	3.291	3.312	3.051	2.923	3.134	2.851	2.675	2.448	2.371	1.997	1.988	1.833	1.575	1.731	1.688	1.751	1.714	1.823	1.862	1.629	1.609	1.635	1.596	1.597	1.447	1.412	1.426	1.543	1.543	1.418	1.204	1.154	1.039	0.969	1.205	1.481
630.0	63.34	73.08	70.95	55.81	45.38	42.21	52.23	61.35	75.46	91.50	107.3	115.1	125.5	98.23	56.56	34.11	33.20	212.5	2429	2258	38.58	8.174	6.971	6.364	6.093	5.251	5.377	5.099	5.002	5.114	4.708	4.775	4.708	4.502	4.162	4.022	3.929	3.583	3.382	3.337	3.016	2.820	2.890	2.645	2.463	2.499	2.278	2.239	2.025	1.909	1.790	1.625	1.497	1.442	1.405	1.351	1.489	1.354	1.523	1.517	1.514	1.432	1.378	1.479	1.378	1.281	1.172	1.301	1.311	1.383	1.351	1.256	1.050	1.013	0.947	0.903	0.877
635.0	61.60	76.96	73.72	52.39	46.49	43.90	48.42	57.03	71.61	87.71	107.2	109.2	110.3	102.8	60.49	36.34	25.53	61.36	643.1	3253	480.0	8.928	6.650	5.948	5.359	5.052	4.431	4.161	4.133	4.165	4.091	4.105	3.809	3.824	3.454	3.533	3.464	3.401	3.095	2.923	2.656	2.238	2.326	2.123	2.134	2.140	1.841	1.839	1.738	1.532	1.475	1.312	1.277	1.226	1.211	1.203	1.255	1.128	1.204	1.171	1.292	1.456	1.215	1.219	1.267	1.308	1.201	1.287	1.243	1.233	1.248	1.198	1.068	0.927	0.872	0.842	0.760
640.0	63.93	71.03	70.13	53.70	41.50	39.66	46.89	57.87	73.00	83.05	101.4	109.5	108.0	97.67	67.29	37.16	24.85	27.79	159.3	2147	1954	24.63	6.550	5.389	5.156	4.396	4.180	3.892	3.697	3.786	3.742	3.736	3.411	3.341	3.183	3.069	3.057	3.074	2.739	2.654	2.256	2.060	2.021	1.838	1.868	1.818	1.650	1.566	1.454	1.405	1.247	1.145	1.110	1.131	1.038	1.127	1.219	1.040	1.159	1.096	1.203	1.301	1.124	1.091	1.092	1.028	1.178	1.192	1.144	1.129	1.080	1.082	1.169	0.967	0.829	0.737	0.670
645.0	59.99	72.95	68.34	51.08	40.13	40.57	46.25	58.26	70.06	85.74	97.29	109.6	103.8	92.62	72.29	37.15	24.70	19.60	45.99	794.2	3026	70.99	6.900	5.312	4.606	3.867	3.794	3.547	3.556	3.531	3.410	3.266	2.857	2.674	3.036	2.615	2.674	2.645	2.414	2.304	1.882	1.917	1.894	1.635	1.632	1.615	1.538	1.561	1.295	1.324	1.117	1.025	1.042	1.008	0.968	0.946	1.093	1.007	1.023	0.996	1.053	1.168	1.075	1.112	1.052	1.038	1.160	1.001	1.031	1.106	1.066	0.953	0.966	1.041	0.664	0.761	0.739
650.0	58.93	77.23	72.11	56.41	38.98	37.29	43.63	52.11	65.20	80.54	95.64	106.4	101.9	87.55	76.35	41.02	24.76	17.78	20.81	211.6	2633	991.3	8.920	5.133	4.653	3.815	3.739	3.302	3.179	3.317	2.973	3.026	2.944	2.288	2.762	2.510	2.378	2.588	2.415	2.109	1.856	1.721	1.702	1.525	1.516	1.529	1.310	1.282	1.316	1.072	1.011	1.030	0.901	0.927	0.813	0.887	1.040	0.942	0.825	0.967	0.919	1.033	1.194	1.165	0.919	0.991	1.193	1.110	0.980	0.933	0.947	0.862	0.853	1.037	0.689	0.731	0.722
