Sample:	'1
File name:	G2025073107¹ãÈÄÔ°Çø01.FD3
Run date:	'10:32:36, 08/06/2025
Operator:	Administrator
Comment:	'

Instrument
Model:	F-2700 FL Spectrophotometer
Serial number:	23B8-004
ROM Version:	4J14000 07

Instrument parameters
Measurement type:	3-D scan
Data mode:	Fluorescence
EX  Start WL:	220.0 nm
EX  End WL:	600.0 nm
EX Sampling interval:	5.0 nm
EM  Start WL:	230.0 nm
EM  End WL:	650.0 nm
EM Sampling interval:	5.0 nm
Scan speed:	12000 nm/min
EX Slit:	5.0 nm
EM Slit:	5.0 nm
PMT Voltage:	700 V
Response:	Auto 
Corrected spectra:	Off
Contour interval:	50.000

Peak integration
Integration method:	Rectangular
Sensitivity:	1
Threshold:	1.000

Peaks
No.	ApexEX/EM(nm)	Height(Data)
1	230.0/345.0	1756
2	235.0/395.0	1563
3	240.0/265.0	354.4
4	240.0/380.0	1575
5	245.0/405.0	1542
6	250.0/275.0	488.0
7	250.0/545.0	247.7
8	255.0/280.0	603.7
9	255.0/560.0	192.9
10	260.0/285.0	586.2
11	260.0/570.0	151.7
12	265.0/585.0	134.3
13	270.0/300.0	1095
14	270.0/385.0	1296
15	270.0/600.0	116.9
16	275.0/305.0	1283
17	275.0/370.0	1275
18	275.0/610.0	101.5
19	280.0/310.0	1216
20	280.0/340.0	1382
21	280.0/625.0	89.52
22	285.0/320.0	1330
23	285.0/635.0	68.92
24	290.0/325.0	1311
25	460.0/345.0	4.798
26	485.0/380.0	5.565
27	505.0/275.0	2.866
28	505.0/395.0	5.881
29	510.0/405.0	5.789
30	515.0/280.0	3.211
31	520.0/285.0	3.746
32	525.0/420.0	5.447
33	530.0/290.0	3.263
34	540.0/295.0	4.475
35	545.0/300.0	5.102
36	550.0/305.0	5.465
37	560.0/310.0	5.455
38	580.0/320.0	6.171
39	585.0/325.0	6.291

Data points
	220.0	225.0	230.0	235.0	240.0	245.0	250.0	255.0	260.0	265.0	270.0	275.0	280.0	285.0	290.0	295.0	300.0	305.0	310.0	315.0	320.0	325.0	330.0	335.0	340.0	345.0	350.0	355.0	360.0	365.0	370.0	375.0	380.0	385.0	390.0	395.0	400.0	405.0	410.0	415.0	420.0	425.0	430.0	435.0	440.0	445.0	450.0	455.0	460.0	465.0	470.0	475.0	480.0	485.0	490.0	495.0	500.0	505.0	510.0	515.0	520.0	525.0	530.0	535.0	540.0	545.0	550.0	555.0	560.0	565.0	570.0	575.0	580.0	585.0	590.0	595.0	600.0
230.0	72.03	1152	3360	1315	62.99	9.386	6.973	5.731	5.022	4.247	4.282	3.829	3.682	3.255	2.690	2.194	1.906	1.852	1.764	1.574	1.359	1.084	1.167	1.038	1.099	0.942	0.876	0.757	0.827	0.760	0.742	0.734	0.636	0.610	0.557	0.507	0.554	0.464	0.444	0.470	0.496	0.714	0.824	0.583	0.417	0.381	1.254	5.925	11.43	9.046	3.780	0.840	0.304	0.269	0.309	0.273	0.307	0.303	0.310	0.286	0.293	0.297	0.281	0.333	0.295	0.278	0.279	0.264	0.281	0.283	0.263	0.281	0.282	0.278	0.271	0.267	0.286
235.0	168.6	328.7	1733	3376	724.3	88.88	9.521	6.460	5.830	5.119	4.520	3.719	3.775	3.472	2.912	2.174	2.082	1.944	1.465	1.707	1.453	1.195	1.140	1.124	1.101	0.875	0.962	0.860	0.826	0.832	0.664	0.613	0.612	0.634	0.565	0.505	0.470	0.446	0.427	0.544	0.512	0.476	0.624	0.730	0.636	0.492	0.522	1.696	3.830	6.910	10.70	11.95	6.073	1.698	0.404	0.286	0.286	0.269	0.303	0.343	0.258	0.288	0.264	0.296	0.293	0.254	0.296	0.304	0.254	0.250	0.251	0.293	0.238	0.288	0.268	0.271	0.288
240.0	208.7	217.9	478.1	2358	3581	569.9	48.58	8.401	6.445	5.886	4.704	4.806	3.796	3.126	2.767	2.141	2.176	2.030	1.685	1.617	1.517	1.321	1.247	1.089	1.194	0.961	0.919	0.915	0.886	0.855	0.736	0.684	0.625	0.605	0.486	0.490	0.439	0.418	0.481	0.447	0.498	0.443	0.483	0.575	0.684	0.772	0.607	0.649	1.187	1.953	4.969	12.06	16.22	12.68	5.154	1.098	0.283	0.300	0.312	0.306	0.290	0.327	0.278	0.242	0.280	0.267	0.361	0.299	0.280	0.359	0.269	0.258	0.225	0.277	0.325	0.312	0.386
245.0	128.5	264.3	198.9	739.0	3233	3780	440.8	24.53	7.289	6.990	5.062	5.095	3.809	3.336	2.920	2.196	2.187	2.035	1.878	1.575	1.646	1.353	1.196	1.127	1.201	1.117	1.012	0.782	0.920	0.825	0.759	0.777	0.712	0.641	0.606	0.586	0.418	0.423	0.463	0.483	0.446	0.391	0.412	0.471	0.474	0.787	0.934	0.902	0.684	0.675	1.380	3.638	9.141	17.27	19.40	12.87	4.105	0.747	0.377	0.315	0.292	0.318	0.349	0.300	0.297	0.255	0.289	0.297	0.309	0.337	0.318	0.295	0.305	0.250	0.295	0.284	0.331
250.0	57.93	157.8	265.7	279.1	966.4	3064	4310	1672	109.6	9.769	7.107	6.338	4.744	4.075	3.320	2.822	2.281	2.403	2.150	1.698	1.545	1.323	1.265	1.212	1.300	1.091	1.011	0.967	0.917	0.842	0.766	0.748	0.676	0.638	0.567	0.584	0.441	0.470	0.406	0.448	0.480	0.408	0.428	0.467	0.418	0.467	0.576	0.832	0.994	0.914	0.808	1.143	2.449	5.253	9.701	15.60	20.23	20.02	12.67	4.424	0.807	0.387	0.325	0.328	0.346	0.304	0.288	0.341	0.283	0.309	0.319	0.304	0.320	0.286	0.313	0.289	0.357
255.0	48.17	55.86	166.9	350.6	328.9	746.6	2744	7515	2307	130.4	10.40	7.619	6.490	4.748	3.695	3.249	2.688	2.293	1.980	1.826	1.752	1.296	1.459	1.288	1.162	1.159	1.126	1.137	1.122	0.756	0.840	0.809	0.750	0.630	0.730	0.487	0.456	0.463	0.508	0.458	0.523	0.420	0.444	0.427	0.341	0.424	0.394	0.515	0.534	0.820	1.247	1.306	1.112	1.481	2.448	3.908	6.425	14.41	29.41	31.58	20.37	5.970	0.641	0.399	0.334	0.351	0.330	0.383	0.347	0.296	0.333	0.348	0.296	0.315	0.281	0.301	0.327
260.0	35.46	37.79	64.06	267.9	351.8	240.6	766.9	5227	8103	1820	68.32	10.77	8.171	6.028	4.071	3.745	3.144	2.563	2.286	1.841	1.895	1.405	1.402	1.174	1.381	1.118	1.251	1.171	1.064	0.829	0.870	0.862	0.637	0.651	0.757	0.551	0.538	0.500	0.526	0.458	0.573	0.418	0.421	0.513	0.375	0.483	0.396	0.429	0.349	0.493	0.771	1.551	1.685	1.330	0.966	1.207	1.754	3.800	10.63	24.25	40.93	31.49	18.06	3.152	0.523	0.338	0.345	0.364	0.315	0.281	0.460	0.348	0.356	0.324	0.301	0.279	0.397
265.0	44.68	37.43	34.11	116.4	354.4	274.7	216.7	1627	7067	8608	292.4	27.92	9.388	7.423	4.923	4.325	3.258	2.704	2.562	2.143	1.698	1.511	1.443	1.298	1.517	1.221	1.338	1.155	0.983	1.122	0.852	0.898	0.812	0.692	0.637	0.694	0.587	0.476	0.443	0.583	0.492	0.431	0.469	0.522	0.455	0.381	0.403	0.387	0.404	0.374	0.440	0.848	1.491	2.034	1.580	0.861	0.697	1.170	2.802	6.682	17.10	37.31	50.65	28.85	12.06	1.620	0.403	0.433	0.396	0.409	0.273	0.324	0.319	0.307	0.335	0.318	0.358
270.0	74.41	53.43	40.59	53.42	151.8	370.3	316.5	426.8	2066	6839	9584	3262	81.77	11.62	6.975	5.205	4.143	3.329	2.782	2.331	2.066	1.730	1.644	1.508	1.370	1.418	1.293	1.152	1.062	1.080	0.858	1.011	0.893	0.790	0.666	0.723	0.669	0.598	0.478	0.555	0.542	0.531	0.523	0.606	0.505	0.468	0.449	0.391	0.450	0.380	0.407	0.477	0.670	1.139	1.518	1.947	1.929	1.226	1.110	1.869	4.256	9.931	19.95	31.14	43.66	40.75	19.50	9.116	1.690	0.426	0.348	0.375	0.359	0.324	0.394	0.383	0.388
275.0	158.2	114.8	84.16	55.12	59.01	153.8	488.0	388.6	527.1	1659	5602	9999.9	1613	91.81	11.03	7.219	5.423	3.887	3.429	2.858	2.549	1.953	1.842	1.676	1.278	1.383	1.374	1.097	1.048	1.092	1.026	1.098	0.887	0.867	0.705	0.743	0.827	0.698	0.612	0.753	0.592	0.594	0.633	0.717	0.633	0.645	0.557	0.541	0.519	0.436	0.361	0.395	0.472	0.567	0.679	0.896	2.045	2.866	2.537	1.300	1.471	2.702	4.981	7.505	11.46	20.83	45.84	66.90	30.44	12.42	1.084	0.417	0.435	0.455	0.391	0.414	0.347
280.0	249.3	202.0	146.9	78.24	46.14	65.93	276.1	603.7	322.6	454.8	1528	8323	9999.9	1211	47.67	10.29	7.041	4.746	4.040	2.940	2.583	2.266	2.008	1.967	1.548	1.631	1.453	1.257	1.108	1.137	0.999	1.082	0.962	0.714	0.822	0.959	0.963	0.849	0.771	0.864	0.872	0.738	0.841	0.839	0.843	0.837	0.736	0.770	0.684	0.483	0.517	0.471	0.426	0.464	0.517	0.575	1.034	1.623	2.914	3.211	1.920	1.234	1.702	2.228	3.075	5.404	13.63	35.73	62.99	71.82	25.33	6.402	0.616	0.452	0.391	0.495	0.452
285.0	371.9	322.1	223.8	110.5	60.06	55.18	123.8	475.3	586.2	263.3	468.6	2479	9999.9	9999.9	808.3	21.63	9.327	6.508	4.941	3.198	3.072	2.921	2.190	2.303	1.750	1.592	1.434	1.360	1.220	1.261	0.940	1.035	1.023	0.849	0.883	1.035	1.088	1.105	0.888	0.884	0.909	0.820	1.099	0.987	1.066	1.147	0.908	1.000	0.856	0.679	0.513	0.544	0.437	0.424	0.460	0.474	0.668	0.818	1.492	2.790	3.746	2.538	1.441	1.148	1.351	1.877	3.815	9.063	21.57	50.98	72.50	35.40	19.13	2.664	0.429	0.459	0.523
290.0	480.3	446.8	327.9	173.5	94.54	82.16	108.4	233.0	579.4	579.7	336.1	756.8	2935	9032	9999.9	2652	48.86	9.498	6.379	4.685	3.688	2.959	2.677	2.259	1.997	1.779	1.532	1.589	1.481	1.282	1.179	1.033	0.979	0.914	0.993	1.291	1.261	1.340	1.118	1.072	1.076	1.096	1.119	1.068	1.298	1.431	1.277	1.318	1.089	0.924	0.722	0.728	0.559	0.553	0.606	0.599	0.702	0.781	0.917	1.381	2.132	2.970	3.263	2.873	1.987	1.579	1.872	2.906	5.761	12.92	23.74	35.05	53.32	48.92	41.14	13.07	2.747
295.0	577.8	551.5	414.6	257.5	143.9	124.0	138.5	190.2	332.2	717.5	834.0	514.8	911.6	2243	5914	9999.9	895.9	52.73	9.525	6.681	4.663	3.467	3.291	2.507	2.127	1.898	1.784	1.608	1.430	1.434	1.292	1.229	1.022	0.949	1.177	1.375	1.544	1.499	1.343	1.387	1.270	1.318	1.259	1.301	1.428	1.482	1.507	1.347	1.402	1.161	0.899	0.878	0.682	0.688	0.645	0.753	0.788	0.753	0.957	1.099	1.325	1.750	2.290	3.765	4.475	3.584	2.363	2.059	2.637	4.104	6.489	8.842	13.29	19.35	48.04	75.75	36.45
300.0	626.8	612.2	470.9	288.6	187.6	160.7	187.2	227.3	322.6	547.8	1095	814.1	565.3	751.5	1640	8053	9999.9	709.1	29.09	8.403	6.028	4.594	3.695	2.966	2.606	1.969	1.885	1.676	1.516	1.454	1.573	1.274	1.079	0.977	1.132	1.353	1.534	1.541	1.435	1.440	1.474	1.488	1.391	1.469	1.512	1.654	1.595	1.613	1.592	1.237	0.978	1.039	0.867	0.966	0.733	0.855	0.959	1.024	1.113	1.221	1.322	1.622	1.840	2.445	3.630	5.102	4.575	2.981	2.386	2.490	3.006	3.284	4.055	5.308	13.13	33.20	60.71
305.0	703.4	669.3	539.5	350.9	231.2	215.3	241.1	296.0	400.2	544.0	938.1	1283	730.5	529.5	615.8	2353	9999.9	6399	97.02	14.97	7.989	5.609	4.233	3.505	2.804	2.275	2.190	1.762	1.739	1.652	1.429	1.390	1.134	1.122	1.109	1.441	1.529	1.693	1.742	1.569	1.451	1.305	1.572	1.548	1.676	1.705	1.631	1.839	1.787	1.415	1.151	1.237	0.986	1.059	0.895	1.112	1.124	1.276	1.477	1.504	1.669	1.940	2.202	2.411	2.848	3.885	5.465	5.373	4.059	2.980	2.510	2.548	2.390	2.743	4.111	8.579	18.81
310.0	714.3	748.9	624.2	415.7	287.9	275.8	311.5	379.0	481.1	621.5	827.9	1178	1216	722.4	492.1	750.9	2909	7519	7995	1932	33.01	8.126	5.407	4.260	3.491	2.649	2.355	2.213	1.785	1.850	1.482	1.441	1.276	1.273	1.208	1.524	1.568	1.664	1.902	1.660	1.681	1.539	1.685	1.677	1.715	1.880	1.826	2.135	1.880	1.593	1.368	1.433	1.250	1.206	1.167	1.303	1.404	1.516	1.749	1.759	2.029	2.304	2.479	2.738	2.921	3.181	3.847	4.650	5.455	5.116	4.175	3.139	2.737	2.417	2.320	3.369	5.394
315.0	810.5	819.9	700.6	499.7	371.4	356.8	381.6	453.1	565.1	712.5	860.1	1035	1211	1202	663.8	506.5	913.8	1902	5281	9999.9	617.4	35.46	8.385	5.897	4.120	3.516	2.877	2.376	2.144	1.974	1.712	1.516	1.313	1.287	1.286	1.459	1.747	1.813	1.810	1.761	1.796	1.793	1.696	1.689	1.812	2.173	2.017	2.296	2.049	1.797	1.665	1.725	1.535	1.423	1.374	1.580	1.600	1.813	1.951	2.101	2.165	2.580	2.626	2.865	3.348	3.426	3.747	4.046	4.447	4.756	5.599	5.627	4.172	3.114	2.547	2.649	2.996
320.0	952.9	974.9	866.0	638.5	475.1	446.8	461.2	525.9	626.2	786.3	944.7	1086	1135	1330	1046	604.2	582.2	705.3	1514	7569	9476	505.7	18.78	7.735	4.657	3.971	3.215	2.413	2.282	2.157	1.743	1.670	1.503	1.317	1.380	1.596	1.814	1.799	1.921	1.809	1.801	1.750	1.899	1.920	2.110	2.293	2.491	2.750	2.385	2.028	1.921	2.098	1.846	1.829	1.747	1.821	1.997	2.018	2.212	2.483	2.553	2.631	2.971	3.217	3.758	3.772	3.844	4.337	4.578	4.248	4.609	5.811	6.171	4.991	3.697	3.255	2.789
325.0	999.3	1205	1101	821.1	579.8	522.7	529.1	581.2	697.2	849.6	1006	1149	1184	1230	1311	841.0	601.7	504.3	565.5	2277	9077	4653	72.38	11.97	6.370	4.891	3.669	2.994	2.522	2.276	2.111	1.745	1.479	1.416	1.413	1.616	1.765	1.745	1.888	1.846	1.992	1.796	2.022	2.117	2.484	2.554	2.852	3.119	2.964	2.596	2.390	2.360	2.217	2.162	2.202	2.078	2.317	2.293	2.249	2.517	2.781	2.722	3.249	3.268	3.956	4.050	4.345	4.420	4.748	4.688	4.733	5.044	5.866	6.291	5.669	4.378	3.352
330.0	1141	1398	1390	1080	770.2	644.5	597.1	626.6	750.7	907.1	1081	1211	1243	1216	1218	1141	818.0	549.3	425.1	723.4	2636	6179	6534	1534	26.05	6.862	4.987	3.770	2.977	2.511	2.351	1.956	1.595	1.445	1.498	1.634	1.721	1.959	1.848	2.115	2.006	1.971	2.192	2.343	2.769	2.904	3.173	3.560	3.761	3.452	3.136	3.177	2.873	2.774	2.701	2.403	2.496	2.466	2.496	2.818	3.032	3.104	3.423	3.667	4.177	4.378	4.445	4.744	4.922	5.062	4.889	4.948	5.273	5.526	5.848	5.871	5.168
335.0	1259	1554	1626	1332	1064	819.7	701.1	710.5	820.1	972.7	1146	1286	1339	1301	1222	1148	1159	765.2	500.8	451.8	748.0	1517	4715	9470	492.1	29.36	7.261	4.805	3.880	2.928	2.674	2.364	1.762	1.758	1.542	1.523	1.909	2.056	2.125	2.117	1.999	2.079	2.353	2.708	2.721	3.195	3.797	4.058	4.102	3.997	3.910	4.045	3.785	3.651	3.226	2.820	2.971	2.750	2.963	3.039	3.212	3.226	3.733	3.947	4.353	4.373	4.863	4.963	5.151	5.329	5.223	5.460	5.425	5.555	5.465	5.578	5.811
340.0	1330	1611	1751	1461	1187	923.9	765.7	759.7	857.6	1021	1188	1312	1382	1346	1255	1118	1148	996.9	593.1	437.2	360.6	446.7	1289	6850	8258	424.9	16.75	6.556	4.993	3.478	2.847	2.570	2.057	1.739	1.639	1.654	1.738	2.014	2.017	2.096	2.197	2.217	2.305	2.744	2.842	3.236	3.693	4.456	4.586	4.237	4.025	4.698	4.199	4.018	3.588	3.194	3.293	2.983	3.164	3.135	3.302	3.695	3.754	4.052	4.424	4.563	4.709	5.136	5.206	5.445	5.719	5.386	5.558	5.491	5.622	5.255	5.392
345.0	1335	1634	1756	1543	1242	989.6	845.1	803.2	877.8	1028	1169	1307	1359	1349	1256	1119	1043	1052	750.0	469.0	306.5	237.2	382.1	2008	8055	3837	60.90	10.22	5.673	4.692	3.386	2.608	2.092	1.906	1.715	1.651	1.783	2.065	1.959	2.260	2.190	2.260	2.437	2.565	2.738	3.336	3.564	4.452	4.798	4.365	4.515	4.728	4.418	3.938	3.859	3.615	3.653	3.183	3.237	3.286	3.441	3.515	3.873	4.070	4.575	4.492	4.398	4.928	4.996	5.118	5.589	5.338	5.539	5.889	5.539	5.089	5.258
350.0	1252	1582	1727	1601	1346	1105	937.4	871.6	924.0	1053	1175	1280	1341	1331	1255	1129	1021	941.9	871.7	644.9	368.1	253.1	229.5	551.1	2335	5310	5520	1338	22.64	6.401	4.255	3.149	2.420	1.991	1.878	1.740	1.943	2.157	2.140	2.238	2.145	2.196	2.258	2.468	2.764	3.313	3.538	4.359	4.445	4.303	4.361	5.013	4.730	4.468	4.102	3.878	3.984	3.525	3.537	3.516	3.773	3.853	4.045	4.158	4.590	4.511	4.452	4.790	5.036	5.015	5.428	5.375	5.592	5.619	5.583	5.172	5.288
355.0	1236	1533	1671	1589	1441	1219	1036	973.0	1014	1115	1185	1274	1317	1319	1262	1147	1044	918.2	817.7	803.7	535.4	332.9	257.8	275.8	628.4	1307	3993	7964	442.4	26.15	6.287	4.269	2.706	2.433	1.966	1.692	1.946	2.000	2.254	2.205	2.121	2.135	2.367	2.505	2.675	3.201	3.461	4.273	4.689	4.454	4.387	4.956	5.014	4.736	4.573	3.925	4.081	3.883	4.175	3.759	3.892	4.270	4.131	4.252	4.662	4.711	4.470	4.970	5.103	5.039	5.351	5.269	5.406	5.614	5.593	5.561	5.401
360.0	1189	1508	1609	1581	1480	1289	1111	1050	1069	1131	1204	1267	1302	1298	1255	1147	1058	929.4	811.5	783.8	691.2	437.2	315.1	255.5	283.7	392.3	1103	5856	7174	386.0	14.05	5.759	3.708	2.788	2.177	1.828	2.182	2.169	2.289	2.211	2.056	2.310	2.340	2.524	2.737	3.071	3.352	4.179	4.306	4.379	4.278	5.035	5.169	5.025	4.894	4.475	4.380	4.319	4.108	4.192	3.938	4.313	4.311	4.457	4.462	4.696	4.394	4.883	4.950	5.246	5.335	5.335	5.445	5.766	5.647	5.402	5.348
365.0	1233	1521	1595	1585	1479	1343	1160	1110	1106	1172	1222	1267	1290	1269	1234	1144	1063	951.0	831.0	750.0	726.0	586.0	387.3	299.3	247.7	219.2	338.8	1740	7174	3517	55.46	9.211	4.676	3.528	2.743	2.346	2.297	2.165	2.231	2.263	2.140	2.266	2.490	2.477	2.805	2.911	3.436	3.949	4.007	4.086	4.231	4.952	5.090	5.315	4.803	4.542	4.554	4.709	4.365	4.224	4.286	4.441	4.470	4.455	4.647	4.560	4.446	4.794	4.883	5.135	5.077	5.211	5.115	5.605	5.300	5.218	5.383
370.0	1198	1428	1588	1578	1527	1413	1262	1171	1174	1212	1247	1275	1273	1250	1216	1134	1074	980.5	869.7	784.3	704.1	681.9	562.3	394.0	303.4	235.3	210.3	484.1	2091	4994	5173	1218	19.92	5.316	3.607	2.714	2.508	2.410	2.373	2.490	2.329	2.491	2.513	2.558	2.877	3.017	3.299	3.853	3.877	3.998	4.110	5.111	5.247	5.143	4.979	4.847	4.815	4.767	4.486	4.508	4.618	4.607	4.806	4.764	4.755	4.656	4.771	4.777	4.936	4.950	5.185	5.069	5.292	5.566	5.313	5.430	5.441
375.0	1203	1401	1521	1552	1569	1477	1330	1248	1228	1255	1279	1260	1272	1239	1199	1129	1086	1009	923.9	833.9	738.0	679.6	685.4	556.3	390.0	301.8	236.8	246.3	560.9	1230	3813	7223	376.2	22.02	5.298	3.886	3.035	2.704	2.515	2.539	2.215	2.512	2.311	2.673	2.994	3.173	3.273	3.924	4.136	3.861	4.281	5.006	5.078	5.468	4.932	4.938	5.064	5.260	4.677	4.591	4.787	4.672	4.764	4.883	4.974	4.659	4.707	4.762	4.921	4.666	4.968	5.162	4.952	5.100	5.204	5.282	5.159
380.0	1168	1388	1513	1557	1575	1498	1360	1307	1266	1268	1280	1274	1256	1233	1177	1119	1083	1019	946.3	877.3	776.7	696.5	686.1	676.0	490.7	360.3	281.3	231.8	248.8	361.7	1057	5320	6109	317.2	12.70	4.932	3.824	3.087	2.721	2.661	2.374	2.646	2.316	2.595	2.992	2.900	3.510	3.773	3.775	3.821	4.194	4.997	5.024	5.565	5.160	5.015	5.156	5.236	4.981	4.934	5.292	4.924	4.812	5.230	4.891	4.557	4.745	4.826	4.970	4.903	5.138	5.148	5.218	5.176	5.165	5.175	5.151
385.0	1188	1397	1508	1532	1556	1504	1417	1323	1292	1286	1296	1270	1253	1215	1159	1106	1074	1032	959.4	901.5	811.8	735.5	685.9	696.5	610.8	431.3	331.1	261.1	210.0	193.1	316.1	1564	5909	2903	44.90	7.836	4.654	3.609	3.123	2.852	2.655	2.665	2.665	2.629	3.030	2.976	3.409	3.704	3.981	3.873	4.220	5.077	5.266	5.560	5.276	5.316	5.599	5.287	5.241	4.671	4.969	4.899	4.959	5.241	4.873	4.902	4.735	4.688	5.008	4.786	4.953	4.931	5.439	4.969	5.073	5.079	5.237
390.0	1200	1377	1477	1535	1559	1528	1442	1362	1319	1303	1291	1275	1238	1202	1145	1097	1064	1029	977.2	920.5	844.1	781.8	725.5	683.9	663.1	567.3	419.3	323.4	253.8	195.7	182.5	425.2	1688	3805	3934	970.0	17.45	5.319	3.693	3.343	2.885	2.851	2.960	2.936	2.971	3.111	3.432	4.032	3.990	3.757	4.095	4.832	5.347	5.388	5.387	5.542	5.596	5.481	5.204	4.965	4.982	5.028	4.979	5.235	5.302	4.930	4.877	4.625	4.855	4.564	4.785	4.772	5.471	5.094	5.017	5.388	5.271
395.0	1251	1398	1457	1563	1562	1504	1475	1399	1355	1316	1299	1266	1227	1189	1127	1076	1050	1025	979.7	937.6	872.4	818.0	766.3	714.0	654.9	639.3	537.9	399.9	312.4	243.5	193.4	201.6	445.0	929.8	2730	5330	312.9	20.14	5.474	3.985	3.452	3.082	3.268	3.182	3.016	3.324	3.507	4.159	3.771	3.829	3.998	5.083	5.157	5.167	5.087	5.565	5.673	5.881	5.398	5.349	5.280	5.043	4.995	5.288	5.024	5.078	4.838	4.520	4.714	4.899	4.839	4.890	5.125	5.153	5.099	5.307	5.495
400.0	1233	1415	1498	1539	1539	1534	1486	1419	1373	1313	1292	1271	1221	1168	1109	1073	1042	1013	982.1	944.3	889.2	842.1	795.0	741.3	678.4	636.1	619.3	485.6	367.3	288.8	224.4	175.9	187.2	267.9	740.0	3690	4598	276.1	12.79	4.888	3.884	3.392	3.237	3.121	3.218	3.456	3.348	3.862	3.968	3.725	3.918	5.074	5.147	5.530	5.283	5.429	5.351	5.730	5.277	5.550	5.356	5.109	5.219	5.232	4.867	5.092	4.759	4.410	4.701	4.932	4.776	4.889	5.100	5.176	4.891	5.068	5.098
405.0	1222	1409	1505	1529	1527	1542	1473	1426	1375	1329	1302	1268	1215	1155	1100	1049	1033	1000	974.3	934.7	893.3	847.9	814.6	760.6	700.7	642.1	623.5	571.9	427.7	330.3	259.2	194.7	150.0	132.1	214.8	1050	4126	2493	212.9	7.581	4.347	3.772	3.354	3.013	3.321	3.280	3.427	3.825	4.235	3.464	3.796	4.958	5.083	5.487	5.076	5.320	5.730	5.331	5.789	5.554	5.307	5.186	5.286	5.412	5.007	4.785	4.607	4.377	5.065	4.867	4.668	4.411	4.759	5.004	4.744	5.374	5.073
410.0	1195	1380	1450	1489	1513	1500	1449	1425	1380	1343	1298	1246	1198	1129	1072	1020	1004	979.2	955.3	926.2	889.2	854.7	820.0	777.7	722.5	661.7	611.4	592.4	522.1	399.1	303.9	231.0	169.9	125.9	115.7	280.9	1147	2772	3082	883.6	16.38	4.728	3.948	3.375	3.400	3.313	3.397	3.808	4.009	3.658	3.825	4.755	5.038	5.395	5.199	5.276	5.582	5.529	5.447	5.325	5.275	5.283	5.209	5.300	5.280	4.810	4.677	4.520	4.769	4.576	4.610	4.385	4.839	4.777	4.881	4.933	4.946
415.0	1163	1363	1402	1441	1466	1488	1436	1416	1364	1339	1278	1214	1158	1094	1040	980.3	961.7	946.9	924.2	904.1	870.3	836.2	815.1	774.7	730.7	673.9	617.5	575.6	552.5	484.7	357.9	265.0	199.6	146.6	110.5	122.5	297.0	665.2	1860	3955	288.1	19.63	4.870	4.071	3.646	3.591	3.388	3.893	3.687	3.529	3.826	4.726	4.854	5.002	5.310	5.225	5.047	5.550	5.295	5.133	5.545	5.158	5.032	5.115	5.041	4.905	4.789	4.331	4.583	4.801	4.365	4.268	4.370	4.543	4.797	4.600	4.882
420.0	1203	1305	1342	1379	1435	1450	1426	1393	1357	1323	1274	1194	1123	1066	1001	943.2	920.4	906.3	895.5	873.2	847.8	812.6	804.6	770.9	730.6	679.3	624.0	575.5	535.1	514.7	413.1	294.0	220.7	164.7	121.5	97.54	115.1	181.7	486.6	2504	3475	263.9	12.33	4.706	3.871	3.586	3.537	3.747	3.633	3.584	3.758	4.863	4.929	4.881	4.975	4.848	5.334	5.120	5.208	5.351	5.414	5.447	5.048	4.727	4.734	5.050	4.591	4.513	4.347	4.338	4.533	4.361	4.392	4.343	4.649	4.525	4.849
425.0	1148	1269	1331	1347	1390	1401	1403	1384	1345	1302	1260	1185	1100	1024	965.3	910.8	896.4	874.0	862.8	849.3	824.2	803.6	785.7	754.0	723.4	677.4	630.5	573.5	531.1	503.3	455.3	332.3	240.1	181.3	136.8	102.1	83.45	80.80	137.9	688.9	2802	2296	208.6	7.622	4.272	3.975	3.788	4.031	3.776	3.529	3.608	4.506	4.859	4.966	4.925	4.882	5.329	5.296	5.015	5.474	4.984	5.322	5.103	5.023	4.543	4.960	4.524	4.340	4.190	4.228	4.144	4.307	4.227	4.384	4.371	4.195	4.673
430.0	1398	1214	1289	1300	1339	1362	1371	1369	1333	1296	1232	1158	1072	990.7	931.0	875.4	857.1	841.9	829.0	812.3	793.6	777.0	759.1	738.5	709.6	669.8	627.1	581.6	537.3	490.4	453.3	386.9	282.3	207.0	158.2	118.3	90.24	70.41	68.46	181.2	752.2	1974	2479	838.6	16.86	4.916	4.267	4.107	3.833	3.478	3.591	4.395	4.615	4.802	4.591	4.668	5.234	5.095	5.097	5.083	5.276	5.346	4.825	5.021	4.853	4.634	4.698	4.427	4.228	4.220	3.961	4.232	4.040	4.278	4.039	4.181	4.402
435.0	2354	1198	1253	1242	1278	1326	1334	1354	1298	1263	1214	1137	1038	954.6	888.7	831.2	812.2	802.4	784.9	771.9	755.2	744.2	729.6	716.2	690.0	657.8	618.7	584.4	544.9	494.3	439.3	395.5	334.8	242.7	179.4	139.5	106.2	80.54	63.56	75.33	193.6	467.5	1284	3290	1275	21.93	5.184	4.418	4.162	3.726	3.627	4.265	4.705	4.814	4.582	4.750	4.960	5.173	5.432	5.171	4.984	5.138	4.819	4.910	4.902	4.451	4.452	4.323	4.209	4.471	3.926	4.054	4.064	4.218	3.887	4.083	4.203
440.0	3045	1439	1192	1194	1238	1266	1299	1304	1278	1237	1199	1108	1022	929.4	857.4	803.8	773.8	766.3	755.9	741.7	722.6	714.5	704.8	691.7	672.4	637.3	611.1	578.0	538.0	494.8	435.6	383.3	349.9	275.6	196.9	151.3	117.2	90.44	68.83	57.77	73.70	127.2	329.9	1883	3310	258.1	15.35	4.847	4.243	3.521	3.813	4.515	4.384	4.517	4.818	4.966	5.085	5.136	4.756	5.256	4.826	4.595	4.911	4.821	4.775	4.480	4.404	4.282	4.090	4.285	3.921	3.968	3.846	3.799	3.876	3.921	3.867
445.0	2949	2076	1141	1157	1204	1225	1251	1283	1257	1216	1164	1075	985.9	895.8	828.0	775.6	751.6	732.1	717.9	707.2	689.8	687.7	676.0	665.6	647.0	620.8	595.3	567.1	530.9	494.4	433.2	372.4	333.6	298.1	220.5	165.0	126.5	98.65	75.72	59.31	50.90	55.36	94.40	500.3	2297	2122	205.3	9.779	4.429	3.936	3.613	4.139	4.358	4.304	4.837	4.568	5.071	4.867	4.976	4.932	4.902	4.671	4.837	4.800	4.596	4.201	4.333	4.013	3.833	3.939	3.998	3.867	3.734	3.763	3.573	3.676	4.038
450.0	1890	2909	1378	1097	1119	1158	1189	1212	1199	1151	1107	1029	934.9	848.2	776.4	720.4	697.2	675.2	666.4	656.3	641.4	639.4	631.8	620.6	605.8	587.7	566.3	538.9	511.7	477.6	427.8	369.5	318.5	286.5	246.9	184.9	138.3	108.3	86.15	67.62	53.11	44.82	45.90	131.0	598.0	1644	2113	800.2	15.72	4.561	4.006	4.429	4.105	4.112	4.296	4.483	4.693	4.636	4.758	4.679	4.566	4.696	4.484	4.507	4.418	4.224	3.910	3.765	3.697	3.782	3.550	3.602	3.705	3.658	3.571	3.501	3.684
455.0	1092	2559	2491	1057	1050	1077	1105	1131	1128	1107	1043	972.4	866.3	787.2	715.1	666.1	638.4	620.1	612.9	598.4	584.5	579.3	580.5	572.0	559.4	540.7	523.3	506.5	482.2	454.7	411.9	360.0	306.5	266.3	238.7	207.5	153.9	117.3	94.22	75.36	58.91	48.61	39.16	51.91	151.0	384.8	930.8	2592	1134	18.77	4.732	4.679	4.290	3.965	3.830	4.228	4.415	4.360	4.525	4.334	4.549	4.406	4.176	4.163	4.346	4.133	3.862	3.584	3.573	3.397	3.290	3.303	3.217	3.562	3.503	3.364	3.405
460.0	832.8	1661	3249	1160	968.6	993.0	1046	1077	1080	1040	983.2	924.7	826.2	739.5	672.6	623.0	599.8	585.6	569.1	553.6	545.1	538.4	536.9	529.6	525.8	506.1	492.7	479.9	456.9	435.5	397.6	350.1	299.2	256.5	223.9	209.4	170.4	124.4	98.75	79.94	63.87	52.49	40.51	36.85	53.63	101.7	232.0	1310	2574	763.8	15.04	5.160	4.512	4.150	3.820	4.064	4.093	3.978	4.302	4.221	4.265	4.233	4.409	3.901	4.237	4.092	3.951	3.695	3.454	3.203	3.120	3.134	3.012	2.992	3.303	3.213	3.114
465.0	741.5	1055	3050	1957	927.7	938.9	969.5	1019	1022	987.8	940.0	872.5	781.2	702.0	638.1	583.4	554.9	539.0	528.1	515.8	505.9	504.4	495.4	495.0	485.2	474.2	462.5	446.3	433.6	413.6	379.5	334.9	289.4	247.2	213.4	193.1	177.7	135.2	103.3	82.20	67.31	54.74	44.19	35.39	33.59	40.03	66.02	335.9	1630	2206	183.1	11.13	4.622	4.423	3.966	3.903	4.112	4.059	3.876	3.855	3.907	4.033	4.135	3.882	3.806	3.766	3.569	3.420	3.159	3.160	3.156	2.922	2.815	2.992	3.016	2.935	2.893
470.0	699.8	799.1	1822	2930	1170	861.4	891.2	923.6	924.9	908.4	865.4	797.3	717.3	642.1	577.7	527.6	500.5	486.7	473.5	459.7	452.2	448.5	446.4	442.7	435.4	428.0	418.2	403.6	395.1	379.9	350.4	313.3	271.5	235.6	202.2	175.5	164.1	143.6	111.2	85.52	70.37	57.79	46.91	37.92	32.35	28.58	30.17	87.67	414.0	1225	1480	746.3	16.41	4.832	4.138	3.681	3.924	3.861	3.806	3.737	3.821	3.705	3.789	3.621	3.506	3.399	3.407	3.026	3.143	2.923	2.789	2.677	2.755	2.719	2.773	2.730	2.740
475.0	661.0	674.3	950.3	2554	2162	805.4	803.4	837.0	824.4	826.8	794.4	729.3	658.8	588.2	521.7	480.3	448.4	432.3	422.7	413.5	399.3	397.4	396.0	392.5	386.8	382.6	374.8	365.9	356.7	342.6	321.0	287.3	253.1	222.7	192.9	164.7	145.6	134.9	121.1	92.11	72.29	59.36	49.01	41.04	34.10	27.85	24.63	33.62	103.5	283.3	580.1	1647	878.6	22.08	4.427	3.904	3.768	3.479	3.629	3.458	3.441	3.363	3.515	3.442	3.326	3.100	2.918	2.829	2.790	2.465	2.664	2.468	2.599	2.355	2.559	2.690	2.422
480.0	597.5	642.9	694.9	1628	2982	1014	765.8	773.2	790.2	773.1	743.7	691.8	608.9	542.4	488.6	444.4	414.5	398.5	387.2	377.9	368.0	364.8	364.8	357.9	356.3	350.1	346.1	338.0	335.5	318.2	298.5	270.3	241.5	211.7	184.1	159.8	140.0	125.6	119.8	99.85	74.85	60.50	51.31	43.45	35.96	30.10	24.36	22.71	35.53	73.10	142.1	756.5	1808	236.6	15.96	4.162	3.882	3.722	3.573	3.425	3.373	3.263	3.282	3.289	3.115	3.033	2.748	2.617	2.729	2.489	2.668	2.418	2.522	2.352	2.326	2.285	2.456
485.0	546.1	645.6	622.2	938.0	2928	1648	705.3	742.7	747.1	724.7	697.8	649.9	579.9	508.7	462.1	411.2	388.2	374.4	359.7	351.1	340.7	336.6	334.6	334.7	329.8	326.5	320.7	316.1	312.6	300.3	285.1	257.5	229.5	202.9	177.2	153.9	134.1	119.2	112.6	104.0	80.70	62.01	52.77	44.02	37.20	31.39	25.62	21.67	21.44	26.56	40.56	192.6	1060	1600	205.8	10.30	4.053	3.730	3.467	3.098	3.298	3.065	3.204	3.029	2.923	2.904	2.598	2.649	2.566	2.659	2.536	2.248	2.364	2.240	2.217	2.166	2.423
490.0	477.9	613.5	576.1	642.0	1733	2744	968.7	679.9	680.2	674.2	645.1	600.8	532.8	471.4	421.7	378.9	356.7	340.7	330.0	318.4	312.1	304.9	306.8	306.4	300.0	298.7	291.2	287.0	285.1	276.3	263.0	237.8	213.1	190.6	168.7	146.4	129.0	113.6	100.9	97.53	88.39	68.26	54.37	45.76	38.67	32.77	27.76	23.35	19.48	17.44	18.65	51.14	264.6	837.8	1381	714.1	19.44	4.285	3.585	3.091	3.051	2.992	2.819	2.972	2.877	2.658	2.512	2.545	2.339	2.201	2.371	2.261	2.015	2.209	1.984	2.137	2.158
495.0	398.0	521.1	567.9	534.9	820.9	2535	1990	651.8	619.1	607.7	583.6	541.8	492.6	431.5	385.8	344.7	320.6	305.2	295.3	285.8	278.9	272.9	271.4	272.1	269.3	267.9	263.1	258.4	255.8	253.7	237.1	216.1	198.5	174.5	156.3	137.2	122.7	108.0	94.94	85.77	83.42	75.03	58.25	46.10	39.92	33.82	28.63	24.31	20.41	16.70	14.60	19.90	66.16	193.8	518.8	1513	996.1	25.64	3.853	3.081	2.944	2.861	2.760	2.700	2.641	2.630	2.438	2.526	2.070	2.140	2.176	1.979	1.874	1.912	1.943	1.804	1.871
500.0	362.6	453.7	552.3	491.3	540.5	1592	2971	793.8	568.4	568.3	544.4	507.1	456.0	398.2	355.9	317.6	293.9	279.0	270.5	260.8	251.3	247.2	247.9	246.6	244.3	242.0	240.4	236.4	233.9	231.8	216.7	200.6	182.7	163.8	144.9	129.2	115.8	103.0	89.95	79.67	74.75	73.54	61.72	47.66	40.25	34.61	29.70	24.94	20.87	16.78	14.05	13.56	22.11	49.94	125.4	655.7	1690	772.2	18.02	3.402	3.088	2.646	2.691	2.449	2.348	2.224	2.364	2.104	1.797	1.971	2.005	1.749	1.889	1.968	1.913	1.627	1.806
505.0	331.7	393.6	503.6	472.8	454.4	859.1	3128	1371	521.2	513.3	501.4	468.2	417.5	366.0	325.1	292.0	269.4	260.0	249.1	236.2	232.3	226.1	224.7	222.9	224.2	219.2	218.0	215.8	214.6	213.3	200.3	184.0	168.5	152.7	137.0	121.2	109.0	96.88	85.31	75.94	68.79	66.75	63.31	50.42	39.60	34.59	29.66	25.20	21.27	17.46	14.85	12.75	12.75	18.00	33.74	161.8	886.5	1756	229.4	10.40	3.158	2.662	2.583	2.492	2.158	2.125	2.290	1.902	1.947	1.787	1.767	1.687	1.930	1.752	1.697	1.755	1.570
510.0	297.2	335.0	409.8	462.5	404.3	507.4	1821	2650	708.3	459.6	448.0	415.8	373.7	327.6	291.6	260.0	240.7	229.7	217.5	208.5	204.5	198.9	198.9	197.6	195.8	192.9	191.8	191.0	189.5	187.7	177.8	163.7	151.1	135.2	122.8	109.6	99.06	88.89	79.32	70.15	63.50	58.26	57.86	52.34	42.00	33.88	28.59	24.77	21.38	17.13	15.03	12.73	10.66	11.15	13.59	41.44	217.3	822.0	1097	590.5	17.58	3.098	2.547	2.385	2.131	2.019	2.075	1.856	1.695	1.676	1.664	1.668	1.718	1.673	1.440	1.475	1.519
515.0	262.7	322.1	342.6	418.1	377.5	389.2	747.0	2777	1678	437.5	395.9	366.3	332.9	290.5	254.1	232.1	212.0	197.8	190.7	184.6	176.9	173.9	173.1	170.9	168.1	168.3	165.4	166.0	164.9	162.6	155.5	145.9	132.8	121.2	110.0	97.74	88.16	79.71	71.64	63.46	57.89	51.36	48.11	49.08	44.02	34.74	27.42	23.54	20.69	16.62	14.72	12.53	10.64	10.01	9.150	14.66	53.44	187.8	372.8	1116	735.9	24.12	2.756	2.347	1.979	1.917	1.800	1.721	1.745	1.478	1.628	1.370	1.484	1.518	1.305	1.390	1.354
520.0	237.8	284.5	287.5	367.6	377.7	332.4	425.2	1777	2856	548.4	359.4	329.2	300.6	262.2	228.8	209.8	191.6	175.7	171.3	165.2	159.3	156.5	155.3	152.8	151.2	150.5	147.9	148.3	149.2	146.4	139.0	130.2	120.2	109.0	99.23	88.68	80.37	72.67	66.23	58.99	53.26	47.85	43.32	42.38	43.28	36.56	27.00	23.24	19.78	16.84	14.57	12.21	10.76	9.238	8.264	9.062	16.98	46.33	88.83	465.1	1184	255.8	16.64	2.481	2.107	1.873	1.617	1.803	1.618	1.413	1.473	1.450	1.521	1.340	1.302	1.419	1.213
525.0	240.9	244.5	267.4	301.8	374.6	304.6	330.4	843.7	3345	1097	328.8	308.0	274.1	236.8	212.4	189.4	171.9	161.2	155.1	148.6	145.0	140.3	139.7	137.5	135.4	134.8	132.6	135.6	133.6	132.7	129.0	118.7	109.0	99.05	90.90	82.48	74.61	66.96	61.11	54.50	49.90	44.64	39.93	38.17	39.08	36.59	28.48	23.07	18.64	16.45	13.97	12.37	10.71	9.427	7.923	7.821	8.661	14.81	23.75	113.2	587.1	1054	221.8	8.062	2.330	1.814	1.597	1.593	1.468	1.433	1.329	1.297	1.388	1.253	1.224	1.150	1.188
530.0	205.5	212.3	230.6	247.7	320.7	299.3	278.1	413.3	2049	2637	473.3	267.8	237.9	212.1	189.6	164.7	151.3	142.7	135.4	128.8	123.8	123.0	121.3	120.8	118.1	116.4	117.2	115.0	116.9	115.6	111.7	104.0	96.17	86.95	80.22	72.72	65.97	60.28	54.49	49.26	45.04	40.76	36.63	33.11	32.49	33.14	29.88	23.17	17.97	15.79	13.63	11.88	10.34	9.607	8.299	7.265	6.785	7.740	9.292	28.71	142.8	485.7	764.9	367.7	16.70	2.083	1.581	1.556	1.314	1.349	1.182	1.124	1.203	1.118	1.140	1.109	1.101
535.0	181.8	175.5	195.7	207.4	247.2	301.6	246.5	278.7	730.2	3035	1420	243.0	208.0	184.4	162.3	144.8	132.4	122.3	113.8	110.7	108.9	105.5	102.5	103.0	101.6	100.6	99.20	98.86	99.94	98.09	95.62	88.77	82.74	75.31	68.85	62.80	57.98	52.50	47.27	43.68	40.06	36.10	32.25	29.70	27.40	27.20	28.33	24.16	18.00	14.42	12.55	11.02	9.628	9.114	8.184	7.089	6.518	5.754	5.682	9.778	34.59	111.5	248.7	743.8	527.6	22.53	1.706	1.279	1.353	1.257	1.166	1.066	0.962	1.087	0.966	1.106	0.963
540.0	155.0	165.8	177.2	183.0	204.5	281.6	240.5	227.8	335.9	1910	2481	284.8	185.2	162.8	139.7	125.5	116.2	110.7	101.7	97.64	95.29	92.94	90.34	91.36	88.34	86.57	85.15	86.46	88.47	87.89	82.48	78.48	72.72	66.97	62.00	56.11	51.03	46.67	43.19	39.87	35.72	32.68	29.27	26.88	24.71	22.86	23.73	23.56	18.24	14.46	11.97	10.46	9.293	8.472	7.750	7.308	6.304	5.430	4.784	5.386	10.42	27.40	58.89	297.9	800.9	248.9	13.98	1.456	1.452	1.146	1.076	0.965	0.980	0.942	0.888	0.994	0.987
545.0	157.7	153.7	159.6	153.3	170.0	239.2	247.7	200.3	231.4	806.3	3350	737.0	165.9	148.4	127.5	110.7	103.3	98.08	91.91	86.58	82.89	80.18	79.02	79.36	80.31	77.55	76.81	76.81	77.95	77.25	72.93	69.32	64.27	59.48	54.16	49.70	46.35	42.14	39.22	35.46	31.87	29.04	27.16	24.18	22.31	20.70	20.19	21.49	18.75	14.13	11.49	10.05	8.530	7.920	7.164	7.136	6.364	5.228	4.541	4.530	5.178	8.754	15.57	71.91	374.8	770.9	196.1	5.899	1.268	1.264	1.031	0.921	0.909	0.873	0.733	0.831	0.851
550.0	127.6	139.2	135.5	132.9	140.5	175.1	238.1	181.5	178.4	318.9	1997	2239	206.8	125.5	108.9	94.54	85.80	82.10	77.61	72.73	69.02	67.53	66.64	65.36	66.51	64.37	63.75	63.61	65.13	64.35	62.50	58.63	54.13	49.56	45.47	41.91	38.76	35.11	32.92	29.71	27.43	25.02	23.23	20.73	19.09	17.84	16.46	16.71	16.52	14.18	10.87	8.896	7.775	7.184	6.418	6.075	5.874	5.367	4.385	3.793	3.645	4.163	5.530	17.96	89.43	329.7	506.4	251.1	15.40	1.358	1.049	0.897	0.925	0.807	0.816	0.748	0.688
555.0	112.4	117.7	117.9	112.2	109.7	124.8	195.8	190.3	144.1	184.3	629.3	2842	929.1	107.9	88.30	77.11	72.14	67.25	63.70	59.04	56.87	55.39	53.23	53.59	54.25	52.05	51.20	52.29	52.52	51.79	50.88	47.71	43.40	39.80	36.71	33.76	31.28	29.16	26.12	24.86	22.91	20.77	18.79	17.75	16.18	15.22	13.77	12.80	12.39	12.75	10.84	8.297	6.645	6.080	5.762	5.281	4.934	4.615	4.264	3.601	3.057	3.049	2.986	5.747	21.39	74.94	155.0	441.1	258.1	20.55	1.269	0.918	0.797	0.761	0.688	0.766	0.699
560.0	107.2	119.4	110.1	92.62	94.02	101.9	148.0	192.9	125.8	137.9	239.4	1802	1821	147.9	76.91	68.49	62.15	57.38	53.00	48.80	48.05	46.92	45.40	44.16	45.95	43.45	43.18	44.07	42.77	43.36	42.86	39.51	36.60	34.07	30.40	29.76	26.64	25.80	22.44	21.11	19.15	17.61	16.16	15.70	13.80	13.13	12.00	10.62	10.21	11.05	10.20	8.253	6.032	5.317	5.158	4.839	4.350	4.061	3.953	3.553	2.787	2.789	2.322	2.966	6.295	17.99	36.57	165.2	459.4	219.2	12.54	1.012	0.799	0.792	0.674	0.690	0.680
565.0	101.3	95.22	86.35	86.58	84.05	88.51	104.4	183.2	132.3	118.0	136.7	711.6	2783	437.0	67.88	57.22	51.79	48.27	46.11	42.27	40.62	39.77	38.31	38.73	38.72	36.51	37.54	37.36	36.98	37.32	36.76	34.22	31.10	29.57	26.72	25.11	23.42	21.76	19.41	18.10	16.54	15.42	14.01	13.15	12.58	11.19	10.26	9.417	8.415	8.582	9.097	8.057	5.959	4.992	4.624	4.310	3.898	3.722	3.599	3.240	2.786	2.503	2.266	2.098	2.668	5.347	9.424	39.34	201.7	432.0	150.3	4.453	0.834	0.716	0.758	0.629	0.606
570.0	96.94	94.34	83.39	73.38	74.70	74.28	76.79	138.0	151.7	102.4	99.61	237.7	1752	1666	108.5	48.26	43.30	39.10	36.42	34.93	32.90	32.38	31.41	31.19	30.88	29.59	30.23	30.37	30.14	29.99	29.56	27.61	25.32	23.71	21.88	20.34	18.82	17.44	16.02	14.84	13.74	12.84	11.73	10.85	10.39	9.366	8.464	7.867	7.201	6.567	6.773	7.036	6.000	4.542	4.111	3.807	3.456	3.194	2.937	2.881	2.815	2.327	2.061	1.836	1.795	2.418	3.396	9.954	47.77	170.0	292.7	146.1	14.32	0.905	0.757	0.572	0.562
575.0	95.70	89.75	77.40	66.07	60.29	64.27	63.50	89.64	146.6	101.3	84.37	111.0	521.1	2286	604.9	40.16	35.15	32.08	29.30	28.48	26.75	26.53	24.55	25.15	24.54	23.85	23.88	23.90	24.16	23.96	23.81	21.79	19.93	18.32	17.49	16.00	15.07	13.83	12.88	11.91	10.91	10.61	9.681	8.771	8.361	7.975	7.013	6.497	5.650	5.365	4.940	5.328	5.579	4.595	3.574	3.290	2.864	2.797	2.603	2.412	2.351	2.360	2.060	1.706	1.613	1.648	1.791	3.180	11.67	39.01	84.64	242.1	218.2	17.52	0.845	0.539	0.543
580.0	94.41	78.01	75.81	59.18	50.68	52.45	53.47	66.27	127.3	119.3	73.58	81.13	169.2	1500	1286	66.94	30.28	27.59	25.40	24.73	23.66	22.23	21.03	21.55	20.60	19.68	20.40	19.49	20.20	20.19	19.81	18.57	17.12	15.97	14.71	13.48	12.65	11.72	11.14	9.819	9.349	8.794	8.108	7.337	7.084	6.500	6.164	5.712	5.024	4.687	4.025	4.123	4.841	4.855	3.714	2.965	2.580	2.322	2.211	2.134	2.035	2.228	1.981	1.826	1.569	1.403	1.489	1.686	3.573	9.675	20.01	86.15	279.5	153.1	8.557	0.638	0.504
585.0	102.0	80.72	66.96	52.79	47.72	46.73	47.60	56.85	91.95	134.3	72.14	68.70	81.24	570.6	2053	140.8	27.51	24.87	21.86	20.41	19.59	18.99	17.86	19.18	17.22	17.56	16.92	17.16	17.55	16.96	16.96	16.17	14.73	13.68	12.21	11.66	11.02	9.908	9.165	8.724	8.429	7.629	7.052	6.362	6.403	5.749	5.421	4.951	4.529	3.890	3.612	3.526	3.718	4.193	3.664	2.789	2.427	2.242	2.128	1.851	1.756	1.849	2.181	1.748	1.331	1.387	1.161	1.291	1.671	3.107	5.264	20.49	113.6	258.6	37.13	3.507	0.606
590.0	87.87	79.63	66.87	51.03	42.80	41.99	40.86	49.59	63.78	123.2	88.18	62.70	58.25	170.2	1294	1063	52.45	19.68	18.35	17.27	16.26	15.76	14.75	15.03	14.06	14.37	13.90	13.73	13.74	13.52	13.72	12.75	12.03	11.22	10.17	9.516	9.219	8.251	7.671	7.170	6.812	6.211	5.848	5.490	5.157	4.799	4.385	4.032	3.786	3.395	3.012	2.816	2.913	3.219	3.572	2.918	2.222	2.086	1.790	1.635	1.620	1.396	1.547	1.692	1.511	1.251	1.024	1.135	1.203	1.480	1.850	5.212	26.66	97.54	154.4	100.6	12.50
595.0	78.01	78.32	65.96	46.40	37.07	35.39	35.74	39.60	48.29	86.31	112.6	61.49	49.62	66.25	366.9	1548	329.7	17.64	15.25	13.41	12.73	12.67	12.62	11.70	11.00	11.02	11.31	11.59	10.98	10.97	11.19	10.24	9.930	8.766	8.263	7.501	7.029	6.997	6.428	5.812	5.415	4.735	4.778	4.332	3.941	3.880	3.408	3.304	3.121	2.767	2.616	2.276	2.093	2.281	2.775	2.831	2.370	1.713	1.519	1.457	1.320	1.330	1.283	1.229	1.396	1.356	0.952	0.999	1.156	1.077	1.042	1.747	6.588	22.31	42.96	135.8	131.2
600.0	68.43	71.58	57.96	42.88	36.06	33.47	31.93	38.08	47.34	60.09	116.9	65.25	50.05	42.68	107.8	1032	870.7	28.96	13.20	12.18	10.29	10.38	10.91	9.797	9.421	9.418	9.367	9.343	8.913	9.646	9.554	8.594	8.293	7.297	7.173	6.352	6.567	5.667	5.237	5.068	4.497	4.176	3.966	3.614	3.525	3.313	2.945	2.902	2.615	2.225	2.123	1.977	1.729	1.733	2.054	2.319	2.507	1.864	1.372	1.341	1.311	1.097	1.147	1.081	1.118	1.287	1.000	0.890	0.969	0.810	0.845	0.971	1.947	5.510	10.08	45.84	152.5
605.0	71.90	73.50	55.88	41.18	31.35	28.40	34.52	34.64	41.61	48.92	100.6	83.05	49.82	38.54	46.18	391.2	1343	94.12	11.55	10.44	9.030	9.272	8.469	8.288	8.009	8.266	8.304	8.066	7.709	7.944	7.727	8.017	6.737	6.653	5.956	5.367	5.331	4.954	4.807	4.161	3.817	3.932	3.393	3.072	3.106	2.937	2.666	2.609	2.294	1.998	1.924	1.694	1.630	1.629	1.519	1.911	2.265	1.918	1.379	1.203	1.045	1.031	0.970	1.057	0.979	1.269	1.118	0.905	0.901	0.779	0.786	0.718	0.959	1.723	2.675	10.84	58.29
610.0	69.81	64.25	50.79	36.18	29.42	28.47	30.47	34.66	40.40	49.68	76.30	101.5	55.99	39.97	32.73	110.8	890.6	641.6	27.81	9.021	8.326	7.920	7.288	6.726	6.685	6.639	6.560	6.672	6.422	6.348	6.227	6.333	5.489	5.169	4.756	4.717	4.413	4.208	3.667	3.597	3.270	2.981	2.813	2.572	2.601	2.472	2.213	2.143	1.950	1.752	1.688	1.451	1.458	1.416	1.255	1.471	1.856	1.749	1.415	1.113	0.945	0.927	0.951	0.949	0.822	0.971	0.962	0.981	0.977	0.772	0.745	0.641	0.654	0.869	1.030	2.823	13.76
615.0	65.41	55.94	50.38	35.12	28.97	27.14	27.57	33.42	38.38	45.82	57.76	96.09	69.61	39.18	29.35	41.88	258.0	1052	96.67	8.373	7.121	5.958	6.399	5.246	5.561	5.384	5.301	5.323	5.008	5.185	5.260	5.130	4.386	4.304	3.865	3.753	3.587	3.088	2.880	2.960	2.623	2.446	2.289	2.034	2.160	2.042	1.827	1.686	1.582	1.453	1.325	1.200	1.236	1.172	1.134	1.036	1.259	1.333	1.500	1.199	0.997	0.886	0.906	0.843	0.783	0.863	0.760	0.951	0.998	0.732	0.656	0.571	0.597	0.640	0.624	1.029	3.472
620.0	68.00	52.01	44.17	34.81	25.34	26.47	29.53	31.46	33.70	43.33	50.60	82.83	84.68	40.36	30.34	26.06	74.83	734.5	583.4	14.68	5.685	5.568	5.074	4.888	4.790	4.548	4.577	4.541	4.367	4.356	4.344	4.190	4.058	3.656	3.093	3.051	2.998	2.742	2.670	2.481	2.211	2.145	1.991	1.689	1.795	1.745	1.658	1.577	1.451	1.187	1.081	1.001	1.093	0.942	0.988	0.894	0.969	1.115	1.326	1.048	0.904	0.797	0.809	0.742	0.703	0.687	0.696	0.747	0.939	0.784	0.687	0.532	0.568	0.537	0.562	0.707	1.166
625.0	59.66	53.93	45.52	34.18	27.00	28.02	26.50	31.26	33.96	43.95	47.85	64.84	89.52	45.34	29.28	22.19	30.03	286.4	947.7	63.49	5.445	4.555	4.414	4.476	4.007	4.195	3.818	3.823	3.695	3.862	3.749	3.501	3.403	3.122	3.051	2.832	2.720	2.478	2.485	2.258	1.900	1.701	1.680	1.667	1.466	1.447	1.503	1.198	1.110	1.172	0.941	0.859	0.872	0.874	0.871	0.705	0.783	0.945	1.110	1.067	0.955	0.822	0.725	0.655	0.720	0.724	0.695	0.703	0.714	0.852	0.605	0.537	0.530	0.557	0.455	0.543	0.550
630.0	54.47	58.16	44.07	33.63	26.65	25.66	26.12	29.17	33.38	40.66	46.51	53.88	76.14	57.27	31.31	22.36	19.87	79.32	661.0	465.7	14.46	3.978	3.682	3.526	3.414	3.322	3.132	3.209	3.109	3.106	3.023	2.885	2.745	2.613	2.398	2.484	2.272	2.034	2.037	1.815	1.740	1.434	1.481	1.319	1.263	1.272	1.157	1.044	0.913	0.951	0.853	0.823	0.740	0.771	0.798	0.701	0.665	0.703	0.864	0.914	0.901	0.782	0.711	0.584	0.613	0.587	0.589	0.617	0.644	0.699	0.720	0.636	0.570	0.548	0.499	0.492	0.465
635.0	66.05	63.03	46.29	30.93	26.87	24.91	23.58	28.57	30.45	40.25	45.31	51.50	59.29	68.92	37.46	22.81	20.62	29.68	191.3	786.9	76.03	4.261	3.202	2.802	2.936	2.370	2.613	2.552	2.703	2.371	2.537	2.177	2.090	2.143	1.937	1.995	1.838	1.647	1.475	1.314	1.543	1.255	1.079	1.208	0.939	1.009	0.960	0.820	0.851	0.726	0.713	0.719	0.598	0.692	0.669	0.638	0.620	0.635	0.634	0.654	0.813	0.710	0.710	0.627	0.555	0.606	0.664	0.541	0.690	0.501	0.647	0.724	0.590	0.538	0.483	0.432	0.452
640.0	59.10	61.70	46.75	32.88	24.90	26.18	25.38	28.25	30.46	40.81	45.49	48.04	51.69	68.46	45.71	26.52	21.93	20.37	53.40	577.8	399.8	7.397	3.082	2.639	2.582	2.325	2.224	2.216	2.208	2.086	1.997	1.931	1.795	1.763	1.839	1.610	1.448	1.411	1.353	1.275	1.455	1.183	1.171	0.899	0.848	0.898	0.784	0.789	0.815	0.650	0.637	0.714	0.612	0.507	0.606	0.603	0.605	0.573	0.581	0.645	0.689	0.726	0.609	0.543	0.505	0.568	0.605	0.586	0.620	0.588	0.634	0.662	0.732	0.539	0.462	0.523	0.473
645.0	54.71	55.56	50.09	36.62	29.98	26.88	24.75	29.00	34.39	38.85	43.98	48.46	51.29	60.65	54.94	29.59	24.36	18.69	21.82	240.2	684.4	43.22	2.987	2.547	2.066	2.078	2.082	2.015	1.988	1.875	2.010	1.950	1.611	1.573	1.616	1.467	1.388	1.285	1.248	1.054	1.044	0.981	1.038	0.812	0.786	0.733	0.865	0.717	0.784	0.574	0.606	0.526	0.623	0.471	0.498	0.509	0.562	0.521	0.539	0.591	0.641	0.649	0.606	0.520	0.534	0.463	0.545	0.539	0.565	0.576	0.537	0.617	0.762	0.572	0.476	0.467	0.483
650.0	65.42	56.67	51.14	37.11	29.61	26.58	25.16	27.44	33.62	37.83	44.77	49.15	46.93	52.65	60.33	33.16	25.02	18.60	15.04	71.02	651.5	207.3	3.715	2.491	2.078	2.068	1.881	1.706	1.699	1.530	1.756	1.808	1.406	1.366	1.409	1.351	1.221	1.047	1.132	1.033	0.902	1.037	0.896	0.803	0.740	0.694	0.682	0.668	0.748	0.574	0.501	0.544	0.525	0.458	0.473	0.516	0.515	0.592	0.556	0.536	0.586	0.616	0.534	0.591	0.533	0.469	0.507	0.494	0.528	0.561	0.469	0.567	0.586	0.670	0.442	0.376	0.431
