Sample:	'1
File name:	W102407顶峰热电原水.FD3
Run date:	'10:06:04, 10/25/2024
Operator:	horiz
Comment:	'

Instrument
Model:	F-2700 FL Spectrophotometer
Serial number:	23B8-004
ROM Version:	4J14000 07

Instrument parameters
Measurement type:	3-D scan
Data mode:	Fluorescence
EX  Start WL:	220.0 nm
EX  End WL:	600.0 nm
EX Sampling interval:	5.0 nm
EM  Start WL:	230.0 nm
EM  End WL:	650.0 nm
EM Sampling interval:	5.0 nm
Scan speed:	12000 nm/min
EX Slit:	5.0 nm
EM Slit:	5.0 nm
PMT Voltage:	700 V
Response:	Auto 
Corrected spectra:	Off
Contour interval:	50.000

Peak integration
Integration method:	Rectangular
Sensitivity:	1
Threshold:	1.000

Peaks
No.	ApexEX/EM(nm)	Height(Data)
1	225.0/560.0	42.96
2	225.0/610.0	77.11
3	225.0/620.0	73.25
4	225.0/635.0	56.37
5	230.0/345.0	1401
6	230.0/500.0	272.0
7	235.0/510.0	229.5
8	240.0/265.0	424.5
9	240.0/525.0	218.8
10	245.0/535.0	183.3
11	250.0/550.0	150.6
12	255.0/280.0	622.0
13	255.0/560.0	131.8
14	260.0/290.0	727.9
15	260.0/575.0	127.7
16	265.0/590.0	136.0
17	270.0/600.0	155.1
18	275.0/310.0	2333
19	275.0/610.0	158.4
20	280.0/315.0	2049
21	280.0/625.0	125.6
22	305.0/345.0	591.2
23	315.0/355.0	447.5
24	320.0/365.0	427.1
25	325.0/370.0	400.4
26	330.0/375.0	389.1
27	335.0/380.0	390.6
28	345.0/395.0	311.3
29	350.0/400.0	323.7
30	355.0/405.0	303.2
31	365.0/420.0	237.5
32	370.0/425.0	216.2
33	395.0/460.0	92.01
34	400.0/465.0	79.06
35	415.0/485.0	46.87
36	425.0/500.0	34.23
37	430.0/505.0	29.18
38	440.0/520.0	21.34
39	455.0/540.0	11.64
40	460.0/340.0	3.744
41	470.0/560.0	5.369
42	475.0/350.0	3.711
43	505.0/275.0	2.772
44	510.0/280.0	3.297
45	515.0/285.0	3.201
46	535.0/270.0	42.58
47	550.0/305.0	9.382
48	560.0/310.0	9.164
49	570.0/315.0	8.279

Wavelength data
No.	EX/EM(nm)	Height(Data)	

Data points
	220.0	225.0	230.0	235.0	240.0	245.0	250.0	255.0	260.0	265.0	270.0	275.0	280.0	285.0	290.0	295.0	300.0	305.0	310.0	315.0	320.0	325.0	330.0	335.0	340.0	345.0	350.0	355.0	360.0	365.0	370.0	375.0	380.0	385.0	390.0	395.0	400.0	405.0	410.0	415.0	420.0	425.0	430.0	435.0	440.0	445.0	450.0	455.0	460.0	465.0	470.0	475.0	480.0	485.0	490.0	495.0	500.0	505.0	510.0	515.0	520.0	525.0	530.0	535.0	540.0	545.0	550.0	555.0	560.0	565.0	570.0	575.0	580.0	585.0	590.0	595.0	600.0
230.0	46.91	1155	3941	1572	62.21	5.601	4.442	3.680	3.454	3.454	3.156	2.903	2.555	2.150	1.706	1.509	1.380	1.176	1.112	0.937	0.946	0.810	0.683	0.695	0.596	0.546	0.480	0.498	0.462	0.429	0.368	0.347	0.334	0.344	0.312	0.275	0.245	0.265	0.268	0.222	0.289	0.394	0.496	0.288	0.227	0.229	1.153	6.298	11.36	8.432	3.072	0.529	0.152	0.137	0.149	0.143	0.129	0.129	0.132	0.125	0.131	0.108	0.112	0.102	0.105	0.104	0.099	0.098	0.096	0.098	0.072	0.091	0.120	0.088	0.100	0.096	0.109
235.0	117.3	322.2	2112	4155	736.6	89.13	7.553	4.736	4.549	3.790	3.341	3.233	2.710	2.259	1.948	1.591	1.508	1.240	1.128	0.989	0.864	0.775	0.678	0.687	0.718	0.601	0.531	0.516	0.509	0.432	0.421	0.311	0.322	0.262	0.282	0.284	0.233	0.296	0.260	0.238	0.236	0.288	0.288	0.470	0.441	0.375	0.384	1.672	4.140	7.590	11.47	11.82	5.125	0.961	0.166	0.175	0.123	0.133	0.114	0.144	0.141	0.134	0.107	0.155	0.102	0.094	0.100	0.097	0.101	0.083	0.087	0.080	0.089	0.112	0.093	0.087	0.109
240.0	169.7	173.8	601.0	3133	4509	591.1	39.56	6.658	5.067	4.592	4.934	3.499	3.027	2.818	2.196	1.784	1.429	1.236	1.242	1.194	0.771	0.802	0.817	0.667	0.545	0.560	0.521	0.416	0.483	0.404	0.408	0.342	0.331	0.270	0.305	0.252	0.294	0.252	0.227	0.235	0.215	0.267	0.212	0.409	0.609	0.716	0.402	0.555	1.087	2.329	6.444	14.96	18.21	11.60	3.810	0.437	0.145	0.186	0.177	0.125	0.159	0.121	0.103	0.106	0.111	0.094	0.122	0.118	0.093	0.101	0.114	0.108	0.107	0.099	0.115	0.091	0.091
245.0	131.5	229.6	218.1	1016	4540	4400	439.4	17.59	7.602	5.950	5.789	4.275	3.437	2.500	2.158	2.083	1.288	1.307	1.285	1.262	1.054	0.892	0.869	0.714	0.638	0.739	0.500	0.506	0.422	0.403	0.466	0.383	0.342	0.346	0.364	0.305	0.316	0.270	0.216	0.275	0.245	0.253	0.201	0.273	0.405	0.592	0.810	0.664	0.461	0.703	1.616	5.163	12.87	21.67	19.85	10.11	2.276	0.266	0.207	0.109	0.129	0.107	0.117	0.140	0.116	0.110	0.102	0.125	0.109	0.108	0.129	0.113	0.107	0.101	0.129	0.085	0.089
250.0	50.12	153.4	287.1	338.8	1417	4292	5253	1554	85.53	8.923	6.801	5.430	3.916	3.099	2.642	2.266	1.629	1.599	1.315	1.259	1.020	1.047	0.827	0.719	0.720	0.784	0.602	0.543	0.499	0.475	0.515	0.421	0.335	0.350	0.367	0.309	0.299	0.270	0.246	0.302	0.304	0.287	0.257	0.263	0.215	0.310	0.470	0.746	0.914	0.847	0.726	1.372	3.215	7.239	13.06	20.15	24.48	18.02	9.485	2.336	0.235	0.139	0.159	0.141	0.149	0.122	0.121	0.151	0.137	0.093	0.131	0.137	0.134	0.106	0.123	0.113	0.102
255.0	29.33	50.27	191.4	363.8	419.5	1077	4302	8345	2072	77.71	8.752	7.417	4.965	4.182	2.966	2.535	1.980	1.847	1.330	1.276	0.995	1.123	1.066	0.798	0.842	0.675	0.614	0.503	0.507	0.529	0.527	0.360	0.347	0.377	0.326	0.307	0.316	0.258	0.257	0.309	0.313	0.369	0.278	0.244	0.240	0.207	0.270	0.349	0.511	1.009	1.375	1.211	1.056	1.801	3.093	4.969	10.12	23.45	38.62	27.74	13.42	2.161	0.263	0.166	0.146	0.145	0.146	0.120	0.145	0.129	0.141	0.184	0.118	0.100	0.113	0.099	0.099
260.0	29.72	28.54	71.32	305.6	373.4	303.4	1279	7221	8869	329.4	31.44	10.46	6.433	5.266	3.961	3.065	2.190	2.038	1.653	1.617	1.418	1.144	0.949	0.826	0.853	0.746	0.671	0.642	0.565	0.564	0.475	0.440	0.418	0.420	0.289	0.306	0.317	0.323	0.297	0.312	0.321	0.302	0.246	0.284	0.250	0.266	0.233	0.221	0.294	0.448	0.936	1.774	1.492	0.977	0.887	1.274	2.462	6.539	18.83	37.21	47.07	25.30	8.925	1.097	0.236	0.189	0.178	0.177	0.197	0.148	0.142	0.122	0.134	0.132	0.121	0.110	0.097
265.0	30.15	24.34	33.21	137.1	424.5	276.6	332.9	2446	9999.9	7979	261.5	17.71	8.708	6.387	4.575	3.078	2.998	2.096	1.537	1.657	1.407	1.217	1.268	0.716	0.850	0.772	0.806	0.567	0.659	0.696	0.546	0.425	0.381	0.472	0.380	0.350	0.371	0.316	0.356	0.297	0.248	0.316	0.277	0.236	0.329	0.243	0.238	0.268	0.237	0.240	0.444	0.861	1.651	1.907	1.199	0.677	0.845	1.726	4.599	11.90	30.13	49.49	33.35	20.83	4.507	0.384	0.192	0.173	0.164	0.178	0.169	0.132	0.190	0.127	0.154	0.135	0.147
270.0	39.11	29.50	27.90	50.64	200.9	434.4	320.1	610.2	3254	9230	9999.9	995.2	55.89	9.593	6.456	4.516	3.532	2.807	2.201	1.845	1.770	1.232	1.257	1.062	0.912	0.778	0.805	0.722	0.699	0.694	0.672	0.480	0.485	0.465	0.434	0.458	0.398	0.386	0.310	0.335	0.338	0.298	0.312	0.302	0.327	0.285	0.269	0.267	0.262	0.216	0.240	0.382	0.667	1.218	1.762	1.861	1.510	0.928	1.344	2.966	7.263	15.26	25.48	42.58	41.51	39.81	14.27	4.157	0.517	0.187	0.191	0.204	0.225	0.156	0.179	0.149	0.204
275.0	63.98	58.42	48.13	41.62	73.33	204.1	554.2	388.8	782.5	2337	9033	9999.9	1345	46.62	10.43	6.542	4.716	3.833	3.042	1.996	1.932	1.370	1.434	1.183	1.140	1.022	0.889	0.779	0.731	0.673	0.708	0.529	0.535	0.559	0.580	0.469	0.531	0.458	0.388	0.387	0.305	0.346	0.357	0.343	0.377	0.380	0.364	0.358	0.316	0.260	0.279	0.263	0.301	0.535	0.729	1.177	2.440	2.772	1.782	1.139	1.950	3.703	6.077	10.18	15.31	39.23	66.75	33.32	20.92	3.955	0.419	0.187	0.255	0.192	0.153	0.167	0.262
280.0	118.7	117.3	89.46	60.73	52.69	96.96	381.2	622.0	335.6	607.2	2722	9999.9	9999.9	898.7	22.79	9.056	6.097	3.977	3.275	2.888	2.163	1.692	1.597	1.378	1.152	0.935	0.967	0.909	0.863	0.703	0.678	0.654	0.716	0.687	0.684	0.527	0.574	0.540	0.430	0.513	0.471	0.517	0.422	0.420	0.476	0.502	0.498	0.450	0.447	0.325	0.348	0.360	0.420	0.359	0.411	0.598	1.147	2.278	3.297	2.181	1.184	1.277	1.742	2.643	4.021	10.19	27.20	53.10	75.86	31.56	15.30	1.606	0.306	0.210	0.223	0.169	0.226
285.0	200.0	217.2	153.8	106.4	70.81	79.58	178.5	611.4	425.6	318.8	795.8	3891	9999.9	8245	136.9	13.99	7.812	5.435	3.953	3.255	2.671	1.776	1.784	1.552	1.172	1.066	1.198	0.885	0.899	0.785	0.642	0.674	0.713	0.692	0.791	0.676	0.782	0.750	0.505	0.693	0.529	0.575	0.618	0.562	0.597	0.681	0.615	0.713	0.643	0.528	0.406	0.479	0.385	0.415	0.352	0.437	0.582	1.086	1.967	3.201	3.075	1.659	1.008	1.286	1.654	3.102	7.107	15.46	39.49	66.79	75.76	27.42	9.307	0.803	0.336	0.220	0.196
290.0	385.6	444.9	362.6	209.7	120.9	110.7	151.5	345.2	727.9	706.0	688.9	1372	4174	9999.9	9637	527.3	32.57	8.332	5.536	3.943	3.230	2.478	2.080	1.823	1.475	1.128	1.259	1.010	1.002	0.884	0.887	0.707	0.809	0.994	0.983	1.007	1.137	0.917	0.901	0.756	0.768	0.742	0.758	0.851	0.947	1.122	1.159	1.320	1.143	0.828	0.701	0.644	0.601	0.533	0.439	0.571	0.694	0.816	1.102	1.606	2.582	3.550	3.650	2.894	2.359	2.497	3.518	5.321	10.84	19.57	35.87	48.82	61.34	51.15	18.07	7.726	0.961
295.0	600.8	706.4	604.9	331.7	184.8	162.4	203.0	320.3	578.7	1200	1352	1184	1613	2818	9680	7950	732.4	27.29	7.202	5.632	4.074	2.942	2.399	1.890	1.681	1.524	1.343	1.232	0.996	1.041	1.060	0.828	0.917	1.099	1.273	1.570	1.350	1.291	1.099	0.983	0.791	1.021	1.042	1.174	1.445	1.624	1.837	1.915	1.645	1.292	0.892	0.843	0.755	0.634	0.681	0.721	0.781	0.949	1.183	1.353	1.953	2.760	3.513	5.587	6.095	4.508	4.170	4.295	5.547	7.026	10.16	12.40	17.39	35.31	67.43	78.19	29.00
300.0	809.2	916.0	771.6	422.0	244.3	212.4	258.1	393.2	629.7	1153	1932	1568	1263	1085	2996	9999.9	6684	103.4	14.95	7.472	5.405	3.934	2.901	2.109	2.044	1.720	1.527	1.297	1.145	1.008	0.950	0.975	1.090	1.175	1.468	1.686	1.659	1.457	1.117	0.981	1.043	1.109	1.188	1.521	1.728	2.023	2.105	2.484	2.074	1.670	1.063	1.141	0.797	0.853	0.879	0.993	1.079	1.329	1.544	1.884	2.217	2.498	3.405	4.765	6.704	7.597	7.013	5.604	4.987	5.150	5.004	4.664	5.108	9.287	22.44	53.66	80.60
305.0	911.4	1062	906.9	513.6	312.8	281.0	362.6	507.6	806.5	1238	2011	2166	1506	873.4	982.5	3906	9999.9	5271	81.93	11.47	6.944	5.045	3.665	2.835	2.460	2.035	1.749	1.431	1.307	1.229	1.001	0.913	1.017	1.353	1.610	1.700	1.809	1.511	1.255	1.205	1.165	1.280	1.511	1.716	1.902	2.188	2.628	2.807	2.434	1.835	1.396	1.338	1.058	1.149	1.017	1.220	1.424	1.478	1.933	2.469	2.898	3.448	4.132	4.660	6.290	7.818	9.382	8.561	6.717	5.836	4.889	3.843	3.032	3.532	6.287	14.17	32.73
310.0	946.7	1113	1025	597.2	392.5	366.3	462.8	642.3	938.8	1366	1889	2333	2043	1060	654.0	1152	3892	9509	7762	348.9	23.54	7.338	4.943	3.561	2.619	2.214	2.096	1.678	1.465	1.394	1.137	1.035	1.183	1.407	1.609	1.884	1.841	1.542	1.396	1.210	1.338	1.382	1.482	1.701	1.958	2.360	2.628	3.017	2.734	2.045	1.689	1.525	1.438	1.342	1.190	1.500	1.683	1.959	2.302	2.600	3.247	3.848	4.711	5.500	6.276	7.061	8.163	8.588	9.164	8.330	6.281	4.384	3.174	2.993	3.053	4.618	8.700
315.0	926.3	1153	1041	639.5	433.2	416.2	524.6	706.1	970.5	1367	1782	2047	2049	1493	694.6	576.1	1133	2469	7963	9859	525.0	20.62	6.991	5.319	3.797	2.967	2.529	2.100	1.518	1.767	1.151	1.028	1.087	1.403	1.806	1.690	1.716	1.526	1.288	1.303	1.256	1.357	1.575	1.752	1.959	2.484	2.815	2.951	2.744	2.264	1.710	1.672	1.603	1.417	1.544	1.612	1.869	2.204	2.414	2.851	3.206	3.807	4.521	5.347	6.375	6.772	7.255	7.517	7.570	7.792	8.279	6.755	4.289	3.117	2.822	2.857	3.526
320.0	928.8	1171	1114	678.6	481.9	441.4	553.6	728.9	950.2	1309	1699	1910	1797	1599	946.3	507.2	544.6	712.9	2346	9756	4809	397.5	12.19	6.732	4.544	3.424	2.843	2.307	1.806	1.753	1.360	1.158	1.214	1.268	1.662	1.730	1.632	1.476	1.250	1.217	1.351	1.383	1.533	1.805	2.024	2.642	2.696	3.243	2.780	2.235	1.927	1.817	1.595	1.605	1.545	1.686	1.915	2.245	2.553	3.005	3.276	3.777	4.645	5.233	5.916	6.592	6.833	6.697	6.683	6.982	6.631	6.819	6.310	4.843	3.158	2.428	2.407
325.0	922.6	1213	1198	763.6	518.1	456.9	544.9	726.6	924.8	1236	1590	1766	1640	1352	1171	611.4	428.1	333.9	601.5	3251	9720	4159	63.66	9.273	5.857	4.153	2.929	2.693	2.021	1.907	1.644	1.295	1.391	1.385	1.504	1.652	1.462	1.444	1.212	1.221	1.172	1.284	1.411	1.672	2.230	2.548	2.838	3.163	3.133	2.346	2.032	2.270	1.719	1.780	1.522	1.714	1.987	2.195	2.395	3.012	3.085	3.737	4.402	4.974	5.582	6.127	6.184	6.426	6.215	6.561	5.860	5.504	5.733	5.727	4.677	2.979	2.337
330.0	938.9	1260	1312	959.8	641.4	509.9	551.3	691.1	859.4	1124	1413	1577	1465	1150	976.8	828.6	512.3	267.5	237.3	797.1	3174	7038	6214	1201	20.54	5.827	4.285	3.213	2.431	2.062	1.815	1.506	1.277	1.474	1.575	1.474	1.500	1.427	1.195	1.149	1.247	1.237	1.430	1.652	2.095	2.611	2.943	3.323	3.335	2.890	2.521	2.699	2.246	2.040	1.740	1.706	2.057	2.297	2.477	2.826	3.025	3.524	3.988	4.466	4.728	5.375	5.601	5.737	5.706	5.969	5.342	4.755	4.294	4.371	4.458	4.264	3.807
335.0	929.5	1278	1378	1134	818.1	601.0	558.4	665.0	787.0	1012	1252	1405	1307	1047	810.8	722.3	730.8	353.9	186.1	267.1	772.7	1755	5801	8622	451.3	21.01	6.067	4.382	3.211	2.409	2.173	1.767	1.520	1.619	1.474	1.619	1.508	1.207	1.174	1.074	1.369	1.303	1.468	1.749	2.008	2.652	3.054	3.499	3.587	3.187	2.953	3.353	2.664	2.394	2.041	1.930	2.127	2.308	2.334	2.537	2.915	3.116	3.628	3.716	4.081	4.880	4.936	5.091	5.223	5.169	4.829	4.207	4.025	3.588	3.269	3.034	3.627
340.0	883.2	1224	1383	1186	875.7	635.9	574.5	642.4	745.1	917.0	1125	1266	1201	982.3	750.8	607.1	672.8	531.6	219.7	169.8	252.7	454.7	1667	7606	7062	367.2	10.72	5.350	4.077	2.832	2.553	1.897	1.610	1.531	1.468	1.532	1.477	1.107	1.169	1.004	1.208	1.350	1.307	1.646	2.084	2.580	2.922	3.379	3.744	3.269	3.014	3.442	2.992	2.568	2.204	2.000	2.172	2.174	2.464	2.604	2.581	3.022	3.208	3.525	4.108	4.361	4.541	4.380	4.756	4.827	4.353	4.063	3.728	3.485	3.140	2.986	2.777
345.0	835.2	1185	1401	1191	921.4	655.0	576.7	637.6	716.7	847.3	1024	1141	1098	909.4	712.1	573.9	531.1	591.2	351.3	173.7	155.7	178.7	432.2	2419	8270	3608	55.75	8.105	5.068	3.767	2.955	2.173	1.641	1.697	1.548	1.439	1.366	1.102	1.184	1.013	1.047	1.217	1.212	1.726	1.914	2.246	2.684	3.516	3.413	3.329	3.198	3.517	2.879	2.630	2.426	2.037	2.017	2.338	2.451	2.626	2.534	2.939	3.017	3.364	3.500	4.011	4.064	4.287	4.373	4.412	4.113	3.949	3.426	3.321	3.016	2.726	2.692
350.0	732.5	1086	1293	1195	951.2	704.1	611.0	632.0	686.4	793.3	922.4	1008	981.9	844.2	693.5	557.1	478.8	457.4	468.3	312.3	177.1	144.7	176.1	598.2	2533	5357	5054	1162	19.95	4.833	3.478	2.584	1.922	1.799	1.478	1.364	1.292	1.211	1.096	0.991	1.067	1.228	1.214	1.552	1.853	2.101	2.604	3.098	3.378	3.301	2.986	3.711	3.188	2.723	2.561	2.411	2.183	2.329	2.454	2.469	2.430	2.746	2.961	3.067	3.229	3.642	3.616	3.886	3.794	3.741	3.792	3.519	3.248	3.302	2.879	2.631	2.566
355.0	685.6	967.8	1196	1141	965.8	746.0	655.7	650.2	671.6	751.2	836.9	908.9	886.3	779.5	662.5	558.6	476.2	405.8	390.1	447.5	298.9	174.9	143.8	212.1	618.8	1303	4019	6985	423.7	22.63	4.888	3.226	2.334	2.034	1.759	1.340	1.229	1.387	1.063	1.193	1.049	1.192	1.168	1.352	1.661	2.146	2.384	2.827	3.094	3.064	2.942	3.533	3.149	2.967	2.624	2.479	2.516	2.343	2.385	2.527	2.418	2.654	3.018	3.057	3.111	3.465	3.162	3.558	3.140	3.241	3.484	3.079	3.163	3.147	2.912	2.821	2.802
360.0	607.1	882.2	1088	1097	954.8	789.9	679.1	674.6	685.5	747.1	798.1	848.9	822.9	744.2	642.7	558.5	482.0	415.5	359.6	403.0	420.4	238.5	159.4	143.6	205.9	337.7	1096	5389	6203	372.8	13.30	4.184	2.954	2.476	1.760	1.466	1.438	1.286	1.156	1.051	1.119	1.268	1.208	1.196	1.659	1.904	2.329	2.764	2.930	2.829	2.835	3.498	2.941	2.844	2.755	2.471	2.686	2.549	2.466	2.471	2.612	2.700	2.869	2.859	2.954	3.116	3.116	3.176	3.176	3.139	3.080	3.034	2.902	2.968	2.658	2.444	2.632
365.0	573.3	839.3	1052	1049	938.5	804.8	697.9	677.7	671.8	724.0	765.5	808.4	788.3	717.1	644.7	556.6	490.1	427.7	373.1	354.6	427.1	357.6	197.0	145.7	129.0	135.0	288.4	1597	6243	3408	54.46	8.028	3.823	3.028	2.247	1.664	1.438	1.322	1.098	1.047	1.179	1.219	1.117	1.291	1.612	1.899	2.288	2.560	2.840	2.565	2.749	3.446	3.111	2.818	2.707	2.508	2.709	2.863	2.662	2.549	2.620	2.848	2.910	2.969	2.875	2.769	2.911	3.183	3.257	3.009	3.234	3.012	2.790	3.035	2.859	2.649	2.534
370.0	550.9	789.4	956.0	985.8	928.4	812.1	715.8	695.3	682.7	722.0	744.9	767.8	752.8	698.2	626.3	558.0	498.8	448.4	396.1	359.9	360.5	400.4	321.7	191.0	137.8	113.5	126.8	403.9	1812	4288	4466	1172	20.53	4.664	2.909	2.025	1.586	1.300	1.185	1.122	1.180	1.204	1.224	1.277	1.430	1.670	2.005	2.282	2.629	2.340	2.514	3.156	2.971	2.881	2.843	2.637	2.686	2.604	2.577	2.566	2.611	2.708	2.736	2.956	2.986	2.839	2.837	2.930	3.056	3.096	2.989	2.850	2.775	2.741	2.639	2.591	2.647
375.0	515.9	726.6	906.8	960.6	908.7	824.2	745.5	705.8	692.1	715.8	739.7	750.0	749.2	685.6	607.6	551.9	507.4	462.5	416.3	382.3	350.1	342.8	389.1	311.6	182.3	139.6	126.1	172.0	456.6	1044	3112	6010	1613	24.59	4.134	2.638	2.012	1.630	1.283	1.246	1.202	1.266	1.233	1.281	1.284	1.712	1.656	2.271	2.328	2.369	2.496	2.860	3.027	3.155	2.763	2.711	2.703	2.630	2.572	2.551	2.510	2.602	2.630	2.940	3.035	2.710	2.954	2.681	2.886	2.827	2.966	2.812	2.798	2.816	2.455	2.774	2.847
380.0	515.1	672.2	865.7	906.2	884.6	826.4	731.1	707.6	690.2	709.0	734.8	748.3	747.8	680.2	596.3	543.1	510.5	466.9	433.3	394.5	359.4	332.3	349.5	390.6	252.7	171.3	149.6	141.2	176.5	293.4	870.0	4210	5402	327.7	12.84	3.425	2.498	1.937	1.494	1.450	1.130	1.238	1.134	1.285	1.246	1.818	1.630	2.070	2.389	2.299	2.531	2.802	2.775	3.259	2.973	2.507	2.824	2.667	2.554	2.641	2.596	2.673	2.707	2.622	2.812	2.779	2.897	2.782	2.725	2.774	3.020	2.908	2.702	2.440	2.468	2.642	2.665
385.0	522.6	655.2	817.7	855.3	876.0	807.8	733.6	689.0	681.3	695.6	716.4	725.1	734.6	670.1	585.1	533.4	504.3	466.3	434.4	401.5	368.2	334.9	322.5	368.1	336.0	209.8	172.9	149.9	126.8	136.5	272.8	1253	4669	2828	245.0	5.522	3.135	2.197	1.786	1.451	1.285	1.261	1.172	1.184	1.346	1.574	1.624	2.098	2.175	2.183	2.397	2.769	2.585	2.885	2.886	2.612	2.775	2.594	2.575	2.626	2.514	2.417	2.515	2.641	2.822	2.864	2.762	2.649	2.763	2.795	2.937	2.854	2.797	2.687	2.463	2.546	2.384
390.0	461.6	612.2	765.0	796.7	814.3	785.8	711.2	678.0	665.4	666.4	685.0	683.6	686.7	630.2	560.4	516.4	490.2	458.2	430.7	402.4	370.8	342.2	314.4	312.5	333.0	293.6	205.1	158.6	124.2	107.2	135.1	342.6	1308	3010	3269	924.4	16.55	3.134	2.233	1.772	1.482	1.344	1.132	1.273	1.396	1.500	1.620	1.900	1.972	2.002	2.148	2.654	2.565	2.877	2.701	2.551	2.686	2.744	2.413	2.576	2.489	2.573	2.547	2.358	2.664	2.650	2.426	2.570	2.760	2.820	2.787	2.650	2.541	2.564	2.613	2.449	2.433
395.0	410.7	587.5	711.1	757.7	775.9	751.7	696.6	661.9	645.3	637.2	659.4	659.4	654.4	597.2	534.9	496.7	475.6	443.8	421.4	394.6	376.0	344.7	318.1	302.1	284.5	311.3	285.1	191.5	139.7	115.8	115.8	146.5	328.9	713.4	1981	4157	1352	20.55	3.306	2.140	1.892	1.491	1.357	1.361	1.600	1.466	1.478	1.885	1.871	1.945	1.948	2.363	2.576	2.498	2.683	2.712	2.476	2.630	2.336	2.452	2.382	2.470	2.433	2.489	2.478	2.535	2.456	2.601	2.681	2.593	2.690	2.706	2.549	2.322	2.486	2.269	2.447
400.0	418.7	544.1	667.4	713.0	735.2	735.4	675.2	656.8	640.2	626.0	648.5	630.0	635.6	579.0	520.5	476.7	456.5	431.8	416.5	392.3	366.8	350.1	327.0	304.0	277.9	280.7	323.7	249.8	159.8	133.1	124.1	116.6	117.8	184.2	512.4	2634	3891	284.6	12.05	2.918	1.999	1.687	1.434	1.362	1.493	1.551	1.618	2.085	1.816	1.878	2.049	2.509	2.463	2.382	2.485	2.448	2.442	2.457	2.463	2.393	2.198	2.521	2.548	2.433	2.327	2.384	2.364	2.423	2.461	2.497	2.677	2.477	2.277	2.499	2.155	2.290	2.464
405.0	400.0	529.1	654.3	684.5	721.2	713.8	667.2	640.0	627.4	619.7	628.7	608.9	623.4	564.1	504.4	463.7	437.7	422.1	404.3	380.0	362.2	344.2	324.6	305.4	280.7	262.8	297.5	303.2	194.9	147.8	135.1	115.8	76.46	71.19	134.7	720.9	3021	2403	225.3	5.808	2.277	1.906	1.593	1.470	1.482	1.540	1.567	1.792	1.899	1.944	1.878	2.256	2.463	2.457	2.526	2.505	2.396	2.465	2.311	2.474	2.436	2.293	2.452	2.375	2.623	2.354	2.335	2.315	2.336	2.478	2.446	2.176	2.212	2.294	2.148	2.184	2.273
410.0	373.7	483.8	594.3	646.2	671.3	678.6	645.7	627.2	605.3	596.4	603.4	585.0	578.0	531.3	470.0	437.5	414.5	399.6	384.5	365.7	350.3	333.0	318.4	300.0	277.9	255.9	255.9	277.0	250.8	175.6	137.8	112.4	72.69	52.61	54.24	178.3	808.8	2086	2503	829.6	15.18	2.508	1.852	1.677	1.459	1.514	1.463	1.752	1.909	1.810	1.722	2.249	2.192	2.322	2.298	2.327	2.473	2.453	2.302	2.402	2.306	2.331	2.424	2.185	2.292	2.277	2.180	2.256	2.128	2.226	2.313	2.103	2.070	2.108	2.110	2.068	2.171
415.0	352.8	456.8	572.9	606.1	637.6	637.3	624.0	614.6	591.3	574.6	569.1	548.6	532.3	494.2	441.9	410.6	394.5	379.0	361.5	342.6	331.9	318.7	304.8	291.3	272.7	254.4	238.2	233.2	244.6	227.7	155.0	112.6	77.45	54.09	41.93	60.41	195.6	488.0	1365	3042	1063	18.49	2.514	1.980	1.615	1.623	1.567	1.603	1.825	1.831	1.784	2.171	2.052	2.166	2.097	2.349	2.415	2.237	2.200	2.394	2.096	2.324	2.331	2.333	2.298	1.953	2.142	1.984	2.062	2.175	2.042	2.063	1.857	1.989	1.913	1.883	1.951
420.0	334.1	448.0	549.5	583.5	585.0	624.2	596.0	593.6	572.1	556.8	554.5	531.8	510.3	469.2	424.7	392.4	369.7	360.6	341.7	328.1	318.2	308.5	295.5	285.2	268.3	251.3	232.8	221.4	217.6	237.5	186.4	121.5	82.78	58.67	42.93	38.07	61.36	122.1	347.9	1859	2864	256.7	10.02	2.485	1.905	1.692	1.516	1.582	1.711	1.645	1.714	1.981	2.050	1.951	2.068	2.253	2.179	2.375	2.249	2.194	2.190	2.175	2.230	2.279	1.988	1.947	2.052	2.050	1.987	2.122	2.021	1.956	1.880	1.832	1.832	1.762	1.955
425.0	328.0	427.2	492.8	548.9	561.5	577.6	582.0	578.1	554.2	555.7	534.5	519.0	495.6	457.5	405.2	369.0	351.8	336.3	324.8	313.3	304.4	297.0	289.0	276.3	262.4	245.9	233.7	217.2	201.8	211.7	216.2	144.2	90.13	64.08	47.30	36.95	33.73	42.59	88.95	502.3	2143	2129	201.7	4.519	2.158	1.837	1.633	1.640	1.681	1.558	1.574	1.819	1.958	1.973	2.008	2.033	2.052	2.129	2.132	2.139	2.049	2.218	2.064	2.171	2.029	1.913	2.034	2.077	2.103	1.897	2.045	1.840	1.932	1.843	1.860	1.942	1.882
430.0	521.1	401.5	469.5	514.1	538.8	549.5	553.0	560.7	545.5	538.5	520.7	498.3	466.6	430.3	379.6	345.3	332.2	317.2	303.8	295.7	287.8	283.7	275.7	265.8	255.1	239.1	229.4	214.9	196.7	188.5	198.7	178.3	112.4	71.96	53.39	40.34	31.81	27.41	33.18	122.8	572.9	1617	2020	664.5	13.24	2.422	1.798	1.864	1.746	1.417	1.547	1.799	1.952	2.001	1.921	1.977	2.159	2.197	2.116	2.106	2.059	2.118	2.048	2.059	2.030	1.921	1.994	1.986	1.809	1.887	1.787	1.856	1.763	1.742	1.825	1.755	1.876
435.0	1134	407.0	445.7	493.6	528.6	515.9	535.2	541.9	534.2	525.5	510.4	480.4	440.7	406.8	359.6	331.1	309.0	300.7	291.7	278.5	269.7	263.3	261.4	255.1	244.5	233.9	223.2	211.5	196.9	179.3	169.4	171.7	147.4	89.72	59.94	46.54	36.15	27.66	24.08	39.71	137.2	377.3	1102	2504	259.8	16.20	2.276	2.123	1.898	1.645	1.421	1.905	1.892	2.017	1.825	1.802	2.123	2.031	2.063	1.884	2.156	1.992	2.102	2.090	1.917	1.856	1.774	1.800	1.794	1.682	1.693	1.737	1.655	1.634	1.687	1.616	1.612
440.0	1626	621.9	440.2	467.6	497.5	519.8	518.6	524.7	522.4	506.4	504.8	468.0	427.7	393.5	343.9	318.8	292.9	286.8	273.6	266.8	259.5	253.7	248.6	245.3	237.1	226.6	218.5	206.6	194.7	175.6	161.4	148.5	154.9	113.8	69.13	51.36	39.08	30.24	24.10	23.20	41.34	93.14	282.7	1612	2081	228.0	8.414	2.349	1.924	1.658	1.471	1.948	1.637	1.879	1.654	1.877	2.183	2.226	2.021	2.005	2.095	1.893	2.039	2.004	1.936	1.980	1.884	1.753	1.782	1.689	1.710	1.668	1.674	1.602	1.551	1.549	1.507
445.0	1633	1156	427.6	442.8	471.6	494.4	522.5	508.2	519.2	492.6	480.4	449.9	413.4	378.6	327.3	303.3	280.8	268.9	259.4	249.7	244.6	239.6	239.5	231.6	226.5	217.2	210.7	199.0	191.2	175.6	157.3	138.0	136.1	131.7	84.85	56.21	41.78	33.70	26.02	20.95	21.06	30.82	71.00	445.2	1878	1893	162.5	4.141	2.091	1.630	1.580	1.850	1.660	1.759	1.736	1.776	1.989	2.181	1.943	1.928	2.122	1.921	1.886	2.025	1.983	1.904	1.837	1.779	1.749	1.572	1.568	1.575	1.584	1.364	1.532	1.270	1.635
450.0	926.1	2139	772.0	414.5	439.0	449.2	475.1	484.3	486.2	470.7	462.6	424.2	383.4	347.8	305.1	277.8	258.4	248.0	237.5	232.9	225.0	223.6	221.6	216.6	210.7	203.8	199.4	190.8	181.2	169.8	151.9	132.2	115.6	117.8	105.5	69.45	46.54	36.47	28.86	23.01	18.99	18.06	24.90	106.8	512.6	1478	1769	555.7	10.99	2.049	1.696	1.891	1.817	1.870	1.716	1.768	1.801	1.885	1.899	1.796	1.937	1.767	1.958	1.946	1.815	1.701	1.620	1.634	1.640	1.610	1.579	1.423	1.515	1.405	1.439	1.330	1.464
455.0	398.6	1938	2006	442.6	404.6	417.1	438.1	458.6	460.2	437.9	426.1	391.9	359.3	319.6	279.9	251.6	234.2	226.7	217.4	208.8	204.9	201.3	202.5	199.8	193.7	189.3	184.5	177.0	171.8	159.6	145.6	127.5	107.8	96.76	98.28	91.35	55.59	39.46	32.32	25.46	20.30	16.99	15.61	32.24	121.1	343.8	930.8	2047	212.4	12.28	2.197	2.054	1.975	1.797	1.643	1.647	1.659	1.794	1.842	1.646	1.870	1.803	1.675	1.769	1.696	1.549	1.538	1.436	1.390	1.570	1.413	1.405	1.282	1.231	1.328	1.392	1.342
460.0	239.9	1136	2916	774.4	382.2	394.3	411.8	424.6	440.1	417.8	400.2	370.6	335.3	301.7	264.9	231.3	219.2	206.2	198.0	193.2	190.6	185.8	184.6	185.6	179.9	174.9	171.2	166.6	162.1	152.4	137.3	122.3	104.0	88.30	83.38	92.01	70.24	44.45	32.92	27.08	21.86	17.80	14.83	16.32	33.93	82.92	234.3	1266	1693	172.0	7.431	2.371	1.916	1.646	1.746	1.634	1.695	1.762	1.616	1.678	1.727	1.724	1.730	1.809	1.642	1.396	1.566	1.352	1.269	1.374	1.428	1.356	1.527	1.355	1.104	1.229	1.226
465.0	228.9	543.1	2981	1644	357.8	357.6	378.6	401.7	406.6	397.1	376.0	350.2	316.7	274.7	245.5	218.5	201.4	191.5	183.8	179.3	176.0	173.6	171.8	170.0	168.6	162.5	159.8	155.8	151.4	144.9	131.6	117.0	99.17	84.88	74.80	77.79	79.06	52.21	34.79	27.96	23.43	18.51	15.23	13.12	15.43	25.07	58.24	347.4	1472	1398	137.9	4.100	2.066	1.736	1.558	1.653	1.631	1.661	1.600	1.612	1.772	1.718	1.573	1.624	1.518	1.318	1.535	1.284	1.330	1.374	1.321	1.218	1.389	1.253	1.161	1.180	1.251
470.0	230.3	296.6	1551	2993	650.6	336.1	346.9	359.6	371.1	359.0	340.8	317.9	291.1	251.7	221.4	198.8	182.9	171.3	164.9	159.6	157.8	154.2	153.8	152.1	149.2	146.4	144.8	140.5	138.3	132.3	123.0	107.3	92.50	80.18	69.37	63.57	66.91	62.85	42.40	29.31	23.62	19.71	15.83	13.80	11.93	12.46	19.11	82.83	399.9	1061	1254	433.7	10.69	2.196	1.831	1.737	1.554	1.543	1.645	1.609	1.530	1.520	1.455	1.320	1.445	1.356	1.376	1.213	1.196	1.257	1.196	1.193	1.197	1.155	1.007	0.990	1.020
475.0	246.1	240.6	556.1	2607	2134	347.7	311.4	331.8	329.4	321.7	307.9	284.0	258.6	225.8	200.0	174.1	161.8	153.5	147.4	139.9	140.0	136.1	133.1	136.0	132.0	130.1	128.1	126.8	124.8	119.5	111.5	97.52	86.39	74.31	65.46	56.25	51.90	56.48	53.51	34.95	24.43	19.99	17.61	14.43	12.13	10.27	10.45	23.83	93.69	244.8	607.3	1384	211.0	13.12	2.009	1.774	1.656	1.592	1.538	1.432	1.385	1.397	1.352	1.277	1.275	1.324	1.157	1.154	1.041	1.117	1.119	1.212	1.095	0.980	0.909	0.850	0.877
480.0	233.6	220.0	299.5	1435	3269	599.2	299.3	313.5	301.5	306.8	289.1	269.6	238.6	208.1	183.5	162.9	149.7	141.0	136.2	130.4	126.6	125.3	121.9	124.4	120.0	119.0	116.7	116.0	114.7	112.5	104.2	91.06	80.44	71.30	61.44	53.31	46.86	46.84	52.62	42.13	26.47	20.38	17.57	14.80	12.22	10.90	8.986	10.68	25.59	58.45	151.2	788.9	1303	191.5	6.403	1.934	1.710	1.614	1.376	1.210	1.241	1.302	1.297	1.297	1.237	1.163	1.020	1.147	0.905	0.963	1.089	1.142	0.947	0.877	0.971	0.777	0.930
485.0	198.6	242.8	229.3	624.1	3287	1507	276.7	289.4	282.5	284.7	270.6	250.9	226.5	192.1	169.4	152.1	137.9	129.3	126.6	120.0	116.5	116.4	113.9	114.7	111.3	110.2	107.6	107.5	104.5	103.7	96.19	87.30	77.62	67.33	58.96	50.77	44.19	40.43	45.29	46.87	30.48	20.93	18.16	15.36	12.77	10.99	9.557	8.314	10.20	17.31	37.31	212.5	1036	1206	29.42	3.127	1.830	1.593	1.510	1.361	1.184	1.392	1.334	1.334	1.139	1.168	0.941	1.124	0.967	0.900	1.092	0.912	0.913	0.980	0.918	0.753	0.819
490.0	153.1	256.5	233.1	303.5	1700	3001	621.5	262.2	263.7	262.7	249.5	229.3	205.6	177.7	155.8	138.0	127.3	119.0	114.2	107.7	106.8	104.8	102.9	103.8	101.4	98.57	98.42	97.05	96.34	94.16	89.25	81.08	71.91	62.96	55.50	48.98	42.46	38.49	35.99	41.17	37.88	26.00	18.65	15.70	13.27	11.35	10.22	8.433	7.480	8.176	11.91	50.65	276.0	805.4	1064	411.4	11.82	1.831	1.594	1.461	1.187	1.310	1.155	1.183	1.129	1.126	0.984	1.107	1.007	0.940	0.966	0.848	0.781	0.817	0.745	0.753	0.794
495.0	114.7	210.4	247.1	214.0	569.2	2790	1965	261.9	239.5	232.8	228.8	206.6	189.0	161.7	141.1	125.3	115.7	105.3	101.1	96.95	95.13	92.59	91.62	91.78	91.11	90.06	88.53	87.67	87.03	85.19	81.33	73.70	65.70	58.53	51.27	46.00	40.32	36.20	32.23	32.11	35.93	33.18	22.09	15.74	13.65	11.85	10.06	9.011	7.257	6.339	6.393	14.31	64.48	185.2	553.0	1318	236.5	14.76	1.841	1.491	1.286	1.227	1.133	1.146	1.080	0.931	0.941	1.034	0.931	0.837	0.811	0.854	0.661	0.793	0.701	0.763	0.654
500.0	103.2	161.8	272.0	185.4	267.3	1571	3168	424.4	227.5	213.5	209.4	191.9	174.0	151.1	129.2	111.6	104.2	95.99	91.78	90.35	84.89	84.24	84.10	84.27	82.25	81.94	80.54	80.37	79.37	78.39	74.89	67.70	61.23	54.78	48.30	42.61	38.10	34.13	30.68	28.53	29.53	34.23	26.64	17.03	13.52	12.02	9.950	8.957	7.530	5.937	5.061	6.519	17.25	44.17	137.1	737.6	1270	210.7	7.836	1.563	1.493	1.227	0.934	1.152	0.839	0.904	0.891	0.847	0.863	0.684	0.687	0.826	0.604	0.645	0.731	0.678	0.742
505.0	95.69	130.2	257.3	204.7	188.2	646.2	3367	1186	207.2	197.1	192.3	181.2	154.4	137.6	119.6	104.0	98.25	90.04	83.60	82.53	79.31	77.15	75.78	75.21	75.00	73.89	71.84	72.79	73.35	71.51	68.39	62.59	57.07	49.65	45.09	40.18	35.42	31.51	28.75	26.20	24.39	28.65	29.18	20.44	13.82	11.71	9.849	8.903	7.545	6.392	5.031	4.761	6.722	12.50	33.28	195.0	916.5	1136	32.60	3.406	1.532	1.105	0.993	1.019	0.925	0.839	0.777	0.764	0.693	0.707	0.741	0.685	0.675	0.649	0.648	0.645	0.600
510.0	86.24	115.3	191.3	229.5	164.6	272.0	1848	2816	331.0	175.4	169.9	159.9	138.5	120.1	106.3	93.08	85.12	78.18	73.65	70.99	68.61	67.08	66.28	65.53	65.22	63.99	63.45	63.72	63.21	62.90	59.74	54.91	50.46	44.90	40.43	35.59	31.86	29.03	26.26	23.52	21.26	21.83	25.25	23.97	16.46	11.62	9.740	8.547	7.284	6.221	5.486	4.589	4.380	5.461	9.822	45.76	238.8	697.5	888.5	341.0	11.98	1.517	1.185	0.964	0.874	0.797	0.783	0.728	0.653	0.745	0.684	0.631	0.580	0.547	0.561	0.580	0.517
515.0	75.02	103.6	130.3	217.3	170.6	166.2	579.5	2994	1533	170.2	151.0	139.6	123.8	107.1	94.06	82.04	72.85	68.45	64.47	62.22	59.11	57.85	57.01	56.19	56.34	55.23	55.00	55.34	55.18	54.74	52.99	48.57	43.90	38.62	35.87	31.46	28.78	25.92	23.60	21.62	18.55	18.00	18.04	22.28	20.37	13.37	9.581	8.369	7.046	5.835	5.331	4.711	3.755	3.917	4.419	12.32	55.39	159.4	396.4	992.2	240.1	15.18	1.306	1.086	0.906	0.793	0.745	0.638	0.622	0.573	0.544	0.623	0.542	0.558	0.490	0.502	0.526
520.0	66.32	84.25	109.6	176.9	194.6	137.9	231.1	1792	2927	292.9	133.5	124.4	110.9	96.63	82.49	73.20	66.15	62.57	58.11	55.58	51.89	52.40	51.11	50.81	50.72	49.62	48.70	47.83	48.75	47.79	46.85	43.34	38.56	34.84	32.97	28.96	26.39	24.14	22.07	19.73	18.03	16.53	15.15	16.95	21.34	16.49	10.40	8.010	7.123	5.678	4.936	4.845	4.042	3.337	3.272	4.820	14.34	37.67	96.18	506.9	934.7	210.2	8.780	1.188	0.856	0.780	0.718	0.630	0.561	0.678	0.519	0.506	0.556	0.572	0.489	0.426	0.461
525.0	66.19	80.61	90.96	137.8	218.8	137.0	145.9	704.3	3492	913.7	128.2	114.0	103.1	85.52	76.44	66.59	60.47	56.09	53.47	51.10	47.23	47.63	46.07	46.22	45.20	45.59	43.65	43.25	43.73	43.31	43.09	39.56	34.59	31.89	29.11	26.63	24.63	22.31	20.24	18.56	16.54	15.25	14.01	13.73	18.00	17.81	11.94	8.094	6.680	5.924	4.947	4.605	4.358	3.518	3.046	3.295	5.111	10.33	23.51	129.0	590.5	847.9	166.1	3.412	0.995	0.858	0.707	0.691	0.508	0.594	0.464	0.496	0.456	0.496	0.479	0.411	0.473
530.0	55.13	71.31	78.99	94.88	177.9	163.9	114.0	249.9	2050	2599	229.6	102.2	88.84	76.46	65.90	59.20	53.46	48.78	44.98	43.53	42.17	40.22	40.63	39.15	39.23	39.28	37.96	37.59	38.13	37.24	36.53	33.82	30.40	27.84	25.57	23.17	21.28	19.96	18.12	16.21	14.84	13.50	12.41	11.56	12.77	15.64	14.41	9.479	6.455	5.398	4.688	4.292	3.816	3.820	3.172	2.728	3.034	4.113	6.779	30.35	148.4	458.5	663.4	284.1	12.76	0.987	0.724	0.653	0.520	0.508	0.557	0.446	0.431	0.428	0.408	0.403	0.416
535.0	52.03	58.18	63.78	74.46	110.8	183.3	109.8	131.0	604.3	3059	1233	91.02	76.86	64.63	56.58	51.31	45.76	41.54	38.32	36.70	37.06	34.86	33.73	33.26	33.66	32.57	32.09	31.39	31.36	33.14	31.12	29.24	26.11	24.00	21.90	20.12	18.60	17.31	15.72	14.38	13.06	11.75	11.30	9.876	10.03	10.90	13.33	11.50	7.018	5.097	4.217	3.781	3.641	3.444	3.339	3.043	2.543	2.628	3.158	8.167	34.20	104.0	247.1	679.8	244.3	16.95	0.861	0.777	0.584	0.380	0.455	0.489	0.407	0.396	0.390	0.400	0.416
540.0	45.44	57.69	58.30	70.74	79.78	166.5	121.4	93.25	207.8	1876	2382	176.4	68.54	56.76	51.34	44.65	38.88	36.75	35.38	32.42	31.68	31.60	29.14	28.16	29.28	27.94	27.75	27.46	27.96	28.60	27.57	25.27	23.11	21.47	18.88	18.26	16.70	15.01	13.98	12.80	11.80	10.35	9.962	9.190	9.030	8.264	10.08	11.64	8.220	5.120	3.956	3.632	3.233	2.962	2.968	3.060	2.523	2.100	2.130	3.302	8.785	24.29	58.33	304.9	659.9	213.0	10.12	0.819	0.551	0.480	0.459	0.376	0.398	0.344	0.402	0.370	0.394
545.0	36.48	49.36	54.68	60.47	66.16	130.6	139.4	81.94	106.4	704.9	3246	616.4	61.78	52.26	44.51	39.58	34.66	32.91	32.02	28.82	27.27	27.41	25.62	24.84	25.17	24.84	24.50	24.40	24.85	24.73	24.18	22.41	20.42	19.16	17.08	16.04	14.72	13.07	12.30	11.58	10.87	9.659	9.065	8.431	7.987	6.818	7.544	10.10	9.622	5.597	3.925	3.317	2.901	2.868	2.651	2.872	2.503	1.779	1.819	1.957	3.081	6.467	14.16	74.46	355.5	615.2	162.7	4.228	0.622	0.536	0.441	0.343	0.366	0.316	0.356	0.340	0.372
550.0	40.66	39.95	45.34	50.70	51.20	78.63	150.6	85.94	73.04	216.6	1927	2084	133.3	44.27	37.71	33.82	29.95	27.49	25.15	24.42	22.74	22.14	21.48	21.15	21.23	20.53	20.72	20.48	20.55	20.62	19.57	18.71	17.04	15.87	14.60	13.05	12.03	11.08	10.29	9.616	8.878	8.337	7.602	6.931	6.712	5.845	5.712	6.773	8.166	6.846	4.395	3.027	2.756	2.431	2.344	2.270	2.265	2.023	1.667	1.538	1.629	2.472	4.037	17.51	86.21	282.9	439.7	213.2	13.83	0.775	0.467	0.350	0.359	0.334	0.354	0.310	0.279
555.0	44.81	42.19	42.37	43.29	41.14	48.44	117.9	113.1	61.93	89.10	541.8	2709	780.7	42.05	32.35	26.65	25.11	22.27	21.38	19.85	17.88	18.40	17.84	16.73	17.38	16.88	16.64	16.81	16.33	17.21	15.78	14.88	13.44	12.48	11.66	10.76	9.992	9.263	8.584	8.409	7.260	6.826	5.939	5.809	5.380	5.074	4.631	4.777	5.275	6.354	5.348	3.158	2.536	2.283	1.959	1.991	1.797	1.953	1.739	1.399	1.223	1.378	1.649	4.760	20.00	63.93	140.4	398.8	239.7	18.76	0.589	0.454	0.322	0.362	0.321	0.292	0.281
560.0	38.34	42.96	41.63	42.94	37.21	40.10	76.65	131.8	58.04	61.61	162.5	1750	1687	89.76	28.16	22.06	20.28	18.62	18.45	17.40	15.02	15.53	14.75	14.23	14.09	14.42	13.79	13.85	13.84	14.44	13.20	12.67	11.95	10.76	10.10	8.958	8.772	7.764	7.249	7.045	6.200	5.625	5.356	5.157	4.663	4.048	4.085	3.889	3.815	5.061	5.369	3.752	2.481	1.948	1.911	1.628	1.546	1.629	1.855	1.431	1.160	1.008	1.030	1.697	5.086	14.94	32.74	155.0	407.2	201.8	11.26	0.478	0.396	0.307	0.292	0.278	0.288
565.0	36.38	37.87	39.80	41.99	34.62	36.60	51.28	127.0	73.19	47.96	73.42	660.6	2548	191.3	24.03	20.53	18.24	16.77	15.44	14.33	13.20	13.79	13.33	11.95	11.05	12.24	11.32	11.98	11.35	11.94	11.04	10.81	9.591	8.949	8.232	7.707	7.503	6.790	6.356	5.911	5.459	5.073	4.680	4.532	4.024	3.870	3.694	3.296	2.999	3.582	4.828	4.394	2.596	1.699	1.607	1.439	1.408	1.288	1.473	1.613	1.159	0.774	0.858	1.018	1.697	3.926	7.987	36.75	186.7	383.6	137.1	4.670	0.349	0.348	0.299	0.272	0.296
570.0	47.09	39.47	42.38	40.64	29.10	31.13	37.36	90.58	108.2	52.57	56.93	198.1	1674	1371	69.96	17.59	14.80	13.85	12.35	11.75	10.84	10.62	10.46	10.12	9.776	9.872	9.919	9.382	9.367	9.621	9.380	8.488	7.672	7.246	7.047	6.175	5.788	5.505	5.220	4.772	4.429	4.146	3.883	3.791	3.391	3.201	2.973	2.631	2.397	2.531	3.069	3.701	3.027	1.980	1.406	1.441	1.282	1.193	1.272	1.288	1.277	0.952	0.833	0.875	1.030	1.448	2.385	8.819	44.09	152.9	262.2	138.4	13.76	0.625	0.272	0.275	0.255
575.0	43.47	48.72	50.52	35.41	27.15	28.46	31.50	50.46	127.7	74.25	62.23	96.78	493.1	2012	446.1	16.53	11.93	11.06	10.40	9.411	8.503	9.109	8.337	8.165	7.980	7.854	7.816	7.383	7.505	7.342	7.418	6.615	6.038	5.960	5.728	4.925	4.946	4.426	4.174	3.693	3.641	3.288	3.093	2.934	2.814	2.686	2.523	2.225	1.988	1.794	1.849	2.571	3.029	2.389	1.372	1.097	1.089	0.983	0.987	0.899	1.082	1.071	0.995	0.733	0.773	0.869	0.959	2.561	10.33	34.58	76.21	219.5	196.2	17.83	0.448	0.190	0.224
580.0	52.44	54.12	54.85	35.29	26.65	25.06	27.43	38.95	107.4	102.6	70.79	80.66	162.1	1399	1127	36.47	10.94	10.56	9.070	7.818	7.665	7.596	7.059	6.705	6.420	6.398	6.822	6.725	6.275	6.157	6.010	5.801	5.146	4.758	4.545	4.308	4.381	3.835	3.589	3.151	2.947	2.817	2.847	2.426	2.462	2.136	2.094	1.898	1.867	1.461	1.564	1.786	2.361	2.451	1.800	0.998	0.980	0.819	0.858	0.692	0.813	1.117	1.001	0.670	0.670	0.667	0.650	1.050	2.748	8.185	17.71	77.96	241.7	143.9	9.796	0.251	0.279
585.0	54.55	52.61	57.56	36.22	26.77	25.26	28.98	34.05	83.75	134.4	82.31	84.88	88.77	559.1	1770	120.0	10.35	8.741	8.014	6.869	6.704	6.027	5.833	6.060	5.457	5.550	5.778	5.599	5.388	5.113	5.125	4.808	4.380	3.972	3.872	3.705	3.298	3.209	2.976	3.009	2.525	2.307	2.501	2.227	2.079	1.972	1.793	1.634	1.616	1.251	1.245	1.395	1.811	2.323	2.097	1.235	0.974	0.919	0.895	0.758	0.638	0.899	1.002	1.025	0.686	0.749	0.709	0.849	1.108	2.186	4.407	18.41	98.55	226.2	98.31	4.100	0.309
590.0	56.20	60.61	59.62	39.35	25.52	24.87	26.64	32.79	61.70	136.0	108.8	89.42	78.63	165.1	1188	777.4	31.46	7.420	6.759	5.879	5.526	5.047	5.019	4.784	4.762	4.853	4.406	4.438	4.399	4.186	4.172	4.055	3.674	3.425	3.171	2.999	2.815	2.609	2.646	2.388	2.111	2.063	2.071	1.846	1.617	1.604	1.562	1.440	1.330	1.198	1.091	1.056	1.193	1.723	1.926	1.545	1.015	0.708	0.769	0.658	0.618	0.695	0.767	0.986	0.874	0.694	0.572	0.676	0.683	0.922	1.408	4.439	22.94	83.08	155.7	95.95	13.28
595.0	62.97	59.14	58.39	43.36	23.02	24.95	26.16	36.41	52.61	106.3	143.8	99.21	78.27	70.00	340.9	1301	115.0	6.916	5.627	4.672	4.469	4.039	4.297	3.895	3.862	3.801	3.404	3.615	3.738	3.570	3.348	3.159	2.913	2.634	2.572	2.490	2.338	2.139	2.173	1.965	1.832	1.540	1.573	1.638	1.509	1.306	1.232	1.279	1.191	1.042	0.878	0.804	0.891	0.918	1.400	1.788	1.248	0.767	0.628	0.625	0.593	0.544	0.597	0.771	1.051	0.830	0.531	0.554	0.628	0.527	0.641	1.364	5.418	18.80	42.18	121.7	127.9
600.0	58.86	69.81	57.33	39.06	23.17	21.35	27.35	32.96	50.89	82.92	155.1	113.8	81.46	50.72	94.30	964.1	635.6	15.61	5.039	4.341	3.736	3.565	3.760	3.564	3.261	3.396	3.001	2.942	2.964	2.989	2.948	2.531	2.448	2.294	2.280	2.162	2.099	1.883	1.685	1.584	1.553	1.503	1.398	1.287	1.294	1.129	1.143	1.042	0.894	0.919	0.764	0.837	0.797	0.620	0.930	1.624	1.335	0.796	0.632	0.496	0.507	0.491	0.626	0.702	0.893	0.901	0.613	0.479	0.557	0.458	0.517	0.598	1.457	4.472	9.788	40.74	139.5
605.0	55.92	76.39	57.11	37.08	24.88	21.09	28.52	34.20	50.56	79.66	153.0	131.1	84.28	48.78	38.66	405.4	1059	74.03	5.072	4.501	3.604	3.084	3.389	2.960	2.646	2.954	2.745	2.632	2.400	2.689	2.419	2.368	2.051	1.935	2.102	1.650	1.678	1.644	1.375	1.410	1.303	1.352	1.327	1.181	1.265	0.971	1.085	0.879	0.767	0.831	0.750	0.692	0.681	0.583	0.761	1.109	1.315	0.958	0.684	0.491	0.491	0.519	0.597	0.574	0.672	0.867	0.815	0.642	0.577	0.505	0.433	0.483	0.516	1.256	2.393	9.564	52.98
610.0	54.55	77.11	60.38	39.32	26.51	22.26	27.31	39.25	55.48	83.11	131.0	158.4	98.91	53.22	31.91	114.6	808.1	492.9	15.13	3.806	3.083	2.813	2.741	2.688	2.215	2.433	2.194	2.093	2.110	2.173	1.976	1.943	1.852	1.697	1.565	1.383	1.462	1.389	1.238	1.222	1.058	1.025	1.017	0.906	0.985	0.864	0.849	0.750	0.662	0.657	0.594	0.553	0.557	0.505	0.582	0.717	1.014	1.020	0.765	0.528	0.449	0.462	0.518	0.516	0.565	0.715	0.817	0.845	0.689	0.541	0.444	0.426	0.375	0.490	0.797	2.385	12.40
615.0	56.05	67.51	64.56	36.21	24.80	24.80	28.79	41.18	56.73	80.37	112.3	158.4	113.5	56.33	32.22	42.95	256.0	880.4	82.25	3.283	2.856	2.311	2.199	2.094	1.895	2.044	1.906	1.722	1.651	1.576	1.622	1.461	1.557	1.307	1.462	1.199	1.247	1.195	1.192	0.821	0.909	0.824	0.866	0.869	0.685	0.805	0.676	0.715	0.640	0.610	0.526	0.489	0.412	0.392	0.440	0.470	0.601	0.778	0.880	0.639	0.519	0.471	0.401	0.447	0.678	0.700	0.611	0.774	0.799	0.569	0.428	0.362	0.380	0.322	0.385	0.687	2.946
620.0	55.11	73.25	60.11	37.69	25.79	25.91	29.78	40.92	52.74	73.61	99.04	138.3	123.8	56.74	31.33	24.88	74.56	707.7	394.9	7.365	2.547	2.530	2.043	1.753	1.948	1.508	1.668	1.355	1.686	1.265	1.304	1.311	1.254	1.094	1.212	1.068	1.088	0.990	0.879	0.743	0.753	0.615	0.648	0.665	0.614	0.729	0.605	0.650	0.522	0.493	0.489	0.446	0.428	0.397	0.376	0.442	0.459	0.571	0.774	0.610	0.505	0.391	0.485	0.411	0.642	0.663	0.546	0.578	0.751	0.642	0.445	0.335	0.274	0.292	0.301	0.373	0.847
625.0	50.24	62.68	55.11	34.67	23.05	24.20	29.46	39.61	48.97	70.52	93.38	114.5	125.6	61.53	31.29	21.54	31.33	320.2	720.8	39.25	2.562	2.192	2.021	1.629	1.770	1.476	1.245	1.459	1.335	1.300	1.240	1.133	1.126	1.034	1.054	0.914	0.851	0.878	0.864	0.620	0.595	0.642	0.659	0.598	0.540	0.629	0.534	0.542	0.490	0.471	0.401	0.386	0.404	0.323	0.360	0.424	0.381	0.498	0.578	0.617	0.601	0.335	0.430	0.410	0.605	0.605	0.524	0.520	0.677	0.741	0.563	0.398	0.262	0.290	0.264	0.268	0.370
630.0	49.11	55.13	51.89	33.33	24.35	23.84	26.95	34.69	50.38	68.89	86.12	99.71	116.1	69.17	31.20	20.16	20.41	88.05	607.8	311.4	7.003	2.086	1.740	1.454	1.450	1.225	1.179	1.200	1.026	1.073	1.035	0.918	0.892	0.849	0.907	0.824	0.744	0.748	0.664	0.579	0.515	0.544	0.520	0.512	0.489	0.539	0.477	0.496	0.459	0.350	0.372	0.311	0.353	0.279	0.270	0.319	0.317	0.346	0.420	0.575	0.579	0.450	0.388	0.382	0.513	0.434	0.492	0.584	0.458	0.644	0.650	0.383	0.275	0.274	0.255	0.215	0.241
635.0	49.14	56.37	46.47	30.55	20.72	21.51	25.88	33.73	44.20	61.75	79.94	90.18	93.34	80.54	34.10	20.97	18.03	26.84	200.0	628.3	57.39	2.135	1.577	1.422	1.279	1.220	1.126	0.893	0.937	0.865	0.930	0.860	0.636	0.621	0.762	0.722	0.521	0.608	0.562	0.560	0.583	0.493	0.526	0.398	0.458	0.453	0.396	0.416	0.366	0.333	0.339	0.235	0.287	0.263	0.266	0.258	0.270	0.300	0.317	0.406	0.541	0.459	0.390	0.384	0.424	0.364	0.452	0.466	0.362	0.465	0.472	0.464	0.299	0.287	0.250	0.231	0.192
640.0	45.95	55.30	49.78	31.28	19.70	22.52	25.10	32.36	40.17	58.10	75.19	82.04	77.13	78.52	39.10	20.98	17.69	13.67	52.58	551.9	245.1	3.857	1.417	1.295	1.048	0.956	0.936	0.895	0.801	0.767	0.848	0.729	0.593	0.639	0.718	0.620	0.536	0.550	0.433	0.477	0.496	0.485	0.370	0.378	0.362	0.413	0.383	0.407	0.398	0.310	0.255	0.297	0.242	0.246	0.252	0.276	0.200	0.283	0.228	0.328	0.463	0.501	0.426	0.376	0.392	0.334	0.400	0.411	0.407	0.392	0.397	0.534	0.408	0.331	0.223	0.273	0.244
645.0	41.76	54.63	47.65	26.95	24.01	21.49	23.41	30.84	40.77	55.27	68.12	75.99	69.71	67.33	47.07	21.47	16.73	10.51	15.61	276.7	487.0	21.08	1.400	1.174	1.076	0.870	0.859	0.776	0.769	0.739	0.692	0.695	0.483	0.551	0.654	0.727	0.534	0.483	0.460	0.470	0.454	0.404	0.449	0.417	0.356	0.475	0.333	0.293	0.355	0.291	0.243	0.261	0.285	0.238	0.206	0.197	0.285	0.287	0.270	0.228	0.346	0.445	0.477	0.465	0.395	0.418	0.335	0.471	0.402	0.373	0.294	0.393	0.360	0.415	0.234	0.222	0.231
650.0	44.15	44.87	47.55	27.90	22.04	21.07	22.54	29.91	38.07	48.98	62.35	71.94	63.59	56.02	50.94	22.20	16.93	9.840	7.132	85.20	558.8	72.22	1.779	1.058	1.160	0.806	0.789	0.644	0.672	0.719	0.691	0.735	0.608	0.532	0.587	0.651	0.534	0.502	0.427	0.438	0.385	0.339	0.409	0.373	0.284	0.424	0.331	0.253	0.357	0.204	0.200	0.262	0.245	0.213	0.177	0.172	0.249	0.202	0.303	0.243	0.327	0.480	0.476	0.444	0.391	0.427	0.397	0.401	0.385	0.325	0.306	0.288	0.325	0.433	0.252	0.195	0.206
