Sample:	'1
File name:	H2025090808”Ùº“¥Â«≈.FD3
Run date:	'14:41:07, 09/10/2025
Operator:	Administrator
Comment:	'

Instrument
Model:	F-2700 FL Spectrophotometer
Serial number:	23C7-003
ROM Version:	4J14000 07

Instrument parameters
Measurement type:	3-D scan
Data mode:	Fluorescence
EX  Start WL:	220.0 nm
EX  End WL:	600.0 nm
EX Sampling interval:	5.0 nm
EM  Start WL:	230.0 nm
EM  End WL:	650.0 nm
EM Sampling interval:	5.0 nm
Scan speed:	12000 nm/min
EX Slit:	5.0 nm
EM Slit:	5.0 nm
PMT Voltage:	700 V
Response:	Auto 
Corrected spectra:	Off
Contour interval:	50.000

Peak integration
Integration method:	Rectangular
Sensitivity:	1
Threshold:	1.000

Peaks
No.	ApexEX/EM(nm)	Height(Data)
1	225.0/595.0	40.80
2	225.0/635.0	35.59
3	230.0/350.0	492.1
4	230.0/580.0	41.68
5	235.0/510.0	218.9
6	240.0/525.0	186.3
7	245.0/270.0	214.2
8	245.0/400.0	620.2
9	245.0/535.0	155.2
10	250.0/410.0	613.8
11	250.0/545.0	131.7
12	255.0/280.0	362.8
13	255.0/415.0	605.7
14	255.0/560.0	115.1
15	260.0/285.0	398.4
16	260.0/570.0	95.75
17	265.0/400.0	596.5
18	265.0/585.0	90.65
19	270.0/300.0	970.0
20	270.0/395.0	597.7
21	270.0/600.0	90.04
22	275.0/305.0	1172
23	275.0/385.0	603.8
24	275.0/610.0	86.42
25	280.0/310.0	1065
26	280.0/375.0	596.0
27	280.0/620.0	71.22
28	285.0/635.0	49.54
29	300.0/335.0	467.1
30	305.0/345.0	433.4
31	310.0/350.0	397.3
32	315.0/355.0	407.3
33	320.0/360.0	420.5
34	325.0/370.0	412.2
35	505.0/275.0	2.162
36	510.0/280.0	2.385
37	520.0/285.0	2.850
38	530.0/290.0	3.121
39	545.0/300.0	5.429
40	550.0/305.0	6.223
41	560.0/310.0	5.757
42	570.0/315.0	5.507
43	575.0/290.0	43.99
44	575.0/320.0	4.971
45	580.0/325.0	4.414

Data points
	220.0	225.0	230.0	235.0	240.0	245.0	250.0	255.0	260.0	265.0	270.0	275.0	280.0	285.0	290.0	295.0	300.0	305.0	310.0	315.0	320.0	325.0	330.0	335.0	340.0	345.0	350.0	355.0	360.0	365.0	370.0	375.0	380.0	385.0	390.0	395.0	400.0	405.0	410.0	415.0	420.0	425.0	430.0	435.0	440.0	445.0	450.0	455.0	460.0	465.0	470.0	475.0	480.0	485.0	490.0	495.0	500.0	505.0	510.0	515.0	520.0	525.0	530.0	535.0	540.0	545.0	550.0	555.0	560.0	565.0	570.0	575.0	580.0	585.0	590.0	595.0	600.0
230.0	31.40	492.9	1823	787.5	38.09	7.428	5.453	4.990	4.446	4.108	3.923	3.429	3.228	2.800	2.339	1.939	1.826	1.610	1.467	1.353	1.289	1.112	1.116	0.964	0.925	0.919	0.837	0.800	0.822	0.797	0.718	0.773	0.640	0.585	0.559	0.526	0.511	0.490	0.448	0.433	0.459	0.478	0.491	0.454	0.400	0.434	0.874	3.455	7.261	6.342	2.673	0.712	0.374	0.334	0.345	0.326	0.370	0.324	0.365	0.337	0.322	0.343	0.302	0.335	0.346	0.332	0.340	0.349	0.361	0.345	0.317	0.359	0.343	0.355	0.368	0.319	0.357
235.0	60.38	140.5	919.9	2136	454.3	69.93	7.558	6.070	4.179	4.343	3.970	3.657	3.054	3.213	2.468	1.872	1.837	1.661	1.299	1.424	1.280	1.270	1.265	1.035	0.937	0.988	0.760	0.795	0.912	0.708	0.775	0.663	0.700	0.681	0.497	0.632	0.459	0.430	0.521	0.400	0.399	0.434	0.458	0.552	0.512	0.552	0.494	1.094	2.636	5.336	7.689	8.749	4.647	1.273	0.406	0.328	0.400	0.365	0.345	0.309	0.324	0.329	0.314	0.390	0.334	0.348	0.344	0.347	0.378	0.325	0.394	0.346	0.404	0.353	0.361	0.356	0.388
240.0	69.41	95.24	246.4	1407	2478	387.6	30.14	6.438	5.009	4.332	3.943	3.540	2.978	3.312	2.740	2.344	1.954	1.614	1.544	1.394	1.399	1.408	1.193	1.186	0.935	1.038	0.820	0.846	0.900	0.847	0.723	0.710	0.695	0.681	0.511	0.558	0.461	0.505	0.517	0.513	0.421	0.472	0.477	0.508	0.533	0.586	0.516	0.608	0.951	1.672	3.858	9.603	12.84	9.844	3.766	0.653	0.429	0.374	0.363	0.367	0.352	0.383	0.417	0.391	0.323	0.338	0.314	0.314	0.363	0.299	0.367	0.346	0.412	0.356	0.349	0.338	0.447
245.0	51.61	123.6	104.8	405.4	2032	2783	298.4	14.27	6.057	4.760	4.527	4.128	3.601	3.284	2.455	2.243	1.830	2.015	1.555	1.461	1.375	1.304	1.308	1.118	1.129	0.943	0.914	0.795	0.853	0.778	0.750	0.761	0.714	0.662	0.551	0.547	0.584	0.501	0.499	0.498	0.454	0.487	0.447	0.564	0.413	0.519	0.646	0.728	0.611	0.637	1.158	3.244	8.116	14.38	14.89	8.221	2.339	0.524	0.371	0.356	0.331	0.306	0.386	0.439	0.384	0.391	0.348	0.362	0.312	0.337	0.343	0.331	0.410	0.373	0.340	0.333	0.367
250.0	31.60	73.99	138.4	162.1	574.4	2009	2781	1085	81.94	6.012	5.808	4.573	3.934	3.436	2.512	2.362	1.957	1.874	1.740	1.554	1.462	1.224	1.180	1.100	1.010	1.062	1.059	0.928	0.941	0.810	0.833	0.789	0.655	0.599	0.505	0.569	0.504	0.473	0.452	0.444	0.454	0.430	0.455	0.441	0.450	0.470	0.429	0.616	0.811	0.718	0.654	1.062	2.193	4.619	8.579	12.75	15.42	13.48	7.601	2.426	0.583	0.379	0.361	0.395	0.346	0.376	0.318	0.365	0.319	0.372	0.305	0.349	0.349	0.383	0.322	0.341	0.366
255.0	24.54	31.55	82.08	187.2	206.6	479.3	1581	4174	1599	97.45	7.870	6.239	4.436	3.988	2.960	2.530	2.201	2.258	1.878	1.793	1.721	1.298	1.359	1.138	1.152	1.002	0.898	0.965	0.850	0.784	0.796	0.677	0.613	0.625	0.587	0.508	0.466	0.488	0.511	0.452	0.490	0.373	0.430	0.410	0.436	0.458	0.400	0.462	0.525	0.636	0.968	1.160	0.908	1.357	2.231	3.286	6.087	14.03	23.31	22.19	11.84	2.732	0.505	0.398	0.351	0.355	0.349	0.349	0.366	0.344	0.310	0.330	0.410	0.359	0.343	0.316	0.425
260.0	28.69	19.93	34.80	142.7	219.4	150.2	415.9	2622	5029	1272	56.12	7.444	5.332	4.062	3.330	2.665	2.275	2.384	1.904	1.683	1.467	1.432	1.211	1.156	1.309	1.065	1.125	0.918	0.803	0.995	0.755	0.698	0.744	0.578	0.633	0.508	0.508	0.614	0.482	0.450	0.453	0.435	0.531	0.405	0.414	0.419	0.414	0.392	0.393	0.442	0.633	1.185	1.311	1.109	0.909	1.041	1.692	3.920	10.47	23.04	31.46	21.51	9.204	1.271	0.442	0.369	0.363	0.339	0.362	0.337	0.309	0.313	0.386	0.345	0.347	0.397	0.415
265.0	26.78	19.02	20.49	57.82	201.9	184.8	122.3	743.6	3839	5420	973.5	22.40	6.892	5.156	4.167	2.691	2.452	2.512	2.420	1.762	1.412	1.336	1.321	1.259	1.125	1.118	1.021	0.939	0.884	0.928	0.820	0.822	0.685	0.620	0.605	0.631	0.510	0.545	0.512	0.431	0.517	0.441	0.444	0.396	0.375	0.398	0.433	0.380	0.392	0.304	0.333	0.696	1.220	1.448	1.282	0.732	0.657	1.208	2.747	7.152	17.87	31.83	28.23	18.68	4.849	0.599	0.366	0.362	0.379	0.395	0.419	0.313	0.328	0.364	0.350	0.364	0.391
270.0	27.47	25.59	18.47	24.76	80.01	214.2	196.7	208.6	1068	3831	5994	2406	60.09	7.772	5.368	3.737	2.964	2.553	2.342	2.129	1.831	1.444	1.469	1.298	1.281	1.155	1.194	1.057	0.937	0.874	0.766	0.735	0.757	0.645	0.660	0.679	0.556	0.569	0.535	0.501	0.502	0.430	0.472	0.450	0.432	0.408	0.433	0.384	0.394	0.319	0.293	0.448	0.621	0.856	1.378	1.521	1.225	0.899	1.022	1.994	4.565	9.748	18.00	29.04	30.31	29.68	12.13	4.223	0.708	0.383	0.408	0.369	0.545	0.411	0.402	0.361	0.387
275.0	43.70	33.99	26.59	23.44	31.09	85.56	265.9	248.4	285.1	925.1	3143	8519	3476	72.45	7.405	5.093	4.166	2.994	2.270	2.165	1.909	1.834	1.542	1.428	1.330	1.255	1.219	1.075	0.937	0.945	0.806	0.765	0.785	0.669	0.708	0.675	0.646	0.635	0.575	0.538	0.477	0.443	0.491	0.492	0.525	0.438	0.590	0.447	0.394	0.387	0.363	0.408	0.470	0.471	0.605	0.859	1.520	2.162	1.654	1.038	1.507	2.573	4.479	7.209	11.12	27.08	47.69	28.12	18.48	4.021	0.570	0.437	0.483	0.422	0.453	0.377	0.400
280.0	56.14	55.41	43.74	33.32	27.56	41.52	149.9	362.8	216.2	266.7	864.4	5183	9070	862.7	38.57	6.532	5.002	3.400	2.722	2.172	2.077	1.797	1.605	1.520	1.269	1.178	1.137	0.929	1.070	1.030	0.870	0.958	0.794	0.761	0.809	0.673	0.613	0.554	0.658	0.503	0.572	0.577	0.516	0.556	0.540	0.569	0.480	0.556	0.493	0.428	0.358	0.438	0.420	0.397	0.490	0.534	0.855	1.735	2.385	1.994	1.269	1.100	1.551	2.174	3.118	7.513	19.49	39.58	61.67	26.72	12.35	1.533	0.546	0.417	0.436	0.371	0.446
285.0	79.48	86.17	77.42	53.63	38.65	38.05	74.05	280.7	398.4	190.5	308.5	1521	6988	7147	595.3	16.69	6.106	4.219	3.326	2.639	2.320	1.941	1.631	1.490	1.311	1.326	1.286	1.212	1.126	1.010	0.998	0.902	0.922	0.697	0.758	0.736	0.651	0.663	0.652	0.513	0.629	0.563	0.598	0.621	0.576	0.586	0.596	0.589	0.585	0.504	0.544	0.497	0.531	0.400	0.446	0.451	0.613	0.934	1.488	2.467	2.850	1.641	1.108	1.243	1.559	2.553	5.201	12.19	31.77	56.49	64.80	22.63	6.202	0.666	0.440	0.395	0.515
290.0	122.0	167.3	157.4	101.1	65.92	60.52	73.56	157.2	375.5	494.6	352.6	600.1	2053	5781	7042	2044	35.38	6.746	4.355	3.390	2.803	2.363	1.895	1.737	1.477	1.467	1.388	1.211	1.134	1.077	1.075	0.987	0.935	0.780	0.775	0.752	0.711	0.729	0.694	0.633	0.567	0.642	0.612	0.673	0.674	0.771	0.751	0.871	0.785	0.754	0.643	0.559	0.672	0.520	0.564	0.540	0.727	0.755	1.012	1.390	2.099	2.757	3.121	2.374	1.947	1.976	2.553	4.006	8.671	17.05	31.35	43.99	39.05	42.54	13.92	5.549	0.821
295.0	182.8	244.7	244.1	159.4	100.6	86.23	103.0	150.4	269.2	569.2	801.3	593.3	830.0	1540	3684	9535	2848	42.33	6.666	4.502	3.601	2.836	2.320	2.105	1.808	1.462	1.419	1.252	1.302	1.125	1.059	1.103	1.000	0.766	0.867	0.875	0.821	0.779	0.622	0.666	0.599	0.606	0.673	0.798	0.788	0.861	0.992	0.929	1.091	0.957	0.814	0.698	0.730	0.580	0.665	0.679	0.779	0.812	0.959	1.103	1.505	1.812	2.995	4.324	4.624	3.321	2.734	2.976	4.152	5.720	8.486	11.21	12.98	35.10	64.49	68.46	21.83
300.0	225.3	309.8	300.1	203.4	125.7	109.8	126.1	177.2	271.1	485.4	970.0	860.8	657.9	627.4	1016	5522	9671	511.3	24.73	6.096	4.301	3.249	2.798	2.323	1.856	1.451	1.475	1.330	1.314	1.183	1.177	1.079	0.949	1.037	0.872	0.834	0.890	0.819	0.683	0.722	0.589	0.741	0.833	0.887	0.812	1.063	1.135	1.266	1.436	1.140	0.841	0.882	0.777	0.776	0.907	0.728	0.864	0.956	1.084	1.214	1.515	1.755	2.496	3.281	4.962	5.429	4.490	3.446	3.701	3.459	3.657	3.956	4.121	9.307	23.15	54.63	81.84
305.0	251.8	345.9	335.5	239.0	146.0	128.9	147.0	207.2	296.7	478.3	834.6	1172	783.7	481.2	382.8	1490	7120	8388	374.6	11.55	5.135	4.030	2.965	2.225	2.184	1.817	1.656	1.315	1.384	1.287	1.254	1.189	0.955	0.887	0.997	0.811	0.869	0.840	0.763	0.683	0.780	0.784	0.787	0.853	0.882	1.135	1.306	1.334	1.494	1.178	0.973	0.956	0.846	0.827	0.898	0.869	1.027	1.074	1.113	1.359	1.696	1.911	2.505	2.811	3.860	5.163	6.223	5.471	4.402	3.381	2.900	2.467	2.142	3.103	5.975	14.88	36.05
310.0	246.6	356.1	360.7	244.7	162.5	141.7	164.7	233.8	326.1	490.1	726.6	1020	1065	589.9	282.5	435.4	1858	5845	6027	1526	25.60	5.365	3.814	2.907	2.407	1.963	1.756	1.506	1.478	1.362	1.272	1.165	1.143	0.959	0.989	0.821	0.957	0.886	0.811	0.835	0.775	0.778	0.817	0.853	0.961	1.150	1.187	1.349	1.541	1.275	1.032	1.029	0.965	0.895	0.895	0.945	1.133	1.240	1.233	1.492	1.783	2.033	2.524	2.867	3.433	4.194	4.800	5.552	5.757	5.083	3.743	2.535	1.890	1.875	2.244	4.222	8.928
315.0	252.8	365.2	369.6	253.9	168.7	157.7	175.8	239.2	340.2	490.1	677.7	822.0	920.1	860.0	355.8	226.6	496.5	1375	3281	8151	2205	29.71	5.714	3.739	2.688	2.400	2.190	1.673	1.501	1.316	1.299	1.206	1.094	1.005	1.006	0.851	0.947	0.798	0.772	0.775	0.752	0.753	0.813	0.907	0.894	1.141	1.345	1.386	1.646	1.326	1.063	1.086	1.074	0.946	0.956	1.001	1.100	1.100	1.492	1.576	1.678	2.201	2.457	2.800	3.168	3.743	4.067	4.407	4.494	5.421	5.507	4.374	2.443	1.912	1.611	1.913	2.914
320.0	256.3	354.9	369.9	265.5	186.2	164.5	191.9	245.5	337.3	480.3	655.0	764.7	776.4	811.7	559.3	222.7	212.9	370.4	830.8	4679	7878	383.8	17.49	4.840	3.696	2.691	2.199	1.971	1.816	1.368	1.305	1.161	1.035	1.083	1.069	0.849	0.954	0.821	0.742	0.768	0.735	0.688	0.782	0.831	1.019	1.159	1.279	1.518	1.601	1.427	1.125	1.177	0.976	1.057	0.936	1.117	1.089	1.284	1.381	1.496	1.771	2.205	2.559	2.986	3.366	3.519	3.729	3.910	3.754	4.189	4.590	4.971	4.133	2.556	1.835	1.680	1.756
325.0	254.5	378.3	406.3	286.7	197.9	171.3	196.8	253.8	340.4	467.4	633.5	736.3	719.7	642.1	669.6	350.5	173.8	165.6	236.3	1223	5844	6726	291.5	9.028	4.735	3.332	2.376	1.868	1.990	1.586	1.479	1.287	1.136	1.126	0.954	0.864	0.935	0.818	0.774	0.709	0.750	0.839	0.816	0.747	0.971	1.334	1.244	1.576	1.732	1.407	1.146	1.246	1.068	1.038	0.928	1.113	1.242	1.356	1.437	1.632	1.791	2.129	2.468	2.849	3.069	3.299	3.575	3.643	3.882	4.111	3.582	3.781	4.414	4.066	2.867	1.863	1.667
330.0	259.6	395.2	442.5	333.8	234.7	199.0	210.2	262.4	339.8	455.2	597.5	687.3	684.1	571.7	519.7	502.3	303.9	152.6	126.3	323.3	1510	4768	4766	1294	21.30	4.773	3.292	2.531	2.003	2.024	1.575	1.333	1.247	1.139	1.094	0.929	0.943	0.917	0.821	0.765	0.757	0.826	0.876	0.889	1.044	1.289	1.349	1.626	1.884	1.587	1.224	1.313	1.203	1.139	1.073	1.154	1.219	1.382	1.430	1.744	1.816	2.044	2.372	2.637	2.975	3.153	3.287	3.626	3.639	3.719	3.420	3.119	3.255	3.456	3.633	3.395	2.865
335.0	256.7	394.4	475.9	380.5	280.0	234.2	227.5	274.3	342.0	449.4	574.5	653.2	660.2	560.5	456.0	407.0	467.1	269.0	139.6	152.4	396.3	1121	2588	7027	1999	27.38	4.998	3.342	2.614	2.211	1.687	1.444	1.177	1.123	1.061	1.085	0.976	0.987	0.812	0.851	0.731	0.823	0.877	0.873	0.924	1.338	1.277	1.846	1.805	1.670	1.422	1.489	1.407	1.246	1.216	1.263	1.341	1.370	1.569	1.674	1.861	2.160	2.374	2.706	2.885	3.030	3.274	3.393	3.534	3.538	3.436	3.105	2.900	2.981	2.539	2.980	3.715
340.0	266.1	414.0	482.7	413.3	305.7	263.0	249.0	285.5	346.2	443.4	556.8	623.2	632.9	559.3	460.0	374.0	409.4	419.4	199.5	138.8	170.0	309.7	664.5	4007	6866	341.2	17.88	4.062	3.423	2.259	2.038	1.603	1.408	1.225	1.016	1.132	0.901	0.891	0.869	0.808	0.768	0.789	0.782	0.838	1.004	1.346	1.543	1.927	1.789	1.797	1.512	1.520	1.523	1.357	1.400	1.398	1.457	1.441	1.489	1.664	1.940	2.119	2.416	2.484	2.780	2.862	3.150	3.235	3.335	3.343	3.292	3.124	3.099	2.990	2.632	2.627	2.785
345.0	262.7	420.2	485.5	440.9	338.4	290.0	273.3	302.5	350.5	428.6	532.6	605.9	620.3	555.0	469.4	385.4	351.2	433.4	329.4	172.1	142.6	150.9	209.3	1052	4881	5616	281.2	8.627	4.118	2.661	2.229	1.871	1.675	1.330	1.218	1.052	1.031	0.971	0.862	0.817	0.800	0.788	0.830	0.845	1.027	1.318	1.466	1.755	1.942	1.870	1.589	1.763	1.673	1.435	1.522	1.487	1.506	1.596	1.587	1.691	1.842	2.008	2.351	2.580	2.659	2.736	3.158	3.160	3.213	3.159	3.183	3.043	3.109	2.978	2.696	2.629	2.666
350.0	252.9	412.2	492.1	460.7	388.0	332.8	317.3	326.6	371.5	435.4	518.2	586.6	600.0	555.4	487.2	414.5	360.1	359.3	397.3	316.9	192.5	152.4	138.2	299.7	1263	3668	3873	1201	20.54	4.130	2.791	2.135	1.907	1.276	1.335	1.173	1.030	1.007	0.949	0.787	0.811	0.889	0.879	0.923	1.092	1.272	1.394	1.833	1.968	1.832	1.632	1.821	1.798	1.608	1.602	1.701	1.687	1.722	1.757	1.871	1.920	2.200	2.361	2.542	2.707	2.700	3.058	3.034	3.370	3.262	3.187	3.223	3.138	3.053	2.936	2.783	2.836
355.0	251.1	397.5	479.9	482.7	423.8	380.5	368.5	364.1	400.3	449.4	513.0	571.7	583.5	559.1	508.4	451.3	399.3	366.3	357.8	407.3	328.2	203.5	160.5	161.0	346.0	867.2	1915	5571	1961	26.50	4.462	2.872	2.266	1.741	1.320	1.225	1.057	0.900	0.915	0.912	0.784	0.853	0.827	0.957	1.077	1.232	1.438	1.824	1.879	1.792	1.754	1.886	2.010	1.875	1.854	1.665	1.913	2.055	1.950	1.939	2.138	2.378	2.218	2.494	2.626	2.743	2.907	3.043	3.022	3.143	3.251	3.155	3.297	3.145	3.032	3.053	3.213
360.0	246.9	393.9	487.5	503.3	451.9	420.6	406.1	404.7	432.2	468.4	527.7	571.4	582.9	567.1	524.4	474.8	429.3	396.2	367.1	383.2	420.5	282.4	193.7	155.0	161.5	249.6	490.4	2943	5860	331.3	18.35	3.754	2.660	1.776	1.568	1.280	1.249	1.097	0.969	0.912	0.893	0.834	0.913	1.024	1.123	1.252	1.467	1.831	1.829	1.944	1.744	2.043	2.014	2.136	1.988	1.909	1.971	2.161	2.188	2.259	2.211	2.383	2.311	2.687	2.525	2.735	3.022	3.072	2.970	3.316	3.381	3.303	3.447	3.174	3.385	3.268	3.395
365.0	259.1	390.2	485.6	497.7	483.6	457.6	439.2	443.5	454.0	491.8	547.7	574.8	588.0	564.6	535.8	496.3	456.1	427.8	396.2	377.0	416.3	386.2	243.8	178.4	139.5	128.9	160.1	758.6	3819	5132	284.6	9.649	3.613	2.311	1.789	1.360	1.245	1.088	0.925	0.910	0.896	0.855	1.004	1.008	1.133	1.323	1.284	1.742	1.748	1.890	1.813	2.241	2.143	2.056	2.129	2.130	2.323	2.224	2.319	2.357	2.396	2.515	2.528	2.460	2.626	2.732	2.968	3.024	3.007	3.143	3.415	3.347	3.467	3.377	3.101	3.298	3.423
370.0	254.3	383.4	475.8	525.1	502.9	494.8	482.9	479.7	489.6	525.7	561.3	586.2	590.7	576.4	551.1	516.0	486.1	462.3	437.8	407.6	393.6	412.2	359.1	240.8	169.4	128.6	108.8	219.1	969.9	3080	3434	1165	19.49	3.552	2.228	1.679	1.448	1.268	1.109	1.048	1.001	0.954	1.003	1.045	1.149	1.246	1.349	1.788	1.869	1.855	1.881	2.250	2.316	2.289	2.404	2.231	2.388	2.404	2.449	2.529	2.515	2.591	2.632	2.713	2.820	2.727	2.989	2.990	3.041	3.147	3.310	3.319	3.359	3.521	3.454	3.537	3.656
375.0	255.9	382.7	495.5	542.3	530.4	535.2	520.3	519.8	518.1	552.5	573.4	589.5	596.0	577.5	559.9	531.1	509.6	493.7	470.0	443.5	415.2	389.9	396.4	351.9	220.9	160.9	124.4	120.9	266.6	724.8	1504	4801	1906	25.15	3.716	2.243	1.754	1.454	1.177	1.128	1.053	1.048	0.957	0.932	1.198	1.366	1.410	1.774	1.900	1.898	1.900	2.308	2.427	2.489	2.513	2.404	2.564	2.595	2.474	2.645	2.638	2.759	2.750	2.876	2.954	2.904	2.887	3.004	2.971	3.322	3.473	3.228	3.233	3.413	3.334	3.585	3.570
380.0	263.3	378.8	501.0	550.2	556.7	547.9	549.5	545.2	534.3	567.5	588.9	597.4	594.6	578.4	565.1	538.1	520.0	506.1	488.0	463.2	434.2	400.7	377.3	392.9	293.5	192.5	146.1	117.5	125.7	206.8	380.9	2270	4941	1384	17.72	3.217	2.186	1.623	1.288	1.117	1.022	1.065	1.011	0.956	1.174	1.270	1.451	1.774	1.856	1.840	1.933	2.229	2.545	2.466	2.535	2.525	2.749	2.436	2.562	2.712	2.767	2.702	2.965	2.912	3.110	2.786	3.133	2.889	3.245	3.228	3.514	3.480	3.357	3.355	3.461	3.820	3.747
385.0	256.5	383.4	505.8	550.0	583.1	569.0	559.3	555.3	553.2	572.8	591.0	603.8	594.7	579.3	561.8	539.5	525.0	514.3	495.9	476.7	448.7	416.0	376.9	375.0	358.9	239.3	170.7	133.6	110.0	104.2	126.5	574.3	2813	4372	254.0	10.72	2.753	1.897	1.627	1.349	1.115	1.172	1.041	1.074	1.293	1.339	1.469	1.761	1.879	1.749	1.932	2.352	2.606	2.335	2.514	2.597	2.991	2.692	2.716	2.756	2.767	2.934	2.860	2.851	2.875	2.965	3.020	2.920	3.184	3.263	3.326	3.287	3.435	3.538	3.412	3.968	3.978
390.0	262.8	386.8	515.2	566.8	586.7	590.3	577.0	571.5	567.2	581.6	594.2	599.8	593.8	581.0	559.8	534.6	527.9	517.1	502.9	483.2	461.6	430.6	393.0	362.2	353.1	315.6	226.9	166.4	132.3	104.3	86.46	168.8	696.6	2215	3263	1057	17.46	3.172	2.070	1.579	1.261	1.197	1.065	1.183	1.153	1.419	1.485	1.748	1.881	1.847	2.003	2.311	2.593	2.538	2.726	2.714	2.878	2.822	2.714	2.773	2.916	2.894	2.863	3.024	2.995	2.857	2.934	2.918	3.087	3.190	3.334	3.323	3.473	3.400	3.430	3.616	3.827
395.0	258.8	396.8	505.8	561.8	598.8	605.8	593.5	584.5	585.6	594.5	597.7	592.5	593.6	577.3	554.9	531.7	524.4	514.1	501.0	486.9	469.8	441.9	408.2	375.6	340.2	325.0	303.1	217.6	163.0	128.0	99.28	95.42	193.5	519.8	1119	3352	1674	24.15	3.131	1.935	1.614	1.248	1.261	1.233	1.260	1.514	1.498	1.862	1.990	1.972	2.123	2.297	2.731	2.491	2.608	2.569	2.895	2.858	2.858	2.806	2.883	2.970	2.934	2.992	2.950	2.599	2.806	2.830	2.968	3.194	3.269	3.071	3.549	3.510	3.593	3.670	3.715
400.0	268.8	398.9	499.8	571.5	592.8	620.2	606.7	590.6	589.0	596.5	589.8	590.5	589.7	571.6	551.9	524.2	515.4	506.8	501.3	486.6	467.5	443.5	415.2	385.3	347.4	317.4	320.6	273.0	195.0	151.7	116.3	91.24	90.55	147.3	276.4	1394	3725	1270	17.20	2.809	1.806	1.545	1.215	1.204	1.244	1.527	1.502	1.888	1.967	2.067	2.063	2.309	2.712	2.470	2.687	2.768	2.744	2.898	2.870	3.056	3.090	2.992	3.029	2.905	2.935	2.861	2.771	3.007	2.908	3.102	3.273	3.209	3.134	3.204	3.370	3.499	3.578
405.0	267.4	407.2	493.5	581.5	593.5	612.7	612.5	600.7	596.9	592.5	593.1	591.1	577.7	561.2	537.9	517.7	507.6	495.5	491.7	480.9	464.7	440.8	418.4	390.3	356.4	317.3	304.0	307.9	237.4	174.2	134.3	101.1	77.85	71.47	89.06	343.7	1841	3385	232.3	11.04	2.452	1.768	1.444	1.229	1.322	1.476	1.503	1.745	1.998	2.002	1.926	2.220	2.607	2.512	2.789	2.833	2.830	2.805	2.879	2.874	2.996	2.938	3.024	2.811	2.957	2.891	2.813	2.861	3.006	3.127	3.172	3.405	3.187	3.179	3.358	3.458	3.556
410.0	267.1	392.6	487.5	556.8	590.8	601.7	613.8	600.2	591.7	589.7	590.4	579.2	561.0	551.0	528.2	501.8	489.9	482.4	473.6	461.2	449.3	434.3	415.3	390.8	361.8	331.7	302.2	294.3	280.3	217.8	157.8	119.3	88.86	66.36	55.49	101.2	446.8	1524	2368	982.9	17.05	2.786	1.830	1.497	1.502	1.541	1.642	1.763	1.941	1.920	1.852	2.328	2.602	2.637	2.684	2.671	2.912	2.776	2.985	2.965	3.083	2.962	2.904	3.007	2.883	2.829	2.760	2.896	2.911	3.150	3.154	3.101	3.086	3.225	3.318	3.491	3.500
415.0	265.5	398.5	492.1	538.7	582.6	593.6	600.7	605.7	594.0	585.2	580.3	565.1	551.6	529.5	509.4	479.6	467.2	460.2	451.9	440.7	434.2	423.4	405.2	383.9	366.7	336.3	305.2	282.9	273.1	263.9	194.4	139.1	103.9	77.36	57.01	54.00	122.2	355.4	741.4	2364	1519	23.97	2.831	2.070	1.677	1.573	1.596	1.756	1.997	1.929	1.990	2.200	2.416	2.545	2.665	2.680	2.849	2.962	2.916	2.871	2.996	2.754	2.918	2.737	2.667	2.694	2.728	2.714	2.782	2.980	2.983	3.095	3.114	3.102	3.184	3.240	3.342
420.0	260.2	390.0	474.8	525.2	568.0	583.0	582.4	599.7	585.9	577.2	572.1	554.2	534.4	514.5	490.0	463.7	449.3	440.7	436.1	423.0	416.9	409.2	396.3	379.7	362.3	333.6	308.6	284.0	265.3	261.7	229.5	157.4	114.0	85.20	63.20	49.09	53.16	97.83	180.9	887.0	2700	1210	17.68	2.581	2.006	1.878	1.742	1.797	1.980	1.801	1.993	2.142	2.389	2.540	2.574	2.540	2.756	2.908	2.849	2.798	2.971	2.960	2.892	2.756	2.655	2.810	2.525	2.967	2.925	2.817	2.929	3.105	3.087	3.017	2.998	3.138	3.242
425.0	256.4	374.9	461.8	525.9	546.2	580.6	577.5	585.7	581.4	568.7	565.3	544.7	523.9	498.2	470.0	446.7	432.4	427.3	417.6	408.7	399.8	396.0	382.8	369.5	352.2	330.2	307.2	286.1	262.8	247.7	241.6	181.8	126.5	93.02	70.89	52.63	43.08	43.42	55.70	214.7	1188	2713	225.3	11.88	2.505	2.010	1.820	1.866	2.114	2.010	1.864	2.257	2.535	2.480	2.666	2.589	2.647	2.877	2.934	2.892	2.737	2.810	2.834	2.942	2.701	2.728	2.600	2.822	2.700	2.598	2.685	2.732	2.871	3.066	2.964	3.201	2.987
430.0	284.6	361.3	449.4	511.7	538.5	559.3	574.7	577.5	579.8	564.4	554.9	530.5	508.9	480.7	452.3	426.3	412.7	405.0	396.3	390.5	381.1	374.6	365.2	356.1	341.2	321.8	302.6	283.2	264.7	241.4	225.6	205.5	155.3	107.4	80.92	62.02	47.85	37.69	32.16	62.48	283.3	1116	1874	922.6	16.38	3.075	2.012	1.918	2.050	1.942	1.864	2.188	2.373	2.521	2.531	2.529	2.737	2.747	2.816	2.892	2.860	2.872	2.927	2.750	2.704	2.668	2.626	2.829	2.628	2.736	2.634	2.739	2.782	2.965	2.831	2.978	3.022
435.0	432.1	351.9	433.1	495.7	521.3	558.0	568.4	572.5	558.0	560.7	546.5	528.8	489.0	461.0	437.0	412.2	390.0	383.7	372.7	365.6	358.5	351.1	348.7	342.9	327.8	314.2	296.8	283.8	263.6	242.2	218.6	195.4	179.3	130.5	92.06	71.49	55.27	42.75	32.29	32.70	77.21	259.4	553.4	1961	1444	23.03	2.815	2.270	2.188	1.933	1.921	2.062	2.422	2.599	2.441	2.491	2.701	2.729	2.564	2.707	2.836	2.864	2.925	2.696	2.722	2.780	2.469	2.610	2.657	2.617	2.565	2.800	2.824	2.766	2.701	3.057	3.009
440.0	586.5	401.3	416.4	475.9	505.6	538.1	551.0	565.8	555.9	551.7	539.3	520.6	482.1	446.9	423.4	396.1	372.9	366.4	360.0	351.9	343.7	338.7	333.7	330.8	317.9	305.8	289.7	275.9	263.2	242.7	217.4	188.7	173.8	151.6	105.3	78.21	60.77	47.49	35.82	28.96	34.15	70.77	134.6	718.3	2375	1115	15.95	2.883	2.351	2.061	2.016	2.228	2.318	2.543	2.580	2.353	2.722	2.587	2.562	2.688	2.796	2.699	2.738	2.816	2.901	2.651	2.598	2.569	2.583	2.595	2.501	2.633	2.787	2.481	2.494	2.854	2.927
445.0	600.2	590.8	400.1	467.2	496.1	522.1	546.6	554.5	543.6	533.4	530.0	503.1	468.8	439.1	407.8	380.1	360.4	348.8	343.2	334.8	330.1	324.1	320.3	313.1	307.4	294.3	283.1	272.0	256.1	240.3	216.3	184.1	162.8	156.4	121.6	85.68	66.72	51.80	40.78	31.38	27.35	30.22	41.94	172.9	1019	2385	192.3	10.78	2.691	2.159	2.014	2.178	2.371	2.268	2.382	2.394	2.476	2.645	2.654	2.631	2.772	2.689	2.670	2.627	2.550	2.378	2.607	2.614	2.382	2.447	2.612	2.544	2.592	2.552	2.510	2.562	2.657
450.0	369.1	936.4	568.3	440.4	466.0	497.6	519.6	527.5	532.4	514.8	507.2	477.9	448.3	412.9	383.3	356.2	337.9	326.3	320.3	310.2	304.8	299.5	295.8	293.5	286.0	275.9	267.8	258.3	247.3	233.2	211.8	182.1	157.4	141.4	130.2	102.7	74.20	56.84	45.52	36.04	28.61	24.76	23.05	49.35	241.8	965.9	1613	788.0	13.77	2.778	2.116	2.211	2.240	2.283	2.389	2.391	2.311	2.579	2.475	2.615	2.657	2.664	2.605	2.488	2.528	2.408	2.559	2.536	2.395	2.376	2.537	2.522	2.393	2.450	2.441	2.508	2.579
455.0	238.3	821.4	1162	443.3	431.1	468.6	489.3	500.3	504.1	492.0	475.4	455.2	417.1	386.6	355.2	332.1	308.4	300.2	292.8	283.2	275.2	272.4	270.4	267.3	260.6	255.4	247.6	238.4	233.1	220.9	202.1	177.1	153.3	133.3	119.3	112.9	86.96	63.26	50.05	39.77	32.31	26.44	21.21	23.98	63.68	223.3	479.0	1537	1085	16.55	2.518	2.376	2.329	2.145	2.172	2.215	2.238	2.427	2.428	2.507	2.635	2.425	2.387	2.366	2.441	2.347	2.267	2.357	2.213	2.235	2.313	2.340	2.377	2.281	2.213	2.309	2.348
460.0	182.7	501.0	1525	605.5	413.3	434.6	465.1	470.5	471.4	467.2	462.2	434.3	399.1	363.6	335.1	310.8	289.8	278.9	272.3	263.7	256.4	254.2	250.7	246.5	245.5	237.5	230.7	224.9	219.7	208.0	193.3	171.9	150.0	129.4	111.1	106.9	96.55	69.80	52.28	42.56	34.52	27.77	23.01	19.63	25.58	58.34	114.9	566.4	1734	709.4	11.28	2.722	2.344	2.116	2.078	2.096	2.285	2.332	2.378	2.398	2.487	2.437	2.278	2.500	2.306	2.254	2.135	2.146	2.081	2.351	2.286	2.322	2.205	1.922	2.224	2.153	2.018
465.0	168.3	296.5	1385	1103	403.7	414.3	432.3	448.3	445.5	447.9	432.1	413.5	377.6	348.0	316.3	292.4	272.6	261.1	255.6	243.0	238.6	234.1	234.5	227.9	228.1	221.5	215.5	212.5	206.7	198.3	185.3	166.2	146.7	124.8	107.7	96.24	96.15	77.44	56.23	44.50	37.19	30.06	24.28	19.30	17.68	22.31	33.59	135.6	784.9	1596	149.0	7.333	2.461	2.356	2.214	2.142	2.235	2.275	2.177	2.404	2.434	2.518	2.306	2.329	2.324	2.214	2.126	2.161	2.147	2.071	2.234	2.099	2.094	2.078	1.971	2.089	1.989
470.0	169.8	239.3	714.2	1623	686.6	384.9	398.1	412.5	415.5	415.0	401.9	379.5	346.1	319.0	288.7	267.2	246.4	237.4	229.1	218.8	213.4	209.2	209.6	207.0	205.3	200.1	196.1	193.8	189.3	183.3	172.0	154.6	137.2	118.4	103.1	89.74	84.32	79.54	63.70	46.77	38.36	31.54	26.18	21.63	17.97	15.70	15.91	37.23	187.0	696.9	1001	575.5	12.21	2.638	2.163	2.113	2.191	2.328	2.122	2.073	2.209	2.410	2.227	2.066	2.090	1.938	1.980	1.911	2.015	2.005	2.042	1.966	1.910	1.987	1.903	2.061	1.897
475.0	160.2	225.9	359.6	1205	1495	394.9	363.8	374.5	377.0	376.9	369.8	346.7	317.4	290.3	261.3	240.0	225.2	211.5	203.8	195.0	191.1	187.2	186.2	183.9	183.6	179.2	175.3	174.8	171.8	167.0	155.5	143.4	127.0	110.6	97.93	84.22	75.47	69.99	67.78	53.00	38.65	31.96	27.60	23.00	18.95	15.61	12.87	15.88	47.84	160.3	313.9	1053	698.4	15.93	2.605	2.220	2.258	2.136	2.160	1.887	2.035	2.124	2.183	1.927	1.878	2.029	1.790	1.955	1.785	1.683	1.865	1.804	1.835	1.748	1.736	1.795	1.730
480.0	157.3	219.3	269.2	638.0	1869	615.9	333.0	356.6	354.6	355.8	352.7	327.0	301.1	270.4	245.4	224.5	204.2	198.1	188.7	179.9	178.5	172.9	170.6	168.7	167.3	164.1	163.3	162.0	159.2	155.7	146.0	135.3	121.1	105.8	93.76	83.14	71.81	64.75	63.36	57.22	42.23	34.17	28.39	23.76	19.69	16.77	12.95	11.96	17.39	40.70	75.12	406.8	1243	185.7	10.18	2.356	2.154	2.059	1.846	2.004	2.056	1.906	1.923	1.749	1.834	2.064	1.862	1.771	1.715	1.758	1.716	1.753	1.633	1.698	1.572	1.675	1.798
485.0	149.6	218.5	238.9	367.3	1569	1184	329.0	334.4	340.1	333.0	332.0	311.1	286.2	257.3	232.6	210.0	195.5	187.4	176.8	169.7	163.1	160.8	159.0	157.5	157.0	152.8	151.2	149.3	149.2	146.6	138.7	126.8	114.5	101.8	90.18	79.77	70.94	61.99	57.10	57.56	46.57	35.23	29.13	24.51	20.57	16.95	13.88	11.14	10.89	14.81	21.61	98.16	634.6	1161	155.9	4.507	2.334	1.978	1.925	1.820	1.901	1.833	1.730	1.781	1.660	1.948	1.684	1.839	1.578	1.666	1.679	1.588	1.436	1.656	1.780	1.574	1.472
490.0	124.9	210.8	226.2	265.0	757.3	1782	581.8	303.7	312.1	307.0	307.5	287.5	265.3	235.2	215.1	195.2	180.4	170.3	161.6	153.9	146.6	146.1	144.8	143.5	142.3	139.0	137.9	137.4	136.3	135.2	128.1	119.6	107.0	95.84	86.11	75.61	67.49	59.35	52.63	51.15	48.97	39.66	29.94	25.23	21.39	18.00	14.72	12.42	10.43	9.711	9.991	26.29	152.7	559.6	963.2	437.6	11.72	2.254	2.007	1.854	1.852	1.830	1.822	1.723	1.607	1.678	1.729	1.532	1.496	1.558	1.703	1.461	1.420	1.545	1.556	1.444	1.561
495.0	122.9	174.8	235.4	229.2	346.4	1317	1381	312.0	285.1	282.3	281.9	266.4	244.0	216.0	194.0	175.5	162.3	151.2	144.5	139.8	133.0	129.5	129.0	127.3	126.6	125.2	121.7	122.1	122.5	121.1	116.3	107.4	98.50	88.75	78.71	71.42	62.71	55.84	49.34	44.75	43.17	42.51	33.81	25.98	21.97	18.60	15.69	13.11	10.77	9.198	8.004	10.71	38.25	128.5	351.2	1064	588.3	14.24	2.232	2.027	1.850	1.638	1.667	1.669	1.521	1.761	1.556	1.415	1.356	1.432	1.560	1.435	1.422	1.312	1.322	1.475	1.454
500.0	107.1	153.9	233.5	215.6	246.0	676.7	1867	489.7	262.8	259.2	261.3	248.5	224.8	201.5	181.3	162.8	151.8	140.9	132.3	126.4	122.2	118.5	117.8	116.5	114.9	112.4	110.6	111.9	111.2	110.1	107.9	99.49	91.21	81.36	74.11	65.79	59.14	52.74	46.74	42.91	38.24	39.25	36.00	27.33	21.77	18.96	16.06	13.37	11.32	9.094	7.598	7.138	12.84	32.41	83.33	467.5	1146	185.6	7.001	2.109	1.845	1.617	1.595	1.516	1.550	1.457	1.485	1.448	1.345	1.467	1.371	1.440	1.372	1.326	1.236	1.266	1.387
505.0	94.15	140.9	212.0	218.4	209.7	336.1	1678	986.5	249.3	247.1	237.2	226.2	204.0	188.0	167.9	150.6	139.8	130.1	122.8	117.5	111.1	107.9	107.5	106.4	104.1	102.4	103.1	101.9	103.1	102.2	97.41	91.67	83.50	75.69	68.28	62.23	55.70	50.27	44.55	39.76	35.85	34.44	35.65	28.78	22.15	18.94	16.17	13.48	11.28	9.618	7.780	6.537	7.138	10.99	22.09	113.9	644.7	955.2	133.4	2.863	1.805	1.721	1.617	1.437	1.471	1.413	1.370	1.362	1.255	1.394	1.214	1.269	1.279	1.300	1.144	1.301	1.158
510.0	87.47	118.9	169.4	218.9	184.0	224.1	822.6	1709	444.6	217.8	212.9	204.4	183.9	165.1	149.0	132.5	122.5	113.9	107.2	102.6	97.50	95.40	94.08	93.59	91.26	89.68	90.29	89.70	89.64	88.70	86.30	81.79	73.82	67.11	61.29	55.04	50.16	45.63	40.24	36.60	32.97	30.63	30.61	29.95	23.81	18.77	15.30	12.96	10.95	9.271	7.938	6.653	6.081	6.308	8.421	28.48	157.7	520.7	731.8	262.0	9.086	1.755	1.609	1.400	1.323	1.236	1.235	1.298	1.262	1.266	1.197	1.189	1.106	1.169	1.114	1.198	1.084
515.0	76.84	104.2	138.3	190.9	178.8	172.5	324.3	1397	1238	214.2	190.9	181.0	163.3	143.5	128.5	115.2	105.1	98.61	92.98	88.64	84.94	81.06	80.62	80.44	78.71	78.51	78.42	75.87	77.58	77.23	74.74	71.12	64.64	59.22	54.12	48.68	43.97	39.99	36.72	32.67	29.45	26.69	25.02	26.16	25.41	19.79	14.81	12.50	11.01	9.020	7.678	7.082	5.993	5.353	5.230	9.517	38.09	119.1	293.5	758.4	189.5	9.095	1.600	1.385	1.273	1.163	1.146	1.220	1.198	1.074	0.963	1.091	1.018	1.049	0.983	1.135	1.040
520.0	76.08	96.79	116.7	162.0	184.2	153.0	196.5	733.1	1849	358.1	170.2	162.1	144.4	128.4	117.0	103.1	94.59	87.79	84.30	78.99	76.03	73.17	71.13	71.94	70.79	69.78	68.30	67.86	67.46	67.67	67.38	62.62	58.50	53.00	49.00	44.11	40.74	36.63	33.27	30.46	27.31	24.67	22.98	22.74	24.25	21.22	14.71	12.43	10.69	8.965	7.718	7.004	6.322	5.017	4.714	5.327	11.31	29.03	70.22	379.8	716.0	145.1	3.431	1.392	1.217	1.115	1.049	1.037	1.127	1.078	1.030	1.013	1.013	1.021	0.995	1.077	0.987
525.0	68.89	92.83	106.1	130.1	186.3	149.8	153.4	316.1	1776	845.4	154.8	147.8	135.4	118.8	106.8	93.54	85.69	78.97	75.60	70.85	69.16	66.12	64.10	64.06	63.79	61.90	60.28	60.55	61.01	61.28	60.57	56.17	52.69	48.20	44.17	39.94	36.85	34.32	30.89	28.18	25.50	22.74	21.12	19.88	20.34	21.07	16.00	12.17	9.995	8.375	7.614	6.932	5.934	5.321	4.449	4.394	5.127	8.924	18.08	94.59	468.9	603.4	25.01	1.721	1.342	1.162	1.054	0.993	1.050	1.018	0.993	1.038	1.000	0.968	1.010	1.098	0.897
530.0	58.07	81.40	93.26	106.9	150.2	152.5	130.6	171.9	869.7	1706	327.6	128.9	117.9	104.7	93.40	82.53	75.38	69.71	65.09	61.56	59.28	57.50	55.16	54.89	53.99	53.36	52.83	52.61	53.33	52.30	52.18	48.80	46.32	41.15	38.13	35.14	32.56	30.22	27.34	25.02	22.92	20.90	18.64	17.36	16.52	17.77	16.68	12.73	9.426	8.069	7.066	6.547	5.716	5.268	4.581	4.090	3.817	4.484	6.171	23.03	117.4	364.2	459.7	107.7	6.644	1.206	1.024	1.074	0.899	0.963	0.947	0.890	0.834	0.814	0.883	0.945	0.812
535.0	56.92	67.33	79.57	90.70	111.2	155.2	120.1	125.3	292.3	1521	1116	126.8	101.9	90.43	81.15	72.00	66.07	60.23	55.69	53.16	51.28	48.09	48.53	46.77	45.91	45.80	45.93	44.68	46.10	45.07	44.49	42.01	39.70	36.23	32.66	29.90	28.34	26.51	23.62	22.16	20.02	18.84	16.82	15.30	14.14	14.05	14.51	13.41	9.986	7.721	6.671	6.002	5.380	5.082	4.740	4.032	3.499	3.396	3.364	6.797	27.82	83.23	205.5	504.8	158.2	5.077	1.035	1.032	0.854	0.933	0.791	0.711	0.808	0.852	0.798	0.841	0.798
540.0	55.48	57.64	70.29	77.10	90.53	134.5	122.9	105.2	145.9	789.7	1858	178.3	93.80	82.15	72.22	63.79	59.92	53.96	50.78	48.24	45.34	42.96	42.82	42.10	41.43	40.66	39.61	39.72	40.77	40.99	39.85	37.15	34.98	32.24	30.08	27.51	25.18	23.13	21.46	19.85	18.01	16.84	15.58	14.27	13.29	12.12	12.33	12.86	10.51	7.461	6.281	5.797	5.132	4.698	4.570	4.334	3.388	3.034	2.702	3.203	7.833	20.04	49.48	274.9	480.4	27.67	1.854	1.034	0.841	0.845	0.748	0.691	0.748	0.743	0.794	0.816	0.706
545.0	48.87	54.23	66.58	68.25	77.16	109.0	131.7	96.86	103.1	301.1	1909	656.7	87.99	74.17	65.14	58.95	53.93	48.76	45.20	43.26	41.89	38.88	38.72	37.65	36.78	36.51	35.54	35.96	36.26	36.33	35.27	33.05	31.41	29.08	26.66	24.62	23.08	21.40	19.71	18.32	16.32	15.66	14.29	13.49	12.12	11.13	10.85	11.29	10.85	7.880	5.829	5.559	4.915	4.501	4.237	4.143	3.692	3.107	2.478	2.511	3.298	5.805	12.30	69.90	331.9	381.8	22.55	1.240	0.970	0.798	0.846	0.680	0.714	0.779	0.642	0.637	0.733
550.0	44.03	53.80	58.39	61.19	65.56	82.12	121.8	98.99	86.19	134.5	932.9	1558	215.2	65.93	56.56	51.47	46.36	42.78	39.52	37.44	35.56	34.48	33.36	32.27	31.66	30.92	31.16	30.72	31.60	31.28	30.34	28.69	27.35	24.55	23.24	21.48	20.17	18.78	17.38	16.07	14.52	13.83	12.89	11.69	10.97	10.03	9.065	9.003	9.429	8.481	6.198	5.056	4.474	4.179	3.865	3.675	3.460	3.024	2.477	2.344	2.176	2.741	3.977	16.74	84.30	252.2	274.4	94.58	5.134	0.906	0.777	0.665	0.668	0.702	0.637	0.660	0.655
555.0	41.87	53.59	48.60	54.73	56.57	64.77	94.78	110.5	75.91	85.62	281.9	1552	888.4	63.33	50.87	44.69	40.12	36.78	33.67	31.69	29.71	28.68	28.54	27.15	27.12	26.17	26.27	25.98	26.09	26.18	25.82	24.68	23.15	21.35	20.17	18.89	17.33	16.18	14.94	14.19	12.74	11.87	11.29	10.59	9.568	8.875	7.789	7.793	7.297	7.936	6.876	5.141	4.315	3.873	3.443	3.298	3.063	2.864	2.431	2.111	1.871	1.914	2.166	4.799	19.89	57.70	138.9	350.9	126.8	3.162	0.794	0.649	0.632	0.595	0.622	0.609	0.729
560.0	41.19	45.80	47.81	49.65	52.32	59.80	72.16	115.1	73.11	71.14	116.8	818.4	1650	112.0	44.29	39.18	36.88	32.30	30.05	27.99	26.87	25.10	25.01	23.75	23.18	22.92	22.40	23.05	23.08	23.29	22.67	22.05	19.56	18.64	17.05	16.17	15.20	14.51	13.04	12.15	11.43	11.03	9.751	9.505	8.824	8.110	7.250	6.757	6.037	6.698	6.868	5.336	4.016	3.561	3.398	3.035	2.789	2.514	2.523	1.997	1.875	1.838	1.707	2.195	5.397	13.86	34.14	194.7	337.0	25.99	1.357	0.685	0.826	0.580	0.649	0.517	0.629
565.0	39.00	42.54	47.24	46.11	48.18	52.95	56.38	103.8	83.15	64.27	76.83	288.8	1808	450.6	40.66	34.89	32.10	28.68	26.41	24.45	23.30	21.66	22.45	20.98	20.62	20.36	19.81	19.48	20.43	20.38	20.31	18.88	17.78	16.11	14.96	14.27	13.47	12.65	12.09	10.83	10.44	9.568	9.032	8.111	7.954	7.395	6.696	5.893	5.232	5.248	5.923	5.418	3.931	3.282	3.217	2.796	2.591	2.272	2.421	2.206	1.810	1.697	1.647	1.512	2.143	4.046	8.493	49.69	234.9	219.8	19.45	1.028	0.666	0.556	0.736	0.577	0.535
570.0	38.48	42.12	40.27	40.97	43.30	43.98	47.58	71.82	95.75	61.81	63.73	109.8	873.1	1259	79.15	29.55	27.02	23.53	22.20	20.42	19.52	18.84	18.25	17.43	17.66	16.62	16.50	16.59	17.05	17.07	16.37	15.57	15.13	13.78	12.79	11.92	11.31	10.55	9.727	8.934	8.849	7.949	7.433	7.094	6.535	6.175	5.526	5.000	4.491	4.362	4.326	4.863	4.038	3.118	2.682	2.477	2.287	2.088	2.079	1.847	1.927	1.566	1.432	1.278	1.411	1.743	2.702	11.90	59.82	161.4	200.4	69.35	2.993	0.600	0.689	0.557	0.524
575.0	37.97	39.41	40.44	34.79	35.22	36.74	39.90	48.46	87.32	70.35	57.42	66.09	244.6	1355	600.9	27.65	21.71	19.22	17.87	16.25	15.49	14.82	14.56	13.71	13.68	13.08	13.15	13.12	13.20	13.43	13.05	12.62	11.51	10.82	10.40	9.585	8.747	8.369	7.558	7.352	6.857	6.418	5.708	5.722	5.244	5.040	4.575	4.206	3.616	3.453	3.210	3.434	3.933	3.399	2.484	2.100	1.891	1.823	1.649	1.617	1.680	1.806	1.202	1.210	1.123	1.116	1.397	3.447	14.15	37.17	92.45	223.4	28.11	1.899	0.631	0.594	0.471
580.0	38.77	41.09	41.68	34.93	31.06	33.68	35.09	39.54	70.02	84.10	54.90	58.34	94.43	689.9	1263	61.62	19.05	16.43	15.22	13.63	13.00	12.31	11.65	11.16	11.13	10.92	10.78	10.59	10.65	10.81	10.70	9.841	9.488	8.597	8.181	7.885	7.213	6.793	6.367	5.996	5.655	5.250	5.046	4.656	4.409	4.341	3.672	3.726	3.025	2.996	2.528	2.562	3.268	3.113	2.405	1.795	1.760	1.629	1.475	1.335	1.434	1.590	1.329	1.186	1.089	0.950	1.039	1.489	3.859	8.981	22.58	120.1	179.4	23.03	0.948	0.680	0.497
585.0	35.89	34.21	40.77	31.46	29.06	29.11	28.43	34.81	51.13	90.65	60.31	56.91	60.13	231.5	1453	283.7	15.85	13.53	12.39	11.11	11.22	10.47	9.918	9.879	9.477	9.102	9.033	8.442	8.586	8.795	8.647	8.319	7.851	7.262	6.951	6.715	6.384	5.768	5.153	5.137	4.550	4.377	4.196	3.953	3.619	3.555	3.337	2.896	2.733	2.522	2.213	2.077	2.562	2.679	2.482	1.806	1.557	1.367	1.339	1.113	1.313	1.324	1.373	1.270	1.048	0.964	0.881	0.979	1.521	2.661	5.709	30.75	126.6	140.6	15.36	0.643	0.495
590.0	36.11	37.01	38.62	27.47	26.91	24.88	25.20	29.49	39.27	80.95	76.18	56.89	52.85	79.14	700.5	891.9	46.72	11.11	9.717	9.255	8.640	7.967	8.104	8.073	6.992	7.019	6.976	6.798	6.985	6.718	6.925	6.567	6.124	5.710	5.206	4.991	4.696	4.450	4.144	3.937	3.672	3.478	3.306	3.202	2.961	2.737	2.568	2.414	2.196	2.005	1.775	1.755	1.709	1.938	2.251	1.819	1.388	1.250	1.119	1.075	1.038	1.035	1.109	1.182	1.022	0.911	0.901	0.958	0.956	1.252	1.890	7.441	32.11	88.24	101.8	18.16	1.683
595.0	35.62	40.80	37.50	27.05	22.43	22.98	22.23	24.62	32.84	56.18	89.96	61.48	51.01	44.24	181.7	957.3	416.0	11.16	8.330	7.067	6.655	6.252	6.241	6.136	5.493	5.754	5.698	5.665	5.580	5.267	5.396	5.382	4.679	4.508	3.882	3.933	3.694	3.532	3.331	3.330	2.897	2.755	2.594	2.461	2.330	2.239	2.066	1.992	1.803	1.537	1.455	1.416	1.378	1.398	1.791	1.816	1.436	1.108	0.963	0.923	0.833	0.893	0.933	0.979	1.107	1.008	0.791	0.813	0.812	0.872	0.914	2.174	7.625	20.37	43.91	100.1	25.76
600.0	35.97	40.19	37.21	26.99	22.42	19.84	21.25	23.29	31.18	42.90	90.04	67.97	49.54	36.05	56.17	478.0	889.7	31.67	7.221	6.086	5.743	5.549	5.007	5.081	4.676	4.728	4.517	4.489	4.574	4.267	4.326	4.243	4.000	3.676	3.681	3.318	3.136	2.699	2.659	2.727	2.352	2.257	2.165	2.291	2.132	1.783	1.868	1.721	1.639	1.302	1.220	1.176	1.189	1.217	1.365	1.472	1.368	1.079	0.893	0.889	0.845	0.890	0.922	0.761	1.107	1.075	0.881	0.910	0.780	0.754	0.644	0.932	2.101	5.025	10.75	53.18	90.32
605.0	41.60	34.56	37.78	25.88	19.95	18.25	20.38	23.12	28.21	39.13	75.13	79.92	49.22	33.34	27.35	146.8	988.7	174.9	6.630	5.524	4.815	4.690	4.353	4.296	4.250	3.736	3.895	3.841	4.161	3.686	3.693	3.670	3.328	3.036	3.025	2.735	2.716	2.465	2.186	2.323	2.130	1.933	1.856	1.924	1.889	1.682	1.560	1.470	1.373	1.261	1.039	1.102	1.023	1.073	1.077	1.299	1.282	1.123	0.816	0.815	0.766	0.776	0.768	0.747	0.843	1.117	0.966	0.782	0.710	0.678	0.686	0.744	1.022	1.578	2.862	13.55	59.62
610.0	36.99	34.24	35.47	25.85	18.63	16.85	19.15	22.31	26.89	38.12	58.01	86.42	56.37	32.72	20.09	42.63	470.2	634.8	29.02	4.722	4.513	4.146	3.894	3.518	3.570	3.320	3.156	3.117	3.246	2.919	3.161	3.054	2.724	2.485	2.492	2.355	2.218	2.025	2.026	1.892	1.689	1.569	1.506	1.591	1.548	1.330	1.334	1.225	1.176	1.010	0.915	0.874	0.884	0.895	0.839	0.921	1.140	1.077	0.961	0.762	0.682	0.664	0.796	0.699	0.797	0.858	0.929	0.876	0.768	0.723	0.691	0.688	0.709	0.767	1.050	3.449	15.23
615.0	32.77	33.67	31.93	25.35	18.36	16.07	18.43	19.60	26.34	36.08	49.15	74.75	66.66	32.49	18.57	18.49	116.2	671.3	268.2	5.420	3.478	3.673	3.233	3.095	2.805	2.779	2.628	2.706	2.595	2.747	2.518	2.471	2.295	1.874	1.908	1.906	1.716	1.779	1.616	1.537	1.435	1.470	1.342	1.219	1.270	1.160	1.129	1.029	1.008	0.846	0.780	0.740	0.689	0.735	0.689	0.715	0.872	1.015	0.917	0.805	0.646	0.685	0.770	0.702	0.744	0.766	0.818	0.939	0.876	0.751	0.670	0.546	0.671	0.577	0.633	1.162	3.727
620.0	28.88	33.75	28.49	25.76	19.01	15.44	16.63	18.26	24.73	32.88	44.44	59.35	71.22	33.14	16.88	12.36	32.25	334.0	540.1	18.36	3.454	2.850	2.694	2.724	2.427	2.315	2.246	2.257	2.158	2.287	2.430	2.165	1.844	1.745	1.760	1.510	1.499	1.527	1.406	1.413	1.292	1.330	1.097	1.073	1.071	0.914	0.938	0.874	0.812	0.843	0.765	0.719	0.648	0.662	0.641	0.637	0.692	0.786	0.827	0.763	0.551	0.604	0.650	0.713	0.643	0.667	0.765	0.737	0.889	0.756	0.672	0.630	0.650	0.589	0.550	0.685	1.204
625.0	27.90	33.57	27.36	22.23	16.01	16.67	15.90	17.84	24.92	31.09	40.62	49.80	69.07	36.14	16.07	10.58	13.09	102.5	700.3	59.33	3.141	2.697	2.469	2.351	2.319	2.132	2.040	1.999	1.917	2.064	2.078	1.725	1.550	1.655	1.457	1.454	1.422	1.399	1.224	1.381	1.155	1.111	1.117	0.952	0.940	0.954	0.857	0.762	0.713	0.730	0.738	0.580	0.666	0.640	0.635	0.537	0.601	0.693	0.778	0.710	0.640	0.647	0.582	0.642	0.692	0.600	0.693	0.666	0.794	0.737	0.613	0.616	0.533	0.461	0.472	0.488	0.666
630.0	26.19	33.30	27.73	21.42	15.10	15.09	16.08	16.64	22.30	29.43	37.22	43.91	55.24	45.09	17.03	10.40	8.674	28.08	355.0	450.9	20.94	2.513	2.144	2.125	1.960	1.845	1.896	1.672	1.647	1.730	1.557	1.469	1.359	1.392	1.244	1.328	1.161	1.171	1.030	1.038	0.960	0.857	0.955	0.818	0.848	0.857	0.779	0.710	0.702	0.614	0.614	0.568	0.613	0.579	0.553	0.540	0.515	0.553	0.663	0.673	0.603	0.690	0.583	0.557	0.657	0.574	0.624	0.643	0.692	0.767	0.639	0.625	0.466	0.492	0.432	0.457	0.482
635.0	28.49	35.59	27.27	19.50	13.23	12.95	13.33	15.90	20.77	27.17	35.64	40.71	42.18	49.54	21.48	10.19	7.640	10.66	87.98	508.5	205.6	3.047	1.801	2.018	1.627	1.513	1.720	1.407	1.422	1.396	1.233	1.294	1.151	1.242	1.208	1.124	0.989	1.094	0.813	0.914	0.856	0.875	0.832	0.693	0.694	0.825	0.649	0.732	0.642	0.510	0.518	0.524	0.546	0.516	0.517	0.511	0.465	0.491	0.563	0.555	0.653	0.595	0.529	0.575	0.587	0.551	0.592	0.527	0.638	0.657	0.673	0.688	0.504	0.491	0.466	0.501	0.431
640.0	34.51	28.64	27.53	18.76	13.39	12.92	13.69	14.55	19.29	25.29	33.90	37.91	35.80	42.72	27.67	10.74	7.339	6.722	22.88	267.3	449.1	10.61	1.897	1.744	1.603	1.423	1.492	1.392	1.260	1.339	1.284	1.216	1.155	1.079	0.939	1.011	0.873	0.895	0.781	0.769	0.767	0.747	0.700	0.642	0.658	0.658	0.579	0.586	0.582	0.465	0.464	0.454	0.466	0.490	0.473	0.433	0.441	0.504	0.429	0.530	0.538	0.563	0.533	0.511	0.585	0.583	0.511	0.572	0.551	0.559	0.644	0.666	0.590	0.439	0.455	0.415	0.447
645.0	31.27	32.67	25.59	19.04	14.34	12.56	13.42	14.24	18.98	22.75	29.04	33.79	35.09	34.64	33.26	11.68	7.217	6.010	8.303	84.13	552.8	47.50	2.277	1.767	1.369	1.515	1.330	1.114	1.053	1.190	1.268	1.048	1.000	0.984	0.819	0.871	0.869	0.857	0.717	0.723	0.610	0.688	0.687	0.696	0.663	0.572	0.545	0.551	0.577	0.482	0.441	0.438	0.439	0.471	0.425	0.520	0.459	0.452	0.389	0.438	0.460	0.506	0.549	0.481	0.561	0.570	0.494	0.517	0.490	0.490	0.569	0.649	0.624	0.480	0.500	0.454	0.434
650.0	30.54	29.83	25.59	18.31	13.71	13.05	12.30	14.34	16.76	22.15	26.82	32.12	31.65	27.84	33.11	14.26	7.727	5.801	5.151	22.45	385.0	252.3	3.498	1.826	1.301	1.310	1.200	1.028	1.091	1.128	1.013	0.911	0.914	0.877	0.905	0.896	0.863	0.751	0.691	0.649	0.669	0.660	0.689	0.619	0.621	0.602	0.582	0.482	0.484	0.431	0.433	0.493	0.396	0.443	0.428	0.484	0.429	0.459	0.365	0.452	0.437	0.487	0.572	0.486	0.495	0.533	0.521	0.537	0.503	0.475	0.551	0.480	0.550	0.537	0.402	0.401	0.496
