Sample:	'1
File name:	g2025090305新民一干北外环 10倍.FD3
Run date:	'13:21:53, 09/03/2025
Operator:	Administrator
Comment:	'

Instrument
Model:	F-2700 FL Spectrophotometer
Serial number:	23B8-004
ROM Version:	4J14000 07

Instrument parameters
Measurement type:	3-D scan
Data mode:	Fluorescence
EX  Start WL:	220.0 nm
EX  End WL:	600.0 nm
EX Sampling interval:	5.0 nm
EM  Start WL:	230.0 nm
EM  End WL:	650.0 nm
EM Sampling interval:	5.0 nm
Scan speed:	12000 nm/min
EX Slit:	5.0 nm
EM Slit:	5.0 nm
PMT Voltage:	700 V
Response:	Auto 
Corrected spectra:	Off
Contour interval:	50.000

Peak integration
Integration method:	Rectangular
Sensitivity:	1
Threshold:	1.000

Peaks
No.	ApexEX/EM(nm)	Height(Data)
1	225.0/490.0	214.8
2	230.0/250.0	286.8
3	230.0/500.0	218.4
4	235.0/255.0	383.0
5	235.0/510.0	189.2
6	240.0/265.0	453.1
7	240.0/525.0	167.4
8	245.0/270.0	445.6
9	245.0/535.0	144.8
10	250.0/275.0	588.6
11	250.0/550.0	128.7
12	255.0/565.0	158.6
13	270.0/300.0	7067
14	270.0/595.0	504.3
15	275.0/305.0	6966
16	305.0/345.0	557.3
17	310.0/350.0	444.9
18	315.0/355.0	398.5
19	320.0/360.0	365.6
20	325.0/370.0	311.8
21	330.0/375.0	290.0
22	335.0/380.0	277.7
23	345.0/395.0	194.1
24	350.0/400.0	198.6
25	355.0/405.0	178.6
26	365.0/420.0	148.6
27	370.0/425.0	132.5
28	380.0/440.0	94.53
29	385.0/445.0	83.51
30	390.0/450.0	66.77
31	395.0/305.0	4.986
32	395.0/455.0	60.57
33	400.0/465.0	57.46
34	405.0/470.0	49.89
35	410.0/475.0	45.31
36	415.0/485.0	42.25
37	420.0/490.0	37.01
38	425.0/495.0	33.55
39	430.0/505.0	29.32
40	435.0/510.0	23.97
41	445.0/300.0	7.545
42	445.0/525.0	16.54
43	455.0/540.0	9.560
44	470.0/560.0	4.635
45	480.0/260.0	1.830
46	485.0/265.0	2.101
47	495.0/270.0	2.115
48	505.0/275.0	3.715
49	540.0/595.0	2.418
50	545.0/300.0	32.08
51	545.0/600.0	2.428
52	555.0/305.0	32.27

Data points
	220.0	225.0	230.0	235.0	240.0	245.0	250.0	255.0	260.0	265.0	270.0	275.0	280.0	285.0	290.0	295.0	300.0	305.0	310.0	315.0	320.0	325.0	330.0	335.0	340.0	345.0	350.0	355.0	360.0	365.0	370.0	375.0	380.0	385.0	390.0	395.0	400.0	405.0	410.0	415.0	420.0	425.0	430.0	435.0	440.0	445.0	450.0	455.0	460.0	465.0	470.0	475.0	480.0	485.0	490.0	495.0	500.0	505.0	510.0	515.0	520.0	525.0	530.0	535.0	540.0	545.0	550.0	555.0	560.0	565.0	570.0	575.0	580.0	585.0	590.0	595.0	600.0
230.0	32.91	506.5	1385	492.2	20.45	2.017	1.422	1.592	1.641	1.889	2.021	2.195	1.427	0.803	0.629	0.450	0.287	0.251	0.309	0.206	0.212	0.160	0.133	0.108	0.130	0.110	0.097	0.084	0.067	0.076	0.055	0.087	0.046	0.054	0.047	0.065	0.061	0.082	0.069	0.051	0.103	0.233	0.280	0.154	0.065	0.064	0.335	2.055	4.187	3.382	1.431	0.257	0.042	0.027	0.014	0.025	0.028	-0.001	0.000	0.018	0.013	0.023	0.009	0.022	0.008	-0.002	0.010	-0.003	-0.003	0.001	0.004	0.010	-0.011	0.017	-0.015	0.002	-0.012
235.0	111.4	154.1	768.1	1429	484.4	33.91	1.692	1.867	1.699	1.648	2.157	1.987	1.549	0.922	0.524	0.512	0.359	0.310	0.291	0.267	0.227	0.178	0.134	0.111	0.147	0.054	0.139	0.071	0.091	0.054	0.051	0.019	0.037	0.080	0.038	0.066	0.077	0.088	0.054	0.044	0.082	0.120	0.237	0.325	0.379	0.192	0.089	0.521	1.437	2.722	4.505	4.892	2.295	0.516	0.037	-0.001	0.013	0.012	0.015	0.009	0.017	0.010	0.006	0.031	0.035	0.038	-0.010	-0.016	-0.001	0.001	-0.011	0.019	-0.002	0.010	0.099	0.007	-0.011
240.0	182.4	156.0	233.7	1075	1604	371.9	16.50	1.560	2.374	2.430	2.633	1.933	1.852	1.310	0.724	0.439	0.360	0.386	0.344	0.303	0.308	0.162	0.152	0.125	0.175	0.077	0.085	0.044	0.050	0.073	0.024	0.041	0.062	0.045	0.047	0.078	0.061	0.108	0.068	0.060	0.074	0.063	0.112	0.206	0.377	0.425	0.426	0.274	0.392	0.750	2.040	5.099	7.404	5.533	1.889	0.307	0.017	0.056	0.021	0.052	0.028	0.028	0.019	0.041	0.019	0.035	-0.016	-0.026	0.001	0.015	-0.012	0.021	-0.013	-0.004	0.057	-0.001	-0.003
245.0	118.0	263.9	136.9	348.1	1486	1646	266.6	7.722	2.979	2.890	2.876	2.350	2.171	1.495	0.714	0.494	0.424	0.403	0.352	0.240	0.293	0.223	0.129	0.137	0.108	0.137	0.165	0.056	0.084	0.077	0.091	0.082	0.038	0.023	0.023	0.035	0.034	0.074	0.062	0.055	0.083	0.040	0.050	0.064	0.216	0.475	0.744	0.678	0.317	0.253	0.507	1.554	4.180	7.828	8.322	5.134	1.420	0.140	-0.002	0.064	0.048	0.028	0.008	0.009	0.006	0.015	0.004	-0.017	0.010	0.040	0.001	0.025	0.042	-0.008	0.004	0.002	0.019
250.0	34.69	166.2	286.8	197.9	460.0	1389	1869	725.1	45.44	3.963	3.674	2.827	2.320	1.293	0.762	0.748	0.479	0.424	0.417	0.285	0.264	0.256	0.206	0.184	0.112	0.140	0.149	0.147	0.112	0.090	0.054	0.089	0.054	0.075	0.050	0.067	0.034	0.042	0.053	0.062	0.062	0.068	0.070	0.051	0.087	0.178	0.334	0.660	0.867	0.882	0.494	0.493	1.041	2.341	4.225	6.825	8.880	8.112	4.904	1.616	0.200	0.033	0.008	0.021	0.018	0.054	0.018	0.024	-0.004	0.033	-0.001	0.012	0.021	-0.004	-0.013	-0.011	0.001
255.0	14.66	46.24	182.6	383.0	226.3	350.7	1231	2734	973.4	43.18	4.807	4.027	2.702	1.443	1.054	0.642	0.448	0.307	0.554	0.362	0.300	0.204	0.257	0.170	0.143	0.109	0.138	0.257	0.104	0.056	0.072	0.141	0.098	0.025	0.049	0.079	0.039	0.072	0.063	0.035	0.040	0.081	0.051	0.062	0.050	0.065	0.104	0.192	0.330	0.816	1.349	1.389	0.701	0.577	1.022	1.697	2.630	6.257	12.96	14.28	7.943	1.776	0.122	0.037	0.032	0.015	0.041	0.014	0.015	0.028	-0.006	0.023	0.005	0.005	-0.005	-0.004	-0.004
260.0	12.07	16.95	63.82	319.0	376.3	146.2	361.6	2001	2457	252.4	20.10	5.315	3.549	1.916	1.469	0.809	0.421	0.541	0.628	0.378	0.240	0.256	0.342	0.267	0.131	0.145	0.169	0.155	0.089	0.156	0.073	0.152	0.154	0.029	0.078	0.080	0.098	0.046	0.061	0.044	0.062	0.124	0.071	0.055	0.063	0.074	0.046	0.086	0.120	0.282	0.762	1.657	1.830	0.929	0.474	0.459	0.628	1.685	4.742	10.46	16.32	14.35	6.416	1.005	0.087	0.035	0.063	0.019	0.024	0.040	0.004	0.022	0.006	0.043	0.002	0.011	0.030
265.0	10.28	12.31	23.14	132.2	453.1	297.5	118.8	636.2	2573	1997	191.5	10.03	4.813	2.585	1.556	1.040	0.616	0.599	0.513	0.331	0.335	0.317	0.312	0.293	0.164	0.137	0.173	0.135	0.203	0.184	0.063	0.077	0.099	0.089	0.104	0.129	0.088	0.059	0.033	0.068	0.059	0.059	0.105	0.046	0.102	0.077	0.054	0.099	0.080	0.123	0.226	0.638	1.618	2.101	1.579	0.585	0.287	0.503	1.183	2.841	7.435	14.26	19.06	13.40	4.005	0.407	0.073	0.035	0.006	0.024	0.043	0.012	0.012	0.022	0.018	0.004	-0.002
270.0	27.29	31.84	21.74	41.58	190.4	445.6	298.6	199.0	796.9	2266	2725	723.9	42.80	4.962	2.407	1.518	1.109	0.940	0.636	0.523	0.513	0.274	0.257	0.281	0.216	0.250	0.193	0.185	0.178	0.146	0.054	0.105	0.103	0.138	0.152	0.097	0.091	0.115	0.080	0.055	0.066	0.102	0.077	0.122	0.085	0.115	0.101	0.101	0.099	0.074	0.096	0.203	0.500	0.972	1.711	2.115	1.982	1.152	0.516	0.793	1.898	3.919	7.738	12.87	16.05	15.90	10.51	3.500	0.371	0.087	0.076	0.032	0.029	0.021	0.038	0.007	0.027
275.0	165.3	159.4	86.79	49.59	71.93	205.7	588.6	354.0	362.5	791.2	2076	4581	971.9	47.37	5.387	2.353	1.406	1.111	0.648	0.625	0.518	0.334	0.368	0.388	0.195	0.222	0.254	0.159	0.220	0.162	0.158	0.118	0.129	0.380	0.292	0.335	0.364	0.287	0.220	0.233	0.232	0.362	0.311	0.296	0.424	0.422	0.375	0.396	0.265	0.167	0.164	0.163	0.222	0.332	0.632	0.991	2.094	3.715	3.195	1.325	1.133	1.675	2.704	4.035	5.470	9.362	19.08	24.44	15.86	3.976	0.541	0.136	0.042	0.008	0.039	0.015	0.123
280.0	558.2	473.2	246.4	120.9	94.67	155.5	498.3	964.7	758.2	976.0	1468	3806	4381	676.0	21.48	3.898	1.852	1.359	1.087	0.945	0.583	0.613	0.394	0.505	0.207	0.291	0.337	0.199	0.273	0.178	0.235	0.207	0.349	0.615	0.848	0.726	0.765	0.765	0.585	0.669	0.579	0.774	0.710	0.981	1.103	1.202	1.013	1.060	0.745	0.503	0.423	0.386	0.390	0.394	0.565	0.759	1.224	2.573	4.755	4.847	3.770	2.885	3.684	4.557	5.265	6.282	9.562	16.55	25.94	23.98	11.39	1.840	0.248	0.116	0.118	0.030	0.074
285.0	1197	973.5	551.4	252.9	172.2	232.3	470.2	1209	1723	1856	2003	2725	4500	3852	110.6	8.756	3.088	2.090	1.320	1.288	0.754	0.803	0.521	0.503	0.439	0.360	0.338	0.367	0.298	0.219	0.237	0.281	0.692	1.098	1.665	1.745	1.565	1.405	1.275	1.223	1.276	1.568	1.889	2.192	2.418	2.520	2.399	2.058	1.512	1.031	0.752	0.683	0.544	0.611	0.729	1.049	1.481	2.223	3.840	6.277	7.945	7.853	7.590	8.526	9.374	10.16	10.42	11.75	14.71	20.95	25.83	20.62	7.412	0.912	0.200	0.168	0.129
290.0	2187	1910	1099	519.1	318.6	390.5	696.6	1398	2676	3781	4069	3849	3000	3584	2951	411.9	24.12	3.194	2.221	1.595	1.240	1.025	0.817	0.642	0.587	0.496	0.471	0.436	0.388	0.359	0.370	0.399	1.037	1.965	2.919	3.084	2.994	2.718	2.353	2.174	2.481	2.882	3.255	3.769	4.365	4.776	4.492	3.866	2.929	2.028	1.426	1.276	1.036	1.117	1.289	1.631	2.342	3.284	4.639	6.482	9.223	12.65	15.46	17.51	18.35	17.78	17.78	17.16	15.81	13.62	13.21	16.40	19.19	18.52	13.38	5.013	0.884
295.0	3122	2778	1640	763.5	438.3	537.3	927.4	1728	3108	5075	6175	5370	3326	1735	1902	3677	559.6	18.31	3.371	2.166	1.786	1.330	0.940	0.791	0.825	0.564	0.535	0.662	0.571	0.536	0.417	0.553	1.290	2.829	4.124	4.109	3.942	3.701	3.178	3.254	3.315	3.872	4.598	5.308	6.063	6.738	5.935	5.488	4.339	2.972	2.070	1.970	1.494	1.409	1.840	2.210	3.093	4.141	5.710	8.302	10.90	14.59	18.27	23.10	27.69	27.57	25.28	24.05	21.07	16.16	10.94	8.226	6.932	8.334	15.97	23.48	17.93
300.0	3369	3200	1896	900.6	537.6	600.6	1012	1879	3316	5257	7067	6361	3773	1490	771.6	2520	3120	82.75	8.705	3.113	1.946	1.574	0.980	1.052	0.943	0.738	0.724	0.596	0.512	0.567	0.425	0.647	1.462	3.110	4.642	4.885	4.490	3.952	3.620	3.607	3.774	4.392	5.192	5.907	7.007	7.545	6.898	6.364	5.181	3.458	2.393	2.121	1.858	1.637	2.268	2.392	3.460	4.485	6.576	8.517	11.69	15.64	19.14	23.70	29.13	32.08	31.54	28.60	23.85	18.13	11.74	7.253	4.703	3.678	5.217	11.02	20.58
305.0	3541	3288	2002	955.9	564.2	624.0	1063	1888	3332	5164	6893	6966	4120	1561	534.5	816.8	2783	2391	65.59	4.568	2.513	1.839	1.355	1.277	0.974	0.869	0.871	0.662	0.667	0.606	0.509	0.632	1.542	2.960	4.582	4.986	4.603	4.176	4.086	3.568	3.522	4.306	5.085	5.887	7.203	7.511	6.909	6.757	5.384	3.874	2.642	2.393	1.910	1.963	2.263	2.622	3.584	4.563	6.800	8.826	11.65	14.86	19.22	23.56	27.48	30.66	32.11	32.27	27.09	19.70	12.72	7.787	4.867	3.007	2.267	3.452	6.904
310.0	3343	3084	1926	955.1	575.6	619.5	998.4	1755	3052	4679	6098	6303	4408	1773	578.7	367.0	864.1	2040	2321	273.9	15.24	2.533	1.726	1.558	0.986	0.900	0.883	0.693	0.700	0.617	0.541	0.619	1.424	2.923	4.432	4.577	4.534	3.969	3.865	3.320	3.472	4.087	4.668	5.682	6.363	7.124	6.635	6.281	5.179	3.587	2.649	2.467	1.935	2.056	2.151	2.638	3.589	4.591	6.240	8.096	10.59	13.82	17.62	21.33	24.81	27.18	28.23	28.52	26.70	21.65	14.83	9.157	5.407	3.340	2.193	2.115	2.784
315.0	2895	2740	1745	904.2	555.0	596.6	912.3	1535	2606	3985	5163	5218	3907	2121	737.5	337.3	340.9	546.4	1452	2489	389.3	10.35	2.052	1.857	1.206	1.014	0.904	0.812	0.699	0.590	0.457	0.626	1.294	2.546	3.841	4.144	3.799	3.714	3.153	2.946	3.168	3.573	3.852	4.629	5.496	6.165	6.008	5.731	4.606	3.356	2.412	2.389	2.113	2.071	2.174	2.544	3.313	4.039	5.289	6.867	9.019	12.25	14.52	18.18	21.25	23.01	24.11	23.95	21.82	17.95	15.15	11.51	7.506	4.235	2.806	2.377	2.060
320.0	2467	2460	1637	875.6	555.0	583.8	828.0	1372	2248	3420	4446	4509	3336	2057	1015	404.3	261.0	225.9	430.3	1789	2159	61.16	5.611	2.175	1.591	1.266	0.887	0.806	0.705	0.686	0.502	0.602	1.103	2.323	3.251	3.553	3.328	3.202	2.666	2.656	2.554	3.059	3.460	4.020	5.003	5.868	5.297	5.194	4.235	3.181	2.284	2.236	1.983	2.014	1.978	2.328	3.052	3.612	4.772	5.962	7.953	10.19	12.56	15.77	17.96	20.07	20.92	19.85	18.68	15.99	13.08	10.61	8.955	6.179	3.849	2.839	2.056
325.0	2266	2258	1586	895.2	545.8	547.2	757.4	1205	1966	2923	3816	3909	2910	1719	1205	579.5	285.2	181.5	172.9	563.9	2044	1694	48.50	3.673	1.569	1.125	1.112	0.828	0.827	0.859	0.552	0.603	0.995	2.075	2.842	3.230	2.928	2.721	2.627	2.306	2.375	2.468	3.064	3.502	4.244	5.208	4.972	4.972	4.509	3.112	2.399	2.262	2.030	2.012	1.906	2.262	2.752	3.335	4.383	5.512	7.016	8.475	10.88	13.28	15.22	17.11	17.60	17.46	16.11	14.08	11.19	8.510	7.371	7.359	5.699	3.976	2.638
330.0	1918	2027	1531	906.2	565.1	536.9	683.1	1030	1612	2372	3077	3197	2447	1454	995.2	814.7	452.8	215.1	145.4	198.0	624.9	1547	1524	227.2	11.18	1.702	1.288	0.846	0.770	0.693	0.668	0.549	0.874	1.649	2.260	2.552	2.458	2.235	2.008	1.913	2.076	2.085	2.571	3.038	3.771	4.329	4.387	4.609	4.179	3.282	2.449	2.357	2.041	1.906	2.014	2.128	2.599	3.014	3.793	4.615	6.028	7.079	8.912	11.15	12.79	13.98	14.63	14.15	13.63	11.93	9.469	7.511	6.049	5.575	5.409	5.439	4.819
335.0	1657	1883	1513	924.9	605.1	532.5	624.4	888.9	1328	1894	2438	2554	2042	1282	840.5	691.6	685.9	350.7	175.8	141.1	205.1	406.8	1046	2290	314.7	8.390	1.829	1.250	0.855	0.762	0.671	0.567	0.723	1.374	1.776	2.226	2.034	2.014	1.642	1.597	1.716	1.973	2.085	2.954	3.089	3.820	4.188	4.515	4.112	3.400	2.654	2.472	2.131	2.022	1.906	2.134	2.514	2.691	3.058	3.989	4.892	5.958	7.190	8.998	9.956	10.86	12.13	11.83	11.19	10.00	8.311	6.843	5.602	4.918	4.475	4.394	4.706
340.0	1478	1769	1489	940.0	629.5	540.5	603.3	792.0	1141	1601	2037	2165	1762	1166	779.0	589.5	620.5	530.7	237.7	148.6	126.5	147.9	314.1	1679	1669	52.26	3.906	1.674	1.121	0.798	0.755	0.609	0.699	1.207	1.451	1.767	1.756	1.714	1.393	1.325	1.423	1.491	1.994	2.422	2.894	3.708	4.045	4.198	4.146	3.161	2.701	2.484	2.232	1.932	1.868	1.989	2.247	2.567	2.846	3.535	4.390	5.329	6.376	7.333	8.196	9.296	9.422	9.767	9.594	8.742	7.351	6.487	5.272	4.522	4.167	3.963	3.881
345.0	1370	1609	1415	943.3	641.3	537.8	564.2	723.1	994.9	1380	1729	1828	1532	1063	729.2	545.1	482.7	557.3	370.2	171.4	123.1	103.9	119.0	519.3	1600	1291	42.63	2.637	1.193	0.929	0.749	0.617	0.727	1.088	1.312	1.494	1.325	1.359	1.290	1.253	1.203	1.360	1.669	2.116	2.434	3.270	3.717	3.937	3.773	3.132	2.872	2.451	2.228	2.088	1.845	1.983	2.275	2.675	2.851	3.198	3.860	4.638	5.306	6.386	7.023	7.746	8.110	8.369	8.029	7.656	6.408	5.555	5.160	4.183	4.061	3.476	3.487
350.0	1185	1456	1297	910.1	637.1	533.6	537.5	644.1	844.5	1129	1393	1477	1272	930.3	670.6	509.8	413.5	405.0	444.9	301.4	151.8	113.5	93.16	160.8	483.9	1148	923.5	192.1	9.855	1.318	0.838	0.691	0.711	0.894	1.185	1.180	1.135	1.090	1.080	0.988	0.999	1.262	1.476	1.805	2.229	2.968	3.337	3.633	3.486	2.948	2.574	2.463	2.233	2.271	1.912	1.870	2.151	2.496	2.630	2.907	3.260	3.901	4.684	5.365	5.516	6.344	6.553	6.722	6.488	6.286	5.593	4.897	4.569	3.733	3.726	3.239	3.116
355.0	1047	1286	1216	865.7	626.3	528.8	517.5	581.8	713.4	916.7	1136	1193	1049	803.1	605.7	478.3	387.7	335.8	333.4	398.5	263.0	137.4	104.5	96.58	146.1	293.0	737.9	1514	282.3	7.655	1.193	0.704	0.759	0.784	0.866	0.942	0.884	1.047	0.921	0.830	0.881	0.988	1.337	1.635	1.926	2.435	2.691	3.210	3.194	2.810	2.228	2.335	2.250	2.102	1.952	1.849	2.145	2.177	2.342	2.516	2.758	3.399	3.895	4.439	4.655	5.087	5.482	5.265	5.107	4.776	4.700	4.163	3.911	3.490	3.150	2.933	3.147
360.0	907.7	1150	1112	834.0	625.3	527.4	506.1	540.2	645.8	805.0	971.3	1022	916.0	723.6	572.0	451.8	375.7	316.7	284.0	334.9	365.6	193.8	118.3	90.86	79.76	95.83	214.3	1116	1348	49.21	3.193	0.997	0.938	0.743	0.744	0.895	0.764	0.866	0.788	0.686	0.808	0.794	1.144	1.506	1.648	2.293	2.444	2.697	2.767	2.559	2.277	2.435	2.240	2.058	1.848	1.919	1.951	2.139	2.432	2.243	2.453	3.073	3.269	3.931	3.929	4.341	4.536	4.639	4.462	4.311	4.101	3.778	3.457	3.259	2.888	2.987	2.884
365.0	808.3	1052	1008	799.6	625.1	524.7	492.7	519.0	598.6	715.2	843.6	906.3	825.0	664.5	528.8	434.1	364.3	309.7	270.3	269.7	351.2	295.1	145.4	99.97	74.71	58.46	74.27	338.5	1260	1103	39.17	1.888	1.161	0.807	0.809	0.858	0.709	0.800	0.690	0.708	0.729	0.789	0.855	1.383	1.608	2.014	2.212	2.442	2.583	2.467	2.115	2.351	2.117	2.038	1.904	1.971	2.119	2.012	2.259	2.185	2.596	2.581	3.106	3.313	3.475	3.816	3.947	3.991	3.997	4.058	3.587	3.484	3.262	2.978	3.009	2.680	2.732
370.0	715.3	910.7	905.3	739.6	604.0	525.6	487.1	491.9	546.2	630.3	727.2	771.7	718.6	596.5	487.6	404.2	348.9	303.2	270.1	247.2	262.6	311.8	248.6	132.1	85.20	61.11	50.43	100.2	373.0	966.0	778.3	169.9	8.510	1.096	1.015	0.818	0.707	0.766	0.667	0.667	0.613	0.760	0.865	1.131	1.436	1.796	1.871	2.207	2.320	2.088	2.032	2.281	2.144	1.980	1.869	1.962	2.043	2.086	1.976	2.076	2.361	2.405	2.743	2.773	3.115	3.231	3.380	3.314	3.444	3.357	3.135	3.160	3.089	2.933	2.630	2.500	2.352
375.0	631.6	807.2	802.8	674.6	586.6	529.1	475.3	473.4	507.1	566.2	630.8	663.8	623.9	534.7	448.4	377.5	332.9	295.7	270.6	244.8	230.2	238.6	290.0	228.1	107.8	73.06	55.98	53.39	104.3	240.7	599.7	1145	240.9	5.641	1.162	0.905	0.739	0.741	0.603	0.630	0.664	0.705	0.805	0.894	1.296	1.704	1.729	2.042	2.040	1.748	1.760	2.087	1.878	1.855	1.840	1.874	1.763	1.812	1.894	1.775	2.062	2.067	2.345	2.556	2.866	3.091	3.012	2.728	3.281	2.790	2.837	2.668	2.684	2.598	2.497	2.536	2.219
380.0	537.9	735.1	743.1	651.8	572.7	507.8	464.3	459.2	465.8	518.5	571.0	604.4	572.2	497.5	417.1	354.4	321.7	287.6	266.7	241.3	223.7	209.9	236.9	277.7	159.8	85.81	62.45	49.96	49.64	72.35	171.4	838.6	1034	40.13	2.484	0.967	0.862	0.811	0.559	0.586	0.590	0.748	0.795	0.850	1.151	1.430	1.562	2.034	1.809	1.708	1.765	1.967	1.902	1.877	1.824	1.780	1.923	1.834	1.773	1.723	2.001	2.047	2.141	2.503	2.521	2.719	2.684	2.483	2.897	2.599	2.596	2.596	2.468	2.427	2.447	2.331	2.065
385.0	516.1	682.6	708.5	608.3	552.5	507.5	465.8	447.7	445.3	483.1	528.5	554.4	524.4	463.7	398.8	342.2	310.7	282.4	260.8	244.6	220.0	204.6	195.8	247.6	230.4	111.6	69.63	54.06	42.78	38.19	54.59	253.7	957.4	750.0	31.41	1.604	1.071	0.967	0.714	0.498	0.644	0.651	0.720	0.732	1.131	1.388	1.436	1.731	1.689	1.704	1.699	1.847	1.829	1.859	1.924	1.863	1.881	1.810	1.955	1.808	1.888	1.952	2.057	2.281	2.290	2.314	2.372	2.554	2.709	2.716	2.309	2.436	2.299	2.248	2.044	2.272	2.032
390.0	469.0	627.4	634.3	589.8	528.6	483.1	442.9	424.7	409.3	437.1	476.7	495.6	472.5	421.3	372.4	321.2	292.3	268.8	251.6	237.1	218.8	202.2	183.9	184.8	216.7	185.7	99.31	62.85	48.51	37.46	33.45	71.88	277.4	648.9	566.0	136.3	8.440	1.338	0.724	0.636	0.631	0.659	0.711	0.839	0.960	1.231	1.364	1.644	1.526	1.503	1.522	1.813	1.634	1.645	1.710	1.662	1.833	1.836	1.829	1.745	1.739	1.800	1.956	2.067	2.091	2.133	2.100	2.332	2.492	2.371	2.089	2.198	2.012	2.018	1.995	1.988	1.854
395.0	426.4	566.6	578.0	555.8	487.6	458.8	424.9	394.2	389.7	399.3	433.8	457.1	433.3	387.5	340.8	304.9	279.1	257.4	242.4	234.0	213.7	198.0	180.2	165.0	161.2	194.1	170.7	86.14	58.30	45.81	35.83	36.02	76.81	161.8	414.3	839.7	208.5	8.263	1.096	0.663	0.610	0.620	0.624	0.823	0.913	1.227	1.271	1.363	1.481	1.411	1.373	1.695	1.652	1.618	1.593	1.513	1.828	1.583	1.755	1.661	1.671	1.637	1.633	1.687	1.825	2.028	1.924	2.047	2.179	2.075	1.972	1.968	1.994	1.941	1.916	1.747	1.809
400.0	407.4	535.5	556.1	523.9	469.4	440.7	410.2	382.6	372.5	382.1	416.0	427.0	410.5	374.6	323.6	289.8	265.2	245.1	232.9	224.8	209.0	199.2	181.3	163.9	147.2	156.8	198.6	130.9	72.05	54.14	42.52	33.42	35.35	50.15	118.4	584.8	766.8	170.6	2.438	0.858	0.822	0.722	0.684	0.748	0.934	1.063	1.162	1.293	1.431	1.319	1.486	1.527	1.706	1.564	1.477	1.640	1.678	1.535	1.597	1.710	1.574	1.546	1.589	1.453	1.949	1.656	1.939	1.899	1.916	1.868	1.881	1.914	1.810	1.706	1.619	1.809	1.746
405.0	395.5	523.3	517.9	482.4	442.0	419.6	400.4	367.1	360.0	366.3	394.2	407.6	390.6	355.7	316.1	280.0	254.4	234.9	224.7	217.2	205.0	195.4	180.6	164.5	145.4	137.1	171.5	178.6	100.8	64.16	50.45	38.54	31.26	27.70	39.74	172.9	653.6	825.4	28.15	1.551	0.878	0.674	0.621	0.703	0.946	0.997	1.267	1.241	1.274	1.253	1.296	1.458	1.579	1.451	1.384	1.528	1.706	1.576	1.434	1.575	1.503	1.502	1.334	1.485	1.736	1.710	1.785	1.712	1.826	1.827	1.855	1.688	1.715	1.771	1.549	1.790	1.583
410.0	372.9	473.9	502.1	451.7	416.8	402.0	379.7	350.5	343.2	348.3	369.8	376.5	368.3	335.0	296.1	261.0	236.5	221.0	213.3	206.7	199.7	191.2	178.1	164.6	147.2	131.9	133.7	161.4	154.1	93.19	60.39	45.52	35.18	28.02	25.08	50.99	186.1	619.6	420.9	122.9	6.453	0.767	0.740	0.759	0.887	1.086	1.171	1.283	1.348	1.196	1.169	1.280	1.489	1.335	1.369	1.408	1.551	1.496	1.479	1.477	1.491	1.432	1.407	1.496	1.580	1.577	1.635	1.654	1.580	1.577	1.751	1.493	1.585	1.562	1.566	1.496	1.585
415.0	343.3	452.1	462.3	418.3	378.8	361.3	360.9	332.1	321.4	328.5	343.1	344.6	335.3	305.9	271.8	239.3	220.8	207.9	199.2	194.8	190.5	182.4	173.2	162.0	144.3	129.1	120.3	119.9	147.8	139.8	77.84	51.14	38.60	30.57	24.04	24.84	51.36	149.1	269.0	582.7	177.2	5.636	0.844	0.794	0.871	1.000	1.002	1.173	1.268	1.067	1.086	1.279	1.358	1.256	1.291	1.312	1.504	1.250	1.347	1.238	1.333	1.441	1.255	1.378	1.337	1.354	1.530	1.539	1.458	1.490	1.421	1.455	1.473	1.450	1.370	1.338	1.429
420.0	326.5	414.1	424.6	396.3	358.1	343.0	339.3	320.5	309.1	307.7	326.1	320.9	313.9	284.4	254.1	227.8	206.6	196.9	189.6	185.2	181.6	175.0	165.4	154.8	141.0	126.7	115.3	107.3	116.2	148.6	108.7	54.62	40.30	31.08	23.22	19.72	21.63	40.42	72.59	373.0	563.7	33.55	2.316	0.891	0.846	0.977	1.066	1.040	1.139	1.153	1.077	1.227	1.141	1.360	1.255	1.246	1.317	1.232	1.244	1.248	1.222	1.386	1.199	1.240	1.187	1.262	1.542	1.431	1.245	1.415	1.295	1.371	1.363	1.360	1.310	1.237	1.340
425.0	312.8	395.8	407.1	369.1	341.5	326.5	320.8	307.7	297.6	296.5	308.2	306.4	293.2	267.7	237.8	212.6	192.6	189.1	179.5	178.4	175.2	168.5	160.9	150.7	138.4	123.5	114.5	103.6	99.87	119.0	132.5	76.29	43.10	32.52	24.54	19.93	15.72	16.79	21.55	104.8	443.9	460.0	26.92	1.404	0.854	0.978	1.093	1.027	1.050	1.009	1.066	1.088	1.176	1.265	1.281	1.185	1.220	1.385	1.311	1.301	1.137	1.308	1.123	1.189	1.240	1.391	1.267	1.346	1.267	1.256	1.178	1.249	1.291	1.290	1.190	1.212	1.271
430.0	337.0	354.0	382.7	344.0	317.9	316.6	303.4	296.9	280.1	280.1	290.2	286.6	274.5	246.1	221.8	199.2	184.3	175.9	172.6	166.8	167.3	161.9	156.0	147.0	134.5	121.6	111.4	103.3	95.80	94.13	109.6	105.4	60.64	36.43	27.37	21.09	16.13	12.87	10.95	27.98	120.8	324.0	353.9	114.1	6.871	1.235	0.971	1.074	1.055	0.990	0.962	1.121	1.136	1.146	1.071	1.122	1.246	1.285	1.272	1.253	1.148	1.238	1.109	1.183	1.182	1.270	1.191	1.131	1.238	1.185	1.219	1.229	1.135	1.186	1.060	1.147	1.122
435.0	509.2	344.8	357.2	328.6	299.0	302.5	295.6	281.5	271.8	260.4	269.9	263.0	255.6	232.4	206.3	185.6	174.3	166.7	160.5	160.2	158.7	154.3	148.7	141.5	128.4	117.3	106.6	103.2	92.70	88.25	84.31	96.00	93.16	47.01	30.68	23.46	18.53	13.67	10.36	11.87	31.86	77.64	200.1	460.1	170.6	7.177	1.322	1.068	1.027	0.946	0.962	1.084	1.106	1.105	1.062	0.956	1.211	1.243	1.245	1.119	1.075	1.208	1.125	1.025	1.159	1.097	1.112	1.054	1.086	1.116	1.031	1.078	0.888	0.889	1.048	1.069	1.048
440.0	714.6	397.0	333.6	303.2	284.6	281.4	281.3	275.0	262.7	250.0	261.0	249.5	240.1	218.4	193.5	178.3	163.3	155.5	152.8	148.0	153.2	148.5	142.3	137.2	122.8	113.9	103.9	99.92	91.64	84.57	76.41	74.62	94.53	69.88	36.66	25.32	20.47	15.24	11.68	10.02	12.97	22.13	53.90	269.4	473.4	31.20	3.516	1.366	1.017	1.022	0.966	1.043	0.983	1.037	0.971	1.098	1.109	1.046	1.214	1.063	1.197	1.132	1.146	1.052	0.970	1.214	1.110	1.110	1.076	1.026	1.000	0.905	1.051	0.911	0.847	0.836	0.925
445.0	776.8	586.6	321.5	289.1	276.3	267.4	262.5	262.9	251.0	237.7	236.2	232.9	218.8	202.9	180.1	165.2	154.7	147.2	144.5	142.2	143.3	140.2	133.9	131.4	116.9	107.8	100.4	96.18	88.83	80.38	71.55	65.49	73.28	83.51	45.63	27.98	22.12	17.36	14.19	11.64	10.79	11.34	17.94	75.67	342.8	406.3	25.01	2.480	1.337	1.000	0.947	0.928	0.920	0.958	1.054	1.047	1.016	1.004	1.194	1.073	1.048	1.140	1.063	1.168	0.987	1.181	0.970	1.041	1.026	0.999	1.033	0.960	0.852	0.857	0.826	0.951	0.864
450.0	485.9	991.6	403.1	268.3	249.6	243.5	243.3	240.1	230.0	220.0	216.7	209.9	198.8	182.8	161.9	149.1	139.0	134.5	134.6	132.2	131.9	128.5	123.7	120.6	108.3	98.18	93.48	87.75	83.26	75.72	67.90	59.94	55.75	65.94	66.77	41.49	25.63	20.35	17.60	15.42	14.09	12.85	12.95	25.18	94.71	269.2	284.2	110.8	7.591	1.315	1.007	0.989	0.900	0.913	0.932	0.992	0.991	0.940	1.081	0.997	0.917	1.015	0.886	1.055	0.883	0.895	0.938	0.877	0.850	0.918	0.968	0.864	0.839	0.840	0.883	0.866	0.851
455.0	255.7	917.2	765.0	256.0	228.8	219.5	220.1	215.7	210.4	192.7	199.5	184.0	177.0	163.4	144.3	133.5	125.2	123.0	121.7	118.9	119.4	115.8	112.7	108.3	99.32	89.82	84.63	80.43	76.59	72.23	65.04	55.91	49.79	48.13	57.91	60.57	36.30	25.32	22.02	19.75	18.90	17.33	15.78	16.76	30.83	68.59	141.4	400.6	156.5	7.996	1.198	0.947	0.954	0.984	0.794	0.901	0.928	0.881	0.960	0.903	0.817	1.037	0.806	0.943	0.913	0.904	0.810	0.713	0.793	0.728	0.737	0.800	0.744	0.696	0.854	0.927	0.795
460.0	185.8	578.0	1085	342.3	217.7	207.1	209.6	206.3	192.0	185.6	184.0	167.7	159.4	149.9	132.2	123.1	116.5	113.1	109.6	109.0	111.3	107.0	103.5	100.8	91.43	83.10	77.93	75.84	69.65	67.17	61.60	54.00	45.95	42.70	45.64	59.75	50.78	30.37	24.80	23.22	21.97	20.67	18.35	17.59	18.01	24.38	40.36	211.5	398.5	112.4	4.179	1.091	0.934	0.980	0.854	0.829	0.953	0.858	0.916	0.879	0.832	0.777	0.773	0.928	0.890	0.867	0.831	0.722	0.795	0.646	0.612	0.684	0.689	0.684	0.750	0.860	0.584
465.0	174.9	319.8	1103	592.4	201.0	199.3	189.6	179.3	182.3	173.7	170.0	156.6	145.6	137.4	120.4	112.1	107.3	103.6	102.8	102.4	101.1	97.96	96.24	92.53	84.42	78.39	73.18	69.92	66.31	63.34	58.55	51.41	45.62	40.55	39.19	48.59	57.46	39.30	27.80	25.43	23.81	22.55	20.90	19.40	16.85	15.49	16.47	58.22	258.5	336.0	22.39	2.342	1.009	0.808	0.857	0.828	0.979	0.796	0.841	0.766	0.772	0.710	0.689	0.801	0.820	0.716	0.822	0.707	0.707	0.628	0.707	0.651	0.568	0.674	0.689	0.700	0.582
470.0	182.5	202.0	629.5	1006	304.8	170.4	172.6	167.9	160.4	151.9	150.9	140.7	130.7	119.7	107.6	98.45	93.22	90.73	92.27	89.48	89.99	86.16	84.08	82.33	74.23	69.40	65.99	62.87	59.75	57.98	53.34	47.29	42.57	38.41	36.16	37.84	45.67	49.89	35.61	27.45	25.38	25.00	22.73	20.84	17.99	14.50	11.81	18.83	68.39	190.5	248.5	102.3	7.461	0.956	0.912	0.747	0.869	0.790	0.795	0.795	0.635	0.659	0.689	0.672	0.657	0.667	0.638	0.642	0.585	0.578	0.642	0.590	0.595	0.664	0.624	0.640	0.549
475.0	195.0	180.1	274.1	959.8	649.8	166.8	149.5	149.9	139.8	135.7	133.0	121.7	112.4	103.4	94.01	84.50	80.02	79.61	78.50	79.50	78.75	74.06	72.77	72.03	65.45	59.71	56.49	55.03	54.43	51.59	48.35	44.76	40.01	35.56	33.42	32.79	34.57	42.76	45.31	32.95	26.53	25.27	23.61	21.01	19.13	14.94	11.43	9.831	19.24	45.63	96.16	251.0	138.2	8.637	0.837	0.890	0.735	0.721	0.664	0.635	0.594	0.633	0.584	0.610	0.582	0.567	0.510	0.499	0.526	0.458	0.471	0.521	0.555	0.501	0.472	0.416	0.512
480.0	183.8	182.7	179.0	569.7	1075	255.9	131.5	133.0	126.5	126.3	120.1	109.2	103.8	94.78	85.03	77.91	72.31	71.41	71.91	72.74	69.95	68.32	65.20	64.05	59.16	53.27	51.96	49.15	49.40	47.15	43.69	41.08	36.22	33.50	31.95	30.64	30.78	34.54	44.53	39.20	27.81	25.09	23.22	20.99	18.76	14.98	11.50	8.390	8.379	12.95	24.43	117.1	275.7	105.4	3.863	1.154	0.774	0.730	0.719	0.586	0.529	0.586	0.487	0.583	0.635	0.595	0.476	0.554	0.456	0.443	0.436	0.564	0.477	0.472	0.413	0.370	0.484
485.0	173.6	195.0	148.1	285.2	1093	495.9	126.2	126.4	122.4	115.4	110.7	101.9	94.64	85.20	77.03	70.30	67.86	66.18	65.90	65.47	65.58	60.60	60.51	59.93	53.01	50.17	46.82	45.67	44.46	44.16	40.94	37.62	35.53	31.54	30.05	28.53	28.09	29.26	36.70	42.25	32.32	24.88	22.98	20.75	17.95	15.14	11.54	8.167	6.438	5.888	7.630	30.73	161.3	231.9	26.00	2.418	1.073	0.721	0.668	0.543	0.720	0.600	0.473	0.556	0.534	0.567	0.443	0.534	0.503	0.438	0.483	0.455	0.369	0.477	0.349	0.370	0.448
490.0	113.2	214.8	152.9	155.4	620.9	975.8	223.6	112.1	110.3	101.7	101.2	89.86	84.22	77.58	69.18	64.14	61.25	59.45	58.44	58.56	57.32	55.19	54.22	52.66	47.21	44.44	42.90	41.00	40.00	39.08	37.37	34.50	32.45	29.45	28.22	27.03	26.44	26.31	28.37	35.46	37.01	28.70	22.43	19.86	17.18	14.45	11.59	8.436	6.108	4.805	4.506	9.318	41.59	124.6	206.9	108.7	12.76	1.090	0.846	0.596	0.625	0.495	0.499	0.462	0.451	0.408	0.438	0.400	0.412	0.379	0.391	0.297	0.319	0.412	0.330	0.342	0.364
495.0	69.43	174.8	189.5	119.8	235.1	940.3	624.2	110.0	101.3	90.99	89.78	83.49	74.42	67.27	61.10	55.15	51.88	51.49	51.27	50.98	49.92	49.07	47.41	45.57	43.04	38.27	37.51	36.03	35.21	35.50	34.11	31.09	28.76	27.57	25.76	24.64	24.30	24.32	23.96	26.09	33.51	33.55	25.12	19.49	17.08	14.04	11.07	8.786	6.843	5.123	4.552	5.204	12.48	31.47	86.19	331.5	217.8	11.78	1.130	0.791	0.600	0.567	0.430	0.414	0.435	0.395	0.394	0.295	0.309	0.292	0.433	0.302	0.308	0.353	0.306	0.385	0.295
500.0	56.76	116.6	218.4	119.0	120.4	545.8	1002	166.4	92.61	83.32	81.80	78.62	66.86	62.55	53.48	49.19	46.36	45.91	46.21	45.40	44.25	43.37	43.31	40.71	37.44	35.21	33.46	33.04	32.23	32.20	30.63	29.47	26.24	25.19	23.69	23.31	22.88	22.30	21.70	22.17	25.94	32.81	28.03	19.78	16.50	13.70	10.91	8.905	7.222	5.497	4.533	4.880	6.643	11.12	24.12	165.3	425.1	116.4	6.091	0.988	0.646	0.590	0.413	0.401	0.430	0.361	0.397	0.342	0.322	0.305	0.326	0.318	0.280	0.343	0.294	0.233	0.269
505.0	48.44	91.84	210.6	140.6	94.30	248.9	1079	347.0	81.31	78.51	73.50	69.92	61.58	57.15	47.91	45.66	41.35	42.34	41.68	39.97	39.67	39.44	38.77	36.00	34.10	31.84	29.94	30.44	29.73	29.20	27.73	26.35	23.96	23.23	21.91	21.16	20.19	20.65	20.34	20.12	21.12	26.95	29.32	21.85	15.95	12.83	10.73	8.343	7.013	6.196	5.114	4.816	5.507	6.843	9.677	44.50	207.1	245.2	30.06	2.855	0.751	0.582	0.363	0.338	0.425	0.378	0.391	0.340	0.264	0.294	0.329	0.329	0.266	0.280	0.236	0.283	0.258
510.0	41.29	66.92	148.2	189.2	89.55	114.6	612.0	869.2	149.0	68.77	63.82	60.74	54.44	49.34	43.17	39.39	35.60	36.41	35.91	35.00	34.37	33.59	33.32	31.49	29.39	27.14	26.63	26.32	25.60	25.37	24.10	23.21	21.61	20.19	19.73	18.49	18.41	18.35	18.03	17.90	17.90	19.95	23.78	23.97	17.13	12.35	9.810	7.838	6.461	5.942	5.528	5.226	5.148	5.738	6.406	14.10	52.06	112.6	191.7	97.44	10.21	0.727	0.491	0.393	0.392	0.309	0.286	0.278	0.238	0.238	0.305	0.285	0.317	0.223	0.215	0.212	0.199
515.0	42.49	55.65	84.04	183.8	110.2	73.59	208.1	939.6	487.4	67.73	56.62	51.60	46.80	40.32	36.73	31.77	30.84	30.70	30.87	29.77	29.62	28.11	27.90	26.53	25.04	24.19	22.72	22.36	22.27	21.88	20.77	19.87	19.23	17.61	16.88	16.42	15.95	16.15	15.86	15.98	15.65	16.13	17.09	21.08	19.91	13.53	8.856	7.152	6.307	5.738	5.412	5.290	5.077	5.163	5.798	7.087	14.73	27.60	64.90	179.0	138.7	11.75	0.557	0.480	0.273	0.284	0.260	0.165	0.207	0.239	0.254	0.188	0.221	0.177	0.215	0.240	0.165
520.0	34.00	55.64	58.56	147.7	146.9	65.57	92.95	579.9	899.3	106.5	53.84	46.30	40.95	36.31	33.10	29.27	27.82	26.82	27.32	26.54	25.58	24.61	24.85	23.80	22.31	20.31	19.36	19.67	20.11	19.73	19.11	18.13	16.51	15.74	15.27	14.64	14.71	14.53	14.13	14.13	13.93	13.70	13.51	16.04	19.55	14.98	9.409	6.645	6.110	4.935	4.682	4.950	5.394	5.020	5.299	5.130	6.519	8.533	16.59	74.32	203.9	96.65	4.383	0.486	0.357	0.307	0.222	0.209	0.217	0.263	0.233	0.187	0.196	0.117	0.168	0.175	0.175
525.0	31.69	40.98	51.09	103.5	167.4	70.00	63.99	251.1	1079	248.6	50.43	41.38	39.35	33.81	27.93	24.93	23.94	24.21	24.23	23.22	23.11	22.39	21.68	20.50	19.67	18.27	17.56	17.03	17.57	17.68	17.51	16.57	15.29	14.26	14.11	13.17	12.95	13.26	12.66	13.04	12.00	11.83	11.94	12.65	15.92	16.54	10.51	6.689	5.582	4.775	4.352	4.582	5.274	4.863	4.919	4.539	4.600	4.111	5.507	18.87	99.01	187.0	28.82	1.669	0.398	0.398	0.238	0.180	0.172	0.227	0.142	0.210	0.118	0.132	0.166	0.121	0.142
530.0	25.38	36.71	40.92	60.30	147.3	105.6	51.07	95.03	650.0	761.2	97.06	37.21	33.60	28.68	24.35	21.72	21.05	20.02	20.73	19.53	19.51	18.42	18.30	17.65	16.71	15.88	15.28	14.77	14.78	14.65	14.98	14.04	12.59	12.31	12.02	11.28	11.20	11.17	11.40	11.20	10.67	10.42	10.44	10.23	11.16	13.77	12.22	7.751	5.088	4.389	4.068	4.099	4.356	5.013	4.792	4.225	3.700	2.962	2.798	5.434	24.32	81.86	128.7	68.26	8.014	0.390	0.265	0.161	0.184	0.181	0.137	0.150	0.149	0.174	0.150	0.082	0.184
535.0	20.40	25.94	33.97	41.24	90.39	144.8	55.46	51.43	210.2	909.7	368.8	36.15	28.48	24.72	20.94	18.53	17.17	16.66	16.75	15.98	15.94	15.53	15.63	14.46	14.08	13.58	12.44	12.93	12.86	12.03	12.37	11.45	10.56	10.39	10.28	9.726	9.457	9.371	9.741	9.151	9.092	8.615	8.787	8.553	8.475	8.987	11.24	9.479	5.689	3.983	3.623	3.482	3.721	4.181	4.628	3.987	3.419	2.378	1.983	2.250	6.199	18.93	41.31	118.1	92.00	7.937	0.331	0.218	0.158	0.202	0.163	0.176	0.148	0.124	0.136	0.098	0.076
540.0	15.48	31.17	32.99	30.83	55.57	140.7	71.05	40.14	78.32	573.7	747.7	53.72	24.30	20.48	18.63	17.04	15.64	15.57	14.54	14.06	13.70	13.31	13.39	12.57	12.11	11.25	11.36	10.81	11.20	10.99	11.13	10.04	9.299	9.334	8.658	8.712	8.438	8.318	8.340	8.222	8.006	7.498	7.857	7.329	6.997	6.730	8.371	9.560	6.787	4.044	3.206	3.081	3.267	3.553	4.229	3.989	3.137	2.157	1.647	1.592	2.082	4.865	9.853	46.39	132.6	31.86	3.439	0.246	0.135	0.159	0.178	0.177	0.072	0.102	0.106	0.132	0.087
545.0	19.49	28.44	32.16	29.57	33.46	108.8	103.5	34.33	44.41	232.3	942.1	158.4	22.70	19.58	17.21	14.71	13.82	13.22	12.55	11.64	12.44	11.50	11.58	10.74	10.51	9.961	9.508	9.132	9.791	9.409	9.145	8.828	8.184	8.360	7.658	7.929	7.726	7.099	7.125	7.123	6.865	6.719	6.633	6.344	6.074	5.467	5.886	8.202	7.199	4.433	3.173	2.971	3.025	2.991	3.288	3.712	3.389	2.040	1.668	1.294	1.208	1.641	2.656	11.18	61.28	118.4	28.25	1.339	0.160	0.175	0.120	0.131	0.095	0.078	0.083	0.124	0.093
550.0	28.54	28.77	27.17	24.44	26.19	60.72	128.7	50.33	37.30	86.29	573.2	585.3	52.13	16.84	13.38	12.37	11.52	10.76	10.42	9.750	9.985	9.655	8.771	9.100	8.749	8.266	7.754	7.716	8.141	7.807	7.619	7.360	7.070	6.732	6.569	6.546	6.144	5.986	5.967	5.893	5.820	5.767	5.673	5.334	4.859	4.709	4.329	5.316	6.623	5.446	3.617	2.649	2.557	2.557	2.749	2.729	2.838	2.335	1.515	1.017	0.900	0.997	1.082	2.919	14.73	50.55	89.33	51.90	6.618	0.217	0.127	0.092	0.091	0.099	0.075	0.093	0.048
555.0	32.67	30.60	29.05	21.05	22.82	34.09	112.0	98.68	46.88	69.60	208.3	776.1	169.9	15.86	11.30	9.759	9.064	8.942	8.431	8.858	7.785	7.588	7.421	7.216	6.993	6.438	6.335	6.580	6.242	6.232	6.294	5.744	5.507	5.170	5.207	5.065	4.909	5.032	4.863	4.850	4.799	4.714	4.673	4.287	4.048	3.733	3.365	3.465	4.124	5.138	4.565	2.801	2.279	2.155	2.155	2.194	2.011	2.212	1.922	1.036	0.811	0.640	0.658	1.264	3.695	11.76	27.17	78.71	63.93	5.976	0.231	0.070	0.095	0.077	0.036	0.070	0.062
560.0	59.48	56.05	34.76	23.48	22.88	28.69	79.29	139.2	78.22	92.07	136.8	543.9	580.9	29.61	10.14	7.993	7.628	7.672	7.029	7.133	6.769	6.520	6.092	6.189	5.818	5.751	5.096	5.283	4.843	5.302	5.254	4.892	4.759	4.365	3.872	4.387	4.009	4.028	3.981	4.061	4.047	3.599	3.740	3.699	3.519	3.070	2.663	2.683	2.654	3.808	4.635	3.223	2.037	1.930	1.862	1.887	1.817	1.595	1.948	1.320	0.890	0.688	0.720	0.897	1.376	3.221	6.727	29.46	85.18	30.67	3.227	0.127	0.080	0.072	0.055	0.082	0.045
565.0	92.36	70.60	47.60	28.77	24.29	28.92	59.14	158.6	124.3	133.5	163.5	311.0	827.6	98.29	9.769	6.795	6.915	6.285	5.648	6.036	5.609	5.086	5.064	4.942	4.821	4.782	4.377	4.201	4.486	4.376	4.251	4.145	4.211	3.745	3.551	3.869	3.570	3.567	3.439	3.519	3.314	3.147	3.079	3.054	2.963	2.571	2.409	2.164	2.081	2.579	3.798	3.411	2.207	1.649	1.732	1.661	1.512	1.304	1.530	1.599	1.077	0.830	0.893	0.925	1.237	1.563	2.235	7.474	36.64	74.84	26.35	0.901	0.093	0.143	0.101	0.057	0.028
570.0	136.4	109.6	66.50	36.06	26.79	33.90	54.92	148.0	206.2	206.5	239.0	251.1	586.5	406.8	23.55	6.307	5.500	4.777	4.723	4.691	4.319	4.149	4.324	3.910	3.774	3.762	3.573	3.367	3.515	3.504	3.405	3.221	3.322	3.134	3.091	3.145	2.799	2.811	2.826	2.768	2.646	2.555	2.689	2.633	2.454	2.299	2.124	1.848	1.593	1.613	2.439	3.154	2.716	1.671	1.417	1.411	1.365	1.097	1.185	1.339	1.471	1.211	1.081	1.113	1.319	1.351	1.588	2.646	9.230	29.82	62.27	35.92	4.818	0.159	0.096	0.082	0.040
575.0	195.7	150.0	89.87	47.11	29.33	38.14	66.81	128.0	272.1	288.5	320.8	303.3	287.5	575.4	107.4	6.148	4.112	4.003	3.602	3.679	3.511	3.233	3.496	3.183	3.184	2.978	2.870	2.675	2.708	2.741	2.684	2.423	2.627	2.436	2.548	2.222	2.267	2.220	2.189	2.522	2.167	2.110	2.309	2.116	2.171	2.093	1.942	1.481	1.434	1.350	1.338	1.936	2.803	2.063	1.370	1.221	0.985	0.923	0.952	1.049	1.274	1.664	1.488	1.340	1.467	1.569	1.735	1.758	3.006	7.237	17.96	48.63	31.93	5.448	0.150	0.090	0.044
580.0	225.5	177.7	108.6	51.97	35.87	42.47	69.91	126.3	281.2	357.2	380.5	342.6	222.4	409.3	330.2	12.04	4.073	3.451	2.951	2.738	2.891	2.981	2.861	3.044	2.742	2.131	2.376	2.388	2.139	2.494	2.164	1.941	2.080	2.054	2.116	1.922	2.081	1.961	1.976	2.022	1.815	1.793	1.935	1.996	1.903	1.796	1.688	1.300	1.266	1.122	0.949	1.212	2.181	2.213	1.522	1.107	0.944	0.930	1.052	1.051	1.026	1.795	2.054	1.667	1.749	1.831	1.986	1.745	1.617	2.416	4.677	17.34	51.59	28.89	1.818	0.093	0.037
585.0	236.8	195.2	120.7	54.41	39.99	44.43	74.32	135.4	267.7	409.3	419.9	377.2	225.6	199.9	469.6	47.90	3.628	3.166	2.877	2.442	2.609	2.449	2.434	2.356	2.440	2.152	2.065	1.929	1.984	2.060	1.925	1.709	1.718	1.822	1.858	1.633	1.817	1.942	1.581	1.723	1.665	1.637	1.673	1.745	1.724	1.576	1.372	1.351	1.183	1.007	0.826	0.852	1.514	1.946	1.721	1.173	0.914	0.765	0.812	0.959	1.010	1.532	1.985	2.116	2.037	1.918	1.905	1.938	1.714	1.439	1.682	4.275	21.49	50.77	19.01	0.772	0.063
590.0	235.8	209.3	132.1	60.76	40.75	46.20	74.31	136.5	250.5	427.8	470.3	406.0	236.4	110.4	304.3	204.2	9.615	2.321	2.208	2.026	2.012	1.970	1.986	1.791	1.810	1.693	1.593	1.585	1.514	1.599	1.486	1.406	1.443	1.511	1.622	1.438	1.522	1.491	1.286	1.406	1.445	1.218	1.388	1.417	1.497	1.405	1.206	1.205	1.051	0.811	0.722	0.711	0.948	1.390	1.804	1.442	0.996	0.788	0.752	0.909	0.968	1.365	1.737	2.330	2.354	2.108	2.074	1.936	1.794	1.291	1.022	1.319	5.206	18.57	31.89	21.13	3.196
595.0	246.8	206.3	135.1	60.75	34.32	44.68	73.88	135.7	243.8	391.2	504.3	420.5	249.7	95.67	99.96	330.6	63.42	2.467	1.659	1.788	1.480	1.665	1.687	1.451	1.435	1.252	1.256	1.349	1.066	1.294	1.161	1.242	1.247	1.128	1.291	1.301	1.503	1.218	1.078	1.142	1.174	1.092	1.234	1.201	1.165	1.238	1.027	1.085	0.806	0.694	0.610	0.488	0.707	0.787	1.255	1.460	1.159	0.773	0.866	0.682	0.875	1.301	1.511	2.082	2.418	2.326	1.937	1.890	1.676	1.333	0.951	0.679	1.497	4.313	8.673	26.92	24.43
600.0	243.9	205.2	132.5	62.34	39.15	42.86	69.98	132.9	229.8	364.4	492.7	425.7	253.6	92.70	42.24	223.7	185.6	5.854	1.539	1.558	1.425	1.332	1.236	1.250	1.221	1.037	1.194	1.064	0.889	0.964	0.967	0.913	1.061	1.073	1.013	0.994	1.239	1.071	0.947	1.052	1.020	0.905	0.913	1.021	0.986	1.153	0.967	0.930	0.756	0.617	0.507	0.627	0.505	0.613	0.878	1.249	1.372	0.890	0.862	0.710	0.889	1.107	1.325	1.798	2.187	2.428	2.217	1.761	1.645	1.305	0.946	0.653	0.550	1.126	2.102	9.017	27.47
605.0	234.8	210.4	122.2	65.16	37.34	42.20	70.06	123.0	215.4	342.7	462.2	428.4	246.0	90.61	29.56	89.21	275.1	26.33	1.272	1.324	1.482	1.132	1.002	1.133	0.841	0.984	0.923	0.975	0.748	0.879	0.983	0.900	0.924	0.900	1.006	1.034	1.110	0.904	0.814	0.845	0.793	0.873	0.944	0.902	0.858	1.026	0.947	0.741	0.698	0.597	0.495	0.497	0.452	0.470	0.576	0.976	1.212	1.036	0.801	0.712	0.964	1.108	1.350	1.718	1.958	2.281	2.519	1.994	1.560	1.294	0.924	0.636	0.418	0.413	0.584	2.194	10.49
610.0	214.0	198.0	120.5	57.95	34.06	39.79	63.63	114.2	198.1	304.5	411.8	416.3	242.6	91.48	28.53	29.70	181.3	132.8	4.569	1.120	1.074	0.888	0.903	0.871	0.874	0.762	0.664	0.814	0.628	0.609	0.653	0.691	0.669	0.781	0.801	0.762	0.846	0.788	0.694	0.716	0.678	0.683	0.845	0.720	0.831	0.975	0.776	0.725	0.611	0.525	0.440	0.419	0.378	0.425	0.448	0.609	0.856	0.943	0.848	0.770	0.785	0.938	1.170	1.485	1.748	1.961	2.137	1.962	1.552	1.195	0.855	0.491	0.337	0.263	0.233	0.592	2.494
615.0	180.1	170.4	107.2	54.08	31.80	37.14	59.22	99.88	175.5	274.8	351.8	386.5	239.5	92.00	28.19	15.48	55.03	216.9	40.03	1.116	0.841	0.672	0.640	0.732	0.621	0.654	0.563	0.564	0.552	0.577	0.574	0.450	0.531	0.769	0.666	0.613	0.624	0.562	0.525	0.617	0.561	0.595	0.609	0.607	0.703	0.813	0.642	0.693	0.525	0.464	0.308	0.387	0.320	0.315	0.365	0.394	0.540	0.850	0.966	0.723	0.788	0.946	1.038	1.252	1.533	1.696	1.621	1.872	1.703	1.272	0.795	0.530	0.311	0.279	0.137	0.185	0.633
620.0	173.5	170.8	101.7	51.36	31.75	32.73	52.24	93.91	156.3	245.7	324.1	340.7	243.0	88.80	29.49	13.31	18.25	153.1	120.9	2.112	0.754	0.630	0.647	0.610	0.542	0.514	0.382	0.510	0.450	0.476	0.481	0.475	0.476	0.553	0.606	0.529	0.542	0.576	0.540	0.500	0.445	0.648	0.462	0.540	0.652	0.618	0.597	0.534	0.480	0.432	0.348	0.241	0.299	0.255	0.301	0.363	0.365	0.563	0.837	0.787	0.769	0.757	0.967	1.162	1.499	1.414	1.518	1.526	1.574	1.211	0.925	0.486	0.332	0.198	0.180	0.130	0.197
625.0	160.0	153.5	86.05	48.63	32.15	30.71	49.63	84.42	144.6	225.4	290.5	298.7	231.9	88.92	29.77	12.85	9.642	62.34	184.7	13.69	0.873	0.584	0.591	0.568	0.514	0.506	0.307	0.448	0.391	0.412	0.364	0.504	0.319	0.395	0.480	0.484	0.341	0.492	0.452	0.428	0.338	0.514	0.380	0.490	0.619	0.592	0.492	0.500	0.417	0.273	0.300	0.248	0.234	0.215	0.269	0.323	0.226	0.386	0.591	0.766	0.864	0.748	0.901	1.125	1.208	1.335	1.401	1.384	1.485	1.341	0.822	0.485	0.320	0.213	0.127	0.086	0.070
630.0	142.8	126.5	80.21	41.39	27.86	28.48	44.78	75.85	124.7	197.3	252.7	254.2	203.3	98.63	31.67	13.76	8.307	18.87	126.9	86.45	2.675	0.537	0.509	0.424	0.438	0.352	0.251	0.308	0.299	0.291	0.285	0.300	0.235	0.345	0.436	0.437	0.317	0.393	0.350	0.313	0.296	0.413	0.358	0.408	0.405	0.467	0.437	0.410	0.396	0.247	0.235	0.245	0.165	0.225	0.177	0.220	0.227	0.329	0.433	0.664	0.707	0.711	0.799	0.983	1.071	1.147	1.177	1.173	1.118	1.030	0.906	0.462	0.283	0.184	0.134	0.078	0.061
635.0	128.2	112.4	73.91	38.06	24.36	23.96	39.82	65.34	108.3	165.3	215.6	213.5	167.5	105.3	34.28	15.10	8.070	7.743	38.13	142.6	24.35	0.570	0.333	0.480	0.409	0.250	0.189	0.208	0.241	0.237	0.172	0.212	0.213	0.356	0.279	0.317	0.288	0.312	0.277	0.264	0.257	0.344	0.255	0.345	0.394	0.368	0.397	0.303	0.301	0.230	0.176	0.197	0.172	0.174	0.223	0.209	0.185	0.250	0.285	0.464	0.730	0.716	0.815	0.819	0.738	0.948	1.018	0.958	0.858	0.812	0.747	0.525	0.358	0.157	0.093	0.079	0.105
640.0	100.5	93.87	70.40	38.09	23.52	24.10	36.86	56.25	97.67	148.5	192.3	192.3	144.2	96.02	40.84	16.28	9.970	6.018	11.62	107.0	64.57	1.247	0.392	0.422	0.291	0.220	0.296	0.222	0.187	0.247	0.169	0.200	0.161	0.244	0.306	0.283	0.273	0.252	0.219	0.255	0.228	0.286	0.246	0.264	0.378	0.363	0.393	0.263	0.273	0.231	0.147	0.156	0.165	0.125	0.143	0.111	0.160	0.265	0.257	0.384	0.527	0.712	0.820	0.688	0.812	0.794	0.941	0.911	0.861	0.753	0.617	0.468	0.444	0.238	0.083	0.078	0.071
645.0	88.11	94.45	66.86	34.94	24.75	21.67	32.56	53.22	87.88	130.6	169.9	170.2	127.0	84.00	48.23	17.67	10.58	5.672	5.175	46.36	121.5	7.884	0.508	0.391	0.304	0.167	0.174	0.202	0.129	0.185	0.216	0.167	0.130	0.183	0.249	0.292	0.254	0.205	0.150	0.144	0.227	0.241	0.246	0.282	0.323	0.320	0.279	0.240	0.198	0.170	0.147	0.126	0.133	0.138	0.182	0.106	0.167	0.191	0.235	0.340	0.393	0.512	0.665	0.665	0.716	0.724	0.769	0.776	0.629	0.601	0.479	0.447	0.460	0.272	0.139	0.121	0.062
650.0	85.19	86.67	63.23	31.30	21.84	22.31	31.84	48.00	78.78	117.4	149.6	153.2	111.5	70.35	52.49	19.36	9.892	6.411	3.733	14.70	116.5	37.14	0.628	0.392	0.375	0.268	0.156	0.170	0.194	0.193	0.203	0.171	0.133	0.137	0.185	0.270	0.168	0.181	0.188	0.152	0.161	0.174	0.224	0.246	0.249	0.215	0.236	0.242	0.253	0.171	0.142	0.086	0.128	0.157	0.127	0.135	0.192	0.168	0.243	0.215	0.371	0.383	0.528	0.610	0.725	0.661	0.752	0.696	0.722	0.591	0.485	0.339	0.256	0.293	0.195	0.097	0.062
