Sample:	'1
File name:	Default_20250722_164736.FD3
Run date:	'16:41:15, 07/22/2025
Operator:	Administrator
Comment:	'

Instrument
Model:	F-2700 FL Spectrophotometer
Serial number:	3064-004
ROM Version:	4J14000 07

Instrument parameters
Measurement type:	3-D scan
Data mode:	Fluorescence
EX  Start WL:	220.0 nm
EX  End WL:	600.0 nm
EX Sampling interval:	5.0 nm
EM  Start WL:	230.0 nm
EM  End WL:	650.0 nm
EM Sampling interval:	5.0 nm
Scan speed:	12000 nm/min
EX Slit:	5.0 nm
EM Slit:	5.0 nm
PMT Voltage:	700 V
Response:	Auto 
Corrected spectra:	Off
Contour interval:	50.000

Peak integration
Integration method:	Rectangular
Sensitivity:	1
Threshold:	1.000

Peaks
No.	ApexEX/EM(nm)	Height(Data)
1	225.0/570.0	53.07
2	225.0/600.0	41.89
3	230.0/615.0	29.82
4	230.0/635.0	35.72
5	235.0/355.0	754.1
6	235.0/565.0	64.66
7	240.0/520.0	245.3
8	245.0/265.0	312.7
9	245.0/535.0	232.6
10	250.0/545.0	211.4
11	255.0/280.0	609.3
12	255.0/555.0	205.8
13	260.0/285.0	799.4
14	260.0/570.0	171.9
15	265.0/290.0	881.8
16	265.0/580.0	164.9
17	270.0/295.0	 1170
18	270.0/385.0	 1408
19	270.0/595.0	138.1
20	275.0/305.0	 1339
21	275.0/605.0	122.3
22	275.0/645.0	44.93
23	280.0/310.0	 1256
24	280.0/615.0	104.6
25	285.0/315.0	 1283
26	285.0/630.0	84.17
27	290.0/320.0	 1248
28	290.0/640.0	72.21
29	295.0/330.0	 1055
30	300.0/335.0	989.6
31	305.0/340.0	 1037
32	310.0/350.0	945.3
33	315.0/355.0	960.6
34	315.0/390.0	 1200
35	320.0/360.0	 1027
36	320.0/395.0	 1201
37	335.0/380.0	 1118
38	340.0/385.0	 1100
39	440.0/515.0	70.22
40	445.0/525.0	58.54
41	505.0/275.0	2.821
42	515.0/280.0	3.353
43	520.0/285.0	4.046
44	530.0/290.0	4.495
45	540.0/295.0	5.403
46	545.0/300.0	6.375
47	550.0/305.0	6.660
48	560.0/310.0	6.021
49	570.0/315.0	6.301
50	580.0/320.0	6.620
51	585.0/325.0	6.630
52	590.0/330.0	5.800

Data points
	220.0	225.0	230.0	235.0	240.0	245.0	250.0	255.0	260.0	265.0	270.0	275.0	280.0	285.0	290.0	295.0	300.0	305.0	310.0	315.0	320.0	325.0	330.0	335.0	340.0	345.0	350.0	355.0	360.0	365.0	370.0	375.0	380.0	385.0	390.0	395.0	400.0	405.0	410.0	415.0	420.0	425.0	430.0	435.0	440.0	445.0	450.0	455.0	460.0	465.0	470.0	475.0	480.0	485.0	490.0	495.0	500.0	505.0	510.0	515.0	520.0	525.0	530.0	535.0	540.0	545.0	550.0	555.0	560.0	565.0	570.0	575.0	580.0	585.0	590.0	595.0	600.0
230.0	22.24	361.6	 2268	 1388	94.95	11.21	8.949	8.648	7.523	6.781	6.174	5.784	4.266	3.677	3.544	2.889	2.607	2.539	2.348	2.346	1.992	1.969	1.703	1.790	1.591	1.543	1.432	1.505	1.336	1.217	1.271	0.991	1.009	0.826	0.941	0.928	0.880	0.978	0.720	0.720	0.686	0.822	0.855	0.765	0.566	0.626	1.274	4.839	8.624	7.078	3.070	0.919	0.538	0.479	0.390	0.498	0.493	0.488	0.446	0.440	0.391	0.424	0.421	0.397	0.447	0.412	0.319	0.378	0.383	0.358	0.377	0.412	0.346	0.394	0.416	0.286	0.404
235.0	42.83	107.1	929.2	 3182	 1068	138.0	11.15	8.808	8.434	7.238	5.935	5.503	5.711	4.809	3.880	3.170	2.965	2.785	2.305	2.020	1.867	2.173	1.782	1.732	1.870	1.403	1.145	1.399	1.314	1.431	1.442	1.332	0.972	0.753	1.008	1.063	1.030	0.842	0.718	0.758	0.833	0.788	0.703	0.832	0.890	0.634	0.793	1.583	3.387	6.149	8.768	8.844	4.228	1.378	0.583	0.432	0.577	0.546	0.359	0.457	0.594	0.490	0.366	0.695	0.424	0.398	0.390	0.336	0.246	0.259	0.413	0.399	0.394	0.428	0.411	0.438	0.296
240.0	57.95	68.87	236.6	 1891	 3547	901.6	79.76	10.47	8.695	8.912	6.987	7.763	6.370	4.023	4.703	3.636	3.138	2.510	2.040	1.933	1.573	1.743	1.728	1.619	1.728	1.211	1.437	1.613	1.159	1.258	1.387	1.203	1.093	0.947	0.779	0.921	0.837	0.920	0.844	0.673	0.797	0.639	0.724	0.906	0.909	0.686	0.876	0.865	1.358	2.151	4.424	9.641	11.80	9.022	2.885	0.764	0.533	0.448	0.521	0.399	0.599	0.512	0.641	0.527	0.403	0.326	0.531	0.336	0.319	0.327	0.336	0.470	0.445	0.322	0.343	0.414	0.307
245.0	31.32	94.45	109.3	519.8	 2451	 4866	740.9	33.36	11.04	8.491	5.568	6.843	6.653	4.576	5.071	3.353	3.792	3.165	1.955	2.262	1.936	1.686	2.052	1.647	1.585	1.645	1.769	1.465	1.271	1.412	1.347	1.020	0.952	0.874	0.922	0.684	0.592	0.819	0.844	0.710	0.807	0.578	0.716	0.713	0.728	0.922	1.084	0.753	0.759	0.886	1.426	3.378	8.118	13.92	14.16	7.576	2.219	0.562	0.547	0.615	0.440	0.477	0.558	0.423	0.346	0.397	0.426	0.328	0.376	0.377	0.387	0.314	0.362	0.306	0.327	0.371	0.294
250.0	16.21	50.54	136.0	209.4	647.7	 3035	 3938	 2345	203.8	11.62	9.002	6.983	5.431	6.113	4.953	3.657	3.457	3.400	2.156	2.567	2.126	1.987	2.016	1.812	1.618	1.709	1.786	1.900	1.372	1.318	1.260	1.167	0.997	1.047	0.876	0.783	0.652	0.771	0.899	0.952	0.720	0.795	0.781	0.652	0.716	0.752	0.750	1.060	1.051	1.036	0.922	1.232	2.459	4.641	8.321	11.96	13.86	11.85	6.628	2.155	0.672	0.506	0.500	0.416	0.445	0.412	0.435	0.368	0.372	0.381	0.397	0.343	0.389	0.351	0.335	0.548	0.312
255.0	13.00	24.08	73.21	243.5	279.1	708.8	 1657	 5382	 3688	269.1	14.33	10.99	6.536	6.888	4.727	3.891	3.949	2.929	2.510	2.597	2.447	2.561	1.802	2.065	1.786	1.695	1.859	1.483	1.575	1.352	1.416	1.249	1.073	0.920	0.838	0.789	0.753	0.769	0.709	0.815	0.928	0.984	0.714	0.594	0.644	0.764	0.607	0.651	0.958	1.111	1.400	1.753	1.368	1.444	2.245	3.271	5.240	11.34	20.76	20.89	11.47	2.482	0.439	0.443	0.531	0.573	0.511	0.399	0.338	0.397	0.455	0.425	0.297	0.342	0.296	0.376	0.378
260.0	14.78	19.42	29.83	147.9	334.0	253.5	417.4	 2651	 7049	 3142	154.1	10.60	8.918	6.513	5.009	4.243	3.324	2.642	2.876	2.305	2.763	1.991	1.880	2.118	1.723	2.197	1.974	1.239	1.500	1.252	1.649	1.126	1.444	0.828	0.991	0.764	0.741	0.796	0.757	0.863	0.858	0.971	0.866	0.702	0.635	0.803	0.636	0.636	0.741	0.673	0.985	1.780	1.837	1.432	1.058	1.185	1.871	3.344	9.477	18.60	27.54	21.18	7.791	1.458	0.559	0.506	0.357	0.335	0.363	0.457	0.239	0.328	0.397	0.329	0.372	0.466	0.432
265.0	20.58	17.42	19.96	59.63	268.4	312.7	144.6	690.3	 4067	 7755	 2315	59.49	9.808	7.621	6.903	5.128	4.539	3.726	3.573	2.940	2.258	2.048	2.101	1.720	1.659	1.582	1.405	1.580	1.528	1.556	1.387	1.407	1.111	1.125	1.139	1.003	0.771	0.814	0.843	0.756	0.774	0.773	0.956	0.956	0.778	0.607	0.520	0.800	0.575	0.492	0.770	1.027	1.609	2.406	1.599	0.995	0.901	1.227	2.677	5.927	15.00	27.60	30.90	18.65	4.254	0.771	0.367	0.568	0.493	0.324	0.374	0.367	0.629	0.269	0.341	0.416	0.413
270.0	38.85	40.59	42.71	40.58	103.7	294.2	359.4	250.0	 1051	 3772	 7000	 3967	168.0	12.54	7.767	6.072	4.537	4.287	3.626	3.116	2.718	2.453	2.086	2.147	1.881	1.713	1.654	1.817	1.441	1.542	1.366	1.283	1.115	1.285	0.955	1.012	0.967	0.755	0.725	0.745	0.678	0.715	0.781	0.878	0.771	0.826	0.709	0.886	0.664	0.598	0.615	0.676	0.810	1.316	1.712	2.136	1.795	1.279	1.201	1.889	4.119	8.517	14.63	23.88	28.39	26.88	15.19	4.483	0.570	0.521	0.464	0.345	0.488	0.319	0.420	0.492	0.477
275.0	66.04	97.83	105.8	73.67	52.76	108.5	382.3	515.3	351.6	946.0	 2481	 8174	 2950	207.1	10.70	8.108	5.404	5.226	4.035	3.978	3.023	2.389	2.384	2.158	2.249	1.609	1.961	1.604	1.502	1.691	1.419	1.221	0.983	1.185	1.096	0.867	1.141	1.036	0.861	0.773	0.951	0.838	0.779	0.997	0.906	1.152	0.958	1.084	0.916	0.810	0.825	0.740	0.644	0.740	0.894	1.285	2.360	2.821	2.754	1.370	1.767	2.582	4.156	6.147	9.440	19.58	40.40	44.61	21.03	3.474	0.520	0.480	0.520	0.427	0.450	0.498	0.475
280.0	112.7	154.3	161.1	105.6	54.91	65.26	184.4	609.3	468.1	355.9	705.9	 3367	 9501	 2378	116.4	9.684	6.779	6.049	5.279	3.879	3.452	2.648	2.591	2.946	2.001	1.769	1.805	1.853	1.552	1.417	1.758	1.341	1.213	1.125	1.194	1.017	1.123	1.059	0.968	0.922	1.100	0.989	0.961	0.882	1.278	1.222	1.232	0.993	1.056	1.058	0.870	0.746	0.706	0.712	0.825	0.806	1.376	2.222	3.295	3.353	1.969	1.336	1.767	2.358	3.029	5.747	15.25	34.97	51.08	39.58	12.60	1.407	0.659	0.503	0.487	0.443	0.595
285.0	142.5	199.6	205.0	134.8	70.77	60.83	104.2	361.1	799.4	402.8	349.0	974.3	 4647	9999.9	 1734	56.49	8.527	6.566	5.341	4.170	3.802	3.036	2.966	2.916	2.371	1.908	1.664	1.904	1.748	1.627	1.923	1.133	1.311	1.278	1.326	1.006	1.396	1.097	1.158	1.010	1.199	0.891	1.118	1.017	1.192	1.675	1.665	1.288	1.412	1.193	0.919	0.910	0.768	0.695	0.826	0.645	1.121	1.220	1.991	3.320	4.046	2.533	1.551	1.582	1.511	2.262	4.596	10.16	22.99	46.06	54.14	29.23	5.424	0.766	0.441	0.557	0.511
290.0	170.4	242.3	265.1	172.3	96.29	83.84	107.5	206.9	540.0	881.8	457.0	483.2	 1296	 4348	 8019	 5000	100.0	11.53	6.802	5.376	4.208	3.803	3.105	2.939	2.527	2.073	1.808	1.919	1.919	1.846	1.692	1.482	1.305	1.346	0.978	1.202	1.574	1.206	1.155	1.124	1.256	1.050	1.061	1.407	1.230	1.806	1.588	1.608	1.529	1.296	1.113	0.988	1.178	0.822	0.813	0.857	1.012	0.963	1.291	1.885	2.856	3.952	4.495	3.321	2.173	2.027	2.359	3.458	6.415	12.88	23.44	34.98	41.46	35.82	19.58	4.811	0.712
295.0	179.1	258.3	280.3	199.0	126.2	117.5	148.4	198.0	324.5	650.2	 1170	518.2	596.3	 1176	 2430	 8527	 6530	132.1	9.872	7.159	5.112	4.167	3.517	3.091	2.712	2.454	2.458	1.846	2.014	2.160	1.572	1.360	1.464	1.004	1.276	1.334	1.188	1.318	1.333	1.231	1.141	1.133	1.165	1.269	1.436	1.631	1.425	1.846	1.534	1.433	1.139	1.073	1.169	0.919	1.092	1.058	1.050	1.236	1.063	1.601	1.795	2.158	3.221	4.897	5.403	3.684	2.439	2.331	2.944	4.203	6.563	9.010	12.27	25.39	53.79	53.83	25.76
300.0	190.1	272.9	281.9	211.9	163.9	157.7	179.1	227.8	306.0	477.5	 1026	 1181	560.3	538.0	727.1	 3052	9999.9	 1412	87.33	9.405	6.413	3.882	3.942	3.248	2.760	3.303	2.548	2.217	2.228	1.863	1.124	1.425	1.271	1.334	1.349	1.211	1.270	1.273	1.349	1.563	1.260	1.219	1.281	1.184	1.698	1.866	1.422	1.779	1.410	1.489	1.221	1.179	1.179	0.980	1.369	1.472	1.186	1.399	1.337	1.636	1.610	1.831	2.350	3.189	4.931	6.375	4.684	3.024	2.161	2.342	2.792	3.416	4.070	6.910	18.98	43.30	66.30
305.0	179.5	265.5	289.3	222.7	179.7	181.1	201.4	257.6	331.7	450.2	714.4	 1339	929.8	469.6	388.6	844.7	 4232	 9646	 1159	46.93	8.012	5.438	4.336	4.122	4.000	2.949	2.720	2.225	2.059	2.403	1.629	1.634	1.395	1.556	1.372	1.498	1.197	1.314	1.302	1.088	1.238	1.080	1.160	1.284	1.403	1.897	1.403	1.660	1.371	1.476	1.368	1.272	1.219	1.050	1.286	1.210	1.250	1.318	1.595	1.845	1.704	1.992	2.441	2.260	3.263	4.458	6.660	6.232	3.523	2.422	2.328	2.172	2.172	2.468	5.155	12.07	29.59
310.0	175.3	235.8	299.4	242.9	212.9	202.3	235.2	299.0	373.9	470.3	629.2	918.8	 1256	890.9	418.4	387.6	 1100	 3929	 7173	 4219	73.28	8.720	6.120	4.873	3.662	3.027	3.174	2.216	2.165	2.134	1.801	1.797	1.872	1.484	1.393	1.496	1.182	1.373	1.458	1.248	1.226	1.202	1.288	1.279	1.478	1.588	1.470	1.669	1.577	1.552	1.218	1.498	1.114	1.239	1.279	1.284	1.519	1.442	1.843	1.961	2.114	2.151	2.396	2.478	2.826	3.314	4.564	5.348	6.021	5.406	3.880	2.704	2.154	1.730	2.451	3.714	7.737
315.0	221.1	286.7	318.4	251.4	228.9	221.6	273.0	331.6	431.2	541.2	657.6	818.5	968.1	 1283	819.6	373.2	426.7	999.5	 2119	 7459	 5866	98.85	8.826	6.183	4.417	3.402	3.504	2.848	2.366	2.263	1.952	2.050	1.794	1.457	1.385	1.533	1.213	1.456	1.338	1.250	1.156	1.277	1.586	1.777	1.782	1.763	1.763	2.000	1.470	1.535	1.259	1.417	1.113	1.459	1.529	1.474	1.672	2.018	1.776	1.928	2.202	2.376	2.716	2.908	3.239	3.068	3.811	3.833	4.248	5.129	6.301	5.384	3.482	2.077	2.120	2.575	3.046
320.0	249.3	379.4	394.6	337.8	248.8	250.6	314.7	382.6	488.4	603.8	746.2	858.5	933.3	 1120	 1248	567.7	349.5	387.7	596.2	 2696	 9173	 4133	67.18	8.984	5.587	4.300	3.763	3.278	2.841	2.355	2.471	2.082	2.052	1.424	1.470	1.404	1.473	1.585	1.349	1.531	1.317	1.079	1.619	1.895	1.749	1.998	2.044	1.947	2.239	1.672	1.413	1.452	1.459	1.630	1.623	1.842	1.602	2.049	1.837	2.097	2.323	2.390	2.689	3.132	3.599	3.595	3.797	4.296	4.157	4.237	5.230	6.578	6.620	3.638	2.738	2.300	1.916
325.0	270.6	420.9	548.9	441.9	316.9	279.7	339.1	411.6	522.0	649.5	795.5	928.6	973.5	981.4	 1202	957.3	429.8	314.8	296.1	738.4	 4114	 9067	870.3	40.23	7.028	4.892	4.008	3.313	2.796	2.380	2.167	2.049	1.951	1.659	1.549	1.454	1.614	1.655	1.366	1.317	1.549	1.242	1.364	1.820	1.940	2.154	2.032	2.468	2.416	1.995	1.687	1.957	1.481	1.474	1.608	1.595	2.099	2.029	1.948	2.445	2.612	2.644	2.837	3.252	3.886	3.873	4.411	3.989	3.870	4.605	4.601	5.212	6.576	6.630	4.402	2.733	2.446
330.0	298.9	467.6	596.9	544.6	400.1	344.5	365.7	449.3	556.1	705.1	857.5	993.4	 1042	 1005	992.9	 1055	820.8	434.6	313.4	351.9	 1090	 3782	 6080	 3408	57.88	8.524	5.345	4.093	3.547	2.641	2.444	2.458	1.958	1.672	1.631	1.578	1.549	1.390	1.615	1.367	1.381	1.456	1.674	1.877	2.224	2.329	2.500	2.841	2.848	2.515	2.242	2.349	1.686	1.798	1.828	1.724	2.196	1.985	2.416	2.520	2.627	2.728	3.221	3.447	3.648	4.373	4.478	4.477	4.360	4.736	4.433	4.764	5.102	5.243	5.800	5.752	4.106
335.0	302.5	535.8	669.8	638.7	500.5	417.0	420.0	498.2	609.5	766.7	918.1	 1063	 1122	 1093	 1006	909.8	989.6	815.4	441.7	353.3	458.7	985.6	 1958	 7114	 4882	79.00	8.772	5.857	3.940	3.223	3.313	2.537	1.980	2.187	1.830	1.479	1.736	1.397	1.395	1.408	1.489	1.434	1.651	1.785	2.098	2.286	2.629	3.191	2.855	2.693	2.323	2.321	2.000	2.124	1.765	2.069	2.283	2.270	2.707	2.845	3.024	2.706	3.510	3.897	3.458	4.211	4.632	4.939	4.400	5.305	5.007	4.767	4.551	4.155	4.898	4.889	5.513
340.0	297.8	486.5	701.9	707.1	575.6	472.9	461.9	539.4	648.5	793.3	937.1	 1076	 1130	 1134	 1026	899.8	882.9	 1037	662.9	412.1	367.1	412.2	566.9	 2832	 8401	 3547	54.67	8.077	5.178	3.731	3.665	2.540	2.205	1.676	1.675	1.680	1.417	1.681	1.430	1.469	1.431	1.453	1.839	1.878	2.226	2.369	2.894	2.883	3.056	2.841	2.697	2.636	2.687	2.302	1.844	2.327	2.290	2.456	2.493	2.880	3.198	2.981	3.808	4.106	3.770	4.609	4.751	4.878	5.041	5.604	5.184	4.993	4.842	4.389	4.741	4.204	5.034
345.0	283.8	484.4	674.6	743.1	620.4	548.2	518.5	569.7	703.5	839.6	956.8	 1089	 1150	 1149	 1073	944.6	842.7	949.2	941.9	541.5	406.1	338.1	301.6	772.5	 4136	 8428	726.5	32.54	7.081	5.002	4.424	2.732	2.141	1.706	1.976	1.733	1.694	1.620	1.575	1.476	1.535	1.361	1.717	1.875	2.455	2.279	2.581	3.026	3.085	3.039	2.753	2.661	2.359	2.787	2.368	2.246	2.445	2.865	2.879	2.998	3.209	3.524	3.744	4.016	4.147	4.263	4.755	4.511	4.949	5.352	5.149	4.821	4.807	4.648	4.891	4.461	4.291
350.0	254.9	456.5	663.5	741.4	676.1	618.3	614.8	672.2	788.9	912.5	 1008	 1108	 1162	 1163	 1113	 1003	894.3	862.9	945.3	871.5	568.3	416.9	328.0	359.3	 1104	 3877	 5565	 2903	50.72	8.052	5.000	3.238	2.732	2.608	2.206	1.761	1.678	1.669	1.504	1.553	1.489	1.493	1.651	1.824	2.071	2.362	2.571	2.980	2.928	2.775	2.652	2.793	2.717	2.720	2.777	2.702	2.805	2.697	3.292	2.969	3.400	3.608	4.264	4.237	4.440	4.254	4.766	4.796	5.473	5.153	4.911	5.075	5.245	5.103	5.198	5.075	4.831
355.0	230.3	435.7	638.1	754.1	733.5	722.4	700.5	792.1	910.2	 1024	 1103	 1161	 1198	 1190	 1136	 1067	978.0	912.3	892.4	960.6	895.8	572.0	434.6	359.8	455.6	 1010	 1993	 7013	 4221	68.13	7.523	4.980	3.348	2.987	2.468	1.706	1.783	1.816	1.675	1.352	1.571	1.276	1.566	1.757	1.932	2.252	2.290	2.973	2.629	2.665	2.576	2.953	2.964	3.233	2.891	2.939	3.169	3.239	3.464	3.504	3.791	3.779	4.299	4.239	4.743	4.332	5.577	4.878	5.582	5.029	5.349	5.217	5.558	5.442	5.286	5.363	5.339
360.0	235.6	398.6	615.3	741.3	758.3	770.4	813.7	883.0	989.2	 1093	 1191	 1195	 1234	 1222	 1168	 1100	 1033	973.0	920.4	928.1	 1027	791.5	546.1	435.4	378.7	420.3	587.4	 3081	 8370	 2857	45.18	7.227	4.683	3.397	2.433	2.144	1.852	1.820	1.910	1.903	1.613	1.608	1.668	1.653	1.705	2.364	2.231	2.764	2.840	2.798	2.829	3.113	3.090	3.110	3.211	3.283	3.887	3.451	3.822	3.795	4.087	4.459	4.786	4.946	4.707	4.834	5.298	5.302	5.450	5.069	5.334	5.358	5.462	5.750	5.963	5.851	6.075
365.0	221.7	387.2	600.2	741.0	832.1	847.2	896.9	952.4	 1069	 1151	 1237	 1251	 1242	 1217	 1210	 1128	 1082	 1032	983.5	943.2	981.7	 1009	705.1	528.6	436.5	354.9	314.7	855.4	 4644	 7665	629.0	23.65	6.677	4.566	2.681	2.318	2.170	1.644	1.836	1.812	1.451	1.815	1.771	1.657	1.723	2.173	1.938	2.496	2.662	2.721	2.907	3.167	3.348	3.429	3.576	3.821	4.006	4.002	4.082	4.591	4.264	4.769	4.794	4.887	4.944	5.151	5.210	5.253	5.477	5.199	5.261	5.311	6.052	6.092	5.678	6.203	6.015
370.0	229.4	380.9	600.6	767.9	853.9	912.5	970.7	 1027	 1126	 1239	 1299	 1303	 1267	 1250	 1224	 1162	 1122	 1098	 1055	 1025	988.4	 1034	979.1	729.0	563.3	445.2	342.0	387.7	 1244	 3920	 5420	 2476	41.06	7.186	3.876	3.141	2.288	1.769	1.901	1.822	1.636	1.522	1.723	1.765	1.706	2.254	2.090	2.734	2.925	2.588	2.811	3.108	3.348	3.762	3.681	3.603	4.075	4.374	4.053	4.488	4.522	4.894	5.240	5.336	5.460	5.424	5.276	5.460	5.580	5.666	5.954	5.764	6.156	5.943	5.712	6.364	6.430
375.0	236.8	390.1	566.9	769.4	900.6	963.9	 1019	 1096	 1179	 1317	 1365	 1361	 1312	 1270	 1234	 1191	 1162	 1147	 1138	 1113	 1074	 1048	 1064	 1022	742.8	581.6	452.2	371.2	479.1	 1014	 2170	 6791	 3383	51.94	7.231	4.161	3.133	2.352	1.794	1.721	1.622	1.422	1.699	1.749	1.943	2.269	2.095	2.756	2.688	2.443	2.778	3.318	3.547	3.680	4.281	3.752	4.071	4.628	4.173	4.416	4.878	5.057	5.442	5.317	6.041	6.083	5.609	5.617	5.503	5.916	5.614	5.778	5.627	6.205	6.010	6.487	6.255
380.0	239.9	376.4	579.6	777.7	918.1	 1035	 1069	 1150	 1212	 1346	 1405	 1389	 1342	 1267	 1233	 1199	 1168	 1164	 1167	 1156	 1122	 1085	 1057	 1118	939.9	706.0	549.9	432.3	367.3	403.5	622.3	 3218	 7176	589.8	32.76	5.843	4.189	2.549	2.394	2.014	1.844	1.550	1.817	1.848	2.058	2.083	2.217	3.069	2.689	2.825	2.775	3.578	3.902	4.062	3.952	3.920	4.417	4.552	4.813	5.271	5.066	5.112	5.510	5.998	5.799	6.161	6.022	6.263	5.875	5.637	6.078	6.501	5.860	5.560	5.819	6.577	6.611
385.0	240.2	390.2	569.7	774.4	927.0	 1039	 1090	 1142	 1262	 1342	 1408	 1370	 1328	 1270	 1244	 1188	 1178	 1175	 1188	 1178	 1166	 1129	 1086	 1080	 1100	845.9	637.4	503.5	393.0	317.3	287.2	874.1	 4282	 6101	487.6	16.02	5.010	3.690	2.985	2.508	2.354	1.853	2.209	1.833	1.868	2.090	2.487	2.832	2.616	2.795	2.893	3.441	3.892	3.877	4.065	4.107	4.594	4.629	4.772	5.530	5.482	5.730	5.661	5.511	5.667	6.132	5.884	5.980	6.131	6.042	5.654	5.866	5.883	5.637	5.803	6.317	6.367
390.0	228.3	364.6	577.2	763.8	904.0	 1015	 1121	 1160	 1261	 1338	 1392	 1364	 1317	 1273	 1225	 1190	 1163	 1186	 1198	 1200	 1192	 1164	 1123	 1078	 1080	 1018	786.9	605.7	480.2	368.0	274.7	343.3	 1140	 3483	 4534	 1721	31.90	5.690	3.962	2.800	2.608	2.387	1.936	1.888	2.055	2.098	2.202	2.469	2.526	2.715	2.724	3.631	3.562	4.036	4.212	4.247	4.381	4.491	4.610	5.083	4.993	5.242	5.283	5.384	5.742	5.783	5.889	5.930	5.932	5.770	5.407	5.923	5.774	6.144	6.246	6.192	6.055
395.0	234.8	352.4	559.1	753.5	915.3	 1000	 1089	 1157	 1239	 1326	 1362	 1348	 1298	 1242	 1216	 1147	 1149	 1152	 1184	 1192	 1201	 1189	 1152	 1105	 1064	 1036	979.5	744.7	574.7	456.0	351.6	280.7	397.1	877.4	 1948	 5503	 2518	40.93	5.911	3.754	3.103	2.225	2.472	2.087	1.952	2.097	2.604	2.812	2.713	2.570	3.105	3.495	3.464	3.798	4.503	4.044	4.619	4.834	4.720	5.401	5.325	4.803	5.445	5.439	5.500	5.942	5.668	5.643	5.670	5.406	5.715	5.559	6.029	5.921	6.394	6.087	6.460
400.0	230.6	343.1	537.1	752.1	868.1	 1004	 1104	 1187	 1225	 1287	 1336	 1335	 1291	 1227	 1190	 1135	 1121	 1141	 1162	 1178	 1198	 1187	 1153	 1118	 1065	 1022	 1023	891.0	666.4	529.8	408.2	317.8	266.3	318.5	534.1	 2767	 5572	488.1	23.42	4.797	3.363	2.881	2.477	2.146	2.405	2.345	2.384	2.564	2.658	2.413	2.718	3.381	3.372	3.914	4.152	4.414	4.373	5.024	4.298	5.358	4.857	5.053	5.457	5.189	5.895	5.448	5.843	5.842	5.405	5.890	5.566	5.618	6.274	6.126	6.131	6.086	6.617
405.0	234.7	359.6	541.6	737.5	855.5	 1017	 1098	 1150	 1205	 1278	 1307	 1298	 1255	 1195	 1145	 1104	 1106	 1110	 1144	 1155	 1175	 1168	 1153	 1124	 1070	 1023	987.2	967.6	773.7	596.9	470.3	371.2	278.6	222.5	220.8	745.7	 3509	 3933	398.1	11.26	4.553	3.296	3.010	2.290	2.551	2.177	2.506	2.430	2.383	2.654	2.758	3.515	3.640	4.122	3.980	4.132	4.281	4.725	4.471	5.095	5.146	5.155	5.199	5.525	5.583	5.637	5.541	5.332	5.129	5.360	5.037	5.428	5.774	5.721	5.993	5.972	6.046
410.0	227.0	347.4	536.3	692.5	853.3	979.7	 1068	 1120	 1194	 1253	 1271	 1260	 1220	 1158	 1108	 1067	 1049	 1058	 1094	 1112	 1129	 1135	 1124	 1106	 1072	 1028	973.8	946.5	902.9	723.9	560.7	441.5	335.7	247.3	184.0	255.9	926.6	 2605	 3656	 1389	26.57	5.102	3.590	2.861	2.541	2.290	2.579	2.636	2.790	2.719	2.694	3.362	3.649	3.596	3.738	4.269	4.377	4.526	4.562	4.983	4.672	5.305	5.087	5.332	5.334	5.482	5.372	4.983	5.231	5.351	5.214	5.106	5.309	5.604	5.685	5.777	6.032
415.0	215.9	352.4	524.5	691.2	833.7	950.8	 1026	 1102	 1169	 1215	 1261	 1227	 1184	 1105	 1050	 1016	993.4	 1010	 1028	 1055	 1068	 1076	 1073	 1074	 1053	 1030	972.4	916.4	901.6	868.2	670.1	516.1	400.6	296.5	215.9	175.6	284.6	634.7	 1578	 4275	 1881	34.26	4.555	3.631	2.752	2.858	2.092	2.575	2.702	2.608	2.464	3.146	3.318	3.931	3.335	3.985	4.131	4.422	4.571	4.979	4.257	5.142	5.202	4.969	5.070	5.476	5.268	5.247	5.088	5.366	5.051	5.169	5.029	4.910	5.070	5.952	5.710
420.0	203.9	351.5	477.1	655.6	816.0	938.7	 1005	 1095	 1151	 1183	 1212	 1192	 1134	 1063	 1029	973.3	947.1	960.3	986.8	 1006	 1012	 1030	 1040	 1050	 1036	 1014	974.6	921.6	882.7	881.1	766.7	572.9	440.5	340.6	244.2	176.8	156.2	202.0	411.0	 2203	 4287	443.6	18.80	4.460	3.021	2.903	2.435	2.876	2.573	2.523	2.676	3.530	2.933	3.674	3.220	3.578	4.258	4.738	4.424	4.292	4.839	4.927	5.072	4.968	4.928	4.784	4.935	4.939	5.165	4.980	4.977	4.828	5.332	4.972	4.862	5.492	6.116
425.0	205.2	324.8	495.3	649.1	765.5	881.8	992.6	 1082	 1121	 1178	 1196	 1143	 1105	 1030	970.6	924.6	903.6	925.2	942.8	963.8	976.1	 1000	 1001	 1007	 1009	987.5	955.9	919.1	883.1	850.4	821.9	646.6	482.3	369.4	272.5	196.1	142.8	119.2	142.3	585.1	 2746	 3473	350.4	8.776	3.823	3.354	2.828	2.818	2.602	2.545	2.361	3.287	3.026	3.538	3.990	3.769	4.244	4.686	4.122	4.796	4.780	4.916	4.726	5.275	4.852	4.484	4.825	4.767	4.611	4.405	4.799	4.645	4.632	4.737	5.344	5.276	5.302
430.0	296.2	305.1	449.4	628.1	748.0	847.4	958.3	 1056	 1109	 1147	 1164	 1122	 1061	994.8	925.7	877.9	854.6	868.9	886.7	904.1	911.5	935.5	948.1	955.5	964.8	954.4	943.9	912.0	882.7	831.9	788.1	723.1	555.9	404.5	301.1	223.9	160.7	117.8	96.03	176.5	712.5	 2121	 2948	 1139	24.42	4.563	3.326	3.280	2.677	2.676	2.485	2.966	2.949	3.543	3.518	3.964	4.145	4.030	4.218	4.222	4.648	4.811	4.744	4.764	4.585	4.913	4.970	4.391	4.387	4.536	4.749	4.458	4.680	4.444	4.742	4.915	4.868
435.0	589.0	318.7	433.8	619.5	709.8	795.1	938.6	998.4	 1059	 1117	 1134	 1083	 1022	936.8	872.3	826.2	802.9	801.6	824.6	840.5	856.6	869.5	879.5	904.2	913.7	912.6	907.5	891.3	867.3	824.4	761.3	698.9	622.8	459.1	332.0	249.8	184.3	135.6	99.64	95.25	199.1	505.1	 1235	 3452	 1645	31.52	4.760	3.460	3.055	2.835	2.454	2.879	2.743	3.498	3.193	3.339	3.927	4.434	3.959	3.962	4.357	4.593	4.885	4.787	4.982	4.557	5.162	4.277	4.182	4.292	4.530	4.275	4.650	4.579	4.402	4.409	5.031
440.0	723.7	431.3	446.8	589.4	701.0	788.2	880.5	997.9	 1020	 1098	 1077	 1044	994.1	909.6	840.7	792.0	770.5	766.6	768.8	784.7	813.7	821.4	841.6	851.6	871.3	880.9	881.5	864.5	845.5	809.6	748.1	666.5	617.8	508.1	358.7	267.9	199.6	148.9	110.4	84.66	91.67	147.0	313.5	 1745	 3625	404.3	19.40	4.147	3.584	3.045	2.675	2.925	3.053	3.423	3.373	3.478	3.882	3.898	4.000	4.287	4.445	4.505	4.622	4.643	4.479	4.600	4.227	4.068	4.969	4.160	4.180	4.107	4.560	4.290	4.465	4.504	4.929
445.0	621.9	736.4	422.1	540.0	651.0	780.6	860.7	939.9	 1011	 1068	 1066	 1024	964.7	875.2	810.2	757.1	731.8	722.0	729.0	744.7	760.6	783.0	793.8	812.1	832.3	839.2	844.6	839.4	818.3	786.6	729.6	647.9	580.1	528.3	399.6	278.6	211.5	161.2	122.8	93.94	74.42	73.50	100.3	452.3	 2282	 3173	316.3	9.327	4.397	3.101	2.854	3.222	3.083	3.497	3.576	3.481	3.898	4.492	4.270	4.094	4.466	4.605	4.466	4.147	3.966	4.393	4.270	3.633	4.271	3.840	3.926	4.034	4.045	4.107	4.158	4.115	4.555
450.0	338.7	 1047	680.6	513.3	628.8	726.4	813.2	895.0	967.6	 1000	992.0	973.3	899.3	820.5	755.0	706.2	671.8	658.6	674.3	688.2	694.3	714.7	729.6	748.3	764.8	778.4	788.7	784.2	779.6	753.9	703.8	633.3	548.1	486.2	425.7	316.7	226.6	177.0	135.9	107.1	83.99	66.97	59.04	129.1	585.3	 1873	 2663	 1132	22.16	4.377	3.423	3.336	3.146	3.223	3.218	3.304	3.753	3.657	4.007	4.023	3.888	4.379	4.221	3.991	3.783	4.004	4.256	4.135	4.139	4.016	3.884	3.670	3.828	4.004	3.856	3.716	3.854
455.0	175.1	761.6	 1404	534.9	545.7	678.2	763.8	851.1	889.0	934.5	946.7	903.0	840.0	758.5	699.8	645.2	617.7	610.4	608.3	619.8	632.8	640.5	662.5	680.7	694.1	710.2	723.3	730.3	725.6	705.2	663.2	604.8	517.6	447.3	394.9	344.4	254.9	187.4	146.4	116.4	92.86	73.48	57.10	62.40	157.0	439.4	 1037	 3122	 1596	27.42	4.317	3.638	3.229	3.333	3.117	3.001	3.250	3.581	3.717	4.149	3.829	4.238	3.883	3.558	3.915	3.706	4.197	3.764	3.717	3.695	3.362	3.297	3.430	3.356	3.533	3.488	3.742
460.0	146.4	417.3	 1760	852.3	535.6	615.8	727.5	795.4	854.6	864.6	870.5	854.3	798.3	712.0	663.2	607.0	571.8	572.6	555.8	570.9	582.3	585.1	607.9	629.1	633.9	660.0	670.4	670.6	673.5	668.3	627.0	569.9	500.5	422.4	367.0	334.5	281.0	197.7	152.1	123.9	99.40	79.44	61.64	50.66	64.31	121.0	256.9	 1454	 3256	321.1	18.71	4.285	3.545	3.272	3.034	3.004	3.327	3.471	3.423	3.709	3.829	3.845	4.236	3.497	4.004	3.699	3.823	3.666	3.935	3.130	3.474	3.915	3.380	3.227	3.796	3.245	3.502
465.0	141.5	258.5	 1392	 1378	513.0	600.0	669.5	741.5	796.9	833.8	830.3	808.9	740.2	680.8	621.7	571.6	527.8	530.0	516.6	530.2	533.5	547.0	565.2	576.8	592.3	606.0	626.2	629.9	629.3	620.8	591.1	541.8	473.6	402.2	342.1	301.6	283.0	218.0	156.5	125.9	105.0	83.85	66.23	51.76	48.02	53.12	78.26	366.0	 1852	 2537	282.9	10.95	4.367	3.396	3.085	3.254	3.005	3.275	3.405	3.719	3.698	3.524	3.673	3.360	3.363	3.809	3.566	3.750	3.643	3.282	3.407	3.336	2.803	3.327	3.500	2.785	3.442
470.0	142.6	208.3	684.8	 1895	930.3	545.8	593.0	682.5	714.7	762.2	760.1	750.0	682.4	622.3	562.4	517.6	476.2	474.1	463.5	479.5	475.4	485.1	497.9	513.4	529.2	541.4	555.2	564.4	570.1	561.6	540.7	490.7	434.1	375.7	319.2	272.3	248.3	226.1	173.5	129.0	107.6	86.83	71.43	58.23	47.81	41.44	40.28	100.7	461.8	 1405	 2015	912.1	22.64	4.049	3.546	3.056	3.241	3.148	3.123	3.463	3.435	3.253	3.313	3.374	3.026	3.068	3.207	3.109	3.413	3.102	3.213	2.935	3.046	3.281	3.018	2.771	3.108
475.0	128.5	191.4	351.5	 1252	 2107	586.9	556.3	616.7	657.7	690.3	702.7	669.6	624.3	555.1	505.9	464.9	430.2	424.3	418.2	422.1	422.8	428.3	436.3	453.0	470.6	475.5	486.4	493.6	504.4	496.8	487.7	443.2	390.6	339.5	294.0	249.0	218.1	202.2	190.2	140.8	107.5	89.45	74.31	61.76	50.56	42.12	36.30	43.15	120.7	326.7	708.5	 2027	 1205	32.29	4.349	3.232	3.255	3.018	3.160	3.198	3.127	3.373	2.953	3.212	2.739	2.632	3.185	2.698	2.967	2.986	2.677	2.707	2.547	2.833	2.798	2.542	2.780
480.0	111.0	181.9	254.3	626.5	 2399	978.2	532.4	575.4	616.9	636.7	644.1	628.2	585.3	513.8	463.5	434.2	404.2	392.3	394.1	383.1	383.8	383.0	399.2	407.3	428.2	434.6	444.1	453.1	461.1	457.9	442.5	407.3	366.2	315.1	273.1	236.8	203.4	180.7	179.1	156.4	113.4	90.29	75.56	63.86	52.78	45.54	36.47	33.19	45.80	88.86	174.2	871.3	 2244	377.9	20.67	3.949	3.183	3.186	2.899	2.823	3.032	3.000	3.171	2.843	2.999	2.820	3.123	2.696	2.856	2.886	2.455	2.675	2.645	2.727	2.383	2.626	2.459
485.0	111.6	196.0	224.6	361.4	 1849	 1849	515.4	516.8	583.5	597.9	613.5	573.0	542.0	478.0	432.8	400.0	373.4	360.8	356.5	348.3	356.5	359.9	361.8	370.8	388.9	401.8	410.6	411.9	429.0	420.6	404.8	380.7	339.6	299.5	257.1	225.1	198.0	169.9	158.7	157.4	124.1	94.30	77.66	63.92	55.60	46.71	39.37	32.66	31.14	35.93	52.32	216.7	 1183	 2066	316.1	10.47	3.726	3.147	2.716	3.135	2.722	2.774	3.169	3.081	3.046	2.645	2.883	2.389	2.739	2.598	2.486	2.485	2.545	2.470	2.334	2.517	2.441
490.0	91.30	174.4	221.1	290.0	854.3	 2285	 1103	476.4	524.4	536.5	551.2	529.5	490.9	442.2	398.0	361.3	336.0	325.7	315.8	315.7	319.2	321.7	325.8	330.5	343.8	356.1	364.7	370.7	379.2	376.9	367.4	346.7	307.6	272.9	236.8	208.1	184.2	159.5	141.0	140.4	130.5	104.2	80.70	67.10	57.07	48.16	42.31	34.84	30.00	26.24	26.52	60.35	291.7	993.1	 1657	803.3	24.48	3.917	3.099	2.865	2.733	2.647	2.994	2.615	2.725	2.322	2.589	2.334	2.734	2.495	2.324	2.202	2.228	2.432	2.300	2.442	2.226
495.0	84.23	148.7	230.3	248.1	415.2	 1401	 2441	540.5	464.2	487.6	501.0	471.7	443.6	406.4	362.1	326.1	303.2	288.4	282.2	279.6	278.3	281.6	287.7	291.8	301.7	307.4	316.5	323.9	327.9	331.8	317.2	303.1	273.9	245.8	213.6	188.4	167.0	150.8	131.2	121.6	117.7	115.0	88.74	69.01	57.96	50.84	42.33	37.32	31.05	26.50	22.32	26.96	75.62	231.4	571.9	 1768	 1210	33.30	3.625	2.792	2.807	2.390	2.445	2.842	2.642	2.038	2.095	2.185	2.477	2.070	2.273	2.244	2.132	2.300	2.315	2.184	2.182
500.0	69.01	111.0	216.3	242.9	297.4	689.0	 2878	814.2	421.6	448.0	453.8	433.9	409.2	369.1	327.2	291.0	276.2	263.5	252.7	253.4	252.1	255.3	257.0	260.9	271.6	275.2	284.6	293.1	300.2	295.2	291.3	273.6	246.1	222.7	199.8	177.3	154.4	140.7	124.0	111.2	104.9	108.1	95.37	72.94	58.46	51.37	44.25	38.52	33.12	27.34	21.24	20.46	28.37	61.18	138.4	743.5	 2128	390.4	20.77	3.030	2.909	2.617	2.242	2.503	2.342	2.205	2.058	1.950	2.254	1.920	2.111	1.791	1.912	2.045	1.756	1.710	1.836
505.0	56.71	105.8	184.1	246.0	250.2	384.1	 2200	 2285	407.2	412.7	421.9	409.4	369.5	349.8	302.4	273.7	245.5	247.5	230.2	232.0	225.8	230.0	234.1	235.3	250.3	248.8	258.7	263.4	272.7	272.6	266.9	251.3	230.3	203.1	184.1	162.7	142.5	132.8	115.1	105.1	95.92	96.20	95.17	75.52	58.67	52.55	45.89	38.11	33.06	27.39	22.51	19.68	18.03	23.31	39.72	182.9	 1091	 1911	331.1	8.531	3.220	2.638	2.338	2.313	2.345	2.239	2.117	2.100	2.188	1.957	1.785	1.789	1.762	1.969	1.809	1.902	1.579
510.0	58.37	86.30	154.5	229.6	234.5	278.6	911.5	 3021	943.7	376.2	376.4	357.7	339.6	307.7	271.0	240.9	223.8	212.1	207.8	204.1	201.5	202.2	205.5	208.1	216.6	216.3	224.4	229.9	232.9	236.1	230.8	221.6	203.3	181.4	162.6	145.3	129.8	118.0	105.1	97.75	87.20	82.51	82.44	79.72	63.30	49.96	42.82	38.60	32.75	28.63	22.85	19.85	17.07	15.92	17.95	48.84	266.4	911.6	 1462	677.0	23.20	3.191	2.540	2.436	2.286	1.923	2.007	1.985	1.970	1.941	1.792	1.534	1.567	1.387	1.618	1.663	1.506
515.0	52.00	82.91	117.4	188.1	244.1	222.6	395.8	 1650	 2232	418.7	332.3	316.7	289.8	273.3	236.2	211.5	190.9	185.0	178.2	177.4	175.8	173.5	178.5	179.8	185.8	187.4	190.8	196.3	203.8	203.9	198.1	191.1	174.8	156.2	142.2	128.4	117.5	105.7	97.70	87.04	80.70	72.95	68.61	69.10	70.22	53.13	41.46	37.87	32.19	28.34	23.11	20.88	17.41	14.39	13.81	19.41	66.08	209.9	506.8	 1524	972.7	30.41	2.887	2.244	2.291	2.051	1.848	1.656	1.955	1.561	1.488	1.588	1.485	1.505	1.496	1.533	1.324
520.0	53.24	75.67	113.0	165.5	245.3	212.4	262.2	703.6	 2603	631.5	296.1	287.4	254.9	239.9	211.6	192.3	179.6	171.2	159.0	159.1	157.1	157.8	160.1	160.2	161.2	165.0	168.6	172.3	181.1	180.7	177.8	170.5	156.7	141.3	128.5	117.0	105.8	97.83	89.28	80.64	73.77	67.16	61.17	59.80	64.97	56.73	43.11	36.95	31.13	27.26	23.82	20.91	17.54	14.29	12.39	12.57	22.11	53.62	121.6	652.5	 1709	372.9	17.29	2.064	2.252	1.938	1.755	1.416	1.393	1.232	1.250	1.475	1.428	1.405	1.477	1.299	1.451
525.0	52.95	71.02	94.43	128.8	234.1	221.5	224.1	343.4	 1908	 1730	299.0	265.1	233.8	223.5	200.5	175.8	161.0	153.2	146.3	145.2	144.6	140.9	140.5	145.3	147.4	149.0	152.3	159.6	160.5	161.5	158.3	153.3	140.5	126.0	116.9	105.6	96.28	87.99	82.31	76.59	69.30	62.46	56.99	53.05	55.93	58.54	46.34	34.50	30.06	27.00	22.66	19.95	17.29	13.99	11.77	11.27	12.37	18.22	32.39	159.5	891.9	 1498	285.6	5.539	1.939	1.954	1.581	1.603	1.264	1.366	1.278	1.474	1.088	1.331	1.438	1.351	1.368
530.0	45.32	67.19	82.94	109.4	186.9	232.3	188.9	229.2	789.4	 2267	799.1	225.3	212.5	198.1	174.2	153.7	142.0	132.0	126.8	127.5	124.6	125.7	123.1	125.7	128.1	126.4	133.6	137.2	137.9	140.4	136.8	131.5	122.3	110.8	101.9	92.60	85.48	78.92	72.69	67.02	61.55	56.02	51.72	46.88	46.28	50.28	47.72	37.29	29.09	25.56	22.29	19.03	16.23	14.11	12.05	10.50	10.34	10.25	12.97	40.64	216.7	728.2	 1096	494.8	19.79	1.955	1.674	1.515	1.366	1.382	1.181	1.415	1.113	1.180	1.070	1.305	1.268
535.0	38.50	48.99	73.74	100.1	139.9	232.6	190.6	181.4	329.6	 1309	 2051	278.0	189.5	173.2	155.4	134.0	120.6	115.8	111.2	107.8	107.1	106.6	105.5	107.4	108.7	108.1	110.8	117.4	116.8	119.5	120.4	112.6	104.4	94.46	88.36	82.12	72.73	69.11	63.20	58.74	53.39	48.20	45.57	41.17	40.12	39.83	43.29	40.01	30.40	24.19	21.00	17.77	14.72	13.59	12.03	10.81	9.742	8.721	8.421	14.19	52.55	166.5	391.4	 1159	392.5	23.67	1.861	1.327	1.760	1.262	1.244	1.278	1.181	0.999	0.972	1.206	1.130
540.0	33.32	46.03	64.10	84.36	112.1	189.3	204.9	160.4	206.9	539.6	 2449	477.6	166.3	155.9	133.2	119.8	108.4	104.7	100.3	95.84	95.34	95.20	94.13	94.23	94.32	95.80	96.96	102.2	104.2	106.4	103.9	98.42	94.20	84.66	78.07	71.36	66.13	62.81	57.46	54.54	47.83	45.81	41.73	37.58	35.92	34.19	36.05	38.31	31.92	23.33	19.56	16.38	14.20	13.47	11.23	10.94	9.819	7.440	7.325	8.500	16.10	41.20	93.01	525.3	 1142	321.1	9.216	1.808	1.344	1.348	1.004	1.290	1.199	1.127	0.943	0.938	1.100
545.0	38.68	50.80	67.84	86.77	97.21	139.9	211.4	158.5	170.0	251.1	 1755	 1555	160.4	139.2	120.0	109.3	95.63	93.39	89.74	87.16	86.39	85.31	83.69	84.66	82.92	84.16	86.92	91.25	93.55	92.29	92.74	86.76	84.06	76.06	69.58	62.93	58.49	54.85	52.21	47.73	42.24	40.35	36.92	34.27	33.32	31.49	30.21	33.75	32.10	24.98	17.97	15.03	13.91	12.06	10.65	10.54	10.06	7.121	7.066	6.656	7.405	12.65	24.03	129.2	656.2	 1041	54.17	3.638	1.493	1.307	1.053	1.280	0.914	0.877	0.822	0.883	1.110
550.0	36.01	53.41	67.60	72.22	83.27	102.9	185.7	171.2	139.0	174.4	662.9	 2112	587.1	116.4	103.3	94.50	85.27	80.99	75.05	74.31	72.45	71.22	70.86	72.04	73.03	70.81	73.39	75.78	78.21	78.25	75.93	71.12	68.78	65.08	57.45	54.22	49.21	47.45	44.19	41.01	37.34	34.46	31.47	29.81	27.72	26.24	25.23	25.19	27.31	25.29	18.88	14.20	12.31	11.14	9.503	9.401	8.983	7.525	6.827	6.065	5.805	6.138	8.518	31.65	162.4	539.4	735.9	223.0	15.48	1.440	1.140	1.043	0.830	0.868	0.963	0.917	0.849
555.0	26.98	44.79	65.20	62.25	66.28	83.59	122.8	205.8	122.1	133.5	245.5	 1094	 1746	142.0	86.45	79.76	69.85	67.52	62.32	60.41	60.25	59.88	59.25	58.96	58.78	59.34	60.50	61.81	61.83	62.65	60.63	60.20	56.40	51.93	47.78	44.45	40.26	38.84	34.98	33.72	31.82	29.67	26.92	25.39	24.08	22.19	20.77	20.41	20.09	22.02	20.00	13.74	10.83	9.637	8.683	8.051	7.331	6.921	6.535	5.469	5.244	4.759	4.563	9.342	38.68	122.9	287.4	764.2	329.8	14.17	1.197	0.988	0.926	0.882	0.979	0.601	0.702
560.0	37.92	43.62	52.29	58.06	60.01	74.57	88.69	190.1	134.4	116.8	146.7	413.6	 2104	317.9	74.97	65.75	58.76	57.42	55.56	51.19	50.78	47.94	49.68	49.33	47.84	49.91	50.24	52.15	52.57	54.35	52.70	50.58	46.99	44.94	40.64	38.54	34.77	31.97	30.67	28.08	27.55	25.21	22.99	22.10	20.82	19.03	18.02	17.81	15.85	17.61	18.99	14.56	9.717	8.656	8.058	7.146	6.679	6.019	6.290	5.099	4.603	4.200	3.571	4.849	10.50	29.54	68.70	367.1	787.8	213.3	4.499	0.839	0.799	0.898	0.841	0.593	1.002
565.0	34.22	44.57	55.49	64.66	46.41	59.82	70.93	144.6	160.0	107.4	116.3	176.8	 1466	 1162	74.41	59.67	51.22	46.41	48.07	43.43	45.03	41.94	42.64	41.96	43.14	40.93	42.58	42.41	43.74	45.84	44.41	41.98	40.07	37.73	35.60	32.23	29.63	28.86	26.78	23.83	22.91	20.88	20.40	19.15	17.21	16.67	15.78	14.66	14.08	14.29	15.28	14.72	10.06	7.771	7.018	6.502	5.901	5.408	5.172	5.449	4.518	4.054	3.648	3.964	4.592	8.792	17.37	91.86	488.3	626.8	48.12	1.837	0.824	0.915	0.961	0.734	0.657
570.0	35.55	53.07	48.84	50.25	47.26	45.40	58.95	94.52	171.9	105.2	95.75	103.3	504.3	 1690	395.3	47.08	40.55	39.07	39.22	34.29	35.89	34.16	33.30	33.08	34.73	33.28	34.46	34.12	34.06	35.99	35.41	33.17	31.45	28.91	28.10	25.41	23.77	22.87	21.68	19.11	18.74	17.08	16.60	15.60	14.67	13.54	12.55	11.90	11.55	10.37	11.00	11.75	10.61	7.404	6.363	5.503	5.290	4.788	4.506	4.633	4.414	3.647	3.262	2.793	2.922	3.926	5.782	22.30	122.6	347.5	413.3	166.6	8.607	0.831	0.727	0.751	0.603
575.0	29.21	42.48	38.87	49.56	38.18	43.15	48.60	61.53	133.4	141.3	78.64	85.71	165.8	854.5	 1382	61.34	32.32	30.29	30.30	29.60	28.04	27.53	27.43	26.78	26.75	26.15	27.85	26.06	26.66	27.99	27.09	26.33	24.01	23.19	21.84	20.25	18.56	18.97	16.23	16.18	14.20	14.57	13.60	12.10	11.52	11.17	10.16	9.734	9.346	7.947	7.700	8.125	9.487	7.815	5.834	5.068	4.492	4.368	4.138	3.662	3.563	3.445	2.618	2.477	2.438	2.801	2.990	6.318	28.59	79.18	177.7	454.8	185.4	6.363	0.739	0.480	0.584
580.0	26.91	42.07	47.34	48.64	40.72	37.56	45.07	52.65	91.02	164.9	88.81	76.16	87.83	287.3	 1719	208.7	28.45	24.88	24.90	24.30	22.87	22.84	23.00	22.73	22.20	22.01	23.24	22.15	22.54	21.79	22.37	21.64	18.94	19.30	18.16	16.80	16.02	15.09	13.14	12.80	12.65	11.29	11.52	10.99	9.818	10.19	8.504	8.059	7.873	6.967	6.348	6.413	7.792	6.982	5.531	4.178	4.384	3.932	3.095	3.443	3.223	3.174	2.527	2.437	2.320	2.265	2.412	2.638	7.973	18.89	43.00	233.7	428.4	51.99	2.078	0.694	0.767
585.0	29.55	42.90	39.60	45.66	36.22	33.19	38.62	42.42	65.45	153.9	100.5	70.42	67.05	106.1	 1118	860.4	30.49	25.18	22.05	20.66	19.66	19.88	19.21	18.48	19.91	19.10	19.39	18.42	18.19	20.74	20.04	18.88	18.56	16.16	14.25	13.96	14.26	13.17	10.84	11.05	10.78	10.00	9.372	9.683	8.441	7.636	7.373	6.936	6.528	5.758	5.639	5.183	5.793	6.238	6.163	4.470	3.863	3.386	2.986	3.014	2.796	2.774	2.770	2.486	2.307	1.979	1.859	1.691	3.289	5.336	10.71	60.07	283.3	336.6	38.00	1.057	0.884
590.0	26.37	36.76	39.69	36.36	29.36	26.28	35.28	39.38	49.02	105.2	132.5	67.38	56.47	57.60	361.6	 1248	264.0	20.29	18.21	17.23	15.83	16.62	15.98	14.98	15.27	15.37	15.51	14.88	14.32	16.10	14.68	14.43	15.42	13.00	12.00	11.35	11.21	10.59	9.309	9.124	8.949	8.415	7.461	7.456	6.834	6.668	5.999	5.890	5.615	4.855	4.523	4.284	4.266	4.648	5.341	4.807	3.740	3.010	2.637	2.453	2.639	2.214	2.143	2.285	2.130	1.974	1.687	1.495	1.829	2.282	3.237	14.36	72.32	211.3	260.1	91.82	4.839
595.0	27.58	35.18	36.39	27.37	25.43	34.84	33.65	38.78	47.10	62.84	138.1	85.73	56.55	48.67	106.7	590.6	955.9	32.30	14.91	13.29	13.67	13.68	13.16	12.49	11.89	12.84	12.17	11.61	11.30	12.36	11.53	12.08	11.36	10.29	9.836	9.212	8.675	8.750	7.652	7.356	7.084	6.451	5.658	6.123	5.935	5.387	5.083	4.542	4.751	4.389	3.707	3.806	3.017	3.104	3.736	4.169	3.908	3.120	2.381	2.034	2.228	1.915	2.001	1.676	2.143	1.734	1.635	1.366	1.288	1.272	1.510	4.073	16.75	48.39	118.1	273.4	55.90
600.0	25.40	41.89	33.27	28.11	24.14	31.12	33.24	35.97	42.51	51.41	112.5	104.0	51.75	42.88	49.27	188.2	 1161	143.7	14.04	11.62	10.87	10.59	11.82	10.02	10.53	11.48	10.51	10.14	10.26	9.751	10.07	10.58	9.616	8.754	8.200	7.976	7.351	6.887	6.208	6.227	6.197	5.252	4.754	4.971	4.684	4.710	4.546	3.925	3.881	3.709	2.909	2.877	2.503	2.608	2.522	3.572	3.943	2.858	2.129	1.944	2.055	1.704	1.707	1.401	1.964	1.824	1.995	1.175	1.047	0.964	1.006	1.844	4.440	11.58	29.02	152.7	233.7
605.0	22.85	33.25	31.69	28.50	27.59	28.48	27.93	33.31	40.66	49.03	77.48	122.3	56.08	37.96	34.61	60.31	755.7	598.9	15.63	9.252	10.53	9.098	9.876	8.770	8.374	8.760	9.138	8.716	8.580	8.739	8.784	7.867	7.485	7.043	7.004	6.634	6.152	6.128	5.373	4.915	5.078	4.616	4.259	4.336	3.459	3.944	3.709	3.461	3.118	3.224	2.443	2.523	2.194	2.216	2.389	2.833	3.509	2.909	1.963	1.720	1.610	1.591	1.401	1.513	1.545	1.724	1.650	1.469	1.077	0.931	0.948	1.151	1.648	3.047	7.061	39.96	171.5
610.0	21.97	28.89	27.66	23.89	22.36	21.99	27.23	34.53	37.93	42.72	58.05	109.6	78.61	39.18	30.25	30.46	237.8	889.2	109.6	8.270	9.203	8.071	8.255	6.833	6.863	6.791	7.679	7.081	6.970	7.289	7.822	6.613	6.205	5.752	5.775	5.632	5.243	5.263	4.412	4.170	4.128	3.826	3.498	3.798	3.024	3.321	2.881	2.865	2.675	2.316	2.055	2.026	1.885	2.063	1.878	1.981	2.554	2.606	2.372	1.709	1.741	1.454	1.274	1.406	1.237	1.316	1.502	1.385	1.123	0.913	0.718	0.886	0.868	1.263	2.119	9.403	44.95
615.0	21.20	23.84	29.82	25.29	20.87	21.06	23.95	29.15	34.55	37.05	45.40	72.94	104.6	42.84	28.26	23.21	65.13	424.6	689.3	20.14	6.889	6.122	6.196	5.961	5.735	5.849	5.588	5.466	5.668	5.693	5.583	5.257	5.323	4.970	4.516	4.141	4.456	3.772	3.543	3.505	3.101	2.851	3.014	2.968	2.710	2.620	2.562	2.255	1.961	1.906	1.732	1.600	1.722	1.606	1.703	1.716	2.053	2.258	2.203	1.921	1.544	1.136	0.999	1.320	1.047	0.928	1.106	1.125	1.296	0.838	0.955	0.708	0.919	0.702	0.966	2.410	10.53
620.0	21.50	22.65	19.58	20.62	20.17	20.19	22.27	26.77	36.22	36.04	44.06	54.10	101.1	56.05	27.20	20.42	26.24	131.3	878.7	110.8	6.078	5.840	5.576	5.198	5.193	4.748	4.452	4.612	4.988	5.071	4.468	4.912	4.488	4.169	3.980	3.603	3.417	3.254	3.165	2.663	2.879	2.898	2.563	2.670	2.372	2.409	2.211	1.732	1.713	1.695	1.469	1.647	1.175	1.225	1.452	1.223	1.655	1.907	2.098	1.830	1.343	1.097	0.818	1.315	1.112	0.951	0.856	1.087	1.566	0.799	0.883	0.769	0.715	0.595	0.706	0.994	2.878
625.0	25.69	19.38	19.64	22.57	20.68	19.49	19.83	25.69	32.83	35.10	40.83	47.49	85.12	71.96	30.32	21.03	17.59	39.69	578.3	458.9	9.104	5.310	5.000	4.688	4.706	3.895	4.380	3.542	4.872	4.466	4.081	3.713	3.657	3.602	3.356	2.768	2.811	2.605	2.444	2.401	2.299	2.350	1.759	2.096	1.799	1.803	1.726	1.735	1.878	1.553	1.409	1.310	1.197	1.058	1.211	1.374	1.115	1.562	1.493	1.482	1.595	1.052	0.956	1.069	1.023	0.781	1.061	0.913	1.207	1.021	0.819	0.707	0.631	0.682	0.543	0.720	0.904
630.0	22.75	22.03	24.15	18.64	19.04	20.09	23.14	25.25	28.56	33.28	39.21	43.80	57.39	84.17	36.25	21.76	16.13	17.30	179.4	678.5	86.49	5.031	4.733	3.741	3.645	3.475	3.668	3.319	3.563	3.340	3.174	2.874	3.221	2.953	2.467	2.696	2.359	2.116	2.185	2.193	1.863	1.856	1.688	1.723	1.500	1.650	1.392	1.396	1.468	1.180	1.106	1.094	1.144	0.944	1.075	1.060	1.000	1.182	1.110	1.332	1.416	1.174	0.869	0.962	0.887	0.859	0.827	0.819	0.873	0.907	0.973	0.711	0.746	0.669	0.569	0.574	0.654
635.0	24.17	22.95	35.72	18.09	17.76	19.30	20.41	21.31	29.79	32.12	41.06	43.03	46.33	72.44	54.93	24.47	16.82	13.12	48.08	329.8	522.3	15.13	3.868	3.761	3.304	2.724	3.778	2.670	2.799	3.183	2.476	2.473	2.681	2.629	2.195	2.025	1.729	1.971	1.836	1.870	1.449	1.605	1.311	1.249	1.597	1.397	1.299	1.289	0.935	1.163	0.971	0.918	1.038	0.728	0.862	0.703	0.845	0.974	0.873	1.002	1.093	1.175	1.075	0.846	0.623	0.819	0.675	0.704	0.733	0.584	1.073	0.711	0.871	0.622	0.687	0.565	0.547
640.0	18.05	28.03	32.20	18.04	18.67	17.54	19.90	24.07	27.87	33.91	38.84	43.63	42.65	57.19	72.21	28.10	18.44	12.53	16.96	102.1	672.8	92.46	3.906	3.073	2.718	2.597	3.121	2.300	2.527	2.409	2.604	2.062	2.213	1.948	2.010	1.537	1.381	1.509	1.421	1.326	1.403	1.395	1.403	1.135	1.364	1.292	1.054	1.244	0.940	0.837	0.847	0.798	0.734	0.945	0.608	0.601	0.795	0.690	0.746	0.818	0.968	1.136	1.047	1.023	0.639	0.701	0.719	0.793	0.693	0.711	0.822	0.744	0.776	0.544	0.505	0.530	0.451
645.0	19.13	27.42	31.69	20.38	18.06	18.96	19.11	22.21	29.53	34.90	41.27	44.93	42.63	49.53	70.74	33.45	16.69	13.70	11.28	30.29	443.9	349.0	5.471	2.733	2.836	2.540	3.078	2.049	1.907	2.033	2.338	1.979	1.813	1.588	1.631	1.544	1.497	1.421	1.433	1.178	1.306	1.215	1.072	1.044	1.350	1.072	0.886	1.038	0.859	0.682	0.620	0.864	0.711	0.725	0.656	0.562	0.688	0.784	0.712	0.757	0.766	1.197	1.108	0.974	0.627	0.599	0.759	0.481	0.740	0.644	0.628	0.626	0.837	0.617	0.604	0.410	0.455
650.0	23.63	28.84	29.48	27.67	16.47	14.81	20.17	22.82	30.64	33.83	39.38	39.64	42.35	42.76	60.45	45.47	18.73	12.92	10.92	13.17	167.6	578.4	30.43	2.989	2.306	2.132	2.031	2.135	2.140	2.232	2.244	2.026	1.989	1.406	1.520	1.598	1.547	1.321	1.502	0.869	1.086	1.025	0.969	0.993	1.285	0.880	0.754	0.920	0.735	0.588	0.522	0.786	0.653	0.567	0.597	0.740	0.436	0.653	0.749	0.556	0.854	0.745	1.257	0.874	0.617	0.563	0.847	0.617	0.726	0.570	0.551	0.613	0.749	0.677	0.466	0.350	0.502
