Sample:	'1
File name:	G2025091115会仙三路南031雨水井.FD3
Run date:	'15:05:42, 09/11/2025
Operator:	Administrator
Comment:	'

Instrument
Model:	F-2700 FL Spectrophotometer
Serial number:	23B8-004
ROM Version:	4J14000 07

Instrument parameters
Measurement type:	3-D scan
Data mode:	Fluorescence
EX  Start WL:	220.0 nm
EX  End WL:	600.0 nm
EX Sampling interval:	5.0 nm
EM  Start WL:	230.0 nm
EM  End WL:	650.0 nm
EM Sampling interval:	5.0 nm
Scan speed:	12000 nm/min
EX Slit:	5.0 nm
EM Slit:	5.0 nm
PMT Voltage:	700 V
Response:	Auto 
Corrected spectra:	Off
Contour interval:	50.000

Peak integration
Integration method:	Rectangular
Sensitivity:	1
Threshold:	1.000

Peaks
No.	ApexEX/EM(nm)	Height(Data)
1	235.0/340.0	1747
2	235.0/510.0	204.7
3	240.0/265.0	365.1
4	240.0/525.0	201.9
5	245.0/270.0	371.3
6	245.0/535.0	186.4
7	250.0/275.0	487.0
8	250.0/550.0	151.8
9	255.0/280.0	589.8
10	255.0/560.0	131.0
11	260.0/290.0	564.9
12	260.0/575.0	115.0
13	265.0/585.0	104.9
14	270.0/300.0	963.5
15	270.0/600.0	89.05
16	275.0/305.0	981.4
17	275.0/610.0	73.02
18	280.0/625.0	61.38
19	300.0/340.0	2782
20	335.0/380.0	312.9
21	340.0/390.0	285.2
22	345.0/395.0	268.8
23	350.0/400.0	262.3
24	360.0/415.0	207.3
25	365.0/420.0	202.8
26	370.0/425.0	186.2
27	380.0/440.0	142.0
28	400.0/465.0	77.82
29	415.0/485.0	47.50
30	430.0/505.0	30.15
31	455.0/540.0	12.34
32	485.0/265.0	2.417
33	485.0/345.0	5.893
34	490.0/340.0	5.931
35	495.0/270.0	2.199
36	505.0/275.0	3.024
37	515.0/280.0	3.400
38	520.0/285.0	3.815
39	530.0/290.0	3.726
40	540.0/295.0	4.719
41	545.0/300.0	5.426
42	555.0/305.0	5.300

Data points
	220.0	225.0	230.0	235.0	240.0	245.0	250.0	255.0	260.0	265.0	270.0	275.0	280.0	285.0	290.0	295.0	300.0	305.0	310.0	315.0	320.0	325.0	330.0	335.0	340.0	345.0	350.0	355.0	360.0	365.0	370.0	375.0	380.0	385.0	390.0	395.0	400.0	405.0	410.0	415.0	420.0	425.0	430.0	435.0	440.0	445.0	450.0	455.0	460.0	465.0	470.0	475.0	480.0	485.0	490.0	495.0	500.0	505.0	510.0	515.0	520.0	525.0	530.0	535.0	540.0	545.0	550.0	555.0	560.0	565.0	570.0	575.0	580.0	585.0	590.0	595.0	600.0
230.0	42.20	268.6	990.1	461.6	33.08	10.06	8.287	7.388	5.910	5.668	4.572	4.213	3.602	3.328	2.962	2.621	2.356	2.093	1.863	1.630	1.416	1.266	1.150	1.057	0.990	0.945	0.892	0.859	0.820	0.878	0.872	0.821	0.747	0.720	0.639	0.614	0.607	0.601	0.570	0.585	0.573	0.549	0.608	0.520	0.503	0.488	0.534	1.404	2.970	2.932	1.607	0.686	0.423	0.429	0.419	0.446	0.453	0.447	0.449	0.436	0.434	0.432	0.430	0.426	0.445	0.435	0.407	0.438	0.434	0.455	0.460	0.473	0.428	0.480	0.466	0.490	0.502
235.0	59.37	97.20	662.5	1650	557.6	57.81	9.568	7.626	6.286	5.757	5.085	3.745	3.378	3.162	2.913	2.459	2.286	2.381	1.801	1.753	1.417	1.260	1.108	1.048	1.130	1.104	0.944	1.000	0.860	0.918	0.800	0.824	0.691	0.809	0.621	0.579	0.639	0.600	0.592	0.607	0.599	0.557	0.610	0.572	0.570	0.477	0.454	0.692	1.325	2.528	4.482	6.251	3.573	1.289	0.482	0.439	0.408	0.506	0.440	0.434	0.437	0.424	0.452	0.403	0.445	0.407	0.464	0.453	0.517	0.479	0.482	0.497	0.451	0.475	0.461	0.476	0.507
240.0	74.97	70.97	208.7	1338	2181	456.6	34.29	8.600	6.756	6.373	5.478	4.518	4.059	3.172	2.912	2.499	2.398	2.174	1.742	1.799	1.492	1.215	1.161	1.034	1.046	1.034	0.914	0.928	0.834	0.936	0.795	0.801	0.776	0.754	0.609	0.523	0.703	0.569	0.519	0.577	0.606	0.582	0.558	0.603	0.563	0.572	0.542	0.545	0.644	0.948	2.360	6.523	9.333	8.809	3.693	0.967	0.467	0.443	0.419	0.508	0.431	0.483	0.378	0.439	0.473	0.431	0.441	0.449	0.534	0.466	0.475	0.458	0.462	0.427	0.507	0.483	0.475
245.0	69.86	103.0	112.7	447.3	2128	2448	342.4	17.30	7.645	7.247	5.708	4.290	4.190	3.396	3.033	2.629	2.669	2.185	2.111	1.965	1.553	1.355	1.198	1.184	1.014	1.039	0.857	1.029	0.973	0.979	0.924	0.760	0.689	0.723	0.605	0.557	0.705	0.629	0.601	0.600	0.505	0.594	0.517	0.535	0.543	0.545	0.624	0.615	0.624	0.515	0.824	2.277	5.392	11.37	13.11	8.300	3.062	0.736	0.412	0.497	0.473	0.457	0.457	0.426	0.502	0.418	0.449	0.481	0.538	0.454	0.452	0.473	0.435	0.440	0.487	0.464	0.467
250.0	51.90	88.95	175.6	195.2	666.8	2092	2897	1114	78.47	9.043	6.732	5.598	4.326	3.954	3.203	3.120	2.518	2.253	2.194	1.862	1.603	1.308	1.311	1.145	1.166	1.005	0.912	1.098	1.008	0.893	0.845	0.800	0.855	0.723	0.648	0.577	0.687	0.667	0.621	0.610	0.552	0.549	0.521	0.577	0.571	0.535	0.557	0.656	0.833	0.826	0.708	0.959	1.619	3.556	6.808	10.31	14.09	13.58	8.780	3.098	0.744	0.495	0.456	0.439	0.446	0.500	0.458	0.473	0.552	0.481	0.469	0.483	0.482	0.486	0.484	0.558	0.447
255.0	45.90	49.36	133.9	285.0	257.8	520.3	1924	4275	1596	85.85	9.311	6.024	5.218	4.230	3.747	3.318	3.017	2.511	2.277	1.965	1.572	1.295	1.287	1.054	1.045	1.127	1.019	1.013	1.031	1.025	0.853	0.926	0.983	0.700	0.680	0.577	0.708	0.644	0.610	0.629	0.499	0.575	0.552	0.556	0.574	0.622	0.536	0.534	0.544	0.790	1.155	1.417	1.070	1.195	1.946	2.711	4.527	10.01	19.51	23.56	14.29	3.970	0.721	0.499	0.475	0.473	0.454	0.472	0.485	0.500	0.571	0.483	0.468	0.541	0.477	0.480	0.492
260.0	44.67	35.57	58.65	240.7	330.9	184.9	554.0	3077	4829	1222	41.34	7.597	6.289	4.946	3.981	3.335	2.842	2.676	2.441	2.032	1.565	1.329	1.319	1.208	1.165	1.108	1.069	1.114	1.068	0.888	0.932	0.853	0.870	0.765	0.719	0.729	0.684	0.642	0.550	0.619	0.566	0.708	0.590	0.589	0.573	0.646	0.476	0.482	0.470	0.504	0.727	1.515	1.784	1.371	1.003	0.970	1.421	2.895	7.174	17.51	26.69	25.24	11.82	2.336	0.573	0.512	0.492	0.483	0.479	0.517	0.533	0.471	0.505	0.521	0.514	0.514	0.519
265.0	49.90	31.80	33.99	111.0	365.1	261.8	165.2	963.5	4362	4927	237.5	16.68	7.500	5.192	4.638	4.029	3.089	2.737	2.115	1.964	1.462	1.326	1.211	1.221	1.132	1.126	1.118	0.980	1.000	0.925	0.904	0.835	0.883	0.790	0.698	0.796	0.694	0.679	0.572	0.676	0.550	0.609	0.624	0.561	0.646	0.595	0.463	0.451	0.443	0.431	0.475	0.876	1.526	2.417	2.007	0.963	0.797	1.092	2.035	4.938	11.38	23.72	31.49	23.01	8.637	1.299	0.514	0.536	0.621	0.493	0.520	0.527	0.456	0.493	0.544	0.492	0.529
270.0	51.40	36.43	31.05	45.35	162.0	371.3	288.6	269.4	1311	4044	5775	870.6	58.76	7.163	5.772	4.469	3.538	2.851	2.459	2.354	1.684	1.423	1.311	1.379	1.207	1.143	1.144	0.972	1.051	1.044	0.919	0.908	0.839	0.738	0.745	0.703	0.684	0.606	0.638	0.616	0.607	0.605	0.579	0.594	0.614	0.624	0.501	0.509	0.469	0.459	0.403	0.536	0.767	1.195	1.811	2.199	2.176	1.359	0.987	1.598	3.111	6.601	12.69	20.68	25.49	26.79	16.26	6.827	1.251	0.502	0.577	0.544	0.546	0.520	0.554	0.483	0.552
275.0	54.76	57.73	46.97	36.47	54.99	156.0	487.0	334.0	348.5	1001	3544	7266	1233	60.07	8.061	5.197	4.484	3.800	3.257	2.643	2.017	1.788	1.512	1.405	1.362	1.074	1.177	0.917	1.036	1.031	0.923	0.958	0.884	0.835	0.779	0.729	0.775	0.669	0.762	0.771	0.633	0.571	0.596	0.562	0.575	0.593	0.581	0.477	0.509	0.468	0.472	0.502	0.593	0.664	0.760	1.111	1.996	3.024	2.777	1.477	1.209	2.023	3.403	5.255	7.018	13.29	29.49	41.05	24.53	8.099	1.116	0.550	0.608	0.520	0.508	0.501	0.588
280.0	63.48	73.87	58.32	40.46	33.64	59.85	282.5	589.8	258.3	303.3	1017	5017	7135	865.3	25.64	6.891	4.577	4.420	3.304	2.825	2.049	1.974	1.574	1.381	1.394	1.190	1.206	1.144	1.102	1.022	1.040	0.963	0.921	0.880	0.874	0.709	0.727	0.689	0.662	0.671	0.661	0.626	0.585	0.563	0.609	0.657	0.602	0.517	0.558	0.488	0.461	0.479	0.467	0.579	0.557	0.689	0.955	1.873	3.248	3.400	1.974	1.217	1.531	1.814	2.268	3.796	9.123	21.72	39.64	32.95	19.93	4.275	0.704	0.539	0.648	0.529	0.579
285.0	81.35	90.13	80.76	54.20	37.16	39.66	115.7	482.3	552.1	222.7	350.8	1547	6370	5932	126.8	13.23	6.260	5.153	3.373	3.259	2.459	2.056	1.799	1.514	1.405	1.319	1.085	1.093	1.147	1.143	1.109	0.908	1.060	0.874	0.819	0.725	0.753	0.740	0.716	0.737	0.622	0.659	0.654	0.614	0.557	0.722	0.600	0.610	0.644	0.533	0.488	0.520	0.486	0.510	0.571	0.564	0.675	0.949	1.696	3.199	3.815	2.770	1.675	1.279	1.275	1.661	2.917	5.821	13.78	27.47	44.28	29.37	14.15	2.226	0.730	0.546	0.656
290.0	96.24	127.6	122.9	85.79	51.70	50.87	76.90	220.7	564.9	532.0	339.0	528.2	1885	4874	5444	1437	33.68	6.193	4.532	3.586	2.646	2.099	1.973	1.751	1.468	1.450	1.295	1.164	1.159	1.262	1.056	1.095	1.013	0.860	0.886	0.805	0.729	0.773	0.727	0.678	0.713	0.677	0.658	0.619	0.661	0.715	0.706	0.772	0.792	0.620	0.559	0.608	0.610	0.615	0.609	0.620	0.670	0.791	1.112	1.543	2.188	3.326	3.726	3.207	2.025	1.658	1.757	2.385	4.120	7.544	14.71	22.59	32.70	31.92	19.95	9.895	2.092
295.0	124.1	168.1	156.1	112.9	72.22	68.45	88.39	144.9	290.2	667.3	758.8	403.2	589.5	1227	3200	6698	689.3	34.83	6.200	4.705	3.098	2.589	2.315	1.925	1.595	1.638	1.425	1.087	1.134	1.267	1.086	1.281	1.051	0.803	0.934	0.805	0.893	0.685	0.820	0.690	0.670	0.654	0.679	0.582	0.659	0.662	0.709	0.853	0.758	0.741	0.638	0.665	0.700	0.663	0.646	0.706	0.704	0.778	0.967	1.043	1.288	1.891	2.262	3.523	4.719	3.651	2.235	1.941	2.348	2.720	4.251	5.882	8.341	12.57	27.35	43.59	30.48
300.0	136.9	192.5	187.3	132.9	92.79	82.64	102.5	146.1	230.9	451.5	963.5	625.4	355.0	397.4	882.9	4511	5628	523.1	16.04	5.964	3.939	2.992	2.448	2.186	1.656	1.638	1.387	1.306	1.363	1.355	1.087	1.266	1.049	0.902	0.935	0.839	0.835	0.700	0.801	0.697	0.779	0.681	0.722	0.670	0.699	0.675	0.711	0.893	0.819	0.819	0.688	0.710	0.706	0.686	0.670	0.768	0.780	0.902	0.974	1.010	1.184	1.537	1.675	2.258	3.690	5.426	4.705	2.866	2.245	1.946	2.165	2.305	2.763	3.563	7.968	19.47	38.80
305.0	123.4	191.0	198.3	158.3	107.1	98.04	118.4	163.9	233.1	360.8	727.4	981.4	440.7	248.8	287.7	1316	5384	4607	76.72	10.59	5.725	3.652	2.620	2.293	1.878	1.689	1.630	1.418	1.508	1.182	1.247	1.212	1.145	1.043	0.920	0.860	0.835	0.820	0.824	0.735	0.696	0.664	0.728	0.660	0.669	0.739	0.799	0.952	0.886	0.846	0.768	0.885	0.829	0.688	0.693	0.818	0.897	0.996	1.153	1.044	1.309	1.487	1.565	1.898	2.374	3.596	5.023	5.300	3.699	2.211	1.801	1.468	1.648	1.680	2.526	5.136	11.93
310.0	126.8	207.3	221.1	199.2	164.2	147.8	149.9	188.1	257.5	348.5	517.5	804.3	811.7	387.6	227.5	422.2	1613	4107	4401	1176	28.74	6.682	3.601	2.792	2.382	1.976	1.630	1.663	1.526	1.336	1.289	1.262	1.119	1.036	0.993	0.869	0.864	0.841	0.788	0.764	0.680	0.857	0.689	0.704	0.699	0.733	0.822	0.900	0.945	0.866	0.864	0.978	0.947	0.928	0.907	0.986	0.997	1.130	1.168	1.304	1.472	1.598	1.673	1.929	2.167	2.577	3.199	3.888	4.494	4.467	3.409	2.091	1.765	1.555	1.758	2.264	3.753
315.0	155.8	287.4	370.4	429.7	394.6	305.2	248.1	253.7	326.3	418.6	549.1	679.7	885.1	964.6	603.1	577.1	860.0	1375	3029	5699	496.6	32.48	7.156	3.738	2.804	2.408	1.974	1.938	1.642	1.361	1.301	1.270	1.164	1.090	0.975	0.888	0.884	0.787	0.827	0.811	0.699	0.755	0.732	0.781	0.734	0.681	0.828	1.034	1.201	1.136	1.319	1.639	1.599	1.830	1.704	1.907	1.749	1.660	1.560	1.647	1.880	2.067	2.236	2.349	2.793	2.924	3.299	3.350	3.540	4.385	5.460	5.470	4.544	3.532	3.076	3.249	3.685
320.0	225.1	433.2	605.0	759.1	696.5	529.6	387.4	355.8	435.5	556.4	708.9	856.9	1016	1378	1093	952.5	1219	1203	1452	4307	4077	385.1	14.78	5.189	3.723	2.869	2.180	1.965	2.036	1.629	1.413	1.329	1.108	1.130	1.027	0.959	0.985	0.886	0.909	0.866	0.731	0.776	0.805	0.858	0.830	0.950	0.930	1.405	1.480	1.533	2.039	2.476	2.637	2.926	2.665	3.004	2.740	2.326	2.106	2.065	2.352	2.676	2.756	3.224	3.528	3.540	4.297	4.238	4.644	4.967	5.877	7.146	7.747	7.096	6.287	6.152	6.340
325.0	266.7	560.2	797.8	1067	968.2	680.6	486.7	419.7	511.4	652.0	843.4	1017	1171	1456	1742	1578	1594	1427	1216	1853	4509	3450	58.74	7.696	4.837	3.514	2.697	2.141	2.118	1.698	1.578	1.441	1.289	1.302	1.057	1.008	1.083	0.955	0.909	0.940	0.748	0.867	0.770	0.843	0.835	0.956	1.128	1.622	1.989	2.171	2.459	3.292	3.714	3.921	3.549	3.405	3.401	2.937	2.488	2.349	2.741	3.180	3.263	3.740	4.095	4.480	4.872	5.177	5.644	5.827	6.309	7.223	8.407	9.550	9.538	9.032	8.498
330.0	293.4	645.7	984.0	1310	1220	828.1	553.7	479.5	573.8	732.1	936.9	1139	1331	1566	1879	2094	2040	1709	1337	1217	1587	3287	3498	921.8	17.84	4.554	3.581	2.639	2.362	1.884	1.675	1.627	1.395	1.362	1.106	1.070	1.088	1.007	0.921	1.020	0.827	0.868	0.852	0.876	0.904	0.986	1.217	1.702	2.246	2.518	2.999	4.050	4.238	4.814	4.453	3.989	3.991	3.376	2.769	2.726	3.134	3.478	3.854	4.104	4.606	4.802	5.410	5.661	6.217	6.690	7.284	7.645	8.618	9.530	10.66	11.61	11.47
335.0	348.0	767.5	1144	1599	1524	1021	670.3	562.3	664.9	828.0	1058	1323	1572	1856	2141	2423	2695	2222	1657	1289	771.5	861.5	2355	4505	393.7	18.61	4.775	3.103	2.613	2.346	2.007	1.679	1.574	1.343	1.079	1.076	1.077	1.183	0.910	1.039	0.947	0.837	0.878	0.872	0.922	1.073	1.283	1.912	2.844	2.866	3.676	4.998	5.265	5.576	5.644	4.840	4.653	3.680	3.270	3.189	3.497	3.737	4.245	4.693	5.236	5.584	6.151	6.613	7.348	7.862	8.296	9.328	9.724	11.04	11.65	12.15	13.14
340.0	370.8	803.3	1245	1747	1631	1116	741.1	602.2	697.1	871.0	1102	1367	1637	1953	2247	2473	2782	2494	1799	1338	617.6	299.8	652.5	3242	3327	315.3	8.395	3.816	3.208	2.381	2.206	1.860	1.421	1.550	1.324	1.226	1.096	1.122	1.037	1.052	0.971	0.981	0.935	0.911	0.986	1.141	1.304	2.051	2.772	3.030	3.885	5.246	5.636	5.747	5.931	5.239	4.738	3.849	3.290	3.486	3.429	4.102	4.301	5.202	5.469	6.047	6.700	6.959	7.613	8.268	8.729	9.600	10.27	11.49	12.01	12.62	13.42
345.0	357.1	776.3	1201	1709	1598	1109	742.9	602.4	688.2	852.2	1077	1312	1582	1883	2155	2347	2552	2432	1836	1288	562.6	179.0	191.7	960.4	3598	2883	49.19	4.775	3.653	2.747	2.296	1.796	1.439	1.470	1.378	1.213	1.031	1.045	1.080	0.999	0.829	0.896	0.926	0.804	1.058	1.182	1.210	1.917	2.731	3.216	3.805	5.310	5.626	5.893	5.627	5.270	4.708	3.783	3.176	3.382	3.588	4.074	4.391	4.901	5.088	5.709	6.316	6.748	7.181	7.675	8.269	8.940	9.726	10.84	11.54	11.88	12.31
350.0	330.8	730.7	1137	1622	1561	1101	751.3	612.1	696.0	832.9	1026	1232	1481	1760	2012	2182	2325	2138	1781	1305	543.5	163.9	103.8	256.9	1056	2668	2819	743.6	15.46	3.461	2.600	2.125	1.693	1.521	1.260	1.154	1.144	1.026	1.109	1.009	0.857	0.897	0.887	0.886	0.983	1.086	1.223	1.787	2.421	2.905	3.679	4.979	5.612	5.505	5.608	4.782	4.738	3.716	3.203	3.391	3.601	3.979	4.368	4.494	4.868	5.365	5.929	5.919	6.853	7.389	7.796	8.678	9.591	10.33	10.53	11.08	11.53
355.0	305.2	647.8	1048	1517	1462	1096	780.2	647.3	714.0	824.0	999.1	1172	1374	1633	1850	2012	2128	1906	1564	1309	601.9	182.6	102.4	116.9	277.5	650.5	1882	3275	358.3	14.13	3.357	2.431	2.020	1.614	1.263	1.105	1.236	1.117	0.962	1.026	0.927	1.001	0.879	0.776	0.968	1.168	1.219	1.855	2.257	2.696	3.513	4.812	5.548	5.724	5.337	4.813	4.802	3.886	3.424	3.533	3.480	3.953	4.456	4.320	4.710	5.027	5.441	5.910	6.506	6.756	7.638	8.369	8.785	9.622	9.677	10.30	10.42
360.0	283.1	605.6	952.1	1394	1402	1069	785.5	661.0	715.7	827.3	945.4	1099	1281	1499	1678	1816	1919	1712	1379	1148	656.5	224.5	117.2	96.60	116.0	184.6	518.5	2558	2962	282.0	6.738	3.117	2.401	1.631	1.421	1.328	1.216	1.119	0.995	1.034	0.900	0.905	1.004	0.784	0.924	1.047	1.166	1.716	1.995	2.519	3.150	4.554	4.896	5.332	4.953	4.714	4.188	3.837	3.355	3.724	3.487	3.978	4.210	4.392	4.540	4.657	5.080	5.364	5.472	6.503	6.926	7.423	8.184	8.763	8.884	9.612	9.612
365.0	260.8	515.2	857.8	1269	1300	1021	786.1	669.4	724.9	802.2	903.7	1026	1175	1352	1508	1625	1704	1527	1227	978.6	613.2	316.4	145.3	107.3	93.42	90.59	152.9	770.0	3060	2543	45.17	4.538	2.811	2.101	1.538	1.286	1.188	1.167	1.014	1.021	0.990	0.884	0.849	0.810	0.836	1.027	1.084	1.513	2.027	2.362	3.004	4.025	4.551	5.028	4.685	4.521	4.174	3.673	3.545	3.431	3.607	3.663	3.975	4.197	4.115	4.595	4.705	5.006	5.236	5.624	6.096	6.988	7.307	8.049	7.933	8.387	8.409
370.0	231.1	452.5	773.0	1130	1194	986.7	793.0	698.3	720.1	775.2	860.5	951.8	1058	1195	1321	1408	1476	1322	1067	846.1	499.7	344.6	249.6	145.9	110.4	89.86	85.46	209.8	899.7	2362	2455	195.3	12.86	2.747	1.980	1.463	1.349	1.156	1.104	1.117	0.969	0.834	0.793	0.829	0.850	0.950	1.107	1.432	1.889	2.145	2.811	3.831	4.202	4.635	4.385	4.151	4.110	3.698	3.399	3.514	3.618	3.575	3.906	3.976	4.130	4.437	4.546	4.754	4.664	5.139	5.586	6.109	6.405	6.894	7.171	7.508	7.973
375.0	208.2	400.0	692.9	1017	1095	934.4	780.1	709.4	723.6	767.9	817.4	885.1	960.9	1064	1158	1216	1261	1143	936.4	746.4	443.6	291.1	309.6	245.7	146.3	111.5	90.08	99.39	236.7	577.6	1674	2804	306.3	12.36	2.526	1.924	1.579	1.247	1.227	1.133	1.003	0.935	0.821	0.785	0.888	0.903	0.970	1.428	1.732	2.045	2.621	3.416	3.789	4.254	4.109	4.163	3.942	3.612	3.525	3.353	3.569	3.624	3.785	3.817	4.082	3.944	4.426	4.272	4.271	4.858	5.091	5.216	5.602	5.971	6.439	6.588	6.681
380.0	208.2	371.2	636.2	932.8	1031	897.6	779.0	710.1	712.4	748.3	793.7	833.0	889.9	967.4	1025	1075	1108	1010	836.4	677.6	421.2	275.8	279.0	312.9	202.6	135.4	105.9	87.62	99.30	163.2	463.8	2159	2504	234.5	5.449	2.401	1.887	1.520	1.222	1.061	0.949	0.926	0.913	0.804	0.938	0.922	1.074	1.355	1.697	1.816	2.202	3.299	3.595	4.077	3.885	3.826	3.966	3.591	3.158	3.278	3.373	3.653	3.509	3.755	3.945	3.690	3.902	4.005	3.999	4.462	4.849	4.790	5.057	5.308	5.775	5.758	5.797
385.0	176.9	345.6	602.0	851.9	965.2	883.7	761.9	698.4	697.1	738.2	755.9	780.9	833.8	882.4	920.7	961.3	985.7	901.9	751.8	622.4	409.2	281.5	256.3	299.1	277.2	168.3	123.2	96.62	80.38	78.40	135.5	643.7	2453	1993	37.16	3.406	2.154	1.734	1.157	1.211	1.014	0.936	0.832	0.847	0.988	0.904	1.028	1.205	1.541	1.910	2.204	2.936	3.535	3.810	3.574	3.477	3.731	3.543	3.207	3.302	3.205	3.424	3.401	3.516	3.683	3.655	3.882	3.934	4.019	4.237	4.158	4.344	4.758	5.133	4.961	5.244	5.536
390.0	166.6	307.6	539.2	794.3	872.1	836.3	750.2	683.9	691.0	707.9	721.4	733.3	765.7	798.7	818.8	835.9	856.0	786.4	670.3	565.6	398.8	295.4	262.9	261.2	285.2	247.1	159.3	115.4	89.74	73.01	70.60	172.4	704.2	1733	1774	156.5	11.17	2.212	1.591	1.418	1.083	1.035	0.907	0.814	1.020	0.828	1.052	1.197	1.588	1.834	2.026	2.787	3.272	3.430	3.278	3.332	3.649	3.416	3.120	3.169	3.155	3.195	3.189	3.377	3.426	3.531	3.655	3.525	3.554	3.718	3.824	4.014	4.304	4.466	4.557	4.718	4.883
395.0	150.2	278.0	508.9	734.8	818.5	792.7	740.8	669.8	670.1	671.2	683.2	688.7	701.7	724.8	736.9	746.6	753.3	695.9	612.7	525.9	394.7	309.8	278.8	256.4	251.5	268.8	231.4	143.9	107.3	84.51	67.52	75.95	181.1	419.1	1148	2102	258.4	11.08	2.100	1.731	1.314	1.136	0.948	0.892	0.926	0.819	0.948	1.191	1.484	1.684	1.929	2.694	3.315	3.124	3.308	3.075	3.418	3.162	3.287	3.144	3.187	3.060	3.226	3.277	3.370	3.407	3.349	3.368	3.363	3.483	3.818	3.623	3.971	3.977	4.208	4.379	4.401
400.0	146.9	282.9	462.0	690.9	771.7	768.1	706.8	671.3	644.4	653.0	656.3	665.9	670.1	672.7	682.2	690.8	690.2	644.3	573.4	501.0	389.5	319.4	285.4	262.9	244.5	242.4	262.3	192.6	123.8	96.25	76.55	62.49	71.57	115.4	311.0	1475	1827	204.6	5.436	2.223	1.458	1.158	1.023	0.986	0.821	0.953	0.974	1.180	1.420	1.586	2.058	2.691	2.942	2.894	3.120	3.045	3.297	3.208	3.239	3.008	3.087	3.207	3.296	3.253	3.360	3.160	3.230	3.213	3.500	3.498	3.545	3.461	3.678	3.836	3.927	3.977	4.225
405.0	134.2	273.5	440.5	644.5	741.2	730.2	686.1	648.2	637.7	638.2	640.5	637.5	638.2	645.5	641.7	643.0	644.0	605.5	546.7	485.1	391.8	328.1	294.7	269.4	245.3	227.2	244.3	236.2	153.0	109.6	87.04	67.52	54.07	52.24	89.57	422.8	1630	1485	34.03	3.380	1.707	1.271	1.103	1.057	0.877	0.906	0.958	1.119	1.272	1.545	1.923	2.446	2.761	2.801	2.921	3.094	2.814	3.012	2.972	3.058	2.919	3.041	3.110	2.941	3.096	3.124	3.051	3.155	3.179	3.257	3.222	3.388	3.491	3.571	3.443	3.767	4.215
410.0	136.3	253.3	429.0	616.6	694.2	680.9	666.9	639.3	623.4	616.9	614.4	607.3	604.7	599.2	596.6	593.4	597.2	567.3	513.0	462.5	388.0	332.4	302.7	274.3	249.2	225.2	215.2	227.2	206.3	140.8	99.40	78.33	59.03	45.90	45.27	112.9	456.5	1193	1319	527.9	10.09	1.798	1.370	1.072	1.020	0.982	1.007	1.181	1.363	1.611	1.794	2.340	2.566	2.727	2.777	2.769	2.801	2.995	2.931	2.884	2.874	2.853	2.899	2.890	3.009	2.858	2.854	3.062	2.798	3.036	3.135	3.139	3.329	3.329	3.247	3.461	3.777
415.0	119.8	244.0	390.4	581.2	651.8	648.3	648.5	627.5	603.0	590.8	582.8	569.9	568.6	559.7	550.6	554.0	548.0	527.6	488.6	444.5	379.0	331.3	299.1	271.4	248.2	225.6	205.1	194.8	207.3	192.1	123.6	89.08	67.53	50.93	40.99	48.08	118.1	285.3	761.0	2127	240.1	10.78	1.819	1.445	1.215	1.067	0.991	1.059	1.340	1.517	1.773	2.222	2.554	2.473	2.550	2.753	2.870	2.811	3.001	2.892	2.785	2.769	2.838	2.943	2.783	2.732	2.883	2.956	2.851	2.855	2.871	2.725	3.055	3.045	3.280	3.149	3.388
420.0	119.3	210.5	374.0	541.5	608.4	620.6	622.9	606.9	591.0	562.9	554.6	547.0	539.4	524.0	520.0	517.0	515.8	502.0	470.0	429.2	370.1	324.5	296.0	267.9	245.7	224.9	204.0	185.6	186.6	202.8	157.5	100.3	74.68	56.30	44.75	37.18	45.39	77.20	200.0	1353	1402	195.3	4.854	1.690	1.269	1.044	1.100	1.133	1.364	1.439	1.697	2.073	2.360	2.362	2.547	2.563	2.753	2.659	2.692	2.675	2.623	2.767	2.838	2.767	2.863	2.677	2.858	2.752	2.765	2.825	2.686	2.658	2.887	2.897	2.950	2.927	3.271
425.0	123.5	209.7	371.0	521.8	593.8	605.8	591.3	591.5	579.2	555.7	545.1	524.7	515.4	505.7	497.8	492.6	499.0	482.3	453.2	414.4	366.3	319.9	291.0	262.7	242.5	220.9	202.4	183.6	173.0	182.6	186.2	121.1	81.02	63.77	49.53	38.36	32.87	33.05	56.60	369.8	1127	1177	32.91	2.849	1.446	1.262	1.170	1.322	1.406	1.449	1.625	2.090	2.238	2.366	2.483	2.377	2.534	2.720	2.538	2.554	2.718	2.774	2.898	2.684	2.697	2.641	2.471	2.643	2.701	2.600	2.591	2.523	2.727	2.847	2.998	2.788	3.240
430.0	139.3	205.6	355.1	491.0	565.8	572.2	573.1	571.9	561.4	543.1	524.6	513.4	487.8	478.9	470.9	465.6	464.8	453.0	428.1	394.0	351.6	311.4	281.2	256.9	235.6	216.7	200.7	185.2	172.5	163.0	168.9	153.0	104.9	73.13	56.59	44.36	35.29	27.53	27.55	93.88	303.2	824.9	1019	380.8	11.11	1.577	1.278	1.341	1.326	1.429	1.596	1.944	2.176	2.237	2.372	2.348	2.652	2.605	2.670	2.532	2.646	2.705	2.700	2.644	2.469	2.696	2.388	2.453	2.500	2.549	2.674	2.672	2.647	2.589	2.784	2.755	2.891
435.0	204.7	194.3	331.6	480.0	538.7	541.4	552.8	550.5	539.6	525.0	514.3	491.0	467.7	452.4	441.6	432.1	430.5	425.0	404.5	376.9	336.7	301.9	270.2	244.9	228.7	209.6	196.8	185.2	172.4	160.8	147.4	147.6	137.8	90.79	65.36	51.03	40.91	30.87	25.19	34.65	78.21	194.6	508.0	1338	240.1	13.75	1.686	1.596	1.281	1.464	1.655	2.114	2.170	2.209	2.429	2.216	2.513	2.578	2.433	2.463	2.606	2.588	2.549	2.539	2.473	2.638	2.420	2.452	2.416	2.475	2.475	2.329	2.561	2.568	2.756	2.753	2.843
440.0	259.5	210.6	320.0	450.8	505.4	523.7	534.3	532.4	527.5	522.2	496.6	480.2	448.8	433.1	420.0	411.3	409.2	405.4	382.9	356.1	323.9	287.8	260.7	237.6	221.2	205.9	193.5	182.2	169.0	156.1	141.7	133.9	142.0	110.7	73.34	56.28	43.59	34.48	26.98	23.83	29.48	52.80	130.0	764.1	1256	205.3	6.753	1.813	1.541	1.504	1.759	1.920	2.080	2.230	2.176	2.194	2.419	2.416	2.427	2.527	2.546	2.483	2.429	2.638	2.450	2.418	2.357	2.378	2.139	2.404	2.362	2.431	2.484	2.523	2.477	2.664	2.740
445.0	272.1	260.6	307.5	430.7	480.5	525.5	514.6	521.0	506.4	499.6	479.8	461.1	429.3	419.9	402.7	387.2	388.2	383.4	363.4	339.0	306.6	274.7	249.8	228.5	212.0	200.9	187.3	176.0	167.0	157.2	144.3	130.3	127.5	125.9	87.20	60.63	47.80	38.72	29.43	23.12	20.67	22.63	37.53	203.3	895.5	1133	29.01	3.829	1.785	1.476	1.677	1.995	1.988	2.053	2.229	2.115	2.521	2.293	2.474	2.525	2.494	2.339	2.436	2.337	2.363	2.254	2.338	2.382	2.209	2.337	2.256	2.435	2.289	2.360	2.339	2.557	2.514
450.0	188.7	375.1	323.0	405.1	445.1	476.2	487.1	492.2	482.9	468.5	459.1	432.0	403.5	390.1	370.5	359.1	355.9	346.1	332.9	310.1	282.8	254.4	232.5	213.3	198.8	188.1	178.3	168.1	161.0	152.7	139.7	124.4	111.2	111.6	103.1	73.63	52.40	40.95	32.89	26.77	21.40	18.37	18.74	53.29	234.2	705.2	915.5	367.7	11.03	1.878	1.727	2.002	1.971	2.050	2.075	2.131	2.319	2.265	2.269	2.271	2.381	2.298	2.305	2.284	2.426	2.397	2.284	2.230	2.078	2.213	2.087	2.151	2.163	2.201	2.201	2.248	2.278
455.0	117.7	428.3	557.1	388.3	417.9	443.2	449.5	455.3	456.7	438.5	427.0	401.6	369.5	349.9	336.0	327.3	320.4	311.4	301.7	283.5	253.9	229.3	210.6	194.6	183.7	171.4	166.2	156.9	152.7	145.1	133.7	118.9	105.4	94.48	94.64	89.04	61.52	44.21	35.66	29.59	23.97	19.65	16.16	21.53	59.38	164.3	375.6	1034	204.6	13.76	2.030	1.979	1.932	1.924	1.951	1.989	2.124	2.187	2.198	2.059	2.275	2.300	2.189	2.314	2.349	2.233	2.203	2.179	2.100	1.969	2.029	1.921	2.003	2.078	2.146	2.061	2.230
460.0	97.02	322.7	804.6	423.1	392.6	428.8	429.2	442.0	429.2	415.4	400.7	383.4	348.2	329.5	313.6	300.8	294.2	286.3	274.1	259.9	232.0	212.6	195.1	179.6	168.1	160.3	156.0	149.0	144.2	138.6	129.7	114.6	102.0	89.58	83.84	87.32	72.87	48.56	37.41	31.65	26.14	20.81	16.86	15.59	21.69	43.00	93.22	510.7	959.5	168.4	9.215	2.162	2.000	1.880	1.811	1.988	1.949	2.012	2.276	2.023	2.150	2.152	2.036	2.113	2.022	2.107	2.001	2.006	2.031	1.974	1.927	1.894	1.974	1.991	2.152	1.970	2.125
465.0	79.32	196.3	910.9	708.5	371.3	392.1	404.5	400.7	409.8	394.7	375.6	359.2	330.2	310.5	288.1	277.7	271.0	263.9	250.7	236.4	215.6	195.2	181.4	168.0	158.3	147.9	145.4	139.6	136.2	131.3	122.7	111.1	96.58	84.82	76.00	76.25	77.82	54.54	39.13	32.43	27.06	21.29	18.18	14.95	13.62	16.98	26.48	130.1	616.2	850.8	143.9	5.433	2.104	2.040	1.954	2.000	1.946	2.012	2.140	1.869	2.059	2.070	1.988	2.037	1.908	1.854	1.804	1.920	1.969	1.723	1.823	1.736	1.841	1.905	1.737	1.953	2.124
470.0	80.42	138.5	604.6	1167	500.1	350.8	364.6	370.6	376.8	360.6	347.2	326.5	298.3	279.0	258.3	247.4	240.5	230.7	219.1	206.8	190.9	171.9	159.5	149.7	141.1	134.2	130.8	127.3	125.9	120.9	113.5	103.5	90.46	79.96	70.55	64.10	66.35	62.09	45.61	33.28	27.37	22.93	19.14	15.57	12.81	11.88	12.36	34.20	156.9	467.8	655.3	291.7	11.85	2.282	1.944	2.005	1.923	1.959	1.987	1.912	1.887	2.053	1.900	1.975	1.853	1.895	1.881	1.693	1.832	1.690	1.697	1.632	1.634	1.617	1.616	1.826	1.770
475.0	77.45	114.0	285.4	1218	1076	336.1	332.9	342.9	339.9	331.9	317.4	300.6	266.5	251.1	229.6	216.8	209.4	201.8	192.5	183.5	167.2	152.5	140.0	131.6	126.0	119.7	117.5	114.8	111.8	109.8	103.4	95.47	83.29	74.19	65.55	58.86	54.18	56.33	53.16	38.58	27.94	24.05	20.17	16.51	13.40	11.43	9.624	13.42	39.69	108.7	238.6	653.8	205.4	16.36	2.252	1.855	1.837	1.875	1.692	1.789	1.676	1.753	1.731	1.851	1.820	1.716	1.764	1.563	1.629	1.657	1.628	1.476	1.467	1.730	1.543	1.577	1.697
480.0	83.30	117.3	199.1	785.7	1630	450.5	304.6	317.4	309.8	311.9	298.8	280.5	246.7	231.7	215.3	197.6	188.9	185.0	175.3	165.0	152.7	138.1	128.2	121.4	115.0	110.3	108.0	105.6	103.0	102.8	97.33	89.26	80.15	70.05	62.43	55.81	49.18	47.68	51.65	44.50	30.12	24.63	20.26	17.26	14.54	11.97	9.585	8.958	14.39	28.67	58.78	292.9	686.5	194.3	10.35	1.994	2.010	1.826	1.717	1.829	1.528	1.763	1.679	1.645	1.688	1.632	1.542	1.566	1.647	1.547	1.522	1.430	1.345	1.475	1.559	1.468	1.528
485.0	84.58	117.1	161.0	421.0	1668	627.0	286.7	301.1	298.0	291.8	280.7	262.7	235.2	215.6	200.8	181.8	174.6	167.8	161.3	150.8	139.6	128.6	120.5	112.1	107.2	104.0	99.25	98.95	96.29	96.44	92.80	84.72	76.63	68.02	59.88	53.68	46.82	43.43	45.74	47.50	34.70	24.79	20.15	17.95	14.79	12.80	10.22	8.820	8.861	11.17	17.36	74.59	399.9	659.3	149.4	5.361	1.934	1.757	1.839	1.751	1.658	1.701	1.675	1.634	1.858	1.586	1.525	1.606	1.523	1.569	1.334	1.409	1.384	1.362	1.352	1.556	1.425
490.0	76.60	124.5	164.3	248.0	981.1	1527	403.4	275.0	275.3	269.9	262.6	243.2	216.0	200.2	181.3	167.4	158.5	152.4	145.5	136.9	125.5	116.1	108.2	101.1	96.96	95.01	91.01	90.39	89.34	88.70	85.22	78.11	70.35	62.87	56.28	49.85	45.53	40.37	38.58	41.51	39.56	29.07	21.21	17.98	15.54	13.19	11.10	9.426	8.286	7.634	8.447	20.71	100.3	329.0	557.1	285.7	13.55	2.089	1.734	1.629	1.691	1.555	1.723	1.533	1.557	1.475	1.442	1.444	1.348	1.464	1.423	1.444	1.274	1.332	1.265	1.391	1.417
495.0	73.99	113.9	177.5	196.6	405.8	1520	1046	262.2	254.2	244.4	238.7	219.5	199.4	181.0	162.2	150.8	142.3	133.4	128.7	120.5	109.6	103.4	96.26	88.84	87.02	84.06	82.59	83.12	81.54	79.29	77.56	71.61	63.85	57.67	53.43	47.31	42.61	38.23	34.31	33.34	36.17	34.62	24.72	18.15	15.69	13.74	11.87	10.12	9.067	7.618	6.906	9.012	26.05	77.03	200.4	604.2	230.3	18.85	1.988	1.795	1.449	1.479	1.692	1.505	1.594	1.408	1.377	1.311	1.441	1.240	1.349	1.388	1.144	1.160	1.222	1.344	1.251
500.0	55.25	103.4	186.1	186.3	239.3	937.9	1650	350.9	229.0	222.2	216.9	200.8	184.1	162.7	148.1	135.6	128.2	122.6	117.2	106.6	101.4	93.68	85.79	80.71	79.04	76.62	74.54	76.38	74.66	73.85	71.43	65.66	59.68	53.08	48.93	44.11	39.62	36.47	31.89	30.30	30.60	33.98	28.41	19.09	15.69	13.76	11.87	10.37	9.341	7.690	6.596	6.585	9.933	20.69	48.98	255.0	634.9	210.7	12.13	1.905	1.545	1.528	1.430	1.324	1.478	1.438	1.325	1.354	1.314	1.312	1.287	1.330	1.232	1.214	1.281	1.137	1.119
505.0	57.27	75.70	176.8	186.8	186.7	457.1	1799	695.5	216.2	215.1	204.5	187.3	168.7	149.7	134.9	123.2	117.9	109.8	104.9	97.19	91.58	84.01	78.60	75.21	73.16	70.03	67.85	69.75	68.32	67.39	65.41	61.33	54.27	50.21	45.33	42.00	37.11	33.93	30.40	27.99	26.28	28.67	30.15	22.00	16.37	13.72	11.91	10.14	9.024	7.894	6.968	6.044	6.219	8.039	14.26	63.49	335.0	606.5	165.8	6.102	1.714	1.520	1.338	1.304	1.431	1.293	1.229	1.219	1.221	1.330	1.280	1.226	1.111	1.210	1.120	1.186	1.158
510.0	55.74	66.39	135.4	204.7	171.9	236.8	1060	1477	287.5	193.9	185.1	168.9	148.2	136.5	120.6	109.2	104.2	97.34	91.92	85.37	79.15	73.68	69.07	66.63	63.71	61.87	61.35	60.67	60.86	59.87	57.96	55.04	49.28	45.14	40.30	37.88	33.56	31.18	28.45	25.87	23.51	23.51	25.87	24.71	18.05	14.13	11.90	10.42	9.089	7.895	7.239	6.409	5.374	5.475	6.650	17.09	82.65	277.3	453.5	231.6	13.82	1.606	1.376	1.272	1.336	1.301	1.173	1.081	1.139	1.161	1.052	1.129	1.027	1.123	1.128	1.143	1.187
515.0	54.51	59.26	100.7	194.1	175.8	169.5	399.8	1597	838.3	176.3	158.8	147.4	132.6	118.2	106.4	96.68	89.69	83.68	78.06	74.04	68.36	63.43	60.97	57.31	55.54	53.62	52.63	52.99	52.78	53.73	50.20	47.27	44.01	40.96	35.24	33.20	30.64	28.30	25.94	23.44	21.36	20.24	20.64	22.33	21.33	15.39	11.57	9.880	9.321	7.852	7.217	6.471	5.361	5.039	5.034	6.749	20.93	64.32	149.4	457.2	229.9	18.19	1.602	1.367	1.230	1.158	1.105	1.084	1.038	1.065	1.034	1.087	1.069	1.018	0.955	0.989	1.001
520.0	57.41	63.08	82.02	171.9	194.2	148.5	198.7	1035	1510	240.7	145.2	136.4	122.4	109.4	93.82	89.40	80.09	75.58	69.17	66.76	60.81	56.08	53.43	51.21	50.11	48.29	47.55	48.42	47.35	48.43	46.65	43.20	39.52	36.64	33.02	30.64	27.88	25.46	23.53	21.90	19.63	17.93	17.57	18.94	21.25	17.84	11.96	9.988	8.937	7.764	7.224	6.588	5.914	4.893	4.411	4.505	7.374	16.55	36.44	189.2	488.2	196.0	11.13	1.466	1.309	1.108	1.085	1.063	0.996	0.982	0.901	0.976	0.937	0.992	0.828	0.956	0.940
525.0	54.55	56.79	67.56	137.7	201.9	141.6	145.9	483.2	1798	531.7	140.2	126.8	112.2	98.46	83.56	79.75	74.74	67.23	63.56	58.76	56.09	51.97	49.13	46.51	45.23	43.84	43.52	42.97	42.38	42.77	42.16	39.28	35.25	33.52	29.99	27.91	25.64	23.76	21.57	20.08	18.37	16.66	16.28	15.83	18.35	18.31	12.61	9.920	8.351	7.587	6.760	6.423	5.965	5.448	4.298	3.948	4.237	6.089	10.37	46.65	242.6	449.7	146.7	4.735	1.500	1.099	1.009	1.059	0.996	0.951	0.884	0.912	0.972	0.855	0.805	1.013	0.962
530.0	52.88	52.15	63.59	100.7	184.5	159.2	121.7	209.0	1125	1343	195.6	110.7	97.92	85.97	74.95	68.15	62.06	58.94	56.29	51.67	47.99	44.70	42.99	40.39	38.93	38.22	39.04	37.45	37.62	37.44	36.25	34.89	31.53	29.12	26.61	24.64	23.14	21.02	19.61	18.22	16.54	15.23	14.32	13.56	14.06	15.98	14.84	10.72	8.166	7.231	6.661	5.987	5.621	5.180	4.527	3.985	3.867	3.808	4.558	12.29	59.36	196.3	329.8	134.6	13.10	1.273	1.100	0.986	0.972	0.842	0.853	0.816	0.865	0.784	0.916	0.894	0.875
535.0	51.28	45.40	58.67	85.71	133.3	186.4	114.8	126.2	391.9	1585	678.6	102.8	82.57	72.80	65.40	58.36	54.64	50.61	48.28	43.82	40.61	39.58	36.14	34.71	32.84	33.30	31.51	32.77	31.66	31.38	30.71	30.13	27.24	24.76	23.16	21.40	20.20	18.28	16.98	15.55	14.81	13.65	12.90	11.99	11.21	12.50	13.89	11.95	8.629	6.804	6.157	5.663	5.181	4.742	4.857	4.169	3.511	3.231	3.139	4.652	14.86	45.34	103.7	302.8	217.3	16.13	1.161	0.985	0.894	0.700	0.871	0.755	0.721	0.810	0.761	0.909	0.811
540.0	45.97	44.70	55.07	72.03	94.04	183.8	124.9	100.2	170.1	1034	1341	136.7	76.03	65.69	57.82	50.49	48.83	43.96	42.06	39.32	36.48	35.19	31.62	30.68	29.51	29.28	28.31	29.03	28.69	28.28	27.81	26.87	24.47	22.12	20.17	19.71	17.69	16.48	16.05	14.29	12.97	12.33	11.39	10.52	9.802	9.823	11.28	12.34	9.509	6.680	5.827	5.193	4.876	4.681	4.326	4.214	3.461	3.126	2.731	3.042	5.076	11.66	24.93	118.3	379.8	165.9	8.730	1.105	0.906	0.793	0.891	0.763	0.710	0.756	0.823	0.822	0.832
545.0	48.16	42.30	49.38	57.85	79.37	153.9	146.5	88.67	99.78	450.3	1674	230.5	68.61	58.75	52.08	47.02	43.01	39.24	36.21	33.69	32.46	30.23	28.48	27.06	26.80	25.67	25.45	25.20	24.88	24.87	24.40	23.31	21.85	19.77	18.18	17.50	15.92	15.31	14.32	13.02	11.90	11.14	10.55	9.653	9.296	8.833	9.115	10.78	10.06	6.963	5.551	4.980	4.478	4.257	4.035	4.157	3.711	3.138	2.648	2.381	2.811	3.970	6.857	28.84	179.8	318.4	106.5	3.515	1.016	0.752	0.929	0.679	0.790	0.779	0.771	0.745	0.842
550.0	43.15	45.23	47.43	52.86	62.43	95.95	151.8	91.40	76.67	167.3	1043	1029	105.8	51.00	44.41	38.86	36.55	34.26	30.85	28.35	26.70	25.35	24.22	22.80	22.70	22.01	21.28	20.71	21.02	20.94	20.21	19.70	18.06	17.02	15.39	14.58	13.40	12.75	11.87	11.26	10.14	9.308	8.859	8.317	7.910	7.515	7.233	7.764	8.954	7.585	5.650	4.607	4.049	3.867	3.462	3.473	3.456	3.202	2.518	2.183	2.141	2.284	2.820	7.559	43.22	131.1	214.0	117.8	12.08	0.998	0.890	0.698	0.766	0.677	0.715	0.720	0.704
555.0	42.91	39.17	42.32	47.53	47.63	61.50	125.0	111.9	66.59	86.24	335.4	1377	410.6	43.20	38.39	32.80	30.18	27.25	25.81	23.62	22.40	20.85	19.44	19.39	17.83	17.39	17.65	17.82	17.33	17.09	16.90	16.24	15.23	13.65	12.79	11.64	11.32	10.55	9.802	9.368	8.468	7.542	7.486	6.941	6.690	6.343	6.038	5.620	6.440	6.991	6.201	4.527	3.638	3.425	2.900	2.850	2.932	3.118	2.622	2.094	1.875	1.749	1.767	2.888	10.71	30.23	65.29	193.4	160.0	13.68	0.835	0.722	0.726	0.648	0.653	0.725	0.661
560.0	44.43	37.97	37.03	43.36	42.90	47.64	89.47	131.0	65.65	64.16	124.3	925.6	945.8	61.65	32.43	27.99	25.34	23.82	21.51	20.36	19.04	17.54	16.53	16.89	14.96	14.86	14.78	14.13	14.92	14.98	14.61	13.82	12.80	11.61	10.99	10.14	9.302	9.148	8.315	7.809	7.146	6.998	6.592	6.004	5.819	5.473	5.100	4.888	4.934	5.832	6.095	4.397	3.085	3.165	2.824	2.553	2.482	2.426	2.589	2.210	1.866	1.531	1.487	1.770	3.342	7.582	15.64	71.96	213.2	110.9	6.515	0.674	0.760	0.672	0.666	0.675	0.578
565.0	44.99	34.85	38.57	38.65	40.09	44.81	59.92	129.8	73.90	54.77	70.50	387.8	1303	143.8	28.37	23.46	22.70	19.59	18.08	17.22	15.79	15.12	13.98	14.20	12.88	13.09	12.61	12.46	12.72	12.52	12.54	12.04	10.99	9.750	9.110	8.872	8.081	7.354	7.172	6.836	6.051	5.798	5.497	5.135	5.180	4.844	4.434	4.346	4.247	4.450	5.540	4.601	3.108	2.757	2.522	2.145	2.333	2.123	2.356	2.339	1.778	1.374	1.369	1.404	1.632	2.497	4.360	17.55	91.82	193.8	32.77	2.729	0.784	0.669	0.582	0.538	0.698
570.0	46.24	38.00	34.87	35.14	34.11	36.95	42.74	96.22	99.91	51.99	52.42	129.1	854.5	715.4	51.79	20.29	18.50	16.71	15.62	14.52	13.00	12.52	11.50	11.58	10.88	10.92	10.39	10.29	10.37	10.33	10.13	9.724	9.110	8.174	7.797	7.125	6.621	6.310	6.016	5.574	5.115	4.880	4.929	4.235	4.193	3.990	3.586	3.499	3.490	3.228	3.829	4.388	3.479	2.718	2.218	2.045	2.018	1.907	1.891	2.007	1.896	1.530	1.233	1.190	1.237	1.360	1.763	4.801	21.99	74.66	123.7	76.66	10.08	0.732	0.648	0.590	0.702
575.0	42.32	38.13	31.55	34.37	30.01	32.80	34.69	54.66	115.0	61.12	46.17	62.24	268.0	1027	247.6	18.67	14.77	14.14	12.55	11.74	10.89	10.21	9.366	9.147	8.795	8.544	8.220	8.122	8.045	8.441	8.335	7.828	7.497	6.785	5.941	5.976	5.170	5.338	5.100	4.488	4.133	3.900	3.865	3.642	3.388	3.290	3.081	2.990	2.819	2.764	2.586	3.084	3.413	2.906	2.171	1.825	1.696	1.679	1.582	1.388	1.627	1.726	1.416	1.110	1.098	1.068	1.127	1.787	5.588	17.30	36.38	109.3	97.52	10.73	0.752	0.547	0.646
580.0	45.09	37.50	29.74	30.06	27.74	27.91	29.70	36.84	98.86	80.74	44.30	46.03	88.64	704.4	633.5	27.54	13.59	12.62	11.29	9.791	9.500	8.671	7.747	8.101	7.567	7.579	7.082	6.916	6.909	7.040	7.501	6.750	6.445	5.679	5.289	4.966	4.637	4.452	4.377	4.127	3.814	3.471	3.500	3.017	3.038	2.787	2.779	2.530	2.545	2.279	2.225	2.355	3.080	2.895	2.278	1.823	1.628	1.523	1.412	1.307	1.352	1.484	1.508	1.081	0.962	1.002	0.959	1.175	1.901	4.467	8.756	39.26	122.5	71.99	4.818	0.751	0.653
585.0	49.17	37.16	34.43	28.63	25.00	27.18	26.60	30.20	69.94	104.9	46.09	41.30	43.18	288.4	906.1	84.87	11.78	11.05	10.30	8.697	7.847	7.218	7.068	7.000	7.074	6.174	6.130	6.458	6.207	6.285	6.168	5.843	5.378	5.116	4.621	4.219	4.405	4.020	3.824	3.387	3.192	3.034	2.816	2.664	2.549	2.500	2.516	2.227	2.201	1.931	1.885	1.798	2.204	2.825	2.467	1.732	1.484	1.368	1.389	1.337	1.149	1.256	1.489	1.254	0.959	0.869	0.995	0.974	1.082	1.587	2.556	9.579	50.85	117.0	31.09	2.143	0.716
590.0	48.03	38.48	34.82	26.25	24.47	22.99	23.81	26.40	42.68	101.5	60.40	40.12	33.55	89.20	596.3	436.5	22.33	9.035	8.477	7.630	6.741	6.193	6.329	5.984	5.713	5.241	5.048	5.352	5.052	5.064	5.096	4.688	4.385	4.140	3.800	3.561	3.449	3.212	2.971	2.901	2.711	2.556	2.442	2.346	2.190	2.170	2.145	2.031	1.825	1.741	1.586	1.544	1.649	2.127	2.294	1.963	1.485	1.330	1.232	1.092	1.101	0.993	1.145	1.257	1.072	0.924	0.881	0.823	0.865	0.990	1.199	2.678	12.28	44.28	76.24	51.77	7.768
595.0	40.81	35.18	32.23	25.36	22.77	19.78	21.22	24.69	32.37	67.01	82.57	40.21	29.91	34.80	176.7	665.0	90.55	8.309	7.558	6.477	5.422	5.270	4.922	4.937	4.646	4.495	4.239	4.256	4.168	3.969	4.144	3.902	3.473	3.421	3.076	2.887	2.750	2.380	2.655	2.260	2.269	2.267	2.115	1.858	2.024	1.889	1.870	1.793	1.694	1.446	1.285	1.350	1.317	1.441	1.785	1.956	1.597	1.215	1.174	0.994	0.963	0.898	0.905	1.000	1.196	1.067	0.787	0.844	0.768	0.789	0.885	1.121	3.279	10.38	21.37	66.27	62.68
600.0	44.37	39.87	32.05	25.11	20.83	17.98	20.35	22.75	27.26	45.21	89.05	45.68	27.00	23.20	51.14	465.4	358.8	12.88	6.653	5.418	4.956	4.661	4.241	4.237	4.026	4.130	3.481	3.594	3.901	3.593	3.311	3.250	3.171	2.818	2.839	2.352	2.425	2.260	2.394	2.236	2.041	1.901	1.765	1.720	1.682	1.723	1.538	1.537	1.328	1.295	1.143	1.142	1.229	1.108	1.494	1.600	1.672	1.222	1.136	0.978	0.912	0.773	0.920	0.865	0.999	1.213	0.828	0.757	0.754	0.693	0.727	0.826	1.241	2.812	5.294	22.58	72.90
605.0	43.51	38.48	29.05	24.91	20.93	17.53	20.24	20.60	24.18	34.00	79.43	60.70	26.66	19.00	21.85	187.7	557.4	49.11	6.254	5.235	4.369	4.116	3.884	3.421	3.408	3.460	3.016	3.318	3.444	3.265	3.079	2.995	2.735	2.561	2.431	2.104	2.185	2.037	1.988	1.855	1.801	1.728	1.560	1.377	1.657	1.573	1.378	1.339	1.214	1.247	1.086	1.054	1.017	0.911	1.218	1.412	1.573	1.411	1.031	0.908	0.850	0.752	0.873	0.783	0.885	1.054	1.038	0.711	0.728	0.634	0.693	0.681	0.853	1.120	1.761	5.650	28.25
610.0	42.65	37.59	30.56	24.71	20.22	17.20	18.75	20.60	23.88	29.90	54.61	73.02	32.03	18.01	15.17	53.96	387.2	280.8	11.84	4.478	3.762	3.623	3.248	2.985	2.884	2.900	2.657	2.637	2.786	2.833	2.617	2.490	2.286	2.150	2.112	1.906	1.852	1.861	1.624	1.568	1.551	1.442	1.386	1.293	1.269	1.293	1.198	1.138	0.973	0.999	0.902	0.927	0.936	0.928	1.005	1.002	1.305	1.349	1.070	0.871	0.754	0.739	0.825	0.793	0.824	0.825	1.000	0.903	0.795	0.648	0.679	0.619	0.684	0.727	0.847	1.790	6.910
615.0	44.20	36.94	31.28	25.05	19.61	16.20	17.52	20.24	24.44	27.01	37.40	68.48	44.12	19.00	12.46	19.55	116.0	449.9	64.68	4.146	3.553	3.342	2.966	2.538	2.467	2.409	2.190	2.325	2.381	2.511	2.259	1.981	2.051	1.771	1.718	1.624	1.520	1.426	1.532	1.366	1.292	1.222	1.199	1.121	1.090	1.085	1.035	1.014	0.822	0.817	0.851	0.830	0.812	0.735	0.753	0.817	0.953	1.116	1.122	0.912	0.721	0.703	0.743	0.665	0.775	0.695	0.820	0.877	0.925	0.743	0.626	0.645	0.695	0.674	0.585	0.863	1.976
620.0	43.16	32.59	33.76	19.58	19.79	16.36	15.45	19.53	21.96	25.77	31.53	54.44	55.57	19.58	12.47	11.97	34.65	322.2	244.4	7.013	3.282	2.802	2.539	2.291	2.290	2.258	2.135	2.131	2.167	2.206	2.079	1.809	1.621	1.584	1.544	1.522	1.389	1.271	1.290	1.231	1.227	1.048	1.144	1.037	1.060	1.001	0.943	0.955	0.884	0.749	0.804	0.770	0.804	0.722	0.741	0.702	0.837	0.932	1.026	0.975	0.797	0.710	0.651	0.627	0.779	0.662	0.647	0.737	0.939	0.939	0.702	0.603	0.719	0.588	0.595	0.615	0.837
625.0	42.61	33.37	32.04	20.96	19.87	15.86	15.72	19.24	20.86	24.40	30.53	40.20	61.38	23.74	12.43	10.63	16.31	132.4	403.0	30.87	3.334	2.699	2.331	2.196	1.931	2.000	2.079	2.016	1.903	1.927	1.748	1.656	1.584	1.356	1.334	1.336	1.273	1.261	1.118	1.098	1.105	1.046	1.018	0.951	0.923	0.852	0.828	0.868	0.822	0.732	0.795	0.636	0.712	0.739	0.611	0.668	0.703	0.791	0.937	0.955	0.877	0.660	0.709	0.562	0.692	0.718	0.644	0.622	0.797	0.883	0.718	0.557	0.615	0.578	0.559	0.530	0.635
630.0	43.17	33.41	31.88	25.87	22.34	18.42	16.28	18.40	20.98	23.55	29.60	32.05	53.10	37.69	17.87	16.10	16.54	44.31	290.3	170.8	7.621	2.786	2.129	1.945	1.808	1.824	1.560	1.584	1.598	1.588	1.606	1.543	1.441	1.158	1.234	1.221	1.041	1.108	0.961	0.926	0.913	0.922	0.867	0.875	0.763	0.786	0.808	0.741	0.671	0.591	0.672	0.653	0.687	0.656	0.636	0.648	0.645	0.680	0.768	0.877	0.842	0.733	0.686	0.572	0.622	0.662	0.614	0.687	0.640	0.752	0.787	0.719	0.585	0.618	0.599	0.608	0.601
635.0	43.67	37.31	34.68	32.05	27.54	22.70	19.78	18.24	22.89	24.95	30.95	34.35	44.00	56.00	33.57	29.79	30.03	33.28	100.4	332.6	49.81	3.030	1.969	1.727	1.561	1.787	1.477	1.381	1.470	1.496	1.552	1.284	1.235	1.052	1.013	1.080	1.026	0.988	0.862	1.052	0.820	0.885	0.776	0.810	0.788	0.881	0.751	0.673	0.639	0.546	0.583	0.579	0.641	0.590	0.576	0.612	0.661	0.720	0.617	0.751	0.753	0.744	0.662	0.620	0.651	0.694	0.654	0.706	0.587	0.767	0.822	0.820	0.619	0.650	0.627	0.737	0.755
640.0	45.24	38.65	36.02	37.92	35.54	26.72	22.89	20.67	24.93	26.37	33.71	37.97	43.37	66.13	55.07	44.63	46.36	41.18	50.19	260.0	176.8	5.190	2.195	1.676	1.567	1.471	1.567	1.173	1.337	1.509	1.217	1.175	1.257	0.937	0.951	1.053	0.966	0.818	0.794	0.907	0.708	0.793	0.745	0.773	0.715	0.750	0.663	0.660	0.625	0.534	0.547	0.516	0.634	0.614	0.551	0.635	0.644	0.631	0.575	0.645	0.673	0.746	0.756	0.590	0.668	0.674	0.657	0.684	0.670	0.740	0.739	0.824	0.745	0.713	0.773	0.686	0.737
645.0	41.99	38.06	42.49	46.65	39.63	30.86	25.99	21.28	26.56	30.56	35.80	42.49	47.50	66.61	71.63	55.62	58.15	52.43	43.82	126.2	295.2	21.17	1.990	1.649	1.501	1.283	1.338	1.285	1.440	1.246	1.160	1.180	0.992	0.899	0.923	0.916	0.918	0.747	0.704	0.770	0.702	0.791	0.613	0.673	0.669	0.602	0.641	0.577	0.562	0.541	0.570	0.614	0.673	0.654	0.558	0.596	0.641	0.628	0.536	0.649	0.681	0.672	0.815	0.709	0.718	0.714	0.667	0.626	0.670	0.750	0.698	0.756	0.842	0.902	0.880	0.721	0.817
650.0	43.76	43.92	44.97	48.90	41.91	34.28	25.50	21.99	27.04	31.07	41.18	41.16	50.39	63.36	81.58	63.79	65.46	56.64	44.80	59.22	277.6	62.71	2.330	1.660	1.352	1.199	1.256	1.300	1.203	1.095	1.031	1.055	1.057	0.927	0.913	0.857	0.842	0.735	0.671	0.722	0.676	0.642	0.606	0.697	0.582	0.560	0.641	0.583	0.565	0.461	0.522	0.610	0.593	0.664	0.682	0.595	0.631	0.648	0.571	0.563	0.708	0.657	0.710	0.715	0.638	0.704	0.679	0.714	0.731	0.711	0.738	0.791	0.859	0.876	0.828	0.707	0.794
