Sample:	'1
File name:	y2025061804Ë®Å£º«º­¶´.FD3
Run date:	'09:46:17, 06/23/2025
Operator:	Administrator
Comment:	'

Instrument
Model:	F-2700 FL Spectrophotometer
Serial number:	23B8-004
ROM Version:	4J14000 07

Instrument parameters
Measurement type:	3-D scan
Data mode:	Fluorescence
EX  Start WL:	220.0 nm
EX  End WL:	600.0 nm
EX Sampling interval:	5.0 nm
EM  Start WL:	230.0 nm
EM  End WL:	650.0 nm
EM Sampling interval:	5.0 nm
Scan speed:	12000 nm/min
EX Slit:	5.0 nm
EM Slit:	5.0 nm
PMT Voltage:	700 V
Response:	Auto 
Corrected spectra:	Off
Contour interval:	50.000

Peak integration
Integration method:	Rectangular
Sensitivity:	1
Threshold:	1.000

Peaks
No.	ApexEX/EM(nm)	Height(Data)
1	225.0/585.0	63.36
2	230.0/345.0	1193
3	230.0/500.0	307.5
4	230.0/580.0	58.87
5	235.0/260.0	319.9
6	235.0/515.0	278.4
7	240.0/265.0	435.8
8	240.0/400.0	871.0
9	240.0/525.0	256.4
10	245.0/270.0	492.2
11	245.0/535.0	212.2
12	245.0/635.0	20.16
13	250.0/275.0	630.7
14	250.0/550.0	170.9
15	255.0/285.0	628.7
16	255.0/560.0	143.3
17	260.0/290.0	574.1
18	260.0/575.0	113.0
19	265.0/295.0	725.2
20	265.0/585.0	104.0
21	270.0/300.0	1004
22	270.0/405.0	731.8
23	270.0/600.0	94.22
24	275.0/305.0	1067
25	275.0/610.0	81.50
26	280.0/340.0	843.0
27	280.0/625.0	69.20
28	285.0/320.0	930.0
29	285.0/640.0	50.21
30	290.0/325.0	867.4
31	300.0/335.0	702.6
32	305.0/345.0	625.0
33	320.0/365.0	472.5
34	335.0/380.0	416.3
35	425.0/500.0	40.76
36	460.0/340.0	3.483
37	475.0/345.0	3.431
38	485.0/265.0	2.064
39	495.0/270.0	2.348
40	505.0/275.0	3.229
41	510.0/280.0	3.986
42	515.0/285.0	3.566
43	530.0/290.0	3.340
44	540.0/295.0	4.765
45	545.0/300.0	5.374
46	550.0/305.0	5.810
47	560.0/310.0	5.424
48	570.0/315.0	5.083
49	580.0/320.0	5.114
50	585.0/325.0	5.433

Data points
	220.0	225.0	230.0	235.0	240.0	245.0	250.0	255.0	260.0	265.0	270.0	275.0	280.0	285.0	290.0	295.0	300.0	305.0	310.0	315.0	320.0	325.0	330.0	335.0	340.0	345.0	350.0	355.0	360.0	365.0	370.0	375.0	380.0	385.0	390.0	395.0	400.0	405.0	410.0	415.0	420.0	425.0	430.0	435.0	440.0	445.0	450.0	455.0	460.0	465.0	470.0	475.0	480.0	485.0	490.0	495.0	500.0	505.0	510.0	515.0	520.0	525.0	530.0	535.0	540.0	545.0	550.0	555.0	560.0	565.0	570.0	575.0	580.0	585.0	590.0	595.0	600.0
230.0	64.14	922.3	1589	369.9	15.43	5.381	4.256	3.279	2.993	2.892	2.643	2.499	2.128	2.093	1.731	1.262	1.229	1.008	1.001	0.842	0.813	0.781	0.759	0.660	0.600	0.595	0.539	0.557	0.563	0.477	0.476	0.412	0.399	0.417	0.354	0.377	0.359	0.336	0.309	0.307	0.375	0.431	0.346	0.340	0.277	0.319	1.142	3.882	5.626	3.441	1.136	0.317	0.210	0.213	0.195	0.194	0.216	0.220	0.227	0.189	0.186	0.207	0.208	0.220	0.171	0.195	0.179	0.201	0.204	0.189	0.213	0.207	0.194	0.194	0.216	0.203	0.210
235.0	91.59	281.9	1363	1948	444.2	23.91	4.726	3.982	3.319	3.167	2.831	2.799	2.139	1.982	1.478	1.302	1.093	1.050	1.054	0.849	0.871	0.831	0.716	0.683	0.643	0.666	0.585	0.587	0.442	0.525	0.569	0.403	0.338	0.359	0.318	0.343	0.327	0.349	0.306	0.376	0.338	0.329	0.374	0.463	0.405	0.322	0.437	1.259	2.666	4.774	6.584	6.160	2.344	0.507	0.188	0.192	0.234	0.223	0.187	0.216	0.190	0.217	0.205	0.202	0.216	0.214	0.208	0.211	0.194	0.203	0.212	0.193	0.207	0.178	0.227	0.289	0.220
240.0	134.8	125.5	482.2	2122	2109	335.0	12.24	5.751	3.490	3.777	3.263	2.857	2.679	2.074	1.639	1.428	1.359	0.996	0.972	1.166	0.832	0.718	0.691	0.608	0.697	0.590	0.665	0.589	0.515	0.515	0.557	0.367	0.360	0.482	0.448	0.321	0.407	0.347	0.368	0.385	0.378	0.291	0.295	0.414	0.615	0.485	0.403	0.512	0.830	1.602	4.312	9.489	10.34	6.367	1.753	0.354	0.240	0.212	0.164	0.199	0.175	0.221	0.195	0.204	0.211	0.230	0.195	0.184	0.169	0.222	0.244	0.219	0.252	0.216	0.208	0.213	0.205
245.0	126.9	175.3	152.4	860.9	2850	2038	222.0	7.816	4.416	3.924	3.717	3.076	2.890	2.082	1.839	1.254	1.222	1.264	1.114	1.010	0.851	0.692	0.657	0.685	0.558	0.684	0.704	0.651	0.546	0.554	0.542	0.462	0.399	0.451	0.311	0.285	0.381	0.374	0.380	0.387	0.326	0.291	0.320	0.307	0.426	0.601	0.592	0.612	0.436	0.582	1.249	3.869	8.778	14.02	11.54	5.123	1.304	0.352	0.226	0.266	0.188	0.272	0.228	0.209	0.184	0.228	0.194	0.253	0.174	0.174	0.232	0.194	0.220	0.250	0.212	0.234	0.197
250.0	56.60	157.2	214.2	266.4	1041	2664	2573	785.5	33.67	6.347	4.446	3.651	3.062	2.215	2.010	1.647	1.527	1.504	1.253	0.993	0.941	0.800	0.772	0.760	0.677	0.662	0.725	0.584	0.657	0.560	0.612	0.524	0.443	0.392	0.360	0.299	0.383	0.401	0.320	0.357	0.346	0.340	0.340	0.277	0.365	0.419	0.431	0.746	0.848	0.732	0.612	1.101	2.368	5.012	8.457	12.72	15.43	12.22	6.142	1.435	0.323	0.254	0.267	0.243	0.203	0.237	0.221	0.214	0.191	0.196	0.238	0.190	0.199	0.229	0.189	0.253	0.188
255.0	31.25	60.55	194.7	297.7	307.6	759.3	2831	4346	297.5	29.41	6.554	5.377	3.769	2.611	2.376	1.950	1.741	1.336	1.180	1.350	1.066	0.735	0.751	0.746	0.676	0.681	0.709	0.594	0.557	0.603	0.523	0.483	0.513	0.461	0.443	0.390	0.412	0.348	0.380	0.345	0.425	0.348	0.379	0.346	0.309	0.274	0.349	0.414	0.528	0.881	1.167	1.212	0.935	1.385	2.157	3.356	6.877	16.09	25.44	21.47	8.758	1.437	0.270	0.308	0.225	0.248	0.210	0.250	0.209	0.194	0.220	0.256	0.262	0.220	0.195	0.241	0.211
260.0	32.05	32.05	90.39	319.9	304.1	239.4	1004	4419	4423	239.6	16.70	6.704	4.241	3.345	2.675	2.350	1.679	1.480	1.378	1.346	1.031	0.841	0.838	0.878	0.734	0.640	0.683	0.620	0.632	0.509	0.566	0.478	0.608	0.437	0.395	0.405	0.379	0.350	0.361	0.424	0.327	0.374	0.380	0.320	0.349	0.319	0.300	0.342	0.315	0.475	0.939	1.562	1.514	1.060	0.921	1.072	1.910	4.926	13.16	26.20	30.84	20.00	5.809	0.803	0.287	0.235	0.193	0.243	0.201	0.208	0.270	0.289	0.249	0.201	0.233	0.259	0.225
265.0	31.42	24.95	41.32	189.3	435.8	255.6	308.7	1736	5957	2056	178.5	10.06	6.256	4.166	2.987	2.813	2.180	1.852	1.386	1.219	1.135	0.965	0.916	0.824	0.728	0.853	0.771	0.715	0.653	0.523	0.699	0.569	0.502	0.452	0.410	0.380	0.450	0.369	0.363	0.387	0.319	0.399	0.448	0.380	0.400	0.290	0.314	0.326	0.270	0.301	0.478	1.066	1.890	2.064	1.522	0.896	0.887	1.504	3.559	8.604	20.90	35.08	29.80	16.72	3.111	0.423	0.281	0.241	0.238	0.221	0.264	0.215	0.222	0.250	0.238	0.293	0.243
270.0	48.29	39.92	42.19	90.26	279.6	492.2	334.8	487.7	2121	4969	4912	740.2	34.34	6.265	4.801	3.201	2.636	2.035	1.704	1.437	1.361	1.099	0.948	0.906	0.892	0.888	0.799	0.769	0.637	0.622	0.659	0.586	0.600	0.519	0.577	0.516	0.421	0.416	0.415	0.379	0.343	0.390	0.347	0.362	0.444	0.317	0.344	0.416	0.363	0.284	0.346	0.614	0.891	1.494	2.255	2.348	2.052	1.340	1.345	2.404	5.244	11.07	19.39	29.95	32.16	29.10	12.36	3.105	0.463	0.276	0.287	0.248	0.266	0.260	0.243	0.249	0.298
275.0	99.59	95.19	87.41	84.31	170.2	361.8	630.7	370.0	540.8	1343	5083	8577	982.1	29.68	6.949	4.436	3.585	2.678	2.472	1.731	1.573	1.294	1.067	0.915	0.882	0.848	0.915	0.790	0.673	0.792	0.692	0.627	0.650	0.523	0.677	0.517	0.547	0.576	0.441	0.384	0.390	0.361	0.442	0.495	0.506	0.477	0.463	0.461	0.469	0.467	0.447	0.431	0.651	0.863	1.256	1.715	3.144	3.229	2.344	1.380	1.697	2.861	4.776	7.440	11.51	26.56	48.71	31.84	18.54	2.978	0.421	0.317	0.280	0.268	0.213	0.274	0.244
280.0	156.6	161.9	145.8	115.7	145.4	247.5	504.9	624.2	274.4	371.2	1584	7684	7850	145.7	16.12	6.262	4.178	3.181	2.702	1.934	1.579	1.400	1.290	0.991	0.906	0.989	0.892	0.784	0.730	0.787	0.696	0.705	0.812	0.743	0.774	0.617	0.599	0.579	0.535	0.528	0.493	0.487	0.563	0.539	0.562	0.588	0.697	0.661	0.588	0.529	0.490	0.511	0.632	0.906	1.028	1.126	1.791	2.743	3.986	2.989	1.575	1.165	1.571	2.132	3.061	7.331	18.73	37.48	57.19	29.67	13.60	1.343	0.353	0.293	0.338	0.294	0.215
285.0	221.7	275.7	220.7	155.3	148.1	206.8	307.8	628.7	351.3	203.6	459.6	2554	9170	6135	107.7	9.911	5.078	3.974	2.979	2.485	1.737	1.509	1.503	1.122	1.107	0.919	1.068	0.901	0.735	0.777	0.793	0.648	0.667	0.685	0.782	0.660	0.749	0.728	0.675	0.604	0.519	0.566	0.631	0.652	0.697	0.712	0.809	0.818	0.848	0.600	0.525	0.591	0.644	0.777	0.861	1.003	1.245	1.468	2.417	3.566	3.495	2.069	1.109	1.082	1.401	2.317	4.915	10.77	26.56	48.24	58.27	25.43	7.094	0.787	0.386	0.327	0.272
290.0	285.6	368.2	304.4	205.2	154.0	179.5	216.0	330.3	574.1	500.3	284.3	737.8	2869	6715	6437	439.3	25.59	5.480	3.826	2.915	2.372	1.767	1.619	1.311	1.344	1.114	1.050	0.907	0.828	0.844	0.764	0.685	0.675	0.758	0.861	0.861	0.783	0.823	0.728	0.643	0.652	0.610	0.629	0.666	0.850	0.924	0.993	1.134	1.107	0.850	0.716	0.757	0.704	0.764	0.804	0.955	1.001	1.090	1.379	1.688	2.514	3.224	3.340	2.591	1.694	1.481	2.092	3.345	6.926	13.46	24.99	35.15	34.27	38.74	17.56	7.070	0.946
295.0	364.9	431.4	393.3	257.7	177.5	178.3	194.8	228.3	340.2	725.2	692.0	446.5	853.0	1731	4718	6630	629.7	21.98	5.928	4.042	2.878	2.427	1.883	1.578	1.347	1.204	1.160	0.892	1.052	0.728	0.791	0.689	0.868	0.841	0.872	0.904	0.846	0.887	0.835	0.685	0.602	0.733	0.732	0.760	0.910	1.173	1.154	1.286	1.368	0.988	0.952	0.876	0.771	0.748	0.882	0.941	0.950	0.889	1.142	1.134	1.568	1.727	2.548	3.960	4.765	3.087	2.003	2.067	2.850	4.262	6.511	8.891	9.915	22.41	43.56	58.37	27.98
300.0	381.9	476.7	430.8	283.6	198.2	198.4	215.6	236.9	304.0	542.3	1004	647.4	483.3	580.8	1369	5977	5694	461.0	11.32	5.443	3.519	2.909	2.083	1.781	1.586	1.360	1.342	1.031	0.994	0.956	0.783	0.841	0.870	0.905	0.954	0.891	1.010	0.892	0.861	0.806	0.653	0.732	0.705	0.856	1.057	1.220	1.272	1.424	1.491	1.168	0.958	0.940	0.910	0.857	0.951	1.017	1.012	1.104	1.255	1.247	1.512	1.505	2.063	2.598	4.443	5.374	4.271	2.747	2.331	2.563	2.853	3.054	3.170	6.058	13.62	34.58	57.04
305.0	403.4	480.1	466.7	324.0	226.7	223.4	247.8	287.9	350.4	483.0	866.2	1067	549.9	396.9	472.5	1861	6890	4675	71.18	7.982	4.647	3.384	2.352	2.195	1.934	1.629	1.368	1.136	1.153	0.882	0.952	0.992	0.871	0.884	0.886	0.985	0.959	0.871	1.016	0.850	0.690	0.855	0.783	0.845	1.104	1.229	1.398	1.539	1.452	1.277	1.098	1.148	1.056	0.951	1.025	1.018	1.178	1.367	1.479	1.693	1.616	1.694	2.028	2.325	3.003	4.104	5.810	5.260	3.890	2.674	2.437	2.077	2.015	2.349	4.053	9.028	20.36
310.0	399.3	486.3	469.7	336.8	243.6	247.2	279.5	329.1	397.6	499.0	668.4	961.0	945.1	507.7	325.3	544.7	2040	4962	5075	1218	21.12	4.519	3.262	2.513	2.151	1.709	1.525	1.381	1.162	1.019	0.893	0.920	0.841	0.912	0.921	0.939	1.022	1.035	1.015	0.841	0.841	0.950	0.930	0.838	1.068	1.168	1.400	1.462	1.416	1.315	1.223	1.260	1.067	1.107	1.028	1.225	1.342	1.411	1.527	1.660	1.727	1.968	2.157	2.537	2.742	2.994	3.833	4.657	5.424	4.840	3.873	2.611	1.984	1.976	1.969	2.976	5.499
315.0	424.1	530.4	469.9	358.2	279.2	283.0	314.8	363.2	432.3	521.2	629.4	743.3	881.9	889.6	419.7	304.9	579.7	1229	3396	6569	495.7	20.90	5.014	3.294	2.524	2.002	1.683	1.553	1.302	1.152	0.968	0.902	0.912	0.810	0.969	0.896	1.151	0.944	0.896	0.892	0.752	0.901	0.940	0.927	1.040	1.189	1.320	1.619	1.465	1.286	1.207	1.223	1.179	1.232	1.233	1.323	1.448	1.472	1.513	1.693	1.934	2.155	2.388	2.652	3.092	2.944	3.358	3.531	3.970	4.217	5.083	4.715	3.450	2.354	1.754	1.785	2.520
320.0	449.1	582.1	546.4	421.4	323.2	319.1	351.3	394.4	467.1	557.3	656.0	718.5	757.7	930.0	686.5	329.9	313.1	398.6	944.4	4587	4255	393.0	10.41	4.028	3.127	2.416	1.851	1.702	1.497	1.262	1.161	1.007	0.996	0.920	0.974	0.998	1.025	0.863	0.895	0.902	0.730	0.815	0.883	0.951	1.102	1.255	1.407	1.799	1.702	1.548	1.449	1.484	1.357	1.362	1.423	1.512	1.631	1.747	1.716	1.748	1.986	2.187	2.521	2.651	3.025	3.033	3.267	3.465	3.617	3.687	4.068	4.929	5.114	3.974	2.429	2.031	2.006
325.0	526.9	686.3	708.8	519.7	408.5	364.9	375.9	416.4	489.5	585.7	691.1	749.5	755.1	780.9	867.4	493.6	299.2	251.7	319.0	1349	4936	3733	58.77	6.686	4.096	3.023	2.173	1.775	1.525	1.247	1.243	1.196	0.959	0.964	0.966	0.941	0.921	0.825	0.973	0.868	0.913	0.869	1.036	0.976	1.196	1.502	1.652	2.094	2.154	1.846	1.743	1.773	1.445	1.592	1.530	1.666	1.709	1.731	1.816	1.810	2.157	2.247	2.840	2.965	3.103	3.122	3.384	3.695	3.590	3.523	3.654	3.843	4.677	5.433	4.516	2.970	2.380
330.0	583.6	831.3	933.7	725.0	502.1	422.5	418.1	447.6	521.0	623.8	722.4	788.2	782.6	741.9	747.1	715.6	467.7	272.8	219.2	406.9	1439	3762	4147	1117	18.54	4.351	2.894	2.211	1.820	1.526	1.445	1.196	1.117	1.169	1.042	0.974	1.114	0.927	0.954	0.973	0.895	0.993	1.027	1.048	1.322	1.678	1.992	2.612	2.535	2.471	2.280	2.256	1.919	1.916	1.749	1.765	1.920	1.929	1.905	2.134	2.312	2.245	2.791	2.977	3.345	3.352	3.433	3.894	3.731	3.708	3.827	3.802	3.964	4.143	4.569	4.436	4.049
335.0	639.7	937.9	1078	888.0	620.7	501.3	455.5	490.3	554.2	663.6	761.5	817.6	824.1	778.1	701.2	663.8	702.6	428.8	251.6	236.4	407.5	915.5	2688	5575	424.2	20.01	4.205	2.958	2.489	1.961	1.563	1.451	1.317	1.106	1.151	0.999	1.059	1.048	1.049	0.935	0.932	0.936	1.007	1.185	1.424	1.830	2.229	2.789	2.985	2.751	2.607	2.892	2.303	2.178	2.257	2.045	2.306	2.179	2.170	2.267	2.429	2.438	2.719	3.252	3.487	3.384	3.467	3.924	4.102	3.912	3.943	3.940	3.845	3.852	3.924	3.785	4.081
340.0	656.0	966.9	1169	980.8	693.8	546.8	503.9	505.6	574.6	671.6	766.8	836.9	843.0	804.8	714.6	631.0	669.1	604.3	324.2	225.3	196.7	265.3	724.4	3818	3556	352.1	9.994	3.848	2.979	2.119	1.696	1.388	1.322	1.291	1.218	1.040	1.010	1.173	0.952	0.915	0.963	0.876	1.088	1.144	1.486	1.959	2.259	2.914	3.483	2.881	3.130	3.118	2.626	2.472	2.297	2.253	2.277	2.387	2.120	2.468	2.486	2.666	2.805	3.266	3.341	3.450	3.664	3.912	3.940	3.946	4.086	4.153	4.048	4.185	4.112	3.490	3.875
345.0	665.8	937.3	1193	1038	735.4	579.2	522.5	517.2	575.7	672.3	758.9	832.2	833.7	807.5	729.4	633.3	578.0	625.0	455.0	255.7	173.4	143.7	218.1	1090	4184	3234	52.44	5.985	3.441	2.492	1.685	1.345	1.542	1.170	1.299	1.033	1.004	1.085	0.918	0.875	0.962	0.909	1.101	1.343	1.537	1.995	2.362	3.021	3.113	3.062	3.037	3.431	2.725	2.478	2.321	2.347	2.122	2.438	2.334	2.401	2.628	2.662	3.083	3.261	3.213	3.244	3.915	3.928	3.814	4.101	3.976	3.925	4.242	4.124	4.092	3.626	3.765
350.0	630.6	930.5	1151	1039	793.5	629.9	553.6	545.3	586.3	668.9	743.5	803.9	818.3	796.3	732.8	643.5	570.6	538.3	535.8	398.6	219.4	153.8	134.0	304.1	1209	3171	3591	974.5	17.14	3.470	2.400	1.802	1.694	1.296	1.211	1.091	1.133	1.028	0.927	0.920	0.921	0.965	0.977	1.186	1.373	1.787	2.202	2.695	3.090	3.092	3.012	3.371	2.763	2.706	2.641	2.430	2.448	2.441	2.429	2.580	2.580	2.807	3.053	3.198	3.181	3.343	3.708	3.576	3.870	4.054	3.998	4.056	4.207	4.026	4.098	3.811	3.870
355.0	600.1	887.4	1082	1026	826.6	688.2	609.0	580.2	619.2	680.9	744.3	786.2	811.9	786.6	736.5	664.6	590.0	524.0	478.8	504.0	352.6	203.5	153.1	155.3	328.5	768.7	2309	4600	385.7	18.61	3.725	2.305	1.940	1.507	1.323	1.136	1.131	1.006	0.982	0.813	0.909	0.961	1.029	1.114	1.430	1.713	1.972	2.686	2.936	2.927	2.891	3.219	3.098	2.952	2.659	2.603	2.521	2.619	2.516	2.644	2.783	2.824	3.114	3.295	3.290	3.059	3.585	3.748	3.758	3.947	3.970	3.734	4.024	4.082	4.100	3.746	3.934
360.0	590.9	832.4	1053	1005	849.3	730.7	649.6	619.1	653.0	699.1	747.9	781.1	807.5	781.5	732.6	678.0	612.5	544.6	472.6	473.1	465.7	279.6	183.7	146.3	153.8	222.6	619.2	3222	3231	328.8	9.062	2.995	2.269	1.587	1.517	1.336	1.138	1.114	0.943	0.912	0.959	0.979	1.067	1.083	1.464	1.663	1.919	2.394	2.764	2.868	2.737	3.209	3.070	2.975	2.819	2.603	2.861	2.782	2.710	2.700	2.781	2.893	3.052	3.395	3.171	3.424	3.426	3.576	3.703	3.809	3.986	4.079	4.108	4.040	4.013	3.768	3.918
365.0	553.2	813.5	1022	966.2	864.0	756.6	666.2	643.4	672.8	717.1	752.6	778.5	790.0	765.8	728.8	683.1	624.8	560.3	493.3	449.4	472.5	394.7	234.7	172.8	134.9	119.0	186.9	937.8	3765	2992	48.71	5.240	3.069	2.175	1.525	1.477	1.065	0.939	1.061	1.068	0.830	1.038	1.097	1.152	1.336	1.571	1.939	2.310	2.765	2.741	2.818	3.152	3.131	3.148	2.985	2.685	2.954	2.825	2.944	2.867	2.929	2.988	3.191	3.412	3.513	3.464	3.518	3.802	3.855	3.821	3.899	3.941	4.026	4.026	3.984	4.026	4.257
370.0	541.1	762.5	963.4	955.7	859.1	774.0	703.9	673.2	698.9	721.1	743.2	767.2	774.9	757.2	725.0	681.3	638.5	583.5	526.4	470.5	435.9	440.8	359.8	234.4	167.3	126.4	112.4	259.1	1099	2995	3279	868.5	15.57	2.998	1.948	1.503	1.256	1.137	1.117	0.932	0.955	1.078	1.078	1.184	1.288	1.509	1.891	2.344	2.567	2.603	2.743	3.127	3.270	3.076	3.020	2.726	2.974	3.009	2.984	3.024	2.979	3.182	3.191	3.448	3.296	3.407	3.448	3.570	3.597	3.703	3.872	3.831	4.008	4.127	4.092	3.938	3.990
375.0	544.9	735.2	927.6	924.9	886.9	788.9	739.8	706.4	715.5	731.6	740.5	758.4	765.2	740.5	709.3	674.1	645.6	601.7	545.3	496.5	446.1	413.4	425.9	347.2	217.1	161.1	125.2	128.8	292.6	729.7	2211	4151	335.9	16.07	2.956	1.999	1.444	1.376	1.145	1.109	0.977	1.105	1.056	1.344	1.456	1.502	1.900	2.269	2.361	2.647	2.515	3.271	3.301	3.134	3.218	2.841	3.095	3.122	3.059	3.004	3.265	3.190	3.204	3.413	3.507	3.499	3.648	3.495	3.578	3.633	3.832	3.424	4.027	3.913	4.097	3.860	3.916
380.0	512.9	710.5	906.1	921.4	875.7	811.8	750.9	720.1	715.5	741.1	748.9	750.9	749.8	728.6	706.1	666.5	639.9	607.9	562.4	518.3	461.5	416.3	407.9	416.3	284.0	188.8	147.3	118.0	128.9	207.0	599.4	3015	2803	272.6	7.277	2.456	1.744	1.645	1.201	1.083	1.040	1.113	0.986	1.273	1.383	1.532	1.836	2.163	2.460	2.314	2.436	3.024	3.471	3.104	3.101	3.115	3.441	3.036	3.116	3.107	3.350	3.251	3.232	3.449	3.368	3.530	3.286	3.433	3.621	3.700	3.989	3.574	3.998	3.983	3.973	4.077	4.126
385.0	504.3	701.4	882.5	910.3	883.2	815.7	758.0	726.8	717.3	731.2	746.2	753.2	733.7	715.1	689.5	656.5	631.4	605.7	566.6	521.9	480.6	434.9	393.5	406.5	363.7	234.1	172.1	132.5	108.6	102.6	174.2	888.5	3268	2459	39.14	4.124	2.399	1.731	1.577	1.129	1.013	1.059	0.985	1.196	1.316	1.519	1.735	2.210	2.375	2.449	2.554	2.918	3.107	3.204	3.226	2.949	3.182	3.095	3.090	3.236	3.299	3.250	3.422	3.156	3.322	3.403	3.148	3.384	3.662	3.569	3.637	3.898	3.884	3.888	3.892	4.035	4.037
390.0	493.5	691.8	853.8	886.9	868.0	817.3	759.9	735.4	734.8	734.3	733.7	739.6	720.7	698.9	670.1	640.1	620.6	596.7	568.9	535.4	495.2	452.7	409.9	386.0	381.0	326.8	222.6	165.1	129.7	101.5	94.97	236.3	952.7	2402	2494	657.5	12.46	2.484	1.842	1.357	1.267	1.178	0.958	1.180	1.318	1.480	1.632	2.062	2.331	2.308	2.447	3.071	3.195	3.273	3.109	3.186	3.180	3.157	3.120	3.239	3.157	3.277	3.351	3.386	3.397	3.240	3.375	3.502	3.440	3.299	3.685	3.520	3.725	3.853	3.909	3.842	3.919
395.0	497.2	664.5	824.4	883.6	855.3	814.2	769.5	747.5	733.2	732.4	724.7	729.1	709.5	686.6	661.8	623.7	608.3	586.0	560.1	536.3	504.5	466.3	427.3	392.3	365.2	364.9	310.3	211.0	163.8	127.7	98.16	107.0	247.9	582.4	1737	3130	278.0	12.00	2.500	1.848	1.319	1.119	1.141	1.326	1.350	1.590	1.768	2.039	2.225	2.226	2.360	3.035	3.126	3.182	3.249	2.887	3.177	3.128	3.247	3.364	3.164	3.315	3.057	3.344	3.189	3.103	3.320	3.247	3.324	3.280	3.231	3.503	3.679	3.691	3.473	3.869	3.767
400.0	504.9	651.8	818.5	855.4	871.0	816.6	780.0	758.4	746.6	729.8	727.3	723.3	700.0	674.1	647.4	613.8	591.7	574.9	551.7	528.6	497.9	469.6	442.7	405.5	365.9	350.0	355.2	269.1	189.5	150.0	114.8	91.49	101.0	161.1	482.6	2345	2280	218.1	6.017	2.350	1.591	1.499	1.336	1.232	1.414	1.474	1.675	2.042	2.139	2.109	2.433	3.188	2.830	3.264	3.219	2.982	3.488	3.227	3.288	3.316	3.155	3.266	3.260	3.324	3.150	3.208	3.305	3.204	3.115	3.411	3.269	3.362	3.408	3.551	3.437	4.153	3.765
405.0	496.5	659.2	795.4	846.1	845.2	822.8	783.1	764.7	745.3	720.5	731.8	710.3	691.2	670.5	631.3	595.3	575.1	561.3	540.0	515.2	494.6	475.6	449.0	415.3	377.4	344.6	350.2	327.7	229.5	174.4	135.0	101.4	78.65	74.33	135.0	694.5	2510	1978	34.53	3.375	1.836	1.577	1.368	1.324	1.476	1.551	1.537	2.122	2.195	2.124	2.414	3.183	2.884	3.176	3.049	2.965	3.314	3.201	3.244	3.157	3.195	3.292	3.342	3.144	3.081	3.195	3.347	3.386	3.265	3.440	3.486	3.421	3.533	3.643	3.295	3.689	3.490
410.0	479.3	643.9	766.3	831.1	833.3	809.4	777.2	757.4	741.5	712.3	724.8	701.0	682.2	648.0	613.9	574.6	554.3	539.1	519.7	502.7	489.1	468.5	446.9	420.8	389.7	355.3	331.1	333.0	294.4	215.2	159.8	119.0	87.74	66.57	64.89	179.5	739.0	1894	1945	502.0	10.47	2.042	1.676	1.449	1.410	1.529	1.760	2.040	2.199	2.128	2.395	2.931	2.872	3.069	3.011	2.861	3.182	3.365	3.360	3.175	3.338	3.235	3.311	3.194	3.195	3.298	3.226	3.254	3.107	3.221	3.235	3.344	3.506	3.688	3.400	3.516	3.430
415.0	443.7	623.9	745.7	803.0	813.9	783.5	772.0	750.8	730.5	696.7	697.8	682.9	653.0	622.0	578.3	548.0	522.1	509.8	490.5	479.7	469.6	454.5	440.1	418.2	394.4	361.1	332.7	310.2	309.9	271.2	188.9	136.8	103.2	75.91	58.08	70.39	185.4	458.5	1360	2240	244.8	10.08	2.099	1.664	1.546	1.541	1.864	2.154	2.033	2.171	2.214	2.866	2.959	3.010	2.899	2.864	3.271	3.088	3.461	3.243	3.066	3.096	3.342	3.224	3.194	3.226	3.107	2.912	3.107	3.185	3.194	3.117	3.376	3.528	3.409	3.354	3.417
420.0	461.5	599.0	730.6	769.5	798.5	777.0	760.0	736.6	719.2	696.6	687.2	665.1	629.0	611.2	563.6	523.8	501.4	487.8	471.0	457.2	450.4	442.5	427.8	411.4	390.4	362.3	337.0	305.7	294.7	295.6	223.3	151.7	113.1	83.93	62.03	50.20	65.37	118.3	371.4	1746	1970	194.8	4.975	2.054	1.729	1.712	1.819	2.129	2.033	2.026	2.200	2.795	2.781	3.018	2.826	2.934	3.116	3.278	3.228	3.161	3.317	3.208	3.197	3.200	3.208	2.820	3.135	3.085	3.101	3.164	2.942	3.156	3.265	3.127	3.291	3.297	3.153
425.0	422.7	586.8	696.8	762.0	783.7	763.6	744.7	722.5	708.0	692.5	674.8	648.3	619.4	586.0	541.5	504.4	477.2	460.3	453.2	437.3	433.3	421.6	412.7	403.7	383.2	356.7	332.1	308.6	283.8	281.1	254.1	172.0	122.1	91.05	67.97	50.53	42.05	45.74	96.79	522.8	1943	1617	32.41	2.818	2.095	1.847	1.845	1.979	1.975	2.064	2.261	2.631	2.746	3.036	2.891	2.842	3.026	3.036	3.227	3.057	3.139	3.081	3.079	3.257	3.205	2.964	3.029	2.910	3.076	3.045	3.024	2.928	2.929	3.182	3.296	2.876	3.071
430.0	418.7	540.6	674.7	743.2	757.4	740.8	736.0	719.0	695.1	679.1	659.3	634.8	594.4	560.4	516.6	474.4	452.7	437.3	430.2	415.7	408.3	404.0	397.2	388.2	373.2	353.4	331.1	307.6	282.5	265.1	250.5	209.1	144.4	103.2	78.02	59.08	44.10	34.96	39.20	129.7	561.6	1452	1535	417.0	9.903	2.419	1.975	2.000	2.065	2.066	2.194	2.593	2.684	2.813	2.834	2.863	3.086	3.023	3.352	3.082	3.087	3.144	2.925	2.967	3.170	2.870	2.917	2.900	2.958	2.900	2.811	2.949	2.921	2.920	3.074	2.818	2.848
435.0	585.8	523.3	654.0	717.4	716.2	716.6	709.2	701.1	687.9	668.9	645.5	615.1	572.8	534.0	492.2	448.0	425.5	417.3	400.5	389.9	385.7	382.1	376.8	373.9	359.6	343.3	327.0	305.2	283.0	259.3	235.5	219.3	179.0	122.9	89.74	66.61	50.67	37.86	30.77	45.22	137.5	347.0	1055	1956	230.4	11.02	2.464	2.303	2.140	2.163	1.998	2.708	2.674	2.979	2.681	2.895	2.979	2.828	3.142	3.023	3.185	3.107	3.009	2.886	2.897	2.778	2.861	2.828	2.886	2.755	2.851	2.626	2.663	2.808	2.787	2.769	2.752
440.0	796.5	557.6	628.9	673.1	686.8	703.8	705.9	698.2	671.2	652.1	628.7	600.5	559.6	511.8	478.5	426.6	406.2	394.7	377.9	375.6	369.4	365.2	360.2	355.4	346.5	335.6	317.8	301.5	280.1	256.8	228.4	204.6	192.3	144.8	98.80	74.19	56.63	43.06	32.73	29.20	45.54	88.10	288.5	1461	1775	186.9	5.266	2.412	2.272	2.117	2.109	2.373	2.460	2.747	2.710	2.857	3.045	2.793	2.953	2.981	2.896	3.125	3.271	3.153	2.950	2.750	2.918	2.826	2.728	2.788	2.681	2.614	2.527	2.573	2.449	2.657	2.777
445.0	863.2	653.3	590.4	657.0	677.5	687.6	679.2	671.3	661.1	635.0	617.2	587.3	542.0	493.0	452.2	411.2	392.2	374.0	360.7	356.4	346.2	349.0	343.4	344.6	335.7	325.6	306.9	292.6	275.6	252.4	226.4	195.1	182.4	162.4	110.9	79.32	61.45	48.63	36.66	28.92	27.05	32.40	74.51	433.6	1699	1496	27.71	3.479	2.426	1.988	2.146	2.441	2.483	2.665	2.615	2.700	3.168	2.927	2.885	2.929	2.781	3.045	2.825	3.031	2.850	2.627	2.889	2.584	2.706	2.735	2.505	2.428	2.358	2.417	2.442	2.519	2.576
450.0	695.3	1055	634.5	611.5	638.5	645.3	638.9	636.0	627.1	608.8	587.8	550.1	504.2	460.0	422.9	382.4	363.0	346.0	335.8	329.4	321.9	318.1	318.3	316.3	311.8	301.9	290.0	277.3	263.6	245.6	221.9	188.6	164.5	153.9	130.6	93.13	68.19	52.31	41.85	32.60	26.52	23.04	28.86	106.1	486.4	1288	1411	394.5	9.125	2.476	2.200	2.530	2.505	2.456	2.487	2.587	2.954	2.903	2.915	2.704	2.825	2.919	2.873	2.736	2.743	2.733	2.671	2.597	2.524	2.445	2.343	2.356	2.285	2.281	2.272	2.259	2.441
455.0	429.5	1224	971.3	571.0	591.3	587.4	601.7	591.2	585.8	570.6	553.8	526.0	473.7	428.5	386.8	349.9	332.6	318.7	307.7	297.9	291.9	291.6	288.7	289.3	282.3	277.7	268.8	258.1	248.2	234.3	210.4	182.3	157.5	136.4	130.5	109.2	76.77	57.90	46.03	37.09	28.92	22.82	20.58	34.30	116.9	305.7	848.9	1649	196.2	9.658	2.539	2.603	2.586	2.422	2.387	2.507	2.641	2.781	2.510	2.628	2.734	2.784	2.709	2.608	2.629	2.589	2.558	2.311	2.457	2.203	2.471	2.124	2.222	2.142	2.144	2.177	2.289
460.0	301.6	982.8	1469	606.1	560.3	556.3	565.4	562.6	547.7	540.5	527.9	500.5	442.0	403.7	361.9	325.4	307.4	291.4	281.7	275.2	271.7	267.6	265.6	272.2	261.9	256.5	251.1	240.9	233.5	221.6	201.0	176.3	152.1	129.1	117.3	115.2	88.53	61.89	49.65	39.67	32.40	25.06	20.66	19.52	35.83	76.14	221.7	1122	1434	150.5	5.638	2.757	2.497	2.417	2.538	2.442	2.521	2.594	2.633	2.677	2.422	2.622	2.488	2.717	2.418	2.476	2.625	2.416	2.332	2.189	2.210	2.233	2.154	2.185	2.012	2.163	2.096
465.0	282.7	597.9	1707	839.0	515.3	516.7	538.2	526.3	520.7	508.8	494.5	464.8	415.5	376.6	337.4	303.3	282.9	268.5	258.9	255.7	253.7	249.7	249.2	248.1	244.9	239.0	233.0	224.2	219.6	208.1	191.5	169.0	146.5	125.3	108.3	106.2	95.17	67.76	52.18	40.30	33.34	27.66	21.21	17.86	18.76	25.57	56.96	317.3	1295	1164	23.44	3.901	2.690	2.398	2.422	2.301	2.449	2.422	2.533	2.552	2.485	2.397	2.313	2.432	2.312	2.245	2.403	2.071	2.229	2.135	2.174	2.015	2.119	2.098	1.879	2.060	2.126
470.0	252.9	381.4	1224	1607	585.2	476.9	486.1	481.8	485.2	465.8	453.7	423.0	378.0	343.3	307.8	275.1	254.9	243.8	232.9	226.6	225.3	223.7	222.3	221.1	216.5	212.4	207.7	203.4	199.4	189.7	175.6	155.6	137.0	118.5	101.7	92.31	87.73	77.10	57.16	42.78	35.15	28.79	23.35	18.96	16.02	15.28	20.36	77.13	358.7	897.6	999.2	355.4	10.23	2.657	2.326	2.200	2.287	2.178	2.312	2.288	2.232	2.451	2.254	2.295	2.177	2.033	1.985	1.992	1.939	1.988	1.972	1.821	1.916	1.924	1.780	1.669	1.848
475.0	255.0	319.9	614.1	1784	1123	448.1	435.1	431.2	437.7	425.7	404.1	384.8	342.0	306.8	269.9	245.3	230.3	218.0	206.9	201.1	197.6	195.1	191.8	193.0	191.4	187.8	184.6	181.1	179.2	170.5	159.8	142.7	126.7	109.3	96.36	83.58	74.64	73.58	64.66	45.24	36.38	30.11	25.05	19.84	16.47	13.89	13.14	24.25	85.64	208.5	491.7	1110	201.5	13.00	2.425	2.165	2.261	2.143	2.158	2.275	2.078	2.221	2.043	2.005	2.094	1.886	1.742	1.889	1.863	1.846	1.838	1.705	1.820	1.686	1.654	1.621	1.598
480.0	253.8	297.5	391.0	1283	1778	501.1	406.6	403.6	405.4	397.0	377.5	354.4	314.4	284.9	252.9	228.4	212.0	198.2	190.8	185.4	179.6	177.8	174.7	176.3	173.2	173.0	169.6	166.5	163.8	159.5	148.0	132.3	120.0	103.6	90.33	78.70	69.49	64.89	67.16	51.37	36.99	30.17	25.51	20.81	17.26	14.54	12.12	12.81	25.12	51.40	122.6	612.6	1049	183.8	7.270	2.232	2.119	2.169	1.963	2.104	1.916	2.001	1.860	1.915	1.867	1.737	1.685	1.701	1.740	1.702	1.617	1.685	1.623	1.739	1.573	1.435	1.622
485.0	244.7	290.3	324.7	720.0	2058	835.1	377.2	373.7	367.5	377.6	352.7	332.7	296.4	269.1	231.9	212.3	195.8	181.9	174.5	169.4	164.8	163.4	160.7	161.8	163.0	160.7	159.2	153.0	151.0	147.5	138.7	126.5	112.0	98.54	86.98	75.57	66.53	59.15	60.60	56.57	40.97	31.36	25.59	21.41	17.60	15.01	12.51	10.90	11.74	16.78	31.94	162.5	782.9	981.7	141.3	4.131	2.149	2.122	1.988	2.053	1.859	2.005	1.809	1.853	1.707	1.657	1.527	1.567	1.552	1.781	1.518	1.596	1.494	1.569	1.525	1.315	1.383
490.0	196.0	297.6	300.8	406.4	1381	1662	437.2	346.9	341.1	347.3	330.0	305.7	274.1	245.8	215.3	193.3	176.9	167.4	159.9	153.1	151.2	147.2	147.1	144.7	145.7	142.7	142.6	140.1	136.9	133.9	127.2	115.4	103.5	91.83	81.51	71.11	63.31	55.65	52.22	52.59	46.65	34.33	26.22	22.01	18.58	15.47	13.46	11.30	9.502	9.302	12.04	40.43	204.1	596.9	869.5	380.8	13.01	2.239	2.055	1.867	1.846	1.816	1.756	1.758	1.749	1.647	1.542	1.568	1.534	1.592	1.386	1.476	1.470	1.321	1.317	1.238	1.281
495.0	167.4	268.5	303.5	302.8	608.4	1878	1043	318.4	312.9	313.2	302.3	279.9	249.4	220.8	194.0	171.0	158.7	148.4	141.9	136.0	132.5	130.9	130.2	129.3	127.5	126.3	124.5	123.3	125.2	120.0	112.2	104.1	95.38	85.11	75.18	67.40	59.49	52.11	46.73	44.23	45.26	39.91	28.55	22.99	19.06	15.83	13.71	11.75	9.897	8.238	7.804	13.07	49.24	137.2	377.6	1014	236.7	17.50	2.161	1.879	1.637	1.651	1.649	1.484	1.521	1.601	1.408	1.460	1.472	1.319	1.476	1.262	1.280	1.263	1.238	1.227	1.148
500.0	131.7	230.6	307.5	271.7	334.6	1283	1747	369.4	290.0	290.4	278.0	256.1	227.8	202.2	179.3	159.2	149.0	133.3	126.9	122.3	119.4	118.9	117.3	117.2	115.0	113.4	112.6	111.8	114.1	108.3	103.3	95.09	87.39	78.80	70.19	63.10	55.12	50.45	44.17	39.23	39.39	40.76	32.09	23.26	18.72	16.02	14.32	11.88	10.14	8.215	7.003	7.259	14.60	33.80	91.31	484.2	1009	220.0	11.74	2.009	1.826	1.875	1.576	1.502	1.560	1.368	1.292	1.507	1.300	1.151	1.267	1.358	1.246	1.066	1.160	1.114	1.111
505.0	118.0	182.6	299.6	268.5	263.3	656.1	2050	707.4	267.3	263.5	257.5	234.2	209.6	184.1	165.1	144.0	132.5	125.7	118.7	112.8	108.4	106.9	106.5	105.1	105.0	104.6	103.0	101.9	101.9	98.57	95.56	86.80	79.37	71.97	65.27	57.90	51.37	46.34	41.21	36.90	33.88	35.44	34.23	24.82	19.34	16.38	14.21	12.14	9.962	8.865	7.004	6.406	7.201	11.10	23.54	120.7	599.3	956.5	181.9	5.625	1.853	1.765	1.573	1.464	1.371	1.312	1.305	1.286	1.147	1.130	1.194	1.314	1.176	0.876	0.982	1.016	1.040
510.0	112.2	144.4	247.3	271.5	233.1	325.0	1338	1631	308.7	233.2	224.1	208.4	187.4	162.9	145.3	126.4	118.3	109.8	104.4	99.42	94.85	93.93	92.73	92.55	92.03	90.42	89.47	88.33	88.18	86.44	83.34	77.23	71.05	63.51	58.21	52.23	46.36	41.87	37.57	33.82	30.01	28.89	30.65	27.55	20.52	16.07	13.58	11.60	10.05	8.747	7.510	6.080	5.598	6.053	8.338	29.81	147.9	476.1	719.9	332.0	14.19	1.850	1.551	1.368	1.356	1.305	1.153	1.189	1.066	1.125	1.033	1.029	0.940	0.890	0.956	0.960	0.960
515.0	94.93	120.1	182.1	278.4	221.6	225.8	520.8	1892	938.7	210.4	196.4	185.4	157.3	142.4	126.5	112.3	103.2	94.13	88.87	86.05	83.31	80.73	80.32	79.65	78.70	77.41	75.90	75.60	74.71	75.63	71.85	66.23	61.44	55.39	51.04	45.61	41.63	37.34	34.03	29.75	27.33	24.53	23.83	25.35	22.89	16.23	12.95	10.83	9.716	8.314	7.270	6.335	5.491	4.753	4.837	9.622	35.40	108.6	246.5	720.4	243.0	19.08	1.818	1.377	1.353	1.160	0.954	1.035	1.036	0.985	1.028	0.997	0.852	0.914	0.787	0.819	0.885
520.0	91.03	109.6	153.7	235.2	237.7	181.7	259.4	1288	1757	268.9	176.2	163.4	145.9	129.6	114.0	101.0	91.86	85.29	82.01	77.34	73.85	72.34	72.09	70.44	70.11	68.02	66.68	66.97	66.64	67.22	64.41	60.53	55.01	49.77	46.38	40.69	37.62	34.24	31.03	27.67	25.35	22.27	21.01	21.58	22.84	18.09	13.36	11.03	9.724	8.037	6.834	6.417	5.741	4.566	3.988	4.977	10.68	26.42	58.24	298.4	719.5	224.8	12.56	1.525	1.269	1.087	0.908	1.079	0.945	0.913	0.925	0.790	0.805	0.822	0.779	0.795	0.840
525.0	90.21	104.9	121.0	189.6	256.4	179.0	192.3	607.6	2201	623.3	158.7	154.2	131.1	116.4	101.3	92.71	81.81	77.19	72.55	69.37	65.93	64.41	63.58	62.30	62.60	61.22	60.40	60.54	61.40	59.07	57.37	54.20	49.76	45.46	42.20	36.79	35.26	31.95	28.61	25.71	23.29	21.15	18.91	18.18	20.22	19.19	14.78	10.89	9.041	7.600	6.984	6.236	5.643	4.778	3.726	3.928	5.048	8.317	15.06	72.09	365.7	692.7	183.3	5.541	1.256	1.037	1.088	0.990	0.855	0.871	0.797	0.721	0.784	0.781	0.770	0.728	0.726
530.0	75.62	93.29	112.9	141.9	221.8	187.7	161.6	257.1	1387	1692	216.6	132.2	115.8	101.4	90.35	80.19	71.96	66.94	63.27	60.11	56.90	55.88	54.58	54.02	54.22	51.80	51.91	51.92	52.23	51.71	49.09	46.39	43.36	39.00	35.99	32.84	30.42	27.54	25.55	22.70	20.89	18.69	16.79	15.48	15.94	17.68	15.91	11.51	8.803	7.370	6.372	5.603	5.092	4.859	4.154	3.651	3.509	4.125	5.330	17.89	87.99	301.8	504.8	256.5	14.62	1.257	1.095	0.828	0.806	0.851	0.777	0.669	0.718	0.724	0.725	0.659	0.632
535.0	62.86	82.24	102.0	109.0	161.8	212.2	144.4	152.5	472.3	1998	911.7	121.5	99.53	87.80	77.33	66.62	63.37	59.99	53.71	51.56	47.82	47.05	45.73	45.41	45.31	44.65	43.51	44.23	43.37	43.62	42.60	39.14	36.46	34.18	31.58	28.04	26.41	23.19	21.95	20.09	18.28	16.37	14.80	13.62	12.82	13.91	14.72	12.71	8.803	6.949	6.245	5.267	4.622	4.534	4.253	3.982	3.102	2.984	3.274	5.415	21.30	68.90	154.2	467.4	245.4	20.10	1.159	0.829	0.762	0.702	0.619	0.668	0.686	0.699	0.624	0.692	0.606
540.0	57.44	78.86	89.09	102.8	119.0	209.3	148.0	120.2	195.5	1246	1801	170.5	89.69	77.12	69.33	60.43	55.14	52.44	47.27	46.36	44.32	42.62	40.69	39.33	39.94	39.48	38.60	37.68	38.74	38.08	36.37	35.20	32.08	29.47	26.41	24.89	24.03	21.39	19.75	17.75	16.03	14.73	13.86	12.34	11.49	11.42	11.78	12.65	10.04	6.964	5.932	4.787	4.331	4.009	3.747	3.942	3.091	2.770	2.582	2.883	6.350	16.75	35.96	176.1	496.8	216.9	12.27	0.881	0.833	0.739	0.679	0.619	0.699	0.661	0.598	0.653	0.543
545.0	55.20	73.27	84.70	89.75	99.48	170.1	162.7	107.6	125.8	516.8	2212	467.8	79.70	71.04	59.56	53.58	48.75	45.98	42.36	39.78	37.71	38.13	35.32	35.38	34.42	34.33	33.69	32.82	34.12	33.95	32.50	30.41	28.48	26.37	23.40	22.13	20.74	19.39	17.78	15.80	14.59	13.47	12.65	11.26	10.20	9.864	9.435	11.29	10.42	7.324	5.485	4.589	4.203	3.952	3.474	3.675	3.296	2.729	2.497	2.360	2.884	5.132	9.389	41.91	229.2	485.2	161.8	4.772	0.930	0.774	0.654	0.697	0.678	0.556	0.529	0.512	0.552
550.0	54.51	67.84	72.99	74.12	81.95	115.6	170.9	106.5	93.44	189.7	1285	1503	125.2	59.66	50.42	45.28	40.05	36.81	35.74	33.07	31.81	31.51	29.48	29.47	29.22	28.34	27.69	27.73	28.91	28.10	26.93	26.30	23.76	21.66	19.75	18.64	17.27	16.43	14.60	13.38	12.24	11.50	10.37	9.774	8.685	8.333	7.678	8.137	9.352	7.579	5.628	4.215	3.676	3.484	3.119	3.131	3.056	2.814	2.327	1.955	2.037	2.456	3.408	10.49	54.35	197.8	343.7	140.9	13.88	0.901	0.632	0.610	0.593	0.530	0.567	0.501	0.552
555.0	52.21	55.40	72.52	64.70	64.82	79.22	139.6	125.6	79.30	95.07	391.4	1835	627.2	51.96	41.29	36.71	32.86	29.81	29.21	26.93	24.89	25.08	24.28	23.65	23.08	22.28	22.43	22.57	23.25	22.51	22.11	20.55	19.05	17.26	16.47	15.38	14.30	13.10	11.95	11.22	10.51	9.624	8.796	7.818	7.386	7.056	6.437	6.143	6.518	6.882	6.267	4.387	3.422	2.997	2.616	2.590	2.615	2.791	2.484	1.865	1.632	1.747	1.960	3.326	13.07	44.97	102.1	291.9	221.4	17.61	0.765	0.652	0.458	0.465	0.445	0.451	0.557
560.0	52.16	55.83	63.45	55.90	59.83	64.51	99.37	143.3	72.08	70.85	138.9	1105	1361	82.70	35.78	31.09	29.18	25.99	24.87	23.34	21.59	21.31	20.02	19.92	19.99	19.64	18.72	19.86	18.66	18.30	17.73	16.99	16.51	14.92	13.52	13.20	12.26	11.25	10.25	10.04	8.765	8.503	7.565	6.976	6.567	6.204	5.749	5.317	4.800	5.652	5.903	4.623	3.108	2.576	2.481	2.254	2.254	2.166	2.368	1.955	1.545	1.406	1.446	1.763	3.933	10.94	23.91	107.3	319.7	171.5	9.673	0.600	0.505	0.516	0.459	0.499	0.489
565.0	52.17	61.00	61.59	54.52	52.43	54.79	70.68	139.5	81.64	61.05	76.04	422.4	1824	159.1	31.59	26.68	24.73	22.19	20.85	20.14	18.84	17.56	17.64	16.93	16.93	16.24	15.80	16.23	15.97	15.90	15.02	14.29	14.19	13.16	11.82	11.15	10.39	9.358	9.337	8.279	7.592	7.200	6.247	6.360	5.518	5.562	5.128	4.656	4.087	4.596	5.046	4.638	3.248	2.445	2.135	1.981	2.165	1.963	1.933	2.118	1.738	1.307	1.219	1.458	1.795	3.358	6.269	25.37	138.7	298.9	106.7	3.108	0.584	0.519	0.423	0.474	0.426
570.0	48.22	57.04	57.65	47.33	44.25	47.32	50.45	99.53	104.8	55.48	57.46	138.6	1080	1079	64.94	23.38	20.62	18.18	17.17	16.98	15.56	14.28	14.96	13.59	13.72	12.95	13.21	13.00	12.77	13.13	12.74	11.84	11.38	10.41	9.561	9.164	8.425	7.650	7.364	6.761	6.388	6.177	5.380	5.178	4.663	4.608	4.127	3.774	3.446	3.307	3.546	3.965	3.437	2.483	2.113	1.865	1.672	1.663	1.589	1.761	1.887	1.440	1.103	1.151	1.187	1.565	2.226	6.443	32.78	117.3	204.0	110.4	11.65	0.620	0.413	0.456	0.397
575.0	54.09	56.43	55.12	40.61	36.14	38.01	38.50	58.86	113.0	64.60	49.04	64.15	314.1	1398	406.2	21.01	16.53	15.24	14.08	13.12	12.30	11.53	11.78	11.12	10.57	10.78	10.52	9.942	10.52	10.67	10.19	9.414	9.421	8.247	7.703	7.311	6.721	6.316	5.867	5.457	5.242	4.854	4.609	4.149	3.836	3.792	3.250	3.136	2.822	2.637	2.682	2.898	3.295	2.709	2.023	1.703	1.433	1.463	1.325	1.359	1.353	1.575	1.250	1.094	1.132	1.068	1.391	2.215	8.030	26.83	58.77	172.3	145.6	13.48	0.567	0.450	0.372
580.0	50.84	53.17	58.87	45.42	32.45	32.05	37.11	43.66	98.72	87.33	46.12	48.38	101.7	855.1	953.7	34.99	14.47	12.92	12.17	11.01	10.47	9.802	9.926	9.566	9.055	9.309	9.016	8.448	8.887	9.036	8.219	7.932	7.466	6.881	6.614	6.025	5.660	5.303	4.905	4.588	4.474	4.219	3.942	3.600	3.333	3.482	2.791	2.708	2.327	2.269	2.099	2.245	2.725	2.591	2.066	1.601	1.409	1.228	1.237	1.165	1.184	1.470	1.493	1.084	1.083	0.903	1.071	1.187	2.508	6.731	13.87	62.57	189.7	102.2	5.894	0.455	0.351
585.0	56.36	63.36	52.99	40.34	30.62	33.05	32.29	35.14	70.99	104.0	51.70	43.97	50.09	317.5	1302	102.7	13.19	11.74	10.07	9.334	9.189	8.925	8.656	8.287	7.863	7.555	7.262	7.263	7.818	7.212	7.353	7.170	6.164	5.983	5.636	5.085	5.142	4.401	4.503	4.060	3.846	3.541	3.335	3.023	2.779	2.904	2.639	2.253	1.937	2.103	1.889	1.783	2.144	2.496	2.065	1.537	1.206	1.102	1.208	1.042	0.995	1.114	1.366	1.107	0.912	0.819	0.914	0.879	1.320	2.162	3.698	14.92	79.51	178.1	33.84	2.341	0.391
590.0	46.81	53.99	50.13	37.19	26.96	28.37	28.89	30.03	45.40	100.2	66.56	41.92	37.56	96.82	767.0	663.5	29.57	9.834	8.592	7.842	7.320	7.000	7.212	6.528	6.661	6.577	6.030	6.167	6.365	6.144	5.916	5.684	5.189	5.032	4.711	4.166	4.226	3.825	3.683	3.442	3.093	3.011	2.694	2.493	2.231	2.281	2.183	1.938	1.762	1.869	1.572	1.417	1.552	1.885	1.964	1.789	1.238	1.090	1.057	0.987	0.957	0.951	1.034	1.215	1.189	0.824	0.758	0.690	0.961	1.027	1.370	3.847	18.77	68.35	112.7	71.90	9.390
595.0	41.62	46.31	47.57	33.07	26.61	24.77	25.82	28.54	34.83	69.35	89.92	42.60	33.90	42.00	219.2	913.3	212.4	9.033	7.472	6.784	6.191	5.677	5.670	5.260	5.088	4.943	5.147	4.917	4.716	4.703	5.041	4.735	4.282	3.905	3.708	3.339	3.414	3.066	3.075	2.736	2.566	2.421	2.298	2.076	1.978	1.991	1.904	1.712	1.568	1.358	1.251	1.165	1.171	1.299	1.610	1.546	1.325	0.946	0.847	0.795	0.769	0.777	0.700	0.856	1.119	0.975	0.719	0.657	0.755	0.764	0.724	1.262	4.669	15.63	32.38	101.3	89.35
600.0	43.63	44.72	42.80	31.97	24.25	23.03	24.79	26.13	31.26	46.95	94.22	50.37	33.81	29.46	64.84	584.9	571.0	15.41	6.226	6.139	5.297	4.787	4.713	4.714	4.116	4.309	4.590	4.170	4.289	4.162	4.150	3.806	3.713	3.309	3.124	2.990	2.692	2.557	2.348	2.437	2.164	2.121	1.939	1.781	1.772	1.741	1.596	1.475	1.170	1.154	1.175	1.124	1.000	0.993	1.050	1.256	1.453	1.021	0.780	0.902	0.724	0.706	0.666	0.644	0.906	1.106	0.824	0.662	0.730	0.718	0.710	0.733	1.349	3.831	7.573	36.10	112.8
605.0	41.40	41.86	39.73	30.65	23.29	22.50	23.22	25.10	29.51	38.50	85.26	65.16	35.53	25.65	27.95	222.0	807.5	63.85	6.033	5.062	4.709	3.968	4.096	4.085	3.610	3.796	3.982	3.609	3.689	3.820	3.504	3.190	3.068	2.728	2.709	2.399	2.620	2.308	2.118	2.101	1.893	1.799	1.496	1.510	1.580	1.486	1.270	1.283	1.165	1.044	1.090	0.968	0.925	0.909	0.860	1.155	1.482	1.132	0.797	0.772	0.661	0.714	0.645	0.662	0.719	0.911	0.949	0.653	0.590	0.658	0.654	0.533	0.582	1.181	2.044	8.618	46.27
610.0	35.81	41.54	35.69	28.47	24.22	20.80	23.60	26.55	30.89	35.87	60.76	81.50	39.05	25.73	20.91	63.87	519.1	405.2	14.06	4.456	4.055	3.358	3.423	3.424	2.976	2.812	3.094	2.942	3.099	3.074	2.880	2.885	2.428	2.359	2.315	2.277	2.024	1.957	1.749	1.693	1.507	1.410	1.341	1.247	1.302	1.221	1.157	1.051	0.965	0.891	0.849	0.884	0.769	0.760	0.747	0.819	1.133	1.128	0.868	0.724	0.628	0.621	0.588	0.593	0.637	0.629	0.838	0.846	0.641	0.599	0.538	0.536	0.462	0.555	0.824	2.190	10.97
615.0	38.65	39.96	32.89	27.44	20.31	19.18	20.91	26.84	27.69	32.33	44.03	79.11	50.95	25.56	18.74	23.32	152.8	620.7	73.57	3.929	3.621	3.097	2.648	2.499	2.592	2.370	2.702	2.574	2.297	2.512	2.341	2.362	2.054	1.883	1.921	2.002	1.842	1.570	1.502	1.384	1.282	1.071	1.129	1.067	1.066	0.915	0.969	0.962	0.876	0.766	0.713	0.715	0.591	0.642	0.643	0.660	0.779	0.867	0.899	0.762	0.590	0.508	0.538	0.567	0.569	0.611	0.574	0.613	0.856	0.531	0.527	0.455	0.483	0.383	0.493	0.732	2.756
620.0	41.10	36.25	35.63	23.65	18.28	19.57	22.87	25.18	26.15	31.58	38.60	63.81	63.31	27.41	18.46	14.55	44.09	437.4	347.6	6.183	3.092	2.809	2.454	2.309	2.179	2.066	2.106	2.293	1.951	2.065	2.153	1.879	1.690	1.772	1.625	1.722	1.551	1.376	1.333	1.262	1.164	1.028	1.043	0.904	0.858	0.843	0.842	0.868	0.716	0.683	0.664	0.578	0.609	0.548	0.523	0.514	0.602	0.740	0.779	0.775	0.664	0.574	0.498	0.562	0.504	0.560	0.468	0.565	0.737	0.547	0.535	0.346	0.399	0.431	0.387	0.419	0.941
625.0	31.42	34.80	34.11	22.15	18.87	18.63	19.95	24.39	26.12	28.16	35.97	47.12	69.20	31.00	17.63	12.41	16.37	179.5	570.3	33.49	2.975	2.381	2.379	2.169	1.947	2.006	1.917	2.017	1.798	1.818	1.944	1.666	1.536	1.488	1.432	1.393	1.296	1.346	1.163	1.159	0.886	0.844	0.914	0.855	0.798	0.791	0.700	0.728	0.621	0.634	0.526	0.571	0.514	0.509	0.470	0.462	0.551	0.542	0.682	0.725	0.600	0.503	0.447	0.436	0.477	0.550	0.498	0.503	0.575	0.770	0.564	0.353	0.368	0.388	0.463	0.344	0.475
630.0	27.68	29.67	30.44	20.19	16.66	18.50	18.49	20.82	25.46	29.55	33.66	37.69	59.14	41.64	18.28	12.26	10.62	49.50	420.9	254.1	6.093	2.178	2.088	1.996	1.715	1.633	1.469	1.634	1.621	1.452	1.558	1.364	1.362	1.344	1.240	1.261	1.126	1.102	0.998	1.006	0.861	0.739	0.728	0.736	0.740	0.655	0.646	0.624	0.550	0.505	0.467	0.524	0.462	0.461	0.419	0.470	0.450	0.420	0.561	0.636	0.626	0.466	0.454	0.438	0.462	0.511	0.467	0.443	0.470	0.588	0.592	0.496	0.442	0.387	0.412	0.370	0.364
635.0	28.14	28.60	28.61	20.25	15.27	20.16	18.11	20.50	26.39	27.49	31.43	34.68	42.67	50.08	21.60	12.77	9.194	16.37	129.0	452.4	49.51	2.187	1.788	1.665	1.465	1.476	1.161	1.305	1.307	1.284	1.338	1.117	1.051	1.040	1.125	1.120	0.998	0.922	0.856	0.810	0.757	0.682	0.636	0.644	0.594	0.545	0.591	0.524	0.435	0.468	0.439	0.386	0.377	0.407	0.387	0.415	0.363	0.360	0.429	0.505	0.624	0.524	0.466	0.473	0.379	0.412	0.485	0.416	0.393	0.567	0.501	0.537	0.499	0.364	0.330	0.343	0.322
640.0	30.55	27.83	30.78	20.13	15.15	19.18	19.39	20.33	23.97	26.70	28.56	32.86	34.43	50.21	28.47	13.92	9.969	9.843	35.65	358.4	205.9	3.371	1.593	1.639	1.395	1.303	1.414	1.106	1.030	1.291	1.122	1.175	1.039	0.966	0.961	0.919	0.882	0.896	0.703	0.882	0.645	0.616	0.621	0.592	0.522	0.517	0.492	0.492	0.447	0.382	0.336	0.375	0.368	0.413	0.366	0.390	0.316	0.311	0.386	0.398	0.510	0.485	0.527	0.477	0.389	0.411	0.400	0.453	0.362	0.448	0.510	0.516	0.515	0.368	0.392	0.345	0.344
645.0	31.55	27.30	29.41	20.03	16.61	18.38	18.04	20.14	23.27	27.47	29.57	32.42	31.81	44.61	36.04	14.55	10.87	8.224	12.90	164.2	369.9	17.53	1.640	1.562	1.360	1.117	1.189	1.132	1.026	0.973	0.968	0.971	0.989	0.908	0.796	0.758	0.790	0.808	0.729	0.694	0.565	0.608	0.558	0.522	0.464	0.470	0.463	0.486	0.363	0.381	0.282	0.343	0.398	0.298	0.371	0.313	0.355	0.315	0.328	0.389	0.421	0.435	0.493	0.451	0.388	0.418	0.348	0.481	0.463	0.430	0.418	0.497	0.576	0.416	0.382	0.310	0.376
650.0	30.59	33.82	31.62	21.65	18.22	17.23	18.77	20.96	23.37	27.37	28.75	31.21	31.18	35.38	41.23	17.52	12.06	9.152	7.599	50.10	384.6	63.39	1.782	1.383	1.162	1.045	0.983	1.032	0.959	0.979	0.873	0.896	0.864	0.833	0.843	0.821	0.812	0.832	0.748	0.719	0.527	0.624	0.479	0.460	0.429	0.481	0.423	0.429	0.352	0.309	0.316	0.324	0.336	0.271	0.325	0.331	0.376	0.315	0.345	0.420	0.307	0.343	0.449	0.443	0.441	0.363	0.365	0.409	0.443	0.404	0.421	0.455	0.530	0.528	0.448	0.325	0.365
