Sample:	'1
File name:	W112701–§’Ú«≈2±∂.FD3
Run date:	'10:09:09, 11/29/2024
Operator:	Administrator
Comment:	'

Instrument
Model:	F-2700 FL Spectrophotometer
Serial number:	23B8-004
ROM Version:	4J14000 07

Instrument parameters
Measurement type:	3-D scan
Data mode:	Fluorescence
EX  Start WL:	220.0 nm
EX  End WL:	600.0 nm
EX Sampling interval:	5.0 nm
EM  Start WL:	230.0 nm
EM  End WL:	650.0 nm
EM Sampling interval:	5.0 nm
Scan speed:	12000 nm/min
EX Slit:	5.0 nm
EM Slit:	5.0 nm
PMT Voltage:	700 V
Response:	Auto 
Corrected spectra:	Off
Contour interval:	50.000

Peak integration
Integration method:	Rectangular
Sensitivity:	1
Threshold:	1.000

Peaks
No.	ApexEX/EM(nm)	Height(Data)
1	225.0/345.0	3427
2	225.0/605.0	79.71
3	230.0/340.0	3418
4	240.0/265.0	408.7
5	245.0/270.0	409.7
6	250.0/275.0	541.0
7	255.0/285.0	634.6
8	260.0/575.0	177.8
9	265.0/585.0	152.5
10	270.0/600.0	150.2
11	275.0/335.0	2466
12	275.0/415.0	5030
13	275.0/435.0	4814
14	275.0/615.0	149.2
15	280.0/625.0	122.2
16	285.0/640.0	94.72
17	350.0/415.0	3283
18	350.0/435.0	3138
19	460.0/345.0	8.221
20	475.0/350.0	7.799
21	485.0/265.0	1.788
22	505.0/275.0	2.839
23	510.0/280.0	3.259
24	520.0/285.0	3.537
25	550.0/305.0	9.135
26	565.0/340.0	10.60
27	565.0/415.0	17.52

Data points
	220.0	225.0	230.0	235.0	240.0	245.0	250.0	255.0	260.0	265.0	270.0	275.0	280.0	285.0	290.0	295.0	300.0	305.0	310.0	315.0	320.0	325.0	330.0	335.0	340.0	345.0	350.0	355.0	360.0	365.0	370.0	375.0	380.0	385.0	390.0	395.0	400.0	405.0	410.0	415.0	420.0	425.0	430.0	435.0	440.0	445.0	450.0	455.0	460.0	465.0	470.0	475.0	480.0	485.0	490.0	495.0	500.0	505.0	510.0	515.0	520.0	525.0	530.0	535.0	540.0	545.0	550.0	555.0	560.0	565.0	570.0	575.0	580.0	585.0	590.0	595.0	600.0
230.0	68.43	1217	1870	366.6	11.06	4.025	3.389	3.180	2.877	2.941	2.600	2.927	2.623	2.158	1.836	1.511	1.493	1.082	1.036	0.987	1.014	0.888	0.993	0.933	0.920	0.886	0.802	0.779	0.760	0.743	0.605	0.592	0.448	0.437	0.328	0.293	0.260	0.224	0.207	0.174	0.239	0.294	0.226	0.154	0.144	0.196	1.486	4.810	5.950	2.969	0.774	0.166	0.101	0.087	0.089	0.101	0.091	0.080	0.078	0.063	0.061	0.063	0.088	0.054	0.068	0.070	0.074	0.058	0.068	0.065	0.063	0.059	0.060	0.054	0.062	0.051	0.061
235.0	97.43	360.9	1645	2010	427.4	15.94	4.223	4.057	2.982	3.025	3.210	2.482	2.266	2.070	2.000	1.629	1.430	0.945	1.062	1.112	1.065	1.046	1.003	0.998	0.955	1.012	0.814	0.792	0.835	0.715	0.606	0.610	0.485	0.378	0.344	0.272	0.291	0.238	0.186	0.213	0.180	0.193	0.256	0.323	0.238	0.202	0.408	1.351	2.928	4.948	6.448	5.502	1.810	0.244	0.078	0.079	0.108	0.086	0.066	0.076	0.118	0.058	0.060	0.058	0.074	0.066	0.088	0.042	0.055	0.057	0.072	0.074	0.036	0.071	0.063	0.066	0.048
240.0	173.1	157.5	562.6	2293	2091	296.4	7.821	4.451	3.294	2.736	3.663	3.145	2.878	1.830	1.955	1.690	1.417	1.149	0.973	1.099	0.941	0.917	0.972	1.095	1.009	0.994	0.907	0.739	0.916	0.873	0.584	0.648	0.406	0.368	0.275	0.224	0.287	0.229	0.206	0.213	0.149	0.140	0.187	0.346	0.460	0.495	0.290	0.463	0.766	1.796	4.717	9.751	10.11	4.919	1.099	0.105	0.137	0.087	0.086	0.062	0.072	0.069	0.060	0.073	0.079	0.058	0.069	0.058	0.050	0.071	0.087	0.056	0.051	0.050	0.064	0.065	0.043
245.0	138.1	204.9	181.1	926.5	3012	1940	184.9	5.715	4.883	3.959	3.628	3.093	2.875	2.433	2.141	1.556	1.677	1.421	1.097	1.030	1.074	0.975	0.997	1.155	1.022	0.897	0.888	0.956	0.778	0.819	0.650	0.568	0.406	0.323	0.351	0.358	0.276	0.202	0.260	0.220	0.159	0.126	0.194	0.190	0.315	0.458	0.581	0.469	0.304	0.517	1.303	3.968	9.375	13.57	10.41	4.037	0.671	0.131	0.116	0.092	0.072	0.066	0.087	0.072	0.089	0.075	0.052	0.071	0.055	0.067	0.077	0.064	0.049	0.072	0.083	0.045	0.044
250.0	54.99	179.2	248.8	283.4	1104	2739	2586	233.3	23.19	5.392	4.721	3.742	3.517	2.766	2.421	1.731	1.505	1.360	1.127	1.094	1.071	1.094	0.988	1.077	0.977	1.021	1.011	0.954	0.814	0.771	0.703	0.583	0.441	0.371	0.369	0.315	0.270	0.176	0.224	0.199	0.186	0.138	0.171	0.184	0.184	0.255	0.399	0.609	0.658	0.644	0.554	1.044	2.439	4.973	8.510	12.19	14.20	10.60	4.508	0.884	0.143	0.099	0.094	0.080	0.077	0.084	0.066	0.083	0.069	0.057	0.061	0.066	0.046	0.080	0.076	0.050	0.074
255.0	28.00	57.79	207.2	317.2	315.7	763.0	3027	2943	298.1	20.73	6.593	5.629	4.042	3.436	3.002	1.972	1.710	1.516	1.271	1.272	1.134	1.124	1.177	0.984	1.169	0.967	0.943	0.879	0.950	0.743	0.704	0.731	0.480	0.467	0.375	0.333	0.264	0.333	0.187	0.225	0.194	0.122	0.179	0.145	0.191	0.174	0.172	0.282	0.428	0.776	1.067	0.999	0.819	1.278	2.045	3.161	6.744	15.51	23.20	18.05	6.608	0.817	0.105	0.082	0.080	0.112	0.084	0.096	0.066	0.076	0.067	0.064	0.060	0.075	0.079	0.042	0.060
260.0	18.12	27.17	83.45	314.0	298.2	215.9	1045	4263	2490	228.0	11.84	6.274	5.544	4.293	3.193	2.107	2.014	1.825	1.321	1.255	1.173	1.020	1.259	0.987	1.230	1.098	1.082	0.956	0.886	0.830	0.743	0.589	0.651	0.545	0.394	0.427	0.319	0.316	0.187	0.216	0.209	0.168	0.220	0.152	0.121	0.158	0.138	0.161	0.241	0.346	0.794	1.472	1.228	0.712	0.707	0.901	1.731	4.528	11.81	23.12	27.35	17.03	4.238	0.423	0.150	0.126	0.107	0.084	0.111	0.086	0.085	0.089	0.078	0.068	0.094	0.072	0.073
265.0	17.92	18.52	30.19	157.3	408.7	207.4	270.7	1732	5635	2120	157.5	9.802	6.621	4.506	3.806	2.590	2.003	1.747	1.437	1.303	1.201	1.175	1.101	1.154	1.271	1.230	1.056	0.994	0.869	0.949	0.723	0.664	0.671	0.401	0.347	0.363	0.353	0.265	0.253	0.196	0.258	0.191	0.219	0.158	0.141	0.163	0.180	0.142	0.151	0.157	0.302	0.836	1.559	1.788	0.970	0.443	0.548	1.206	2.962	7.550	18.58	31.10	27.45	13.49	2.288	0.299	0.129	0.127	0.166	0.085	0.110	0.120	0.138	0.080	0.098	0.093	0.066
270.0	34.21	33.40	27.97	57.06	221.1	409.7	264.1	444.5	2067	4984	4593	671.6	26.04	5.886	4.706	3.131	2.525	1.920	1.705	1.291	1.427	1.372	1.141	1.269	1.211	1.106	1.120	1.089	0.891	0.875	0.798	0.709	0.622	0.516	0.449	0.309	0.375	0.280	0.275	0.231	0.251	0.203	0.240	0.189	0.178	0.182	0.171	0.179	0.163	0.158	0.180	0.359	0.626	1.174	1.552	1.666	1.356	0.793	0.900	1.908	4.580	9.541	16.94	24.91	27.55	19.73	10.70	2.418	0.242	0.146	0.116	0.134	0.099	0.106	0.128	0.112	0.089
275.0	80.56	90.33	70.20	52.46	86.50	236.8	541.0	310.9	522.7	1385	5185	7488	175.2	19.74	6.394	4.304	3.483	2.200	2.016	1.696	1.662	1.559	1.362	1.286	1.112	1.090	1.103	1.179	1.086	0.923	0.822	0.784	0.679	0.530	0.576	0.498	0.436	0.374	0.311	0.333	0.279	0.306	0.265	0.275	0.304	0.284	0.235	0.271	0.283	0.238	0.232	0.208	0.310	0.445	0.613	0.999	2.236	2.839	1.702	0.909	1.297	2.548	4.080	6.092	9.443	20.88	39.71	30.04	15.48	2.263	0.238	0.135	0.113	0.150	0.106	0.092	0.132
280.0	148.0	151.4	128.9	87.97	80.42	129.9	423.9	588.4	275.2	423.7	1722	7485	6281	135.4	10.76	5.471	4.093	2.651	2.297	2.043	1.729	1.429	1.334	1.540	1.231	1.307	1.053	1.255	1.130	0.990	0.905	0.770	0.623	0.685	0.668	0.581	0.443	0.419	0.398	0.331	0.343	0.359	0.318	0.368	0.428	0.421	0.453	0.442	0.479	0.360	0.326	0.326	0.334	0.363	0.451	0.603	1.067	2.225	3.259	2.504	1.252	1.007	1.399	2.008	2.651	5.789	15.21	31.18	45.31	27.58	10.98	0.953	0.151	0.216	0.153	0.141	0.136
285.0	240.3	268.5	231.4	147.0	111.2	127.0	236.4	634.6	368.4	296.1	594.7	2728	8543	4686	93.92	8.149	4.805	3.370	2.434	2.395	1.890	1.696	1.685	1.581	1.358	1.166	1.292	1.225	1.174	1.125	0.938	0.736	0.789	0.797	0.793	0.745	0.707	0.613	0.504	0.505	0.381	0.428	0.461	0.457	0.475	0.578	0.599	0.765	0.668	0.577	0.480	0.513	0.445	0.508	0.517	0.519	0.757	1.078	1.934	3.352	3.537	1.888	1.008	1.315	1.427	2.266	4.474	9.223	21.05	39.55	45.08	22.50	5.822	0.469	0.200	0.211	0.105
290.0	414.7	473.1	410.3	272.4	190.4	179.5	218.7	392.6	723.5	745.6	580.5	1022	3001	6143	4121	399.9	17.96	5.270	3.531	2.767	2.105	1.981	1.752	1.632	1.448	1.360	1.306	1.252	1.307	1.076	0.996	0.778	0.807	0.977	0.921	0.996	0.851	0.746	0.538	0.679	0.528	0.586	0.605	0.639	0.819	0.965	1.039	1.107	1.176	0.955	0.860	0.760	0.733	0.773	0.693	0.760	0.823	0.951	1.261	1.737	2.784	3.605	3.762	3.149	2.356	2.332	2.742	3.872	6.376	11.49	19.49	28.14	29.29	30.16	15.53	5.011	0.558
295.0	577.6	697.4	614.7	419.8	272.5	255.3	284.9	367.8	567.9	1106	1117	894.5	1163	1763	4304	6139	529.3	15.33	4.854	3.569	2.681	2.311	2.089	1.781	1.514	1.587	1.444	1.301	1.251	1.000	1.196	0.891	0.922	0.986	1.202	1.058	1.032	1.087	0.702	0.660	0.598	0.717	0.761	0.753	1.068	1.268	1.474	1.646	1.664	1.330	1.138	1.189	1.084	1.106	0.965	1.001	1.091	1.120	1.342	1.539	2.024	2.477	3.602	5.206	5.410	4.583	3.458	3.687	3.981	4.753	6.314	7.803	8.795	17.30	34.83	34.93	23.62
300.0	693.4	832.2	774.7	503.4	349.2	320.8	371.8	434.0	613.1	1023	1635	1250	961.6	806.9	1416	5726	4999	81.34	9.429	5.029	3.650	2.663	2.495	2.149	1.910	1.831	1.625	1.461	1.234	1.216	1.127	1.004	0.946	0.892	1.058	1.203	1.099	1.165	0.928	0.732	0.728	0.749	0.908	0.888	1.347	1.653	1.626	1.965	1.854	1.712	1.441	1.347	1.253	1.221	1.242	1.186	1.402	1.473	1.673	2.109	2.417	2.739	3.041	4.655	6.048	7.426	6.537	5.037	4.356	4.170	4.186	3.793	3.736	5.212	11.55	23.75	42.86
305.0	793.2	997.7	919.6	598.0	437.7	413.8	488.3	609.3	834.3	1160	1781	1829	1296	847.3	729.6	2022	6333	3843	62.56	7.216	4.559	3.241	2.761	2.286	2.112	1.751	1.604	1.707	1.212	1.137	1.215	1.119	1.087	1.090	1.153	1.414	1.262	1.160	0.965	0.938	0.807	0.967	1.005	1.109	1.385	1.950	1.987	2.279	2.187	1.935	1.724	1.711	1.542	1.383	1.565	1.613	1.932	2.132	2.139	2.804	3.189	3.684	4.347	5.031	5.894	7.448	9.135	8.840	7.192	5.798	5.009	3.717	3.370	3.254	4.432	7.097	16.26
310.0	919.7	1125	1026	681.9	517.7	509.6	617.0	776.3	1010	1338	1762	2107	1935	1153	763.0	825.6	2190	4409	3946	284.0	16.01	4.480	3.402	2.714	2.383	2.151	1.941	1.842	1.635	1.388	1.298	1.197	1.049	1.216	1.217	1.372	1.369	1.147	0.891	1.007	0.911	1.015	1.105	1.312	1.524	1.996	2.250	2.668	2.515	2.069	1.946	1.894	1.682	1.741	1.755	1.959	2.353	2.607	2.949	3.222	3.817	4.440	4.989	5.768	6.440	7.121	8.248	9.182	9.918	8.846	7.341	5.367	4.436	3.759	3.535	3.716	5.486
315.0	1102	1325	1162	785.6	597.7	587.7	712.5	881.1	1136	1457	1840	2049	2096	1741	991.4	685.1	861.7	1235	3037	4312	421.1	13.04	4.918	3.685	2.770	2.330	2.161	2.075	1.771	1.813	1.472	1.253	1.135	1.134	1.277	1.346	1.290	1.259	1.029	0.978	0.908	1.082	1.101	1.597	1.935	2.519	2.775	3.088	2.749	2.334	2.063	2.174	2.051	2.027	2.011	2.170	2.763	3.189	3.420	3.569	4.199	4.855	5.674	6.141	6.797	7.677	8.040	8.421	9.007	9.312	9.600	8.971	6.548	5.242	4.011	3.851	3.762
320.0	1426	1735	1419	917.6	676.7	637.8	779.9	975.0	1245	1587	1983	2172	2105	2007	1411	796.8	654.7	519.7	908.0	3699	3750	62.97	8.897	4.692	3.467	2.914	2.344	1.991	1.928	1.851	1.597	1.507	1.129	1.256	1.375	1.316	1.231	1.145	1.280	0.941	1.015	1.192	1.435	1.885	2.476	3.102	3.716	3.893	3.433	2.831	2.486	2.516	2.150	2.304	2.119	2.508	2.890	3.362	3.800	4.099	4.733	5.219	6.203	7.079	7.380	8.084	8.512	8.731	9.296	9.435	9.184	9.424	9.499	7.492	5.267	4.622	4.144
325.0	1793	2224	1958	1248	804.6	711.9	842.3	1058	1314	1682	2088	2306	2206	1999	1744	978.6	680.7	407.0	339.8	1185	4163	3035	52.77	6.909	4.125	3.393	2.574	2.534	2.021	1.731	1.787	1.427	1.356	1.237	1.276	1.337	1.271	1.235	1.257	1.136	1.275	1.240	1.733	2.203	2.962	3.893	4.719	5.477	4.760	3.724	3.410	3.381	2.581	2.663	2.524	2.789	3.217	3.441	3.946	4.541	4.805	5.561	6.383	7.236	8.104	8.671	9.013	9.385	9.751	9.744	9.449	9.186	9.653	9.557	7.631	6.009	4.750
330.0	2157	2851	2680	1867	1138	867.6	920.3	1125	1412	1793	2180	2410	2323	2037	1724	1354	874.9	476.4	296.8	419.9	1325	3041	3064	237.9	17.82	4.666	3.182	2.720	2.393	2.069	1.883	1.612	1.456	1.348	1.227	1.187	1.208	1.246	1.258	1.220	1.282	1.594	1.992	2.550	3.532	4.690	5.840	6.753	6.286	5.586	4.940	4.872	3.863	3.555	3.180	3.159	3.426	3.761	4.089	4.805	5.072	5.866	6.771	7.481	8.541	8.799	9.527	9.950	9.941	10.28	10.11	9.428	9.299	8.772	8.005	7.767	6.800
335.0	2373	3260	3188	2420	1565	1097	1016	1190	1474	1848	2226	2466	2409	2137	1730	1378	1170	679.1	400.5	357.7	507.5	877.7	2231	3488	384.2	18.72	4.911	3.625	3.025	2.313	2.053	1.632	1.433	1.563	1.233	1.326	1.411	1.186	1.182	1.211	1.395	1.621	2.072	2.736	3.915	5.215	6.134	7.606	7.144	6.713	6.387	6.231	5.031	4.724	3.984	3.674	3.857	3.701	4.384	4.922	5.383	6.070	6.652	7.721	8.698	9.337	9.465	10.43	10.24	10.55	10.28	10.10	9.455	8.868	8.061	7.472	6.822
340.0	2378	3394	3418	2645	1763	1196	1083	1222	1502	1842	2212	2440	2414	2164	1773	1359	1166	901.7	524.6	407.6	386.4	413.9	761.4	2897	3182	306.5	10.26	4.500	3.524	2.646	2.231	1.781	1.452	1.447	1.399	1.347	1.354	1.100	1.221	1.265	1.371	1.620	2.173	2.656	3.961	5.532	6.396	7.839	7.945	7.064	7.025	7.195	6.281	5.349	4.280	3.896	4.107	4.126	4.606	4.912	5.552	6.276	7.055	8.077	8.883	9.425	10.14	10.13	10.38	10.60	10.49	10.36	9.710	9.184	8.212	7.254	6.956
345.0	2339	3427	3417	2716	1842	1257	1118	1230	1504	1816	2148	2363	2353	2125	1768	1361	1092	991.8	681.6	489.0	417.7	365.2	391.0	1001	3315	2654	48.99	6.751	3.945	3.026	2.400	1.907	1.459	1.528	1.477	1.307	1.244	1.153	1.308	1.354	1.402	1.660	2.127	2.911	3.869	5.490	6.143	7.870	8.221	7.268	7.134	7.613	6.242	5.565	4.443	4.127	4.029	4.229	4.474	4.892	5.364	6.109	6.676	7.577	8.187	8.959	9.364	9.824	10.16	10.46	10.31	10.46	9.654	8.663	8.172	7.539	6.915
350.0	2178	3134	3214	2695	1910	1346	1176	1279	1491	1781	2063	2239	2223	2037	1728	1373	1110	953.4	888.7	708.8	535.7	454.5	391.0	441.7	1084	2429	2479	213.9	15.82	3.969	2.752	2.132	1.581	1.494	1.380	1.339	1.203	1.222	1.227	1.214	1.377	1.551	2.134	2.715	3.537	5.088	5.602	7.340	7.543	7.015	7.011	7.799	6.354	5.489	4.701	4.297	4.351	4.414	4.698	5.193	5.550	6.136	6.539	7.359	8.108	8.250	8.953	9.075	9.378	9.725	9.706	9.805	9.089	8.679	7.999	7.780	6.822
355.0	2014	2873	2940	2538	1898	1422	1236	1309	1494	1714	1959	2107	2091	1939	1685	1407	1186	1010	929.3	945.9	768.3	592.1	494.9	399.8	440.5	687.5	1706	2962	352.4	16.66	4.042	2.632	1.941	1.608	1.355	1.405	1.320	1.185	1.189	1.325	1.284	1.572	2.010	2.549	3.277	4.914	5.191	6.586	6.787	6.523	6.670	7.606	6.138	5.827	4.815	4.437	4.345	4.937	4.901	5.346	5.433	5.974	6.600	7.216	8.020	8.054	8.526	8.432	8.654	9.097	9.197	8.956	8.711	8.738	8.521	8.006	7.443
360.0	1902	2566	2773	2478	1892	1448	1278	1353	1495	1701	1896	2009	1998	1883	1670	1427	1245	1093	1011	1010	981.5	758.7	600.6	470.1	368.3	328.3	542.6	2255	2791	282.5	9.658	3.893	2.446	1.638	1.557	1.441	1.356	1.278	1.259	1.314	1.172	1.602	1.974	2.310	3.183	4.201	5.010	6.038	6.386	6.226	6.253	7.113	6.072	5.683	5.254	4.560	4.792	4.888	5.275	5.447	5.511	6.171	6.511	7.543	7.733	7.562	7.742	8.238	8.365	8.812	8.642	8.808	8.353	8.263	8.417	7.811	7.502
365.0	1768	2361	2619	2366	1923	1510	1378	1406	1544	1720	1866	1934	1914	1837	1641	1461	1310	1203	1132	1091	1110	983.2	746.4	582.1	437.6	313.6	269.3	745.2	2716	2379	46.28	6.900	3.437	2.397	1.987	1.398	1.487	1.287	1.080	1.358	1.264	1.436	1.911	2.380	2.935	3.582	4.701	5.556	5.916	5.884	6.002	6.977	6.380	5.596	5.306	5.152	5.025	5.256	5.546	5.573	6.037	5.851	6.549	7.549	7.558	7.194	7.534	8.020	8.398	8.179	8.326	8.534	8.476	8.158	8.121	7.825	7.816
370.0	1645	2167	2460	2305	1953	1620	1516	1560	1663	1781	1845	1873	1846	1786	1646	1511	1409	1343	1296	1257	1220	1185	1026	779.2	587.9	425.1	305.8	332.5	873.4	2094	2217	595.0	16.13	4.112	2.731	1.820	1.533	1.352	1.238	1.257	1.258	1.595	1.847	2.204	2.680	3.539	4.325	5.319	5.679	5.438	5.823	6.554	6.268	6.082	5.556	5.443	5.836	5.672	5.837	5.998	6.551	6.633	6.921	7.643	7.645	7.329	7.311	7.528	8.016	7.997	8.072	8.228	8.280	8.155	8.099	8.296	8.768
375.0	1533	2057	2340	2228	1967	1727	1614	1644	1733	1812	1825	1816	1790	1730	1628	1539	1484	1444	1421	1407	1356	1288	1238	1037	777.0	588.5	431.5	340.2	387.2	614.7	1484	2637	308.0	17.31	5.087	2.815	1.880	1.537	1.404	1.342	1.422	1.538	1.637	2.181	2.662	3.395	4.027	4.912	5.123	5.208	5.515	6.680	6.392	6.040	6.035	5.745	5.977	5.835	6.289	6.487	6.544	6.799	7.237	7.558	7.468	7.538	7.153	7.430	7.765	7.840	7.937	8.028	7.922	8.061	8.145	8.335	8.661
380.0	1544	1952	2272	2182	1986	1758	1686	1683	1743	1819	1792	1773	1754	1705	1616	1544	1517	1501	1501	1492	1456	1388	1316	1214	958.5	731.7	557.5	436.4	360.5	334.1	513.2	1936	2241	240.1	11.63	4.925	2.762	1.951	1.638	1.475	1.492	1.614	1.720	2.069	2.634	3.101	3.823	4.771	5.093	5.054	5.435	6.813	6.338	6.157	5.968	5.767	6.117	6.244	6.600	6.568	6.929	7.056	7.046	7.448	7.499	7.363	7.166	6.903	7.701	7.779	8.329	7.969	7.770	7.963	8.409	8.327	8.781
385.0	1472	1946	2209	2168	2020	1832	1730	1745	1794	1848	1809	1770	1761	1704	1626	1559	1534	1544	1564	1572	1546	1485	1396	1317	1163	904.0	712.8	572.3	447.6	357.8	316.2	677.7	2120	1786	39.16	9.456	4.954	3.009	1.966	1.495	1.680	1.519	1.985	2.133	2.748	3.210	3.798	4.598	4.938	4.780	5.228	6.260	6.318	6.333	6.357	5.962	6.412	6.469	6.877	6.732	7.081	7.359	7.294	7.522	7.312	7.110	7.535	7.168	7.722	7.525	7.963	7.882	8.264	8.121	8.164	8.207	8.640
390.0	1477	1924	2189	2207	2123	1950	1908	1920	1971	2002	1948	1908	1889	1835	1739	1643	1599	1612	1645	1678	1689	1650	1585	1494	1402	1236	1008	849.6	705.9	552.6	435.1	402.0	750.8	1603	1596	452.5	19.98	8.370	3.781	2.228	1.722	1.673	1.874	2.307	2.585	3.270	3.688	4.716	4.974	5.130	5.322	6.659	6.657	6.768	6.919	6.613	7.216	7.109	7.316	7.560	7.579	7.797	7.858	8.051	8.025	7.856	7.657	7.525	7.771	7.911	8.304	8.514	8.467	8.810	8.793	8.694	9.041
395.0	1574	1929	2244	2343	2308	2187	2184	2214	2304	2413	2398	2370	2332	2233	2062	1866	1732	1708	1756	1807	1858	1884	1867	1822	1747	1673	1520	1309	1147	961.9	766.1	579.7	474.6	592.5	1221	2030	259.9	27.62	9.728	3.939	2.350	2.183	2.288	2.233	2.819	3.315	3.810	4.682	5.081	5.202	5.814	7.239	6.778	7.348	7.410	7.563	8.243	8.171	8.400	8.254	8.540	8.967	9.025	9.248	9.190	9.364	8.850	8.868	9.307	9.558	9.385	10.08	10.06	9.872	9.606	9.314	10.12
400.0	1561	2032	2389	2469	2532	2457	2504	2549	2720	2950	3045	3084	2987	2807	2518	2187	1930	1840	1867	1959	2044	2118	2175	2199	2161	2115	2047	1856	1642	1430	1175	896.1	646.1	447.0	586.6	1623	1705	208.4	22.51	7.115	3.244	2.556	2.390	2.637	3.183	3.739	4.007	4.803	5.173	5.455	5.682	7.775	7.495	8.304	8.060	8.359	8.955	9.227	9.332	9.679	9.852	10.41	10.71	11.11	11.48	11.17	10.80	11.01	11.47	11.26	11.33	11.92	11.51	11.47	11.06	11.05	10.57
405.0	1693	2117	2497	2617	2762	2786	2840	3032	3256	3631	3871	3944	3840	3556	3123	2589	2170	2000	2002	2119	2249	2391	2520	2616	2650	2627	2596	2490	2245	1980	1668	1310	944.7	674.4	556.9	764.5	1738	1338	139.9	12.83	5.024	3.213	2.825	2.895	3.263	3.834	4.161	5.399	5.491	5.830	6.105	7.784	8.304	8.991	9.039	8.971	10.40	10.86	10.88	11.42	11.47	12.24	12.57	13.19	13.60	13.48	13.28	14.06	14.52	14.11	14.28	14.27	13.97	13.59	13.01	12.77	12.26
410.0	1807	2269	2629	2826	2999	3099	3243	3442	3812	4347	4744	4852	4694	4322	3719	3014	2419	2142	2119	2250	2426	2628	2845	3021	3129	3155	3138	3071	2883	2562	2187	1743	1288	937.1	719.2	615.7	772.1	1281	1202	144.8	14.04	4.727	3.654	3.448	3.715	4.019	4.408	5.431	6.020	5.910	6.608	8.618	9.184	9.685	10.02	10.16	11.46	12.14	12.24	12.39	13.15	13.88	14.58	15.56	15.97	16.53	15.93	16.59	16.59	16.81	16.91	17.27	16.53	16.00	14.61	14.05	13.61
415.0	1746	2240	2622	2822	3027	3169	3358	3571	3926	4464	4901	5030	4852	4466	3827	3073	2441	2123	2085	2217	2402	2625	2874	3087	3222	3278	3283	3207	3059	2785	2377	1905	1425	1052	801.5	618.6	490.1	469.3	857.9	1325	212.8	11.20	4.876	3.906	3.640	3.936	4.239	5.474	5.895	5.802	6.407	8.407	9.542	9.924	10.67	10.52	11.71	12.09	12.78	12.93	13.49	14.21	14.97	15.79	16.06	17.08	16.46	17.04	17.00	17.52	17.37	17.29	16.71	16.16	15.13	14.26	13.33
420.0	1718	2166	2505	2748	2966	3112	3273	3516	3819	4271	4710	4818	4645	4286	3687	2950	2331	2035	1993	2113	2300	2516	2756	2967	3116	3192	3188	3125	2968	2758	2372	1894	1425	1061	809.2	608.6	426.1	276.8	304.2	1023	1163	35.28	7.348	4.341	3.862	4.379	4.424	5.025	5.680	5.753	6.222	8.327	8.964	9.555	10.09	10.35	11.61	12.05	12.43	12.66	13.12	14.04	14.43	15.44	15.91	15.93	15.97	16.40	16.39	16.96	16.79	17.00	16.33	15.44	14.45	13.53	12.97
425.0	1693	2087	2467	2685	2923	3097	3243	3460	3705	4153	4546	4669	4483	4145	3575	2851	2251	1947	1919	2017	2197	2399	2646	2864	3019	3088	3103	3056	2905	2690	2370	1893	1430	1071	821.6	615.3	419.6	246.8	161.4	346.3	1121	898.0	30.39	5.704	4.358	4.352	4.583	5.118	5.508	5.628	6.122	8.424	8.893	9.535	9.653	10.74	11.65	11.72	12.33	12.48	12.67	13.60	13.97	14.67	15.62	15.48	15.34	15.37	16.10	16.63	16.18	16.57	15.77	15.47	14.31	13.26	12.79
430.0	1686	2039	2431	2681	2965	3161	3383	3567	3795	4198	4597	4739	4564	4180	3600	2862	2246	1923	1871	1959	2135	2352	2595	2829	2998	3099	3132	3096	2954	2735	2440	2003	1524	1153	896.2	682.0	472.2	278.4	155.0	141.2	355.9	833.5	873.5	127.9	11.04	5.221	4.545	5.209	5.482	5.480	6.126	8.408	8.795	9.674	10.19	10.81	11.88	12.32	12.84	13.00	12.93	13.81	14.10	14.90	15.64	15.66	15.69	16.23	16.29	16.27	16.47	16.70	16.06	15.58	13.96	13.22	12.60
435.0	1837	1983	2401	2701	3010	3274	3547	3716	3922	4257	4654	4814	4627	4214	3628	2882	2252	1904	1837	1918	2070	2280	2538	2785	2965	3080	3138	3112	2985	2781	2474	2076	1634	1237	972.7	755.4	532.2	325.1	182.4	116.3	129.9	227.2	624.8	1078	195.6	10.79	5.511	5.518	5.444	5.492	6.293	8.290	9.118	9.494	10.55	11.49	12.35	13.44	13.42	13.53	12.99	13.97	14.81	15.02	16.10	15.75	15.88	15.76	15.84	16.96	16.44	16.92	15.95	15.76	14.08	13.30	12.74
440.0	2112	2055	2292	2651	3043	3325	3621	3734	3858	4149	4505	4659	4464	4075	3511	2781	2190	1849	1779	1838	1973	2166	2421	2652	2852	2944	3021	3007	2888	2697	2421	2023	1630	1265	985.7	774.2	557.2	349.5	203.3	124.2	89.76	90.43	192.5	847.0	1009	147.3	7.174	6.046	5.734	5.657	6.414	8.857	8.933	9.786	10.69	11.39	13.00	13.30	13.73	13.59	13.47	13.77	14.22	14.78	15.19	15.26	15.82	15.59	15.35	16.14	15.68	16.04	15.43	15.67	13.83	13.27	12.60
445.0	2203	2183	2243	2576	2935	3314	3558	3659	3723	3890	4204	4300	4111	3796	3266	2604	2071	1749	1683	1721	1824	1993	2230	2451	2618	2724	2788	2778	2694	2512	2264	1901	1540	1224	967.3	759.2	557.0	356.1	219.6	137.9	92.19	68.03	74.07	273.5	993.7	849.5	26.02	6.997	5.897	5.789	6.127	7.903	8.816	10.14	10.53	10.82	12.59	12.71	13.28	12.92	13.09	13.15	13.57	13.88	14.20	14.32	14.74	14.87	14.48	14.99	14.73	14.47	14.14	14.62	13.23	12.22	11.89
450.0	1881	2541	2191	2417	2753	3123	3409	3451	3399	3453	3637	3725	3584	3286	2841	2312	1859	1588	1529	1540	1613	1738	1937	2118	2268	2364	2422	2418	2351	2211	2003	1693	1373	1109	909.9	718.9	529.7	356.9	232.2	154.4	105.8	74.36	56.58	89.08	303.1	756.5	788.0	116.4	10.77	5.832	5.966	7.687	8.240	9.446	9.940	10.85	11.95	12.45	12.73	12.26	12.45	12.42	12.36	12.47	12.58	12.72	12.89	13.15	12.89	12.96	12.71	13.01	12.67	12.09	11.52	10.79	10.36
455.0	1466	2619	2476	2253	2605	2956	3201	3192	3075	3029	3166	3223	3104	2839	2479	2027	1654	1426	1370	1361	1401	1505	1663	1817	1946	2033	2082	2086	2041	1930	1754	1501	1221	995.4	834.8	686.4	508.8	352.5	243.8	168.1	120.5	86.03	62.17	55.52	92.75	195.8	507.6	900.6	162.1	10.20	5.872	7.394	8.055	8.900	9.709	9.922	11.29	11.90	12.10	11.75	11.36	11.00	11.16	10.86	10.80	11.29	11.17	11.14	11.15	11.39	11.32	11.29	10.83	10.91	10.09	9.761	9.188
460.0	1297	2242	2967	2183	2440	2803	3067	3024	2865	2785	2878	2923	2812	2576	2256	1860	1518	1316	1258	1248	1268	1349	1499	1629	1741	1831	1872	1882	1837	1752	1599	1377	1128	930.3	779.4	656.1	502.6	351.3	246.0	178.0	131.4	95.39	70.56	53.93	50.64	66.01	148.3	659.7	783.6	117.2	7.525	7.410	7.589	8.255	9.257	9.399	11.08	10.95	11.36	10.95	10.83	10.30	10.39	10.51	9.540	9.771	10.16	9.763	10.16	10.40	10.15	10.30	9.911	9.879	9.491	8.673	8.486
465.0	1134	1747	3187	2365	2309	2655	2870	2851	2654	2586	2637	2684	2565	2359	2061	1716	1409	1222	1165	1148	1154	1223	1345	1478	1573	1652	1700	1707	1678	1602	1466	1275	1054	869.1	731.8	615.7	494.9	354.4	247.8	183.4	138.6	101.3	76.95	58.38	46.35	40.79	53.77	204.3	739.6	631.3	22.46	8.212	7.444	7.992	8.504	9.026	10.60	10.32	10.71	10.16	10.46	10.09	9.486	9.703	9.015	9.258	9.415	9.034	9.403	9.583	9.340	9.485	9.124	9.049	8.674	8.251	8.078
470.0	1012	1381	2424	2972	2213	2380	2599	2578	2387	2281	2291	2322	2221	2051	1795	1496	1240	1080	1026	1002	995.9	1046	1153	1261	1345	1415	1454	1461	1444	1382	1277	1119	929.4	776.7	654.5	553.9	452.7	345.2	248.7	184.6	141.2	107.1	83.28	64.56	50.37	39.72	36.35	64.88	221.1	522.6	558.0	112.4	12.37	7.799	7.980	8.597	9.854	9.711	9.787	9.599	9.184	8.862	8.528	8.256	8.088	8.157	8.395	8.081	8.133	8.317	8.192	8.504	7.870	7.896	7.534	7.254	7.004
475.0	941.9	1158	1579	3022	2524	2115	2302	2234	2059	1934	1918	1935	1863	1717	1502	1260	1055	926.1	876.7	851.7	836.5	869.9	952.7	1042	1111	1165	1202	1207	1197	1150	1071	947.7	793.9	673.2	572.7	484.9	397.6	314.7	244.8	183.6	141.2	110.6	87.59	68.78	55.03	44.88	36.63	37.14	65.95	132.4	303.8	611.5	162.7	13.01	7.438	7.686	8.656	8.654	8.450	8.227	7.905	7.779	7.246	6.787	7.003	7.147	6.590	7.000	6.865	6.833	7.056	7.046	6.637	6.548	6.268	5.980	6.190
480.0	874.5	1061	1248	2338	2991	1988	2056	2008	1847	1693	1675	1686	1619	1482	1312	1107	933.9	825.0	785.3	749.1	734.7	755.6	823.9	902.7	957.0	996.1	1027	1032	1031	998.3	931.9	824.0	698.1	598.2	514.3	435.9	360.7	290.2	236.0	185.4	141.0	112.4	90.05	72.74	59.83	48.15	39.21	33.02	33.78	44.35	86.74	374.5	598.5	140.9	9.831	7.397	7.674	8.055	8.101	7.494	7.437	6.797	6.404	6.199	6.065	5.930	5.935	6.153	5.996	6.338	6.216	6.199	5.981	6.028	5.287	5.282	5.312
485.0	766.2	999.0	1103	1636	3159	2145	1873	1818	1648	1505	1487	1496	1422	1305	1154	987.5	836.1	742.6	704.8	676.1	649.9	665.4	726.0	787.8	837.1	876.4	896.6	905.7	900.4	874.9	821.4	726.9	628.5	536.0	465.8	398.9	330.9	268.5	221.7	186.5	142.8	113.0	92.35	75.61	62.75	52.25	42.84	34.83	28.91	27.05	33.37	111.6	480.7	558.7	28.00	8.046	7.514	7.494	7.618	6.758	6.430	6.326	5.763	5.669	5.417	5.539	5.407	5.349	5.585	5.530	5.767	5.182	5.386	5.495	4.766	4.693	5.038
490.0	640.7	912.3	987.1	1205	2364	2811	1731	1596	1456	1317	1298	1289	1229	1132	995.3	850.1	728.8	649.5	616.0	589.7	562.2	573.4	621.8	675.1	714.1	748.5	764.9	767.8	766.7	751.1	706.8	631.7	547.4	470.9	413.4	356.3	300.8	247.0	202.3	173.3	146.6	117.0	94.66	78.67	66.33	56.16	47.61	39.19	31.99	26.78	24.36	39.29	138.5	371.6	483.7	117.9	14.47	7.220	7.094	6.199	5.767	5.617	5.192	4.986	4.871	4.728	4.863	4.817	4.969	4.898	4.897	4.726	4.808	4.609	4.462	4.201	4.364
495.0	561.4	778.7	894.6	1008	1456	2865	2068	1384	1263	1143	1129	1118	1060	970.0	850.5	727.8	631.1	560.9	532.2	508.2	485.2	491.2	529.1	571.4	605.3	633.1	640.7	646.1	650.0	630.3	600.6	541.0	472.0	412.0	360.8	317.8	270.8	224.8	184.0	157.0	140.0	120.7	96.85	80.75	68.83	59.97	51.03	43.12	36.60	30.33	25.90	25.57	44.73	96.25	246.6	570.1	200.5	16.21	6.447	5.865	5.259	5.087	4.538	4.287	4.502	4.067	4.121	3.882	4.176	4.200	4.282	4.311	4.117	4.140	3.750	3.796	3.735
500.0	528.7	692.3	877.7	923.6	1100	2166	2663	1299	1130	1021	1004	998.7	942.1	860.0	748.4	651.1	560.8	501.1	471.0	446.9	427.9	432.6	462.6	501.1	530.9	553.5	558.3	564.0	566.2	555.5	525.7	475.8	417.6	366.3	325.7	287.2	245.4	206.8	172.2	146.6	129.3	119.2	99.18	82.10	70.79	61.51	53.59	45.07	38.50	32.03	27.73	24.39	25.66	34.95	69.80	311.3	593.3	168.4	9.862	5.761	5.001	4.277	4.216	3.884	3.863	3.660	3.793	3.594	3.699	3.678	3.614	3.749	3.507	3.628	3.600	3.388	3.159
505.0	454.9	594.1	794.5	824.4	927.4	1460	2889	1457	1005	913.4	892.3	893.3	833.5	764.4	662.3	577.1	497.7	449.6	420.1	397.5	380.9	383.3	405.7	441.6	462.2	485.8	489.7	491.6	493.7	489.9	463.9	420.6	371.1	326.7	293.4	259.4	224.3	188.1	159.5	136.4	119.7	110.5	99.58	83.42	70.04	61.70	54.12	46.61	40.00	34.54	29.60	25.38	22.63	22.67	27.79	88.62	386.1	544.8	31.14	6.723	4.875	4.137	3.742	3.700	3.301	3.322	3.321	3.289	3.559	3.307	3.470	3.302	3.281	3.397	3.158	3.046	2.831
510.0	381.3	498.9	660.5	760.7	802.8	990.6	2080	2205	946.1	782.2	757.5	754.9	708.7	641.0	560.8	486.0	419.9	380.1	355.0	338.2	321.3	324.4	342.1	370.1	388.3	402.4	404.8	410.4	409.1	405.9	385.3	351.9	313.1	278.7	248.9	223.2	194.4	168.1	142.7	124.9	109.4	98.28	92.24	82.95	70.91	60.84	54.12	46.44	41.09	35.93	31.87	27.22	23.23	20.72	19.52	30.98	105.9	302.5	396.8	128.1	13.31	4.084	3.521	3.376	2.840	2.858	2.858	2.901	2.946	2.891	3.029	2.708	2.757	2.833	2.639	2.451	2.543
515.0	313.1	416.8	524.0	680.3	696.0	771.4	1118	2462	1315	657.9	645.8	624.8	587.1	527.4	457.1	400.5	346.5	319.3	292.2	281.5	267.7	267.9	282.0	302.8	318.5	328.0	330.9	329.9	334.2	326.7	316.7	288.8	259.2	232.6	208.8	187.5	166.0	145.9	124.0	110.4	99.23	87.00	80.62	77.73	71.60	60.35	52.64	45.21	40.58	35.65	32.06	28.40	24.17	21.13	17.88	18.75	33.48	75.38	158.4	419.3	206.3	15.77	3.114	2.896	2.776	2.488	2.403	2.573	2.313	2.388	2.289	2.428	2.349	2.282	2.341	2.026	1.961
520.0	278.0	361.0	465.6	576.0	640.0	654.8	768.0	1795	2005	634.2	560.7	550.1	508.2	458.8	395.8	350.8	302.2	274.9	257.7	241.6	228.1	230.7	242.0	259.9	270.4	277.5	282.4	279.5	287.1	278.3	271.1	246.9	224.5	200.6	182.3	163.9	145.7	128.2	113.1	100.3	90.58	80.70	73.89	69.70	68.49	60.11	51.60	44.49	40.21	35.15	31.98	27.56	23.93	20.89	17.82	15.74	17.01	24.70	42.69	195.4	440.3	171.4	8.761	2.852	2.468	2.212	2.181	2.190	2.093	2.121	2.075	2.269	2.109	1.854	1.965	1.794	1.859
525.0	239.8	348.2	415.0	485.3	588.2	577.5	626.7	1048	2439	849.9	499.0	488.6	448.4	401.9	347.4	306.6	265.1	241.3	222.7	211.2	199.2	200.8	210.6	223.8	236.3	242.4	240.8	243.6	243.3	241.8	234.0	213.9	195.3	176.6	160.4	145.4	130.0	115.4	103.5	91.19	81.89	75.10	68.37	62.50	62.46	59.87	50.47	43.21	38.20	34.60	30.44	27.18	24.17	20.88	17.64	15.13	13.52	13.21	15.55	51.76	238.0	417.5	32.12	4.582	2.375	2.247	2.023	1.933	1.868	1.949	1.768	1.821	1.894	1.691	1.513	1.532	1.711
530.0	211.7	267.3	339.0	383.4	511.5	509.1	514.4	621.1	1705	1734	494.4	407.7	383.8	337.5	290.5	254.4	224.8	204.0	188.0	178.7	166.7	168.1	176.1	184.9	195.3	200.4	199.2	200.2	200.8	199.8	192.8	178.7	162.1	147.9	134.6	122.6	112.2	99.17	90.20	80.34	72.73	66.64	60.71	56.17	54.31	53.57	49.00	41.74	36.05	32.28	28.68	25.17	22.51	19.87	17.01	14.27	12.08	10.46	9.531	16.28	61.01	196.7	287.1	126.0	12.39	2.119	1.851	1.774	1.776	1.653	1.523	1.498	1.559	1.479	1.288	1.291	1.457
535.0	171.3	216.4	284.1	308.2	407.9	472.4	430.9	439.7	745.2	2126	904.5	343.3	318.2	280.7	238.1	207.8	184.8	167.6	156.8	146.7	138.7	138.8	143.8	150.4	160.3	162.7	161.6	163.2	162.8	163.3	155.7	146.0	132.3	121.6	110.6	103.1	92.64	82.85	76.30	67.65	63.71	58.07	53.26	49.48	47.11	45.67	44.78	40.66	33.77	29.29	26.58	23.34	20.28	18.11	16.34	13.84	11.56	9.482	7.694	8.362	17.37	47.22	99.86	280.3	191.2	14.61	1.758	1.401	1.412	1.382	1.439	1.321	1.355	1.264	1.071	1.199	1.263
540.0	142.1	197.6	244.3	267.0	312.6	421.6	388.3	363.5	421.8	1497	1642	333.4	272.4	240.9	206.5	178.1	158.2	142.9	133.3	126.3	119.3	117.5	123.0	128.3	136.8	138.0	137.7	138.8	137.4	136.9	131.7	124.0	114.4	103.7	96.47	87.61	81.36	73.24	67.06	60.23	56.43	51.92	47.19	44.82	42.05	40.67	39.67	37.70	32.82	27.19	24.41	21.43	18.89	16.68	15.03	13.35	10.96	8.838	7.285	6.392	7.575	13.48	25.27	115.6	304.5	143.3	7.267	1.475	1.319	1.263	1.322	1.174	1.124	1.126	0.978	1.031	1.002
545.0	146.6	160.2	203.4	230.9	266.5	345.8	370.3	310.7	315.2	736.8	2102	492.6	237.6	209.3	181.3	155.5	136.5	122.0	115.4	107.4	102.4	102.6	107.6	111.6	116.2	118.6	117.9	117.7	117.6	116.8	113.7	106.3	97.16	88.67	81.94	76.40	69.59	64.23	58.18	53.58	49.70	46.12	43.05	39.91	38.26	35.95	33.62	33.24	31.50	26.08	22.42	19.87	17.48	15.70	13.89	12.30	10.65	8.434	6.996	5.809	5.356	6.103	8.179	29.52	147.5	284.2	32.49	3.384	1.292	1.200	1.101	1.066	0.953	0.911	0.951	0.951	0.869
550.0	106.7	152.3	170.0	186.5	213.7	259.5	335.8	269.1	243.2	341.6	1396	1299	231.9	171.9	144.8	125.6	110.5	100.5	94.57	86.04	84.44	82.43	86.85	89.04	93.05	95.67	94.13	94.16	94.42	93.90	91.96	86.10	78.35	71.97	67.60	63.22	57.86	52.29	48.33	45.05	41.27	38.53	36.02	34.54	32.57	30.44	28.44	27.42	26.65	24.20	20.48	17.18	15.66	13.76	12.23	10.77	9.312	8.012	6.551	5.323	4.357	4.062	4.268	8.679	36.57	122.3	192.2	106.7	10.95	1.177	1.015	0.905	0.846	0.778	0.836	0.660	0.732
555.0	90.02	132.7	146.0	152.2	170.1	190.8	270.6	246.5	198.4	214.1	517.4	1721	522.3	136.6	115.9	99.95	87.72	79.43	74.88	68.07	66.22	66.18	66.58	71.09	74.06	74.38	73.85	73.06	75.05	73.49	70.50	67.36	61.13	57.26	52.48	49.64	46.72	42.11	39.13	35.73	33.69	31.72	29.77	28.07	27.09	25.18	23.78	22.20	21.28	20.70	18.97	15.48	13.46	12.02	10.41	9.194	8.056	6.875	6.042	4.580	3.893	3.436	2.970	3.715	9.632	28.67	61.00	184.4	138.9	12.37	1.018	0.841	0.804	0.732	0.765	0.678	0.629
560.0	82.42	122.2	123.8	126.8	141.7	157.4	208.3	244.6	168.3	166.3	238.9	1201	1138	130.9	94.16	81.86	72.16	66.10	61.57	56.72	53.85	54.39	55.97	57.14	60.91	62.46	60.83	59.67	60.54	60.29	57.25	55.04	51.03	46.26	44.07	41.39	37.93	34.98	33.00	30.75	27.83	26.97	24.71	23.51	23.01	21.74	20.20	18.57	17.67	17.74	16.93	13.89	11.70	10.44	9.000	7.914	7.431	6.200	5.775	4.594	3.631	3.017	2.433	2.572	3.691	7.762	15.01	69.19	189.2	97.98	5.296	0.736	0.737	0.616	0.699	0.557	0.505
565.0	86.40	111.9	107.8	115.7	124.3	128.2	157.1	232.5	157.0	136.9	161.1	546.7	1590	170.2	79.22	68.13	58.85	55.74	51.09	48.44	44.80	44.60	46.04	46.69	49.05	51.28	50.84	50.13	50.14	50.37	46.87	45.61	42.54	38.90	37.11	33.69	31.81	29.57	27.34	25.82	24.53	23.40	21.50	19.99	19.68	18.82	17.59	16.03	14.83	14.60	14.46	12.81	10.73	9.207	7.838	7.209	6.360	5.467	5.064	4.370	3.516	2.837	2.301	2.154	2.458	3.056	4.514	17.04	84.34	176.5	31.75	2.237	0.622	0.468	0.606	0.479	0.464
570.0	74.87	99.85	101.9	97.86	103.6	105.3	115.9	172.2	173.2	122.6	126.1	218.6	1076	838.6	86.03	53.89	47.89	43.43	40.57	38.78	36.38	36.64	36.11	37.40	38.79	40.06	39.88	39.24	38.89	39.11	37.67	35.86	33.61	30.83	29.29	26.83	25.28	23.68	22.36	20.77	19.51	18.35	17.70	16.44	16.18	15.21	14.43	13.19	12.19	11.39	11.14	10.86	9.322	7.792	6.784	6.034	5.244	4.773	4.028	3.587	3.257	2.683	2.075	1.854	1.778	1.754	1.943	4.762	20.48	69.79	112.6	69.08	8.843	0.503	0.395	0.416	0.390
575.0	73.53	95.95	89.28	83.31	84.99	89.10	94.61	119.8	177.8	119.1	113.0	129.4	364.4	1216	285.8	43.63	36.78	34.10	31.21	29.75	28.43	29.17	27.44	29.72	30.46	31.14	30.13	29.91	29.90	30.03	29.42	28.33	26.15	23.96	22.95	21.37	19.34	18.72	17.82	16.50	15.43	14.63	13.77	12.94	12.74	11.82	11.39	10.86	9.935	8.833	8.324	8.335	7.847	7.418	5.669	5.115	4.294	3.884	3.449	2.935	2.680	2.866	2.063	1.866	1.469	1.534	1.406	1.850	5.419	16.26	33.66	101.7	87.39	8.466	0.468	0.337	0.317
580.0	76.38	80.43	90.98	76.91	73.38	77.29	80.34	95.95	153.3	136.8	108.0	105.8	148.8	858.9	722.2	45.69	30.91	28.08	25.60	24.36	22.62	23.52	22.92	23.83	24.63	24.40	24.64	24.60	24.20	24.76	24.54	22.48	21.45	19.37	18.97	17.18	16.08	15.51	14.24	13.76	12.43	12.55	11.28	11.09	10.81	9.970	9.345	9.464	8.413	7.518	6.964	6.684	6.681	6.477	5.299	4.390	4.105	3.366	2.922	2.538	2.138	2.269	2.222	1.721	1.251	1.390	1.159	1.260	1.959	4.353	8.241	36.55	110.7	34.75	3.610	0.334	0.266
585.0	76.02	86.13	87.35	70.35	68.03	71.59	72.54	78.26	121.7	152.5	105.9	99.33	97.63	370.1	1047	93.72	26.97	23.52	22.14	20.64	19.23	20.13	19.86	19.77	20.56	20.56	21.45	19.97	20.53	20.33	19.95	19.06	17.81	16.75	15.25	14.56	13.82	12.65	12.09	11.53	10.93	10.40	10.11	9.620	9.376	9.393	8.457	8.021	7.179	6.510	5.774	5.698	5.738	5.789	5.005	4.143	3.288	2.896	2.397	2.124	1.841	1.914	2.057	1.663	1.376	1.195	1.216	1.164	1.134	1.698	2.578	8.834	46.73	97.62	29.20	1.418	0.304
590.0	66.63	77.52	77.19	66.57	58.07	60.38	63.28	69.28	88.09	147.0	119.4	96.07	82.93	131.2	703.1	494.3	30.85	19.68	17.72	16.36	15.54	15.79	16.14	15.82	16.54	16.43	16.64	15.97	16.29	15.91	15.72	14.84	13.87	13.34	12.12	11.52	10.77	10.08	9.437	9.296	8.868	8.506	7.963	7.691	7.595	7.239	6.980	6.463	5.805	5.163	4.828	4.523	4.347	4.324	4.411	3.717	2.988	2.409	2.123	1.886	1.690	1.613	1.483	1.657	1.347	1.191	1.066	1.023	0.955	0.984	1.111	2.517	11.12	38.40	68.12	44.49	6.231
595.0	61.32	76.43	74.88	67.65	48.46	52.87	54.85	59.49	68.00	113.3	143.0	93.78	77.02	68.00	218.4	757.9	89.73	15.64	14.91	12.55	12.33	12.32	12.26	12.59	12.85	13.54	13.03	12.61	12.60	12.69	11.66	11.69	11.17	9.976	9.806	9.097	8.325	8.008	7.559	7.160	6.740	6.825	6.337	6.264	6.217	5.628	5.383	5.309	4.425	4.271	4.090	3.443	3.435	3.286	3.373	3.496	2.657	1.965	1.715	1.563	1.373	1.416	1.353	1.307	1.387	1.224	1.006	0.929	0.803	0.731	0.704	0.967	2.781	8.869	19.38	61.34	36.09
600.0	64.15	65.27	72.24	57.91	41.64	45.42	50.20	54.70	64.52	91.27	150.2	101.2	77.67	55.01	75.31	545.3	379.0	17.12	11.87	10.44	10.37	10.28	10.37	10.68	10.80	10.60	10.75	9.995	10.32	10.10	9.528	9.457	9.402	8.179	8.151	7.421	7.143	6.505	6.138	6.056	5.453	5.382	5.366	5.186	5.062	4.985	4.222	4.422	3.797	3.610	3.459	2.858	2.671	2.542	2.524	2.826	2.431	1.881	1.637	1.472	1.221	1.353	1.150	1.054	1.127	1.280	1.055	0.815	0.653	0.722	0.614	0.619	1.017	2.300	4.655	21.06	62.93
605.0	65.79	79.71	72.24	51.13	43.70	44.32	47.02	50.90	63.78	84.13	141.9	119.9	82.25	54.66	43.93	229.1	607.7	46.20	10.22	8.894	8.716	8.719	8.672	8.848	9.257	8.764	8.855	8.729	8.634	8.718	8.648	8.375	7.807	6.961	6.711	6.224	5.872	5.384	5.241	5.228	4.772	4.458	4.696	4.199	4.180	3.933	3.739	3.466	3.325	2.841	2.777	2.431	2.220	2.089	2.025	2.135	2.395	1.849	1.575	1.219	1.360	1.166	0.955	1.011	0.940	1.111	1.215	0.825	0.668	0.628	0.614	0.576	0.489	0.804	1.322	5.111	26.68
610.0	67.74	73.20	69.60	52.02	40.56	45.60	48.07	55.33	69.35	87.03	125.7	149.2	92.96	62.93	43.83	78.79	451.2	283.6	13.25	7.582	7.068	6.472	7.057	7.294	7.182	6.982	7.018	7.207	6.975	7.059	6.868	6.347	6.144	5.368	5.380	4.708	4.834	4.284	4.210	4.179	3.666	3.594	3.502	3.338	3.406	3.231	3.076	2.821	2.754	2.245	2.272	1.976	1.899	1.735	1.649	1.665	1.805	1.685	1.455	1.173	1.074	0.985	0.854	0.950	0.860	0.951	1.147	0.899	0.762	0.702	0.627	0.505	0.532	0.504	0.562	1.411	6.439
615.0	64.14	73.21	67.64	47.12	37.76	39.03	45.14	56.29	69.98	86.15	111.2	149.2	108.2	68.20	44.84	41.51	153.5	478.8	58.80	6.450	5.849	5.259	5.879	5.817	5.561	5.855	5.473	5.485	5.144	5.260	5.356	4.940	4.761	4.424	3.996	3.786	3.672	3.464	3.316	3.223	2.816	2.745	2.601	2.575	2.812	2.622	2.267	2.355	2.013	1.794	1.786	1.650	1.550	1.315	1.399	1.139	1.282	1.508	1.303	0.999	0.906	0.829	0.778	0.884	0.800	0.835	0.878	0.874	0.882	0.685	0.653	0.542	0.456	0.359	0.392	0.513	1.654
620.0	64.76	67.78	59.79	48.06	37.88	36.98	45.17	54.84	65.92	82.83	101.1	133.0	116.1	68.47	43.38	32.34	55.61	372.7	227.0	6.631	5.303	4.260	4.851	4.876	4.504	4.683	4.859	4.290	4.180	4.427	4.789	4.016	3.872	3.632	3.233	3.110	2.860	2.664	2.450	2.444	2.300	2.232	2.120	2.056	2.282	2.154	1.837	1.854	1.690	1.486	1.466	1.449	1.165	1.084	1.127	1.065	0.959	1.138	1.142	1.066	0.746	0.681	0.686	0.681	0.660	0.758	0.758	0.765	0.828	0.811	0.520	0.490	0.403	0.398	0.308	0.408	0.563
625.0	52.66	64.04	58.73	45.36	34.92	33.39	44.05	48.24	61.96	80.68	94.55	116.8	122.2	69.27	45.23	30.36	31.06	165.2	393.2	21.74	4.576	4.034	3.875	3.859	3.884	3.762	3.828	3.567	3.725	3.772	3.602	3.291	3.145	2.981	2.689	2.693	2.340	2.160	2.070	1.985	2.013	1.729	1.885	1.729	1.887	1.633	1.490	1.618	1.435	1.225	1.263	1.237	1.106	0.946	0.871	0.842	0.756	0.902	1.030	1.025	0.855	0.782	0.624	0.699	0.649	0.650	0.637	0.683	0.832	0.841	0.569	0.431	0.449	0.410	0.306	0.329	0.298
630.0	51.39	64.16	56.41	41.04	32.28	35.05	38.37	47.88	59.37	74.88	88.02	101.5	116.2	80.07	46.16	30.27	25.39	52.02	313.2	155.3	5.471	3.230	3.366	3.111	3.244	3.339	3.145	3.049	2.933	3.086	2.926	2.567	2.576	2.396	2.235	2.032	1.919	1.804	1.725	1.646	1.637	1.462	1.461	1.431	1.479	1.330	1.284	1.184	1.165	1.113	0.941	0.977	0.866	0.792	0.778	0.715	0.682	0.702	0.791	0.774	0.761	0.685	0.586	0.566	0.542	0.531	0.565	0.634	0.675	0.661	0.643	0.489	0.408	0.375	0.351	0.340	0.295
635.0	52.76	69.63	61.73	44.09	30.80	32.57	37.16	46.91	58.88	72.51	86.34	98.22	100.1	92.98	51.07	31.79	23.87	23.14	103.4	327.8	36.71	2.687	2.870	2.793	2.489	2.846	2.598	2.397	2.456	2.447	2.162	2.017	1.831	1.759	1.718	1.612	1.480	1.358	1.293	1.271	1.279	1.130	1.280	1.030	1.218	1.007	1.076	1.022	0.901	0.915	0.714	0.881	0.676	0.624	0.602	0.587	0.608	0.575	0.728	0.671	0.699	0.658	0.622	0.573	0.475	0.570	0.474	0.615	0.595	0.586	0.491	0.665	0.445	0.386	0.286	0.291	0.296
640.0	60.89	75.46	56.05	41.19	32.87	30.91	38.54	45.70	56.95	72.62	85.95	92.35	92.26	94.72	58.59	33.19	26.49	16.09	30.31	275.8	139.1	3.246	2.298	2.282	2.361	2.318	2.193	2.236	1.960	1.908	1.884	1.592	1.631	1.472	1.488	1.480	1.154	1.169	0.929	0.921	0.947	0.985	1.015	0.825	1.178	0.933	0.931	0.812	0.719	0.769	0.603	0.632	0.484	0.517	0.477	0.574	0.522	0.439	0.483	0.467	0.575	0.619	0.613	0.569	0.537	0.445	0.474	0.553	0.472	0.527	0.475	0.634	0.522	0.359	0.266	0.304	0.330
645.0	60.77	79.32	61.13	41.28	30.82	28.15	35.27	46.43	57.32	69.86	86.35	89.74	91.21	91.99	67.87	36.75	27.57	15.35	12.78	132.7	263.4	11.50	2.160	2.047	2.114	1.812	1.792	1.894	1.703	1.754	1.606	1.541	1.542	1.232	1.269	1.203	1.029	0.924	0.846	0.809	0.825	0.796	0.735	0.778	0.743	0.854	0.783	0.731	0.676	0.673	0.534	0.445	0.468	0.457	0.430	0.438	0.430	0.362	0.382	0.385	0.470	0.527	0.613	0.513	0.566	0.539	0.537	0.534	0.468	0.539	0.457	0.528	0.531	0.462	0.255	0.341	0.261
650.0	67.39	85.99	70.58	43.25	32.31	32.05	33.96	43.65	55.92	69.01	82.96	91.27	87.82	82.68	75.41	38.85	27.33	15.40	8.850	43.13	281.1	52.54	2.074	1.997	1.605	1.856	1.730	1.639	1.557	1.318	1.419	1.308	1.103	1.025	1.140	0.997	0.820	0.907	0.657	0.743	0.664	0.731	0.690	0.618	0.667	0.783	0.693	0.721	0.563	0.563	0.457	0.437	0.397	0.478	0.369	0.431	0.335	0.310	0.395	0.409	0.427	0.453	0.488	0.501	0.434	0.504	0.516	0.489	0.455	0.480	0.536	0.421	0.560	0.651	0.317	0.338	0.294
