Sample:	'1
File name:	y2025051416—’«≈¥Â«≈.FD3
Run date:	'14:34:34, 05/15/2025
Operator:	Administrator
Comment:	'

Instrument
Model:	F-2700 FL Spectrophotometer
Serial number:	23B8-004
ROM Version:	4J14000 07

Instrument parameters
Measurement type:	3-D scan
Data mode:	Fluorescence
EX  Start WL:	220.0 nm
EX  End WL:	600.0 nm
EX Sampling interval:	5.0 nm
EM  Start WL:	230.0 nm
EM  End WL:	650.0 nm
EM Sampling interval:	5.0 nm
Scan speed:	12000 nm/min
EX Slit:	5.0 nm
EM Slit:	5.0 nm
PMT Voltage:	700 V
Response:	Auto 
Corrected spectra:	Off
Contour interval:	50.000

Peak integration
Integration method:	Rectangular
Sensitivity:	1
Threshold:	1.000

Peaks
No.	ApexEX/EM(nm)	Height(Data)
1	225.0/610.0	57.71
2	230.0/345.0	5918
3	230.0/620.0	59.91
4	240.0/265.0	271.0
5	245.0/270.0	306.1
6	250.0/275.0	406.8
7	255.0/285.0	460.4
8	265.0/585.0	153.5
9	270.0/600.0	129.0
10	275.0/415.0	5916
11	275.0/430.0	5919
12	275.0/615.0	129.9
13	280.0/345.0	3228
14	280.0/625.0	117.1
15	285.0/640.0	94.58
16	335.0/415.0	3736
17	475.0/350.0	15.27
18	505.0/275.0	2.371
19	510.0/280.0	2.698
20	510.0/445.0	17.75
21	515.0/285.0	2.965
22	565.0/345.0	14.70
23	570.0/415.0	19.61

Data points
	220.0	225.0	230.0	235.0	240.0	245.0	250.0	255.0	260.0	265.0	270.0	275.0	280.0	285.0	290.0	295.0	300.0	305.0	310.0	315.0	320.0	325.0	330.0	335.0	340.0	345.0	350.0	355.0	360.0	365.0	370.0	375.0	380.0	385.0	390.0	395.0	400.0	405.0	410.0	415.0	420.0	425.0	430.0	435.0	440.0	445.0	450.0	455.0	460.0	465.0	470.0	475.0	480.0	485.0	490.0	495.0	500.0	505.0	510.0	515.0	520.0	525.0	530.0	535.0	540.0	545.0	550.0	555.0	560.0	565.0	570.0	575.0	580.0	585.0	590.0	595.0	600.0
230.0	36.16	613.4	1847	620.6	32.52	7.944	6.305	5.883	5.189	4.871	4.762	4.449	4.403	3.781	3.270	2.728	2.213	1.919	1.963	1.833	1.759	1.699	1.671	1.555	1.518	1.410	1.320	1.148	1.068	1.098	1.021	0.919	0.772	0.749	0.624	0.591	0.574	0.457	0.392	0.389	0.375	0.406	0.394	0.326	0.313	0.353	0.584	2.958	5.434	4.322	1.902	0.484	0.245	0.252	0.240	0.256	0.260	0.248	0.255	0.242	0.245	0.220	0.247	0.227	0.247	0.273	0.236	0.250	0.235	0.242	0.231	0.224	0.255	0.261	0.268	0.238	0.237
235.0	45.91	175.8	1163	2236	567.5	53.82	6.720	5.978	5.293	4.847	5.004	4.827	4.628	3.738	3.244	2.829	2.230	2.129	2.014	1.676	1.801	1.752	1.749	1.661	1.433	1.440	1.347	1.267	1.246	1.131	1.031	0.960	0.800	0.776	0.677	0.569	0.495	0.493	0.389	0.431	0.355	0.429	0.371	0.387	0.416	0.374	0.367	0.960	2.139	4.253	6.451	7.424	3.573	0.997	0.272	0.245	0.284	0.262	0.281	0.244	0.268	0.247	0.245	0.249	0.242	0.260	0.219	0.238	0.236	0.257	0.248	0.220	0.236	0.263	0.248	0.228	0.273
240.0	74.60	85.71	344.1	1890	2598	451.0	28.19	7.153	5.781	5.962	4.850	5.191	4.609	4.290	3.572	2.772	2.465	2.134	1.814	1.749	1.720	2.160	1.823	1.844	1.640	1.361	1.418	1.344	1.289	1.083	1.089	0.968	0.781	0.764	0.636	0.662	0.474	0.497	0.419	0.404	0.388	0.433	0.374	0.387	0.376	0.426	0.375	0.459	0.672	1.380	3.461	9.347	11.90	8.950	3.169	0.614	0.266	0.288	0.265	0.238	0.256	0.257	0.271	0.237	0.276	0.216	0.218	0.272	0.260	0.270	0.266	0.228	0.225	0.230	0.296	0.264	0.282
245.0	66.56	113.6	121.3	622.7	2741	2718	333.3	15.02	7.243	5.997	5.910	5.270	4.433	4.018	3.980	3.483	2.155	2.125	1.922	1.884	1.812	1.821	1.707	1.778	1.452	1.637	1.304	1.301	1.350	1.118	1.151	0.856	0.736	0.755	0.639	0.574	0.498	0.485	0.504	0.490	0.394	0.362	0.342	0.404	0.372	0.386	0.432	0.613	0.408	0.502	0.967	3.097	8.192	14.20	14.22	7.752	2.385	0.388	0.230	0.274	0.270	0.262	0.252	0.252	0.299	0.235	0.260	0.245	0.275	0.233	0.283	0.214	0.231	0.232	0.271	0.253	0.236
250.0	41.01	86.85	150.7	203.7	857.4	2615	3318	1128	66.69	7.970	7.340	6.104	5.064	4.378	3.640	3.184	2.576	2.293	2.121	1.955	1.951	1.759	1.762	1.743	1.591	1.662	1.308	1.385	1.314	1.139	1.020	0.961	0.777	0.736	0.679	0.635	0.527	0.500	0.472	0.459	0.387	0.403	0.360	0.316	0.344	0.337	0.379	0.593	0.606	0.576	0.523	0.986	2.165	4.645	8.458	13.10	16.72	14.73	8.122	2.420	0.445	0.285	0.261	0.301	0.281	0.257	0.255	0.250	0.276	0.259	0.315	0.262	0.252	0.270	0.277	0.269	0.268
255.0	32.89	39.59	108.8	221.2	263.3	662.8	2577	5029	1515	57.75	9.426	7.339	6.253	5.048	3.934	3.411	2.797	2.500	2.110	1.924	2.072	1.914	1.736	1.771	1.638	1.754	1.361	1.480	1.422	1.207	1.171	0.959	0.847	0.860	0.743	0.596	0.609	0.528	0.389	0.428	0.365	0.388	0.368	0.320	0.421	0.329	0.323	0.389	0.414	0.614	0.742	1.042	0.895	1.315	2.128	3.357	6.326	14.40	26.23	25.35	12.47	2.453	0.361	0.326	0.291	0.276	0.280	0.262	0.282	0.267	0.273	0.279	0.243	0.257	0.278	0.251	0.284
260.0	34.11	30.12	48.85	194.3	235.4	199.0	785.8	4170	5368	270.9	26.19	8.808	7.098	5.282	4.116	3.791	2.818	2.560	2.166	2.270	2.217	1.849	2.015	1.800	1.601	1.609	1.367	1.436	1.503	1.209	1.217	0.984	0.908	0.767	0.711	0.613	0.584	0.531	0.404	0.386	0.428	0.391	0.407	0.362	0.357	0.402	0.336	0.338	0.365	0.358	0.560	1.109	1.149	0.953	0.796	1.060	1.685	4.122	11.68	24.25	32.25	23.41	9.336	1.226	0.354	0.327	0.314	0.263	0.290	0.249	0.332	0.263	0.270	0.274	0.245	0.239	0.284
265.0	35.19	29.58	28.97	97.77	271.0	198.4	218.4	1407	5808	4953	211.9	13.50	7.637	6.488	5.111	3.935	3.361	2.908	2.647	2.218	2.295	1.982	2.002	1.779	1.787	1.631	1.444	1.642	1.359	1.320	1.266	1.046	0.856	0.829	0.702	0.570	0.503	0.548	0.428	0.404	0.412	0.413	0.455	0.407	0.364	0.449	0.393	0.330	0.345	0.263	0.357	0.680	1.155	1.556	1.217	0.671	0.711	1.227	3.043	7.369	18.46	34.51	32.34	20.07	4.862	0.562	0.373	0.357	0.340	0.300	0.343	0.266	0.294	0.284	0.298	0.245	0.283
270.0	41.72	39.95	32.90	50.31	148.7	306.1	230.0	373.4	1897	5374	4887	798.4	41.81	8.925	6.202	4.957	3.959	3.230	2.732	2.414	2.316	2.130	2.125	1.874	1.826	1.608	1.567	1.389	1.359	1.290	1.154	1.039	0.940	0.917	0.740	0.633	0.542	0.557	0.479	0.441	0.435	0.443	0.452	0.391	0.482	0.459	0.372	0.356	0.308	0.292	0.335	0.437	0.609	1.023	1.430	1.614	1.424	0.959	1.078	2.066	4.670	10.23	18.31	29.80	31.96	30.50	13.99	4.359	0.628	0.372	0.354	0.289	0.317	0.305	0.293	0.344	0.265
275.0	76.29	72.32	68.12	62.77	84.76	184.7	406.8	278.6	485.8	1398	4846	8405	1045	31.34	8.451	6.140	4.516	3.460	3.501	2.888	2.384	2.103	2.119	1.947	1.959	1.792	1.658	1.499	1.513	1.367	1.232	1.253	0.952	0.914	0.911	0.758	0.608	0.631	0.488	0.493	0.490	0.460	0.448	0.371	0.530	0.482	0.473	0.459	0.408	0.411	0.344	0.423	0.448	0.616	0.707	1.180	1.872	2.371	1.698	1.090	1.527	2.731	4.609	7.241	10.88	24.90	45.53	32.69	21.16	4.625	0.510	0.399	0.368	0.324	0.323	0.342	0.290
280.0	115.8	132.6	121.4	104.1	92.88	131.1	318.7	417.0	258.9	421.2	1578	7672	7453	146.4	15.94	7.317	5.235	4.057	3.621	3.381	2.708	2.500	2.241	2.107	2.071	1.799	1.769	1.690	1.647	1.387	1.304	1.169	0.982	0.968	0.981	0.889	0.691	0.785	0.659	0.595	0.523	0.473	0.494	0.551	0.592	0.552	0.600	0.574	0.557	0.533	0.397	0.494	0.562	0.587	0.634	0.825	1.176	1.892	2.698	2.264	1.378	1.241	1.713	2.342	3.235	6.958	17.98	36.05	55.38	31.25	14.66	2.172	0.475	0.364	0.334	0.323	0.296
285.0	170.8	217.2	204.9	148.2	128.1	144.9	215.8	460.4	354.1	274.7	542.2	2704	9086	5592	106.1	10.49	6.502	4.748	3.913	3.447	3.123	2.624	2.436	2.121	2.278	2.164	1.828	1.583	1.627	1.390	1.289	1.186	0.962	0.991	1.022	0.954	0.754	0.681	0.740	0.623	0.563	0.567	0.505	0.655	0.615	0.635	0.764	0.814	0.736	0.671	0.606	0.637	0.651	0.796	0.787	0.803	0.881	1.266	1.911	2.965	2.922	1.726	1.434	1.530	1.710	2.487	5.023	10.47	26.18	46.09	55.72	27.24	8.647	0.900	0.399	0.386	0.360
290.0	240.2	318.4	322.5	246.3	186.4	193.9	216.3	319.6	549.7	582.2	472.0	919.2	3068	6758	5607	428.4	22.59	6.826	4.824	4.083	3.516	3.170	2.704	2.522	2.230	2.026	1.762	1.762	1.662	1.615	1.389	1.303	1.100	1.151	1.117	1.048	1.006	0.790	0.753	0.680	0.665	0.616	0.623	0.720	0.708	0.888	0.898	1.077	1.080	0.909	0.866	0.931	0.882	0.936	0.910	1.038	1.092	1.188	1.416	1.727	2.430	3.103	3.338	3.021	2.200	2.170	2.795	3.804	7.446	13.44	24.00	34.45	34.45	37.96	17.80	7.487	1.046
295.0	317.3	427.5	457.6	347.0	265.2	257.6	272.7	321.8	458.9	817.9	843.0	694.0	1060	1879	5197	6415	576.2	18.11	6.752	4.806	3.935	3.393	3.166	2.480	2.593	2.238	2.161	1.923	1.702	1.647	1.460	1.339	1.131	1.180	1.122	1.118	1.057	0.948	0.728	0.728	0.673	0.696	0.654	0.719	0.798	0.981	1.133	1.344	1.397	1.128	1.225	1.237	1.035	1.103	1.243	1.278	1.363	1.568	1.516	1.551	1.645	2.362	2.999	4.454	4.844	4.066	3.110	3.176	3.810	4.902	7.054	9.005	10.66	23.36	44.71	56.83	27.17
300.0	349.0	486.5	555.1	424.5	344.1	339.5	374.3	408.7	521.4	799.3	1233	957.7	800.0	779.0	1710	6732	5282	84.45	11.64	6.264	4.743	4.049	3.336	3.176	2.737	2.452	2.147	1.977	1.806	1.792	1.593	1.442	1.084	1.257	1.088	1.089	1.100	0.875	0.775	0.860	0.675	0.749	0.670	0.706	0.840	1.038	1.256	1.627	1.604	1.442	1.430	1.541	1.458	1.416	1.369	1.492	1.735	1.829	2.001	1.970	2.095	2.536	3.061	4.034	5.398	6.112	5.464	3.846	3.945	3.880	3.911	3.968	4.073	6.701	15.35	35.16	56.32
305.0	387.8	578.3	640.0	534.5	424.0	430.8	497.9	593.2	753.0	987.8	1399	1574	1084	785.1	800.5	2508	7649	3998	64.83	8.971	5.677	4.636	3.766	3.517	2.788	2.488	2.411	1.940	1.939	1.875	1.656	1.488	1.153	1.258	1.149	1.122	1.006	0.994	0.858	0.856	0.690	0.698	0.705	0.835	0.940	1.193	1.317	1.749	1.991	1.761	1.598	1.984	1.773	1.704	1.567	1.918	2.174	2.654	2.662	3.051	3.193	3.564	3.858	4.756	5.185	6.287	7.979	7.164	5.933	4.961	4.502	4.189	3.714	4.047	5.576	10.26	23.17
310.0	427.4	651.7	761.0	636.1	517.7	546.3	645.2	776.7	955.3	1197	1501	1820	1655	1097	803.5	965.1	2766	5525	4600	290.3	16.08	6.318	4.594	3.880	3.162	2.868	2.420	2.359	2.143	1.880	1.701	1.508	1.232	1.278	1.106	1.128	1.015	0.970	0.900	0.834	0.794	0.807	0.873	0.914	1.066	1.261	1.575	1.956	2.157	2.130	1.851	2.263	2.033	2.016	2.102	2.363	2.739	3.165	3.328	3.581	4.014	4.537	4.898	5.635	6.190	6.546	7.680	8.209	8.485	8.153	6.657	5.423	4.671	4.598	4.133	4.649	7.476
315.0	520.2	834.8	923.1	740.4	639.0	635.8	752.4	916.0	1095	1366	1631	1820	1886	1607	1021	760.6	1046	1575	4354	4488	416.2	13.73	6.224	4.787	3.879	3.212	2.633	2.495	2.274	1.852	1.986	1.654	1.551	1.263	1.251	1.074	1.043	0.975	0.948	0.789	0.752	0.825	0.794	0.922	1.173	1.441	1.775	2.400	2.595	2.503	2.118	2.587	2.474	2.478	2.399	2.603	3.083	3.577	3.821	3.832	4.531	5.226	5.668	6.272	7.071	7.573	7.852	8.163	8.467	8.518	9.026	8.232	6.757	5.557	4.945	4.185	4.501
320.0	728.7	1193	1291	960.1	748.2	726.8	855.9	1033	1239	1555	1834	2042	2025	1962	1431	901.4	791.1	660.5	1383	5282	3902	63.42	11.05	6.719	4.628	3.717	3.318	2.804	2.296	2.043	2.338	1.797	1.495	1.407	1.332	1.021	1.145	1.224	0.950	0.873	0.922	0.841	0.923	1.101	1.417	1.896	2.589	3.566	3.610	3.305	2.932	3.033	2.866	2.982	2.879	3.072	3.505	4.210	4.187	4.494	5.090	5.877	6.570	6.973	7.877	8.125	8.719	8.914	9.175	9.106	9.452	9.478	9.094	7.917	6.030	5.295	4.824
325.0	1057	1924	2341	1710	1071	882.6	1006	1195	1415	1759	2118	2347	2303	2146	1877	1190	853.7	553.5	522.7	1912	5785	3064	51.56	9.751	5.631	4.230	3.499	3.057	2.639	2.621	2.388	1.617	1.579	1.534	1.285	1.257	1.216	1.058	0.958	0.899	0.929	0.893	1.126	1.311	2.031	2.811	3.936	5.607	6.001	5.656	4.879	4.880	3.876	3.715	3.414	3.464	4.078	4.457	4.986	5.204	5.775	6.260	7.380	8.421	8.580	9.336	9.678	9.976	10.40	10.43	10.42	10.28	10.92	10.39	8.653	6.674	6.112
330.0	1449	2959	3992	3216	1921	1278	1225	1398	1668	2038	2451	2730	2715	2479	2148	1691	1156	700.0	492.0	702.8	2071	4311	3723	239.1	19.33	6.596	4.516	3.468	3.116	2.630	2.498	2.115	1.829	1.565	1.410	1.219	1.277	1.151	1.066	1.018	1.030	1.100	1.429	1.769	2.729	4.142	5.655	8.706	9.975	9.682	8.722	8.651	6.675	5.530	4.648	4.539	5.096	5.212	5.758	6.313	6.686	7.364	8.388	9.197	10.03	10.78	11.33	12.20	11.98	12.21	12.13	11.85	11.70	11.22	10.62	10.21	8.775
335.0	1765	3602	5139	4553	2897	1816	1468	1622	1881	2268	2723	3012	3048	2799	2401	1961	1612	1038	691.8	656.3	873.6	1381	3714	3624	363.3	18.03	6.869	4.390	3.642	3.283	2.634	2.097	2.023	1.827	1.577	1.148	1.243	1.274	1.234	1.208	1.213	1.326	1.535	1.923	3.163	5.122	6.931	10.58	12.64	12.54	12.21	12.37	10.20	8.478	7.083	6.025	6.376	5.807	6.632	7.084	7.594	8.020	9.059	9.892	10.76	12.10	12.55	12.72	13.03	13.37	13.67	13.55	13.16	12.07	11.73	10.89	10.49
340.0	2006	4042	5736	5151	3436	2140	1673	1732	1990	2401	2847	3162	3199	2977	2574	2081	1770	1341	906.3	770.6	724.4	738.9	1426	4419	3290	56.99	12.18	5.731	4.016	3.547	3.082	2.480	1.996	1.918	1.720	1.519	1.452	1.222	1.104	1.217	1.392	1.368	1.791	2.239	3.391	5.512	8.137	11.25	14.05	14.13	13.86	14.70	12.17	10.29	7.953	6.864	6.859	6.502	7.433	7.551	7.916	8.448	9.469	10.80	11.63	12.22	13.12	13.53	13.56	14.42	14.49	14.28	13.99	13.37	12.81	11.57	10.60
345.0	2024	4146	5918	5463	3671	2304	1779	1799	2069	2436	2870	3180	3228	3038	2644	2164	1774	1512	1122	889.2	771.7	686.1	756.2	1748	4812	2715	49.02	9.195	5.662	3.922	3.161	2.548	2.173	1.910	1.587	1.427	1.464	1.298	1.124	1.314	1.165	1.467	1.681	2.394	3.520	5.240	8.097	11.96	14.96	14.77	14.42	15.20	13.22	10.76	8.799	7.152	7.239	6.996	7.492	7.813	8.253	8.897	10.14	10.70	12.04	12.47	12.73	12.88	13.74	14.70	14.56	14.35	14.36	13.86	13.27	11.98	11.17
350.0	1884	3761	5698	5382	3767	2455	1900	1885	2103	2428	2781	3049	3119	2973	2640	2211	1830	1553	1365	1134	933.9	808.3	723.8	789.3	1763	3430	3046	217.0	17.22	5.564	3.757	2.883	2.304	2.027	1.726	1.557	1.311	1.292	1.212	1.199	1.226	1.342	1.623	2.338	3.407	5.110	7.540	11.04	13.69	13.68	14.14	15.27	13.33	11.29	9.511	7.791	7.783	7.385	7.826	8.000	8.452	9.133	10.08	10.86	11.44	11.91	12.48	13.12	13.47	14.22	14.34	14.17	13.80	14.05	13.06	12.47	11.97
355.0	1691	3462	5149	5009	3745	2561	2014	1980	2133	2417	2678	2929	2966	2848	2589	2256	1915	1647	1480	1425	1190	995.2	847.3	687.2	736.3	1022	2585	3240	341.1	17.66	5.950	3.660	2.668	2.152	1.975	1.559	1.412	1.279	1.235	1.190	1.179	1.366	1.590	2.098	3.208	4.652	6.596	9.922	12.49	12.52	13.19	14.94	12.97	11.47	9.765	8.203	8.265	7.962	7.691	7.982	8.739	9.351	9.990	10.53	11.18	11.44	12.04	12.02	12.66	13.50	13.73	13.31	13.59	13.52	13.02	12.74	12.38
360.0	1583	3171	4694	4727	3648	2594	2088	2035	2180	2415	2634	2819	2870	2768	2554	2263	1988	1757	1593	1540	1435	1180	983.5	768.6	588.9	512.2	852.0	3174	3029	280.3	11.37	5.441	3.547	2.505	1.903	1.709	1.400	1.357	1.285	1.233	1.202	1.428	1.640	2.138	2.998	4.066	6.010	9.133	11.21	11.97	12.29	14.38	12.74	11.75	9.685	8.429	8.340	8.301	8.490	8.479	8.702	9.266	9.775	10.64	11.03	11.38	11.47	11.97	12.74	12.72	13.12	13.42	13.15	13.42	13.01	12.54	12.44
365.0	1475	2859	4285	4369	3583	2654	2176	2155	2260	2449	2609	2721	2772	2698	2516	2290	2068	1883	1735	1646	1603	1423	1156	907.5	694.4	495.9	420.5	1115	3677	2653	47.82	9.296	5.041	3.152	2.314	1.897	1.554	1.574	1.225	1.316	1.250	1.397	1.538	1.992	2.748	3.871	5.505	8.225	10.27	11.07	11.47	13.68	12.37	11.84	9.502	8.589	8.834	8.528	8.924	9.139	8.919	9.863	10.25	10.52	11.09	10.97	11.12	11.84	12.04	12.36	12.48	12.87	13.11	12.92	12.77	12.53	12.38
370.0	1312	2546	3855	4093	3504	2728	2348	2305	2383	2537	2610	2639	2668	2624	2478	2314	2159	2038	1937	1861	1784	1695	1471	1162	908.0	665.0	456.9	508.9	1254	2787	2753	683.2	18.17	5.793	3.441	2.327	1.891	1.567	1.358	1.325	1.214	1.363	1.540	1.793	2.603	3.622	5.005	7.496	9.231	9.837	10.50	12.63	12.05	11.23	10.22	9.363	9.452	9.247	9.240	9.693	9.559	10.13	10.69	10.86	11.17	10.67	11.18	11.17	11.85	11.93	12.23	12.66	12.79	13.10	12.59	12.51	12.95
375.0	1216	2307	3453	3789	3391	2798	2444	2424	2491	2578	2590	2572	2587	2549	2437	2310	2220	2149	2105	2061	1987	1877	1745	1472	1154	886.8	649.9	499.9	565.4	840.3	2048	3036	324.3	20.72	6.418	3.795	2.537	1.910	1.567	1.465	1.305	1.505	1.555	1.841	2.390	3.397	4.753	6.924	8.295	8.737	9.676	11.67	11.90	11.08	9.905	9.477	9.913	9.621	9.762	9.678	10.28	10.26	11.01	10.80	11.55	10.76	11.01	11.04	11.47	11.47	11.75	11.99	12.39	12.55	12.43	12.38	12.90
380.0	1150	2146	3185	3650	3299	2837	2544	2495	2546	2610	2575	2544	2559	2501	2409	2306	2243	2216	2193	2173	2112	2002	1879	1698	1383	1081	833.0	641.4	508.1	456.1	706.2	2494	2667	258.6	14.40	6.147	4.014	2.246	1.693	1.720	1.394	1.405	1.449	1.807	2.162	3.289	4.409	6.107	7.550	8.010	9.030	11.04	11.35	10.71	10.32	9.541	9.780	9.602	9.893	10.41	10.76	10.82	11.07	11.06	11.15	10.99	11.11	10.95	11.04	11.26	11.41	12.17	12.35	12.41	12.68	12.92	13.58
385.0	1115	2025	2967	3431	3293	2865	2630	2566	2591	2672	2601	2539	2556	2491	2418	2317	2264	2262	2269	2257	2219	2132	2013	1855	1620	1293	1020	810.5	633.1	472.1	413.2	874.8	2727	2238	42.03	13.62	6.749	3.902	2.094	1.739	1.482	1.536	1.717	1.868	2.269	3.244	4.084	5.888	7.386	7.642	8.695	10.60	10.89	10.80	9.989	9.966	10.29	9.870	10.12	10.30	10.89	10.48	11.24	11.68	11.04	11.07	10.79	10.91	11.10	11.08	11.51	12.18	12.29	12.28	12.49	12.75	12.73
390.0	1065	1971	2877	3332	3277	3017	2805	2747	2790	2862	2791	2718	2707	2655	2539	2399	2327	2334	2360	2398	2399	2353	2252	2097	1924	1664	1355	1122	910.6	701.7	526.1	485.9	943.2	1980	2041	597.7	23.90	10.65	4.620	2.601	1.799	1.701	1.731	1.988	2.401	3.110	4.027	5.904	6.936	7.494	8.520	10.63	10.99	11.09	10.26	10.51	11.02	10.77	10.89	10.98	11.43	11.33	11.92	11.76	11.77	10.99	10.97	11.04	11.39	11.74	12.03	11.82	12.43	12.76	12.82	12.79	13.30
395.0	1074	1935	2818	3262	3312	3218	3048	3059	3134	3262	3304	3253	3212	3103	2902	2642	2478	2454	2508	2567	2628	2648	2595	2485	2310	2124	1869	1578	1339	1092	854.1	645.3	544.3	713.5	1378	2403	285.1	33.36	12.60	4.993	2.543	2.184	2.021	2.020	2.529	3.095	4.180	5.803	6.478	7.428	8.241	10.71	11.14	11.77	11.34	11.25	11.94	11.53	11.85	11.50	11.99	12.79	12.82	12.75	12.56	12.32	12.04	12.14	12.85	12.91	13.26	12.89	13.36	13.56	13.97	13.30	13.88
400.0	1021	1845	2738	3295	3440	3374	3294	3338	3521	3742	3926	3971	3905	3713	3374	2960	2680	2606	2651	2748	2853	2917	2935	2869	2721	2538	2331	2060	1775	1505	1224	941.7	709.0	580.2	647.8	1751	2203	253.8	27.51	9.056	3.846	2.446	2.192	2.126	2.753	3.213	4.183	5.516	6.882	7.679	8.525	11.35	11.45	12.09	11.97	11.89	12.32	12.80	12.69	12.32	12.97	13.63	13.73	14.07	14.00	13.97	13.82	14.10	14.52	14.74	14.41	14.84	14.99	15.15	14.83	14.17	14.90
405.0	1053	1854	2711	3310	3544	3518	3541	3675	3945	4366	4693	4790	4715	4450	3949	3347	2902	2757	2801	2943	3093	3209	3287	3263	3157	2976	2785	2574	2252	1942	1629	1297	983.5	744.0	612.0	793.6	1921	1875	197.7	16.00	6.040	3.146	2.753	2.565	2.819	3.378	4.416	5.843	7.198	7.824	8.751	11.83	11.81	12.41	12.24	12.78	13.23	13.53	13.59	13.47	14.00	14.87	15.24	15.53	15.72	15.69	15.85	16.62	16.52	16.81	17.22	16.69	16.65	16.53	16.30	15.44	15.57
410.0	1042	1800	2667	3313	3594	3717	3853	4011	4422	4964	5433	5623	5511	5158	4519	3701	3112	2900	2935	3097	3289	3463	3603	3641	3568	3409	3215	3015	2752	2410	2061	1679	1298	990.3	770.3	644.3	798.7	1444	1589	519.4	17.69	5.368	3.392	3.027	3.139	3.583	4.539	5.975	7.246	7.756	8.747	11.77	12.03	12.79	13.24	13.05	14.36	14.33	14.28	14.82	14.90	15.60	16.53	17.09	17.47	17.31	17.33	18.30	18.60	18.51	18.79	18.79	18.65	18.47	17.74	16.42	16.04
415.0	1019	1737	2582	3231	3616	3792	3968	4172	4575	5158	5706	5916	5791	5440	4695	3808	3150	2875	2923	3090	3305	3514	3663	3736	3706	3573	3383	3168	2943	2661	2274	1858	1460	1127	866.2	660.0	514.8	506.0	856.5	1768	260.4	19.14	4.788	3.619	3.307	3.634	4.564	6.102	7.161	7.622	8.627	11.39	12.26	13.26	13.46	13.14	14.65	14.94	15.06	15.19	15.60	16.04	17.25	17.47	17.85	17.42	17.79	18.29	18.50	18.87	19.61	18.97	19.36	18.18	17.69	16.66	16.24
420.0	1004	1677	2518	3150	3553	3806	4011	4221	4561	5135	5676	5896	5774	5396	4688	3757	3082	2806	2861	3014	3224	3444	3609	3695	3662	3557	3377	3178	2955	2706	2341	1914	1507	1172	903.7	671.2	462.3	301.7	295.5	1052	1576	226.6	12.02	4.384	3.916	4.120	4.474	5.795	7.043	7.623	8.326	11.05	12.44	12.42	13.12	13.18	14.41	15.41	15.35	15.23	15.20	16.10	16.74	17.04	17.70	17.14	17.82	17.93	18.14	18.69	18.93	18.82	18.26	17.62	17.44	16.37	15.42
425.0	962.6	1647	2432	3126	3529	3850	4066	4272	4569	5128	5619	5857	5738	5365	4626	3707	3044	2763	2791	2937	3128	3349	3519	3626	3611	3513	3356	3169	2949	2715	2393	1974	1545	1215	944.2	705.1	472.1	275.2	171.7	323.4	1165	1388	172.2	7.427	4.376	4.345	4.820	5.793	6.798	7.338	8.325	11.10	11.95	12.96	13.19	13.62	14.90	15.50	15.77	15.69	16.14	16.15	16.51	17.03	17.24	17.54	18.44	17.61	18.00	18.78	17.87	18.70	18.69	17.94	17.13	15.89	15.46
430.0	1022	1583	2393	3086	3574	3936	4222	4410	4701	5181	5668	5919	5785	5398	4645	3718	3021	2731	2747	2879	3055	3268	3457	3568	3572	3490	3365	3199	2997	2762	2461	2088	1658	1306	1031	777.4	527.0	308.1	173.4	148.0	340.8	916.8	1191	431.0	15.29	5.484	5.109	5.966	7.045	7.167	8.104	10.96	11.90	13.05	13.42	13.90	15.62	15.88	16.16	15.94	16.02	16.18	16.54	17.49	17.69	17.39	18.02	17.44	18.17	18.53	18.72	18.31	18.33	17.90	16.51	16.00	15.42
435.0	1152	1557	2351	3101	3630	4067	4430	4616	4795	5172	5646	5867	5746	5349	4599	3697	2991	2699	2699	2802	2951	3156	3341	3469	3478	3419	3318	3168	2996	2778	2483	2133	1757	1385	1101	843.0	586.3	354.1	203.9	133.1	138.0	248.3	582.3	1415	245.9	19.19	6.385	6.391	7.016	7.336	8.309	11.18	12.38	13.62	14.22	14.53	16.06	16.57	16.68	16.76	17.23	16.47	17.14	16.95	17.28	17.29	17.57	17.98	18.19	18.52	18.47	17.80	17.49	17.27	16.56	15.47	15.01
440.0	1323	1631	2332	3056	3632	4130	4524	4695	4776	5014	5449	5676	5551	5160	4438	3583	2913	2617	2617	2707	2819	3010	3172	3299	3337	3285	3187	3061	2905	2709	2435	2108	1749	1414	1119	861.8	605.7	382.7	228.1	144.4	106.8	107.3	173.1	820.1	1372	214.2	12.52	7.337	7.217	7.334	8.463	11.44	12.18	13.61	13.97	15.24	16.70	16.77	17.22	16.65	16.87	16.60	16.65	16.18	16.99	16.74	16.84	17.42	17.31	18.38	17.20	17.45	17.21	17.02	15.97	15.21	14.66
445.0	1364	1752	2240	2984	3615	4140	4573	4703	4652	4840	5168	5322	5205	4856	4185	3404	2774	2505	2498	2566	2644	2816	2973	3094	3121	3077	2998	2885	2754	2578	2325	2016	1683	1391	1104	854.5	605.5	393.7	247.8	161.4	111.7	84.75	80.65	238.9	1010	1246	151.4	9.649	7.642	7.199	8.159	10.65	12.09	13.23	14.28	15.16	16.82	17.47	17.75	16.73	17.03	16.27	15.93	15.54	16.20	15.93	15.86	16.60	15.95	16.92	16.20	16.84	16.70	16.55	14.85	14.42	14.22
450.0	1099	2125	2254	2836	3474	4050	4465	4549	4393	4416	4652	4779	4674	4355	3768	3099	2556	2324	2306	2340	2381	2507	2642	2759	2783	2752	2690	2601	2493	2337	2131	1852	1546	1286	1055	821.6	598.4	400.5	264.4	183.2	130.8	96.07	72.54	91.06	283.2	811.2	1080	382.0	15.60	7.948	8.110	10.36	11.72	13.04	14.21	14.79	16.52	17.10	17.23	16.75	16.25	15.60	15.02	14.39	14.89	14.45	14.68	14.96	15.06	14.88	15.14	14.92	14.99	14.90	13.98	13.64	13.21
455.0	823.8	2127	2636	2681	3290	3900	4271	4336	4064	3981	4127	4231	4125	3844	3348	2777	2317	2114	2079	2083	2109	2199	2316	2410	2443	2419	2371	2307	2216	2101	1924	1683	1418	1182	986.6	794.0	587.8	402.6	278.6	202.4	150.7	110.5	82.67	68.80	97.86	208.5	489.7	1180	204.4	16.76	8.397	10.13	10.83	12.49	13.00	14.21	15.94	16.49	16.38	16.62	15.31	14.88	13.93	13.29	13.40	12.97	14.09	13.31	13.47	13.79	13.60	13.22	13.43	13.91	12.43	12.21	12.47
460.0	705.6	1747	3029	2679	3125	3715	4096	4110	3830	3665	3796	3862	3768	3495	3054	2533	2142	1950	1917	1911	1914	1988	2081	2178	2212	2193	2147	2094	2023	1921	1778	1565	1323	1108	925.8	762.0	577.5	404.0	286.5	213.5	162.3	123.1	91.71	69.60	61.90	76.01	138.4	653.0	1085	164.2	13.24	10.46	10.91	12.24	12.75	13.77	15.35	15.80	15.58	15.63	14.08	13.89	13.08	12.67	12.19	11.36	12.45	12.11	12.24	12.44	12.52	12.19	12.50	12.72	11.98	11.27	11.25
465.0	686.2	1344	3031	2914	2969	3518	3869	3898	3605	3392	3456	3509	3432	3186	2798	2329	1967	1801	1769	1749	1741	1791	1884	1962	1998	1990	1951	1912	1858	1764	1639	1455	1241	1040	869.1	717.9	565.5	404.8	289.0	218.8	168.1	130.5	99.23	75.90	59.27	50.91	56.94	185.8	799.0	936.9	133.3	12.34	10.96	11.66	12.56	12.91	14.64	15.17	15.02	14.83	13.43	12.97	11.93	11.93	10.96	11.78	11.24	11.06	11.54	11.35	11.40	11.56	11.38	11.21	11.04	10.20	10.29
470.0	605.2	1079	2268	3454	2857	3179	3506	3518	3187	2991	2998	3048	2980	2767	2424	2042	1730	1590	1557	1528	1505	1540	1618	1688	1717	1715	1687	1653	1611	1545	1435	1281	1101	933.7	786.3	650.6	521.2	393.8	289.1	220.2	173.0	136.5	107.3	83.58	64.89	51.00	43.34	65.87	221.3	599.1	756.3	298.8	17.16	11.62	11.84	11.84	13.50	13.80	13.91	12.94	12.49	11.81	10.92	10.55	9.939	10.07	9.734	9.969	9.999	10.31	10.01	10.17	10.23	9.907	9.852	9.339	9.426
475.0	560.4	940.2	1576	3220	3302	2838	3107	3096	2781	2580	2580	2596	2526	2342	2053	1749	1489	1377	1336	1303	1278	1294	1358	1421	1433	1438	1420	1401	1368	1321	1228	1104	957.5	824.4	692.1	581.5	467.1	362.7	287.4	223.6	173.8	139.7	111.9	88.31	70.54	55.66	46.20	42.73	70.70	151.1	325.5	800.8	200.9	20.06	11.27	11.02	11.86	12.70	12.36	11.70	10.85	10.26	9.805	9.254	8.384	8.401	8.423	8.693	8.560	8.806	8.764	8.613	9.043	8.505	8.556	8.366	8.171
480.0	508.0	881.4	1285	2487	3765	2713	2828	2815	2521	2318	2273	2303	2230	2070	1821	1555	1335	1235	1196	1166	1127	1145	1195	1246	1265	1264	1246	1236	1207	1170	1095	983.3	859.2	742.1	631.3	531.9	428.9	338.5	278.1	223.5	176.0	142.0	115.5	92.52	74.94	60.32	48.82	40.12	40.15	52.83	91.98	425.5	787.9	179.5	14.88	11.10	11.10	11.88	11.76	10.86	10.24	9.561	8.990	8.255	7.588	7.652	7.538	7.881	8.112	7.734	8.039	8.024	8.212	7.484	7.927	7.485	7.447
485.0	471.9	826.8	1177	1852	3746	2973	2605	2581	2298	2101	2051	2065	1983	1852	1640	1402	1211	1126	1088	1054	1018	1020	1067	1112	1127	1124	1112	1100	1083	1047	988.5	887.5	784.5	675.3	582.0	491.8	401.0	320.6	263.1	220.9	178.0	141.6	118.2	95.40	79.82	64.54	52.83	43.46	36.30	33.70	38.60	122.7	563.6	743.9	127.8	11.93	11.09	11.58	10.70	9.911	9.290	8.733	8.568	7.454	7.284	7.141	6.843	7.184	7.085	6.970	7.124	7.402	7.185	7.257	7.212	6.753	6.637
490.0	391.5	739.7	1047	1475	2730	3590	2498	2284	2051	1843	1798	1794	1725	1620	1434	1224	1064	985.5	953.8	921.9	888.8	885.2	927.0	962.4	982.1	979.2	967.0	953.3	938.2	915.8	865.4	784.2	695.9	604.6	523.5	446.5	369.7	300.6	245.4	212.8	180.9	147.3	119.5	99.85	84.37	70.54	58.87	49.27	39.67	34.05	30.51	45.85	159.0	455.7	649.8	272.1	18.53	10.91	9.911	8.950	8.366	7.913	7.288	6.714	6.314	6.371	6.236	6.397	6.482	6.365	6.268	6.493	6.278	6.375	6.250	5.983	6.119
495.0	348.7	643.4	947.6	1263	1825	3367	2874	1998	1802	1612	1572	1560	1496	1393	1235	1056	921.1	850.2	823.8	793.5	761.6	760.7	790.6	819.2	839.9	840.7	824.5	814.8	803.4	788.4	749.2	677.4	604.2	532.9	465.7	399.0	335.0	277.5	230.4	198.0	173.2	150.4	122.9	102.6	87.00	75.39	64.15	55.56	44.88	38.31	32.14	31.98	53.84	118.5	309.4	763.2	223.3	20.38	9.547	8.739	7.717	7.042	6.827	5.983	5.595	5.765	5.284	5.838	5.776	5.520	5.765	5.639	5.642	5.504	5.401	5.069	5.260
500.0	308.5	571.9	873.2	1122	1452	2537	3416	1868	1610	1445	1402	1377	1326	1222	1094	938.8	821.3	753.3	729.6	702.7	669.8	670.5	694.0	721.7	736.4	735.6	728.5	717.6	706.9	694.9	662.5	606.2	541.0	480.6	420.9	364.6	309.1	256.6	217.3	185.5	163.8	148.2	125.8	102.6	88.77	78.20	66.97	57.00	48.19	40.64	35.12	31.30	33.37	44.11	87.92	401.9	757.8	188.5	13.35	8.547	7.268	6.194	6.198	5.170	5.055	5.119	4.797	5.136	5.111	4.960	5.116	5.146	5.230	4.883	4.690	4.463	4.682
505.0	286.4	497.5	802.1	1012	1251	1803	3433	2056	1426	1277	1255	1235	1180	1095	969.8	839.0	733.0	676.2	646.1	621.5	592.7	593.3	618.9	635.2	649.9	652.1	644.7	637.4	627.6	618.8	590.4	542.8	487.2	432.6	380.5	332.0	283.7	238.2	205.4	175.0	155.0	138.9	125.6	104.6	88.63	78.82	68.88	58.95	50.58	43.81	37.53	32.91	30.03	28.62	36.03	114.6	508.4	691.5	33.21	9.585	7.074	6.342	5.539	5.266	4.748	4.560	4.571	4.648	4.550	4.694	4.608	4.645	4.439	4.480	4.419	4.295	4.018
510.0	246.3	432.9	675.8	908.1	1071	1330	2435	2767	1321	1113	1074	1062	1012	933.5	823.2	709.8	623.5	576.4	549.9	528.0	503.0	500.2	519.5	535.1	547.9	548.1	541.2	534.3	529.9	519.8	498.9	461.5	416.5	372.3	330.0	287.8	248.7	213.1	184.5	160.4	142.0	125.5	118.0	103.4	88.38	77.15	68.90	60.20	52.09	45.24	39.82	34.64	30.53	27.38	26.28	41.06	140.9	402.8	524.2	133.8	14.64	5.600	5.035	4.708	4.229	4.053	4.028	4.108	4.102	4.181	4.044	4.145	4.021	3.909	3.848	3.654	3.593
515.0	217.3	366.1	562.3	786.4	929.1	1054	1459	2816	1712	945.7	904.2	899.9	855.9	771.6	683.6	592.3	524.4	479.4	464.8	441.3	421.2	415.1	431.0	442.7	455.1	454.6	449.2	440.4	436.7	432.8	412.7	387.4	349.9	312.0	281.0	245.2	217.5	187.3	162.4	144.1	127.6	114.2	103.4	97.18	87.47	76.37	66.49	59.46	52.24	46.06	40.61	35.38	31.35	28.06	24.55	25.06	45.20	101.2	227.3	556.4	213.2	15.37	4.827	4.244	3.563	3.683	3.583	3.557	3.484	3.585	3.594	3.309	3.375	3.179	3.244	3.145	3.223
520.0	177.9	311.6	468.5	678.5	825.0	909.1	1070	2054	2373	888.5	797.2	777.7	740.9	672.3	592.3	518.3	452.9	422.2	403.4	383.4	364.3	360.4	372.5	384.6	390.8	393.7	387.0	382.3	374.5	374.8	357.7	339.2	301.8	274.1	247.8	217.2	192.7	169.4	148.5	132.6	118.7	105.8	95.31	89.11	84.87	75.87	64.86	57.44	51.12	45.37	40.30	35.99	31.02	28.30	24.11	21.80	23.06	33.43	62.15	285.2	560.2	172.2	8.874	3.979	3.492	3.472	3.109	3.209	3.187	2.893	3.137	3.298	2.995	2.941	2.940	2.779	2.742
525.0	158.2	295.1	429.7	587.9	767.1	819.1	885.0	1299	2679	1085	705.5	691.1	652.7	587.4	517.9	456.1	397.3	371.4	357.5	335.2	320.8	317.0	325.7	339.1	342.0	344.7	335.5	333.7	327.9	329.1	314.6	297.1	267.0	243.4	219.0	197.4	173.0	152.6	135.6	121.5	109.6	98.22	90.09	82.70	78.39	74.82	64.05	55.82	49.42	43.85	39.41	35.40	31.15	26.41	23.23	21.29	18.72	18.81	22.85	77.76	346.1	505.8	32.51	5.064	3.352	3.338	2.925	3.054	2.975	2.758	2.911	2.794	2.697	2.819	2.548	2.605	2.624
530.0	146.4	247.8	367.4	499.5	646.7	700.0	732.2	841.1	1891	1933	684.6	583.8	553.9	500.6	438.5	380.9	337.9	312.1	300.0	283.6	270.9	266.8	274.6	281.2	286.0	288.9	281.6	278.1	274.9	273.5	264.1	247.9	227.5	205.1	187.5	169.1	150.3	133.4	119.9	107.3	98.52	88.51	80.55	74.39	69.29	67.29	61.59	53.53	46.52	41.35	37.38	33.34	29.31	26.04	22.70	20.37	17.23	14.88	13.93	24.17	91.31	272.9	372.7	130.8	12.15	3.117	2.873	2.816	2.638	2.530	2.420	2.502	2.382	2.343	2.157	2.226	2.153
535.0	133.8	212.2	303.4	405.3	514.8	607.8	610.4	628.6	914.4	2232	1057	492.8	464.2	414.5	361.8	320.1	279.7	260.5	247.5	236.9	224.8	221.4	224.3	231.9	235.8	236.5	232.5	227.6	225.6	227.0	220.4	204.8	189.9	171.5	156.8	142.0	127.9	114.6	103.8	93.81	86.10	78.86	71.30	66.48	62.39	59.05	56.71	51.02	43.06	38.08	35.23	30.90	26.86	24.57	21.37	18.89	16.07	13.88	11.19	12.38	25.84	65.48	144.7	387.6	201.3	13.50	3.116	2.378	2.112	2.263	2.095	2.043	2.113	2.108	1.854	1.862	1.861
540.0	106.0	176.7	267.9	337.7	425.1	530.0	538.4	525.0	564.1	1599	1756	465.8	398.6	355.9	315.0	273.6	240.8	223.6	212.6	203.2	194.0	189.7	192.2	198.0	203.0	204.6	199.4	194.0	194.0	192.5	188.0	177.5	162.8	149.1	135.4	123.9	111.5	100.7	90.98	83.81	76.92	70.95	65.15	60.39	56.23	52.07	51.10	47.73	41.06	35.77	32.27	28.59	26.19	22.87	20.51	18.20	15.07	12.70	10.73	9.650	11.16	19.02	37.23	181.3	404.1	151.9	7.054	2.166	2.189	2.038	1.970	1.888	2.010	1.804	1.635	1.601	1.677
545.0	105.6	166.2	240.4	300.6	369.4	458.6	485.8	449.6	436.1	859.5	2198	604.6	347.8	309.4	272.8	237.0	210.5	192.8	182.4	173.8	164.3	163.1	166.5	170.1	173.6	176.1	171.8	168.4	166.8	166.1	161.8	151.4	140.8	130.4	118.6	107.6	98.27	88.32	81.20	73.39	68.42	63.12	58.11	54.75	51.11	46.89	45.36	43.25	39.24	34.22	29.84	26.67	23.66	21.87	19.04	16.92	15.16	11.86	10.07	8.555	7.649	8.545	12.10	46.76	223.3	364.0	32.62	3.578	2.026	1.953	1.716	1.687	1.667	1.546	1.450	1.447	1.354
550.0	85.10	139.1	199.2	249.7	292.4	358.6	413.5	374.5	341.7	444.2	1477	1358	324.2	254.9	223.2	194.4	172.1	156.6	147.8	141.0	134.4	131.6	134.4	136.9	141.7	142.3	138.7	137.0	134.9	134.5	132.1	123.7	113.7	105.9	96.13	89.43	80.64	73.29	67.86	62.68	57.55	52.82	49.65	46.97	43.64	40.78	38.38	36.20	34.56	30.90	26.79	23.76	20.84	19.01	17.04	15.06	13.29	11.07	9.115	7.768	6.437	5.891	6.266	13.32	56.52	174.1	229.9	121.8	11.32	1.693	1.635	1.565	1.429	1.407	1.338	1.328	1.247
555.0	74.91	121.2	167.5	201.2	231.6	274.2	335.6	318.6	266.2	290.7	591.1	1766	564.7	203.4	177.0	151.6	136.8	123.9	115.9	112.4	105.7	102.9	105.4	107.8	112.5	111.0	109.6	107.7	105.8	104.1	104.0	98.14	90.07	83.98	76.79	72.94	65.94	59.28	55.43	50.38	47.20	43.27	40.96	38.75	36.84	34.02	31.89	29.71	28.04	26.84	24.19	20.52	17.96	16.23	14.23	12.80	11.07	9.791	8.620	7.126	5.579	5.147	4.615	5.664	15.03	40.81	82.93	246.2	163.0	12.24	1.501	1.402	1.289	1.127	1.069	1.237	0.967
560.0	75.32	101.6	135.5	169.2	196.5	221.3	261.4	290.8	232.0	225.4	298.1	1268	1140	186.5	144.7	127.6	113.2	103.4	95.98	93.57	87.58	84.95	88.16	89.40	91.38	90.09	90.79	87.54	87.90	85.41	85.91	81.24	74.12	69.00	64.16	60.04	54.42	50.01	45.73	42.69	39.32	37.09	35.01	32.52	30.92	28.57	27.40	25.13	23.45	22.83	21.20	18.32	15.78	14.65	12.26	11.30	10.16	8.667	7.745	6.505	5.014	4.491	3.853	3.807	5.642	11.12	20.87	101.0	250.7	115.5	6.153	1.223	1.048	1.036	0.993	0.914	0.925
565.0	70.82	97.74	124.4	144.4	167.0	179.6	215.0	256.7	211.3	190.9	211.0	606.0	1575	276.7	120.8	105.3	93.05	86.36	80.83	77.49	74.64	71.67	73.01	74.28	75.66	75.46	73.60	72.60	72.57	72.25	71.06	67.50	62.65	56.94	54.08	51.13	45.94	42.59	38.84	35.85	33.09	32.48	30.09	28.22	26.58	24.86	23.84	22.36	20.02	19.34	18.01	16.68	13.82	12.38	10.89	10.17	9.269	7.743	7.059	6.075	4.576	4.039	3.485	3.295	3.278	4.344	6.538	25.22	117.8	226.9	33.12	3.247	1.215	0.951	0.804	0.840	0.820
570.0	68.13	80.63	112.1	124.8	134.5	146.4	167.4	199.8	197.3	160.5	166.5	259.9	1087	865.4	117.2	84.28	73.09	68.38	64.05	61.09	58.44	57.07	57.33	59.13	59.27	59.33	57.25	56.50	56.76	56.79	55.81	53.63	49.50	45.70	42.92	40.53	36.65	33.54	31.33	28.74	27.46	26.16	24.64	23.03	21.74	20.22	19.29	18.13	16.73	15.38	14.55	13.77	12.15	10.54	9.138	8.492	7.673	6.719	5.825	4.972	4.596	3.778	3.254	2.908	2.608	2.664	3.016	6.988	28.91	94.58	146.0	86.16	10.70	0.998	0.823	0.817	0.765
575.0	60.07	80.13	93.08	108.7	108.3	120.1	132.7	142.3	180.5	144.6	138.1	154.0	386.0	1219	300.2	65.59	58.85	53.66	50.44	47.76	45.57	44.94	45.65	45.40	46.21	46.56	44.71	43.65	43.03	44.76	43.44	40.69	38.34	36.14	32.94	31.30	28.51	26.36	24.43	23.06	22.01	20.70	19.32	18.17	17.57	16.69	15.43	14.64	13.52	12.66	11.75	11.02	10.27	9.206	7.687	6.950	6.314	5.302	4.795	3.938	3.932	3.611	2.767	2.485	2.272	2.259	2.207	2.816	7.744	22.23	44.55	131.8	111.9	12.22	0.819	0.816	0.674
580.0	55.33	75.19	85.27	100.3	96.92	100.9	107.5	115.3	156.9	141.7	125.6	125.1	166.7	860.9	730.8	65.58	48.39	44.18	40.98	39.72	37.80	36.18	37.67	37.98	36.95	37.96	37.92	36.01	34.83	35.97	35.34	33.64	31.58	29.73	27.52	25.96	23.38	22.37	20.62	19.64	18.33	17.49	16.21	15.83	15.27	14.03	13.09	12.08	11.73	10.69	9.699	8.992	9.027	8.230	7.142	5.966	5.374	4.830	4.215	3.550	3.384	3.175	2.634	2.411	2.141	2.064	1.848	2.027	3.054	6.005	11.03	47.70	143.0	83.95	5.542	0.745	0.657
585.0	49.63	68.66	86.17	88.31	85.67	92.89	96.10	102.5	129.3	153.5	118.3	114.2	109.0	375.8	1049	107.2	41.42	36.86	34.20	34.34	32.22	30.08	31.17	33.40	31.35	31.73	31.97	29.89	29.76	30.34	29.76	28.47	26.58	24.43	23.31	21.75	20.09	19.04	17.35	16.40	15.24	14.50	14.04	13.54	13.02	11.95	11.76	10.38	9.689	9.122	8.174	7.599	7.513	7.310	6.731	5.688	4.831	4.347	3.908	3.234	2.872	2.699	2.814	2.356	2.054	1.877	1.737	1.665	1.897	2.292	3.425	11.85	58.53	135.3	33.06	2.565	0.554
590.0	47.44	70.88	77.22	75.98	71.49	79.55	80.60	86.36	97.93	140.3	119.0	101.5	89.06	139.9	700.4	501.1	43.60	30.98	27.84	27.05	26.41	24.59	25.08	25.50	25.85	25.98	24.40	24.19	24.08	24.70	24.18	22.68	21.52	20.02	18.29	17.35	15.76	15.31	14.22	13.42	12.43	11.79	11.53	10.87	10.53	9.818	9.270	8.786	8.059	7.690	6.712	6.196	6.059	5.910	5.761	5.221	4.230	3.863	3.228	2.911	2.562	2.296	2.325	2.116	2.040	1.598	1.687	1.433	1.557	1.503	1.654	3.425	14.14	49.43	85.38	60.23	9.961
595.0	49.32	61.10	72.81	70.50	65.74	65.12	69.14	72.19	77.28	108.7	128.3	92.96	81.51	75.94	226.1	743.1	98.90	24.92	22.76	20.72	20.54	19.53	19.64	19.79	20.07	20.01	19.21	19.00	18.71	19.26	18.55	18.50	16.53	15.14	14.42	13.73	12.79	11.95	11.50	10.58	10.16	9.603	9.123	8.580	8.465	8.167	7.596	6.985	6.686	5.990	5.346	5.330	4.603	4.541	4.586	4.452	3.734	3.273	2.522	2.352	2.237	1.995	1.891	1.983	1.906	1.567	1.371	1.299	1.276	1.188	1.120	1.506	3.761	11.56	23.19	71.14	75.87
600.0	44.15	54.76	66.83	64.96	58.71	57.93	66.14	64.91	72.60	90.44	129.0	93.35	78.55	61.20	84.00	527.7	392.4	25.60	18.26	17.92	17.26	16.36	16.41	16.92	16.54	16.79	16.11	15.41	15.91	16.17	15.60	15.01	13.20	12.96	11.80	11.22	10.69	9.913	9.443	8.758	8.224	7.596	7.599	7.225	7.013	6.739	6.420	5.888	5.451	5.147	4.435	4.390	3.866	3.705	3.782	3.590	3.455	2.922	2.448	2.014	1.936	1.714	1.675	1.667	1.532	1.563	1.432	1.280	1.200	1.059	1.030	1.046	1.397	3.118	5.691	23.11	79.51
605.0	49.93	55.87	60.75	60.06	52.77	55.90	61.01	63.82	69.82	84.96	121.7	108.8	79.97	59.04	52.70	227.8	615.5	58.16	16.04	14.76	13.94	14.22	14.02	13.84	13.76	14.41	13.68	13.27	12.79	12.93	12.32	12.34	11.81	10.64	9.759	9.428	9.157	8.319	7.624	7.326	6.857	6.524	6.196	6.093	6.068	5.735	5.313	4.979	4.488	4.412	4.019	3.704	3.325	3.231	3.085	3.210	3.039	2.725	2.132	1.868	1.707	1.572	1.448	1.513	1.346	1.425	1.433	1.143	1.166	1.077	0.846	0.861	0.836	1.287	1.780	5.688	29.34
610.0	48.08	57.71	57.69	50.83	51.16	52.07	60.03	66.91	74.40	89.24	111.9	128.9	91.40	65.88	51.52	83.50	434.3	305.2	19.09	12.81	11.16	11.08	11.31	11.25	10.81	11.33	10.84	10.42	10.37	10.44	10.02	10.07	9.306	8.656	7.794	7.388	7.041	6.748	6.043	5.844	5.506	5.394	5.127	4.835	4.733	4.605	4.349	4.100	3.757	3.609	3.309	3.043	2.663	2.619	2.431	2.471	2.537	2.428	2.054	1.656	1.425	1.443	1.289	1.211	1.161	1.315	1.349	1.268	1.073	0.954	0.900	0.848	0.752	0.846	0.876	1.728	7.064
615.0	45.82	57.62	58.57	51.31	45.99	47.55	57.01	64.72	72.47	85.92	101.3	129.9	103.6	70.70	52.88	47.27	146.1	479.1	67.38	10.65	9.237	9.255	8.801	8.722	8.778	8.635	8.526	8.474	8.174	7.936	7.903	7.759	7.030	6.776	6.436	5.721	5.540	5.164	4.665	4.445	4.249	4.277	4.142	3.931	3.628	3.687	3.492	3.185	2.980	2.806	2.601	2.304	2.283	2.093	1.909	1.979	1.938	1.976	1.765	1.579	1.365	1.283	1.124	1.070	1.090	1.184	1.136	1.244	1.190	0.957	0.819	0.783	0.740	0.621	0.636	0.801	2.005
620.0	41.15	50.72	59.91	50.14	43.65	46.29	51.78	57.90	69.74	82.20	96.57	114.6	111.6	71.74	51.67	38.47	58.36	353.4	252.2	10.48	7.416	8.002	7.805	7.786	7.176	6.993	7.349	7.121	7.053	6.465	6.720	6.267	6.213	5.330	4.904	4.886	4.399	4.188	3.984	3.784	3.388	3.094	3.306	3.260	2.932	2.983	2.830	2.776	2.506	2.279	1.999	1.918	1.957	1.685	1.729	1.666	1.541	1.618	1.638	1.420	1.242	1.102	1.017	1.043	0.957	1.175	1.069	1.171	1.142	0.943	0.784	0.803	0.707	0.660	0.599	0.566	0.836
625.0	43.65	47.73	56.69	45.51	42.47	42.93	52.36	56.50	64.44	77.46	93.65	104.5	117.1	72.51	50.97	35.94	36.85	158.4	409.1	28.19	6.571	6.755	6.563	6.142	6.155	5.887	5.762	6.146	6.092	5.411	5.508	5.332	5.105	4.311	4.191	3.998	3.863	3.481	3.634	3.194	3.016	2.753	2.732	2.749	2.606	2.575	2.444	2.416	2.066	1.972	1.724	1.645	1.616	1.350	1.471	1.374	1.308	1.258	1.503	1.423	1.293	1.035	0.989	0.964	0.940	0.978	0.935	0.850	0.995	0.947	0.858	0.816	0.575	0.614	0.571	0.583	0.601
630.0	42.18	49.69	52.54	46.45	40.73	42.77	47.66	54.76	62.35	73.01	88.23	96.06	106.2	81.65	52.55	37.21	30.19	53.43	309.8	168.5	8.165	5.226	5.434	5.165	4.965	5.269	4.690	4.852	4.754	4.609	4.516	4.376	4.088	3.525	3.402	3.086	3.035	2.714	2.822	2.496	2.504	2.242	2.314	2.263	2.142	2.098	1.885	1.821	1.664	1.690	1.458	1.362	1.265	1.249	1.200	1.112	1.111	1.038	1.108	1.210	1.138	0.966	0.943	0.921	0.923	0.797	0.846	0.880	0.927	0.933	0.859	0.821	0.629	0.601	0.540	0.539	0.584
635.0	41.98	53.61	53.51	46.60	39.00	41.58	46.18	51.48	61.16	72.66	85.33	94.33	94.81	90.69	56.75	37.40	30.08	26.06	101.5	341.8	45.04	5.001	4.204	4.085	4.260	4.068	3.906	4.069	3.936	3.901	3.781	3.526	3.368	3.093	2.660	2.577	2.340	2.350	2.132	1.976	1.810	1.711	1.801	1.764	1.667	1.735	1.655	1.448	1.232	1.259	1.180	1.183	0.997	1.080	0.936	1.004	1.006	0.865	0.928	0.884	0.970	0.846	0.871	0.920	0.849	0.798	0.817	0.904	0.814	0.944	0.852	0.920	0.671	0.623	0.572	0.475	0.496
640.0	46.34	56.05	63.03	44.39	40.56	40.80	46.95	52.01	61.30	73.41	85.96	93.55	90.03	94.58	61.88	40.42	31.44	22.03	32.40	278.3	161.6	4.820	3.927	3.651	3.731	3.588	3.506	3.554	3.190	3.269	3.329	2.890	2.745	2.669	2.100	2.208	1.942	1.933	1.679	1.550	1.638	1.409	1.388	1.554	1.455	1.375	1.326	1.206	1.101	1.123	0.989	1.109	0.883	0.857	0.905	0.838	0.903	0.848	0.812	0.751	1.003	0.836	0.853	0.786	0.804	0.769	0.845	0.721	0.795	0.824	0.763	0.727	0.751	0.650	0.590	0.454	0.517
645.0	47.02	67.02	74.34	51.07	41.34	39.12	42.15	50.97	59.20	72.29	87.15	96.86	91.15	92.46	71.54	45.24	34.04	20.47	16.33	131.8	285.5	15.89	3.566	3.236	3.114	3.279	3.058	2.852	3.006	2.718	2.863	2.555	2.311	2.163	1.833	1.817	1.705	1.622	1.536	1.382	1.446	1.151	1.178	1.195	1.209	1.205	1.144	1.093	1.075	0.968	0.928	0.835	0.834	0.728	0.769	0.762	0.760	0.744	0.739	0.644	0.795	0.763	0.923	0.666	0.743	0.781	0.819	0.713	0.705	0.674	0.734	0.656	0.785	0.759	0.566	0.483	0.497
650.0	63.90	79.26	88.14	65.50	48.49	40.42	43.10	48.78	61.26	72.33	85.58	94.80	91.67	86.79	78.96	48.31	34.77	20.95	13.00	44.10	294.9	59.03	3.532	3.333	2.937	2.764	2.599	2.599	2.729	2.489	2.392	2.347	2.170	1.799	1.756	1.505	1.494	1.464	1.276	1.165	1.186	1.036	1.071	1.148	0.951	1.051	1.022	1.015	0.936	0.965	0.868	0.860	0.720	0.701	0.700	0.649	0.744	0.693	0.714	0.723	0.652	0.759	0.767	0.805	0.750	0.766	0.722	0.674	0.792	0.736	0.849	0.655	0.791	0.796	0.600	0.624	0.566
