Sample:	'1
File name:	城北污水厂北侧保障沉淀池 10倍.FD3
Run date:	'14:41:06, 08/19/2024
Operator:	horiz
Comment:	'

Instrument
Model:	F-2700 FL Spectrophotometer
Serial number:	23B8-004
ROM Version:	4J14000 07

Instrument parameters
Measurement type:	3-D scan
Data mode:	Fluorescence
EX  Start WL:	220.0 nm
EX  End WL:	600.0 nm
EX Sampling interval:	5.0 nm
EM  Start WL:	230.0 nm
EM  End WL:	650.0 nm
EM Sampling interval:	5.0 nm
Scan speed:	12000 nm/min
EX Slit:	5.0 nm
EM Slit:	5.0 nm
PMT Voltage:	700 V
Response:	Auto 
Corrected spectra:	Off
Contour interval:	50.000

Peak integration
Integration method:	Rectangular
Sensitivity:	1
Threshold:	1.000

Peaks
No.	ApexEX/EM(nm)	Height(Data)
1	225.0/305.0	1315
2	225.0/345.0	6823
3	225.0/485.0	328.6
4	230.0/500.0	290.0
5	235.0/510.0	233.7
6	240.0/265.0	428.1
7	240.0/525.0	207.9
8	245.0/270.0	416.3
9	245.0/535.0	179.3
10	250.0/275.0	532.8
11	250.0/550.0	148.0
12	255.0/280.0	628.5
13	255.0/440.0	526.9
14	255.0/565.0	133.3
15	260.0/575.0	118.0
16	265.0/585.0	119.7
17	270.0/300.0	1438
18	270.0/600.0	123.0
19	275.0/305.0	1518
20	275.0/610.0	104.9
21	280.0/345.0	2029
22	280.0/625.0	81.67
23	285.0/640.0	66.86
24	315.0/355.0	563.8
25	320.0/360.0	544.6
26	325.0/370.0	469.0
27	330.0/375.0	426.0
28	335.0/380.0	373.8
29	345.0/395.0	250.7
30	350.0/400.0	235.7
31	360.0/415.0	175.2
32	365.0/420.0	165.9
33	375.0/435.0	110.7
34	380.0/440.0	104.0
35	395.0/460.0	61.73
36	400.0/465.0	54.31
37	410.0/480.0	37.27
38	415.0/485.0	32.43
39	425.0/500.0	23.56
40	430.0/505.0	20.87
41	440.0/520.0	14.09
42	445.0/525.0	12.02
43	455.0/345.0	19.27
44	455.0/540.0	8.755
45	470.0/560.0	4.421
46	480.0/575.0	2.771
47	495.0/270.0	2.360
48	505.0/275.0	3.466
49	510.0/280.0	3.560
50	520.0/285.0	4.334
51	530.0/290.0	4.422
52	540.0/295.0	6.703
53	545.0/300.0	7.321
54	550.0/305.0	7.001
55	560.0/310.0	5.973
56	565.0/345.0	8.645
57	585.0/325.0	7.382

Wavelength data
No.	EX/EM(nm)	Height(Data)	

Data points
	220.0	225.0	230.0	235.0	240.0	245.0	250.0	255.0	260.0	265.0	270.0	275.0	280.0	285.0	290.0	295.0	300.0	305.0	310.0	315.0	320.0	325.0	330.0	335.0	340.0	345.0	350.0	355.0	360.0	365.0	370.0	375.0	380.0	385.0	390.0	395.0	400.0	405.0	410.0	415.0	420.0	425.0	430.0	435.0	440.0	445.0	450.0	455.0	460.0	465.0	470.0	475.0	480.0	485.0	490.0	495.0	500.0	505.0	510.0	515.0	520.0	525.0	530.0	535.0	540.0	545.0	550.0	555.0	560.0	565.0	570.0	575.0	580.0	585.0	590.0	595.0	600.0
230.0	117.3	1578	3213	801.9	36.27	12.74	10.67	8.602	7.687	6.777	5.795	5.395	4.702	4.019	3.120	2.713	2.470	2.163	1.895	1.610	1.581	1.495	1.298	1.317	1.280	1.150	1.123	1.073	0.980	1.038	0.933	0.863	0.878	0.854	0.814	0.813	0.753	0.770	0.729	0.712	0.939	1.176	1.092	0.809	0.652	0.659	2.033	6.993	9.661	6.301	2.328	0.766	0.568	0.541	0.531	0.530	0.523	0.597	0.584	0.568	0.539	0.553	0.550	0.578	0.545	0.543	0.601	0.573	0.563	0.591	0.603	0.554	0.579	0.603	0.621	0.608	0.581
235.0	203.7	450.7	2063	2776	609.6	49.91	10.72	11.35	8.182	6.587	6.724	5.385	4.357	3.826	3.295	2.623	2.613	2.096	1.864	1.763	1.727	1.440	1.324	1.261	1.241	1.166	0.993	0.899	0.990	0.982	1.010	0.904	0.754	0.815	0.803	0.747	0.848	0.809	0.681	0.740	0.721	0.920	1.048	1.163	0.992	0.745	0.863	2.114	4.175	6.202	8.299	8.200	3.939	1.011	0.572	0.528	0.603	0.618	0.579	0.577	0.561	0.551	0.576	0.576	0.553	0.541	0.577	0.559	0.532	0.529	0.580	0.538	0.702	0.569	0.546	0.627	0.596
240.0	283.0	239.8	642.5	2363	2737	469.7	28.52	11.34	8.724	6.705	7.146	5.302	4.746	3.838	3.351	2.734	2.615	1.902	2.018	1.742	1.623	1.521	1.349	1.332	1.259	1.164	1.076	0.923	0.896	1.050	0.957	0.862	0.861	0.898	0.797	0.763	0.803	0.805	0.703	0.687	0.783	0.781	0.728	0.962	1.240	1.216	0.989	0.967	1.364	2.126	4.829	10.35	11.74	7.791	2.967	0.791	0.558	0.595	0.536	0.582	0.537	0.554	0.539	0.526	0.609	0.569	0.488	0.573	0.624	0.558	0.521	0.578	0.614	0.646	0.542	0.631	0.600
245.0	212.0	311.4	227.1	831.9	2883	2572	343.5	15.24	9.857	7.637	7.052	5.858	5.221	4.413	3.472	2.904	2.763	1.970	1.947	1.587	1.463	1.627	1.488	1.380	1.265	1.212	1.202	1.002	0.976	1.077	0.907	0.847	0.854	0.840	0.798	0.765	0.744	0.849	0.768	0.798	0.682	0.711	0.818	0.783	0.979	1.248	1.414	1.180	0.836	0.955	1.552	3.839	8.526	13.41	12.69	6.310	1.917	0.695	0.625	0.657	0.545	0.619	0.560	0.514	0.627	0.567	0.532	0.556	0.572	0.576	0.572	0.624	0.576	0.623	0.546	0.613	0.598
250.0	101.3	226.9	310.2	304.6	947.8	2509	3095	1046	61.51	8.820	7.387	6.441	5.525	4.696	3.754	3.112	2.660	2.121	1.999	1.703	1.535	1.522	1.440	1.335	1.206	1.186	1.119	0.981	0.996	1.015	0.987	0.942	0.898	0.861	0.776	0.827	0.728	0.738	0.683	0.761	0.714	0.700	0.740	0.743	0.766	0.896	1.034	1.277	1.415	1.184	1.014	1.361	2.484	4.699	7.938	11.11	13.87	11.23	6.182	2.119	0.651	0.587	0.596	0.566	0.668	0.591	0.523	0.596	0.593	0.621	0.604	0.557	0.586	0.654	0.599	0.605	0.602
255.0	58.27	93.47	227.2	371.7	321.2	647.2	2369	4315	1367	57.11	9.205	7.479	5.975	5.371	3.969	3.754	2.806	2.290	1.974	1.874	1.657	1.394	1.355	1.402	1.377	1.199	1.168	1.135	0.998	1.012	1.067	0.930	0.900	0.836	0.774	0.823	0.868	0.713	0.787	0.646	0.710	0.782	0.696	0.756	0.680	0.804	0.718	0.771	0.948	1.234	1.711	1.750	1.264	1.542	2.180	3.117	5.451	12.02	19.33	18.60	9.094	2.449	0.646	0.609	0.649	0.609	0.537	0.584	0.607	0.580	0.601	0.582	0.629	0.600	0.578	0.655	0.698
260.0	54.00	50.44	100.7	326.5	354.4	209.4	711.0	3551	4364	311.2	27.40	9.034	7.047	5.178	4.009	3.653	2.655	2.612	1.972	2.011	1.656	1.548	1.646	1.404	1.300	1.111	1.048	1.146	0.996	0.977	0.978	0.910	0.905	0.895	0.769	0.823	0.732	0.764	0.752	0.654	0.754	0.662	0.716	0.694	0.731	0.647	0.616	0.682	0.581	0.772	1.188	1.903	2.053	1.385	1.096	1.294	1.800	3.664	8.817	17.95	24.20	18.48	6.847	1.196	0.654	0.592	0.615	0.605	0.643	0.593	0.608	0.624	0.584	0.614	0.581	0.679	0.754
265.0	55.82	46.03	49.91	154.0	428.1	258.1	204.6	1192	4471	2507	241.3	13.80	7.881	6.160	4.435	3.529	3.177	2.473	1.912	2.256	1.520	1.702	1.489	1.600	1.305	1.218	1.159	1.069	1.093	1.009	0.957	1.113	0.897	0.880	0.744	0.794	0.852	0.739	0.802	0.690	0.703	0.745	0.698	0.622	0.761	0.639	0.655	0.688	0.529	0.610	0.655	1.140	1.981	2.353	1.747	1.062	1.005	1.370	2.508	5.702	13.42	24.04	25.51	14.48	3.895	0.783	0.593	0.604	0.670	0.614	0.676	0.618	0.661	0.620	0.602	0.682	0.665
270.0	78.48	48.49	41.82	62.29	201.1	416.3	304.2	333.8	1412	3485	3812	917.7	52.94	7.470	5.246	4.168	3.521	2.873	2.256	2.144	1.755	1.893	1.568	1.527	1.335	1.309	1.238	1.131	1.077	1.021	1.046	1.087	0.931	0.909	0.810	0.831	0.883	0.827	0.779	0.737	0.712	0.807	0.775	0.700	0.702	0.762	0.724	0.619	0.543	0.607	0.533	0.693	1.053	1.519	2.106	2.360	2.203	1.356	1.214	1.889	3.683	7.270	12.65	18.96	22.18	19.57	10.99	3.466	0.869	0.690	0.622	0.673	0.696	0.610	0.613	0.674	0.647
275.0	160.5	110.2	67.83	52.75	76.81	205.7	532.8	364.2	387.8	907.1	3003	5984	1248	49.88	6.778	4.635	4.141	3.263	2.588	2.205	1.883	1.900	1.773	1.636	1.375	1.237	1.406	1.310	1.163	1.104	1.092	0.916	1.026	0.992	0.907	0.888	1.085	0.933	0.954	0.953	0.944	0.924	0.965	0.952	0.801	0.795	0.780	0.763	0.778	0.651	0.550	0.614	0.742	0.819	1.070	1.262	2.464	3.466	2.628	1.385	1.513	2.271	3.574	5.024	7.079	14.01	26.64	28.87	15.56	3.801	0.673	0.659	0.685	0.611	0.623	0.702	0.680
280.0	269.2	226.3	144.6	86.62	68.66	106.6	354.8	628.5	301.6	320.1	952.5	4542	5586	852.7	23.79	6.046	4.853	3.528	3.074	2.266	2.083	1.764	1.931	1.584	1.435	1.213	1.455	1.358	1.191	1.185	1.089	1.063	1.047	1.085	1.037	1.170	1.363	1.236	1.196	1.242	1.063	1.161	1.092	1.140	1.083	1.014	1.046	1.024	0.930	0.718	0.720	0.721	0.728	0.710	0.941	0.918	1.352	2.426	3.560	3.338	2.056	1.512	1.581	2.075	2.450	4.268	9.735	21.17	31.19	27.15	10.51	2.113	0.749	0.634	0.805	0.713	0.649
285.0	470.9	432.7	312.3	158.3	93.20	92.02	181.5	577.1	622.8	307.1	429.1	1554	5425	4581	143.6	10.02	5.915	3.840	3.319	2.866	2.452	1.988	1.739	1.670	1.603	1.316	1.434	1.373	1.171	1.217	1.035	1.062	0.921	1.214	1.232	1.429	1.597	1.564	1.357	1.465	1.234	1.438	1.405	1.424	1.412	1.540	1.526	1.478	1.420	1.051	0.844	0.818	0.881	0.834	0.801	0.880	1.059	1.418	2.078	3.684	4.334	2.831	1.755	1.649	1.926	2.215	3.440	6.450	13.63	25.20	31.86	21.83	6.749	1.185	0.757	0.690	0.623
290.0	782.4	790.9	605.6	298.7	153.5	122.6	159.3	323.0	707.3	799.9	568.1	731.5	1821	4032	4090	533.0	37.63	5.158	4.007	3.182	2.667	2.357	1.955	1.784	1.544	1.500	1.408	1.295	1.193	1.186	1.081	0.988	0.992	1.190	1.440	1.746	2.081	1.919	1.761	1.759	1.639	1.654	1.730	1.912	2.070	2.256	2.242	2.399	2.196	1.687	1.301	1.228	1.107	1.031	0.930	0.906	1.021	1.226	1.345	2.014	2.957	3.908	4.422	3.979	2.856	2.495	2.733	3.367	4.830	7.866	13.16	19.38	23.42	21.52	14.19	5.627	1.472
295.0	1077	1113	865.7	467.3	227.8	164.6	183.7	280.4	487.0	982.4	1147	768.4	815.2	1139	2613	4935	800.3	32.95	5.076	3.679	2.937	2.573	2.205	1.877	1.626	1.494	1.548	1.228	1.245	1.214	1.150	1.010	1.073	1.393	1.586	2.052	2.442	2.454	2.149	2.007	1.860	1.966	2.291	2.226	2.748	2.937	2.962	3.183	2.664	2.228	1.639	1.578	1.306	1.236	1.067	1.041	1.165	1.265	1.305	1.751	2.226	2.517	3.354	5.117	6.703	4.673	3.652	3.180	3.638	3.951	4.657	5.633	6.741	10.97	22.26	29.91	21.63
300.0	1177	1286	999.0	538.7	283.0	197.8	221.4	314.0	471.3	809.5	1438	1111	692.9	513.0	784.5	3508	5276	550.2	15.45	5.174	3.224	2.937	2.367	2.206	2.010	1.628	1.548	1.356	1.107	1.226	1.267	1.096	1.057	1.403	1.718	2.274	2.823	2.486	2.454	2.152	2.180	2.171	2.315	2.351	2.874	3.486	3.263	3.526	3.142	2.470	1.818	1.705	1.424	1.279	1.187	1.270	1.316	1.403	1.723	1.904	2.187	2.475	2.900	4.138	5.693	7.321	6.059	4.362	3.628	3.353	3.132	2.701	2.503	3.452	7.120	16.67	29.33
305.0	1204	1315	1071	567.6	306.8	232.4	263.1	359.3	508.1	744.6	1206	1518	837.0	425.5	312.1	1071	4723	3666	88.95	7.669	4.260	3.112	2.563	2.209	1.881	1.679	1.634	1.311	1.333	1.209	1.280	1.219	1.096	1.247	1.787	2.513	2.865	2.597	2.257	2.131	2.305	2.241	2.532	2.609	3.077	3.459	3.402	3.922	3.433	2.464	2.013	1.835	1.509	1.438	1.246	1.349	1.407	1.499	1.787	2.351	2.569	2.724	3.195	3.747	4.256	5.614	7.001	6.558	5.054	3.644	2.894	2.252	1.884	1.852	2.623	4.931	10.43
310.0	1193	1274	1031	570.1	318.4	248.4	280.1	373.5	515.2	710.0	968.4	1282	1211	567.5	249.5	341.4	1367	3087	3337	352.5	22.83	4.392	3.010	2.625	2.056	1.977	1.810	1.590	1.331	1.301	1.291	1.216	1.194	1.300	1.728	2.279	2.749	2.540	2.264	2.170	2.161	1.982	2.414	2.490	2.893	3.200	3.266	3.729	3.141	2.566	2.060	1.989	1.585	1.479	1.401	1.498	1.585	1.614	1.904	2.172	2.458	2.801	3.279	3.650	3.947	4.448	4.957	5.742	5.973	5.773	4.409	2.737	1.953	1.631	1.634	2.057	3.351
315.0	1437	1679	1124	609.8	334.9	263.8	305.6	398.1	538.2	734.5	944.2	1082	1159	1054	451.5	289.7	412.8	796.0	2091	3813	523.3	22.36	4.389	3.043	2.544	2.238	1.692	1.568	1.413	1.456	1.273	1.374	1.189	1.385	1.701	2.139	2.290	2.379	2.269	2.321	2.259	2.365	2.743	2.841	3.568	3.960	4.306	4.535	3.825	2.678	1.918	2.175	1.754	1.491	1.511	1.611	1.674	1.842	2.028	2.086	2.434	2.752	3.321	3.586	3.816	4.403	4.686	4.717	4.635	5.137	5.998	5.374	3.765	2.539	2.184	2.004	2.216
320.0	2313	2727	1489	856.6	431.7	318.6	363.2	477.7	655.9	890.4	1134	1283	1254	1356	974.8	505.4	371.7	335.4	627.2	2740	3340	389.4	10.43	4.020	2.859	2.379	1.871	1.616	1.555	1.489	1.415	1.426	1.275	1.447	1.531	2.207	2.283	2.429	2.485	2.487	2.876	2.999	3.236	4.274	5.213	6.297	6.794	6.971	5.208	3.489	2.752	2.661	2.132	1.687	1.613	1.771	1.911	2.126	2.384	2.584	2.842	3.269	3.852	4.233	4.441	5.247	5.547	5.757	5.597	5.484	5.665	6.522	6.294	5.077	3.783	3.181	2.645
325.0	3021	3952	2934	1591	707.9	441.9	453.7	572.9	798.6	1062	1340	1539	1476	1441	1354	839.5	472.3	300.1	282.5	882.9	3130	2725	64.65	7.171	3.696	2.698	2.240	1.758	1.757	1.815	1.414	1.431	1.188	1.453	1.530	2.134	2.341	2.450	2.659	2.693	3.240	3.572	4.300	5.575	6.808	8.397	9.618	10.58	8.332	6.202	4.760	4.285	3.072	2.229	1.981	2.030	2.221	2.259	2.710	2.977	3.257	3.516	4.297	4.871	5.248	5.757	6.285	6.452	6.561	6.535	6.414	6.801	7.130	7.382	6.297	4.809	3.765
330.0	3809	5023	4169	2460	1118	597.1	557.1	670.0	895.9	1186	1503	1726	1709	1578	1369	1179	720.3	366.2	257.4	349.4	994.4	2393	2433	272.0	18.35	3.959	2.667	2.272	1.835	1.740	1.629	1.499	1.305	1.351	1.584	2.033	2.462	2.568	3.018	2.973	3.585	4.077	5.029	6.539	8.320	10.55	11.93	13.79	11.61	9.217	7.393	6.896	4.732	3.446	2.597	2.399	2.595	2.651	2.975	3.361	3.637	4.082	4.823	5.181	5.855	6.282	6.764	7.116	7.214	7.536	7.095	7.227	6.697	6.585	6.747	6.604	5.885
335.0	4265	5810	4920	3050	1397	728.7	622.3	730.3	963.4	1255	1586	1840	1853	1691	1385	1139	968.7	515.9	293.7	271.5	381.5	669.2	1644	2977	416.8	16.46	3.587	3.036	2.104	1.833	1.642	1.574	1.418	1.417	1.519	1.926	2.612	2.777	3.028	3.006	3.578	4.544	5.374	7.088	8.968	11.70	13.77	15.77	13.68	11.05	9.054	8.587	5.429	4.195	3.162	2.739	3.013	2.840	2.941	3.520	3.934	4.409	4.837	5.940	6.346	6.614	6.989	7.543	7.531	7.636	7.495	7.563	7.222	6.321	6.370	5.942	6.238
340.0	4739	6435	5824	3658	1714	875.2	705.6	796.7	1026	1345	1671	1949	1971	1797	1475	1124	920.2	710.3	375.3	293.7	290.5	308.3	533.9	2243	2776	62.51	7.487	3.480	2.434	1.981	1.799	1.670	1.534	1.460	1.558	1.995	2.146	2.834	3.133	3.378	3.892	4.778	5.908	7.308	9.944	12.70	15.21	17.95	15.98	13.41	11.10	9.702	6.654	4.618	3.554	3.218	3.373	3.155	3.587	3.810	4.280	4.893	5.509	5.784	6.585	6.932	7.417	7.770	8.370	8.045	8.251	7.988	7.365	6.794	6.628	5.943	5.893
345.0	4916	6823	6487	4138	1954	990.5	769.8	867.0	1082	1392	1717	1978	2029	1844	1526	1136	817.3	743.0	531.6	341.7	305.1	266.3	261.5	738.9	2694	2019	52.87	4.798	2.801	2.133	1.812	1.818	1.537	1.665	1.524	1.860	2.416	2.728	3.156	3.572	4.246	4.774	6.030	8.002	9.965	13.16	15.92	19.27	17.56	15.18	12.62	11.31	7.490	5.236	3.958	3.346	3.560	3.441	3.783	4.227	4.493	4.953	5.418	6.283	6.849	7.139	7.802	7.950	8.396	8.645	8.287	8.164	7.903	7.437	6.720	6.415	5.551
350.0	4500	6495	6287	4121	2030	1109	911.0	994.0	1134	1382	1670	1870	1924	1746	1466	1092	754.0	601.5	602.9	470.8	344.1	284.4	231.9	288.6	842.1	1884	1828	228.9	12.85	2.911	2.061	1.920	1.612	1.609	1.555	1.853	2.239	2.672	3.066	3.282	4.146	4.662	5.758	7.283	9.421	12.55	14.86	18.08	17.37	14.96	12.32	11.31	7.903	5.737	4.479	4.046	4.128	3.875	4.280	4.437	4.751	4.963	5.467	5.998	6.650	7.104	7.453	7.640	7.936	8.079	7.869	8.012	7.621	7.047	6.482	6.140	5.038
355.0	3946	5888	5849	3863	1985	1169	957.3	1029	1131	1323	1562	1716	1743	1590	1353	1017	706.9	528.6	496.8	563.8	446.8	315.3	249.1	207.3	266.2	481.9	1311	2287	332.8	9.399	2.702	2.138	1.858	1.707	1.610	1.642	2.158	2.442	2.937	2.930	3.786	4.306	5.505	6.633	8.772	11.60	13.55	16.98	16.29	14.01	12.00	10.77	7.708	5.822	4.683	4.434	3.980	4.058	4.424	4.591	4.816	4.962	5.523	5.944	6.151	6.564	6.714	7.164	7.214	7.386	7.099	7.188	6.855	6.743	5.971	5.396	4.913
360.0	3696	5332	5498	3691	1922	1145	936.6	983.3	1071	1232	1441	1593	1605	1460	1267	949.6	674.2	507.3	446.7	500.8	544.6	362.8	265.6	201.5	148.6	155.6	381.0	1837	1992	54.87	4.758	2.529	2.098	1.795	1.696	1.700	1.906	2.359	2.650	2.841	3.312	4.009	4.871	6.230	8.304	10.47	12.58	15.36	15.36	12.84	11.20	10.16	7.260	5.823	4.775	4.287	3.862	4.226	4.159	4.339	4.440	4.664	5.535	5.523	6.029	6.242	6.236	6.580	6.545	7.321	6.833	6.533	6.495	6.313	5.650	4.950	4.554
365.0	3332	4853	4992	3388	1802	1117	935.4	954.8	1018	1158	1334	1458	1469	1339	1155	886.0	636.8	493.5	428.4	433.5	532.4	456.1	292.8	209.9	131.3	91.22	122.2	581.1	2118	1568	43.98	3.390	2.286	1.868	1.848	1.894	1.939	2.281	2.595	2.862	2.904	3.658	4.503	5.421	7.353	9.301	11.23	14.11	14.43	11.97	9.955	9.369	6.958	5.521	4.625	4.049	4.035	3.929	4.168	4.153	4.241	4.335	4.955	5.293	5.753	5.450	5.570	5.973	6.268	6.575	6.180	6.247	6.402	5.836	5.355	4.444	4.181
370.0	2775	4051	4193	2928	1663	1103	946.7	939.1	961.0	1065	1195	1274	1281	1168	1021	798.0	598.1	471.1	414.9	397.2	425.3	469.0	384.6	236.1	143.7	92.46	75.49	163.7	656.1	1607	1238	196.2	9.706	2.452	2.077	1.790	1.959	2.246	2.339	2.541	2.912	3.272	3.869	4.659	6.170	7.856	9.666	11.87	11.79	9.942	8.633	8.322	6.304	5.313	4.309	3.963	3.946	3.939	3.995	4.232	4.301	4.073	4.473	4.826	5.214	5.112	5.165	5.332	5.665	5.876	5.579	5.316	5.441	5.226	4.706	4.472	4.169
375.0	2232	3227	3391	2449	1490	1038	878.2	856.7	873.6	936.9	1029	1087	1088	993.8	883.6	703.0	545.8	443.3	401.4	378.1	372.9	384.2	426.0	318.9	170.2	115.6	81.96	82.08	176.0	404.0	1144	1919	277.9	6.603	2.637	1.726	2.043	2.112	2.153	2.333	2.500	2.830	3.598	4.083	5.295	6.894	7.586	9.601	9.841	8.378	7.361	6.951	5.633	4.605	3.959	3.717	3.863	3.827	3.712	3.905	4.012	4.019	4.038	4.128	4.537	4.594	4.426	4.819	5.056	4.736	4.714	4.740	4.696	4.309	4.153	4.052	3.587
380.0	1917	2773	2888	2119	1347	955.3	808.5	778.5	774.5	840.8	907.7	957.8	956.0	871.1	781.1	628.0	509.3	424.1	389.6	367.8	354.0	344.8	361.9	373.8	219.8	131.0	95.28	72.00	75.76	115.4	335.4	1615	1713	45.09	4.054	2.026	2.223	2.020	2.062	2.107	2.374	2.796	3.079	3.730	4.440	5.892	6.620	7.886	8.490	7.288	6.383	6.466	5.060	4.296	3.738	3.464	3.726	3.578	3.491	3.563	3.501	3.644	3.611	3.874	4.017	4.142	3.905	4.146	4.417	4.324	4.279	3.961	4.100	4.182	3.910	3.787	3.481
385.0	1680	2378	2483	1858	1228	909.0	777.2	742.3	713.9	763.1	815.2	847.7	846.8	779.5	703.5	570.9	470.2	404.6	369.3	353.4	339.3	322.6	311.9	343.1	286.7	156.2	103.2	78.68	60.57	55.12	96.41	518.0	1858	1336	34.66	2.656	2.484	2.247	2.192	2.141	2.330	2.515	2.732	3.491	3.840	5.073	5.631	6.727	6.843	6.189	5.661	5.442	4.488	3.950	3.477	3.363	3.618	3.257	3.257	3.195	3.175	3.339	3.318	3.651	3.579	3.733	3.570	3.949	3.907	4.013	3.846	3.573	3.650	3.975	3.758	3.323	3.342
390.0	1383	1887	1984	1542	1078	835.5	737.2	698.1	656.4	670.9	710.1	738.9	730.4	673.3	609.3	506.8	434.3	377.3	350.6	335.3	326.5	309.3	285.7	274.9	283.9	228.4	134.1	91.94	68.81	51.15	48.57	135.6	565.0	1375	1021	150.9	8.418	2.417	2.293	2.186	2.163	2.310	2.484	2.882	3.248	4.077	4.689	5.493	5.759	5.123	4.590	4.804	4.019	3.824	3.496	3.322	3.509	3.076	3.264	3.065	3.126	3.134	2.994	3.178	3.173	3.356	3.204	3.451	3.471	3.356	3.446	3.242	3.243	3.275	3.349	2.978	3.038
395.0	1127	1499	1611	1294	954.3	784.7	694.0	649.2	593.6	594.4	612.4	625.7	619.5	580.9	527.7	456.1	389.7	348.3	326.7	321.1	307.7	294.1	276.0	248.7	229.9	250.7	202.1	113.8	80.43	59.80	44.87	53.31	141.7	339.9	982.5	1401	229.3	5.911	2.358	2.373	2.011	2.232	2.236	2.514	2.943	3.550	3.959	4.697	4.675	4.288	3.821	4.275	3.586	3.537	3.163	3.165	3.058	3.053	3.056	2.974	2.927	2.950	2.729	2.843	3.000	2.999	3.012	2.876	3.052	2.891	2.980	3.001	2.931	2.928	2.768	2.783	2.775
400.0	959.0	1281	1391	1133	845.2	740.5	662.3	621.4	560.9	552.5	555.1	565.0	554.1	521.9	474.8	414.6	367.6	331.3	312.6	305.7	294.6	282.0	265.7	239.1	210.2	213.0	235.7	153.1	92.29	66.77	49.86	39.68	50.58	90.15	285.7	1174	1311	38.51	3.504	2.338	2.126	2.121	2.129	2.317	2.628	3.057	3.544	3.960	4.274	3.541	3.328	3.733	3.399	3.180	3.027	3.133	3.168	2.774	2.825	2.783	2.651	2.651	2.643	2.582	2.806	2.759	2.927	2.640	2.968	2.828	2.701	2.741	2.524	2.700	2.515	2.585	2.745
405.0	858.8	1131	1220	990.5	784.0	695.0	628.1	588.6	528.6	501.2	503.5	514.9	511.0	475.4	436.8	385.1	347.1	313.0	297.5	289.1	279.7	272.7	254.4	232.2	202.2	187.1	213.7	202.7	113.0	74.23	56.65	40.66	33.65	35.82	76.24	371.8	1418	949.0	29.91	2.715	2.141	2.254	2.151	2.092	2.417	2.784	3.120	3.498	3.663	3.262	3.175	3.452	2.979	2.972	2.756	2.844	2.960	2.735	2.671	2.618	2.683	2.612	2.576	2.521	2.495	2.334	2.494	2.486	2.713	2.635	2.510	2.512	2.645	2.608	2.421	2.386	2.575
410.0	761.5	943.9	1017	867.7	725.5	649.6	609.2	567.6	502.6	467.7	460.7	461.4	456.5	428.0	398.4	353.2	318.9	293.3	277.1	272.7	263.4	255.7	243.3	223.7	198.2	179.2	173.0	193.8	167.2	98.17	64.66	47.19	34.81	28.18	31.60	94.39	433.4	997.9	733.3	137.3	6.531	2.490	2.139	1.929	2.233	2.619	2.687	2.887	3.302	2.901	2.815	3.021	2.768	2.796	2.621	2.732	2.665	2.746	2.702	2.559	2.572	2.353	2.378	2.491	2.442	2.237	2.278	2.343	2.354	2.348	2.239	2.431	2.294	2.373	2.233	2.374	2.229
415.0	679.0	812.2	855.0	762.7	653.4	615.9	594.0	557.2	492.8	441.1	418.5	417.8	409.6	382.9	360.2	321.4	290.8	268.7	257.3	252.2	246.7	238.7	231.7	212.4	195.7	173.8	158.0	154.7	175.2	147.0	80.35	53.20	39.55	29.52	24.42	33.84	106.3	247.0	666.0	1051	189.7	4.830	2.237	1.965	2.362	2.397	2.545	2.729	2.789	2.512	2.417	2.509	2.729	2.694	2.521	2.539	2.563	2.760	2.810	2.487	2.513	2.336	2.123	2.181	2.115	2.192	1.943	2.077	2.092	2.096	2.323	2.149	2.043	2.266	2.209	2.255	2.175
420.0	606.3	712.2	770.7	694.4	615.4	583.5	570.6	550.0	476.6	424.0	393.7	390.3	380.5	355.6	334.4	301.3	273.7	254.9	244.2	238.1	234.3	227.0	217.3	203.4	189.4	170.9	151.5	139.4	145.2	165.9	109.5	59.82	43.17	32.94	25.23	21.52	34.62	63.65	191.1	855.8	919.7	35.15	3.297	2.199	2.193	2.246	2.168	2.647	2.532	2.436	2.255	2.463	2.648	2.630	2.546	2.559	2.538	2.737	2.613	2.593	2.630	2.197	2.117	2.098	1.900	2.046	1.875	1.971	2.096	1.996	2.053	1.917	2.036	2.044	2.123	2.141	2.204
425.0	579.2	670.1	694.1	652.5	603.8	557.7	558.0	540.5	465.2	409.8	373.3	363.7	348.8	335.8	309.2	284.4	260.9	243.1	229.9	225.3	218.1	216.1	205.0	193.5	183.1	166.2	149.4	134.4	126.5	146.8	140.9	75.93	46.14	35.53	26.69	21.33	20.04	23.30	50.15	265.9	928.3	709.3	28.33	2.805	2.278	2.289	2.154	2.340	2.431	2.285	2.211	2.366	2.490	2.494	2.372	2.483	2.618	2.671	2.446	2.662	2.340	2.379	2.024	2.097	1.976	1.987	1.952	1.801	2.109	1.874	1.893	1.800	2.039	1.934	1.925	1.966	2.094
430.0	780.2	608.7	631.9	592.4	551.4	541.9	544.2	529.6	465.7	392.3	358.4	340.5	323.8	309.9	289.0	266.1	241.5	226.8	216.9	209.9	202.8	197.7	192.6	186.1	172.6	159.8	146.2	132.0	119.6	116.1	129.8	109.6	61.87	39.89	30.14	23.48	19.03	16.23	19.37	66.16	273.8	671.5	587.3	131.6	7.289	2.408	2.267	2.159	2.262	2.085	2.009	2.298	2.359	2.395	2.254	2.359	2.453	2.598	2.492	2.549	2.436	2.341	2.281	2.036	1.941	1.960	1.930	1.798	1.821	1.847	1.839	1.857	1.810	1.768	1.814	1.909	1.792
435.0	1619	589.7	578.9	538.3	509.8	512.5	530.7	523.6	450.7	377.9	338.0	323.9	297.4	289.3	271.0	249.0	227.8	213.6	204.1	197.2	189.5	186.1	180.2	174.1	164.4	152.7	141.8	130.5	116.1	105.8	99.24	110.7	94.99	50.08	33.29	26.16	20.75	16.46	14.37	22.55	67.14	162.9	469.8	914.8	198.0	6.523	2.290	2.250	2.091	1.929	1.875	2.196	2.280	2.265	2.403	2.206	2.466	2.604	2.551	2.461	2.370	2.270	2.132	2.048	1.848	1.704	1.768	1.717	1.784	1.836	1.768	1.899	1.748	1.719	1.569	1.699	1.841
440.0	2384	773.4	525.9	497.0	496.2	490.9	523.4	526.9	449.8	370.5	320.4	308.0	287.2	274.7	251.9	237.9	218.9	202.3	193.4	186.3	178.7	174.8	170.4	166.8	157.1	147.6	136.8	126.4	115.7	104.9	89.26	90.18	104.0	69.98	37.36	28.04	22.33	17.39	14.44	13.39	21.83	41.90	131.3	689.5	872.5	34.34	3.820	2.484	2.139	1.848	1.852	2.118	1.892	2.133	2.219	2.109	2.350	2.568	2.479	2.545	2.169	2.334	2.025	1.906	1.891	1.824	1.602	1.501	1.798	1.782	1.604	1.767	1.814	1.702	1.643	1.661	1.772
445.0	2542	1349	510.5	483.2	475.7	474.5	518.4	523.6	436.2	358.0	313.7	291.8	272.6	263.8	241.2	225.5	208.3	192.8	185.7	175.5	168.4	164.1	161.2	156.5	148.9	142.1	131.7	124.1	114.3	101.8	86.91	77.28	88.25	87.79	48.05	30.16	24.04	19.19	14.89	13.04	12.81	15.77	35.03	204.2	796.6	706.8	27.46	3.087	2.298	1.946	1.747	2.218	2.082	1.994	2.019	2.018	2.359	2.419	2.397	2.441	2.316	2.169	1.907	1.947	1.724	1.862	1.482	1.483	1.615	1.755	1.496	1.646	1.724	1.677	1.666	1.646	1.671
450.0	1572	2328	725.8	443.7	439.4	453.1	486.6	495.2	426.9	345.2	299.5	274.0	254.7	242.3	225.8	206.0	194.4	179.0	171.6	161.3	154.6	151.1	148.7	146.4	139.5	133.6	125.0	118.5	109.0	97.75	83.60	71.97	67.70	76.51	68.14	40.05	26.45	20.92	17.10	14.17	11.94	10.71	13.70	51.02	225.0	588.2	669.7	131.5	8.384	2.076	1.772	2.111	1.966	1.999	1.958	2.069	2.249	2.340	2.471	2.350	2.303	2.142	1.962	1.944	1.743	1.686	1.516	1.509	1.597	1.591	1.456	1.561	1.551	1.648	1.607	1.555	1.504
455.0	657.9	2304	1384	435.6	400.3	419.7	450.0	464.1	404.2	320.6	275.7	248.3	230.3	216.5	207.3	190.0	178.8	162.1	154.6	146.7	141.3	135.6	134.2	130.8	126.5	120.7	114.3	110.6	102.3	92.74	80.80	69.71	59.88	56.48	65.26	58.49	34.52	22.96	18.53	15.20	12.92	10.80	9.658	17.35	55.15	139.6	360.7	803.2	189.9	8.746	1.905	2.080	2.069	1.819	2.115	2.061	2.118	2.208	2.207	2.284	2.242	2.090	1.916	1.872	1.622	1.621	1.455	1.508	1.408	1.392	1.440	1.450	1.594	1.509	1.594	1.496	1.537
460.0	420.1	1453	2380	604.9	365.9	392.4	425.0	443.0	375.2	299.3	256.8	227.9	218.0	203.1	191.0	176.2	168.3	149.5	142.8	136.2	131.0	122.9	121.8	120.4	116.6	112.7	107.5	104.3	97.15	88.25	79.42	66.28	56.47	49.29	50.70	61.73	45.02	25.75	19.49	15.88	13.24	11.69	9.704	10.02	17.50	35.26	92.31	486.4	805.3	140.2	5.109	2.105	1.975	1.895	1.887	2.057	2.102	2.171	2.130	2.164	2.092	1.972	1.783	1.843	1.684	1.558	1.487	1.444	1.438	1.385	1.377	1.479	1.492	1.382	1.413	1.390	1.479
465.0	358.5	706.4	2411	1003	348.0	368.8	396.0	416.9	351.8	284.9	236.7	216.7	202.9	186.9	176.3	162.1	153.5	139.2	133.8	124.8	121.1	113.9	114.3	110.5	107.5	104.7	99.81	96.65	90.82	82.99	73.76	64.04	53.63	45.98	42.58	50.82	54.31	32.50	20.50	16.44	13.78	12.15	10.20	8.757	9.230	12.38	24.36	130.6	615.3	623.5	25.39	3.318	1.902	1.958	1.772	2.001	1.958	1.950	2.099	2.122	2.095	1.955	1.865	1.744	1.547	1.520	1.382	1.237	1.404	1.432	1.304	1.404	1.537	1.230	1.287	1.348	1.419
470.0	345.3	396.5	1346	1995	556.5	334.6	365.3	371.4	322.7	261.5	217.0	195.1	182.1	170.4	156.5	145.7	135.0	126.6	121.1	111.1	105.9	101.6	100.7	97.21	95.71	92.91	90.26	86.14	83.30	75.70	67.26	59.38	49.84	42.64	37.37	37.18	45.04	42.20	27.05	17.63	14.58	11.95	10.04	9.073	7.513	7.256	9.133	32.66	163.2	395.9	495.3	128.4	10.28	2.073	1.801	1.897	1.972	2.004	2.088	1.930	1.919	1.847	1.723	1.626	1.430	1.421	1.247	1.268	1.291	1.340	1.253	1.382	1.305	1.336	1.217	1.341	1.403
475.0	371.0	309.8	528.8	1820	1387	333.4	326.5	330.8	292.4	241.8	194.6	174.9	161.4	150.0	139.4	128.4	119.6	111.6	103.1	97.63	91.86	90.37	87.65	86.16	83.75	81.77	79.42	76.20	74.08	69.48	62.10	54.11	46.50	39.62	34.52	31.30	31.82	38.87	36.59	21.61	15.09	12.64	10.49	8.951	7.796	6.577	5.750	10.27	39.21	91.46	202.9	522.5	201.4	13.20	1.983	1.945	1.863	1.850	1.948	2.117	1.870	1.689	1.601	1.517	1.300	1.306	1.301	1.310	1.269	1.223	1.217	1.316	1.246	1.203	1.099	1.267	1.306
480.0	366.8	302.8	307.6	1058	2032	502.3	294.6	306.3	269.0	218.8	181.6	160.4	146.6	136.3	128.5	115.8	109.5	100.4	94.42	88.87	84.39	80.71	78.93	78.86	77.09	74.51	72.73	71.10	67.93	63.39	57.65	51.60	43.78	37.57	31.88	29.38	26.91	30.03	37.27	28.15	16.69	12.57	10.31	8.750	7.559	6.539	5.075	5.322	11.48	22.89	49.59	254.3	560.3	178.2	7.186	1.787	1.762	1.834	1.895	1.811	1.689	1.639	1.486	1.408	1.380	1.390	1.198	1.194	1.088	1.256	1.208	1.181	1.118	1.252	1.177	1.140	1.153
485.0	318.1	328.6	243.4	515.2	2018	995.7	284.6	296.8	252.7	206.2	172.7	154.6	141.0	127.4	115.9	111.7	99.27	93.01	88.62	83.53	78.13	74.42	73.11	72.87	71.07	70.52	67.74	64.37	63.55	60.66	53.92	47.60	41.49	35.80	31.71	28.63	24.83	24.01	30.90	32.43	20.35	13.02	10.68	8.891	7.646	6.615	5.556	4.539	5.267	7.584	13.34	65.18	350.7	537.6	31.50	3.648	1.844	1.872	1.728	1.722	1.632	1.536	1.414	1.364	1.272	1.350	1.127	1.240	1.130	1.173	1.116	1.138	1.058	1.232	1.088	1.140	1.106
490.0	235.7	327.3	236.6	282.0	1093	1766	440.0	264.8	228.5	187.7	156.5	144.4	130.4	114.9	106.2	99.00	89.14	83.56	79.96	74.64	70.03	65.97	65.88	64.69	63.80	62.68	60.51	59.60	58.55	54.57	49.51	43.98	38.54	33.25	29.79	26.38	23.11	21.64	22.15	27.56	26.96	16.89	11.03	8.521	7.623	6.376	5.643	4.800	4.272	4.118	5.220	16.91	88.27	275.2	436.0	234.3	13.79	2.125	1.829	1.746	1.570	1.473	1.436	1.260	1.222	1.193	1.117	1.161	1.043	1.064	1.101	1.134	1.072	1.045	1.048	1.026	1.117
495.0	186.2	271.9	267.2	202.1	418.2	1558	1199	249.8	206.9	170.1	141.4	129.6	115.1	103.9	93.73	87.69	79.85	76.09	70.81	65.08	61.78	59.46	58.28	56.71	55.10	55.87	53.58	53.21	50.52	50.01	44.75	39.26	34.43	29.93	27.60	24.13	20.96	19.51	18.36	19.30	23.84	22.82	13.45	8.979	7.618	6.460	5.413	4.892	4.328	3.510	3.468	6.028	21.90	63.83	162.2	498.4	243.5	19.18	1.963	1.735	1.470	1.386	1.344	1.200	1.121	1.119	1.023	1.097	1.082	1.052	1.116	0.994	1.057	1.117	1.036	1.082	1.044
500.0	163.3	221.6	290.0	193.4	226.5	906.2	1795	370.3	189.3	157.7	128.9	117.2	102.1	92.66	83.83	80.00	72.82	67.58	63.93	60.50	55.21	52.88	52.08	51.21	50.40	50.61	48.30	47.98	45.87	45.56	40.93	36.21	31.83	28.11	26.06	22.61	19.89	18.18	16.47	15.40	18.04	23.56	17.56	10.22	7.619	6.538	5.570	4.854	4.763	3.635	3.148	3.781	7.101	16.63	39.54	210.5	554.2	214.4	14.02	1.726	1.658	1.481	1.366	1.138	1.205	1.091	0.921	1.004	0.978	1.033	1.057	0.995	0.949	0.983	1.103	0.987	0.962
505.0	160.5	162.8	267.8	204.1	177.9	413.2	1800	774.4	174.2	137.9	118.0	103.1	92.11	85.30	77.88	72.90	65.68	60.58	58.73	55.51	48.87	48.10	46.54	46.87	46.08	44.52	44.38	43.14	42.00	41.52	37.24	33.09	29.73	25.99	23.49	21.11	18.70	16.68	15.28	13.61	14.52	19.57	20.87	12.56	8.006	6.274	5.486	4.657	4.431	3.898	3.494	3.199	3.689	5.936	11.04	52.48	288.0	536.5	183.0	5.924	1.584	1.470	1.346	1.056	1.131	0.992	0.935	1.066	0.878	1.006	0.943	0.976	0.997	1.001	1.004	0.968	0.862
510.0	144.8	139.8	200.7	233.7	159.3	203.9	995.2	1506	275.7	125.5	102.3	92.42	81.03	74.24	67.60	60.91	56.45	53.23	50.34	46.94	42.97	41.24	40.47	40.25	39.15	39.25	37.28	37.80	37.10	35.89	33.34	29.72	26.33	23.69	20.93	18.64	16.94	15.53	13.64	12.62	12.01	13.27	17.61	15.92	10.34	6.758	5.169	4.633	4.128	3.839	3.669	3.197	2.998	3.501	4.590	13.64	70.50	242.5	462.9	257.3	14.79	1.644	1.274	1.079	1.029	1.032	0.928	1.004	0.968	0.943	0.891	0.903	0.986	0.876	0.864	0.933	0.879
515.0	130.1	126.7	134.6	222.4	162.5	141.6	354.6	1476	852.5	120.1	88.28	76.35	71.42	64.21	58.66	52.59	50.09	47.29	42.64	40.47	37.27	35.05	35.16	34.01	34.12	32.52	32.23	32.01	32.13	30.38	27.81	26.17	22.92	20.88	18.26	17.03	15.36	13.82	12.09	11.70	10.44	9.858	11.24	15.18	14.09	7.791	5.303	4.459	4.001	3.907	3.405	3.571	2.944	2.869	3.074	4.997	17.50	55.86	146.6	505.9	258.0	19.77	1.339	1.082	1.082	1.009	0.890	0.955	0.913	0.844	0.841	0.874	0.893	0.908	0.904	0.821	0.861
520.0	128.9	110.4	106.5	181.9	183.1	124.6	172.1	873.5	1440	204.4	82.91	70.40	61.92	58.27	52.59	50.63	44.63	40.28	37.80	35.31	33.27	32.65	30.80	30.15	29.20	28.98	29.00	28.96	28.41	27.06	25.36	23.88	20.47	18.67	16.87	15.01	14.28	12.28	11.36	10.40	9.463	8.544	8.656	11.29	14.09	10.37	5.957	4.269	3.951	3.434	3.182	3.229	3.269	2.742	2.475	2.833	5.537	14.19	35.08	202.5	586.2	232.7	9.785	1.165	0.987	1.060	0.873	0.927	0.993	0.865	0.877	0.827	0.857	0.838	0.949	0.791	0.903
525.0	115.9	108.7	97.96	137.3	207.9	121.7	127.8	381.7	1595	521.7	78.52	64.36	57.31	52.82	47.14	43.94	39.46	35.38	34.13	31.79	30.28	28.90	27.28	27.14	26.17	25.75	26.48	25.39	25.51	24.81	22.96	20.79	19.12	16.37	15.35	13.49	12.57	11.55	10.61	9.536	8.734	7.970	7.188	8.193	11.73	12.02	7.570	4.419	3.647	3.243	3.076	3.077	3.302	2.974	2.399	2.430	2.977	4.750	9.402	48.89	282.8	574.8	146.0	3.910	0.988	1.051	0.849	0.856	0.905	0.732	0.837	0.723	0.824	0.869	0.812	0.864	0.808
530.0	98.17	96.93	82.22	96.13	178.4	144.1	104.7	166.7	918.6	1206	172.6	55.64	51.10	45.18	40.68	37.78	33.96	31.65	29.71	27.88	25.82	24.18	23.91	22.79	22.52	22.15	22.00	21.97	21.78	20.71	19.45	17.96	16.39	14.36	13.44	11.86	10.89	10.14	9.364	8.851	7.708	7.102	6.394	6.254	7.564	10.55	9.811	5.669	3.697	3.079	2.882	2.858	2.846	3.063	2.721	2.267	2.105	2.602	3.554	12.37	67.97	245.3	350.3	138.2	12.65	1.079	0.997	0.816	0.848	0.826	0.810	0.820	0.766	0.786	0.823	0.810	0.785
535.0	94.23	83.60	71.69	72.72	115.8	179.3	100.2	102.3	299.5	1282	694.9	57.05	43.03	38.04	35.12	31.64	28.82	26.00	24.54	23.50	21.47	20.76	21.02	18.95	19.55	19.18	18.66	18.12	18.95	17.53	16.45	15.14	13.83	12.35	11.63	10.28	9.503	8.729	8.327	7.464	6.605	6.162	5.530	5.289	5.304	6.693	9.027	8.147	4.460	2.970	2.589	2.612	2.500	2.706	2.645	2.284	2.057	1.991	2.127	4.020	16.34	55.90	112.2	283.1	204.5	14.47	0.912	0.855	0.835	0.845	0.791	0.848	0.793	0.709	0.672	0.781	0.835
540.0	85.62	68.65	65.60	62.60	82.56	171.8	111.5	82.07	121.0	775.9	1264	101.4	39.86	34.71	32.04	27.43	24.45	22.89	22.15	20.54	18.77	18.28	17.93	17.67	16.82	16.67	16.27	15.44	15.47	15.49	14.26	13.09	12.24	10.87	10.29	9.213	8.549	7.791	7.480	6.946	5.849	5.593	5.118	4.660	4.496	4.858	6.788	8.755	6.015	3.242	2.439	2.300	2.227	2.411	2.431	2.547	2.244	1.783	1.733	2.063	4.746	13.68	26.65	114.5	302.5	143.6	6.791	0.922	0.974	0.766	0.743	0.698	0.784	0.798	0.649	0.773	0.857
545.0	87.05	72.90	60.03	59.20	61.72	132.3	140.9	75.38	76.95	319.3	1442	245.5	34.10	32.71	27.46	24.89	22.37	20.74	19.81	17.93	17.17	15.95	15.48	14.88	15.20	14.76	14.00	14.05	14.39	13.48	12.54	11.96	11.53	9.873	8.816	8.315	7.560	7.135	6.537	6.209	5.252	4.977	4.722	4.584	4.137	3.773	4.656	7.506	6.824	3.805	2.381	2.126	2.083	2.154	1.909	2.360	2.237	1.724	1.521	1.552	2.118	4.109	7.133	27.92	141.4	282.2	35.00	3.057	0.890	0.801	0.783	0.807	0.852	0.730	0.669	0.770	0.769
550.0	72.92	67.59	56.40	48.77	49.97	82.13	148.0	81.85	60.79	112.3	798.6	847.0	84.62	27.38	23.43	20.13	18.64	16.78	16.13	15.29	13.83	12.94	13.26	12.65	12.56	11.80	11.90	12.05	11.83	11.03	10.56	9.779	9.045	8.402	7.612	6.649	6.636	5.956	5.595	5.379	4.649	4.108	4.073	3.941	3.469	3.247	3.302	4.621	6.086	5.049	3.026	2.078	1.883	1.916	1.817	1.809	2.154	1.905	1.583	1.482	1.428	1.853	2.527	7.057	34.02	118.5	182.0	104.9	11.14	0.859	0.816	0.760	0.764	0.730	0.704	0.740	0.725
555.0	83.07	66.13	51.77	45.83	44.16	51.10	116.8	106.3	50.72	60.52	241.9	1002	360.3	25.22	19.77	17.05	15.58	13.52	13.55	12.57	11.45	10.22	10.52	10.36	9.937	10.35	9.608	9.843	9.845	9.272	9.316	7.729	7.325	6.834	6.355	5.709	5.488	4.868	4.446	4.306	3.826	3.691	3.248	3.222	2.912	2.801	2.624	2.895	3.779	4.721	4.078	2.582	1.705	1.534	1.543	1.436	1.642	1.938	1.798	1.409	1.196	1.410	1.358	2.520	8.392	27.32	58.00	178.7	136.4	11.57	0.917	0.680	0.694	0.692	0.718	0.776	0.759
560.0	87.16	65.11	53.07	45.41	37.22	39.96	81.10	130.7	55.89	49.48	88.09	625.5	755.3	49.09	17.53	14.84	13.49	12.18	11.44	10.81	9.655	9.244	8.732	8.825	8.052	8.154	8.291	7.796	8.052	8.020	7.579	7.410	6.346	6.039	5.231	5.032	4.755	4.102	3.836	3.837	3.440	3.111	2.972	2.462	2.719	2.656	2.450	2.255	2.565	3.722	4.421	3.074	1.667	1.391	1.468	1.290	1.465	1.602	1.903	1.557	1.137	1.169	1.125	1.434	2.627	6.932	13.94	69.20	192.0	92.07	5.003	0.744	0.731	0.667	0.728	0.773	0.763
565.0	86.35	77.89	55.14	43.16	37.37	35.41	57.35	133.3	71.59	43.66	54.81	251.7	958.4	151.6	16.02	13.28	12.22	10.68	10.04	9.302	8.134	8.301	7.531	7.332	7.415	7.165	7.476	6.708	7.240	6.621	6.567	5.922	5.384	5.133	4.589	4.237	3.966	3.676	3.445	3.370	2.962	2.716	2.864	2.274	2.433	2.195	2.175	2.047	2.061	2.666	3.802	3.466	2.120	1.483	1.380	1.240	1.384	1.336	1.471	1.519	1.387	1.155	0.944	1.048	1.332	2.318	3.850	16.94	86.95	174.2	33.77	2.105	0.673	0.639	0.682	0.669	0.682
570.0	102.2	87.59	64.30	44.87	32.74	32.43	39.74	96.18	104.8	50.09	50.82	93.20	600.4	548.7	39.51	11.24	10.18	8.806	8.576	7.732	6.535	6.511	6.440	6.009	5.956	6.151	6.074	5.706	5.875	5.423	5.334	4.787	4.580	4.324	3.807	3.593	3.567	3.097	3.046	2.802	2.627	2.408	2.415	2.172	2.139	2.084	1.930	1.799	1.706	1.673	2.402	3.161	2.497	1.760	1.249	1.136	1.230	1.143	1.180	1.280	1.560	1.280	0.922	0.926	0.978	1.217	1.573	4.516	21.19	73.66	113.5	65.47	7.516	0.721	0.729	0.702	0.632
575.0	108.8	96.86	71.44	50.63	33.63	30.99	34.40	56.61	118.0	68.17	52.73	60.34	191.3	716.0	149.0	9.963	8.738	7.609	6.900	6.160	5.995	5.497	5.231	5.176	4.867	4.983	4.788	4.636	4.726	4.555	4.393	3.876	3.407	3.516	3.411	3.036	2.884	2.807	2.496	2.191	2.390	2.137	1.953	1.812	1.871	1.845	1.634	1.704	1.517	1.393	1.492	2.270	2.771	2.063	1.240	1.074	1.079	0.989	1.069	1.065	1.289	1.538	1.173	0.961	0.992	1.020	1.072	1.712	5.425	17.14	36.07	108.3	81.47	6.524	0.705	0.765	0.698
580.0	119.7	107.3	78.80	54.27	33.35	32.75	31.55	41.60	105.4	95.04	56.68	58.78	77.35	477.3	448.5	19.85	7.757	6.758	5.919	5.349	5.308	4.859	4.350	4.401	4.262	4.032	3.981	4.256	4.135	4.066	3.969	3.420	3.286	2.942	2.721	2.579	2.672	2.582	2.275	2.021	2.056	1.882	1.749	1.700	1.673	1.724	1.412	1.575	1.379	1.151	1.171	1.671	2.230	2.233	1.495	1.115	1.026	0.940	1.003	0.986	1.041	1.444	1.348	1.057	0.926	0.908	0.974	1.097	1.922	4.443	8.856	42.35	117.7	35.02	3.304	0.751	0.688
585.0	126.4	110.8	87.41	55.04	32.66	30.61	29.09	36.73	79.09	119.7	64.75	59.34	49.98	196.5	628.5	79.36	6.629	5.634	5.325	5.354	4.771	4.314	4.436	3.766	3.510	3.897	3.369	3.531	3.401	3.438	3.443	3.011	2.915	2.874	2.386	2.360	2.198	2.152	1.939	1.922	1.847	1.747	1.574	1.614	1.635	1.492	1.368	1.505	1.342	1.033	1.123	1.204	1.675	2.181	1.948	1.164	1.034	0.948	0.936	0.866	0.891	1.117	1.318	1.187	0.939	0.882	0.940	0.914	1.092	1.660	2.704	10.63	54.87	101.9	28.41	1.580	0.735
590.0	132.2	116.5	90.35	53.26	35.21	28.21	30.25	32.69	54.21	116.7	90.31	60.56	46.70	67.06	401.2	323.7	18.44	5.278	4.725	4.398	4.106	3.556	3.525	3.387	3.155	3.283	2.945	3.167	3.018	2.984	2.885	2.661	2.522	2.298	2.206	1.980	2.070	1.957	1.815	1.584	1.577	1.667	1.482	1.458	1.360	1.380	1.322	1.284	1.182	0.969	0.969	1.021	1.126	1.629	1.924	1.548	1.166	0.864	0.913	0.865	0.897	0.946	1.053	1.193	1.168	0.950	0.921	0.930	0.924	1.074	1.221	2.939	13.53	44.45	71.02	44.57	5.586
595.0	116.6	118.6	97.21	51.14	33.29	27.94	28.48	30.87	43.20	88.66	115.7	63.20	46.57	36.95	120.5	459.3	96.28	4.999	3.899	3.753	3.455	3.155	3.091	3.017	2.953	2.965	2.750	2.621	2.316	2.237	2.553	2.293	2.110	2.057	1.836	1.830	1.767	1.687	1.530	1.455	1.402	1.377	1.405	1.461	1.262	1.354	1.258	1.056	1.099	0.864	0.860	0.960	0.860	1.067	1.580	1.694	1.368	0.916	0.845	0.921	0.884	0.885	0.904	1.029	1.144	1.254	0.967	0.913	0.893	0.882	0.855	1.209	3.544	10.44	22.48	68.93	37.62
600.0	123.6	121.6	89.93	52.76	34.82	26.05	26.54	30.82	39.92	65.96	123.0	74.05	49.29	28.81	38.28	316.0	311.9	9.572	3.900	3.061	2.988	2.625	2.685	2.587	2.559	2.614	2.375	2.199	2.380	2.034	2.271	2.057	1.889	1.725	1.656	1.672	1.613	1.429	1.453	1.234	1.278	1.251	1.264	1.163	1.103	1.188	1.127	1.032	0.981	0.864	0.751	0.802	0.781	0.818	1.081	1.511	1.505	1.049	0.866	0.834	0.789	0.809	0.802	0.880	1.059	1.196	0.991	0.904	0.842	0.813	0.859	0.870	1.350	2.842	5.656	26.52	73.57
605.0	118.1	121.5	89.63	52.36	34.46	26.96	27.58	31.27	39.80	54.74	111.5	88.73	46.57	28.68	18.88	130.3	475.7	37.07	3.554	3.179	2.773	2.649	2.718	2.260	2.454	2.448	2.177	2.105	2.222	2.060	1.963	1.850	1.654	1.574	1.468	1.409	1.619	1.450	1.345	1.165	1.281	1.050	1.209	1.046	1.171	1.048	0.976	1.050	0.889	0.797	0.715	0.823	0.713	0.747	0.855	1.230	1.504	1.191	0.805	0.764	0.762	0.814	0.839	0.878	0.878	1.204	1.069	0.866	0.955	0.883	0.818	0.797	0.806	1.255	1.857	6.746	34.35
610.0	125.8	108.8	90.10	50.10	33.26	24.89	26.50	30.38	39.67	52.12	82.62	104.9	53.61	27.81	14.99	39.06	332.0	173.2	8.168	2.959	2.648	2.451	2.307	2.090	2.048	1.968	1.909	1.857	1.909	1.880	1.749	1.656	1.525	1.397	1.362	1.221	1.448	1.419	1.216	1.137	1.146	1.007	1.150	1.004	1.100	0.987	0.969	0.938	0.906	0.763	0.698	0.783	0.709	0.729	0.728	0.896	1.213	1.257	1.043	0.794	0.735	0.814	0.815	0.834	0.907	0.992	1.103	1.059	0.924	0.850	0.753	0.753	0.732	0.811	0.931	2.064	8.549
615.0	114.3	103.1	81.29	46.17	28.40	26.45	24.86	29.86	37.24	46.71	63.45	99.21	66.48	26.53	14.41	15.47	101.7	293.2	52.05	2.872	2.458	2.237	2.437	2.075	1.727	1.777	1.823	1.674	1.732	1.517	1.582	1.268	1.414	1.279	1.335	1.221	1.206	1.162	1.174	1.136	0.936	0.979	1.044	0.926	0.950	0.959	0.946	0.876	0.928	0.656	0.709	0.778	0.707	0.650	0.660	0.779	0.877	1.166	1.234	0.828	0.772	0.920	0.809	0.812	0.817	0.785	0.895	1.021	1.027	0.856	0.801	0.679	0.658	0.640	0.763	0.943	2.430
620.0	100.4	99.36	77.49	43.95	28.47	24.93	26.32	25.80	35.40	42.45	53.35	79.04	77.45	26.93	14.11	11.14	30.36	217.0	153.5	4.660	2.043	2.005	2.066	1.757	1.844	1.635	1.658	1.507	1.543	1.365	1.610	1.266	1.327	1.145	1.072	0.999	1.087	1.042	1.013	1.061	0.873	0.958	0.988	0.825	0.874	0.860	0.877	0.837	0.887	0.689	0.592	0.703	0.608	0.625	0.656	0.639	0.721	0.974	1.145	1.074	0.806	0.793	0.829	0.747	0.802	0.840	0.759	1.002	0.998	0.870	0.747	0.840	0.643	0.629	0.716	0.729	1.169
625.0	83.68	84.85	66.58	46.36	27.49	24.81	23.83	25.88	33.35	40.23	49.95	61.51	81.67	32.21	13.73	9.847	12.24	95.21	244.4	19.35	2.407	1.876	1.851	1.758	1.635	1.505	1.571	1.510	1.455	1.347	1.395	1.375	1.285	1.049	1.137	0.972	1.144	1.033	0.972	0.978	0.898	0.915	0.832	0.819	0.877	0.828	0.819	0.762	0.813	0.605	0.636	0.622	0.594	0.609	0.675	0.677	0.692	0.785	0.932	1.006	0.847	0.813	0.777	0.723	0.912	0.759	0.813	0.797	0.913	1.019	0.827	0.815	0.688	0.607	0.740	0.676	0.772
630.0	91.39	83.70	63.74	39.76	25.65	23.46	21.41	26.01	30.87	37.84	46.06	50.59	70.29	44.49	15.61	10.27	8.914	28.33	187.7	115.4	4.751	1.986	1.763	1.593	1.566	1.405	1.386	1.308	1.249	1.184	1.377	1.197	1.155	1.062	1.083	0.882	0.991	0.945	0.976	0.924	0.966	0.861	0.815	0.769	0.878	0.799	0.730	0.732	0.659	0.621	0.600	0.596	0.675	0.632	0.675	0.644	0.709	0.711	0.794	0.959	0.925	0.847	0.775	0.745	0.794	0.735	0.765	0.746	0.815	0.993	0.875	0.853	0.748	0.653	0.652	0.682	0.700
635.0	101.6	100.1	67.38	37.80	27.37	22.77	20.19	25.09	29.60	36.10	46.62	48.22	55.21	60.85	21.63	13.37	9.172	11.72	61.34	206.6	31.24	1.851	1.751	1.480	1.458	1.284	1.300	1.263	1.131	1.093	1.262	1.111	1.153	0.972	0.837	0.938	0.916	0.929	0.881	0.850	0.903	0.842	0.792	0.773	0.812	0.898	0.721	0.735	0.738	0.565	0.571	0.646	0.628	0.576	0.522	0.602	0.635	0.690	0.794	0.789	0.855	0.813	0.781	0.767	0.756	0.758	0.742	0.736	0.769	0.881	0.740	0.927	0.667	0.667	0.642	0.729	0.694
640.0	115.1	119.8	80.53	41.62	28.86	22.76	21.74	25.93	31.53	39.24	49.82	55.00	52.81	66.86	35.95	19.12	13.65	10.16	19.90	166.4	79.84	2.878	1.594	1.450	1.505	1.301	1.312	1.088	1.084	1.045	1.214	1.028	0.991	1.102	0.983	0.863	0.923	0.894	0.833	0.827	0.842	0.940	0.779	0.890	0.785	0.816	0.712	0.784	0.705	0.608	0.535	0.666	0.623	0.557	0.579	0.635	0.641	0.647	0.702	0.713	0.806	0.878	0.834	0.790	0.729	0.683	0.788	0.835	0.732	0.784	0.844	0.957	0.814	0.728	0.741	0.724	0.679
645.0	144.0	137.7	93.95	46.90	30.31	23.86	23.18	26.90	34.60	41.39	52.67	58.69	56.57	65.50	50.99	25.39	17.91	10.33	10.40	79.39	168.3	11.12	1.791	1.563	1.382	1.315	1.230	1.212	1.088	1.126	1.314	1.038	1.013	1.078	0.848	0.864	0.819	0.863	0.787	0.787	0.831	0.908	0.886	0.798	0.806	0.926	0.865	0.872	0.783	0.615	0.592	0.667	0.577	0.590	0.493	0.624	0.610	0.551	0.661	0.716	0.724	0.733	0.838	0.867	0.746	0.717	0.731	0.839	0.762	0.773	0.872	0.873	0.919	0.804	0.741	0.782	0.737
650.0	152.0	174.7	108.0	56.21	36.54	23.27	25.13	29.28	35.49	45.59	54.87	59.87	56.11	58.62	58.86	30.13	19.54	11.45	8.047	26.94	174.9	48.46	2.009	1.541	1.370	1.247	1.125	1.228	1.086	1.218	1.209	1.061	0.957	1.097	0.857	0.809	0.825	0.787	0.788	0.776	0.812	0.775	0.952	0.787	0.832	0.847	0.893	0.909	0.828	0.758	0.608	0.612	0.564	0.525	0.589	0.568	0.614	0.566	0.614	0.667	0.668	0.775	0.861	0.815	0.764	0.706	0.741	0.853	0.787	0.718	0.876	0.886	0.891	0.888	0.761	0.704	0.738
