Sample:	'1
File name:	T2025060903ºîÐÁ×¯ÊÐ¿Ø.FD3
Run date:	'13:22:18, 06/11/2025
Operator:	Administrator
Comment:	'

Instrument
Model:	F-2700 FL Spectrophotometer
Serial number:	23B8-004
ROM Version:	4J14000 07

Instrument parameters
Measurement type:	3-D scan
Data mode:	Fluorescence
EX  Start WL:	220.0 nm
EX  End WL:	600.0 nm
EX Sampling interval:	5.0 nm
EM  Start WL:	230.0 nm
EM  End WL:	650.0 nm
EM Sampling interval:	5.0 nm
Scan speed:	12000 nm/min
EX Slit:	5.0 nm
EM Slit:	5.0 nm
PMT Voltage:	700 V
Response:	Auto 
Corrected spectra:	Off
Contour interval:	50.000

Peak integration
Integration method:	Rectangular
Sensitivity:	1
Threshold:	1.000

Peaks
No.	ApexEX/EM(nm)	Height(Data)
1	225.0/575.0	70.33
2	225.0/590.0	73.77
3	225.0/615.0	67.93
4	225.0/640.0	73.04
5	230.0/340.0	2605
6	230.0/495.0	403.0
7	230.0/625.0	62.30
8	240.0/260.0	336.7
9	240.0/520.0	282.5
10	245.0/270.0	333.3
11	245.0/535.0	225.8
12	250.0/275.0	415.1
13	250.0/545.0	177.6
14	255.0/280.0	551.3
15	255.0/560.0	150.7
16	260.0/285.0	588.6
17	260.0/575.0	119.4
18	265.0/585.0	113.6
19	270.0/410.0	1152
20	270.0/595.0	96.91
21	275.0/305.0	1651
22	275.0/610.0	117.5
23	280.0/310.0	1713
24	280.0/620.0	108.1
25	285.0/320.0	1688
26	285.0/635.0	84.78
27	445.0/525.0	22.22
28	460.0/345.0	7.143
29	475.0/350.0	6.890
30	500.0/270.0	2.040
31	505.0/275.0	2.903
32	515.0/280.0	3.211
33	520.0/285.0	3.783
34	530.0/290.0	3.698
35	555.0/305.0	8.351
36	560.0/310.0	8.616
37	570.0/315.0	9.275
38	580.0/290.0	41.98
39	580.0/320.0	9.138
40	585.0/325.0	8.546

Data points
	220.0	225.0	230.0	235.0	240.0	245.0	250.0	255.0	260.0	265.0	270.0	275.0	280.0	285.0	290.0	295.0	300.0	305.0	310.0	315.0	320.0	325.0	330.0	335.0	340.0	345.0	350.0	355.0	360.0	365.0	370.0	375.0	380.0	385.0	390.0	395.0	400.0	405.0	410.0	415.0	420.0	425.0	430.0	435.0	440.0	445.0	450.0	455.0	460.0	465.0	470.0	475.0	480.0	485.0	490.0	495.0	500.0	505.0	510.0	515.0	520.0	525.0	530.0	535.0	540.0	545.0	550.0	555.0	560.0	565.0	570.0	575.0	580.0	585.0	590.0	595.0	600.0
230.0	52.23	547.6	2246	1127	70.78	6.172	5.115	4.651	3.748	3.465	3.074	2.648	2.730	2.305	1.895	1.655	1.420	1.226	1.103	1.073	0.985	0.839	0.809	0.738	0.689	0.647	0.620	0.603	0.586	0.583	0.512	0.444	0.488	0.442	0.429	0.433	0.388	0.355	0.355	0.301	0.347	0.429	0.521	0.388	0.318	0.313	0.535	2.982	7.047	6.759	3.188	0.809	0.273	0.214	0.208	0.233	0.220	0.214	0.208	0.212	0.226	0.230	0.229	0.226	0.197	0.195	0.205	0.212	0.227	0.212	0.197	0.217	0.220	0.224	0.218	0.229	0.213
235.0	140.3	169.7	1037	2368	636.5	114.2	5.753	4.750	3.989	3.498	3.412	2.822	3.001	2.326	2.113	1.797	1.503	1.148	1.033	1.066	0.953	0.925	0.847	0.905	0.638	0.663	0.685	0.558	0.669	0.511	0.453	0.478	0.425	0.446	0.460	0.376	0.331	0.324	0.363	0.270	0.339	0.368	0.403	0.477	0.558	0.425	0.340	0.904	2.248	4.287	6.955	9.188	5.405	1.509	0.389	0.235	0.207	0.246	0.210	0.204	0.206	0.184	0.203	0.227	0.163	0.170	0.196	0.316	0.223	0.243	0.254	0.234	0.220	0.200	0.228	0.218	0.227
240.0	162.9	158.5	291.2	1466	2690	523.1	62.58	5.639	4.995	3.979	3.194	3.351	2.867	2.264	2.266	1.633	1.598	1.315	1.160	1.171	1.077	0.926	0.782	0.802	0.800	0.636	0.653	0.705	0.588	0.515	0.477	0.508	0.425	0.443	0.342	0.364	0.402	0.265	0.324	0.346	0.324	0.374	0.333	0.435	0.623	0.705	0.536	0.529	0.687	1.269	2.974	7.855	12.56	11.09	5.306	1.008	0.240	0.302	0.244	0.249	0.202	0.211	0.230	0.213	0.227	0.241	0.202	0.276	0.237	0.221	0.208	0.215	0.204	0.227	0.181	0.215	0.223
245.0	89.87	221.3	153.8	424.2	2083	3033	407.1	26.65	5.758	4.351	4.373	3.458	3.687	2.677	2.176	1.886	1.575	1.451	1.164	1.060	1.060	0.829	0.776	0.839	0.740	0.653	0.636	0.567	0.702	0.634	0.464	0.472	0.457	0.466	0.359	0.374	0.347	0.326	0.372	0.398	0.288	0.334	0.374	0.336	0.378	0.567	0.750	0.832	0.494	0.525	0.886	2.268	6.458	12.85	16.12	11.03	3.965	0.605	0.227	0.239	0.262	0.245	0.277	0.221	0.248	0.211	0.238	0.358	0.225	0.189	0.213	0.195	0.189	0.203	0.179	0.199	0.202
250.0	43.41	138.0	239.3	213.8	590.3	2068	3258	1393	104.3	7.542	5.186	4.441	3.662	3.299	2.268	2.023	1.695	1.610	1.337	1.139	1.009	0.943	0.819	0.765	0.872	0.793	0.643	0.713	0.597	0.604	0.530	0.546	0.487	0.435	0.380	0.383	0.400	0.349	0.336	0.380	0.352	0.343	0.309	0.360	0.360	0.360	0.482	0.744	0.869	0.881	0.676	0.813	1.719	3.777	7.274	11.96	16.90	16.73	11.34	4.068	0.622	0.271	0.262	0.249	0.239	0.241	0.209	0.263	0.195	0.219	0.224	0.277	0.226	0.221	0.193	0.205	0.201
255.0	29.06	52.70	131.2	295.0	263.5	499.8	1694	4896	2017	134.5	7.822	5.829	4.735	4.355	3.334	2.606	2.096	1.944	1.469	1.042	0.998	1.120	0.969	0.780	0.853	0.752	0.785	0.721	0.618	0.718	0.612	0.551	0.481	0.397	0.433	0.443	0.434	0.391	0.339	0.305	0.446	0.339	0.379	0.330	0.336	0.350	0.344	0.377	0.389	0.702	1.139	1.357	1.046	1.142	1.879	2.952	4.925	10.90	22.90	28.58	18.47	5.037	0.540	0.318	0.227	0.275	0.215	0.279	0.276	0.220	0.272	0.234	0.259	0.252	0.192	0.242	0.196
260.0	29.00	29.18	46.08	214.3	336.7	194.4	456.4	2857	6072	1609	79.95	8.311	5.721	4.786	3.217	2.379	2.176	1.857	1.445	1.325	1.127	1.246	1.125	0.960	0.967	0.829	0.703	0.755	0.596	0.695	0.616	0.572	0.501	0.479	0.463	0.467	0.529	0.414	0.357	0.365	0.349	0.347	0.423	0.363	0.335	0.334	0.306	0.329	0.255	0.336	0.681	1.359	1.804	1.301	0.803	0.914	1.371	2.828	7.764	19.68	33.02	28.73	15.80	3.011	0.339	0.348	0.256	0.229	0.272	0.265	0.251	0.201	0.243	0.294	0.252	0.240	0.261
265.0	33.33	27.61	26.61	90.33	328.0	299.4	148.7	809.5	4401	6748	1201	31.71	7.154	5.259	3.594	2.959	2.436	1.728	1.512	1.615	1.151	1.148	1.184	0.980	0.959	0.889	0.744	0.689	0.654	0.807	0.698	0.697	0.516	0.559	0.458	0.391	0.440	0.378	0.373	0.398	0.347	0.411	0.428	0.354	0.428	0.353	0.282	0.325	0.243	0.337	0.381	0.592	1.353	2.031	1.542	0.862	0.623	0.950	2.019	5.159	13.29	28.95	42.97	26.80	11.69	1.428	0.361	0.283	0.271	0.343	0.299	0.224	0.269	0.252	0.243	0.311	0.310
270.0	58.80	52.77	36.11	44.44	137.2	333.3	309.1	249.8	1210	4351	7054	2892	73.72	7.952	5.442	3.866	2.869	2.397	1.892	1.732	1.350	1.155	1.166	1.020	0.922	1.049	0.797	0.799	0.783	0.670	0.701	0.648	0.647	0.575	0.607	0.479	0.456	0.457	0.418	0.397	0.412	0.435	0.477	0.370	0.406	0.396	0.338	0.396	0.290	0.336	0.311	0.377	0.576	0.976	1.418	1.879	2.040	1.276	0.959	1.528	3.322	7.724	16.16	25.68	36.51	34.50	18.43	8.771	1.536	0.325	0.308	0.316	0.290	0.305	0.274	0.303	0.272
275.0	124.9	117.6	96.57	60.99	62.36	141.5	415.1	356.1	335.6	1046	3150	9536	1315	84.80	8.358	5.225	3.752	3.353	2.166	1.989	1.499	1.284	1.163	1.208	1.113	1.170	1.066	0.792	0.899	0.768	0.774	0.736	0.562	0.695	0.748	0.663	0.639	0.567	0.585	0.551	0.547	0.478	0.493	0.477	0.550	0.633	0.504	0.597	0.393	0.371	0.454	0.437	0.471	0.507	0.673	0.848	1.853	2.903	2.810	1.328	1.154	2.124	3.973	6.158	9.440	16.49	37.13	56.38	28.85	11.66	1.037	0.317	0.276	0.295	0.275	0.337	0.281
280.0	218.7	207.4	179.7	105.4	67.20	76.47	228.9	551.3	295.5	317.2	848.2	4998	9787	1040	45.22	6.956	4.999	3.595	2.480	2.381	1.713	1.553	1.437	1.228	1.220	1.313	1.006	1.015	0.826	0.803	0.865	0.807	0.539	0.755	0.695	0.816	0.678	0.588	0.703	0.582	0.553	0.596	0.614	0.656	0.716	0.835	0.803	0.779	0.652	0.514	0.523	0.579	0.449	0.490	0.541	0.561	0.898	1.654	3.108	3.211	1.896	1.235	1.427	1.891	2.757	4.574	10.76	28.28	49.68	59.02	24.89	6.073	0.522	0.402	0.332	0.362	0.299
285.0	305.4	323.6	265.5	157.6	93.73	77.46	122.7	407.1	588.6	251.5	317.0	1399	6799	8451	704.0	17.60	6.615	4.347	3.163	2.899	1.888	1.864	1.571	1.330	1.360	1.147	1.113	0.890	1.010	0.800	0.895	0.686	0.660	0.750	0.792	0.784	0.879	0.799	0.816	0.620	0.700	0.679	0.715	0.705	0.830	0.922	0.980	1.133	0.975	0.835	0.609	0.628	0.593	0.592	0.551	0.544	0.618	0.825	1.564	2.871	3.783	2.669	1.397	1.164	1.330	1.889	3.115	7.462	16.62	38.92	59.50	33.64	18.89	2.977	0.434	0.338	0.350
290.0	405.1	462.2	383.8	241.3	141.9	113.9	131.2	228.2	509.5	644.3	374.3	526.2	1882	5488	7144	2287	39.20	7.053	4.358	3.094	2.510	2.058	1.785	1.581	1.391	1.316	1.194	1.021	0.979	0.821	0.855	0.819	0.815	0.821	0.830	0.880	1.015	0.956	1.004	0.827	0.728	0.864	0.777	0.914	1.031	1.248	1.228	1.414	1.259	1.076	0.896	0.804	0.763	0.746	0.658	0.691	0.784	0.832	1.032	1.536	2.265	3.069	3.698	3.291	2.199	1.821	1.867	2.743	4.801	9.934	18.81	27.41	41.98	39.23	34.33	13.06	3.362
295.0	547.5	569.8	501.2	347.3	212.6	183.3	192.1	232.0	342.1	654.2	877.5	516.6	713.8	1437	3212	8679	732.0	45.76	6.911	4.385	3.048	2.638	2.181	1.782	1.615	1.479	1.168	1.325	1.082	0.952	0.895	0.929	0.879	0.868	0.874	1.035	1.125	1.251	0.990	0.887	0.870	1.061	0.942	1.160	1.256	1.512	1.462	1.608	1.464	1.445	1.163	1.074	1.062	1.005	0.947	0.930	1.147	1.012	1.168	1.257	1.601	1.884	2.488	3.788	5.270	4.282	2.626	2.338	2.701	3.700	5.616	7.215	10.77	14.01	33.72	56.90	35.38
300.0	620.5	679.8	621.0	437.6	292.4	267.2	291.4	344.9	363.3	633.7	1131	1003	678.8	691.7	1014	4735	8067	607.4	26.64	5.689	3.905	3.243	2.309	1.853	1.671	1.357	1.324	1.410	1.228	1.079	0.996	0.852	0.878	0.923	0.951	1.081	1.234	1.224	1.419	1.117	1.039	1.260	1.141	1.265	1.468	1.651	1.642	1.999	1.954	1.622	1.461	1.437	1.251	1.364	1.203	1.218	1.407	1.525	1.785	1.725	2.085	2.263	2.894	3.401	4.705	6.179	6.139	4.452	3.566	3.400	3.479	3.654	4.287	4.686	9.769	22.74	44.25
305.0	734.3	818.7	776.0	548.9	413.9	383.9	440.2	547.2	658.4	886.8	1242	1651	1150	820.5	717.1	1522	6135	5287	434.5	11.77	5.197	3.813	2.781	2.093	1.906	1.673	1.596	1.363	1.303	1.269	1.091	0.908	0.815	0.845	0.949	1.206	1.349	1.422	1.615	1.273	1.116	1.166	1.358	1.558	1.702	1.991	2.017	2.241	2.323	1.897	1.712	1.792	1.875	1.590	1.758	1.662	2.004	2.013	2.522	2.869	3.127	3.429	3.963	4.525	5.080	6.185	7.614	8.351	6.715	5.391	4.654	3.833	4.041	4.155	4.622	7.216	13.91
310.0	829.0	975.2	935.9	695.4	521.0	505.2	575.3	708.1	832.0	1058	1302	1644	1713	1155	828.9	793.4	1941	4498	5292	1562	26.18	5.196	3.815	2.744	2.315	1.913	1.651	1.541	1.372	1.309	1.128	1.002	0.985	0.892	1.028	1.206	1.294	1.463	1.464	1.446	1.281	1.438	1.496	1.721	1.859	2.215	2.350	2.779	2.827	2.412	2.043	2.212	2.122	2.070	2.117	2.075	2.443	2.886	3.066	3.566	3.708	4.089	4.797	5.167	5.803	6.189	6.905	8.037	8.616	8.507	7.488	5.783	5.001	4.540	4.311	4.389	5.502
315.0	950.3	1124	1100	838.5	646.4	591.0	687.3	817.5	937.7	1133	1386	1587	1700	1645	1062	731.5	880.2	1282	2832	6770	526.5	27.51	5.213	3.618	2.821	2.078	2.047	1.607	1.449	1.277	1.302	1.115	1.080	1.021	1.094	1.319	1.286	1.570	1.529	1.558	1.446	1.492	1.698	1.842	2.090	2.637	2.946	3.146	3.188	2.758	2.323	2.669	2.601	2.527	2.633	2.610	3.049	3.344	3.500	3.853	3.979	4.495	5.339	5.421	6.283	6.473	7.063	7.661	7.883	8.065	9.275	8.156	7.088	5.912	4.579	4.310	4.134
320.0	1037	1336	1327	979.2	716.1	667.4	766.0	867.3	987.6	1200	1437	1616	1672	1688	1401	819.1	700.1	590.9	803.2	4146	5916	435.5	12.84	4.767	3.106	2.486	2.087	1.790	1.621	1.521	1.379	1.418	0.923	1.046	1.089	1.222	1.315	1.567	1.559	1.635	1.510	1.535	1.822	2.101	2.146	2.762	3.212	3.777	3.848	3.430	2.910	3.081	2.832	2.705	2.893	2.703	3.296	3.557	3.748	4.279	4.413	5.050	5.336	5.838	6.657	6.959	6.962	7.603	7.670	7.811	8.355	8.481	9.138	8.142	5.980	4.607	4.149
325.0	1218	1573	1685	1251	862.2	714.5	781.2	893.4	996.3	1213	1438	1635	1654	1578	1540	977.6	691.6	461.1	321.5	1175	4977	3879	61.81	7.639	4.089	3.175	2.473	1.977	1.645	1.507	1.431	1.304	1.181	0.934	1.043	1.052	1.336	1.492	1.560	1.636	1.558	1.786	1.796	2.234	2.339	3.241	4.022	4.616	4.781	4.049	3.423	3.796	3.183	2.922	2.932	3.170	3.514	3.892	4.138	4.387	4.534	4.776	5.333	5.904	6.359	6.749	6.983	7.361	8.012	7.752	7.930	7.588	8.481	8.546	7.758	6.153	4.576
330.0	1397	1956	2139	1740	1170	857.5	818.6	903.1	999.2	1191	1416	1610	1641	1521	1380	1171	837.4	481.4	268.1	383.3	1408	3621	4172	1185	19.72	4.241	3.096	2.573	2.133	1.617	1.498	1.471	1.226	1.073	1.049	1.142	1.361	1.402	1.491	1.544	1.569	1.830	2.105	2.235	2.788	3.785	4.548	5.638	5.845	5.542	4.794	5.064	4.260	3.794	3.414	3.398	3.525	3.899	4.090	4.423	4.381	4.736	5.197	5.620	6.105	6.771	6.939	7.514	7.859	7.848	7.732	7.622	7.511	7.609	7.381	7.344	6.573
335.0	1461	2115	2490	2103	1506	1025	870.2	923.0	990.7	1170	1376	1555	1610	1498	1310	1098	1022	628.8	320.8	260.6	431.1	908.0	2591	5584	428.2	22.27	4.253	3.097	2.544	2.097	1.651	1.680	1.367	1.403	1.077	1.088	1.213	1.514	1.443	1.480	1.732	1.873	1.989	2.537	2.946	4.022	4.852	6.060	6.506	6.123	5.805	6.282	5.590	4.714	4.068	3.595	3.710	3.932	4.229	4.402	4.387	4.710	4.896	5.666	5.957	6.340	7.020	7.189	7.412	7.563	7.209	7.930	7.044	7.196	6.758	6.595	6.495
340.0	1524	2175	2605	2258	1611	1105	901.6	911.2	980.2	1130	1343	1495	1555	1458	1277	1041	953.6	787.4	401.8	267.3	239.3	302.0	714.8	3730	4895	364.7	9.999	4.125	3.185	2.306	1.794	1.695	1.321	1.453	1.148	1.192	1.348	1.392	1.363	1.465	1.637	1.924	1.921	2.544	3.098	3.832	4.935	6.286	6.688	6.526	6.146	6.846	6.025	5.274	4.358	3.832	3.610	3.858	4.173	4.391	4.458	4.608	5.117	5.394	5.964	6.517	6.820	7.079	7.386	7.619	7.121	7.574	7.452	7.032	6.271	6.090	5.801
345.0	1486	2156	2554	2291	1675	1144	916.3	908.0	969.1	1108	1270	1416	1469	1392	1228	1002	846.4	784.8	537.5	306.7	224.5	193.8	245.0	1075	4417	3247	52.90	6.585	3.921	2.735	2.013	1.742	1.326	1.305	1.210	1.236	1.127	1.267	1.277	1.463	1.568	1.828	1.921	2.583	3.185	4.260	4.636	6.215	7.143	6.851	6.231	6.839	6.050	5.315	4.389	3.922	3.772	3.766	4.136	3.939	4.388	4.511	5.031	5.351	5.578	6.023	6.224	6.628	6.978	7.044	7.067	7.071	7.062	6.813	6.399	5.790	5.621
350.0	1400	2041	2410	2230	1686	1192	940.0	919.9	960.4	1067	1203	1310	1356	1310	1168	973.1	814.0	695.5	626.7	457.5	285.3	213.5	179.9	324.3	1261	3106	3462	1014	18.46	4.009	2.607	1.938	1.478	1.397	1.279	1.318	1.181	1.325	1.379	1.442	1.476	1.674	1.998	2.383	2.924	3.867	4.367	5.800	6.395	6.391	6.123	6.890	6.345	5.561	4.756	4.005	3.940	4.005	4.065	4.044	4.371	4.542	4.868	5.139	5.313	5.536	5.856	6.244	6.410	6.696	6.699	6.589	6.416	6.529	6.165	5.720	5.565
355.0	1307	1822	2167	2118	1682	1234	979.5	942.6	973.0	1053	1140	1228	1272	1225	1109	955.7	815.1	677.3	577.5	574.6	425.0	272.8	211.2	195.0	361.0	762.8	2153	4561	394.9	20.95	4.044	2.420	1.981	1.513	1.362	1.346	1.346	1.330	1.371	1.310	1.469	1.620	1.890	2.142	2.475	3.523	3.913	4.972	5.782	5.720	5.881	6.285	5.907	5.590	4.853	4.202	4.015	3.880	3.913	3.801	4.301	4.509	4.762	4.975	5.227	5.459	5.597	5.704	6.050	6.211	6.155	6.427	6.404	5.922	5.903	5.483	5.611
360.0	1197	1692	2003	1981	1625	1233	991.3	957.5	971.0	1037	1116	1180	1213	1171	1070	941.8	815.2	690.2	578.6	554.4	539.9	356.6	252.4	193.2	184.0	239.7	586.2	3080	3260	346.2	10.78	3.379	2.490	1.673	1.256	1.300	1.262	1.408	1.322	1.467	1.534	1.434	2.041	2.144	2.513	3.178	3.646	4.556	5.386	5.448	5.185	6.063	5.559	5.532	4.844	4.315	4.272	4.014	3.923	4.116	4.424	4.755	4.885	4.692	4.982	5.013	5.229	5.332	5.681	6.049	5.885	6.003	5.969	5.915	5.617	5.572	5.727
365.0	1084	1562	1858	1847	1582	1222	1017	973.1	988.1	1033	1093	1140	1160	1114	1037	925.8	813.5	706.9	604.9	540.5	551.7	473.6	305.8	224.9	173.2	148.6	194.8	888.9	3618	3051	50.26	6.205	3.171	2.134	1.665	1.542	1.386	1.331	1.358	1.324	1.486	1.564	1.770	2.104	2.359	3.010	3.366	4.428	4.965	5.008	4.871	5.588	5.532	5.467	4.871	4.327	4.715	4.049	4.110	4.169	4.540	4.460	4.881	4.637	4.703	5.002	5.141	5.598	5.376	5.639	5.545	5.824	5.660	6.017	5.751	5.592	5.378
370.0	1053	1401	1695	1700	1513	1235	1047	1005	1003	1034	1076	1104	1106	1067	992.7	902.0	810.9	729.1	638.4	575.1	529.1	529.5	436.4	297.1	216.3	166.7	140.8	267.8	1049	2841	3285	980.9	17.36	3.399	2.283	1.727	1.445	1.430	1.377	1.330	1.339	1.607	1.624	1.903	2.304	2.815	3.138	3.937	4.609	4.552	4.487	5.510	5.486	5.322	4.897	4.290	4.667	4.334	4.424	4.584	4.517	4.565	4.833	4.828	4.922	5.169	4.960	5.109	5.113	5.481	5.242	5.547	5.623	5.648	5.437	5.387	5.315
375.0	979.4	1297	1552	1575	1451	1229	1078	1026	1005	1038	1068	1079	1072	1031	962.9	885.4	811.7	745.2	673.7	609.6	549.1	511.1	513.3	425.3	284.1	217.1	174.8	166.3	309.1	705.6	2016	4213	344.0	20.07	3.739	2.260	1.862	1.716	1.446	1.446	1.402	1.485	1.723	1.737	2.393	2.782	3.027	3.686	4.146	4.237	4.272	5.143	5.118	4.933	4.760	4.435	4.693	4.662	4.314	4.350	4.453	4.831	4.587	4.739	5.080	5.027	4.809	5.102	5.066	5.250	5.262	5.210	5.316	5.705	5.328	5.127	5.323
380.0	930.7	1217	1466	1489	1422	1234	1089	1025	1026	1037	1065	1065	1059	1010	937.4	873.9	806.4	753.5	688.8	635.4	576.4	519.8	501.8	504.1	365.8	263.9	214.5	172.9	170.4	233.9	563.8	2779	3711	296.1	10.53	3.068	2.295	1.888	1.624	1.413	1.546	1.486	1.797	1.805	2.378	2.730	2.885	3.456	3.812	3.947	4.097	4.905	4.916	4.901	4.616	4.545	4.686	4.678	4.303	4.517	4.620	4.643	4.652	4.801	4.821	4.859	4.799	5.217	4.813	5.205	5.061	5.258	5.253	5.416	4.975	4.956	5.204
385.0	895.2	1173	1372	1426	1374	1231	1079	1049	1018	1029	1059	1055	1034	995.2	917.2	851.3	800.1	749.3	696.4	651.9	599.7	545.7	499.8	503.2	454.2	321.3	250.7	204.2	162.9	149.3	203.4	804.7	3157	2575	223.2	5.713	2.965	2.117	1.739	1.696	1.539	1.638	1.885	1.802	2.134	2.555	2.449	3.374	3.788	3.659	3.840	4.595	4.920	4.995	4.783	4.449	4.524	4.780	4.553	4.701	4.643	4.892	4.615	4.717	4.720	4.938	4.770	4.946	4.589	5.055	5.180	5.266	5.335	5.094	4.880	4.942	5.325
390.0	877.5	1147	1311	1353	1304	1192	1087	1049	1029	1026	1043	1026	1002	971.3	896.7	828.3	782.1	741.4	695.0	657.8	616.3	571.7	525.4	494.3	479.2	423.0	316.5	252.3	199.6	162.7	148.0	252.2	881.8	2200	2619	844.2	16.29	3.711	2.307	2.052	1.717	1.837	1.831	1.956	2.111	2.559	2.451	3.148	3.576	3.302	3.562	4.346	4.585	4.702	4.693	4.310	4.495	4.617	4.571	4.454	4.719	4.741	4.495	4.792	4.849	4.834	4.816	4.695	4.598	4.959	5.210	4.800	4.966	4.967	4.799	4.767	5.180
395.0	838.6	1081	1240	1281	1240	1166	1095	1052	1053	1045	1053	1039	1008	961.3	888.3	820.8	769.8	737.6	698.9	665.2	632.9	598.0	557.1	518.1	482.3	479.2	431.0	326.9	262.0	214.3	178.7	163.7	264.3	545.2	1436	3237	1210	21.45	3.862	2.575	1.954	1.825	1.805	2.019	2.157	2.484	2.579	3.000	3.290	3.206	3.523	4.237	4.552	4.565	4.477	4.326	4.682	4.711	4.758	4.607	4.740	4.631	4.589	4.745	4.649	4.801	4.617	4.624	4.616	4.705	4.863	4.792	4.808	4.817	4.614	4.794	4.980
400.0	822.0	1020	1203	1241	1221	1158	1094	1058	1060	1073	1093	1075	1044	981.0	903.0	823.1	761.3	727.3	695.2	676.0	646.6	619.2	588.7	556.6	516.2	495.9	497.9	418.6	320.6	269.9	224.4	179.4	153.4	186.1	395.6	1912	3150	272.6	14.19	3.484	2.246	1.993	2.145	2.056	2.253	2.521	2.586	2.919	3.294	3.181	3.539	4.200	4.281	4.434	4.398	4.362	4.510	4.634	4.529	4.692	4.643	4.971	4.845	4.914	4.788	4.554	4.592	4.851	4.860	4.821	4.692	4.965	4.844	4.821	4.572	4.506	4.887
405.0	786.6	1050	1147	1223	1174	1158	1102	1074	1069	1102	1125	1114	1071	1010	919.3	830.8	763.6	724.5	693.4	678.5	656.5	637.6	617.4	592.1	555.2	521.9	519.1	499.8	394.0	324.1	274.5	216.3	156.7	129.6	151.6	535.4	2248	2259	223.8	7.438	2.801	2.320	2.066	2.102	2.211	2.421	2.508	3.027	3.248	3.203	3.547	4.016	4.284	4.392	4.393	4.430	4.607	4.751	4.601	4.625	4.568	4.853	5.147	4.741	5.291	4.729	4.806	4.824	4.715	4.736	4.793	4.893	5.042	4.902	4.714	4.628	4.683
410.0	764.8	1001	1097	1147	1142	1123	1090	1086	1080	1126	1152	1136	1084	1022	924.8	823.7	749.6	706.2	681.3	666.1	651.5	643.6	631.0	616.2	587.5	554.4	530.3	522.8	478.5	391.9	319.8	255.9	188.1	141.1	118.3	181.2	613.5	1618	2135	816.5	16.12	3.208	2.515	2.313	2.221	2.327	2.649	3.040	3.151	3.194	3.284	4.069	4.329	4.401	4.425	4.363	4.609	4.566	4.719	4.674	4.570	4.818	5.112	4.960	5.056	4.852	4.726	4.730	4.725	4.672	4.784	4.743	4.677	4.769	4.406	4.711	4.693
415.0	778.1	932.1	1043	1077	1076	1090	1058	1071	1062	1099	1133	1105	1051	987.5	888.3	794.9	717.1	671.1	651.7	637.8	631.1	624.5	619.1	610.9	589.3	558.5	529.0	504.0	487.3	447.5	356.0	274.7	206.6	156.1	118.5	109.7	186.0	394.3	973.5	2487	1154	21.92	2.858	2.672	2.637	2.626	2.476	2.909	3.090	3.036	2.924	3.810	4.208	4.233	4.332	4.139	4.570	4.372	4.838	4.730	4.872	4.686	4.780	4.866	4.617	4.705	4.815	4.755	4.416	4.643	4.700	4.669	4.520	4.722	4.658	4.626	4.348
420.0	757.5	884.1	1018	1043	1031	1052	1035	1044	1037	1064	1100	1069	1014	940.9	844.3	750.5	684.3	639.4	620.7	612.5	601.8	600.0	599.2	593.5	574.6	550.4	523.3	490.9	460.7	455.2	386.2	283.2	213.3	163.9	124.3	97.52	93.64	120.9	248.5	1277	2528	263.3	14.63	3.149	2.736	2.678	2.327	2.907	3.057	2.941	2.780	3.618	3.974	4.175	4.069	4.137	4.351	4.338	4.732	4.740	4.743	4.641	4.640	4.698	4.651	4.638	4.594	4.346	4.509	4.452	4.581	4.405	4.437	4.592	4.248	4.179	4.281
425.0	718.4	863.9	950.8	1018	1014	1013	1011	1004	1022	1044	1062	1037	988.6	904.6	819.9	725.7	652.3	616.0	594.0	588.7	579.6	583.3	580.9	576.9	565.2	543.8	515.9	483.6	454.4	434.0	405.2	307.8	224.1	173.2	131.5	100.9	77.35	62.70	77.71	329.4	1541	2089	228.1	7.816	3.148	2.888	2.446	2.858	3.076	2.909	2.893	3.550	3.881	3.825	3.740	3.885	4.222	4.351	4.530	4.540	4.406	4.325	4.424	4.696	4.550	4.093	4.429	4.377	4.220	4.382	4.320	4.188	4.198	4.127	4.248	4.282	3.854
430.0	850.7	799.0	910.1	953.2	978.4	976.7	983.0	985.7	1004	1022	1041	1016	959.4	881.2	787.8	695.0	624.3	580.1	563.1	556.7	554.1	552.8	558.5	557.3	552.2	531.4	511.1	485.4	455.0	422.4	396.3	344.2	256.7	188.4	144.9	113.2	83.82	58.70	46.00	92.44	388.5	1176	1760	786.9	16.78	3.501	2.792	2.940	2.992	2.757	2.853	3.468	3.540	3.852	3.575	3.900	4.298	4.173	4.300	4.351	4.522	4.424	4.439	4.357	4.492	4.388	4.337	4.325	4.100	4.243	4.144	4.104	4.155	4.022	3.919	3.915	3.785
435.0	1249	796.2	880.5	916.0	922.1	932.0	952.0	982.2	978.1	1005	1025	983.8	928.9	849.0	753.4	661.7	592.4	549.9	535.2	523.1	527.1	529.1	536.5	535.7	533.5	518.5	497.5	477.6	451.2	418.8	382.5	339.3	291.6	212.7	160.1	126.7	94.21	66.45	45.25	44.08	103.6	276.2	665.1	2015	1242	24.50	3.440	2.938	2.814	2.835	2.886	3.214	3.579	3.713	3.653	3.686	4.200	3.974	4.420	4.399	4.140	4.376	4.179	4.482	4.275	4.151	4.272	4.106	3.959	4.084	4.075	3.970	3.955	3.692	3.776	3.652	3.733
440.0	1378	963.5	815.0	875.7	890.6	917.1	924.2	935.7	948.7	976.7	987.5	942.8	888.8	800.3	714.3	631.5	562.4	524.7	506.6	498.5	496.5	500.4	506.7	513.7	506.3	497.4	477.5	461.4	435.8	408.3	369.7	319.1	288.6	231.9	169.6	131.8	99.43	70.73	48.98	37.26	42.85	76.60	163.9	912.2	2223	923.0	17.04	3.760	3.148	2.698	2.809	3.218	3.482	3.587	3.541	3.584	4.057	3.777	4.238	4.392	4.334	4.188	3.920	4.251	4.107	3.863	3.952	4.059	3.814	3.598	4.023	3.908	3.793	3.664	3.429	3.619	3.544
445.0	1270	1361	796.7	836.0	875.2	869.6	890.9	905.7	922.7	939.2	940.4	900.2	841.8	762.1	676.0	588.8	530.3	492.0	478.9	468.3	468.6	468.9	479.3	481.6	475.3	469.8	451.4	438.8	419.3	391.3	352.3	304.7	266.9	237.9	179.8	134.7	103.9	74.23	52.74	38.49	32.56	34.05	49.44	225.8	1179	2096	212.5	12.71	3.455	2.938	2.877	3.049	3.411	3.345	3.556	3.480	4.220	3.871	4.254	4.177	4.189	4.395	4.058	4.130	4.238	3.737	3.694	3.747	3.528	3.537	3.724	3.620	3.602	3.496	2.867	3.500	3.577
450.0	838.5	1796	1080	770.7	796.8	805.5	836.4	844.3	857.2	864.7	865.4	830.3	770.6	692.6	618.0	541.7	484.2	453.5	435.6	428.5	422.9	427.9	434.4	437.9	432.9	426.7	415.0	403.6	385.6	361.3	327.9	286.1	243.5	213.2	188.0	144.5	104.9	77.36	57.57	43.78	33.93	27.72	26.21	62.01	289.4	987.6	1508	826.1	15.98	3.471	2.811	3.012	3.184	3.260	3.487	3.225	3.849	3.591	3.990	3.796	3.796	3.924	3.652	3.978	3.754	3.671	3.521	3.414	3.610	3.456	3.306	3.309	3.223	3.279	3.056	3.145	3.262
455.0	509.3	1417	1866	775.2	721.3	751.1	770.7	785.7	784.6	803.0	788.4	761.0	697.3	629.8	551.7	483.2	439.5	406.8	394.9	383.9	380.8	380.8	388.0	392.7	387.3	383.6	374.5	364.3	352.0	329.8	301.3	264.3	225.8	192.3	171.9	154.1	113.2	80.85	60.72	47.33	37.43	29.18	23.94	28.03	75.30	229.2	488.0	1559	1092	20.46	3.181	3.199	3.080	2.992	3.195	3.189	3.439	3.464	3.272	3.536	3.367	3.720	3.651	3.549	3.627	3.592	3.288	3.188	3.263	3.348	3.061	2.953	3.017	2.851	3.008	2.816	2.933
460.0	449.1	928.9	2207	968.8	692.7	696.1	715.2	740.1	741.3	746.2	737.6	699.9	639.7	583.0	505.9	444.3	400.0	374.2	359.1	354.0	348.8	351.8	355.0	355.0	354.3	351.6	344.6	335.0	320.3	308.1	284.6	251.1	213.3	180.3	155.7	147.0	123.6	85.51	63.65	50.48	40.02	31.86	25.28	21.45	29.05	60.56	118.1	615.5	1730	804.8	15.61	3.506	3.125	2.866	3.075	3.115	3.154	3.245	3.179	3.202	3.379	3.474	3.453	3.405	3.268	3.301	3.283	3.112	3.050	2.926	2.961	2.960	2.839	3.059	2.590	2.712	2.728
465.0	409.1	631.2	1902	1681	648.6	647.4	667.8	684.2	693.1	699.2	690.8	651.6	594.2	533.3	469.5	409.6	370.2	345.2	327.9	326.6	321.8	323.9	323.3	326.6	325.5	324.5	317.3	309.5	299.1	288.0	265.1	237.9	202.7	172.5	147.9	133.6	123.0	91.24	66.11	51.15	42.03	33.36	26.43	21.24	19.84	24.10	35.13	149.5	844.3	1582	174.5	12.63	3.153	2.775	2.912	2.969	2.960	2.949	3.116	3.207	3.167	3.227	3.276	3.248	3.121	3.121	3.088	2.969	2.858	2.858	2.950	2.693	2.646	2.493	2.335	2.424	2.530
470.0	415.3	485.9	1090	2192	981.6	583.7	598.6	626.8	630.9	627.5	619.3	590.8	535.4	474.1	421.4	366.6	330.7	304.9	293.3	287.1	283.0	282.1	286.4	287.7	289.0	283.0	278.6	272.7	265.8	256.4	239.1	214.0	186.1	156.0	135.0	118.4	107.9	94.21	71.87	52.95	42.88	35.01	28.02	22.96	19.46	17.14	17.18	41.21	203.7	693.4	1065	647.0	16.75	3.265	2.963	2.858	2.871	2.924	3.054	2.924	3.012	2.895	2.935	2.961	2.881	2.907	2.777	2.748	2.600	2.603	2.518	2.457	2.341	2.421	2.230	2.164	2.183
475.0	392.9	418.4	601.5	1630	1898	590.7	542.5	548.5	551.3	556.1	556.6	520.5	474.2	418.4	367.2	321.8	289.9	269.1	257.2	251.2	249.4	245.8	249.2	247.1	248.1	243.6	239.9	237.2	231.7	223.2	209.5	189.9	165.4	142.3	124.4	107.9	94.14	82.97	76.59	57.43	43.74	35.77	29.28	23.78	20.43	16.58	14.26	17.48	52.28	159.7	321.8	1004	808.6	23.13	3.136	2.669	2.601	2.673	2.738	2.640	2.606	2.892	2.500	2.644	2.494	2.689	2.380	2.337	2.528	2.389	2.075	2.138	2.329	2.093	1.968	2.038	1.858
480.0	337.6	422.7	457.4	946.9	2297	860.0	504.4	512.9	514.0	507.8	511.5	469.3	431.8	379.5	336.8	295.4	263.6	247.5	237.9	229.3	222.6	222.7	225.9	226.0	222.1	222.0	217.3	214.3	210.2	204.0	192.4	173.0	152.3	132.4	116.4	100.9	88.06	74.09	73.43	62.29	45.17	36.27	29.85	24.32	20.67	17.22	14.34	12.91	18.84	41.43	77.17	369.9	1221	662.8	17.92	2.985	2.610	2.293	2.516	2.489	2.329	2.549	2.518	2.449	2.412	2.411	2.275	2.198	2.331	2.177	2.122	2.108	2.125	1.873	1.815	1.907	1.725
485.0	307.1	417.9	398.0	561.5	1946	1520	484.1	478.3	480.4	473.7	472.7	444.1	400.6	354.7	311.7	273.9	244.1	228.6	218.1	212.3	203.6	204.3	205.9	207.2	204.3	201.8	197.8	195.7	192.2	187.3	177.8	159.4	142.8	126.2	108.9	94.78	83.21	70.53	65.36	63.40	50.72	37.22	30.19	24.67	21.37	17.98	15.01	12.15	11.76	15.28	22.36	89.66	571.9	1228	209.0	11.83	2.660	2.477	2.506	2.383	2.216	2.353	2.433	2.367	2.153	2.130	2.187	2.117	2.116	1.940	1.995	2.000	1.939	1.829	1.702	1.712	1.752
490.0	253.6	392.2	395.9	413.2	1066	2139	768.7	431.6	440.8	436.0	429.5	402.1	361.7	321.5	285.0	247.2	223.2	205.5	194.2	188.1	183.2	183.0	182.9	184.1	182.3	181.1	176.3	174.9	173.4	168.4	160.8	146.1	130.4	116.7	100.4	88.83	77.47	66.07	58.47	56.22	53.07	40.99	31.65	25.79	22.21	18.85	15.78	13.29	11.01	10.20	10.62	24.84	137.2	499.7	924.7	599.8	17.74	3.091	2.451	2.345	2.288	2.124	2.271	2.223	2.068	2.095	1.920	2.019	2.049	1.773	1.884	1.803	1.787	1.679	1.553	1.661	1.547
495.0	222.2	338.3	403.0	345.5	514.4	1620	1718	431.4	389.9	390.9	380.6	360.0	321.0	283.9	250.4	219.9	195.2	181.5	171.2	165.7	162.1	160.9	160.2	161.8	159.9	158.7	153.7	153.1	153.7	149.7	143.6	130.8	117.9	106.0	91.56	80.96	71.48	61.76	53.68	49.19	47.80	45.07	34.91	26.30	22.12	19.56	16.02	13.67	11.48	9.404	8.267	10.35	34.78	115.4	288.0	949.5	834.3	25.64	2.866	2.329	2.074	1.996	2.034	2.070	1.943	1.729	1.755	1.722	1.704	1.729	1.718	1.574	1.587	1.487	1.558	1.427	1.409
500.0	210.4	294.8	386.9	332.6	358.0	918.9	2252	649.3	352.0	356.6	348.1	329.0	294.3	259.3	225.6	198.2	179.6	166.2	153.0	150.0	144.4	143.6	144.9	144.6	141.6	142.9	140.1	138.7	138.5	133.3	129.7	118.3	108.5	96.63	84.35	76.34	67.78	58.26	51.30	44.94	42.30	42.60	37.56	27.69	21.94	19.31	16.12	14.52	11.63	9.534	7.969	7.288	12.16	29.74	68.54	348.0	1156	634.4	19.24	2.651	1.958	2.150	1.932	1.829	1.797	1.695	1.795	1.595	1.569	1.592	1.580	1.380	1.442	1.453	1.370	1.254	1.380
505.0	180.6	246.3	357.6	336.5	303.1	480.7	2023	1254	331.6	323.8	322.3	297.1	272.0	234.9	201.9	185.4	161.3	149.0	138.5	136.7	131.4	130.1	130.2	128.7	127.1	127.4	126.0	126.4	125.2	121.7	115.8	107.1	97.80	89.02	77.32	70.35	61.98	53.72	48.14	42.41	38.82	37.51	37.74	30.11	22.18	18.79	16.12	13.70	11.72	9.938	8.258	6.949	7.142	10.42	18.76	83.24	511.6	1141	222.6	11.81	2.311	1.912	1.891	1.706	1.698	1.743	1.745	1.554	1.475	1.447	1.358	1.489	1.257	1.345	1.431	1.149	1.272
510.0	166.1	205.3	270.4	324.2	268.6	304.8	1054	2046	550.1	282.5	281.6	261.3	236.6	210.8	178.7	158.6	142.0	131.1	123.7	118.1	115.4	113.4	112.5	112.5	111.9	110.3	107.6	109.3	108.3	105.9	102.2	94.00	84.82	76.99	69.67	62.42	55.02	48.36	43.07	39.01	34.18	31.82	31.88	30.99	24.70	18.66	15.51	13.78	11.66	9.845	8.385	7.126	5.957	6.163	7.466	21.77	121.4	452.4	785.8	497.2	17.09	2.385	1.851	1.582	1.567	1.552	1.505	1.365	1.380	1.400	1.309	1.293	1.242	1.280	1.284	1.094	1.144
515.0	148.2	173.9	207.8	286.5	272.3	236.0	434.6	1730	1470	277.8	244.7	227.8	203.7	179.7	158.2	137.5	124.5	113.4	105.9	100.8	98.72	96.88	96.19	94.17	94.26	93.04	92.06	91.58	91.77	90.16	87.14	81.18	74.09	66.51	60.59	54.99	48.80	43.45	39.01	35.29	30.23	27.77	25.90	28.07	26.80	20.09	15.15	13.16	11.17	9.434	8.034	7.453	5.943	5.346	5.316	8.031	29.63	103.5	232.6	753.3	629.7	24.45	1.976	1.519	1.355	1.515	1.229	1.284	1.361	1.361	1.112	1.222	1.034	1.250	1.166	1.044	1.036
520.0	129.1	162.3	175.4	237.3	282.5	208.3	259.1	958.1	2197	435.9	216.9	204.3	183.8	162.5	141.0	121.0	109.9	102.8	96.38	90.50	88.77	86.27	84.47	84.99	83.78	82.87	82.10	82.01	81.77	82.04	77.52	72.52	67.02	60.49	55.05	49.89	45.04	39.47	35.85	32.52	28.65	25.77	22.96	23.50	24.99	21.53	15.65	12.74	10.58	9.345	8.011	7.008	6.201	5.196	4.568	4.731	9.213	25.68	54.69	277.3	852.3	241.3	17.14	1.830	1.381	1.294	1.201	1.198	1.192	1.114	1.069	1.086	1.062	1.059	0.996	0.973	1.159
525.0	100.1	142.1	163.6	195.4	269.5	204.4	199.4	433.4	2192	1010	203.0	186.6	166.4	144.9	124.6	110.1	99.36	91.68	86.66	82.97	78.77	77.51	75.06	75.84	75.81	73.33	72.88	71.70	72.94	72.50	69.75	64.39	58.95	54.59	48.66	44.72	41.00	36.91	32.99	30.08	26.25	23.96	21.40	20.42	21.37	22.22	17.14	12.83	10.32	8.949	7.670	6.855	6.253	5.317	4.233	4.164	4.886	8.117	14.56	65.67	370.7	776.0	213.4	8.142	1.376	1.306	1.126	1.139	1.068	1.014	1.003	0.918	0.941	1.063	0.863	0.879	1.104
530.0	95.03	126.2	146.0	153.1	223.2	218.2	172.5	229.6	1142	2008	386.8	164.8	145.1	128.0	109.1	95.98	85.42	78.94	75.04	70.92	67.95	66.63	65.31	65.16	64.88	63.51	62.58	61.19	62.34	61.68	59.94	55.48	51.14	46.62	42.86	39.25	35.73	32.46	29.21	26.45	23.99	21.65	19.16	17.71	17.39	18.81	17.87	13.35	10.03	8.497	7.314	6.438	5.741	5.229	4.408	3.959	3.803	4.201	5.368	16.55	88.04	318.0	565.8	361.0	15.73	1.668	1.127	1.068	0.873	0.971	0.992	0.883	0.874	0.814	0.803	0.785	0.944
535.0	93.35	118.1	131.2	128.8	162.8	225.8	160.7	165.6	392.7	1831	1259	150.6	123.9	110.1	93.14	82.10	73.28	67.39	62.45	59.39	57.79	56.98	54.95	55.44	54.10	54.60	52.56	53.05	52.69	51.51	50.90	47.46	42.85	40.07	36.87	33.60	30.94	28.44	25.08	23.00	20.89	19.25	16.99	15.59	14.46	14.15	15.29	14.42	10.22	7.494	6.795	5.815	5.530	4.964	4.674	3.975	3.396	3.413	3.228	5.525	21.46	72.53	166.4	531.0	440.4	22.03	1.331	1.027	0.964	0.837	0.818	0.858	0.782	0.752	0.832	0.742	0.790
540.0	92.74	101.2	110.7	108.1	132.4	200.7	168.3	137.1	192.6	963.6	1996	213.5	110.4	97.71	83.95	71.30	65.10	59.66	55.84	53.31	50.13	49.96	48.41	48.40	45.91	47.63	45.28	45.85	45.83	44.74	44.41	41.25	37.78	35.07	32.75	29.89	27.34	24.89	22.92	20.56	18.89	17.28	15.46	14.02	12.99	12.11	12.34	13.50	11.23	7.828	6.202	5.548	4.852	4.308	4.335	4.202	3.398	2.961	2.632	3.126	6.380	17.69	39.05	191.2	589.9	232.5	14.09	1.097	0.986	0.731	0.724	0.748	0.797	0.698	0.617	0.695	0.689
545.0	81.04	94.45	99.46	99.03	109.9	160.9	177.6	124.9	135.2	377.0	2165	688.8	99.00	83.88	76.37	64.04	58.16	52.92	49.32	45.88	44.30	44.08	42.61	41.86	40.85	40.81	40.42	38.98	40.39	39.86	38.85	36.20	33.75	30.67	28.52	26.54	24.03	21.95	20.56	18.64	16.79	15.55	14.09	12.51	11.90	10.77	10.50	11.24	11.21	8.413	5.913	5.081	4.404	4.127	3.885	3.909	3.422	2.818	2.467	2.399	2.934	5.486	10.04	45.10	251.4	543.7	185.0	6.201	0.953	0.860	0.728	0.650	0.694	0.615	0.690	0.576	0.703
550.0	76.00	82.98	87.68	85.96	87.50	112.6	174.4	125.0	105.6	161.0	1054	1712	149.8	71.84	61.89	53.04	48.44	44.17	40.40	38.45	36.41	35.69	35.02	34.25	34.28	33.33	32.47	33.41	32.93	32.74	32.24	30.41	27.74	25.89	24.20	21.80	20.41	18.36	17.00	16.24	14.13	13.02	12.48	10.78	10.30	9.570	8.855	8.647	9.428	8.810	6.124	4.784	4.139	3.809	3.328	3.296	3.232	3.000	2.484	2.099	2.209	2.602	3.537	11.20	59.07	211.9	383.3	205.1	15.20	1.082	0.748	0.692	0.624	0.616	0.690	0.598	0.548
555.0	69.82	82.86	78.11	73.66	71.31	80.25	129.7	139.9	90.43	100.6	317.9	1691	817.9	65.51	50.66	45.30	38.24	36.39	32.68	32.32	29.69	28.07	28.70	27.46	27.47	27.70	25.73	26.70	26.89	26.36	25.98	24.66	22.65	21.07	19.56	17.92	16.11	14.76	13.99	13.06	11.57	10.64	9.915	8.919	8.737	8.036	7.331	6.722	6.806	7.542	6.789	4.578	3.607	3.175	3.033	2.760	2.566	2.768	2.649	1.865	1.874	1.775	1.998	3.674	14.12	48.14	108.6	320.9	241.2	20.41	0.852	0.652	0.609	0.599	0.566	0.521	0.586
560.0	70.50	78.39	76.59	71.69	64.31	62.93	87.63	150.7	85.53	79.94	128.2	865.2	1473	114.4	44.65	38.73	33.70	31.00	29.12	27.35	25.33	24.89	24.64	23.84	23.29	22.96	21.36	22.33	22.29	21.77	21.29	20.42	19.60	17.70	15.98	15.40	13.65	12.18	11.71	11.14	9.946	9.127	8.492	8.010	7.413	7.119	6.236	5.770	5.419	6.024	6.135	4.953	3.320	2.912	2.502	2.354	2.405	2.395	2.422	2.018	1.580	1.509	1.527	1.785	4.109	11.68	25.27	111.6	349.8	202.7	12.40	0.727	0.601	0.661	0.556	0.471	0.499
565.0	78.55	67.96	74.78	60.69	57.22	55.13	68.52	139.5	95.97	69.09	81.29	308.8	1804	407.2	39.13	32.81	28.78	25.63	24.79	22.94	20.86	20.96	20.82	19.80	19.47	19.25	18.49	18.85	18.84	18.70	18.19	17.39	16.13	15.02	14.16	12.76	11.93	10.87	9.922	9.354	8.941	7.593	7.506	6.780	6.386	5.825	5.411	5.011	4.582	4.637	5.271	4.830	3.483	2.694	2.386	2.151	2.134	1.935	2.071	2.209	1.736	1.391	1.389	1.266	1.825	3.499	6.380	26.17	140.5	336.5	140.3	5.050	0.614	0.605	0.496	0.421	0.431
570.0	75.19	69.05	67.54	57.02	48.46	46.68	50.20	91.97	117.4	64.11	64.34	115.1	911.9	1247	80.16	26.99	23.70	21.89	19.89	18.70	17.19	17.04	16.61	15.67	16.00	15.64	15.19	15.19	15.23	15.68	14.67	13.99	13.09	12.43	11.23	10.15	9.825	8.854	8.313	7.673	7.157	6.218	5.851	5.675	5.148	4.991	4.628	4.031	3.886	3.568	3.730	4.170	3.656	2.737	2.079	1.876	1.859	1.631	1.691	1.590	1.820	1.317	1.236	1.067	1.136	1.475	2.150	6.553	32.76	122.0	217.1	131.4	14.21	0.788	0.512	0.404	0.431
575.0	65.63	70.33	55.99	52.72	42.75	40.22	42.63	57.81	119.4	78.60	55.38	65.31	257.9	1307	530.5	22.27	19.39	17.70	15.59	14.26	14.18	13.60	13.44	12.57	12.19	12.28	11.72	11.72	12.17	12.19	11.54	11.08	10.41	9.756	8.885	7.934	7.755	7.099	6.599	6.429	5.839	5.252	4.768	4.474	4.298	4.169	3.801	3.406	3.324	2.974	2.734	3.052	3.296	2.958	2.084	1.552	1.464	1.367	1.388	1.349	1.550	1.585	1.232	1.028	0.956	1.062	1.184	2.111	7.877	27.83	58.29	174.8	184.6	19.23	0.550	0.425	0.394
580.0	72.52	69.94	62.52	47.98	40.86	36.90	38.68	44.77	91.24	99.86	55.41	54.45	91.14	688.4	1050	46.54	16.96	14.29	13.58	12.62	11.93	11.25	11.39	11.05	9.951	10.69	10.11	10.42	9.849	10.34	9.840	9.385	8.749	8.258	7.235	6.814	6.503	5.820	5.888	5.458	4.871	4.633	4.325	3.865	3.864	3.530	3.248	2.956	2.755	2.561	2.416	2.150	2.771	2.762	2.290	1.546	1.522	1.201	1.259	1.170	1.265	1.400	1.541	1.010	0.881	0.941	0.936	1.135	2.394	6.820	13.69	57.09	202.8	140.1	11.04	0.527	0.435
585.0	71.22	67.40	63.87	47.08	36.93	34.73	36.81	41.17	65.25	113.6	59.30	50.68	53.47	236.6	1300	113.1	14.53	13.01	11.38	10.49	10.40	9.627	9.965	9.708	8.645	8.904	9.006	8.754	8.749	8.640	7.891	7.832	7.540	6.995	6.283	6.068	5.651	4.891	4.925	4.518	4.151	3.960	3.900	3.345	3.180	3.014	2.703	2.619	2.278	2.346	1.995	1.920	2.030	2.513	2.471	1.579	1.390	1.190	1.114	1.036	1.094	1.013	1.363	1.350	0.943	0.807	0.811	0.848	1.151	2.021	3.669	13.44	74.38	194.3	96.61	4.811	0.470
590.0	69.62	73.77	62.62	48.24	34.63	32.94	33.06	37.45	46.68	94.78	76.86	47.76	43.90	78.22	658.7	749.5	39.45	10.67	9.803	8.946	8.194	7.742	7.949	7.746	7.188	7.283	7.099	6.880	6.948	7.044	6.669	6.392	6.118	5.820	5.262	4.813	4.770	4.094	3.957	3.856	3.558	3.243	3.118	2.772	2.721	2.469	2.497	2.334	2.003	1.946	1.673	1.655	1.581	1.837	2.190	1.797	1.256	1.036	0.994	0.968	0.943	0.890	0.950	1.381	1.074	0.752	0.782	0.786	0.752	0.989	1.382	3.497	17.35	65.31	129.8	87.81	13.74
595.0	61.85	61.09	61.63	40.50	32.67	31.41	30.65	32.03	40.77	64.74	96.91	53.17	43.21	42.34	178.5	853.5	274.6	10.21	7.847	7.169	6.579	6.462	6.355	5.957	6.158	5.776	5.738	5.860	5.472	5.367	5.341	5.257	4.672	4.458	4.294	3.693	3.659	3.369	3.398	3.098	2.946	2.819	2.428	2.319	2.329	2.240	2.084	1.801	1.741	1.562	1.287	1.213	1.411	1.316	1.663	1.776	1.407	1.149	0.905	0.887	0.846	0.832	0.710	1.005	1.088	0.877	0.818	0.758	0.684	0.746	0.776	1.222	4.239	14.94	32.94	92.31	117.6
600.0	56.67	64.28	50.92	40.77	32.73	31.32	31.84	33.16	40.39	51.89	96.87	64.49	44.76	34.58	59.15	475.5	644.5	21.89	7.072	6.661	6.290	5.373	5.469	4.890	5.085	5.103	4.606	4.729	4.671	4.659	4.898	4.292	3.783	3.617	3.641	3.289	3.195	3.041	2.851	2.552	2.643	2.283	2.202	2.073	1.936	1.849	1.686	1.526	1.593	1.275	1.228	1.090	1.139	1.101	1.151	1.589	1.437	1.182	0.881	0.783	0.787	0.703	0.681	0.728	0.919	1.191	0.805	0.628	0.663	0.728	0.695	0.642	1.274	3.702	7.730	27.71	112.7
605.0	61.06	63.94	55.35	42.39	31.13	28.51	31.58	36.17	44.38	50.80	85.95	90.43	51.43	38.49	36.68	165.4	809.6	78.53	6.945	5.734	5.691	4.546	4.805	4.114	4.558	4.498	3.945	4.297	4.075	4.016	4.441	3.623	3.510	3.149	3.148	2.856	2.668	2.564	2.228	2.282	2.030	1.997	1.790	1.784	1.656	1.710	1.473	1.306	1.339	1.018	1.059	0.953	0.961	1.045	1.020	1.269	1.302	1.141	0.929	0.797	0.705	0.709	0.817	0.752	0.765	0.987	0.949	0.680	0.607	0.665	0.653	0.531	0.662	1.204	2.182	6.545	37.34
610.0	67.90	64.03	60.02	42.32	35.13	33.56	39.98	40.93	52.26	61.29	83.19	117.5	76.10	51.39	41.53	62.30	455.1	468.5	20.30	4.785	4.622	4.141	3.943	3.554	3.441	3.487	3.364	3.463	3.386	3.228	3.488	3.072	2.965	2.621	2.493	2.496	2.307	2.200	2.002	1.882	1.696	1.684	1.580	1.415	1.451	1.381	1.292	1.218	1.180	0.967	0.958	0.906	0.883	0.857	0.759	0.917	1.013	1.169	1.051	0.851	0.661	0.721	0.778	0.753	0.738	0.828	0.954	0.968	0.858	0.695	0.612	0.561	0.575	0.658	0.869	1.782	8.769
615.0	65.17	67.93	60.77	42.03	36.09	32.54	40.00	43.85	54.99	64.69	79.66	112.9	97.23	59.90	45.72	40.52	136.5	585.3	80.72	4.756	3.722	3.495	3.100	2.657	2.774	2.912	2.925	2.875	2.693	2.679	2.861	2.561	2.437	2.251	2.267	1.753	1.801	1.742	1.810	1.440	1.301	1.387	1.288	1.193	1.226	1.326	1.065	1.047	0.910	0.840	0.806	0.738	0.729	0.739	0.650	0.777	0.771	1.048	0.992	0.887	0.613	0.696	0.661	0.782	0.787	0.701	0.795	0.940	0.908	0.806	0.623	0.627	0.652	0.592	0.620	0.787	2.330
620.0	63.44	67.70	61.43	43.69	35.32	35.24	37.30	45.33	50.67	61.90	74.83	95.39	108.1	62.46	46.98	35.33	51.53	354.4	395.0	9.439	3.513	2.996	2.552	2.513	2.573	2.554	2.711	2.311	2.279	2.300	2.251	2.060	1.944	1.756	1.749	1.781	1.600	1.506	1.481	1.350	1.259	1.130	1.096	0.984	1.111	1.064	0.884	0.952	0.790	0.724	0.731	0.729	0.768	0.590	0.680	0.688	0.717	0.830	1.063	0.964	0.660	0.654	0.645	0.705	0.638	0.668	0.745	0.848	0.973	0.835	0.695	0.603	0.609	0.656	0.493	0.605	0.845
625.0	60.66	59.23	62.30	44.34	32.72	35.67	35.25	43.58	52.02	60.70	70.41	82.72	105.3	67.91	47.58	32.59	33.19	130.4	553.2	50.47	2.998	2.681	2.358	2.558	2.206	2.256	2.308	1.859	2.116	1.910	1.680	1.780	1.770	1.549	1.710	1.514	1.570	1.376	1.337	1.180	1.077	0.897	0.899	0.964	0.887	0.866	0.802	0.889	0.734	0.656	0.622	0.599	0.652	0.557	0.588	0.613	0.678	0.689	0.841	0.949	0.755	0.690	0.544	0.650	0.586	0.700	0.665	0.711	0.756	0.882	0.744	0.536	0.523	0.477	0.619	0.552	0.513
630.0	57.24	54.74	59.74	44.34	35.50	32.91	37.78	42.85	50.62	57.71	67.10	75.30	92.27	78.24	49.28	33.06	28.43	44.11	331.4	309.2	9.996	2.373	1.971	2.100	1.885	1.929	1.798	1.610	1.723	1.559	1.472	1.397	1.451	1.356	1.305	1.234	1.264	1.186	1.206	0.970	0.893	0.963	0.829	0.802	0.818	0.757	0.771	0.717	0.700	0.577	0.533	0.593	0.506	0.506	0.573	0.535	0.627	0.553	0.654	0.789	0.725	0.662	0.561	0.594	0.641	0.634	0.604	0.631	0.678	0.814	0.829	0.637	0.536	0.550	0.526	0.466	0.424
635.0	56.31	62.03	57.95	44.59	37.37	31.48	38.84	40.80	46.16	58.74	64.99	72.14	79.56	84.78	55.08	33.60	27.74	23.97	91.15	433.8	62.59	2.404	1.811	1.751	1.792	1.669	1.463	1.471	1.465	1.282	1.274	1.325	1.170	1.152	1.092	0.997	1.005	0.927	0.876	0.773	0.767	0.725	0.805	0.715	0.630	0.713	0.648	0.671	0.599	0.539	0.470	0.453	0.463	0.461	0.493	0.524	0.596	0.473	0.595	0.588	0.611	0.686	0.592	0.607	0.614	0.618	0.560	0.600	0.582	0.684	0.737	0.700	0.634	0.529	0.505	0.441	0.385
640.0	57.28	73.04	58.55	48.25	37.44	32.01	34.50	41.90	44.98	56.84	64.04	72.18	72.89	79.71	61.16	33.79	27.72	19.41	26.55	281.3	266.2	5.136	1.844	1.390	1.561	1.404	1.127	1.371	1.248	1.148	1.166	1.178	1.001	0.960	0.949	0.869	0.900	0.880	0.820	0.728	0.669	0.672	0.620	0.651	0.556	0.666	0.542	0.538	0.556	0.470	0.468	0.396	0.413	0.456	0.397	0.453	0.453	0.375	0.520	0.521	0.518	0.700	0.561	0.501	0.565	0.619	0.584	0.541	0.514	0.639	0.642	0.633	0.621	0.570	0.508	0.480	0.450
645.0	62.76	63.45	65.61	47.46	36.17	32.63	36.41	40.40	44.79	54.06	61.69	68.19	70.85	70.89	64.80	35.34	28.10	17.94	11.89	105.2	400.4	34.02	1.799	1.280	1.153	1.239	1.256	1.227	1.147	1.194	1.086	0.988	0.970	0.870	0.912	0.896	0.929	0.832	0.669	0.568	0.585	0.717	0.574	0.539	0.586	0.617	0.490	0.527	0.515	0.450	0.429	0.453	0.468	0.395	0.394	0.437	0.463	0.415	0.503	0.455	0.591	0.639	0.699	0.499	0.569	0.595	0.528	0.550	0.519	0.554	0.542	0.617	0.687	0.647	0.584	0.422	0.502
650.0	60.28	71.08	63.85	49.43	35.07	29.93	30.82	39.62	42.57	50.43	56.85	65.22	67.45	62.97	66.62	38.24	28.03	17.51	8.998	30.14	336.4	146.2	2.065	1.243	1.174	1.168	1.215	1.122	1.174	1.063	0.992	0.929	0.828	0.872	0.873	0.765	0.773	0.829	0.650	0.569	0.575	0.660	0.567	0.491	0.548	0.527	0.554	0.527	0.486	0.534	0.448	0.420	0.405	0.344	0.363	0.437	0.456	0.363	0.486	0.434	0.510	0.616	0.641	0.493	0.560	0.487	0.542	0.525	0.531	0.483	0.533	0.583	0.555	0.606	0.513	0.397	0.438
