Sample:	'1
File name:	c2025052610’≈πŸ«≈.FD3
Run date:	'12:22:14, 05/27/2025
Operator:	Administrator
Comment:	'

Instrument
Model:	F-2700 FL Spectrophotometer
Serial number:	23B8-004
ROM Version:	4J14000 07

Instrument parameters
Measurement type:	3-D scan
Data mode:	Fluorescence
EX  Start WL:	220.0 nm
EX  End WL:	600.0 nm
EX Sampling interval:	5.0 nm
EM  Start WL:	230.0 nm
EM  End WL:	650.0 nm
EM Sampling interval:	5.0 nm
Scan speed:	12000 nm/min
EX Slit:	5.0 nm
EM Slit:	5.0 nm
PMT Voltage:	700 V
Response:	Auto 
Corrected spectra:	Off
Contour interval:	50.000

Peak integration
Integration method:	Rectangular
Sensitivity:	1
Threshold:	1.000

Peaks
No.	ApexEX/EM(nm)	Height(Data)
1	225.0/580.0	88.52
2	225.0/610.0	64.56
3	225.0/625.0	64.91
4	230.0/345.0	2938
5	230.0/615.0	63.20
6	240.0/265.0	339.4
7	240.0/405.0	1542
8	245.0/270.0	325.4
9	245.0/410.0	1541
10	250.0/275.0	416.9
11	255.0/280.0	527.8
12	255.0/560.0	162.8
13	260.0/575.0	125.6
14	265.0/585.0	116.4
15	270.0/600.0	105.2
16	275.0/310.0	1750
17	275.0/415.0	2262
18	275.0/435.0	2144
19	275.0/615.0	120.1
20	280.0/335.0	1930
21	280.0/625.0	112.1
22	285.0/320.0	1808
23	285.0/635.0	87.49
24	335.0/415.0	1102
25	475.0/345.0	7.897
26	505.0/275.0	2.706
27	510.0/280.0	2.788
28	520.0/285.0	3.155
29	550.0/305.0	7.952
30	550.0/420.0	7.405
31	560.0/310.0	8.652
32	560.0/415.0	7.447
33	565.0/335.0	8.979
34	570.0/315.0	9.240
35	575.0/320.0	9.116
36	585.0/325.0	9.202

Data points
	220.0	225.0	230.0	235.0	240.0	245.0	250.0	255.0	260.0	265.0	270.0	275.0	280.0	285.0	290.0	295.0	300.0	305.0	310.0	315.0	320.0	325.0	330.0	335.0	340.0	345.0	350.0	355.0	360.0	365.0	370.0	375.0	380.0	385.0	390.0	395.0	400.0	405.0	410.0	415.0	420.0	425.0	430.0	435.0	440.0	445.0	450.0	455.0	460.0	465.0	470.0	475.0	480.0	485.0	490.0	495.0	500.0	505.0	510.0	515.0	520.0	525.0	530.0	535.0	540.0	545.0	550.0	555.0	560.0	565.0	570.0	575.0	580.0	585.0	590.0	595.0	600.0
230.0	45.62	834.7	2228	792.7	39.11	6.333	5.378	4.205	4.195	3.733	3.370	3.288	2.978	2.575	2.288	1.932	1.487	1.379	1.172	1.119	1.029	1.046	0.929	0.872	0.784	0.760	0.702	0.655	0.634	0.576	0.613	0.545	0.476	0.470	0.384	0.418	0.391	0.396	0.332	0.315	0.332	0.417	0.445	0.329	0.316	0.283	0.883	3.939	7.096	5.377	2.039	0.462	0.209	0.196	0.199	0.202	0.226	0.215	0.195	0.209	0.202	0.192	0.171	0.181	0.178	0.207	0.207	0.250	0.185	0.201	0.180	0.184	0.185	0.182	0.177	0.191	0.187
235.0	95.42	242.1	1443	2502	630.5	62.41	5.365	5.082	4.840	4.608	3.965	4.501	3.041	2.755	2.215	1.984	1.534	1.339	1.382	1.121	1.171	1.069	0.984	0.924	0.843	0.890	0.610	0.538	0.677	0.649	0.579	0.470	0.418	0.429	0.364	0.427	0.467	0.371	0.350	0.396	0.412	0.300	0.370	0.468	0.494	0.360	0.470	1.169	2.898	5.083	7.664	8.287	3.899	0.828	0.249	0.219	0.267	0.207	0.217	0.216	0.194	0.264	0.180	0.193	0.213	0.186	0.180	0.184	0.239	0.216	0.207	0.185	0.198	0.172	0.205	0.196	0.170
240.0	132.3	132.0	433.4	2128	2878	507.5	32.25	6.224	5.541	4.322	4.034	4.631	3.044	2.705	2.490	2.104	1.730	1.584	1.435	1.251	1.104	0.974	0.862	0.989	0.891	0.830	0.737	0.705	0.588	0.740	0.580	0.593	0.440	0.487	0.363	0.304	0.426	0.353	0.341	0.321	0.334	0.309	0.299	0.385	0.482	0.572	0.403	0.457	0.820	1.650	4.313	10.29	12.80	8.957	3.057	0.466	0.252	0.249	0.207	0.233	0.212	0.212	0.184	0.195	0.185	0.228	0.229	0.260	0.237	0.192	0.179	0.178	0.195	0.196	0.207	0.183	0.174
245.0	113.0	168.0	158.0	726.0	2947	3022	368.8	16.21	6.067	5.673	4.487	4.724	3.617	2.759	2.665	2.420	1.877	1.584	1.584	1.185	1.079	0.911	0.775	0.954	0.892	0.771	0.823	0.722	0.639	0.672	0.605	0.493	0.463	0.457	0.427	0.391	0.449	0.413	0.377	0.348	0.341	0.358	0.344	0.348	0.354	0.634	0.618	0.628	0.455	0.583	1.167	3.648	8.944	15.19	15.42	8.178	2.022	0.376	0.227	0.258	0.240	0.260	0.152	0.272	0.217	0.272	0.222	0.241	0.220	0.194	0.164	0.183	0.208	0.226	0.189	0.233	0.173
250.0	45.65	127.9	217.7	248.1	936.5	2779	3607	1312	82.00	7.538	5.464	4.919	4.181	3.356	2.583	2.383	2.350	1.817	1.679	1.407	1.155	1.059	0.783	1.019	0.914	0.893	0.833	0.790	0.668	0.858	0.643	0.535	0.527	0.448	0.420	0.442	0.417	0.411	0.369	0.353	0.372	0.336	0.352	0.323	0.327	0.404	0.414	0.670	0.845	0.765	0.686	1.027	2.307	4.916	9.487	14.14	17.89	15.70	8.305	2.344	0.359	0.235	0.218	0.238	0.263	0.245	0.211	0.239	0.190	0.186	0.196	0.213	0.202	0.194	0.204	0.224	0.187
255.0	30.13	46.24	155.9	286.0	295.1	697.9	2640	5528	1822	90.42	8.330	6.536	4.454	3.854	2.573	2.607	2.566	1.939	1.770	1.576	1.193	1.226	1.064	1.054	0.951	0.854	0.880	0.825	0.771	0.800	0.710	0.522	0.645	0.478	0.406	0.412	0.435	0.439	0.315	0.331	0.352	0.393	0.321	0.281	0.294	0.323	0.314	0.405	0.464	0.772	1.000	1.266	0.993	1.330	2.353	3.451	6.719	15.99	29.28	26.50	12.78	2.246	0.303	0.284	0.305	0.250	0.237	0.194	0.179	0.208	0.201	0.226	0.236	0.194	0.212	0.226	0.168
260.0	28.31	30.21	62.59	240.6	296.6	209.3	778.8	4295	6343	1385	44.42	8.135	6.645	4.764	2.900	3.140	2.715	1.990	1.847	1.506	1.148	1.213	1.071	1.076	1.002	1.117	1.004	0.831	0.856	0.815	0.612	0.695	0.569	0.492	0.494	0.438	0.397	0.370	0.313	0.364	0.339	0.395	0.412	0.357	0.265	0.282	0.297	0.334	0.349	0.450	0.700	1.339	1.577	0.953	0.827	1.028	1.728	4.391	12.36	27.47	33.63	24.28	9.227	1.076	0.359	0.257	0.310	0.187	0.191	0.215	0.291	0.222	0.224	0.192	0.207	0.219	0.187
265.0	31.39	29.54	30.73	107.6	339.4	225.9	210.1	1376	6242	6488	245.5	20.07	7.764	5.189	4.105	4.028	2.715	2.223	1.975	1.626	1.350	1.355	1.069	0.998	1.092	1.068	1.033	0.759	0.815	0.785	0.652	0.829	0.619	0.498	0.550	0.404	0.381	0.377	0.366	0.362	0.325	0.314	0.351	0.396	0.279	0.326	0.320	0.334	0.312	0.334	0.360	0.696	1.330	1.785	1.305	0.620	0.627	1.215	3.089	8.072	19.96	37.84	33.31	20.85	5.240	0.576	0.255	0.291	0.204	0.275	0.243	0.254	0.249	0.211	0.265	0.224	0.181
270.0	52.13	44.93	37.22	47.25	159.9	325.4	260.6	362.0	1890	5827	7536	917.7	64.89	8.432	5.960	4.758	3.162	2.456	2.293	1.889	1.534	1.418	1.347	1.186	1.109	1.012	1.061	0.924	0.822	0.801	0.739	0.685	0.657	0.584	0.534	0.495	0.458	0.441	0.390	0.403	0.330	0.353	0.364	0.396	0.408	0.460	0.370	0.420	0.352	0.303	0.319	0.421	0.591	1.009	1.508	1.606	1.449	1.057	1.066	2.174	4.970	10.97	19.56	32.68	35.28	35.83	14.89	5.177	0.614	0.349	0.284	0.292	0.249	0.305	0.278	0.272	0.251
275.0	117.0	122.9	96.70	59.63	66.11	154.0	416.9	315.2	479.8	1425	4941	9999.9	1340	71.34	8.956	6.444	4.148	3.247	2.766	2.498	1.823	1.624	1.622	1.331	1.300	1.096	1.069	0.798	0.880	0.891	0.859	0.781	0.672	0.573	0.638	0.735	0.655	0.491	0.521	0.435	0.384	0.437	0.498	0.468	0.527	0.660	0.566	0.519	0.528	0.419	0.350	0.331	0.418	0.482	0.644	0.970	1.803	2.706	1.824	1.130	1.475	2.825	4.756	7.797	11.33	27.33	52.93	59.44	23.68	5.462	0.640	0.345	0.350	0.282	0.256	0.314	0.262
280.0	204.0	227.1	182.3	100.8	62.21	79.86	263.1	527.8	281.5	405.1	1390	7513	9999.9	994.8	36.93	8.488	5.554	4.161	2.821	2.768	2.144	1.959	1.553	1.496	1.304	1.145	1.137	0.894	1.047	0.976	0.912	0.870	0.778	0.660	0.811	0.751	0.873	0.702	0.646	0.595	0.439	0.605	0.617	0.549	0.753	0.768	0.823	0.788	0.651	0.581	0.445	0.475	0.389	0.386	0.528	0.554	0.890	1.854	2.788	2.569	1.488	1.217	1.563	2.313	3.166	7.179	18.45	44.00	66.77	33.71	19.40	2.721	0.491	0.318	0.285	0.337	0.308
285.0	312.7	354.7	293.2	155.0	82.07	77.53	138.6	447.1	516.5	257.2	450.5	2248	9720	8608	135.7	17.97	7.281	5.056	3.868	2.934	2.478	1.933	1.779	1.582	1.462	1.444	1.172	1.114	1.081	0.972	0.912	0.877	0.768	0.761	0.896	0.826	0.842	0.772	0.762	0.662	0.621	0.651	0.757	0.768	0.863	1.066	1.070	1.069	0.901	0.835	0.576	0.599	0.546	0.456	0.480	0.540	0.671	0.944	1.587	2.916	3.155	2.027	1.272	1.314	1.486	2.457	4.993	11.69	27.37	51.25	72.19	30.99	13.17	1.364	0.339	0.367	0.353
290.0	425.1	513.4	417.5	249.8	142.4	113.5	131.4	246.7	538.5	606.2	412.3	745.6	2840	7487	8270	2247	40.56	7.374	5.214	3.804	3.025	2.384	1.887	1.776	1.466	1.596	1.405	1.222	1.089	1.011	0.941	0.933	0.882	0.925	0.976	1.038	0.956	1.031	0.877	0.818	0.795	0.782	0.880	0.946	1.183	1.293	1.340	1.520	1.321	1.144	0.865	0.831	0.807	0.666	0.674	0.713	0.759	0.855	1.034	1.411	2.106	3.064	3.296	2.690	2.183	1.922	2.324	3.810	7.498	13.93	27.34	39.47	53.73	46.78	21.03	10.55	1.891
295.0	505.5	632.7	561.7	355.8	216.4	175.7	192.5	244.4	364.8	731.2	875.4	609.2	970.7	1924	4691	9999.9	760.0	46.12	8.029	5.459	4.079	3.211	2.288	2.179	1.860	1.698	1.578	1.404	1.084	1.204	1.004	0.918	1.010	1.036	1.025	1.202	1.164	1.010	0.933	1.040	0.965	0.960	0.962	1.202	1.334	1.451	1.462	1.721	1.558	1.502	1.126	1.138	1.139	0.897	0.965	0.944	0.993	1.046	1.365	1.303	1.581	1.954	2.597	4.134	5.209	3.559	2.788	2.784	3.530	4.809	7.503	10.04	14.16	22.47	50.02	75.25	34.24
300.0	581.2	724.5	659.6	441.0	295.6	249.1	285.2	341.1	396.5	677.7	1193	1002	757.7	808.0	1407	6669	9670	612.9	26.91	7.404	5.321	3.652	2.911	2.467	1.789	1.942	1.608	1.452	1.278	1.073	1.037	1.110	0.993	1.116	1.044	1.181	1.174	1.042	1.003	1.100	1.001	0.990	1.185	1.316	1.515	1.704	1.803	1.976	1.966	1.676	1.419	1.415	1.303	1.219	1.291	1.070	1.281	1.556	1.640	1.745	1.830	2.118	2.512	3.458	4.804	6.271	5.561	4.111	3.582	3.522	3.841	4.349	4.845	6.657	14.89	37.32	65.29
305.0	694.3	864.0	794.9	553.6	404.6	372.1	438.6	529.2	670.8	898.9	1310	1681	1176	846.7	804.3	2081	8331	5450	438.3	13.39	7.233	4.843	3.446	3.078	2.351	2.188	1.790	1.545	1.337	1.378	1.119	1.060	1.065	1.057	1.193	1.309	1.283	1.178	1.197	1.108	1.099	1.228	1.236	1.242	1.591	1.877	1.962	2.435	2.458	1.994	1.720	1.603	1.637	1.603	1.645	1.658	2.083	2.189	2.439	2.546	2.795	3.518	3.694	4.335	4.840	6.305	7.952	7.778	6.341	5.125	4.550	4.478	4.071	4.344	5.688	10.60	22.16
310.0	751.2	971.0	938.4	682.7	513.5	492.4	585.6	708.1	859.5	1101	1385	1750	1738	1200	871.1	917.3	2564	5714	6360	1678	28.61	6.890	4.611	3.453	2.759	2.419	2.034	1.898	1.513	1.435	1.364	1.193	1.119	1.214	1.241	1.252	1.404	1.388	1.234	1.184	1.191	1.350	1.365	1.480	1.743	2.089	2.198	2.678	2.811	2.291	2.064	2.079	2.121	1.871	2.011	2.084	2.295	2.754	3.103	3.229	3.673	4.095	4.454	5.204	5.655	6.396	6.988	8.178	8.652	8.303	7.105	5.724	4.878	4.711	4.348	4.978	7.440
315.0	811.4	1125	1119	816.5	636.2	604.2	702.3	831.3	965.2	1206	1483	1714	1814	1709	1110	774.4	1018	1568	3737	8376	535.8	32.21	6.353	4.586	3.067	2.916	2.407	2.043	1.653	1.680	1.446	1.183	1.008	1.181	1.225	1.393	1.460	1.298	1.316	1.342	1.130	1.307	1.365	1.505	1.862	2.256	2.644	3.079	2.989	2.568	2.448	2.817	2.621	2.217	2.320	2.372	2.928	3.155	3.564	3.646	3.971	4.403	4.922	5.866	6.254	6.896	7.103	7.892	8.188	8.630	9.240	8.719	6.957	5.610	4.954	4.687	4.594
320.0	951.2	1291	1315	987.9	729.6	676.2	765.8	911.6	1046	1279	1563	1780	1808	1808	1466	877.5	752.1	672.1	1045	5300	8021	458.9	16.73	6.183	4.002	3.330	2.714	2.251	1.842	1.965	1.542	1.206	1.126	1.149	1.237	1.283	1.504	1.380	1.260	1.283	1.171	1.461	1.531	1.795	2.121	2.595	2.952	3.574	3.737	3.239	3.027	2.956	2.721	2.534	2.606	2.895	3.229	3.495	3.871	4.092	4.291	4.844	5.241	6.144	6.558	7.196	7.543	8.052	8.354	8.420	8.905	9.116	8.964	8.096	6.047	4.940	4.558
325.0	1102	1606	1726	1297	895.9	763.4	812.4	951.9	1073	1317	1599	1819	1846	1731	1649	1047	747.4	508.8	396.0	1520	6930	4065	63.89	10.03	5.190	4.114	3.088	2.575	1.947	1.952	1.723	1.278	1.239	1.328	1.258	1.338	1.320	1.223	1.362	1.308	1.313	1.620	1.727	1.883	2.324	3.064	3.627	4.310	4.790	4.209	3.658	3.668	3.354	2.838	3.030	2.945	3.118	3.559	4.095	4.267	4.598	4.951	5.477	6.038	6.666	7.543	7.487	8.145	8.273	8.528	8.497	8.136	8.329	9.202	8.043	5.925	4.927
330.0	1343	1971	2328	1861	1250	916.9	895.0	995.5	1110	1342	1619	1851	1900	1747	1565	1311	933.6	552.0	324.8	492.8	1974	4580	4964	1335	22.52	5.511	3.724	3.126	2.463	2.079	1.776	1.536	1.350	1.497	1.313	1.305	1.469	1.321	1.411	1.391	1.497	1.511	1.818	2.219	2.793	3.583	4.377	5.719	6.099	5.611	5.124	5.348	4.588	3.731	3.537	3.342	3.502	3.957	4.075	4.467	4.691	4.921	5.785	6.118	6.868	7.471	7.863	8.175	8.452	8.539	8.492	8.389	8.013	8.362	7.924	7.456	6.818
335.0	1461	2280	2737	2374	1691	1147	975.7	1053	1156	1365	1634	1866	1930	1800	1565	1300	1179	743.8	406.5	343.8	597.5	1160	3229	6953	443.3	24.76	5.785	3.703	2.938	2.334	2.137	1.893	1.631	1.451	1.300	1.386	1.414	1.446	1.331	1.387	1.453	1.813	1.874	2.312	2.695	4.283	4.893	6.492	7.021	6.728	6.406	6.955	6.170	5.139	4.508	3.861	4.057	4.345	4.163	4.829	4.883	4.968	5.763	6.086	7.036	7.266	7.791	8.187	8.539	8.979	8.457	8.602	8.127	8.618	7.536	7.155	7.107
340.0	1540	2383	2933	2600	1852	1256	1023	1050	1153	1351	1611	1824	1901	1802	1566	1278	1134	923.1	506.9	349.7	327.1	394.9	914.2	4741	6075	381.5	13.04	4.967	3.627	2.916	2.282	1.986	1.706	1.459	1.414	1.477	1.325	1.564	1.444	1.483	1.512	1.594	2.008	2.357	3.109	4.449	5.398	6.582	7.618	7.371	6.872	7.670	6.828	5.945	4.892	4.140	4.186	4.447	4.345	4.571	4.768	4.944	5.771	6.295	6.881	7.143	7.736	8.046	8.487	8.640	8.477	8.947	8.565	8.473	7.540	7.168	6.847
345.0	1499	2389	2938	2681	1907	1300	1049	1040	1147	1319	1564	1743	1844	1756	1550	1260	1048	942.3	659.8	395.4	295.8	252.4	321.3	1392	5607	3402	54.54	7.683	4.356	3.388	2.529	2.301	1.928	1.561	1.586	1.602	1.289	1.463	1.337	1.417	1.439	1.642	1.791	2.422	3.138	4.252	5.221	6.382	7.624	7.291	7.096	7.897	6.837	5.983	4.998	4.182	4.321	4.354	4.407	4.729	4.685	5.135	5.624	6.120	6.318	6.800	7.604	7.479	7.949	8.327	8.256	8.437	8.632	8.213	7.435	6.940	6.599
350.0	1444	2202	2799	2612	1969	1389	1074	1050	1133	1274	1480	1632	1719	1660	1490	1243	1025	857.9	746.6	554.2	358.5	270.7	230.1	417.5	1634	3862	4131	1092	18.23	4.787	3.315	2.630	2.011	1.556	1.592	1.482	1.410	1.510	1.384	1.391	1.425	1.602	1.868	2.488	2.951	3.957	4.856	6.108	7.115	7.103	6.924	7.738	7.095	6.288	5.118	4.350	4.304	4.384	4.395	4.470	4.613	4.997	5.538	5.620	6.210	6.320	7.100	7.280	7.449	7.914	7.816	7.961	8.104	7.642	7.432	6.640	6.671
355.0	1277	2028	2540	2482	1956	1438	1109	1067	1136	1255	1412	1545	1610	1573	1429	1224	1035	849.6	719.2	687.4	504.0	333.2	260.6	240.1	458.3	954.5	2880	5626	398.7	18.82	4.883	3.259	2.356	1.741	1.759	1.498	1.506	1.502	1.303	1.493	1.290	1.580	1.837	2.187	2.807	3.692	4.363	5.725	6.788	6.625	6.676	7.468	6.918	6.044	5.579	4.595	4.711	4.384	4.635	4.519	4.755	5.163	5.452	5.438	6.131	5.866	6.874	7.035	6.841	7.465	7.410	7.353	7.722	7.448	7.389	6.833	6.548
360.0	1185	1831	2327	2337	1890	1412	1119	1081	1141	1243	1356	1484	1520	1503	1385	1204	1036	867.7	728.3	672.9	627.5	420.9	304.2	235.6	226.6	294.5	803.3	4162	4980	333.7	10.13	4.378	2.763	2.011	1.780	1.491	1.457	1.460	1.284	1.499	1.308	1.727	1.732	2.118	2.613	3.317	3.970	5.369	6.210	6.155	6.260	6.902	6.716	6.013	5.276	4.811	4.734	4.427	4.522	4.751	4.472	5.056	5.507	5.206	5.809	6.068	6.276	6.384	6.758	7.013	7.413	7.023	7.160	7.434	7.037	6.932	6.422
365.0	1120	1659	2128	2204	1814	1414	1145	1115	1150	1236	1340	1432	1461	1429	1341	1186	1038	887.0	753.1	665.3	651.0	551.1	370.3	270.4	208.4	176.4	250.4	1258	5015	3117	49.50	6.650	4.054	2.544	2.141	1.717	1.579	1.527	1.531	1.486	1.420	1.615	1.880	2.011	2.384	3.074	3.642	5.015	5.427	5.626	5.673	6.891	6.578	5.951	5.661	4.733	4.848	4.423	4.677	4.556	4.470	4.969	5.271	5.154	5.551	5.958	6.161	6.020	6.342	6.688	6.808	6.640	6.628	7.051	7.021	6.620	6.673
370.0	1036	1541	1950	2025	1741	1413	1174	1142	1165	1234	1306	1371	1398	1367	1284	1159	1042	914.6	800.8	709.0	642.5	622.0	512.0	350.7	258.9	194.9	164.7	358.8	1503	3645	3793	949.6	16.36	3.906	2.880	2.115	1.809	1.712	1.482	1.455	1.452	1.690	1.709	1.926	2.296	2.829	3.485	4.442	5.033	5.046	5.260	6.328	6.136	5.866	5.485	4.674	4.792	4.714	4.820	4.402	4.950	5.097	5.305	5.162	5.619	5.834	5.992	5.887	6.132	6.439	6.472	6.354	6.475	6.745	6.494	6.573	6.468
375.0	961.9	1405	1773	1838	1655	1399	1200	1152	1181	1221	1276	1338	1348	1321	1238	1126	1041	935.9	840.7	760.5	673.0	623.3	605.7	494.1	335.1	251.8	194.5	196.4	414.1	908.2	2823	4924	340.7	16.99	4.158	2.767	2.065	1.853	1.545	1.476	1.457	1.544	1.696	1.969	2.362	2.714	3.183	3.913	4.332	4.601	4.758	6.004	5.878	5.546	5.119	4.745	4.718	4.919	4.696	4.589	4.997	5.143	5.286	5.384	5.471	5.359	5.839	5.748	5.962	6.455	6.217	6.402	6.239	6.562	6.410	6.321	6.284
380.0	913.7	1328	1661	1767	1587	1401	1196	1170	1171	1220	1262	1293	1309	1280	1199	1105	1031	946.1	862.4	786.4	707.1	648.9	611.1	586.0	420.8	303.1	239.8	191.9	199.8	278.5	806.5	3774	4120	277.7	8.621	3.658	2.840	2.133	1.749	1.714	1.521	1.551	1.745	1.933	2.266	2.488	3.175	3.901	4.196	4.170	4.604	5.424	5.710	5.391	5.480	4.822	4.644	4.944	4.986	4.561	4.916	5.105	5.141	5.456	5.506	5.120	5.545	5.602	5.919	5.982	6.019	6.118	6.055	6.454	6.469	6.282	6.055
385.0	857.5	1258	1562	1685	1552	1374	1224	1179	1193	1231	1275	1276	1286	1249	1182	1082	1024	945.4	872.8	812.7	736.8	675.0	617.3	606.4	519.6	368.4	288.0	224.2	181.7	162.7	257.0	1163	4149	2590	40.44	6.275	3.694	2.781	1.990	1.567	1.575	1.501	1.823	1.776	2.125	2.480	3.045	3.520	3.928	4.015	4.265	5.125	5.467	5.344	5.469	4.765	5.009	4.712	5.017	4.762	5.025	5.370	5.266	5.191	5.386	5.139	5.327	5.322	5.574	5.730	6.136	5.726	5.991	6.366	6.250	6.155	6.026
390.0	841.8	1199	1471	1559	1518	1364	1254	1211	1211	1258	1294	1302	1302	1256	1180	1087	1018	954.0	894.4	842.5	785.5	727.2	673.4	630.5	593.3	508.2	385.2	300.0	238.6	189.2	173.8	341.4	1246	2845	2856	738.6	15.27	4.838	2.813	2.018	1.630	1.709	1.735	1.766	2.062	2.534	2.786	3.494	3.801	3.946	3.995	4.923	5.284	5.056	5.163	4.795	5.045	4.899	5.000	4.925	4.934	5.177	5.311	5.399	5.698	5.251	5.725	5.504	5.550	5.842	5.844	6.035	6.035	5.947	5.848	5.796	5.844
395.0	818.5	1154	1404	1504	1503	1391	1298	1280	1289	1351	1418	1445	1430	1355	1261	1149	1044	975.2	925.0	882.4	845.9	800.3	764.4	718.3	666.6	638.8	562.9	426.1	348.5	280.0	226.3	213.3	370.2	729.7	2068	3635	286.5	19.28	4.996	3.047	2.051	2.016	1.862	1.752	2.194	2.686	2.728	3.343	3.676	4.027	3.969	4.797	5.523	5.131	5.168	4.932	5.105	5.214	5.227	5.121	5.323	5.526	5.489	5.429	5.579	5.464	5.647	5.723	5.939	6.011	6.272	6.122	6.298	6.026	6.427	5.939	6.061
400.0	790.4	1115	1391	1482	1482	1426	1375	1378	1411	1518	1615	1664	1652	1539	1407	1241	1105	1013	957.7	934.7	906.8	879.4	866.2	827.3	780.9	737.9	714.1	590.6	461.6	388.7	315.4	247.8	221.2	262.2	618.2	2710	2378	249.4	11.87	4.200	2.550	2.164	1.960	1.842	2.129	2.698	2.856	3.382	3.804	3.870	4.106	4.642	5.103	5.101	5.270	5.023	5.380	5.299	5.552	5.096	5.488	5.777	5.716	6.034	5.788	5.719	6.151	6.231	6.322	6.321	6.072	6.391	6.544	6.071	6.311	6.135	6.245
405.0	767.0	1074	1364	1490	1542	1500	1459	1498	1571	1720	1875	1944	1904	1777	1596	1368	1179	1064	1003	980.2	974.7	972.3	972.1	960.6	917.5	865.3	833.6	766.1	617.0	510.7	419.9	327.6	245.0	202.4	249.1	861.5	2836	2250	38.26	6.786	3.445	2.264	2.123	2.079	2.254	2.658	2.775	3.461	3.790	3.939	3.855	4.837	5.264	5.132	5.651	4.997	5.718	5.768	5.562	5.711	5.839	6.000	6.328	6.318	6.840	6.812	6.606	6.794	6.848	6.648	6.838	7.031	6.767	7.021	6.800	6.498	6.510
410.0	767.4	1055	1339	1482	1540	1541	1539	1613	1734	1933	2129	2220	2166	2004	1776	1487	1242	1098	1035	1025	1032	1053	1074	1078	1052	1000	950.0	892.4	793.6	650.1	532.7	420.7	314.0	240.4	205.6	307.9	885.7	2283	2239	635.0	13.35	3.355	2.415	2.413	2.359	2.789	2.720	3.503	3.765	3.854	3.952	5.005	5.124	5.378	5.640	5.258	5.886	6.060	6.072	5.987	6.070	6.535	6.539	6.843	7.170	7.140	7.226	7.136	7.388	7.352	7.427	7.070	7.324	7.127	7.098	6.603	6.755
415.0	730.0	1028	1279	1428	1502	1530	1535	1636	1779	1960	2174	2262	2186	2032	1790	1491	1226	1069	1017	1007	1027	1058	1077	1102	1084	1039	983.8	906.9	846.0	737.9	591.2	461.4	348.1	264.7	210.9	194.3	282.9	580.0	1463	2703	262.2	14.33	3.186	2.977	2.588	2.711	2.845	3.339	3.691	3.726	3.787	4.665	5.017	5.250	5.369	5.194	5.830	6.113	5.855	6.381	6.266	6.283	6.692	6.787	6.933	7.286	6.900	7.046	7.447	7.407	7.254	7.116	7.235	7.263	6.408	6.716	6.255
420.0	702.7	994.8	1204	1379	1470	1491	1521	1599	1724	1911	2116	2179	2120	1954	1718	1431	1179	1033	980.9	974.2	994.7	1027	1049	1075	1059	1025	966.0	890.8	819.1	756.1	616.5	472.7	356.6	271.6	212.5	171.3	149.1	181.1	402.0	1863	2146	226.5	7.527	3.290	2.834	2.946	2.828	3.290	3.635	3.273	3.634	4.462	4.770	5.216	5.386	5.031	5.626	5.943	6.153	6.346	6.375	5.829	6.685	6.719	6.825	7.069	7.405	6.838	7.251	7.140	6.974	6.502	6.740	6.885	6.260	6.078	6.349
425.0	714.6	947.3	1171	1339	1429	1465	1495	1579	1708	1868	2061	2138	2055	1899	1657	1387	1138	998.9	942.4	936.1	960.0	994.8	1025	1045	1036	1012	957.7	883.2	799.6	739.8	649.5	492.5	366.1	280.9	219.4	170.0	124.1	95.79	120.2	538.2	2022	1918	35.49	4.704	3.126	3.010	3.015	3.430	3.393	3.471	3.768	4.527	4.971	4.813	5.183	5.229	5.738	5.754	5.882	5.799	6.223	5.944	6.336	6.432	6.660	6.952	7.050	6.574	6.806	6.562	6.914	6.373	6.543	6.799	6.330	5.699	5.973
430.0	738.5	921.3	1136	1295	1388	1458	1521	1597	1699	1887	2067	2136	2053	1890	1655	1364	1118	968.2	917.3	914.0	933.3	968.5	1008	1037	1036	1013	969.3	899.9	817.0	738.4	659.5	550.7	407.7	309.0	243.5	188.4	133.0	86.83	63.89	141.9	563.0	1507	1771	583.8	13.45	3.444	2.984	3.415	3.535	3.361	3.612	4.413	4.840	4.842	5.366	5.151	5.565	5.725	5.849	5.764	6.042	6.011	6.401	6.503	6.632	6.731	6.640	6.911	6.827	6.447	6.654	6.614	6.496	6.567	5.971	5.714	5.702
435.0	968.7	902.4	1125	1246	1373	1435	1520	1619	1732	1894	2082	2144	2035	1872	1630	1345	1089	939.6	887.3	887.5	903.9	943.1	989.9	1021	1022	1014	971.4	909.2	830.8	750.0	658.2	569.2	456.3	339.1	266.2	208.5	149.8	96.30	60.09	59.36	143.4	357.1	1000	2165	254.8	17.47	3.712	3.705	3.636	3.429	3.513	4.512	4.623	4.836	5.274	5.167	5.550	5.937	6.008	5.910	5.851	6.028	6.287	6.518	6.974	6.482	6.731	6.962	6.415	6.744	6.612	6.476	6.473	6.310	5.872	5.386	5.644
440.0	1204	946.0	1057	1203	1339	1420	1517	1592	1711	1851	2009	2058	1966	1804	1559	1285	1043	900.2	850.5	847.3	864.9	903.7	947.1	977.6	989.8	975.8	940.7	884.3	813.8	738.0	645.5	549.8	466.6	361.5	277.6	215.8	158.6	104.0	63.69	45.93	53.69	95.38	260.7	1372	2023	232.1	10.56	4.044	3.914	3.457	3.424	4.311	4.546	4.800	5.132	4.952	5.575	6.055	6.098	5.744	6.033	6.085	6.069	6.197	6.306	6.159	6.560	6.557	6.487	6.482	6.228	6.455	5.941	5.966	5.818	5.427	5.345
445.0	1207	1204	1036	1151	1275	1413	1486	1539	1641	1754	1890	1914	1844	1689	1455	1198	987.3	852.4	808.9	799.7	810.5	844.2	885.7	915.3	926.9	918.8	887.0	836.7	773.1	704.5	618.6	522.5	441.2	370.5	282.8	217.4	160.6	108.4	70.33	46.33	37.24	39.53	72.07	375.5	1620	1865	170.9	6.599	3.979	3.316	3.250	4.205	4.454	4.749	4.861	5.073	5.538	5.732	5.863	5.794	5.889	5.845	5.975	6.084	6.288	5.821	6.154	6.354	6.292	5.899	5.917	6.183	5.815	5.680	5.395	5.008	5.065
450.0	902.7	1739	1152	1093	1202	1315	1404	1462	1510	1591	1689	1710	1631	1489	1296	1076	894.0	776.9	735.2	720.6	728.8	749.2	786.3	817.2	822.7	815.7	791.1	754.0	698.5	642.4	571.2	480.5	401.4	341.7	287.4	217.5	159.2	110.4	74.81	51.13	38.65	30.86	32.92	96.68	430.3	1247	1624	604.2	13.53	3.916	3.353	4.171	4.406	4.478	4.864	4.899	5.350	5.349	5.468	5.594	5.729	5.562	5.517	5.769	5.819	5.803	5.654	5.757	5.650	5.550	5.318	5.639	5.230	5.212	4.973	4.698	4.721
455.0	593.8	1687	1795	1022	1120	1209	1309	1352	1389	1427	1501	1509	1438	1310	1138	954.3	794.3	695.3	660.8	644.2	648.5	663.8	698.3	717.1	722.4	716.8	698.4	670.1	629.0	578.2	518.6	441.4	368.6	308.1	267.0	227.1	163.3	112.4	78.13	57.58	42.89	32.64	27.76	36.64	107.7	291.0	726.3	1797	792.0	16.24	3.864	4.125	4.228	4.211	4.617	4.428	5.083	5.223	5.158	5.162	5.388	5.333	5.063	5.230	5.170	5.417	5.238	5.394	5.384	4.995	4.810	5.124	4.835	4.631	4.444	4.550	4.030
460.0	525.4	1178	2377	1164	1030	1131	1215	1281	1294	1331	1385	1392	1307	1190	1041	865.5	726.0	638.1	605.6	590.3	594.9	600.8	628.2	650.3	655.7	652.1	635.5	614.3	576.5	535.4	484.4	415.2	347.1	289.7	246.7	221.7	169.7	115.6	81.99	61.26	45.49	35.48	28.40	25.19	37.21	75.38	179.3	929.1	1774	186.0	11.89	4.236	4.163	3.966	4.387	4.058	4.973	5.138	4.947	5.011	4.956	4.768	4.662	4.635	4.773	4.739	4.578	5.069	4.914	4.860	4.731	4.616	4.461	4.535	3.912	3.914	3.901
465.0	456.5	771.6	2341	1681	989.1	1062	1145	1193	1204	1214	1277	1273	1203	1086	949.3	799.4	670.6	592.0	552.2	539.1	538.2	548.8	567.6	593.6	598.5	594.0	585.7	564.6	529.1	497.5	448.8	393.0	329.8	274.6	231.5	205.5	171.0	120.1	84.35	63.89	48.34	38.25	29.86	24.50	22.91	28.37	49.51	238.0	1135	1447	160.2	9.240	4.172	3.962	4.271	4.123	4.565	4.955	4.619	4.723	4.476	4.505	4.266	4.329	4.415	4.370	4.359	4.494	4.360	4.242	4.008	4.017	4.088	4.069	3.750	3.735	3.389
470.0	425.6	586.1	1456	2440	1199	967.5	1037	1062	1072	1077	1123	1119	1049	949.1	824.6	696.8	589.2	518.6	483.6	474.0	467.5	477.6	490.9	512.4	520.4	515.3	508.8	491.4	469.2	440.6	401.8	352.9	298.1	248.8	212.1	180.8	155.1	123.7	88.73	64.96	50.49	40.58	32.08	25.97	21.57	19.43	21.50	61.64	287.5	807.4	1124	580.4	15.58	4.240	4.024	3.956	4.200	4.281	4.229	4.399	4.229	4.161	4.101	4.096	3.987	3.817	4.211	4.141	3.830	3.732	3.799	3.546	3.579	3.714	3.264	3.220	3.201
475.0	403.9	496.4	795.9	2097	2028	901.7	904.2	925.9	927.4	949.4	960.0	950.8	893.2	796.1	697.8	594.7	505.1	445.0	418.6	409.3	398.8	402.4	418.7	435.6	439.0	436.7	432.7	418.9	401.0	380.2	347.9	308.9	261.3	223.8	190.0	162.2	134.7	113.8	94.19	68.96	52.18	42.10	33.59	27.47	22.77	19.04	16.41	23.23	71.85	186.9	389.8	1114	683.4	21.29	4.120	3.666	3.835	3.898	4.022	3.748	3.793	3.756	3.553	3.486	3.703	3.470	3.815	3.191	3.346	3.246	3.140	3.286	3.166	3.184	2.976	2.837	2.889
480.0	389.1	461.8	601.4	1348	2628	1082	823.7	841.7	845.4	838.9	858.4	838.7	788.7	713.7	617.9	531.3	448.0	398.0	376.3	364.0	355.9	356.5	371.5	384.3	388.4	382.0	381.1	370.8	356.2	342.6	312.5	278.8	237.7	205.2	174.7	150.9	123.4	103.6	90.92	73.72	53.84	42.46	34.35	28.73	23.57	19.36	16.52	15.16	24.22	48.28	94.48	458.9	1231	219.2	16.37	3.993	3.957	3.456	3.728	3.685	3.408	3.410	3.261	3.335	3.226	3.323	3.120	3.208	3.355	2.893	2.955	2.913	2.742	2.815	2.808	2.658	2.614
485.0	332.8	462.5	519.7	803.0	2548	1648	768.9	773.7	774.5	761.2	773.2	759.6	710.9	631.5	549.8	479.2	408.4	362.2	340.3	332.8	321.9	321.8	332.7	342.1	345.4	343.9	338.6	333.1	322.7	308.7	287.1	253.4	218.8	190.3	163.2	141.4	116.1	96.02	83.96	76.57	58.25	44.10	35.41	29.66	24.93	20.81	17.40	14.55	14.06	17.87	27.27	113.6	658.1	1137	195.8	10.45	3.819	3.477	3.384	3.273	3.286	3.174	2.991	3.157	2.989	2.857	2.761	2.913	2.869	2.902	2.872	2.661	2.589	2.659	2.629	2.568	2.523
490.0	272.0	438.6	478.4	571.7	1480	2445	1011	701.5	685.8	682.4	685.9	672.4	626.5	558.8	488.0	420.7	359.9	323.9	302.2	293.5	284.3	282.6	289.6	295.2	299.6	298.6	295.3	289.3	281.4	271.7	251.9	227.6	197.6	173.4	148.7	129.4	108.5	89.53	76.59	69.63	62.25	47.95	36.30	30.33	25.67	21.71	18.37	15.31	12.75	11.85	12.59	31.05	160.8	522.5	928.7	574.2	18.04	3.965	3.290	3.104	3.104	2.933	2.679	2.819	2.823	2.784	2.537	2.578	2.585	2.504	2.268	2.464	2.428	2.366	2.222	2.279	2.337
495.0	234.3	372.4	469.0	461.1	735.4	2101	1874	661.2	599.6	603.6	597.1	585.6	541.7	487.0	426.8	367.9	312.0	283.7	265.1	253.9	244.1	244.3	247.6	251.5	257.3	258.2	253.1	250.6	245.9	236.2	221.4	200.6	175.3	155.5	134.3	117.4	99.42	84.25	70.17	61.35	57.94	53.29	40.02	30.85	26.30	22.14	19.46	16.45	13.49	11.25	9.554	13.20	40.62	121.0	308.2	976.8	789.9	25.16	3.546	3.114	2.838	2.772	2.586	2.360	2.644	2.424	2.425	2.388	2.227	2.216	2.082	2.290	2.257	2.039	2.091	1.895	2.124
500.0	209.8	316.6	450.2	429.5	507.5	1301	2536	832.0	540.9	533.6	537.5	522.8	480.5	430.7	376.3	323.6	281.8	253.1	239.0	227.9	217.6	216.0	218.9	223.1	226.8	228.2	226.5	221.3	220.4	209.6	199.8	180.2	159.4	142.2	123.9	107.7	93.56	77.63	66.14	56.80	51.84	50.22	43.20	32.19	26.45	22.12	19.08	16.80	14.02	11.07	9.431	9.367	14.33	31.53	74.01	372.0	1149	246.2	18.69	3.028	2.792	2.389	2.394	2.332	2.423	2.254	2.132	2.090	2.092	2.102	2.002	1.956	1.940	1.969	1.855	1.781	1.822
505.0	184.3	281.9	399.5	408.6	425.2	702.9	2482	1386	497.6	474.4	470.5	469.9	427.5	388.8	336.4	289.4	250.5	227.1	215.8	203.5	194.8	192.0	196.9	200.2	201.5	201.5	201.4	198.7	194.8	187.9	179.4	162.4	143.2	128.2	113.9	99.39	85.31	72.92	62.51	53.89	46.99	44.58	43.73	34.41	26.45	22.75	18.51	16.65	13.93	11.73	9.820	8.445	8.464	11.49	20.73	90.07	531.3	1041	223.8	11.18	2.872	2.455	2.169	2.142	2.075	1.954	2.008	1.982	2.121	2.009	1.900	1.802	1.650	1.824	1.669	1.596	1.797
510.0	163.3	231.4	326.6	398.5	367.1	444.2	1397	2319	702.4	418.3	410.1	404.7	365.2	332.8	288.1	246.1	216.2	195.0	184.2	175.3	166.6	163.7	169.6	170.8	172.1	171.3	170.8	167.9	165.7	163.0	154.2	140.8	124.7	110.4	99.08	87.53	76.08	65.98	56.94	48.69	42.70	38.65	38.19	35.91	28.22	22.07	19.30	16.62	13.78	11.62	9.969	8.459	7.395	7.119	8.848	23.87	127.6	446.0	770.4	466.8	17.38	2.711	2.073	2.040	1.894	1.710	1.722	1.737	1.755	1.723	1.570	1.662	1.594	1.580	1.440	1.397	1.591
515.0	156.8	195.0	242.0	356.9	333.4	346.7	604.0	2143	1584	383.3	349.1	342.0	313.2	274.9	243.6	210.9	181.3	166.4	156.1	148.3	139.7	138.4	141.2	142.8	145.1	142.7	141.7	139.8	140.5	136.5	129.5	120.0	108.6	95.38	85.45	75.34	67.61	58.77	50.71	43.75	39.06	35.33	31.53	33.01	29.93	23.43	18.42	15.65	13.45	11.19	9.819	8.786	7.374	6.198	6.305	9.199	32.19	102.5	236.8	742.7	581.1	23.88	2.367	1.783	1.660	1.596	1.594	1.465	1.382	1.518	1.350	1.272	1.463	1.406	1.189	1.252	1.353
520.0	129.0	178.0	222.9	296.7	334.5	295.7	359.0	1264	2459	538.6	309.3	300.1	277.7	241.9	211.3	185.2	160.7	145.1	138.3	129.6	121.9	123.2	123.7	124.2	125.2	124.0	123.1	122.2	121.8	118.9	113.5	105.8	95.38	84.54	76.12	68.18	60.81	52.32	45.70	39.67	35.83	32.18	28.51	28.11	29.21	24.98	18.54	15.27	12.90	11.33	9.655	8.587	7.239	6.459	5.535	6.017	10.81	25.98	56.39	278.1	820.4	245.6	16.44	2.026	1.558	1.530	1.535	1.362	1.376	1.377	1.293	1.207	1.269	1.133	1.259	1.224	1.230
525.0	107.3	157.0	198.1	238.7	321.3	270.2	293.6	591.8	2601	1106	279.8	269.2	237.7	217.1	186.4	163.0	142.9	130.9	122.6	116.2	110.7	108.0	108.3	108.7	110.2	109.9	109.2	107.8	107.8	105.7	100.6	93.97	85.02	76.00	68.81	62.48	55.19	47.54	42.46	36.77	33.03	29.75	27.14	24.50	25.41	25.00	19.45	14.97	13.01	10.80	9.445	8.173	7.449	6.437	5.563	5.049	5.883	8.886	15.35	66.68	373.4	746.2	207.7	8.023	1.827	1.488	1.420	1.348	1.296	1.114	1.163	1.036	1.188	1.093	1.040	1.101	1.048
530.0	104.5	137.2	166.4	189.5	269.9	272.1	245.3	321.0	1445	2245	461.0	230.7	206.2	183.5	158.4	140.0	123.1	110.4	104.6	98.49	94.34	93.08	92.00	92.36	92.90	94.57	92.03	91.71	91.86	90.65	86.08	79.89	73.46	65.64	58.71	53.82	47.63	42.27	37.01	32.81	29.83	26.04	24.11	22.04	21.44	21.91	20.32	15.91	12.13	10.48	9.006	7.985	6.873	6.430	5.446	4.764	4.706	5.007	6.194	17.31	89.22	314.3	550.5	341.6	15.79	1.762	1.322	1.262	1.078	1.057	1.076	1.007	1.043	0.878	0.950	0.994	0.937
535.0	95.00	115.9	135.9	164.0	201.4	261.3	212.5	227.4	510.4	2230	1368	214.1	174.6	156.1	133.9	117.4	103.2	95.49	85.65	81.88	79.50	77.45	75.70	76.12	78.11	77.46	77.94	77.23	75.82	74.77	71.78	66.53	61.49	55.77	50.34	45.67	40.43	35.99	32.45	29.28	26.39	23.09	21.28	19.51	18.22	17.74	18.34	17.22	12.33	9.720	8.446	7.017	6.494	5.989	5.457	4.799	4.151	3.899	3.813	6.233	21.93	72.01	165.2	521.6	253.8	21.38	1.368	1.122	1.106	1.070	0.964	0.813	0.818	0.845	0.908	0.744	0.816
540.0	85.90	99.19	123.0	141.6	155.6	230.4	208.1	188.2	247.7	1247	2219	255.7	152.5	135.6	116.6	100.9	90.47	81.22	74.28	71.64	70.31	65.55	66.58	66.33	66.84	66.58	67.12	66.40	65.66	65.97	61.80	58.43	52.11	48.54	44.41	40.13	36.69	32.54	29.08	26.30	23.47	21.42	19.53	17.44	16.66	14.92	15.58	16.42	13.21	9.120	8.200	6.591	6.076	5.621	5.010	4.554	4.131	3.658	3.188	3.670	6.735	17.73	39.05	192.4	538.3	231.0	13.06	1.259	1.051	0.968	0.987	0.736	0.744	0.885	0.807	0.681	0.755
545.0	77.56	97.39	116.8	122.2	135.3	187.6	207.4	164.6	171.2	509.8	2582	772.8	136.4	123.0	100.5	88.16	78.81	71.20	66.08	62.99	60.16	56.77	57.91	58.78	57.98	58.68	57.86	57.29	57.94	57.35	54.54	51.65	45.63	42.24	38.67	34.70	31.79	28.69	26.19	23.04	21.44	18.78	17.75	15.94	14.66	13.48	13.00	14.02	13.55	9.540	7.653	6.647	5.557	5.399	4.677	4.685	4.280	3.519	3.036	2.819	3.365	5.671	10.27	45.81	246.7	533.7	177.5	5.630	1.028	0.829	0.960	0.731	0.654	0.813	0.775	0.722	0.625
550.0	70.48	84.31	106.1	102.7	111.7	133.7	199.5	152.7	139.7	216.0	1385	1959	250.3	99.67	84.00	73.60	64.39	59.08	55.46	51.99	48.98	46.84	47.27	47.49	48.12	48.29	47.48	45.97	46.58	45.54	44.63	41.86	37.61	34.99	31.92	28.71	26.42	23.98	21.82	19.83	17.61	16.10	14.95	13.87	12.65	11.98	10.82	10.52	11.37	9.874	7.390	5.990	5.007	4.663	4.326	3.802	4.045	3.563	2.806	2.339	2.310	2.802	3.621	11.52	58.49	216.4	377.1	147.4	14.54	1.036	0.995	0.726	0.633	0.727	0.625	0.614	0.567
555.0	65.04	88.42	98.19	86.79	85.46	100.3	153.4	156.4	111.4	128.7	422.0	2111	940.1	87.74	68.40	59.71	53.95	47.54	45.12	42.19	39.73	38.85	37.69	37.83	38.23	38.36	37.23	37.58	37.98	36.57	35.65	33.33	30.60	28.03	25.75	23.35	21.37	19.76	17.73	16.31	14.68	13.41	12.34	11.40	10.89	9.868	8.894	8.311	8.259	8.655	7.744	5.791	4.525	3.986	3.686	3.476	3.341	3.362	2.778	2.465	1.931	2.166	2.130	3.898	14.19	49.48	111.5	319.6	238.0	18.91	1.030	0.736	0.642	0.619	0.530	0.497	0.521
560.0	67.29	78.94	86.49	74.80	76.35	83.44	110.9	162.8	102.1	100.5	168.5	1199	1874	140.6	57.44	49.61	44.22	39.52	37.12	35.22	33.61	32.75	31.17	31.92	32.32	31.80	30.74	31.19	31.08	29.76	29.15	28.52	25.49	23.75	21.97	19.73	18.51	16.80	15.16	13.98	11.96	11.76	10.71	9.885	9.425	8.524	7.669	7.028	6.516	6.986	7.331	5.793	4.170	3.518	3.217	3.024	2.723	2.752	2.574	2.399	1.857	1.718	1.656	1.938	4.181	11.97	26.15	119.7	354.9	189.1	10.19	0.726	0.640	0.538	0.512	0.459	0.560
565.0	61.18	81.26	79.12	69.81	68.64	71.96	85.56	147.6	105.0	87.81	103.2	444.2	2235	450.6	50.51	42.66	37.69	33.66	32.53	29.73	27.54	27.65	26.63	26.70	26.53	25.85	26.48	26.47	25.83	24.73	24.46	23.84	21.39	19.92	17.93	16.96	15.62	14.07	12.63	12.42	10.60	10.07	9.224	8.897	7.830	7.541	6.708	6.205	5.611	5.570	6.341	5.595	4.222	3.321	2.905	2.849	2.534	2.515	2.276	2.608	1.871	1.686	1.625	1.588	1.871	3.692	6.813	28.52	154.5	338.2	118.9	3.505	0.665	0.546	0.520	0.462	0.550
570.0	67.21	70.89	74.54	60.79	58.99	58.15	66.38	105.0	125.0	80.33	80.10	157.8	1255	1423	92.61	35.47	31.39	26.97	25.64	23.95	22.79	21.93	21.26	21.75	21.11	20.95	20.97	21.17	20.66	20.46	20.35	18.84	17.49	16.10	14.98	13.68	12.42	11.44	10.39	10.05	8.811	8.549	7.483	7.308	6.658	6.104	5.642	5.173	4.751	4.384	4.562	4.736	4.375	3.228	2.559	2.583	2.246	2.079	1.926	2.137	2.061	1.664	1.434	1.380	1.339	1.796	2.385	7.181	36.64	134.7	229.0	123.9	12.32	0.668	0.506	0.449	0.443
575.0	66.98	73.16	74.46	54.37	47.02	50.25	49.99	67.23	125.6	87.79	70.60	83.66	360.3	1711	562.0	31.94	24.66	21.84	20.95	19.09	18.73	17.74	16.86	16.91	16.54	16.60	15.90	16.57	16.47	16.34	16.39	14.88	13.89	13.09	11.91	10.95	9.806	9.442	8.577	7.781	7.462	6.986	6.008	5.925	5.377	5.136	4.799	4.402	4.025	3.563	3.183	3.386	3.801	3.473	2.372	2.124	1.826	2.000	1.635	1.625	1.627	1.715	1.412	1.201	1.160	1.330	1.461	2.404	8.933	30.80	67.31	199.7	164.5	14.29	0.558	0.440	0.365
580.0	67.04	88.52	72.31	51.69	47.28	44.28	46.29	50.03	107.3	100.8	64.88	68.05	124.5	1016	1123	57.17	20.82	19.24	18.21	15.59	15.89	14.30	14.84	14.42	13.88	13.66	13.49	13.75	13.59	13.57	13.04	12.75	11.95	11.24	9.836	9.331	8.846	8.147	7.271	6.741	5.906	5.908	5.295	5.117	4.669	4.438	4.155	3.747	3.364	2.936	2.789	2.586	3.195	3.375	2.509	1.975	1.648	1.666	1.480	1.469	1.398	1.594	1.643	1.198	1.156	1.125	1.149	1.352	2.787	7.603	16.03	74.25	222.8	118.3	6.333	0.456	0.335
585.0	66.03	79.48	64.41	51.58	42.65	41.03	43.62	45.17	76.61	116.4	65.89	62.47	69.37	362.3	1616	121.2	18.54	15.73	15.07	13.91	12.77	12.36	12.22	12.33	11.56	12.14	11.39	11.78	11.37	11.68	11.31	10.46	10.10	9.144	8.198	7.733	7.395	6.771	6.174	5.986	5.072	5.169	4.800	4.421	3.884	3.906	3.570	3.104	2.983	2.613	2.439	2.202	2.550	2.965	2.506	1.784	1.581	1.460	1.440	1.262	1.205	1.451	1.666	1.419	1.081	1.023	1.000	1.216	1.316	2.380	4.290	17.80	96.48	209.1	35.13	2.694	0.468
590.0	60.48	71.26	63.09	50.88	41.66	37.15	36.48	42.59	54.98	106.7	83.74	60.46	54.87	114.1	928.0	873.9	44.66	13.60	12.12	11.22	10.69	10.49	10.05	10.08	9.547	9.585	9.229	9.677	9.241	9.452	9.139	8.366	8.144	7.289	6.812	6.353	6.162	5.588	4.967	4.763	4.199	4.184	3.719	3.431	3.357	3.180	2.953	2.734	2.499	2.194	2.097	1.870	1.887	2.234	2.363	2.006	1.530	1.327	1.272	1.106	1.056	1.098	1.289	1.314	1.072	0.956	0.899	0.950	1.007	1.167	1.551	4.563	22.76	81.89	134.1	84.23	10.42
595.0	59.21	64.35	63.65	51.11	36.29	32.60	32.91	37.26	45.73	77.57	102.2	63.81	54.15	55.92	254.4	1142	284.1	12.80	10.34	9.317	8.624	8.815	7.857	7.979	7.677	7.845	7.321	7.752	7.706	7.614	7.189	6.859	6.469	5.797	5.340	5.191	4.885	4.441	4.218	3.547	3.288	3.333	3.133	2.853	2.611	2.611	2.340	2.315	2.284	1.800	1.783	1.614	1.505	1.593	1.620	1.908	1.711	1.180	1.065	1.003	1.063	0.927	0.928	1.110	1.260	1.043	0.774	0.856	0.898	0.830	0.835	1.476	5.550	18.67	38.97	120.9	108.0
600.0	52.70	60.05	54.82	51.24	36.77	31.84	31.81	39.82	42.55	60.61	105.2	73.13	52.26	43.69	79.51	703.3	724.0	23.46	9.057	8.192	7.573	6.821	6.545	6.840	6.525	6.396	6.262	6.170	6.351	6.512	6.061	5.460	5.449	4.937	4.738	4.258	4.145	3.678	3.439	3.071	3.053	2.830	2.745	2.358	2.169	2.371	2.027	1.916	1.915	1.688	1.475	1.329	1.309	1.310	1.289	1.596	1.774	1.339	0.965	0.925	0.831	0.762	0.846	0.787	0.894	1.081	0.867	0.736	0.751	0.686	0.609	0.807	1.668	4.556	9.109	42.98	134.4
605.0	53.18	62.62	57.62	50.55	37.16	33.08	34.09	37.28	43.51	55.61	100.9	90.58	59.13	43.63	42.69	258.0	1023	79.12	8.090	6.636	6.526	5.813	5.702	5.880	5.680	5.595	5.189	5.344	5.236	5.749	4.973	5.294	4.608	4.065	3.912	3.718	3.382	3.159	2.923	2.725	2.570	2.262	2.230	2.077	1.887	2.031	1.908	1.790	1.594	1.399	1.180	1.135	1.079	1.120	1.089	1.262	1.570	1.429	0.992	0.834	0.775	0.781	0.811	0.733	0.732	1.000	0.950	0.784	0.678	0.734	0.646	0.627	0.870	1.388	2.429	10.13	55.86
610.0	59.02	64.56	59.25	46.92	33.37	35.46	37.69	46.31	54.48	65.67	91.62	116.7	77.55	55.09	43.65	85.28	634.3	529.0	21.26	5.997	5.559	4.979	4.932	4.986	4.705	4.459	4.209	4.454	4.310	4.396	4.063	4.231	3.545	3.420	3.286	3.085	2.863	2.595	2.447	2.196	2.054	2.012	1.863	1.750	1.591	1.751	1.482	1.411	1.311	1.204	1.074	1.082	0.937	0.978	0.943	0.925	1.209	1.339	1.042	0.930	0.759	0.795	0.817	0.778	0.745	0.860	0.977	0.958	0.733	0.711	0.715	0.628	0.648	0.739	0.929	2.601	13.28
615.0	55.19	62.28	63.20	44.18	38.21	35.26	41.10	47.54	55.73	71.16	86.53	120.1	98.16	62.35	47.71	46.02	188.8	772.9	81.90	5.593	4.725	4.326	4.205	4.087	4.037	3.851	3.310	3.520	3.313	3.334	3.376	2.880	2.868	2.678	2.658	2.444	2.212	2.261	2.014	1.919	1.672	1.540	1.459	1.446	1.374	1.437	1.244	1.305	1.142	1.050	0.879	0.977	0.708	0.813	0.768	0.825	0.883	1.150	1.086	0.846	0.662	0.751	0.796	0.773	0.757	0.752	0.787	0.994	1.031	0.812	0.654	0.575	0.631	0.716	0.601	0.999	3.351
620.0	61.10	55.20	60.99	42.35	39.66	33.49	39.53	46.91	53.79	67.63	78.93	105.2	109.5	64.36	49.76	36.25	65.17	518.2	441.9	9.097	4.340	3.831	3.407	3.456	3.222	3.310	2.839	3.167	2.815	3.009	3.060	2.605	2.397	2.232	2.267	2.010	1.999	1.846	1.574	1.559	1.437	1.304	1.294	1.263	1.278	1.126	1.021	1.130	1.032	0.877	0.820	0.758	0.727	0.688	0.685	0.715	0.715	0.888	0.821	0.838	0.681	0.689	0.701	0.706	0.674	0.673	0.772	0.747	0.967	0.853	0.589	0.676	0.618	0.660	0.506	0.654	1.107
625.0	56.11	64.91	62.90	43.12	35.12	34.92	38.90	46.04	54.30	65.49	76.75	91.87	112.1	69.59	50.33	34.44	35.57	202.6	692.3	46.90	3.967	3.466	2.980	3.026	2.513	2.742	2.529	2.839	2.482	2.579	2.423	2.352	2.217	1.932	1.821	1.834	1.530	1.550	1.580	1.378	1.187	1.131	1.190	1.040	1.078	1.050	1.008	1.027	0.822	0.833	0.736	0.729	0.603	0.710	0.696	0.660	0.580	0.710	0.771	0.802	0.717	0.676	0.704	0.636	0.644	0.727	0.725	0.737	0.747	0.899	0.654	0.635	0.559	0.593	0.435	0.433	0.525
630.0	49.21	61.98	58.91	44.20	35.83	33.43	37.28	45.97	50.67	63.43	73.80	84.39	100.6	80.47	51.10	33.80	28.32	62.09	468.3	341.4	10.61	3.095	2.650	2.614	2.351	2.290	2.192	2.236	2.145	2.076	1.845	1.923	1.743	1.698	1.465	1.500	1.376	1.300	1.147	1.177	1.084	0.960	1.038	0.877	1.041	0.915	0.824	0.788	0.718	0.689	0.670	0.643	0.505	0.543	0.596	0.565	0.545	0.524	0.679	0.742	0.750	0.707	0.601	0.634	0.611	0.650	0.664	0.712	0.742	0.808	0.740	0.663	0.536	0.502	0.457	0.426	0.493
635.0	52.20	57.74	59.33	43.81	33.21	33.73	36.14	44.90	50.25	60.12	72.08	82.92	86.19	87.49	56.24	34.87	28.59	28.08	134.8	557.4	63.83	2.946	2.357	2.048	2.101	2.021	1.822	1.908	1.587	1.893	1.572	1.497	1.426	1.348	1.120	1.214	1.229	1.168	0.989	0.946	0.865	0.863	0.756	0.738	0.832	0.701	0.671	0.702	0.629	0.646	0.573	0.534	0.530	0.500	0.565	0.470	0.443	0.416	0.536	0.670	0.647	0.706	0.754	0.526	0.633	0.594	0.552	0.655	0.764	0.701	0.699	0.658	0.601	0.552	0.456	0.439	0.384
640.0	46.80	60.65	54.84	47.05	35.97	30.60	35.64	43.48	49.00	59.87	71.44	79.20	79.31	86.24	61.49	36.36	29.68	20.44	37.89	404.5	337.5	5.041	1.961	2.010	1.751	1.674	1.575	1.484	1.669	1.570	1.430	1.553	1.347	1.081	1.095	1.043	1.112	0.943	0.822	0.808	0.829	0.661	0.639	0.671	0.693	0.629	0.572	0.626	0.616	0.557	0.494	0.477	0.496	0.471	0.529	0.509	0.410	0.487	0.479	0.571	0.590	0.601	0.660	0.490	0.552	0.584	0.587	0.695	0.669	0.645	0.630	0.672	0.652	0.474	0.475	0.439	0.389
645.0	50.50	63.45	50.78	43.36	39.08	32.11	36.81	40.10	45.95	56.67	67.12	78.83	75.77	79.29	69.87	38.41	29.32	19.32	14.90	167.1	569.6	28.75	2.198	1.796	1.692	1.565	1.417	1.419	1.306	1.300	1.402	1.171	1.212	1.121	1.061	0.948	1.107	0.883	0.882	0.785	0.733	0.628	0.615	0.637	0.635	0.565	0.510	0.583	0.567	0.516	0.464	0.406	0.452	0.376	0.407	0.492	0.364	0.488	0.465	0.494	0.522	0.556	0.640	0.590	0.562	0.557	0.505	0.739	0.703	0.602	0.622	0.648	0.716	0.623	0.484	0.458	0.403
650.0	52.48	66.00	58.15	48.97	36.58	30.37	34.68	39.69	46.17	55.27	63.73	74.59	72.34	72.08	71.38	40.10	28.76	19.15	10.11	48.56	543.1	139.3	2.574	1.491	1.587	1.497	1.311	1.352	1.120	1.177	1.292	1.046	1.040	0.973	0.893	0.883	0.938	0.767	0.737	0.707	0.629	0.583	0.650	0.554	0.573	0.603	0.479	0.588	0.447	0.486	0.374	0.399	0.435	0.336	0.338	0.379	0.422	0.488	0.406	0.392	0.530	0.519	0.556	0.611	0.549	0.512	0.540	0.615	0.674	0.541	0.620	0.553	0.577	0.589	0.612	0.400	0.418
