Sample:	'1
File name:	Default_20230918_151829.FD3
Run date:	'15:12:08, 09/18/2023
Operator:	dsjg
Comment:	'

Instrument
Model:	F-2700 FL Spectrophotometer
Serial number:	2198-001
ROM Version:	4J14000 07

Instrument parameters
Measurement type:	3-D scan
Data mode:	Fluorescence
EX  Start WL:	220.0 nm
EX  End WL:	600.0 nm
EX Sampling interval:	5.0 nm
EM  Start WL:	230.0 nm
EM  End WL:	650.0 nm
EM Sampling interval:	5.0 nm
Scan speed:	12000 nm/min
EX Slit:	5.0 nm
EM Slit:	5.0 nm
PMT Voltage:	700 V
Response:	Auto 
Corrected spectra:	Off
Contour interval:	50.000

Peak integration
Integration method:	Rectangular
Sensitivity:	1
Threshold:	1.000

Peaks
No.	ApexEX/EM(nm)	Height(Data)
1	235.0/260.0	154.6
2	240.0/265.0	149.2
3	245.0/270.0	136.8
4	250.0/275.0	163.8
5	255.0/285.0	171.4
6	270.0/300.0	393.2
7	275.0/305.0	433.1
8	275.0/340.0	378.5
9	285.0/425.0	 6691
10	305.0/340.0	154.6
11	310.0/350.0	151.2
12	345.0/425.0	 7232
13	435.0/515.0	63.07
14	440.0/520.0	62.08
15	445.0/525.0	59.43
16	580.0/425.0	30.72

Data points
	220.0	225.0	230.0	235.0	240.0	245.0	250.0	255.0	260.0	265.0	270.0	275.0	280.0	285.0	290.0	295.0	300.0	305.0	310.0	315.0	320.0	325.0	330.0	335.0	340.0	345.0	350.0	355.0	360.0	365.0	370.0	375.0	380.0	385.0	390.0	395.0	400.0	405.0	410.0	415.0	420.0	425.0	430.0	435.0	440.0	445.0	450.0	455.0	460.0	465.0	470.0	475.0	480.0	485.0	490.0	495.0	500.0	505.0	510.0	515.0	520.0	525.0	530.0	535.0	540.0	545.0	550.0	555.0	560.0	565.0	570.0	575.0	580.0	585.0	590.0	595.0	600.0
230.0	103.9	928.7	 1194	207.8	12.64	8.943	8.556	6.598	5.697	5.212	5.135	5.091	4.510	4.309	3.723	2.897	2.376	2.385	2.188	2.203	2.295	2.409	2.648	2.635	2.832	2.745	2.827	2.668	2.374	2.258	1.897	1.513	1.240	1.087	0.899	0.962	0.912	0.815	0.831	0.786	0.879	1.091	0.981	0.780	0.662	0.659	1.041	2.913	4.760	3.656	1.603	0.683	0.493	0.541	0.475	0.486	0.531	0.499	0.506	0.462	0.515	0.506	0.531	0.528	0.473	0.465	0.527	0.501	0.464	0.513	0.471	0.491	0.477	0.511	0.503	0.556	0.545
235.0	80.74	295.8	965.6	775.4	211.1	13.66	8.209	6.369	6.156	4.972	5.332	4.752	4.790	4.514	3.343	3.448	2.464	2.438	2.347	2.327	2.229	2.614	2.741	2.826	2.521	2.726	2.608	2.752	2.545	2.266	1.765	1.565	1.409	0.973	0.957	0.834	0.965	0.989	0.830	0.801	0.874	0.794	0.896	0.990	0.914	0.669	0.674	1.123	1.946	2.756	3.864	3.971	2.300	0.815	0.559	0.491	0.538	0.547	0.595	0.576	0.517	0.534	0.491	0.511	0.468	0.483	0.543	0.471	0.421	0.553	0.567	0.513	0.528	0.514	0.563	0.517	0.585
240.0	121.4	110.5	366.9	 1040	636.5	127.2	9.463	5.945	6.855	5.371	4.985	4.394	4.872	4.597	3.924	3.398	2.622	2.777	2.263	2.427	2.258	2.475	2.677	2.726	2.556	2.758	2.861	2.570	2.727	2.318	1.715	1.553	1.278	1.091	0.939	0.903	0.853	0.885	0.819	0.908	0.742	0.754	0.752	0.872	1.067	0.859	0.828	0.689	0.834	1.119	2.130	4.483	5.150	3.855	1.528	0.592	0.600	0.601	0.508	0.534	0.488	0.553	0.494	0.463	0.467	0.456	0.445	0.485	0.487	0.496	0.494	0.571	0.510	0.483	0.484	0.539	0.554
245.0	134.3	118.4	110.3	489.4	 1143	512.4	76.22	7.579	7.056	5.818	4.985	4.976	4.284	4.675	3.561	3.250	2.377	2.462	2.478	2.429	2.381	2.554	2.426	2.877	2.827	2.744	2.920	2.588	2.818	2.644	1.825	1.634	1.223	1.053	0.856	0.948	0.794	0.796	0.931	0.941	0.800	0.764	0.708	0.775	0.752	1.007	0.925	0.878	0.678	0.632	0.896	1.904	3.370	5.509	4.869	2.989	1.002	0.616	0.494	0.477	0.505	0.558	0.466	0.471	0.529	0.529	0.470	0.552	0.486	0.459	0.516	0.549	0.450	0.510	0.556	0.535	0.501
250.0	67.22	120.2	118.6	145.2	484.0	 1002	946.9	163.8	13.26	6.246	5.258	5.441	4.996	4.623	3.810	3.285	2.507	2.477	2.259	2.579	2.392	2.623	2.739	2.867	2.926	2.874	2.847	2.867	2.582	2.432	1.975	1.540	1.318	1.057	0.923	0.937	0.741	0.734	0.786	0.816	0.860	0.761	0.792	0.753	0.677	0.742	0.714	0.896	0.920	0.819	0.712	0.880	1.232	2.118	3.335	4.467	5.361	4.276	2.456	0.983	0.566	0.536	0.488	0.558	0.535	0.526	0.491	0.539	0.491	0.482	0.457	0.516	0.527	0.501	0.507	0.548	0.502
255.0	35.87	58.58	125.0	135.3	133.4	328.7	 1282	 1152	223.8	11.96	5.495	5.077	5.676	5.025	3.917	3.449	2.720	2.529	2.373	2.362	2.371	2.752	2.545	2.920	2.809	2.943	2.624	2.709	2.513	2.362	1.827	1.567	1.264	1.054	0.990	0.953	0.715	0.761	0.761	0.731	0.816	0.853	0.759	0.837	0.703	0.699	0.636	0.610	0.638	0.785	0.900	1.040	0.903	0.907	1.185	1.578	2.727	4.788	6.964	6.240	3.137	0.939	0.527	0.490	0.516	0.466	0.473	0.489	0.506	0.497	0.473	0.501	0.539	0.594	0.543	0.559	0.566
260.0	31.25	35.01	72.60	154.6	107.2	93.32	525.5	 1239	 1066	159.3	7.884	5.323	5.940	5.234	4.374	3.687	2.897	2.362	2.629	2.261	2.919	2.947	3.105	3.019	2.725	2.787	2.640	2.757	2.673	2.400	1.948	1.588	1.208	1.044	0.950	0.722	0.728	0.737	0.735	0.696	0.754	0.841	0.698	0.821	0.606	0.716	0.687	0.592	0.581	0.620	0.765	1.172	1.106	0.812	0.703	0.849	1.058	1.716	3.587	6.644	7.678	5.323	2.116	0.685	0.522	0.529	0.481	0.485	0.517	0.630	0.477	0.483	0.564	0.527	0.450	0.536	0.532
265.0	26.12	25.13	33.46	102.5	149.2	72.69	137.9	549.5	 1404	932.2	109.4	6.061	6.022	5.151	4.229	3.290	3.163	2.282	2.503	2.487	2.615	2.669	2.886	2.957	2.920	3.002	2.725	2.719	2.818	2.267	2.028	1.574	1.293	1.092	1.029	0.880	0.708	0.745	0.729	0.663	0.779	0.843	0.721	0.786	0.709	0.717	0.700	0.659	0.523	0.549	0.541	0.831	1.132	1.219	0.951	0.742	0.631	0.863	1.254	2.478	5.097	7.927	8.051	4.395	1.257	0.549	0.568	0.487	0.531	0.567	0.566	0.462	0.529	0.459	0.555	0.535	0.519
270.0	34.76	23.60	21.74	40.23	99.74	136.8	94.57	147.3	548.2	 1181	 1137	356.6	21.14	5.804	4.713	4.013	3.050	2.769	2.706	2.524	2.601	2.696	2.837	3.032	2.964	3.112	3.100	2.877	2.766	2.340	2.072	1.593	1.380	1.268	0.987	0.893	0.890	0.864	0.749	0.778	0.698	0.723	0.732	0.808	0.766	0.771	0.681	0.642	0.529	0.535	0.509	0.645	0.753	0.858	1.049	1.179	1.115	0.850	0.777	1.012	1.713	2.924	4.640	6.336	6.713	5.586	3.249	1.169	0.536	0.570	0.511	0.516	0.524	0.477	0.571	0.512	0.562
275.0	37.06	27.45	18.85	19.99	35.41	99.33	163.8	99.91	140.5	349.1	 1044	 1493	187.2	17.41	5.121	3.988	2.976	2.977	2.591	2.655	2.509	2.829	2.937	2.825	3.353	3.260	2.931	2.867	2.615	2.551	2.147	1.877	1.572	1.459	1.236	1.061	0.951	0.943	0.831	0.671	0.874	0.739	0.696	0.689	0.880	0.787	0.725	0.692	0.612	0.533	0.546	0.526	0.602	0.626	0.645	0.838	1.296	1.499	1.264	0.890	0.796	1.076	1.512	1.937	2.655	5.422	8.238	8.127	4.102	0.999	0.594	0.510	0.507	0.518	0.584	0.511	0.538
280.0	49.43	33.68	20.91	18.23	20.64	43.60	139.2	155.6	80.53	101.3	377.2	 1307	 1350	148.7	9.369	4.571	3.682	2.864	2.624	2.638	2.846	2.630	2.906	2.950	3.251	3.122	3.141	2.864	2.801	2.511	2.210	1.824	1.638	1.561	1.304	0.981	1.015	0.959	0.891	0.740	0.897	0.791	0.718	0.733	0.808	0.896	0.698	0.738	0.607	0.589	0.599	0.585	0.622	0.644	0.542	0.625	0.798	1.144	1.466	1.337	0.903	0.675	0.808	0.926	1.136	1.980	3.852	7.176	8.818	6.608	2.711	0.768	0.552	0.517	0.582	0.495	0.521
285.0	62.58	50.41	29.82	19.28	18.97	25.22	71.42	171.4	146.7	70.53	129.0	535.2	 1412	 1151	109.7	6.277	3.791	3.206	2.839	2.807	3.196	2.578	3.049	3.229	3.203	3.097	3.083	2.874	2.936	2.419	2.012	1.875	1.675	1.736	1.620	1.170	1.213	1.105	0.921	0.821	0.855	0.862	0.795	0.796	0.836	0.835	0.826	0.765	0.661	0.598	0.531	0.512	0.582	0.559	0.578	0.597	0.673	0.745	1.028	1.321	1.358	1.047	0.828	0.736	0.768	1.015	1.485	2.650	5.143	8.291	8.874	4.850	1.529	0.589	0.485	0.521	0.602
290.0	126.7	89.77	50.26	28.92	24.13	27.41	45.73	107.2	190.5	193.2	149.4	227.3	555.2	 1093	 1111	405.1	23.39	3.692	3.044	3.284	3.164	2.924	3.169	3.199	3.296	3.383	3.060	3.102	2.846	2.539	2.110	2.012	1.890	1.950	2.032	1.523	1.358	1.179	1.050	1.006	0.916	0.913	0.914	0.900	0.924	1.006	0.916	0.944	0.782	0.668	0.627	0.651	0.660	0.623	0.625	0.645	0.648	0.732	0.776	0.977	1.238	1.433	1.472	1.350	1.121	1.018	1.109	1.440	2.004	3.237	4.762	6.249	7.061	5.845	3.434	1.147	0.618
295.0	201.1	140.9	77.72	41.53	32.54	35.65	50.78	79.59	149.1	283.5	321.1	236.6	268.3	370.2	809.0	 1426	578.2	18.35	3.795	3.677	3.231	3.013	3.266	3.436	3.789	3.432	3.180	3.209	2.984	2.640	2.480	2.151	2.038	2.286	2.438	1.919	1.611	1.524	1.256	1.142	1.048	0.975	1.097	1.037	1.007	1.115	0.927	1.065	0.868	0.738	0.665	0.694	0.683	0.689	0.666	0.669	0.684	0.814	0.944	0.815	0.971	1.080	1.345	1.838	2.175	1.617	1.466	1.399	1.549	1.735	1.957	2.248	3.022	5.175	8.478	8.356	4.337
300.0	227.8	182.1	101.0	56.39	39.44	43.23	56.68	88.13	138.3	254.4	393.2	342.9	234.2	188.2	300.4	 1043	 1498	99.22	8.180	4.014	3.435	3.345	3.364	3.329	3.716	3.482	3.414	3.189	3.005	2.587	2.398	2.016	2.130	2.615	2.630	2.110	1.829	1.455	1.323	1.285	1.280	1.221	1.235	1.161	1.080	1.197	1.084	1.019	0.979	0.719	0.681	0.669	0.710	0.680	0.697	0.712	0.731	0.876	0.866	0.900	0.873	0.982	1.247	1.504	2.144	2.196	2.373	1.721	1.602	1.629	1.377	1.351	1.361	1.943	4.019	7.553	10.23
305.0	251.4	201.2	117.8	64.43	46.52	49.88	64.62	96.03	144.8	231.5	368.6	433.1	288.4	164.9	125.3	379.2	 1234	 1320	79.63	5.236	3.799	3.823	3.729	3.695	3.772	3.647	3.403	3.242	3.162	2.644	2.313	1.946	2.380	2.711	2.804	2.258	1.675	1.587	1.416	1.189	1.198	1.157	1.208	1.280	1.122	1.281	1.065	1.018	0.906	0.740	0.738	0.765	0.726	0.670	0.665	0.759	0.756	0.800	0.830	1.007	1.014	1.036	1.219	1.513	1.706	2.096	2.593	2.404	1.952	1.613	1.243	1.244	0.986	0.989	1.448	2.868	6.041
310.0	248.2	214.5	127.3	66.56	49.85	58.68	70.35	106.8	156.3	222.1	309.7	401.9	391.2	222.6	98.43	117.4	397.8	997.8	981.9	332.0	20.67	4.302	3.995	4.111	3.868	3.839	3.583	3.436	3.035	2.944	2.329	2.113	2.277	2.647	2.674	2.181	1.781	1.616	1.334	1.227	1.184	1.175	1.154	1.200	1.198	1.202	1.211	1.091	0.890	0.715	0.759	0.773	0.703	0.723	0.698	0.797	0.783	0.792	0.851	0.978	1.075	1.082	1.283	1.508	1.504	1.670	1.993	2.184	2.295	2.204	1.675	1.274	1.067	0.839	0.867	1.254	1.979
315.0	251.0	204.2	124.6	69.82	55.01	66.49	85.07	120.3	167.6	232.0	298.7	338.9	367.3	327.5	140.8	68.06	110.2	258.1	644.5	 1429	500.0	18.85	4.582	4.183	4.179	3.926	3.699	3.505	3.022	2.631	2.416	2.024	2.261	2.649	2.477	2.055	1.834	1.487	1.291	1.250	1.224	1.215	1.206	1.191	1.330	1.214	1.125	1.168	0.982	0.739	0.649	0.734	0.801	0.727	0.782	0.726	0.859	0.932	0.958	0.991	1.012	1.126	1.374	1.573	1.509	1.681	1.871	1.980	1.925	2.235	2.121	1.930	1.335	1.027	0.813	0.865	0.971
320.0	267.7	209.9	128.0	72.99	60.13	73.83	94.65	130.4	180.6	248.9	301.2	328.9	325.3	323.7	229.4	76.81	50.60	73.44	198.2	906.7	 1484	363.7	10.15	4.682	4.009	4.298	3.991	3.633	2.977	2.722	2.440	2.215	2.210	2.523	2.260	2.036	1.670	1.525	1.318	1.230	1.216	1.253	1.229	1.326	1.263	1.156	1.148	1.057	0.937	0.710	0.579	0.758	0.728	0.833	0.692	0.819	0.885	0.902	0.975	1.118	1.262	1.289	1.371	1.544	1.477	1.616	1.844	1.927	1.701	1.850	1.795	1.912	1.840	1.363	0.841	0.723	0.812
325.0	273.9	219.8	130.6	76.44	65.79	80.68	103.2	150.0	207.0	264.4	314.4	334.7	314.3	280.0	266.3	128.6	45.71	35.34	57.73	290.5	 1101	 1373	66.16	6.125	4.370	4.292	4.189	4.139	3.760	3.226	2.594	2.160	2.100	2.155	2.145	1.916	1.678	1.431	1.295	1.200	1.123	1.308	1.185	1.253	1.174	1.281	1.328	1.074	0.979	0.771	0.672	0.761	0.766	0.858	0.760	0.952	0.905	0.943	0.954	1.188	1.341	1.298	1.449	1.646	1.637	1.648	1.872	1.724	1.887	1.730	1.497	1.552	1.856	1.836	1.264	0.849	0.799
330.0	286.4	225.9	134.6	84.33	74.08	90.36	120.2	162.8	225.6	284.7	338.5	355.6	320.6	261.9	214.4	188.9	95.98	36.90	29.70	78.17	327.7	923.4	 1207	275.3	20.55	5.028	4.426	4.380	3.809	3.479	2.829	2.314	2.102	2.204	2.004	1.805	1.542	1.538	1.307	1.205	1.139	1.258	1.224	1.360	1.205	1.288	1.275	1.125	0.983	0.699	0.685	0.786	0.659	0.785	0.766	0.957	0.939	1.053	1.120	1.255	1.382	1.432	1.587	1.783	1.705	1.976	1.765	1.877	1.857	1.826	1.600	1.503	1.550	1.494	1.463	1.470	1.165
335.0	287.4	233.5	140.5	92.94	85.04	99.40	134.0	183.0	242.2	307.6	355.8	370.0	339.7	265.5	191.2	152.5	163.5	88.16	32.37	34.60	87.21	230.5	626.8	 1415	435.3	21.41	5.032	4.523	4.074	3.420	3.172	2.321	1.893	2.060	1.822	1.651	1.524	1.469	1.294	1.138	1.202	1.385	1.218	1.331	1.234	1.304	1.136	1.282	0.864	0.686	0.770	0.750	0.689	0.747	0.760	0.895	0.980	1.062	1.244	1.261	1.406	1.487	1.694	1.754	1.664	2.020	1.865	1.898	1.910	1.854	1.637	1.505	1.512	1.387	1.151	1.207	1.387
340.0	304.3	228.2	139.8	100.7	92.72	109.3	141.9	197.4	250.4	316.7	368.1	378.5	345.5	279.2	194.2	128.3	137.1	154.6	60.93	31.97	38.95	67.72	183.3	854.1	 1513	335.0	10.62	5.248	4.376	3.636	3.227	2.211	2.079	1.882	1.860	1.565	1.437	1.389	1.342	1.214	1.241	1.176	1.185	1.255	1.398	1.313	1.114	1.168	0.861	0.722	0.704	0.720	0.711	0.762	0.796	0.887	1.021	1.200	1.324	1.320	1.512	1.523	1.719	1.658	1.862	1.904	1.970	1.923	1.870	1.805	1.757	1.555	1.435	1.289	1.137	1.059	1.062
345.0	301.1	238.6	147.9	103.6	101.9	114.7	148.5	201.7	262.0	317.4	369.5	377.7	353.3	288.9	198.4	127.1	106.9	153.0	122.2	46.76	35.81	40.70	61.84	268.5	 1122	 1377	57.20	7.198	4.491	3.910	3.027	2.555	2.183	1.962	1.812	1.607	1.436	1.468	1.320	1.244	1.181	1.301	1.264	1.309	1.362	1.312	1.295	1.131	0.897	0.738	0.739	0.831	0.759	0.844	0.747	0.884	0.995	1.147	1.281	1.461	1.495	1.524	1.700	1.771	1.855	1.913	2.053	2.017	1.949	1.882	1.803	1.592	1.465	1.189	1.067	1.083	1.014
350.0	298.0	247.3	154.5	112.2	112.4	128.1	158.7	208.7	260.3	317.5	358.8	373.6	348.7	289.0	212.9	140.7	108.4	117.0	151.2	121.2	65.17	56.78	54.78	94.47	337.4	929.6	 1166	244.5	20.41	5.023	3.644	2.886	2.189	1.982	1.788	1.594	1.443	1.446	1.348	1.360	1.169	1.244	1.189	1.342	1.210	1.375	1.304	1.233	0.991	0.822	0.791	0.884	0.772	0.791	0.863	0.960	1.021	1.236	1.255	1.376	1.491	1.635	1.708	1.839	1.819	1.922	2.024	2.030	1.839	1.920	1.785	1.640	1.509	1.208	1.185	1.023	1.110
355.0	305.2	265.0	180.6	129.5	130.2	148.1	174.5	222.5	273.5	322.4	355.1	362.1	341.3	294.3	225.8	162.6	129.3	120.1	136.5	182.4	158.3	104.1	78.05	81.89	126.1	254.1	605.0	 1379	403.6	24.05	5.197	3.639	2.819	2.087	1.724	1.779	1.537	1.441	1.365	1.245	1.194	1.290	1.271	1.330	1.193	1.421	1.209	1.277	1.039	0.864	0.772	0.942	0.861	0.924	0.925	1.028	1.134	1.165	1.359	1.384	1.549	1.798	1.725	1.927	2.043	1.898	1.967	1.993	1.926	1.951	1.722	1.634	1.623	1.087	1.356	1.141	1.216
360.0	316.9	272.5	204.9	153.3	150.5	165.2	195.7	245.7	292.8	330.0	355.3	363.2	341.8	302.2	240.8	184.9	159.5	153.2	159.3	191.9	236.2	173.1	128.4	113.9	106.6	112.3	200.2	840.4	 1492	327.1	13.46	5.194	3.551	2.693	2.013	1.704	1.555	1.379	1.405	1.253	1.280	1.361	1.331	1.329	1.221	1.325	1.218	1.226	1.152	0.894	0.829	0.999	0.954	0.962	1.045	1.142	1.198	1.282	1.353	1.512	1.560	1.786	1.832	1.894	2.084	1.991	1.874	1.789	1.956	1.891	1.779	1.654	1.612	1.326	1.338	1.392	1.432
365.0	331.3	292.4	223.2	185.3	179.9	187.8	225.6	269.3	311.5	348.3	361.4	363.9	348.8	313.3	259.3	212.1	190.5	192.3	200.6	218.2	267.9	265.8	194.5	161.0	139.0	115.4	114.3	289.8	 1146	 1410	54.84	10.61	5.665	3.814	2.396	1.922	1.583	1.525	1.365	1.375	1.360	1.282	1.302	1.394	1.353	1.412	1.314	1.181	1.210	1.059	1.011	1.063	1.067	1.176	1.120	1.238	1.276	1.280	1.490	1.583	1.609	1.979	1.933	2.045	1.899	2.000	1.954	1.920	1.792	2.019	1.950	1.682	1.746	1.481	1.587	1.593	1.475
370.0	366.1	335.4	270.1	237.0	229.1	237.6	275.1	321.1	360.3	380.9	391.3	383.6	383.0	360.5	315.5	263.8	245.5	253.0	271.6	288.6	317.9	355.2	340.6	278.0	240.1	205.6	177.3	188.0	412.6	 1038	 1271	222.1	24.93	9.133	4.465	2.725	2.054	1.745	1.522	1.539	1.399	1.327	1.432	1.383	1.670	1.548	1.496	1.447	1.332	1.170	1.091	1.298	1.203	1.241	1.319	1.419	1.568	1.509	1.832	1.722	1.844	2.073	2.087	2.146	2.040	1.993	1.997	2.093	2.085	2.136	2.090	1.954	1.915	1.828	1.840	1.751	1.790
375.0	450.5	416.9	357.8	307.6	305.2	323.4	360.6	408.2	436.3	453.9	459.3	481.0	504.5	498.5	454.5	380.9	342.5	351.3	378.6	414.3	454.3	487.1	534.0	520.2	461.0	425.7	386.7	348.1	353.3	452.5	808.0	 1516	357.9	34.03	11.32	5.403	2.873	2.212	1.775	1.817	1.822	1.723	1.788	1.780	1.769	1.790	1.563	1.693	1.573	1.344	1.316	1.550	1.451	1.741	1.604	1.725	1.739	1.950	2.138	2.088	2.145	2.404	2.413	2.543	2.484	2.331	2.417	2.594	2.583	2.599	2.748	2.726	2.694	2.442	2.366	2.482	2.272
380.0	579.3	523.3	448.7	406.8	402.0	427.9	468.9	531.0	553.0	562.6	577.5	634.6	700.7	712.7	661.4	543.5	467.4	469.2	514.0	574.0	637.7	655.6	749.5	813.8	788.6	732.1	687.2	629.8	500.9	483.9	504.2	 1097	 1529	293.6	25.21	8.980	4.483	3.069	2.322	2.113	2.226	2.260	2.262	2.173	2.118	2.051	1.919	2.027	1.944	1.564	1.656	1.816	1.782	1.923	1.964	2.100	2.282	2.630	2.632	2.678	2.769	2.899	2.782	2.904	2.870	2.950	2.943	3.163	3.120	3.461	3.644	3.765	3.622	3.300	3.055	3.166	2.823
385.0	767.4	656.4	583.5	559.9	537.9	568.7	625.5	696.2	710.7	708.7	760.3	879.4	 1003	 1052	985.8	788.6	644.2	626.5	690.5	750.5	890.1	974.4	 1079	 1178	 1235	 1171	 1117	 1041	913.3	780.1	616.5	634.8	 1331	 1308	194.8	15.15	6.897	3.925	3.012	2.768	2.740	2.796	2.675	2.860	2.758	2.618	2.475	2.548	2.244	1.910	1.923	2.444	2.305	2.609	2.520	2.649	3.055	3.127	3.407	3.623	3.677	3.536	3.777	3.615	3.442	3.697	3.895	4.107	4.421	4.829	5.152	5.326	5.084	4.760	4.418	4.258	3.649
390.0	 1122	993.7	868.3	814.6	783.4	842.9	942.7	 1016	 1036	 1051	 1188	 1439	 1721	 1792	 1640	 1304	 1019	952.3	 1046	 1201	 1408	 1599	 1788	 1954	 2085	 2115	 2039	 1915	 1716	 1444	 1090	759.6	696.8	 1056	 1124	174.5	20.21	6.365	4.748	4.309	4.028	4.239	4.445	4.235	4.021	3.770	3.494	3.586	3.114	2.752	2.743	3.482	3.302	3.456	3.586	3.796	4.178	4.310	4.580	4.899	4.899	4.923	4.947	4.879	5.237	5.535	5.959	6.634	7.040	7.948	8.326	8.805	8.710	7.791	7.341	6.534	5.658
395.0	 1644	 1395	 1256	 1136	 1123	 1204	 1336	 1437	 1445	 1497	 1780	 2245	 2716	 2910	 2703	 2065	 1512	 1388	 1519	 1763	 2082	 2412	 2735	 3019	 3215	 3314	 3282	 3079	 2772	 2332	 1751	 1143	686.4	491.8	697.9	 1240	285.3	19.92	7.254	6.537	6.250	6.304	6.429	6.150	5.735	5.305	4.739	4.725	4.213	3.863	3.723	4.645	4.627	4.869	4.944	5.524	5.887	6.026	6.445	6.856	6.744	6.569	6.707	7.007	7.203	8.040	8.744	9.956	11.26	12.56	12.95	13.63	13.69	12.51	11.34	9.631	8.499
400.0	 2074	 1774	 1545	 1418	 1396	 1502	 1634	 1773	 1760	 1860	 2250	 2905	 3546	 3847	 3551	 2676	 1920	 1735	 1902	 2218	 2639	 3077	 3493	 3881	 4150	 4260	 4210	 4025	 3632	 3046	 2279	 1475	822.7	425.2	311.4	845.4	 1198	219.5	11.90	8.084	7.725	8.257	7.777	7.784	6.964	6.634	5.802	5.895	5.380	4.668	4.655	5.687	5.421	5.848	5.890	6.517	6.888	7.853	7.746	8.219	8.347	8.090	8.554	8.345	9.142	9.490	11.42	12.56	14.77	15.98	17.17	17.30	17.22	15.98	14.42	12.25	10.90
405.0	 2459	 2117	 1848	 1651	 1658	 1773	 1922	 2068	 2033	 2204	 2701	 3514	 4301	 4669	 4309	 3239	 2297	 2053	 2231	 2630	 3132	 3654	 4193	 4663	 5014	 5159	 5130	 4901	 4416	 3694	 2762	 1782	977.5	472.7	232.4	310.4	973.2	999.9	38.38	10.69	9.411	9.916	9.507	9.019	8.291	7.741	6.822	6.802	6.196	5.306	5.420	6.414	6.342	7.147	6.835	7.374	8.200	8.696	9.435	9.722	9.605	9.074	9.390	9.378	10.75	11.81	12.99	14.96	17.47	18.91	20.47	21.37	21.16	19.57	17.44	14.82	12.70
410.0	 2962	 2452	 2142	 1960	 1946	 2070	 2239	 2387	 2371	 2562	 3204	 4198	 5165	 5609	 5182	 3867	 2718	 2397	 2612	 3083	 3679	 4319	 4948	 5537	 5958	 6146	 6103	 5830	 5298	 4421	 3307	 2125	 1171	564.4	254.7	158.0	315.1	780.9	866.9	157.0	18.27	12.27	11.82	10.94	9.768	9.335	8.063	8.107	7.172	6.237	6.168	7.362	7.536	8.006	7.940	8.740	9.595	9.929	10.64	11.01	10.80	10.37	10.71	11.00	12.19	13.64	15.66	18.16	20.72	22.41	24.66	25.73	25.16	23.69	20.38	17.46	14.97
415.0	 3287	 2753	 2346	 2139	 2154	 2263	 2479	 2620	 2614	 2825	 3557	 4727	 5796	 6317	 5817	 4314	 3023	 2659	 2888	 3398	 4076	 4796	 5515	 6179	 6654	 6880	 6807	 6497	 5912	 4989	 3710	 2381	 1319	643.8	292.9	144.1	126.2	215.6	534.0	993.1	239.4	21.70	13.24	12.76	11.06	10.31	8.757	8.587	7.943	6.878	6.847	8.089	8.354	8.817	8.695	9.527	10.47	10.91	11.82	11.85	12.02	11.76	12.22	12.15	13.80	15.32	17.70	19.93	23.09	25.48	27.30	28.60	28.23	25.83	22.71	19.27	16.73
420.0	 3488	 2878	 2444	 2216	 2205	 2363	 2558	 2718	 2700	 2953	 3740	 4969	 6071	 6614	 6069	 4512	 3152	 2761	 2997	 3536	 4217	 4984	 5736	 6419	 6927	 7166	 7106	 6778	 6158	 5199	 3888	 2499	 1386	684.3	319.7	155.5	95.51	89.26	169.5	695.1	957.2	185.1	16.17	13.67	11.86	10.96	9.183	8.936	8.468	7.021	7.021	8.498	8.522	8.855	8.997	9.883	10.68	10.98	12.06	12.14	12.24	12.25	12.40	12.65	13.72	15.94	18.57	20.99	23.95	26.14	28.41	29.30	30.03	26.99	24.36	20.02	17.24
425.0	 3514	 2912	 2491	 2263	 2240	 2361	 2577	 2751	 2740	 2962	 3764	 5015	 6162	 6691	 6154	 4583	 3178	 2786	 3020	 3567	 4259	 5032	 5788	 6474	 6993	 7232	 7197	 6846	 6210	 5230	 3949	 2550	 1416	710.4	341.3	174.3	100.3	71.37	74.59	235.3	834.5	795.7	37.13	14.51	12.70	10.86	9.155	9.129	8.242	7.245	7.354	8.651	8.742	9.343	9.317	9.866	11.10	11.51	12.15	12.27	12.36	12.12	11.92	12.91	14.81	15.99	18.55	21.49	24.49	26.99	28.95	30.26	30.72	27.78	24.28	20.84	17.59
430.0	 3412	 2827	 2450	 2246	 2208	 2337	 2545	 2697	 2681	 2910	 3704	 4902	 6050	 6548	 6023	 4483	 3112	 2726	 2955	 3469	 4157	 4910	 5640	 6324	 6829	 7061	 7014	 6687	 6071	 5107	 3861	 2527	 1426	728.7	367.3	200.2	123.2	85.55	67.01	89.84	269.8	665.7	708.4	140.4	17.89	11.22	9.359	8.879	8.372	7.178	7.373	8.872	8.321	9.148	9.111	9.815	10.98	11.24	11.86	12.09	12.02	12.02	12.24	12.84	14.35	16.06	18.11	20.92	23.84	26.35	27.77	29.39	29.29	27.05	23.98	20.37	17.35
435.0	 3374	 2681	 2364	 2174	 2112	 2259	 2461	 2621	 2594	 2803	 3519	 4646	 5702	 6170	 5672	 4240	 2940	 2581	 2785	 3270	 3923	 4619	 5327	 5949	 6445	 6661	 6607	 6318	 5730	 4837	 3647	 2415	 1404	739.0	388.3	227.4	150.0	107.5	79.85	67.89	95.07	182.6	469.4	871.2	209.6	15.47	9.419	8.866	7.783	6.756	6.967	8.569	8.300	8.569	8.845	9.372	10.57	10.96	11.18	11.75	11.86	11.81	11.42	11.96	13.29	15.32	17.40	19.61	22.21	25.60	26.03	27.75	27.81	26.07	22.49	18.85	16.12
440.0	 3413	 2551	 2221	 2056	 2050	 2186	 2376	 2507	 2493	 2656	 3324	 4358	 5361	 5797	 5338	 3989	 2776	 2421	 2622	 3079	 3674	 4348	 5006	 5594	 6045	 6256	 6217	 5944	 5399	 4550	 3450	 2275	 1353	743.7	405.7	241.9	168.6	124.3	94.08	70.51	59.80	68.38	149.1	668.0	840.3	35.04	9.904	8.824	7.856	6.454	6.590	7.991	7.869	8.310	8.556	8.986	9.879	10.62	10.92	11.22	11.41	10.96	11.21	11.52	12.68	14.67	15.84	18.61	20.86	23.08	25.22	26.11	26.31	24.36	21.36	18.07	15.30
445.0	 3528	 2434	 2113	 1941	 1959	 2067	 2234	 2385	 2382	 2503	 3113	 4064	 4959	 5400	 4953	 3694	 2586	 2256	 2434	 2856	 3416	 4039	 4635	 5180	 5612	 5801	 5776	 5515	 5017	 4242	 3209	 2135	 1278	729.1	413.5	256.9	184.1	136.6	106.4	78.24	58.13	45.97	55.41	230.5	814.5	629.4	27.68	9.053	7.548	6.364	6.261	7.551	7.424	8.205	8.132	8.562	9.367	10.08	10.62	10.93	11.03	10.80	10.64	10.65	11.95	13.24	14.82	17.30	19.73	21.95	22.97	24.38	24.66	22.91	19.53	16.32	14.38
450.0	 3173	 2486	 1907	 1754	 1778	 1885	 2023	 2190	 2158	 2253	 2746	 3562	 4333	 4721	 4332	 3241	 2272	 1987	 2151	 2508	 3001	 3541	 4063	 4533	 4920	 5084	 5062	 4833	 4404	 3729	 2839	 1902	 1153	676.7	417.2	272.9	200.0	152.5	118.6	88.44	63.19	44.91	35.90	69.15	256.9	621.3	507.5	118.0	11.39	6.122	5.861	6.948	6.957	7.311	7.497	8.014	8.554	9.210	9.498	9.818	9.782	9.853	9.548	9.652	10.67	11.79	13.42	15.30	17.19	19.23	20.36	20.81	21.56	20.22	17.43	14.96	12.62
455.0	 2475	 2504	 1772	 1554	 1556	 1638	 1801	 1952	 1914	 1957	 2341	 3027	 3676	 3970	 3642	 2744	 1929	 1692	 1821	 2129	 2542	 2985	 3427	 3843	 4140	 4299	 4272	 4097	 3733	 3170	 2433	 1646	 1015	607.2	396.0	286.4	213.5	162.1	127.8	96.46	70.12	47.80	34.05	33.02	70.89	161.2	401.9	748.5	162.5	9.032	5.403	6.314	6.170	6.505	6.533	7.110	7.791	8.080	8.090	8.585	9.066	8.706	8.935	8.750	9.093	10.37	11.50	13.13	14.65	16.49	17.56	18.02	18.01	16.89	14.69	12.58	11.02
460.0	 2021	 2273	 1834	 1400	 1412	 1480	 1631	 1756	 1741	 1751	 2054	 2618	 3186	 3439	 3158	 2386	 1687	 1487	 1592	 1863	 2212	 2609	 2996	 3346	 3600	 3737	 3713	 3565	 3260	 2775	 2139	 1458	911.1	563.0	374.4	282.8	222.4	169.0	132.8	99.67	72.35	49.88	34.97	26.17	30.41	46.49	120.1	569.1	672.5	24.46	5.995	5.824	5.779	5.975	6.124	6.495	6.999	7.205	7.849	7.805	7.645	7.970	8.149	7.757	8.418	8.779	10.07	11.58	12.58	14.27	15.03	15.51	15.84	15.05	13.15	11.05	9.835
465.0	 1777	 1870	 1917	 1304	 1275	 1368	 1482	 1583	 1591	 1577	 1803	 2289	 2784	 2998	 2753	 2081	 1485	 1303	 1403	 1631	 1935	 2282	 2616	 2920	 3160	 3264	 3247	 3120	 2857	 2429	 1883	 1299	823.5	520.1	352.9	268.5	225.6	173.2	134.8	101.6	74.47	52.53	36.93	25.53	21.71	21.69	35.43	188.4	672.0	493.8	21.51	6.013	5.276	5.739	5.616	6.068	6.249	6.794	7.341	7.333	7.311	7.304	7.187	7.067	7.461	7.742	8.816	10.31	11.24	12.53	13.34	14.02	13.74	12.93	11.67	10.02	8.334
470.0	 1484	 1347	 1672	 1337	 1105	 1180	 1285	 1374	 1380	 1344	 1492	 1881	 2272	 2442	 2249	 1707	 1222	 1082	 1154	 1346	 1595	 1877	 2148	 2396	 2587	 2680	 2664	 2556	 2345	 2004	 1561	 1092	705.9	457.5	320.0	248.9	209.9	176.8	137.0	101.9	74.57	53.03	37.85	26.94	20.91	17.09	17.46	50.59	209.3	478.7	481.9	107.5	9.272	5.341	5.069	5.368	5.755	6.095	6.250	6.454	6.433	6.536	6.206	6.088	6.205	6.639	7.289	8.586	9.059	10.13	10.77	11.61	11.38	10.66	9.262	7.960	7.255
475.0	 1220	 1033	 1183	 1442	 1024	 1005	 1103	 1188	 1177	 1119	 1215	 1517	 1816	 1942	 1790	 1367	984.2	874.5	929.6	 1086	 1276	 1503	 1720	 1913	 2069	 2139	 2129	 2044	 1880	 1614	 1266	896.4	596.3	399.7	289.2	226.5	189.9	165.3	137.2	102.5	73.99	53.20	39.10	28.66	22.19	17.87	15.34	20.69	54.33	120.0	300.5	554.9	140.2	8.341	4.894	4.882	5.343	5.577	5.395	5.358	5.758	5.665	5.419	5.246	5.075	5.305	5.768	6.859	7.514	8.308	8.751	9.178	9.414	8.707	7.493	6.725	6.048
480.0	 1100	894.1	895.7	 1313	 1107	881.6	969.4	 1061	 1049	994.2	 1046	 1292	 1518	 1635	 1511	 1147	832.7	746.3	794.6	922.7	 1083	 1270	 1456	 1618	 1746	 1810	 1798	 1724	 1590	 1372	 1083	774.5	522.0	357.7	267.2	212.7	178.5	153.6	135.1	104.7	74.82	53.64	40.27	30.31	24.35	19.72	16.66	15.77	21.13	34.37	87.51	387.7	512.0	29.26	5.886	5.162	5.022	5.198	4.968	5.032	5.243	5.035	4.789	4.603	4.544	4.733	5.201	5.974	6.731	6.944	7.412	7.855	7.769	7.113	6.749	5.498	5.251
485.0	963.2	803.0	753.8	 1025	 1217	843.6	881.2	957.6	947.1	884.0	916.8	 1110	 1305	 1399	 1278	985.0	711.9	640.4	687.8	789.7	933.7	 1092	 1248	 1386	 1499	 1550	 1538	 1472	 1365	 1177	934.0	676.0	466.2	326.8	246.3	200.3	168.6	144.3	126.5	106.3	78.08	55.55	42.46	32.60	26.62	22.70	19.04	16.76	15.90	17.43	28.35	124.7	485.0	430.9	24.63	5.597	4.905	4.738	4.673	4.751	4.840	4.621	4.620	4.401	3.958	4.138	4.607	5.124	5.618	5.992	6.311	6.858	6.820	6.192	5.992	5.157	4.418
490.0	796.9	715.7	631.5	710.8	 1079	968.7	773.1	832.2	844.2	772.7	782.8	919.5	 1072	 1136	 1039	796.4	585.2	529.0	563.6	649.9	762.4	890.8	 1015	 1127	 1216	 1258	 1254	 1202	 1116	968.1	775.0	568.0	400.8	290.2	223.0	184.5	157.1	135.7	116.5	101.3	82.76	60.50	46.60	37.33	31.89	27.36	24.72	22.07	19.40	17.61	18.74	38.80	149.1	372.1	355.9	109.9	9.705	4.566	4.344	4.308	4.340	4.027	4.151	3.803	3.559	3.668	3.913	4.237	4.779	4.979	5.231	5.503	5.507	5.108	4.804	4.086	3.643
495.0	647.7	618.2	528.4	546.2	751.5	 1080	754.9	726.0	739.4	676.9	662.9	759.4	860.7	903.7	819.9	631.0	469.8	425.5	451.8	521.5	610.1	708.9	811.6	899.6	968.1	 1001	 1001	959.9	896.4	786.1	630.7	473.5	340.6	253.6	200.2	169.1	145.5	127.9	109.9	93.60	80.88	68.25	53.54	43.79	38.48	34.89	31.66	28.89	25.79	22.43	20.99	24.03	45.53	99.06	270.1	525.4	156.3	8.308	4.178	4.057	4.012	3.708	3.484	3.252	3.099	3.343	3.363	3.611	3.761	4.195	4.385	4.629	4.308	4.132	3.962	3.376	2.989
500.0	555.3	523.8	475.8	463.6	544.3	979.3	849.2	668.1	689.8	614.9	585.4	656.0	732.7	749.1	686.5	521.5	393.3	354.8	381.4	435.7	511.0	591.3	677.3	751.6	811.1	833.7	833.2	803.7	751.0	661.9	538.2	408.6	301.0	228.1	183.7	155.5	137.0	120.9	103.9	89.19	77.96	70.14	60.70	49.41	43.87	41.16	38.45	34.29	30.94	27.22	25.35	23.47	24.81	34.15	82.28	360.2	500.8	31.06	5.600	3.936	3.603	3.463	3.272	3.004	3.128	3.044	2.887	3.201	3.361	3.718	3.775	3.720	3.812	3.614	3.423	2.771	2.594
505.0	499.1	446.7	440.7	411.9	443.5	739.1	959.7	644.1	625.7	563.7	532.7	575.5	631.4	634.3	571.9	444.1	331.1	301.6	323.7	372.4	434.2	501.6	573.2	631.9	682.6	706.5	704.5	681.4	637.5	563.4	461.8	357.6	270.2	207.4	169.6	144.8	128.7	113.0	100.8	87.80	75.28	68.85	65.17	55.35	49.41	46.46	43.04	39.54	35.43	31.74	29.31	25.76	22.35	21.25	29.40	114.5	433.8	401.9	27.02	4.293	3.814	3.351	3.052	2.831	2.646	2.799	2.671	2.838	3.038	3.425	3.328	3.329	3.432	2.938	2.889	2.413	2.313
510.0	416.5	377.8	378.6	364.2	375.3	498.4	844.0	781.3	571.7	508.7	467.4	495.7	517.1	510.2	450.7	348.8	265.8	246.1	262.2	297.0	348.8	402.1	458.4	506.6	546.1	566.8	564.4	549.3	516.4	459.1	383.5	298.8	231.4	182.2	150.5	130.2	116.5	104.2	95.55	84.06	73.68	67.31	64.72	62.41	56.22	51.84	48.86	44.86	40.31	36.82	33.94	29.55	24.17	20.96	18.87	35.02	129.5	316.8	310.7	108.4	8.615	3.163	3.011	2.671	2.469	2.362	2.401	2.435	2.683	2.749	2.804	2.798	2.808	2.416	2.473	2.185	2.065
515.0	346.1	310.5	314.2	320.2	322.5	380.5	554.8	866.1	598.4	450.7	412.8	413.9	427.6	407.0	354.4	272.8	209.4	194.0	206.4	237.2	277.8	317.4	361.1	396.6	429.4	447.2	445.1	435.3	407.9	368.5	309.5	247.6	194.9	157.8	131.9	115.8	104.4	95.47	86.82	78.69	70.60	66.01	61.26	63.07	61.26	55.91	52.22	48.26	44.20	40.47	37.20	32.72	26.56	21.98	17.28	17.84	36.09	79.23	193.8	404.1	147.0	6.739	2.692	2.643	2.218	2.257	2.218	2.310	2.442	2.383	2.217	2.240	2.432	1.956	1.930	1.685	1.740
520.0	318.4	269.8	267.4	291.7	296.9	324.4	411.5	746.5	701.9	421.5	380.2	370.4	367.6	344.5	290.6	225.3	173.5	161.8	171.9	197.2	230.4	265.0	300.3	332.1	359.3	371.8	371.7	364.3	344.0	313.2	267.4	218.6	172.2	141.2	119.7	105.6	95.72	87.75	80.73	73.60	68.09	63.73	60.03	60.62	62.08	59.32	53.06	49.15	45.25	40.90	38.00	33.40	27.09	22.45	16.62	14.26	15.36	23.24	54.96	263.1	381.3	30.82	3.763	2.453	2.214	1.992	1.963	2.066	2.170	2.258	2.062	1.979	2.085	1.862	1.678	1.545	1.492
525.0	270.1	248.2	233.6	259.5	270.0	292.4	342.6	561.3	793.3	437.0	345.7	332.1	319.3	294.2	249.9	189.0	145.5	138.2	145.8	166.7	194.5	224.7	255.3	281.8	301.9	314.9	312.3	311.6	295.6	269.0	233.2	190.8	154.2	127.2	107.6	96.30	88.27	80.65	75.42	70.17	64.23	61.71	57.95	57.72	59.33	59.43	54.74	49.37	44.24	40.19	37.69	33.51	27.60	22.28	16.64	13.17	10.65	10.65	16.45	78.61	303.4	240.1	25.26	2.671	2.095	1.943	1.921	1.795	1.881	1.899	1.901	1.683	1.796	1.575	1.503	1.512	1.238
530.0	233.2	211.0	192.8	207.6	245.7	251.5	289.7	386.2	665.2	572.9	318.3	285.4	266.2	238.0	197.5	152.0	117.9	112.2	119.2	135.1	158.2	181.6	203.6	226.1	245.4	254.8	255.6	251.5	240.2	222.4	193.5	161.4	131.6	110.7	94.58	84.49	77.54	72.04	66.81	63.66	59.70	56.23	54.34	54.18	53.89	56.41	54.34	48.63	43.22	39.76	35.88	31.89	26.56	21.61	16.43	12.61	9.406	7.318	7.580	20.53	86.12	209.4	245.6	92.05	6.616	1.757	1.775	1.668	1.665	1.696	1.588	1.543	1.447	1.347	1.396	1.299	1.150
535.0	197.9	182.3	164.7	167.4	206.6	221.6	248.8	297.6	424.6	632.8	382.3	242.4	219.8	192.5	156.5	119.8	93.75	90.50	94.35	107.7	126.6	143.8	161.0	181.6	195.1	201.5	204.6	200.8	195.9	180.8	157.9	133.6	111.0	93.68	81.01	73.62	66.80	62.31	58.92	56.83	53.63	51.41	49.97	49.81	49.48	50.03	50.67	47.92	41.04	36.76	34.48	29.86	24.16	20.31	15.43	12.31	8.704	6.441	5.071	7.293	21.44	50.51	133.5	292.9	115.3	5.024	1.726	1.508	1.564	1.436	1.290	1.340	1.275	1.339	1.166	1.113	0.979
540.0	179.1	158.7	150.1	151.1	173.5	210.8	223.0	256.9	314.0	523.7	496.7	227.2	194.3	163.1	131.8	100.4	79.73	75.37	82.02	91.31	105.5	122.0	135.0	151.1	163.4	169.7	171.5	169.9	166.0	154.6	136.0	116.3	98.07	83.36	73.25	65.95	59.81	57.03	53.66	51.32	49.13	48.00	46.50	46.39	47.01	46.85	46.53	45.18	40.16	35.42	32.03	28.19	22.47	19.44	14.58	11.41	8.269	5.926	4.586	4.377	7.065	13.23	36.16	178.8	265.3	30.12	2.669	1.411	1.360	1.344	1.207	1.318	1.194	1.192	1.026	1.038	0.939
545.0	165.4	145.0	129.6	131.6	149.2	185.9	215.1	229.5	261.3	367.9	546.7	254.0	169.0	140.7	111.5	84.85	67.89	63.13	70.20	77.31	88.53	104.5	115.0	129.2	140.9	144.6	146.8	146.2	143.3	134.0	118.8	102.1	87.86	74.74	65.40	58.71	54.31	51.40	49.07	47.50	44.91	44.45	43.12	43.73	44.40	43.33	42.49	41.62	38.92	34.28	30.87	26.69	21.96	18.38	13.84	10.88	7.820	5.885	4.233	3.460	3.500	4.695	9.820	52.45	210.8	220.6	23.88	1.564	1.349	1.259	1.070	1.208	1.072	1.008	0.950	1.010	0.977
550.0	141.1	125.4	109.3	110.7	120.0	154.4	188.6	199.0	220.1	248.5	406.5	377.9	158.7	117.0	90.56	67.22	54.53	52.29	57.57	62.93	73.45	85.01	94.99	106.3	113.2	117.4	119.6	119.6	117.4	110.9	99.05	86.75	74.14	63.77	55.72	50.28	46.96	44.74	42.85	41.35	39.98	39.29	38.44	40.03	39.48	38.93	37.84	36.65	35.79	31.93	28.30	24.32	19.85	16.60	12.50	9.840	7.262	5.273	3.801	2.986	2.645	2.727	3.687	13.11	59.01	157.6	188.3	70.51	4.808	1.172	1.056	1.081	0.975	0.962	0.831	0.876	0.852
555.0	120.8	102.1	92.45	87.61	96.95	122.3	159.6	173.5	183.5	187.7	229.6	387.5	215.9	94.80	70.58	53.13	42.21	41.38	44.28	48.60	58.07	65.26	73.89	82.08	88.35	93.22	95.12	94.62	93.28	88.90	81.24	71.39	61.79	52.55	45.85	41.31	38.76	37.32	36.04	34.99	35.05	34.14	33.91	34.73	34.65	34.58	32.97	31.39	29.67	28.54	26.19	22.21	17.43	14.73	11.21	8.689	6.215	4.510	3.421	2.678	2.105	2.089	2.127	4.018	14.16	37.42	94.62	207.2	32.53	3.707	0.956	0.938	0.911	0.831	0.798	0.787	0.832
560.0	108.7	94.39	82.43	77.75	86.77	104.2	134.1	159.8	164.6	159.8	154.7	286.6	311.9	91.47	59.04	43.05	36.61	33.89	36.10	41.94	47.98	55.14	61.19	67.17	73.08	77.13	77.17	78.23	76.53	75.29	69.11	60.77	51.77	45.38	39.32	35.39	33.72	31.81	31.16	31.01	30.24	29.88	29.32	30.53	30.95	30.37	29.37	27.76	25.68	24.63	23.39	20.58	15.70	13.23	9.973	7.631	5.756	3.982	3.278	2.466	1.985	1.799	1.688	1.909	4.182	9.314	24.98	122.6	181.7	28.24	1.520	0.958	0.824	0.770	0.812	0.815	0.739
565.0	100.5	82.96	77.05	70.77	72.95	89.48	112.8	142.1	145.9	136.7	125.1	177.3	327.0	135.4	49.57	35.12	31.20	27.98	30.01	34.96	39.82	45.54	51.84	56.14	60.80	63.98	65.79	66.97	64.28	62.85	57.32	50.90	44.27	38.32	34.01	30.12	29.12	27.60	26.92	26.82	26.08	26.04	25.45	25.66	26.54	26.15	25.35	24.01	22.36	21.00	20.16	18.42	14.07	11.46	8.684	6.854	5.145	3.656	3.039	2.279	1.877	1.550	1.506	1.534	1.955	3.113	6.381	34.83	138.1	147.9	20.35	1.081	0.777	0.701	0.662	0.772	0.789
570.0	79.90	70.33	57.45	58.76	59.57	69.94	87.97	112.8	126.7	110.5	96.94	107.2	213.5	209.7	56.91	27.96	23.65	22.26	23.71	26.01	30.64	35.21	39.89	43.60	47.32	49.46	50.40	50.59	50.38	48.60	44.27	39.62	34.92	30.82	26.97	24.27	22.99	22.27	21.63	21.52	21.07	20.89	20.84	21.01	21.35	21.30	20.84	19.39	18.25	16.91	15.99	14.63	12.28	9.620	6.996	5.746	4.278	3.002	2.445	1.843	1.749	1.483	1.317	1.238	1.242	1.462	2.269	8.599	38.08	101.3	114.6	42.21	2.582	0.717	0.686	0.665	0.674
575.0	70.82	60.05	49.80	46.41	45.74	53.84	64.11	81.02	104.6	90.59	79.98	74.90	100.7	205.0	129.5	21.99	17.71	16.91	17.91	20.66	22.70	26.90	29.41	32.71	34.54	36.37	37.06	37.63	37.61	35.91	33.12	29.92	26.28	23.17	20.78	18.49	17.46	16.70	17.06	16.57	16.38	16.08	16.37	16.56	16.83	16.69	16.24	15.61	13.96	13.09	11.93	11.07	9.945	8.259	5.864	4.571	3.474	2.498	1.940	1.561	1.665	1.369	1.104	1.036	0.951	1.043	1.168	2.672	9.180	24.03	57.16	116.5	29.58	1.992	0.754	0.673	0.646
580.0	65.46	54.38	43.86	39.06	41.60	44.87	52.06	68.95	85.89	82.40	67.62	62.33	60.49	139.0	191.7	32.31	14.13	13.63	14.66	16.17	18.33	21.21	23.38	26.18	27.70	28.86	30.27	30.28	29.76	28.74	27.40	24.51	21.49	19.30	17.18	15.37	14.32	13.70	13.83	13.95	13.61	13.04	13.19	13.73	13.90	14.12	13.41	12.68	11.75	10.62	9.776	8.812	7.861	7.068	5.175	3.798	2.947	2.125	1.636	1.377	1.256	1.318	1.105	0.980	0.909	0.858	0.845	1.218	2.713	5.933	15.29	69.69	100.3	22.44	1.061	0.622	0.659
585.0	58.79	55.31	39.86	31.75	34.26	37.19	49.36	57.73	70.42	79.58	62.06	54.55	46.67	77.55	191.4	79.44	11.64	11.58	12.03	14.02	14.90	17.25	19.18	21.66	23.06	23.80	24.24	24.67	24.93	23.75	22.82	20.04	18.05	15.59	14.36	12.64	12.27	11.56	11.57	11.22	11.23	10.92	11.20	11.57	11.75	11.94	10.90	10.58	10.01	8.764	8.308	7.504	6.528	5.775	4.652	3.400	2.461	1.868	1.492	1.164	1.183	1.102	0.951	0.970	0.825	0.851	0.856	0.880	1.212	1.899	3.984	20.31	77.08	79.39	13.77	0.696	0.662
590.0	51.52	51.59	36.09	28.20	28.79	34.45	39.64	45.65	57.15	67.65	60.59	46.82	38.77	39.89	112.1	144.6	27.42	9.340	9.527	10.96	11.78	13.74	14.91	16.99	18.04	18.67	18.98	18.88	19.45	18.17	17.87	15.91	14.06	12.17	11.19	9.921	9.580	9.020	9.085	8.881	8.685	8.965	8.829	8.901	9.249	9.434	8.800	8.436	7.676	6.990	6.713	5.966	5.074	4.501	3.910	3.106	2.108	1.600	1.387	1.071	1.016	0.940	0.988	0.956	0.902	0.776	0.769	0.775	0.889	1.024	1.439	5.061	21.58	53.92	61.97	17.95	1.628
595.0	55.88	47.37	31.29	25.41	24.49	27.45	31.27	36.83	42.42	55.60	58.86	41.78	33.59	26.70	43.66	126.6	94.40	8.633	8.100	8.324	9.227	10.89	11.96	12.89	13.93	15.13	14.77	14.65	14.73	14.30	13.31	12.11	10.68	10.10	8.589	8.061	7.283	6.989	7.244	6.862	7.208	7.013	6.876	6.990	7.261	7.231	6.812	6.409	6.046	5.512	5.140	4.531	3.848	3.339	3.088	2.831	2.191	1.473	1.251	0.986	0.886	0.827	0.916	0.852	0.841	0.812	0.746	0.676	0.757	0.759	0.832	1.644	5.277	12.91	31.82	62.48	23.59
600.0	51.58	41.90	30.63	23.30	20.64	22.91	27.87	30.05	38.66	45.22	52.29	42.93	31.08	21.91	20.78	78.13	141.1	20.45	6.826	7.054	7.969	8.702	10.13	10.53	11.29	12.43	12.82	12.24	12.36	12.22	11.38	10.30	8.843	8.177	7.584	6.901	6.174	5.866	6.135	5.927	5.616	5.953	6.053	5.858	6.013	5.880	5.586	5.218	5.175	4.758	4.167	3.829	3.221	2.829	2.417	2.507	2.169	1.477	1.067	0.929	0.834	0.800	0.754	0.867	0.716	0.807	0.745	0.720	0.705	0.715	0.633	0.903	1.671	3.311	8.749	38.70	57.04
605.0	50.84	34.69	29.50	21.54	20.92	20.23	24.79	29.40	32.33	38.99	46.69	44.21	28.83	20.62	14.25	36.37	133.0	60.22	6.047	6.055	7.123	7.738	8.294	9.159	9.468	10.54	10.64	10.65	10.52	10.40	9.638	9.124	8.198	7.442	6.545	5.853	5.704	5.118	5.143	5.014	5.002	5.040	4.896	5.022	5.226	5.144	4.816	4.528	4.355	3.773	3.513	3.349	2.715	2.457	2.003	1.954	1.848	1.488	1.067	0.784	0.828	0.773	0.777	0.720	0.715	0.759	0.693	0.778	0.659	0.671	0.641	0.673	0.843	1.163	2.488	11.82	44.95
610.0	41.16	34.67	26.20	19.67	19.39	20.21	20.70	24.24	28.68	32.53	38.53	42.40	28.33	18.25	11.66	14.25	71.83	111.1	21.79	5.355	6.047	6.430	7.024	7.520	8.032	8.682	8.747	8.836	8.889	8.573	8.337	7.416	6.810	6.421	5.694	5.099	4.853	4.477	4.253	4.082	3.844	3.924	3.956	4.039	4.212	4.091	3.866	3.643	3.413	3.117	2.850	2.593	2.229	2.043	1.607	1.496	1.482	1.379	1.084	0.756	0.818	0.750	0.743	0.706	0.710	0.696	0.706	0.756	0.741	0.624	0.621	0.655	0.706	0.734	1.000	3.105	13.11
615.0	44.43	30.14	25.55	16.03	16.15	15.54	17.88	21.71	21.65	27.06	28.86	35.18	30.30	17.42	10.66	8.049	23.47	93.08	78.46	5.760	5.145	5.201	5.852	6.654	6.985	6.834	7.045	7.090	6.852	7.192	6.796	6.237	5.539	5.207	4.762	4.281	3.821	3.590	3.411	3.150	3.123	2.976	3.149	3.255	3.324	3.237	3.081	2.866	2.558	2.573	2.395	2.239	1.816	1.655	1.445	1.209	1.240	1.113	1.107	0.863	0.733	0.683	0.689	0.666	0.634	0.732	0.747	0.762	0.750	0.587	0.593	0.604	0.648	0.627	0.633	1.035	3.466
620.0	43.64	29.32	22.93	15.25	16.82	14.63	16.70	19.21	19.91	23.85	25.58	29.74	29.46	17.13	9.788	7.017	9.080	52.06	111.9	17.90	4.133	4.653	4.826	5.644	5.862	5.818	6.304	6.405	5.776	5.975	5.337	5.038	4.380	4.310	3.809	3.509	3.067	3.080	2.925	2.555	2.774	2.691	2.592	2.664	2.705	2.622	2.788	2.405	2.302	2.059	1.895	1.781	1.479	1.449	1.277	1.101	0.968	0.914	0.941	0.901	0.751	0.638	0.632	0.672	0.609	0.693	0.722	0.706	0.722	0.626	0.612	0.620	0.636	0.606	0.552	0.602	1.205
625.0	42.71	29.23	23.10	15.73	13.43	14.08	15.16	16.95	19.82	22.54	22.89	25.51	27.98	18.40	9.522	6.284	5.426	22.13	101.4	54.42	4.228	4.575	4.561	4.754	5.132	5.245	4.968	5.629	5.349	5.190	4.393	4.183	3.812	3.607	3.076	2.788	2.653	2.492	2.379	2.416	2.157	2.251	2.234	2.286	2.102	2.364	2.415	2.060	1.943	1.719	1.667	1.583	1.339	1.223	1.100	0.924	0.850	0.853	0.800	0.863	0.635	0.623	0.642	0.622	0.599	0.697	0.667	0.665	0.619	0.566	0.657	0.538	0.657	0.571	0.545	0.564	0.712
630.0	38.31	29.68	22.15	16.20	12.41	14.20	14.38	16.29	17.94	20.48	20.94	22.90	23.23	20.93	9.970	5.765	4.381	8.246	49.74	91.50	18.24	3.642	4.143	4.398	4.475	4.475	4.290	4.556	4.533	4.270	3.686	3.565	3.012	2.755	2.592	2.231	2.155	2.060	1.992	1.978	1.930	1.846	1.920	1.923	1.839	1.901	1.868	1.764	1.672	1.418	1.316	1.393	1.081	1.067	0.933	0.838	0.715	0.728	0.706	0.747	0.710	0.658	0.658	0.603	0.587	0.657	0.587	0.591	0.644	0.573	0.602	0.573	0.583	0.516	0.570	0.511	0.605
635.0	36.83	28.58	22.13	16.76	13.01	13.61	12.83	14.89	16.82	18.76	18.89	19.70	19.95	18.82	11.79	6.129	4.287	4.162	15.24	66.91	66.67	4.339	3.477	3.844	4.270	3.830	3.955	3.967	4.038	3.731	2.969	2.713	2.505	2.207	2.115	1.977	1.726	1.644	1.703	1.675	1.587	1.577	1.569	1.483	1.427	1.489	1.509	1.508	1.277	1.154	1.106	1.099	0.951	0.897	0.792	0.667	0.741	0.627	0.669	0.682	0.695	0.693	0.623	0.574	0.587	0.630	0.628	0.613	0.582	0.563	0.545	0.591	0.593	0.500	0.633	0.620	0.576
640.0	32.78	26.56	18.72	14.97	13.49	12.05	12.57	13.62	15.16	17.47	19.41	18.64	17.12	17.65	13.97	6.181	4.289	3.345	5.716	35.95	92.39	14.48	3.077	3.478	3.448	3.332	3.623	3.875	3.453	3.539	2.751	2.463	1.976	1.956	1.889	1.712	1.530	1.483	1.348	1.362	1.462	1.323	1.340	1.214	1.341	1.268	1.311	1.190	1.095	0.987	1.008	0.918	0.896	0.864	0.711	0.685	0.722	0.615	0.559	0.557	0.693	0.696	0.637	0.625	0.603	0.537	0.524	0.582	0.578	0.537	0.557	0.591	0.595	0.559	0.600	0.646	0.576
645.0	34.14	26.90	17.85	15.39	13.08	10.76	12.48	13.09	14.36	15.56	18.61	17.82	16.53	16.79	14.44	7.161	3.711	2.960	3.653	14.69	78.50	46.03	2.979	3.358	3.470	3.334	3.406	3.347	3.395	3.110	2.702	2.306	1.823	2.028	1.636	1.548	1.554	1.272	1.335	1.413	1.289	1.226	1.245	1.204	1.271	1.095	1.201	1.130	0.971	0.854	0.887	0.860	0.764	0.721	0.703	0.690	0.627	0.483	0.583	0.573	0.560	0.588	0.620	0.536	0.546	0.520	0.514	0.627	0.501	0.569	0.591	0.559	0.590	0.593	0.530	0.647	0.551
650.0	38.47	27.03	19.66	14.09	12.18	11.49	11.51	13.05	12.81	16.97	16.78	17.82	15.72	14.57	13.96	8.434	4.055	3.101	3.150	5.721	45.78	77.47	6.656	2.956	3.432	3.145	3.121	3.475	2.898	2.981	2.590	2.089	1.981	1.840	1.618	1.339	1.468	1.256	1.212	1.197	1.028	1.051	1.044	1.081	1.176	1.016	1.062	0.951	0.843	0.801	0.765	0.811	0.692	0.695	0.690	0.577	0.697	0.534	0.588	0.506	0.528	0.545	0.702	0.615	0.610	0.517	0.573	0.535	0.550	0.521	0.556	0.632	0.562	0.546	0.603	0.569	0.592
