Sample:	'1
File name:	Default_20240106_140413.FD3
Run date:	'13:57:52, 01/06/2024
Operator:	dsjg
Comment:	'

Instrument
Model:	F-2700 FL Spectrophotometer
Serial number:	2198-001
ROM Version:	4J14000 07

Instrument parameters
Measurement type:	3-D scan
Data mode:	Fluorescence
EX  Start WL:	220.0 nm
EX  End WL:	600.0 nm
EX Sampling interval:	5.0 nm
EM  Start WL:	230.0 nm
EM  End WL:	650.0 nm
EM Sampling interval:	5.0 nm
Scan speed:	12000 nm/min
EX Slit:	5.0 nm
EM Slit:	5.0 nm
PMT Voltage:	700 V
Response:	Auto 
Corrected spectra:	Off
Contour interval:	50.000

Peak integration
Integration method:	Rectangular
Sensitivity:	1
Threshold:	1.000

Peaks
No.	ApexEX/EM(nm)	Height(Data)
1	225.0/305.0	 1071
2	225.0/340.0	 1463
3	225.0/545.0	51.27
4	225.0/585.0	81.15
5	235.0/260.0	123.9
6	240.0/265.0	130.3
7	240.0/400.0	531.4
8	245.0/270.0	127.9
9	250.0/275.0	158.1
10	255.0/560.0	59.76
11	260.0/570.0	49.35
12	265.0/585.0	55.49
13	270.0/300.0	759.2
14	270.0/595.0	56.62
15	275.0/305.0	808.9
16	275.0/340.0	921.3
17	275.0/605.0	51.62
18	280.0/620.0	37.60
19	315.0/355.0	249.5
20	320.0/360.0	254.3
21	335.0/380.0	276.8
22	455.0/335.0	3.637
23	460.0/340.0	3.708
24	550.0/305.0	4.316
25	555.0/345.0	4.338

Data points
	220.0	225.0	230.0	235.0	240.0	245.0	250.0	255.0	260.0	265.0	270.0	275.0	280.0	285.0	290.0	295.0	300.0	305.0	310.0	315.0	320.0	325.0	330.0	335.0	340.0	345.0	350.0	355.0	360.0	365.0	370.0	375.0	380.0	385.0	390.0	395.0	400.0	405.0	410.0	415.0	420.0	425.0	430.0	435.0	440.0	445.0	450.0	455.0	460.0	465.0	470.0	475.0	480.0	485.0	490.0	495.0	500.0	505.0	510.0	515.0	520.0	525.0	530.0	535.0	540.0	545.0	550.0	555.0	560.0	565.0	570.0	575.0	580.0	585.0	590.0	595.0	600.0
230.0	31.88	547.0	847.3	168.6	4.005	0.951	0.978	0.478	0.596	0.814	0.743	0.623	0.591	0.460	0.413	0.306	0.362	0.186	0.237	0.246	0.273	0.261	0.194	0.201	0.197	0.349	0.229	0.207	0.199	0.165	0.173	0.211	0.098	0.133	0.142	0.200	0.292	0.232	0.195	0.168	0.232	0.290	0.347	0.198	0.145	0.112	0.218	1.206	2.670	2.456	1.074	0.191	0.063	0.062	0.027	0.035	0.035	0.013	-0.006	-0.008	0.035	0.026	-0.016	-0.003	-0.015	0.006	0.006	-0.015	-0.018	-0.018	-0.012	-0.048	-0.049	-0.039	-0.041	-0.041	-0.047
235.0	51.59	155.9	601.8	685.5	192.1	5.380	1.795	0.749	0.783	1.005	0.815	0.859	0.420	0.700	0.401	0.280	0.318	0.207	0.266	0.266	0.289	0.180	0.138	0.183	0.156	0.335	0.171	0.121	0.130	0.175	0.212	0.213	0.118	0.098	0.062	0.134	0.290	0.270	0.307	0.165	0.183	0.205	0.275	0.342	0.287	0.209	0.130	0.380	0.876	1.665	2.448	2.752	1.321	0.306	0.086	0.055	-0.011	0.069	-0.027	0.016	0.060	0.003	0.024	-0.013	0.002	0.007	-0.027	0.001	-0.016	0.013	-0.004	-0.029	0.002	-0.004	-0.048	-0.058	0.004
240.0	76.17	62.53	198.0	710.6	564.1	124.5	3.435	1.610	1.162	1.116	0.791	1.069	0.770	0.394	0.547	0.246	0.318	0.150	0.308	0.250	0.207	0.184	0.162	0.309	0.115	0.357	0.218	0.189	0.223	0.111	0.166	0.167	0.177	0.132	0.048	0.121	0.138	0.208	0.265	0.311	0.210	0.228	0.220	0.213	0.366	0.355	0.262	0.182	0.264	0.481	1.092	2.526	3.435	2.673	1.119	0.193	0.018	0.050	0.057	0.043	0.099	0.015	-0.001	0.003	-0.017	-0.004	-0.053	0.017	-0.023	-0.029	0.006	0.004	-0.042	-0.007	0.038	-0.081	-0.009
245.0	67.57	84.97	61.43	288.1	824.5	454.1	70.55	2.263	1.461	0.884	1.022	0.935	0.932	0.668	0.578	0.338	0.298	0.353	0.251	0.338	0.245	0.159	0.145	0.251	0.186	0.368	0.241	0.262	0.150	0.113	0.189	0.210	0.095	0.047	0.076	0.038	0.080	0.164	0.254	0.270	0.228	0.254	0.175	0.197	0.252	0.292	0.376	0.388	0.228	0.186	0.355	0.818	2.031	3.340	3.935	2.317	0.632	0.039	0.034	0.026	-0.015	0.036	0.046	0.024	-0.012	-0.035	0.016	0.005	-0.001	-0.031	-0.042	-0.046	-0.050	-0.039	0.063	-0.047	-0.050
250.0	27.22	80.41	92.91	91.84	307.0	681.7	626.4	161.6	8.323	1.438	1.575	0.875	1.118	0.894	0.605	0.489	0.263	0.282	0.282	0.370	0.302	0.224	0.243	0.190	0.197	0.293	0.298	0.236	0.188	0.154	0.187	0.190	0.115	0.109	0.063	0.098	0.073	0.124	0.138	0.234	0.240	0.237	0.189	0.163	0.187	0.175	0.277	0.402	0.423	0.419	0.270	0.316	0.540	1.116	2.104	2.858	3.440	2.984	1.799	0.559	0.042	0.019	0.002	0.007	-0.016	0.019	0.009	0.005	-0.008	-0.044	-0.008	-0.055	-0.048	-0.066	-0.021	-0.054	-0.031
255.0	7.618	23.95	93.40	117.3	93.49	192.2	639.2	 1021	201.8	7.482	2.092	1.443	1.025	0.691	0.557	0.517	0.386	0.298	0.187	0.406	0.268	0.272	0.216	0.167	0.188	0.387	0.132	0.210	0.178	0.068	0.078	0.268	0.105	0.116	0.079	0.142	0.089	0.082	0.121	0.166	0.162	0.348	0.223	0.159	0.158	0.164	0.144	0.147	0.238	0.358	0.503	0.568	0.392	0.336	0.562	0.792	1.202	2.600	4.703	4.837	2.486	0.500	0.015	-0.005	0.024	0.013	-0.041	-0.010	0.004	-0.022	-0.016	-0.050	-0.089	-0.058	-0.051	-0.025	-0.063
260.0	1.550	5.867	40.44	123.9	94.98	56.71	223.8	923.3	844.2	144.6	4.574	1.845	1.506	0.879	0.586	0.624	0.528	0.328	0.293	0.377	0.370	0.231	0.188	0.188	0.197	0.300	0.197	0.252	0.246	0.187	0.039	0.267	0.094	0.112	0.097	0.118	0.079	0.065	0.080	0.070	0.127	0.233	0.229	0.237	0.168	0.167	0.101	0.119	0.167	0.137	0.267	0.654	0.740	0.446	0.206	0.294	0.380	0.670	1.971	4.014	5.885	4.722	1.794	0.291	0.019	0.011	0.006	-0.023	0.001	-0.022	-0.052	-0.050	-0.007	-0.031	-0.059	-0.034	-0.003
265.0	3.886	4.768	14.86	68.10	130.3	65.10	61.01	361.6	932.8	752.9	102.6	2.995	1.563	1.312	0.651	0.659	0.464	0.420	0.388	0.350	0.318	0.259	0.238	0.202	0.184	0.451	0.224	0.199	0.209	0.222	0.169	0.148	0.139	0.086	0.119	0.182	0.079	0.105	0.047	0.063	0.033	0.191	0.306	0.231	0.153	0.199	0.113	0.165	0.160	0.171	0.133	0.262	0.567	0.769	0.530	0.262	0.165	0.199	0.515	1.228	3.060	5.624	5.893	3.877	1.045	0.009	-0.018	-0.007	0.027	-0.006	-0.007	0.009	-0.028	0.011	-0.061	-0.009	-0.016
270.0	56.87	53.94	37.29	29.16	80.29	127.9	81.67	102.0	329.2	762.0	832.1	303.1	18.29	1.491	1.027	0.623	0.585	0.598	0.538	0.440	0.310	0.428	0.365	0.305	0.212	0.463	0.267	0.251	0.172	0.249	0.233	0.213	0.187	0.160	0.176	0.200	0.174	0.101	0.076	0.077	0.104	0.146	0.237	0.283	0.323	0.327	0.229	0.303	0.236	0.206	0.156	0.134	0.238	0.408	0.558	0.655	0.584	0.357	0.255	0.334	0.802	1.724	2.787	4.278	5.090	4.416	2.537	0.764	0.042	-0.004	-0.013	0.008	0.007	0.001	-0.057	-0.008	-0.018
275.0	195.8	178.2	117.1	34.90	28.96	79.80	158.1	115.9	110.5	233.1	631.7	 1047	153.4	15.72	1.691	0.966	1.008	0.548	0.512	0.465	0.428	0.433	0.325	0.230	0.313	0.551	0.326	0.291	0.195	0.192	0.253	0.155	0.190	0.177	0.310	0.366	0.311	0.264	0.165	0.176	0.240	0.238	0.308	0.379	0.533	0.621	0.517	0.600	0.486	0.415	0.246	0.196	0.146	0.153	0.224	0.318	0.658	0.974	0.840	0.421	0.306	0.557	0.775	1.173	1.698	3.365	5.467	6.221	3.459	0.764	0.038	0.001	-0.025	-0.016	-0.057	0.008	-0.016
280.0	338.3	331.4	207.6	62.89	27.68	46.21	136.5	194.9	124.0	130.6	271.2	837.6	984.7	123.3	7.162	1.330	1.072	0.854	0.893	0.481	0.480	0.431	0.338	0.292	0.255	0.529	0.357	0.239	0.188	0.242	0.279	0.229	0.245	0.243	0.556	0.553	0.555	0.428	0.363	0.312	0.381	0.298	0.409	0.497	0.839	0.932	0.877	0.890	0.820	0.571	0.382	0.221	0.216	0.171	0.145	0.228	0.306	0.645	1.129	0.976	0.795	0.466	0.498	0.664	0.769	1.292	2.404	5.006	7.259	5.790	2.188	0.201	0.080	-0.005	-0.030	0.004	-0.054
285.0	522.3	524.6	343.7	122.3	52.19	50.31	95.17	221.2	242.7	188.8	219.0	415.9	937.9	906.7	90.68	3.222	1.213	0.826	0.739	0.580	0.658	0.598	0.361	0.455	0.247	0.600	0.143	0.303	0.209	0.304	0.312	0.312	0.223	0.284	0.798	0.845	0.725	0.579	0.554	0.432	0.631	0.634	0.678	0.732	0.999	1.209	1.369	1.303	1.176	0.925	0.635	0.417	0.296	0.205	0.180	0.207	0.271	0.349	0.755	1.076	1.476	1.174	0.862	0.945	0.936	0.981	1.329	2.168	3.831	6.201	7.116	4.148	1.101	0.054	0.009	0.014	0.018
290.0	751.3	786.5	548.6	229.3	101.3	80.44	106.9	198.9	340.5	405.1	386.7	390.4	501.3	764.7	796.4	332.1	17.92	1.456	0.969	0.736	0.681	0.649	0.515	0.455	0.389	0.636	0.276	0.278	0.235	0.200	0.163	0.273	0.269	0.496	0.977	1.346	1.288	1.065	0.838	0.830	0.833	0.938	0.914	1.175	1.484	1.756	1.884	1.992	1.755	1.506	1.058	0.765	0.545	0.424	0.308	0.384	0.440	0.497	0.656	0.810	1.289	1.748	1.991	2.015	1.825	1.622	1.711	1.877	2.009	2.654	3.741	4.579	5.387	4.598	2.614	0.753	0.041
295.0	923.4	988.3	706.9	334.2	150.2	115.8	141.0	225.8	356.0	534.7	646.2	535.2	438.5	353.1	506.0	 1015	457.8	15.62	1.356	0.984	0.923	0.841	0.586	0.479	0.486	0.684	0.235	0.406	0.297	0.369	0.272	0.275	0.306	0.630	1.220	1.564	1.676	1.472	1.263	1.076	1.112	1.114	1.235	1.496	1.660	2.149	2.164	2.435	2.346	1.954	1.341	1.120	0.893	0.598	0.547	0.508	0.512	0.580	0.753	1.002	1.402	1.609	2.136	2.776	3.238	3.082	2.548	2.479	2.145	2.044	1.925	1.610	1.928	3.432	6.264	6.843	3.491
300.0	997.3	 1056	766.0	395.4	185.8	142.0	172.1	252.3	369.3	550.3	759.2	701.2	483.4	284.9	215.3	663.5	 1066	77.96	4.415	1.295	1.119	0.857	0.590	0.510	0.477	0.789	0.491	0.390	0.324	0.278	0.282	0.204	0.317	0.478	1.228	1.720	1.815	1.623	1.305	1.160	1.156	1.192	1.290	1.361	1.843	2.252	2.387	2.473	2.602	2.139	1.592	1.324	1.027	0.705	0.624	0.629	0.600	0.728	1.015	1.148	1.372	1.618	2.143	2.767	3.379	3.702	3.681	3.104	2.315	2.252	1.676	1.081	0.891	1.159	2.650	5.381	8.147
305.0	996.8	 1071	795.5	416.5	201.8	161.2	192.3	265.3	387.8	531.1	736.1	808.9	575.6	294.6	137.6	242.3	787.7	 1097	61.15	2.516	1.296	0.973	0.681	0.439	0.477	0.998	0.407	0.405	0.342	0.319	0.350	0.215	0.309	0.508	1.204	1.691	1.897	1.515	1.268	1.202	1.229	1.318	1.326	1.617	1.813	2.177	2.308	2.542	2.552	2.133	1.786	1.422	0.982	0.819	0.724	0.713	0.786	0.749	1.018	1.221	1.349	1.865	2.220	2.588	3.023	3.433	4.316	3.850	2.943	2.498	1.721	1.195	0.734	0.614	0.842	1.714	4.061
310.0	908.4	974.7	757.9	396.1	210.9	176.8	206.1	277.5	388.5	522.2	671.9	758.7	678.2	372.6	152.4	112.0	262.0	716.4	700.9	258.7	13.72	1.391	0.999	0.781	0.651	1.024	0.437	0.360	0.337	0.352	0.303	0.262	0.389	0.558	1.138	1.662	1.803	1.402	1.268	1.189	1.108	1.230	1.333	1.481	1.605	2.054	2.035	2.398	2.322	1.991	1.533	1.360	1.066	0.892	0.728	0.804	0.774	0.864	1.004	1.278	1.513	1.979	2.146	2.492	2.852	2.934	3.437	3.577	3.383	3.136	2.310	1.393	0.788	0.608	0.539	0.647	1.166
315.0	834.7	892.0	691.6	369.2	210.8	189.1	219.9	302.2	403.4	523.0	646.0	687.8	646.2	511.0	238.9	110.9	112.5	202.1	403.9	998.2	382.0	10.83	1.547	1.207	0.625	1.184	0.620	0.494	0.444	0.301	0.378	0.340	0.410	0.653	1.049	1.393	1.665	1.392	1.137	1.080	0.964	0.993	1.300	1.395	1.507	2.019	1.874	2.187	2.226	1.708	1.414	1.228	1.041	0.868	0.842	0.809	0.762	1.033	1.098	1.384	1.651	1.889	2.165	2.642	2.799	2.954	3.194	3.256	3.015	3.069	2.793	2.396	1.404	0.791	0.602	0.592	0.528
320.0	925.9	 1004	741.5	381.2	217.9	207.6	247.2	339.6	446.4	557.4	683.0	713.3	654.4	554.6	380.1	165.8	103.9	95.18	140.8	577.7	 1063	58.67	4.806	1.208	0.923	1.483	0.672	0.554	0.416	0.386	0.465	0.414	0.343	0.418	0.858	1.325	1.432	1.227	1.142	1.018	0.928	1.132	1.273	1.389	1.671	2.100	2.131	2.492	2.459	1.931	1.318	1.162	1.008	0.918	0.883	0.880	0.964	1.075	1.262	1.476	1.746	1.993	2.476	2.683	2.942	3.090	3.252	3.047	3.133	2.942	2.740	2.859	2.347	1.537	0.879	0.683	0.559
325.0	 1052	 1210	907.8	428.6	242.9	232.8	291.5	381.7	488.9	616.1	728.9	772.6	693.9	573.0	474.6	278.1	134.4	91.30	77.93	194.6	740.8	957.5	49.36	2.465	1.090	1.674	0.791	0.648	0.369	0.598	0.539	0.410	0.393	0.500	0.849	1.181	1.209	1.074	1.149	0.992	0.925	1.150	1.263	1.492	1.967	2.333	2.645	3.060	2.901	2.339	1.669	1.334	1.038	0.919	0.964	1.024	1.210	1.272	1.431	1.666	2.043	2.290	2.562	3.074	3.356	3.314	3.456	3.488	3.400	3.183	2.810	2.695	2.667	2.379	1.690	1.056	0.831
330.0	 1126	 1300	985.9	485.5	289.6	268.1	328.7	419.9	542.4	665.8	782.2	824.1	749.9	609.0	477.0	378.0	234.1	122.0	83.53	86.40	230.1	621.9	909.6	216.9	13.14	2.319	1.055	0.738	0.555	0.562	0.479	0.495	0.447	0.517	0.727	0.978	1.078	0.974	1.055	0.937	0.952	1.251	1.284	1.580	1.969	2.418	2.651	3.337	3.381	2.601	1.727	1.489	1.183	1.026	1.086	1.146	1.311	1.429	1.659	1.882	2.164	2.420	2.849	3.050	3.459	3.449	3.553	3.765	3.690	3.418	3.117	2.699	2.593	2.312	2.323	1.836	1.488
335.0	 1179	 1409	 1044	531.7	339.7	316.1	382.8	472.3	595.8	724.1	833.8	886.7	820.7	680.6	508.7	374.0	334.3	203.4	107.9	77.86	94.29	171.9	435.2	 1028	342.1	19.90	1.399	1.093	0.664	0.558	0.498	0.572	0.487	0.457	0.745	0.894	1.039	0.914	0.912	0.905	0.911	1.240	1.490	1.593	2.033	2.613	2.795	3.637	3.514	2.823	1.873	1.577	1.310	1.126	1.144	1.347	1.467	1.586	1.991	2.041	2.305	2.614	3.002	3.418	3.741	3.942	3.824	3.925	3.880	3.587	3.409	3.115	2.787	2.320	2.004	1.895	1.969
340.0	 1239	 1463	 1126	566.4	366.8	343.1	408.8	505.8	626.6	749.0	878.3	921.3	863.2	721.8	541.7	378.8	317.0	283.7	151.1	89.84	73.95	74.63	134.2	570.6	 1137	332.7	6.849	1.358	0.886	0.834	0.573	0.578	0.527	0.441	0.630	0.732	0.813	0.848	0.887	1.053	1.075	1.195	1.558	1.604	2.051	2.654	2.885	3.495	3.708	3.094	2.109	1.741	1.374	1.243	1.275	1.430	1.511	1.748	2.097	2.216	2.512	2.873	3.097	3.546	3.659	3.839	3.990	3.983	4.065	3.658	3.382	3.353	2.866	2.390	2.191	1.729	1.869
345.0	 1191	 1388	 1096	587.7	389.4	376.7	435.1	526.7	637.9	760.2	875.6	914.6	873.1	730.9	563.7	388.4	291.7	292.8	223.5	113.2	80.86	64.59	60.66	175.5	785.8	 2402	47.20	2.642	1.039	0.867	0.568	0.684	0.606	0.611	0.660	0.888	0.935	0.985	0.908	0.918	1.059	1.136	1.436	1.507	2.025	2.580	2.874	3.237	3.301	2.829	2.123	1.752	1.457	1.365	1.362	1.423	1.594	1.771	2.131	2.151	2.630	2.835	3.207	3.451	3.617	3.973	3.794	4.338	4.129	3.959	3.782	3.328	2.933	2.526	2.170	1.647	1.610
350.0	 1081	 1252	 1004	579.2	416.9	394.5	445.9	530.6	639.6	750.9	860.4	901.5	852.4	735.9	570.0	403.6	294.2	255.9	256.3	197.8	115.7	83.64	61.01	74.77	228.6	 1600	 1057	197.8	12.34	1.481	0.890	0.812	0.575	0.617	0.658	0.693	0.796	0.879	0.820	0.885	0.854	1.092	1.336	1.466	1.808	2.339	2.570	3.094	2.981	2.521	1.902	1.713	1.499	1.515	1.409	1.490	1.640	1.894	2.167	2.338	2.654	2.838	3.053	3.327	3.642	3.692	3.841	3.922	3.854	3.825	3.522	3.329	3.085	2.594	2.152	1.826	1.856
355.0	 1005	 1165	925.8	563.1	438.4	425.1	460.9	530.9	629.1	740.5	835.0	879.8	829.8	732.5	576.7	413.3	314.6	254.0	231.2	249.5	198.5	119.9	88.28	72.38	90.06	388.6	461.7	 1031	315.7	13.86	1.091	1.236	0.855	0.570	0.637	0.718	0.783	0.762	0.792	0.846	0.793	1.054	1.284	1.298	1.676	2.253	2.467	2.981	2.691	2.324	1.707	1.719	1.568	1.507	1.514	1.454	1.683	1.890	2.108	2.436	2.477	2.750	3.119	3.381	3.413	3.612	3.679	3.680	3.837	3.873	3.269	3.513	3.267	2.757	2.184	1.949	1.883
360.0	941.9	 1063	845.9	567.1	455.0	446.1	480.6	528.0	641.3	716.6	808.8	843.5	807.3	721.5	574.5	418.6	325.1	270.7	235.8	237.6	254.3	171.2	111.8	88.11	72.15	122.2	135.7	582.5	 1039	244.4	4.554	1.567	0.907	0.700	0.679	0.719	0.777	0.812	0.732	0.742	0.756	0.887	1.246	1.388	1.724	1.979	2.139	2.525	2.495	2.106	1.749	1.692	1.641	1.693	1.568	1.514	1.778	1.863	1.844	2.237	2.367	2.715	3.130	3.162	3.491	3.429	3.376	3.654	3.617	3.648	3.345	3.360	3.041	2.486	2.333	1.991	1.830
365.0	883.6	963.1	765.1	562.1	466.5	457.7	482.7	538.9	623.1	702.5	780.8	812.3	775.8	690.4	566.7	422.4	334.0	287.2	252.7	232.5	253.5	239.0	149.2	109.3	84.08	73.17	61.87	176.2	723.3	985.4	41.93	2.911	1.172	0.826	0.783	0.714	0.698	0.704	0.779	0.788	0.789	0.965	1.159	1.417	1.495	1.849	1.877	2.279	2.298	1.870	1.700	1.752	1.735	1.633	1.647	1.693	1.963	1.980	1.994	2.281	2.442	2.496	3.076	3.190	3.391	3.356	3.480	3.434	3.491	3.473	3.192	3.296	3.136	2.536	2.493	2.037	1.927
370.0	812.7	872.0	707.6	557.2	476.4	468.3	491.5	535.6	609.7	686.0	746.0	772.9	744.2	668.4	554.7	426.6	354.2	311.5	282.2	257.2	249.3	263.1	233.1	155.0	110.7	85.20	61.04	70.58	207.6	616.7	799.0	508.2	11.42	1.124	0.880	0.798	0.660	0.780	0.731	0.771	0.721	1.000	1.230	1.257	1.330	1.669	1.749	2.031	2.120	1.831	1.553	1.708	1.726	1.620	1.610	1.766	1.895	1.979	2.078	2.311	2.440	2.648	2.841	2.903	3.214	3.243	3.334	3.174	3.339	3.347	3.063	3.110	2.942	2.488	2.401	2.147	2.015
375.0	743.3	778.0	654.5	543.7	495.7	482.3	496.8	543.4	593.7	655.0	701.9	731.5	703.2	644.5	539.7	434.6	371.2	339.3	312.4	292.4	271.9	258.0	266.4	236.2	152.7	110.2	79.80	60.62	77.65	160.8	366.7	 1393	284.8	11.51	1.264	0.855	0.776	0.887	0.766	0.851	0.737	1.100	1.214	1.063	1.285	1.484	1.649	1.753	1.927	1.724	1.518	1.626	1.766	1.727	1.753	1.831	1.888	1.965	2.100	2.369	2.403	2.498	2.652	3.012	3.011	3.091	3.073	3.389	3.178	3.071	3.090	2.967	2.869	2.539	2.514	2.329	2.017
380.0	690.9	736.1	631.7	540.0	505.2	498.3	508.0	548.7	577.4	623.2	681.1	694.6	677.1	623.6	526.6	436.9	382.2	357.6	329.4	313.7	292.0	273.6	260.5	276.8	204.7	133.5	99.47	72.19	59.09	64.08	107.6	670.3	957.0	207.2	4.427	1.137	1.007	0.905	0.789	0.761	0.787	1.051	1.140	0.977	1.121	1.451	1.501	1.740	1.813	1.562	1.497	1.585	1.797	1.698	1.726	1.916	2.002	2.008	2.171	2.347	2.417	2.460	2.666	2.725	3.109	2.989	2.973	3.099	2.990	3.105	3.061	2.920	2.831	2.709	2.461	2.228	2.254
385.0	670.5	688.4	606.4	536.3	514.8	507.7	516.8	543.1	569.9	609.3	649.7	664.0	648.2	604.9	525.5	436.4	390.1	366.9	344.8	330.0	310.0	288.3	267.4	268.3	255.1	170.5	118.2	88.36	66.79	51.69	50.73	186.3	655.7	815.0	34.74	2.322	1.123	1.066	0.907	0.867	0.799	1.008	1.191	1.002	1.185	1.464	1.395	1.710	1.629	1.437	1.398	1.702	1.779	1.718	1.847	2.067	2.085	2.122	2.105	2.429	2.372	2.420	2.415	2.677	2.753	2.856	2.915	2.914	2.996	3.049	2.854	2.899	2.697	2.539	2.550	2.270	2.375
390.0	630.5	650.5	590.3	532.3	523.2	517.3	518.6	536.0	556.8	584.8	618.5	635.4	614.4	580.8	514.3	440.3	400.8	381.4	362.2	349.3	329.1	309.0	285.7	266.9	260.2	232.1	162.3	115.1	88.32	67.57	52.56	70.62	187.0	508.3	627.1	143.2	9.767	1.362	0.957	0.910	0.852	1.224	1.163	1.126	1.183	1.338	1.381	1.703	1.541	1.401	1.347	1.670	1.845	1.822	1.850	1.872	2.060	2.096	2.114	2.241	2.356	2.283	2.511	2.636	2.694	2.689	2.672	2.918	2.859	2.795	2.699	2.637	2.750	2.551	2.447	2.437	2.398
395.0	592.5	616.1	567.6	531.9	521.8	512.3	519.2	538.3	546.9	567.4	590.5	602.0	584.4	554.0	501.0	437.5	409.5	389.6	374.7	357.6	344.5	326.6	302.5	279.3	256.6	248.0	224.6	152.8	115.8	91.29	70.64	57.08	71.77	135.4	288.0	681.4	225.4	10.30	1.234	0.978	0.920	1.107	1.334	1.202	1.266	1.473	1.369	1.715	1.398	1.291	1.326	1.785	1.722	1.905	1.965	1.976	2.035	2.138	2.057	2.247	2.369	2.363	2.463	2.399	2.474	2.649	2.552	2.500	2.686	2.745	2.597	2.660	2.544	2.517	2.409	2.385	2.429
400.0	581.1	581.4	562.8	510.8	531.4	521.3	526.3	531.6	537.3	549.2	569.1	578.5	561.4	537.5	493.2	436.4	405.4	386.4	375.2	361.1	346.4	332.6	311.8	291.9	264.6	241.5	243.1	198.2	137.6	107.8	85.81	64.23	53.06	55.34	84.99	371.8	686.0	176.5	3.855	1.314	1.016	1.285	1.337	1.209	1.214	1.378	1.325	1.431	1.552	1.348	1.396	1.737	1.921	1.953	1.873	1.984	1.960	2.071	2.121	2.339	2.177	2.456	2.551	2.327	2.287	2.543	2.437	2.441	2.659	2.519	2.438	2.703	2.472	2.506	2.426	2.400	2.394
405.0	546.8	571.0	542.3	522.5	513.3	523.5	530.1	535.8	527.3	533.8	551.5	555.9	539.4	516.5	480.2	429.3	400.9	387.1	376.0	361.3	349.7	335.8	320.6	299.3	273.2	243.7	232.6	230.3	169.7	125.2	99.73	76.31	57.42	43.57	39.36	107.8	460.1	676.5	30.09	2.097	1.248	1.395	1.313	1.263	1.187	1.417	1.303	1.489	1.533	1.436	1.286	1.702	1.834	2.055	1.932	1.899	1.913	2.199	2.219	2.163	2.276	2.435	2.289	2.211	2.407	2.389	2.503	2.361	2.660	2.626	2.416	2.467	2.580	2.497	2.380	2.336	2.332
410.0	517.1	542.0	516.2	496.0	509.2	512.3	518.3	513.5	514.5	516.4	530.3	534.8	515.2	493.0	455.5	415.4	395.8	376.8	367.5	356.1	344.8	334.8	320.6	302.8	279.6	253.1	228.8	225.1	212.2	162.0	120.5	93.97	69.79	50.57	36.05	42.00	128.0	420.2	468.5	128.5	10.70	1.937	1.505	1.242	1.102	1.214	1.277	1.317	1.507	1.341	1.287	1.638	1.856	1.805	1.777	1.963	1.974	2.219	2.288	2.145	2.220	2.341	2.403	2.304	2.271	2.297	2.333	2.311	2.347	2.466	2.229	2.444	2.340	2.307	2.283	2.318	2.310
415.0	458.5	521.6	494.0	491.1	494.2	495.8	510.0	500.1	497.0	489.6	508.5	504.5	486.7	460.9	431.0	398.2	379.3	365.2	355.1	342.7	331.4	325.8	315.4	302.8	281.6	258.7	232.9	217.1	212.7	204.1	150.0	110.6	84.63	61.47	42.20	33.31	44.43	106.0	216.5	522.6	235.8	15.57	1.944	1.471	1.205	1.286	1.152	1.206	1.396	1.291	1.209	1.658	1.746	1.930	1.944	1.914	2.068	2.069	2.098	2.141	2.079	2.197	2.226	2.112	2.169	2.189	2.316	2.348	2.171	2.294	2.257	2.268	2.435	2.242	2.177	2.265	2.209
420.0	434.6	490.1	475.2	473.3	478.6	485.1	492.5	495.0	487.6	471.7	487.6	484.9	462.8	437.3	412.7	384.1	362.5	351.1	341.2	332.1	322.0	314.6	309.4	294.9	280.0	259.2	235.9	220.9	204.9	209.1	178.6	125.3	93.27	69.97	49.56	36.36	30.40	37.31	60.60	285.0	751.1	226.9	7.293	1.684	1.198	1.356	1.165	1.270	1.357	1.115	1.313	1.650	1.631	1.723	1.889	1.931	2.100	1.991	1.979	2.103	2.096	2.027	2.158	2.176	2.161	2.041	2.138	2.232	1.984	2.204	2.000	2.194	2.276	2.234	2.074	2.148	2.188
425.0	413.9	471.5	454.5	455.5	469.1	474.0	478.6	480.2	476.9	464.1	473.6	473.3	446.5	420.8	395.1	367.2	351.6	337.7	331.3	320.2	312.4	306.0	300.8	289.8	278.7	259.3	238.3	221.7	203.5	199.3	195.7	144.7	101.9	77.18	55.88	41.04	30.70	24.56	24.93	82.16	456.7	 1534	168.1	2.712	1.333	1.320	1.088	1.228	1.317	1.225	1.269	1.497	1.661	1.698	1.878	1.940	1.936	2.065	2.070	2.017	2.191	2.009	2.121	2.238	2.131	1.929	2.111	1.997	1.837	2.008	1.968	2.056	2.127	1.948	2.137	2.174	2.011
430.0	404.0	443.7	433.2	446.1	458.0	462.1	462.9	464.5	457.4	447.1	460.4	450.8	419.0	396.1	372.4	346.4	335.7	322.4	315.0	303.1	298.8	292.7	287.2	281.5	270.3	254.9	238.2	222.9	206.2	193.0	184.3	168.1	123.4	87.12	64.64	48.92	36.17	27.20	21.32	29.46	124.1	875.9	 1219	264.0	7.283	1.405	1.252	1.178	1.289	1.194	1.262	1.466	1.640	1.708	1.685	1.843	1.834	1.887	2.007	2.078	2.149	2.004	2.058	1.972	1.992	2.026	1.925	2.058	1.862	1.843	1.860	1.943	1.928	1.855	2.018	2.000	1.993
435.0	445.8	400.9	417.5	437.6	435.9	448.4	446.4	457.7	442.4	438.5	437.1	428.3	393.8	373.6	353.1	328.4	316.6	304.6	294.1	284.3	279.6	278.6	272.8	272.2	261.0	247.9	235.6	221.9	209.1	193.7	174.3	162.7	147.5	105.6	74.82	56.71	42.71	32.92	24.99	21.68	38.90	204.9	482.9	644.4	166.7	6.319	1.494	1.268	1.358	1.203	1.231	1.422	1.554	1.623	1.700	1.656	1.888	1.860	1.872	1.951	2.042	1.923	2.004	1.813	1.923	1.938	1.967	1.841	1.818	1.945	1.770	1.829	1.889	1.702	1.999	1.904	1.928
440.0	558.6	390.7	394.1	410.2	421.1	430.8	434.2	440.0	427.2	420.7	426.0	408.4	377.3	355.1	333.6	317.5	301.0	291.0	280.1	273.8	266.8	265.7	264.4	260.5	253.1	242.4	230.1	219.1	207.2	193.8	170.4	153.8	149.6	120.4	82.56	61.58	47.99	37.37	29.06	22.29	22.09	55.82	119.8	328.2	454.0	29.66	2.517	1.458	1.398	1.249	1.147	1.388	1.579	1.522	1.608	1.573	1.827	1.748	1.937	1.868	1.944	1.912	1.981	1.857	1.953	1.795	1.863	1.776	1.669	1.809	1.615	1.716	1.792	1.646	1.677	1.816	1.705
445.0	684.8	409.8	377.0	395.2	409.6	413.8	420.7	430.3	414.0	415.1	409.3	392.3	364.9	336.2	317.5	299.0	287.4	276.3	268.6	261.1	252.8	250.9	253.5	250.7	246.1	234.0	223.2	214.2	204.1	191.0	171.9	151.9	139.0	129.2	94.65	66.65	52.89	40.94	32.53	24.64	20.53	24.77	36.02	91.84	339.1	362.1	22.07	1.799	1.527	1.203	1.160	1.388	1.524	1.516	1.593	1.559	1.731	1.836	1.852	1.926	1.911	1.870	1.823	1.788	1.906	1.824	1.702	1.785	1.667	1.673	1.565	1.706	1.552	1.537	1.633	1.716	1.783
450.0	641.9	560.5	364.2	371.0	383.1	393.5	403.7	406.4	400.1	391.1	382.7	368.7	336.2	313.2	291.5	276.3	265.0	255.8	247.0	239.9	232.7	234.6	232.8	232.4	229.2	220.9	211.7	203.8	195.9	184.4	169.3	149.0	129.8	118.6	106.9	79.63	57.78	45.67	37.51	29.64	23.86	20.81	19.80	29.01	93.99	261.5	275.9	96.41	6.606	1.246	1.159	1.346	1.416	1.398	1.518	1.653	1.657	1.764	1.813	1.718	1.765	1.930	1.699	1.598	1.750	1.748	1.592	1.588	1.587	1.537	1.538	1.479	1.503	1.490	1.495	1.622	1.549
455.0	417.0	710.6	415.1	348.9	355.9	365.6	374.0	381.9	374.2	365.0	354.3	337.7	303.4	283.7	264.2	250.1	240.8	231.4	223.4	218.0	214.7	212.4	212.2	213.7	210.0	205.5	196.1	191.0	183.7	175.2	163.9	145.3	124.1	109.0	99.13	92.15	67.88	50.77	41.16	33.60	27.09	22.75	18.56	16.56	28.39	64.76	144.5	366.6	149.0	4.734	1.250	1.332	1.363	1.360	1.479	1.467	1.555	1.622	1.741	1.742	1.701	1.694	1.665	1.509	1.534	1.630	1.640	1.443	1.501	1.343	1.462	1.469	1.275	1.345	1.294	1.347	1.410
460.0	293.2	666.9	534.8	334.5	336.6	340.7	351.6	362.8	357.9	344.9	332.6	313.0	281.6	263.5	242.5	229.2	222.4	215.1	207.5	202.4	199.1	197.5	197.4	197.0	195.6	190.5	185.0	181.3	176.2	167.0	157.2	139.8	121.7	105.2	91.63	90.76	77.10	54.85	43.78	36.59	30.21	24.72	19.48	14.72	14.56	20.30	39.25	215.8	642.3	22.29	2.229	1.405	1.336	1.169	1.349	1.314	1.427	1.516	1.613	1.632	1.631	1.652	1.571	1.558	1.498	1.391	1.482	1.308	1.505	1.239	1.310	1.174	1.296	1.293	1.292	1.339	1.343
465.0	254.1	508.5	661.6	341.2	320.0	324.4	336.6	345.7	339.2	318.1	312.1	293.9	263.7	243.0	230.1	212.5	206.6	198.6	192.6	188.9	184.7	181.5	182.2	183.5	184.4	178.6	174.1	169.4	166.4	157.3	150.3	134.2	117.6	101.9	86.45	82.38	81.62	61.89	46.61	38.77	32.03	26.47	20.91	15.54	12.09	10.94	13.66	61.23	646.1	288.3	18.11	1.655	1.367	1.210	1.414	1.332	1.363	1.372	1.463	1.517	1.643	1.410	1.473	1.507	1.455	1.354	1.380	1.055	1.202	1.188	1.247	1.245	1.224	1.254	1.084	1.140	1.178
470.0	220.5	309.6	598.6	483.3	300.6	297.7	311.9	313.3	306.6	292.6	282.2	263.6	238.4	220.0	203.7	190.1	184.1	177.9	171.7	167.6	165.0	164.0	163.6	164.9	163.7	161.6	157.5	153.6	150.9	145.9	138.3	124.6	111.0	96.25	83.32	75.10	72.55	67.24	52.46	40.39	33.02	27.90	21.92	17.22	12.92	10.09	8.679	17.91	188.4	217.6	200.9	81.67	4.674	1.301	1.299	1.252	1.352	1.339	1.362	1.357	1.454	1.334	1.337	1.324	1.303	1.208	1.181	1.055	1.199	1.018	1.051	1.043	1.013	1.045	1.005	1.016	1.191
475.0	211.7	232.6	382.5	625.2	338.4	269.7	276.7	285.3	281.8	258.7	249.5	235.0	210.8	196.3	180.5	169.0	162.9	156.0	152.3	147.7	146.1	145.5	145.6	147.0	146.8	143.4	140.7	139.1	137.1	132.8	124.9	115.2	103.0	89.54	78.64	70.30	63.70	61.31	58.67	44.10	33.83	27.59	23.14	18.29	14.30	10.87	8.439	8.772	45.92	52.39	102.8	256.3	90.67	3.607	1.321	1.234	1.258	1.331	1.228	1.275	1.180	1.413	1.122	1.143	1.155	0.987	1.107	1.027	0.980	0.963	0.992	1.003	0.841	0.895	0.973	0.940	0.925
480.0	191.9	210.0	263.6	565.7	455.4	256.8	255.6	262.3	260.6	241.4	233.0	217.7	194.8	180.4	164.3	155.8	147.0	143.7	138.9	133.5	132.2	133.3	132.5	133.3	137.0	132.8	129.4	127.7	127.0	123.9	116.8	109.4	97.69	85.22	75.57	66.48	59.33	54.68	55.88	49.00	35.27	28.08	23.44	18.77	15.00	11.82	8.575	7.356	14.62	14.85	27.60	143.9	213.6	24.25	1.991	1.253	1.325	1.205	1.286	1.155	1.125	1.243	1.210	1.032	1.192	0.927	0.963	0.886	0.962	0.947	0.824	0.848	0.823	0.917	0.936	0.919	0.852
485.0	187.6	202.2	207.1	406.8	580.3	276.5	242.6	243.2	240.3	229.4	222.3	202.3	180.3	165.8	154.1	143.2	137.1	131.3	126.8	124.4	121.6	121.8	123.1	123.9	125.4	121.4	119.0	118.3	118.5	116.0	110.4	102.5	92.30	81.53	71.30	63.77	57.48	51.62	50.92	50.34	38.35	28.70	23.35	18.87	15.25	12.28	9.159	7.803	8.000	6.953	9.141	40.42	182.0	195.9	18.98	1.641	1.340	1.343	1.068	1.090	1.129	1.073	0.999	1.063	1.090	0.910	0.873	0.884	0.911	0.822	0.851	0.723	0.829	0.936	0.793	0.864	0.747
490.0	174.2	189.1	187.5	251.1	516.2	405.9	229.5	225.3	216.2	205.2	197.2	182.6	164.0	148.5	138.8	126.8	123.1	118.8	113.4	110.7	107.8	107.5	109.5	111.2	110.3	108.5	107.3	107.3	105.9	104.4	100.5	93.26	83.61	76.46	67.33	60.74	54.38	48.20	44.99	44.58	41.69	31.71	24.22	19.13	15.80	13.11	10.54	8.502	7.326	6.026	5.728	12.15	50.54	148.0	188.9	92.78	4.136	1.322	1.064	1.100	1.055	0.942	0.985	0.957	0.974	0.832	0.800	0.819	0.835	0.744	0.716	0.650	0.749	0.741	0.784	0.690	0.716
495.0	138.8	178.4	173.0	182.6	299.8	527.7	278.2	199.3	195.0	183.2	178.4	165.0	147.3	133.1	120.8	111.4	107.0	104.3	99.81	96.87	94.92	94.68	96.93	97.07	96.73	95.25	95.52	94.45	94.82	92.84	90.60	83.94	76.28	70.16	61.24	56.03	50.31	45.62	40.87	37.87	37.15	35.06	26.08	19.84	15.85	13.70	11.11	9.266	7.934	6.576	5.488	6.572	14.84	36.81	102.7	358.2	27.94	3.267	1.167	1.067	0.941	0.989	0.902	0.853	0.838	0.726	0.728	0.643	0.718	0.701	0.607	0.599	0.701	0.627	0.736	0.546	0.639
500.0	114.7	162.0	168.7	159.0	195.6	458.9	391.3	187.2	180.0	168.1	161.9	144.9	132.0	118.9	109.6	100.7	96.88	93.33	89.26	87.48	85.93	85.67	86.80	88.31	86.52	86.38	86.77	85.18	85.13	84.72	81.84	76.50	70.84	63.73	56.32	51.89	46.76	42.98	38.73	34.88	32.09	33.86	28.41	20.48	16.16	14.02	11.56	9.803	8.494	7.141	6.008	5.955	7.066	11.77	28.36	205.5	212.5	25.13	1.746	1.155	0.975	0.812	0.910	0.697	0.737	0.646	0.713	0.643	0.666	0.649	0.568	0.529	0.569	0.630	0.580	0.624	0.607
505.0	98.09	144.5	161.3	138.0	161.4	311.0	514.6	205.6	164.9	157.7	146.2	135.2	119.7	106.8	99.87	90.61	87.30	84.91	81.78	79.21	77.49	78.18	78.76	79.15	78.37	77.37	78.20	77.37	77.52	76.66	75.31	70.28	65.03	59.61	53.02	48.26	44.00	40.40	36.02	32.90	29.21	29.99	29.54	21.96	16.54	13.73	11.67	10.16	8.560	7.695	6.662	5.818	5.647	6.345	9.671	56.20	167.0	184.0	19.75	1.263	0.867	0.826	0.871	0.559	0.660	0.611	0.638	0.530	0.646	0.537	0.481	0.459	0.607	0.544	0.584	0.533	0.481
510.0	80.44	107.7	140.2	137.5	133.5	177.7	438.6	337.0	153.8	138.0	128.7	118.0	103.1	95.92	85.99	77.35	75.73	73.04	70.21	68.75	67.38	67.74	67.88	68.29	68.72	67.67	67.20	67.79	67.81	67.04	65.16	61.41	56.74	52.09	46.92	42.76	39.82	36.11	32.35	29.59	26.86	24.72	24.97	23.13	18.00	13.52	11.61	10.05	8.905	7.893	7.039	5.985	5.569	5.390	5.596	15.57	46.13	125.1	156.9	56.93	3.333	0.923	0.756	0.528	0.560	0.554	0.516	0.537	0.445	0.423	0.438	0.400	0.412	0.463	0.417	0.508	0.438
515.0	68.21	84.84	109.3	135.6	115.7	125.1	237.7	427.0	200.9	121.6	109.7	101.0	88.81	80.50	73.92	67.56	62.87	61.38	59.78	57.51	58.83	56.92	57.85	57.28	57.78	57.69	57.46	57.70	57.93	58.35	56.13	52.54	49.29	45.59	41.13	37.66	34.96	32.07	29.24	26.48	23.95	21.56	20.04	20.58	19.65	14.33	11.35	9.809	8.874	7.700	6.976	6.193	5.342	5.154	4.470	6.230	12.61	30.03	74.66	168.9	27.91	2.425	0.689	0.552	0.514	0.503	0.469	0.365	0.414	0.450	0.345	0.351	0.298	0.386	0.367	0.424	0.319
520.0	65.11	82.06	94.84	119.0	112.2	107.0	140.6	354.7	291.5	111.4	96.88	91.23	79.54	71.66	67.81	58.31	56.10	54.49	52.97	51.42	51.53	50.55	50.55	50.98	51.01	52.04	51.25	50.35	51.24	51.02	49.70	46.41	44.52	40.10	36.85	34.18	31.59	29.09	26.89	24.10	21.99	19.44	17.80	17.21	19.29	15.73	11.40	9.714	8.569	7.529	6.956	6.005	5.203	4.703	4.126	4.154	5.184	8.462	19.36	96.57	155.4	23.33	1.140	0.590	0.475	0.447	0.434	0.340	0.400	0.382	0.366	0.282	0.330	0.303	0.345	0.361	0.280
525.0	59.27	75.67	78.64	103.2	109.8	99.34	105.1	229.4	367.5	137.4	90.35	80.20	72.00	64.16	60.54	53.33	51.03	48.69	48.72	46.39	45.87	45.52	45.16	45.59	46.62	46.42	46.18	45.20	47.16	45.73	45.20	41.87	40.18	36.63	33.20	30.84	28.66	25.96	24.03	22.19	20.28	17.91	16.23	15.04	16.42	16.42	12.15	9.434	8.019	7.505	6.742	6.066	5.262	4.828	4.151	3.622	3.145	3.442	5.635	26.36	115.3	131.5	17.14	0.770	0.433	0.420	0.385	0.368	0.335	0.339	0.314	0.260	0.349	0.254	0.306	0.284	0.302
530.0	47.29	66.98	65.64	81.77	102.8	90.64	86.30	122.1	285.2	253.1	88.52	71.20	63.96	56.91	50.40	46.04	43.89	41.02	40.90	39.97	39.46	38.38	39.10	39.27	39.90	39.83	39.40	38.91	40.08	39.67	39.12	36.81	34.46	31.52	28.91	26.67	24.88	22.81	21.11	19.62	17.77	16.27	14.40	13.31	12.90	14.19	13.23	10.06	7.551	6.837	6.180	5.530	4.741	4.496	3.824	3.347	2.766	2.355	2.488	6.913	30.61	86.62	107.0	41.77	2.408	0.429	0.347	0.316	0.293	0.285	0.282	0.223	0.263	0.252	0.239	0.219	0.288
535.0	43.76	56.68	55.17	59.43	80.04	90.09	73.28	82.55	144.3	300.7	154.2	61.25	54.03	48.59	43.06	38.63	37.10	35.38	34.89	33.59	33.36	32.67	32.87	33.32	34.40	33.28	33.62	33.93	33.62	33.55	32.22	31.39	29.48	27.25	25.04	22.56	21.64	19.88	17.87	17.03	15.56	14.09	12.99	11.47	10.55	10.83	11.71	10.98	7.748	6.249	5.551	4.851	4.451	4.041	3.650	3.242	2.531	1.875	1.641	2.593	7.532	20.18	48.14	120.6	27.29	1.790	0.364	0.232	0.310	0.213	0.262	0.166	0.260	0.225	0.207	0.190	0.260
540.0	38.57	50.16	54.64	53.69	66.07	86.89	70.04	67.45	85.53	228.5	231.8	62.13	46.24	43.31	37.71	33.44	32.53	31.33	30.80	29.13	28.88	28.34	28.98	29.52	29.95	28.85	29.45	28.86	29.54	29.57	28.06	27.76	25.70	23.87	22.41	20.36	19.15	17.70	15.98	15.38	14.10	12.94	11.70	10.41	9.620	9.567	9.657	10.52	8.661	6.256	5.281	4.418	4.043	3.602	3.401	2.995	2.537	1.929	1.555	1.457	2.469	5.202	11.99	64.73	116.0	21.94	0.787	0.276	0.216	0.209	0.216	0.138	0.278	0.171	0.195	0.246	0.183
545.0	45.22	51.27	50.94	49.06	52.28	77.81	68.33	59.95	63.94	132.6	273.1	98.58	42.22	38.75	33.52	30.52	28.87	27.81	27.24	26.55	25.32	25.12	25.95	25.86	26.81	25.74	26.49	25.17	25.63	25.89	25.57	24.99	22.74	21.05	19.18	18.85	17.33	15.98	14.78	14.06	12.72	11.81	10.67	9.639	8.824	8.260	8.245	9.257	8.886	6.522	5.222	4.236	3.850	3.513	3.103	2.798	2.428	1.969	1.552	1.235	1.353	1.915	3.325	17.23	79.88	99.28	15.82	0.416	0.268	0.217	0.150	0.192	0.273	0.118	0.258	0.243	0.111
550.0	42.25	50.20	47.52	41.24	44.63	59.42	66.86	56.10	54.26	71.73	185.4	193.1	49.60	32.86	28.33	25.90	24.68	23.73	23.30	22.60	21.39	21.84	21.91	22.09	23.01	22.05	22.25	22.00	22.18	22.27	21.69	20.82	19.52	18.16	16.66	15.80	14.60	13.78	12.71	11.87	10.76	10.17	9.047	8.633	7.882	7.420	6.692	7.072	7.677	7.001	5.378	3.902	3.476	3.179	2.788	2.578	2.156	1.777	1.510	1.276	1.099	1.072	1.382	4.381	20.84	61.69	81.30	18.55	1.848	0.223	0.183	0.147	0.191	0.114	0.159	0.146	0.166
555.0	44.35	53.99	48.50	36.89	34.46	43.36	57.71	58.08	45.83	48.62	84.62	203.1	112.9	27.60	23.39	21.21	19.86	20.16	19.41	18.25	17.84	17.77	18.17	17.81	18.20	17.92	18.02	18.48	18.16	18.19	17.52	17.57	16.21	14.25	14.05	13.09	12.04	11.29	10.65	9.580	9.219	8.450	7.363	7.115	6.676	6.076	5.665	5.681	5.479	6.261	5.741	4.036	2.851	2.824	2.448	2.308	1.965	1.562	1.368	1.178	0.948	0.833	0.942	1.411	5.027	14.31	33.55	80.04	26.25	1.460	0.157	0.116	0.141	0.105	0.110	0.089	0.076
560.0	54.68	53.08	43.92	30.99	30.66	35.23	47.84	59.76	44.33	42.62	50.79	136.3	169.2	33.44	20.59	17.65	17.19	16.99	16.47	15.21	14.98	15.02	15.35	14.88	15.77	15.88	15.67	15.58	15.54	15.50	15.16	14.65	13.65	12.54	11.55	11.04	10.44	9.845	8.878	8.510	8.004	7.175	6.846	6.094	5.783	5.285	5.049	4.790	4.265	5.057	5.529	4.210	2.759	2.520	2.313	2.039	1.680	1.399	1.333	1.080	0.832	0.765	0.749	0.781	1.502	3.587	8.174	41.10	79.44	20.32	0.487	0.110	0.139	0.103	0.064	0.058	0.064
565.0	65.08	62.93	44.50	29.22	26.21	29.88	37.60	55.10	44.18	40.47	41.64	76.51	182.6	72.08	18.65	15.15	14.61	14.48	13.73	13.09	12.81	13.25	13.30	12.86	13.29	13.60	13.17	12.85	13.00	13.29	13.06	12.70	12.18	10.48	9.865	9.196	8.765	8.223	7.493	7.142	6.875	6.168	6.054	5.496	5.148	4.568	4.477	4.056	3.538	3.815	4.556	3.987	3.044	2.175	1.958	1.790	1.549	1.199	1.215	1.038	0.872	0.711	0.635	0.668	0.761	1.182	2.130	10.58	51.33	67.06	12.09	0.230	0.121	0.148	0.061	0.058	0.051
570.0	60.69	66.86	51.76	30.55	23.95	24.45	28.61	44.89	49.35	39.80	40.41	46.45	113.6	138.3	29.48	12.26	11.63	11.31	10.49	10.55	9.851	10.27	10.41	10.53	10.31	10.55	10.14	10.21	10.60	10.56	10.25	10.06	9.216	8.484	7.827	7.449	7.125	6.603	6.234	5.742	5.301	4.978	4.874	4.386	4.244	3.649	3.667	3.266	2.910	2.824	3.082	3.426	2.979	2.130	1.582	1.436	1.225	1.078	1.001	0.858	0.831	0.755	0.628	0.626	0.523	0.586	0.746	2.607	13.00	37.52	50.28	16.55	1.164	0.079	0.089	0.062	0.055
575.0	64.82	70.28	54.38	31.12	21.74	21.09	23.41	34.01	48.16	42.88	43.01	40.07	54.13	124.9	87.41	10.66	9.059	8.208	8.018	7.819	7.589	7.332	7.712	8.134	7.856	8.120	7.845	7.874	7.970	8.048	7.628	7.385	7.036	6.608	6.028	5.550	5.383	5.103	4.884	4.449	4.035	3.971	3.667	3.446	3.131	2.948	2.750	2.606	2.452	2.266	2.010	2.138	2.514	2.306	1.486	1.100	1.090	0.952	0.790	0.701	0.690	0.661	0.652	0.533	0.434	0.412	0.467	0.910	3.080	8.616	19.81	46.05	21.67	0.877	0.085	0.087	0.022
580.0	67.12	70.65	54.01	32.23	20.68	18.07	21.37	28.38	45.41	50.77	46.56	38.71	36.75	79.06	126.6	19.01	7.574	6.636	6.490	6.561	6.283	6.262	6.273	6.491	6.449	6.613	6.071	6.070	6.418	6.666	6.001	5.913	5.299	5.505	4.989	4.638	4.457	3.985	3.837	3.680	3.446	3.343	3.063	2.957	2.586	2.391	2.265	2.165	2.111	1.807	1.685	1.638	1.919	2.108	1.561	1.081	0.896	0.743	0.660	0.564	0.617	0.613	0.662	0.567	0.482	0.336	0.402	0.532	0.893	2.203	4.767	22.18	45.13	13.37	0.289	0.062	0.016
585.0	71.59	81.15	54.80	30.04	17.54	17.33	18.97	24.42	40.05	55.49	47.22	41.65	33.58	43.09	118.9	55.98	6.052	6.087	5.595	5.451	5.346	5.239	5.244	4.974	5.535	5.257	5.184	5.189	5.238	5.405	4.981	4.829	4.432	4.665	3.862	3.888	3.466	3.356	3.089	3.024	2.839	2.834	2.518	2.370	2.142	2.150	1.775	1.959	1.774	1.468	1.436	1.294	1.477	1.673	1.717	1.170	0.692	0.664	0.563	0.539	0.456	0.567	0.603	0.522	0.471	0.380	0.347	0.396	0.342	0.694	1.250	5.651	26.92	33.06	6.973	0.062	0.082
590.0	71.60	79.54	58.13	30.61	15.98	15.76	18.73	24.06	33.91	52.21	52.20	43.64	33.74	25.63	62.83	101.8	19.87	4.691	4.249	4.310	4.338	4.306	4.080	3.983	4.085	4.168	4.061	3.929	4.170	3.999	4.004	3.976	3.552	3.527	3.003	3.034	2.876	2.638	2.534	2.508	2.293	2.168	2.000	1.855	1.704	1.680	1.618	1.548	1.442	1.324	1.106	0.999	0.963	1.162	1.420	1.195	0.763	0.627	0.508	0.488	0.436	0.460	0.449	0.467	0.485	0.377	0.299	0.268	0.272	0.366	0.407	1.377	6.735	19.19	25.93	11.30	0.776
595.0	71.34	72.02	61.02	28.80	15.10	15.50	17.60	20.81	29.67	43.92	56.62	46.86	33.47	20.55	23.09	78.54	72.36	4.339	3.432	3.403	3.405	3.104	3.196	3.080	3.243	3.263	3.191	2.995	3.103	3.322	3.197	2.916	2.793	2.675	2.369	2.360	2.294	2.198	1.939	1.951	1.756	1.668	1.451	1.474	1.457	1.353	1.245	1.201	1.131	0.996	0.932	0.781	0.722	0.823	0.910	1.196	1.094	0.452	0.430	0.406	0.397	0.344	0.310	0.413	0.417	0.441	0.343	0.258	0.293	0.225	0.230	0.401	1.598	4.374	9.920	26.06	15.69
600.0	66.54	73.96	53.43	27.38	15.45	14.67	15.92	20.84	26.49	38.37	54.94	49.39	33.91	19.14	12.39	41.24	101.2	14.61	3.165	2.831	2.806	2.628	2.702	2.690	2.726	2.526	2.562	2.397	2.755	2.687	2.541	2.369	2.323	2.153	2.149	1.945	1.891	1.774	1.547	1.571	1.546	1.318	1.272	1.217	1.271	1.152	1.055	1.018	0.965	0.813	0.707	0.645	0.584	0.615	0.673	0.864	0.924	0.593	0.450	0.411	0.331	0.335	0.288	0.397	0.351	0.408	0.334	0.250	0.309	0.183	0.210	0.193	0.467	1.029	2.373	12.17	30.67
605.0	66.29	66.90	53.06	27.28	15.26	13.71	16.39	19.80	25.31	34.47	48.26	51.62	33.30	18.71	9.348	17.80	84.07	48.19	2.732	2.388	2.549	2.173	2.492	2.191	2.313	2.178	2.045	2.189	2.216	2.200	2.159	2.174	2.034	1.687	1.763	1.632	1.470	1.433	1.338	1.292	1.366	1.104	1.252	1.075	1.094	1.024	0.872	0.869	0.768	0.704	0.622	0.477	0.444	0.484	0.471	0.612	0.899	0.709	0.417	0.358	0.241	0.299	0.309	0.281	0.319	0.337	0.289	0.305	0.256	0.172	0.124	0.085	0.153	0.325	0.575	3.020	17.80
610.0	54.40	55.39	44.32	26.39	14.92	12.00	14.66	16.76	23.43	31.30	41.52	48.26	35.05	18.76	8.821	7.926	38.66	78.96	16.63	2.136	1.987	1.756	1.828	1.805	1.704	1.772	1.768	1.703	1.735	1.812	1.892	1.684	1.570	1.418	1.499	1.389	1.270	1.169	1.185	1.023	0.935	0.916	0.923	0.826	0.817	0.750	0.728	0.652	0.688	0.583	0.559	0.452	0.385	0.376	0.354	0.425	0.577	0.649	0.467	0.308	0.250	0.246	0.237	0.238	0.279	0.254	0.281	0.296	0.207	0.163	0.129	0.098	0.099	0.141	0.207	0.689	4.350
615.0	46.26	50.41	40.52	23.26	10.71	10.82	12.38	14.15	20.77	27.92	37.61	39.90	37.24	17.75	8.935	5.110	12.45	52.22	61.05	2.644	1.538	1.590	1.398	1.517	1.305	1.269	1.407	1.296	1.260	1.338	1.402	1.363	1.224	1.133	1.091	1.154	0.978	0.910	0.841	0.689	0.762	0.817	0.731	0.774	0.504	0.615	0.631	0.528	0.479	0.473	0.402	0.307	0.270	0.320	0.272	0.263	0.330	0.388	0.494	0.353	0.204	0.151	0.242	0.197	0.229	0.193	0.260	0.230	0.266	0.199	0.123	0.083	0.086	0.159	0.052	0.139	0.972
620.0	41.51	46.54	32.64	19.61	10.78	9.952	12.11	13.56	21.08	26.73	33.30	36.66	37.60	19.94	8.898	4.863	5.360	25.26	79.66	14.26	1.266	1.437	1.183	1.240	1.125	1.188	1.061	1.107	1.065	1.121	1.043	1.061	1.057	0.948	1.018	1.050	0.820	0.903	0.669	0.610	0.642	0.618	0.571	0.600	0.479	0.530	0.515	0.475	0.415	0.443	0.315	0.339	0.261	0.283	0.208	0.212	0.178	0.255	0.324	0.405	0.212	0.159	0.216	0.188	0.198	0.203	0.146	0.194	0.251	0.190	0.116	0.081	0.125	0.103	0.036	0.049	0.196
625.0	33.44	41.59	28.90	18.26	10.20	8.932	11.72	13.18	18.70	24.97	29.56	32.83	35.55	20.89	9.119	4.964	3.878	9.571	61.26	44.19	1.366	1.017	0.989	0.956	0.970	1.192	0.826	0.900	0.883	1.015	0.840	0.914	0.861	0.780	0.671	0.773	0.712	0.742	0.591	0.532	0.489	0.599	0.440	0.485	0.456	0.475	0.445	0.398	0.385	0.336	0.344	0.247	0.215	0.243	0.183	0.210	0.166	0.245	0.243	0.378	0.320	0.225	0.205	0.215	0.198	0.219	0.132	0.130	0.158	0.181	0.143	0.116	0.070	0.042	0.046	0.047	0.039
630.0	30.31	35.97	27.94	16.33	9.727	8.956	10.30	12.73	17.04	23.80	27.43	30.18	29.68	22.95	10.18	5.186	3.878	4.122	25.39	65.55	13.98	0.874	0.816	0.804	0.874	0.974	0.674	0.900	0.763	0.753	0.747	0.659	0.726	0.571	0.676	0.619	0.554	0.520	0.449	0.421	0.514	0.389	0.361	0.377	0.374	0.345	0.359	0.345	0.312	0.255	0.231	0.211	0.162	0.153	0.175	0.141	0.170	0.147	0.185	0.260	0.265	0.226	0.187	0.155	0.175	0.154	0.124	0.115	0.124	0.143	0.150	0.109	0.034	0.004	0.038	0.008	0.000
635.0	30.46	32.15	26.95	13.45	8.155	9.003	9.725	11.97	16.75	21.76	27.73	26.92	26.23	23.52	14.61	6.230	3.836	3.092	7.610	38.75	52.07	1.784	0.758	0.642	0.668	0.734	0.523	0.686	0.643	0.600	0.493	0.510	0.684	0.544	0.625	0.507	0.471	0.378	0.332	0.312	0.323	0.352	0.269	0.309	0.343	0.273	0.290	0.187	0.290	0.253	0.235	0.151	0.130	0.144	0.115	0.130	0.122	0.114	0.152	0.181	0.271	0.201	0.248	0.102	0.167	0.166	0.158	0.119	0.035	0.125	0.113	0.105	0.047	0.017	0.033	-0.015	0.036
640.0	37.25	37.99	27.69	11.75	8.316	7.121	10.64	13.18	17.01	21.59	25.77	26.58	25.62	23.08	17.52	7.690	4.447	3.206	3.534	16.80	63.43	12.25	0.692	0.636	0.718	0.556	0.512	0.606	0.471	0.509	0.516	0.516	0.448	0.408	0.595	0.489	0.378	0.383	0.310	0.250	0.243	0.331	0.263	0.250	0.238	0.258	0.257	0.249	0.237	0.182	0.166	0.084	0.098	0.149	0.097	0.110	0.098	0.102	0.094	0.080	0.153	0.185	0.150	0.101	0.143	0.121	0.165	0.092	0.125	0.133	0.112	0.056	0.120	0.068	0.024	-0.029	-0.017
645.0	37.28	44.37	32.77	16.03	8.141	7.232	10.36	13.78	17.72	22.24	27.40	27.31	24.48	21.33	19.31	9.314	5.046	3.321	2.689	6.379	46.16	37.65	0.824	0.647	0.602	0.712	0.451	0.592	0.360	0.469	0.408	0.449	0.313	0.332	0.440	0.357	0.355	0.301	0.225	0.288	0.212	0.282	0.215	0.199	0.186	0.244	0.243	0.267	0.220	0.147	0.158	0.119	0.121	0.089	0.095	0.094	0.068	0.090	0.101	0.081	0.090	0.159	0.212	0.165	0.124	0.128	0.102	0.091	0.202	0.108	0.053	0.060	0.108	0.184	0.029	-0.047	-0.003
650.0	37.45	42.72	32.18	13.43	9.147	7.868	10.24	13.48	18.33	23.48	27.41	27.29	24.86	20.09	18.76	11.29	5.324	3.622	2.402	2.877	22.56	58.38	5.451	0.492	0.508	0.475	0.385	0.423	0.384	0.324	0.389	0.445	0.358	0.261	0.272	0.279	0.265	0.159	0.207	0.221	0.208	0.222	0.207	0.177	0.144	0.158	0.243	0.249	0.173	0.137	0.153	0.105	0.113	0.060	0.045	0.063	0.004	0.074	0.125	0.082	0.115	0.125	0.099	0.196	0.121	0.111	0.081	0.111	0.151	0.091	0.067	0.040	0.067	0.140	0.058	-0.014	-0.010
