Sample:	'1
File name:	L2025090903Î÷ÎåÂ·ÇÅ.FD3
Run date:	'15:32:44, 09/09/2025
Operator:	Administrator
Comment:	'

Instrument
Model:	F-2700 FL Spectrophotometer
Serial number:	3064-004
ROM Version:	4J14000 07

Instrument parameters
Measurement type:	3-D scan
Data mode:	Fluorescence
EX  Start WL:	220.0 nm
EX  End WL:	600.0 nm
EX Sampling interval:	5.0 nm
EM  Start WL:	230.0 nm
EM  End WL:	650.0 nm
EM Sampling interval:	5.0 nm
Scan speed:	12000 nm/min
EX Slit:	5.0 nm
EM Slit:	5.0 nm
PMT Voltage:	700 V
Response:	Auto 
Corrected spectra:	Off
Contour interval:	50.000

Peak integration
Integration method:	Rectangular
Sensitivity:	1
Threshold:	1.000

Peaks
No.	ApexEX/EM(nm)	Height(Data)
1	225.0/595.0	23.20
2	230.0/345.0	505.1
3	230.0/600.0	23.82
4	230.0/610.0	22.13
5	235.0/615.0	23.86
6	240.0/520.0	265.5
7	240.0/605.0	20.80
8	245.0/530.0	238.9
9	245.0/595.0	25.59
10	250.0/540.0	226.5
11	255.0/280.0	612.4
12	255.0/550.0	188.7
13	260.0/285.0	766.8
14	260.0/570.0	165.5
15	265.0/290.0	703.0
16	265.0/430.0	968.4
17	265.0/580.0	157.4
18	270.0/295.0	 1077
19	270.0/415.0	 1004
20	270.0/590.0	139.7
21	275.0/305.0	 1315
22	275.0/405.0	985.9
23	275.0/605.0	133.4
24	280.0/310.0	 1274
25	280.0/340.0	893.8
26	280.0/400.0	 1009
27	280.0/615.0	105.2
28	285.0/315.0	 1302
29	285.0/630.0	89.22
30	290.0/240.0	4.159
31	290.0/320.0	 1246
32	290.0/390.0	996.8
33	290.0/645.0	67.40
34	295.0/330.0	941.7
35	295.0/405.0	963.6
36	300.0/335.0	857.5
37	305.0/340.0	853.3
38	310.0/345.0	759.5
39	315.0/355.0	707.4
40	320.0/360.0	792.9
41	325.0/365.0	798.1
42	330.0/375.0	763.1
43	335.0/380.0	805.3
44	340.0/385.0	793.0
45	350.0/400.0	737.9
46	355.0/405.0	702.0
47	440.0/515.0	66.13
48	445.0/525.0	54.70
49	450.0/530.0	45.97
50	505.0/275.0	2.907
51	510.0/280.0	3.364
52	520.0/285.0	3.669
53	530.0/290.0	3.728
54	540.0/295.0	4.829
55	545.0/300.0	6.161
56	550.0/305.0	6.607
57	560.0/310.0	6.041
58	570.0/315.0	6.872
59	575.0/290.0	62.17
60	575.0/320.0	6.140
61	595.0/330.0	5.207

Data points
	220.0	225.0	230.0	235.0	240.0	245.0	250.0	255.0	260.0	265.0	270.0	275.0	280.0	285.0	290.0	295.0	300.0	305.0	310.0	315.0	320.0	325.0	330.0	335.0	340.0	345.0	350.0	355.0	360.0	365.0	370.0	375.0	380.0	385.0	390.0	395.0	400.0	405.0	410.0	415.0	420.0	425.0	430.0	435.0	440.0	445.0	450.0	455.0	460.0	465.0	470.0	475.0	480.0	485.0	490.0	495.0	500.0	505.0	510.0	515.0	520.0	525.0	530.0	535.0	540.0	545.0	550.0	555.0	560.0	565.0	570.0	575.0	580.0	585.0	590.0	595.0	600.0
230.0	19.32	612.7	 3890	 2457	111.3	10.19	7.529	6.746	6.310	5.177	3.933	4.859	3.717	3.433	2.749	2.981	2.810	1.998	1.844	1.658	1.699	1.031	1.482	1.105	1.181	1.107	0.858	0.904	0.837	0.815	0.806	0.763	0.722	0.514	0.632	0.729	0.628	0.606	0.630	0.529	0.541	0.729	0.575	0.545	0.390	0.530	1.722	6.099	9.630	6.847	2.516	0.606	0.253	0.303	0.270	0.274	0.197	0.294	0.270	0.165	0.160	0.142	0.158	0.217	0.200	0.167	0.187	0.169	0.175	0.166	0.215	0.092	0.077	0.135	0.129	0.062	0.115
235.0	52.29	158.3	 1669	 5147	 2632	307.2	9.116	8.122	8.531	5.189	4.164	4.443	4.725	3.245	4.139	3.076	2.574	1.952	1.711	1.652	1.815	1.487	1.459	1.248	1.560	1.239	1.054	0.882	0.859	0.637	0.803	0.890	0.642	0.477	0.645	0.609	0.564	0.683	0.555	0.440	0.520	0.517	0.455	0.937	0.626	0.422	0.793	1.681	3.775	6.620	9.224	8.676	3.855	0.788	0.344	0.232	0.292	0.180	0.276	0.274	0.317	0.163	0.277	0.107	0.191	0.146	0.084	0.152	0.203	0.115	0.204	0.150	0.072	0.197	0.166	0.096	0.176
240.0	50.75	85.40	417.1	 2897	 6611	 2923	79.82	10.04	11.07	4.307	6.950	5.734	3.838	2.967	4.159	2.726	3.444	2.417	1.685	1.660	1.630	1.512	1.329	1.307	1.410	1.740	0.882	0.762	0.767	0.812	0.818	0.728	0.706	0.887	0.717	0.626	0.498	0.642	0.767	0.516	0.618	0.597	0.486	0.826	0.687	0.689	0.623	0.734	1.185	2.162	5.574	10.96	13.14	8.907	3.032	0.601	0.371	0.340	0.256	0.309	0.260	0.208	0.271	0.083	0.232	0.047	0.092	0.058	0.161	0.195	0.263	0.239	0.090	0.114	0.119	0.092	0.263
245.0	32.84	94.14	154.2	777.5	 5001	 7737	784.5	43.81	11.65	6.616	6.951	6.717	5.536	3.067	3.091	2.957	3.611	2.367	1.194	1.503	1.964	1.697	1.486	1.460	1.332	1.359	1.053	0.983	0.976	0.992	0.955	0.639	0.756	0.565	0.589	0.619	0.578	0.539	0.683	0.480	0.679	0.615	0.520	0.536	0.423	0.742	0.903	0.778	0.585	0.702	1.630	4.098	10.02	17.01	16.50	7.279	1.758	0.417	0.351	0.217	0.090	0.189	0.198	0.288	0.248	0.139	0.156	0.170	0.051	0.291	0.083	0.199	0.135	0.172	0.230	0.221	0.420
250.0	15.67	53.28	158.3	273.8	 1338	 4778	 7295	 2954	278.9	11.97	10.16	8.096	6.277	4.501	4.038	3.454	3.546	2.277	1.818	1.797	1.851	1.603	1.616	1.481	1.255	1.231	1.041	0.928	1.025	0.807	1.146	0.865	0.757	0.666	0.522	0.664	0.565	0.532	0.543	0.573	0.547	0.636	0.544	0.485	0.394	0.535	0.595	0.819	0.957	0.826	0.845	1.302	2.708	5.858	11.29	14.74	18.13	14.53	7.135	2.005	0.471	0.204	0.256	0.254	0.309	0.159	0.201	0.271	0.208	0.231	0.154	0.258	0.136	0.119	0.145	0.147	0.236
255.0	8.886	21.13	78.08	251.9	433.2	 1117	 3395	9999.9	 5011	254.3	14.44	11.62	7.895	5.443	4.089	3.484	4.601	2.678	2.262	2.633	2.514	1.812	1.648	1.274	1.757	1.104	1.388	1.130	0.821	0.959	0.867	0.599	0.817	0.624	0.716	0.773	0.672	0.473	0.460	0.530	0.535	0.716	0.514	0.361	0.380	0.409	0.417	0.478	0.605	0.993	1.030	1.264	1.118	1.574	2.704	3.782	7.691	18.02	29.58	26.17	10.32	1.674	0.318	0.250	0.296	0.166	0.284	0.150	0.243	0.201	0.050	0.255	0.115	0.167	0.207	0.093	0.317
260.0	11.86	19.26	34.00	166.6	362.1	342.1	844.4	 5847	9999.9	 3349	144.1	17.41	10.61	6.495	6.445	5.621	6.009	3.420	2.075	2.615	2.788	1.779	1.793	1.440	1.773	1.580	1.296	0.979	0.877	0.794	0.981	0.614	0.757	0.623	0.691	0.820	0.668	0.482	0.418	0.546	0.368	0.651	0.493	0.558	0.543	0.497	0.605	0.319	0.487	0.563	0.696	1.832	1.745	1.013	0.931	1.199	2.352	5.287	15.43	32.11	39.96	25.21	7.088	0.660	0.338	0.364	0.348	0.199	0.125	0.386	0.163	0.470	0.105	0.158	0.214	0.129	0.118
265.0	15.82	15.63	21.26	69.64	288.2	355.9	253.5	 1582	 8581	9999.9	 2675	57.90	13.59	7.832	7.523	5.190	6.402	3.028	2.440	2.828	2.356	1.876	1.486	1.515	1.625	1.439	1.310	1.144	1.297	0.987	1.028	1.033	1.031	0.771	0.623	0.963	0.458	0.798	0.532	0.567	0.624	0.703	0.618	0.611	0.433	0.527	0.485	0.426	0.421	0.357	0.533	0.845	1.559	1.729	1.216	0.820	0.852	1.417	4.165	10.76	26.35	44.31	42.58	21.41	3.603	0.528	0.232	0.356	0.196	0.193	0.201	0.320	0.117	0.184	0.121	0.180	0.202
270.0	26.41	23.15	23.46	34.87	109.5	308.3	399.4	447.0	 2260	 5406	9999.9	 7432	165.7	14.10	8.951	5.906	8.158	4.133	3.239	3.115	2.588	2.139	1.736	2.126	2.131	1.553	1.645	0.954	1.502	1.033	1.082	1.113	0.843	0.853	0.674	0.825	0.466	0.679	0.593	0.682	0.428	0.640	0.515	0.572	0.457	0.494	0.527	0.553	0.456	0.413	0.476	0.527	0.752	1.112	1.637	2.056	1.828	1.069	1.392	2.765	6.791	14.13	26.81	39.40	45.30	32.78	16.25	3.227	0.333	0.189	0.283	0.315	0.126	0.289	0.190	0.099	0.301
275.0	52.35	31.88	30.64	26.06	45.04	111.1	386.9	552.1	591.7	 1266	 5050	9999.9	9999.9	200.9	15.78	8.562	11.65	4.788	3.410	4.403	3.097	2.490	2.486	1.826	1.735	1.687	1.770	1.474	1.133	1.470	1.463	1.131	0.912	0.931	0.799	1.020	0.651	0.636	0.646	0.602	0.516	0.562	0.495	0.581	0.593	0.442	0.574	0.570	0.457	0.284	0.447	0.388	0.319	0.511	0.726	1.230	2.295	2.907	2.256	1.387	2.063	3.520	6.302	9.640	18.31	40.28	70.89	48.19	22.14	2.465	0.299	0.365	0.234	0.277	0.264	0.113	0.186
280.0	47.46	52.85	50.30	37.34	36.75	52.59	172.7	612.4	483.2	353.9	 1278	 5980	9999.9	 2528	114.4	12.28	15.44	5.316	4.173	4.097	2.869	2.766	2.317	2.209	1.626	2.146	2.373	1.365	1.384	1.293	1.042	1.161	0.696	1.074	1.036	1.001	0.684	0.557	0.675	0.744	0.576	0.661	0.484	0.716	0.970	0.585	0.656	0.615	0.520	0.506	0.572	0.491	0.373	0.406	0.392	0.521	0.962	2.250	3.364	2.950	1.505	1.174	1.984	2.494	4.807	11.15	31.72	65.15	85.32	41.73	10.44	0.986	0.225	0.245	0.185	0.259	0.231
285.0	59.73	66.03	71.29	55.56	43.04	43.05	73.97	340.4	766.8	316.8	392.8	 1569	 8984	9999.9	 1840	50.27	23.08	6.984	4.829	4.387	4.002	2.658	2.643	2.160	2.051	2.455	1.649	1.696	1.364	1.460	1.222	1.014	0.949	0.865	0.738	1.407	0.576	0.538	0.658	0.806	0.776	0.665	0.810	0.722	0.804	0.869	0.655	0.845	0.777	0.625	0.618	0.449	0.529	0.425	0.542	0.417	0.561	1.007	1.862	3.643	3.669	1.808	1.121	1.114	1.752	3.051	7.912	19.87	48.17	84.10	55.84	30.50	3.867	0.373	0.215	0.233	0.189
290.0	100.5	109.7	117.5	94.37	71.92	63.96	70.65	153.5	465.6	703.0	414.5	539.7	 2371	 6085	9999.9	 6342	121.4	12.17	7.721	5.415	4.380	3.877	2.936	2.730	2.331	2.272	2.004	1.745	1.740	1.415	1.302	1.380	1.190	1.017	0.989	1.069	0.840	1.025	0.921	1.049	0.760	0.782	0.788	0.798	0.863	0.981	0.795	1.099	1.031	0.832	0.740	0.540	0.547	0.470	0.578	0.446	0.593	0.660	0.866	1.648	2.839	3.520	3.728	2.462	1.780	1.713	2.593	5.303	12.10	24.61	38.60	62.17	60.10	54.49	20.49	4.598	0.524
295.0	131.8	147.3	170.2	140.2	106.8	100.1	98.28	141.2	237.0	489.4	 1077	515.5	806.7	 1577	 3434	9999.9	9999.9	128.5	12.05	7.498	5.474	4.625	3.607	3.645	2.667	2.620	2.214	1.654	1.415	1.345	1.526	1.459	1.421	1.014	0.950	1.223	1.236	1.449	0.991	1.005	1.017	1.017	0.835	1.182	0.889	1.063	0.957	1.113	1.127	1.007	0.847	0.642	0.668	0.689	0.807	0.664	0.653	0.733	0.774	0.919	1.502	1.843	2.748	4.323	4.829	3.035	1.851	2.409	3.866	6.730	9.607	14.98	20.17	51.15	92.72	56.47	29.59
300.0	153.8	169.5	193.5	169.9	142.0	135.1	129.0	156.8	213.4	345.2	921.9	 1145	546.2	630.8	977.4	 4177	9999.9	 6577	85.56	11.56	7.944	5.564	4.291	3.330	2.845	2.671	1.752	2.205	1.546	1.720	1.683	1.427	1.702	1.105	1.218	0.980	1.339	1.215	1.113	1.214	1.180	1.119	1.045	1.013	1.129	1.079	1.332	1.238	0.992	0.911	0.901	0.957	0.655	0.809	0.882	0.803	0.911	1.013	0.933	0.960	1.265	1.394	1.641	2.418	4.629	6.161	4.357	2.560	2.419	3.127	3.465	4.441	5.611	12.98	35.29	75.89	112.1
305.0	172.9	215.0	219.9	204.8	165.9	155.0	156.2	192.5	241.5	328.2	603.0	 1315	963.6	512.5	455.5	 1118	9999.9	9999.9	 1227	46.53	10.31	7.403	5.347	4.056	3.397	2.737	2.398	2.195	1.758	1.931	1.813	1.790	1.621	1.354	1.073	1.287	1.271	1.237	1.030	1.230	1.309	0.927	0.912	1.084	0.911	1.111	1.116	1.304	1.113	0.935	1.240	0.841	1.155	0.942	0.978	0.927	0.950	1.175	1.056	0.982	1.341	1.399	1.695	1.840	3.214	5.005	6.607	5.113	3.240	2.343	2.358	2.201	2.577	3.727	8.839	20.82	55.38
310.0	172.3	228.5	271.6	227.5	195.2	179.7	189.8	234.4	284.7	353.6	513.9	861.0	 1274	948.7	456.4	450.8	 2565	 5229	9999.9	 4906	73.51	11.02	7.438	4.952	4.219	3.059	2.841	2.725	2.199	1.996	2.008	1.661	1.747	1.406	1.046	1.134	1.345	1.352	1.130	1.373	1.214	1.270	1.232	1.251	1.128	1.283	1.223	1.376	1.490	1.182	1.199	1.119	1.137	1.079	0.996	1.136	1.059	1.310	1.242	1.162	1.422	1.590	1.922	2.148	2.652	3.094	4.071	5.604	6.041	4.923	3.534	2.318	2.216	1.910	3.050	5.515	13.48
315.0	175.7	233.1	314.4	273.0	204.2	198.2	220.6	276.5	341.0	400.4	537.8	693.2	911.4	 1302	836.2	375.8	757.5	 1269	 3022	9999.9	 7185	96.95	10.79	6.920	5.243	3.258	3.481	3.365	2.476	2.503	1.718	1.856	1.739	1.383	1.354	1.347	1.401	1.373	1.262	1.481	1.301	1.245	1.140	1.388	1.463	1.234	1.457	1.482	1.555	1.261	1.477	1.076	1.255	1.141	1.161	1.251	1.403	1.384	1.388	1.481	1.571	1.565	2.068	2.016	2.540	2.743	2.862	3.579	4.123	4.843	6.872	4.791	3.168	1.905	1.951	2.466	3.987
320.0	197.5	256.2	340.4	301.3	230.4	222.3	238.4	286.9	353.7	432.9	567.5	697.8	805.1	 1023	 1246	536.8	393.2	405.6	763.7	 3829	9999.9	 5412	65.15	9.343	6.845	4.846	3.903	3.990	3.169	2.371	1.951	1.948	1.647	1.217	1.303	1.421	1.296	1.701	1.538	1.756	1.383	1.364	1.356	1.578	1.758	1.331	1.453	1.552	1.630	1.521	1.437	1.161	1.139	1.503	1.070	1.364	1.232	1.673	1.556	1.642	1.599	1.882	2.116	2.366	2.672	2.634	3.012	3.647	3.717	3.932	5.134	6.140	6.015	3.305	1.809	1.776	2.117
325.0	194.6	301.4	388.9	353.6	280.1	241.8	253.3	304.9	371.8	466.9	613.2	737.2	790.2	862.9	 1148	936.9	386.8	244.9	271.5	956.5	 5361	9999.9	915.9	36.38	8.628	5.573	4.196	4.693	3.412	2.157	2.319	2.160	1.634	1.526	1.448	1.566	1.487	1.539	1.367	1.381	1.165	1.181	1.318	1.450	1.713	1.439	1.470	1.945	1.725	1.328	1.429	1.400	1.333	1.339	1.167	1.388	1.518	1.755	1.476	1.695	1.413	2.040	2.239	2.316	3.034	2.845	3.093	3.449	3.302	3.931	3.688	4.406	5.708	5.231	3.823	2.057	1.683
330.0	221.5	312.8	421.8	420.6	333.2	279.4	290.9	331.2	407.2	505.5	644.9	757.9	825.9	847.0	847.3	941.7	758.5	323.9	210.4	318.2	 1322	 4837	9999.9	 3797	58.64	8.965	5.983	4.705	3.478	2.858	2.748	2.210	1.489	1.625	1.724	1.441	1.446	1.563	1.432	1.531	1.137	1.366	1.352	1.530	1.526	1.729	1.978	1.827	1.927	1.673	1.499	1.449	1.513	1.384	1.438	1.451	1.550	1.714	1.559	2.013	1.805	2.165	2.307	2.663	2.946	3.053	3.029	3.481	3.651	4.015	3.672	3.534	3.758	4.185	4.792	5.207	3.954
335.0	218.4	353.3	451.1	468.3	387.5	319.4	302.8	368.8	435.3	538.9	670.5	777.0	860.5	858.2	785.1	710.7	857.5	676.7	280.8	213.5	412.2	 1165	 3061	9999.9	 5830	78.63	9.233	6.302	4.757	3.921	3.258	2.566	1.963	1.795	1.790	1.510	1.562	1.581	1.243	1.607	1.345	1.426	1.181	1.306	1.461	1.904	1.753	2.365	1.982	1.885	1.799	1.720	1.676	1.520	1.237	1.651	1.898	1.578	1.439	2.065	2.013	2.581	2.254	2.796	3.042	3.262	3.351	3.554	3.441	3.568	4.133	3.442	3.517	3.652	3.372	4.544	4.999
340.0	206.3	328.5	485.1	500.3	421.4	376.8	366.8	408.7	464.2	562.9	681.8	798.6	893.8	885.2	810.6	682.8	686.0	853.3	495.6	251.2	246.5	372.8	772.2	 3977	9999.9	 4444	53.75	8.524	5.944	4.170	3.554	3.161	2.661	1.687	1.587	1.565	1.350	1.769	1.716	1.559	1.385	1.330	1.569	1.560	1.429	1.813	1.859	2.194	2.354	1.861	1.702	1.731	1.599	1.459	1.795	1.668	1.997	1.790	1.659	2.266	2.234	2.610	2.426	2.845	2.956	3.229	3.559	3.425	3.637	3.549	3.653	3.500	3.807	3.469	3.141	3.268	3.775
345.0	224.3	339.8	505.1	502.7	471.4	419.7	404.6	435.7	504.2	558.0	712.6	807.5	890.9	893.6	829.6	703.0	620.6	712.1	759.5	372.8	249.9	230.7	280.7	998.7	 5564	9999.9	755.7	32.81	7.589	4.747	4.856	2.694	2.921	1.763	1.639	1.601	1.496	1.659	1.561	1.569	1.338	1.292	1.621	1.465	1.477	1.844	1.942	2.151	2.371	1.891	1.648	2.007	1.857	1.842	2.041	1.735	1.764	1.662	2.109	2.027	2.157	2.346	3.021	2.826	2.654	3.232	3.523	3.771	3.980	3.998	4.038	3.717	3.729	3.404	3.514	3.043	3.181
350.0	213.0	346.6	480.4	562.8	511.5	485.6	466.3	486.2	545.9	605.4	720.6	798.0	881.2	893.1	851.2	746.1	660.1	604.8	711.5	674.1	390.0	268.4	229.7	347.7	 1393	 4998	 8896	 3203	51.56	8.505	5.617	3.966	3.178	2.606	2.042	1.862	1.684	1.847	1.721	1.987	1.256	1.413	1.597	1.733	1.600	1.913	1.832	2.068	2.218	2.017	1.878	2.270	1.987	1.961	2.059	1.766	2.245	2.096	2.202	2.430	2.443	2.469	3.024	2.904	3.113	3.353	3.452	3.867	4.166	4.125	4.127	3.619	4.147	3.632	3.798	3.702	3.378
355.0	208.0	341.7	497.5	552.4	535.3	542.2	538.6	536.9	603.2	662.9	749.5	823.8	905.5	911.4	899.8	798.5	717.7	634.2	623.8	707.4	703.6	398.6	290.9	263.5	447.2	 1214	 2978	 9615	 4964	70.95	8.730	6.088	3.789	2.818	2.362	1.947	1.806	1.742	1.749	1.981	1.345	1.422	1.464	1.530	1.537	1.964	1.822	2.113	2.257	2.045	1.911	2.341	1.880	2.521	2.234	1.876	2.591	2.431	2.330	2.718	2.650	2.847	3.100	3.343	3.402	3.509	3.880	4.109	3.616	4.151	4.171	4.067	4.504	3.796	3.774	4.189	3.735
360.0	218.7	351.1	484.2	577.0	598.3	608.0	587.3	604.7	638.2	714.6	775.0	854.7	918.1	922.8	914.3	824.3	765.5	688.7	652.4	646.7	792.9	613.9	369.7	288.8	282.3	402.1	771.8	 4091	9999.9	 3819	47.78	7.800	5.320	3.581	2.459	2.078	1.896	1.818	1.833	1.949	1.619	1.514	1.581	1.539	1.670	1.758	1.913	1.976	2.068	2.175	2.041	2.322	2.371	2.920	2.345	2.433	2.536	2.552	2.400	2.697	3.027	2.844	3.484	3.210	3.383	3.656	3.560	3.815	3.708	3.776	4.132	4.195	4.285	4.058	4.095	4.106	3.659
365.0	235.3	348.2	499.3	598.8	603.6	646.4	630.7	643.3	680.8	755.0	817.6	870.1	922.7	954.6	924.7	853.5	804.6	751.7	707.2	650.3	720.4	798.1	511.9	353.1	290.3	258.3	295.1	 1041	 5740	9999.9	678.5	27.67	6.645	4.289	2.849	2.541	2.123	1.879	2.033	2.217	1.602	1.673	1.619	1.643	1.541	1.796	1.905	2.143	2.120	2.162	2.059	2.239	2.504	2.832	2.334	2.576	2.541	2.838	2.898	2.794	2.981	2.912	3.162	3.171	3.547	3.604	4.100	4.000	3.814	4.175	4.300	4.477	4.460	4.270	4.477	4.440	4.204
370.0	225.7	351.2	482.7	607.5	648.2	689.2	696.0	723.0	741.7	792.9	865.3	894.9	924.2	960.9	946.4	896.7	861.2	808.2	765.2	719.3	697.0	761.9	751.4	515.0	362.6	290.6	242.4	358.0	 1446	 5155	 8645	 2796	42.93	7.053	3.998	3.294	2.491	2.108	1.944	2.385	1.731	1.688	1.747	1.485	1.802	1.956	1.946	2.137	2.108	2.339	2.055	2.475	2.816	2.639	2.600	2.659	3.107	2.879	2.940	3.071	2.737	3.414	3.600	3.420	3.974	3.729	3.916	4.039	4.112	4.214	4.465	4.393	4.573	4.422	4.448	4.785	4.666
375.0	219.9	353.7	487.3	597.6	696.8	717.1	725.8	798.5	788.4	832.4	894.7	911.6	955.6	964.1	946.7	918.8	902.8	859.0	828.2	796.8	748.3	725.1	763.1	753.3	496.0	359.5	283.7	254.7	444.2	 1234	 3161	 9258	 4067	55.30	6.641	4.399	3.122	2.815	2.237	2.103	1.992	1.591	1.921	1.605	1.627	1.876	1.722	2.168	2.095	2.260	1.960	2.644	2.873	2.839	3.075	3.235	3.327	3.144	3.452	3.381	3.200	3.176	3.423	3.603	3.938	3.636	4.059	4.049	4.233	4.255	4.398	4.398	4.471	4.752	4.734	4.916	5.272
380.0	221.6	336.1	487.7	627.8	735.0	753.2	771.5	810.3	818.3	867.8	897.0	940.3	959.2	978.6	969.0	934.8	939.6	901.2	873.1	840.4	793.3	756.7	728.3	805.3	675.3	439.7	333.9	265.9	252.6	380.3	798.1	 4267	 9914	 2924	35.29	6.327	3.500	3.595	1.914	2.408	2.169	1.669	2.015	1.871	1.453	2.086	2.354	2.051	2.264	2.296	2.265	2.814	3.108	3.089	3.357	3.039	3.258	3.381	3.315	3.539	3.145	3.406	3.599	3.774	3.958	4.248	3.895	4.121	4.080	4.992	4.380	4.987	4.723	4.589	4.967	5.216	5.059
385.0	231.9	358.6	502.6	634.0	710.6	778.1	804.2	860.1	856.6	897.1	907.7	937.0	982.1	980.0	984.8	941.7	945.3	919.2	906.0	881.0	837.6	797.4	739.2	745.8	793.0	557.5	387.7	302.9	247.7	220.5	272.7	 1078	 5766	 8927	520.0	18.03	4.781	3.921	2.477	3.064	1.854	1.764	2.182	1.942	1.921	1.730	2.298	2.317	2.148	2.588	2.584	2.851	3.414	2.974	3.335	2.903	3.227	3.538	3.464	3.544	3.104	3.686	3.996	3.833	3.297	4.245	3.568	3.774	3.830	4.731	4.377	4.791	4.780	4.756	4.857	5.064	5.128
390.0	239.8	370.6	496.1	656.6	748.4	806.8	831.4	867.5	892.0	933.3	939.8	962.4	982.6	991.6	996.8	960.3	949.2	928.5	921.9	908.1	873.7	833.6	774.7	734.2	746.1	717.7	525.2	373.9	298.5	229.0	193.9	332.3	 1456	 4738	 6549	 2127	32.04	5.810	3.819	3.761	2.398	2.086	2.263	2.004	2.027	1.853	2.215	2.443	2.353	2.600	2.282	2.853	3.108	3.148	3.485	3.371	3.338	3.399	3.404	3.533	3.575	3.921	3.998	3.797	3.996	3.932	3.914	4.071	4.168	4.002	4.370	4.627	4.721	4.550	4.855	5.056	5.379
395.0	273.8	362.0	501.1	649.0	754.0	817.5	856.2	891.0	928.7	958.8	953.2	983.5	 1000	987.0	986.0	960.5	950.6	950.8	942.6	919.2	898.6	855.8	814.2	770.2	711.6	717.1	706.3	494.1	368.1	285.9	223.1	201.4	409.8	 1118	 2561	 7861	 3093	43.41	6.274	4.704	3.321	2.509	2.303	1.997	1.949	1.762	1.908	2.454	2.156	2.397	2.647	2.724	2.831	3.057	3.261	3.145	3.661	3.836	3.680	3.645	3.605	3.668	3.794	3.855	3.455	3.813	3.732	4.121	4.678	4.901	4.242	4.268	4.693	4.182	4.949	5.562	4.845
400.0	283.8	344.9	488.4	654.6	762.4	824.7	872.1	900.1	922.7	952.5	966.2	983.2	 1009	993.3	985.1	955.4	950.8	939.1	943.2	927.4	904.9	877.3	832.0	786.0	727.4	681.5	737.9	624.4	426.1	331.1	260.1	198.5	196.4	319.0	643.3	 3929	 7426	 2130	28.34	6.346	3.355	2.955	2.568	2.261	2.385	2.110	1.954	2.063	2.147	2.388	2.709	2.749	2.920	2.918	3.165	3.099	3.988	3.720	3.584	4.309	3.763	4.033	4.443	3.838	3.833	3.659	3.805	4.217	4.573	4.555	4.157	4.204	5.015	4.631	4.547	5.357	5.532
405.0	269.3	381.2	487.0	651.4	739.7	823.0	870.6	941.4	936.3	963.8	964.8	985.9	981.8	966.7	959.3	963.6	947.3	930.5	941.3	922.5	907.5	882.7	845.7	802.3	745.5	687.2	691.4	702.0	521.2	374.9	298.1	223.3	170.2	160.1	206.1	998.6	 4537	 6502	433.9	16.53	4.501	3.213	3.064	2.479	2.338	2.272	2.142	2.041	2.225	2.055	2.432	2.724	2.842	3.250	3.134	3.404	3.852	3.679	3.761	3.473	4.076	3.871	4.009	3.642	3.902	3.666	4.070	3.932	4.172	4.578	4.563	4.029	4.267	4.778	4.525	5.125	5.471
410.0	251.9	351.1	502.1	644.6	758.0	829.2	880.9	919.1	944.4	977.5	982.9	968.2	984.0	958.9	949.2	947.2	924.1	917.4	919.0	907.8	902.0	870.3	855.5	815.2	765.6	711.8	670.1	656.4	632.2	484.2	351.8	262.7	196.9	148.6	126.6	278.1	 1144	 3559	 4451	 1895	28.01	4.968	3.459	2.616	2.573	2.290	2.123	2.367	2.269	2.232	2.240	2.688	3.073	3.190	3.455	3.355	3.851	3.858	3.721	3.744	3.642	3.853	4.075	3.726	3.688	3.945	4.117	4.115	4.446	4.231	4.366	4.167	3.866	4.571	4.838	4.823	5.280
415.0	248.3	356.6	496.2	631.2	742.5	798.4	887.1	920.7	966.5	968.9	 1004	962.8	964.6	931.2	938.1	902.2	894.3	891.3	886.3	882.9	881.6	857.0	850.2	804.7	766.3	729.8	675.2	628.8	615.1	596.9	437.9	307.4	231.9	171.1	127.4	135.1	305.3	832.4	 1930	 6445	 2457	37.93	5.034	3.454	2.498	2.721	2.208	2.371	2.504	2.225	2.332	2.609	3.298	3.058	3.095	3.425	3.785	3.895	3.966	3.694	3.727	4.177	3.777	3.999	3.564	3.821	3.872	3.917	4.839	4.112	4.277	4.039	4.248	4.168	4.728	4.195	4.932
420.0	234.8	332.9	478.1	612.0	722.3	789.8	846.8	907.4	956.7	951.5	993.6	966.0	942.4	911.4	889.6	864.2	866.9	859.3	864.0	862.1	851.4	835.1	830.6	785.3	764.2	727.1	679.5	630.4	583.1	604.6	523.3	347.9	256.8	192.0	142.1	115.3	126.8	227.1	479.6	 3245	 5605	461.2	22.61	4.376	3.449	2.908	2.543	2.458	2.773	2.030	2.079	2.679	2.866	3.120	3.001	3.221	3.708	3.564	3.569	3.598	3.571	4.342	4.157	4.067	3.263	3.964	3.376	4.052	4.049	4.153	4.107	3.998	4.235	4.077	4.487	4.710	4.998
425.0	234.9	320.9	438.8	606.4	709.6	771.3	849.9	895.5	938.2	961.7	981.7	951.2	928.0	910.9	871.9	848.9	836.4	819.5	842.4	836.9	827.1	814.2	799.2	777.4	757.5	716.6	675.9	632.5	582.1	558.8	567.6	416.1	285.2	211.8	160.3	120.8	98.63	99.58	143.5	829.6	 3442	 4664	383.6	10.12	4.282	3.375	2.754	2.532	2.538	2.257	2.206	2.807	3.083	2.898	3.496	3.115	3.614	3.436	3.788	3.905	3.859	3.920	3.970	3.810	3.398	3.930	3.850	4.262	4.081	3.833	4.237	3.832	3.928	4.121	4.244	4.836	4.241
430.0	519.5	304.2	419.2	584.4	676.1	753.5	813.7	874.3	922.0	968.4	965.5	938.8	913.3	875.3	854.8	809.4	800.3	793.6	805.7	791.8	789.2	781.2	767.1	756.7	728.2	713.7	669.5	627.6	585.0	536.6	529.7	480.3	349.8	238.9	181.5	141.2	107.9	86.38	78.44	219.6	867.4	 2642	 3527	 1418	25.24	4.180	3.361	2.959	2.489	2.454	2.408	2.777	3.017	3.028	3.253	3.144	3.513	3.520	3.522	3.632	3.821	3.933	3.828	4.188	3.749	3.936	3.910	4.041	4.187	4.121	3.840	3.827	4.124	4.043	4.449	4.278	4.157
435.0	 1192	365.5	426.6	563.6	669.5	716.1	798.3	842.9	926.8	948.7	951.1	912.6	889.8	842.3	822.7	784.5	765.3	747.4	758.2	748.0	755.3	740.8	736.8	724.0	706.0	692.5	654.1	623.4	574.9	527.7	492.2	458.4	421.8	295.8	209.4	164.9	125.3	99.24	76.71	93.21	225.2	616.3	 1449	 4346	 2115	33.10	4.240	3.505	2.941	2.867	2.388	2.730	2.801	3.221	3.129	3.221	3.460	3.393	3.467	3.733	3.724	4.382	4.091	3.743	3.810	4.059	4.289	3.792	4.025	4.136	3.629	3.901	3.750	3.975	4.081	4.244	4.127
440.0	 1482	765.6	421.7	560.6	637.8	708.8	766.3	857.0	896.2	920.0	954.5	909.9	865.4	828.2	785.7	741.3	724.1	716.5	724.1	714.0	717.2	719.9	707.5	699.5	687.4	669.9	644.6	617.6	576.9	529.4	491.2	430.9	423.8	356.0	234.3	178.6	141.5	111.3	84.87	73.12	88.75	166.5	358.1	 2140	 4715	420.7	18.79	4.563	3.170	2.983	2.740	2.744	2.672	3.194	3.219	3.251	3.490	3.227	3.726	3.526	3.676	4.195	3.911	3.956	3.786	3.789	3.445	3.926	3.808	3.879	3.606	3.776	3.450	3.907	3.605	3.977	4.662
445.0	 1195	 1457	438.8	535.6	626.1	696.4	758.1	840.1	904.0	909.5	925.0	886.1	828.0	796.8	751.6	723.2	701.7	687.5	679.5	684.6	687.5	682.8	683.0	676.7	665.0	649.9	628.9	603.2	560.0	523.1	489.5	419.7	389.6	377.3	275.5	193.6	153.7	119.4	93.04	74.68	64.73	71.00	104.9	540.8	 2881	 3398	325.3	11.06	4.058	3.368	2.769	3.039	2.764	2.920	2.814	3.115	3.345	2.991	4.098	3.450	3.589	4.138	4.215	3.633	3.366	3.441	3.392	3.870	3.585	3.932	3.119	3.705	3.332	4.157	3.138	3.901	4.467
450.0	531.7	 2063	945.3	493.7	568.6	661.2	716.6	803.8	854.8	875.9	893.6	855.0	795.9	758.2	719.8	673.1	654.3	644.8	637.6	645.3	639.9	636.1	641.3	628.4	622.0	609.4	593.3	573.3	547.0	513.1	478.8	414.5	366.8	340.1	314.5	235.7	167.7	133.4	105.6	84.85	68.83	57.59	54.53	144.7	726.1	 2213	 3163	 1260	21.69	4.156	3.324	3.227	2.960	2.966	2.933	3.006	3.203	3.216	3.595	3.436	3.549	3.633	3.845	3.719	3.608	3.385	3.260	3.689	3.452	3.265	3.398	3.403	3.153	3.489	3.429	3.602	3.894
455.0	266.6	 1332	 2115	697.7	538.0	623.0	680.5	734.5	801.2	820.0	836.1	801.5	762.4	720.8	677.9	635.2	610.3	598.7	584.7	593.9	582.1	592.1	586.4	583.7	572.6	569.2	560.2	542.1	516.9	495.9	463.6	400.5	357.7	307.4	295.9	272.5	197.5	146.3	115.0	96.21	75.91	61.37	50.44	61.62	185.3	514.4	 1292	 3846	 1837	26.09	4.044	3.531	3.229	2.859	2.993	2.971	3.174	3.270	3.540	3.195	2.997	3.214	3.654	3.027	3.405	3.443	3.221	3.397	3.420	3.510	3.314	3.558	3.058	3.227	3.323	3.652	3.333
460.0	183.8	619.2	 2529	 1348	495.7	572.6	646.6	712.5	752.0	771.4	790.0	756.7	712.6	679.3	636.8	590.1	573.5	557.8	549.2	552.6	546.7	547.4	548.0	540.8	538.5	536.6	533.3	514.0	494.0	471.4	449.8	387.9	348.4	298.3	271.5	267.4	227.1	161.6	120.1	101.3	81.03	69.11	54.52	47.27	68.00	134.8	317.1	 1853	 4143	327.1	15.98	3.998	3.621	3.102	3.094	3.281	2.840	3.042	3.161	2.905	3.027	3.249	3.406	3.322	3.523	3.471	3.177	3.648	3.464	3.183	2.761	3.179	3.294	3.176	2.940	3.366	3.196
465.0	165.9	311.7	 1926	 2845	507.4	536.9	622.1	672.7	700.7	739.1	753.6	720.2	695.0	640.2	596.0	557.6	538.6	518.8	515.9	506.4	508.0	506.0	507.7	500.7	508.2	503.6	494.5	481.9	473.5	452.9	431.8	375.2	334.5	290.4	255.9	242.3	236.7	184.9	130.2	106.8	89.23	74.13	58.60	46.96	44.78	53.48	91.72	466.1	 2535	 3437	272.8	7.649	3.680	3.274	3.209	2.820	2.771	2.966	3.080	2.884	3.143	3.061	3.249	2.973	3.592	3.122	3.301	3.298	3.151	2.909	2.855	2.933	2.886	2.985	2.587	3.034	3.317
470.0	159.6	224.4	870.8	 3658	 1439	496.3	541.8	612.9	660.5	689.9	706.7	687.0	638.5	594.4	549.5	514.5	490.3	475.8	464.5	465.3	464.3	464.0	456.9	455.9	459.9	457.0	451.8	439.1	431.0	418.4	401.4	355.2	321.2	279.9	244.5	216.0	211.2	199.6	150.7	113.1	93.64	76.67	63.28	51.78	43.38	39.02	42.69	121.8	632.0	 1940	 2557	 1064	20.91	4.120	3.843	2.985	2.876	2.859	2.979	2.787	2.787	2.701	3.152	2.883	3.003	2.799	2.784	3.057	3.138	2.821	2.785	2.404	2.396	2.830	2.380	2.604	2.865
475.0	139.9	192.3	385.9	 2219	 3925	586.8	506.8	561.6	600.1	620.0	646.7	628.1	599.9	543.1	500.4	472.0	448.2	430.8	412.2	413.4	415.0	407.2	409.5	406.1	405.1	409.7	404.2	393.8	390.2	381.7	370.1	331.6	302.0	264.4	229.7	204.5	184.3	175.6	170.3	128.0	95.59	79.76	66.63	54.27	47.13	39.55	33.60	47.77	157.1	446.9	 1028	 2736	 1287	26.71	4.030	3.329	2.480	3.044	2.593	2.574	2.619	3.063	2.859	2.813	3.038	2.708	2.826	2.710	2.733	2.404	2.304	2.340	2.233	2.536	2.557	2.587	2.830
480.0	122.8	174.5	268.0	970.4	 5086	 1039	468.6	532.8	553.7	596.2	604.9	597.5	560.4	504.5	466.7	435.1	413.2	393.8	383.1	386.2	374.9	380.3	377.1	371.7	371.2	375.0	370.7	371.2	366.6	352.0	347.6	310.7	282.0	253.6	220.3	198.6	171.8	157.1	163.2	146.3	101.4	80.63	69.28	58.52	50.01	40.99	33.84	32.53	53.31	114.0	247.9	 1233	 2824	366.8	17.13	3.325	2.856	3.175	2.822	2.382	2.443	2.831	2.808	2.656	2.702	2.570	2.692	2.360	2.703	2.580	2.376	2.344	2.427	2.438	2.152	2.477	2.105
485.0	116.5	175.6	222.5	465.3	 4053	 2310	473.6	485.2	517.9	550.5	575.9	572.7	517.9	480.2	445.2	411.0	387.4	370.4	359.1	354.0	344.5	348.3	348.5	341.0	342.0	343.4	343.9	343.1	341.0	331.9	322.3	295.5	266.7	242.0	214.7	190.7	171.1	149.7	145.2	146.9	112.9	85.91	71.69	59.81	52.20	42.78	36.70	30.78	31.33	40.46	67.97	305.9	 1651	 2722	322.9	6.428	3.196	3.103	2.700	2.562	2.553	2.450	2.485	2.393	2.532	2.570	2.249	2.495	2.177	2.343	2.167	2.312	2.370	2.499	2.114	2.316	2.211
490.0	109.0	165.3	236.0	314.8	 1593	 2861	 1401	449.7	489.9	504.8	518.9	514.0	475.6	440.3	408.4	370.7	352.0	333.3	324.0	319.8	309.4	310.8	311.4	311.8	313.1	310.6	308.8	311.3	307.7	300.1	294.7	274.2	248.0	224.1	199.1	176.8	158.2	141.8	129.2	128.4	122.7	96.63	72.99	60.69	52.91	44.88	38.32	33.06	27.80	25.32	28.42	78.80	406.8	 1382	 3095	902.4	21.21	3.496	2.973	2.713	2.434	2.341	2.420	2.167	2.302	2.206	2.481	2.143	2.067	2.064	2.201	2.092	2.033	2.157	1.784	2.131	1.955
495.0	97.27	135.9	240.8	256.4	563.7	 1643	 3532	547.4	437.8	457.7	465.7	472.6	440.5	400.6	368.3	333.0	316.0	295.5	289.1	284.3	281.0	272.2	275.0	273.9	268.2	276.5	275.9	278.9	277.3	267.5	263.8	247.7	221.6	205.4	184.9	164.9	149.4	133.0	118.2	110.8	109.6	104.4	81.22	62.56	53.57	46.13	38.65	33.87	29.23	23.04	20.88	29.25	100.2	317.1	 1234	 2317	 1298	27.47	3.424	2.375	2.758	2.591	2.161	2.287	2.191	2.038	1.970	1.972	1.943	2.278	1.909	2.001	1.937	2.109	1.536	2.158	1.702
500.0	83.95	110.3	219.3	241.1	328.4	720.0	 4191	 1571	401.3	425.8	446.6	432.1	409.4	366.7	334.2	308.3	293.3	270.4	264.6	256.2	251.2	251.4	249.0	247.9	246.1	249.1	249.0	251.9	247.7	246.7	246.0	227.4	204.8	190.3	171.5	154.7	138.9	126.7	114.8	104.3	96.32	101.6	90.78	65.89	53.94	46.89	40.03	35.87	29.07	24.34	19.63	18.33	32.12	79.01	289.5	 1022	 2654	380.6	15.08	3.028	2.613	2.327	2.267	1.897	2.159	1.965	1.749	1.923	1.933	1.790	2.139	1.872	1.647	1.807	1.519	1.743	2.151
505.0	77.28	108.8	188.2	245.5	272.9	373.2	 2941	 4674	409.2	402.4	404.2	393.1	370.1	348.5	310.0	288.2	264.2	251.3	239.1	230.4	233.1	230.5	229.0	228.5	223.5	226.7	226.5	227.9	230.7	224.3	226.1	205.6	192.9	175.2	161.6	141.8	134.0	120.0	108.0	96.36	88.36	88.50	89.24	71.16	54.79	47.11	40.74	35.00	29.28	25.08	19.43	16.58	17.41	25.95	72.13	248.6	 1478	 2388	303.1	6.090	2.959	2.628	2.135	2.259	2.191	1.868	1.468	1.754	1.953	1.861	1.892	1.563	1.660	1.497	1.336	1.734	2.051
510.0	70.57	92.45	149.3	251.8	253.9	263.2	 1131	 6601	 1213	357.4	357.5	355.5	332.2	308.2	276.5	249.9	233.6	222.5	216.1	210.2	206.0	203.1	198.8	198.7	197.5	196.8	201.5	198.7	201.8	196.7	200.7	184.5	174.9	157.2	144.8	131.9	120.3	108.5	98.74	88.80	79.45	74.89	75.36	74.16	60.27	45.97	39.63	34.10	29.55	24.56	20.08	16.33	14.48	14.87	23.70	61.87	360.2	 1222	 1796	751.1	20.06	2.757	2.188	2.178	1.871	1.716	1.595	1.790	1.662	1.522	1.668	1.493	1.570	1.497	1.492	1.643	1.501
515.0	66.78	79.46	130.3	195.2	245.7	216.1	437.0	 3263	 3408	455.3	311.5	316.8	300.7	274.1	241.4	224.6	202.6	191.7	185.9	179.2	178.5	176.8	172.0	175.7	173.6	173.0	173.0	173.9	177.2	172.6	175.0	163.2	153.1	138.8	128.7	116.6	108.2	99.69	89.82	81.01	72.78	65.74	63.80	64.47	66.13	48.82	39.36	33.02	28.73	24.02	20.57	16.97	13.94	12.44	12.58	20.01	86.08	278.0	650.4	 1906	401.1	24.55	2.334	2.047	1.807	1.670	1.694	1.672	1.773	1.355	1.527	1.198	1.330	1.379	1.422	1.549	1.239
520.0	65.75	66.11	122.1	149.5	265.5	194.3	261.5	 1144	 4582	 1158	290.2	285.1	270.0	244.7	224.6	200.2	186.5	178.9	169.6	160.2	160.7	159.4	156.1	154.4	156.8	155.4	158.0	154.1	158.6	157.0	155.9	147.4	136.8	124.2	116.2	105.5	98.82	91.06	81.73	75.20	68.56	61.01	56.12	54.79	60.56	54.30	41.04	32.53	27.28	23.56	19.84	16.88	13.85	12.36	10.61	11.29	25.14	66.88	153.2	846.7	 1898	356.7	10.46	2.191	1.790	1.586	1.371	1.876	1.495	1.403	1.306	1.268	1.183	1.150	0.978	1.198	1.571
525.0	57.29	61.31	109.6	125.7	234.9	208.6	205.9	435.5	 3731	 2500	318.4	272.1	248.1	232.8	205.3	187.9	168.0	158.8	154.4	147.5	147.8	143.1	139.3	138.4	138.6	139.6	140.0	137.8	142.8	144.7	142.2	132.7	125.1	113.8	105.1	95.23	90.87	83.18	77.22	69.32	64.69	56.24	52.98	48.69	51.75	54.70	43.88	32.01	26.74	22.29	18.79	16.53	14.27	12.11	10.42	8.979	11.82	20.54	39.27	205.2	 1093	 1742	263.6	4.067	2.179	1.639	1.200	1.675	1.298	1.334	1.453	1.081	1.145	0.822	1.003	1.248	1.234
530.0	44.00	59.08	87.82	108.7	176.1	238.9	181.9	253.8	 1336	 3070	 1228	236.9	217.6	207.5	185.6	167.4	151.5	137.0	137.7	132.3	128.0	122.8	122.8	122.8	120.7	123.9	120.6	123.7	122.8	125.2	124.1	114.1	110.6	102.2	94.07	86.51	80.10	74.21	68.20	63.42	58.06	50.54	47.73	43.84	41.96	45.05	45.97	35.23	25.94	21.97	18.46	16.45	13.57	12.40	10.71	8.741	8.637	10.14	13.47	49.94	266.1	891.1	 1323	542.1	17.33	2.015	1.550	1.446	1.200	1.165	1.213	1.048	1.097	0.812	0.911	0.963	1.047
535.0	37.33	48.89	70.87	103.7	134.9	207.2	191.0	182.6	438.0	 1592	 3886	396.6	187.4	175.6	161.4	143.3	129.8	124.3	116.4	115.5	110.0	107.3	105.9	104.2	103.8	104.1	103.7	105.3	106.4	108.4	106.1	97.56	97.48	87.16	81.64	74.56	69.58	65.71	58.54	56.31	51.23	44.95	43.01	38.83	35.69	35.69	39.78	37.85	27.75	20.70	17.52	15.92	13.01	11.51	10.28	8.965	8.343	7.453	7.758	15.09	62.94	202.4	486.9	 1392	385.4	18.99	1.681	1.499	0.892	1.243	1.115	0.762	1.150	0.871	0.871	1.043	0.917
540.0	36.34	47.29	57.18	73.74	114.0	170.0	226.5	153.4	228.0	599.5	 5039	 1612	167.0	159.6	140.4	126.5	119.3	106.1	104.2	99.38	96.34	96.80	92.99	92.49	92.72	92.94	93.74	94.73	94.40	94.33	94.07	89.48	84.73	77.54	72.83	67.26	61.97	58.37	53.24	49.68	45.49	40.53	39.25	35.02	33.32	31.05	32.19	35.55	29.62	20.35	16.62	14.69	12.30	10.92	9.734	8.872	7.887	6.856	6.490	7.219	17.71	47.98	114.5	633.5	 1380	315.2	6.323	1.443	1.065	1.278	0.965	0.888	0.852	0.777	0.711	0.743	0.861
545.0	32.91	38.69	51.59	63.38	98.16	126.5	221.1	155.3	157.6	262.7	 3393	 3437	189.8	140.8	125.1	114.2	102.8	96.19	94.15	89.18	87.03	85.58	82.53	81.32	80.64	80.99	83.37	82.32	84.19	83.01	84.41	78.75	76.30	70.20	63.10	60.03	57.09	50.86	47.23	46.23	40.86	37.94	35.47	31.47	30.61	27.73	26.36	29.24	29.51	22.60	16.52	13.75	11.50	10.11	9.147	9.128	7.401	6.344	5.368	5.352	7.450	13.96	28.81	154.0	814.5	 1224	51.58	2.386	1.301	1.143	0.990	0.766	0.816	0.519	0.852	0.691	0.863
550.0	31.66	41.80	49.89	66.80	80.13	94.81	173.2	188.7	132.7	163.4	 1078	 3505	 1021	126.8	111.4	95.74	89.08	81.84	77.32	75.74	73.88	71.79	70.69	68.79	69.24	70.54	69.90	69.82	71.30	68.94	72.80	66.74	62.97	58.55	55.21	51.63	48.18	43.93	42.57	38.60	35.56	32.82	29.54	27.46	26.10	23.57	22.87	22.34	23.83	23.62	17.27	12.56	10.17	8.684	8.248	7.824	7.128	6.214	5.363	4.706	4.734	5.772	8.952	36.64	199.7	644.6	894.2	222.9	13.72	1.190	1.026	0.832	0.864	0.571	0.758	0.637	0.911
555.0	31.66	31.60	43.12	51.99	66.12	78.93	116.5	184.6	127.7	114.8	334.7	 1444	 2988	214.2	90.36	84.35	74.98	68.54	65.87	61.82	60.62	58.03	56.48	57.90	57.44	58.68	57.29	57.86	57.75	56.73	56.88	52.87	52.20	47.37	46.03	42.12	38.14	37.59	35.47	31.44	29.29	26.94	25.16	23.64	21.34	20.58	19.15	17.99	17.68	19.45	17.65	12.95	9.403	7.982	7.459	6.410	6.120	5.775	5.049	4.507	4.158	3.794	4.293	10.44	46.62	146.3	353.2	933.0	330.4	11.01	1.214	0.893	0.681	0.777	0.540	0.429	0.596
560.0	22.65	28.16	43.88	45.92	53.54	59.65	82.69	164.0	140.3	102.5	158.6	470.5	 3167	892.5	80.18	68.23	64.64	60.30	56.17	54.13	52.16	51.93	48.24	47.50	50.03	46.80	48.86	47.17	49.33	47.72	49.21	45.79	43.74	40.55	38.98	34.99	33.70	32.89	29.79	27.62	25.90	23.28	21.40	19.76	19.23	17.63	15.90	15.32	13.73	15.55	16.52	12.73	8.842	7.415	6.556	6.238	5.649	5.213	4.634	4.821	3.517	3.300	3.184	4.425	12.06	34.57	83.25	452.0	882.2	56.33	3.215	1.042	0.488	0.646	0.413	0.502	0.536
565.0	15.20	19.78	32.39	45.32	50.37	50.14	69.39	128.4	160.6	92.05	106.7	174.1	 1865	 2300	88.42	58.51	55.92	53.56	45.76	47.49	42.94	44.87	42.19	41.03	40.20	40.74	41.60	41.06	42.13	41.86	42.06	39.06	36.44	35.14	32.57	29.62	29.61	26.87	25.31	23.73	22.50	20.68	18.59	17.18	16.45	14.69	13.85	12.56	11.94	11.52	14.23	13.14	8.857	6.945	6.063	5.382	5.006	4.666	4.064	4.319	3.507	2.861	2.860	2.508	4.513	9.075	20.42	111.5	551.0	698.0	45.18	1.292	0.908	0.545	0.327	0.373	0.421
570.0	17.48	26.71	28.85	36.14	42.08	41.77	52.99	77.83	165.5	105.1	80.86	95.53	582.3	 2708	764.9	50.80	45.62	43.64	37.83	37.76	35.36	35.55	33.47	33.06	31.98	32.80	32.10	33.38	33.59	32.24	34.35	30.19	29.36	27.79	25.96	23.94	23.80	20.96	20.16	19.03	17.61	16.60	14.98	14.15	13.59	12.29	11.52	10.97	9.824	8.815	9.647	10.68	9.767	6.848	5.252	4.250	4.231	3.704	3.330	3.553	3.246	2.748	2.310	2.124	2.378	3.325	6.190	26.18	137.5	404.3	464.5	177.8	7.699	0.553	0.580	0.525	0.448
575.0	24.17	21.70	25.56	27.85	33.00	31.31	43.12	55.65	106.7	146.2	77.14	78.35	179.0	 1114	 2298	112.2	36.74	34.22	29.20	30.11	28.77	27.25	26.48	26.30	24.84	25.24	26.77	24.92	26.13	25.10	25.41	25.57	24.37	21.92	20.10	19.28	18.89	16.46	16.01	15.37	14.35	13.12	12.37	11.23	11.49	10.01	9.264	8.804	7.334	7.195	6.938	7.201	8.248	6.842	4.917	4.186	3.393	3.020	2.714	2.832	2.647	2.954	2.312	1.892	2.088	2.155	2.607	6.801	31.48	91.49	207.2	552.3	196.2	4.634	0.566	0.547	0.552
580.0	16.72	24.99	24.06	25.57	31.29	28.22	38.29	45.59	72.91	157.4	79.33	62.82	86.20	342.0	 2629	619.8	32.05	28.17	26.04	25.11	23.28	22.40	22.01	21.17	22.22	21.76	21.33	20.76	22.46	21.24	22.13	20.67	19.69	17.68	16.96	16.44	14.71	14.27	13.08	12.90	12.20	11.71	9.913	9.149	9.406	8.332	8.199	7.513	6.783	6.039	5.579	5.261	6.406	6.485	5.237	3.937	3.130	3.083	2.941	2.700	2.377	2.556	2.555	1.852	1.860	1.645	1.708	2.570	8.138	21.26	49.48	281.3	475.2	49.68	1.339	0.414	0.554
585.0	15.59	22.26	22.88	26.96	30.47	26.15	26.76	41.50	54.46	137.3	96.05	59.93	61.41	118.4	 1528	 1702	35.92	24.31	23.21	22.10	20.08	20.86	18.74	17.95	17.32	17.93	18.11	17.87	18.25	17.49	18.71	17.58	16.46	15.69	14.29	13.41	13.17	12.21	11.81	10.46	10.35	9.711	8.332	8.095	7.872	7.068	6.946	6.499	5.769	5.264	4.875	4.467	4.768	5.856	5.257	4.071	2.896	2.467	2.488	2.103	2.232	2.090	2.304	2.039	1.559	1.515	1.543	1.424	2.526	5.792	11.79	69.86	329.6	387.2	35.27	0.775	0.547
590.0	16.33	16.53	21.59	23.39	27.91	24.51	27.31	35.84	41.41	83.46	139.7	64.68	54.60	62.40	453.4	 2046	502.4	21.41	18.79	17.58	16.30	15.37	14.86	15.55	14.67	14.81	14.21	14.14	14.79	14.50	14.58	14.82	13.36	12.36	11.49	11.26	10.53	9.773	9.265	8.641	8.601	7.383	7.019	6.628	5.937	5.886	5.604	5.337	4.831	4.571	3.876	3.528	3.443	4.312	4.614	4.122	2.941	2.266	1.999	1.794	1.850	1.611	1.689	1.853	1.524	1.351	1.299	1.019	1.295	2.073	3.402	16.15	83.84	243.9	298.9	101.7	3.958
595.0	10.81	23.20	20.88	21.75	21.68	25.59	23.42	30.24	35.66	56.28	130.5	88.17	54.27	52.23	127.2	817.6	 1658	53.34	16.00	14.36	12.63	12.51	11.48	11.20	11.89	11.82	11.62	11.79	11.73	11.78	12.10	11.12	10.33	9.879	9.586	8.680	8.413	7.850	7.576	6.923	6.711	6.248	5.927	5.214	4.618	4.483	4.214	4.257	4.238	3.827	3.442	2.740	2.849	2.664	3.588	3.893	3.065	2.026	1.778	1.886	1.716	1.459	1.291	1.307	1.633	1.175	1.014	0.834	1.126	0.897	1.403	4.189	19.11	55.41	138.8	327.2	54.86
600.0	11.70	21.38	23.82	22.05	18.20	22.61	21.98	30.23	29.49	41.27	90.14	116.7	45.69	45.13	54.62	240.2	 1861	184.4	14.86	12.83	10.98	11.42	9.750	10.37	10.00	9.088	9.453	10.33	9.362	8.935	9.946	9.521	8.337	8.411	8.174	7.333	7.027	6.265	6.524	6.220	5.424	5.235	5.269	4.244	3.875	4.058	3.609	3.661	3.525	3.226	2.740	2.493	2.314	2.194	2.707	3.490	2.909	2.247	1.749	1.606	1.575	1.274	1.211	1.021	1.646	1.465	1.022	0.846	0.863	0.727	0.816	1.395	4.815	12.75	33.24	182.2	279.0
605.0	13.65	16.82	20.40	19.50	20.80	19.48	21.74	24.86	22.15	34.93	63.51	133.4	58.91	43.58	37.09	73.77	 1084	 1127	18.62	10.54	9.065	9.207	7.874	9.446	8.425	8.274	8.517	8.713	8.412	7.713	8.949	8.004	7.559	7.398	6.962	6.117	5.967	5.179	5.643	4.942	4.471	3.965	3.983	3.879	3.524	3.435	2.991	3.253	2.838	2.308	2.305	2.135	1.978	1.910	1.993	2.454	3.093	2.651	1.752	1.238	1.225	1.008	0.839	1.165	1.210	1.078	1.253	0.832	0.755	0.638	0.623	0.791	1.380	3.112	7.695	46.98	203.5
610.0	16.08	16.25	22.13	19.25	19.00	15.60	21.70	23.14	26.09	35.92	45.28	99.18	84.45	42.02	33.04	34.35	316.1	 1448	332.6	9.873	8.480	7.917	7.206	7.638	7.278	6.582	6.675	6.936	6.468	7.407	6.652	7.225	6.108	5.703	5.527	5.070	4.794	4.558	4.690	4.033	3.853	3.336	3.321	3.130	2.827	2.904	2.284	2.592	2.373	1.994	1.890	1.534	1.719	1.445	1.500	1.691	2.348	2.617	1.945	1.243	0.980	0.838	0.986	0.969	0.940	0.989	1.152	0.895	0.791	0.710	0.611	0.547	0.604	0.997	2.172	10.99	52.38
615.0	14.75	13.96	19.51	23.86	17.68	17.04	18.93	22.81	27.07	32.83	38.15	66.23	105.2	50.12	29.17	23.50	81.42	607.6	 1203	30.99	6.337	6.300	5.743	6.365	5.848	5.527	5.686	5.332	5.249	5.594	5.283	4.929	5.070	4.426	4.480	4.216	3.581	3.634	3.181	3.198	2.941	2.783	2.609	2.363	2.460	2.400	2.195	2.176	1.880	1.511	1.384	1.412	1.267	1.156	1.287	1.359	1.190	2.122	1.759	1.513	1.247	0.732	0.682	0.590	0.972	0.820	0.661	1.081	1.016	0.622	0.471	0.359	0.422	0.625	0.773	2.659	11.83
620.0	12.62	20.46	18.59	22.81	14.51	15.76	17.70	21.40	22.50	28.06	37.23	48.46	99.99	64.95	31.04	21.11	30.35	171.6	 1388	143.1	6.009	5.668	5.740	5.298	4.411	4.494	4.467	4.618	4.389	4.640	4.458	4.272	4.616	3.290	3.704	3.565	2.883	3.198	2.912	3.077	2.547	2.115	2.039	2.146	1.973	2.131	1.766	2.013	1.670	1.419	1.221	1.047	1.138	1.247	1.060	1.178	0.967	1.384	1.659	1.572	1.041	0.707	0.666	0.704	0.796	0.671	0.553	0.898	1.068	0.876	0.481	0.371	0.446	0.487	0.456	0.771	2.881
625.0	12.80	19.85	18.83	20.76	17.62	14.39	18.64	18.73	24.51	24.22	31.62	38.72	78.35	83.87	32.70	22.10	17.82	47.35	833.8	806.9	9.177	5.443	5.135	3.830	3.871	4.229	3.701	3.914	4.287	3.912	4.092	3.219	3.601	3.281	2.944	3.295	3.048	2.697	2.697	2.402	2.422	1.828	1.618	1.616	1.564	1.839	1.506	1.647	1.337	1.440	1.137	1.014	0.982	0.835	0.788	0.810	0.803	0.972	1.226	1.449	1.116	0.682	0.624	0.586	0.478	0.503	0.737	0.652	0.977	1.057	0.464	0.371	0.436	0.364	0.349	0.263	0.832
630.0	12.51	15.62	19.09	18.14	15.07	13.30	17.62	18.94	21.83	26.54	31.59	39.29	54.16	89.22	39.20	20.76	15.28	18.34	242.6	 1113	232.7	4.886	4.159	3.546	3.427	3.433	3.089	3.443	3.137	3.270	3.104	2.931	2.877	2.607	2.452	2.406	2.375	2.053	2.056	1.815	1.881	1.739	1.483	1.294	1.268	1.266	1.301	1.226	0.996	1.098	0.994	0.913	0.783	0.763	0.786	0.531	0.787	0.800	0.777	1.155	1.150	0.872	0.765	0.475	0.518	0.548	0.581	0.585	0.639	0.851	0.699	0.539	0.518	0.309	0.464	0.244	0.427
635.0	11.34	12.65	17.38	18.89	13.21	11.12	14.03	17.01	20.37	27.74	29.15	33.70	41.54	72.47	58.83	19.72	13.82	12.02	60.80	487.0	892.2	19.57	3.509	3.315	3.043	2.983	2.783	3.002	2.357	2.950	2.094	2.618	2.488	2.008	1.976	1.785	1.999	1.529	1.398	1.340	1.258	1.216	1.076	0.935	1.101	1.078	1.043	1.007	0.953	0.742	0.837	0.681	0.628	0.763	0.606	0.427	0.557	0.610	0.702	0.756	1.082	0.738	0.686	0.457	0.508	0.489	0.434	0.318	0.552	0.529	0.527	0.761	0.455	0.217	0.360	0.348	0.267
640.0	11.22	15.92	19.05	18.22	15.88	13.65	13.25	16.08	19.99	26.60	26.89	34.68	36.45	52.69	64.57	26.56	14.79	11.15	17.80	138.1	 1077	110.5	3.377	2.853	3.073	2.595	2.605	2.411	2.094	2.222	2.428	1.885	2.014	1.905	1.501	1.450	1.621	1.451	1.332	1.283	1.133	1.093	1.101	0.857	0.950	0.870	0.913	0.763	0.946	0.828	0.737	0.633	0.485	0.568	0.474	0.442	0.462	0.637	0.521	0.607	0.943	0.899	0.704	0.479	0.519	0.405	0.294	0.310	0.410	0.583	0.291	0.664	0.528	0.365	0.299	0.296	0.311
645.0	13.81	15.66	22.05	17.53	16.54	12.30	15.25	16.32	20.02	28.91	29.78	37.28	36.37	40.74	67.40	33.41	13.72	9.498	8.624	37.44	685.8	565.9	5.058	2.687	2.430	2.233	2.125	2.321	1.991	1.852	2.047	1.568	1.844	1.386	1.446	1.187	1.184	1.340	1.397	0.904	1.193	1.288	1.075	1.013	0.819	0.788	1.030	0.747	0.782	0.679	0.739	0.637	0.508	0.649	0.387	0.394	0.648	0.585	0.386	0.445	0.453	0.765	0.598	0.883	0.500	0.238	0.321	0.446	0.294	0.332	0.272	0.535	0.567	0.581	0.223	0.403	0.382
650.0	26.76	10.20	19.32	22.39	13.89	14.53	14.24	16.16	20.55	25.32	28.11	35.28	36.58	35.57	55.17	44.37	15.34	10.83	7.414	12.54	247.5	939.0	40.59	2.947	2.438	2.078	1.864	1.986	1.583	1.865	1.873	1.586	1.701	1.342	1.290	1.300	1.037	1.039	1.015	0.833	1.233	1.113	1.042	0.923	0.736	0.813	0.652	0.582	0.677	0.570	0.635	0.461	0.326	0.565	0.416	0.379	0.719	0.436	0.325	0.365	0.326	0.518	0.540	0.722	0.443	0.327	0.418	0.375	0.346	0.301	0.383	0.539	0.591	0.477	0.502	0.270	0.204
