Sample:	'1
File name:	城北污水厂一期生活进水.FD3
Run date:	'14:30:24, 08/19/2024
Operator:	horiz
Comment:	'

Instrument
Model:	F-2700 FL Spectrophotometer
Serial number:	23B8-004
ROM Version:	4J14000 07

Instrument parameters
Measurement type:	3-D scan
Data mode:	Fluorescence
EX  Start WL:	220.0 nm
EX  End WL:	600.0 nm
EX Sampling interval:	5.0 nm
EM  Start WL:	230.0 nm
EM  End WL:	650.0 nm
EM Sampling interval:	5.0 nm
Scan speed:	12000 nm/min
EX Slit:	5.0 nm
EM Slit:	5.0 nm
PMT Voltage:	700 V
Response:	Auto 
Corrected spectra:	Off
Contour interval:	50.000

Peak integration
Integration method:	Rectangular
Sensitivity:	1
Threshold:	1.000

Peaks
No.	ApexEX/EM(nm)	Height(Data)
1	270.0/605.0	283.2
2	275.0/340.0	5734
3	275.0/610.0	289.4
4	560.0/340.0	21.70

Wavelength data
No.	EX/EM(nm)	Height(Data)	

Data points
	220.0	225.0	230.0	235.0	240.0	245.0	250.0	255.0	260.0	265.0	270.0	275.0	280.0	285.0	290.0	295.0	300.0	305.0	310.0	315.0	320.0	325.0	330.0	335.0	340.0	345.0	350.0	355.0	360.0	365.0	370.0	375.0	380.0	385.0	390.0	395.0	400.0	405.0	410.0	415.0	420.0	425.0	430.0	435.0	440.0	445.0	450.0	455.0	460.0	465.0	470.0	475.0	480.0	485.0	490.0	495.0	500.0	505.0	510.0	515.0	520.0	525.0	530.0	535.0	540.0	545.0	550.0	555.0	560.0	565.0	570.0	575.0	580.0	585.0	590.0	595.0	600.0
230.0	44.92	160.9	258.2	71.51	13.82	10.79	10.03	9.663	10.89	11.65	11.59	10.96	9.590	8.574	7.325	6.182	5.325	4.802	4.175	4.177	3.611	3.449	3.208	2.919	2.750	2.583	2.295	2.159	2.079	2.031	1.899	1.871	1.758	1.616	1.443	1.376	1.320	1.280	1.157	1.122	1.007	1.093	0.978	1.002	0.935	0.874	0.950	1.247	1.427	1.037	0.801	0.730	0.705	0.716	0.749	0.689	0.738	0.723	0.691	0.671	0.711	0.722	0.701	0.712	0.661	0.674	0.680	0.696	0.647	0.671	0.658	0.667	0.641	0.657	0.676	0.691	0.685
235.0	45.36	68.45	176.0	217.8	81.01	12.87	11.08	10.10	12.71	11.58	11.41	11.57	10.02	9.244	7.876	6.244	5.560	4.765	4.472	3.972	3.792	3.476	3.259	2.912	2.756	2.605	2.500	2.292	2.045	2.085	2.182	1.833	1.690	1.572	1.483	1.313	1.160	1.280	1.140	1.162	0.993	1.088	1.055	1.071	0.869	0.899	0.795	0.966	0.997	1.114	1.137	1.307	1.132	0.788	0.761	0.664	0.802	0.783	0.635	0.733	0.640	0.739	0.635	0.738	0.699	0.655	0.711	0.759	0.668	0.609	0.592	0.685	0.592	0.654	0.663	0.685	0.743
240.0	40.94	40.16	65.87	213.5	298.5	96.21	13.24	11.98	14.46	12.87	11.65	12.40	10.92	9.492	8.326	6.660	5.337	4.701	4.766	4.153	3.521	3.464	3.391	3.092	2.909	3.013	2.547	2.193	2.105	2.209	2.034	1.772	1.663	1.673	1.488	1.462	1.236	1.277	1.265	1.156	1.130	1.091	0.996	0.969	0.928	0.888	0.836	0.853	0.786	0.856	1.005	1.591	2.051	1.599	1.091	0.714	0.779	0.686	0.674	0.688	0.696	0.696	0.670	0.785	0.672	0.660	0.771	0.738	0.663	0.593	0.584	0.729	0.610	0.602	0.661	0.653	0.708
245.0	48.98	32.95	33.61	89.22	399.7	487.2	169.1	16.23	14.28	15.15	13.97	13.81	11.18	9.251	8.087	6.856	6.121	4.953	4.871	4.142	3.884	3.415	3.068	3.032	2.863	2.868	2.617	2.226	2.238	2.072	1.928	1.923	1.626	1.621	1.525	1.425	1.228	1.232	1.238	1.151	1.037	1.107	1.110	1.019	0.973	0.927	0.848	0.898	0.744	0.737	0.824	1.012	1.566	2.554	3.330	2.624	1.344	0.814	0.674	0.739	0.702	0.704	0.773	0.716	0.667	0.718	0.737	0.648	0.666	0.620	0.661	0.789	0.688	0.646	0.689	0.672	0.713
250.0	50.78	39.39	33.83	42.65	155.4	869.6	2556	1391	110.7	20.49	17.53	15.56	13.51	10.61	9.058	7.492	6.334	5.591	5.008	4.587	3.863	3.602	3.372	3.376	2.973	3.010	2.724	2.473	2.315	2.252	1.932	1.981	1.687	1.656	1.501	1.390	1.278	1.358	1.130	1.155	1.125	1.077	1.067	1.021	0.956	0.958	0.913	0.887	0.790	0.720	0.715	0.797	0.927	1.419	2.524	4.831	9.270	12.86	10.43	4.433	1.088	0.750	0.875	0.777	0.730	0.745	0.677	0.636	0.707	0.668	0.677	0.761	0.695	0.667	0.706	0.678	0.785
255.0	59.62	47.88	38.60	45.85	62.10	259.2	2804	9865	2519	167.6	25.79	20.86	16.54	12.80	10.67	8.531	6.853	6.041	5.993	5.155	4.417	3.761	3.840	3.616	3.192	3.129	2.723	2.558	2.564	2.403	2.151	1.897	1.844	1.804	1.563	1.331	1.267	1.324	1.201	1.280	1.029	1.185	1.085	1.063	1.047	0.942	0.840	0.970	0.787	0.712	0.762	0.835	0.872	0.951	1.174	1.781	4.088	13.67	36.37	33.01	23.80	7.576	1.104	0.837	0.752	0.773	0.713	0.736	0.695	0.697	0.707	0.719	0.668	0.756	0.697	0.687	0.734
260.0	73.48	63.46	45.93	53.20	61.02	94.31	935.6	9418	9999.9	2199	116.7	28.49	20.87	16.40	11.84	9.678	8.059	6.685	6.348	5.507	4.560	4.030	4.086	3.585	3.519	3.086	2.664	2.745	2.557	2.422	2.458	2.136	1.988	1.950	1.639	1.663	1.382	1.407	1.257	1.385	1.164	1.267	1.105	1.189	1.188	1.026	0.922	0.960	0.911	0.694	0.823	1.009	0.880	0.939	0.959	1.021	1.688	4.376	16.37	45.60	86.87	34.69	23.18	5.147	1.049	0.935	0.760	0.908	0.793	0.694	0.782	0.820	0.728	0.732	0.735	0.725	0.767
265.0	80.74	65.00	52.30	52.53	79.13	88.15	256.6	3322	9999.9	9999.9	1759	66.03	29.94	21.01	15.09	12.16	9.256	7.713	7.015	6.043	5.165	4.510	4.168	3.907	3.423	3.276	3.080	2.619	2.599	2.576	2.756	2.134	2.195	2.085	1.778	1.727	1.482	1.425	1.386	1.353	1.232	1.376	1.178	1.127	1.263	1.120	0.959	1.078	1.004	0.799	0.865	0.908	0.988	0.992	1.038	1.058	1.104	1.835	4.535	14.04	47.00	97.80	140.2	33.80	18.01	2.588	0.996	0.946	0.912	0.736	0.873	0.878	0.811	0.834	0.824	0.875	0.785
270.0	146.2	118.0	84.94	61.54	76.84	139.4	191.0	847.7	4137	9999.9	9999.9	6619	118.4	34.53	22.11	16.25	12.28	10.36	8.442	7.122	5.954	5.003	4.788	4.314	3.820	3.589	3.608	3.421	3.007	2.836	2.980	2.380	2.368	2.174	1.991	1.940	1.865	1.658	1.626	1.498	1.486	1.496	1.432	1.322	1.415	1.262	1.184	1.152	1.079	0.924	0.826	0.966	1.043	1.059	1.191	1.280	1.481	1.533	1.987	4.130	11.71	28.51	66.27	102.5	149.5	122.2	86.23	13.13	3.197	1.085	1.018	0.964	0.975	0.919	0.896	0.974	1.001
275.0	288.3	226.6	154.3	90.69	73.04	118.7	295.3	439.4	1131	2819	9999.9	9999.9	9627	141.8	36.70	24.49	16.95	13.57	10.20	8.605	7.426	6.202	5.746	5.225	4.728	4.160	3.734	3.596	3.302	3.325	3.015	2.708	2.632	2.472	2.216	2.292	2.100	1.798	1.928	1.833	1.684	1.761	1.727	1.854	1.756	1.590	1.498	1.441	1.332	1.011	0.949	1.067	1.096	1.191	1.253	1.313	1.589	2.191	2.126	2.248	3.845	7.714	16.28	24.79	42.80	89.84	200.0	237.4	35.02	18.75	2.495	1.314	1.229	1.073	1.003	1.072	0.933
280.0	442.8	329.8	230.6	119.9	84.97	113.1	274.1	501.9	583.8	991.7	3514	9999.9	9999.9	1400	99.64	34.70	21.91	17.11	12.90	10.04	8.694	7.006	6.095	5.557	4.762	4.667	4.236	3.999	3.288	3.296	3.193	2.858	2.823	2.882	2.767	2.785	2.436	2.195	2.439	2.163	2.057	2.023	2.006	2.008	1.959	1.902	1.966	1.566	1.451	1.228	1.093	1.102	1.136	1.201	1.208	1.226	1.456	2.119	2.734	3.155	2.963	3.607	5.605	7.550	11.59	23.11	65.52	158.9	237.3	228.9	31.86	12.54	1.671	1.251	1.092	1.205	1.042
285.0	594.3	461.5	291.1	153.6	91.82	123.6	239.5	567.0	834.5	816.8	1403	4987	9999.9	9999.9	1084	66.70	30.85	22.02	16.30	12.01	10.01	8.137	7.030	5.863	5.236	4.952	4.314	4.157	3.824	3.586	2.915	3.313	3.208	3.133	2.861	2.922	2.781	2.659	2.803	2.442	2.358	2.450	2.352	2.460	2.297	2.288	2.077	1.821	1.725	1.422	1.127	1.248	1.196	1.216	1.193	1.227	1.656	1.909	2.485	3.303	4.279	3.881	4.103	4.674	5.560	8.192	17.71	41.47	93.29	208.2	266.7	198.1	26.05	6.008	1.454	1.408	1.324
290.0	718.1	554.3	368.4	188.6	116.6	152.9	287.4	582.6	1144	1530	1641	2379	5549	9999.9	9999.9	4281	80.51	33.36	22.19	16.04	12.25	9.958	8.210	7.126	6.252	5.762	5.120	4.673	4.453	4.227	3.662	3.377	3.347	3.358	3.467	3.166	3.291	3.007	3.067	2.931	2.757	2.862	2.672	2.680	2.741	2.461	2.297	2.138	1.902	1.604	1.331	1.349	1.308	1.325	1.344	1.429	1.826	2.141	2.641	3.254	4.433	5.446	6.540	6.807	6.716	7.234	9.093	14.45	25.90	54.97	99.80	164.6	197.5	151.5	131.7	17.80	7.125
295.0	799.3	605.5	397.6	220.3	149.2	204.0	405.0	774.9	1380	2225	2749	2664	2817	3425	9999.9	9999.9	6227	92.01	35.65	22.75	17.29	13.02	9.940	8.743	7.028	6.460	5.516	5.065	5.067	4.278	3.969	3.828	3.616	3.926	3.703	3.838	3.807	3.332	3.412	3.261	3.014	3.247	2.947	2.792	3.065	2.779	2.321	2.415	2.140	1.741	1.475	1.574	1.555	1.436	1.655	1.757	2.116	2.386	3.189	4.081	5.421	6.152	7.657	9.848	11.55	11.27	10.93	11.61	13.93	19.71	28.27	41.14	50.31	75.89	203.8	285.5	217.7
300.0	764.0	640.4	418.6	243.0	175.7	244.4	508.6	996.8	1711	2591	3552	3502	2823	2035	3399	9999.9	9999.9	4532	72.71	32.70	22.56	15.57	12.18	10.24	8.352	7.647	6.409	5.859	4.972	4.633	4.506	3.984	3.740	3.734	3.809	3.769	3.740	3.597	3.622	3.454	3.158	3.024	3.197	3.165	2.930	2.919	2.386	2.460	2.286	1.737	1.650	1.647	1.568	1.649	1.869	2.143	2.611	2.991	3.680	5.179	6.180	7.422	9.064	10.71	13.45	14.60	14.81	14.20	13.18	13.21	13.73	14.86	15.46	20.34	56.90	142.2	282.5
305.0	776.3	598.0	426.1	249.1	198.1	306.3	601.1	1194	2004	2929	3882	4319	3296	2039	1467	4163	9999.9	9999.9	683.5	55.46	29.43	20.41	14.91	12.42	9.713	8.266	6.989	6.301	5.473	5.330	4.994	4.352	4.321	4.065	4.039	3.685	4.018	3.728	3.479	3.717	3.543	3.328	3.074	3.026	2.990	2.800	2.623	2.610	2.333	1.809	1.679	1.738	1.656	1.868	1.925	2.338	2.827	3.424	4.652	5.902	7.270	8.895	10.35	12.25	14.15	15.39	17.26	17.22	14.89	13.45	12.15	10.45	8.566	8.385	15.85	35.37	86.84
310.0	735.4	587.7	417.8	250.7	219.3	347.7	695.1	1365	2239	3204	4091	4532	3997	2464	1291	1400	4395	9999.9	9999.9	9721	60.84	29.90	20.30	15.15	12.25	9.592	7.862	7.221	6.438	5.822	5.208	4.627	4.266	4.183	4.160	3.782	4.055	4.107	3.725	3.583	3.654	3.439	3.243	3.014	2.954	2.787	2.474	2.567	2.144	1.801	1.619	1.696	1.723	1.945	2.036	2.471	3.068	3.734	5.033	6.479	8.275	10.14	12.06	14.05	15.31	16.76	17.32	17.92	17.55	16.30	14.34	10.69	8.505	6.760	7.249	10.91	21.96
315.0	732.6	548.5	400.2	253.0	247.6	385.2	781.3	1515	2451	3460	4333	4621	4231	3151	1643	987.9	1395	2685	9999.9	9999.9	4432	68.69	29.98	20.89	15.39	12.07	9.901	8.558	7.548	6.357	6.180	5.396	4.843	4.470	4.294	4.272	4.186	4.235	3.838	3.750	3.664	3.484	3.449	3.112	3.046	2.985	2.530	2.483	2.209	1.779	1.663	1.937	1.843	2.003	2.320	2.424	3.535	4.126	5.518	7.308	8.878	10.60	12.29	14.59	15.50	17.42	17.36	17.72	17.61	17.20	16.24	13.97	10.31	8.254	6.611	6.397	8.157
320.0	721.3	615.7	439.1	278.3	267.8	427.3	857.5	1625	2614	3665	4563	4842	4390	3519	2198	1142	887.1	975.1	3007	9999.9	9999.9	3413	56.37	27.71	19.43	14.20	11.52	9.828	8.081	7.577	6.597	5.744	4.662	4.703	4.655	4.471	4.150	4.121	4.286	3.992	3.606	3.535	3.441	3.302	3.231	3.234	2.674	2.641	2.250	1.875	1.909	2.180	1.982	2.194	2.372	2.554	3.954	4.415	5.935	7.858	9.228	11.12	13.39	15.65	16.50	18.26	18.63	18.37	18.47	17.28	16.17	14.37	13.10	11.03	7.816	6.254	6.232
325.0	818.0	710.2	518.6	341.2	304.1	465.0	910.7	1739	2794	3874	4801	5144	4703	3769	2731	1554	956.3	717.3	998.3	3935	9999.9	9999.9	511.8	45.05	24.86	18.14	13.76	11.65	9.523	7.972	7.171	6.071	5.048	4.658	4.732	4.560	4.085	3.999	4.057	4.082	3.756	3.814	3.586	3.677	3.557	3.239	3.045	2.987	2.620	1.980	2.025	2.206	1.970	2.238	2.588	2.733	3.743	4.746	6.205	7.972	9.741	11.72	14.06	16.36	16.91	19.36	18.88	19.31	18.89	18.92	17.40	15.66	14.44	13.71	10.50	8.436	6.683
330.0	873.4	757.2	601.2	429.8	369.8	521.4	988.5	1828	2946	4074	5014	5451	5109	4164	3051	2089	1311	828.1	669.5	1186	4209	9999.9	9999.9	8458	49.81	27.09	18.27	14.27	10.98	9.570	8.305	6.733	5.903	5.358	4.760	4.736	4.435	4.273	4.294	4.207	4.086	3.888	3.706	3.739	3.568	3.584	3.115	3.296	2.784	2.275	2.153	2.443	2.194	2.407	2.640	2.906	3.963	4.900	6.280	8.520	10.54	12.15	14.63	16.60	18.13	19.62	19.91	20.75	20.31	19.96	18.98	17.13	15.37	14.04	12.44	10.62	9.188
335.0	926.0	807.8	639.1	494.8	435.1	576.6	1055	1933	3095	4223	5189	5662	5394	4541	3352	2278	1712	1089	718.1	656.1	1199	2607	9999.9	9999.9	3617	56.78	26.55	19.24	14.55	11.39	9.848	7.648	6.851	6.042	5.461	4.873	4.718	4.482	4.550	4.465	4.370	4.457	4.069	3.957	3.859	3.650	3.464	3.466	2.707	2.498	2.347	2.657	2.466	2.506	2.838	3.246	4.068	5.361	6.966	8.642	10.47	13.07	14.55	17.45	19.06	19.96	20.84	21.13	21.51	20.74	19.88	18.61	16.70	15.29	13.17	11.06	10.35
340.0	976.7	856.8	658.2	502.5	472.7	620.0	1107	1980	3156	4332	5271	5734	5508	4713	3553	2398	1788	1353	831.8	609.3	590.1	809.3	3012	9999.9	9999.9	2813	48.05	24.95	17.61	13.64	11.23	8.604	7.671	6.112	5.478	5.164	4.656	4.358	4.705	4.281	4.346	4.491	3.975	3.837	3.803	3.852	3.528	3.423	3.052	2.705	2.347	2.737	2.538	2.734	2.951	3.201	4.113	5.106	6.880	9.065	10.78	12.80	14.70	17.28	19.05	19.97	21.06	21.58	21.70	21.36	19.81	19.63	17.38	16.21	13.45	12.05	10.51
345.0	954.1	841.5	660.5	513.8	489.9	644.2	1123	2027	3160	4321	5249	5668	5476	4771	3643	2469	1786	1465	1034	676.1	523.3	470.7	881.2	4020	9999.9	9999.9	432.5	37.88	22.29	16.22	12.40	9.897	7.936	6.984	5.643	5.164	5.049	4.442	4.733	4.360	4.113	4.359	3.981	3.669	3.875	3.744	3.339	3.400	3.157	2.605	2.344	2.890	2.658	2.756	2.888	3.153	4.447	5.493	7.118	9.001	10.65	12.85	15.27	17.15	19.08	19.59	20.22	20.36	21.05	21.07	19.71	19.83	18.20	16.07	13.91	12.45	10.86
350.0	898.9	784.2	630.3	515.7	496.2	686.8	1179	2092	3201	4259	5123	5508	5332	4677	3634	2523	1836	1444	1204	883.0	628.6	500.8	493.6	1122	4433	9999.9	9999.9	1937	42.87	22.81	16.34	11.59	9.475	7.491	6.271	5.381	5.183	4.770	4.655	4.381	4.222	4.160	3.929	3.786	3.845	3.681	3.427	3.249	3.053	2.562	2.397	2.766	2.785	2.718	3.175	3.268	4.532	5.496	7.070	8.992	10.98	13.17	15.23	16.89	18.21	18.67	19.83	20.57	20.44	20.40	19.44	19.02	17.75	16.13	13.85	12.48	10.83
355.0	851.4	712.7	576.1	500.7	525.5	729.7	1262	2167	3274	4255	4997	5282	5110	4521	3589	2563	1904	1494	1236	1107	833.6	614.7	506.4	549.6	1210	2622	9999.9	9999.9	3123	47.61	22.31	15.49	11.27	8.313	7.143	6.088	5.607	4.812	4.713	4.564	4.204	4.260	4.128	3.563	3.661	3.493	3.321	3.011	2.880	2.336	2.464	2.528	2.850	2.906	2.904	3.455	4.393	5.766	7.110	9.085	11.08	13.57	14.83	16.73	17.51	18.66	18.98	19.29	19.93	19.63	18.68	18.22	17.11	16.12	14.04	12.24	11.25
360.0	817.4	671.8	541.7	475.2	520.0	751.2	1321	2224	3298	4229	4888	5126	4937	4374	3518	2549	1951	1562	1290	1148	1025	758.9	583.8	491.5	547.9	779.0	3084	9999.9	9999.9	439.3	38.64	19.52	14.20	10.26	8.082	6.277	6.103	5.186	4.959	4.684	4.386	4.322	3.906	3.809	3.698	3.459	3.011	2.866	2.759	2.380	2.323	2.523	2.710	3.036	3.196	3.732	4.679	5.861	7.495	9.018	11.34	13.59	15.17	16.77	17.76	18.40	18.36	18.73	18.77	18.80	18.19	17.42	16.73	15.50	13.82	12.56	11.11
365.0	754.0	631.1	520.0	452.3	506.8	758.1	1344	2232	3305	4215	4769	4952	4736	4217	3425	2530	1970	1624	1360	1191	1116	945.6	693.0	547.4	458.9	408.5	849.2	4226	9999.9	9999.9	379.5	29.70	17.45	12.63	9.414	7.054	6.149	5.596	5.187	4.744	4.528	4.219	4.041	3.867	3.697	3.444	3.160	2.910	2.673	2.444	2.275	2.562	2.697	2.860	3.415	3.785	4.848	5.976	7.782	9.147	11.45	13.19	15.40	16.43	17.43	17.67	17.75	18.27	18.64	18.36	17.51	16.76	16.33	15.48	13.41	12.14	11.35
370.0	730.3	570.5	463.6	421.2	494.9	765.9	1339	2236	3223	4072	4555	4686	4460	3968	3266	2478	1992	1687	1456	1285	1170	1102	913.0	688.3	531.9	404.0	402.0	1095	4556	9999.9	9999.9	1594	35.88	18.37	12.41	8.991	7.253	6.317	5.678	5.376	4.813	4.654	4.151	3.760	3.432	3.344	3.045	3.026	2.765	2.363	2.234	2.512	2.706	2.858	3.380	3.953	4.752	5.994	7.452	9.329	11.07	13.06	14.85	15.77	16.91	17.14	17.10	17.14	17.23	17.07	16.53	16.25	15.44	14.57	13.04	11.96	11.34
375.0	671.4	549.1	412.5	390.3	478.9	752.6	1339	2194	3125	3865	4283	4401	4172	3707	3109	2419	2016	1748	1561	1405	1268	1174	1098	896.0	670.1	500.2	378.2	439.6	1149	2646	9999.9	9999.9	2586	38.97	18.17	12.36	9.055	7.057	6.357	5.403	4.843	4.735	4.177	3.754	3.528	3.528	2.937	2.956	2.536	2.242	2.089	2.521	2.663	2.725	3.092	3.750	5.009	5.965	7.447	8.931	11.20	12.51	14.97	15.12	16.38	16.10	16.24	16.05	16.29	15.67	15.11	15.26	14.61	13.84	12.53	11.99	11.04
380.0	616.6	500.5	381.4	370.7	481.8	758.6	1333	2142	3018	3728	4108	4152	3951	3529	2986	2377	2008	1791	1621	1482	1350	1249	1157	1055	814.9	599.8	435.7	345.6	428.5	714.8	3175	9999.9	9999.9	368.5	31.70	15.81	11.35	8.412	6.966	5.734	5.232	4.682	4.553	3.810	3.738	3.611	3.065	2.898	2.527	2.214	2.051	2.458	2.676	2.772	3.179	3.764	5.107	6.038	7.328	8.571	10.47	12.11	13.99	14.84	15.65	15.10	15.53	15.56	16.02	15.39	14.88	14.71	13.60	13.38	12.33	11.47	11.14
385.0	595.4	476.5	369.9	363.4	477.0	738.4	1308	2072	2897	3553	3914	3947	3760	3365	2863	2337	2008	1819	1660	1540	1423	1317	1200	1112	950.6	697.1	512.6	376.3	313.8	317.4	831.0	4254	9999.9	9999.9	300.9	23.21	14.22	10.77	7.951	6.636	5.636	4.984	4.875	3.932	3.926	3.320	2.792	2.800	2.404	2.224	2.019	2.391	2.736	2.954	3.455	3.793	4.853	6.116	7.260	8.751	10.43	11.88	13.29	14.08	15.27	14.67	14.92	14.68	14.78	14.79	14.18	13.96	13.11	12.79	12.04	11.00	11.02
390.0	550.0	420.5	340.5	341.3	458.6	731.4	1257	1995	2732	3345	3645	3665	3490	3148	2724	2269	2006	1833	1706	1599	1489	1393	1265	1148	1040	850.6	619.8	465.4	360.0	292.6	348.9	1083	4243	9999.9	9999.9	1256	29.12	14.69	10.40	8.078	6.625	5.481	4.821	4.293	4.043	3.557	3.187	2.882	2.581	2.184	2.063	2.599	2.619	2.819	3.248	3.774	4.713	5.731	7.181	8.587	10.05	11.05	12.46	13.20	14.19	13.91	14.00	14.10	13.87	13.70	13.23	12.88	13.07	12.25	11.56	11.13	10.91
395.0	484.0	398.3	322.3	309.8	447.1	714.6	1228	1929	2611	3119	3369	3400	3231	2928	2565	2201	1997	1853	1732	1637	1530	1449	1333	1212	1074	961.5	772.9	571.6	449.3	358.7	304.3	410.6	1072	2591	9999.9	9999.9	2119	31.42	14.34	10.43	7.894	6.306	5.284	4.607	4.426	3.846	3.202	2.763	2.681	2.214	2.160	2.484	2.507	2.982	3.129	3.756	4.684	5.607	7.219	8.251	9.383	10.59	11.40	12.75	12.88	12.93	13.01	13.15	12.81	12.81	12.83	12.30	11.93	11.72	11.21	10.72	11.00
400.0	469.3	369.3	308.9	306.6	432.3	696.9	1198	1850	2502	2954	3191	3202	3045	2775	2471	2149	1969	1834	1735	1636	1557	1482	1374	1251	1113	987.7	871.6	673.7	520.3	420.1	337.5	295.7	389.2	688.4	2990	9999.9	9999.9	314.8	24.49	12.51	8.838	7.054	5.895	5.046	4.505	3.715	3.378	3.097	2.529	2.269	2.172	2.363	2.433	2.723	3.096	3.546	4.487	5.758	6.821	8.138	9.242	10.42	10.98	12.19	12.66	12.44	12.13	12.32	12.16	12.69	12.00	11.73	11.88	11.68	11.14	10.41	10.81
405.0	445.1	357.1	291.8	296.9	403.5	669.7	1148	1775	2380	2792	3016	3034	2889	2650	2374	2096	1934	1815	1740	1640	1568	1486	1395	1274	1139	1006	903.1	774.7	597.3	483.7	385.8	304.6	266.6	280.8	760.7	3733	9999.9	9999.9	258.4	17.64	10.59	8.551	6.677	5.221	4.585	3.708	3.424	3.277	2.615	2.303	2.251	2.316	2.488	2.589	3.011	3.611	4.558	5.430	6.814	7.896	8.866	10.30	10.76	11.38	12.33	12.04	11.43	11.56	11.67	11.61	11.15	10.93	11.17	11.09	10.47	10.53	10.41
410.0	404.8	337.0	266.0	279.1	404.1	644.5	1108	1706	2276	2651	2828	2820	2681	2459	2229	2007	1868	1770	1694	1613	1539	1471	1388	1283	1166	1030	916.8	831.7	719.7	572.0	455.7	359.2	282.1	225.4	283.5	920.7	3691	9999.9	9999.9	1166	23.78	10.83	8.164	6.096	4.919	4.004	3.463	3.259	2.845	2.267	2.243	2.454	2.547	2.637	3.143	3.727	4.502	5.301	6.427	7.704	8.630	9.728	10.21	11.00	11.35	11.25	10.97	11.08	11.05	10.87	10.45	10.46	10.37	10.52	10.05	9.946	10.47
415.0	381.6	305.0	254.9	266.8	374.8	629.1	1062	1625	2162	2492	2644	2617	2474	2283	2087	1893	1786	1707	1625	1564	1508	1435	1358	1269	1169	1048	938.0	843.3	780.2	679.2	528.9	420.9	328.2	247.9	207.6	306.0	894.6	2499	9521	9999.9	1866	27.09	10.57	7.736	6.042	4.772	3.756	3.243	2.929	2.324	2.399	2.591	2.559	2.713	3.141	3.599	4.349	5.187	6.176	7.511	8.399	9.257	9.839	10.48	10.89	10.33	10.26	10.49	10.48	10.13	9.955	9.829	9.642	9.445	9.258	9.675	9.619
420.0	333.8	300.6	239.5	260.7	363.8	602.8	1021	1572	2073	2389	2522	2462	2323	2141	1958	1805	1711	1642	1577	1511	1451	1385	1334	1251	1161	1054	946.2	854.7	788.9	732.3	595.6	460.7	362.6	278.0	209.7	185.6	283.7	619.2	2667	9999.9	9999.9	291.2	20.45	9.517	6.992	5.317	3.991	3.559	2.872	2.389	2.305	2.698	2.615	2.899	3.120	3.557	4.424	5.030	5.875	7.464	8.014	8.947	9.895	10.11	10.12	9.748	9.339	9.482	9.720	9.348	9.878	9.410	9.145	8.980	8.978	9.207	9.099
425.0	346.2	272.0	222.5	247.3	351.3	574.7	986.4	1535	2005	2293	2403	2345	2195	2019	1857	1722	1636	1571	1511	1457	1401	1348	1291	1217	1135	1050	951.9	863.4	793.0	738.9	658.3	504.8	394.9	306.3	228.9	176.9	164.0	209.1	650.2	3264	9999.9	9999.9	245.9	14.17	8.418	6.277	4.675	3.697	3.234	2.598	2.253	2.776	2.678	2.665	2.898	3.436	4.279	4.935	5.993	7.520	8.022	8.850	9.154	9.618	9.376	9.661	9.485	9.028	9.735	8.870	8.718	8.824	8.700	8.711	8.529	8.991	8.899
430.0	358.4	244.0	213.2	235.6	335.1	555.2	943.2	1476	1908	2172	2253	2204	2027	1878	1738	1614	1542	1492	1433	1388	1330	1288	1241	1177	1106	1033	949.2	873.0	804.0	742.1	678.0	577.1	446.7	343.2	263.8	201.8	160.6	138.9	213.1	783.1	3169	9999.9	9999.9	1107	21.80	9.291	6.142	4.798	3.581	2.806	2.416	2.800	2.708	2.815	2.992	3.258	4.100	4.932	5.775	6.710	7.543	8.590	8.705	9.472	9.067	8.990	9.135	8.833	8.774	8.340	8.213	8.341	8.149	8.345	8.195	8.262	8.483
435.0	453.8	236.5	199.2	233.6	320.5	523.5	905.9	1415	1821	2071	2127	2051	1885	1747	1620	1506	1453	1402	1350	1305	1249	1217	1179	1136	1069	1007	940.4	881.3	816.5	755.4	681.9	610.8	507.6	389.1	300.5	233.8	183.0	145.5	134.3	239.9	755.6	2380	7248	9999.9	1874	26.47	9.041	6.474	4.619	3.452	2.769	2.622	2.749	2.833	3.136	3.508	4.101	4.954	5.824	6.385	7.484	8.241	8.309	9.026	8.526	8.734	8.500	8.271	7.843	7.924	7.719	7.983	7.805	7.661	7.630	7.839	8.140
440.0	536.7	231.1	199.5	213.2	306.9	509.5	869.9	1353	1752	1989	2029	1947	1790	1652	1538	1432	1378	1335	1281	1241	1190	1163	1134	1092	1042	985.8	924.5	873.9	822.0	765.6	691.6	607.0	541.8	431.1	327.2	258.0	206.2	160.5	131.0	129.4	229.0	578.0	1961	9335	9999.9	1504	20.81	8.788	5.573	4.085	3.151	3.325	2.993	3.013	3.058	3.496	3.996	4.675	5.599	6.263	7.085	8.019	8.416	8.330	8.573	8.442	8.143	7.711	7.821	7.790	7.369	7.342	7.592	7.610	7.099	7.182	7.951
445.0	548.4	304.2	189.7	200.0	287.8	497.3	857.9	1309	1712	1914	1959	1860	1698	1559	1437	1354	1309	1265	1214	1177	1135	1104	1080	1047	1005	953.2	903.7	856.7	817.1	765.1	687.8	607.9	539.5	464.3	355.8	277.7	224.8	177.9	142.9	119.5	122.1	185.0	482.8	2770	9999.9	9999.9	232.6	16.32	7.090	4.906	3.731	3.435	2.968	3.228	3.141	3.616	4.077	4.746	5.580	6.261	6.912	7.675	8.099	8.053	8.243	8.229	7.625	7.894	7.178	7.380	6.981	6.982	6.768	7.077	7.077	6.760	7.495
450.0	399.2	381.8	202.2	192.4	274.7	471.4	810.5	1244	1591	1787	1811	1709	1556	1430	1322	1246	1196	1158	1115	1075	1050	1021	1001	973.0	938.0	900.6	855.7	826.1	788.6	748.6	682.6	603.6	526.3	464.4	392.6	307.2	247.9	201.2	164.9	135.8	114.9	109.9	161.0	660.9	2883	8649	9999.9	3015	19.52	7.139	4.834	4.381	3.594	3.287	3.166	3.495	3.977	4.721	5.566	6.142	6.459	7.414	7.602	7.810	7.928	7.579	7.155	7.188	6.930	6.813	6.570	6.367	6.656	6.738	6.594	6.539	6.599
455.0	273.5	338.9	252.7	173.8	259.8	434.5	754.9	1165	1485	1636	1653	1557	1421	1300	1197	1119	1078	1046	1003	970.8	946.1	927.8	904.9	887.4	861.5	829.8	805.6	775.0	750.6	715.1	665.3	592.1	518.3	452.3	400.0	339.2	269.6	223.3	186.2	154.5	128.0	104.5	98.92	195.6	678.8	2014	5348	9999.9	1687	22.14	7.303	5.495	4.159	3.734	3.411	3.711	3.767	4.501	5.162	5.698	6.175	6.750	7.303	7.276	7.396	7.191	6.813	6.843	6.337	6.086	6.239	5.796	6.209	5.973	5.900	6.284	6.133
460.0	247.8	254.2	298.5	178.9	234.1	398.8	696.9	1092	1376	1529	1520	1430	1308	1193	1097	1030	981.8	951.4	922.3	885.7	866.4	855.3	833.6	821.4	798.2	779.8	759.4	732.7	715.9	689.5	640.4	575.9	506.0	438.8	390.2	348.8	293.0	235.3	197.9	165.6	139.2	113.9	91.29	97.16	192.2	481.4	1337	6634	9999.9	1329	19.05	7.485	5.108	4.400	3.949	3.862	3.941	4.565	4.897	5.571	6.302	6.328	6.838	6.899	6.781	6.927	6.257	6.093	5.822	5.923	5.820	5.329	5.984	5.602	5.537	5.654	5.675
465.0	205.1	179.1	308.5	216.0	218.6	363.9	652.2	1016	1282	1427	1424	1321	1204	1099	1007	951.2	907.6	874.9	845.9	813.7	792.5	783.4	768.4	758.3	741.6	727.4	707.2	686.5	676.2	651.7	612.6	554.6	491.7	431.5	375.6	338.7	303.1	247.1	206.6	174.1	146.4	119.1	94.90	79.52	86.38	141.4	324.8	1768	7913	8871	1118	17.91	6.522	5.481	4.401	4.322	4.171	4.696	5.113	5.486	5.952	6.591	6.457	6.538	6.249	6.479	6.029	5.957	5.719	5.475	5.494	5.214	5.523	5.361	5.176	5.158	5.249
470.0	189.5	148.2	209.1	264.1	215.9	325.7	585.9	908.9	1174	1285	1286	1182	1075	978.5	898.4	840.2	803.0	776.1	744.0	721.0	698.9	691.9	682.1	672.7	661.8	651.4	633.1	623.1	617.1	599.6	565.7	515.8	460.8	407.7	358.4	318.5	289.8	256.7	214.2	178.1	150.8	125.4	98.91	79.89	67.23	67.98	100.9	417.2	2059	5679	7175	2873	21.27	7.565	5.392	4.667	4.643	4.705	4.805	5.091	5.605	6.000	5.950	5.921	5.824	5.848	5.621	5.364	5.026	5.269	5.066	4.885	4.872	4.864	4.799	4.733	4.708
475.0	170.3	122.4	129.6	259.0	255.9	294.9	529.8	815.3	1057	1141	1141	1057	951.0	859.5	793.9	742.3	700.1	679.1	650.1	633.3	610.4	601.7	600.4	589.5	582.1	574.1	564.1	555.5	551.4	541.5	512.8	474.8	425.0	378.8	337.7	298.8	268.5	248.0	219.4	179.6	152.6	128.5	102.3	82.66	65.94	53.74	52.67	116.6	477.0	1291	2864	7395	1794	28.42	7.346	5.351	5.009	4.871	4.662	4.675	5.167	5.447	5.465	5.648	5.366	5.250	5.145	4.602	4.589	4.481	4.420	4.507	4.235	4.259	4.329	4.435	4.461
480.0	161.2	109.8	115.4	193.2	324.9	289.8	484.3	745.8	974.6	1050	1046	965.7	868.9	799.1	726.2	676.2	638.5	617.8	591.2	573.6	558.8	547.7	543.4	540.5	535.1	523.3	517.9	516.4	511.1	508.4	480.1	443.7	403.5	357.7	323.2	287.9	256.8	232.5	217.9	186.5	151.9	126.8	103.8	83.13	67.22	53.38	44.81	51.10	126.6	304.2	681.7	3515	7538	1668	24.14	7.240	5.985	5.253	4.749	4.840	5.147	5.110	5.211	5.290	4.965	5.210	4.843	4.834	4.342	4.314	4.076	4.114	3.953	4.021	3.815	3.994	3.969
485.0	152.6	121.6	106.1	135.6	352.8	347.7	447.8	702.5	902.2	987.9	977.6	889.6	811.5	733.7	674.4	621.7	589.6	566.3	543.8	521.1	512.7	505.1	501.9	498.4	493.5	490.4	483.6	479.4	481.1	474.2	452.9	417.3	381.8	343.6	309.8	279.1	248.4	222.0	207.8	189.8	158.0	128.3	105.3	85.15	68.96	55.53	44.29	39.04	50.30	85.56	168.1	882.5	4755	7275	1302	19.42	7.165	5.745	4.956	5.096	4.970	4.879	5.170	5.379	4.853	4.773	4.548	4.337	4.211	4.016	4.159	4.046	3.634	3.914	3.735	3.982	3.875
490.0	131.9	115.3	91.41	102.8	274.0	572.6	476.4	645.2	821.8	897.6	896.1	822.0	736.7	670.6	611.7	560.8	531.9	505.7	490.1	471.4	458.5	453.1	451.9	449.3	444.6	442.9	438.0	435.5	438.5	433.3	416.8	386.4	356.2	321.2	293.2	263.2	236.4	211.7	194.7	179.6	160.7	131.7	107.0	88.53	73.57	59.83	49.00	39.94	36.74	40.11	55.56	213.2	1180	3759	6115	3047	114.4	8.675	6.136	5.250	5.086	4.897	4.925	5.051	4.735	4.594	4.250	4.093	3.698	3.916	3.770	3.632	3.458	3.619	3.460	3.468	3.574
495.0	130.5	98.41	82.88	87.08	159.0	713.6	830.2	598.3	733.5	807.9	803.7	736.3	659.1	598.3	543.6	499.7	468.7	441.2	435.1	417.5	404.4	402.9	402.3	399.8	394.7	391.2	386.3	389.7	391.6	388.5	378.1	354.4	324.8	297.8	270.1	243.7	224.1	201.4	183.1	164.9	153.7	134.9	110.0	90.18	76.50	63.32	52.48	44.04	37.29	34.10	33.22	65.70	279.3	855.4	2226	6640	4527	33.48	8.687	6.182	5.529	5.139	4.882	4.574	4.525	4.215	4.058	3.688	3.583	3.864	3.504	3.569	3.417	3.364	3.132	3.002	3.105
500.0	124.0	95.50	83.90	77.84	124.7	573.9	1512	682.7	674.2	744.9	733.5	671.0	601.1	543.0	495.3	455.2	421.6	404.0	389.9	380.5	369.2	363.6	361.6	361.6	360.3	355.6	353.2	352.8	356.9	355.8	345.6	327.1	299.4	276.0	250.9	229.2	209.5	190.3	172.0	155.8	143.3	130.9	112.9	90.19	76.81	63.86	53.76	45.94	39.68	33.73	30.70	35.37	80.48	207.4	525.8	2781	7538	1927	29.14	7.591	5.830	5.018	5.127	4.562	4.220	3.970	3.490	3.575	3.352	3.310	2.907	3.274	3.180	3.226	2.846	3.182	3.147
505.0	112.5	98.33	85.43	79.63	103.0	339.3	2058	1258	629.2	684.3	674.1	619.2	558.0	499.9	451.2	411.0	383.9	369.8	354.7	340.8	334.5	330.3	325.6	331.6	326.9	324.9	323.7	323.6	324.9	325.4	321.2	300.7	276.6	255.7	233.5	211.9	195.9	179.7	164.3	148.0	133.2	123.1	113.2	91.93	76.15	64.67	55.55	48.03	41.41	35.05	31.16	29.99	38.05	64.49	134.5	674.5	3815	6791	1574	22.36	6.544	5.209	4.906	4.521	4.264	3.773	3.307	3.556	3.270	3.216	2.978	3.132	3.042	2.950	2.900	2.744	2.846
510.0	114.4	88.60	75.23	77.62	94.55	198.6	1519	3404	988.7	599.9	597.2	550.5	496.4	443.7	399.7	363.2	339.4	323.9	309.5	299.6	294.8	287.9	286.5	288.1	286.5	283.5	285.0	285.4	288.0	286.3	280.0	265.0	246.4	227.6	207.7	192.0	177.2	163.5	150.3	135.2	122.7	111.7	104.1	92.37	76.23	64.27	55.78	48.19	42.11	37.09	32.55	29.71	29.45	33.86	47.66	165.8	919.2	3105	5075	2417	114.4	6.963	4.963	4.387	4.033	3.677	3.237	3.302	3.129	3.025	2.868	2.768	2.744	2.806	2.569	2.557	2.691
515.0	101.8	77.28	65.25	72.80	88.31	144.3	600.8	4497	2783	588.7	530.7	487.5	432.1	389.2	351.2	314.1	295.5	279.6	267.9	257.0	252.0	246.8	244.9	249.1	246.2	245.6	245.0	245.0	250.2	250.2	243.6	230.3	216.6	200.2	183.6	170.3	158.4	144.2	134.3	123.0	111.2	101.6	91.48	86.55	77.39	63.18	55.03	47.47	41.29	37.16	33.28	30.35	28.00	27.05	28.49	52.79	217.5	703.8	1657	4908	2071	33.23	6.373	4.375	4.297	3.626	3.295	3.026	2.662	2.720	2.762	2.505	2.487	2.773	2.503	2.233	2.327
520.0	100.4	80.24	58.54	67.41	84.39	128.7	303.1	3114	6276	1001	478.1	437.7	386.7	352.0	315.5	279.2	265.1	250.0	236.9	227.6	226.0	219.1	219.7	220.5	217.5	216.5	220.2	222.1	224.1	224.5	220.6	207.4	195.8	180.3	166.6	155.3	145.1	134.1	122.8	112.3	102.1	92.67	84.07	78.25	75.04	63.70	53.22	46.71	41.36	37.08	32.99	30.64	27.03	25.59	24.31	27.02	61.65	167.5	385.7	1986	5071	1823	27.75	5.620	4.269	3.579	3.357	2.929	2.595	2.636	2.491	2.379	2.599	2.250	2.275	2.119	2.119
525.0	103.7	73.03	51.84	60.02	85.95	112.5	210.5	1373	8065	2395	442.5	401.3	362.9	318.9	284.1	255.5	236.6	223.5	216.2	208.5	200.8	197.8	198.9	199.3	197.2	194.2	196.5	198.8	201.6	201.6	198.9	187.4	175.9	162.9	153.0	140.9	130.6	122.2	112.8	103.1	94.71	84.91	77.42	70.63	69.32	64.04	52.16	45.19	40.21	36.10	32.81	29.68	26.39	24.71	22.01	20.48	26.08	47.45	94.97	474.3	2534	4888	1399	20.31	4.553	3.814	3.288	2.866	2.942	2.641	2.313	2.385	2.318	2.268	2.351	2.132	1.998
530.0	97.73	71.94	56.69	52.79	74.91	109.8	179.1	525.9	5047	7637	1097	355.8	315.4	281.2	247.6	223.6	206.7	194.8	187.5	179.8	174.0	169.8	171.1	170.8	171.0	168.6	170.6	173.4	175.5	175.3	172.1	164.1	154.0	143.0	132.3	124.0	116.1	108.6	100.5	92.37	84.17	77.05	70.13	64.85	59.35	58.50	51.92	44.02	38.01	33.77	30.77	27.92	24.98	23.46	20.95	18.34	17.97	20.46	29.68	113.1	604.9	2167	3612	1771	108.1	5.124	3.445	2.935	2.638	2.525	2.251	2.147	2.207	2.020	2.186	2.052	1.928
535.0	86.39	66.82	48.92	48.63	63.65	109.5	158.2	286.3	1566	9111	4588	348.8	276.5	241.8	213.6	190.9	176.4	166.4	158.5	154.9	147.7	145.4	145.4	146.0	144.8	143.4	144.2	145.9	148.5	150.3	146.9	138.4	129.3	123.2	113.3	106.6	99.46	94.46	88.10	80.99	73.00	68.27	62.16	58.08	53.31	49.77	48.47	42.49	36.09	31.45	28.43	25.57	23.58	21.72	19.41	17.60	14.83	14.12	14.38	31.95	140.8	489.1	1136	3421	1982	32.61	4.374	3.122	2.846	2.470	2.314	1.963	1.946	1.815	1.857	1.852	1.844
540.0	82.94	59.45	48.42	51.10	56.11	100.8	145.4	224.6	559.9	5570	9193	743.1	250.1	214.0	191.5	169.1	156.4	148.9	140.7	133.8	130.2	130.0	128.0	129.0	128.1	128.6	125.4	127.5	130.3	130.8	128.5	121.8	115.7	108.1	99.63	93.54	88.37	83.69	76.50	72.57	66.06	61.52	56.01	51.30	47.17	44.62	42.81	40.35	34.53	29.33	26.73	24.36	21.71	19.81	18.42	16.42	13.90	12.20	10.63	13.64	37.23	114.4	262.7	1343	3645	1603	25.89	3.693	3.065	2.476	2.234	2.003	1.729	1.727	1.751	1.727	1.708
545.0	103.3	66.78	57.47	44.10	53.68	93.95	140.6	196.7	310.7	2130	9999.9	1906	226.8	189.8	170.6	151.9	137.7	130.4	124.2	118.4	116.7	113.7	111.8	112.9	112.0	111.5	110.9	114.1	114.5	113.9	112.7	106.8	101.9	94.47	89.19	82.62	78.52	73.31	68.30	64.28	59.65	54.39	51.42	46.55	43.51	40.15	38.24	36.79	33.88	28.30	24.17	22.94	19.83	18.44	16.89	15.41	13.41	11.23	9.598	9.385	13.85	30.76	63.55	317.8	1734	3480	1082	17.68	3.303	2.484	2.234	2.053	1.613	1.565	1.629	1.822	1.508
550.0	106.4	77.14	57.48	43.84	45.82	74.51	134.2	171.6	228.3	685.0	6079	7812	627.5	165.1	145.1	128.4	117.3	110.7	104.4	100.2	96.87	95.90	93.95	93.44	93.30	93.74	92.12	94.64	95.05	95.19	93.55	90.29	84.38	79.57	74.42	70.38	66.20	61.74	58.22	55.17	50.38	46.87	43.30	40.48	37.43	34.91	32.54	30.43	30.26	26.46	22.69	20.28	18.00	16.52	15.19	13.74	12.54	10.57	8.857	8.018	8.243	11.40	18.49	75.03	411.3	1480	2477	1137	98.88	3.497	2.331	2.139	1.682	1.575	1.619	1.585	1.526
555.0	102.2	81.60	58.25	38.35	41.48	61.98	114.3	168.0	191.7	310.1	1743	9724	3390	159.2	121.0	107.3	96.42	91.60	85.63	82.50	79.33	77.72	76.74	76.11	75.91	75.17	75.05	77.12	77.58	77.42	76.73	73.75	68.06	64.71	60.86	56.86	53.87	50.89	47.81	44.78	41.78	39.15	36.19	34.00	31.95	29.58	27.09	25.18	24.10	23.41	20.93	17.82	15.74	14.78	13.59	12.19	10.99	9.482	8.157	6.955	6.478	6.905	8.052	20.47	95.25	333.7	763.9	2241	1660	31.28	2.993	2.261	1.909	1.497	1.588	1.436	1.503
560.0	107.9	88.10	62.61	38.60	40.17	50.81	96.67	169.0	177.5	216.2	549.3	5993	7674	386.3	105.1	93.76	81.20	77.70	72.35	70.05	67.89	65.22	65.31	63.57	65.14	63.54	64.53	65.75	65.26	65.65	64.22	61.92	58.27	54.99	51.60	48.96	46.57	42.99	41.43	38.21	35.81	32.79	31.19	29.58	27.33	25.00	23.32	21.44	20.50	19.71	19.09	16.22	14.11	13.37	12.22	10.84	9.904	8.635	7.696	6.766	6.076	5.582	5.587	7.843	24.45	77.63	176.3	875.3	2442	1122	22.82	2.614	1.890	1.615	1.541	1.421	1.371
565.0	119.8	85.40	58.90	40.72	37.50	47.20	81.16	159.4	172.5	187.3	266.9	2210	9999.9	1276	95.14	80.67	71.14	66.34	62.41	59.47	57.44	55.86	55.20	55.36	55.94	54.40	54.69	56.04	56.31	56.57	55.17	52.39	48.86	47.34	44.06	41.45	39.71	36.90	35.01	32.19	31.47	28.79	26.59	25.16	23.77	22.22	20.76	18.82	17.51	16.49	16.39	15.05	12.74	11.67	11.01	9.661	8.953	7.900	7.083	6.444	5.579	4.985	5.008	5.170	8.590	20.28	42.48	206.9	1119	2255	276.8	12.99	2.198	1.782	1.551	1.306	1.177
570.0	123.3	90.63	62.02	39.57	32.27	42.80	65.77	134.3	184.8	180.6	200.7	656.0	6191	6032	337.4	68.77	60.55	55.93	51.53	49.33	46.86	46.30	45.27	45.90	45.26	43.80	43.90	45.44	45.29	46.15	45.52	43.18	40.04	38.85	35.76	34.26	32.90	30.52	28.86	27.01	25.45	23.64	22.03	20.98	19.58	18.93	17.10	15.79	14.34	13.75	13.26	13.04	11.62	10.08	9.179	8.351	7.701	6.774	6.207	5.756	5.431	4.571	4.315	4.266	4.881	7.276	12.12	48.86	265.6	964.2	1500	819.8	19.95	2.386	1.627	1.431	1.219
575.0	129.9	95.67	67.88	39.87	31.08	35.29	57.63	109.9	190.0	188.4	194.8	294.6	1773	8303	1223	67.01	49.43	45.39	42.37	40.62	38.77	37.79	37.21	36.06	36.38	35.13	35.85	36.44	36.50	36.89	36.58	35.06	32.36	30.82	29.02	28.19	27.50	25.73	23.52	21.98	20.66	19.27	18.25	17.18	16.20	15.24	14.14	13.17	11.94	10.97	10.43	10.36	10.20	9.211	8.187	7.361	6.620	5.990	5.480	5.001	4.819	4.457	4.123	3.766	3.691	4.219	5.207	13.39	61.62	217.5	478.6	1489	1041	27.85	2.068	1.594	1.297
580.0	128.9	92.53	68.49	38.73	29.72	36.21	56.86	98.72	182.8	208.8	204.6	220.9	535.0	5397	5337	127.1	44.61	39.69	37.95	34.58	33.04	33.07	31.81	31.27	30.40	30.30	30.45	30.86	31.01	31.32	30.76	28.44	27.79	26.44	24.85	23.72	23.60	22.46	19.97	18.65	17.32	16.88	15.68	14.71	14.10	12.82	12.38	11.55	10.70	9.415	9.008	8.507	8.798	8.398	7.583	6.313	6.028	5.612	4.583	4.555	4.246	4.159	4.165	3.605	3.583	3.634	3.557	5.391	16.06	50.78	110.7	589.6	1613	290.4	19.16	1.809	1.548
585.0	123.0	87.97	68.19	38.96	29.59	34.85	57.24	93.67	160.0	233.1	219.5	214.8	259.1	2027	7779	750.4	40.83	36.17	33.55	29.92	29.09	28.35	26.65	27.52	26.44	25.79	26.01	26.11	26.46	26.64	26.28	24.54	23.85	22.85	21.37	20.35	19.93	19.52	17.62	16.29	15.15	14.76	13.31	12.70	11.99	11.42	11.02	10.32	8.993	8.276	8.109	7.366	7.440	7.539	6.967	5.952	5.299	5.070	4.432	4.132	4.160	3.699	4.174	3.602	3.418	3.330	3.137	3.717	5.890	13.37	26.87	139.6	766.7	1412	257.7	9.606	1.742
590.0	117.9	92.71	61.31	35.37	28.93	35.42	52.98	90.48	145.9	234.7	242.6	228.0	201.3	582.1	4906	4010	88.43	31.11	28.27	25.46	23.96	23.06	22.70	22.51	22.10	21.12	21.42	21.76	21.55	22.19	21.57	20.57	19.72	18.66	17.27	16.73	15.86	15.42	14.38	13.43	12.19	11.92	11.17	10.61	10.25	9.886	9.053	8.408	7.592	7.069	6.742	6.159	6.066	6.125	6.321	5.679	5.012	4.585	4.005	3.682	3.629	3.360	3.469	3.455	3.381	3.130	2.988	2.896	3.545	4.996	7.890	32.94	182.0	630.4	1032	584.5	19.05
595.0	107.1	88.09	55.80	36.48	26.77	33.47	52.74	87.78	140.7	216.5	277.0	238.2	201.1	225.8	1372	5898	818.7	30.87	23.61	21.42	19.41	19.47	19.37	18.72	17.99	17.61	17.97	17.31	17.23	18.10	17.03	16.85	15.39	15.36	14.04	13.07	12.56	12.68	11.55	10.82	9.926	9.343	9.334	8.891	8.403	7.795	7.401	6.776	6.604	5.828	5.619	5.220	4.595	4.989	5.193	5.240	4.632	4.003	3.313	3.299	3.386	3.119	3.029	3.154	3.241	3.197	2.906	2.534	2.773	2.864	3.466	9.044	42.09	142.2	326.5	1020	729.6
600.0	98.40	90.76	50.82	35.50	27.56	34.23	51.81	87.85	141.1	210.5	280.2	254.8	203.7	150.8	371.3	4014	3314	71.49	22.19	19.75	18.14	17.07	16.31	15.87	15.44	14.91	15.21	15.29	14.91	15.63	14.83	14.09	13.64	13.49	12.28	11.54	10.73	10.52	9.883	9.245	8.513	8.362	7.734	7.532	7.336	6.849	6.233	6.103	5.690	5.084	4.768	4.519	4.032	4.150	4.202	4.726	4.364	3.550	3.138	3.140	2.946	2.700	2.768	2.821	3.247	3.060	2.799	2.542	2.469	2.284	2.435	3.456	10.72	33.19	75.47	401.7	1114
605.0	107.0	85.82	53.28	30.35	29.09	33.10	54.07	89.88	141.1	202.8	283.2	278.9	208.7	135.8	138.0	1542	5155	420.8	20.62	17.84	16.18	14.36	14.76	13.87	13.68	13.74	13.71	13.52	13.40	13.69	13.76	12.92	12.76	12.33	11.64	10.45	9.962	9.575	8.545	7.663	7.407	7.308	6.764	6.687	6.200	5.879	5.477	5.453	4.820	4.427	4.106	3.926	3.566	3.586	3.664	3.957	3.956	3.456	2.944	2.770	2.855	2.590	2.490	2.799	2.749	2.773	2.669	2.449	2.378	2.125	2.221	2.309	3.722	8.769	18.15	94.66	521.7
610.0	97.95	73.63	49.26	30.36	26.17	30.75	48.92	91.84	143.7	200.6	264.7	289.4	214.2	136.3	86.28	404.5	3509	2570	55.24	16.39	13.96	12.83	12.29	12.23	11.41	12.02	11.20	11.42	11.65	11.91	11.95	11.47	11.52	11.18	10.86	9.748	9.085	8.186	7.149	6.621	6.351	5.935	5.573	5.271	5.190	4.877	4.429	4.385	3.994	3.843	3.375	3.462	3.251	3.148	3.067	3.129	3.362	3.356	2.899	2.692	2.551	2.396	2.447	2.553	2.488	2.542	2.597	2.637	2.355	1.992	2.022	1.784	2.072	3.123	5.220	22.35	123.1
615.0	81.29	69.66	45.59	30.15	23.50	30.49	52.07	88.65	135.4	195.8	244.6	283.3	223.0	137.6	74.84	121.7	1003	4164	572.8	16.19	12.07	11.26	10.66	10.29	9.714	9.788	9.485	9.890	9.737	10.33	10.27	10.21	9.707	9.331	9.664	8.562	8.071	6.736	5.971	5.452	5.271	4.786	4.556	4.158	4.147	4.173	3.949	3.530	3.173	2.980	2.966	2.875	2.806	2.595	2.533	2.635	2.709	2.725	2.604	2.461	2.432	2.231	2.288	2.310	2.274	2.454	2.307	2.447	2.353	2.044	1.894	1.750	1.643	1.792	2.237	5.955	28.65
620.0	84.14	61.43	44.08	29.97	23.55	29.55	50.05	86.92	137.6	190.2	235.5	264.0	230.5	138.6	73.50	58.61	259.6	3063	2192	37.54	11.44	10.57	9.958	8.961	8.533	8.465	8.096	8.222	8.479	8.783	8.408	8.418	8.479	8.306	7.906	7.276	6.927	5.910	5.640	4.517	4.877	4.242	3.997	3.818	3.692	3.540	3.371	2.985	2.988	2.651	2.510	2.378	2.305	2.159	2.177	2.321	2.293	2.432	2.516	2.521	2.259	2.302	2.060	2.292	2.290	2.185	2.083	2.217	2.320	2.044	1.728	1.644	1.434	1.391	1.570	2.359	7.300
625.0	73.68	59.52	42.04	28.61	22.34	30.89	49.64	82.59	134.8	183.3	223.3	247.1	231.7	140.5	73.24	45.63	80.07	1245	3684	90.25	10.87	9.973	8.915	8.384	8.161	7.165	7.178	7.337	7.474	7.459	7.217	7.369	7.179	6.858	6.632	6.237	5.833	5.131	4.772	4.201	3.907	3.718	3.391	3.311	3.330	3.063	2.756	2.874	2.688	2.341	2.120	2.249	2.123	2.193	1.961	2.125	2.133	2.188	2.266	2.340	2.279	2.051	2.121	2.075	2.094	2.123	2.204	1.834	2.071	1.909	1.771	1.564	1.426	1.386	1.285	1.529	2.495
630.0	74.58	55.98	41.24	28.29	22.75	29.54	47.42	84.13	127.9	175.4	214.7	233.0	220.5	150.7	76.76	43.31	40.03	323.4	2755	1495	34.87	8.980	8.089	7.106	6.818	6.286	6.124	6.301	6.223	6.304	5.998	5.868	5.758	5.519	5.329	5.067	4.882	4.333	3.889	3.713	3.243	3.245	2.911	2.763	2.886	2.766	2.308	2.302	2.135	1.925	1.825	1.864	1.870	1.769	1.613	1.795	1.781	1.825	1.917	1.972	2.125	1.954	1.943	1.876	1.935	1.892	1.995	1.829	1.875	1.869	1.836	1.575	1.420	1.341	1.175	1.271	1.353
635.0	74.40	60.44	36.36	26.13	23.36	27.82	47.10	79.76	123.4	169.1	206.5	220.4	205.9	160.5	84.99	46.83	32.78	89.38	823.8	3105	389.3	9.840	7.380	6.690	5.581	5.708	5.361	5.205	4.783	5.201	5.042	4.998	4.701	4.562	4.348	4.226	4.004	3.613	3.430	2.850	2.886	2.522	2.657	2.319	2.264	2.190	1.916	2.019	1.869	1.690	1.506	1.604	1.538	1.437	1.463	1.484	1.572	1.629	1.499	1.675	1.936	1.849	1.818	1.766	1.899	1.708	1.890	1.685	1.773	1.708	1.784	1.611	1.486	1.273	1.210	1.218	1.129
640.0	69.11	64.89	41.81	26.48	22.08	26.21	46.41	75.12	118.3	165.9	204.0	213.0	195.5	161.0	94.04	51.74	33.66	38.61	211.9	2473	1464	20.26	6.869	6.017	5.204	5.315	4.749	4.806	4.601	4.433	4.478	4.193	4.403	3.990	3.945	3.626	3.545	3.312	2.994	2.670	2.543	2.475	2.154	2.091	2.016	1.899	1.794	1.711	1.693	1.493	1.386	1.523	1.541	1.389	1.424	1.337	1.399	1.395	1.364	1.410	1.485	1.647	1.750	1.689	1.755	1.726	1.833	1.612	1.626	1.736	1.563	1.585	1.454	1.209	1.117	1.195	1.067
645.0	81.26	55.25	39.55	23.47	21.16	28.48	45.92	77.28	112.5	157.3	196.8	207.9	190.9	155.9	104.2	54.58	35.24	27.82	62.97	1084	2659	70.30	7.302	5.923	5.202	4.874	4.401	4.623	4.165	3.882	4.216	3.806	3.730	3.697	3.676	3.398	3.096	2.826	2.659	2.547	2.220	2.192	1.846	1.923	1.860	1.790	1.658	1.533	1.585	1.353	1.253	1.260	1.436	1.242	1.411	1.293	1.330	1.245	1.344	1.240	1.524	1.550	1.601	1.573	1.678	1.628	1.842	1.577	1.621	1.528	1.552	1.559	1.426	1.222	1.249	1.105	1.002
650.0	82.39	56.30	39.29	26.26	23.33	27.47	44.40	72.06	109.1	157.6	189.8	207.3	185.6	152.2	111.3	58.47	38.95	27.77	29.41	308.1	2720	514.7	9.276	6.016	4.784	4.566	4.160	4.190	3.999	3.759	4.086	3.547	3.094	3.596	3.381	3.029	2.858	2.709	2.300	2.335	1.875	1.953	1.761	1.912	1.667	1.689	1.474	1.501	1.421	1.128	1.137	1.282	1.218	1.147	1.135	1.190	1.304	1.234	1.255	1.286	1.360	1.503	1.576	1.536	1.636	1.716	1.711	1.777	1.569	1.504	1.454	1.348	1.335	1.175	1.314	1.178	1.065
