Sample:	'1
File name:	H2025091001ÅË×¯¶þ´åÇÅ.FD3
Run date:	'15:03:30, 09/11/2025
Operator:	Administrator
Comment:	'

Instrument
Model:	F-2700 FL Spectrophotometer
Serial number:	23C7-003
ROM Version:	4J14000 07

Instrument parameters
Measurement type:	3-D scan
Data mode:	Fluorescence
EX  Start WL:	220.0 nm
EX  End WL:	600.0 nm
EX Sampling interval:	5.0 nm
EM  Start WL:	230.0 nm
EM  End WL:	650.0 nm
EM Sampling interval:	5.0 nm
Scan speed:	12000 nm/min
EX Slit:	5.0 nm
EM Slit:	5.0 nm
PMT Voltage:	700 V
Response:	Auto 
Corrected spectra:	Off
Contour interval:	50.000

Peak integration
Integration method:	Rectangular
Sensitivity:	1
Threshold:	1.000

Peaks
No.	ApexEX/EM(nm)	Height(Data)
1	225.0/320.0	375.1
2	225.0/585.0	39.38
3	225.0/600.0	39.15
4	230.0/310.0	379.5
5	230.0/345.0	446.0
6	230.0/570.0	39.83
7	230.0/595.0	36.97
8	235.0/510.0	200.9
9	245.0/395.0	564.6
10	245.0/405.0	572.3
11	245.0/535.0	151.9
12	250.0/410.0	576.3
13	250.0/545.0	122.9
14	255.0/280.0	364.4
15	255.0/415.0	570.2
16	255.0/560.0	106.5
17	260.0/285.0	388.0
18	260.0/570.0	92.02
19	265.0/585.0	91.61
20	270.0/300.0	1028
21	270.0/405.0	557.0
22	270.0/595.0	92.41
23	275.0/305.0	1258
24	275.0/380.0	554.3
25	275.0/395.0	556.3
26	275.0/610.0	89.37
27	280.0/310.0	1135
28	280.0/385.0	548.5
29	280.0/620.0	75.15
30	285.0/635.0	47.10
31	300.0/335.0	437.5
32	305.0/345.0	401.5
33	310.0/350.0	367.1
34	315.0/355.0	378.5
35	320.0/360.0	393.5
36	325.0/370.0	381.2
37	335.0/380.0	367.6
38	405.0/470.0	80.61
39	445.0/525.0	19.46
40	505.0/275.0	2.065
41	510.0/280.0	2.484
42	515.0/285.0	2.519
43	530.0/290.0	2.948
44	545.0/300.0	5.700
45	550.0/305.0	6.463
46	560.0/310.0	5.961
47	570.0/315.0	5.292
48	575.0/290.0	42.69
49	575.0/320.0	4.750
50	585.0/325.0	3.967

Data points
	220.0	225.0	230.0	235.0	240.0	245.0	250.0	255.0	260.0	265.0	270.0	275.0	280.0	285.0	290.0	295.0	300.0	305.0	310.0	315.0	320.0	325.0	330.0	335.0	340.0	345.0	350.0	355.0	360.0	365.0	370.0	375.0	380.0	385.0	390.0	395.0	400.0	405.0	410.0	415.0	420.0	425.0	430.0	435.0	440.0	445.0	450.0	455.0	460.0	465.0	470.0	475.0	480.0	485.0	490.0	495.0	500.0	505.0	510.0	515.0	520.0	525.0	530.0	535.0	540.0	545.0	550.0	555.0	560.0	565.0	570.0	575.0	580.0	585.0	590.0	595.0	600.0
230.0	28.38	503.9	1910	862.2	41.96	6.294	5.106	5.052	3.890	3.264	3.398	2.831	2.963	2.419	1.948	2.041	1.562	1.542	1.378	1.190	1.176	1.073	1.094	0.960	0.892	0.785	0.721	0.731	0.681	0.651	0.654	0.600	0.562	0.514	0.514	0.408	0.499	0.448	0.553	0.484	0.466	0.457	0.521	0.393	0.358	0.369	0.676	3.111	6.807	6.145	2.579	0.644	0.291	0.278	0.278	0.252	0.278	0.296	0.283	0.288	0.281	0.296	0.279	0.270	0.259	0.289	0.280	0.253	0.287	0.301	0.246	0.255	0.271	0.261	0.250	0.243	0.272
235.0	51.94	144.0	967.3	2257	468.1	73.79	6.331	5.096	4.343	3.725	4.167	2.903	2.933	2.512	2.068	1.774	1.687	1.448	1.345	1.367	1.029	0.977	1.111	0.999	0.721	0.837	0.726	0.717	0.751	0.687	0.687	0.626	0.570	0.521	0.581	0.441	0.480	0.513	0.540	0.487	0.434	0.495	0.420	0.572	0.458	0.452	0.389	1.011	2.422	4.658	7.439	8.426	4.637	1.261	0.277	0.254	0.302	0.303	0.255	0.285	0.291	0.270	0.312	0.308	0.263	0.304	0.238	0.281	0.246	0.274	0.241	0.316	0.279	0.398	0.278	0.297	0.244
240.0	68.29	85.90	260.6	1483	2646	397.3	32.45	8.486	5.120	4.104	4.271	2.977	3.414	2.479	2.432	1.905	1.889	1.657	1.487	1.363	1.185	1.011	1.038	0.864	0.825	0.947	0.766	0.748	0.786	0.653	0.599	0.581	0.564	0.482	0.550	0.412	0.563	0.465	0.542	0.478	0.442	0.436	0.435	0.486	0.420	0.590	0.411	0.576	0.772	1.420	3.678	9.030	12.51	9.173	3.594	0.639	0.321	0.317	0.236	0.306	0.275	0.245	0.273	0.385	0.255	0.297	0.214	0.241	0.270	0.293	0.254	0.351	0.253	0.345	0.282	0.296	0.244
245.0	50.11	111.5	103.8	430.6	2170	2864	306.3	17.00	6.423	4.380	4.446	3.541	3.799	2.705	2.482	2.287	1.737	1.650	1.494	1.381	1.298	1.177	1.025	0.892	0.946	0.809	0.862	0.646	0.764	0.654	0.753	0.574	0.570	0.570	0.444	0.534	0.498	0.430	0.574	0.497	0.484	0.483	0.474	0.421	0.376	0.581	0.562	0.604	0.558	0.581	1.035	3.106	7.981	13.79	14.82	7.936	2.354	0.424	0.297	0.299	0.397	0.254	0.303	0.322	0.306	0.210	0.255	0.353	0.280	0.261	0.310	0.280	0.306	0.320	0.250	0.344	0.252
250.0	27.60	76.99	143.0	168.3	614.7	2051	2858	1142	83.25	6.628	5.279	4.228	3.651	3.209	2.662	2.326	1.849	1.628	1.388	1.425	1.377	1.213	1.028	0.961	1.000	0.837	0.862	0.810	0.850	0.744	0.759	0.650	0.593	0.632	0.488	0.543	0.478	0.413	0.662	0.485	0.422	0.468	0.418	0.374	0.319	0.425	0.451	0.596	0.726	0.719	0.631	1.001	2.117	4.529	8.754	12.41	15.54	13.32	7.433	2.433	0.457	0.298	0.276	0.285	0.285	0.235	0.276	0.256	0.282	0.265	0.294	0.238	0.315	0.281	0.275	0.290	0.303
255.0	21.47	34.40	81.87	196.9	217.0	486.3	1640	4504	1626	98.36	7.518	5.605	4.713	3.731	3.124	2.485	1.814	1.838	1.610	1.533	1.302	1.216	1.096	1.150	1.083	0.963	0.926	0.872	0.703	0.870	0.761	0.695	0.575	0.557	0.570	0.486	0.446	0.414	0.608	0.500	0.461	0.429	0.494	0.430	0.348	0.361	0.359	0.388	0.420	0.631	0.912	1.015	0.927	1.372	2.223	3.170	5.852	13.69	23.48	22.20	11.17	2.382	0.402	0.285	0.291	0.255	0.325	0.257	0.332	0.287	0.309	0.246	0.280	0.290	0.333	0.275	0.345
260.0	21.04	22.24	33.17	142.0	220.8	155.2	429.9	2821	5004	1289	56.44	7.072	5.535	4.368	3.456	2.969	2.004	1.895	1.632	1.674	1.372	1.130	1.137	1.144	1.116	0.929	0.998	0.953	0.794	0.807	0.794	0.730	0.754	0.647	0.667	0.479	0.429	0.478	0.708	0.512	0.463	0.477	0.419	0.453	0.361	0.339	0.328	0.339	0.306	0.425	0.598	1.104	1.319	0.952	0.836	0.991	1.708	3.886	10.78	23.34	28.14	21.24	8.319	1.163	0.314	0.348	0.336	0.350	0.287	0.296	0.266	0.274	0.302	0.272	0.301	0.251	0.361
265.0	20.46	18.25	16.75	59.48	206.0	186.8	126.1	793.2	3842	5386	969.4	21.87	7.049	5.323	3.536	3.206	2.381	1.829	1.750	1.790	1.584	1.319	1.251	1.136	1.108	0.976	1.016	0.839	0.821	0.934	0.878	0.671	0.680	0.590	0.508	0.473	0.430	0.565	0.688	0.485	0.468	0.470	0.430	0.403	0.341	0.417	0.356	0.333	0.334	0.358	0.350	0.552	1.107	1.504	1.018	0.740	0.658	1.195	2.820	7.069	17.14	31.86	27.88	17.61	4.264	0.513	0.341	0.295	0.346	0.321	0.340	0.284	0.349	0.252	0.316	0.320	0.289
270.0	25.97	20.00	14.45	23.21	81.36	212.1	199.4	219.9	1066	3847	5919	2282	60.50	7.521	5.022	4.113	2.790	2.300	2.064	1.843	1.559	1.390	1.312	1.200	1.060	1.061	0.998	0.904	0.793	0.815	0.821	0.703	0.656	0.572	0.458	0.464	0.497	0.552	0.625	0.518	0.457	0.465	0.511	0.453	0.390	0.468	0.349	0.383	0.312	0.326	0.300	0.356	0.536	0.886	1.198	1.531	1.306	0.893	0.960	1.954	4.359	9.759	17.23	28.00	29.51	28.39	11.53	3.609	0.563	0.354	0.344	0.312	0.303	0.282	0.331	0.313	0.326
275.0	36.32	28.00	22.63	18.97	30.71	81.69	273.8	251.5	285.4	927.7	3188	8334	1098	68.83	7.163	5.809	3.451	2.957	2.721	1.945	1.752	1.496	1.470	1.188	1.126	1.079	1.214	0.892	0.965	0.876	0.739	0.833	0.706	0.580	0.665	0.553	0.541	0.580	0.780	0.542	0.495	0.610	0.559	0.450	0.456	0.440	0.371	0.358	0.337	0.326	0.252	0.306	0.320	0.437	0.580	0.846	1.468	2.065	1.565	1.025	1.335	2.480	4.342	6.924	10.98	26.91	46.71	27.95	17.24	3.502	0.446	0.381	0.326	0.282	0.325	0.298	0.366
280.0	48.06	45.89	40.90	25.01	26.07	37.00	150.3	364.4	209.8	265.1	870.8	5241	8373	862.9	36.21	7.731	4.242	3.570	2.513	2.091	1.708	1.800	1.405	1.384	1.259	1.119	1.242	0.991	1.066	0.855	0.732	0.723	0.761	0.716	0.596	0.625	0.531	0.589	0.751	0.630	0.531	0.588	0.507	0.457	0.481	0.472	0.414	0.492	0.401	0.377	0.289	0.287	0.313	0.427	0.426	0.459	0.728	1.601	2.484	1.847	1.088	1.004	1.477	1.936	3.037	7.352	19.52	38.95	58.16	25.98	10.91	1.276	0.377	0.360	0.334	0.329	0.321
285.0	74.50	86.50	67.81	46.89	34.13	33.23	72.12	275.0	388.0	185.0	311.1	1543	6858	7072	574.5	16.98	5.649	4.354	3.084	2.357	1.921	1.815	1.594	1.463	1.290	1.131	1.218	1.154	0.928	0.872	0.848	0.757	0.764	0.655	0.614	0.628	0.552	0.602	0.697	0.597	0.588	0.579	0.487	0.466	0.570	0.556	0.561	0.502	0.499	0.489	0.310	0.395	0.460	0.407	0.405	0.432	0.503	0.865	1.458	2.519	2.387	1.451	1.133	1.156	1.365	2.313	5.122	11.96	30.77	54.33	59.90	21.60	5.031	0.595	0.400	0.438	0.329
290.0	126.6	168.9	150.5	94.38	59.35	51.89	72.89	156.1	387.5	499.0	365.5	628.8	2055	5979	6796	2099	34.75	5.929	4.095	3.190	2.532	2.066	1.719	1.547	1.424	1.338	1.231	1.190	1.082	0.979	0.857	0.808	0.676	0.693	0.712	0.713	0.601	0.678	0.766	0.723	0.594	0.611	0.656	0.561	0.627	0.726	0.700	0.737	0.723	0.642	0.533	0.502	0.510	0.502	0.455	0.505	0.533	0.664	0.899	1.408	2.006	2.735	2.948	2.292	1.777	1.911	2.589	4.104	8.425	16.57	31.01	42.69	38.93	40.47	13.23	4.752	0.701
295.0	188.5	257.7	251.7	154.0	89.91	81.83	105.1	157.2	280.6	609.4	820.1	654.6	881.4	1604	3746	9999.9	607.6	40.96	6.044	4.297	3.328	2.607	1.953	1.809	1.535	1.345	1.380	1.278	1.071	1.175	1.017	0.936	0.882	0.753	0.772	0.707	0.679	0.792	0.845	0.797	0.563	0.655	0.685	0.613	0.768	0.762	0.939	1.075	1.079	0.958	0.655	0.691	0.638	0.560	0.556	0.643	0.725	0.751	0.933	1.113	1.511	1.838	2.837	4.262	4.360	3.292	2.810	3.178	4.216	5.714	8.499	10.67	13.45	34.70	61.91	67.56	20.69
300.0	221.9	322.3	313.4	201.2	118.2	99.52	124.7	183.2	288.5	523.6	1028	941.7	730.1	666.9	1035	7030	8571	499.7	22.75	5.645	4.146	2.737	2.369	2.008	1.788	1.588	1.501	1.367	1.075	1.145	1.048	0.925	0.833	0.843	0.835	0.695	0.663	0.773	0.910	0.815	0.712	0.689	0.747	0.686	0.795	0.890	0.954	1.240	1.239	0.938	0.752	0.774	0.767	0.676	0.692	0.636	0.795	0.912	0.987	1.189	1.426	1.820	2.371	3.329	4.985	5.700	4.277	3.663	3.754	3.862	3.767	3.791	4.049	9.222	23.23	59.63	77.62
305.0	249.3	349.8	367.9	225.8	139.1	115.9	151.5	207.3	328.1	515.6	911.0	1258	847.8	510.1	377.9	1904	6947	4414	357.2	10.85	5.040	3.311	2.684	2.216	1.882	1.505	1.440	1.285	1.138	1.228	1.128	1.018	0.877	0.877	0.895	0.697	0.716	0.912	1.046	0.881	0.764	0.729	0.798	0.695	0.871	0.969	1.065	1.313	1.326	0.959	0.874	0.798	0.788	0.658	0.785	0.741	0.820	0.994	1.077	1.344	1.644	1.999	2.241	3.039	3.829	5.189	6.463	5.665	4.399	3.665	3.097	2.391	2.000	2.884	5.960	16.08	36.01
310.0	266.4	374.9	379.5	240.9	155.3	133.0	168.2	234.4	347.1	532.9	797.1	1112	1135	602.3	263.5	515.7	1834	4773	5615	1465	24.70	5.005	3.575	2.784	2.178	1.920	1.651	1.407	1.295	1.269	1.219	1.031	0.864	0.846	0.824	0.738	0.724	0.755	1.046	0.847	0.826	0.774	0.827	0.761	0.867	1.065	1.095	1.403	1.346	1.196	0.927	0.896	0.838	0.790	0.807	0.818	0.886	1.110	1.261	1.466	1.765	2.033	2.305	2.970	3.540	4.067	4.873	5.710	5.961	5.190	3.641	2.404	1.796	1.768	2.135	4.327	8.835
315.0	250.9	369.1	374.4	250.7	158.1	146.5	179.9	239.7	343.5	512.2	732.2	891.9	973.0	858.1	322.9	226.5	478.6	1131	3172	7804	435.6	28.05	5.021	3.472	3.078	2.319	1.809	1.667	1.485	1.353	1.267	1.125	0.940	0.805	0.791	0.724	0.792	0.829	1.108	0.815	0.796	0.770	0.827	0.759	0.850	1.212	1.114	1.423	1.353	1.215	0.936	0.909	0.949	0.887	0.857	0.816	0.957	1.128	1.289	1.463	1.806	1.989	2.489	2.946	3.327	3.693	3.872	4.343	4.593	5.164	5.292	3.721	2.187	1.744	1.355	1.923	2.809
320.0	247.6	375.1	372.1	259.6	165.4	148.3	180.8	240.2	336.4	489.0	685.6	807.8	804.4	809.4	514.8	201.2	192.0	310.0	803.9	4686	7030	372.6	16.39	4.339	3.683	2.608	2.297	1.853	1.462	1.433	1.121	1.184	0.942	0.767	0.978	0.757	0.773	0.912	1.157	0.867	0.742	0.823	0.913	0.721	0.896	1.075	1.128	1.475	1.326	1.134	0.875	0.948	0.939	0.865	0.876	1.075	1.034	1.198	1.259	1.455	1.885	2.017	2.337	2.741	3.079	3.487	3.574	3.798	3.645	4.053	4.292	4.750	3.988	2.242	1.378	1.426	1.424
325.0	236.5	360.6	398.7	274.7	173.3	158.5	183.8	244.8	334.7	469.5	636.2	746.1	732.8	629.7	629.6	311.6	149.7	138.1	224.0	1232	5647	5906	281.2	8.069	4.385	3.126	2.444	2.191	1.616	1.506	1.262	1.370	1.019	0.840	0.927	0.831	0.745	0.955	1.075	0.951	0.784	0.820	0.861	0.796	0.938	0.962	1.205	1.398	1.483	1.259	0.928	1.079	0.952	0.898	0.884	0.933	1.049	1.225	1.340	1.485	1.784	1.922	2.225	2.815	3.014	3.512	3.444	3.486	3.527	3.575	3.378	3.407	3.918	3.967	2.429	1.494	1.188
330.0	239.4	380.1	413.1	308.1	208.7	176.6	192.0	246.9	325.1	443.3	595.1	686.6	672.9	540.2	473.0	459.9	274.7	132.0	114.6	321.4	1475	4395	4617	1258	21.31	4.320	3.003	2.351	1.795	1.725	1.369	1.404	1.070	0.942	0.878	0.806	0.767	0.867	1.206	0.937	0.837	0.878	0.859	0.846	0.898	0.979	1.200	1.541	1.533	1.390	1.039	1.121	1.086	1.021	0.990	0.984	1.129	1.217	1.303	1.424	1.717	1.908	2.153	2.477	2.829	3.196	3.334	3.281	3.226	3.307	3.077	2.836	2.757	3.165	3.216	3.025	2.396
335.0	229.0	382.9	429.9	347.3	251.8	210.6	215.8	249.9	316.4	420.6	546.1	622.9	627.0	517.6	400.0	365.9	437.5	241.4	120.1	141.9	380.0	1033	2590	6682	1946	26.58	4.344	3.336	2.369	2.046	1.915	1.445	1.216	1.067	0.931	0.839	0.869	0.883	1.318	0.908	0.862	0.971	0.941	0.747	0.803	1.158	1.258	1.521	1.575	1.448	1.183	1.242	1.290	1.087	1.069	1.031	1.156	1.199	1.290	1.390	1.544	1.968	2.084	2.386	2.637	3.016	2.968	2.916	3.197	3.127	2.631	2.619	2.677	2.510	2.447	2.603	3.479
340.0	226.2	370.3	439.4	367.9	285.3	234.1	235.0	255.4	315.1	405.9	527.2	593.2	597.5	505.1	397.4	329.1	380.5	386.5	176.9	123.9	154.1	283.8	666.0	3931	6631	340.8	16.82	4.313	2.964	2.158	1.861	1.506	1.327	1.195	0.936	0.882	0.884	0.810	1.259	0.936	0.911	0.928	0.950	0.761	0.825	1.000	1.279	1.550	1.608	1.501	1.320	1.452	1.310	1.228	1.216	1.169	1.354	1.224	1.440	1.361	1.602	1.779	2.147	2.315	2.641	2.601	2.973	2.821	3.150	3.088	2.818	2.692	2.668	2.330	2.210	2.445	2.360
345.0	235.5	358.2	446.0	390.8	301.5	259.4	253.6	276.7	322.8	403.1	496.7	557.6	572.8	503.1	411.5	334.7	313.9	401.5	301.0	150.6	127.5	135.6	202.2	1040	4871	5286	280.0	8.224	3.547	2.901	2.162	1.804	1.279	1.109	1.000	0.790	0.795	0.908	1.348	1.017	0.835	0.883	0.966	0.754	0.887	1.053	1.206	1.465	1.692	1.601	1.430	1.582	1.430	1.413	1.403	1.143	1.524	1.399	1.502	1.572	1.747	1.708	1.961	2.243	2.543	2.532	2.713	2.867	3.006	3.037	2.921	2.709	2.841	2.471	2.325	2.426	2.180
350.0	221.4	353.4	441.1	415.0	346.5	303.9	291.5	300.8	332.4	401.2	473.1	531.8	546.5	501.2	424.6	361.6	321.0	328.2	367.1	288.7	173.2	136.2	127.8	289.8	1268	3551	3833	1179	20.14	3.933	2.500	2.054	1.543	1.237	1.089	0.932	0.875	1.029	1.403	1.153	0.889	0.924	0.992	0.773	0.844	1.068	1.296	1.416	1.645	1.625	1.430	1.634	1.600	1.584	1.566	1.433	1.520	1.535	1.483	1.628	1.784	1.830	2.051	2.214	2.397	2.551	2.619	2.735	2.847	2.938	2.888	2.771	2.772	2.618	2.514	2.550	2.360
355.0	207.6	340.4	430.0	421.6	390.7	349.0	343.0	341.3	359.4	414.8	469.8	515.1	528.5	499.1	448.9	397.2	357.0	331.4	326.7	378.5	301.9	184.5	143.2	150.7	340.2	838.8	1940	5320	1875	25.95	4.199	2.555	1.889	1.749	1.207	1.027	0.939	1.061	1.405	1.041	0.889	0.890	1.025	0.741	0.892	1.045	1.222	1.402	1.621	1.488	1.457	1.685	1.763	1.684	1.706	1.674	1.785	1.768	1.782	1.707	1.961	2.016	2.083	2.331	2.420	2.472	2.582	2.563	2.787	2.747	2.907	2.799	2.642	2.762	2.794	2.636	2.512
360.0	201.8	338.9	428.7	436.2	423.9	383.9	385.7	371.3	386.5	430.7	478.8	517.6	528.9	505.6	465.1	418.7	389.2	361.6	331.7	353.4	393.5	257.0	173.3	141.9	152.6	238.0	495.2	2873	5494	330.4	17.78	3.502	2.463	1.861	1.267	1.054	1.051	1.096	1.687	1.207	1.000	0.862	1.109	0.708	0.908	1.052	1.196	1.543	1.569	1.658	1.522	1.738	1.858	1.738	1.798	1.777	1.799	1.905	1.922	1.938	1.920	2.059	2.154	2.373	2.396	2.365	2.686	2.627	2.800	2.845	2.683	2.808	2.659	2.855	3.038	2.844	2.828
365.0	213.0	335.7	437.0	455.9	435.1	423.3	414.7	401.9	414.2	456.1	493.2	523.6	527.3	514.2	479.7	446.9	412.3	386.7	358.0	342.5	386.0	359.4	221.6	162.2	129.9	120.1	157.1	743.6	3662	4777	283.8	8.899	3.274	1.905	1.579	1.257	1.107	1.217	1.839	1.228	0.945	1.009	1.167	0.782	0.984	1.143	1.185	1.528	1.754	1.660	1.650	1.892	2.002	1.898	1.999	1.968	2.025	1.982	2.050	2.221	2.081	2.092	2.262	2.311	2.507	2.491	2.670	2.613	2.714	2.668	2.886	2.834	2.750	2.907	3.082	2.962	3.061
370.0	213.6	328.8	446.6	477.3	473.8	466.7	454.1	444.6	449.0	476.3	511.6	529.3	531.2	518.5	495.8	470.8	439.3	420.7	396.6	369.9	364.2	381.2	333.7	218.8	153.6	117.9	101.6	212.3	933.7	2933	3422	1145	19.31	3.251	2.157	1.589	1.272	1.331	1.838	1.350	1.125	1.120	1.145	0.838	0.916	1.060	1.240	1.510	1.689	1.703	1.688	2.063	1.982	2.112	2.155	2.129	2.215	2.087	2.107	2.258	2.229	2.298	2.480	2.412	2.437	2.499	2.720	2.691	2.718	2.678	2.914	2.869	2.958	3.010	3.014	2.993	3.315
375.0	220.8	340.0	452.0	493.8	495.7	499.6	488.3	481.2	481.0	499.0	531.8	539.1	542.5	525.7	506.9	487.8	464.5	453.0	430.8	404.8	380.4	362.1	367.5	322.9	203.9	146.1	112.8	113.2	254.7	689.6	1519	4509	1835	24.84	3.183	2.053	1.535	1.575	1.982	1.528	1.218	1.298	1.207	0.869	0.915	1.012	1.337	1.494	1.618	1.616	1.763	1.944	2.084	2.204	2.141	2.180	2.363	2.210	2.386	2.573	2.443	2.303	2.345	2.674	2.557	2.503	2.866	2.941	2.528	2.805	2.835	2.900	2.953	3.163	3.014	3.267	3.173
380.0	217.2	346.6	449.0	506.0	518.3	518.8	516.7	506.1	503.5	518.3	540.4	554.3	543.9	531.8	513.1	490.2	475.3	463.7	447.5	423.1	397.5	366.1	348.5	367.6	270.8	174.9	134.7	107.9	115.9	194.3	381.0	2160	4560	1293	17.09	2.717	1.853	1.791	2.530	1.669	1.384	1.284	1.182	0.803	0.969	1.077	1.295	1.507	1.556	1.655	1.609	2.109	2.187	2.252	2.096	2.271	2.316	2.356	2.502	2.511	2.371	2.465	2.590	2.520	2.527	2.586	2.569	2.806	2.828	2.895	2.788	2.879	3.213	3.074	3.162	3.299	3.378
385.0	221.0	349.2	463.1	520.1	530.5	534.7	540.1	512.3	519.7	520.3	545.5	548.1	548.5	532.0	512.3	495.4	483.7	471.9	460.3	436.3	410.3	378.1	346.0	346.7	334.0	220.7	155.9	121.5	98.63	95.29	120.7	545.7	2636	4012	251.1	9.496	2.419	2.315	2.566	1.813	1.516	1.316	1.351	0.909	1.001	1.102	1.265	1.418	1.718	1.652	1.620	2.101	2.201	2.281	2.337	2.329	2.411	2.253	2.506	2.489	2.396	2.416	2.530	2.618	2.687	2.549	2.733	2.729	2.934	2.821	2.748	3.000	3.088	3.049	3.216	3.265	3.393
390.0	224.2	353.6	461.7	513.0	538.3	558.3	553.3	538.2	537.8	536.2	553.7	553.1	541.0	529.7	511.0	494.9	484.8	474.6	463.3	444.3	423.9	392.6	358.7	330.2	324.2	292.8	207.0	149.5	116.9	93.82	78.71	157.5	654.6	2065	2411	1035	16.92	3.774	3.741	2.446	1.715	1.491	1.469	1.065	0.999	1.212	1.268	1.467	1.773	1.644	1.748	2.183	2.234	2.383	2.396	2.437	2.576	2.557	2.573	2.588	2.541	2.635	2.438	2.701	2.649	2.564	2.616	2.611	2.753	2.890	2.893	2.816	3.064	3.247	3.251	3.193	3.558
395.0	224.2	352.5	460.9	523.5	536.6	564.6	556.7	554.1	544.4	540.9	555.0	556.3	534.8	526.3	508.4	489.5	479.8	469.1	464.8	445.5	428.9	405.7	372.8	338.4	310.4	298.7	282.4	196.0	145.2	116.1	88.95	85.42	179.7	484.4	902.7	3060	1583	26.55	6.903	3.325	2.297	1.770	1.601	1.064	1.008	1.219	1.296	1.502	1.818	1.691	1.747	2.246	2.258	2.479	2.390	2.613	2.649	2.461	2.690	2.671	2.502	2.626	2.640	2.586	2.646	2.646	2.486	2.662	2.698	2.821	2.920	2.827	2.948	3.172	3.129	3.383	3.408
400.0	234.1	360.2	462.1	517.7	548.6	560.8	569.2	562.1	555.8	554.7	555.4	549.7	533.6	522.0	506.9	484.1	471.3	465.7	456.1	445.2	428.5	407.8	378.9	350.6	315.5	288.8	296.4	250.5	173.3	135.7	103.8	79.72	82.78	136.8	226.0	1284	3250	1654	25.26	4.733	2.907	1.979	1.643	1.056	1.098	1.264	1.338	1.582	1.731	1.682	1.791	2.172	2.154	2.459	2.409	2.522	2.510	2.548	2.614	2.833	2.560	2.597	2.678	2.804	2.556	2.618	2.673	2.534	2.647	2.900	2.883	2.942	3.006	3.167	3.077	3.381	3.459
405.0	218.9	346.5	469.8	519.2	549.0	572.3	571.8	562.7	553.6	548.3	557.0	544.2	533.7	515.0	500.1	471.5	465.1	461.8	449.3	437.3	426.2	403.9	380.9	356.3	322.0	291.2	278.6	283.2	214.1	153.6	119.0	88.70	68.95	65.39	74.40	317.4	1614	5217	1533	16.37	3.974	2.274	1.838	1.173	1.142	1.142	1.411	1.575	1.740	1.692	1.781	2.166	2.178	2.455	2.541	2.655	2.485	2.649	2.591	2.873	2.496	2.804	2.737	2.706	2.540	2.714	2.596	2.694	2.623	2.905	2.800	3.062	3.101	2.976	3.096	3.244	3.177
410.0	223.5	338.1	461.0	516.7	544.9	566.3	576.3	569.1	557.2	549.1	549.5	531.9	521.8	505.1	478.1	461.5	447.8	446.3	436.3	424.3	413.1	396.3	380.2	358.1	326.6	297.8	275.5	266.0	256.9	198.1	141.6	105.7	78.37	59.68	48.85	92.50	392.0	2274	7562	2785	95.00	3.877	2.624	1.312	1.252	1.365	1.401	1.587	1.730	1.805	1.787	2.123	2.279	2.431	2.394	2.455	2.543	2.569	2.626	2.629	2.594	2.650	2.690	2.731	2.612	2.492	2.545	2.601	2.704	2.674	2.786	2.792	2.844	2.948	3.059	3.101	3.242
415.0	219.3	335.8	431.3	517.4	541.5	543.1	567.7	570.2	551.0	544.6	543.2	529.6	504.4	487.2	464.9	439.8	431.6	425.2	414.7	406.1	397.7	385.6	369.8	351.7	329.4	301.6	275.8	254.8	248.2	241.6	177.6	121.7	92.45	68.49	50.98	49.10	107.0	538.0	2377	6303	1824	26.30	4.182	1.592	1.380	1.448	1.359	1.648	1.671	1.640	1.751	2.156	2.256	2.392	2.357	2.434	2.664	2.651	2.724	2.703	2.757	2.702	2.663	2.611	2.305	2.402	2.556	2.760	2.523	2.474	2.561	2.816	2.750	2.723	3.015	2.880	3.044
420.0	227.5	338.1	434.4	502.8	528.2	543.5	565.9	563.0	544.3	531.7	529.7	513.2	488.7	474.7	447.7	421.6	412.4	405.9	398.0	391.7	385.1	373.6	360.0	346.7	325.6	302.2	280.0	254.9	237.0	239.4	210.0	141.2	102.1	77.01	56.13	43.46	47.02	152.9	570.1	2402	5978	1628	20.76	2.167	1.672	1.675	1.520	1.553	1.671	1.558	1.668	1.941	2.309	2.280	2.305	2.311	2.562	2.558	2.623	2.564	2.610	2.640	2.615	2.561	2.440	2.340	2.614	2.611	2.319	2.397	2.621	2.702	2.538	2.827	2.768	2.943	2.958
425.0	222.0	324.3	413.3	484.6	526.3	537.8	548.6	551.1	542.0	536.2	526.4	503.5	478.1	457.5	430.9	407.3	394.3	388.8	381.2	378.1	366.3	359.6	344.6	336.5	318.6	299.4	277.1	256.2	235.5	224.9	221.6	167.7	112.8	84.08	62.51	47.05	37.21	68.39	160.4	565.5	2704	5441	1295	10.61	2.106	1.743	1.534	1.686	1.679	1.710	1.581	2.001	2.170	2.207	2.311	2.390	2.489	2.441	2.482	2.667	2.697	2.502	2.583	2.477	2.531	2.210	2.413	2.499	2.446	2.539	2.658	2.510	2.559	2.508	2.582	2.777	2.875
430.0	261.3	312.9	405.1	465.0	504.8	517.3	535.5	544.6	535.1	527.6	513.6	495.9	468.7	441.7	414.6	388.3	375.5	368.6	363.6	356.5	349.9	343.9	332.8	325.1	311.3	292.0	274.7	256.7	238.1	218.6	205.8	188.6	141.5	96.84	71.66	54.76	41.70	54.11	71.52	143.6	632.5	2260	4361	897.0	15.99	2.755	1.906	1.706	1.708	1.707	1.629	1.982	2.283	2.145	2.211	2.402	2.492	2.531	2.402	2.515	2.602	2.402	2.695	2.542	2.434	2.371	2.423	2.412	2.490	2.366	2.550	2.621	2.567	2.439	2.460	2.603	2.647
435.0	413.4	309.9	398.0	447.8	486.0	502.4	524.5	534.1	527.2	521.4	507.3	482.4	459.3	421.9	399.9	370.2	357.9	350.1	342.3	334.3	331.1	325.1	316.5	310.0	300.7	283.8	270.2	253.9	237.0	217.8	197.2	175.6	164.6	119.0	82.03	63.88	48.66	58.45	56.91	53.01	155.5	514.4	1268	1769	1339	22.72	2.609	2.034	1.852	1.790	1.530	1.989	2.176	2.140	2.266	2.277	2.443	2.472	2.419	2.556	2.508	2.464	2.617	2.375	2.443	2.447	2.301	2.488	2.204	2.185	2.399	2.316	2.345	2.333	2.363	2.628	2.589
440.0	579.1	369.8	380.9	440.5	478.2	500.1	512.4	527.2	512.4	512.2	500.2	477.2	444.3	409.2	381.8	358.3	346.0	336.9	326.3	321.2	313.9	309.0	305.4	298.7	292.4	277.4	264.9	247.9	235.1	217.2	195.4	169.2	159.4	139.1	94.44	70.77	54.35	63.91	57.73	36.03	51.23	126.8	295.2	648.3	2074	1014	14.98	2.484	2.212	1.908	1.644	1.909	1.982	2.007	2.169	2.140	2.340	2.419	2.417	2.375	2.452	2.358	2.543	2.566	2.532	2.460	2.251	2.524	2.300	2.177	2.345	2.423	2.302	2.365	2.262	2.287	2.501
445.0	573.5	584.7	376.2	432.0	454.8	492.7	497.9	516.7	504.9	499.8	498.0	462.0	432.6	394.9	366.0	344.4	332.8	320.7	314.4	308.9	299.6	295.5	294.7	286.5	283.5	269.2	255.9	245.4	234.4	214.4	192.7	167.4	148.2	143.6	111.5	76.67	59.62	66.99	59.87	34.39	29.86	42.30	77.07	156.5	902.3	2185	191.3	10.26	2.362	1.980	1.737	1.901	2.108	2.034	2.067	2.197	2.278	2.371	2.574	2.435	2.490	2.421	2.479	2.405	2.386	2.312	2.292	2.259	2.139	2.127	2.266	2.250	2.296	2.254	2.275	2.328	2.502
450.0	345.2	950.5	553.6	405.9	425.5	457.5	473.4	489.6	489.1	480.5	474.9	444.0	409.8	379.3	347.4	320.9	309.6	296.5	292.0	285.5	280.8	274.5	273.1	267.1	261.0	250.3	241.9	233.3	224.1	210.1	189.4	165.6	142.0	128.1	118.9	92.48	65.68	68.23	59.69	36.34	28.77	26.24	30.17	44.29	214.6	897.5	1333	756.1	13.40	2.387	1.865	1.930	2.067	1.990	2.047	2.072	2.179	2.217	2.336	2.349	2.350	2.405	2.435	2.377	2.315	2.199	2.242	2.168	2.127	2.125	2.181	2.147	2.114	2.237	2.184	2.202	2.261
455.0	220.1	854.1	1136	409.2	408.3	431.0	446.9	462.6	460.9	455.6	444.1	416.9	383.2	354.2	321.8	298.0	281.2	269.9	264.5	260.3	253.2	250.4	250.5	246.4	241.4	232.6	225.3	218.3	209.5	200.4	182.4	159.4	138.8	118.9	108.6	102.0	77.53	68.86	59.07	38.55	30.94	25.13	21.76	21.27	56.48	207.2	410.1	1405	1005	16.15	2.398	2.036	2.115	1.875	2.029	2.068	1.938	2.051	2.039	2.203	2.252	2.312	2.220	2.179	2.095	2.140	2.087	2.219	2.085	2.127	2.054	2.088	1.968	2.110	2.009	2.025	2.033
460.0	171.3	507.5	1542	599.9	383.7	397.6	419.9	437.0	436.9	430.6	427.4	395.7	367.7	329.2	299.0	278.9	262.3	256.4	245.6	241.5	233.8	232.8	233.4	230.4	223.7	217.4	211.0	205.2	197.9	188.9	175.6	153.3	133.3	115.0	99.97	96.85	87.50	73.34	59.76	40.49	32.30	25.96	21.11	17.33	22.17	53.96	98.26	524.7	1582	643.3	11.11	2.275	2.063	1.978	1.959	2.022	1.982	2.024	1.984	2.119	2.089	2.108	2.226	2.094	2.176	2.019	2.034	1.898	1.890	2.055	2.027	1.976	1.775	1.919	1.857	1.898	1.914
465.0	150.8	294.2	1384	1144	375.7	382.7	392.2	416.3	420.7	415.5	406.0	379.3	346.7	312.1	285.9	260.1	244.8	238.6	230.2	224.2	219.6	216.2	215.6	213.1	208.4	203.2	198.1	190.9	185.5	181.8	167.0	148.6	129.7	111.2	96.15	87.29	85.31	79.80	61.86	41.27	33.59	26.83	22.21	17.60	15.83	20.53	28.85	125.7	727.4	1418	148.3	7.157	2.364	1.988	2.002	1.888	2.159	2.002	1.886	1.927	2.036	2.121	2.167	2.021	2.068	2.081	1.872	1.866	1.905	1.958	1.730	1.784	1.757	1.982	1.654	1.912	1.902
470.0	150.0	224.4	710.2	1699	690.4	347.9	367.4	382.3	385.6	384.8	372.4	351.8	321.2	287.9	265.4	235.2	225.1	214.3	205.9	201.1	197.1	195.5	193.2	191.9	187.7	182.4	178.3	174.5	170.4	165.9	155.0	139.2	122.3	105.5	92.03	80.32	74.51	80.61	67.28	43.72	34.90	28.30	23.53	18.93	15.86	14.04	14.12	34.21	173.4	635.8	965.3	536.8	12.07	2.344	2.070	1.861	2.041	1.866	1.872	1.937	1.910	1.905	2.024	1.828	1.919	1.886	1.733	1.788	1.705	1.745	1.745	1.670	1.765	1.699	1.704	1.804	1.655
475.0	153.4	200.7	339.2	1239	1521	361.4	331.6	343.8	347.4	352.7	343.3	323.0	292.4	264.9	239.7	215.5	200.3	193.6	185.7	179.3	174.6	174.3	169.8	169.8	166.9	162.5	161.6	157.8	155.0	152.8	140.5	129.4	114.1	100.3	87.03	75.17	66.72	70.35	68.91	49.94	36.07	29.49	24.66	20.64	16.70	14.01	11.48	14.51	43.89	146.2	303.0	984.8	650.5	15.85	2.269	1.954	1.908	1.916	1.706	1.842	1.750	1.748	1.859	1.854	1.720	1.837	1.553	1.722	1.632	1.689	1.645	1.550	1.638	1.614	1.509	1.605	1.517
480.0	152.5	195.8	240.9	648.8	1948	613.3	315.6	322.2	327.2	326.3	324.2	305.4	279.4	246.1	224.6	201.7	188.6	178.5	170.9	166.2	160.7	160.6	157.4	156.1	153.5	151.3	149.8	147.4	144.6	142.1	133.0	121.8	108.3	94.99	83.83	73.26	64.55	62.97	64.61	54.04	39.33	30.62	25.27	21.35	17.64	14.69	11.36	10.78	15.51	37.40	72.43	382.9	1170	185.0	10.08	2.139	1.874	1.650	1.802	1.721	1.744	1.701	1.803	1.664	1.643	1.629	1.482	1.557	1.477	1.585	1.502	1.480	1.542	1.454	1.550	1.407	1.493
485.0	137.6	198.1	209.7	337.3	1619	1214	304.9	310.1	312.2	308.8	304.7	288.7	266.3	235.0	207.6	189.5	175.5	167.3	159.1	154.7	150.7	149.2	147.4	145.2	142.5	140.4	139.2	138.2	135.4	133.6	125.6	117.1	103.2	90.94	81.75	70.90	62.11	59.41	58.29	53.71	43.13	31.08	25.81	21.13	18.74	15.48	12.48	10.30	9.937	13.78	20.48	92.58	608.5	1092	153.3	4.293	2.268	1.875	1.614	1.773	1.790	1.609	1.791	1.617	1.654	1.628	1.501	1.342	1.418	1.649	1.381	1.477	1.447	1.343	1.412	1.412	1.522
490.0	111.9	193.8	210.2	248.2	773.1	1797	576.7	287.8	286.0	290.3	284.7	272.4	246.0	218.7	196.3	176.5	163.1	153.7	146.7	140.2	138.4	136.4	134.1	132.7	131.0	127.6	127.0	125.7	123.9	121.6	116.6	107.2	96.79	86.11	76.45	67.84	59.51	57.21	51.93	47.00	45.33	36.03	27.12	22.08	19.09	16.29	13.29	11.11	9.142	8.736	9.364	24.81	146.8	532.5	945.6	414.2	11.61	2.052	1.692	1.779	1.692	1.651	1.698	1.465	1.520	1.432	1.518	1.401	1.351	1.481	1.426	1.336	1.346	1.315	1.328	1.330	1.358
495.0	113.8	155.4	210.8	214.8	346.4	1320	1411	297.3	259.6	264.3	259.7	247.5	223.7	197.5	179.5	160.3	146.4	139.7	134.2	128.5	123.1	121.1	120.4	119.2	116.5	114.7	111.6	111.7	111.8	111.8	106.5	97.15	88.18	79.22	70.52	63.74	56.57	54.13	48.82	41.00	40.07	39.74	30.77	23.44	19.61	16.83	13.80	11.71	9.741	8.071	7.216	9.906	36.48	122.1	349.4	1023	565.7	13.78	2.069	1.725	1.636	1.590	1.519	1.345	1.404	1.301	1.375	1.403	1.316	1.300	1.319	1.348	1.314	1.219	1.203	1.158	1.256
500.0	89.42	141.2	207.5	202.2	231.2	663.3	1906	493.1	242.6	245.2	242.5	230.4	209.9	183.5	164.5	148.0	136.3	128.6	122.9	116.1	112.4	111.5	110.3	108.0	106.0	104.6	103.2	101.6	102.6	102.0	97.77	90.23	81.29	73.89	65.67	60.36	53.13	50.46	44.97	39.33	35.32	36.65	33.74	24.78	19.53	16.25	13.95	11.39	10.20	8.228	6.670	6.527	11.84	30.62	83.04	456.1	1114	183.4	6.729	1.870	1.575	1.435	1.391	1.298	1.319	1.225	1.229	1.230	1.154	1.257	1.226	1.271	1.147	1.067	1.173	1.085	1.116
505.0	80.84	114.6	200.3	195.2	193.6	319.6	1710	1015	232.2	224.9	225.8	210.1	192.5	168.8	150.9	134.9	127.6	114.7	110.3	105.9	102.4	99.00	100.1	97.90	96.54	95.79	94.24	94.30	93.43	93.62	89.52	83.81	75.92	68.51	61.71	55.24	49.44	47.13	42.43	36.54	32.57	31.41	33.64	26.75	19.85	16.43	14.17	11.70	9.882	8.411	6.949	5.858	6.433	10.27	21.65	111.3	634.4	919.6	131.5	2.839	1.487	1.521	1.427	1.396	1.411	1.203	1.216	1.161	1.179	1.208	1.171	1.258	1.067	1.067	1.040	1.011	1.208
510.0	74.64	98.71	152.6	200.9	173.3	204.2	814.1	1722	441.1	202.0	198.5	186.8	169.7	149.9	135.6	121.1	112.0	103.3	96.82	94.35	90.15	86.87	87.10	86.41	84.08	82.59	82.31	82.17	81.64	81.30	78.13	73.76	67.70	61.26	55.73	50.31	44.98	42.84	38.95	33.31	30.16	27.42	27.57	27.70	21.87	16.76	13.60	11.61	9.657	8.340	7.184	5.848	5.417	5.708	7.818	27.66	155.5	505.5	698.7	255.2	9.206	1.637	1.339	1.256	1.217	1.160	1.114	1.040	1.060	1.090	1.132	1.072	0.976	0.953	1.017	1.015	1.091
515.0	70.89	87.50	117.6	183.6	174.2	161.6	309.9	1403	1223	202.1	175.5	163.0	152.8	131.6	116.4	106.8	96.72	88.76	83.22	81.02	77.55	75.33	74.55	74.19	73.24	71.00	70.75	71.08	69.69	70.36	68.22	64.43	58.52	53.13	48.59	43.95	39.50	37.68	34.97	30.12	27.38	24.24	22.76	23.65	23.58	17.79	13.29	11.34	9.238	8.215	6.982	5.895	5.412	4.742	4.796	8.846	37.18	115.5	284.9	746.5	189.7	9.195	1.495	1.279	1.236	1.090	0.947	0.873	1.004	0.912	1.030	0.905	0.910	0.950	0.935	0.913	1.026
520.0	59.87	85.38	105.5	147.4	171.5	144.7	178.9	715.7	1829	351.5	160.7	149.7	137.0	119.9	107.4	95.00	88.16	80.07	75.82	71.38	69.34	67.39	66.05	66.15	64.18	62.93	63.37	62.77	62.15	62.02	61.65	57.43	52.33	48.83	44.22	40.06	35.97	34.70	31.94	27.56	25.02	22.44	20.52	20.31	22.07	19.31	13.71	10.77	9.432	7.932	6.681	6.044	5.540	4.457	3.858	4.756	10.63	28.02	68.05	377.2	700.2	143.2	3.317	1.274	1.115	1.015	0.994	0.832	0.839	0.933	0.939	0.869	0.901	0.803	0.864	0.807	0.859
525.0	58.22	71.51	94.06	123.7	167.0	138.3	140.9	302.3	1756	816.6	143.9	137.9	121.4	108.9	96.92	86.57	78.58	73.56	68.40	64.77	62.28	61.91	59.07	58.34	57.80	56.72	56.19	56.53	55.91	55.83	55.99	51.38	47.45	44.22	39.67	36.40	32.57	31.82	28.70	25.61	22.81	20.87	19.18	18.12	18.88	19.46	14.34	10.56	8.904	7.477	6.557	5.843	5.292	4.626	3.848	3.449	4.744	8.376	17.07	94.73	461.7	595.5	25.12	1.715	1.108	0.994	1.135	0.803	0.836	0.931	0.843	0.785	0.878	0.768	0.768	0.804	0.815
530.0	52.39	66.03	83.82	96.77	143.3	146.7	120.0	161.4	861.1	1664	317.7	122.9	108.8	96.38	84.39	73.76	68.49	63.75	59.51	56.20	54.87	52.87	51.62	50.10	50.54	49.46	48.39	49.70	48.69	47.94	47.51	45.01	41.43	38.82	34.92	32.38	29.49	27.82	25.94	23.02	21.08	18.72	17.36	15.80	15.15	16.39	15.11	11.40	8.579	7.106	6.201	5.467	4.835	4.698	4.135	3.370	3.390	3.988	5.720	22.90	116.0	362.7	454.2	108.4	6.784	1.048	0.937	0.807	0.830	0.816	0.747	0.716	0.760	0.815	0.791	0.695	0.791
535.0	41.93	55.59	71.08	80.86	103.7	151.9	113.7	115.0	283.2	1494	1076	122.4	95.05	84.64	74.76	65.00	58.66	54.31	51.35	48.72	47.21	45.28	44.06	43.53	42.34	41.71	41.72	42.00	41.55	42.45	40.96	38.68	35.96	33.05	29.94	27.79	25.56	24.43	22.19	20.41	18.01	16.62	15.41	13.81	12.97	12.50	13.25	12.40	8.952	6.718	5.967	5.182	4.425	4.215	4.107	3.430	3.005	2.870	2.969	6.761	27.26	82.80	206.7	505.1	160.2	5.229	1.009	0.881	0.888	0.735	0.716	0.643	0.708	0.846	0.662	0.684	0.681
540.0	41.91	48.71	65.38	72.33	84.39	136.7	118.0	99.93	138.8	775.1	1791	176.0	84.49	76.52	66.97	59.18	53.08	48.78	47.04	43.39	42.91	40.04	40.37	38.47	37.42	37.32	36.71	37.34	37.45	37.68	36.04	34.24	32.00	29.73	26.67	25.29	22.80	21.81	20.33	18.50	16.06	15.23	14.45	12.86	11.98	10.83	11.07	12.16	9.644	6.526	5.562	4.766	4.203	4.045	3.847	3.345	2.974	2.561	2.396	3.053	7.451	19.80	50.00	279.7	488.2	27.79	2.012	0.948	0.768	0.725	0.677	0.611	0.606	0.643	0.604	0.643	0.626
545.0	38.90	49.41	63.97	64.70	71.62	106.9	122.9	91.76	99.50	294.6	1859	615.8	81.58	68.05	61.16	53.76	49.63	43.84	42.08	39.80	37.06	36.57	36.10	34.75	33.49	33.16	33.52	32.53	33.09	33.36	32.47	30.48	29.12	25.85	23.77	22.67	21.07	19.76	17.98	16.63	15.13	13.92	12.68	11.87	10.64	10.06	9.333	10.28	10.07	7.029	5.469	4.691	4.026	3.694	3.626	3.421	3.049	2.578	2.196	2.180	2.970	5.668	12.41	71.51	342.0	387.0	22.73	1.148	0.810	0.711	0.618	0.679	0.620	0.655	0.550	0.636	0.598
550.0	38.19	44.14	52.63	57.84	61.51	78.71	119.3	91.10	80.30	129.2	920.2	1494	199.1	60.17	53.63	46.33	42.12	38.63	35.97	34.73	32.78	31.63	30.71	29.34	28.84	28.87	28.56	28.36	28.35	28.99	28.33	26.35	25.09	22.98	20.76	19.74	18.00	17.19	15.98	14.61	13.39	12.15	11.58	10.75	9.448	9.049	8.142	8.019	8.983	7.797	5.612	4.459	3.954	3.661	3.330	3.002	2.879	2.677	2.034	1.979	1.899	2.412	3.828	17.07	86.98	257.6	279.3	96.58	5.177	0.765	0.590	0.627	0.595	0.561	0.509	0.538	0.564
555.0	40.99	38.31	46.05	48.88	54.63	62.52	92.63	104.3	71.28	82.27	272.7	1495	823.0	58.78	44.93	38.99	36.54	33.98	30.54	29.40	28.38	27.89	25.15	25.47	24.33	24.30	24.62	24.10	24.08	24.61	23.61	22.03	21.15	19.71	18.37	16.28	15.52	15.16	14.00	12.99	12.03	10.89	10.28	9.380	8.805	7.749	7.059	6.684	6.536	7.182	6.144	4.426	3.566	3.416	2.980	2.717	2.715	2.459	2.178	1.776	1.639	1.662	1.933	4.741	20.39	58.95	143.8	364.6	131.8	3.300	0.590	0.580	0.583	0.495	0.561	0.456	0.580
560.0	34.74	39.77	39.92	46.00	47.33	52.48	69.09	106.5	70.39	69.02	111.4	795.2	1526	107.0	41.52	36.12	31.51	30.16	26.51	25.79	25.61	23.90	22.52	22.79	21.35	21.86	21.07	21.40	21.35	21.35	20.40	19.02	18.17	16.93	16.17	14.73	13.89	12.95	12.38	11.63	10.45	9.763	9.616	8.194	7.852	6.854	6.437	5.897	5.446	5.979	6.301	4.785	3.478	2.901	2.666	2.468	2.397	2.298	2.129	1.673	1.592	1.484	1.499	1.867	5.428	13.83	35.27	205.4	350.2	26.67	1.272	0.582	0.523	0.552	0.523	0.494	0.547
565.0	33.15	38.30	36.83	39.92	42.14	48.32	53.87	100.3	79.94	62.23	71.87	282.6	1708	405.2	38.39	32.17	28.00	26.56	23.53	23.30	21.54	20.84	20.36	20.26	19.63	18.65	18.82	18.89	18.69	18.46	18.30	17.52	16.00	15.13	14.12	13.00	12.39	11.40	10.93	10.39	8.982	8.597	7.903	7.350	7.125	6.453	5.826	5.116	4.802	4.768	5.423	4.980	3.528	2.831	2.487	2.388	2.276	2.098	2.103	2.038	1.500	1.372	1.384	1.200	2.003	3.873	8.754	52.87	246.5	221.6	19.97	0.810	0.515	0.548	0.523	0.518	0.547
570.0	32.23	33.21	39.83	37.77	37.13	39.67	42.12	71.27	92.02	58.76	59.68	106.8	848.9	1188	76.62	27.46	23.71	21.79	19.86	19.42	17.98	17.57	16.70	16.70	16.17	15.71	15.59	15.53	15.30	15.39	15.24	14.39	13.32	12.70	11.80	10.70	10.26	9.411	9.174	8.510	7.708	7.324	6.703	6.365	5.898	5.422	5.060	4.404	4.064	3.727	3.786	4.325	3.735	2.811	2.351	2.163	2.057	1.879	1.778	1.852	1.598	1.383	1.201	1.129	1.205	1.590	2.673	12.52	62.84	167.9	212.8	69.81	3.075	0.545	0.536	0.449	0.542
575.0	32.60	32.55	37.18	31.19	31.83	31.23	33.32	48.24	89.38	65.88	55.27	67.93	240.7	1289	548.1	26.52	19.04	18.16	15.46	15.29	13.93	13.67	12.90	13.22	12.51	12.52	12.31	11.83	11.95	12.67	11.98	11.20	10.35	9.983	9.257	8.622	8.022	7.546	7.625	6.748	6.120	5.973	5.309	4.948	4.904	4.438	4.005	3.667	3.339	3.011	2.847	3.084	3.322	2.955	2.154	1.763	1.808	1.544	1.396	1.391	1.533	1.363	1.051	1.099	0.946	1.089	1.244	3.404	14.62	38.53	101.1	226.2	28.68	2.036	0.578	0.536	0.443
580.0	31.85	35.55	35.18	31.78	27.05	29.20	30.79	35.29	70.61	80.45	56.96	59.53	93.66	679.5	1162	63.22	16.04	15.23	12.91	12.87	11.33	10.87	10.94	10.68	10.81	10.20	9.733	9.534	9.671	9.897	9.809	9.124	8.647	7.999	7.643	7.032	6.506	6.351	6.001	5.630	5.162	5.025	4.484	4.282	3.817	3.829	3.322	3.214	2.778	2.564	2.391	2.279	2.708	2.947	2.209	1.562	1.426	1.388	1.258	1.195	1.163	1.254	1.152	0.954	0.836	0.944	0.873	1.434	3.860	9.187	24.62	123.6	190.5	23.58	0.913	0.498	0.434
585.0	31.32	39.38	35.08	30.33	27.51	26.95	26.35	32.60	52.41	91.61	62.47	59.66	60.06	229.6	1367	273.1	14.25	12.40	12.09	10.32	9.371	9.280	9.287	8.621	8.543	7.975	8.448	8.049	8.361	8.464	7.835	7.555	7.187	6.790	6.195	5.739	5.718	5.552	4.851	4.441	4.484	4.311	3.759	3.507	3.440	3.208	2.800	2.756	2.451	2.136	1.929	1.961	2.032	2.491	2.082	1.515	1.284	1.208	1.124	1.020	1.055	1.104	1.256	1.019	0.942	0.794	0.922	0.937	1.436	2.570	6.028	31.87	135.5	147.1	15.82	0.595	0.383
590.0	29.78	36.83	35.97	28.20	23.00	22.61	24.31	30.02	38.25	79.39	78.65	61.37	54.76	80.11	687.1	941.6	44.06	10.46	9.135	8.107	7.765	7.609	7.383	6.854	6.839	6.367	6.239	6.186	6.324	6.415	6.242	5.818	5.567	5.051	4.864	4.513	4.493	4.243	3.975	3.711	3.479	3.332	3.069	2.907	2.631	2.585	2.302	2.192	1.906	1.676	1.534	1.419	1.488	1.896	1.917	1.530	1.242	1.034	0.993	0.940	0.834	0.870	1.045	1.027	0.901	0.805	0.804	0.822	0.845	1.101	1.829	7.545	34.59	93.62	110.7	18.96	1.836
595.0	31.48	35.45	36.97	25.46	20.69	20.48	22.10	26.44	32.71	58.40	92.41	66.93	53.71	46.23	176.8	1115	361.1	9.714	6.885	6.678	6.614	6.030	5.737	5.558	5.213	5.058	4.983	4.739	4.400	4.906	4.829	4.695	4.282	3.999	3.744	3.509	3.297	3.241	3.191	2.924	2.772	2.649	2.396	2.413	2.230	1.895	1.793	1.755	1.562	1.317	1.309	1.254	1.163	1.294	1.453	1.597	1.243	0.896	0.769	0.764	0.847	0.740	0.782	0.976	0.896	0.850	0.698	0.721	0.660	0.658	0.879	2.088	8.158	21.42	48.67	119.1	26.76
600.0	34.35	39.15	36.81	25.30	18.63	19.10	20.48	24.28	31.23	46.91	91.14	73.51	55.24	36.73	54.18	599.0	677.7	28.58	6.385	5.941	5.155	4.710	4.594	4.600	4.361	4.282	4.196	3.875	3.900	4.017	3.982	3.682	3.543	3.393	3.250	2.931	2.692	2.709	2.723	2.667	2.220	2.041	1.908	2.062	1.694	1.814	1.521	1.343	1.281	1.221	1.112	1.129	0.891	0.883	1.073	1.395	1.245	0.934	0.781	0.727	0.774	0.726	0.765	0.768	0.872	0.928	0.801	0.699	0.647	0.587	0.634	0.814	2.202	5.063	11.77	64.76	100.2
605.0	32.29	38.11	33.65	23.77	18.45	16.13	18.81	24.33	29.36	43.92	77.81	84.05	54.51	35.13	25.13	183.0	902.0	73.58	6.039	5.001	4.446	3.820	4.048	4.117	3.817	3.679	3.562	3.421	3.372	3.401	3.168	2.994	3.026	2.889	2.681	2.478	2.330	2.327	2.249	2.079	1.968	1.865	1.677	1.717	1.471	1.461	1.293	1.258	1.159	1.079	0.915	0.880	0.850	0.878	0.929	1.196	1.211	0.996	0.732	0.683	0.703	0.668	0.560	0.641	0.711	0.997	0.863	0.612	0.650	0.602	0.544	0.582	0.767	1.515	3.039	16.73	68.25
610.0	29.25	33.83	34.36	22.25	15.90	15.97	17.70	23.02	29.63	39.40	61.88	89.37	57.33	33.33	18.96	50.10	450.2	566.7	27.25	4.277	3.826	3.558	3.490	3.257	3.158	3.007	2.940	2.819	2.720	2.789	2.796	2.682	2.452	2.427	2.112	2.136	1.903	1.889	1.795	1.786	1.620	1.461	1.364	1.324	1.217	1.218	1.095	1.019	0.947	0.876	0.724	0.753	0.737	0.755	0.668	0.817	0.920	0.939	0.753	0.644	0.587	0.580	0.547	0.640	0.639	0.794	0.830	0.767	0.666	0.591	0.569	0.490	0.510	0.638	0.975	4.068	17.49
615.0	28.59	34.23	30.41	23.71	15.30	15.04	17.94	21.04	27.82	36.79	50.44	78.46	68.00	32.59	16.34	19.03	112.4	641.0	242.4	4.921	3.328	3.196	3.111	2.847	2.458	2.470	2.345	2.433	2.359	2.458	2.294	2.433	1.990	1.924	1.796	1.812	1.601	1.646	1.531	1.442	1.230	1.255	1.166	1.094	1.037	1.058	0.805	0.783	0.847	0.729	0.609	0.626	0.731	0.618	0.627	0.647	0.710	0.874	0.836	0.589	0.572	0.581	0.508	0.602	0.545	0.630	0.635	0.776	0.771	0.546	0.535	0.452	0.422	0.469	0.484	1.205	4.150
620.0	27.83	32.06	28.62	18.94	16.14	13.39	16.38	18.05	24.97	37.48	46.55	66.96	75.15	33.09	15.92	11.33	30.65	330.7	525.6	16.96	3.232	2.488	2.594	2.342	2.333	2.034	2.083	2.184	1.997	2.296	1.973	1.953	1.778	1.643	1.477	1.383	1.315	1.373	1.367	1.290	1.109	1.063	0.969	0.942	0.898	0.809	0.729	0.732	0.770	0.630	0.507	0.584	0.673	0.535	0.455	0.526	0.570	0.802	0.816	0.628	0.617	0.567	0.474	0.574	0.510	0.607	0.626	0.600	0.849	0.604	0.461	0.441	0.384	0.423	0.414	0.536	1.173
625.0	28.72	30.74	27.88	18.84	13.65	12.86	15.32	18.71	22.58	34.08	43.11	54.33	73.67	35.60	14.91	9.393	12.35	101.8	672.1	58.00	3.275	2.415	2.348	1.961	1.860	2.003	1.682	1.757	1.784	2.016	1.611	1.558	1.431	1.455	1.405	1.240	1.106	1.202	1.122	0.991	0.995	1.047	0.917	0.850	0.717	0.745	0.789	0.730	0.680	0.596	0.499	0.519	0.575	0.468	0.510	0.460	0.484	0.573	0.691	0.665	0.694	0.512	0.536	0.510	0.488	0.559	0.533	0.525	0.724	0.657	0.599	0.450	0.378	0.336	0.386	0.351	0.512
630.0	24.80	28.89	26.19	19.68	12.84	12.28	14.26	16.21	21.66	29.83	38.57	47.19	59.37	43.76	15.86	9.330	7.657	27.25	348.9	423.1	19.88	2.321	1.988	1.981	1.627	1.603	1.484	1.409	1.446	1.464	1.426	1.411	1.378	1.142	1.170	1.079	1.067	1.070	1.050	0.915	0.937	0.917	0.887	0.765	0.694	0.709	0.651	0.641	0.600	0.500	0.442	0.440	0.435	0.479	0.471	0.430	0.499	0.453	0.475	0.607	0.583	0.462	0.528	0.486	0.490	0.575	0.546	0.519	0.580	0.622	0.611	0.431	0.361	0.333	0.381	0.291	0.360
635.0	26.57	29.21	24.50	17.82	13.22	11.29	13.53	14.84	20.71	28.21	35.36	42.38	44.22	47.10	18.06	9.017	7.091	9.865	86.41	495.4	174.3	2.457	1.824	1.613	1.336	1.412	1.197	1.245	1.215	1.357	1.257	1.107	1.221	0.918	0.932	0.979	0.967	0.849	0.902	0.764	0.785	0.768	0.745	0.706	0.564	0.649	0.517	0.562	0.499	0.456	0.357	0.450	0.472	0.422	0.401	0.364	0.441	0.479	0.437	0.486	0.624	0.467	0.441	0.463	0.431	0.468	0.487	0.510	0.501	0.490	0.568	0.491	0.456	0.291	0.375	0.359	0.315
640.0	29.04	28.04	22.04	16.50	14.45	10.82	12.52	14.43	18.84	25.61	33.34	39.00	37.98	42.59	24.50	9.355	6.568	6.214	22.34	273.5	412.3	10.14	1.875	1.487	1.372	1.154	1.104	1.180	1.125	1.087	1.111	0.972	1.058	0.932	0.981	0.840	0.832	0.831	0.833	0.773	0.742	0.757	0.544	0.575	0.530	0.612	0.487	0.523	0.432	0.451	0.344	0.438	0.400	0.402	0.396	0.360	0.383	0.420	0.388	0.402	0.476	0.459	0.456	0.530	0.380	0.509	0.540	0.529	0.495	0.441	0.485	0.503	0.463	0.349	0.340	0.367	0.348
645.0	30.78	25.55	22.92	16.48	12.78	11.32	11.03	13.26	17.83	25.44	29.60	35.13	33.47	34.06	29.01	9.660	6.812	5.291	7.764	87.08	509.0	46.62	1.855	1.486	1.373	1.316	1.124	1.093	0.979	1.009	1.192	0.924	0.959	0.935	0.848	0.691	0.746	0.784	0.791	0.747	0.668	0.665	0.556	0.506	0.444	0.445	0.456	0.511	0.386	0.381	0.325	0.405	0.397	0.324	0.362	0.410	0.379	0.342	0.368	0.412	0.419	0.480	0.512	0.492	0.411	0.436	0.438	0.414	0.450	0.447	0.456	0.448	0.494	0.423	0.345	0.420	0.364
650.0	25.34	23.41	22.98	17.06	10.12	10.34	10.69	13.86	16.07	24.41	27.77	32.52	29.86	26.62	30.37	12.41	6.828	5.141	4.715	23.09	361.4	227.5	3.082	1.456	1.355	1.186	1.058	0.999	0.860	0.971	1.048	0.803	0.871	0.806	0.711	0.678	0.648	0.712	0.745	0.667	0.703	0.562	0.666	0.438	0.468	0.469	0.428	0.466	0.357	0.337	0.359	0.394	0.302	0.337	0.373	0.375	0.385	0.336	0.344	0.382	0.353	0.459	0.462	0.499	0.440	0.448	0.430	0.326	0.443	0.402	0.347	0.368	0.512	0.428	0.408	0.411	0.359
