Sample:	'1
File name:	t2025062303×ÍºÓ´óµÀÇÅ.FD3
Run date:	'14:19:14, 06/24/2025
Operator:	Administrator
Comment:	'

Instrument
Model:	F-2700 FL Spectrophotometer
Serial number:	23B8-004
ROM Version:	4J14000 07

Instrument parameters
Measurement type:	3-D scan
Data mode:	Fluorescence
EX  Start WL:	220.0 nm
EX  End WL:	600.0 nm
EX Sampling interval:	5.0 nm
EM  Start WL:	230.0 nm
EM  End WL:	650.0 nm
EM Sampling interval:	5.0 nm
Scan speed:	12000 nm/min
EX Slit:	5.0 nm
EM Slit:	5.0 nm
PMT Voltage:	700 V
Response:	Auto 
Corrected spectra:	Off
Contour interval:	50.000

Peak integration
Integration method:	Rectangular
Sensitivity:	1
Threshold:	1.000

Peaks
No.	ApexEX/EM(nm)	Height(Data)
1	225.0/580.0	64.21
2	225.0/610.0	59.61
3	230.0/345.0	3603
4	230.0/620.0	58.34
5	230.0/635.0	65.50
6	240.0/265.0	377.3
7	250.0/275.0	580.0
8	250.0/445.0	1593
9	255.0/285.0	581.4
10	255.0/560.0	165.2
11	260.0/290.0	544.1
12	260.0/575.0	120.4
13	265.0/295.0	715.4
14	265.0/585.0	107.8
15	270.0/385.0	1480
16	270.0/410.0	1594
17	270.0/600.0	100.2
18	275.0/615.0	107.8
19	280.0/340.0	1943
20	280.0/625.0	100.2
21	285.0/640.0	81.07
22	325.0/410.0	997.7
23	475.0/345.0	10.31
24	500.0/440.0	6.862
25	505.0/275.0	3.419
26	505.0/445.0	6.983
27	510.0/280.0	3.586
28	510.0/450.0	6.860
29	515.0/435.0	6.774
30	520.0/285.0	3.619
31	530.0/290.0	3.581
32	535.0/270.0	61.57
33	560.0/340.0	9.542
34	570.0/335.0	9.486

Data points
	220.0	225.0	230.0	235.0	240.0	245.0	250.0	255.0	260.0	265.0	270.0	275.0	280.0	285.0	290.0	295.0	300.0	305.0	310.0	315.0	320.0	325.0	330.0	335.0	340.0	345.0	350.0	355.0	360.0	365.0	370.0	375.0	380.0	385.0	390.0	395.0	400.0	405.0	410.0	415.0	420.0	425.0	430.0	435.0	440.0	445.0	450.0	455.0	460.0	465.0	470.0	475.0	480.0	485.0	490.0	495.0	500.0	505.0	510.0	515.0	520.0	525.0	530.0	535.0	540.0	545.0	550.0	555.0	560.0	565.0	570.0	575.0	580.0	585.0	590.0	595.0	600.0
230.0	74.72	1288	2341	540.2	23.33	8.104	6.879	5.754	5.734	5.029	4.656	4.372	4.225	3.497	3.080	2.640	2.220	2.143	1.941	1.763	1.647	1.516	1.534	1.245	1.215	1.127	1.114	0.992	0.966	0.951	0.927	0.921	0.802	0.756	0.705	0.648	0.642	0.542	0.470	0.514	0.465	0.521	0.530	0.434	0.395	0.440	1.747	5.871	8.465	5.457	1.817	0.558	0.330	0.330	0.336	0.319	0.320	0.326	0.285	0.284	0.283	0.293	0.260	0.294	0.271	0.282	0.264	0.272	0.314	0.271	0.271	0.286	0.268	0.255	0.273	0.283	0.269
235.0	83.32	384.7	2014	3042	532.7	38.08	8.317	6.442	5.875	5.430	5.179	4.799	4.643	4.018	3.221	2.491	2.416	2.192	2.113	1.948	1.707	1.444	1.512	1.151	1.238	1.106	1.158	1.047	1.012	0.953	1.036	0.856	0.801	0.918	0.648	0.604	0.695	0.525	0.519	0.481	0.481	0.490	0.521	0.632	0.454	0.466	0.677	1.761	4.232	7.342	10.66	10.39	4.140	0.933	0.355	0.288	0.303	0.309	0.256	0.269	0.311	0.311	0.266	0.361	0.282	0.334	0.255	0.306	0.303	0.234	0.291	0.242	0.240	0.253	0.266	0.358	0.331
240.0	126.5	144.5	706.2	3342	3492	418.8	19.32	8.857	7.409	6.215	5.704	4.862	4.481	3.649	3.112	3.070	2.435	2.379	1.960	1.992	1.533	1.552	1.535	1.297	1.308	1.380	1.050	1.141	1.016	0.956	0.902	0.848	0.793	0.724	0.669	0.738	0.627	0.514	0.539	0.428	0.474	0.430	0.511	0.514	0.528	0.617	0.544	0.648	1.241	2.591	7.117	15.93	18.35	11.11	3.636	0.581	0.343	0.268	0.277	0.354	0.294	0.310	0.307	0.308	0.329	0.273	0.261	0.338	0.277	0.328	0.287	0.270	0.269	0.313	0.249	0.295	0.268
245.0	115.9	165.2	207.0	1369	4811	3364	302.8	12.39	8.448	6.936	5.608	5.922	4.441	4.041	3.399	2.757	2.466	2.551	1.950	1.957	1.693	1.657	1.399	1.411	1.450	1.092	1.140	0.983	1.193	0.946	0.958	0.855	0.864	0.738	0.671	0.757	0.569	0.591	0.613	0.611	0.560	0.520	0.458	0.449	0.543	0.750	0.789	0.661	0.596	0.882	2.001	6.363	15.45	25.46	21.46	10.47	2.363	0.473	0.339	0.378	0.320	0.292	0.330	0.315	0.311	0.275	0.291	0.325	0.295	0.274	0.258	0.269	0.290	0.277	0.290	0.258	0.325
250.0	60.67	140.9	199.1	378.0	1774	4766	5051	1212	62.79	10.34	8.697	7.319	5.395	5.073	3.770	3.112	2.666	2.430	2.235	2.028	1.792	1.685	1.507	1.622	1.381	1.421	1.198	1.289	1.329	0.994	1.033	0.864	0.867	0.775	0.656	0.604	0.620	0.589	0.611	0.607	0.564	0.503	0.546	0.457	0.492	0.573	0.597	0.736	0.875	0.831	0.895	1.751	4.051	9.127	16.47	22.77	28.97	18.85	10.79	2.893	0.479	0.332	0.329	0.340	0.363	0.331	0.344	0.279	0.319	0.311	0.286	0.320	0.295	0.311	0.281	0.266	0.329
255.0	44.37	60.07	179.7	286.2	465.5	1339	5458	8595	1641	55.03	13.19	9.457	7.713	5.946	4.572	3.375	3.126	2.704	2.423	2.134	2.000	1.913	1.734	1.652	1.612	1.504	1.339	1.105	1.418	1.102	1.035	0.928	0.943	0.801	0.705	0.585	0.521	0.629	0.582	0.607	0.608	0.551	0.485	0.475	0.523	0.463	0.527	0.521	0.610	0.903	1.240	1.425	1.431	2.379	4.044	5.910	13.12	30.63	50.29	29.31	16.46	2.585	0.428	0.363	0.400	0.404	0.325	0.396	0.373	0.314	0.292	0.309	0.288	0.304	0.298	0.284	0.303
260.0	44.91	39.03	90.15	285.4	306.5	368.9	1887	8846	9192	266.1	32.08	12.04	9.115	6.095	5.290	3.834	3.467	3.041	3.046	2.424	1.964	1.873	1.774	1.761	1.523	1.618	1.377	1.251	1.402	1.156	1.083	1.003	0.933	0.847	0.740	0.622	0.708	0.659	0.540	0.596	0.558	0.650	0.500	0.514	0.531	0.470	0.511	0.451	0.409	0.564	0.904	1.889	1.529	1.234	1.478	1.773	3.545	8.979	25.49	48.67	63.25	27.05	12.06	1.122	0.438	0.497	0.353	0.379	0.378	0.344	0.290	0.380	0.313	0.284	0.314	0.288	0.298
265.0	44.56	32.91	46.75	164.6	377.3	261.2	506.7	3451	9999.9	8696	212.2	20.06	12.17	8.444	5.725	4.921	3.828	3.858	3.260	2.709	1.964	2.308	1.848	1.789	1.460	1.740	1.377	1.271	1.299	1.310	1.139	0.968	1.094	0.977	0.829	0.680	0.754	0.605	0.588	0.669	0.595	0.631	0.569	0.616	0.507	0.450	0.476	0.479	0.456	0.404	0.588	1.099	1.597	1.995	1.413	0.977	1.368	2.566	6.476	16.16	41.21	69.03	73.09	23.37	6.573	0.740	0.421	0.394	0.390	0.370	0.372	0.379	0.355	0.328	0.296	0.343	0.338
270.0	61.55	44.51	42.27	84.55	253.1	444.6	361.9	876.9	3814	9999.9	9999.9	838.9	56.09	13.31	8.607	6.807	5.110	4.600	3.764	3.114	2.510	2.448	2.069	1.924	1.719	1.849	1.612	1.491	1.454	1.290	1.254	1.089	1.073	0.943	0.866	0.838	0.843	0.735	0.674	0.611	0.595	0.643	0.656	0.661	0.684	0.573	0.459	0.575	0.499	0.413	0.516	0.635	0.945	1.393	2.092	2.311	2.009	1.691	2.174	4.160	10.25	21.61	41.91	61.57	55.16	60.35	16.10	6.132	0.730	0.485	0.418	0.453	0.452	0.347	0.367	0.392	0.342
275.0	81.65	82.90	66.56	75.56	156.4	326.9	580.0	433.4	920.3	2669	9999.9	9999.9	1209	55.45	14.14	9.736	7.566	5.638	4.143	3.523	2.861	2.974	2.397	1.993	1.900	1.685	1.752	1.672	1.512	1.342	1.327	1.311	1.177	1.050	1.004	0.897	0.888	0.791	0.712	0.715	0.735	0.677	0.670	0.713	0.643	0.620	0.564	0.616	0.556	0.521	0.489	0.589	0.676	0.936	1.220	1.794	2.649	3.419	2.608	1.800	2.863	5.460	9.836	14.81	20.96	57.56	102.5	104.9	24.89	6.273	0.624	0.569	0.518	0.469	0.405	0.354	0.408
280.0	135.7	123.4	103.4	89.12	133.2	213.3	455.1	578.2	353.3	675.8	3131	9999.9	9999.9	877.3	29.68	13.03	9.485	6.710	5.293	4.620	3.512	3.156	2.912	2.454	2.137	1.988	1.862	1.800	1.548	1.448	1.474	1.282	1.302	1.132	1.220	0.950	0.982	0.917	0.814	0.831	0.724	0.726	0.781	0.749	0.675	0.785	0.728	0.656	0.623	0.598	0.621	0.631	0.696	0.828	1.008	1.139	1.800	2.841	3.586	2.914	1.828	1.951	2.810	3.996	5.409	15.03	40.10	90.05	125.7	34.29	20.26	2.910	0.642	0.511	0.411	0.388	0.446
285.0	177.2	181.5	147.4	113.9	132.0	177.3	268.7	581.4	364.0	270.9	820.0	4019	9999.9	8682	123.3	19.24	12.50	8.303	6.451	4.725	4.007	3.362	3.107	2.648	2.671	2.316	2.066	1.874	1.907	1.567	1.687	1.385	1.304	1.232	1.334	1.062	1.067	0.921	0.796	0.843	0.775	0.804	0.800	0.841	0.796	0.839	0.889	0.739	0.802	0.646	0.675	0.740	0.765	0.841	0.897	0.984	1.199	1.550	2.300	3.527	3.619	2.261	1.488	1.593	1.970	4.057	9.836	24.56	58.88	101.3	133.1	31.73	14.60	1.263	0.484	0.501	0.595
290.0	262.4	276.0	236.0	163.7	144.4	164.5	189.6	307.2	544.1	494.9	365.3	1078	3958	9999.9	9999.9	2356	39.70	12.34	8.924	6.222	5.025	4.376	3.669	3.259	2.675	2.588	2.040	1.994	2.038	1.831	1.651	1.438	1.423	1.342	1.256	1.226	1.270	1.069	1.044	0.941	0.928	0.935	0.828	0.896	0.914	1.075	1.091	1.021	1.051	0.856	0.844	0.855	0.860	0.863	1.013	0.998	1.049	1.174	1.353	1.774	2.435	3.281	3.581	2.666	1.823	2.045	3.263	6.596	14.45	27.59	56.13	75.39	102.9	81.55	57.13	10.76	1.975
295.0	341.1	374.3	345.7	233.2	183.0	184.3	201.1	238.6	347.1	715.4	699.8	544.1	1119	2605	9999.9	9999.9	720.2	44.38	13.34	9.022	6.587	4.947	4.551	3.941	3.271	2.947	2.607	2.322	2.147	1.974	1.843	1.610	1.609	1.518	1.472	1.328	1.454	1.179	1.192	1.069	1.003	1.182	0.957	0.993	1.200	1.300	1.168	1.390	1.374	1.057	1.111	1.129	1.030	1.002	1.047	1.132	1.129	1.269	1.286	1.462	1.753	2.056	2.697	4.051	4.590	3.293	2.524	3.083	4.716	7.523	13.80	18.07	27.45	49.85	112.3	142.1	34.44
300.0	401.6	477.7	458.5	331.7	250.5	252.8	278.3	314.2	357.1	641.2	1081	759.3	637.2	859.0	2875	9999.9	9999.9	580.6	26.81	12.43	8.115	6.183	5.118	4.497	3.659	3.115	2.622	2.624	2.095	1.987	2.171	1.750	1.582	1.633	1.477	1.369	1.591	1.454	1.311	1.134	1.217	1.079	1.095	1.106	1.283	1.508	1.330	1.664	1.579	1.372	1.308	1.363	1.358	1.235	1.339	1.291	1.484	1.605	1.764	1.802	1.883	2.130	2.476	3.218	4.874	6.047	4.771	3.509	3.293	3.732	4.827	5.906	7.727	12.90	34.05	81.78	134.2
305.0	514.5	633.7	624.0	461.3	358.9	380.3	434.2	502.0	593.4	780.9	1168	1369	857.8	683.6	997.7	3515	9999.9	9999.9	82.04	20.05	10.86	7.639	6.228	5.059	3.915	3.515	2.994	2.543	2.416	2.397	2.008	1.936	1.733	1.867	1.535	1.633	1.637	1.614	1.396	1.274	1.303	1.261	1.302	1.359	1.451	1.810	1.702	2.161	1.992	1.783	1.694	1.756	1.736	1.530	1.805	1.671	1.849	2.083	2.440	2.856	2.786	3.088	3.350	3.781	4.494	5.645	7.127	6.714	5.034	4.181	4.135	4.096	4.210	5.351	9.453	20.97	48.05
310.0	647.1	836.9	815.8	627.3	510.9	538.9	612.9	707.0	803.1	976.8	1192	1508	1471	977.4	774.4	1163	3600	9999.9	9999.9	1945	33.40	11.23	8.338	6.193	5.247	4.198	3.601	3.081	2.782	2.575	2.247	2.111	1.881	1.800	1.638	1.609	1.687	1.748	1.463	1.428	1.359	1.551	1.421	1.642	1.842	1.979	2.173	2.748	2.586	2.226	2.084	2.341	2.203	2.112	2.267	2.503	2.690	2.982	3.235	3.612	3.576	3.985	4.455	4.728	5.096	5.557	6.373	7.347	7.596	7.367	6.203	5.173	4.644	4.661	4.654	7.150	12.90
315.0	785.5	1055	1062	824.9	672.6	675.0	785.3	869.2	953.2	1128	1320	1470	1608	1506	934.5	738.7	1170	2534	8296	9999.9	2881	37.60	12.39	8.528	6.499	5.242	4.133	3.605	2.959	2.971	2.631	2.381	2.041	2.021	1.929	1.765	1.619	1.687	1.681	1.589	1.531	1.609	1.571	1.743	2.075	2.274	2.520	3.237	3.342	2.866	2.694	2.936	2.627	2.850	2.711	2.976	3.261	3.795	4.071	4.345	4.436	4.536	4.753	5.251	5.595	6.300	6.426	6.893	7.218	7.758	8.180	8.270	6.575	5.675	4.419	4.969	5.641
320.0	939.6	1338	1294	1008	787.5	765.2	871.6	963.1	1037	1227	1412	1581	1616	1664	1272	750.6	687.0	808.8	2235	9999.9	9999.9	476.7	26.77	11.36	8.308	6.600	4.846	3.976	3.495	3.210	2.826	2.331	2.138	2.131	1.773	1.892	1.670	1.674	1.718	1.865	1.573	1.707	1.780	2.051	2.265	2.924	3.128	3.989	4.109	3.448	3.169	3.339	3.242	3.247	3.083	3.430	3.677	4.155	4.264	4.621	4.683	4.937	5.071	5.839	5.994	6.574	6.876	6.989	7.508	7.943	7.868	8.920	8.783	7.838	5.033	4.780	4.458
325.0	1153	1760	1872	1421	990.9	866.5	943.9	1047	1115	1309	1521	1700	1717	1624	1522	933.3	642.6	470.1	646.1	2985	9999.9	9999.9	377.3	18.45	10.90	7.743	5.838	4.533	3.929	3.198	2.950	2.525	2.221	2.275	2.106	1.834	1.840	1.765	1.918	1.744	1.556	1.884	2.038	2.309	2.653	3.406	4.210	5.295	5.400	4.894	4.543	4.503	4.162	3.659	3.700	3.696	4.091	4.453	4.731	4.960	4.937	5.008	5.674	6.222	6.552	7.126	7.392	8.051	8.068	8.411	7.749	8.234	8.594	8.922	7.521	5.782	4.532
330.0	1491	2364	2764	2218	1473	1076	1037	1125	1200	1414	1636	1832	1852	1705	1512	1235	831.8	480.1	359.4	811.0	3116	9999.9	9974	1703	30.32	11.14	7.620	5.919	4.768	3.955	3.614	2.939	2.548	2.471	2.201	2.009	1.942	2.040	1.809	1.802	1.824	1.889	2.172	2.608	3.313	4.264	5.210	7.260	7.398	7.123	6.827	6.961	6.003	5.019	4.413	4.236	4.601	4.604	4.907	5.217	5.245	5.392	5.866	6.639	6.896	7.485	8.057	8.620	8.752	8.802	8.681	8.777	8.403	8.313	7.905	7.600	6.896
335.0	1712	2791	3335	2890	2010	1339	1147	1185	1264	1464	1710	1894	1933	1814	1548	1244	1095	654.1	378.6	387.5	847.9	2418	7354	9999.9	2708	34.62	11.34	8.236	6.026	4.979	3.914	3.836	3.103	2.649	2.313	2.056	2.091	1.985	1.930	1.971	1.940	2.081	2.389	2.682	3.509	4.904	5.873	7.941	8.868	8.495	8.267	8.761	7.943	6.866	5.628	4.845	5.058	5.359	5.129	5.417	5.580	5.799	6.204	6.695	7.254	7.679	8.258	8.478	9.318	9.337	9.486	9.109	8.930	8.422	7.859	7.290	7.150
340.0	1785	2885	3591	3177	2214	1451	1192	1229	1303	1457	1709	1890	1943	1833	1572	1224	1058	827.4	444.8	326.4	367.4	678.2	1959	9999.9	9999.9	421.3	24.55	10.55	7.412	5.901	4.817	3.816	3.206	2.796	2.570	2.153	2.314	2.007	1.877	1.910	2.016	2.067	2.387	2.928	3.569	5.129	6.218	8.141	9.291	9.049	9.250	9.913	8.781	7.176	6.032	5.337	5.134	5.221	5.626	5.394	5.805	6.205	6.345	6.968	7.216	7.608	8.396	8.667	9.542	9.384	9.437	8.924	9.136	8.940	7.788	7.073	6.855
345.0	1798	2817	3603	3269	2272	1472	1201	1213	1290	1453	1660	1823	1894	1781	1533	1196	962.1	848.5	582.1	347.6	285.8	309.6	550.3	2885	9999.9	9999.9	352.9	15.20	9.302	6.934	5.346	4.037	3.213	2.677	2.784	2.260	2.453	2.084	1.973	2.119	2.042	2.191	2.170	2.859	3.622	4.940	6.007	8.334	9.169	9.230	9.395	10.31	9.068	7.526	6.309	5.375	5.099	5.063	5.534	5.329	5.721	6.200	6.191	6.833	7.146	7.231	8.063	8.663	8.932	8.676	9.069	8.741	8.699	8.685	8.045	6.972	6.841
350.0	1655	2630	3349	3155	2303	1559	1240	1226	1270	1423	1575	1722	1773	1676	1463	1178	927.5	750.9	662.9	485.2	320.9	263.6	266.6	740.5	2998	9912	9999.9	1543	26.83	9.701	6.736	4.777	3.909	3.156	2.864	2.492	2.306	2.215	2.041	2.012	2.009	2.081	2.203	2.573	3.540	4.590	5.777	7.631	9.027	8.970	8.923	10.08	8.838	7.785	6.527	5.412	5.427	5.246	5.534	5.374	5.701	6.163	6.138	6.898	6.793	7.316	7.418	7.938	8.331	8.139	8.404	8.272	8.183	8.026	7.458	6.862	6.436
355.0	1468	2391	3005	2924	2281	1610	1308	1260	1310	1411	1512	1620	1651	1572	1402	1153	920.3	730.6	612.7	591.7	444.4	296.8	237.2	293.9	749.7	2331	6810	9999.9	2494	31.91	9.289	6.589	4.807	3.904	3.015	2.592	2.277	2.234	2.220	1.953	1.981	2.184	2.277	2.760	3.386	4.171	5.201	6.823	7.954	8.126	8.001	9.543	8.907	7.827	6.751	5.809	5.650	5.621	5.329	5.677	5.659	6.140	6.132	6.491	6.923	6.665	7.117	7.367	7.473	7.886	8.223	7.886	7.902	7.687	7.010	6.841	6.284
360.0	1344	2170	2760	2713	2203	1618	1341	1306	1336	1408	1490	1549	1561	1497	1340	1118	915.0	736.4	599.1	565.4	544.8	366.6	259.4	219.9	270.6	591.1	1771	9227	9999.9	397.7	21.74	9.121	5.904	4.221	3.290	2.913	2.366	2.494	2.203	2.001	1.877	2.163	2.241	2.629	3.020	3.902	4.786	6.402	7.337	7.243	7.637	9.209	8.201	7.475	6.723	5.924	5.787	5.690	5.590	5.808	5.783	5.952	6.227	6.737	6.731	6.919	6.656	7.146	7.343	7.538	7.450	7.228	7.697	7.570	6.865	6.768	6.089
365.0	1257	1945	2511	2534	2088	1615	1362	1334	1356	1425	1465	1503	1497	1419	1279	1093	905.8	748.9	619.1	543.4	548.7	477.9	304.7	228.0	190.7	221.9	461.5	2680	9999.9	9999.9	330.4	14.38	8.119	5.420	3.913	3.187	2.717	2.574	2.216	2.247	2.020	2.100	2.137	2.722	2.941	3.724	4.364	5.680	6.549	6.807	7.119	8.593	7.909	7.168	6.641	5.926	6.113	5.766	5.677	6.028	5.562	6.134	6.283	6.522	6.395	6.972	6.534	6.647	6.758	7.376	7.139	7.117	6.936	7.176	6.858	6.645	6.291
370.0	1147	1731	2240	2308	2018	1627	1398	1366	1383	1429	1459	1464	1442	1360	1228	1061	904.2	769.9	655.7	569.7	527.4	525.4	434.8	290.6	214.9	179.0	202.6	674.6	2994	9842	9999.9	1399	24.61	8.697	5.504	3.884	3.228	2.917	2.450	2.242	2.014	2.191	2.169	2.421	2.745	3.455	4.215	5.316	6.009	6.149	6.456	7.672	7.473	7.244	6.546	5.853	6.243	6.139	5.904	6.012	6.125	5.992	6.446	6.503	6.515	6.724	6.345	6.609	6.645	6.830	6.909	7.041	6.889	6.692	6.417	6.351	6.234
375.0	1036	1578	2044	2107	1958	1642	1463	1386	1402	1443	1455	1457	1443	1342	1185	1043	908.8	789.3	693.3	613.4	551.2	515.8	517.4	424.7	287.3	226.9	203.7	279.1	759.8	2348	7026	9999.9	2186	28.53	8.167	5.543	4.222	3.424	2.741	2.296	2.323	2.097	2.319	2.457	2.582	3.419	3.877	4.516	5.506	5.497	5.895	7.079	6.915	7.309	6.707	6.173	6.109	6.089	5.735	6.026	6.386	6.225	6.489	6.535	6.673	6.605	6.661	6.473	6.804	6.979	6.953	6.815	6.625	6.408	6.276	6.058	5.887
380.0	990.1	1458	1888	1975	1911	1654	1471	1429	1434	1471	1480	1448	1458	1336	1152	1021	905.4	801.7	716.6	645.6	586.1	538.5	517.3	515.2	379.9	281.7	250.4	233.0	294.8	630.8	1920	9135	9999.9	331.6	18.11	7.113	5.286	3.975	3.154	2.556	2.490	2.262	2.239	2.510	2.684	3.264	3.570	4.523	5.069	5.126	5.668	6.543	6.433	6.880	6.518	6.308	6.383	6.492	5.921	6.155	6.271	6.292	6.328	6.433	6.595	6.904	6.613	6.661	6.542	7.157	7.068	6.632	6.618	6.192	6.308	5.918	6.129
385.0	980.9	1378	1727	1893	1841	1654	1491	1435	1424	1471	1480	1445	1445	1297	1134	1005	906.1	817.8	736.9	679.6	624.0	573.8	533.3	540.7	483.5	348.2	302.0	260.9	221.4	271.2	563.2	2743	9999.9	9259	262.6	11.14	6.570	4.938	3.453	2.751	2.666	2.242	2.194	2.455	2.562	3.150	3.538	4.009	4.812	4.794	5.483	6.745	6.807	6.752	6.874	6.479	6.001	6.536	6.322	6.291	6.507	6.219	6.212	6.359	6.780	6.665	6.449	6.384	6.377	6.955	6.841	6.742	6.348	6.237	6.130	5.991	6.115
390.0	924.8	1292	1633	1790	1774	1638	1508	1441	1435	1459	1463	1425	1403	1270	1136	1011	920.2	849.8	785.6	734.6	699.0	654.4	608.1	577.0	557.2	486.5	390.8	322.4	258.1	234.5	283.3	736.9	2945	8207	8366	1089	19.97	7.291	4.618	3.438	2.787	2.465	2.336	2.473	2.642	2.924	3.503	4.038	4.462	4.594	4.927	6.332	6.514	6.506	6.430	6.084	6.354	6.520	6.301	6.154	6.520	6.468	6.507	6.369	6.828	6.613	6.330	6.418	6.524	6.605	6.747	6.230	6.282	6.244	6.032	5.941	6.045
395.0	852.5	1199	1537	1695	1739	1652	1517	1480	1435	1480	1486	1443	1417	1298	1163	1041	962.8	903.7	853.1	823.3	804.8	770.0	736.5	692.7	642.9	621.6	561.4	441.0	362.0	305.7	285.7	341.3	765.8	1973	5729	9964	1727	23.24	6.682	4.350	3.357	2.914	2.591	2.584	2.767	2.893	3.219	3.927	4.348	4.424	4.854	6.056	6.070	6.439	6.263	6.293	6.451	6.488	6.370	6.358	6.581	6.613	6.493	6.371	6.772	6.553	6.679	6.469	6.686	6.643	6.663	6.357	5.986	6.081	6.097	5.857	6.035
400.0	875.5	1171	1493	1619	1685	1631	1552	1489	1465	1511	1520	1509	1484	1360	1205	1085	1003	949.8	910.5	893.6	891.5	865.2	841.6	804.0	745.4	704.3	697.0	584.3	461.9	400.7	357.7	314.1	323.2	546.4	1581	7579	8610	278.3	15.24	5.583	3.755	3.388	3.039	2.620	2.941	2.913	3.236	3.950	4.201	4.424	4.614	6.009	6.032	6.401	6.406	6.183	6.764	6.332	6.473	6.515	6.533	6.600	6.396	6.752	6.859	6.531	6.521	6.397	6.666	6.548	6.580	6.279	6.436	5.938	6.212	6.037	6.108
405.0	853.8	1127	1411	1603	1680	1628	1556	1498	1498	1549	1579	1575	1532	1411	1243	1122	1045	986.5	953.5	950.0	953.7	950.9	931.6	901.0	842.3	783.5	770.4	722.6	576.3	493.2	440.7	364.5	271.0	260.1	452.3	2254	8334	6502	221.2	8.678	4.852	3.845	3.402	2.720	2.990	3.052	3.192	3.975	4.243	4.241	4.698	5.832	6.052	6.289	6.240	6.320	6.652	6.472	6.480	6.248	6.816	6.470	6.478	6.448	6.637	6.692	6.725	6.290	6.426	6.638	6.853	6.360	6.251	6.357	6.384	5.876	5.811
410.0	799.8	1081	1361	1526	1623	1593	1556	1508	1499	1539	1594	1582	1530	1416	1266	1139	1050	994.7	973.1	971.8	989.8	997.7	986.0	964.0	914.7	850.3	804.8	780.9	690.0	580.3	502.9	410.7	295.8	227.3	223.1	590.4	2431	6055	4883	962.0	15.78	4.788	3.748	3.168	3.000	3.121	3.328	3.824	4.080	3.974	4.400	5.678	5.889	6.122	6.047	6.259	6.494	6.584	6.540	6.468	6.726	6.697	6.565	6.625	6.589	6.496	6.632	6.446	6.390	6.657	6.442	6.220	6.026	6.136	6.103	5.951	6.045
415.0	754.6	1013	1290	1448	1542	1557	1520	1489	1457	1491	1536	1531	1465	1369	1224	1117	1026	979.2	960.2	967.3	984.2	994.1	989.8	974.1	927.9	860.9	808.7	760.6	715.2	645.8	529.3	422.5	311.1	229.8	181.7	222.5	600.8	1449	3941	7039	1407	17.85	4.573	3.840	3.467	3.381	3.137	3.651	4.051	3.853	4.219	5.466	5.425	6.066	5.907	5.841	6.538	6.383	6.434	6.546	6.266	6.355	6.445	6.441	6.146	6.322	6.046	6.150	5.955	6.396	5.919	5.774	5.910	5.816	5.779	5.823	5.864
420.0	712.7	1003	1237	1375	1480	1541	1522	1468	1417	1441	1489	1464	1414	1320	1185	1084	1003	950.3	940.8	956.3	969.2	988.2	981.8	964.0	924.0	862.8	807.0	749.3	691.7	655.5	552.6	425.8	315.3	233.8	172.9	141.8	194.6	357.7	1072	5334	6174	251.9	10.15	4.360	3.800	3.530	3.283	3.466	3.803	3.612	4.115	5.250	5.406	5.802	5.658	5.830	6.355	6.381	6.496	6.513	6.057	6.434	5.963	6.624	6.474	5.995	5.991	5.828	5.936	6.207	5.808	5.758	5.849	5.831	5.575	5.531	5.686
425.0	689.0	968.3	1170	1367	1460	1513	1497	1455	1412	1411	1457	1422	1366	1280	1153	1060	975.2	926.9	926.1	942.9	956.6	972.7	978.1	961.4	918.8	860.1	810.5	748.0	682.1	644.0	583.7	445.9	326.2	242.5	176.8	129.9	106.2	117.3	261.7	1573	5890	4710	35.78	6.237	4.212	3.870	3.464	3.852	3.755	3.626	4.116	4.923	5.178	5.669	5.755	6.034	6.461	6.334	6.179	6.244	6.312	6.256	5.963	5.999	6.089	5.770	5.844	5.528	5.596	5.701	5.836	5.939	5.717	5.565	5.599	5.283	5.418
430.0	706.9	926.6	1148	1315	1441	1526	1522	1482	1423	1384	1405	1383	1331	1241	1127	1033	954.5	914.3	911.6	920.8	933.7	951.5	954.7	948.8	908.0	855.7	810.6	754.9	690.1	637.3	591.1	491.5	357.7	260.9	193.7	140.3	97.58	70.61	85.33	369.5	1678	4276	3801	871.4	14.30	4.654	4.002	4.094	3.792	3.610	3.931	5.097	5.299	5.634	5.631	6.011	6.501	6.519	6.306	6.186	6.199	6.335	6.075	5.919	5.753	5.649	5.677	5.556	5.540	5.454	5.463	5.623	5.688	5.410	5.254	5.235	5.415
435.0	869.5	882.7	1118	1271	1428	1529	1555	1518	1438	1348	1359	1347	1295	1202	1087	996.7	930.0	886.1	881.6	885.4	897.8	909.1	912.9	910.0	879.9	835.0	794.0	744.0	691.3	633.7	573.3	499.8	396.4	284.2	209.1	152.1	105.9	67.90	51.61	103.0	388.6	1006	2911	5661	1320	17.74	4.756	4.638	4.267	3.731	3.766	4.840	5.418	5.701	5.947	5.964	6.659	6.646	6.568	6.774	6.370	6.633	5.840	5.781	5.469	5.493	5.035	5.178	5.220	5.383	5.228	5.235	5.319	5.243	5.092	5.010	5.482
440.0	1109	908.7	1101	1253	1414	1532	1583	1537	1427	1333	1312	1290	1244	1147	1048	960.5	898.0	856.9	850.8	849.9	854.9	863.4	865.1	867.6	842.1	802.6	768.6	725.4	673.0	619.5	553.7	478.8	402.9	302.2	216.2	160.3	111.0	71.46	46.94	47.01	104.6	238.4	786.2	4245	5296	234.2	10.67	4.938	4.304	4.017	3.898	4.875	5.666	5.744	5.983	5.891	6.862	6.668	6.724	6.637	6.174	6.343	6.204	5.878	5.390	5.220	5.216	5.370	5.160	5.275	5.084	4.971	4.963	5.026	5.051	5.124	5.074
445.0	1261	1053	1019	1206	1380	1536	1593	1545	1416	1299	1254	1223	1167	1095	997.9	919.3	854.4	823.2	814.7	809.9	804.8	811.8	813.6	815.4	786.1	757.0	723.1	685.3	643.3	590.1	526.8	450.1	381.8	311.1	222.9	160.8	112.4	72.83	48.67	37.67	42.97	67.84	188.0	1249	4960	4190	173.6	7.211	4.675	4.219	3.952	5.199	5.626	5.707	6.054	6.332	6.815	6.983	6.617	6.741	6.308	6.123	5.807	5.729	5.344	5.053	5.151	4.975	4.933	5.094	4.624	4.924	4.616	4.717	4.922	4.862	5.067
450.0	1051	1634	1087	1155	1344	1489	1577	1525	1366	1217	1164	1119	1080	998.8	917.2	845.9	797.6	762.9	755.9	750.2	732.0	733.9	735.1	735.4	713.7	687.1	659.7	629.3	589.5	546.4	489.7	415.8	342.9	288.1	231.1	165.2	113.4	77.11	52.77	39.50	32.23	32.57	55.51	290.8	1406	3673	3279	786.5	13.16	4.751	4.210	5.098	5.219	5.663	5.950	5.931	6.719	6.860	6.860	6.503	6.384	5.617	5.575	5.202	4.992	4.888	4.744	4.644	4.509	4.595	4.422	4.438	4.342	4.456	4.679	4.437	4.522
455.0	687.8	1929	1625	1100	1275	1439	1517	1458	1281	1141	1055	1012	972.6	902.5	826.1	772.1	725.1	695.4	690.5	677.5	656.5	646.5	653.7	651.6	637.1	614.7	592.4	566.5	536.9	497.7	451.1	382.4	315.3	256.8	220.9	175.4	118.2	78.76	57.42	41.73	32.75	27.67	27.97	76.62	322.9	860.8	2226	4562	1090	14.32	4.838	5.134	5.066	5.710	5.732	6.082	6.672	6.705	6.703	6.237	6.070	5.402	5.316	4.997	4.980	4.290	4.432	4.305	4.191	4.167	4.117	4.207	3.981	3.902	4.197	4.098	3.875
460.0	511.6	1582	2363	1161	1210	1376	1457	1409	1225	1067	989.3	952.9	906.9	826.4	768.3	715.5	674.2	648.4	635.3	616.0	597.4	591.5	594.3	596.1	582.0	562.6	542.9	518.9	492.1	462.7	421.3	360.3	295.4	240.6	200.3	175.3	125.3	81.82	59.14	44.53	34.48	27.96	23.26	30.53	83.75	201.4	575.8	3093	4036	177.6	10.69	5.703	5.256	5.697	5.784	5.829	6.450	6.587	6.232	6.213	5.648	5.313	4.986	4.525	4.522	4.039	3.955	4.092	4.018	3.831	3.951	4.057	3.875	3.856	3.740	3.783	3.993
465.0	456.8	1054	2756	1550	1119	1307	1396	1320	1149	998.0	914.1	884.1	839.3	775.6	708.7	665.5	621.2	598.7	588.7	567.7	549.4	533.8	540.0	539.6	526.5	511.3	495.4	476.3	457.1	429.6	391.0	335.9	280.7	229.0	185.1	162.1	131.5	86.84	60.70	47.24	36.43	29.10	23.64	22.06	31.14	55.34	138.5	863.5	3523	3133	155.9	8.250	5.457	5.665	5.826	5.564	6.255	6.203	5.952	5.857	5.553	5.171	4.746	4.628	4.359	3.777	3.566	3.875	3.865	3.581	3.710	3.535	3.566	3.525	3.521	3.564	3.623
470.0	438.2	692.0	2023	2722	1217	1179	1274	1205	1042	898.3	826.3	792.2	745.4	690.8	625.7	587.2	549.9	529.9	516.9	500.1	477.4	462.6	465.9	464.2	458.2	444.3	431.4	417.1	400.6	380.9	347.4	301.7	252.9	207.5	168.4	141.3	119.4	95.04	65.45	48.31	38.15	31.37	25.47	21.29	20.73	24.02	40.92	201.9	962.5	2412	2724	753.8	14.52	5.636	5.490	5.394	5.801	5.609	5.846	5.473	5.058	4.670	4.349	4.051	3.797	3.493	3.402	3.485	3.576	3.311	3.333	3.152	3.425	3.323	3.323	3.216	3.451
475.0	408.7	553.9	1041	3067	2096	1073	1132	1075	930.0	797.0	727.7	692.8	646.9	597.4	546.1	514.5	477.3	460.0	448.8	427.5	404.0	390.1	391.6	394.8	386.1	378.1	365.2	358.5	346.4	329.8	299.3	263.3	224.2	184.2	152.0	123.5	102.8	90.20	73.15	51.63	39.26	32.15	26.55	21.50	19.06	17.52	19.77	54.01	221.9	553.2	1312	2926	1032	18.62	5.226	5.103	5.227	5.140	5.438	4.729	4.558	4.350	3.666	3.492	3.501	3.190	3.102	2.866	2.948	3.036	3.245	2.755	3.040	3.099	2.880	2.951	2.924
480.0	391.7	491.4	672.3	2227	3205	1150	1029	970.5	851.8	729.1	666.9	630.1	587.7	538.8	495.5	461.3	431.3	414.6	397.7	383.1	358.9	348.2	346.4	345.7	344.6	334.8	323.9	320.0	307.5	293.0	268.3	237.9	204.1	168.3	141.3	114.7	93.04	79.93	73.04	56.95	40.09	32.20	27.06	22.84	20.01	17.23	15.62	21.55	57.18	129.9	320.1	1607	2878	217.9	13.52	5.040	5.193	4.837	5.076	4.448	4.282	3.856	3.733	3.061	3.192	2.896	3.044	2.961	2.997	2.717	2.838	2.656	2.764	2.699	2.854	2.751	2.822
485.0	359.3	472.7	561.1	1312	3694	1729	941.3	894.3	781.4	671.5	611.2	583.8	531.3	491.7	448.0	418.3	391.7	377.7	361.6	350.5	324.1	310.4	311.4	311.6	308.6	302.2	291.4	288.6	276.4	265.9	246.9	217.3	187.6	156.4	131.2	106.9	88.96	72.54	65.84	60.63	44.54	33.63	28.03	23.67	20.79	17.67	14.94	14.93	20.56	35.80	77.64	419.6	2063	2512	189.4	8.600	5.244	4.736	4.668	4.435	3.830	3.559	3.597	2.926	2.844	2.686	2.814	2.658	2.664	2.524	2.614	2.547	2.360	2.661	2.558	2.326	2.542
490.0	315.5	449.8	500.6	740.3	2550	3215	1094	810.0	698.1	607.3	545.7	521.0	480.1	438.7	400.5	371.7	347.8	332.5	319.4	306.4	284.8	272.2	270.5	273.0	268.5	262.8	257.5	253.6	245.7	234.8	219.3	195.3	168.8	141.6	120.0	100.4	82.99	68.14	58.73	56.24	50.08	36.97	29.51	24.56	20.96	17.84	15.52	13.49	12.96	15.16	23.35	99.26	528.6	1523	1967	794.4	17.13	5.034	4.561	4.139	3.660	3.481	3.123	2.905	2.683	2.540	2.576	2.470	2.347	2.300	2.414	2.342	2.257	2.361	2.283	2.325	2.253
495.0	264.7	397.5	482.8	543.3	1164	3580	2153	728.0	622.1	536.3	487.2	464.5	429.9	385.1	347.0	322.8	302.3	291.2	279.4	263.3	243.6	233.5	230.9	231.9	228.9	226.3	219.9	218.8	212.1	205.1	190.8	173.1	149.2	127.8	106.8	91.55	74.70	63.68	53.23	48.65	48.13	42.70	31.02	25.45	21.84	18.01	15.55	13.80	11.66	10.90	11.24	27.84	123.1	346.8	896.7	2537	1316	23.38	4.736	3.934	3.527	3.125	2.962	2.601	2.319	2.335	2.195	2.173	2.228	2.265	2.228	2.232	1.990	2.055	2.206	1.991	2.016
500.0	218.2	341.5	467.5	465.9	672.5	2523	3484	810.5	550.0	485.0	441.3	412.3	382.0	348.1	310.3	286.8	270.4	256.0	248.5	233.8	215.5	206.7	206.2	205.0	201.7	199.5	194.7	192.2	188.9	184.7	172.3	156.7	136.9	115.9	99.37	83.34	69.91	59.63	50.15	44.22	41.90	43.33	34.46	25.03	21.50	18.05	16.24	14.27	11.96	10.23	9.045	11.88	32.27	82.19	214.2	1196	2714	977.1	17.93	4.039	3.490	3.172	2.811	2.663	2.317	2.268	2.193	2.191	1.922	2.041	1.914	1.788	1.879	1.910	1.870	1.902	1.912
505.0	199.4	280.2	431.5	439.3	520.4	1327	4129	1456	514.0	445.2	400.8	376.6	346.8	308.5	277.7	257.0	240.0	228.3	219.8	206.6	193.0	184.0	181.4	181.6	178.0	176.1	174.2	171.7	169.7	165.0	153.5	141.0	123.5	104.6	89.26	77.19	65.93	55.38	47.30	41.12	37.50	38.50	36.02	26.89	21.53	18.54	16.61	13.99	12.13	10.27	8.452	8.602	12.31	23.20	52.20	293.4	1524	2483	230.5	10.96	3.509	2.972	2.669	2.454	2.113	2.139	1.915	1.958	1.715	1.808	1.748	1.744	1.808	1.846	1.810	1.750	1.702
510.0	174.0	247.4	346.1	422.4	428.1	669.0	2700	3258	683.5	388.0	350.9	324.2	298.3	268.1	242.1	222.7	205.1	197.6	186.5	177.4	164.0	155.1	154.1	154.1	150.2	150.1	148.6	145.6	143.7	140.2	131.3	121.0	105.7	91.36	79.06	68.75	58.80	50.04	43.69	37.75	33.85	32.06	32.88	29.59	23.06	18.46	15.89	13.57	11.94	9.779	8.625	7.703	7.928	9.941	15.98	69.58	371.4	1197	1673	864.3	17.77	3.399	2.622	2.272	1.954	1.998	1.785	1.729	1.598	1.681	1.582	1.533	1.637	1.637	1.542	1.510	1.522
515.0	147.3	201.3	263.2	383.2	376.8	444.8	1050	3862	1891	347.5	302.4	282.9	259.7	230.6	207.8	186.4	176.1	164.5	153.7	148.5	136.9	129.8	128.8	125.8	125.6	124.0	123.5	121.8	121.4	117.1	109.1	101.9	89.80	78.66	67.86	60.09	51.28	46.00	39.56	34.57	30.87	28.01	26.98	27.83	25.69	19.76	14.55	13.26	11.08	9.806	8.386	7.841	6.928	6.894	7.790	19.42	86.54	270.9	578.3	1760	1161	24.53	2.893	2.186	2.124	1.940	1.903	1.701	1.580	1.454	1.436	1.389	1.347	1.478	1.451	1.342	1.337
520.0	122.1	181.0	227.6	337.5	368.0	361.7	516.7	2625	3563	484.9	272.5	247.8	227.8	199.6	184.3	167.3	154.0	146.5	136.5	130.2	119.2	111.5	112.5	111.6	108.9	106.8	108.0	106.8	106.1	103.0	95.93	89.49	79.93	69.40	60.05	53.08	47.01	41.14	36.55	31.82	28.58	25.30	24.28	23.72	25.00	21.12	15.49	12.79	11.04	9.421	8.381	7.849	7.126	5.988	5.757	8.139	22.98	63.97	134.8	714.9	1875	810.1	18.00	2.384	2.249	1.702	1.615	1.523	1.466	1.348	1.389	1.168	1.248	1.419	1.365	1.254	1.289
525.0	116.7	169.1	201.0	277.1	357.1	337.2	361.8	1213	4485	1229	246.2	228.1	206.2	180.3	161.8	146.8	137.4	126.3	121.5	114.1	106.5	99.01	98.14	96.93	96.13	94.03	94.68	93.60	91.95	90.88	85.60	79.25	71.05	61.95	54.22	48.20	42.69	37.62	32.96	29.60	26.35	23.66	21.48	20.93	22.38	21.84	15.95	12.73	10.54	9.044	8.107	7.372	7.002	5.931	5.170	5.498	8.567	17.61	33.59	170.2	900.8	1718	235.6	10.80	2.017	1.634	1.638	1.368	1.457	1.331	1.387	1.183	1.237	1.152	1.001	1.142	1.064
530.0	117.5	145.7	169.7	210.7	303.9	305.3	287.4	491.4	2824	3191	458.0	197.1	178.0	154.1	137.9	124.8	116.7	107.7	103.0	96.72	88.82	83.83	82.86	82.10	80.14	79.66	79.98	78.61	78.62	76.35	72.77	66.89	60.77	53.43	47.00	41.65	37.45	32.66	29.54	26.50	23.60	21.36	19.34	18.00	18.35	19.45	17.94	13.42	10.05	8.740	7.615	6.845	6.311	5.913	5.317	4.818	5.141	6.994	10.24	40.63	213.2	728.4	1148	669.1	17.78	2.051	1.598	1.412	1.221	1.249	1.134	1.101	1.077	1.027	0.952	1.086	0.986
535.0	92.06	127.2	139.4	169.8	242.9	294.1	249.1	276.7	926.1	4130	1661	180.2	149.1	132.2	116.8	106.9	96.46	90.72	86.25	80.80	73.81	69.28	69.30	67.78	66.39	66.75	65.53	63.97	65.94	63.49	61.07	56.70	51.18	44.85	40.34	35.62	31.90	28.50	25.40	22.66	21.24	19.04	17.14	15.68	15.26	14.99	16.16	14.69	10.29	8.094	6.972	6.584	5.647	5.304	5.274	4.874	4.425	4.424	4.969	11.67	49.87	164.6	347.2	1109	868.5	25.11	1.781	1.377	1.260	1.056	0.981	0.983	1.097	0.962	0.986	1.015	0.873
540.0	87.72	110.1	128.1	147.6	184.4	272.3	234.8	218.2	350.7	2611	3781	229.1	130.5	115.2	102.7	92.41	84.14	77.99	73.00	69.24	64.70	61.09	59.00	59.21	56.77	58.49	56.76	55.10	56.66	55.33	52.20	49.00	44.60	39.84	35.26	31.29	28.63	25.14	22.95	20.11	19.07	17.31	15.98	14.04	13.77	12.85	13.27	14.27	10.97	8.171	6.746	6.046	5.196	4.607	4.572	4.946	4.076	3.733	3.691	4.869	13.32	38.71	80.25	410.1	1220	612.7	17.88	1.523	1.332	1.050	1.034	0.943	0.981	0.892	0.897	0.942	0.877
545.0	81.60	99.36	118.9	121.7	153.7	230.9	226.3	179.1	200.1	1052	4754	954.3	118.4	102.5	89.51	80.25	74.86	68.63	64.44	59.24	55.55	53.19	51.30	51.22	49.89	49.51	48.81	49.98	48.38	47.02	45.60	43.16	38.20	33.90	30.10	27.73	25.32	22.99	20.35	18.50	17.46	15.67	14.30	12.88	12.11	11.45	10.85	12.39	11.51	8.416	6.334	5.709	4.911	4.543	4.325	4.455	4.237	3.444	3.196	3.091	4.980	10.39	19.75	96.34	535.4	1148	231.1	9.279	1.334	1.152	0.862	0.933	0.949	0.816	0.800	0.779	0.911
550.0	73.63	83.59	102.1	107.6	124.7	167.1	222.2	163.7	143.1	350.4	2767	3276	259.1	86.93	74.70	67.72	61.21	55.92	53.51	49.76	46.54	43.00	40.89	41.75	40.94	40.25	40.53	40.08	39.77	39.11	37.24	35.00	32.00	27.94	25.59	23.17	20.91	19.55	17.52	15.69	14.78	13.48	11.92	11.58	10.51	9.874	8.907	9.392	10.07	8.621	6.555	5.228	4.497	4.190	3.957	3.678	3.830	3.459	2.799	2.677	2.913	3.944	5.883	22.95	125.6	458.2	750.0	450.1	16.98	1.420	1.056	0.901	0.815	0.758	0.736	0.731	0.763
555.0	61.99	73.48	82.00	90.43	102.4	122.1	184.5	158.5	110.6	157.0	804.0	4098	1169	75.81	61.73	54.90	49.09	44.86	41.93	39.13	37.27	35.43	33.35	32.80	32.53	32.17	31.19	31.31	32.15	31.94	30.44	28.17	25.54	23.13	20.79	18.84	17.13	15.62	14.37	13.14	12.08	11.22	10.19	9.744	8.763	8.228	7.570	7.073	7.301	7.691	6.729	4.908	4.013	3.827	3.281	3.125	3.111	3.131	2.848	2.588	2.298	2.202	2.726	6.427	29.27	103.4	222.0	681.4	537.2	22.91	1.184	0.925	0.746	0.735	0.701	0.663	0.617
560.0	60.86	65.63	68.68	76.45	92.23	100.5	139.7	165.2	98.96	102.7	250.3	2529	3117	131.7	53.09	48.32	41.48	38.03	34.79	33.32	30.74	29.01	28.17	27.42	27.32	26.72	26.75	25.38	26.96	27.18	24.88	22.79	21.39	19.95	17.69	16.11	14.60	13.41	12.52	11.62	10.15	9.423	8.842	7.938	7.611	7.162	6.594	6.410	5.723	6.352	6.423	4.972	3.903	3.602	2.826	2.987	2.780	2.651	2.754	2.616	2.075	1.779	1.926	2.619	7.696	24.24	51.22	245.1	726.7	249.6	15.10	1.057	0.786	0.716	0.544	0.656	0.689
565.0	55.34	65.57	71.61	70.68	77.11	81.03	102.8	158.2	102.1	81.35	114.5	934.5	4182	601.0	47.87	40.15	35.21	31.64	29.39	28.09	25.42	24.67	24.85	23.43	23.29	22.38	23.37	21.49	22.04	22.04	20.69	19.41	18.04	16.20	15.23	13.76	12.54	11.90	10.75	9.870	9.035	8.474	7.909	7.119	6.714	6.122	5.570	5.604	4.772	4.920	5.709	5.099	3.742	3.231	2.557	2.605	2.415	2.393	2.247	2.737	1.955	1.618	1.630	1.777	2.781	6.563	12.50	57.29	309.8	638.4	197.5	5.851	0.913	0.760	0.599	0.659	0.641
570.0	55.54	60.12	60.85	59.38	62.37	67.13	74.82	115.1	118.8	72.48	75.50	273.1	2483	2553	91.42	33.65	29.62	26.79	24.47	22.64	21.28	19.88	19.75	19.01	18.04	17.93	18.42	17.57	18.11	17.64	16.95	15.78	14.20	13.22	12.65	11.24	10.37	9.617	8.763	7.985	7.682	6.784	6.319	6.021	5.530	5.141	4.560	4.668	4.065	3.720	4.112	4.452	3.832	2.990	2.304	2.342	2.131	1.984	1.958	2.045	2.008	1.808	1.456	1.492	1.658	2.538	3.939	13.78	72.42	252.7	439.3	226.1	15.07	0.978	0.658	0.575	0.520
575.0	55.96	56.61	55.37	48.32	54.18	54.04	58.10	76.67	120.4	75.13	60.86	105.1	697.8	3356	786.5	31.97	25.52	21.70	20.16	18.22	17.76	16.55	15.56	14.64	15.19	14.34	14.21	14.15	13.88	13.84	13.51	12.71	11.51	10.64	9.504	9.102	8.701	7.584	6.748	6.326	6.007	5.659	5.358	4.834	4.654	4.484	4.199	3.862	3.341	3.038	3.021	3.365	3.589	3.177	2.324	2.149	1.792	1.747	1.734	1.653	1.700	1.802	1.460	1.376	1.467	1.557	1.880	3.882	17.19	57.25	126.2	370.3	251.3	19.45	0.897	0.618	0.573
580.0	57.63	64.21	50.72	49.99	48.16	47.10	47.89	57.59	105.7	94.39	56.64	65.40	198.7	2063	2325	67.00	21.17	18.92	17.81	15.65	14.68	13.87	13.80	13.13	12.62	11.73	11.72	12.07	12.30	11.63	11.03	10.51	9.553	9.264	8.256	7.743	7.210	6.463	6.070	5.357	4.972	4.844	4.593	4.268	4.084	3.725	3.485	3.341	3.016	2.706	2.521	2.516	3.064	3.212	2.325	1.939	1.797	1.562	1.656	1.617	1.610	1.579	1.791	1.426	1.465	1.362	1.276	1.647	4.794	13.70	29.28	131.9	397.9	207.4	11.28	0.689	0.561
585.0	59.09	61.23	53.23	47.41	41.23	41.54	42.89	47.94	79.80	107.8	56.25	53.51	80.13	748.6	3191	330.3	19.67	17.50	14.62	13.24	13.08	11.51	11.39	10.88	10.47	10.41	9.733	10.46	9.962	9.741	9.895	9.031	7.846	8.016	7.230	6.633	6.033	5.843	5.345	4.927	4.407	4.089	3.974	3.609	3.485	3.192	2.837	2.820	2.676	2.370	2.176	2.032	2.475	2.701	2.428	1.829	1.567	1.537	1.472	1.516	1.359	1.441	1.732	1.537	1.272	1.209	1.132	1.296	1.959	3.866	7.548	31.10	169.5	380.5	139.8	4.151	0.555
590.0	52.99	56.37	52.51	42.48	37.82	33.57	38.41	40.41	53.45	99.18	68.61	47.83	49.80	205.6	1893	1509	50.96	14.97	12.74	10.92	10.71	9.290	9.461	8.738	8.679	8.662	8.248	8.513	8.401	8.255	7.968	7.381	6.623	6.285	6.061	5.541	4.952	4.811	4.664	4.119	3.787	3.512	3.503	3.131	2.947	2.658	2.508	2.510	2.205	1.935	1.810	1.803	1.812	2.128	2.363	2.054	1.467	1.396	1.301	1.265	1.204	1.172	1.396	1.564	1.377	1.088	1.105	1.056	1.377	1.736	2.435	7.729	39.64	145.8	256.9	140.3	13.44
595.0	55.85	54.79	46.24	42.45	33.96	32.79	37.12	37.07	42.96	72.97	93.83	47.50	40.46	71.67	518.7	2294	490.6	13.83	11.44	8.949	8.388	8.141	7.147	7.585	7.203	7.249	7.195	6.899	6.971	6.942	6.325	5.811	5.473	5.244	4.856	4.535	4.235	3.922	3.636	3.289	2.973	2.832	2.749	2.600	2.326	2.223	2.232	1.980	1.773	1.709	1.501	1.489	1.378	1.580	1.937	1.982	1.598	1.311	1.147	1.167	1.132	1.121	1.137	1.235	1.370	1.200	1.068	1.136	1.155	1.299	1.380	2.452	9.559	33.11	72.30	212.0	188.7
600.0	48.32	50.56	47.49	37.38	37.01	29.23	36.34	36.16	38.74	56.83	100.2	57.36	42.64	42.79	140.2	1510	1445	30.54	9.537	8.104	7.785	6.800	6.256	6.871	5.915	6.201	6.052	5.869	5.639	5.983	5.291	5.295	4.778	4.495	4.300	3.765	3.512	3.362	3.064	2.769	2.600	2.498	2.583	2.398	2.101	1.984	1.917	1.724	1.612	1.305	1.334	1.364	1.188	1.354	1.434	1.769	1.688	1.337	1.178	1.049	0.960	1.097	0.991	1.057	1.177	1.419	1.167	1.073	1.026	1.101	1.082	1.314	2.937	8.012	16.85	74.54	236.7
605.0	55.23	58.98	49.21	39.32	33.37	33.18	36.84	38.90	41.17	53.78	90.86	76.14	45.66	39.86	52.33	567.0	2105	87.81	9.694	7.380	6.871	6.461	5.662	5.867	5.399	5.060	5.331	5.279	4.977	4.856	4.873	4.515	4.152	4.056	3.524	3.355	2.996	3.028	2.681	2.542	2.086	2.253	2.081	1.944	1.874	1.922	1.910	1.724	1.383	1.190	1.182	1.218	1.149	0.991	1.097	1.416	1.526	1.376	1.118	1.014	0.968	1.111	0.969	1.116	1.160	1.310	1.261	1.089	0.998	0.905	0.919	1.066	1.356	2.360	4.224	17.58	95.74
610.0	50.41	59.61	55.78	43.41	38.07	37.51	39.47	45.16	48.28	59.63	84.66	103.9	62.06	45.59	40.39	159.2	1388	1002	28.34	6.670	6.005	5.252	5.099	4.698	4.392	4.311	4.575	4.424	4.204	4.125	3.977	3.735	3.597	3.428	2.970	2.853	2.674	2.365	2.365	2.177	1.980	1.849	1.702	1.840	1.611	1.564	1.559	1.466	1.211	1.101	1.034	1.078	0.986	0.902	0.950	1.019	1.306	1.399	1.226	0.964	0.984	1.110	0.963	1.008	1.069	1.073	1.221	1.197	1.117	0.989	1.015	0.934	0.989	1.179	1.512	4.452	22.63
615.0	57.22	57.33	52.17	45.55	37.00	36.57	40.14	47.67	51.80	63.34	76.97	107.8	80.44	51.94	40.94	57.32	405.5	1669	282.1	6.978	5.064	4.958	4.558	4.498	3.853	3.915	3.595	3.588	3.617	3.418	3.502	3.153	3.222	2.647	2.564	2.432	2.172	2.015	1.992	1.678	1.548	1.713	1.432	1.617	1.369	1.293	1.417	1.196	1.138	0.929	0.952	0.881	0.915	0.855	0.838	0.868	0.953	1.312	1.151	1.013	0.918	0.915	0.904	0.937	0.938	1.006	1.000	1.298	1.306	1.230	1.008	0.860	0.983	0.959	0.931	1.679	5.620
620.0	58.07	50.16	58.34	45.68	37.67	37.57	41.97	46.54	52.41	63.21	73.42	95.84	94.05	55.99	42.18	35.94	115.7	1214	661.9	13.04	4.751	4.010	3.846	3.735	3.471	3.350	3.189	3.123	3.054	3.096	2.864	2.595	2.700	2.327	2.203	2.115	1.993	1.856	1.759	1.539	1.406	1.420	1.257	1.511	1.167	1.041	1.196	1.167	0.991	0.797	0.827	0.954	0.818	0.825	0.738	0.829	0.909	1.044	1.105	1.154	1.009	0.849	0.813	0.866	0.867	0.874	0.918	1.012	1.222	1.127	0.974	0.881	0.845	0.744	0.879	0.902	1.751
625.0	55.65	55.65	56.26	50.00	36.35	38.36	42.62	45.72	45.44	59.66	67.74	81.43	100.2	59.55	40.99	31.29	46.06	501.1	1465	59.40	4.732	4.049	3.140	3.333	3.023	2.779	2.752	2.768	2.534	2.654	2.843	2.262	2.189	1.964	2.196	1.909	1.733	1.707	1.523	1.275	1.274	1.273	1.104	1.295	0.918	0.922	1.074	1.016	1.011	0.766	0.785	0.750	0.718	0.758	0.715	0.815	0.728	0.891	1.059	1.033	0.995	0.872	0.792	0.920	0.826	0.992	0.840	0.901	0.994	1.252	1.110	0.880	0.710	0.743	0.793	0.645	0.804
630.0	55.18	58.27	56.71	49.84	39.88	37.02	42.21	44.98	47.40	58.15	66.38	74.17	91.36	70.98	43.47	30.16	28.69	136.1	1117	693.4	12.90	3.708	2.974	2.772	2.667	2.398	2.201	2.242	2.356	2.331	2.177	2.145	1.889	1.851	1.728	1.611	1.617	1.451	1.333	1.140	1.129	1.032	0.982	1.015	0.861	0.890	0.957	0.904	0.814	0.709	0.639	0.685	0.636	0.695	0.701	0.627	0.692	0.767	0.817	0.839	0.949	0.823	0.859	0.768	0.826	0.882	0.690	0.850	1.014	1.071	1.084	0.874	0.698	0.715	0.659	0.604	0.578
635.0	49.32	62.96	65.50	47.01	43.76	38.50	42.45	46.98	50.46	57.23	65.62	69.67	77.31	79.33	47.54	30.45	24.86	42.52	340.0	1287	67.41	3.593	2.705	2.467	2.303	2.156	2.128	1.826	2.274	2.101	1.964	1.822	1.564	1.710	1.360	1.399	1.482	1.261	1.119	1.104	1.042	0.863	0.877	0.901	0.805	0.745	0.803	0.818	0.681	0.517	0.643	0.661	0.599	0.587	0.603	0.619	0.647	0.687	0.684	0.710	0.867	0.699	0.836	0.712	0.683	0.821	0.743	0.781	0.871	0.783	0.997	0.911	0.742	0.616	0.537	0.564	0.639
640.0	44.26	67.36	58.98	51.31	41.59	36.82	41.58	45.34	47.83	55.87	67.42	70.12	74.93	81.07	54.03	32.17	24.33	21.33	89.10	1038	491.1	6.396	2.976	2.521	2.115	2.021	2.020	1.914	1.701	1.705	1.735	1.582	1.468	1.464	1.304	1.286	1.246	1.227	0.993	0.953	0.839	0.871	0.710	0.751	0.752	0.809	0.683	0.822	0.673	0.552	0.595	0.592	0.611	0.615	0.513	0.568	0.581	0.575	0.571	0.689	0.710	0.782	0.697	0.830	0.637	0.721	0.673	0.812	0.717	0.798	0.906	0.949	0.935	0.623	0.585	0.611	0.567
645.0	55.27	65.21	58.63	49.72	43.32	38.43	41.56	43.37	47.00	54.40	64.59	70.06	70.03	75.98	60.63	32.71	25.74	16.77	26.73	468.8	1076	38.42	3.199	2.484	2.146	1.888	1.746	1.748	1.652	1.675	1.583	1.311	1.256	1.393	1.169	1.122	1.074	1.188	0.859	0.912	0.866	0.813	0.746	0.724	0.671	0.721	0.650	0.657	0.680	0.514	0.534	0.595	0.682	0.539	0.542	0.513	0.564	0.522	0.643	0.610	0.621	0.706	0.742	0.721	0.608	0.697	0.687	0.692	0.773	0.758	0.792	0.843	0.829	0.699	0.525	0.626	0.443
650.0	56.90	77.18	70.35	52.82	40.93	37.69	40.43	42.05	46.52	54.22	62.19	65.27	68.10	67.46	65.46	35.97	24.56	16.37	12.82	137.6	1137	258.2	3.605	2.254	2.177	2.050	1.696	1.581	1.483	1.557	1.570	1.217	1.408	1.331	1.117	1.088	1.037	1.059	0.858	0.834	0.786	0.722	0.715	0.641	0.556	0.650	0.636	0.690	0.613	0.568	0.538	0.567	0.564	0.547	0.515	0.482	0.543	0.518	0.624	0.638	0.600	0.681	0.664	0.771	0.549	0.666	0.663	0.727	0.645	0.788	0.787	0.769	0.769	0.721	0.493	0.555	0.556
