Sample:	'1
File name:	L2025090902ÌìÄþËÂ¶«Â·ÇÅ.FD3
Run date:	'17:54:13, 09/09/2025
Operator:	Administrator
Comment:	'

Instrument
Model:	F-2700 FL Spectrophotometer
Serial number:	3064-004
ROM Version:	4J14000 07

Instrument parameters
Measurement type:	3-D scan
Data mode:	Fluorescence
EX  Start WL:	220.0 nm
EX  End WL:	600.0 nm
EX Sampling interval:	5.0 nm
EM  Start WL:	230.0 nm
EM  End WL:	650.0 nm
EM Sampling interval:	5.0 nm
Scan speed:	12000 nm/min
EX Slit:	5.0 nm
EM Slit:	5.0 nm
PMT Voltage:	700 V
Response:	Auto 
Corrected spectra:	Off
Contour interval:	50.000

Peak integration
Integration method:	Rectangular
Sensitivity:	1
Threshold:	1.000

Peaks
No.	ApexEX/EM(nm)	Height(Data)
1	225.0/595.0	27.24
2	225.0/620.0	21.42
3	225.0/630.0	20.52
4	225.0/640.0	22.71
5	230.0/635.0	21.40
6	235.0/585.0	33.73
7	235.0/620.0	20.73
8	235.0/645.0	20.99
9	240.0/520.0	260.3
10	245.0/265.0	318.9
11	245.0/530.0	249.4
12	245.0/635.0	18.79
13	250.0/540.0	222.7
14	255.0/280.0	601.9
15	255.0/555.0	186.9
16	260.0/285.0	716.3
17	260.0/565.0	164.3
18	265.0/290.0	704.4
19	265.0/420.0	 1048
20	265.0/580.0	155.7
21	270.0/295.0	 1060
22	270.0/410.0	 1047
23	270.0/590.0	128.8
24	275.0/305.0	 1301
25	275.0/385.0	 1022
26	275.0/400.0	 1051
27	275.0/605.0	134.6
28	280.0/310.0	 1259
29	280.0/615.0	105.4
30	285.0/315.0	 1302
31	285.0/630.0	89.55
32	290.0/240.0	4.395
33	290.0/320.0	 1204
34	290.0/640.0	75.45
35	295.0/330.0	943.3
36	300.0/335.0	822.2
37	305.0/340.0	855.5
38	305.0/395.0	 1007
39	310.0/345.0	768.4
40	310.0/400.0	 1014
41	315.0/355.0	725.5
42	320.0/360.0	830.6
43	325.0/365.0	812.4
44	330.0/375.0	809.7
45	335.0/380.0	866.3
46	340.0/385.0	829.7
47	350.0/400.0	786.3
48	460.0/545.0	32.89
49	505.0/275.0	3.097
50	510.0/280.0	3.043
51	520.0/285.0	3.589
52	530.0/290.0	3.518
53	530.0/415.0	4.545
54	540.0/295.0	4.874
55	545.0/300.0	5.746
56	550.0/305.0	6.744
57	560.0/310.0	5.894
58	560.0/445.0	4.740
59	570.0/315.0	7.314
60	575.0/320.0	6.267
61	590.0/330.0	5.105

Data points
	220.0	225.0	230.0	235.0	240.0	245.0	250.0	255.0	260.0	265.0	270.0	275.0	280.0	285.0	290.0	295.0	300.0	305.0	310.0	315.0	320.0	325.0	330.0	335.0	340.0	345.0	350.0	355.0	360.0	365.0	370.0	375.0	380.0	385.0	390.0	395.0	400.0	405.0	410.0	415.0	420.0	425.0	430.0	435.0	440.0	445.0	450.0	455.0	460.0	465.0	470.0	475.0	480.0	485.0	490.0	495.0	500.0	505.0	510.0	515.0	520.0	525.0	530.0	535.0	540.0	545.0	550.0	555.0	560.0	565.0	570.0	575.0	580.0	585.0	590.0	595.0	600.0
230.0	23.76	604.1	 2622	 1309	76.70	7.612	6.904	5.002	4.256	3.553	4.135	4.446	3.303	3.324	3.582	2.762	2.746	1.903	1.875	1.423	1.822	1.310	1.600	1.201	1.146	0.987	0.909	1.053	0.845	0.888	0.692	0.772	0.507	0.737	0.789	0.610	0.650	0.618	0.577	0.596	0.612	0.704	0.635	0.404	0.431	0.470	1.543	5.712	8.385	6.286	2.332	0.653	0.363	0.352	0.312	0.273	0.263	0.264	0.245	0.322	0.195	0.220	0.258	0.291	0.160	0.139	0.280	0.120	0.122	0.269	0.179	0.090	0.198	0.116	0.234	0.161	0.140
235.0	48.19	159.2	 1127	 2695	 1054	123.5	8.508	7.095	4.539	3.820	6.089	3.471	4.646	2.863	3.020	3.211	2.442	1.966	2.192	1.558	1.266	1.528	1.603	0.772	1.219	1.025	0.841	0.994	0.946	0.744	0.524	0.881	0.750	1.014	0.645	0.805	0.621	0.687	0.702	0.509	0.754	0.533	0.497	0.606	0.513	0.467	0.668	1.847	3.430	5.997	7.827	7.170	3.791	0.770	0.355	0.292	0.326	0.255	0.301	0.280	0.193	0.334	0.021	0.140	0.341	0.224	0.263	0.118	0.127	0.370	0.143	0.208	0.438	0.134	0.070	0.059	0.234
240.0	45.10	94.54	295.2	 1563	 3315	903.3	61.20	7.167	6.588	5.726	6.160	3.186	3.746	3.318	4.395	2.862	2.022	2.659	2.204	1.527	1.755	1.125	1.453	1.181	1.554	1.374	0.901	1.213	1.149	0.631	0.641	0.600	0.606	0.726	0.419	0.425	0.593	0.712	0.901	0.533	0.451	0.549	0.501	0.692	0.544	1.079	0.576	0.913	1.171	1.937	4.958	9.279	11.94	7.594	2.173	0.689	0.240	0.462	0.181	0.191	0.293	0.341	0.107	0.170	0.330	0.285	0.228	0.076	0.205	0.153	0.219	0.050	0.173	0.230	0.125	0.088	0.272
245.0	20.64	99.88	117.7	431.0	 2377	 3855	726.8	26.78	9.029	6.167	6.101	3.383	3.846	3.958	3.124	2.790	2.452	2.368	2.741	1.983	1.679	1.351	0.988	0.834	1.200	1.166	1.232	1.330	1.139	0.866	0.830	0.625	0.718	0.697	0.452	0.470	0.375	0.548	0.626	0.512	0.669	0.498	0.709	0.729	0.533	1.030	0.629	0.710	0.648	0.800	1.416	3.534	8.717	14.30	13.54	6.200	1.396	0.437	0.241	0.297	0.137	0.364	0.323	0.048	0.317	0.293	0.263	0.117	0.165	0.221	0.096	0.024	0.077	0.295	0.214	0.237	0.137
250.0	13.76	57.51	147.3	188.7	642.7	 2354	 3917	 2221	191.1	9.775	8.031	5.325	5.739	3.616	3.180	3.563	3.285	2.649	2.860	2.176	1.865	1.471	1.297	1.676	1.270	1.232	1.237	1.174	1.164	0.955	0.978	0.890	0.803	0.680	0.623	0.472	0.574	0.428	0.552	0.590	0.578	0.638	0.465	0.634	0.454	0.622	0.599	0.877	0.988	0.847	0.784	1.176	2.544	4.996	8.835	12.85	14.99	12.19	6.259	1.724	0.307	0.195	0.259	0.140	0.337	0.192	0.287	0.335	0.064	0.379	0.262	0.213	0.222	0.222	0.235	0.103	0.128
255.0	5.906	20.53	74.21	224.5	267.1	563.2	 1815	 5689	 3560	243.5	9.919	8.672	5.532	4.716	4.155	3.856	3.184	1.867	2.312	1.998	1.902	1.829	1.731	1.581	1.913	1.576	1.199	1.447	0.740	1.022	0.888	1.112	0.857	0.625	0.465	0.576	0.554	0.443	0.592	0.544	0.699	0.658	0.572	0.581	0.385	0.445	0.577	0.485	0.743	0.990	1.125	1.234	0.954	1.304	2.362	3.531	6.822	15.88	26.32	22.10	9.415	1.513	0.279	0.110	0.388	0.256	0.130	0.301	0.069	0.298	0.284	0.251	0.123	0.140	0.263	0.174	0.255
260.0	3.434	15.19	27.39	145.9	313.0	210.6	466.4	 3020	 7369	 3018	124.4	10.45	7.893	7.399	5.037	4.717	3.246	2.744	2.303	2.187	2.303	2.209	2.099	1.591	1.707	1.612	1.194	1.029	1.152	0.973	0.863	0.961	0.753	0.789	0.583	0.656	0.532	0.402	0.462	0.487	0.577	0.472	0.515	0.530	0.395	0.619	0.518	0.355	0.538	0.717	0.938	1.265	1.345	0.898	0.727	1.232	1.848	4.679	13.11	26.97	32.82	22.09	6.341	0.482	0.478	0.292	0.101	0.284	0.164	0.153	0.205	0.122	0.099	0.152	0.118	0.027	0.225
265.0	8.847	12.52	20.25	53.60	260.2	318.9	151.0	821.0	 4605	 8685	 2340	48.60	10.04	8.276	6.297	5.249	3.919	3.117	2.365	2.191	1.919	1.818	1.930	1.990	1.936	1.985	1.500	0.950	1.344	0.747	0.802	0.926	0.786	1.045	0.886	0.713	0.559	0.498	0.699	0.608	0.554	0.508	0.561	0.631	0.310	0.539	0.406	0.469	0.558	0.431	0.571	1.006	1.272	1.824	1.331	0.794	0.884	1.366	3.427	9.139	22.12	38.66	36.75	17.33	2.953	0.293	0.244	0.228	0.184	0.174	0.313	0.281	0.330	0.143	0.096	0.274	0.065
270.0	13.45	19.80	18.76	24.24	94.75	286.3	351.5	269.0	 1208	 4632	 8880	 4761	159.5	11.88	8.424	6.242	5.056	3.706	3.179	2.649	2.111	2.171	1.832	1.619	1.611	1.699	1.307	1.477	1.416	1.014	0.962	0.825	0.941	0.922	0.827	0.918	0.508	0.458	0.651	0.522	0.498	0.572	0.444	0.471	0.527	0.546	0.601	0.376	0.523	0.455	0.599	0.611	0.705	1.134	1.574	1.904	1.749	1.074	1.204	2.415	5.854	12.40	22.59	33.33	38.37	29.91	14.74	3.157	0.421	0.324	0.325	0.283	0.157	0.242	0.111	0.267	0.241
275.0	26.89	27.25	24.63	26.39	37.43	97.82	377.2	497.1	341.2	 1090	 3426	9999.9	 3033	188.1	12.19	9.469	5.592	4.176	3.504	3.055	2.858	2.168	2.253	1.645	1.643	1.547	1.600	1.167	1.454	1.185	1.078	0.635	0.858	0.811	0.972	0.774	0.691	0.687	0.816	0.683	0.664	0.503	0.578	0.522	0.690	0.645	0.477	0.748	0.645	0.408	0.448	0.302	0.397	0.490	0.616	1.206	1.977	3.097	1.804	1.324	1.680	3.045	5.290	8.276	15.13	34.63	60.19	45.83	18.30	2.056	0.373	0.272	0.265	0.279	0.169	0.247	0.174
280.0	36.81	47.62	38.28	37.99	21.48	39.66	164.5	601.9	409.3	310.9	875.2	 4595	9999.9	 2463	105.3	11.85	6.460	5.341	4.601	3.434	3.260	3.057	2.428	2.042	1.727	1.944	1.813	1.317	1.341	1.191	1.618	1.032	1.045	1.048	0.668	1.059	0.800	0.719	0.908	0.652	0.854	0.519	0.534	0.466	0.650	0.658	0.609	0.620	0.725	0.453	0.515	0.433	0.294	0.319	0.449	0.687	1.153	2.263	3.043	2.782	1.429	1.108	1.702	2.175	3.962	9.619	27.20	56.49	70.95	39.96	9.354	0.703	0.334	0.235	0.325	0.293	0.232
285.0	48.08	81.10	64.23	50.96	37.36	36.77	68.58	330.7	716.3	292.9	291.9	 1217	 6167	9999.9	 1781	43.51	10.10	6.072	5.169	3.972	2.815	3.405	2.707	2.304	1.735	1.779	1.567	1.750	1.275	1.580	1.638	1.139	1.066	1.242	0.854	0.957	0.908	1.023	0.663	0.948	0.838	0.820	0.877	0.636	0.487	0.744	0.672	0.786	0.679	0.601	0.565	0.568	0.381	0.465	0.416	0.559	0.674	0.947	1.880	3.538	3.589	2.354	1.261	1.126	1.469	2.846	6.819	17.30	40.44	72.34	53.66	28.61	3.551	0.507	0.298	0.417	0.197
290.0	75.65	112.3	107.6	80.15	63.68	54.95	72.38	147.5	448.6	704.4	381.8	456.9	 1660	 5553	9999.9	 5776	97.49	10.77	8.518	4.751	3.869	3.266	2.692	2.340	2.046	1.797	1.911	1.450	1.083	1.472	1.133	1.219	1.283	1.108	0.986	1.008	0.949	0.958	1.007	0.876	0.944	0.904	0.937	0.756	0.804	0.871	0.921	0.904	0.965	0.720	0.790	0.913	0.559	0.601	0.494	0.646	0.591	0.718	0.916	1.645	2.746	3.259	3.518	2.488	1.510	1.469	2.556	4.737	10.30	21.25	33.91	53.29	54.47	47.58	18.85	3.865	0.429
295.0	102.0	147.2	160.0	139.2	87.06	88.94	91.48	125.3	232.2	518.7	 1060	492.7	636.4	 1453	 3309	9999.9	 8178	123.9	11.97	7.786	5.280	4.660	3.391	2.527	2.409	2.539	1.834	1.748	1.141	2.033	1.205	1.228	1.342	1.234	0.991	1.384	1.173	1.086	1.020	0.891	0.896	1.044	0.855	0.975	1.035	1.134	0.773	1.096	0.899	0.992	0.801	0.941	0.798	0.754	0.679	0.576	0.702	0.722	0.660	1.103	1.503	1.512	2.399	4.524	4.874	3.189	2.056	2.279	3.409	6.072	8.494	13.26	18.72	44.18	80.67	53.91	26.67
300.0	130.4	179.3	208.7	166.7	127.0	117.4	123.5	157.4	216.5	354.7	925.2	 1125	495.6	612.1	936.9	 3966	9999.9	 1457	81.01	9.176	7.684	5.517	3.320	3.219	2.475	2.309	2.072	2.010	2.038	1.454	1.370	1.456	1.516	1.184	1.353	1.212	1.203	1.031	1.168	1.021	1.091	1.035	0.977	0.867	1.006	1.163	1.026	1.180	1.029	0.983	0.852	0.948	0.788	0.720	0.853	0.626	0.807	0.961	0.979	1.157	1.392	1.382	1.517	2.701	4.864	5.746	4.608	2.463	2.338	2.584	3.228	4.162	5.037	11.41	30.25	66.09	91.29
305.0	150.0	196.1	235.9	200.1	158.9	140.0	154.2	187.2	240.8	336.6	610.5	 1301	925.8	497.7	455.9	 1071	 5268	9999.9	 1186	41.10	9.786	6.606	4.132	3.391	2.908	2.726	2.163	2.071	1.572	2.030	1.469	1.286	1.336	1.186	1.096	0.943	1.077	1.587	1.269	1.365	0.903	1.485	1.239	0.908	1.182	1.077	1.069	1.513	1.261	1.017	0.962	1.063	0.740	0.838	0.807	0.933	0.880	1.144	1.104	1.138	1.484	1.406	1.506	2.183	2.969	4.467	6.744	4.835	3.268	2.396	2.052	2.622	2.317	3.530	7.691	18.47	45.75
310.0	153.6	218.6	271.5	230.2	189.7	178.5	186.9	229.1	288.0	384.6	526.8	867.1	 1259	928.6	448.6	437.3	 1343	 4825	 8909	 4691	71.31	9.939	5.850	3.896	3.609	3.124	2.870	2.268	2.071	2.173	1.716	1.346	1.389	1.193	1.293	1.183	0.979	1.387	1.146	1.213	1.194	1.379	1.050	1.165	1.204	1.237	1.227	1.278	1.359	1.300	1.008	1.126	1.018	1.030	0.980	0.977	1.109	1.128	1.345	1.333	1.547	1.627	1.630	1.893	2.267	2.740	4.277	5.223	5.894	5.197	3.443	2.567	2.054	1.984	2.632	5.018	11.30
315.0	170.8	239.4	298.6	257.0	201.8	201.4	229.5	269.5	333.5	420.3	537.3	714.5	906.3	 1302	825.0	377.0	456.4	 1180	 2686	9999.9	 6610	95.06	8.826	6.023	4.227	3.777	3.058	2.653	2.232	1.876	1.690	1.179	1.573	1.491	1.212	1.033	0.947	1.493	1.442	1.272	1.035	1.281	1.104	1.255	1.321	1.485	1.337	1.266	1.338	1.221	1.115	1.395	1.062	1.246	1.237	0.991	1.059	1.277	1.407	1.413	1.779	2.025	1.843	2.136	2.392	2.587	3.120	3.302	4.350	4.897	7.314	5.175	2.425	2.284	1.675	2.243	3.336
320.0	178.9	264.3	359.9	316.9	232.4	214.1	258.3	289.8	356.3	451.5	571.4	716.8	799.4	 1035	 1204	538.1	299.7	391.4	689.5	 3601	9999.9	 4898	63.47	8.931	5.582	4.195	3.482	3.275	2.202	1.839	1.632	1.617	1.306	1.735	1.125	1.066	1.323	1.557	1.208	1.314	1.059	1.278	1.222	1.093	1.455	1.498	1.071	1.224	1.479	1.325	1.212	1.183	1.051	1.062	1.087	1.145	1.311	1.468	1.488	1.432	1.911	1.866	2.039	2.697	2.730	2.932	2.810	3.021	3.630	4.064	5.332	6.267	5.882	3.308	2.127	1.436	1.817
325.0	192.4	299.6	397.9	369.9	262.6	244.1	257.8	295.4	381.2	474.0	617.6	753.7	798.7	859.4	 1115	917.3	347.3	248.7	263.9	902.8	 4918	9999.9	899.4	33.80	7.611	5.631	4.029	2.947	2.634	1.841	1.884	1.458	1.768	1.611	1.134	0.992	1.157	1.603	1.425	1.202	1.326	1.497	1.452	1.112	1.237	1.613	1.523	1.696	1.610	1.698	1.519	1.554	1.361	1.179	1.266	1.299	1.256	1.591	1.723	1.482	1.910	2.004	2.218	2.257	2.676	3.211	3.024	3.129	3.942	3.999	3.717	4.478	5.731	5.448	3.708	2.381	1.498
330.0	201.2	323.6	441.3	436.8	312.8	278.9	300.9	347.8	411.9	513.2	664.0	782.5	843.9	849.0	848.3	943.3	721.0	321.7	217.4	310.9	 1217	 4481	 8355	 3685	58.00	8.697	5.410	3.953	3.281	2.292	1.921	1.958	1.806	1.942	1.470	1.188	1.433	1.458	1.252	1.244	1.421	1.477	1.443	1.264	1.588	1.660	1.674	2.121	1.658	1.778	1.632	1.532	1.275	1.367	1.171	1.439	1.495	1.470	1.665	1.911	1.917	1.970	2.369	2.298	3.068	3.345	3.312	3.440	3.601	3.804	3.555	3.968	4.032	4.063	5.105	4.840	3.412
335.0	216.7	358.6	481.1	485.8	369.8	324.6	344.4	388.3	449.9	538.0	695.7	814.6	862.3	879.6	814.2	722.5	822.2	682.8	295.1	231.5	388.0	 1085	 2567	 9046	 5438	76.42	8.531	5.676	4.067	3.136	2.344	2.079	2.154	1.708	1.317	1.584	1.392	1.308	1.517	1.226	1.195	1.700	1.455	1.521	1.516	1.698	2.070	2.006	1.973	1.526	1.823	1.534	1.445	1.526	1.311	1.594	1.893	1.647	1.575	1.747	1.865	2.306	2.502	2.414	3.065	3.226	3.058	3.296	3.527	3.967	3.727	3.755	3.535	3.362	3.757	4.019	4.838
340.0	211.5	347.2	488.5	514.9	419.1	386.4	361.3	423.6	480.0	563.1	707.3	813.1	880.1	901.7	819.4	700.2	674.5	855.5	497.2	260.8	237.9	356.0	665.2	 3515	9999.9	 4041	52.71	7.513	5.002	4.248	2.605	2.663	2.260	1.551	1.660	1.291	1.387	1.315	1.544	1.138	1.410	1.606	1.610	1.443	1.899	1.870	1.821	2.096	2.150	1.939	1.917	1.646	1.633	1.747	1.892	1.560	1.854	1.873	1.754	1.781	2.178	2.387	2.678	2.416	3.393	3.167	3.396	3.584	3.565	3.599	4.309	3.506	3.659	3.258	3.641	3.086	3.687
345.0	216.4	352.4	490.1	556.7	447.3	428.8	418.6	437.7	510.2	594.5	723.1	831.6	885.4	903.6	837.5	716.4	609.7	728.4	768.4	381.1	253.2	235.2	257.0	898.8	 5051	9999.9	741.2	31.30	6.566	5.053	3.831	2.585	2.292	1.993	1.777	1.526	1.319	1.127	1.483	1.702	1.583	1.721	1.612	1.510	1.840	1.734	1.813	2.010	2.353	2.258	1.903	2.230	1.738	1.637	1.993	1.805	1.811	2.022	1.921	1.988	2.150	2.319	2.739	2.702	3.343	3.126	3.624	3.655	3.497	3.912	4.390	3.684	4.247	3.479	3.513	3.356	3.547
350.0	211.7	343.2	494.2	577.5	516.2	501.6	475.3	502.4	554.2	638.2	748.6	841.1	895.1	916.1	873.3	772.4	654.7	627.5	734.8	689.9	406.8	283.3	236.4	334.1	 1272	 4586	 7438	 3097	50.07	7.339	4.705	3.524	2.574	2.406	2.066	1.718	1.368	1.493	1.492	1.569	1.498	1.427	1.346	1.645	1.570	1.885	1.973	1.854	2.348	2.081	2.137	2.157	1.995	2.010	1.942	1.794	2.029	2.187	2.143	2.208	2.154	2.437	2.790	2.661	3.160	3.182	3.510	3.555	3.790	4.129	4.192	3.841	4.029	3.928	3.535	3.545	3.492
355.0	207.8	348.1	498.1	572.3	577.7	554.3	577.8	569.8	610.5	669.6	782.1	855.8	922.5	944.8	895.4	823.1	722.7	673.1	649.2	725.5	715.6	416.5	309.3	279.9	426.6	 1129	 2503	 8228	 4579	67.73	8.123	5.270	3.403	2.916	2.143	2.029	1.465	1.473	1.483	1.494	1.362	1.628	1.399	1.543	1.566	1.801	1.724	1.692	2.087	1.939	1.981	2.103	2.213	2.441	2.270	2.158	2.358	2.175	2.182	2.546	2.579	2.686	2.989	3.281	3.462	3.384	3.567	3.541	4.085	4.252	4.276	4.098	4.091	3.872	3.398	4.062	3.294
360.0	198.2	350.5	510.6	601.7	607.1	629.6	634.9	635.0	681.4	710.1	819.7	875.7	938.1	951.8	931.4	858.3	790.2	729.7	678.9	667.9	830.6	624.7	393.9	318.9	285.7	388.9	664.9	 3494	 9403	 3327	45.17	6.307	4.601	3.426	2.617	2.188	1.701	1.741	1.306	1.554	1.305	1.523	1.675	1.581	1.636	1.400	1.709	2.235	2.054	2.316	2.104	2.304	2.211	2.573	2.173	2.432	2.597	2.349	3.055	2.679	2.720	2.811	3.490	3.174	3.144	4.274	3.523	3.782	4.009	4.096	3.853	4.058	3.849	4.325	4.130	4.589	4.209
365.0	208.3	346.7	504.0	608.9	655.3	675.3	682.5	686.2	722.3	764.7	848.0	919.2	951.5	987.6	951.9	895.4	841.5	790.3	748.5	692.5	761.7	812.4	532.3	381.6	310.4	265.0	275.2	906.9	 5064	 9017	653.0	26.02	6.257	4.016	2.989	1.956	2.160	1.708	1.357	1.526	1.534	1.573	1.910	1.495	1.848	2.114	1.796	2.618	2.447	2.199	2.034	2.319	2.353	2.567	2.380	2.371	2.448	2.565	2.838	2.830	2.703	3.138	3.379	3.447	3.577	3.511	3.708	3.759	3.783	4.064	4.294	4.245	4.723	3.960	4.235	4.890	4.169
370.0	210.9	347.3	521.3	624.3	682.6	730.6	760.8	765.1	788.9	828.3	891.0	942.4	961.9	 1001	977.8	939.3	893.4	852.4	820.4	767.4	741.7	794.0	784.9	547.8	391.0	311.3	246.7	333.8	 1290	 4431	 5911	 2675	41.64	6.556	3.592	2.937	2.340	2.104	1.836	1.671	1.629	1.743	1.636	1.805	2.047	1.801	1.946	2.223	2.265	2.140	2.195	2.629	2.493	2.666	2.856	2.864	3.148	2.952	3.072	2.889	2.968	3.285	3.397	3.651	3.564	3.684	3.987	3.765	4.140	4.474	4.055	4.480	4.556	4.423	4.297	4.984	4.859
375.0	229.0	345.9	537.2	669.0	721.1	775.4	803.0	818.6	858.2	878.3	922.8	971.2	988.0	 1013	 1000	967.9	926.3	906.0	898.7	837.4	796.3	766.7	809.7	795.1	532.0	392.2	300.0	262.7	414.8	 1078	 2317	 7770	 3826	52.38	5.845	3.773	2.814	2.502	2.114	1.936	1.666	1.897	1.845	1.939	1.904	1.646	1.678	2.035	2.163	2.150	2.310	2.492	2.973	2.728	3.059	3.030	3.272	2.947	3.247	2.752	3.276	3.588	3.451	3.772	3.860	4.134	3.810	4.259	4.302	4.409	4.428	4.325	4.450	4.499	4.957	5.067	5.069
380.0	239.8	386.5	527.0	641.5	746.7	790.6	846.0	854.9	893.7	907.0	960.0	994.7	997.0	 1014	 1010	989.5	950.3	947.9	935.4	901.1	846.9	795.4	778.0	866.3	700.2	474.6	363.5	284.8	256.2	357.2	610.9	 3585	 8602	 2607	32.34	5.284	3.869	2.733	2.362	2.138	1.652	1.756	1.791	1.735	1.454	2.061	2.129	1.916	2.375	2.377	2.253	2.788	2.802	2.925	2.707	3.537	3.187	3.097	3.761	3.574	3.473	3.250	3.796	3.413	3.943	4.160	4.196	4.140	4.154	4.526	4.803	3.906	4.447	4.465	4.940	5.402	5.833
385.0	235.6	388.8	524.4	669.5	778.7	807.1	871.4	906.2	921.3	924.5	982.2	 1022	 1010	 1016	 1020	993.9	962.8	975.5	956.4	936.7	886.2	841.2	794.6	810.7	829.7	598.6	427.3	336.7	257.2	223.7	238.6	920.6	 4998	 7718	504.4	15.98	4.904	3.115	2.769	2.390	1.803	1.810	2.389	1.580	1.673	2.167	1.891	2.203	2.046	2.414	2.516	3.066	2.705	2.942	3.088	2.983	3.213	3.912	3.516	3.244	3.781	3.800	3.722	3.866	3.996	3.884	4.343	3.882	4.053	4.275	4.351	4.308	4.873	4.559	5.015	5.289	5.316
390.0	236.6	377.0	537.3	680.7	781.5	860.9	907.1	915.5	937.3	957.9	 1009	 1021	 1016	 1023	 1019	 1010	979.3	998.6	984.6	964.1	929.0	878.7	839.9	807.1	801.3	766.5	559.1	409.1	321.3	248.7	196.0	303.4	 1277	 4149	 4806	 2015	32.23	5.307	3.312	3.003	2.134	1.983	2.169	1.763	1.862	2.064	1.916	2.393	2.350	2.430	2.283	3.109	2.915	3.256	3.258	3.417	3.416	3.718	3.600	3.766	3.959	3.924	4.121	4.109	4.164	3.891	4.411	4.159	4.340	4.331	4.339	4.424	4.780	4.979	5.056	5.356	5.455
395.0	247.1	385.6	561.9	674.4	814.1	859.3	936.0	936.8	992.7	997.2	 1022	 1017	 1021	 1024	 1023	 1015	983.5	 1007	999.8	985.9	949.6	911.7	880.4	831.2	776.8	777.2	746.6	529.2	400.6	310.4	233.1	202.8	379.8	990.2	 2006	 6137	 2783	42.06	4.660	3.749	2.818	2.087	2.273	2.043	2.064	2.287	2.149	2.252	2.326	2.209	2.208	2.665	3.009	3.133	3.220	3.581	3.601	3.404	3.800	3.927	3.480	3.599	3.663	3.812	3.965	4.035	4.129	4.111	4.478	4.446	4.204	4.721	4.971	5.238	4.542	5.203	5.226
400.0	241.1	357.8	532.4	715.2	834.2	862.7	966.4	961.9	999.3	 1033	 1050	 1051	 1036	 1032	 1013	 1012	990.4	 1001	 1014	 1000	968.8	935.5	900.6	851.3	803.7	748.3	786.3	653.6	466.8	363.0	276.7	213.8	203.8	299.4	519.9	 2986	 6169	501.4	25.57	4.381	3.445	2.603	2.344	1.678	2.082	2.258	2.063	2.054	2.330	2.327	2.417	2.880	2.905	3.441	3.189	3.211	3.371	3.474	3.697	4.153	3.968	3.490	3.963	3.701	3.526	4.417	3.939	4.323	3.986	4.569	4.513	5.023	4.947	4.952	4.965	5.135	4.837
405.0	233.6	359.6	542.0	674.6	814.3	878.6	957.8	978.8	 1006	 1036	 1037	 1050	 1021	 1018	 1005	 1002	983.2	999.9	998.9	993.0	973.7	940.0	907.0	863.7	817.6	756.9	741.4	742.8	567.0	411.9	316.8	238.6	190.3	165.1	180.9	768.9	 3760	 5162	410.1	12.10	4.251	3.017	2.464	2.445	2.204	2.179	2.189	2.454	2.414	2.456	2.553	3.107	3.079	3.290	3.585	3.182	3.517	3.623	3.914	3.927	3.984	3.747	4.516	4.112	3.976	4.246	4.101	4.019	4.034	4.782	4.666	4.810	4.541	5.135	5.128	4.931	5.055
410.0	239.0	362.1	532.1	668.1	810.9	892.3	962.8	995.7	 1018	 1043	 1047	 1034	 1015	 1006	998.4	969.8	956.1	974.9	978.1	975.3	959.5	928.3	913.4	885.1	837.5	774.7	728.3	717.6	678.3	519.8	377.9	288.9	224.2	168.1	127.2	230.6	958.2	 2932	 3815	 1521	27.04	4.959	3.275	2.755	2.125	2.339	2.436	2.300	2.388	2.306	2.312	2.963	3.045	3.195	3.369	3.280	3.652	3.803	3.939	3.802	3.951	3.871	4.105	4.146	4.252	4.104	4.237	4.237	4.236	4.459	4.396	4.402	4.728	4.790	4.676	4.904	5.256
415.0	243.7	377.1	514.1	688.7	788.1	863.6	954.3	994.1	 1025	 1044	 1036	 1037	994.9	983.7	968.4	942.2	926.0	948.2	953.1	940.3	932.1	908.9	901.6	888.0	840.7	790.7	727.5	687.9	662.9	637.7	458.5	336.9	266.9	196.5	139.0	129.2	267.8	695.2	 1595	 4558	 2122	36.34	4.958	3.013	2.357	2.585	2.220	2.440	2.689	2.313	2.329	2.684	3.456	3.209	3.631	3.319	3.604	3.636	4.058	3.878	4.166	3.980	4.545	4.439	3.605	4.186	4.242	3.412	4.380	4.291	4.318	4.401	4.736	4.423	4.974	4.900	5.219
420.0	229.3	347.3	526.8	675.4	768.5	862.1	953.7	974.4	 1002	 1048	 1033	 1025	995.9	969.1	955.6	910.8	897.2	911.0	918.3	915.1	893.5	891.3	884.8	863.5	836.3	791.9	729.8	688.9	636.9	647.5	555.2	383.0	293.3	222.9	156.6	119.9	126.0	201.9	404.3	 2245	 4664	452.7	21.73	3.867	2.708	2.709	2.625	2.725	2.507	2.379	2.516	2.844	2.930	3.262	2.943	3.391	3.597	3.522	4.155	4.077	3.932	3.778	4.535	3.970	4.342	4.069	3.768	3.954	4.053	4.146	4.154	4.254	4.640	4.538	4.923	4.520	4.950
425.0	239.7	339.9	512.2	645.2	771.0	851.2	910.6	954.3	 1028	 1020	 1035	 1008	967.2	952.4	933.1	891.3	872.5	881.9	893.5	893.8	875.0	868.1	860.1	849.3	825.9	794.6	733.9	688.2	637.1	614.0	601.5	446.3	322.6	242.9	176.9	130.2	104.4	98.90	130.2	578.2	 2869	 3636	367.8	9.458	3.984	3.643	2.669	2.804	2.521	2.390	2.307	2.967	2.781	3.266	2.951	3.102	3.929	3.763	4.093	3.876	3.616	3.618	3.733	4.104	3.947	3.916	4.157	4.407	4.268	4.104	4.168	4.039	4.340	4.744	4.591	4.356	4.500
430.0	445.7	339.4	487.7	647.8	732.6	825.3	901.3	952.9	996.2	 1022	 1011	983.3	944.3	933.6	898.6	851.3	833.9	832.9	845.7	846.8	841.2	829.8	834.7	818.6	799.0	773.8	727.5	685.7	635.4	592.5	562.0	517.6	387.5	275.1	203.7	154.9	118.9	92.30	81.14	166.1	731.0	 2171	 3095	 1245	24.54	4.542	3.064	2.853	2.708	2.225	2.398	2.486	3.103	3.403	2.875	3.571	3.664	3.727	3.625	3.497	3.884	4.082	3.863	4.213	4.024	3.973	4.153	4.127	4.265	4.137	4.058	4.129	4.206	4.376	4.435	4.197	4.668
435.0	828.0	371.3	464.4	637.6	714.6	803.6	873.5	915.4	982.6	 1011	 1014	969.0	927.4	883.8	866.1	815.9	793.2	793.6	799.0	807.2	800.9	779.9	801.6	787.8	770.0	751.7	711.4	680.9	642.0	590.2	533.5	496.4	466.5	333.1	236.5	178.3	138.8	106.4	83.74	84.47	199.9	513.7	 1257	 3578	 1773	31.97	4.377	3.438	2.719	2.516	2.541	2.732	2.908	3.091	3.078	3.481	3.553	3.797	3.604	3.310	3.758	4.211	3.850	3.856	4.080	3.735	4.068	3.894	4.282	4.090	4.083	4.500	4.317	3.710	4.057	4.155	4.357
440.0	950.0	563.1	466.3	602.0	680.4	765.0	831.3	907.7	975.2	 1009	992.7	955.7	926.3	862.5	823.2	782.4	762.3	765.9	766.8	774.4	764.6	758.0	760.8	765.8	750.1	735.8	705.9	677.5	629.8	594.9	533.6	477.1	470.9	388.2	259.7	192.0	154.4	118.6	95.47	76.26	87.21	146.7	315.7	 1773	 3928	410.7	18.12	4.197	3.225	2.619	2.536	2.780	2.872	2.952	2.992	3.179	3.512	3.332	3.927	3.321	3.932	3.935	3.671	4.099	3.739	3.741	4.307	3.588	4.545	3.777	3.331	3.843	4.564	3.451	4.179	4.071	4.058
445.0	818.8	 1006	463.9	568.6	669.1	757.7	818.4	893.8	939.6	972.7	 1001	940.1	894.8	840.5	797.8	756.4	727.5	732.7	739.8	734.1	724.5	727.3	733.8	732.7	718.5	706.1	686.0	659.0	620.6	583.8	529.3	463.1	441.7	413.2	298.7	214.5	165.9	133.3	103.6	81.68	69.42	69.70	98.89	456.0	 2429	 3280	309.9	9.539	4.306	2.775	2.541	2.412	2.851	2.853	3.385	3.027	3.696	3.502	3.478	3.398	3.763	3.920	3.902	3.795	3.814	3.801	3.617	3.620	4.740	4.104	3.340	3.486	3.848	3.959	3.768	3.779	3.742
450.0	410.9	 1332	790.6	541.2	629.2	706.5	781.7	849.8	916.4	942.7	946.1	908.3	854.2	818.4	761.2	721.3	687.4	682.0	689.4	683.4	681.0	676.0	680.6	683.7	675.2	667.8	651.4	631.7	600.6	569.1	522.7	464.1	414.5	382.4	337.6	252.5	188.8	146.1	117.4	93.37	75.84	62.09	56.71	129.3	617.9	 1949	 2781	 1132	20.97	4.045	3.241	2.716	2.868	2.995	3.076	3.108	3.466	3.276	3.559	3.614	3.838	3.686	3.912	4.035	3.621	3.688	3.838	3.775	3.896	3.796	3.406	3.510	3.518	3.717	3.457	3.380	3.830
455.0	229.9	893.2	 1556	578.9	597.7	669.5	747.4	790.9	863.1	888.6	887.1	876.3	809.4	769.7	711.8	671.3	638.3	628.7	634.6	626.0	622.2	620.7	629.9	628.2	620.4	616.0	608.8	587.3	571.8	545.7	506.8	457.3	402.5	349.3	320.0	295.7	220.6	160.2	130.0	106.8	85.95	68.56	54.86	61.96	163.1	456.0	 1113	 3246	 1561	25.24	4.326	3.642	2.830	2.734	2.903	2.813	3.533	2.926	3.257	3.625	3.191	3.824	3.415	3.672	3.639	3.849	3.358	3.823	3.588	3.598	3.464	3.557	3.292	3.329	3.493	3.452	3.285
460.0	163.5	460.9	 1958	897.0	561.3	648.5	698.0	755.8	829.3	855.9	851.6	827.7	773.2	718.5	673.1	632.3	595.6	588.4	590.1	580.8	580.8	577.8	588.5	589.2	576.9	576.3	571.1	563.5	538.8	522.1	484.2	439.9	394.7	337.2	295.0	291.4	250.6	175.2	140.2	114.0	92.38	72.57	59.52	50.26	64.35	124.5	275.8	 1572	 3457	320.3	14.43	4.143	3.108	3.125	2.723	2.627	3.554	3.381	3.093	3.336	2.873	3.411	3.374	3.296	3.803	3.591	3.677	3.341	3.198	3.184	3.646	3.889	3.194	3.018	3.081	3.140	4.018
465.0	161.3	290.7	 1614	 1491	537.6	602.5	678.9	720.2	785.2	800.5	840.3	787.1	739.3	681.4	638.7	594.5	560.7	559.4	558.4	544.2	540.2	538.3	550.3	554.2	543.5	549.8	546.7	537.0	515.7	500.1	471.6	424.7	382.8	327.3	282.0	262.9	258.1	200.7	147.2	119.7	96.85	79.47	63.70	52.44	46.70	54.97	82.92	399.7	 2127	 2564	254.2	8.279	3.855	3.240	2.880	3.369	3.074	2.901	3.295	2.958	2.959	3.331	3.288	3.117	3.028	3.352	3.660	2.956	3.158	3.356	3.047	3.692	2.889	2.868	3.059	3.125	3.793
470.0	162.6	226.1	757.8	 2022	961.5	557.8	601.8	672.0	724.4	754.4	753.4	724.9	689.6	635.7	589.7	550.3	518.1	512.5	504.7	492.5	488.6	487.5	496.9	498.7	495.8	500.3	496.2	486.5	474.9	460.1	435.9	397.1	362.1	310.9	269.9	242.0	232.2	216.2	168.7	125.9	103.1	85.68	69.60	58.97	47.28	47.20	42.79	108.9	533.7	 1544	 2135	937.8	20.33	4.092	3.464	2.904	3.023	3.034	3.182	2.918	2.820	3.057	3.153	3.164	3.308	2.901	3.424	3.137	2.834	3.049	2.930	3.303	2.949	2.806	2.913	3.017	3.091
475.0	146.7	195.4	385.1	 1301	 2023	598.5	553.9	623.1	660.3	700.4	717.3	691.2	640.7	582.8	540.4	499.0	467.2	459.7	449.6	445.1	441.1	432.7	438.6	442.5	442.5	444.8	440.0	441.2	429.4	422.4	398.5	370.0	335.1	296.3	259.8	225.5	201.9	194.8	183.3	140.5	104.7	88.97	74.41	62.60	52.68	48.92	37.34	46.74	136.2	360.1	817.3	 2369	 1081	25.09	3.719	3.312	3.087	2.570	2.562	2.670	2.766	2.729	2.768	2.622	2.949	3.119	2.733	2.687	2.696	2.632	2.310	3.082	2.549	2.793	2.679	2.181	2.905
480.0	137.9	204.0	277.7	651.1	 2284	973.6	523.5	562.6	619.0	637.1	653.9	638.0	596.4	549.4	505.6	459.1	441.6	428.1	416.8	403.1	399.7	397.2	404.9	405.8	407.4	409.0	408.1	406.6	396.0	388.6	374.6	346.2	319.3	278.1	248.1	218.2	191.2	176.7	179.9	156.1	114.0	90.68	77.42	63.60	55.39	50.93	37.48	34.85	49.42	95.83	199.4	 1068	 2378	351.8	14.83	3.391	3.062	2.673	2.108	2.666	2.796	2.490	3.005	2.823	2.547	2.479	2.585	2.627	2.846	2.670	2.526	2.708	2.393	2.029	2.382	2.445	2.432
485.0	126.9	194.8	243.1	389.1	 1689	 1828	510.2	542.0	573.8	615.0	619.8	607.4	564.8	514.8	474.9	433.9	407.5	396.5	384.1	373.1	371.7	368.7	376.3	371.8	371.8	373.3	380.7	369.8	372.5	365.2	351.3	325.7	301.0	265.9	238.4	211.6	183.3	167.1	160.4	159.0	122.9	93.74	78.65	65.80	57.79	53.39	38.80	33.11	31.26	38.53	58.74	267.8	 1398	 2077	281.0	6.725	3.552	2.986	2.614	2.749	2.900	2.407	2.699	2.668	2.379	2.430	2.612	2.415	2.474	2.406	2.811	2.399	2.364	2.511	2.451	2.194	2.377
490.0	100.9	180.2	235.4	301.0	790.2	 2243	 1057	499.3	523.5	559.7	573.0	548.8	521.5	473.2	434.2	395.1	367.8	355.9	351.9	344.3	336.2	333.1	332.7	336.3	335.9	337.0	342.7	337.1	339.0	329.6	323.3	301.9	274.3	246.8	221.7	200.2	176.1	157.2	144.1	140.7	133.6	104.0	79.84	68.02	58.60	55.40	42.55	35.21	30.04	27.11	27.74	72.14	346.2	 1088	 1797	747.3	20.59	3.214	2.974	2.642	2.517	2.513	2.741	2.330	2.426	2.254	2.359	2.505	2.316	2.325	2.515	2.043	2.238	2.153	1.971	2.439	2.322
495.0	96.39	144.7	257.4	261.8	401.5	 1320	 2224	556.1	487.6	516.7	512.2	505.9	472.3	442.4	393.9	355.8	341.1	315.0	315.4	306.9	299.3	293.1	301.8	301.4	303.1	300.4	303.6	301.1	301.4	295.1	292.2	274.2	253.1	228.9	202.5	189.2	165.1	144.9	133.8	120.2	120.4	115.1	90.65	68.60	59.22	54.26	44.71	38.20	31.48	25.53	22.33	29.69	87.54	251.3	677.2	 1929	399.5	25.80	3.506	2.816	2.780	2.381	2.510	2.308	2.123	1.948	2.184	2.200	2.002	2.236	2.041	2.081	2.205	2.036	2.040	2.032	2.069
500.0	76.36	127.9	224.7	277.3	305.7	645.6	 2508	843.8	436.1	472.2	478.3	473.7	432.7	394.9	367.2	329.1	309.0	292.1	283.4	274.4	276.2	262.0	269.5	273.9	272.3	277.2	272.2	272.5	276.7	269.7	266.5	251.9	234.7	213.2	191.9	176.1	156.0	137.0	124.3	113.4	109.1	108.8	96.73	71.15	58.94	52.79	45.20	38.89	31.99	26.54	21.74	20.62	30.43	64.69	162.6	855.9	 2031	364.9	14.45	3.032	2.503	2.719	2.397	2.390	1.995	2.108	2.105	1.947	1.763	1.993	1.914	1.652	1.778	1.726	1.632	1.974	1.867
505.0	70.92	106.0	207.6	287.0	251.9	367.4	 1824	 1911	420.7	433.0	444.1	421.2	400.8	368.1	338.7	311.5	282.4	266.0	259.2	248.5	247.5	240.2	244.3	242.8	249.4	251.1	250.5	250.2	249.0	249.1	245.2	230.9	213.1	198.2	176.4	164.3	145.9	130.0	120.8	105.6	98.68	98.05	96.35	78.37	58.33	51.61	44.86	39.94	32.57	27.41	21.75	18.55	17.85	23.97	43.88	209.2	 1186	 1925	284.6	5.662	2.746	2.038	2.345	2.097	2.071	1.906	2.077	2.057	1.883	1.909	1.748	1.776	1.526	1.599	1.643	1.874	1.789
510.0	62.94	91.98	154.5	253.4	249.9	284.9	789.2	 2352	 1034	398.7	392.4	386.3	359.3	333.5	304.1	273.8	249.9	241.5	226.6	227.3	214.2	213.0	215.2	213.7	219.9	220.1	220.6	217.0	220.5	220.6	215.0	208.1	191.6	177.5	158.2	147.1	132.9	120.2	111.5	98.48	87.54	83.21	83.90	81.21	64.72	50.39	43.01	38.12	32.86	27.57	22.55	18.76	15.36	15.58	17.78	53.67	291.2	989.2	 1518	641.0	19.72	2.837	2.350	2.193	1.803	1.893	1.795	1.733	1.753	1.818	1.827	1.465	1.397	1.712	1.646	1.339	1.516
515.0	60.02	80.85	124.4	210.3	257.5	231.6	377.9	 1314	 2382	458.9	351.0	349.3	314.1	294.7	267.4	243.8	219.0	213.3	200.5	197.1	187.8	184.2	188.8	190.2	188.2	189.5	191.7	189.7	190.8	197.9	187.9	182.6	167.9	155.2	141.8	130.9	119.8	109.5	99.11	90.43	80.79	73.66	68.58	71.09	68.77	54.96	41.99	35.78	31.89	27.20	22.42	19.65	15.50	14.05	11.69	19.07	71.51	226.6	552.4	 1632	397.8	24.47	2.415	2.342	1.985	2.190	1.870	1.554	1.422	1.667	1.739	1.531	1.275	1.405	1.598	1.189	1.336
520.0	54.17	77.06	109.9	176.1	260.3	228.2	263.7	575.8	 2780	 1023	320.6	297.0	291.9	260.1	244.7	217.5	205.4	190.6	183.6	176.1	170.0	165.1	166.8	166.0	167.1	168.5	171.1	173.1	170.6	172.9	169.9	162.9	153.3	139.9	128.4	117.7	109.1	100.2	91.47	83.03	75.67	68.90	62.07	60.69	65.70	57.62	43.63	34.70	30.49	26.60	21.77	19.70	16.47	13.88	10.97	11.92	22.44	56.41	131.9	735.7	 1624	354.8	10.21	2.552	1.767	2.115	1.615	1.342	1.429	1.618	1.411	1.361	1.217	1.183	1.346	1.467	1.343
525.0	57.96	63.80	115.0	135.8	250.2	227.4	222.9	317.0	 1925	 2207	329.2	273.7	265.1	246.7	218.2	202.9	186.4	176.4	164.9	156.0	154.2	152.1	150.7	151.7	151.6	153.4	152.6	154.7	155.8	156.2	153.8	146.7	136.2	129.5	119.4	110.7	98.45	92.69	86.03	77.95	68.63	64.32	56.98	54.48	56.08	57.02	47.14	35.58	30.02	25.70	22.15	18.71	15.37	13.45	10.43	9.979	11.68	18.17	34.60	178.8	937.5	 1653	53.08	4.256	1.966	1.705	1.387	1.433	1.463	1.197	1.571	1.257	1.081	1.056	1.122	1.336	1.385
530.0	46.57	55.67	91.57	108.2	180.5	249.4	202.3	234.3	747.2	 2664	 1035	251.7	234.1	212.6	195.3	177.2	162.1	153.5	149.2	139.3	133.4	132.9	134.1	133.4	132.4	134.8	133.2	137.0	137.6	135.3	135.8	128.2	120.6	111.6	103.5	96.82	88.94	83.11	77.14	70.50	63.36	57.77	51.55	47.43	46.67	48.65	47.83	38.01	29.27	24.37	21.00	18.26	15.33	12.94	11.22	10.12	9.237	10.26	13.17	44.30	230.0	838.9	 1258	472.2	17.26	1.918	1.515	1.510	1.441	1.085	1.229	1.281	1.144	0.973	0.905	1.007	1.172
535.0	40.17	55.00	84.88	98.57	133.2	216.5	205.4	185.0	311.8	 1341	 2722	348.1	208.0	181.9	173.1	154.2	142.2	138.8	125.0	123.0	118.4	115.1	112.8	116.5	114.1	112.2	112.3	117.4	115.8	118.1	116.1	110.3	104.0	95.83	91.30	83.04	76.34	72.31	67.47	60.74	56.20	50.45	44.99	42.96	38.94	38.17	42.54	40.51	30.89	23.35	20.00	16.08	14.35	12.16	11.87	10.16	9.139	7.776	7.966	14.10	55.11	191.0	465.5	 1228	371.4	18.39	1.726	1.566	1.076	1.283	1.224	1.037	1.211	0.945	0.971	0.939	0.909
540.0	35.53	54.72	78.65	89.15	104.7	184.4	222.7	172.2	205.8	527.5	 2965	993.2	185.2	167.5	154.9	138.1	125.9	124.1	113.7	111.0	106.2	103.3	103.5	104.1	101.8	97.70	98.96	103.2	104.1	104.7	100.7	99.42	92.43	87.02	79.91	75.41	69.57	63.10	60.25	54.13	50.18	46.22	41.21	40.26	36.63	33.41	34.44	38.36	32.37	23.75	18.55	16.31	13.64	12.03	10.24	9.986	9.193	7.644	7.158	7.398	16.23	45.76	109.6	559.5	 1183	296.0	6.319	1.652	1.394	1.323	1.086	1.117	1.134	1.003	0.888	0.901	0.984
545.0	37.54	46.61	68.66	80.21	91.47	136.8	216.5	160.9	157.8	248.8	 1883	 2265	198.2	150.2	139.1	118.3	110.2	106.7	102.1	102.8	94.46	92.82	91.00	91.08	88.98	91.71	89.24	92.13	89.71	91.94	93.46	88.75	82.72	76.83	72.52	66.89	63.09	57.59	54.25	48.97	45.90	42.02	38.67	35.73	32.26	30.70	29.84	32.42	32.89	24.23	17.23	14.74	13.04	11.51	10.27	9.270	8.852	6.914	6.521	5.643	7.302	13.42	27.68	136.2	696.5	 1068	51.00	2.382	1.478	1.029	1.007	1.161	0.752	0.892	0.729	0.585	0.906
550.0	34.92	35.25	47.48	69.90	82.41	111.3	179.0	183.6	133.2	170.4	662.6	 2616	887.5	132.9	119.6	104.3	94.17	90.35	82.70	84.31	79.51	75.73	77.53	75.80	73.51	76.49	75.72	77.09	75.76	77.96	77.06	73.65	69.46	65.43	61.99	57.46	52.15	49.07	45.65	42.53	40.11	37.27	34.08	31.29	28.54	25.62	25.28	25.05	27.55	24.55	18.47	14.16	12.00	10.23	9.280	8.310	8.048	6.987	5.999	5.370	5.244	6.297	9.148	33.23	170.8	558.8	753.8	218.0	13.33	1.067	1.026	0.894	0.724	0.842	0.735	0.588	0.765
555.0	38.36	32.31	40.65	55.68	72.37	83.28	118.3	186.9	132.8	129.7	247.2	 1160	 2523	203.1	101.2	86.34	79.40	73.43	70.27	68.78	65.14	63.61	61.11	63.34	60.61	62.17	63.12	62.35	64.20	64.27	61.35	60.40	58.18	53.73	48.74	48.18	44.69	41.52	37.97	34.68	33.10	29.63	27.61	26.52	22.94	22.45	20.20	19.46	19.42	22.41	19.80	14.58	10.76	9.239	8.707	7.522	7.021	6.333	6.171	5.104	4.282	4.047	4.678	10.27	40.34	126.7	299.4	785.9	311.8	10.05	1.116	0.951	0.864	0.901	0.550	0.538	0.548
560.0	30.38	41.38	43.28	59.39	62.25	64.78	84.84	171.6	139.7	109.9	136.6	398.3	 2703	768.1	86.42	77.54	67.12	61.59	61.21	57.31	54.15	52.62	54.06	51.82	51.81	53.08	52.62	52.48	53.48	52.32	51.55	51.07	47.76	45.79	41.69	40.28	36.99	35.42	32.03	30.35	28.28	25.72	24.65	22.43	20.71	19.11	17.15	16.05	15.57	16.65	17.80	14.67	10.05	8.030	7.636	6.431	5.922	5.984	6.161	4.987	3.871	3.536	3.646	4.604	10.85	30.14	70.67	380.2	791.8	55.24	3.259	0.909	0.825	0.777	0.684	0.674	0.226
565.0	25.47	25.42	41.84	47.59	47.39	61.44	64.51	132.9	164.3	99.50	106.7	171.5	 1619	 1985	89.81	65.70	58.84	55.34	53.22	48.95	48.84	46.33	44.83	44.08	43.60	44.56	45.81	43.84	44.91	45.34	44.83	44.48	40.15	38.08	36.40	35.98	32.27	29.34	27.05	26.44	24.12	21.34	21.58	19.91	17.56	17.02	15.26	13.96	13.80	13.32	14.72	14.72	10.64	7.062	7.227	5.523	5.372	4.768	5.122	4.993	3.509	3.367	3.006	3.019	4.222	8.213	17.27	93.94	495.2	599.4	43.98	1.251	0.809	0.652	0.423	0.417	0.398
570.0	23.36	33.93	34.85	40.90	40.85	49.69	55.49	84.87	163.2	107.4	84.86	102.4	522.7	 2339	663.4	54.45	48.88	47.43	41.71	40.62	39.14	37.13	36.18	36.86	36.28	36.36	36.06	36.48	35.80	37.44	35.32	35.46	33.15	31.62	29.39	28.09	26.36	23.88	22.13	20.83	19.63	17.99	17.05	16.20	14.49	13.66	12.50	11.54	10.76	9.964	10.14	11.81	10.03	7.291	6.196	5.134	4.671	4.575	4.173	3.926	3.652	3.590	2.858	2.346	2.605	3.495	5.321	22.38	124.1	345.9	416.2	169.6	6.476	0.885	0.668	0.356	0.354
575.0	30.60	29.63	36.76	27.38	33.53	46.59	42.01	58.70	116.5	139.0	74.30	80.21	168.8	994.4	 2067	103.6	38.10	34.81	33.45	33.89	28.78	29.29	27.95	29.61	28.90	27.03	28.33	28.75	29.67	27.71	28.40	27.40	26.23	25.66	22.84	21.81	20.55	19.16	18.15	16.30	15.77	14.98	13.33	12.94	11.41	11.07	10.61	9.132	8.912	8.069	7.607	8.017	9.262	7.599	5.786	4.515	4.506	3.955	3.751	3.117	2.895	3.319	2.988	2.526	2.164	2.342	2.531	6.320	28.90	78.72	181.0	524.2	56.24	4.859	0.560	0.404	0.371
580.0	20.11	26.35	31.40	26.24	32.26	35.42	42.79	45.85	77.62	155.7	78.45	66.53	89.01	313.8	 2298	253.1	32.44	28.68	29.19	29.16	25.13	25.13	23.64	24.18	23.97	22.99	24.13	24.28	24.08	23.66	25.17	21.69	21.95	21.34	19.73	17.59	17.30	16.66	15.02	13.85	12.73	12.60	11.10	10.55	9.772	9.461	9.008	8.087	7.588	7.388	6.363	5.752	6.919	7.581	6.153	4.278	3.533	3.771	3.167	2.718	2.626	2.643	2.872	2.484	1.642	1.942	1.657	2.603	7.460	18.40	43.42	270.1	403.0	49.08	1.620	0.579	0.386
585.0	16.73	25.35	28.16	33.73	30.38	32.59	37.00	43.87	54.94	145.6	91.69	61.64	63.59	113.5	 1333	 1402	36.40	27.04	24.06	23.11	21.77	21.41	20.52	20.50	21.11	19.45	19.46	19.64	20.68	20.08	20.84	18.53	17.68	17.46	16.42	15.28	13.77	14.35	13.27	12.23	11.02	10.95	9.479	8.785	8.479	8.496	8.078	7.106	6.088	5.879	5.538	4.910	4.998	6.295	5.952	4.173	2.936	3.258	2.727	2.463	2.380	2.223	2.567	2.220	1.475	1.753	1.579	1.923	2.587	4.901	10.68	68.74	282.5	348.6	32.31	0.804	0.475
590.0	21.99	23.76	25.34	30.97	28.03	26.37	30.14	36.72	43.21	94.09	128.8	63.58	59.57	64.75	408.4	 1728	428.4	22.13	20.52	19.34	17.30	17.87	17.43	16.36	16.08	15.92	15.92	16.12	16.52	16.70	15.85	15.03	14.17	14.07	12.88	12.27	11.77	11.30	10.65	10.11	9.167	8.736	7.990	7.763	7.166	6.859	6.366	5.649	5.198	4.996	4.117	3.996	3.993	4.537	5.411	4.431	3.109	2.712	2.428	2.533	2.060	2.007	1.834	2.211	1.678	1.377	1.496	1.238	1.552	2.049	3.149	16.15	72.15	220.1	256.5	85.77	3.160
595.0	15.14	27.24	24.54	27.15	22.94	19.77	30.62	40.17	36.59	56.04	127.8	86.59	56.59	51.29	120.9	721.2	 1436	50.44	17.73	16.25	13.77	14.14	14.02	13.22	12.76	12.80	13.73	13.13	13.12	13.01	13.01	11.99	11.86	11.24	10.34	9.937	9.575	8.865	8.500	8.017	7.118	6.952	5.947	5.937	5.549	5.358	5.313	4.694	4.702	4.138	3.390	3.112	3.276	3.350	3.727	4.286	3.541	2.444	2.130	1.906	1.804	1.719	1.632	1.588	1.865	1.559	1.369	0.959	1.134	1.114	1.532	4.136	16.70	50.03	118.5	276.3	52.14
600.0	15.05	21.29	23.19	24.92	21.21	24.93	27.32	29.29	36.46	44.43	98.93	116.2	55.35	46.82	54.60	217.3	 1602	178.0	14.79	14.65	12.80	12.29	10.16	12.06	11.02	11.03	10.98	11.69	11.15	10.92	10.28	10.60	10.12	9.851	9.323	8.583	8.219	7.606	6.943	6.482	6.136	6.044	4.834	4.880	4.804	4.878	4.319	4.054	3.497	3.273	2.954	2.552	2.586	2.702	2.770	3.829	3.732	2.641	2.032	1.811	1.562	1.633	1.492	1.245	1.557	1.467	1.177	0.921	0.868	0.849	0.830	1.214	4.224	11.74	28.75	152.0	239.0
605.0	18.18	15.34	22.75	17.25	21.61	22.73	21.72	26.70	32.26	40.03	66.34	134.6	62.24	44.66	38.59	69.00	955.3	919.3	17.28	12.98	10.31	10.68	9.508	9.564	9.915	9.004	9.577	9.315	9.264	9.337	9.866	9.166	8.450	7.686	8.256	7.252	7.268	6.208	5.839	5.574	5.310	5.069	3.926	4.404	4.306	3.911	3.470	3.544	2.971	2.922	2.676	2.313	2.188	2.428	1.937	2.624	3.282	3.197	2.016	1.661	1.344	1.422	1.341	1.463	1.064	1.474	1.234	0.916	0.971	0.750	0.640	0.564	1.351	3.202	6.944	39.20	175.9
610.0	13.01	16.23	22.54	18.93	22.42	22.74	19.17	24.82	29.07	37.43	48.83	103.2	86.58	43.31	35.01	33.11	281.7	 1226	288.3	10.76	8.484	8.590	8.572	7.387	7.672	7.605	7.807	8.011	7.448	7.703	7.709	7.582	6.761	6.194	6.025	5.960	5.325	4.973	4.978	4.332	4.078	3.813	3.395	3.579	3.152	3.362	3.011	2.909	2.460	2.627	2.337	2.236	1.962	1.881	1.661	1.928	2.485	2.869	2.017	1.404	1.385	1.092	1.323	1.028	0.992	1.140	1.368	0.998	0.813	0.779	0.619	0.543	0.676	1.256	1.909	9.227	45.25
615.0	12.44	12.00	22.45	19.79	20.87	22.20	19.30	16.82	23.89	30.40	45.37	67.54	105.4	45.56	31.41	24.64	74.24	514.3	 1036	28.67	7.347	6.823	6.010	6.111	6.190	5.555	6.297	5.874	6.387	5.474	6.406	5.533	5.342	5.120	4.494	4.631	4.661	3.973	4.366	3.626	3.298	3.184	3.282	2.698	2.315	2.343	2.084	2.224	1.954	2.029	1.774	1.774	1.669	1.345	1.335	1.444	1.630	2.297	2.179	1.494	1.033	0.977	0.912	0.876	0.859	0.836	0.902	0.996	0.701	0.915	0.631	0.424	0.448	0.636	0.574	2.340	10.56
620.0	11.47	21.42	17.90	20.73	15.22	21.59	16.04	20.40	24.68	28.76	39.35	50.47	94.25	62.69	28.23	21.80	28.11	148.4	 1185	135.8	7.504	5.745	6.028	5.970	5.245	4.848	5.120	4.717	4.771	5.000	5.252	5.154	4.259	4.029	3.896	3.934	3.949	3.748	3.367	3.074	2.627	2.337	2.392	2.309	1.935	1.733	1.985	1.818	1.766	1.480	1.557	1.321	1.086	1.081	1.242	1.222	1.511	1.528	2.134	1.507	1.258	0.995	0.900	0.855	0.542	0.555	0.682	0.797	0.892	0.667	0.531	0.328	0.369	0.548	0.444	0.819	2.754
625.0	12.03	18.00	18.98	17.35	16.81	16.90	18.33	24.50	25.79	28.82	35.94	40.59	74.60	84.73	32.30	21.61	18.86	44.15	720.3	677.3	9.259	5.874	5.194	4.768	4.578	4.795	4.259	3.777	4.520	4.675	4.808	4.266	4.137	3.441	3.799	3.242	3.626	2.895	2.833	2.670	2.733	2.310	1.919	2.122	2.063	1.757	1.684	1.388	1.341	1.453	1.145	1.189	0.889	1.017	1.113	1.106	1.148	1.127	1.457	1.387	1.320	1.014	0.739	0.964	0.778	0.628	0.572	0.576	0.822	0.742	0.629	0.477	0.280	0.368	0.410	0.435	0.847
630.0	11.00	20.52	16.19	14.95	16.91	17.89	18.52	23.89	22.11	28.69	35.85	41.33	55.67	89.55	41.09	21.34	15.58	17.93	211.0	937.8	192.4	5.381	4.435	3.737	3.601	4.140	3.595	3.358	3.608	3.939	3.289	3.333	3.150	3.116	2.982	2.814	3.011	2.565	2.327	2.077	2.047	2.087	1.746	1.542	1.487	1.505	1.403	1.387	1.127	1.376	0.960	0.971	0.907	0.935	0.884	0.818	0.963	0.853	1.150	1.272	1.223	0.966	0.798	0.555	0.638	0.558	0.418	0.640	0.685	0.700	0.728	0.535	0.401	0.486	0.350	0.446	0.402
635.0	11.54	19.10	21.40	20.23	13.47	18.79	15.85	17.13	23.04	28.08	34.39	35.11	40.55	70.28	60.94	22.16	14.74	12.34	54.70	419.3	745.9	16.37	3.892	3.063	3.119	3.243	3.317	2.740	2.795	2.934	2.559	2.543	2.576	2.726	1.976	2.116	2.293	1.905	1.881	1.702	1.784	1.495	1.337	1.364	1.472	1.232	1.162	1.277	1.114	1.004	0.615	0.659	0.653	0.648	0.757	0.757	0.817	0.590	0.767	0.750	0.941	0.846	0.766	0.629	0.664	0.391	0.489	0.620	0.494	0.499	0.580	0.653	0.451	0.576	0.148	0.231	0.367
640.0	12.19	22.71	10.62	20.99	13.24	17.95	17.36	15.18	21.08	28.95	35.68	35.66	37.62	51.57	75.45	23.50	13.62	11.91	18.93	122.4	907.7	103.4	3.121	3.204	2.515	2.699	2.603	2.254	2.280	2.332	1.900	2.033	2.165	2.200	2.057	1.514	1.914	1.535	1.929	1.099	1.505	1.708	1.420	1.205	0.932	1.020	0.916	1.107	0.878	0.825	0.842	0.791	0.710	0.627	0.828	0.636	0.590	0.479	0.552	0.515	0.642	0.851	0.737	0.464	0.479	0.440	0.375	0.449	0.463	0.350	0.447	0.663	0.505	0.511	0.262	0.265	0.279
645.0	9.981	20.45	16.46	20.99	12.67	17.00	16.71	16.17	18.04	24.58	32.33	32.23	36.07	39.64	68.26	30.96	15.30	11.55	9.688	33.52	586.1	487.3	4.828	2.835	1.911	2.224	2.412	2.644	2.417	1.848	1.813	1.826	1.730	2.027	2.077	1.549	1.673	1.513	1.671	1.161	1.140	1.383	0.965	1.026	0.828	0.943	0.662	0.791	0.744	0.763	0.721	0.847	0.612	0.615	0.566	0.576	0.527	0.476	0.571	0.574	0.469	0.736	0.635	0.503	0.490	0.593	0.459	0.790	0.592	0.462	0.528	0.436	0.893	0.367	0.214	0.254	0.255
650.0	15.19	18.01	23.75	16.78	14.77	15.12	14.71	21.02	22.85	21.70	30.98	34.99	38.01	35.99	54.50	44.24	14.57	11.39	9.648	12.21	217.6	797.4	36.15	3.216	2.791	2.075	2.439	1.774	1.943	1.900	1.758	1.589	1.329	1.878	1.565	1.665	1.461	1.234	1.339	0.863	0.837	1.177	1.013	0.923	0.880	0.883	0.790	0.688	0.511	0.677	0.507	0.700	0.532	0.445	0.462	0.526	0.446	0.467	0.507	0.338	0.248	0.505	0.594	0.600	0.516	0.569	0.550	0.615	0.207	0.314	0.417	0.318	0.494	0.526	0.477	0.195	0.236
