Sample:	'1
File name:	t2025070202ºêË³ÇåË®³Ø.FD3
Run date:	'09:16:52, 07/03/2025
Operator:	Administrator
Comment:	'

Instrument
Model:	F-2700 FL Spectrophotometer
Serial number:	23B8-004
ROM Version:	4J14000 07

Instrument parameters
Measurement type:	3-D scan
Data mode:	Fluorescence
EX  Start WL:	220.0 nm
EX  End WL:	600.0 nm
EX Sampling interval:	5.0 nm
EM  Start WL:	230.0 nm
EM  End WL:	650.0 nm
EM Sampling interval:	5.0 nm
Scan speed:	12000 nm/min
EX Slit:	5.0 nm
EM Slit:	5.0 nm
PMT Voltage:	700 V
Response:	Auto 
Corrected spectra:	Off
Contour interval:	50.000

Peak integration
Integration method:	Rectangular
Sensitivity:	1
Threshold:	1.000

Peaks
No.	ApexEX/EM(nm)	Height(Data)
1	225.0/585.0	35.63
2	225.0/600.0	27.76
3	225.0/615.0	29.13
4	230.0/250.0	250.4
5	230.0/350.0	1017
6	230.0/500.0	307.8
7	230.0/605.0	27.37
8	235.0/260.0	347.1
9	235.0/370.0	1085
10	235.0/515.0	266.3
11	240.0/265.0	453.9
12	240.0/380.0	1083
13	240.0/525.0	230.9
14	245.0/270.0	495.7
15	245.0/540.0	206.8
16	250.0/275.0	658.3
17	250.0/550.0	169.8
18	255.0/285.0	671.3
19	255.0/565.0	137.9
20	260.0/290.0	592.8
21	260.0/575.0	116.5
22	265.0/295.0	728.7
23	265.0/585.0	97.55
24	270.0/300.0	954.3
25	270.0/600.0	87.20
26	275.0/305.0	950.3
27	275.0/330.0	557.0
28	275.0/610.0	74.89
29	280.0/340.0	557.8
30	280.0/625.0	62.57
31	285.0/320.0	826.6
32	285.0/635.0	46.13
33	290.0/325.0	744.3
34	300.0/335.0	549.5
35	305.0/345.0	482.4
36	310.0/350.0	403.6
37	315.0/355.0	396.4
38	320.0/365.0	389.0
39	325.0/370.0	370.5
40	330.0/375.0	362.9
41	335.0/380.0	356.2
42	345.0/395.0	291.1
43	350.0/400.0	281.9
44	365.0/420.0	211.1
45	395.0/460.0	77.90
46	415.0/485.0	39.15
47	425.0/500.0	26.94
48	440.0/520.0	16.09
49	455.0/540.0	8.594
50	475.0/260.0	1.983
51	480.0/375.0	4.101
52	485.0/265.0	2.355
53	495.0/270.0	2.440
54	495.0/385.0	4.400
55	505.0/275.0	3.746
56	505.0/400.0	4.306
57	510.0/280.0	4.265
58	515.0/285.0	4.261
59	530.0/290.0	3.595
60	540.0/295.0	4.853
61	545.0/300.0	5.234
62	550.0/305.0	5.704
63	560.0/310.0	5.086
64	570.0/315.0	5.117
65	575.0/320.0	5.091
66	585.0/325.0	5.216

Data points
	220.0	225.0	230.0	235.0	240.0	245.0	250.0	255.0	260.0	265.0	270.0	275.0	280.0	285.0	290.0	295.0	300.0	305.0	310.0	315.0	320.0	325.0	330.0	335.0	340.0	345.0	350.0	355.0	360.0	365.0	370.0	375.0	380.0	385.0	390.0	395.0	400.0	405.0	410.0	415.0	420.0	425.0	430.0	435.0	440.0	445.0	450.0	455.0	460.0	465.0	470.0	475.0	480.0	485.0	490.0	495.0	500.0	505.0	510.0	515.0	520.0	525.0	530.0	535.0	540.0	545.0	550.0	555.0	560.0	565.0	570.0	575.0	580.0	585.0	590.0	595.0	600.0
230.0	35.38	557.0	1181	310.0	10.59	2.207	1.853	1.404	1.419	1.204	1.156	1.135	0.984	0.655	0.757	0.637	0.486	0.378	0.358	0.300	0.306	0.232	0.284	0.276	0.270	0.247	0.250	0.180	0.180	0.159	0.164	0.148	0.188	0.149	0.165	0.140	0.136	0.139	0.111	0.117	0.190	0.288	0.334	0.201	0.127	0.134	0.675	2.764	4.070	2.685	0.925	0.193	0.106	0.091	0.077	0.082	0.106	0.064	0.079	0.068	0.075	0.080	0.067	0.097	0.084	0.065	0.073	0.054	0.040	0.055	0.067	0.063	0.065	0.063	0.067	0.081	0.074
235.0	105.0	169.1	814.7	1149	312.5	12.46	2.623	1.915	1.148	1.272	1.158	1.230	1.003	0.859	0.485	0.589	0.453	0.364	0.368	0.302	0.291	0.272	0.247	0.317	0.172	0.220	0.214	0.193	0.124	0.171	0.128	0.120	0.177	0.133	0.079	0.109	0.169	0.121	0.115	0.134	0.156	0.196	0.317	0.377	0.323	0.200	0.251	0.787	1.771	3.146	4.118	4.083	1.558	0.340	0.088	0.069	0.086	0.094	0.098	0.073	0.077	0.103	0.073	0.096	0.063	0.092	0.060	0.059	0.075	0.057	0.087	0.086	0.057	0.113	0.104	0.083	0.079
240.0	169.5	115.6	264.4	1104	1156	224.8	7.183	1.821	1.767	1.754	1.404	1.664	1.130	0.901	0.706	0.684	0.642	0.501	0.441	0.346	0.347	0.279	0.261	0.298	0.217	0.270	0.226	0.173	0.156	0.190	0.165	0.160	0.188	0.189	0.088	0.128	0.126	0.139	0.093	0.147	0.139	0.141	0.168	0.321	0.480	0.478	0.284	0.295	0.556	1.106	2.578	5.715	6.036	3.841	1.132	0.130	0.054	0.096	0.093	0.064	0.063	0.057	0.078	0.082	0.078	0.078	0.061	0.096	0.073	0.065	0.069	0.098	0.062	0.077	0.063	0.093	0.064
245.0	134.6	214.4	115.1	416.8	1429	1051	129.3	3.433	2.101	1.640	2.006	1.596	1.138	0.907	0.718	0.680	0.506	0.435	0.493	0.499	0.387	0.401	0.279	0.262	0.250	0.223	0.154	0.204	0.222	0.154	0.124	0.214	0.174	0.160	0.130	0.174	0.112	0.124	0.160	0.123	0.148	0.105	0.116	0.173	0.321	0.492	0.713	0.560	0.275	0.339	0.723	2.149	4.869	7.586	6.812	3.227	0.602	0.126	0.119	0.079	0.066	0.153	0.067	0.076	0.050	0.122	0.059	0.086	0.089	0.075	0.059	0.099	0.071	0.050	0.067	0.082	0.070
250.0	52.18	177.6	250.4	174.5	508.8	1283	1093	187.6	14.46	1.934	2.293	1.579	1.326	0.991	0.804	0.884	0.629	0.541	0.417	0.444	0.352	0.390	0.317	0.285	0.320	0.262	0.230	0.200	0.170	0.165	0.178	0.194	0.151	0.151	0.139	0.193	0.126	0.133	0.175	0.180	0.134	0.096	0.124	0.158	0.160	0.229	0.482	0.830	0.960	0.741	0.480	0.627	1.288	2.662	4.824	6.815	8.225	6.675	3.180	0.714	0.121	0.096	0.092	0.090	0.056	0.087	0.068	0.076	0.085	0.068	0.075	0.072	0.123	0.060	0.074	0.055	0.088
255.0	21.34	53.94	220.3	329.0	192.0	369.7	1318	1927	236.1	12.61	2.713	2.000	1.799	1.267	1.144	0.691	0.655	0.469	0.324	0.444	0.423	0.370	0.432	0.364	0.263	0.231	0.194	0.188	0.240	0.190	0.186	0.210	0.123	0.131	0.141	0.152	0.134	0.159	0.127	0.163	0.159	0.132	0.139	0.138	0.112	0.131	0.212	0.302	0.531	0.936	1.408	1.126	0.659	0.744	1.253	1.821	3.666	8.342	12.69	10.89	4.146	0.653	0.123	0.073	0.103	0.087	0.092	0.081	0.094	0.074	0.112	0.074	0.110	0.078	0.062	0.154	0.098
260.0	16.12	21.52	82.80	347.1	289.9	141.9	478.3	1977	1829	178.1	7.120	2.680	2.443	1.297	1.090	0.930	0.644	0.565	0.372	0.555	0.378	0.442	0.364	0.322	0.293	0.267	0.263	0.267	0.175	0.177	0.180	0.183	0.167	0.162	0.140	0.150	0.148	0.140	0.135	0.176	0.145	0.162	0.138	0.078	0.158	0.133	0.145	0.146	0.245	0.422	0.941	1.983	1.806	0.952	0.606	0.676	1.075	2.496	6.583	12.36	15.01	9.726	2.951	0.314	0.085	0.104	0.086	0.112	0.094	0.064	0.095	0.083	0.095	0.100	0.058	0.113	0.068
265.0	17.12	13.10	31.80	182.5	453.9	236.1	166.4	793.0	2554	1555	118.9	4.058	2.717	1.939	1.210	0.995	0.859	0.606	0.454	0.543	0.362	0.480	0.394	0.351	0.367	0.275	0.228	0.222	0.249	0.163	0.278	0.169	0.228	0.142	0.202	0.154	0.182	0.136	0.155	0.138	0.156	0.183	0.130	0.119	0.133	0.145	0.206	0.151	0.143	0.189	0.378	1.137	2.043	2.355	1.332	0.589	0.644	0.795	1.766	4.135	9.840	15.39	15.58	7.521	1.415	0.173	0.094	0.126	0.133	0.071	0.076	0.056	0.084	0.133	0.072	0.108	0.099
270.0	28.16	14.76	20.42	73.13	283.6	495.7	281.9	250.4	924.7	2220	2170	449.1	13.11	2.868	1.894	1.368	1.110	0.862	0.588	0.536	0.446	0.386	0.491	0.333	0.323	0.329	0.290	0.291	0.296	0.265	0.241	0.186	0.224	0.201	0.225	0.156	0.201	0.207	0.177	0.170	0.176	0.155	0.153	0.146	0.137	0.149	0.161	0.155	0.162	0.129	0.179	0.439	0.866	1.440	2.216	2.440	2.090	1.122	0.860	1.236	2.628	4.927	8.944	13.11	14.65	12.45	5.962	1.344	0.200	0.100	0.095	0.067	0.095	0.119	0.102	0.097	0.101
275.0	66.62	42.72	33.72	49.23	142.0	344.6	658.3	293.4	261.3	618.5	2104	3151	154.5	10.44	2.663	1.694	1.342	1.193	0.875	0.642	0.543	0.428	0.398	0.453	0.357	0.387	0.282	0.355	0.189	0.231	0.251	0.215	0.243	0.275	0.265	0.240	0.315	0.263	0.262	0.212	0.187	0.205	0.242	0.233	0.201	0.234	0.227	0.176	0.166	0.175	0.187	0.345	0.481	0.758	1.164	1.835	3.223	3.746	2.367	0.977	0.910	1.435	2.254	3.337	5.145	11.03	19.49	19.09	7.794	1.173	0.134	0.117	0.127	0.088	0.176	0.118	0.101
280.0	115.4	87.10	60.65	56.87	114.6	208.9	525.0	620.3	190.7	204.2	692.2	2961	2587	113.3	5.545	2.293	1.440	1.408	0.867	0.862	0.593	0.538	0.467	0.433	0.427	0.437	0.298	0.409	0.304	0.216	0.255	0.225	0.293	0.386	0.314	0.302	0.399	0.376	0.305	0.279	0.263	0.238	0.328	0.293	0.326	0.389	0.341	0.371	0.270	0.226	0.275	0.314	0.373	0.618	0.769	1.033	1.713	2.821	4.265	3.224	1.219	0.719	0.855	1.144	1.490	3.044	7.666	16.12	21.91	16.42	5.413	0.528	0.165	0.115	0.153	0.110	0.096
285.0	173.7	152.3	101.0	77.15	103.2	157.2	282.3	671.3	313.1	148.9	243.3	1068	3326	1089	71.29	3.396	1.763	1.525	1.021	0.858	0.769	0.624	0.602	0.495	0.464	0.405	0.330	0.330	0.257	0.286	0.265	0.279	0.367	0.413	0.366	0.418	0.436	0.386	0.378	0.359	0.335	0.352	0.369	0.338	0.446	0.514	0.437	0.489	0.332	0.325	0.284	0.274	0.395	0.481	0.592	0.743	0.975	1.341	2.474	4.261	4.002	1.889	0.788	0.734	0.767	1.208	2.180	4.674	10.52	19.08	21.38	11.90	2.791	0.224	0.153	0.137	0.109
290.0	237.9	217.4	157.9	104.0	104.0	132.7	168.3	321.0	592.8	476.1	208.6	359.2	1123	2188	1819	293.1	8.278	2.157	1.520	1.160	0.979	0.833	0.563	0.547	0.405	0.369	0.374	0.370	0.321	0.286	0.328	0.261	0.359	0.377	0.446	0.516	0.584	0.517	0.474	0.369	0.375	0.469	0.450	0.466	0.592	0.636	0.650	0.662	0.523	0.424	0.404	0.347	0.408	0.515	0.568	0.681	0.786	0.844	1.075	1.841	2.879	3.443	3.595	2.535	1.264	0.980	1.140	1.725	3.033	5.524	9.324	13.80	15.78	14.03	7.853	2.414	0.263
295.0	283.5	271.0	205.4	135.8	111.5	128.3	139.2	177.2	297.9	728.7	604.2	251.0	376.7	611.2	1711	2483	89.81	6.510	2.050	1.249	1.259	1.016	0.761	0.618	0.518	0.428	0.449	0.313	0.331	0.338	0.288	0.317	0.380	0.447	0.374	0.582	0.690	0.515	0.631	0.429	0.504	0.579	0.538	0.556	0.663	0.764	0.716	0.826	0.696	0.644	0.454	0.558	0.426	0.531	0.544	0.652	0.731	0.680	0.724	0.978	1.224	1.522	2.405	4.517	4.853	2.752	1.365	1.161	1.493	1.914	2.575	3.532	4.556	8.746	16.97	19.98	10.60
300.0	289.3	313.5	229.5	165.1	129.5	142.3	155.4	174.6	230.0	489.4	954.3	465.2	241.7	248.4	557.7	2251	1982	70.11	4.277	1.625	1.286	1.185	0.858	0.638	0.673	0.590	0.523	0.295	0.355	0.286	0.237	0.278	0.406	0.400	0.523	0.705	0.693	0.577	0.556	0.527	0.590	0.487	0.545	0.598	0.779	0.816	0.804	0.832	0.790	0.686	0.492	0.649	0.557	0.640	0.514	0.629	0.760	0.874	0.957	0.991	1.058	1.255	1.420	2.566	4.249	5.234	3.750	1.930	1.398	1.469	1.350	1.526	1.636	2.595	5.736	13.04	21.05
305.0	320.2	337.7	275.1	200.0	163.1	173.8	201.5	227.0	282.1	411.2	829.4	950.3	384.2	240.9	238.1	804.0	2461	667.0	46.78	2.738	1.354	1.235	1.193	0.691	0.699	0.447	0.546	0.345	0.342	0.339	0.367	0.319	0.389	0.482	0.448	0.607	0.735	0.643	0.680	0.510	0.494	0.548	0.586	0.639	0.700	0.768	0.886	0.954	0.897	0.828	0.613	0.794	0.635	0.736	0.762	0.783	0.886	1.131	1.198	1.188	1.299	1.501	1.633	2.011	2.702	4.117	5.704	4.861	2.887	2.022	1.414	1.316	1.290	1.369	1.915	3.819	8.249
310.0	342.6	362.7	312.6	236.0	202.0	214.2	241.2	281.2	331.8	417.9	574.0	886.9	826.6	384.2	234.6	305.1	855.7	1553	1308	223.8	6.362	1.494	1.235	0.972	0.774	0.626	0.573	0.415	0.355	0.416	0.393	0.304	0.396	0.445	0.481	0.548	0.644	0.720	0.662	0.559	0.490	0.625	0.628	0.651	0.741	0.845	0.911	1.071	0.946	0.857	0.728	0.875	0.822	0.790	0.905	0.975	1.165	1.223	1.267	1.464	1.650	1.752	1.974	2.088	2.487	2.796	3.431	4.571	5.086	4.610	3.148	1.972	1.524	1.426	1.359	1.734	2.541
315.0	342.4	392.4	346.5	274.7	231.2	236.0	270.6	307.8	358.2	433.0	511.1	622.9	794.2	767.5	322.2	221.2	317.8	448.5	1230	1936	66.00	4.879	1.750	1.199	1.018	0.570	0.638	0.564	0.422	0.502	0.401	0.367	0.382	0.396	0.609	0.516	0.518	0.662	0.618	0.529	0.565	0.568	0.564	0.614	0.709	0.940	1.127	1.155	1.122	0.923	0.953	0.957	1.004	1.016	0.983	1.038	1.277	1.364	1.369	1.756	1.605	1.729	1.886	2.063	2.312	2.703	2.813	3.139	3.120	4.160	5.117	4.394	2.895	1.743	1.416	1.397	1.431
320.0	370.4	463.9	405.9	315.7	258.9	255.0	289.1	329.0	374.6	443.2	503.0	558.0	615.3	826.6	558.6	244.5	219.3	187.7	383.5	1643	1473	54.77	3.142	1.678	1.274	0.731	0.636	0.548	0.476	0.401	0.354	0.313	0.425	0.430	0.504	0.554	0.530	0.538	0.587	0.607	0.545	0.614	0.536	0.733	0.886	1.042	1.241	1.323	1.262	1.073	1.063	1.141	0.989	1.104	1.126	1.192	1.241	1.445	1.298	1.694	1.615	1.908	1.879	2.266	2.367	2.405	2.716	2.803	2.688	3.003	3.676	5.091	4.984	3.599	1.936	1.549	1.478
325.0	438.0	559.4	552.6	413.0	304.2	286.4	295.9	344.6	376.2	443.4	500.1	554.2	552.0	641.8	744.3	366.5	215.2	145.7	141.5	541.4	1684	1114	40.40	2.571	1.456	1.029	0.616	0.788	0.682	0.479	0.525	0.367	0.480	0.404	0.500	0.607	0.551	0.545	0.557	0.516	0.544	0.652	0.653	0.674	0.973	1.195	1.380	1.546	1.723	1.521	1.354	1.434	1.109	1.219	1.193	1.158	1.273	1.542	1.546	1.684	1.671	2.006	2.024	2.250	2.364	2.552	2.631	2.693	2.748	2.860	2.748	3.426	4.089	5.216	4.055	2.337	1.629
330.0	486.1	692.8	756.3	613.3	425.8	329.0	324.7	347.5	382.0	441.0	507.2	557.0	543.3	530.6	587.3	582.9	338.0	165.8	112.6	176.8	540.3	1201	973.1	188.6	6.999	1.438	0.979	0.828	0.799	0.447	0.455	0.447	0.412	0.382	0.498	0.573	0.488	0.526	0.533	0.504	0.559	0.671	0.676	0.802	1.042	1.410	1.620	2.058	2.206	2.059	2.060	1.906	1.660	1.513	1.382	1.313	1.493	1.496	1.706	1.681	1.788	1.932	1.893	2.249	2.337	2.523	2.527	2.726	2.818	2.803	2.660	2.846	2.897	3.467	3.833	3.864	3.279
335.0	513.8	739.7	913.2	802.0	562.7	392.3	350.5	364.5	394.1	439.7	502.7	550.7	555.7	516.3	475.0	489.3	549.5	272.8	134.6	118.7	173.7	324.4	862.5	1467	253.7	5.395	1.242	1.036	0.819	0.637	0.579	0.540	0.538	0.422	0.473	0.503	0.449	0.554	0.569	0.558	0.550	0.635	0.787	0.981	1.169	1.672	2.039	2.385	2.494	2.440	2.411	2.766	2.114	2.087	1.560	1.613	1.639	1.565	1.680	1.594	1.812	1.956	2.054	2.131	2.473	2.515	2.657	2.871	2.955	2.795	2.605	2.853	2.722	2.686	2.733	3.037	3.579
340.0	544.6	791.9	978.5	874.4	639.3	462.2	380.9	386.6	397.4	449.7	500.7	546.2	557.8	519.8	462.6	408.3	504.0	438.3	182.8	122.6	104.1	123.9	270.2	1190	1259	48.72	3.115	1.267	0.927	0.809	0.752	0.475	0.451	0.405	0.471	0.604	0.585	0.551	0.539	0.576	0.585	0.643	0.689	0.870	1.259	1.534	2.052	2.536	2.690	2.525	2.641	2.927	2.496	2.450	1.957	1.714	1.882	1.643	1.776	1.815	1.814	2.062	2.059	2.137	2.506	2.652	2.561	2.607	2.692	2.846	2.616	3.074	2.773	2.553	2.392	2.583	2.482
345.0	541.3	811.4	1016	941.8	712.1	514.8	413.5	403.8	418.8	449.1	500.9	546.3	548.0	523.0	464.9	388.4	389.1	482.4	309.8	148.5	110.5	94.44	107.0	387.7	1310	954.1	38.21	2.145	1.109	0.808	0.832	0.501	0.555	0.477	0.422	0.514	0.564	0.538	0.495	0.564	0.449	0.648	0.754	0.910	1.296	1.739	1.931	2.567	2.837	2.928	2.886	3.166	2.859	2.593	2.088	2.000	1.885	1.852	1.775	1.774	1.842	2.233	2.187	2.192	2.485	2.519	2.534	2.694	2.699	2.826	2.773	2.781	2.651	2.776	2.541	2.586	2.306
350.0	541.3	826.1	1017	1001	807.4	620.7	503.7	455.5	451.6	478.4	509.6	547.2	546.1	527.8	472.1	404.9	359.7	369.5	403.6	280.9	152.7	116.2	93.09	136.3	412.6	917.2	767.7	174.8	7.517	1.240	0.852	0.656	0.602	0.558	0.447	0.466	0.459	0.537	0.510	0.553	0.521	0.540	0.789	0.906	1.237	1.605	1.890	2.335	2.826	2.765	2.914	3.407	3.143	2.866	2.489	2.265	2.194	2.280	2.134	2.066	2.034	2.325	2.265	2.301	2.462	2.608	2.701	2.623	2.638	2.740	2.758	2.806	2.679	2.937	2.476	2.523	2.479
355.0	551.2	806.8	988.5	1037	874.4	730.4	601.2	539.6	516.1	524.0	546.5	562.4	566.6	535.5	493.1	432.7	379.7	337.4	337.6	396.4	271.0	158.4	122.4	105.9	142.4	247.7	606.7	1120	246.2	6.824	1.347	0.842	0.738	0.590	0.559	0.554	0.533	0.537	0.549	0.572	0.575	0.607	0.663	0.863	1.293	1.531	1.978	2.422	2.941	2.847	2.923	3.564	3.273	3.214	2.964	2.628	2.703	2.673	2.452	2.507	2.396	2.668	2.474	2.561	2.642	2.526	2.674	2.859	2.784	2.874	2.732	2.834	2.672	2.945	2.775	2.693	2.605
360.0	546.1	801.2	1016	1064	958.5	796.0	685.9	592.0	566.5	572.2	580.7	590.9	580.1	549.7	500.0	450.7	396.2	353.4	319.7	357.5	385.1	226.7	151.6	117.9	100.9	101.0	188.0	831.9	1055	48.83	3.103	1.113	0.791	0.689	0.627	0.575	0.483	0.449	0.584	0.489	0.511	0.590	0.765	0.832	1.212	1.391	1.846	2.162	2.791	2.818	2.868	3.760	3.435	3.642	3.017	2.883	3.169	2.871	2.647	2.698	2.657	2.764	2.768	2.933	2.820	2.838	2.816	2.815	2.839	2.991	3.095	2.835	2.982	3.075	2.840	3.091	2.989
365.0	546.6	786.2	1019	1068	984.8	865.5	740.9	639.4	614.0	607.4	605.5	606.0	588.7	561.9	515.4	462.8	416.4	374.9	333.9	320.4	389.0	333.9	193.5	139.7	107.6	83.35	82.33	260.8	996.3	856.3	38.80	2.236	0.999	0.759	0.641	0.658	0.559	0.583	0.630	0.538	0.625	0.547	0.837	0.921	1.269	1.400	1.837	2.259	2.650	2.793	2.970	3.855	3.817	3.650	3.408	3.380	3.508	3.326	2.957	2.961	2.827	2.872	2.846	2.888	2.937	2.860	3.002	2.912	3.056	2.819	2.975	2.887	3.045	3.026	3.001	2.894	2.856
370.0	518.6	766.9	982.8	1085	1032	923.9	815.6	715.5	665.3	645.1	638.0	628.4	603.5	577.2	531.6	480.7	441.7	400.0	359.3	330.7	335.3	370.5	309.3	190.0	136.1	101.6	74.65	97.50	304.5	744.1	666.0	166.1	8.575	1.271	0.774	0.665	0.598	0.705	0.591	0.513	0.606	0.612	0.785	0.946	1.219	1.486	1.736	2.215	2.636	2.649	3.002	3.769	4.015	3.947	3.828	3.628	3.688	3.677	3.454	3.176	3.084	3.032	3.085	3.140	3.087	3.105	3.006	2.915	3.107	3.052	3.086	3.191	2.991	3.051	3.084	3.076	2.984
375.0	529.3	754.3	959.2	1065	1077	991.9	872.1	776.5	707.9	674.6	667.4	660.1	624.6	585.5	539.1	493.3	463.6	418.3	386.7	356.9	334.1	324.3	362.9	298.3	179.5	130.3	97.09	80.38	105.7	198.3	477.7	941.4	231.0	6.414	0.995	0.869	0.690	0.701	0.724	0.578	0.599	0.703	0.653	0.979	1.164	1.358	1.649	2.291	2.655	2.638	2.900	3.850	4.101	4.046	3.983	3.701	3.758	3.957	3.799	3.530	3.209	3.281	3.297	3.411	3.222	3.249	3.016	3.092	3.187	3.016	3.202	3.165	3.178	3.261	2.845	3.048	3.025
380.0	549.0	751.8	934.8	1060	1083	1027	932.5	799.7	736.6	696.5	690.8	671.8	626.3	594.2	541.2	497.8	469.3	430.3	398.9	366.5	345.2	319.5	330.0	356.2	243.7	157.1	118.9	88.94	72.47	78.53	148.4	655.5	843.2	41.21	3.100	1.121	0.788	0.619	0.746	0.645	0.581	0.771	0.820	0.924	1.155	1.288	1.683	2.201	2.628	2.554	2.912	3.970	4.051	4.054	4.020	4.049	4.183	3.946	3.875	3.514	3.327	3.559	3.305	3.452	3.350	3.178	3.246	3.167	2.984	3.221	3.173	3.099	3.296	2.981	3.102	3.260	2.869
385.0	534.7	774.2	915.2	1057	1079	1039	957.2	817.0	751.9	708.5	698.5	671.8	637.0	592.5	540.4	494.9	469.0	434.1	403.6	379.7	350.9	331.4	311.0	339.4	316.8	198.5	139.4	105.2	78.47	61.40	65.72	202.8	719.7	662.5	32.51	1.828	1.132	0.817	0.626	0.678	0.655	0.814	0.819	0.923	1.194	1.316	1.613	2.149	2.653	2.576	2.843	3.722	4.038	4.127	4.174	4.400	4.355	3.930	3.797	3.515	3.176	3.361	3.411	3.495	3.170	3.210	3.246	3.380	3.295	3.346	3.266	3.276	3.308	3.040	3.146	3.305	3.230
390.0	535.3	733.0	903.4	1023	1060	1038	948.5	839.2	754.4	711.7	692.3	660.0	627.1	586.6	531.6	491.6	461.4	430.9	406.5	385.8	357.8	337.7	312.9	299.9	316.1	276.0	179.8	127.1	96.00	72.02	56.24	74.82	213.3	526.4	486.5	131.6	7.467	1.185	0.834	0.642	0.644	0.779	0.816	0.979	1.152	1.411	1.763	2.218	2.385	2.495	2.762	3.422	3.726	4.068	3.982	4.000	4.175	4.046	3.953	3.646	3.363	3.469	3.358	3.292	3.080	3.358	3.118	3.085	3.068	3.063	3.083	3.040	3.252	3.034	3.162	3.162	3.084
395.0	532.6	698.0	886.9	987.1	1039	1021	942.8	843.0	751.9	713.9	694.7	649.9	615.1	573.6	515.7	478.4	450.7	426.8	404.2	383.5	361.0	342.8	318.1	296.5	280.6	291.1	254.6	160.3	116.4	88.32	68.03	56.37	73.56	137.9	325.7	655.9	187.5	5.877	1.229	0.772	0.654	0.915	0.819	0.936	1.217	1.428	1.714	2.149	2.343	2.507	2.673	3.438	3.530	4.015	3.999	3.972	3.846	4.211	3.678	3.521	3.426	3.423	3.432	3.136	3.090	3.400	3.110	3.121	3.143	2.976	2.923	2.951	3.239	3.193	3.221	3.133	2.974
400.0	521.3	682.0	853.5	932.0	998.6	996.3	937.6	838.2	752.4	706.2	674.3	638.7	606.3	561.6	505.1	466.9	443.8	416.8	399.3	378.9	357.3	342.8	324.0	300.9	270.7	264.0	281.9	210.6	136.2	104.2	81.53	60.38	47.56	52.74	96.91	437.8	605.6	35.83	2.402	1.092	0.806	0.828	0.732	0.891	1.246	1.362	1.652	2.098	2.293	2.508	2.549	3.181	3.564	3.903	3.821	3.758	3.982	4.306	3.889	3.670	3.465	3.434	3.348	3.184	3.117	3.136	3.040	3.160	3.023	2.915	2.826	2.972	2.851	2.987	3.111	3.027	2.771
405.0	502.5	676.7	847.0	894.2	965.5	986.3	915.9	819.7	753.2	698.1	661.6	628.1	589.9	547.9	497.8	454.5	429.9	410.8	389.7	372.4	354.7	342.6	321.0	299.9	273.4	249.2	262.4	255.0	168.9	119.6	92.78	70.63	50.34	38.93	39.59	131.7	503.0	474.2	28.26	1.632	1.008	0.921	0.917	0.972	1.123	1.328	1.621	1.966	2.150	2.348	2.338	3.095	3.347	3.750	3.568	3.585	3.977	4.039	3.650	3.688	3.375	3.301	3.273	3.273	3.135	3.039	3.122	2.963	2.834	2.893	2.908	2.809	2.673	2.904	2.915	2.559	2.854
410.0	485.7	648.6	798.2	850.8	920.0	934.5	894.6	808.8	739.3	677.5	644.3	606.2	573.8	523.6	473.9	437.1	413.4	389.5	374.4	358.7	342.6	332.5	314.7	298.3	274.4	248.9	233.9	242.3	221.3	151.9	108.7	83.44	59.72	42.84	32.07	45.56	146.5	372.3	370.0	114.3	5.512	1.133	0.961	1.063	1.132	1.362	1.540	1.844	2.077	2.203	2.360	2.978	3.344	3.412	3.431	3.447	3.761	3.771	3.756	3.654	3.361	3.269	3.270	3.095	3.010	2.860	3.049	2.947	2.795	2.899	2.769	2.781	2.802	2.920	2.568	2.694	2.856
415.0	466.5	618.0	747.8	824.5	867.8	879.4	850.9	799.6	715.7	647.9	618.7	580.5	543.9	495.0	447.8	415.1	387.5	370.2	350.9	344.0	326.8	317.7	304.0	291.9	272.1	249.5	223.7	211.7	220.2	200.9	130.9	93.10	68.79	50.49	36.15	30.20	46.43	95.07	232.4	473.3	147.2	4.600	1.059	1.097	1.224	1.316	1.629	1.776	2.077	1.974	2.204	2.806	3.187	2.950	3.327	3.467	3.510	3.761	3.663	3.586	3.293	3.371	3.130	2.983	2.869	2.686	2.889	2.634	2.508	2.837	2.630	2.510	2.749	2.660	2.511	2.439	2.448
420.0	442.2	606.6	697.9	767.0	820.0	828.0	827.7	775.6	701.8	642.2	608.4	558.5	515.4	471.7	425.5	393.4	366.0	351.5	336.5	323.9	312.7	305.0	292.5	280.4	263.6	243.2	221.5	200.6	195.6	211.1	161.7	103.4	73.94	54.89	39.81	29.99	25.70	31.85	65.47	313.2	444.7	31.81	2.090	1.251	1.245	1.366	1.416	1.673	2.064	1.956	2.210	2.836	2.943	3.179	3.274	3.477	3.394	3.665	3.634	3.376	3.341	3.282	3.085	3.078	2.743	2.665	2.807	2.517	2.676	2.633	2.532	2.496	2.378	2.529	2.587	2.404	2.451
425.0	428.2	575.0	673.1	723.2	792.1	800.4	798.8	749.4	690.8	637.0	581.4	539.3	497.5	455.7	406.7	375.5	352.2	336.4	320.9	308.1	300.2	291.0	282.2	269.5	256.6	240.4	219.4	199.5	185.2	188.9	187.9	121.9	78.94	59.29	43.11	32.19	23.98	19.18	23.12	90.92	362.3	266.1	24.61	1.582	1.320	1.283	1.362	1.642	1.817	1.964	2.072	2.703	2.791	2.887	3.160	3.291	3.289	3.630	3.313	3.496	3.270	3.214	3.118	2.926	2.817	2.733	2.545	2.591	2.556	2.319	2.354	2.303	2.330	2.558	2.349	2.346	2.318
430.0	457.2	539.6	634.6	687.5	750.0	767.4	770.7	731.6	673.1	611.1	564.7	514.2	471.1	431.0	389.8	353.0	329.2	315.8	303.7	293.6	281.9	276.1	267.2	258.9	247.2	233.7	217.0	199.1	182.4	170.7	173.9	153.2	100.5	66.19	49.48	36.81	27.09	19.00	15.94	27.51	102.8	257.5	295.9	95.76	4.855	1.557	1.306	1.589	1.748	1.759	1.901	2.543	2.516	2.813	2.925	3.085	3.245	3.386	3.348	3.275	3.014	2.913	2.927	2.836	2.788	2.600	2.465	2.556	2.379	2.273	2.310	2.386	2.393	2.322	2.266	2.246	2.282
435.0	644.4	514.9	587.2	642.2	690.9	723.4	737.6	712.7	665.6	594.1	549.4	497.8	451.7	406.1	368.2	333.1	311.1	296.1	286.8	274.6	265.4	260.4	255.2	244.4	236.2	226.6	210.5	198.1	182.3	166.8	154.1	151.1	130.7	81.70	55.89	41.54	31.22	22.50	16.82	15.56	29.70	64.74	183.6	382.3	121.4	4.216	1.660	1.608	1.814	1.676	1.804	2.392	2.480	2.546	2.775	2.931	3.314	3.231	3.113	3.224	2.983	2.729	2.864	2.657	2.708	2.378	2.433	2.196	2.255	2.263	2.182	2.259	2.275	2.141	2.171	2.204	2.201
440.0	817.5	517.3	577.0	621.9	656.8	698.0	721.8	700.7	653.5	586.1	535.3	480.1	429.3	391.0	351.5	319.9	295.9	283.1	272.0	260.4	254.0	246.5	240.9	233.3	229.6	218.9	205.0	194.7	180.9	164.8	147.2	135.5	136.4	101.9	63.42	45.10	35.31	25.30	18.92	14.30	14.96	21.06	52.25	268.9	366.5	28.81	2.392	1.662	1.886	1.597	1.613	2.266	2.537	2.539	2.699	2.816	3.173	3.081	3.197	3.241	3.019	2.819	2.839	2.633	2.502	2.366	2.356	2.140	2.196	2.260	2.180	2.201	2.007	1.950	1.959	2.160	1.910
445.0	884.5	635.8	541.9	592.4	635.5	672.6	704.0	683.6	629.1	569.4	514.5	467.7	411.2	374.9	332.9	303.6	281.2	266.9	256.3	248.4	242.1	236.2	228.9	224.0	220.6	210.0	195.7	189.7	176.3	163.4	143.9	125.7	123.9	116.9	75.16	49.76	38.29	27.91	21.15	16.03	12.22	12.11	17.28	79.13	319.0	241.4	20.59	2.125	1.796	1.559	1.580	2.183	2.343	2.354	2.553	2.704	2.924	2.934	3.004	3.107	2.840	2.732	2.847	2.676	2.346	2.274	2.372	2.143	2.226	1.954	2.053	2.127	1.964	1.877	2.020	1.980	1.917
450.0	658.6	948.6	582.3	558.6	593.4	633.5	667.5	651.7	600.9	544.5	491.8	438.5	389.0	349.5	310.2	281.2	262.5	249.4	238.3	229.3	222.2	216.1	211.7	208.1	203.7	195.3	187.6	179.2	168.9	158.1	140.3	120.5	106.4	105.6	92.75	60.93	40.86	31.22	23.81	18.40	14.22	11.59	10.75	23.12	91.74	231.6	259.0	84.02	4.499	1.560	1.687	2.027	2.138	2.242	2.447	2.547	2.807	2.857	2.879	2.916	2.864	2.681	2.734	2.546	2.313	2.259	2.266	2.108	2.070	1.938	1.658	1.917	1.919	1.764	1.811	1.763	1.698
455.0	380.4	1012	838.3	509.4	541.5	591.7	612.6	607.8	559.4	519.3	459.6	410.9	356.3	321.8	288.3	259.2	238.9	229.1	221.5	211.8	203.2	195.9	191.8	189.8	185.3	177.7	173.5	170.1	156.2	150.1	134.1	114.7	97.88	86.99	86.94	76.51	48.74	33.22	26.96	20.50	16.86	13.37	10.69	11.54	25.45	57.57	152.8	318.5	26.76	3.842	1.702	2.126	1.921	2.156	2.424	2.278	2.485	2.576	2.538	2.518	2.774	2.642	2.699	2.432	2.274	2.103	2.013	1.978	1.992	1.831	1.629	1.767	1.723	1.598	1.605	1.619	1.674
460.0	298.4	783.3	1122	533.0	511.5	542.1	583.4	579.0	529.5	487.0	436.5	383.5	336.5	301.8	268.3	240.5	222.8	213.1	202.9	194.4	187.2	180.2	176.7	176.0	172.0	166.8	162.5	157.9	150.1	143.0	128.4	111.1	94.53	81.05	74.29	77.90	59.90	37.17	27.69	22.74	18.37	14.64	11.73	9.795	11.18	17.50	42.04	209.1	271.8	22.17	2.500	2.098	2.042	2.011	2.018	2.157	2.557	2.785	2.459	2.651	2.587	2.463	2.498	2.373	2.266	1.913	1.991	1.862	1.850	1.751	1.722	1.637	1.682	1.628	1.615	1.563	1.556
465.0	273.4	512.5	1237	679.1	485.7	510.6	530.5	549.1	504.0	459.8	408.3	362.9	315.7	280.3	249.3	224.8	206.1	196.4	187.6	180.8	172.6	167.4	163.0	163.4	159.0	156.6	152.3	146.9	141.5	135.0	122.8	108.9	92.18	78.33	66.37	68.58	66.60	43.40	29.11	23.95	19.40	15.64	13.07	10.12	8.530	8.348	13.32	61.13	240.4	179.8	18.59	2.207	1.904	1.916	1.923	2.009	2.334	2.390	2.457	2.535	2.403	2.162	2.305	2.051	2.075	1.896	1.911	1.647	1.716	1.538	1.630	1.463	1.559	1.528	1.404	1.410	1.361
470.0	274.2	347.5	838.0	1051	495.1	455.9	480.5	484.9	461.4	417.9	371.5	330.9	290.9	255.2	224.9	199.6	185.6	175.6	167.8	160.4	152.6	148.1	145.2	145.1	141.5	140.0	137.1	133.7	128.7	123.1	113.5	100.3	86.15	73.35	62.06	56.37	58.07	52.30	34.92	24.81	20.01	16.24	13.62	11.02	8.387	7.097	7.097	17.16	68.53	166.1	192.9	72.09	4.560	1.842	2.024	1.978	2.113	2.063	2.338	2.293	2.161	1.982	2.070	1.937	1.882	1.764	1.607	1.618	1.693	1.496	1.256	1.345	1.356	1.310	1.309	1.345	1.278
475.0	260.8	295.9	467.6	1099	749.7	416.2	434.6	438.8	419.8	372.0	346.6	295.9	263.9	223.3	201.8	178.8	165.8	154.8	148.0	140.6	134.4	131.3	128.7	126.0	126.1	124.3	120.2	120.9	114.8	110.1	102.4	93.76	79.58	67.70	58.01	49.56	45.98	48.35	44.55	28.63	20.24	17.19	13.73	11.18	9.087	7.235	5.979	7.553	18.37	40.48	102.2	217.9	27.43	4.202	1.839	1.737	1.978	1.932	1.999	2.043	1.918	1.790	1.941	1.693	1.650	1.558	1.600	1.510	1.502	1.279	1.341	1.141	1.052	1.064	1.186	1.370	1.264
480.0	274.5	296.0	326.5	803.5	1020	421.9	389.1	400.3	387.0	354.0	316.4	278.3	242.8	210.6	183.2	164.5	152.9	142.0	135.4	127.5	122.7	118.2	119.3	115.1	114.3	113.1	110.7	111.1	107.0	100.6	95.59	85.32	73.36	64.80	53.90	46.03	41.54	40.45	44.40	34.80	21.65	17.07	14.38	11.19	9.621	7.785	6.341	5.515	7.189	12.00	27.57	127.6	202.1	25.77	2.459	1.708	1.685	1.658	1.992	1.733	1.737	1.698	1.653	1.666	1.518	1.477	1.398	1.506	1.364	1.089	1.269	1.051	1.120	1.043	1.069	1.053	1.207
485.0	263.6	309.7	291.4	494.2	1177	531.5	370.1	379.8	362.6	331.9	295.0	261.3	227.8	197.5	170.1	152.5	140.3	130.1	127.0	118.7	115.0	110.2	108.7	106.6	107.4	104.8	103.1	101.8	100.2	96.53	89.48	80.48	69.12	60.75	53.02	45.14	39.01	34.80	38.21	39.15	25.49	17.75	14.27	12.08	9.861	7.937	6.791	5.252	4.718	5.466	8.632	36.39	162.6	180.6	20.20	2.174	1.756	1.852	1.816	1.903	1.647	1.690	1.636	1.497	1.461	1.349	1.432	1.276	1.165	1.144	1.062	1.038	1.067	1.070	1.195	0.957	0.957
490.0	205.1	306.6	276.7	321.8	820.8	916.2	380.5	341.3	330.9	301.8	276.2	241.1	208.8	178.2	156.8	138.0	126.5	118.8	114.3	108.2	102.6	98.77	96.64	95.38	95.39	94.29	93.21	91.64	90.51	87.65	81.76	74.24	65.31	56.91	49.62	42.48	36.09	32.56	30.79	34.40	30.58	20.72	14.87	12.10	10.26	8.068	7.275	5.945	4.824	4.321	4.703	10.56	44.95	121.8	163.5	70.27	5.747	1.845	1.680	1.817	1.620	1.588	1.538	1.470	1.452	1.324	1.178	1.125	1.082	1.074	0.997	1.066	0.913	0.988	0.993	0.870	0.943
495.0	153.8	280.1	277.9	254.9	415.4	1019	585.7	304.3	299.8	272.4	244.1	214.5	188.0	160.7	139.9	124.0	113.3	104.0	101.3	96.75	88.93	87.98	85.23	84.16	84.54	83.73	84.44	81.90	80.71	78.08	73.55	66.70	59.15	52.10	44.82	39.12	34.23	30.27	26.87	26.61	28.93	26.92	16.98	12.35	10.28	8.208	7.148	6.711	5.405	4.245	3.980	4.916	12.39	30.21	83.29	201.4	87.61	4.732	1.865	1.512	1.284	1.396	1.338	1.220	1.490	1.092	1.105	0.953	1.035	0.976	0.990	1.008	0.905	0.935	0.855	0.826	0.973
500.0	127.3	230.5	307.8	245.7	284.4	735.8	883.5	297.2	269.4	249.4	226.3	198.7	172.2	145.2	126.0	111.6	104.0	93.97	91.40	85.70	81.51	80.37	77.31	76.36	74.87	75.75	74.59	75.73	73.35	71.02	67.14	61.61	55.79	48.54	42.48	36.46	32.21	28.77	25.07	22.54	24.02	26.94	20.24	12.78	10.43	8.283	7.312	6.546	6.136	4.796	4.178	4.112	5.440	9.246	22.27	110.2	202.9	28.70	3.229	1.494	1.250	1.278	1.155	1.262	1.163	1.120	1.003	1.000	0.970	0.863	0.931	0.741	0.846	0.906	0.774	0.766	0.901
505.0	109.2	179.2	306.0	239.6	226.4	447.0	1044	370.8	250.3	227.6	205.2	182.3	156.4	134.6	116.7	105.9	94.18	88.39	85.09	78.68	74.45	71.73	70.18	70.16	67.26	69.53	66.92	66.62	66.92	66.57	61.68	55.71	50.80	44.49	39.26	34.47	30.08	26.82	23.09	21.19	19.86	22.99	22.81	14.38	10.37	8.516	7.431	6.398	5.611	4.855	4.064	3.936	4.104	4.779	7.670	30.99	137.8	176.1	26.33	1.823	1.514	1.313	1.341	1.225	1.076	1.008	0.976	0.859	0.931	0.771	0.842	0.715	0.736	0.627	0.672	0.617	0.780
510.0	103.2	134.7	235.2	258.7	198.4	260.7	746.1	771.9	255.0	198.4	182.9	160.9	138.1	119.2	101.4	92.26	83.57	76.31	73.82	68.74	65.11	63.08	61.46	60.15	58.77	59.53	59.01	58.04	58.45	57.77	54.78	50.25	44.53	39.76	35.27	30.82	27.26	24.61	21.81	19.13	17.00	17.17	19.97	17.90	12.42	8.558	7.085	6.266	5.581	4.910	4.534	3.941	3.819	3.829	4.520	9.442	37.35	106.7	231.9	60.44	5.408	1.255	1.152	1.110	0.980	0.903	0.884	0.835	0.823	0.739	0.705	0.687	0.683	0.699	0.638	0.651	0.713
515.0	87.18	111.4	163.4	266.3	197.2	191.3	353.0	931.5	434.8	174.4	157.4	142.1	121.8	106.0	89.87	79.27	71.84	66.07	62.16	59.05	56.00	54.68	52.51	52.13	51.36	51.03	51.26	50.55	50.61	49.26	46.82	43.80	38.53	34.87	31.21	27.72	23.90	21.54	19.24	17.22	14.95	14.37	13.95	16.82	15.61	9.467	7.195	5.940	5.081	4.722	4.409	4.406	3.716	3.702	3.602	4.535	10.61	25.69	102.9	148.2	31.73	4.685	1.089	1.049	0.912	0.760	0.814	0.708	0.721	0.652	0.692	0.699	0.684	0.626	0.476	0.696	0.578
520.0	73.20	102.0	133.1	224.5	217.7	161.7	206.6	687.4	734.0	180.3	143.4	128.0	108.1	90.80	81.30	70.09	64.72	57.72	55.61	53.58	49.06	48.67	45.87	46.75	46.10	45.10	43.78	44.62	45.35	44.87	41.68	38.51	34.38	31.31	27.56	24.98	22.36	20.06	17.03	16.10	13.99	12.47	11.73	13.41	16.09	11.70	7.022	5.612	4.812	4.466	4.138	4.431	4.139	3.488	3.167	3.171	4.537	7.574	25.57	71.85	138.9	29.55	2.410	1.031	0.852	0.772	0.701	0.571	0.667	0.511	0.635	0.564	0.524	0.522	0.585	0.522	0.480
525.0	73.32	91.41	114.4	174.3	230.9	156.7	158.7	369.1	957.9	258.6	131.5	115.3	96.82	84.11	72.91	63.82	59.36	53.08	48.91	47.92	45.87	43.67	41.66	41.27	40.95	40.65	40.40	41.04	39.92	40.08	37.36	35.15	31.77	28.25	25.10	22.28	20.66	18.23	16.46	14.49	12.95	11.23	10.46	10.32	13.54	13.36	8.514	5.688	4.479	4.233	3.745	4.097	3.976	3.736	3.320	2.838	2.876	3.672	7.172	18.74	85.16	128.6	24.20	1.398	0.748	0.709	0.645	0.532	0.565	0.605	0.498	0.527	0.409	0.482	0.532	0.423	0.424
530.0	66.99	82.71	98.97	122.2	219.1	171.4	136.7	189.5	665.1	662.6	143.7	100.4	85.63	72.81	62.71	54.63	50.68	45.59	42.65	41.33	38.58	37.28	35.53	35.57	34.43	34.60	34.92	34.25	33.90	33.65	32.34	29.69	27.15	24.59	21.93	19.49	17.57	16.13	14.11	12.85	11.55	10.27	9.149	8.319	9.405	11.66	10.42	6.537	4.679	3.948	3.567	3.548	3.511	3.641	3.404	2.766	2.485	2.525	3.061	5.451	22.07	66.69	98.11	49.76	5.151	0.765	0.572	0.580	0.509	0.473	0.380	0.423	0.430	0.409	0.371	0.427	0.363
535.0	54.77	64.59	82.91	93.81	161.6	202.6	128.1	130.7	268.5	842.5	241.6	85.31	73.19	62.46	53.55	45.38	42.99	38.98	36.33	35.26	31.86	30.65	29.96	30.03	29.38	28.56	28.88	28.69	28.90	28.19	27.63	25.72	23.31	20.69	18.77	16.70	15.30	13.53	12.40	10.94	10.04	8.877	7.898	7.271	6.806	7.888	10.33	8.218	5.041	3.519	3.038	2.942	3.017	2.962	3.311	2.754	2.235	2.282	2.197	2.412	5.949	15.91	34.81	98.00	32.43	4.697	0.592	0.590	0.435	0.366	0.429	0.392	0.370	0.421	0.315	0.326	0.469
540.0	49.79	63.61	72.57	78.44	107.3	206.8	129.9	108.0	139.4	572.2	622.3	92.21	63.65	56.63	47.82	40.70	37.57	33.50	31.90	30.12	28.14	26.68	26.42	26.59	26.09	24.27	25.74	25.33	25.30	25.27	23.71	22.40	19.98	17.91	16.34	14.77	13.84	12.27	10.73	9.811	9.275	8.011	7.331	6.286	6.054	6.111	7.705	8.594	6.082	3.812	2.923	2.827	2.860	2.631	2.965	2.950	2.347	2.098	1.683	1.646	2.218	4.613	8.795	41.72	96.98	29.75	2.302	0.479	0.438	0.382	0.397	0.345	0.345	0.317	0.296	0.346	0.407
545.0	46.96	55.44	65.05	66.46	81.85	166.4	148.6	97.03	99.98	266.3	833.7	160.4	57.18	50.24	42.10	35.85	32.40	29.70	28.08	26.31	24.36	24.34	23.01	23.10	22.84	22.08	21.92	22.01	21.81	21.19	21.00	19.67	16.62	15.66	14.62	13.22	12.02	10.80	9.748	8.606	7.479	7.122	6.658	5.494	5.506	4.786	5.420	7.319	7.117	4.358	2.836	2.671	2.487	2.601	2.489	2.865	2.435	1.877	1.625	1.520	1.397	1.821	2.728	10.67	49.87	94.42	24.02	1.242	0.409	0.454	0.368	0.329	0.270	0.352	0.290	0.327	0.286
550.0	39.60	45.91	53.42	55.94	65.51	113.8	169.8	94.44	77.13	117.9	523.1	504.8	66.63	42.46	34.94	30.00	27.45	25.13	22.97	21.15	20.35	19.93	19.51	18.45	18.74	18.15	18.07	17.75	17.68	17.92	16.68	15.93	14.78	13.11	11.91	11.03	9.882	8.665	8.166	7.446	6.780	6.056	5.516	5.040	4.708	4.020	3.910	5.057	6.330	5.337	3.282	2.288	2.346	2.153	2.129	2.122	2.295	2.092	1.590	1.271	1.130	1.113	1.315	3.047	12.46	41.26	64.57	40.00	4.872	0.496	0.394	0.308	0.265	0.316	0.252	0.250	0.220
555.0	50.93	40.29	44.51	43.96	54.08	72.04	142.2	115.0	63.36	69.88	181.0	655.2	161.0	34.88	28.44	25.13	21.45	20.43	17.78	16.62	16.75	15.34	15.37	14.65	15.08	14.55	14.00	13.88	14.29	13.59	13.45	12.68	11.49	10.84	9.688	8.646	7.935	6.946	6.744	6.149	5.736	4.934	4.673	4.093	3.864	3.519	3.254	3.222	4.230	4.974	4.180	2.508	2.002	1.709	1.850	1.616	1.775	2.211	1.860	1.127	1.013	0.949	0.990	1.309	3.308	9.761	20.44	62.27	32.76	4.601	0.303	0.293	0.263	0.250	0.202	0.194	0.232
560.0	39.49	38.29	38.67	42.85	43.82	51.84	101.1	136.1	60.40	56.28	78.84	422.6	436.0	37.47	23.29	20.72	17.85	16.98	15.19	14.30	13.92	12.49	13.23	12.95	12.49	12.57	11.93	12.30	12.49	12.07	11.42	10.65	10.01	8.873	7.959	7.392	6.599	6.054	5.681	5.269	4.896	4.177	3.918	3.592	3.256	3.168	2.904	2.695	2.618	4.023	4.052	2.833	1.850	1.505	1.383	1.354	1.503	1.607	1.907	1.358	1.016	0.833	0.787	0.891	1.202	2.635	5.132	23.33	59.07	28.64	2.161	0.317	0.269	0.227	0.133	0.207	0.247
565.0	33.62	39.01	36.44	37.44	38.98	44.01	65.37	137.9	70.50	48.11	50.71	177.8	600.3	89.18	20.53	17.80	15.13	14.17	13.03	12.57	11.71	11.24	11.01	10.70	10.66	10.62	10.12	9.628	9.943	9.727	9.446	8.849	7.920	7.853	6.896	6.216	5.750	5.269	4.954	4.315	3.947	3.436	3.389	3.055	2.685	2.983	2.419	2.210	2.142	2.714	3.446	3.114	1.966	1.419	1.289	1.189	1.200	1.236	1.326	1.701	1.056	0.704	0.699	0.677	0.790	0.975	1.547	5.768	25.85	56.90	21.20	1.040	0.295	0.238	0.193	0.183	0.231
570.0	34.61	38.01	34.51	32.34	32.00	36.93	42.98	98.14	98.34	43.88	41.40	69.02	371.8	343.9	29.54	15.25	12.56	11.49	10.99	10.14	9.233	8.693	8.746	8.580	8.427	8.431	8.097	7.816	8.064	7.861	7.294	7.108	6.481	5.906	5.557	4.819	4.681	4.338	3.914	3.603	3.513	2.903	2.687	2.582	2.337	2.211	1.956	1.766	1.670	1.715	2.281	2.810	2.332	1.462	1.081	1.079	1.076	1.006	1.005	1.250	1.382	0.932	0.699	0.600	0.626	0.667	0.707	1.751	6.319	21.65	38.04	22.94	3.718	0.250	0.186	0.179	0.237
575.0	36.07	32.08	34.90	25.73	27.50	28.45	32.14	54.17	116.5	51.35	35.83	38.81	117.5	451.6	105.4	12.60	10.80	9.414	8.992	7.507	7.510	6.808	7.143	6.777	6.374	6.806	6.482	5.687	6.667	6.221	6.009	5.334	5.211	4.607	4.602	3.976	3.720	3.511	3.229	2.944	2.885	2.317	2.278	2.084	1.778	1.817	1.464	1.481	1.360	1.287	1.365	1.872	2.254	1.773	1.162	0.897	0.933	0.826	0.789	0.830	1.053	1.259	0.753	0.608	0.559	0.545	0.555	0.752	1.863	5.225	10.70	31.99	29.49	3.806	0.218	0.181	0.229
580.0	32.85	34.40	30.36	25.42	24.64	26.17	27.41	36.11	100.8	75.22	32.94	31.52	45.06	288.9	294.0	14.70	8.586	7.653	7.449	6.672	6.045	5.733	5.863	5.938	5.399	5.164	5.299	5.113	5.563	5.208	5.427	4.638	4.480	3.954	3.723	3.174	3.048	2.859	2.757	2.555	2.214	2.008	2.021	1.784	1.560	1.364	1.432	1.167	1.176	1.021	1.040	1.268	1.857	1.970	1.327	0.959	0.853	0.710	0.714	0.733	0.701	1.018	1.125	0.661	0.500	0.570	0.520	0.592	0.807	1.539	2.816	10.75	34.97	22.63	1.929	0.200	0.193
585.0	31.64	35.63	30.55	20.13	21.69	23.68	22.49	26.81	66.30	97.55	34.27	29.67	27.84	113.2	398.3	44.70	7.793	6.661	6.081	5.768	5.455	5.070	5.133	5.129	4.551	4.393	4.216	4.351	4.601	4.482	4.094	4.053	3.854	3.220	3.255	3.056	2.668	2.556	2.335	2.052	1.889	1.880	1.633	1.494	1.301	1.177	1.144	1.164	1.065	0.949	0.915	0.944	1.202	1.804	1.564	1.039	0.842	0.666	0.572	0.636	0.633	0.688	1.206	0.802	0.556	0.507	0.460	0.480	0.555	0.752	0.922	2.851	14.05	35.12	15.40	0.746	0.148
590.0	27.04	33.10	30.59	19.43	19.40	18.89	19.72	21.88	38.70	95.88	52.93	26.43	23.65	38.49	241.9	181.6	11.50	5.413	5.105	4.541	4.391	3.884	4.125	4.179	3.719	3.545	3.667	3.523	3.547	3.454	3.467	3.186	3.083	2.591	2.532	2.441	2.182	2.076	1.793	1.713	1.561	1.522	1.482	1.147	1.169	1.100	0.952	0.999	0.898	0.779	0.699	0.737	0.854	1.271	1.577	1.167	0.784	0.626	0.533	0.506	0.565	0.578	0.742	0.873	0.839	0.494	0.412	0.427	0.480	0.479	0.486	0.900	3.445	12.86	24.20	16.30	4.719
595.0	25.25	26.19	29.41	21.61	15.38	17.48	17.68	19.14	26.07	63.11	82.41	27.87	20.71	18.81	72.40	272.7	57.71	4.593	4.336	3.984	3.548	2.986	3.216	3.223	3.535	2.756	2.987	2.815	2.896	2.676	2.787	2.472	2.542	2.058	2.135	1.843	1.728	1.531	1.555	1.557	1.115	1.177	1.076	1.054	0.806	0.874	0.773	0.781	0.765	0.688	0.631	0.549	0.564	0.670	1.111	1.278	1.002	0.621	0.447	0.461	0.427	0.383	0.529	0.551	0.830	0.687	0.422	0.389	0.326	0.449	0.375	0.403	0.983	3.012	6.656	19.54	32.07
600.0	23.88	27.76	24.87	21.42	16.33	16.59	16.36	17.85	22.27	39.88	87.20	35.68	20.22	14.82	24.82	185.1	158.8	5.826	3.442	3.282	2.787	2.565	2.819	2.761	2.493	2.421	2.452	2.224	2.460	2.152	2.222	2.065	2.191	1.646	1.704	1.455	1.533	1.247	1.242	1.326	0.982	0.819	1.117	0.808	0.778	0.775	0.662	0.750	0.645	0.520	0.452	0.524	0.548	0.538	0.718	1.110	1.094	0.671	0.471	0.436	0.418	0.388	0.460	0.390	0.600	0.911	0.532	0.353	0.338	0.279	0.279	0.302	0.461	0.835	1.597	6.312	32.00
605.0	24.21	26.99	27.37	19.10	14.21	16.06	15.84	19.53	23.28	30.76	77.73	54.94	21.46	14.78	14.43	73.93	233.5	21.94	3.258	2.710	2.295	2.288	2.315	2.068	2.073	2.190	1.949	1.951	2.060	2.113	2.033	1.983	1.661	1.555	1.333	1.269	1.365	1.193	0.983	1.013	0.921	0.834	0.822	0.669	0.646	0.574	0.664	0.600	0.578	0.433	0.468	0.407	0.477	0.455	0.502	0.716	1.108	0.763	0.465	0.348	0.382	0.313	0.368	0.379	0.401	0.590	0.740	0.443	0.358	0.292	0.323	0.213	0.264	0.353	0.478	1.586	11.57
610.0	24.53	22.88	24.71	17.59	14.84	16.03	17.36	20.48	23.22	29.49	53.44	74.89	29.91	17.91	13.57	26.19	158.0	111.0	5.457	2.198	2.029	1.844	1.901	1.813	1.683	1.600	1.551	1.573	1.663	1.609	1.591	1.429	1.304	1.167	1.216	1.033	1.106	1.000	0.901	0.799	0.766	0.730	0.660	0.617	0.570	0.498	0.491	0.496	0.463	0.396	0.390	0.374	0.391	0.379	0.397	0.424	0.785	0.768	0.534	0.394	0.376	0.295	0.354	0.340	0.327	0.355	0.655	0.561	0.386	0.290	0.309	0.251	0.247	0.236	0.252	0.517	2.729
615.0	22.69	29.13	22.47	17.69	15.98	16.04	15.91	19.23	21.81	28.30	37.25	69.40	44.46	19.24	14.10	13.72	51.46	177.6	34.20	2.048	1.751	1.522	1.659	1.248	1.380	1.366	1.252	1.145	1.301	1.274	1.138	1.020	1.177	0.980	0.925	0.735	0.916	0.800	0.813	0.659	0.601	0.532	0.554	0.559	0.426	0.420	0.444	0.410	0.323	0.343	0.301	0.349	0.332	0.302	0.347	0.312	0.451	0.568	0.703	0.427	0.378	0.226	0.301	0.263	0.271	0.321	0.415	0.492	0.585	0.300	0.276	0.272	0.246	0.198	0.185	0.241	0.782
620.0	19.68	23.84	23.03	16.47	14.66	13.76	17.70	16.73	22.51	25.68	30.87	53.25	54.64	20.27	14.20	10.57	19.60	131.6	81.47	2.818	1.479	1.448	1.276	1.319	1.087	1.193	1.051	0.986	1.236	1.074	1.020	0.914	0.849	0.867	0.802	0.686	0.750	0.583	0.705	0.631	0.508	0.447	0.432	0.444	0.383	0.392	0.391	0.290	0.263	0.305	0.287	0.281	0.290	0.247	0.268	0.302	0.294	0.388	0.659	0.532	0.363	0.213	0.256	0.276	0.285	0.277	0.294	0.353	0.555	0.420	0.232	0.217	0.177	0.219	0.165	0.150	0.290
625.0	17.44	23.45	21.18	14.78	13.97	14.57	15.64	17.01	20.86	25.01	27.03	39.64	62.57	23.24	14.07	10.12	11.18	57.45	161.8	10.28	1.321	1.278	0.945	1.014	0.795	1.097	0.782	0.849	1.000	0.925	0.879	0.868	0.816	0.716	0.733	0.579	0.647	0.559	0.589	0.524	0.499	0.403	0.364	0.371	0.345	0.393	0.344	0.305	0.250	0.278	0.289	0.305	0.243	0.249	0.282	0.227	0.241	0.332	0.463	0.505	0.376	0.237	0.291	0.250	0.247	0.299	0.226	0.247	0.417	0.583	0.239	0.260	0.203	0.187	0.167	0.136	0.199
630.0	17.47	19.17	21.07	15.72	12.80	13.88	15.41	18.36	20.37	22.88	25.50	30.21	53.20	35.41	14.56	10.56	9.030	18.24	121.9	70.26	2.249	0.939	0.825	0.800	0.777	0.822	0.693	0.738	0.780	0.753	0.741	0.690	0.619	0.594	0.518	0.458	0.458	0.446	0.369	0.439	0.436	0.370	0.291	0.314	0.272	0.306	0.260	0.270	0.249	0.207	0.241	0.257	0.188	0.241	0.214	0.214	0.203	0.253	0.291	0.406	0.457	0.371	0.246	0.199	0.233	0.227	0.227	0.236	0.293	0.415	0.422	0.321	0.218	0.169	0.165	0.146	0.154
635.0	15.43	17.54	18.28	15.30	11.09	13.11	15.19	16.89	19.59	21.85	24.15	27.10	35.99	46.13	16.78	10.54	8.457	8.281	38.63	124.8	16.85	0.732	0.716	0.770	0.611	0.587	0.676	0.567	0.634	0.527	0.661	0.549	0.475	0.495	0.456	0.489	0.402	0.378	0.298	0.314	0.331	0.315	0.309	0.275	0.241	0.231	0.192	0.216	0.199	0.165	0.165	0.206	0.173	0.165	0.174	0.231	0.129	0.181	0.212	0.350	0.359	0.376	0.259	0.210	0.216	0.204	0.172	0.212	0.261	0.251	0.344	0.368	0.242	0.193	0.129	0.154	0.104
640.0	17.20	21.19	19.80	16.15	12.01	12.45	13.75	17.44	18.19	21.32	22.68	26.28	28.72	44.75	23.17	10.76	8.752	5.938	11.70	99.59	56.33	0.995	0.662	0.665	0.557	0.603	0.570	0.512	0.526	0.394	0.451	0.418	0.406	0.360	0.232	0.361	0.340	0.307	0.193	0.290	0.244	0.300	0.239	0.285	0.217	0.275	0.221	0.203	0.207	0.160	0.133	0.146	0.170	0.121	0.154	0.189	0.144	0.152	0.178	0.237	0.304	0.339	0.260	0.198	0.131	0.151	0.190	0.166	0.243	0.159	0.266	0.460	0.372	0.225	0.160	0.177	0.106
645.0	13.45	24.44	24.27	14.42	12.40	12.61	12.83	14.99	16.96	20.28	21.52	23.24	23.82	36.48	30.27	11.57	8.379	5.978	4.870	47.05	98.02	5.002	0.662	0.545	0.481	0.559	0.485	0.427	0.431	0.407	0.378	0.364	0.336	0.335	0.287	0.321	0.246	0.280	0.226	0.249	0.204	0.282	0.264	0.167	0.176	0.172	0.210	0.188	0.161	0.159	0.158	0.127	0.157	0.165	0.127	0.197	0.130	0.135	0.195	0.161	0.275	0.268	0.277	0.196	0.176	0.214	0.164	0.200	0.228	0.144	0.205	0.320	0.334	0.242	0.200	0.136	0.117
650.0	16.42	20.61	21.68	14.87	14.19	11.74	12.96	15.38	15.75	18.35	19.93	21.62	21.91	27.24	33.31	12.36	8.757	5.752	3.693	14.93	103.4	25.60	0.674	0.605	0.449	0.431	0.348	0.469	0.441	0.419	0.348	0.362	0.300	0.300	0.256	0.235	0.202	0.245	0.194	0.226	0.197	0.119	0.335	0.178	0.178	0.158	0.159	0.224	0.194	0.135	0.121	0.144	0.133	0.129	0.179	0.153	0.125	0.116	0.135	0.126	0.172	0.280	0.287	0.211	0.189	0.206	0.202	0.267	0.206	0.213	0.217	0.211	0.260	0.341	0.237	0.135	0.131
