Sample:	'1
File name:	t2025042307ãÆÆßÃí´åÎ÷ÇÅ.FD3
Run date:	'11:01:50, 04/24/2025
Operator:	Administrator
Comment:	'

Instrument
Model:	F-2700 FL Spectrophotometer
Serial number:	23B8-004
ROM Version:	4J14000 07

Instrument parameters
Measurement type:	3-D scan
Data mode:	Fluorescence
EX  Start WL:	220.0 nm
EX  End WL:	600.0 nm
EX Sampling interval:	5.0 nm
EM  Start WL:	230.0 nm
EM  End WL:	650.0 nm
EM Sampling interval:	5.0 nm
Scan speed:	12000 nm/min
EX Slit:	5.0 nm
EM Slit:	5.0 nm
PMT Voltage:	700 V
Response:	Auto 
Corrected spectra:	Off
Contour interval:	50.000

Peak integration
Integration method:	Rectangular
Sensitivity:	1
Threshold:	1.000

Peaks
No.	ApexEX/EM(nm)	Height(Data)
1	225.0/600.0	41.88
2	230.0/340.0	998.1
3	230.0/500.0	271.5
4	230.0/575.0	53.93
5	230.0/605.0	45.38
6	235.0/510.0	261.2
7	240.0/265.0	341.8
8	240.0/395.0	814.8
9	240.0/520.0	231.3
10	245.0/270.0	349.3
11	245.0/535.0	188.8
12	250.0/275.0	444.1
13	250.0/545.0	154.0
14	255.0/280.0	538.8
15	255.0/560.0	136.6
16	260.0/290.0	515.1
17	260.0/570.0	109.9
18	265.0/585.0	108.5
19	270.0/300.0	956.5
20	270.0/595.0	95.75
21	275.0/305.0	1095
22	275.0/610.0	83.46
23	280.0/310.0	981.4
24	280.0/340.0	834.0
25	280.0/625.0	69.52
26	285.0/315.0	909.0
27	285.0/635.0	53.36
28	290.0/325.0	857.0
29	290.0/415.0	1029
30	315.0/355.0	444.2
31	320.0/360.0	423.1
32	325.0/370.0	398.4
33	330.0/375.0	381.8
34	335.0/380.0	380.7
35	385.0/445.0	325.7
36	430.0/505.0	30.72
37	445.0/525.0	18.10
38	460.0/345.0	3.216
39	460.0/545.0	9.673
40	465.0/340.0	3.047
41	505.0/275.0	3.278
42	510.0/280.0	3.449
43	520.0/285.0	3.601
44	530.0/290.0	3.671
45	540.0/295.0	5.017
46	545.0/300.0	5.608
47	555.0/305.0	5.894
48	560.0/310.0	5.469
49	575.0/315.0	5.132
50	580.0/320.0	5.409
51	585.0/325.0	5.281

Data points
	220.0	225.0	230.0	235.0	240.0	245.0	250.0	255.0	260.0	265.0	270.0	275.0	280.0	285.0	290.0	295.0	300.0	305.0	310.0	315.0	320.0	325.0	330.0	335.0	340.0	345.0	350.0	355.0	360.0	365.0	370.0	375.0	380.0	385.0	390.0	395.0	400.0	405.0	410.0	415.0	420.0	425.0	430.0	435.0	440.0	445.0	450.0	455.0	460.0	465.0	470.0	475.0	480.0	485.0	490.0	495.0	500.0	505.0	510.0	515.0	520.0	525.0	530.0	535.0	540.0	545.0	550.0	555.0	560.0	565.0	570.0	575.0	580.0	585.0	590.0	595.0	600.0
230.0	30.34	482.1	1391	554.9	23.22	5.798	4.585	3.913	3.703	3.071	2.895	2.887	2.490	2.001	2.589	1.432	1.184	1.162	1.020	0.997	0.901	0.842	0.730	0.711	0.663	0.604	0.596	0.541	0.518	0.553	0.454	0.442	0.462	0.430	0.482	0.375	0.399	0.351	0.352	0.368	0.320	0.370	0.396	0.334	0.305	0.269	0.800	3.052	5.425	3.843	1.391	0.403	0.212	0.239	0.228	0.223	0.231	0.256	0.229	0.230	0.243	0.211	0.224	0.243	0.239	0.249	0.258	0.266	0.219	0.247	0.242	0.242	0.220	0.240	0.239	0.254	0.241
235.0	68.58	149.2	962.4	2122	484.8	40.42	6.084	4.900	4.087	3.016	2.754	3.049	2.511	2.177	2.807	1.802	1.339	1.123	0.979	0.974	0.934	0.826	0.785	0.625	0.695	0.528	0.569	0.586	0.503	0.618	0.499	0.526	0.437	0.447	0.474	0.362	0.349	0.354	0.316	0.351	0.282	0.353	0.420	0.453	0.476	0.345	0.397	0.985	2.283	4.543	7.113	6.858	3.118	0.673	0.274	0.233	0.259	0.267	0.274	0.205	0.235	0.231	0.309	0.244	0.266	0.229	0.269	0.291	0.217	0.252	0.231	0.266	0.260	0.257	0.245	0.241	0.262
240.0	93.33	95.07	306.5	1816	2280	388.0	19.66	6.446	3.934	3.993	3.153	3.370	2.624	2.397	3.154	1.658	1.347	1.352	1.047	0.805	0.918	0.840	0.809	0.695	0.678	0.689	0.596	0.545	0.558	0.572	0.597	0.503	0.430	0.567	0.438	0.412	0.352	0.352	0.348	0.348	0.337	0.327	0.325	0.400	0.536	0.490	0.383	0.470	0.698	1.529	4.051	9.643	12.38	7.667	2.436	0.437	0.269	0.316	0.280	0.230	0.207	0.286	0.255	0.232	0.267	0.257	0.272	0.268	0.228	0.244	0.267	0.234	0.231	0.267	0.232	0.255	0.303
245.0	81.40	139.3	120.6	632.1	2537	2445	282.2	10.72	4.221	4.654	4.079	3.255	2.967	2.371	3.362	1.552	1.478	1.350	1.088	1.028	0.917	0.859	1.021	0.773	0.706	0.783	0.575	0.594	0.616	0.518	0.601	0.515	0.433	0.414	0.516	0.420	0.348	0.364	0.321	0.380	0.343	0.392	0.305	0.355	0.419	0.455	0.640	0.611	0.460	0.557	1.129	3.468	9.866	15.48	13.61	6.528	1.606	0.366	0.247	0.258	0.267	0.276	0.275	0.214	0.278	0.273	0.255	0.250	0.230	0.201	0.255	0.254	0.324	0.247	0.234	0.277	0.313
250.0	40.65	109.7	190.5	223.0	812.3	2435	3155	1039	59.27	6.105	4.704	4.059	3.443	2.827	3.522	1.779	1.640	1.295	1.227	1.011	1.061	0.989	0.937	0.753	0.743	0.743	0.630	0.642	0.635	0.640	0.588	0.461	0.451	0.452	0.533	0.374	0.361	0.339	0.377	0.421	0.371	0.364	0.369	0.316	0.358	0.317	0.479	0.751	0.820	0.757	0.576	1.024	2.571	5.379	9.579	14.60	17.59	14.31	7.259	1.819	0.345	0.265	0.252	0.281	0.292	0.283	0.254	0.225	0.265	0.243	0.277	0.308	0.269	0.265	0.248	0.291	0.263
255.0	24.34	40.98	139.4	294.5	268.0	620.1	2454	4850	1443	60.78	7.968	5.383	3.946	3.303	4.380	2.056	1.667	1.513	1.356	1.216	1.145	0.935	0.949	1.039	0.726	0.824	0.699	0.677	0.588	0.583	0.545	0.593	0.519	0.440	0.546	0.390	0.394	0.424	0.362	0.376	0.386	0.382	0.329	0.367	0.327	0.323	0.340	0.417	0.497	0.815	1.188	1.202	1.043	1.556	2.390	3.670	7.417	17.37	28.66	24.30	10.39	1.697	0.334	0.297	0.273	0.316	0.259	0.253	0.265	0.263	0.282	0.282	0.306	0.268	0.312	0.276	0.282
260.0	23.92	23.39	54.98	246.9	294.5	191.7	748.2	3963	5516	248.7	27.64	6.946	5.048	4.208	5.094	2.401	1.860	1.769	1.389	1.237	1.083	1.046	0.874	0.828	0.817	0.705	0.800	0.682	0.590	0.552	0.534	0.539	0.520	0.528	0.506	0.428	0.382	0.398	0.390	0.331	0.411	0.406	0.350	0.368	0.364	0.352	0.338	0.320	0.310	0.445	0.832	1.659	1.621	1.028	0.857	1.074	2.005	4.990	14.08	28.97	31.67	22.35	7.550	0.879	0.318	0.356	0.303	0.322	0.285	0.280	0.260	0.297	0.267	0.255	0.261	0.277	0.299
265.0	27.77	21.52	25.12	116.9	341.8	228.0	204.0	1318	5707	5322	201.5	14.16	7.035	4.788	5.865	2.655	2.289	1.668	1.364	1.333	1.309	1.007	0.990	0.888	1.002	0.866	0.792	0.630	0.622	0.552	0.543	0.551	0.518	0.571	0.612	0.437	0.424	0.476	0.377	0.372	0.364	0.438	0.350	0.375	0.329	0.352	0.331	0.335	0.328	0.300	0.454	0.834	1.793	1.886	1.411	0.668	0.788	1.385	3.624	9.171	21.73	39.37	31.20	18.68	3.755	0.505	0.402	0.329	0.307	0.282	0.291	0.360	0.307	0.256	0.280	0.338	0.288
270.0	44.65	33.61	33.21	47.95	158.4	349.3	267.2	343.7	1759	5151	6519	783.0	46.46	7.230	9.130	3.616	2.677	2.083	1.822	1.599	1.423	1.179	1.108	0.972	0.923	0.793	0.764	0.694	0.705	0.619	0.565	0.571	0.530	0.562	0.642	0.449	0.470	0.425	0.434	0.428	0.392	0.423	0.358	0.431	0.383	0.417	0.360	0.380	0.358	0.311	0.365	0.468	0.735	1.196	1.885	2.017	1.792	1.031	1.193	2.411	5.442	12.10	20.41	33.98	34.13	33.75	13.67	4.362	0.553	0.301	0.373	0.341	0.309	0.297	0.285	0.346	0.329
275.0	77.61	75.18	85.85	60.83	62.78	162.0	444.1	320.4	442.4	1274	4366	9446	1119	44.42	13.78	5.244	3.601	2.716	2.187	1.767	1.507	1.356	1.144	1.193	1.087	0.886	0.825	0.823	0.727	0.696	0.727	0.692	0.541	0.638	0.719	0.526	0.444	0.486	0.491	0.485	0.432	0.506	0.413	0.457	0.457	0.421	0.415	0.519	0.534	0.408	0.374	0.379	0.453	0.574	0.731	1.156	2.375	3.278	2.266	1.205	1.602	3.071	4.961	8.279	11.58	27.61	53.27	32.36	21.34	4.401	0.525	0.422	0.356	0.336	0.345	0.351	0.329
280.0	118.1	148.1	146.1	91.88	53.98	73.84	272.5	538.8	263.0	351.5	1229	6850	8946	792.6	40.52	6.566	4.537	3.228	2.449	2.248	1.623	1.379	1.256	1.225	1.019	1.070	0.863	0.824	0.780	0.743	0.702	0.794	0.588	0.661	0.760	0.694	0.594	0.476	0.532	0.530	0.528	0.557	0.487	0.503	0.451	0.593	0.668	0.768	0.658	0.520	0.468	0.380	0.426	0.527	0.446	0.634	1.093	2.346	3.449	2.951	1.547	1.198	1.585	2.394	3.185	7.376	19.66	38.75	62.60	31.41	16.50	1.983	0.384	0.377	0.327	0.334	0.316
285.0	157.7	224.0	211.8	135.5	69.80	58.78	127.6	458.6	515.0	208.5	378.1	2050	8530	7188	671.0	11.29	5.578	3.670	3.181	2.566	1.839	1.610	1.396	1.249	1.153	1.035	0.974	1.001	0.802	0.725	0.743	0.850	0.664	0.662	0.763	0.800	0.613	0.612	0.674	0.563	0.536	0.532	0.554	0.585	0.631	0.800	0.778	0.883	0.829	0.670	0.575	0.555	0.463	0.487	0.471	0.440	0.672	1.010	2.105	3.524	3.601	2.047	1.179	1.244	1.436	2.269	5.174	10.94	27.37	49.43	64.39	27.50	10.62	0.937	0.400	0.384	0.413
290.0	223.0	304.1	293.9	202.3	107.9	81.17	100.8	221.0	515.1	498.0	327.8	634.8	2487	6394	9999.9	1631	28.38	5.651	3.819	3.140	2.378	1.912	1.561	1.522	1.214	0.998	0.946	0.935	0.905	0.832	0.791	0.794	0.763	0.739	0.911	0.768	0.773	0.717	0.666	0.586	0.593	0.554	0.641	0.659	0.750	0.904	0.943	1.085	1.078	0.894	0.740	0.730	0.605	0.609	0.553	0.560	0.668	0.786	1.017	1.644	2.576	3.345	3.671	2.808	1.804	1.681	2.255	3.547	7.137	13.55	25.71	36.40	48.27	41.74	19.02	8.925	1.370
295.0	259.8	365.7	371.9	261.1	147.9	114.1	129.8	174.6	291.9	624.4	774.4	451.9	786.4	1620	8495	8601	657.6	26.95	5.526	3.678	2.857	2.298	1.904	1.714	1.177	1.238	1.143	1.005	1.056	0.925	0.799	0.795	0.783	0.750	1.007	0.892	0.853	0.823	0.729	0.650	0.652	0.648	0.655	0.736	0.811	0.950	1.028	1.304	1.297	1.078	0.952	0.982	0.736	0.767	0.788	0.720	0.804	0.912	0.980	1.235	1.432	1.862	2.809	4.121	5.017	3.341	2.291	2.315	2.958	4.286	6.858	9.117	12.82	20.75	44.96	64.37	30.74
300.0	264.0	405.2	430.3	304.9	186.9	154.6	169.1	205.9	274.7	467.3	956.5	712.3	484.1	564.9	2287	5793	5705	495.1	12.03	5.217	3.800	2.723	2.155	1.874	1.552	1.505	1.045	1.008	0.896	1.000	0.842	0.773	0.895	0.801	1.053	0.799	0.851	0.864	0.710	0.693	0.550	0.783	0.703	0.761	0.891	1.035	1.273	1.465	1.457	1.269	1.165	1.067	0.995	0.846	0.817	0.789	0.931	1.092	1.112	1.264	1.407	1.656	1.988	2.745	4.575	5.608	4.788	3.000	2.470	2.658	3.155	3.291	3.875	5.566	13.48	32.90	55.82
305.0	287.5	427.0	462.3	345.8	216.8	189.5	214.8	257.2	321.9	441.9	757.1	1095	598.8	399.8	694.3	1675	6443	4748	72.28	7.489	4.579	3.325	2.573	2.116	1.764	1.395	1.425	1.081	1.189	1.125	0.861	0.945	0.909	1.004	1.086	0.909	0.873	0.812	0.726	0.765	0.608	0.790	0.760	0.781	0.961	1.192	1.108	1.522	1.492	1.288	1.124	1.352	1.078	1.025	1.127	0.924	1.070	1.257	1.475	1.580	1.695	1.870	2.138	2.465	3.115	4.466	5.795	5.894	4.063	2.849	2.451	2.246	2.203	2.430	3.897	8.475	18.48
310.0	290.6	427.5	469.1	366.3	248.7	226.9	264.4	316.4	374.0	477.9	629.6	911.5	981.4	551.4	399.4	498.3	1846	4685	4997	1279	20.73	4.776	3.186	2.620	2.029	1.632	1.439	1.130	1.231	1.035	0.971	1.012	1.011	0.925	1.065	0.910	0.973	0.840	0.796	0.805	0.685	0.716	0.857	0.844	1.029	1.182	1.156	1.609	1.572	1.417	1.184	1.315	1.231	1.038	1.245	1.142	1.281	1.441	1.570	1.828	1.827	2.078	2.415	2.640	2.908	3.360	4.072	4.873	5.469	5.306	3.993	2.901	2.289	2.022	1.998	2.862	4.942
315.0	304.1	435.3	473.8	381.6	282.2	254.8	296.8	348.6	419.1	523.0	631.2	740.5	866.7	909.0	471.4	287.6	524.5	1146	3032	6448	489.3	21.41	4.707	3.403	2.631	2.023	1.509	1.434	1.353	1.142	1.132	1.020	1.014	0.901	1.022	0.920	1.058	0.832	0.710	0.826	0.703	0.725	0.776	0.764	0.921	1.157	1.216	1.548	1.680	1.482	1.227	1.267	1.326	1.256	1.386	1.334	1.402	1.617	1.763	1.962	2.062	2.192	2.631	2.830	3.095	3.091	3.361	3.548	4.020	4.714	5.000	5.132	3.912	2.613	1.887	1.908	2.063
320.0	320.1	488.5	520.8	419.7	319.0	292.1	327.4	383.5	457.8	560.1	664.6	731.6	757.1	891.1	739.0	313.9	276.2	361.2	819.2	4185	4150	394.6	10.41	4.254	3.146	2.301	1.805	1.505	1.447	1.333	1.167	0.965	1.088	1.025	0.936	0.945	0.876	0.754	0.806	0.779	0.778	0.711	0.763	0.776	1.039	1.277	1.390	1.592	1.783	1.795	1.364	1.384	1.413	1.504	1.469	1.396	1.635	1.775	1.885	2.064	2.249	2.455	2.825	3.115	3.225	3.105	3.595	3.552	3.963	3.970	4.120	5.018	5.409	4.472	2.519	1.975	1.861
325.0	362.9	565.2	666.1	532.4	365.5	327.3	351.3	414.8	489.4	585.1	695.2	754.0	757.8	753.2	857.0	494.6	264.0	218.9	268.4	1182	4496	3719	57.52	6.789	3.872	3.024	1.979	1.769	1.445	1.324	1.106	0.990	0.996	1.061	1.048	1.018	0.966	0.845	0.877	0.793	0.679	0.816	0.795	0.873	1.041	1.316	1.628	1.916	2.093	2.056	1.786	1.592	1.547	1.529	1.527	1.604	1.738	2.027	2.041	2.136	2.356	2.483	2.869	3.118	3.222	3.412	3.767	3.776	3.918	3.876	3.831	3.950	4.501	5.281	4.658	3.116	2.291
330.0	385.4	651.4	832.2	708.4	471.8	377.0	386.3	429.2	512.1	620.5	723.0	786.2	783.8	725.5	715.0	667.3	433.1	233.9	179.9	347.3	1277	3446	3943	1139	18.44	3.918	2.623	2.283	1.751	1.553	1.295	1.174	1.159	1.139	1.071	0.941	0.851	0.920	0.780	0.785	0.793	0.837	0.731	1.008	1.144	1.528	1.782	2.292	2.494	2.474	2.191	2.175	2.029	1.785	1.618	1.731	1.947	2.064	2.161	2.156	2.476	2.753	2.868	3.249	3.333	3.672	3.717	3.780	3.948	3.958	3.890	3.754	3.741	4.125	4.273	4.454	3.954
335.0	397.8	723.1	936.5	831.4	569.8	449.2	432.7	455.3	537.4	634.8	739.9	815.3	819.7	757.9	675.3	586.2	629.6	385.7	203.7	194.3	359.7	832.3	2374	5226	413.3	20.68	3.993	2.901	2.246	1.812	1.516	1.242	1.175	1.318	1.070	0.997	0.971	0.836	0.852	0.816	0.731	0.885	0.926	0.930	1.168	1.614	1.984	2.647	2.990	2.838	2.575	2.631	2.402	2.111	2.015	1.787	2.116	2.303	2.324	2.316	2.612	2.731	2.839	3.517	3.366	3.903	3.764	3.872	4.133	4.223	4.081	4.052	3.616	3.959	3.685	3.564	3.775
340.0	427.2	749.9	998.1	905.3	626.7	497.4	463.7	479.4	554.3	641.0	748.0	828.7	834.0	770.1	682.5	552.8	570.5	545.2	274.7	181.9	173.3	244.0	628.0	3324	4604	357.7	10.83	3.567	2.674	2.094	1.629	1.375	1.104	1.338	1.175	0.870	0.950	0.856	0.800	0.809	0.785	0.768	0.962	0.940	1.087	1.697	1.938	2.669	2.992	3.047	2.732	2.915	2.978	2.349	1.998	1.944	2.244	2.146	2.307	2.443	2.636	2.848	3.098	3.389	3.437	3.982	3.770	4.195	4.128	4.262	4.227	4.163	3.940	3.887	3.747	3.434	3.559
345.0	431.7	728.9	993.0	938.3	686.5	539.9	481.6	507.5	554.8	655.4	751.8	807.8	817.7	768.8	690.4	552.3	494.3	543.5	416.0	213.6	150.1	132.4	193.2	919.8	3884	3168	52.16	5.637	3.391	2.283	1.755	1.524	1.388	1.405	1.230	0.902	1.063	0.877	0.803	0.891	0.735	0.776	0.961	0.958	1.041	1.529	1.797	2.700	3.216	2.951	2.865	3.029	2.915	2.435	2.323	2.062	2.339	2.424	2.250	2.557	2.705	2.803	3.144	3.418	3.546	3.807	3.843	4.147	4.119	4.143	4.255	4.016	3.945	3.961	3.837	3.580	3.323
350.0	407.6	687.2	947.1	930.4	734.6	587.1	522.6	527.6	574.0	646.8	728.1	785.1	796.5	755.5	687.3	572.4	486.8	459.8	466.9	354.1	195.8	138.0	122.0	261.7	1075	2745	3210	998.2	17.90	3.347	2.280	1.845	1.514	1.547	1.132	1.013	0.974	0.844	0.861	0.800	0.794	0.816	0.922	0.988	1.107	1.499	1.916	2.527	2.927	2.858	2.847	3.045	2.983	2.486	2.593	2.350	2.394	2.441	2.479	2.607	2.802	2.977	3.115	3.265	3.526	3.407	3.434	3.903	3.862	4.152	4.092	4.104	3.979	4.177	3.619	3.687	3.329
355.0	380.6	639.8	901.7	904.9	763.8	635.4	582.4	576.0	597.5	659.2	720.5	759.4	771.3	732.7	683.8	589.5	515.7	447.9	412.9	444.2	325.8	182.8	137.7	140.8	296.6	660.1	1818	4094	385.3	21.70	3.414	2.426	1.612	1.685	1.356	1.072	0.935	0.862	0.875	0.863	0.811	0.855	0.831	0.923	1.147	1.398	1.730	2.235	2.825	2.706	2.879	3.178	3.197	2.757	2.784	2.594	2.723	2.668	2.718	2.690	2.681	2.968	2.997	3.404	3.360	3.391	3.444	3.709	3.585	3.946	4.107	4.039	4.047	4.119	3.606	3.680	3.500
360.0	363.1	601.0	850.1	905.4	779.3	668.2	616.8	606.0	620.1	668.1	728.4	752.0	757.3	724.2	683.7	603.3	534.4	464.3	407.6	406.3	423.1	261.8	167.4	134.3	138.5	194.6	476.9	2551	3160	346.7	10.84	3.003	2.323	1.927	1.534	1.141	1.058	0.985	0.875	0.799	0.809	0.829	0.923	0.901	1.112	1.373	1.651	2.096	2.693	2.569	2.674	3.028	2.963	2.957	2.672	2.855	2.842	2.772	2.826	2.787	3.048	3.217	3.007	3.465	3.477	3.434	3.681	3.641	3.554	3.892	3.985	3.817	3.902	3.943	3.782	3.860	3.572
365.0	339.5	576.9	812.0	875.7	795.4	720.3	657.7	619.7	650.5	681.9	723.3	751.4	752.2	720.5	683.4	609.0	540.1	485.0	423.1	388.4	417.8	366.5	214.1	156.4	123.5	107.8	150.8	708.0	3044	2956	264.2	5.442	2.561	2.205	1.658	1.136	1.091	1.047	0.886	0.833	0.816	0.797	0.891	0.931	1.104	1.332	1.643	2.167	2.780	2.524	2.567	3.184	3.040	3.030	2.923	2.879	3.081	3.145	2.854	2.909	2.906	3.103	3.100	3.413	3.517	3.619	3.519	3.752	3.467	3.731	4.053	4.067	4.049	4.023	3.817	4.098	3.718
370.0	326.9	557.6	787.7	857.1	806.4	744.2	685.1	658.1	665.3	704.5	731.4	744.5	730.5	715.1	674.4	610.3	556.1	510.3	450.3	407.1	382.6	398.4	332.4	212.6	151.5	113.9	96.52	200.4	846.5	2416	2946	934.3	16.51	3.534	1.993	1.482	1.029	1.047	0.962	0.860	0.864	0.810	0.820	1.020	1.154	1.372	1.591	2.031	2.413	2.475	2.528	3.041	3.199	3.118	3.116	2.934	3.039	3.128	3.057	3.231	3.212	3.190	3.325	3.413	3.507	3.721	3.470	3.810	3.475	3.790	3.673	3.981	3.884	4.067	3.938	3.957	3.862
375.0	310.3	565.0	778.0	846.1	818.8	767.6	707.1	675.8	679.9	710.0	730.6	736.5	720.6	703.3	669.0	604.3	568.8	527.7	475.9	435.9	394.2	366.0	381.8	320.1	197.9	145.2	109.2	108.1	232.5	579.8	1611	3590	336.6	27.44	2.698	1.809	1.290	1.275	1.034	0.837	0.987	0.947	0.832	1.009	1.051	1.269	1.571	1.983	2.141	2.414	2.434	3.036	3.318	3.059	3.285	2.957	3.235	3.324	3.224	3.460	3.292	3.565	3.272	3.568	3.640	3.543	3.444	3.657	3.558	3.561	3.691	4.000	3.990	3.787	3.814	3.707	3.901
380.0	306.1	531.8	739.4	824.6	811.9	759.1	724.1	697.1	691.0	715.9	729.5	732.3	704.4	689.3	659.2	601.1	570.5	540.9	491.6	453.5	411.2	371.0	361.8	380.7	264.1	172.1	129.8	102.9	107.9	168.7	422.2	2215	2720	1439	10.89	2.276	1.629	1.469	1.123	0.946	0.895	0.902	0.844	0.934	1.021	1.338	1.551	1.839	2.174	2.164	2.490	3.013	3.105	3.301	3.319	3.250	3.143	3.262	3.191	3.407	3.436	3.413	3.075	3.468	3.576	3.485	3.452	3.560	3.426	3.656	3.617	3.817	3.807	3.904	3.570	3.761	4.054
385.0	307.3	521.8	719.1	821.3	805.8	777.7	734.6	702.1	688.6	716.3	718.5	713.1	698.3	679.7	650.4	602.1	571.3	536.6	499.8	464.2	424.0	386.7	354.4	367.9	337.5	218.0	153.3	117.5	95.48	89.27	130.7	607.7	2440	4403	224.3	4.485	2.192	1.616	1.227	0.992	0.931	0.975	0.950	0.898	0.960	1.191	1.515	1.825	2.118	2.170	2.311	3.018	3.057	3.322	3.323	3.064	3.244	3.208	3.268	3.477	3.271	3.376	3.048	3.538	3.581	3.351	3.255	3.417	3.702	4.001	3.524	3.645	3.789	3.864	3.751	3.893	3.796
390.0	313.4	508.1	682.5	791.1	805.8	780.7	745.0	709.3	699.9	704.1	708.3	700.0	682.1	661.0	646.3	590.4	562.6	535.1	505.0	472.4	439.1	403.2	367.4	346.6	348.0	302.6	206.8	148.8	116.1	91.53	80.15	170.2	671.8	2602	2322	716.0	13.93	2.354	1.401	1.215	1.072	0.934	0.971	0.969	1.057	1.216	1.503	1.838	2.081	2.222	2.254	3.030	3.085	3.239	3.178	3.062	3.253	3.386	3.572	3.495	3.330	3.507	3.281	3.500	3.336	3.527	3.331	3.301	3.463	3.562	3.417	3.662	3.753	3.871	3.733	3.678	3.689
395.0	311.3	494.8	669.5	782.5	814.8	763.4	743.6	721.0	697.9	691.2	701.3	687.1	662.4	644.1	667.2	577.4	548.4	526.2	505.9	474.5	449.8	416.5	383.7	353.7	328.3	330.5	289.3	194.7	146.3	113.8	89.29	87.69	181.2	620.9	1275	2623	278.6	16.12	2.229	1.434	1.410	0.975	1.034	0.950	1.096	1.209	1.537	1.695	2.076	2.171	2.181	2.852	3.093	3.022	3.176	3.307	3.321	3.344	3.486	3.282	3.220	3.266	3.535	3.211	3.391	3.481	3.326	3.182	3.257	3.395	3.428	3.635	3.678	3.543	3.760	3.704	3.590
400.0	291.6	490.9	649.5	768.2	785.0	782.4	744.1	718.5	706.1	688.7	701.4	675.8	655.8	630.8	716.8	560.2	536.9	518.7	498.3	477.1	447.5	422.9	395.6	364.3	334.1	316.1	324.5	249.1	174.2	136.6	104.6	81.94	80.76	193.6	334.6	1608	2210	244.5	8.592	1.882	1.439	1.247	1.017	1.007	1.187	1.436	1.374	1.845	2.106	2.108	2.194	3.091	2.901	3.104	3.306	3.229	3.480	3.401	3.360	3.346	3.390	3.508	3.292	3.399	3.331	3.277	3.278	3.306	3.460	3.401	3.572	3.362	3.536	3.656	3.477	3.644	3.665
405.0	295.0	472.7	630.5	753.3	775.9	777.3	747.7	727.1	700.0	679.9	690.6	667.2	646.0	621.5	810.3	551.8	523.7	509.4	488.7	469.4	446.0	425.6	403.1	372.9	343.4	313.9	316.1	301.9	212.1	158.8	124.1	93.99	69.86	131.1	101.6	436.6	1805	1963	187.5	3.935	1.720	1.405	1.114	1.084	1.145	1.332	1.446	1.797	2.069	2.044	2.261	2.808	3.003	3.153	3.333	3.095	3.338	3.375	3.306	3.252	3.370	3.328	3.375	3.474	3.080	3.119	3.204	3.209	3.371	3.391	3.357	3.166	3.268	3.299	3.469	3.683	3.386
410.0	278.5	441.5	616.1	731.6	766.5	763.2	742.8	715.2	692.6	678.4	667.3	650.3	629.3	602.2	958.6	531.0	503.9	491.8	475.0	454.2	438.4	418.8	403.7	380.0	353.4	323.5	301.0	301.1	274.9	199.6	146.6	111.0	81.19	174.2	57.77	120.1	489.6	1375	1694	560.1	12.73	1.787	1.311	1.249	1.181	1.367	1.453	1.810	2.058	2.020	2.226	2.796	2.962	3.131	3.322	3.166	3.422	3.287	3.305	3.368	3.309	3.287	3.316	3.289	3.133	3.190	3.267	3.134	3.276	3.403	3.223	3.149	3.550	3.274	3.277	3.231	3.348
415.0	272.4	422.5	603.8	702.3	745.3	734.2	736.2	702.2	693.0	668.8	656.9	633.6	613.0	579.0	1029	505.1	476.7	468.1	446.9	435.3	420.9	411.7	395.2	379.9	355.0	327.0	302.4	284.3	285.9	254.9	177.0	128.2	95.32	217.1	55.10	55.60	128.4	324.5	862.8	1913	253.6	15.40	1.812	1.423	1.283	1.307	1.337	1.857	2.018	2.090	2.171	2.620	2.890	2.815	3.340	2.972	3.227	3.274	3.196	3.279	3.195	3.340	3.172	3.237	3.091	3.175	3.342	3.115	3.021	2.996	3.248	3.291	3.150	3.406	3.129	3.145	3.214
420.0	255.7	423.0	574.3	685.0	716.3	717.1	722.2	694.6	679.3	652.7	638.5	619.5	587.8	561.9	1001	487.6	454.8	444.9	431.6	417.3	408.2	398.0	385.7	374.4	354.2	330.2	303.4	280.9	268.4	272.2	215.2	143.1	106.6	229.6	59.47	44.52	51.81	87.82	218.8	1119	1750	224.3	7.084	1.805	1.542	1.511	1.591	1.821	1.830	2.064	2.161	2.622	2.766	2.912	3.138	2.839	2.934	3.216	3.337	3.128	3.026	3.429	3.095	3.346	3.252	2.903	3.189	2.985	2.905	3.097	3.231	3.289	2.917	3.174	3.145	3.052	3.405
425.0	247.7	418.1	568.9	643.0	703.9	711.6	724.1	687.5	666.9	646.6	641.9	609.2	572.6	537.8	946.8	466.5	438.1	427.3	416.0	401.3	394.8	383.9	372.8	365.3	347.4	330.1	303.4	282.2	259.7	256.9	242.3	166.6	114.9	232.0	65.54	47.29	38.77	37.67	61.25	297.6	1305	1539	168.2	3.600	1.690	1.438	1.583	1.843	1.835	1.923	1.978	2.518	2.789	2.899	2.814	2.641	3.122	3.100	3.099	2.896	3.151	3.302	2.958	3.090	3.150	3.019	3.060	3.086	3.115	3.101	3.034	2.897	3.135	2.925	2.914	2.937	3.122
430.0	277.3	390.9	538.2	624.2	678.8	693.2	701.0	683.4	655.5	639.4	622.3	590.8	561.1	519.3	904.8	443.3	417.6	401.9	390.0	379.2	373.0	364.3	356.9	353.7	340.3	325.6	304.6	284.5	262.4	241.7	235.5	202.2	140.2	245.6	76.84	55.02	41.59	31.55	30.01	78.10	343.1	1016	1303	479.3	12.07	2.036	1.635	1.787	1.875	1.952	1.999	2.465	2.718	2.751	2.862	2.812	3.322	3.161	3.173	3.111	3.044	3.198	3.102	3.114	3.015	3.086	2.819	2.809	2.869	2.790	2.848	2.841	2.887	2.752	2.847	2.850	2.845
435.0	353.2	386.8	521.0	603.5	662.1	667.2	688.3	666.8	650.6	641.4	615.9	589.6	543.1	500.6	907.7	423.2	396.6	378.5	367.5	354.6	351.7	346.8	341.4	337.1	330.2	315.6	298.6	282.8	265.8	242.8	220.4	204.0	176.7	280.4	87.82	64.11	48.29	36.66	27.50	32.56	87.21	237.1	631.8	1580	238.9	14.95	2.009	1.830	2.017	1.797	2.045	2.397	2.712	2.651	2.747	2.654	2.939	2.995	3.160	2.986	3.169	3.186	3.055	3.124	3.031	2.898	2.888	2.695	2.998	2.689	2.928	2.753	2.743	2.776	2.714	2.983	2.796
440.0	444.6	393.1	505.8	597.3	643.3	651.5	672.5	660.8	646.6	625.7	609.7	572.1	532.3	481.5	893.4	407.1	378.9	367.2	346.8	340.2	336.6	332.7	329.2	324.8	320.2	308.5	295.3	278.8	266.0	242.6	214.8	190.8	182.1	310.3	97.27	70.82	53.95	39.60	29.72	24.59	32.14	62.04	158.7	906.4	1528	210.4	7.593	2.308	2.058	2.067	2.049	2.361	2.818	2.716	2.531	2.692	2.805	3.021	3.032	2.995	3.295	3.129	3.073	2.993	2.977	2.833	2.845	2.654	2.652	2.779	2.808	2.728	2.716	2.663	2.574	2.678	2.595
445.0	454.6	498.1	490.8	556.7	620.9	637.5	663.1	647.3	631.0	614.2	598.3	564.7	516.1	467.3	849.5	387.2	358.9	352.1	330.9	324.9	318.6	316.5	310.7	309.9	305.3	299.5	285.8	274.7	262.1	240.6	212.5	182.6	171.2	325.7	109.9	76.14	58.39	44.37	32.58	25.30	21.80	24.53	44.02	239.3	1124	1363	148.2	4.031	2.269	1.935	1.812	2.235	2.624	2.578	2.675	2.447	2.696	3.072	2.997	3.000	3.089	2.933	3.102	3.037	2.883	2.791	2.859	2.664	2.722	2.635	2.711	2.645	2.647	2.532	2.472	2.513	2.469
450.0	362.3	755.2	559.2	537.4	574.9	605.0	628.3	616.4	601.6	590.0	567.0	529.9	485.2	444.7	751.4	362.7	338.3	321.4	309.0	299.6	292.6	292.1	290.4	289.3	285.9	279.2	270.4	259.7	248.5	232.8	207.6	177.4	155.9	296.1	127.4	89.39	65.12	48.75	37.18	28.18	22.51	18.62	19.96	61.15	294.4	877.7	1176	410.6	10.60	2.129	1.882	2.303	2.517	2.491	2.516	2.520	2.666	2.804	2.805	2.894	2.828	3.068	3.070	2.807	2.821	2.939	2.711	2.823	2.574	2.444	2.429	2.535	2.436	2.307	2.359	2.202	2.369
455.0	230.3	804.9	950.4	514.3	533.4	568.7	580.9	570.5	569.2	560.0	543.0	505.4	454.5	409.7	648.0	331.2	307.7	292.0	280.8	274.4	263.9	264.8	264.6	264.9	262.9	255.3	250.8	241.6	236.2	219.6	200.2	171.3	147.3	255.7	123.7	107.0	73.28	52.71	40.71	32.03	25.03	19.98	16.23	22.69	72.87	203.6	529.2	1270	201.1	12.08	2.174	2.331	2.309	2.288	2.405	2.389	2.750	2.471	2.597	2.859	2.928	2.975	2.770	2.500	2.768	2.699	2.474	2.440	2.772	2.281	2.201	2.384	2.126	2.314	2.250	2.205	2.175
460.0	188.7	604.0	1317	628.9	495.3	529.2	550.4	547.5	546.3	529.3	507.6	474.4	427.4	383.1	584.9	309.5	286.6	268.3	262.6	252.6	243.8	243.7	243.4	241.8	240.9	239.9	234.3	228.3	221.7	210.1	192.6	166.6	143.3	233.4	110.4	106.6	84.54	57.24	43.06	34.03	27.15	21.03	16.95	15.32	24.50	51.63	130.0	685.5	1168	163.3	7.451	2.401	2.269	2.217	2.350	2.475	2.565	2.636	2.739	2.770	2.814	2.571	2.818	2.546	2.459	2.441	2.443	2.216	2.343	2.257	2.336	2.197	1.987	2.309	1.952	2.128	2.064
465.0	174.4	385.7	1388	851.5	472.1	486.6	526.0	511.0	513.9	499.2	481.5	441.3	397.7	358.3	533.3	285.9	265.5	253.5	242.1	234.8	227.1	225.2	227.8	225.6	225.5	221.8	219.4	213.5	207.0	198.5	183.3	161.3	137.2	220.7	103.1	97.13	89.93	64.53	44.80	35.87	28.74	22.69	18.01	14.79	14.35	18.52	34.77	176.8	839.2	1011	126.3	4.224	2.441	2.407	2.360	2.292	2.540	2.590	2.592	2.490	2.708	2.443	2.529	2.555	2.387	2.275	2.201	2.113	2.314	2.220	2.163	2.056	1.937	1.984	2.031	2.047	2.075
470.0	159.0	265.3	892.1	1656	586.6	440.3	469.7	466.5	462.8	462.2	437.8	406.2	363.0	324.1	474.3	259.3	240.8	227.9	216.4	210.3	202.6	202.1	200.0	201.6	201.7	199.3	195.6	191.1	186.0	181.7	169.1	149.8	129.8	204.1	96.28	83.57	80.23	71.56	51.94	37.42	29.90	24.17	19.10	15.37	13.36	12.20	14.33	44.89	216.3	612.7	808.5	326.4	11.25	2.469	2.305	2.210	2.321	2.352	2.309	2.310	2.280	2.270	2.339	2.257	2.248	2.049	2.014	1.962	2.028	2.065	1.956	1.921	1.903	2.007	1.751	1.793	1.803
475.0	164.6	239.8	441.0	1548	1343	425.9	409.6	418.7	418.9	414.3	394.2	369.9	331.0	294.4	410.1	228.9	210.8	196.9	190.6	184.6	177.7	177.5	174.6	175.7	177.4	175.5	172.1	170.5	167.4	162.5	151.7	135.1	120.0	182.3	89.28	76.15	68.47	64.97	59.67	42.46	30.48	24.96	20.78	16.30	14.02	11.74	9.963	15.91	52.92	141.3	314.5	823.9	203.2	13.60	2.256	2.042	2.242	2.092	2.163	2.167	2.211	2.030	1.924	1.923	1.944	2.092	2.112	1.872	1.937	1.886	1.846	1.708	1.657	1.786	1.629	1.568	1.631
480.0	163.1	226.2	310.9	967.9	1924	534.6	370.1	386.4	390.8	380.6	373.4	341.1	306.9	270.5	365.8	210.1	193.7	181.0	174.7	169.6	161.3	161.5	158.6	160.4	161.5	159.5	156.6	155.5	153.0	150.6	139.9	126.3	112.5	166.6	84.69	73.86	63.41	58.18	59.42	48.36	32.73	25.39	21.25	17.52	14.76	12.23	10.19	9.861	17.07	35.77	76.16	379.8	815.5	182.8	7.889	2.104	2.046	2.045	2.065	2.127	1.980	2.062	1.918	1.865	1.953	1.980	1.762	1.805	1.821	1.843	1.660	1.563	1.608	1.719	1.531	1.597	1.608
485.0	151.0	220.6	254.3	519.6	1913	1085	365.3	370.8	364.2	359.1	348.3	318.1	282.9	250.7	330.1	198.7	181.1	169.6	161.7	157.3	149.7	148.1	148.1	149.5	148.7	147.1	145.5	143.3	142.7	140.8	130.1	119.1	106.1	151.6	81.43	70.29	60.08	53.41	52.03	51.46	37.36	26.18	21.40	18.05	14.94	12.74	10.85	9.113	9.548	12.40	20.90	95.46	518.5	798.6	142.0	4.009	2.120	2.102	2.054	1.998	1.894	1.877	1.995	1.825	1.857	1.738	1.760	1.660	1.659	1.535	1.564	1.590	1.506	1.509	1.355	1.542	1.391
490.0	119.1	224.1	252.4	329.2	1104	1881	582.8	335.5	333.3	329.2	320.3	294.2	259.3	232.2	286.2	180.3	162.8	153.4	145.2	139.4	135.3	134.0	133.6	133.9	132.6	133.1	130.1	128.8	129.1	127.4	118.5	109.0	97.93	136.2	75.56	66.65	57.02	49.82	45.43	45.13	41.99	31.25	22.36	18.56	15.74	13.48	11.29	9.663	8.180	7.910	8.678	24.92	129.9	418.4	651.5	307.4	12.68	2.257	2.036	1.812	1.855	1.724	1.902	1.814	1.791	1.673	1.571	1.606	1.494	1.417	1.427	1.435	1.273	1.466	1.349	1.342	1.287
495.0	101.7	185.3	263.6	255.5	466.3	1699	1410	324.2	305.1	304.3	291.3	271.9	235.7	210.1	247.1	162.1	146.2	138.4	131.4	124.2	120.0	119.9	118.2	117.1	117.1	117.5	115.1	113.4	115.9	112.5	107.1	97.87	88.71	120.9	69.72	61.83	53.04	45.97	41.36	38.31	38.10	36.05	25.53	19.57	16.20	14.04	11.97	10.14	8.483	6.867	6.212	9.404	32.03	96.41	249.2	724.3	225.9	16.81	2.176	1.771	1.654	1.575	1.740	1.669	1.564	1.562	1.618	1.645	1.327	1.342	1.510	1.366	1.246	1.411	1.169	1.338	1.126
500.0	90.95	145.1	271.5	235.5	300.4	1007	2104	390.8	274.0	269.4	266.7	246.0	220.4	191.1	222.1	146.9	133.4	124.2	119.5	113.1	110.2	108.2	108.8	105.3	107.5	104.0	105.2	104.2	104.5	102.2	98.40	91.12	80.05	107.6	65.72	57.92	49.95	43.81	39.53	35.08	32.40	34.73	29.74	20.42	16.13	13.68	11.90	10.28	8.567	7.226	5.713	5.620	10.33	24.36	59.80	311.2	766.0	207.8	10.43	1.958	1.710	1.535	1.495	1.456	1.456	1.755	1.392	1.280	1.330	1.250	1.269	1.204	1.244	1.315	1.210	1.042	1.072
505.0	81.42	124.1	249.4	251.2	234.1	487.1	2096	985.6	258.9	250.7	243.1	225.3	201.2	175.2	202.6	133.9	121.1	113.3	107.2	103.7	99.96	97.82	97.09	95.89	95.70	96.16	93.44	94.36	94.48	92.78	88.60	84.34	74.59	97.07	60.29	53.95	46.52	41.33	35.83	32.43	28.59	29.70	30.72	23.22	16.80	13.89	11.96	10.08	8.465	7.740	6.102	5.104	5.448	8.359	15.91	76.23	417.5	727.0	170.8	4.927	1.806	1.615	1.509	1.364	1.507	1.418	1.242	1.229	1.113	1.134	1.069	1.144	1.148	1.104	1.212	1.048	0.969
510.0	71.59	106.1	184.2	261.2	209.6	267.2	1140	1940	455.5	223.9	215.1	200.7	178.8	153.8	171.6	118.1	107.7	101.3	94.33	90.91	86.81	85.70	84.63	82.63	82.84	82.99	80.78	82.46	81.85	80.96	77.63	73.28	66.24	83.72	53.48	47.61	42.29	37.58	33.32	29.56	25.80	24.57	26.17	25.18	18.81	13.87	11.93	9.955	8.515	7.506	6.326	5.219	4.504	4.811	6.232	19.47	101.4	333.9	563.6	260.2	13.38	1.778	1.429	1.385	1.414	1.240	1.152	1.145	1.083	1.127	1.064	0.992	1.004	0.949	1.054	0.940	0.998
515.0	63.30	91.71	150.4	232.7	212.1	202.3	412.2	1789	1312	221.4	191.8	176.6	152.7	134.3	145.2	102.3	94.34	87.57	81.29	78.59	74.36	73.59	72.04	70.81	71.65	71.44	69.07	69.24	70.06	69.07	67.69	62.41	57.20	72.32	47.72	41.32	37.03	33.66	30.41	26.83	23.36	21.57	20.10	21.89	21.33	15.37	11.68	9.570	8.262	6.951	6.258	5.580	4.619	4.205	4.021	6.912	24.95	76.68	178.6	506.0	233.2	18.66	1.500	1.354	1.226	1.127	1.030	1.078	1.137	0.991	1.010	0.815	0.900	0.828	0.924	0.903	0.911
520.0	56.63	83.73	119.8	190.7	231.3	171.7	218.8	1002	2147	282.8	170.0	157.0	135.6	120.6	130.0	92.59	83.47	78.66	73.34	70.03	66.86	65.39	64.08	62.63	64.60	62.99	61.92	62.02	63.24	62.37	59.33	54.60	51.11	64.43	41.68	37.31	34.17	30.18	27.71	24.75	21.96	19.89	17.65	18.24	20.57	17.24	12.29	9.446	7.831	6.712	5.946	5.337	4.957	4.020	3.330	3.935	7.956	19.12	42.40	196.1	536.3	209.5	11.60	1.383	1.095	1.033	0.918	1.039	1.026	0.957	0.911	0.896	0.915	0.833	0.884	0.864	0.927
525.0	59.41	78.15	101.6	146.7	226.6	169.6	166.6	425.7	2240	909.5	161.8	143.3	127.8	108.9	118.0	84.15	74.98	70.11	65.61	63.33	60.04	58.49	56.73	56.23	56.58	55.85	55.14	55.56	54.67	55.17	53.48	50.18	45.74	56.67	38.31	34.70	31.14	27.84	25.61	23.05	20.32	18.65	16.84	15.45	16.83	18.10	13.75	8.773	7.629	6.554	5.565	5.046	4.879	4.168	3.248	3.161	3.890	6.257	11.27	47.04	256.0	518.6	164.0	5.122	1.179	1.012	0.952	0.984	0.934	0.865	0.932	0.857	0.807	0.764	0.852	0.790	0.812
530.0	51.41	70.40	90.66	118.3	189.9	187.6	142.1	200.4	1137	2007	366.1	124.5	111.2	94.53	100.6	72.84	66.17	59.87	56.96	54.33	51.94	50.47	48.80	48.08	49.00	48.08	47.82	47.07	47.38	47.76	46.38	43.17	39.50	47.86	33.88	30.37	27.57	24.58	22.65	19.78	18.05	16.71	14.80	13.77	13.31	15.02	14.99	10.33	7.616	6.022	5.432	4.656	4.332	4.237	3.537	2.983	2.951	3.322	4.201	12.21	61.37	213.9	373.2	205.3	14.09	1.478	0.992	0.905	0.876	0.843	0.806	0.767	0.722	0.696	0.781	0.721	0.719
535.0	43.38	59.84	82.34	95.76	134.8	188.8	130.4	132.7	361.9	1838	1282	127.3	96.72	83.01	84.95	62.01	56.38	50.36	48.92	46.74	44.14	43.42	41.78	40.68	40.31	41.66	40.23	40.74	39.88	40.07	38.15	36.82	33.90	40.00	27.93	26.07	23.75	21.64	19.68	17.76	15.67	14.53	12.95	11.67	11.22	11.10	13.15	11.96	8.281	5.830	4.905	4.506	3.852	3.501	3.739	3.000	2.727	2.580	2.551	4.181	15.07	49.01	108.0	340.2	233.6	19.96	1.193	0.931	0.681	0.791	0.800	0.764	0.677	0.667	0.711	0.615	0.764
540.0	44.28	58.47	74.25	81.84	94.30	170.3	145.8	109.1	162.8	925.8	2184	198.8	85.05	72.33	75.01	55.28	50.64	44.95	43.70	39.96	39.18	37.47	36.78	34.60	35.26	35.36	35.03	34.68	34.57	36.03	34.50	32.03	29.98	35.16	24.74	23.45	20.91	19.18	17.38	15.67	14.04	12.70	11.96	10.84	9.881	9.482	10.22	11.48	9.227	5.870	4.728	4.234	3.708	3.381	3.300	3.446	2.794	2.257	2.178	2.355	4.667	12.23	25.70	120.4	373.3	205.5	12.46	0.917	0.730	0.710	0.709	0.675	0.678	0.567	0.589	0.613	0.603
545.0	43.13	50.10	63.82	75.52	82.78	134.1	154.0	99.05	108.6	339.9	2219	720.3	81.39	63.89	68.16	48.02	43.65	40.14	38.50	36.10	34.01	33.45	32.09	30.32	30.52	30.91	30.62	31.04	31.05	31.37	31.09	28.45	26.05	30.44	22.24	20.35	18.86	17.05	15.21	14.28	13.00	11.68	10.79	9.753	8.929	8.028	8.058	9.322	9.673	6.592	4.442	4.024	3.480	3.078	2.745	2.935	3.027	2.367	1.902	1.895	2.227	3.827	6.953	28.63	157.6	372.6	150.4	5.100	0.940	0.712	0.671	0.650	0.597	0.563	0.534	0.593	0.577
550.0	41.21	47.50	61.71	63.46	69.97	88.67	153.4	104.8	85.67	139.4	1034	1757	138.9	55.03	55.07	41.25	37.09	33.70	32.28	30.28	28.88	27.87	26.81	26.84	25.99	25.88	25.80	25.29	25.59	25.64	25.99	23.62	21.57	25.21	18.58	16.94	15.66	14.31	12.99	11.76	11.02	9.794	9.036	8.317	7.826	7.211	6.404	6.911	8.093	7.227	5.154	3.728	3.246	2.819	2.525	2.452	2.775	2.721	2.027	1.673	1.624	1.881	2.584	7.359	37.18	140.6	261.2	134.6	13.60	0.888	0.667	0.635	0.513	0.593	0.507	0.532	0.463
555.0	39.55	44.76	52.08	57.90	59.52	62.78	113.8	123.3	71.62	82.33	296.6	1677	878.2	53.94	44.81	33.32	30.98	27.72	27.05	24.78	24.30	22.22	21.68	20.97	20.64	20.87	20.73	19.92	20.62	20.95	20.36	19.06	18.29	19.89	14.99	13.62	12.76	11.87	10.68	9.913	9.069	8.154	7.480	6.998	6.550	6.079	5.273	5.053	5.383	6.262	5.624	3.950	2.690	2.521	2.437	2.247	2.118	2.395	2.109	1.596	1.418	1.354	1.450	2.561	9.088	32.18	72.54	212.8	199.7	18.01	0.809	0.652	0.559	0.528	0.512	0.481	0.553
560.0	40.34	46.78	48.48	51.65	47.00	51.29	77.55	136.6	77.30	66.30	112.2	826.2	1710	107.9	40.07	28.22	26.07	24.46	21.95	21.20	20.03	19.33	18.35	17.84	17.44	16.96	17.22	16.42	17.85	17.62	17.39	15.91	15.17	16.45	12.65	11.12	10.88	10.05	9.158	8.536	7.762	7.139	6.169	5.806	5.422	4.867	4.600	4.346	3.971	4.769	5.143	4.157	2.602	2.193	2.112	1.978	1.888	1.789	2.153	1.654	1.369	1.138	1.231	1.404	2.814	7.935	17.03	72.80	237.9	143.7	9.481	0.698	0.537	0.543	0.523	0.458	0.464
565.0	36.86	47.45	50.79	45.61	43.11	45.28	54.39	123.0	87.88	55.83	65.25	283.5	1873	425.8	37.24	25.35	22.96	20.03	19.03	17.35	16.49	16.32	15.33	15.38	15.01	14.65	15.00	14.96	14.84	14.87	14.62	13.59	12.18	14.28	10.68	10.09	9.759	8.549	8.190	7.024	7.093	6.157	5.731	5.370	4.810	4.358	4.041	3.589	3.376	3.590	4.466	4.443	2.964	1.954	1.800	1.760	1.665	1.572	1.774	1.889	1.374	1.259	1.048	1.067	1.427	2.557	4.557	17.29	93.13	222.5	93.43	3.874	0.560	0.543	0.472	0.412	0.436
570.0	37.12	49.13	50.10	44.35	38.03	36.39	42.53	82.30	109.9	55.09	52.47	101.0	904.0	1276	193.1	21.19	18.15	16.89	15.52	14.34	14.14	13.41	12.57	12.19	12.43	11.96	12.15	11.91	11.68	12.06	11.57	11.09	10.06	11.74	8.497	8.121	7.527	6.824	6.714	5.887	5.424	4.917	4.723	4.270	4.105	3.507	3.462	3.150	2.857	2.672	3.032	3.680	3.172	2.254	1.691	1.492	1.512	1.476	1.404	1.447	1.526	1.489	0.971	0.864	1.066	1.246	1.750	4.546	21.93	80.07	145.6	93.88	12.27	0.756	0.428	0.427	0.430
575.0	42.15	44.70	53.93	41.49	32.16	33.65	34.90	50.12	108.0	72.27	47.04	54.90	249.5	1301	928.7	19.88	14.89	13.39	12.49	12.04	11.04	11.25	10.28	10.15	10.01	9.670	9.581	9.434	9.141	9.624	8.878	9.028	8.356	9.116	6.537	6.471	6.020	5.618	5.330	4.920	4.350	3.939	3.851	3.535	3.521	2.952	2.709	2.546	2.490	2.178	2.174	2.434	3.059	2.644	1.771	1.296	1.271	1.237	1.158	1.272	1.267	1.554	1.206	0.891	0.963	0.980	1.070	1.700	5.470	18.42	38.92	120.0	121.5	15.71	0.530	0.403	0.403
580.0	39.55	44.78	53.11	40.96	28.74	28.61	31.84	38.55	82.10	91.89	46.56	45.75	84.80	663.5	2955	46.58	12.46	12.06	10.50	10.19	9.586	9.169	9.156	8.600	8.541	8.156	8.158	8.011	7.900	7.879	7.557	7.372	6.780	7.691	5.672	5.476	5.237	4.908	4.422	4.182	3.953	3.377	3.232	3.011	2.789	2.773	2.559	2.316	2.096	1.894	1.697	1.978	2.525	2.466	1.894	1.266	1.169	1.060	1.099	0.982	1.000	1.302	1.327	1.048	0.853	0.787	0.898	1.052	1.858	4.737	9.382	38.63	131.1	93.83	7.756	0.433	0.451
585.0	41.02	46.92	50.28	38.50	28.48	27.39	31.84	34.73	56.85	108.5	50.78	41.95	46.00	225.1	3629	111.0	11.55	10.35	8.768	8.815	8.013	7.770	7.749	7.360	7.025	7.293	6.886	6.188	7.270	6.781	6.766	6.296	6.049	6.257	5.019	4.917	4.427	4.147	4.069	3.816	3.569	2.939	2.675	2.677	2.579	2.445	2.197	2.095	1.827	1.687	1.560	1.622	1.835	2.324	2.064	1.257	1.053	0.948	0.991	0.943	0.951	1.061	1.414	1.204	0.856	0.789	0.744	0.867	1.112	1.638	2.770	9.327	48.35	129.6	34.34	3.364	0.420
590.0	38.60	45.91	47.69	33.75	27.71	25.88	27.01	29.09	39.47	88.28	72.71	41.74	37.44	72.45	1859	756.5	36.06	8.830	7.302	7.565	6.466	6.551	6.295	6.007	5.841	5.746	5.756	5.387	5.681	5.666	5.353	5.258	5.167	5.374	4.352	4.045	3.559	3.448	3.292	2.993	2.741	2.519	2.313	2.236	2.100	2.011	1.731	1.710	1.557	1.374	1.290	1.309	1.323	1.675	1.907	1.563	1.046	0.955	0.886	0.852	0.811	0.820	0.912	1.206	1.027	0.789	0.735	0.793	0.860	1.010	1.122	2.587	11.40	43.75	86.39	63.21	11.32
595.0	34.43	39.06	39.22	34.52	25.86	23.98	26.35	25.68	31.67	56.65	95.75	47.16	35.71	36.56	471.7	871.9	266.6	8.376	6.404	6.016	5.666	5.265	5.170	5.427	4.523	4.632	4.563	4.805	4.298	4.437	4.650	4.103	4.180	4.402	3.453	3.310	2.936	2.664	2.553	2.523	2.163	2.303	1.926	1.745	1.693	1.676	1.473	1.373	1.453	1.151	1.123	1.039	1.007	1.110	1.321	1.483	1.305	0.896	0.828	0.737	0.689	0.778	0.686	0.899	1.055	0.841	0.719	0.687	0.708	0.720	0.740	0.997	2.932	10.27	22.21	65.91	78.58
600.0	33.68	41.88	40.35	35.49	25.59	22.87	23.38	27.75	28.44	41.80	91.36	55.08	34.65	27.78	122.9	488.5	631.5	17.32	5.831	4.793	4.679	4.277	4.473	4.208	3.819	3.819	3.825	4.113	3.539	3.740	3.712	3.804	3.320	3.565	2.972	2.695	2.487	2.408	2.053	2.114	1.840	1.984	1.784	1.609	1.526	1.418	1.260	1.220	1.184	1.034	0.976	0.902	0.962	0.900	1.019	1.366	1.372	0.940	0.706	0.672	0.654	0.674	0.614	0.676	0.871	0.916	0.793	0.640	0.655	0.607	0.694	0.613	1.085	2.710	5.273	20.50	76.95
605.0	34.49	40.01	45.38	34.54	24.15	22.12	23.29	26.19	27.29	34.59	75.46	69.79	34.73	25.72	43.64	164.8	803.8	72.39	5.218	4.465	4.170	3.885	3.768	3.607	3.475	3.302	3.248	3.443	3.316	3.284	3.303	3.053	2.779	3.083	2.541	2.245	2.207	1.877	2.003	1.750	1.554	1.758	1.512	1.456	1.363	1.191	1.262	1.105	1.110	0.969	0.938	0.862	0.876	0.790	0.685	0.979	1.175	1.149	0.732	0.705	0.561	0.655	0.534	0.576	0.629	0.838	0.967	0.703	0.587	0.592	0.545	0.571	0.594	0.955	1.505	4.956	26.18
610.0	30.54	38.66	38.32	31.83	22.99	23.50	22.10	24.85	27.00	34.46	53.68	83.46	43.78	26.31	25.48	47.99	463.7	436.3	15.41	3.920	3.323	3.560	3.123	2.861	3.076	2.773	2.677	2.680	2.720	2.648	2.690	2.675	2.282	2.498	2.159	1.975	1.789	1.758	1.698	1.443	1.419	1.372	1.298	1.243	1.044	1.153	1.022	1.012	0.900	0.804	0.789	0.692	0.699	0.696	0.620	0.677	0.906	1.090	0.810	0.676	0.575	0.586	0.534	0.650	0.561	0.647	0.830	0.815	0.638	0.519	0.513	0.518	0.493	0.529	0.633	1.402	6.255
615.0	31.77	37.92	37.03	31.79	22.58	20.96	20.06	22.29	28.42	33.40	41.41	72.53	56.32	28.04	21.39	19.62	126.1	582.8	75.30	3.363	2.860	2.921	2.632	2.610	2.438	2.260	2.209	2.125	2.380	2.303	2.179	2.214	1.790	2.039	1.768	1.661	1.564	1.576	1.321	1.192	1.195	1.105	1.134	1.109	1.044	0.943	0.790	0.765	0.689	0.692	0.603	0.633	0.633	0.547	0.547	0.585	0.640	0.896	0.842	0.698	0.498	0.596	0.532	0.511	0.484	0.560	0.651	0.825	0.799	0.553	0.523	0.461	0.496	0.460	0.412	0.552	1.695
620.0	25.50	34.83	33.97	26.34	20.00	19.32	19.90	22.41	27.39	30.45	35.77	56.40	67.75	28.97	21.42	13.10	35.50	373.1	354.4	7.017	2.438	2.595	2.497	2.155	2.218	2.070	2.150	2.025	1.949	1.979	1.790	1.733	1.587	1.830	1.521	1.479	1.368	1.377	1.139	1.059	1.044	0.950	0.928	0.890	0.812	0.897	0.751	0.720	0.588	0.611	0.545	0.548	0.571	0.542	0.481	0.511	0.481	0.775	0.763	0.722	0.525	0.503	0.433	0.502	0.494	0.446	0.518	0.698	0.827	0.695	0.478	0.435	0.403	0.437	0.382	0.447	0.629
625.0	27.32	32.21	33.11	24.51	18.71	17.90	20.13	21.38	25.39	28.55	35.31	45.62	69.52	33.59	20.70	11.49	14.05	138.3	532.4	38.96	2.710	2.393	2.053	2.168	1.901	1.973	1.762	1.689	1.811	1.627	1.860	1.498	1.357	1.632	1.362	1.392	1.321	1.309	1.062	0.935	0.875	0.768	0.849	0.723	0.764	0.751	0.667	0.634	0.651	0.564	0.535	0.537	0.472	0.475	0.401	0.518	0.462	0.600	0.616	0.743	0.567	0.520	0.505	0.525	0.489	0.467	0.524	0.554	0.654	0.716	0.538	0.431	0.407	0.341	0.385	0.410	0.439
630.0	25.09	27.68	32.78	23.78	18.96	18.41	20.18	20.48	23.93	26.72	33.14	38.74	56.85	46.20	20.43	11.69	9.516	38.22	350.6	267.8	6.483	2.097	1.853	1.748	1.704	1.567	1.529	1.427	1.549	1.500	1.498	1.459	1.117	1.376	1.149	1.140	1.067	1.087	0.917	0.826	0.795	0.773	0.672	0.669	0.682	0.566	0.618	0.561	0.534	0.484	0.507	0.444	0.432	0.435	0.382	0.496	0.420	0.447	0.492	0.644	0.631	0.585	0.459	0.478	0.426	0.463	0.488	0.496	0.511	0.667	0.701	0.512	0.427	0.408	0.371	0.355	0.368
635.0	30.02	31.25	29.46	18.57	18.75	16.56	18.86	20.03	23.84	26.69	31.26	36.74	41.35	53.36	24.49	11.62	8.358	13.67	99.28	428.5	52.36	1.971	1.811	1.616	1.381	1.295	1.215	1.198	1.284	1.129	1.122	1.106	0.882	1.189	0.970	0.973	0.825	0.887	0.748	0.713	0.674	0.609	0.590	0.622	0.546	0.514	0.511	0.428	0.462	0.479	0.420	0.424	0.369	0.415	0.395	0.388	0.419	0.430	0.437	0.482	0.540	0.556	0.475	0.407	0.375	0.424	0.416	0.466	0.431	0.535	0.599	0.567	0.462	0.394	0.393	0.328	0.386
640.0	27.39	31.21	32.01	22.74	17.89	15.88	16.38	20.48	23.45	27.86	30.96	34.64	34.73	47.65	31.55	13.79	9.691	8.149	27.18	310.5	216.6	3.381	1.607	1.469	1.232	1.021	1.078	1.122	0.994	0.932	1.132	1.131	0.899	1.214	0.796	0.837	0.803	0.784	0.659	0.699	0.652	0.581	0.600	0.578	0.469	0.491	0.442	0.405	0.436	0.390	0.376	0.363	0.344	0.417	0.364	0.365	0.392	0.454	0.412	0.493	0.520	0.424	0.531	0.420	0.401	0.379	0.462	0.465	0.521	0.509	0.464	0.531	0.546	0.433	0.378	0.340	0.391
645.0	28.89	31.37	28.78	24.33	16.91	17.71	17.55	19.35	22.44	26.07	31.17	33.09	31.79	38.87	38.13	14.59	9.911	7.476	10.14	130.4	361.5	20.22	1.505	1.451	1.233	1.063	0.945	0.994	0.947	0.924	1.094	1.130	0.824	1.225	0.825	0.828	0.807	0.725	0.693	0.525	0.559	0.499	0.546	0.473	0.480	0.423	0.348	0.416	0.434	0.321	0.335	0.354	0.361	0.391	0.354	0.326	0.335	0.338	0.319	0.371	0.478	0.463	0.545	0.419	0.355	0.350	0.386	0.445	0.412	0.380	0.398	0.491	0.572	0.409	0.337	0.293	0.447
650.0	23.89	31.40	31.29	24.09	18.08	17.44	16.63	19.86	22.89	25.63	30.24	31.83	29.78	33.14	42.89	17.26	9.907	7.636	6.526	37.55	347.2	63.74	1.749	1.123	1.150	1.053	0.992	0.882	0.938	0.920	0.952	0.956	0.872	1.019	0.708	0.718	0.814	0.649	0.674	0.467	0.497	0.440	0.474	0.426	0.468	0.343	0.378	0.450	0.415	0.304	0.326	0.323	0.352	0.323	0.308	0.403	0.347	0.384	0.338	0.393	0.395	0.433	0.515	0.508	0.381	0.370	0.519	0.390	0.476	0.429	0.409	0.423	0.490	0.502	0.373	0.309	0.377
