Sample:	'1
File name:	L2025090915Í¬ÐËÂ·ÇÅ.FD3
Run date:	'16:58:37, 09/09/2025
Operator:	Administrator
Comment:	'

Instrument
Model:	F-2700 FL Spectrophotometer
Serial number:	3064-004
ROM Version:	4J14000 07

Instrument parameters
Measurement type:	3-D scan
Data mode:	Fluorescence
EX  Start WL:	220.0 nm
EX  End WL:	600.0 nm
EX Sampling interval:	5.0 nm
EM  Start WL:	230.0 nm
EM  End WL:	650.0 nm
EM Sampling interval:	5.0 nm
Scan speed:	12000 nm/min
EX Slit:	5.0 nm
EM Slit:	5.0 nm
PMT Voltage:	700 V
Response:	Auto 
Corrected spectra:	Off
Contour interval:	50.000

Peak integration
Integration method:	Rectangular
Sensitivity:	1
Threshold:	1.000

Peaks
No.	ApexEX/EM(nm)	Height(Data)
1	225.0/600.0	30.92
2	230.0/340.0	865.7
3	230.0/575.0	42.94
4	230.0/585.0	42.92
5	230.0/605.0	32.32
6	230.0/635.0	29.82
7	235.0/345.0	853.2
8	235.0/625.0	27.00
9	240.0/520.0	274.7
10	245.0/530.0	229.4
11	250.0/545.0	227.5
12	255.0/280.0	647.7
13	255.0/555.0	201.6
14	260.0/285.0	820.8
15	260.0/570.0	163.4
16	265.0/290.0	901.0
17	265.0/420.0	 1041
18	265.0/440.0	 1020
19	265.0/580.0	171.3
20	270.0/295.0	 1282
21	270.0/590.0	154.2
22	275.0/305.0	 1626
23	275.0/605.0	147.8
24	280.0/310.0	 1647
25	280.0/340.0	 1359
26	280.0/615.0	122.2
27	285.0/240.0	6.607
28	285.0/315.0	 1664
29	285.0/630.0	103.2
30	290.0/320.0	 1543
31	290.0/640.0	83.91
32	305.0/340.0	999.8
33	315.0/355.0	768.6
34	320.0/360.0	831.0
35	325.0/365.0	809.8
36	330.0/375.0	742.7
37	335.0/380.0	780.5
38	340.0/385.0	753.0
39	350.0/400.0	688.2
40	355.0/405.0	658.5
41	365.0/420.0	592.7
42	430.0/505.0	83.01
43	445.0/525.0	49.77
44	450.0/530.0	41.30
45	455.0/340.0	3.661
46	460.0/335.0	3.616
47	460.0/545.0	27.55
48	505.0/275.0	2.692
49	510.0/280.0	3.646
50	515.0/285.0	3.838
51	515.0/425.0	4.752
52	530.0/290.0	4.054
53	530.0/440.0	4.564
54	535.0/295.0	5.506
55	545.0/300.0	7.235
56	550.0/305.0	7.170
57	555.0/310.0	6.990
58	570.0/315.0	7.817
59	575.0/290.0	93.49
60	575.0/320.0	7.750
61	580.0/325.0	7.090

Data points
	220.0	225.0	230.0	235.0	240.0	245.0	250.0	255.0	260.0	265.0	270.0	275.0	280.0	285.0	290.0	295.0	300.0	305.0	310.0	315.0	320.0	325.0	330.0	335.0	340.0	345.0	350.0	355.0	360.0	365.0	370.0	375.0	380.0	385.0	390.0	395.0	400.0	405.0	410.0	415.0	420.0	425.0	430.0	435.0	440.0	445.0	450.0	455.0	460.0	465.0	470.0	475.0	480.0	485.0	490.0	495.0	500.0	505.0	510.0	515.0	520.0	525.0	530.0	535.0	540.0	545.0	550.0	555.0	560.0	565.0	570.0	575.0	580.0	585.0	590.0	595.0	600.0
230.0	20.40	792.4	 4858	 3239	150.4	11.19	8.708	6.613	6.097	6.521	4.324	5.343	4.500	4.423	4.379	3.059	3.464	2.638	2.226	2.486	1.946	1.954	1.738	1.645	1.438	1.451	1.469	1.261	1.043	1.179	1.163	1.165	0.812	0.695	0.811	0.776	0.791	0.710	0.657	0.578	0.534	0.790	0.675	0.578	0.452	0.414	1.940	7.781	12.08	8.969	3.409	0.612	0.414	0.394	0.263	0.302	0.291	0.240	0.301	0.243	0.263	0.210	0.181	0.093	0.232	0.177	0.155	0.116	0.140	0.066	0.095	0.066	0.110	0.133	-0.019	0.066	0.184
235.0	49.58	207.6	 2175	 7644	 3754	238.0	10.07	8.165	6.070	5.604	5.383	5.383	5.274	4.447	3.670	2.810	3.912	2.370	2.477	2.519	2.329	2.773	2.293	1.427	1.353	1.536	1.580	1.552	1.080	1.351	0.875	1.182	0.894	0.677	0.795	0.670	0.689	0.794	0.759	0.745	0.576	0.637	0.640	0.887	0.795	0.678	0.970	2.244	5.132	9.353	12.26	12.24	5.136	1.148	0.251	0.246	0.380	0.223	0.153	0.180	0.147	0.228	0.148	0.212	0.232	0.092	0.195	0.127	0.209	-0.080	0.123	0.010	0.075	0.292	0.106	-0.042	0.030
240.0	57.58	106.6	550.5	 4691	 9182	 1027	145.0	12.43	10.20	5.490	5.620	5.000	5.304	6.607	4.237	3.169	2.960	2.558	2.551	2.071	2.665	1.752	1.883	1.543	1.168	1.117	1.534	1.681	1.325	1.465	0.973	1.049	0.988	1.037	0.660	0.583	0.872	0.739	0.926	0.720	0.804	0.518	0.474	0.778	0.756	0.695	0.816	1.028	1.501	2.884	7.272	16.28	19.25	12.15	3.667	0.486	0.369	0.332	0.290	0.090	0.152	0.195	0.270	0.188	0.201	0.107	0.080	0.056	0.208	0.139	0.134	0.056	0.024	0.059	-0.057	0.020	0.150
245.0	38.65	113.3	182.0	 1275	 6712	 7591	870.2	99.00	11.82	10.30	9.503	5.820	5.464	5.264	4.296	5.143	3.612	2.815	2.392	2.843	2.064	2.238	1.826	1.647	1.909	1.279	1.393	1.628	1.319	1.274	1.094	0.971	0.669	0.861	0.731	0.667	0.853	0.529	0.617	0.755	0.792	0.681	0.533	0.897	0.583	0.651	0.996	1.019	0.798	1.078	2.056	5.630	15.09	22.83	20.19	10.85	2.152	0.328	0.188	0.246	0.186	0.364	0.267	0.278	0.248	0.281	0.193	0.055	0.143	0.265	0.235	0.086	0.028	0.064	0.047	-0.024	0.146
250.0	19.86	59.65	159.4	381.1	 1797	 4815	9999.9	 5123	239.1	15.69	10.77	9.774	5.922	7.627	4.925	4.718	4.464	3.085	3.014	2.776	2.258	2.262	1.809	1.690	2.156	1.531	1.658	1.694	1.314	1.464	1.093	1.025	0.853	1.101	0.789	0.641	0.826	0.628	0.709	0.728	0.689	0.527	0.584	0.569	0.523	0.707	0.776	1.034	1.073	0.911	1.048	1.714	3.875	8.228	14.30	21.62	25.71	21.79	10.58	3.045	0.272	0.238	0.178	0.275	0.144	0.245	0.240	0.128	0.095	0.157	0.146	0.196	0.102	0.165	0.073	0.109	0.107
255.0	18.98	29.26	89.05	298.8	538.3	 1123	 5616	9999.9	 4678	311.4	17.79	11.83	7.817	9.176	5.640	6.075	4.480	4.008	3.329	3.181	2.535	2.065	2.704	2.008	1.664	2.011	1.378	1.599	1.345	1.339	1.168	1.136	0.973	1.215	1.064	0.918	0.564	0.657	0.794	0.555	0.833	0.714	0.725	0.649	0.502	0.681	0.647	0.732	0.596	0.794	1.500	1.416	1.375	2.153	3.422	5.579	11.10	26.71	45.36	39.55	15.94	2.506	0.289	0.284	0.095	0.229	0.310	0.271	0.078	0.048	0.119	0.145	0.276	0.015	0.212	0.186	0.205
260.0	13.70	25.91	40.70	172.7	392.1	346.4	 1436	 6217	9999.9	 3907	172.3	17.07	10.43	10.62	7.624	6.767	5.151	4.266	3.692	4.176	2.949	2.314	2.524	2.133	1.836	2.075	1.967	1.428	1.086	1.356	1.303	1.319	0.823	0.905	0.746	0.738	0.749	0.571	0.631	0.824	0.733	0.660	0.840	0.538	0.506	0.511	0.551	0.519	0.366	0.753	1.044	1.854	1.658	1.278	1.189	1.622	2.910	7.948	22.40	45.26	52.23	34.74	9.775	1.008	0.445	0.291	0.123	0.216	0.268	0.199	0.133	0.372	0.066	0.262	0.150	0.009	0.154
265.0	23.54	17.41	30.18	73.46	304.5	357.1	392.5	 1748	 7652	9999.9	 3055	84.59	14.68	14.04	8.357	7.347	5.669	4.907	4.514	3.917	2.957	2.588	2.933	2.356	1.857	1.991	2.157	2.035	1.463	1.565	1.472	1.214	1.203	1.235	1.040	0.843	0.700	0.674	0.505	0.876	0.788	0.646	1.016	0.523	0.692	0.410	0.529	0.543	0.467	0.644	0.603	1.047	1.524	1.791	1.498	0.937	0.953	2.216	5.511	14.98	37.20	66.10	51.17	29.71	5.310	0.614	0.319	0.289	0.465	0.324	0.181	0.109	0.158	0.152	0.062	0.015	0.130
270.0	26.03	22.98	38.59	44.12	115.3	323.6	420.2	491.3	 2027	 6876	9999.9	 8258	184.8	21.02	14.17	9.929	7.804	6.566	5.296	4.213	3.241	2.573	2.670	2.794	2.432	2.164	2.152	1.997	1.800	1.609	1.577	1.309	1.427	1.092	1.089	0.891	0.797	0.841	0.695	0.724	0.766	0.598	0.666	0.735	0.649	0.614	0.552	0.619	0.612	0.539	0.499	0.631	0.731	1.103	1.639	2.050	1.527	1.274	1.584	3.738	9.354	21.22	36.31	59.44	60.51	55.77	19.88	4.966	0.550	0.472	0.244	0.196	0.173	0.109	0.255	0.100	0.322
275.0	51.45	48.57	52.66	53.44	58.80	115.2	420.1	560.7	561.0	 1626	 4642	9999.9	9999.9	224.5	20.50	15.18	11.38	8.077	5.013	5.381	4.724	3.986	2.945	3.272	2.701	2.183	1.978	2.241	1.724	1.759	1.379	1.638	1.210	1.379	1.011	1.012	1.081	0.810	0.633	0.745	0.748	0.532	0.637	0.856	0.928	0.834	0.724	0.761	0.646	0.544	0.503	0.719	0.771	0.605	0.702	1.228	2.528	2.692	2.264	1.571	2.605	5.141	8.660	14.85	25.28	62.00	105.6	52.46	27.74	3.513	0.164	0.369	0.175	0.404	0.401	0.236	0.153
280.0	80.14	99.42	101.1	75.31	55.74	62.76	197.6	647.7	497.3	480.4	 1226	 6366	9999.9	 2645	137.5	19.56	13.68	9.006	5.666	5.762	4.924	4.922	2.899	3.371	3.041	2.665	2.205	2.271	2.138	1.932	1.479	1.478	1.564	1.327	1.136	1.011	1.190	0.919	0.672	1.038	1.084	0.913	0.714	0.945	1.040	1.086	0.896	0.824	0.821	0.794	0.711	0.490	0.658	0.535	0.843	0.687	1.569	2.346	3.646	2.976	1.482	1.770	2.501	3.848	6.462	17.50	46.96	88.59	127.0	48.04	16.35	1.143	0.297	0.525	0.300	0.174	0.297
285.0	111.6	136.4	135.8	108.1	72.63	69.38	111.5	375.0	820.8	400.4	453.9	 1771	 9199	9999.9	 2025	75.56	15.65	11.10	7.197	6.502	5.717	5.111	3.652	4.005	2.975	3.072	2.793	2.139	2.057	2.246	1.833	1.815	1.381	1.371	1.064	1.047	1.272	1.115	1.119	0.963	1.103	1.192	1.224	1.088	1.302	1.029	1.164	1.053	1.084	0.935	0.722	0.617	0.801	0.562	0.637	0.676	0.830	1.182	2.355	3.838	3.557	2.384	1.535	1.894	2.248	5.037	11.59	26.88	72.81	122.9	124.6	36.96	6.082	0.525	0.438	0.382	0.287
290.0	155.7	199.8	206.1	177.2	110.7	90.04	120.5	211.5	553.9	901.0	612.8	715.9	 2533	 8226	9999.9	 7799	113.8	17.93	11.65	8.382	6.437	5.248	4.741	3.968	3.071	3.488	2.695	2.597	2.082	2.221	1.960	1.937	1.474	1.563	1.341	1.416	1.350	1.395	1.240	1.197	1.234	1.237	1.227	1.390	1.410	1.441	1.483	1.637	1.368	0.992	0.807	1.026	0.824	0.758	0.912	0.749	0.834	1.062	1.259	1.999	2.728	3.727	4.054	3.293	2.160	2.670	3.840	7.374	18.05	36.18	68.32	93.49	80.32	82.88	23.26	6.607	0.646
295.0	195.9	270.4	292.3	236.3	165.2	133.9	169.0	210.2	338.8	670.6	 1282	795.2	 1011	 2160	 4098	9999.9	9999.9	143.4	18.03	12.01	9.272	7.300	5.519	4.561	3.511	3.846	2.354	2.830	2.203	2.171	2.245	1.437	1.649	1.882	1.546	1.244	1.338	1.625	1.406	1.222	1.474	1.495	1.471	1.607	1.297	1.516	1.674	1.700	1.532	1.316	1.229	1.135	0.969	1.085	0.891	0.829	0.820	1.057	1.196	1.625	1.795	2.047	3.276	5.506	5.455	4.097	2.959	3.527	6.202	9.621	16.74	22.59	29.18	78.79	140.6	134.1	35.54
300.0	209.6	312.4	332.0	280.0	202.0	173.5	203.9	253.0	339.7	527.1	 1170	 1406	838.1	910.3	 1214	 5326	9999.9	 8335	97.81	16.90	11.92	8.416	6.336	5.019	4.531	4.795	2.920	2.984	2.528	2.048	2.342	1.631	1.622	1.897	1.605	1.256	1.552	1.356	1.688	1.350	1.306	1.668	1.285	1.737	1.416	1.719	1.790	1.985	1.705	1.338	1.304	1.331	1.245	0.902	0.992	1.074	0.859	1.183	1.151	1.810	1.776	2.131	2.529	3.363	5.856	7.235	5.125	3.499	3.676	4.342	5.707	6.557	8.009	20.14	54.38	127.1	165.9
305.0	221.2	342.6	383.9	315.7	238.1	211.7	251.6	301.1	391.6	558.1	876.9	 1626	 1257	760.6	641.1	 1467	 7800	9999.9	 1281	61.25	15.60	10.10	7.743	5.447	5.222	4.462	3.980	3.507	3.107	2.590	2.184	2.194	1.898	1.765	1.844	1.516	1.485	1.490	1.766	1.680	1.390	1.675	1.189	1.882	1.453	1.750	1.798	2.163	1.833	1.545	1.407	1.428	1.276	1.144	0.933	1.552	1.469	1.429	1.452	1.856	1.830	2.241	2.370	3.365	3.478	5.627	7.170	6.617	3.979	3.572	3.520	3.682	3.529	5.779	13.38	34.77	82.65
310.0	258.6	368.9	426.4	378.4	288.8	255.9	308.7	373.2	465.7	628.4	838.2	 1225	 1647	 1226	658.6	624.0	 2015	 7039	9999.9	9999.9	81.60	16.84	10.04	8.071	6.542	4.519	4.266	3.697	3.048	2.841	2.304	2.128	2.103	1.796	1.832	1.579	1.442	1.701	1.553	1.890	1.738	1.629	1.436	1.636	1.794	1.920	1.796	2.172	2.010	1.736	1.479	1.259	1.468	1.393	1.368	1.530	1.784	1.704	1.871	1.935	2.228	2.846	2.838	3.101	3.245	4.523	5.287	6.990	6.974	6.258	4.324	3.379	3.095	2.892	4.499	9.292	19.82
315.0	259.8	395.4	454.2	409.7	319.4	297.3	345.9	426.6	535.5	688.2	881.8	 1101	 1312	 1664	 1086	550.7	697.7	 1728	 3533	9999.9	 8045	107.8	17.69	10.58	7.627	5.758	4.934	4.262	3.494	3.673	2.938	2.557	2.384	2.089	1.427	1.727	1.624	1.784	1.761	1.734	1.878	1.837	1.768	1.805	1.799	1.829	2.019	1.898	2.195	1.846	1.442	1.657	1.510	1.487	1.269	1.538	2.030	1.825	1.888	2.187	2.518	2.715	3.061	3.699	3.595	4.139	4.386	5.398	5.307	6.229	7.817	6.162	3.776	3.036	2.736	3.716	5.812
320.0	281.5	448.3	555.6	494.7	361.6	319.9	373.1	461.6	577.6	745.0	958.7	 1126	 1238	 1445	 1543	735.4	463.1	587.9	929.7	 4833	9999.9	 6552	78.74	15.66	10.30	7.472	6.181	4.653	3.762	4.355	3.642	2.529	2.480	1.769	1.839	2.076	1.911	1.793	1.910	1.697	1.902	1.658	1.795	1.640	1.937	1.911	2.404	2.058	2.340	2.147	1.637	1.681	1.621	1.412	1.510	1.825	1.893	1.967	2.406	2.125	2.739	2.668	3.152	3.458	3.914	4.349	4.612	5.189	5.272	5.547	7.362	7.750	6.733	4.514	2.647	2.801	2.761
325.0	292.5	518.5	666.1	582.9	410.9	338.6	409.9	484.7	612.7	792.7	 1015	 1185	 1290	 1308	 1464	 1176	515.8	375.9	373.1	 1232	 7370	9999.9	 4581	51.22	13.40	9.449	7.448	5.440	4.925	4.025	3.305	2.802	2.578	2.068	1.732	1.713	1.965	1.746	1.893	1.640	2.082	1.732	1.839	2.044	2.453	2.340	2.426	2.879	2.645	2.341	1.851	1.680	1.769	1.731	1.906	1.642	2.219	2.109	2.543	2.253	2.529	2.837	3.121	3.952	4.416	4.904	4.661	5.282	5.077	5.898	5.855	6.097	7.090	6.974	4.135	3.317	2.409
330.0	305.6	546.0	768.2	700.0	502.5	405.7	437.4	525.9	659.3	829.0	 1044	 1244	 1328	 1312	 1214	 1228	910.2	452.7	307.8	432.4	 1835	 6596	9999.9	 8850	65.76	14.99	9.502	7.651	5.502	4.529	3.879	2.937	2.604	2.426	1.939	2.010	1.863	1.956	1.591	1.709	2.133	1.928	2.034	2.188	2.581	2.577	2.729	3.115	3.408	2.815	2.263	2.356	2.032	1.790	1.663	1.851	2.142	2.162	2.329	2.554	2.632	3.048	3.607	3.882	4.387	4.602	4.891	5.799	5.468	5.655	5.271	5.279	5.733	5.755	5.781	5.674	4.157
335.0	312.9	585.1	825.8	807.2	576.5	473.4	493.4	572.0	693.1	862.1	 1064	 1250	 1350	 1330	 1186	 1008	 1010	816.2	378.2	305.6	562.3	 1586	 3591	9999.9	 6431	88.65	14.32	9.680	7.958	5.211	4.585	3.865	3.298	2.553	2.450	2.379	1.799	2.034	1.794	1.655	2.341	1.946	1.843	2.184	2.553	2.867	2.975	3.215	3.616	3.043	2.486	2.808	2.286	1.868	1.811	2.150	2.299	2.345	2.534	2.530	3.283	3.450	3.583	4.276	4.642	4.761	5.286	5.954	5.545	5.202	5.656	5.407	5.088	4.836	4.481	4.518	5.735
340.0	320.2	600.7	865.7	824.4	619.7	516.6	527.4	607.7	702.5	891.8	 1085	 1246	 1359	 1348	 1198	966.2	859.0	999.8	588.0	328.9	318.8	494.5	918.7	 5159	9999.9	 5336	65.52	13.36	8.726	7.162	5.342	3.549	3.418	2.501	2.419	2.371	1.983	2.143	1.916	1.840	2.184	1.918	1.838	2.489	2.491	2.727	2.848	3.661	3.472	3.454	2.843	2.465	2.585	2.098	1.898	2.217	2.329	2.627	2.443	2.677	3.010	3.344	3.695	4.127	4.666	4.833	5.149	5.199	5.523	5.939	5.622	5.068	5.261	5.063	4.600	4.749	4.290
345.0	307.8	561.8	831.2	853.2	699.9	591.7	574.4	624.6	733.1	880.1	 1067	 1222	 1328	 1325	 1209	 1002	799.2	865.2	852.3	434.2	302.5	286.5	336.1	 1299	 7808	9999.9	 3920	44.30	11.24	8.379	6.232	4.241	3.846	2.880	2.577	2.206	2.043	2.337	2.298	1.895	2.197	1.675	2.061	2.311	2.549	3.021	2.525	3.476	3.565	3.376	2.948	3.047	2.753	2.345	2.351	2.442	2.729	3.142	2.683	2.995	3.182	3.260	3.868	3.989	4.598	4.488	5.037	5.199	5.415	5.876	5.876	5.471	5.620	4.905	5.001	5.005	3.989
350.0	295.6	529.9	780.7	853.0	732.6	677.7	655.4	698.5	781.1	897.6	 1061	 1201	 1277	 1301	 1198	 1004	829.0	746.1	800.1	736.3	436.1	303.7	262.6	430.2	 1942	 7001	9999.9	 7531	57.42	12.76	8.521	5.480	4.774	3.389	2.844	2.531	2.188	1.995	1.971	1.927	2.160	1.909	1.990	2.275	2.243	2.591	2.859	3.016	3.203	3.130	2.938	2.997	2.899	2.814	2.840	2.757	2.683	2.973	3.134	3.333	3.199	3.407	3.954	4.090	4.417	4.328	4.918	5.172	5.572	5.908	5.576	5.373	4.983	4.967	4.855	4.749	4.415
355.0	269.0	490.3	730.9	852.8	794.2	750.3	774.4	772.7	872.3	955.0	 1095	 1203	 1271	 1267	 1189	 1042	877.8	759.8	700.1	768.6	745.2	418.9	308.2	293.1	576.3	 1666	 3939	9999.9	 5641	77.89	13.29	8.103	5.843	4.688	3.017	2.389	2.947	2.183	1.798	2.321	2.212	1.668	2.273	2.202	2.152	2.666	2.875	3.132	3.137	2.869	2.924	3.314	3.095	2.787	3.059	2.969	2.862	3.388	3.276	3.599	3.384	3.853	3.686	3.755	4.161	4.217	5.010	4.944	5.783	5.930	5.317	5.074	5.625	5.264	4.653	4.842	4.523
360.0	275.7	480.4	668.5	789.8	824.1	802.2	824.7	828.2	934.4	 1016	 1115	 1200	 1249	 1257	 1185	 1071	904.9	805.5	722.4	692.9	831.0	619.4	380.6	305.1	306.6	508.4	996.4	 5636	9999.9	 4732	54.99	11.81	7.482	5.661	3.634	3.169	2.996	2.506	2.263	2.327	2.087	2.084	2.101	2.312	2.502	2.523	2.387	3.257	3.217	2.714	2.977	2.700	3.450	3.076	3.196	3.320	3.572	3.635	3.613	3.525	3.271	3.666	4.243	4.131	4.095	4.142	4.842	4.830	5.215	5.226	5.381	5.578	5.137	5.375	4.531	4.964	4.693
365.0	267.5	447.9	665.6	773.1	863.7	862.6	872.3	898.0	973.4	 1034	 1128	 1180	 1217	 1238	 1193	 1077	935.9	849.3	760.0	701.9	742.8	809.8	505.2	357.7	292.7	281.6	343.0	 1425	 8365	9999.9	705.5	35.27	9.869	6.890	4.704	3.251	3.040	2.649	2.567	2.190	1.952	2.412	2.082	2.295	2.264	2.557	2.732	2.995	2.808	2.968	2.824	3.268	3.592	2.882	3.159	3.410	3.451	3.427	3.706	3.768	3.938	3.809	4.168	3.834	4.471	4.534	5.119	5.035	5.230	5.273	5.224	5.411	5.494	5.190	5.160	5.166	4.669
370.0	264.2	438.2	649.6	787.3	843.5	898.7	921.6	943.7	993.8	 1073	 1137	 1191	 1214	 1208	 1168	 1075	973.3	890.7	816.0	751.6	712.5	760.5	739.4	501.5	357.1	287.1	244.5	436.6	 2098	 7365	9999.9	 6546	47.89	10.37	6.755	4.721	3.806	3.195	2.788	2.410	2.311	2.238	2.106	2.182	2.126	2.512	2.516	2.665	2.959	2.904	2.812	2.982	3.425	3.382	3.359	3.947	3.869	3.565	3.791	3.818	4.011	3.940	4.234	4.438	4.430	4.740	4.813	4.982	5.139	5.410	5.021	5.752	5.494	4.861	5.164	5.440	5.229
375.0	256.5	388.3	632.0	783.8	853.9	906.8	973.9	995.8	 1031	 1110	 1120	 1177	 1180	 1187	 1140	 1064	992.3	917.5	866.4	806.0	744.0	711.0	742.7	735.3	478.5	349.2	275.4	262.7	582.6	 1726	 4321	9999.9	 4707	61.06	10.28	6.828	5.114	3.742	3.243	2.529	2.374	2.139	2.198	1.939	2.080	2.697	2.463	2.867	3.221	2.659	2.965	3.122	3.444	3.478	3.883	3.371	3.969	4.323	3.829	4.295	4.163	4.131	4.249	4.621	4.633	4.900	4.329	4.363	4.501	5.132	4.850	5.120	5.013	4.970	5.735	5.272	5.225
380.0	254.1	386.1	585.2	763.4	860.9	941.3	987.6	 1015	 1041	 1117	 1128	 1171	 1167	 1159	 1114	 1064	992.2	944.2	889.8	841.4	781.5	727.4	704.0	780.5	639.8	417.1	327.5	259.3	273.5	488.1	 1070	 6105	9999.9	 3724	41.91	8.731	6.001	4.481	3.673	2.572	2.724	2.217	2.470	2.184	2.327	2.385	2.422	2.739	3.022	3.301	2.864	3.269	3.766	3.866	3.596	3.821	4.460	4.131	4.299	4.041	4.070	4.342	4.523	4.480	4.894	4.591	4.534	4.706	4.659	5.253	4.916	4.753	5.505	5.095	5.401	5.522	5.429
385.0	232.7	405.0	596.0	737.7	844.7	932.6	995.6	 1035	 1045	 1106	 1127	 1154	 1144	 1148	 1099	 1040	982.6	936.3	905.1	860.7	796.4	748.0	707.3	721.4	753.0	525.9	373.7	290.9	233.2	235.5	327.1	 1544	 8462	9999.9	556.9	25.52	7.612	5.556	4.083	2.938	3.179	2.225	2.289	2.615	2.657	2.375	2.664	2.565	2.986	2.989	2.765	3.105	3.761	3.710	3.476	3.742	4.155	4.048	3.898	4.260	4.114	4.513	4.208	4.100	4.090	4.703	4.692	4.693	4.580	4.713	4.828	5.279	4.880	5.407	5.173	5.644	5.479
390.0	240.1	387.1	559.5	728.7	838.0	930.5	982.2	 1020	 1052	 1091	 1124	 1114	 1124	 1101	 1074	 1029	973.7	935.5	909.4	866.6	823.8	782.0	739.1	697.0	708.1	680.9	495.2	350.8	277.4	220.8	196.7	431.0	 2140	 7143	9999.9	 4801	36.52	8.114	5.487	3.796	3.584	2.389	2.624	2.307	2.591	2.640	2.326	2.609	2.743	2.791	2.646	2.962	3.499	3.674	3.439	3.903	4.115	4.029	3.697	4.330	4.271	4.610	4.360	4.357	4.295	4.538	4.529	4.284	4.550	5.010	4.837	4.885	5.023	5.088	4.991	5.311	5.182
395.0	246.1	371.0	532.6	720.9	813.6	916.1	 1002	 1016	 1033	 1055	 1108	 1089	 1077	 1058	 1040	991.9	940.9	929.4	903.5	864.9	838.6	793.5	766.7	711.2	673.7	664.1	662.4	454.2	331.7	264.2	202.5	212.4	557.9	 1657	 4218	9999.9	 3725	48.40	8.315	5.277	4.262	3.551	3.103	2.885	2.529	2.964	2.445	2.965	2.636	2.823	2.358	2.942	3.571	3.537	3.530	3.875	3.894	3.995	3.786	4.148	4.646	4.370	4.102	4.063	4.502	4.481	4.564	4.476	4.428	4.716	4.575	4.575	5.130	5.194	4.990	4.779	5.383
400.0	235.4	347.4	516.6	712.3	823.0	908.6	966.7	 1026	 1046	 1053	 1061	 1072	 1061	 1053	 1009	962.1	930.9	920.2	891.4	858.3	842.8	806.9	772.7	732.0	678.7	637.3	688.2	581.0	389.0	296.8	234.4	185.7	224.1	437.1	 1029	 5727	9999.9	 2960	33.06	7.482	4.889	3.955	3.316	3.074	2.964	3.024	2.677	3.328	2.359	2.666	2.494	3.145	3.466	3.452	3.802	3.871	3.755	4.238	3.891	4.008	4.427	4.504	4.365	3.958	4.168	4.185	4.108	4.617	4.071	4.225	4.726	4.507	4.995	5.220	4.874	5.222	5.023
405.0	228.3	338.5	544.4	681.8	811.1	873.0	968.8	 1010	 1016	 1044	 1044	 1067	 1048	 1023	995.6	943.9	908.5	889.5	867.0	849.2	840.6	816.8	777.4	740.1	695.6	636.7	637.4	658.5	483.3	338.0	269.8	203.8	169.4	179.0	288.9	 1453	 7505	9999.9	467.4	19.31	6.080	4.812	4.057	3.427	2.706	2.742	2.457	2.807	2.548	2.943	2.457	3.005	3.401	3.186	3.907	3.791	4.017	4.041	3.788	3.842	4.142	4.202	4.232	3.726	4.384	4.003	4.170	4.750	4.004	4.118	4.543	4.635	4.567	4.436	4.592	5.131	4.764
410.0	213.0	321.3	524.7	648.6	789.5	858.9	938.8	989.0	 1008	 1032	 1037	 1018	999.0	983.8	959.2	901.8	870.9	860.2	847.8	827.6	817.4	796.8	772.3	750.4	704.8	658.8	614.8	621.5	595.3	447.5	324.8	251.3	189.2	151.3	142.4	379.0	 1890	 6145	 8994	 2036	31.47	7.129	4.666	3.409	3.196	2.556	2.444	2.655	2.720	2.647	2.665	2.827	3.274	3.037	3.471	3.411	4.017	3.808	3.883	3.913	4.078	4.290	4.257	4.044	3.868	4.249	4.100	4.379	4.333	4.036	4.322	4.654	4.512	4.441	4.701	5.035	4.893
415.0	212.1	316.2	490.2	632.0	754.4	860.8	911.2	987.8	 1015	 1027	 1026	 1004	970.1	957.0	916.6	864.2	837.5	815.5	812.2	800.3	793.9	777.5	758.6	739.4	713.3	670.5	627.9	590.0	592.0	575.9	412.7	301.0	230.4	173.3	131.6	155.4	471.5	 1412	 3628	 9807	 3186	43.42	7.556	4.757	3.796	3.367	2.701	2.646	2.852	2.671	2.251	3.081	3.553	3.336	3.541	3.425	3.545	4.335	3.720	3.636	4.107	3.924	4.062	3.822	3.818	4.165	3.874	4.142	3.984	3.744	4.132	4.689	4.134	4.355	4.769	4.249	4.756
420.0	209.8	329.1	477.4	609.5	753.6	828.9	913.1	978.8	 1012	 1041	 1033	987.2	964.5	925.3	884.7	846.7	792.0	791.6	778.8	770.4	763.5	755.3	756.2	732.2	710.0	681.4	639.6	601.1	565.4	592.7	506.3	346.9	257.3	195.3	147.1	117.3	164.0	357.3	874.5	 4899	9999.9	 2493	28.91	6.103	4.619	3.950	2.850	2.635	2.690	2.838	2.692	3.069	3.194	3.331	3.459	3.799	3.722	4.473	4.023	4.342	4.000	3.929	4.005	4.205	4.114	3.990	3.937	3.908	4.084	3.985	3.805	4.440	4.070	4.074	4.557	4.502	4.344
425.0	214.0	316.9	443.0	601.6	739.7	788.9	920.1	960.1	 1005	 1034	 1019	980.7	942.2	900.4	844.8	805.2	774.9	758.8	754.2	750.8	734.8	735.3	733.5	714.6	706.1	687.2	647.2	610.3	574.4	565.6	568.4	420.1	287.5	220.1	164.5	125.9	107.5	130.7	232.4	 1230	 6318	 8927	430.9	15.62	5.734	4.233	2.944	2.862	2.791	2.731	2.522	3.111	3.124	3.168	3.634	3.539	3.450	4.052	4.240	4.752	4.434	3.922	4.376	4.245	4.004	4.119	3.915	3.816	3.827	4.266	3.860	3.965	3.521	4.388	3.795	4.094	4.352
430.0	458.4	288.7	434.7	571.7	697.4	786.2	885.5	959.3	 1016	 1018	 1009	982.4	935.3	874.0	826.0	768.3	737.1	722.6	722.6	714.9	705.4	710.0	707.2	704.8	697.9	682.1	655.0	626.9	592.6	558.3	542.9	497.4	362.9	257.6	192.0	146.5	110.5	91.65	97.86	308.4	 1576	 4942	 6884	 1866	28.54	5.712	3.765	3.484	3.160	2.589	2.436	2.809	3.052	3.176	3.271	3.556	3.660	3.986	3.834	4.297	4.204	4.140	4.226	4.155	3.945	3.882	4.002	4.118	3.650	3.915	3.601	3.929	4.036	3.567	3.440	3.867	4.066
435.0	 1134	375.4	401.4	533.4	703.9	747.6	875.1	949.0	995.7	 1016	997.4	977.2	919.2	849.6	789.7	740.7	704.1	678.7	675.7	673.6	672.6	669.7	685.3	678.7	677.7	677.6	665.1	635.0	622.3	574.3	523.7	493.8	447.6	318.9	222.8	168.9	128.7	99.69	77.78	111.7	384.1	 1131	 2751	 7916	 2879	38.75	5.441	4.646	3.738	3.026	2.938	2.802	3.462	2.995	3.375	3.382	3.622	4.263	4.073	3.890	4.391	3.777	4.303	4.016	4.204	3.806	3.786	4.207	3.997	3.690	3.487	3.608	3.382	3.606	3.658	4.195	3.681
440.0	 1453	723.9	386.7	538.3	663.0	744.6	865.4	952.4	998.7	 1020	 1009	965.9	907.8	824.7	767.7	702.3	671.4	658.2	649.6	648.6	639.6	644.1	652.9	664.1	659.5	659.9	653.6	635.6	617.8	584.8	529.8	481.4	458.4	378.9	252.5	186.3	142.6	109.3	83.63	73.41	122.2	280.2	659.3	 3958	 8405	 2245	24.10	5.862	4.389	3.516	3.138	2.697	3.484	3.224	3.522	3.380	3.290	3.725	4.140	4.196	3.990	4.288	4.564	4.210	4.167	4.301	4.020	4.000	3.590	4.042	3.279	3.259	3.329	3.477	3.837	4.023	3.424
445.0	 1185	 1580	398.0	515.1	640.5	749.9	850.9	916.0	979.6	 1015	985.1	933.3	873.3	806.1	740.9	685.9	643.1	631.6	619.5	622.2	613.0	619.5	633.7	634.3	643.4	649.6	638.3	635.8	620.1	587.5	537.3	474.1	431.8	404.5	295.1	201.8	157.3	122.8	87.82	70.47	69.00	95.73	173.2	988.9	 5311	 7941	360.2	14.97	5.132	3.899	3.602	3.093	3.234	3.278	2.957	3.551	3.355	3.657	4.133	4.019	4.004	4.008	4.484	4.328	4.315	3.708	4.013	4.043	3.714	4.024	3.535	3.106	3.455	3.749	3.657	3.792	3.775
450.0	546.9	 2243	 1075	489.4	594.9	699.0	815.0	885.3	962.8	964.2	952.8	909.2	839.3	769.9	703.6	637.7	597.6	589.0	579.4	577.4	569.1	585.7	593.1	605.7	605.4	614.5	619.5	614.9	601.6	579.3	536.7	473.5	413.9	376.4	332.6	242.5	170.8	133.4	100.6	78.70	64.17	60.07	67.59	243.6	 1326	 4443	 6362	 1639	24.44	5.394	4.095	3.704	3.520	3.374	3.391	3.299	3.575	3.415	3.816	3.982	3.978	3.998	3.868	3.882	3.937	3.651	3.799	3.860	3.502	3.634	3.251	3.190	3.199	3.311	3.429	3.360	3.493
455.0	245.9	 1526	 3566	576.2	554.6	671.9	743.0	827.6	907.7	929.7	924.8	868.6	812.7	722.2	647.7	598.0	555.2	544.5	533.2	529.1	523.3	540.8	549.8	556.2	568.1	576.0	583.7	581.1	573.8	559.0	520.6	470.2	400.9	347.6	315.1	281.4	198.2	144.6	114.1	88.39	71.41	58.81	50.05	81.34	316.2	 1012	 2488	 7083	 2437	29.48	4.978	4.193	4.035	3.837	3.313	3.223	3.371	3.692	3.722	3.904	3.613	4.094	3.883	3.777	3.550	3.388	3.505	3.962	3.440	3.558	3.075	3.067	3.203	2.966	2.715	3.476	3.509
460.0	164.4	709.6	 4656	 1226	534.6	618.7	713.7	812.6	880.5	879.4	890.7	838.8	763.0	695.1	629.8	559.0	522.5	506.1	501.5	497.1	492.0	492.5	508.3	515.8	531.6	538.3	546.2	556.0	551.7	540.5	506.7	454.7	393.8	338.0	292.7	277.5	226.7	155.6	118.8	96.32	75.89	62.02	49.98	48.49	94.89	245.5	590.1	 3471	 7321	 1771	19.09	5.059	4.263	3.522	3.382	3.586	3.704	3.597	3.610	3.654	3.612	3.690	3.310	4.053	3.264	3.324	3.428	3.376	3.139	3.053	2.914	3.013	3.368	2.607	3.153	3.174	3.110
465.0	160.3	322.6	 3714	 2742	548.3	582.3	689.0	745.0	824.3	829.2	833.8	794.2	715.4	666.2	595.9	531.3	491.2	484.1	472.4	460.4	460.2	461.0	472.0	480.7	493.2	508.8	520.4	525.9	520.9	511.3	477.9	437.7	383.0	323.5	277.4	250.9	239.0	177.4	126.5	98.73	82.60	66.16	53.77	44.15	48.99	76.33	150.0	861.5	 4579	 6461	291.8	11.81	4.686	4.027	3.388	3.551	3.433	3.530	3.867	3.681	3.543	3.122	3.560	3.386	3.628	3.217	3.419	3.092	3.015	3.137	3.208	2.632	3.031	2.669	2.880	2.802	2.909
470.0	153.9	226.7	 1602	 4200	 1748	539.7	630.7	689.2	767.2	782.5	774.1	741.3	680.2	614.4	544.2	493.1	451.8	434.1	425.0	413.6	419.4	422.9	430.6	438.9	450.1	465.5	479.1	481.6	480.9	476.9	448.2	412.7	357.9	310.8	262.0	227.8	211.9	193.9	144.7	103.5	85.77	70.38	56.49	45.73	41.24	41.41	54.00	209.1	 1135	 3582	 4718	 1473	23.06	5.003	3.597	3.490	3.776	3.388	3.632	3.534	3.393	3.275	3.321	3.187	3.231	2.981	2.978	3.088	2.907	2.910	2.800	2.429	2.772	2.688	2.703	2.462	2.684
475.0	141.0	192.9	563.5	 2752	 4719	663.3	554.7	623.3	700.1	715.8	699.5	674.3	623.3	560.0	491.8	441.9	414.0	385.5	374.7	372.4	375.4	370.7	377.5	386.7	396.4	416.9	427.9	431.3	433.1	431.8	410.5	374.7	335.5	291.3	251.3	212.6	183.6	175.1	160.9	119.1	88.90	73.26	59.31	49.21	41.30	36.51	34.92	64.80	267.0	812.8	 1789	 4862	 2092	31.61	4.715	3.821	3.711	3.488	3.245	3.134	2.883	2.822	2.886	2.754	3.001	3.161	2.408	2.834	2.912	2.623	2.574	2.302	2.849	2.270	2.351	2.365	2.353
480.0	132.0	172.3	314.7	 1145	 5800	 1115	526.0	597.1	646.3	666.4	661.5	633.4	565.4	528.5	466.5	409.2	377.1	356.8	353.6	344.5	337.9	343.1	347.9	352.2	360.1	377.3	391.3	399.3	404.4	401.8	381.7	351.3	315.4	277.4	237.7	203.6	171.3	154.2	157.8	134.5	92.85	73.04	60.07	53.25	43.15	36.95	31.61	34.15	75.11	194.2	421.8	 2205	 5107	 1597	19.45	4.586	3.615	3.751	3.385	2.861	3.380	2.892	2.993	2.641	3.048	3.063	2.370	2.380	2.590	2.834	2.393	2.345	2.376	2.117	2.040	2.322	2.210
485.0	117.9	189.5	248.3	500.7	 4298	 3348	534.4	541.9	580.7	616.3	605.3	588.8	533.8	493.8	428.5	382.8	347.3	336.7	322.6	318.0	314.5	318.8	322.9	324.9	343.1	349.8	360.7	367.9	369.2	366.7	357.6	328.9	293.7	261.5	223.4	192.9	166.8	145.7	136.1	138.0	105.6	77.27	61.52	53.41	45.70	38.29	32.79	28.28	33.36	56.57	105.7	538.7	 3021	 4644	333.4	9.177	3.958	3.642	3.166	2.798	3.100	2.762	2.849	2.835	2.713	2.996	2.607	2.615	2.258	2.546	1.884	2.200	2.189	2.110	1.991	2.103	2.162
490.0	101.3	173.7	227.6	306.3	 1632	 4626	 2009	484.3	537.7	560.1	575.1	547.0	495.5	445.9	388.9	348.7	318.5	299.5	290.3	284.8	282.2	281.7	290.7	292.0	302.9	314.5	323.4	328.1	334.0	329.7	320.9	299.3	269.7	242.4	209.3	179.3	154.6	137.6	121.3	119.9	116.3	88.61	65.67	54.93	47.63	39.82	33.41	28.61	26.10	27.59	35.61	130.5	738.6	 2384	 3183	 1339	23.40	4.559	3.356	3.016	3.143	2.629	2.630	2.437	2.586	2.623	2.460	2.402	2.192	2.169	2.064	2.069	1.956	1.893	1.665	1.892	2.090
495.0	77.59	137.9	226.6	243.5	581.8	 2829	 5737	630.7	480.3	506.2	502.7	492.6	443.7	404.7	345.1	308.7	285.9	268.1	260.2	253.6	247.3	250.2	252.5	266.3	268.4	275.9	287.5	287.4	297.5	295.5	287.3	265.1	242.5	216.1	187.8	168.9	146.1	125.3	112.9	102.0	101.1	98.57	74.45	55.03	46.25	40.64	34.06	30.38	26.33	22.79	21.29	39.55	173.4	540.8	 1266	 4072	 2123	31.29	4.261	3.258	2.999	2.721	2.747	2.425	2.436	2.272	2.202	2.190	2.090	1.796	1.777	1.781	1.908	1.814	1.869	1.628	1.838
500.0	65.55	112.0	213.4	237.7	320.9	 1115	 6266	 1463	434.6	457.1	473.2	449.5	413.2	368.2	320.1	279.4	264.7	246.1	228.5	231.6	220.7	229.3	228.5	237.0	236.9	251.0	256.4	263.6	270.7	273.0	260.5	243.0	223.1	198.7	174.3	153.8	135.5	116.4	105.9	92.76	87.02	93.10	81.24	57.08	47.68	40.61	34.83	29.85	25.70	22.36	17.69	20.18	47.96	128.6	297.1	 1815	 4569	402.3	20.87	3.610	2.967	2.701	2.834	2.225	2.415	2.292	2.050	2.115	2.047	1.705	1.635	1.492	1.727	1.543	1.617	1.464	1.682
505.0	61.41	100.9	184.8	242.3	267.3	479.9	 4025	 3113	458.2	436.0	428.8	420.6	379.1	333.8	290.8	260.3	246.9	223.2	212.9	208.0	207.4	205.6	208.1	218.2	217.8	223.8	235.0	238.6	245.1	244.4	238.1	224.7	202.0	184.1	160.4	145.1	126.6	112.0	97.99	87.89	79.59	78.60	83.01	64.05	47.32	40.32	34.94	30.65	25.43	21.34	17.89	15.79	19.69	37.10	73.49	436.7	 2561	 4062	352.3	8.383	3.278	3.193	2.658	2.125	1.982	2.313	1.950	1.917	1.772	1.878	1.349	1.391	1.666	1.568	1.417	1.459	1.553
510.0	60.86	91.93	141.9	242.4	234.9	303.9	 1486	 3950	 1478	388.8	381.8	376.1	338.0	295.2	264.2	229.8	215.1	200.4	192.3	182.7	182.3	181.6	185.8	190.4	190.7	197.5	204.9	207.8	211.2	214.3	211.8	199.2	177.6	160.7	145.2	129.5	112.0	100.4	89.91	80.87	73.04	67.84	70.03	68.51	52.29	40.72	34.04	29.78	24.77	21.61	17.67	15.02	13.33	16.03	22.95	104.1	619.9	 2105	 2967	 1264	21.85	3.648	2.677	2.401	2.353	1.969	2.067	1.800	1.736	1.604	1.449	1.413	1.451	1.501	1.470	1.313	1.387
515.0	55.73	69.76	114.2	198.7	257.5	234.9	514.0	 2140	 4057	535.6	333.1	327.0	297.5	264.7	228.6	204.9	184.8	170.8	167.6	163.4	160.3	155.9	161.7	160.4	167.0	169.1	175.2	177.1	183.5	181.5	182.8	169.4	154.1	142.5	127.6	114.3	104.4	91.74	82.69	74.28	67.92	60.51	57.21	59.66	58.76	44.76	32.24	28.59	24.68	21.24	17.19	15.26	12.60	11.54	11.64	29.09	143.5	475.4	 1107	 3391	 1737	28.14	3.168	2.501	2.203	1.907	1.738	1.615	1.344	1.277	1.503	1.025	1.099	1.228	1.173	1.389	1.238
520.0	49.79	64.20	96.62	151.5	274.7	209.9	292.1	839.8	 4697	 1733	299.2	285.8	268.9	231.9	206.8	190.7	166.9	155.8	153.1	144.9	142.2	142.1	145.0	140.4	148.4	150.4	153.8	156.5	160.6	161.5	159.2	151.2	139.4	130.7	114.0	103.4	93.11	84.32	75.77	67.82	60.21	55.11	51.63	50.32	54.23	47.80	34.19	27.88	23.82	21.26	17.23	14.80	12.84	10.62	9.385	12.30	37.81	111.4	258.6	 1514	 3546	395.1	15.92	2.250	2.305	1.983	1.910	1.549	1.543	1.347	1.371	0.984	1.111	1.058	1.122	0.992	0.970
525.0	44.84	59.58	87.59	127.0	243.4	211.5	222.1	374.7	 3228	 4335	330.1	261.0	234.4	213.7	192.1	180.0	156.9	145.5	134.9	130.7	127.5	130.6	128.7	129.7	130.1	134.1	139.3	142.0	145.1	146.6	142.5	137.9	125.2	117.2	106.6	93.49	83.81	77.97	70.70	62.60	55.87	51.54	47.36	44.22	46.19	49.77	37.72	28.55	23.14	20.29	16.60	15.14	12.89	10.92	8.768	8.832	13.82	30.04	62.81	363.7	 1986	 3003	325.8	5.661	2.490	1.801	2.043	1.158	1.586	1.301	1.225	1.045	1.199	1.170	0.983	0.901	0.982
530.0	38.16	54.23	80.01	107.4	180.3	229.4	191.4	231.4	 1152	 7305	 1562	247.6	215.5	185.7	173.5	151.8	135.5	125.3	114.8	114.5	112.6	111.5	109.6	113.1	112.4	117.6	121.2	123.4	123.6	124.8	126.6	119.8	110.5	103.3	90.49	83.45	74.75	69.27	62.45	56.47	50.60	46.26	42.06	38.41	37.80	40.79	41.30	31.36	22.23	18.69	16.09	14.24	12.07	10.41	8.748	7.942	8.773	11.80	18.88	85.42	480.9	 1558	 2275	928.8	20.29	2.378	1.893	1.383	1.308	1.227	1.217	0.974	1.018	0.925	1.031	0.882	0.950
535.0	33.06	60.42	69.08	80.56	127.4	206.3	201.0	185.5	405.5	 4030	 4661	411.8	187.8	171.5	147.3	128.3	120.6	106.0	104.0	96.17	94.54	96.27	96.80	97.47	96.54	99.63	99.01	105.6	106.9	105.0	106.5	102.4	95.18	89.52	79.03	69.09	64.94	60.46	52.73	49.07	44.48	41.26	37.60	34.55	31.86	31.17	35.15	34.41	23.87	17.91	15.76	13.84	11.26	9.757	8.766	8.101	7.207	7.872	8.972	22.97	111.2	351.7	841.6	 2444	415.9	25.15	2.346	1.277	1.409	1.182	1.033	0.846	0.895	0.906	1.020	0.953	0.994
540.0	31.15	52.66	59.59	87.24	111.4	172.1	226.6	162.1	221.7	 1288	 5164	 2825	171.4	156.2	134.6	118.3	101.7	96.21	93.47	89.19	86.90	83.29	84.79	85.94	85.08	90.41	89.96	92.40	93.67	93.94	95.44	91.13	82.71	77.78	67.27	63.03	56.78	53.85	48.76	45.18	39.59	38.45	33.67	31.67	28.83	25.92	28.46	32.21	26.76	17.87	14.61	12.49	10.68	9.521	9.070	7.754	6.932	6.542	6.219	8.726	28.80	82.15	195.8	 1116	 2331	372.5	9.659	1.727	1.531	1.149	1.008	0.862	0.824	0.684	0.868	0.864	0.602
545.0	37.40	47.36	61.05	76.66	85.98	130.7	227.5	153.6	171.2	429.6	 3217	 8180	203.6	135.0	119.3	106.7	91.13	84.93	80.41	77.80	76.68	75.63	75.32	73.22	77.25	77.72	81.61	81.26	82.01	85.08	84.71	81.65	74.86	67.66	62.03	57.30	50.41	47.98	43.28	41.50	37.37	34.42	30.39	28.92	25.02	23.28	24.20	26.58	27.55	19.80	13.61	11.85	10.35	9.489	8.352	7.536	7.056	6.431	5.694	6.208	10.06	21.96	47.18	268.5	 1405	 2092	54.25	3.468	1.807	1.476	0.964	0.772	0.882	0.840	0.909	0.589	0.671
550.0	30.76	34.42	54.07	63.26	75.85	98.62	177.2	180.5	139.7	205.9	 1052	 7414	 1380	120.9	98.73	88.57	79.75	73.81	68.27	66.40	66.70	62.62	65.06	63.67	64.27	66.44	67.84	68.08	69.62	71.45	69.41	66.86	62.24	56.93	52.94	47.40	43.64	41.72	37.75	34.64	33.04	30.09	27.13	25.48	22.39	20.61	19.34	20.05	22.23	21.40	15.10	11.05	9.126	7.983	7.521	6.947	6.735	6.213	5.560	5.108	5.674	8.121	13.47	62.77	342.8	 1123	 1519	588.4	16.76	1.858	1.299	1.046	0.900	0.679	0.633	0.612	0.653
555.0	30.13	36.29	45.03	57.34	56.82	68.50	119.1	201.6	121.8	138.2	328.0	 2733	 4474	243.4	83.38	74.35	66.21	62.03	58.68	55.73	52.71	52.75	53.21	52.10	52.66	52.54	56.26	53.79	57.68	58.56	57.13	55.16	50.85	45.54	41.86	40.34	35.57	34.43	31.07	28.36	26.27	24.51	21.88	21.26	19.62	17.10	16.33	15.86	15.80	19.18	16.32	11.38	8.175	7.393	6.651	6.226	6.135	5.842	5.739	4.836	5.079	5.188	5.752	16.63	79.50	253.8	603.0	 1641	391.1	17.67	1.836	1.017	0.639	0.650	0.617	0.595	0.464
560.0	29.61	41.70	42.60	49.33	56.82	57.13	93.17	165.2	141.1	111.9	159.6	819.8	 4839	 1293	76.72	66.11	54.02	51.11	50.48	44.38	44.84	43.07	43.09	44.45	43.26	44.89	47.93	44.40	48.08	50.10	47.66	44.18	43.99	38.14	36.86	33.30	30.80	29.24	26.51	24.53	22.66	21.20	20.02	17.88	16.80	15.28	13.78	12.84	12.11	14.13	15.52	12.40	7.991	7.039	5.719	5.520	5.778	5.678	5.651	5.255	5.004	4.644	4.888	7.059	20.75	60.18	142.7	786.4	 1496	303.6	5.366	1.411	1.036	0.815	0.674	0.739	0.501
565.0	30.59	37.81	36.69	42.01	48.59	55.07	62.91	129.8	162.3	100.7	106.9	264.8	 2875	 2831	90.46	57.29	49.36	42.56	44.32	41.59	40.66	37.11	36.72	37.93	37.31	37.18	37.99	39.53	41.39	40.98	41.04	37.68	36.57	32.76	31.06	27.56	25.38	24.49	22.42	22.18	19.64	17.89	16.92	15.29	14.39	13.68	11.84	11.59	10.38	10.71	12.61	12.21	8.097	6.742	5.281	5.390	5.511	4.714	5.547	5.401	5.001	4.518	4.979	4.824	8.362	16.90	35.19	194.7	964.1	 1245	50.76	2.364	1.501	1.108	0.828	0.642	0.527
570.0	31.45	35.52	36.79	37.35	44.08	45.66	50.33	80.46	163.4	116.6	89.49	129.1	881.7	 4009	 1024	52.36	39.73	35.72	35.93	33.69	30.57	31.44	29.90	30.17	28.74	29.37	30.66	32.67	32.48	33.00	33.00	30.22	29.39	26.66	24.93	22.71	21.16	19.94	18.21	17.14	15.93	14.67	13.17	12.57	11.55	11.36	10.37	10.01	8.635	7.924	8.291	10.16	9.071	6.801	5.217	4.862	5.120	4.637	4.664	4.950	5.305	5.411	4.964	4.874	5.885	7.555	11.57	47.13	241.3	711.2	883.6	219.2	11.14	1.128	0.742	0.455	0.576
575.0	25.75	31.97	42.94	39.58	41.04	39.49	42.23	57.32	122.7	151.1	82.98	96.30	257.0	 1693	 3711	137.1	33.87	30.12	28.12	26.59	25.65	26.06	23.12	23.92	23.52	23.85	25.90	24.87	25.25	25.62	24.03	24.58	23.34	21.71	18.52	18.83	17.06	15.43	14.57	13.74	12.72	12.16	10.69	9.769	9.584	9.613	8.478	7.933	7.273	6.707	6.172	6.636	8.011	7.092	5.216	4.472	4.170	4.110	4.444	4.542	4.843	5.150	5.264	5.184	5.705	5.633	6.399	14.13	56.75	162.6	379.0	918.7	303.8	7.675	0.740	0.525	0.371
580.0	37.08	28.18	39.30	37.66	35.95	35.05	40.32	51.42	79.54	171.3	88.87	81.07	113.2	512.1	 4130	901.5	29.03	25.53	23.87	21.94	21.66	21.21	19.70	19.85	20.65	19.98	22.24	21.32	21.23	21.36	20.69	20.21	18.88	17.94	16.07	13.94	14.11	13.05	12.12	11.12	10.23	10.34	9.623	8.656	7.678	8.271	7.312	6.948	5.875	5.350	5.184	5.339	6.464	6.858	5.593	4.317	4.340	3.921	4.220	4.098	4.720	4.537	5.235	4.854	5.312	5.077	4.750	6.232	15.69	39.15	92.04	485.8	856.4	55.01	2.225	0.543	0.460
585.0	33.93	30.77	42.92	33.94	31.07	31.82	37.16	44.53	58.06	158.2	113.3	75.04	77.35	163.6	 2389	 2046	43.71	22.75	20.57	20.31	17.66	17.64	18.12	16.18	17.34	16.23	18.03	17.84	18.73	17.91	18.03	16.86	17.40	15.95	12.89	12.94	12.55	10.83	10.85	9.637	8.924	8.306	7.866	7.315	6.866	6.977	6.367	5.645	5.407	4.402	4.458	4.027	4.653	6.284	5.604	4.429	3.750	3.581	3.806	3.678	3.958	4.406	4.840	4.442	4.368	4.309	3.754	4.294	6.214	10.90	22.71	122.7	579.8	649.6	42.75	0.889	0.635
590.0	26.74	33.68	36.03	35.42	27.26	28.00	34.68	39.34	48.77	96.65	154.2	86.60	71.41	80.35	701.5	 3071	704.6	22.72	17.88	15.84	16.64	14.99	14.13	13.80	14.15	13.68	13.35	14.37	14.60	14.49	14.13	13.74	13.65	12.50	10.96	10.32	9.886	8.962	8.583	8.105	7.270	6.919	6.330	6.061	5.553	5.273	5.029	4.665	4.434	3.940	3.723	3.356	3.482	4.110	4.870	4.545	3.822	3.129	3.193	3.034	3.037	3.543	3.739	4.226	3.774	3.451	3.028	3.542	3.803	4.281	6.821	28.76	147.0	414.2	470.4	163.8	6.109
595.0	26.29	28.63	33.33	29.35	24.50	24.78	29.84	39.53	43.02	60.68	144.6	109.6	67.86	65.31	189.9	 1277	 2630	76.10	14.29	13.46	12.61	12.17	11.69	10.72	11.10	10.90	11.60	11.23	12.53	10.73	10.86	10.83	9.923	10.28	8.924	8.302	7.431	7.756	6.776	6.606	6.182	5.532	5.088	4.818	4.001	4.353	4.261	3.612	3.676	3.302	2.957	2.891	2.526	2.635	3.880	4.408	3.679	2.976	2.588	2.623	2.464	2.710	2.750	2.858	3.206	2.820	2.433	2.533	2.719	2.266	2.703	7.615	33.63	93.98	223.9	539.4	59.16
600.0	28.03	30.92	24.04	30.68	21.34	26.33	28.94	31.89	39.28	55.17	109.5	124.4	70.10	54.35	72.95	370.4	 2972	544.4	12.86	11.39	9.628	11.57	9.551	10.02	9.223	8.651	10.40	9.120	9.582	9.351	9.815	9.550	8.492	7.993	7.238	7.596	6.374	6.075	5.447	5.224	5.425	5.198	4.289	3.659	3.504	4.116	3.778	3.161	3.166	2.938	2.570	2.310	2.224	2.125	2.741	3.428	3.722	3.093	2.210	2.351	2.230	2.373	2.574	2.419	2.481	2.886	2.207	2.055	2.235	1.803	1.639	2.741	8.257	21.51	54.28	299.9	460.3
605.0	29.22	30.58	32.32	26.18	26.43	25.30	30.06	28.27	41.57	48.19	86.54	147.8	80.48	55.94	45.91	108.9	 1746	 1495	21.28	10.99	10.10	8.582	8.511	8.564	7.704	7.575	8.296	7.792	8.161	7.925	7.704	7.659	7.328	7.275	6.237	6.291	5.506	4.845	5.001	4.732	4.798	4.062	3.556	3.942	2.918	3.165	3.139	2.591	2.663	2.582	2.338	2.036	1.738	1.714	2.112	2.642	3.672	3.050	1.705	2.026	1.645	1.706	2.102	2.364	1.893	2.543	2.275	1.977	1.504	1.589	1.082	1.414	2.527	5.463	12.96	77.07	340.8
610.0	21.62	29.39	29.85	23.44	22.92	23.02	27.15	33.44	39.52	50.95	70.37	127.2	109.4	60.80	42.66	46.23	508.5	 2243	500.5	10.90	8.166	7.941	7.138	7.084	6.193	6.822	6.225	6.452	6.832	6.238	6.715	6.039	5.755	5.368	4.934	4.808	4.457	3.904	4.160	3.586	3.889	3.392	3.121	2.933	2.673	2.386	2.531	2.458	2.195	2.094	1.846	1.784	1.524	1.440	1.369	1.736	2.437	2.651	2.096	1.983	1.488	1.634	1.671	1.748	1.563	1.950	1.865	1.939	1.450	1.277	0.898	1.074	1.193	1.740	3.421	17.54	87.09
615.0	24.65	28.65	26.01	25.00	23.33	20.24	24.06	29.22	36.82	48.37	58.51	86.19	122.2	63.26	42.24	31.74	127.9	954.8	 1926	44.50	7.601	7.004	5.817	6.169	5.561	5.175	5.256	5.019	5.002	5.454	5.204	4.635	3.889	4.484	4.271	4.185	3.599	3.268	3.405	3.082	2.439	2.772	2.361	2.252	2.158	1.999	2.037	1.895	1.660	1.806	1.497	1.259	1.189	1.211	1.172	1.533	1.456	2.052	2.269	1.776	1.274	1.386	1.290	1.533	1.283	1.517	1.475	1.771	1.340	1.195	0.800	0.822	0.848	0.778	1.254	4.411	19.80
620.0	24.90	14.68	25.54	24.41	20.54	16.68	24.17	28.35	32.88	42.75	53.39	68.72	121.8	73.31	39.85	30.01	43.45	274.8	 2226	152.8	7.811	5.932	5.902	5.522	5.340	4.479	4.220	4.564	4.364	4.331	4.074	4.575	3.471	4.185	3.503	3.342	2.906	2.883	2.671	2.802	2.106	2.635	2.187	2.040	1.865	2.031	1.480	1.592	1.326	1.603	1.415	1.241	1.227	1.015	0.980	1.303	1.143	1.324	1.840	1.732	1.354	1.216	1.211	1.311	1.147	1.525	1.355	1.109	1.516	1.189	0.579	0.754	0.811	0.304	0.905	1.424	4.932
625.0	25.09	23.93	26.31	27.00	21.92	18.94	24.09	27.97	34.43	42.88	51.60	64.45	99.80	95.63	38.77	29.97	24.39	73.80	 1348	 1107	12.12	5.465	4.988	4.565	3.911	4.032	3.841	3.599	4.157	4.054	3.893	3.389	3.523	3.836	2.751	2.810	2.744	2.511	2.474	2.365	1.597	1.777	1.874	1.825	1.670	1.412	1.461	1.257	1.311	1.379	1.261	0.886	1.061	0.835	0.744	0.827	0.925	1.203	1.290	1.807	1.437	1.037	1.043	1.068	1.254	1.208	1.087	1.000	1.197	1.254	0.822	0.802	0.689	0.489	0.844	0.652	1.397
630.0	23.31	22.11	27.78	23.21	20.68	21.55	22.40	25.05	33.57	44.70	50.51	62.78	73.47	103.2	49.56	29.90	20.19	27.50	392.0	 1734	346.8	5.460	4.751	3.898	3.632	3.493	3.423	3.074	3.370	3.499	3.299	3.283	2.808	2.873	2.273	2.409	1.983	2.131	1.963	1.911	1.594	1.689	1.690	1.376	1.413	1.259	1.180	0.976	1.139	1.060	0.962	0.769	0.743	0.763	0.789	0.720	0.790	0.816	1.198	1.255	1.421	1.038	0.879	0.987	1.022	0.979	0.815	0.781	0.999	0.984	1.140	0.707	0.586	0.383	0.452	0.409	0.609
635.0	12.88	18.66	29.82	27.40	23.83	21.53	20.69	25.61	32.66	37.37	46.75	56.20	61.11	84.34	73.26	30.62	19.14	16.97	96.31	777.7	 1422	27.82	3.580	4.116	3.029	3.128	4.099	2.804	2.902	2.815	2.790	2.703	2.987	2.367	2.069	2.253	1.762	2.046	1.577	1.543	1.173	1.622	1.283	1.149	0.948	1.233	1.082	0.992	1.072	0.922	0.750	0.757	0.682	0.650	0.670	0.636	0.677	0.711	0.898	0.727	1.040	1.101	0.926	0.789	0.918	0.822	0.607	0.757	0.745	0.642	0.942	0.802	0.435	0.454	0.306	0.396	0.490
640.0	14.50	15.87	25.44	28.20	24.32	16.00	19.68	22.11	34.49	35.64	44.86	52.83	57.35	67.50	83.91	34.95	17.88	15.16	29.31	226.5	 1744	124.1	4.716	3.510	3.163	2.738	3.434	2.518	2.341	2.592	2.360	2.222	2.251	1.806	1.832	1.697	1.748	1.763	1.475	1.362	1.036	1.301	1.227	1.144	0.836	0.987	0.949	0.890	0.984	1.007	0.667	0.720	0.444	0.379	0.614	0.455	0.539	0.541	0.834	0.663	0.873	0.915	1.082	0.543	0.724	0.753	0.753	0.634	0.545	0.574	0.618	0.762	0.467	0.562	0.284	0.512	0.173
645.0	15.73	17.62	28.13	24.50	18.96	16.69	21.43	24.62	31.71	37.52	45.88	52.41	62.58	62.81	81.58	44.51	19.66	14.07	13.82	59.28	 1138	869.4	7.994	3.136	2.722	2.436	2.423	2.494	2.125	2.158	2.701	1.904	2.034	1.709	1.475	1.621	1.177	1.601	1.406	1.130	1.226	0.990	1.028	0.894	1.001	1.126	0.771	1.118	0.687	0.736	0.779	0.423	0.615	0.551	0.427	0.651	0.776	0.495	0.502	0.590	0.856	0.844	0.751	0.572	0.760	0.577	0.694	0.472	0.655	0.586	0.470	0.529	0.797	0.504	0.439	0.348	0.230
650.0	25.65	19.13	31.54	28.30	18.45	19.36	16.14	25.16	29.58	35.17	43.33	55.14	58.82	53.31	69.60	56.08	22.61	14.37	12.51	20.22	408.5	 1507	61.99	2.885	2.841	2.497	1.963	2.157	1.967	2.301	1.953	1.966	1.618	1.642	1.709	1.313	1.580	1.604	1.249	0.863	1.108	0.900	0.947	0.833	0.796	1.192	0.716	0.835	0.760	0.418	0.552	0.604	0.516	0.496	0.472	0.418	0.618	0.586	0.572	0.555	0.856	0.512	0.834	0.591	0.662	0.503	0.544	0.537	0.442	0.530	0.334	0.602	0.714	0.601	0.314	0.387	0.123
