Sample:	'1
File name:	H2025082703Ñø¼¦³¡¶«²à.FD3
Run date:	'20:05:46, 08/27/2025
Operator:	Administrator
Comment:	'

Instrument
Model:	F-2700 FL Spectrophotometer
Serial number:	23C7-003
ROM Version:	4J14000 07

Instrument parameters
Measurement type:	3-D scan
Data mode:	Fluorescence
EX  Start WL:	220.0 nm
EX  End WL:	600.0 nm
EX Sampling interval:	5.0 nm
EM  Start WL:	230.0 nm
EM  End WL:	650.0 nm
EM Sampling interval:	5.0 nm
Scan speed:	12000 nm/min
EX Slit:	5.0 nm
EM Slit:	5.0 nm
PMT Voltage:	700 V
Response:	Auto 
Corrected spectra:	Off
Contour interval:	50.000

Peak integration
Integration method:	Rectangular
Sensitivity:	1
Threshold:	1.000

Peaks
No.	ApexEX/EM(nm)	Height(Data)
1	225.0/615.0	28.17
2	225.0/630.0	22.34
3	250.0/415.0	1489
4	255.0/285.0	232.3
5	265.0/435.0	1448
6	270.0/595.0	85.13
7	275.0/310.0	801.2
8	275.0/610.0	74.11
9	280.0/315.0	815.5
10	280.0/625.0	60.60
11	285.0/320.0	788.1
12	285.0/635.0	45.73
13	315.0/405.0	1432
14	545.0/305.0	3.896

Data points
	220.0	225.0	230.0	235.0	240.0	245.0	250.0	255.0	260.0	265.0	270.0	275.0	280.0	285.0	290.0	295.0	300.0	305.0	310.0	315.0	320.0	325.0	330.0	335.0	340.0	345.0	350.0	355.0	360.0	365.0	370.0	375.0	380.0	385.0	390.0	395.0	400.0	405.0	410.0	415.0	420.0	425.0	430.0	435.0	440.0	445.0	450.0	455.0	460.0	465.0	470.0	475.0	480.0	485.0	490.0	495.0	500.0	505.0	510.0	515.0	520.0	525.0	530.0	535.0	540.0	545.0	550.0	555.0	560.0	565.0	570.0	575.0	580.0	585.0	590.0	595.0	600.0
230.0	35.77	846.6	1477	297.2	8.808	3.340	3.277	3.767	3.108	3.263	2.845	3.039	2.687	2.869	2.385	2.226	2.119	1.908	2.021	1.784	1.715	1.579	1.574	1.443	1.337	1.182	1.135	0.971	1.003	0.935	0.835	0.800	0.705	0.672	0.530	0.522	0.449	0.391	0.351	0.318	0.372	0.315	0.337	0.300	0.261	0.289	1.254	4.310	6.520	4.275	1.257	0.279	0.170	0.174	0.160	0.154	0.162	0.153	0.139	0.128	0.122	0.128	0.127	0.106	0.109	0.165	0.133	0.127	0.122	0.118	0.105	0.106	0.102	0.081	0.090	0.090	0.082
235.0	28.14	245.8	1348	1866	345.9	12.98	4.559	5.183	3.707	3.956	3.344	3.560	2.696	2.775	2.973	2.559	1.937	1.997	2.073	2.012	1.924	1.696	1.584	1.449	1.403	1.266	1.082	0.920	0.926	0.882	1.037	0.794	0.792	0.655	0.504	0.569	0.463	0.420	0.424	0.398	0.339	0.303	0.365	0.423	0.287	0.290	0.434	1.271	3.270	5.911	7.682	6.638	2.564	0.362	0.188	0.154	0.160	0.145	0.168	0.136	0.111	0.133	0.148	0.132	0.136	0.144	0.135	0.127	0.138	0.164	0.142	0.119	0.117	0.087	0.110	0.077	0.160
240.0	42.50	75.05	479.7	2157	2238	260.3	7.019	5.728	4.227	4.247	3.585	3.446	3.330	3.119	2.767	2.529	2.045	2.137	2.057	2.183	1.702	1.802	1.613	1.575	1.340	1.251	1.119	1.099	1.072	1.014	0.923	0.715	0.634	0.614	0.564	0.552	0.472	0.448	0.520	0.362	0.294	0.294	0.289	0.376	0.349	0.286	0.355	0.412	0.943	2.201	5.565	11.62	12.32	6.774	1.808	0.215	0.157	0.160	0.133	0.168	0.149	0.146	0.154	0.135	0.144	0.132	0.162	0.109	0.120	0.131	0.124	0.116	0.102	0.101	0.080	0.119	0.168
245.0	45.98	58.84	125.1	937.8	3140	2272	177.3	6.585	5.301	4.753	4.376	4.083	3.176	2.962	2.812	2.718	2.427	2.332	2.109	2.194	1.786	1.766	1.461	1.596	1.473	1.447	1.188	1.223	1.070	0.955	0.926	0.924	0.695	0.551	0.559	0.554	0.501	0.455	0.430	0.375	0.302	0.306	0.280	0.345	0.283	0.315	0.416	0.289	0.377	0.650	1.564	5.440	11.92	17.32	13.68	5.591	0.973	0.167	0.109	0.150	0.147	0.119	0.120	0.139	0.126	0.110	0.167	0.105	0.106	0.118	0.104	0.105	0.131	0.101	0.102	0.091	0.148
250.0	20.41	52.25	88.63	239.5	1184	3233	3274	806.4	33.54	5.582	5.541	4.736	4.034	3.438	3.060	3.020	2.490	2.456	2.284	2.199	1.716	1.957	1.707	1.640	1.589	1.465	1.258	1.314	1.193	1.135	0.949	0.819	0.799	0.614	0.557	0.554	0.469	0.485	0.467	0.340	0.399	0.319	0.279	0.343	0.307	0.332	0.330	0.376	0.462	0.426	0.561	1.411	3.296	7.376	12.62	17.27	18.61	12.65	5.589	1.201	0.213	0.167	0.152	0.125	0.123	0.137	0.127	0.135	0.124	0.128	0.110	0.130	0.105	0.124	0.148	0.095	0.149
255.0	11.40	23.92	73.67	137.9	289.9	895.4	3752	5462	1154	25.65	7.478	5.718	4.906	4.091	3.600	3.301	2.849	2.609	2.669	2.393	1.955	1.935	1.858	1.612	1.720	1.435	1.277	1.224	1.199	1.132	0.906	0.910	0.818	0.633	0.629	0.525	0.493	0.449	0.415	0.340	0.413	0.337	0.304	0.283	0.309	0.256	0.335	0.274	0.365	0.483	0.559	0.667	0.949	1.796	2.970	4.815	11.42	24.64	32.13	20.83	7.665	0.886	0.277	0.203	0.134	0.133	0.125	0.138	0.142	0.122	0.097	0.162	0.117	0.163	0.124	0.112	0.160
260.0	11.95	13.78	35.33	121.3	138.4	217.3	1282	5867	5891	205.1	15.69	7.770	6.634	4.754	4.041	3.700	3.141	2.996	2.546	2.380	2.302	2.004	1.948	1.576	1.586	1.587	1.454	1.253	1.252	1.176	0.938	1.001	0.777	0.615	0.489	0.698	0.601	0.625	0.429	0.412	0.417	0.335	0.332	0.337	0.352	0.301	0.302	0.227	0.280	0.292	0.480	0.773	0.678	0.629	0.889	1.264	2.879	8.289	21.78	38.06	27.66	18.19	4.266	0.390	0.174	0.180	0.161	0.138	0.127	0.140	0.130	0.151	0.179	0.099	0.103	0.158	0.200
265.0	11.06	12.18	17.97	68.43	145.5	100.8	308.6	2314	7841	5495	161.2	12.74	8.365	5.717	5.172	3.734	3.251	3.244	2.736	2.653	2.328	2.189	2.195	1.729	1.535	1.524	1.653	1.415	1.310	1.129	1.044	1.058	0.826	0.710	0.528	0.667	0.465	0.515	0.412	0.356	0.390	0.383	0.299	0.357	0.350	0.324	0.220	0.212	0.213	0.210	0.289	0.538	0.805	0.834	0.634	0.478	0.785	2.054	5.686	15.55	32.75	49.75	26.11	13.35	1.716	0.249	0.270	0.168	0.127	0.177	0.131	0.116	0.152	0.104	0.159	0.152	0.176
270.0	12.30	12.95	12.16	24.79	79.71	145.1	135.0	552.4	2810	7757	8018	687.6	41.31	8.952	6.131	4.879	4.171	3.466	3.117	2.958	2.464	2.325	2.203	1.960	1.750	1.680	1.638	1.584	1.293	1.204	1.129	1.078	0.925	0.736	0.570	0.609	0.501	0.548	0.450	0.434	0.416	0.421	0.357	0.330	0.378	0.305	0.238	0.266	0.210	0.225	0.236	0.301	0.434	0.623	0.728	0.772	0.674	0.729	1.454	3.705	8.621	19.68	31.02	46.33	42.18	17.28	8.715	1.734	0.266	0.181	0.149	0.166	0.158	0.164	0.180	0.147	0.137
275.0	20.31	14.89	12.78	13.98	25.47	85.12	197.1	193.6	650.4	2077	8524	9999.9	987.3	38.79	9.371	7.043	5.027	4.021	3.558	3.205	2.804	2.767	2.485	2.074	1.698	1.762	1.837	1.577	1.403	1.217	1.106	1.195	1.003	0.827	0.678	0.707	0.518	0.515	0.564	0.453	0.493	0.428	0.376	0.353	0.425	0.317	0.307	0.318	0.304	0.234	0.238	0.230	0.267	0.323	0.355	0.617	1.160	1.164	0.827	1.162	2.130	4.725	7.154	12.28	24.93	56.45	75.30	25.99	11.44	1.033	0.268	0.200	0.240	0.192	0.172	0.169	0.154
280.0	23.78	22.64	18.71	16.06	16.11	34.01	151.4	218.2	192.1	498.0	2680	9999.9	8747	699.4	18.91	9.515	6.399	5.212	4.103	3.750	3.390	2.691	2.731	2.169	1.902	1.928	1.667	1.667	1.519	1.356	1.190	1.173	1.048	0.778	0.793	0.746	0.552	0.556	0.521	0.515	0.417	0.404	0.368	0.341	0.468	0.359	0.311	0.309	0.330	0.231	0.191	0.223	0.243	0.210	0.290	0.366	0.641	1.098	1.566	0.905	0.874	1.384	1.860	3.017	6.104	17.69	47.50	81.25	83.43	22.05	5.161	0.533	0.269	0.205	0.172	0.211	0.169
285.0	36.07	37.52	28.47	19.86	16.06	23.22	68.27	232.3	195.4	160.9	663.8	3931	9999.9	6930	100.9	13.76	8.429	6.485	4.854	4.285	3.370	2.945	2.799	2.272	2.297	1.969	1.851	1.779	1.668	1.569	1.194	1.163	1.037	0.797	0.803	0.887	0.601	0.535	0.548	0.500	0.457	0.507	0.438	0.395	0.426	0.431	0.291	0.363	0.350	0.292	0.280	0.287	0.265	0.267	0.220	0.315	0.365	0.529	1.056	1.742	1.278	0.791	0.753	1.014	1.792	4.324	12.02	30.91	71.71	101.3	29.12	16.42	2.026	0.372	0.222	0.228	0.196
290.0	73.56	85.90	67.82	45.03	29.85	30.74	47.27	126.0	267.9	262.3	282.7	1031	3924	9999.9	9999.9	1809	32.53	9.578	6.702	5.291	4.090	3.700	2.970	2.672	2.394	2.242	2.020	1.759	1.631	1.568	1.470	1.330	1.062	1.014	0.881	0.816	0.721	0.655	0.624	0.554	0.506	0.496	0.475	0.410	0.489	0.581	0.463	0.495	0.530	0.439	0.366	0.341	0.324	0.314	0.317	0.334	0.344	0.406	0.558	1.015	1.292	1.726	1.547	1.204	1.150	1.665	3.481	7.754	18.22	37.40	53.05	82.60	69.02	54.14	10.58	2.290	0.383
295.0	123.8	140.2	121.2	74.66	54.04	49.95	64.11	101.5	187.4	431.8	442.6	504.5	1121	2656	9999.9	9999.9	600.4	37.82	9.945	6.987	5.215	4.554	3.686	3.147	2.728	2.486	2.153	2.437	1.661	1.697	1.497	1.307	1.230	1.168	0.971	0.911	0.838	0.708	0.659	0.615	0.550	0.598	0.546	0.500	0.651	0.733	0.645	0.746	0.716	0.553	0.475	0.387	0.430	0.370	0.427	0.414	0.425	0.527	0.582	0.773	0.889	1.147	1.999	2.868	2.285	1.754	1.983	3.040	5.468	9.456	12.91	21.25	37.55	97.02	129.4	29.58	15.60
300.0	160.0	183.4	168.1	108.9	77.74	67.51	83.93	121.7	188.0	374.4	652.9	536.8	575.7	809.2	2879	9999.9	9999.9	485.5	22.84	10.01	6.803	5.317	4.379	3.616	3.303	2.745	2.318	2.294	1.921	1.909	1.621	1.340	1.286	1.323	0.970	0.945	0.971	0.918	0.775	0.690	0.709	0.577	0.586	0.617	0.740	0.764	0.713	0.929	0.873	0.696	0.608	0.584	0.506	0.468	0.522	0.488	0.574	0.573	0.679	0.868	0.910	1.162	1.607	2.316	3.085	3.209	2.555	2.568	2.821	3.553	4.206	5.871	9.426	27.26	69.86	126.7	146.2
305.0	182.9	222.8	209.0	137.6	96.63	86.71	103.8	148.2	209.6	352.1	655.8	770.6	550.0	455.4	795.2	3486	9999.9	9999.9	352.4	16.37	9.551	6.639	5.154	3.994	3.565	2.999	2.499	2.517	2.274	1.950	1.768	1.553	1.283	1.356	1.041	0.921	0.997	0.849	0.840	0.790	0.805	0.727	0.657	0.738	0.768	0.835	0.786	1.005	0.929	0.853	0.736	0.701	0.639	0.573	0.555	0.551	0.677	0.705	0.823	0.924	0.977	1.261	1.519	1.929	2.497	3.896	3.882	3.405	2.920	2.629	2.640	2.649	3.135	6.901	17.11	42.13	107.0
310.0	204.9	256.2	244.0	169.4	119.2	111.8	134.4	182.1	256.4	383.3	568.3	801.2	800.1	484.6	380.4	892.7	3443	9999.9	9999.9	1608	29.61	10.38	7.057	5.613	4.465	3.409	2.975	2.700	2.386	2.120	1.984	1.652	1.494	1.379	1.144	1.099	1.022	0.938	0.948	0.840	0.754	0.718	0.736	0.779	0.839	0.918	1.055	1.052	1.111	0.937	0.779	0.773	0.742	0.721	0.667	0.660	0.701	0.874	0.984	1.070	1.237	1.476	1.781	2.047	2.479	3.065	3.562	4.141	4.215	3.686	2.896	2.290	2.057	2.615	4.644	10.28	25.74
315.0	234.4	282.5	278.3	188.1	140.0	137.7	163.9	208.1	292.6	420.9	563.1	711.5	815.5	717.5	370.4	347.8	856.7	2402	8869	9999.9	2510	34.62	10.39	7.557	5.954	4.257	3.619	3.090	2.803	2.418	2.111	1.955	1.508	1.498	1.329	1.182	1.013	1.136	0.845	0.922	0.776	0.769	0.832	0.807	0.966	1.039	1.190	1.292	1.189	1.082	0.983	0.855	0.796	0.838	0.845	0.776	0.973	1.028	1.039	1.134	1.426	1.627	1.919	2.209	2.381	2.961	3.134	3.465	3.980	4.457	4.337	3.342	2.354	1.962	2.159	3.297	6.494
320.0	248.9	313.5	297.0	213.7	155.3	158.2	188.1	241.7	324.8	448.6	592.1	696.5	735.5	788.1	519.1	268.3	308.9	611.5	2296	9999.9	9999.9	400.6	25.11	10.27	7.123	5.405	4.218	3.349	3.212	2.636	2.257	2.093	1.594	1.518	1.405	1.395	1.195	1.028	0.946	0.859	0.827	0.865	0.948	0.856	0.922	1.051	1.222	1.374	1.315	1.209	1.014	0.990	0.822	0.885	0.887	0.882	1.060	1.179	1.340	1.237	1.568	1.725	2.019	2.420	2.527	2.835	3.336	3.489	3.659	3.660	4.122	4.455	3.555	2.454	1.886	1.957	2.414
325.0	268.2	333.3	332.3	248.8	193.8	193.1	221.0	274.0	358.8	480.6	609.5	708.7	732.4	699.8	667.2	357.8	221.3	236.8	582.8	2883	9999.9	9999.9	328.6	17.16	9.153	6.614	4.707	4.052	3.431	2.943	2.448	2.213	1.733	1.657	1.543	1.375	1.163	1.185	0.931	0.962	1.076	0.941	0.921	0.936	1.108	1.163	1.167	1.410	1.410	1.248	1.173	1.035	1.033	1.001	1.005	1.059	1.202	1.254	1.432	1.558	1.776	2.023	2.296	2.485	2.727	2.941	3.215	3.254	3.655	3.638	3.762	3.847	4.210	3.787	2.410	1.846	1.838
330.0	302.9	393.0	400.9	326.7	268.5	269.9	297.1	342.8	417.6	531.8	658.8	755.7	774.4	690.5	632.3	547.4	338.9	210.2	241.6	724.7	2904	9999.9	9999.9	1510	28.37	10.04	6.918	5.109	4.055	3.564	2.890	2.390	1.952	1.767	1.519	1.437	1.194	1.134	1.037	0.930	1.016	0.986	1.057	1.035	1.167	1.292	1.416	1.612	1.648	1.491	1.271	1.385	1.376	1.348	1.317	1.398	1.417	1.556	1.732	1.841	1.996	2.197	2.457	2.721	2.886	3.345	3.402	3.478	3.792	3.939	3.808	3.692	3.674	3.697	3.731	3.335	2.612
335.0	334.4	458.2	488.9	423.2	381.6	388.3	403.6	439.3	507.8	603.1	717.4	807.4	827.2	749.3	641.7	547.2	539.5	336.9	230.0	290.9	746.3	2346	6494	9999.9	2610	36.15	10.60	7.518	5.400	4.255	3.183	2.816	2.207	1.879	1.807	1.458	1.346	1.266	1.068	1.049	1.102	1.046	1.120	0.992	1.307	1.366	1.570	1.779	1.934	1.702	1.689	1.828	1.793	1.841	1.816	1.877	2.036	2.022	2.038	2.169	2.350	2.474	2.945	3.045	3.034	3.453	3.642	3.761	4.110	4.102	4.176	3.947	3.735	3.652	3.574	3.482	3.796
340.0	369.6	508.5	567.0	513.2	490.0	495.9	519.8	528.6	583.1	657.1	757.8	833.9	864.2	806.1	686.1	567.5	556.3	507.7	306.9	241.1	306.2	629.1	1650	8747	9999.9	2109	29.10	9.988	7.139	5.079	3.632	3.056	2.351	2.209	1.892	1.467	1.318	1.229	1.138	1.095	1.087	1.207	1.050	1.296	1.409	1.457	1.713	2.236	2.231	1.933	1.931	2.075	2.166	2.313	2.223	2.224	2.434	2.397	2.541	2.570	2.749	3.033	3.129	3.239	3.522	3.798	3.891	3.802	4.115	4.528	4.354	4.361	3.981	4.070	3.735	3.250	3.665
345.0	401.3	567.8	630.0	611.5	588.5	599.9	619.8	610.1	649.4	716.6	799.2	866.5	893.3	844.9	748.1	623.9	556.4	582.2	453.6	301.4	264.3	292.4	484.6	2342	9999.9	9999.9	332.1	20.91	9.529	6.461	4.781	3.477	2.888	2.113	2.218	1.690	1.395	1.357	1.151	1.129	1.237	1.349	1.118	1.376	1.572	1.706	1.914	2.324	2.284	2.184	2.213	2.489	2.553	2.610	2.442	2.607	2.855	2.822	2.879	2.831	3.030	3.100	3.339	3.445	3.406	3.786	3.883	4.059	4.232	4.492	4.297	4.483	4.289	4.254	3.839	3.776	3.743
350.0	435.1	620.9	711.7	723.9	722.7	761.4	754.1	723.6	732.1	785.0	845.4	899.6	929.2	898.6	821.5	712.6	637.2	601.6	597.8	497.2	367.9	310.0	303.0	667.9	2672	8815	9999.9	4669	28.84	10.35	6.520	4.655	3.460	2.631	2.266	1.888	1.557	1.514	1.274	1.201	1.171	1.233	1.226	1.512	1.626	1.880	2.074	2.525	2.595	2.501	2.472	2.858	3.127	3.143	3.098	3.232	3.420	3.390	3.415	3.248	3.397	3.447	3.650	3.780	3.751	3.942	4.128	4.262	4.517	4.483	4.320	4.809	4.786	4.712	4.258	4.349	4.332
355.0	451.7	678.3	775.9	832.2	859.1	907.4	887.9	830.6	830.2	857.9	904.8	941.0	974.3	960.4	901.0	813.3	751.2	699.7	666.8	671.8	575.2	435.9	366.2	382.5	766.7	2100	5003	9999.9	2592	36.66	10.58	6.661	4.602	3.080	2.635	2.146	1.798	1.659	1.387	1.359	1.268	1.255	1.374	1.403	1.757	1.982	2.252	2.607	2.845	2.775	2.730	3.348	3.455	3.679	3.743	3.811	3.899	3.940	3.956	3.693	3.903	4.004	3.908	4.266	3.814	4.051	4.364	4.570	4.856	4.456	4.758	5.175	5.126	4.896	4.879	4.725	5.010
360.0	490.6	712.0	834.2	896.2	951.2	989.8	981.1	911.8	896.0	923.1	946.7	980.1	1014	1002	969.9	890.4	837.2	791.1	747.1	739.0	744.1	587.1	457.2	394.7	403.7	630.6	1289	6774	9999.9	2182	29.29	9.104	6.037	3.998	2.900	2.375	1.925	1.724	1.553	1.379	1.464	1.373	1.403	1.543	1.787	2.079	2.289	2.664	2.973	2.847	2.946	3.874	4.149	4.032	4.146	4.143	4.094	4.479	4.259	3.982	4.144	4.046	4.217	4.335	4.197	4.238	4.634	4.617	5.077	4.832	5.132	5.250	5.423	5.223	5.487	5.289	5.727
365.0	500.2	723.8	876.2	971.6	1030	1072	1054	987.6	963.1	980.7	987.8	1022	1058	1049	1018	959.7	917.7	885.9	850.6	813.6	822.9	764.5	590.5	481.4	397.8	364.6	443.4	1791	9175	9999.9	328.6	20.72	8.165	5.034	3.526	2.836	2.184	1.964	1.701	1.627	1.517	1.470	1.436	1.551	1.628	2.260	2.637	2.869	3.087	2.941	3.154	3.923	4.037	4.177	4.367	4.624	4.548	4.694	4.498	4.328	4.424	4.347	4.592	4.531	4.359	4.497	4.294	4.745	5.013	5.206	5.466	5.620	5.990	5.899	5.572	5.886	6.011
370.0	540.9	776.1	934.7	1044	1132	1166	1144	1078	1045	1046	1061	1078	1107	1112	1090	1049	1025	1010	991.7	953.5	928.3	907.0	816.5	651.8	518.3	407.5	337.6	563.5	2383	7836	9999.9	4508	25.87	8.391	5.142	3.421	2.551	2.188	1.827	1.683	1.616	1.589	1.581	1.646	1.907	2.361	2.624	3.138	3.223	3.283	3.346	4.183	4.528	4.708	4.858	4.811	5.046	4.956	4.778	4.829	4.842	4.754	5.005	4.688	4.649	4.741	4.746	4.965	5.322	5.510	5.647	5.684	5.993	6.160	6.351	6.558	6.568
375.0	575.6	814.0	1009	1119	1213	1247	1238	1164	1130	1123	1139	1139	1161	1172	1156	1126	1124	1128	1125	1097	1069	1019	974.8	881.5	676.5	529.5	406.1	367.9	699.0	1869	4494	9999.9	2323	31.04	8.305	4.926	3.418	2.532	2.045	1.950	1.876	1.837	1.643	1.986	2.218	2.549	2.652	3.349	3.607	3.345	3.788	4.804	5.003	5.044	5.024	5.005	5.246	5.214	5.252	5.222	5.011	5.137	5.380	5.247	4.622	4.960	5.267	5.184	5.324	5.535	6.027	5.867	6.197	6.235	6.639	7.152	7.346
380.0	596.4	845.7	1036	1166	1285	1304	1288	1226	1185	1177	1184	1184	1205	1212	1197	1190	1187	1210	1208	1195	1169	1114	1054	1007	830.0	635.1	496.3	385.4	373.8	565.6	1145	6033	9999.9	1885	23.83	7.368	4.600	3.032	2.633	2.161	1.925	1.899	1.856	2.100	2.256	2.655	3.027	3.460	3.424	3.549	3.834	4.824	5.037	5.156	5.159	5.320	5.609	5.413	5.122	5.196	5.281	5.503	5.463	5.539	5.010	5.233	5.459	5.203	5.662	5.897	6.014	6.275	7.058	6.676	6.636	7.190	7.881
385.0	617.8	878.0	1068	1221	1307	1346	1344	1281	1230	1216	1214	1223	1240	1237	1230	1228	1242	1273	1275	1269	1245	1194	1133	1061	960.9	751.1	586.0	451.9	359.1	321.1	389.1	1580	7764	9999.9	268.9	16.12	6.081	4.010	3.045	2.491	2.057	1.955	1.992	2.160	2.305	2.633	2.845	3.559	3.559	3.830	3.850	4.936	5.070	5.337	5.472	5.463	5.687	5.826	5.492	5.248	5.612	5.734	5.480	5.553	5.246	5.462	5.434	5.542	5.913	5.773	5.951	6.276	6.946	7.104	6.956	7.811	8.100
390.0	643.2	904.6	1112	1251	1347	1390	1386	1333	1279	1275	1269	1277	1281	1285	1276	1278	1296	1322	1344	1343	1330	1291	1232	1147	1056	919.1	730.3	574.2	451.5	350.2	286.0	485.3	1997	6437	8798	3134	20.87	6.733	4.206	3.211	2.440	2.249	2.103	2.179	2.485	2.651	2.876	3.636	3.994	3.868	4.028	5.056	5.302	5.435	5.789	5.557	5.833	5.856	5.886	5.658	5.934	5.710	5.668	5.639	5.486	5.819	5.703	5.792	5.979	5.902	6.261	6.418	6.996	7.098	7.188	7.869	8.388
395.0	643.3	929.1	1146	1284	1379	1425	1417	1382	1342	1341	1322	1325	1322	1319	1318	1309	1338	1364	1397	1402	1390	1373	1313	1238	1130	1025	898.9	713.9	569.3	447.7	338.7	303.6	573.4	1529	3691	9999.9	1898	25.32	6.752	4.386	3.182	2.575	2.505	2.336	2.619	2.819	3.049	3.747	3.857	3.887	4.170	5.280	5.466	5.747	6.210	5.781	6.119	6.155	5.878	5.816	5.968	6.158	6.086	5.894	5.942	6.086	5.976	6.137	6.197	6.365	6.648	6.403	7.087	7.153	7.655	7.831	8.607
400.0	675.1	932.6	1158	1317	1405	1457	1449	1413	1391	1369	1352	1352	1346	1344	1330	1327	1356	1379	1417	1427	1415	1408	1366	1293	1191	1069	973.4	830.9	664.7	529.6	407.1	306.0	292.2	451.2	932.7	5099	9425	1486	18.85	6.113	4.071	3.257	2.574	2.480	2.776	3.011	3.182	3.889	4.017	4.077	4.281	5.081	5.488	5.929	6.032	5.743	6.689	6.088	5.971	5.885	6.100	6.220	6.139	6.063	5.955	5.787	5.870	6.054	6.323	6.495	6.725	6.887	7.259	7.476	7.943	7.993	8.671
405.0	688.3	936.8	1181	1339	1410	1462	1466	1456	1418	1399	1380	1377	1356	1354	1337	1332	1355	1384	1422	1432	1432	1425	1391	1326	1232	1116	1011	921.4	758.6	607.8	477.3	352.0	268.3	239.1	300.8	1322	6255	7929	228.8	11.94	5.353	3.750	3.066	2.777	2.887	3.121	3.296	3.841	4.107	4.008	4.195	5.221	5.794	5.808	6.097	5.740	6.548	6.191	6.014	5.908	6.126	6.293	6.357	6.271	6.261	6.028	5.990	6.077	6.333	6.223	6.766	6.839	7.103	7.627	7.489	7.889	9.079
410.0	689.2	949.4	1179	1337	1422	1470	1484	1472	1448	1428	1406	1401	1371	1348	1340	1328	1342	1373	1400	1419	1422	1424	1394	1348	1273	1165	1059	972.0	868.8	714.2	564.5	430.7	321.5	238.3	196.1	381.0	1606	5037	6284	944.8	17.62	5.651	4.032	3.181	3.122	3.224	3.333	3.908	4.147	4.160	4.336	5.192	5.634	5.923	6.011	5.937	6.426	6.209	6.174	6.262	6.230	6.590	6.388	6.349	6.090	6.018	6.045	5.922	6.152	6.621	6.556	7.089	7.236	7.632	7.457	8.087	8.853
415.0	679.1	947.3	1191	1319	1419	1474	1489	1477	1465	1440	1434	1406	1375	1349	1319	1296	1311	1336	1356	1384	1394	1393	1386	1351	1280	1193	1099	1007	917.6	821.6	659.1	506.6	387.5	284.3	213.2	204.4	439.5	1185	2929	6999	1576	20.58	6.140	4.053	3.485	3.588	3.455	4.123	4.073	4.197	4.369	5.215	5.589	5.894	5.771	5.868	6.275	6.337	6.338	6.392	6.549	6.620	6.368	6.263	6.250	6.102	5.940	6.167	6.116	6.801	6.607	7.148	6.901	7.339	7.603	8.134	8.555
420.0	679.0	942.0	1155	1311	1386	1452	1476	1465	1449	1444	1435	1410	1364	1331	1295	1270	1282	1303	1320	1346	1361	1363	1361	1327	1273	1202	1117	1026	939.9	865.2	734.8	562.6	432.8	326.5	240.6	187.1	198.8	331.4	740.9	3947	6721	235.9	14.25	5.850	4.442	3.950	3.687	4.059	4.132	3.980	4.282	5.078	5.765	5.885	5.735	5.838	6.408	6.313	6.490	6.284	6.524	6.436	6.352	6.323	6.351	6.095	5.864	6.303	6.421	6.474	6.491	6.899	6.693	7.203	7.387	7.796	8.186
425.0	666.2	897.7	1138	1299	1372	1438	1481	1459	1450	1453	1434	1398	1351	1305	1266	1249	1242	1264	1280	1299	1318	1323	1317	1306	1259	1190	1116	1037	960.8	878.3	782.5	617.9	475.2	365.3	273.8	206.6	163.2	157.1	224.6	1053	4854	5327	196.3	9.768	5.969	4.544	3.895	4.123	4.363	3.898	4.297	5.162	5.562	5.794	5.897	5.957	6.280	6.306	6.531	6.336	6.599	6.455	6.543	6.294	6.216	6.146	5.925	6.090	6.290	6.284	6.669	6.739	6.429	6.924	7.269	7.526	7.924
430.0	665.1	900.3	1114	1271	1353	1407	1456	1458	1446	1442	1427	1389	1328	1281	1232	1204	1196	1218	1233	1242	1257	1267	1272	1263	1228	1173	1108	1050	976.8	894.5	805.5	682.5	535.9	412.7	318.8	244.3	187.4	145.2	129.5	292.6	1278	3864	4764	837.1	16.02	6.262	4.679	4.576	4.439	4.124	4.291	5.178	5.329	5.525	5.642	5.690	6.205	6.416	6.492	6.398	6.649	6.559	6.476	6.293	6.049	6.089	5.849	6.133	6.332	5.979	6.256	6.425	6.552	6.706	6.793	7.583	7.654
435.0	746.1	901.4	1096	1227	1324	1402	1424	1440	1447	1448	1427	1383	1307	1253	1204	1160	1154	1162	1173	1187	1195	1204	1216	1217	1189	1145	1095	1044	986.3	915.9	819.4	711.1	600.0	465.2	365.6	286.5	223.5	172.2	134.0	141.8	340.9	914.9	2539	5910	1353	18.27	6.277	5.571	4.937	4.374	4.358	5.247	5.443	5.492	5.906	5.552	5.778	5.940	6.228	6.534	6.633	6.533	6.522	6.041	6.347	6.077	5.801	6.030	6.166	6.179	6.088	6.334	6.334	6.446	6.543	7.071	7.495
440.0	911.2	901.6	1073	1215	1308	1383	1398	1428	1435	1437	1419	1374	1298	1223	1170	1131	1118	1118	1127	1138	1154	1159	1170	1176	1155	1118	1078	1031	984.3	921.2	831.8	715.8	624.5	512.0	398.0	314.4	251.5	194.7	151.9	123.8	145.9	256.0	653.8	3720	5776	211.0	12.28	6.638	5.194	4.595	4.528	5.144	5.340	5.533	5.610	5.336	5.997	6.016	6.235	6.226	6.606	6.432	6.359	6.224	6.316	5.995	5.740	6.094	5.901	6.115	6.016	6.021	6.412	6.181	6.751	6.464	7.554
445.0	1032	924.7	1033	1186	1250	1350	1385	1405	1409	1425	1409	1340	1276	1203	1135	1100	1080	1082	1084	1091	1102	1109	1120	1129	1113	1085	1049	1012	972.5	915.3	834.5	722.0	627.6	535.4	431.4	338.8	274.7	217.6	169.5	134.7	115.2	120.1	194.0	1027	4612	4505	154.1	9.088	6.147	4.841	4.443	5.265	5.449	5.452	5.538	5.527	5.919	5.993	6.224	6.338	6.349	6.566	6.354	6.138	5.941	5.742	5.646	6.038	5.857	6.040	5.910	6.016	6.460	6.037	6.473	6.359	7.034
450.0	854.2	1307	1029	1113	1209	1290	1324	1360	1375	1381	1363	1300	1225	1151	1085	1040	1016	1009	1016	1019	1020	1040	1049	1056	1041	1023	998.9	967.6	934.9	891.1	820.4	721.4	623.5	537.8	459.6	371.0	300.3	242.2	195.2	157.5	127.7	105.5	104.6	275.6	1247	3573	3152	703.8	13.51	5.981	4.889	5.241	5.114	5.391	5.468	5.169	5.983	5.727	6.010	5.939	6.076	6.210	6.098	5.969	5.726	5.702	5.493	5.772	5.838	5.728	5.633	5.757	5.963	6.068	6.023	6.266	6.484
455.0	597.6	1487	1309	1047	1134	1213	1260	1291	1303	1310	1307	1253	1167	1088	1012	966.8	945.4	925.9	926.8	928.9	936.1	951.0	958.8	963.8	956.9	942.9	926.5	910.5	887.2	854.9	791.6	702.3	615.5	526.8	461.5	397.9	323.7	264.9	217.9	179.0	145.8	117.8	97.19	118.3	320.4	842.2	2030	4594	1015	13.63	6.186	5.442	5.064	5.197	5.128	5.123	5.350	5.410	5.681	5.593	5.823	5.862	5.632	5.862	5.412	5.522	5.563	5.430	5.655	5.490	5.463	5.504	5.825	5.447	5.374	5.524	6.156
460.0	498.7	1217	1798	1044	1077	1140	1185	1227	1247	1265	1252	1191	1119	1033	963.9	911.7	889.3	870.1	868.2	865.4	871.6	881.6	888.5	901.2	894.7	883.8	868.6	854.0	839.0	813.9	759.3	681.1	601.0	517.2	451.8	401.6	340.0	276.7	231.2	191.5	159.4	129.4	104.4	89.13	119.4	223.4	524.6	2947	4127	158.2	9.871	6.108	5.241	5.131	5.051	4.977	5.058	5.356	5.351	5.161	5.550	5.559	5.346	5.556	5.162	5.350	5.309	5.342	4.975	5.325	5.125	5.037	5.220	5.301	5.190	5.415	5.928
465.0	445.0	851.4	2078	1263	1021	1091	1139	1165	1197	1215	1194	1136	1067	980.1	915.1	859.2	830.7	815.0	810.1	811.2	810.2	819.5	831.4	833.7	834.4	821.0	814.9	803.9	789.2	770.9	727.5	656.9	585.0	510.5	442.1	389.4	347.6	287.8	238.8	198.4	167.9	137.5	111.4	88.73	79.84	89.43	146.8	807.9	3400	3033	124.2	8.103	5.890	5.343	5.098	5.157	4.885	4.804	5.165	5.095	5.529	5.294	5.418	5.538	4.775	5.123	5.103	5.177	4.990	5.106	5.015	4.832	4.869	5.073	5.133	5.257	5.584
470.0	417.9	642.2	1557	2034	1049	995.8	1049	1080	1102	1112	1109	1058	986.7	911.5	844.0	788.6	757.7	739.0	731.8	725.9	726.2	734.4	746.0	751.9	751.1	741.0	735.0	732.1	722.3	709.7	671.7	611.8	546.6	481.9	423.3	372.6	333.0	290.4	243.5	203.0	172.9	144.7	119.2	94.34	76.57	64.71	65.62	205.3	920.0	2464	2143	604.5	12.56	6.028	5.278	4.909	4.887	4.774	4.949	4.718	4.893	4.868	4.917	4.926	4.777	4.780	4.713	4.635	4.557	4.616	4.519	4.391	4.567	4.504	4.653	4.774	5.066
475.0	391.3	538.7	878.4	2266	1588	904.9	960.6	979.7	1018	1020	1019	973.0	903.2	830.0	769.3	717.3	680.3	666.6	653.0	648.7	648.3	651.8	661.4	664.4	665.1	661.9	658.0	656.8	652.0	641.9	611.9	561.5	506.0	447.8	398.6	353.1	311.6	278.7	246.7	205.9	175.0	146.9	123.0	100.1	80.72	64.04	52.39	73.78	225.8	575.0	1313	3068	813.7	13.63	5.871	5.067	4.839	4.740	4.552	4.494	4.381	4.831	4.541	4.474	4.496	4.211	4.276	4.176	4.207	4.081	4.257	3.974	4.223	4.184	4.174	4.540	4.384
480.0	369.6	514.1	670.7	1641	2324	929.1	885.8	921.0	946.9	956.7	956.2	919.6	844.9	773.6	717.0	666.9	631.1	612.7	601.7	592.6	594.8	597.7	604.7	606.5	609.7	607.5	603.4	602.2	603.0	592.7	569.8	523.9	476.4	424.0	377.9	338.8	297.5	265.8	242.3	208.9	176.3	147.9	124.4	103.1	84.55	65.28	50.95	46.92	73.75	146.1	334.0	1859	2930	175.5	8.716	5.365	4.876	4.240	4.413	4.415	4.530	4.566	4.189	4.279	4.202	4.113	4.191	3.941	4.030	3.947	4.058	3.739	3.857	3.687	3.812	4.031	4.251
485.0	340.8	483.6	612.0	1011	2651	1274	841.4	866.8	893.8	899.0	912.9	863.6	802.5	733.0	674.4	625.9	592.4	573.5	562.9	551.9	554.3	552.9	557.3	561.7	567.1	566.1	561.6	562.3	563.1	553.8	534.8	494.0	452.4	406.9	363.1	325.7	290.4	256.5	232.5	209.5	178.2	149.1	125.3	104.8	87.29	68.87	53.88	43.67	41.99	52.70	90.20	504.3	2448	2472	25.65	6.812	4.889	4.422	4.267	4.324	4.226	4.315	4.184	4.068	4.014	4.213	4.008	3.591	3.616	3.737	3.660	3.767	3.635	3.732	3.546	3.827	3.988
490.0	308.3	453.5	541.2	699.0	1788	2314	904.3	808.4	827.2	848.0	844.2	807.3	752.4	681.8	623.2	576.4	550.7	526.6	515.0	504.8	504.1	501.7	507.4	509.3	510.9	513.1	511.1	512.9	513.3	509.5	493.1	458.9	419.6	380.1	343.0	308.4	276.3	245.7	219.5	201.5	179.9	150.8	125.2	107.1	89.85	72.44	57.99	46.02	38.34	34.18	38.00	127.1	658.5	1873	2049	605.5	12.35	5.010	4.431	4.136	4.172	4.117	4.041	3.954	3.937	3.683	3.663	3.631	3.481	3.495	3.375	3.555	3.536	3.436	3.485	3.423	3.657
495.0	274.9	423.0	515.8	566.2	907.6	2541	1592	744.0	765.6	767.3	771.0	742.5	688.5	627.6	573.0	527.2	498.7	477.1	464.3	457.0	450.9	445.4	452.6	455.3	455.3	456.7	452.4	458.4	462.9	459.5	445.0	415.5	384.2	349.3	317.2	285.2	258.1	233.7	206.5	189.0	171.1	152.0	126.3	106.4	90.99	74.83	59.92	49.73	39.48	32.27	28.53	44.89	160.4	435.3	1257	2888	880.2	13.62	4.819	4.196	4.125	3.853	3.669	3.614	3.411	3.367	3.303	3.490	3.422	3.370	3.193	3.196	3.044	3.308	3.169	3.185	3.368
500.0	247.0	381.9	481.0	512.6	635.2	1766	2509	774.2	700.5	724.9	716.4	688.9	639.3	578.7	528.4	487.1	456.4	439.5	422.2	414.2	407.5	407.0	408.6	410.4	414.1	413.9	410.8	419.6	420.4	420.8	405.4	384.4	353.2	322.2	295.1	267.5	244.2	220.7	196.8	178.1	161.7	147.5	126.5	106.9	89.77	75.29	61.66	50.97	41.60	33.00	27.11	27.06	50.22	109.1	314.3	1717	2755	187.7	8.107	4.526	3.971	3.657	3.370	3.260	3.211	3.433	3.168	3.093	2.966	2.911	3.104	2.862	2.905	2.996	2.826	2.987	3.237
505.0	225.0	314.9	445.9	473.6	539.7	966.8	2924	1159	642.9	664.2	666.5	627.4	590.7	536.5	482.4	446.8	418.7	398.6	386.3	377.4	371.3	365.2	367.6	371.9	374.0	372.6	376.1	378.6	381.7	382.7	371.1	352.9	325.0	296.1	273.9	246.9	226.4	206.2	184.8	167.3	149.9	138.9	125.3	105.6	88.92	74.26	61.67	51.04	42.31	34.04	27.73	23.82	26.22	37.23	81.48	453.4	2062	1639	27.90	5.460	3.991	3.417	3.152	3.183	3.139	3.199	2.972	2.844	2.831	2.577	2.674	2.828	2.605	2.721	2.522	2.631	2.836
510.0	198.5	279.0	384.2	438.1	459.7	587.6	1875	2363	736.9	591.7	591.1	562.5	526.8	472.8	436.4	393.7	371.0	352.0	341.4	328.5	325.0	321.1	323.4	324.6	324.5	325.5	325.8	328.8	333.4	334.6	326.6	308.1	285.0	262.7	243.2	221.2	203.6	185.5	168.6	152.3	136.8	123.8	115.1	101.4	86.21	71.21	59.98	50.13	42.22	34.49	28.63	24.20	21.53	22.02	30.04	111.1	537.6	1386	1636	511.7	11.18	3.683	3.249	3.067	2.895	2.741	2.762	2.724	2.616	2.541	2.425	2.557	2.455	2.413	2.361	2.432	2.383
515.0	173.2	242.9	320.0	387.0	413.4	448.5	804.1	2695	1554	519.9	519.1	490.2	452.4	413.2	381.6	344.2	323.4	306.9	291.6	282.8	279.5	275.0	274.8	279.2	278.0	277.6	276.1	281.2	284.8	285.5	283.4	264.0	245.6	228.9	210.5	194.3	178.5	164.2	148.0	135.9	122.1	109.9	100.3	94.29	83.89	69.16	57.05	48.07	40.99	33.52	28.60	24.30	21.09	19.02	18.62	35.19	128.2	320.3	836.2	1923	207.6	11.06	3.414	2.918	2.758	2.647	2.526	2.358	2.291	2.069	2.094	2.270	2.225	2.213	1.997	2.043	2.117
520.0	153.0	220.5	274.6	340.8	380.7	387.8	491.1	1790	2645	578.5	460.7	442.0	412.2	377.0	342.1	311.3	286.9	273.9	260.8	253.9	248.3	244.3	244.6	247.1	246.8	242.5	243.1	247.4	250.2	252.8	250.7	235.5	219.3	203.9	189.4	173.3	160.9	148.5	134.2	122.5	111.0	99.96	90.84	84.60	78.82	67.20	55.42	46.88	39.47	32.92	28.25	24.30	21.06	18.14	15.85	17.84	37.24	78.93	204.3	1091	1655	175.6	5.700	2.779	2.766	2.392	2.205	2.099	2.019	1.961	1.999	1.980	2.055	2.020	1.796	1.895	1.959
525.0	144.2	197.5	244.7	291.6	347.0	346.6	394.1	865.4	3113	1046	422.6	401.3	376.3	339.0	308.9	278.0	262.9	245.2	233.8	226.5	222.7	218.4	217.8	220.5	219.3	218.2	218.2	220.3	223.4	224.8	222.5	213.0	197.3	183.4	170.2	157.5	145.2	134.7	124.2	112.5	103.0	91.79	84.49	77.10	73.12	64.59	53.84	44.85	37.79	32.13	27.67	23.93	20.74	18.17	15.30	14.43	17.10	24.92	51.82	280.9	1230	1379	27.18	3.374	2.658	2.170	2.254	2.014	1.902	1.858	1.777	1.866	1.737	1.663	1.710	1.701	1.892
530.0	120.1	173.0	210.7	248.7	299.1	311.6	328.2	451.4	1883	2378	544.4	356.5	325.8	296.9	268.5	242.8	228.9	212.2	202.2	198.6	189.9	189.7	188.0	189.4	187.7	186.1	186.7	189.6	193.7	195.1	191.7	182.6	170.5	158.2	147.9	138.3	126.8	118.4	108.6	99.71	90.90	82.63	76.54	69.07	62.77	58.77	51.62	42.45	35.96	30.25	25.96	22.85	20.11	17.71	15.37	13.61	12.43	12.86	17.74	67.85	315.0	926.8	1099	350.1	9.274	2.218	1.975	1.818	1.761	1.700	1.714	1.685	1.527	1.580	1.500	1.535	1.673
535.0	101.7	150.0	185.9	210.7	251.1	286.0	282.1	315.1	680.5	2868	1405	314.9	279.2	260.8	232.7	209.6	197.3	182.1	174.0	168.9	163.4	163.5	158.4	161.1	159.4	158.3	158.8	161.2	163.6	166.8	163.3	156.7	147.3	135.1	126.7	119.2	109.3	102.4	94.39	86.81	79.63	73.33	66.92	61.87	55.86	50.95	47.20	40.49	34.51	28.60	24.61	21.61	19.54	17.12	15.08	13.07	11.41	9.942	9.946	20.25	74.42	212.2	523.1	1261	202.2	8.837	2.065	1.804	1.675	1.408	1.451	1.422	1.500	1.393	1.416	1.320	1.372
540.0	102.0	127.7	161.4	184.2	216.9	258.1	259.3	267.9	358.9	1786	2803	401.3	251.3	232.4	205.3	186.5	173.9	164.8	154.6	148.7	146.2	143.3	143.5	140.5	141.2	138.2	140.7	142.2	145.1	147.5	143.7	137.9	129.3	121.0	112.3	104.7	98.11	91.32	84.08	77.90	71.63	65.66	60.74	56.03	51.79	46.69	42.21	38.61	32.98	27.06	23.19	20.25	18.53	16.30	14.70	12.85	11.06	9.462	7.906	9.382	20.70	51.09	126.4	695.4	1139	159.1	3.801	1.794	1.657	1.420	1.235	1.169	1.454	1.273	1.148	1.208	1.229
545.0	84.13	112.6	147.0	165.2	187.4	232.8	245.4	236.2	266.8	754.6	3384	917.7	228.5	209.0	186.8	169.5	157.7	147.3	139.4	133.7	129.5	127.5	127.4	125.8	125.9	124.2	124.7	127.5	127.3	130.1	127.3	122.7	115.1	108.0	99.96	93.82	88.49	82.52	76.08	69.76	65.35	59.32	54.92	51.26	47.34	42.31	37.76	35.37	31.69	26.01	22.17	19.67	17.26	15.43	13.82	12.53	10.86	8.879	7.555	6.845	8.776	14.94	31.60	176.8	815.4	939.2	26.65	2.231	1.729	1.357	1.268	1.224	1.171	1.198	1.085	1.150	1.149
550.0	75.19	101.4	126.8	144.8	160.7	186.6	220.5	206.0	216.3	336.1	1943	2520	363.4	182.0	161.6	146.2	136.6	128.3	120.4	115.6	112.1	109.6	109.8	106.4	107.8	106.4	106.1	108.2	109.4	112.7	110.5	104.4	99.11	92.17	86.14	80.45	75.96	70.76	66.25	61.61	56.32	52.60	48.50	45.10	41.31	37.36	33.73	30.73	28.76	25.06	20.75	17.90	15.93	14.55	12.95	11.81	10.54	8.701	7.293	6.401	5.909	6.804	10.11	41.98	206.6	622.1	752.9	118.9	7.811	1.557	1.290	1.117	1.100	1.055	1.015	0.987	1.037
555.0	67.97	87.22	106.0	120.6	141.2	151.2	185.0	195.2	182.8	212.9	619.8	2928	1108	162.7	139.9	124.9	118.1	108.1	102.8	99.10	95.10	92.59	92.72	90.60	91.55	90.13	89.88	91.61	92.50	94.49	92.86	88.32	82.97	77.89	72.88	67.87	64.46	59.99	56.35	52.18	48.71	45.03	42.25	39.10	35.71	32.11	29.53	26.31	24.60	22.87	19.83	16.89	14.52	13.37	12.20	11.01	9.533	8.235	7.082	5.969	5.223	4.932	5.081	11.82	48.09	141.8	351.2	835.5	189.6	6.134	1.431	1.058	0.908	0.942	0.884	0.807	0.828
560.0	58.71	73.73	94.70	106.7	120.2	133.9	158.7	184.6	161.8	172.5	265.6	1742	2580	234.8	125.1	110.7	102.8	95.28	88.45	86.21	84.53	80.47	80.01	79.39	80.06	79.73	79.35	77.95	82.20	81.19	79.88	76.40	72.95	67.90	64.23	59.71	56.93	52.54	48.92	46.72	42.57	39.43	37.46	34.72	32.52	28.99	26.52	23.71	21.36	19.98	18.70	15.90	13.50	11.98	11.40	10.17	9.033	8.000	6.692	5.815	4.830	4.209	3.685	5.054	12.83	33.60	84.79	471.4	783.1	29.56	2.261	1.024	0.970	0.891	0.835	0.804	0.796
565.0	52.32	69.32	89.35	95.47	102.5	115.2	129.8	167.0	149.1	149.4	170.8	659.0	3204	656.5	112.9	98.02	90.21	85.30	81.15	76.10	73.98	70.52	71.13	69.80	68.70	69.19	69.38	68.28	71.35	69.44	70.42	67.42	63.79	59.92	56.56	52.15	49.85	46.59	43.22	40.44	37.97	34.54	33.07	31.10	29.93	26.49	24.01	21.15	19.02	17.55	17.39	15.08	12.54	11.32	10.45	9.459	8.301	7.452	6.427	5.588	4.579	3.823	3.516	3.191	4.653	9.306	20.56	120.2	569.5	606.1	23.69	1.217	1.062	0.783	0.800	0.649	0.816
570.0	43.03	58.91	71.73	79.01	86.87	94.94	106.1	129.9	140.8	125.5	131.6	244.2	1791	2197	202.5	82.05	75.22	69.77	65.86	63.28	60.90	57.81	58.36	56.51	56.20	55.96	56.31	55.07	57.62	57.09	57.39	54.70	52.32	48.78	46.30	42.60	40.84	38.30	35.49	32.92	31.19	28.87	26.99	25.82	24.29	21.91	19.74	18.17	15.93	14.39	13.79	12.92	11.50	9.822	9.172	8.061	7.343	6.387	5.491	4.844	4.296	3.660	3.137	2.777	2.819	3.640	6.042	28.21	144.9	418.5	380.4	106.1	4.488	0.799	0.745	0.676	0.661
575.0	35.71	48.97	55.86	61.19	66.07	74.28	81.39	93.27	120.2	109.4	103.2	128.9	504.4	2667	780.6	69.75	59.01	54.85	51.65	49.59	47.10	46.65	45.37	44.32	43.85	43.41	43.01	43.59	45.08	44.70	44.49	42.21	39.98	37.64	35.19	32.80	31.67	29.99	27.42	26.25	24.19	22.32	21.31	20.30	19.49	17.23	15.70	14.46	12.64	11.51	10.68	10.20	9.885	8.960	7.557	6.751	6.345	5.483	4.377	4.097	3.809	3.281	2.823	2.399	2.142	2.214	2.669	7.466	33.23	95.46	214.4	506.6	136.4	2.327	0.763	0.615	0.585
580.0	34.84	46.59	52.11	50.20	56.14	61.25	68.22	73.64	103.4	104.1	91.76	99.05	177.7	1565	2125	94.22	48.85	45.06	42.20	39.51	37.85	37.78	37.46	36.15	35.48	35.35	34.93	35.23	35.93	36.17	35.57	34.12	31.85	30.45	28.27	26.86	25.49	23.82	22.17	21.17	19.58	18.26	16.85	16.73	15.86	14.12	12.82	11.50	10.53	9.516	8.565	8.128	8.245	7.550	6.416	5.869	5.188	4.595	3.810	3.630	3.199	2.958	2.488	2.186	2.057	1.783	1.720	2.641	8.428	22.23	52.76	300.1	423.4	25.54	1.083	0.614	0.572
585.0	33.08	39.40	43.47	42.70	48.06	51.85	56.71	59.28	80.86	102.0	80.05	81.08	97.83	544.2	2778	426.3	42.70	37.34	35.69	31.80	31.68	30.34	29.29	29.47	29.23	28.22	28.93	28.98	29.54	29.54	28.81	28.48	26.43	24.97	23.31	21.36	20.64	19.62	18.61	16.75	15.86	15.11	13.66	13.55	12.64	11.71	10.85	9.830	9.107	8.026	6.846	6.691	6.755	6.697	5.870	5.227	4.591	3.973	3.478	3.251	2.712	2.493	2.357	2.122	1.740	1.584	1.509	1.472	2.762	5.785	12.71	78.74	326.0	226.6	17.51	0.712	0.484
590.0	26.60	33.83	36.19	37.72	39.53	41.73	45.35	48.49	58.64	90.31	80.86	70.77	71.73	165.3	1562	1681	66.68	29.26	27.30	25.76	24.88	24.07	23.03	22.53	22.33	21.97	22.12	21.88	22.43	22.39	22.46	21.64	20.42	19.28	17.97	16.39	15.64	15.16	14.22	13.03	12.17	11.72	11.05	10.52	9.789	9.265	8.592	7.640	7.029	6.194	5.489	5.206	5.055	5.082	4.858	4.415	3.862	3.278	2.841	2.532	2.163	2.074	1.988	1.787	1.531	1.327	1.227	1.166	1.445	2.098	3.575	18.28	85.24	209.6	224.1	54.35	1.511
595.0	24.30	33.37	33.37	31.46	32.56	31.77	37.10	40.51	45.16	69.08	85.13	64.67	61.23	70.72	409.3	2127	537.9	25.74	21.30	20.26	19.44	18.31	18.05	17.46	17.19	17.67	16.70	16.57	16.71	17.01	16.65	16.12	15.18	14.59	13.68	12.56	12.00	11.60	10.99	9.994	9.386	8.972	8.510	8.276	7.302	6.776	6.502	5.982	5.466	4.735	4.169	4.023	3.815	3.679	3.892	3.694	3.124	2.669	2.220	2.114	1.854	1.659	1.578	1.469	1.440	1.200	1.025	1.222	1.028	1.070	1.445	4.617	19.59	48.19	127.8	241.0	26.93
600.0	26.06	31.47	27.95	27.38	26.97	28.02	33.17	33.62	39.51	50.89	84.42	63.51	54.69	48.07	116.3	1255	1548	51.84	18.29	16.33	15.58	15.04	15.26	14.47	14.61	14.10	13.58	13.38	13.99	13.46	13.25	13.49	12.30	12.04	11.25	10.13	9.633	9.643	8.862	8.000	7.720	7.196	6.893	6.851	6.061	5.442	5.397	4.883	4.325	3.827	3.534	3.358	3.082	2.859	3.127	3.099	2.825	2.346	1.993	1.758	1.620	1.558	1.406	1.232	1.359	1.278	1.035	1.003	0.874	0.837	0.865	1.559	4.812	11.16	32.28	164.0	190.2
605.0	22.08	29.12	29.06	24.19	21.86	24.32	27.71	29.96	35.69	45.51	75.89	68.42	54.20	42.31	48.61	419.4	2062	254.6	16.73	14.36	13.86	12.91	12.58	11.77	12.01	11.51	11.54	11.08	11.78	11.67	10.72	11.05	10.55	9.805	9.024	8.354	7.726	7.730	7.231	6.783	6.812	5.992	5.733	5.476	5.171	4.543	4.435	4.152	3.654	3.411	3.131	2.877	2.779	2.473	2.447	2.631	2.318	2.187	1.809	1.443	1.423	1.363	1.113	1.140	1.142	1.240	0.996	0.940	0.907	0.787	0.785	0.868	1.508	2.947	7.659	45.84	179.2
610.0	22.40	26.21	25.76	20.76	21.62	19.34	22.54	26.70	32.01	39.58	59.38	74.11	52.38	37.52	30.72	111.3	1182	1065	38.61	12.08	11.16	10.68	10.36	9.497	9.287	9.370	9.144	9.070	9.208	9.351	8.867	8.614	7.971	7.652	7.293	6.789	6.358	6.141	5.890	5.366	5.171	4.875	4.593	4.468	4.228	3.681	3.605	3.212	3.026	2.719	2.523	2.396	2.184	2.126	2.022	1.955	1.851	1.891	1.654	1.320	1.168	1.180	0.998	0.969	0.934	0.942	0.979	0.930	0.830	0.699	0.735	0.674	0.791	0.992	2.086	10.59	49.64
615.0	18.89	28.17	23.91	18.08	18.45	17.63	19.22	22.95	28.44	36.09	46.15	68.36	55.41	35.61	24.97	37.90	300.5	1608	371.8	10.85	8.645	8.320	8.027	7.894	7.945	7.134	7.322	7.432	7.215	7.414	7.014	6.817	6.389	6.058	5.765	5.140	5.168	4.778	4.452	4.189	3.975	3.647	3.485	3.326	3.177	3.010	2.933	2.642	2.353	2.018	1.959	1.817	1.855	1.679	1.632	1.610	1.380	1.650	1.332	1.139	0.981	0.979	0.870	0.854	0.741	0.738	0.801	0.872	0.809	0.556	0.580	0.587	0.593	0.554	0.756	2.663	11.34
620.0	20.03	20.64	22.48	17.74	15.54	15.27	18.38	21.06	25.69	34.63	44.04	57.37	58.31	33.40	24.23	20.10	77.75	1002	1111	25.84	7.980	7.246	7.069	6.621	6.486	6.088	6.355	6.097	6.239	6.074	5.810	5.613	5.472	5.009	4.601	4.121	4.075	3.825	3.564	3.577	3.322	3.052	2.806	2.736	2.541	2.429	2.327	2.099	1.971	1.797	1.698	1.511	1.404	1.345	1.374	1.284	1.207	1.321	1.250	1.120	0.941	0.900	0.765	0.744	0.671	0.673	0.593	0.752	0.796	0.626	0.496	0.509	0.432	0.450	0.436	0.901	2.758
625.0	20.68	19.10	21.41	17.12	16.64	14.70	15.51	18.64	24.37	32.06	40.20	48.76	60.60	33.98	21.72	15.19	26.22	348.2	1624	63.29	7.653	6.304	6.101	5.880	5.433	5.345	5.181	5.200	5.243	5.036	5.240	4.845	4.693	3.903	3.814	3.383	3.451	3.311	3.266	3.038	2.837	2.670	2.544	2.163	2.067	1.946	1.972	1.827	1.746	1.449	1.429	1.300	1.292	1.202	1.220	1.098	1.009	1.076	1.026	1.000	0.928	0.754	0.622	0.681	0.550	0.562	0.616	0.713	0.665	0.669	0.494	0.528	0.415	0.385	0.410	0.462	0.841
630.0	16.33	22.34	20.22	16.22	13.69	13.58	15.74	17.83	22.57	28.49	37.77	41.71	53.60	39.96	20.57	14.21	14.18	88.24	1029	797.0	24.25	5.687	5.140	4.811	4.520	4.284	4.152	3.994	4.209	4.095	3.965	3.835	3.615	3.273	3.231	3.024	2.721	2.738	2.344	2.334	2.208	2.169	1.954	1.778	1.756	1.703	1.551	1.491	1.317	1.195	1.153	1.094	1.030	0.976	0.964	0.905	0.871	0.734	0.809	0.905	0.848	0.715	0.594	0.615	0.546	0.547	0.597	0.557	0.551	0.603	0.556	0.468	0.440	0.345	0.321	0.376	0.384
635.0	19.33	22.33	16.47	14.18	11.96	12.38	15.46	16.47	20.04	27.43	34.52	38.17	43.60	45.73	22.37	14.11	10.91	25.81	270.4	1330	271.1	5.767	4.507	3.990	3.894	3.530	3.398	3.311	3.218	3.429	3.274	3.291	2.922	2.538	2.671	2.339	2.134	2.131	1.867	1.907	1.882	1.784	1.607	1.389	1.346	1.490	1.383	1.151	1.086	0.990	0.945	0.920	0.828	0.784	0.892	0.722	0.715	0.666	0.643	0.638	0.719	0.616	0.568	0.502	0.576	0.478	0.515	0.555	0.476	0.513	0.586	0.533	0.430	0.330	0.311	0.292	0.287
640.0	16.58	21.54	17.04	13.27	11.73	11.71	14.76	15.95	20.43	26.04	32.13	36.03	36.75	43.69	25.77	13.73	10.40	11.72	66.83	906.5	835.7	12.24	4.052	3.465	3.146	2.849	2.948	2.818	2.924	2.973	2.838	2.528	2.619	2.297	2.099	2.024	1.860	1.764	1.506	1.519	1.366	1.369	1.253	1.236	1.128	1.232	1.132	1.000	0.978	0.814	0.763	0.842	0.747	0.715	0.679	0.641	0.603	0.577	0.470	0.537	0.582	0.527	0.590	0.428	0.551	0.426	0.395	0.430	0.500	0.438	0.438	0.457	0.398	0.335	0.254	0.283	0.230
645.0	20.73	20.69	16.60	13.69	11.72	9.616	14.03	14.55	18.70	24.44	30.19	32.80	34.37	37.38	30.07	14.79	10.03	8.839	19.57	342.8	1279	48.89	4.062	3.567	2.857	2.661	2.559	2.521	2.477	2.571	2.221	2.118	2.135	1.918	1.788	1.683	1.650	1.516	1.320	1.268	1.108	1.145	1.035	1.003	1.014	1.062	0.873	0.871	0.816	0.645	0.630	0.682	0.647	0.571	0.619	0.571	0.543	0.498	0.430	0.443	0.463	0.590	0.504	0.462	0.515	0.395	0.426	0.374	0.428	0.356	0.364	0.407	0.391	0.362	0.286	0.257	0.274
650.0	16.95	15.71	16.37	12.70	12.02	9.779	12.73	13.73	18.45	23.11	29.45	32.23	31.79	32.53	31.62	16.13	10.46	8.456	9.000	89.36	1115	353.2	5.021	3.268	2.654	2.690	2.435	2.229	2.035	2.104	2.133	1.806	1.965	1.763	1.590	1.565	1.424	1.330	1.095	1.051	0.981	1.041	0.899	0.891	0.847	0.879	0.805	0.731	0.735	0.613	0.559	0.543	0.563	0.491	0.490	0.545	0.493	0.415	0.375	0.320	0.374	0.513	0.410	0.453	0.391	0.368	0.402	0.294	0.352	0.313	0.346	0.416	0.440	0.355	0.262	0.260	0.249
