Sample:	'1
File name:	t2025042317利民村东北桥.FD3
Run date:	'12:57:23, 04/24/2025
Operator:	Administrator
Comment:	'

Instrument
Model:	F-2700 FL Spectrophotometer
Serial number:	23B8-004
ROM Version:	4J14000 07

Instrument parameters
Measurement type:	3-D scan
Data mode:	Fluorescence
EX  Start WL:	220.0 nm
EX  End WL:	600.0 nm
EX Sampling interval:	5.0 nm
EM  Start WL:	230.0 nm
EM  End WL:	650.0 nm
EM Sampling interval:	5.0 nm
Scan speed:	12000 nm/min
EX Slit:	5.0 nm
EM Slit:	5.0 nm
PMT Voltage:	700 V
Response:	Auto 
Corrected spectra:	Off
Contour interval:	50.000

Peak integration
Integration method:	Rectangular
Sensitivity:	1
Threshold:	1.000

Peaks
No.	ApexEX/EM(nm)	Height(Data)
1	225.0/575.0	60.18
2	225.0/600.0	49.52
3	225.0/610.0	43.63
4	225.0/625.0	38.91
5	230.0/345.0	1050
6	230.0/560.0	59.25
7	230.0/585.0	56.43
8	235.0/505.0	244.4
9	240.0/265.0	323.9
10	240.0/525.0	225.7
11	245.0/270.0	330.3
12	245.0/535.0	180.5
13	245.0/600.0	27.31
14	250.0/275.0	421.5
15	250.0/545.0	153.5
16	255.0/280.0	523.1
17	255.0/560.0	130.5
18	260.0/290.0	487.0
19	260.0/570.0	103.6
20	265.0/585.0	100.9
21	270.0/300.0	894.2
22	270.0/595.0	90.35
23	275.0/305.0	1051
24	275.0/610.0	79.86
25	280.0/310.0	965.1
26	280.0/340.0	896.2
27	280.0/625.0	66.89
28	285.0/315.0	926.0
29	285.0/635.0	52.15
30	290.0/325.0	857.3
31	315.0/355.0	424.7
32	320.0/360.0	399.9
33	330.0/375.0	362.5
34	335.0/380.0	357.8
35	350.0/400.0	306.5
36	430.0/505.0	29.95
37	445.0/525.0	17.76
38	460.0/340.0	3.498
39	475.0/345.0	3.504
40	505.0/275.0	3.230
41	510.0/280.0	3.317
42	520.0/285.0	3.724
43	530.0/290.0	3.610
44	540.0/295.0	4.711
45	545.0/300.0	5.240
46	555.0/305.0	5.688
47	560.0/310.0	5.594
48	575.0/315.0	5.547
49	580.0/320.0	5.706
50	585.0/325.0	6.013

Data points
	220.0	225.0	230.0	235.0	240.0	245.0	250.0	255.0	260.0	265.0	270.0	275.0	280.0	285.0	290.0	295.0	300.0	305.0	310.0	315.0	320.0	325.0	330.0	335.0	340.0	345.0	350.0	355.0	360.0	365.0	370.0	375.0	380.0	385.0	390.0	395.0	400.0	405.0	410.0	415.0	420.0	425.0	430.0	435.0	440.0	445.0	450.0	455.0	460.0	465.0	470.0	475.0	480.0	485.0	490.0	495.0	500.0	505.0	510.0	515.0	520.0	525.0	530.0	535.0	540.0	545.0	550.0	555.0	560.0	565.0	570.0	575.0	580.0	585.0	590.0	595.0	600.0
230.0	40.54	545.6	1668	562.0	31.84	7.796	6.394	5.487	4.423	4.378	3.784	3.591	3.194	2.616	2.361	1.959	1.671	1.553	1.380	1.242	1.227	1.121	0.912	0.893	0.865	0.859	0.815	0.735	0.726	0.697	0.684	0.627	0.659	0.575	0.541	0.542	0.493	0.489	0.460	0.478	0.442	0.536	0.480	0.436	0.461	0.442	0.916	3.512	6.520	4.816	1.772	0.563	0.362	0.343	0.352	0.328	0.376	0.368	0.374	0.345	0.335	0.361	0.347	0.352	0.368	0.349	0.365	0.400	0.374	0.375	0.415	0.378	0.376	0.363	0.356	0.397	0.365
235.0	63.68	167.9	1135	2232	514.4	53.34	7.837	5.743	4.956	4.833	4.290	4.077	3.787	2.820	2.692	1.907	1.535	1.500	1.626	1.118	1.166	1.044	1.056	1.002	0.844	0.885	0.821	0.652	0.852	0.740	0.756	0.613	0.655	0.558	0.550	0.555	0.589	0.488	0.501	0.490	0.394	0.451	0.499	0.527	0.597	0.414	0.512	1.141	2.903	5.522	7.881	8.329	3.798	0.879	0.381	0.358	0.411	0.330	0.381	0.339	0.301	0.355	0.326	0.340	0.365	0.330	0.345	0.390	0.392	0.331	0.455	0.334	0.432	0.359	0.325	0.439	0.377
240.0	93.13	103.8	355.8	1945	2651	412.7	25.85	6.720	5.701	5.748	4.414	4.009	3.625	2.730	2.587	2.219	1.731	1.620	1.525	1.393	1.128	1.161	1.012	0.931	0.895	0.884	0.839	0.755	0.832	0.663	0.785	0.689	0.593	0.562	0.453	0.506	0.595	0.571	0.548	0.548	0.394	0.459	0.444	0.534	0.580	0.671	0.532	0.600	1.002	1.883	4.797	11.75	14.14	8.942	2.987	0.573	0.344	0.397	0.387	0.355	0.352	0.340	0.337	0.330	0.343	0.323	0.327	0.364	0.321	0.297	0.389	0.322	0.433	0.338	0.380	0.411	0.435
245.0	76.52	128.5	137.6	672.7	2914	2791	304.4	14.15	7.284	5.878	5.473	4.377	3.903	2.988	2.611	2.156	1.725	1.572	1.523	1.283	1.109	1.119	1.076	0.887	1.003	0.906	0.872	0.826	0.786	0.708	0.716	0.631	0.652	0.493	0.548	0.537	0.535	0.575	0.618	0.590	0.415	0.554	0.479	0.429	0.552	0.733	0.758	0.702	0.575	0.710	1.398	4.112	10.93	17.55	16.31	7.512	1.838	0.412	0.369	0.444	0.348	0.399	0.344	0.313	0.345	0.336	0.330	0.352	0.371	0.325	0.447	0.378	0.386	0.344	0.391	0.381	0.485
250.0	41.31	104.3	187.4	232.3	928.3	2739	3445	1117	66.76	7.567	6.250	5.465	4.253	3.664	2.908	2.179	2.072	1.778	1.619	1.409	1.333	1.224	1.072	1.020	1.067	0.932	0.831	0.864	0.873	0.701	0.772	0.714	0.674	0.611	0.589	0.556	0.578	0.502	0.551	0.531	0.504	0.521	0.512	0.457	0.462	0.506	0.607	0.805	0.977	0.878	0.747	1.263	2.926	6.107	11.28	16.37	20.62	16.81	8.766	2.227	0.479	0.408	0.391	0.384	0.379	0.373	0.356	0.400	0.386	0.366	0.400	0.385	0.370	0.409	0.385	0.396	0.444
255.0	32.43	47.73	140.9	279.6	292.2	697.1	2720	5454	1549	68.20	8.542	7.713	5.324	4.370	3.174	2.833	2.358	1.846	1.856	1.575	1.330	1.226	1.088	1.228	1.088	0.938	0.933	0.753	0.862	0.745	0.815	0.700	0.634	0.667	0.621	0.590	0.581	0.460	0.542	0.533	0.593	0.511	0.487	0.441	0.457	0.491	0.485	0.509	0.652	0.907	1.241	1.378	1.217	1.752	2.828	4.285	8.651	20.31	33.54	25.74	12.40	2.208	0.424	0.448	0.370	0.392	0.395	0.387	0.408	0.410	0.408	0.400	0.373	0.348	0.445	0.436	0.387
260.0	33.32	32.40	62.25	235.6	286.3	212.6	826.5	4429	6103	1157	31.82	8.882	6.502	5.227	3.572	2.950	2.382	2.168	1.647	1.645	1.430	1.459	1.152	1.149	1.070	0.899	1.020	1.021	0.931	0.758	0.848	0.677	0.733	0.668	0.687	0.561	0.556	0.526	0.545	0.475	0.469	0.465	0.511	0.440	0.492	0.470	0.480	0.446	0.441	0.506	0.865	1.599	1.659	1.223	1.004	1.261	2.345	6.019	16.26	32.59	40.98	24.16	9.044	1.253	0.422	0.478	0.403	0.389	0.486	0.399	0.429	0.404	0.356	0.372	0.378	0.412	0.386
265.0	38.66	31.37	29.72	110.3	323.9	226.7	220.3	1480	6261	6191	204.5	14.79	7.953	6.063	4.056	3.576	2.681	2.133	1.694	1.871	1.380	1.466	1.136	1.063	1.049	1.039	1.004	1.038	0.881	0.880	0.910	0.749	0.751	0.742	0.627	0.633	0.526	0.549	0.567	0.492	0.474	0.465	0.535	0.493	0.408	0.517	0.449	0.415	0.395	0.321	0.513	0.922	1.773	2.020	1.540	0.837	0.925	1.834	4.164	10.55	25.48	43.39	32.20	20.49	5.055	0.641	0.454	0.414	0.432	0.476	0.426	0.380	0.433	0.425	0.414	0.391	0.347
270.0	47.68	40.99	35.75	48.95	152.4	330.3	261.3	381.9	1939	5766	7324	793.4	51.78	8.824	5.916	4.408	3.182	2.381	2.310	1.944	1.650	1.626	1.276	1.258	1.156	1.007	1.126	1.053	0.926	0.962	0.825	0.801	0.818	0.668	0.601	0.649	0.575	0.610	0.571	0.496	0.515	0.502	0.521	0.547	0.534	0.575	0.478	0.471	0.433	0.413	0.435	0.527	0.829	1.272	1.882	2.076	1.801	1.243	1.364	2.771	6.414	13.39	22.16	37.47	37.30	38.29	14.50	5.128	0.792	0.506	0.480	0.455	0.409	0.399	0.461	0.427	0.402
275.0	72.06	85.66	80.14	52.35	57.77	144.6	421.5	324.7	482.0	1419	4850	9999.9	1156	51.35	8.656	6.042	4.168	3.103	2.924	2.337	1.846	1.536	1.645	1.402	1.248	1.099	1.135	0.997	1.010	0.985	0.949	0.835	0.989	0.769	0.796	0.660	0.714	0.551	0.582	0.548	0.630	0.556	0.555	0.606	0.552	0.658	0.514	0.602	0.674	0.493	0.452	0.529	0.589	0.582	0.832	1.187	2.377	3.230	2.117	1.295	1.858	3.535	5.429	9.150	12.73	31.59	57.47	63.56	22.94	5.413	0.653	0.505	0.538	0.456	0.510	0.449	0.441
280.0	110.4	137.9	137.3	84.66	50.48	63.94	257.0	523.1	263.4	381.3	1358	7352	9525	841.4	23.71	8.425	5.077	3.897	3.088	2.445	2.274	1.759	1.635	1.375	1.321	1.190	1.108	1.082	1.064	1.096	1.004	0.917	0.837	0.806	0.873	0.744	0.749	0.626	0.639	0.524	0.647	0.578	0.533	0.646	0.619	0.671	0.754	0.748	0.844	0.650	0.567	0.608	0.596	0.479	0.569	0.704	1.034	2.169	3.317	2.790	1.625	1.412	1.759	2.655	3.568	8.322	21.44	48.34	70.22	32.69	18.35	2.445	0.620	0.566	0.539	0.473	0.524
285.0	159.1	212.3	202.2	130.5	64.41	49.34	115.3	430.5	486.5	212.1	399.4	2202	9368	7687	118.0	12.50	7.159	4.266	3.500	3.153	2.333	2.054	1.524	1.717	1.390	1.230	1.295	1.218	1.101	0.918	0.886	0.924	0.860	0.942	0.991	0.814	0.832	0.713	0.626	0.693	0.686	0.647	0.692	0.677	0.772	0.864	0.915	0.997	1.051	0.878	0.691	0.690	0.617	0.525	0.513	0.563	0.698	1.053	2.028	3.180	3.724	2.362	1.258	1.214	1.560	2.598	5.599	13.05	30.34	54.60	72.97	29.34	12.31	1.355	0.673	0.498	0.485
290.0	202.5	279.2	282.5	189.4	95.04	71.82	88.03	204.9	487.0	480.6	264.6	649.4	2702	7003	7613	1885	31.51	6.997	5.050	3.788	2.740	2.399	1.914	1.747	1.538	1.433	1.268	1.260	1.158	1.070	1.044	0.978	0.929	0.968	0.984	0.949	0.883	0.784	0.735	0.713	0.710	0.688	0.706	0.846	0.752	1.034	1.016	1.168	1.249	1.009	0.818	0.800	0.674	0.666	0.623	0.605	0.743	0.808	1.106	1.585	2.623	3.442	3.610	2.908	1.919	1.602	2.327	4.020	7.871	14.79	28.63	39.94	54.44	46.58	20.13	10.12	1.741
295.0	234.7	335.8	362.2	239.5	141.9	114.7	117.5	162.9	272.1	587.0	703.5	433.8	815.8	1756	4515	9833	676.9	30.39	7.543	5.027	3.622	2.952	2.545	2.162	1.736	1.660	1.395	1.622	1.469	1.355	1.034	1.017	0.903	1.119	0.992	1.161	0.966	0.906	0.687	0.688	0.758	0.688	0.775	0.821	0.853	1.210	1.238	1.284	1.391	1.161	1.088	1.036	0.800	0.835	0.741	0.751	0.962	0.913	1.051	1.158	1.598	1.978	2.478	4.174	4.711	3.233	2.135	2.458	3.341	4.684	7.523	10.01	14.31	23.29	48.73	72.31	31.99
300.0	262.5	383.7	393.7	300.0	179.9	148.4	157.4	196.9	259.5	433.2	894.2	685.8	478.9	599.0	1262	6424	8531	517.6	14.92	6.019	4.461	3.484	2.633	2.220	1.953	1.765	1.631	1.617	1.458	1.316	1.048	1.000	0.883	1.202	0.936	1.083	0.934	0.922	0.773	0.811	0.849	0.748	0.867	0.922	1.051	1.290	1.320	1.465	1.513	1.440	1.243	1.151	0.958	0.882	0.829	1.071	1.233	1.022	1.241	1.289	1.450	1.679	1.863	2.855	4.180	5.240	4.522	3.104	2.650	2.719	3.102	3.436	4.325	6.512	14.45	35.98	62.79
305.0	273.2	420.5	434.1	341.7	217.6	193.3	202.6	253.5	313.2	420.5	720.2	1051	593.6	417.0	457.3	1840	7582	5000	74.17	8.739	5.584	4.182	2.965	2.703	2.090	1.825	1.664	1.559	1.474	1.352	1.262	1.165	0.913	1.072	0.974	1.011	0.896	0.942	0.826	0.957	0.813	0.835	0.868	0.947	1.045	1.304	1.293	1.653	1.619	1.476	1.369	1.240	1.110	1.090	1.138	1.108	1.324	1.435	1.468	1.498	1.744	1.981	2.157	2.450	3.157	4.289	5.577	5.688	4.209	2.847	2.691	2.363	2.557	2.738	4.301	9.271	20.38
310.0	289.3	434.3	464.8	363.2	249.2	231.6	257.2	310.2	380.1	473.4	619.5	890.1	965.1	569.0	349.1	547.3	2118	5145	5635	1464	22.56	5.766	3.955	3.151	2.410	2.001	1.833	1.556	1.588	1.509	1.250	1.232	1.107	1.130	1.048	0.975	1.048	1.011	0.901	0.923	0.807	0.815	0.935	0.912	1.091	1.266	1.468	1.761	1.671	1.536	1.341	1.547	1.263	1.221	1.273	1.263	1.555	1.637	1.755	1.842	1.994	2.395	2.500	2.807	3.028	3.519	4.054	4.913	5.594	5.431	4.231	2.999	2.499	2.127	2.342	3.157	5.579
315.0	316.1	460.1	509.7	400.3	285.7	271.9	304.1	356.9	429.2	521.7	630.5	759.0	869.6	926.0	471.5	309.4	592.2	1250	3305	7472	499.0	24.43	5.285	3.794	3.076	2.501	2.096	1.808	1.655	1.638	1.427	1.216	1.132	1.196	0.997	1.124	0.938	1.027	1.021	0.977	0.739	0.837	0.931	0.965	1.038	1.239	1.382	1.971	1.774	1.666	1.335	1.493	1.454	1.291	1.455	1.544	1.741	1.827	1.881	2.092	2.241	2.656	2.744	2.989	3.395	3.471	3.907	3.887	4.082	4.764	5.422	5.547	3.982	2.713	2.216	2.209	2.544
320.0	329.5	529.0	598.9	450.2	332.4	307.6	337.4	392.4	469.7	576.4	678.0	764.9	798.0	907.8	743.9	331.9	295.2	385.3	880.6	4678	6461	422.4	13.00	4.864	3.654	2.927	2.341	1.997	1.716	1.699	1.573	1.431	1.145	1.172	1.038	1.142	1.039	0.941	0.973	0.969	0.953	0.959	0.983	1.029	1.083	1.391	1.642	2.093	1.916	1.761	1.494	1.705	1.537	1.529	1.574	1.670	1.741	1.892	1.968	2.155	2.631	2.588	2.790	3.148	3.524	3.613	4.088	3.917	4.055	4.135	4.453	5.271	5.706	4.853	2.987	2.220	2.064
325.0	379.8	606.6	744.9	573.9	391.3	340.7	366.7	425.2	498.0	607.1	723.8	805.4	805.9	791.6	857.3	507.5	267.8	220.8	282.3	1298	5459	3871	59.35	7.961	4.412	3.745	2.691	2.269	1.868	1.866	1.554	1.538	1.187	1.250	1.191	1.242	1.076	0.975	1.016	0.984	1.015	0.955	0.872	1.086	1.303	1.525	1.775	2.376	2.332	2.347	1.932	2.144	1.687	1.689	1.582	1.762	2.044	2.030	2.084	2.370	2.677	2.951	3.291	3.209	3.823	3.660	4.206	4.135	4.257	4.370	4.192	4.194	4.895	6.013	5.171	3.270	2.303
330.0	423.4	683.7	916.6	744.7	489.5	394.3	404.0	443.9	530.1	636.8	760.3	840.1	845.8	774.6	728.0	673.2	429.3	231.8	181.3	373.0	1503	3810	4444	1267	20.42	5.016	3.466	2.727	2.140	1.909	1.716	1.529	1.309	1.194	1.172	1.144	1.067	1.011	1.039	0.976	0.916	0.934	0.944	1.169	1.311	1.673	1.975	2.524	3.000	2.813	2.373	2.454	2.222	1.984	1.795	1.935	2.120	2.064	2.421	2.494	2.635	3.058	3.378	3.522	3.834	3.992	4.262	4.120	4.412	4.418	4.273	4.119	4.315	4.481	4.740	4.690	4.037
335.0	442.1	745.8	1009	863.8	601.7	464.8	442.8	475.3	560.7	666.8	791.6	870.4	886.4	807.8	696.1	597.9	619.2	381.7	202.9	197.6	407.5	913.7	2597	6089	1749	24.25	4.618	3.587	2.654	2.019	1.784	1.598	1.491	1.390	1.114	1.326	1.003	1.107	1.082	1.022	1.021	0.942	1.087	1.082	1.434	1.730	2.053	2.870	3.261	3.188	2.676	2.939	2.535	2.276	2.061	2.070	2.164	2.341	2.331	2.680	2.821	3.041	3.477	3.629	3.756	4.075	4.359	4.591	4.694	4.645	4.572	4.290	4.347	4.277	4.050	3.841	4.054
340.0	453.3	806.5	1029	946.5	654.4	500.5	479.7	500.6	566.3	671.2	789.7	879.2	896.2	821.8	705.3	562.5	559.7	533.4	271.2	180.1	181.9	261.9	677.7	3776	5753	377.6	13.29	4.352	3.194	2.358	2.153	1.662	1.288	1.476	1.144	1.265	0.995	1.106	1.098	0.968	0.986	0.947	1.186	1.172	1.387	1.815	2.097	2.988	3.498	3.161	2.995	3.187	2.916	2.602	2.312	2.241	2.463	2.441	2.363	2.644	2.793	3.047	3.538	3.674	3.873	4.024	4.393	4.543	4.579	4.809	4.573	4.439	4.445	4.366	3.856	3.557	3.501
345.0	442.7	801.6	1050	986.1	705.1	532.5	508.3	507.8	570.1	673.4	775.4	857.4	882.0	820.3	713.1	565.8	490.5	531.1	400.0	209.5	151.3	134.2	203.8	1033	4552	3277	293.4	7.152	3.790	2.725	2.395	2.037	1.514	1.604	1.390	1.273	1.133	1.119	1.031	0.982	0.980	1.001	1.101	1.155	1.390	1.683	2.127	2.950	3.286	3.361	2.950	3.504	3.011	2.720	2.474	2.240	2.586	2.529	2.500	2.768	2.937	3.211	3.372	3.717	3.969	4.033	4.013	4.312	4.680	4.638	4.749	4.581	4.358	4.321	3.863	3.631	3.560
350.0	431.1	737.0	1007	973.6	740.9	579.6	535.0	533.4	585.0	659.2	754.3	824.6	840.3	801.0	701.7	578.8	484.1	446.8	453.5	342.9	189.1	132.6	120.3	283.3	1237	3088	3696	1141	19.44	3.811	2.962	2.134	1.727	1.666	1.444	1.256	1.120	1.141	1.020	1.038	1.034	1.009	1.062	1.092	1.378	1.645	1.961	2.718	3.214	3.235	2.992	3.392	3.143	2.837	2.644	2.467	2.568	2.626	2.632	2.755	3.097	3.226	3.343	3.525	3.459	3.965	4.056	4.232	4.379	4.383	4.369	4.467	4.520	4.240	3.995	3.687	3.720
355.0	406.5	698.4	951.9	941.2	779.5	636.5	580.8	572.2	602.7	668.0	734.7	796.7	808.8	777.9	698.5	590.7	509.3	438.3	393.8	424.7	312.8	172.6	131.9	138.8	325.8	736.0	2076	4874	1577	23.60	3.982	2.805	2.221	1.661	1.359	1.184	1.110	1.153	1.130	0.900	1.005	0.978	1.088	1.057	1.267	1.607	1.929	2.536	2.990	3.128	2.921	3.327	3.269	2.969	2.778	2.646	2.761	2.773	2.925	3.018	3.115	3.414	3.469	3.578	3.511	3.936	4.018	3.969	4.447	4.286	4.650	4.385	4.376	4.025	3.800	3.776	3.812
360.0	393.3	658.5	897.5	928.3	792.1	676.4	609.3	598.4	618.1	683.5	733.5	785.0	786.1	760.2	687.6	600.0	522.8	449.1	388.2	392.2	399.9	242.9	157.3	126.2	140.8	209.8	537.8	2993	4820	359.9	13.47	3.556	2.559	1.972	1.496	1.287	1.084	1.043	1.060	0.941	1.015	1.104	1.072	1.130	1.301	1.613	1.816	2.415	2.783	2.823	2.804	3.282	3.275	3.016	2.972	2.680	2.891	2.758	2.972	2.892	3.288	3.365	3.609	3.602	3.634	3.820	4.019	3.961	4.238	4.211	4.257	4.516	3.790	4.135	4.066	3.846	3.945
365.0	380.2	643.1	864.0	915.9	798.3	697.3	644.1	620.3	635.4	682.2	731.3	767.5	770.1	738.9	682.7	598.4	534.0	468.7	403.5	369.5	395.5	346.9	202.5	144.1	117.2	106.9	160.4	818.6	3789	3065	283.7	6.724	3.211	2.106	1.829	1.525	1.272	1.117	1.091	1.054	0.998	1.027	1.017	1.120	1.264	1.513	1.777	2.394	2.723	2.928	2.720	3.223	3.290	2.967	2.900	2.818	3.125	3.006	3.080	3.113	3.274	3.290	3.355	3.706	3.639	3.730	3.964	3.716	4.051	4.071	4.069	4.261	3.723	3.958	3.760	3.709	3.980
370.0	369.8	588.9	809.7	882.7	815.1	724.6	668.9	648.6	654.0	693.3	721.2	751.7	743.0	715.3	668.0	600.0	545.0	487.5	433.3	387.4	358.4	369.9	313.2	196.3	138.1	107.2	96.46	223.3	1029	2730	3356	1055	17.81	3.225	2.279	1.768	1.500	1.192	1.100	1.072	1.083	0.993	1.011	1.216	1.310	1.409	1.786	2.134	2.465	2.695	2.615	3.172	3.213	3.177	3.095	2.970	3.197	3.045	3.239	3.226	3.095	3.535	3.519	3.788	3.614	3.730	3.742	3.662	3.930	3.635	3.978	4.043	3.976	4.106	3.866	3.971	3.829
375.0	346.0	550.5	763.9	842.0	784.4	733.7	688.4	655.7	671.3	685.9	711.2	727.7	722.6	689.2	645.7	590.8	552.2	502.8	455.5	413.3	369.1	342.5	362.5	302.1	183.9	133.6	104.7	110.1	270.7	650.3	1854	4236	1421	21.41	3.306	2.078	1.837	1.397	1.220	1.237	1.063	1.046	0.998	1.094	1.308	1.458	1.647	2.263	2.323	2.549	2.738	3.085	3.041	3.189	3.238	2.994	3.310	3.145	3.344	3.296	3.284	3.511	3.593	3.734	3.462	3.618	3.702	3.745	3.637	3.795	3.691	3.721	4.058	4.078	3.847	4.042	3.974
380.0	322.4	530.6	727.3	817.6	798.1	751.0	704.3	666.7	674.3	690.8	698.9	707.5	702.5	676.1	633.6	577.8	551.2	508.5	469.5	428.5	378.9	343.3	339.3	357.8	246.4	162.7	122.3	99.45	114.1	183.0	478.8	2580	4002	307.2	11.83	2.620	2.098	1.534	1.313	1.251	1.028	1.068	1.065	1.076	1.246	1.443	1.637	2.119	2.267	2.394	2.592	3.234	3.189	3.256	3.291	3.004	3.230	3.071	3.489	3.359	3.341	3.420	3.728	3.575	3.513	3.638	3.692	3.632	3.732	3.833	3.871	3.709	3.965	4.050	3.808	3.885	4.094
385.0	316.8	519.7	715.3	813.7	807.9	765.5	702.6	673.6	673.7	681.9	692.1	694.5	692.3	666.5	623.3	571.1	545.3	510.1	476.0	437.7	395.8	354.7	329.8	342.0	317.7	202.1	142.9	111.3	91.06	87.48	142.3	701.1	3028	2576	235.5	5.091	2.594	1.825	1.381	1.221	1.120	1.011	1.064	1.119	1.166	1.389	1.471	1.982	2.299	2.357	2.538	3.253	3.201	3.200	3.304	3.122	3.422	3.228	3.594	3.339	3.363	3.445	3.639	3.833	3.435	3.306	3.486	3.594	3.528	3.846	3.780	3.553	3.695	3.748	3.814	3.638	3.896
390.0	315.4	485.2	685.0	782.8	786.8	761.2	705.0	677.9	666.6	670.4	683.6	679.0	661.1	641.9	604.8	561.2	536.4	507.4	473.6	446.7	406.7	373.8	341.6	321.2	324.7	285.2	191.6	138.5	108.3	85.80	79.48	189.1	816.3	2103	2536	821.9	14.83	2.705	1.886	1.460	1.297	1.050	1.041	1.108	1.257	1.448	1.579	1.919	2.277	2.362	2.375	3.021	3.316	3.219	3.324	3.201	3.402	3.412	3.297	3.380	3.395	3.395	3.469	3.538	3.498	3.363	3.482	3.385	3.628	3.628	3.780	3.813	3.640	3.571	3.757	3.710	3.796
395.0	305.5	480.5	653.4	753.0	774.3	764.8	692.6	678.5	657.5	662.4	662.5	658.7	642.6	621.7	584.1	545.7	520.7	496.7	472.4	445.9	414.2	388.6	354.2	328.4	303.9	307.0	269.8	179.4	137.0	108.2	83.92	85.16	212.5	497.8	1373	3086	1099	18.10	2.755	1.948	1.570	1.257	1.176	1.200	1.032	1.276	1.701	1.910	2.116	2.392	2.312	2.933	3.125	3.220	3.313	3.172	3.177	3.465	3.432	3.377	3.112	3.461	3.457	3.557	3.274	3.409	3.296	3.336	3.514	3.415	3.614	3.407	3.623	3.462	3.803	3.535	3.667
400.0	264.3	463.7	645.1	727.2	759.7	747.6	708.5	671.4	662.4	656.8	657.6	641.5	627.3	602.3	570.6	536.7	509.5	492.8	464.8	442.3	414.3	394.4	364.3	337.6	305.1	293.5	306.5	232.8	161.2	127.5	98.32	77.19	86.30	137.7	356.1	1866	2930	258.6	10.32	2.381	1.707	1.295	1.285	1.244	1.257	1.401	1.498	1.740	2.128	2.384	2.233	2.915	2.966	3.090	3.227	2.987	3.448	3.290	3.323	3.445	3.291	3.558	3.444	3.395	3.424	3.309	3.093	3.255	3.466	3.394	3.336	3.367	3.675	3.583	3.640	3.533	3.454
405.0	273.2	453.3	629.7	716.4	757.0	734.5	709.9	672.5	657.8	642.2	645.9	630.7	615.0	596.7	563.1	523.8	498.0	478.6	457.7	434.2	412.0	396.7	369.4	346.1	313.7	289.1	295.0	282.5	199.0	149.5	114.6	86.79	67.16	64.65	103.2	502.7	2172	2153	202.4	4.581	1.977	1.606	1.304	1.267	1.294	1.308	1.497	1.846	2.017	2.249	2.199	2.798	2.961	3.066	3.072	3.026	3.469	3.305	3.442	3.378	3.207	3.613	3.267	3.298	3.108	3.235	3.074	3.274	3.397	3.297	3.239	3.372	3.566	3.500	3.539	3.670	3.533
410.0	285.8	438.9	590.1	697.0	731.0	717.6	703.6	669.3	654.1	642.8	630.7	617.4	601.2	577.4	540.2	498.9	476.9	461.4	442.4	423.5	406.2	392.4	371.2	351.6	326.5	299.7	280.5	283.0	256.1	188.2	136.2	103.4	76.26	57.78	53.31	134.0	581.2	1604	1962	667.4	13.34	2.130	1.605	1.362	1.354	1.494	1.500	1.894	2.035	2.047	2.108	2.707	2.770	2.943	3.250	3.055	3.387	3.209	3.419	3.301	3.291	3.463	3.460	3.306	3.176	3.147	3.167	3.022	3.258	3.356	3.261	3.236	3.449	3.344	3.372	3.217	3.458
415.0	265.4	419.4	584.2	669.8	703.2	705.6	690.7	671.9	647.3	633.5	619.1	604.6	583.3	553.5	517.7	477.8	446.7	436.4	417.6	410.0	392.2	380.0	362.4	351.2	328.7	307.6	280.3	265.8	266.7	239.5	164.4	119.7	88.30	65.78	50.27	57.08	148.0	376.0	1004	2255	259.3	16.89	2.105	1.622	1.499	1.473	1.595	1.814	2.105	2.088	2.136	2.737	2.871	2.931	3.010	2.979	3.309	3.402	3.339	3.088	3.334	3.369	3.379	3.217	3.247	3.318	3.149	3.050	3.315	3.269	2.970	3.141	3.296	3.229	3.357	3.262	3.041
420.0	246.5	396.1	558.1	661.4	681.3	697.4	683.3	656.1	640.4	625.4	601.6	589.0	559.1	532.1	492.6	458.9	431.6	415.9	404.0	393.9	379.5	369.0	354.9	350.1	328.9	308.5	281.0	262.6	252.0	256.2	198.9	135.2	99.79	72.66	54.44	43.07	54.77	99.05	252.8	1311	2025	237.0	8.852	1.945	1.585	1.660	1.655	1.871	2.095	1.892	2.118	2.596	2.803	3.000	2.960	2.762	3.085	3.250	3.185	3.101	3.287	3.329	3.200	3.216	3.076	3.159	3.157	2.937	3.108	3.187	3.103	2.986	3.363	3.203	3.244	3.264	3.077
425.0	233.5	390.4	547.7	621.1	666.2	676.1	667.7	649.4	636.8	615.5	593.5	584.3	544.7	515.6	474.2	438.2	417.9	398.4	386.0	375.1	363.8	357.8	347.9	338.8	323.2	306.6	283.7	263.4	244.6	242.7	226.6	155.7	109.3	80.73	60.42	45.96	38.05	39.39	68.51	348.3	1520	1795	184.4	3.760	1.904	1.788	1.630	1.872	1.923	1.810	2.077	2.547	2.568	2.850	3.085	2.884	3.018	3.255	3.226	3.127	3.364	3.249	3.048	3.187	3.219	3.171	3.199	3.046	2.908	3.040	2.973	2.976	3.074	2.951	2.975	2.985	3.017
430.0	260.6	372.4	515.7	602.3	641.5	647.7	660.5	643.5	627.0	616.6	589.7	564.0	529.0	492.7	453.5	417.4	393.0	378.7	365.9	356.2	348.4	339.5	333.5	326.4	316.5	300.1	285.6	266.5	245.6	229.3	220.2	191.3	133.9	93.58	70.26	53.10	40.31	30.88	30.84	88.91	398.3	1178	1543	557.5	12.59	2.199	1.808	1.999	1.981	1.826	2.035	2.449	2.604	2.981	2.955	2.844	3.071	3.194	3.239	3.220	3.225	3.184	3.074	3.143	3.009	3.069	3.097	2.888	2.818	2.801	2.887	2.879	2.861	2.726	2.773	2.870	2.802
435.0	363.4	362.2	493.1	583.7	609.0	623.1	642.9	638.7	619.1	609.3	583.2	556.4	514.5	476.5	432.5	394.0	373.0	358.7	346.3	335.3	326.7	322.2	322.4	313.6	306.0	296.1	282.7	265.4	247.5	229.4	206.1	192.4	166.4	112.3	79.85	61.47	47.07	33.26	27.00	33.94	99.50	273.4	739.1	1846	241.7	16.56	2.400	2.071	2.223	1.949	2.075	2.320	2.596	2.874	2.997	2.756	2.918	3.083	3.254	3.122	3.216	3.190	3.240	3.285	2.909	2.986	3.040	2.795	2.809	2.957	2.857	2.677	2.825	2.843	2.861	2.693	2.750
440.0	459.3	385.3	466.1	557.2	608.1	621.8	633.7	624.3	624.7	587.4	576.0	552.2	498.6	458.5	418.4	381.5	359.0	344.3	333.3	320.7	315.1	312.5	309.8	302.9	298.6	288.4	275.8	265.0	247.8	229.9	204.5	183.3	174.4	134.1	90.23	69.08	51.66	38.04	28.53	24.12	34.61	69.69	183.9	1054	1791	223.3	8.835	2.266	2.104	2.017	2.040	2.347	2.747	2.556	2.912	2.954	2.959	3.029	3.037	3.258	3.185	3.034	3.111	3.080	2.895	2.932	2.829	2.819	2.826	2.913	2.551	2.604	2.699	2.506	2.581	2.697	2.887
445.0	506.8	511.3	452.6	554.1	589.6	606.5	617.8	609.6	602.0	576.3	559.5	532.0	488.7	441.1	398.3	367.3	345.2	326.8	315.5	305.7	301.9	293.5	293.3	291.1	286.3	280.9	269.1	258.5	244.3	225.6	202.5	177.7	164.4	149.0	104.9	73.05	56.08	42.59	31.94	24.90	21.70	26.15	49.16	277.3	1306	1645	163.5	4.540	2.256	2.127	2.044	2.549	2.532	2.558	2.618	2.863	2.987	3.241	3.185	3.191	2.955	3.154	2.907	3.266	3.139	2.866	2.751	2.771	2.692	2.560	2.496	2.521	2.728	2.645	2.638	2.562	2.553
450.0	368.9	806.8	550.3	524.0	561.6	569.5	581.6	583.5	578.3	556.9	547.9	507.2	468.5	416.3	373.6	340.4	318.3	302.4	289.6	283.1	276.4	272.8	272.7	270.4	269.1	263.3	256.2	246.7	235.7	220.7	199.7	172.0	150.4	140.9	122.4	86.64	62.14	47.35	36.50	27.90	21.88	18.48	20.75	69.65	340.0	1045	1411	503.9	11.13	2.326	2.186	2.518	2.417	2.524	2.619	2.626	2.809	3.036	3.041	2.997	3.021	2.931	2.890	3.156	2.888	2.645	2.701	2.661	2.569	2.733	2.420	2.425	2.312	2.486	2.335	2.549	2.527
455.0	228.0	828.9	997.9	498.8	514.7	534.2	546.0	549.6	543.1	522.8	521.2	477.4	440.4	387.6	341.5	313.4	291.4	278.5	267.9	259.1	252.3	248.0	248.4	248.1	248.2	245.3	234.2	228.8	222.0	210.4	194.8	167.4	141.8	125.3	117.5	103.2	71.28	50.50	40.28	31.23	24.22	19.59	16.33	24.88	83.03	241.3	631.2	1544	205.1	13.04	2.467	2.329	2.383	2.400	2.322	2.470	2.575	2.690	2.901	3.116	2.787	2.727	2.858	2.748	2.908	2.585	2.668	2.526	2.376	2.506	2.406	2.186	2.515	2.214	2.204	2.358	2.263
460.0	185.2	620.7	1436	624.5	478.0	501.6	508.9	525.0	513.1	500.7	482.2	458.6	409.5	364.6	325.1	290.4	270.9	255.4	245.1	238.2	235.5	230.8	231.0	230.6	228.4	225.0	221.2	215.0	208.4	202.3	185.3	162.3	139.1	118.7	106.3	103.5	82.60	55.91	42.99	34.15	27.02	20.51	15.77	15.44	26.26	60.59	154.0	827.9	1406	170.6	8.050	2.711	2.468	2.428	2.552	2.334	2.496	2.593	2.847	2.813	2.709	2.754	2.692	2.649	2.589	2.501	2.649	2.544	2.273	2.437	2.289	2.368	2.384	2.240	2.229	2.009	2.204
465.0	163.4	390.5	1548	860.6	463.9	463.3	480.5	487.0	487.0	480.1	455.1	435.3	384.8	337.1	303.8	278.2	252.9	236.5	227.6	220.8	218.0	214.0	211.8	215.5	210.4	209.4	204.8	201.1	197.6	191.1	176.9	157.4	132.9	114.8	99.63	94.69	89.22	62.88	44.32	35.92	27.64	22.54	17.73	14.57	14.56	20.64	40.14	212.9	1010	1234	135.7	4.769	2.621	2.468	2.323	2.353	2.412	2.623	2.539	2.679	2.590	2.534	2.556	2.562	2.560	2.609	2.589	2.485	2.170	2.269	2.089	2.240	2.284	2.219	2.068	1.984	2.043
470.0	168.7	256.0	965.1	1751	596.7	431.6	436.7	447.3	448.3	438.4	425.9	394.5	354.8	311.7	276.7	247.0	224.7	212.4	205.2	198.4	193.7	190.0	190.0	190.7	189.7	187.5	184.5	183.2	177.7	172.7	162.4	145.0	125.2	108.2	92.41	82.67	78.39	70.11	50.81	37.58	29.33	24.12	18.93	15.28	13.29	12.47	15.18	52.89	259.6	752.7	984.1	400.5	11.97	2.627	2.535	2.394	2.279	2.427	2.284	2.468	2.415	2.436	2.410	2.307	2.313	2.459	2.205	2.189	2.133	2.163	1.914	2.043	1.952	1.915	1.862	1.839	1.823
475.0	158.1	222.7	467.3	1649	1548	417.8	401.8	406.8	408.2	397.4	386.5	355.8	321.9	281.0	246.7	222.8	200.0	191.7	182.4	175.1	169.1	168.1	168.2	166.6	166.7	166.5	164.5	163.1	160.4	155.2	148.6	132.7	116.6	100.9	86.51	75.89	66.06	64.85	59.30	41.88	30.00	24.36	19.93	16.21	13.51	11.13	10.29	17.68	62.57	172.9	385.6	1013	208.2	15.16	2.435	2.168	2.226	2.281	2.154	2.192	2.254	2.348	2.266	2.199	2.335	2.098	2.111	2.100	1.949	1.964	1.844	1.740	1.797	1.855	1.654	1.710	1.805
480.0	167.2	210.8	310.5	1049	2247	531.7	371.8	384.5	382.6	369.9	359.0	329.2	296.3	258.7	229.2	202.7	184.0	175.5	166.7	159.6	154.3	154.6	151.9	150.6	153.3	150.9	151.3	148.6	148.8	145.1	135.9	122.6	110.0	95.44	82.24	71.11	62.14	56.24	58.61	47.16	32.00	25.81	20.67	16.83	14.71	11.84	9.923	10.21	18.93	42.54	92.74	470.2	1000	194.3	9.291	2.425	2.240	2.103	2.070	2.214	2.103	2.227	2.179	2.100	2.155	1.963	1.991	1.878	1.797	1.769	1.628	1.653	1.504	1.847	1.721	1.697	1.677
485.0	147.0	215.6	255.8	544.3	2217	1167	351.0	362.0	353.3	353.2	336.5	312.2	277.7	243.2	215.9	189.1	172.2	162.1	152.3	147.2	141.3	142.0	140.7	139.7	142.5	140.0	140.7	136.5	137.6	135.3	128.6	116.1	103.0	90.36	79.92	69.17	59.77	51.17	51.11	49.60	36.70	26.33	21.65	17.86	14.76	12.32	10.37	9.062	9.517	13.85	24.43	117.5	639.1	956.6	158.8	4.683	2.301	2.079	2.145	1.930	2.020	2.082	1.916	1.952	1.793	2.108	1.816	1.696	1.624	1.595	1.685	1.714	1.677	1.587	1.513	1.574	1.530
490.0	126.0	217.4	251.6	328.4	1255	2048	604.0	323.4	327.4	322.0	311.7	288.3	256.4	222.6	194.7	171.1	157.8	147.4	138.7	132.9	128.1	127.8	126.0	126.9	126.7	127.1	125.7	124.8	124.0	123.3	115.8	105.8	94.90	84.03	74.53	64.85	56.42	49.21	44.63	43.70	40.74	30.62	22.94	18.43	15.64	13.26	11.10	9.298	7.940	7.838	9.360	29.78	159.6	502.0	803.6	383.7	13.45	2.393	2.012	1.939	1.926	1.990	1.898	1.753	1.896	1.856	1.776	1.577	1.567	1.605	1.571	1.551	1.566	1.556	1.398	1.499	1.428
495.0	104.3	195.0	256.8	259.5	510.2	1867	1540	327.5	291.4	290.0	276.8	263.5	230.7	202.2	178.0	152.9	142.1	132.2	124.6	118.7	114.1	114.7	111.1	113.6	111.3	110.7	110.3	111.2	110.7	108.3	105.6	96.54	86.93	76.40	68.02	60.04	52.83	46.73	40.63	36.46	37.14	34.15	25.41	18.36	15.88	13.66	11.72	9.870	8.316	6.796	6.316	10.32	38.78	115.1	304.6	893.7	563.0	18.82	2.458	2.006	2.001	1.954	1.738	1.773	1.729	1.705	1.597	1.428	1.394	1.448	1.367	1.422	1.412	1.525	1.311	1.274	1.304
500.0	89.24	160.6	263.1	241.4	302.3	1103	2322	509.9	265.3	265.7	257.0	243.1	212.9	186.6	160.1	138.4	128.4	118.9	112.4	108.2	103.2	102.5	101.7	101.5	101.5	101.8	100.9	100.8	101.7	99.76	98.19	89.09	79.34	71.18	64.24	54.87	49.99	44.10	38.32	34.13	31.83	33.92	28.87	20.17	15.65	13.39	11.69	9.902	8.688	7.180	5.458	6.150	11.86	28.49	72.54	381.9	996.1	222.1	12.95	2.140	1.866	1.793	1.719	1.617	1.573	1.700	1.640	1.509	1.347	1.286	1.226	1.338	1.218	1.394	1.320	1.311	1.302
505.0	81.02	125.4	235.2	244.4	234.6	513.8	2325	1095	254.6	247.3	238.9	224.2	194.6	171.6	145.7	130.9	117.1	109.2	104.3	98.22	93.19	92.64	91.26	91.71	91.49	91.81	89.46	90.90	91.58	89.87	88.60	81.44	73.41	65.54	59.00	51.31	46.65	41.61	36.38	32.33	28.56	29.25	29.95	22.42	16.29	13.58	11.68	9.876	8.682	7.495	5.548	5.149	6.078	9.331	18.82	92.71	512.5	897.0	187.5	6.273	2.003	1.683	1.641	1.582	1.652	1.529	1.437	1.375	1.324	1.317	1.333	1.153	1.143	1.267	1.380	1.220	1.138
510.0	75.39	109.3	183.8	243.1	210.7	271.4	1246	2137	478.0	217.3	214.0	196.0	171.1	150.7	131.4	115.1	103.8	95.41	90.33	85.77	82.87	80.45	79.42	80.00	79.69	79.80	78.77	78.65	80.52	78.54	76.08	71.00	63.69	57.90	51.91	46.74	41.86	37.08	33.49	29.16	26.30	24.10	25.20	24.43	18.39	13.69	11.35	9.771	8.359	7.187	6.035	5.232	4.714	5.009	6.752	23.22	123.6	410.2	664.7	325.1	14.59	1.902	1.512	1.519	1.525	1.378	1.342	1.288	1.278	1.202	1.201	1.124	1.182	1.169	1.170	1.133	1.148
515.0	72.24	101.6	133.0	222.3	207.1	196.2	440.3	1976	1473	219.4	185.2	172.1	147.1	130.5	112.6	99.06	90.95	82.26	79.40	74.45	71.50	69.32	69.08	68.56	68.59	67.86	67.98	67.55	68.08	67.35	65.15	61.51	55.30	51.04	45.92	41.04	37.37	32.75	30.06	26.75	23.76	21.37	19.70	21.47	21.40	14.81	11.01	9.074	8.119	6.904	6.141	5.375	4.486	4.131	4.042	7.652	29.82	93.61	209.9	636.4	477.7	20.62	1.762	1.455	1.285	1.320	1.249	1.202	1.128	1.051	1.079	1.137	0.959	1.070	1.008	0.995	0.981
520.0	66.56	86.40	115.1	193.0	225.0	166.0	225.9	1105	2388	282.2	167.0	149.4	136.0	116.6	102.0	90.91	80.37	73.85	69.15	67.92	63.21	62.48	61.26	60.92	60.80	61.02	59.09	59.38	59.90	60.63	58.50	55.61	49.95	45.80	41.86	37.73	34.21	29.66	27.24	23.73	21.50	18.97	17.55	17.30	19.77	16.77	11.36	8.910	7.636	6.558	5.907	5.154	4.879	3.977	3.341	4.052	8.893	22.81	49.65	245.8	706.1	226.6	14.09	1.611	1.287	1.118	1.218	1.125	1.112	0.973	1.086	1.053	0.926	1.036	0.902	0.916	0.929
525.0	67.70	81.96	107.1	153.4	225.7	162.6	163.7	454.2	2503	1030	156.3	139.8	123.5	108.4	93.00	81.72	73.54	66.20	62.90	58.52	57.53	55.17	54.63	55.53	54.70	55.06	52.74	53.85	54.05	55.17	52.11	49.62	45.40	40.45	37.99	34.10	30.71	27.62	24.96	22.70	20.21	17.71	16.03	15.00	16.38	17.76	12.64	8.987	7.211	6.447	5.608	4.644	4.768	4.213	3.245	3.194	4.301	7.171	13.11	58.71	322.5	645.4	187.6	6.879	1.348	1.039	1.156	1.061	1.062	1.083	1.059	0.935	0.957	0.861	0.923	0.860	0.934
530.0	57.66	71.17	93.53	116.6	187.9	175.1	136.4	204.2	1260	2223	397.5	121.6	110.5	94.37	81.80	72.09	63.95	58.03	55.15	50.79	49.85	48.50	47.18	48.04	46.64	46.66	46.13	46.35	46.27	47.04	45.00	42.22	38.67	36.04	32.76	30.21	26.84	24.13	21.91	19.89	17.65	16.30	14.49	13.37	12.97	14.60	13.82	10.19	7.402	6.197	5.240	4.553	4.359	4.124	3.516	2.969	3.246	3.490	4.699	14.82	76.30	265.4	463.2	252.2	15.40	1.489	1.136	1.015	0.938	1.050	0.959	0.831	0.973	0.905	0.844	0.794	0.784
535.0	51.80	58.93	78.62	99.98	132.9	180.5	126.1	131.8	390.2	2029	1451	127.6	92.79	80.02	68.85	61.73	55.04	50.01	46.07	44.28	42.42	41.21	40.89	39.48	39.47	39.43	39.66	39.32	39.09	39.57	38.71	36.90	33.39	30.50	28.37	25.63	23.06	20.67	19.23	17.19	15.49	14.20	13.09	11.69	10.55	10.87	12.05	11.58	8.072	6.010	4.905	4.209	3.744	3.561	3.540	3.236	2.931	2.668	2.840	4.873	18.49	60.58	133.7	415.0	244.7	21.64	1.383	1.222	0.901	0.956	0.900	0.845	0.850	0.743	0.790	0.822	0.853
540.0	52.09	55.93	73.22	83.75	98.57	170.6	140.3	110.1	164.9	1007	2484	200.8	82.81	73.04	61.63	54.06	48.14	43.35	40.52	38.83	37.48	35.03	35.42	34.14	34.24	34.16	33.81	33.55	34.13	34.77	33.34	30.96	29.26	26.27	25.01	22.22	20.45	18.46	17.41	15.67	14.00	12.73	11.57	10.44	9.312	8.883	9.693	11.30	8.906	6.176	4.460	4.275	3.572	3.319	3.202	3.293	2.984	2.466	2.236	2.632	5.456	14.85	31.46	147.3	450.5	222.7	14.47	1.163	1.034	0.903	0.840	0.761	0.805	0.741	0.761	0.697	0.781
545.0	48.49	55.77	73.08	72.49	82.83	130.5	153.5	93.82	107.1	368.8	2500	827.2	75.98	63.88	55.82	46.05	42.62	39.33	35.01	34.58	32.59	31.45	31.74	30.36	29.75	29.98	29.18	29.99	29.58	30.48	29.36	27.12	26.10	23.50	22.41	20.00	18.08	16.28	14.94	13.59	12.46	11.12	10.46	9.418	8.478	8.193	7.641	9.394	9.379	6.501	4.391	3.865	3.368	3.147	3.010	2.826	3.016	2.371	2.075	2.098	2.598	4.663	8.413	34.87	191.6	451.6	174.5	6.641	1.039	0.899	0.858	0.753	0.805	0.706	0.703	0.759	0.734
550.0	43.94	57.14	64.10	65.36	68.72	85.87	147.8	102.7	82.12	144.9	1148	1932	219.8	54.78	47.15	40.28	35.73	33.21	30.76	29.10	27.69	26.96	25.97	25.26	25.10	25.04	24.86	25.10	24.83	25.01	24.85	22.77	21.79	19.94	18.27	16.81	15.35	13.96	12.55	11.78	10.47	9.592	9.084	8.300	7.412	6.793	6.556	6.704	7.833	6.830	4.989	3.561	3.012	2.924	2.697	2.527	2.708	2.679	2.172	1.931	2.047	2.275	3.219	8.907	45.31	171.7	316.5	140.7	15.09	1.262	0.886	0.756	0.726	0.687	0.705	0.634	0.629
555.0	42.37	57.73	55.84	59.32	59.06	59.92	106.6	127.6	69.89	83.41	325.8	1858	1015	54.44	40.10	34.09	28.44	27.15	25.17	23.10	22.41	22.17	21.25	20.90	20.90	19.91	20.10	20.27	20.50	20.35	19.55	19.14	17.52	16.27	14.54	13.83	12.75	11.60	10.80	10.09	8.863	7.789	7.465	7.270	6.079	6.111	5.516	5.242	5.317	6.070	5.369	3.712	2.919	2.483	2.324	2.358	2.181	2.385	2.508	1.801	1.736	1.774	1.870	3.085	11.20	39.56	88.23	253.4	229.4	19.92	1.112	0.764	0.690	0.749	0.630	0.590	0.683
560.0	44.38	53.26	59.25	57.54	52.89	50.62	78.30	130.5	70.11	63.12	119.5	911.4	1972	117.2	33.96	28.25	25.96	22.81	21.10	19.28	19.56	18.87	18.23	17.71	17.22	17.38	16.60	17.15	16.96	17.46	16.47	15.64	14.66	13.49	12.57	11.66	10.89	9.892	9.630	8.290	7.846	7.210	6.449	6.277	5.575	5.278	4.533	4.536	4.007	4.793	5.184	4.192	2.788	2.165	2.063	2.036	2.038	2.056	2.376	2.062	1.630	1.550	1.680	1.684	3.633	10.04	20.87	87.58	289.7	183.2	12.59	0.916	0.747	0.800	0.604	0.550	0.600
565.0	46.19	51.58	56.71	53.76	46.75	43.46	55.30	117.1	82.11	57.09	68.73	311.1	2120	559.7	29.34	25.49	21.57	20.82	17.89	17.72	17.18	15.83	15.42	15.17	14.89	14.85	13.89	14.83	14.18	14.71	13.85	13.25	12.69	11.36	10.74	9.954	8.974	8.644	8.222	6.833	6.601	6.422	5.500	5.140	5.077	4.367	4.130	4.051	3.317	3.665	4.526	4.151	2.838	2.167	1.942	1.827	1.918	1.747	2.142	2.252	1.911	1.560	1.522	1.676	1.991	3.539	5.847	21.08	113.8	280.1	123.7	5.210	0.824	0.683	0.614	0.592	0.599
570.0	46.34	53.84	55.24	45.29	41.81	39.40	41.97	78.93	103.6	56.71	51.33	104.9	1010	1551	79.22	21.47	18.00	16.72	15.17	14.69	13.42	13.21	12.59	12.39	11.87	11.81	11.54	11.87	11.63	11.83	11.37	10.77	10.50	9.300	8.865	8.241	7.345	6.884	6.539	5.964	5.462	5.294	4.656	4.385	4.260	3.703	3.486	3.246	2.960	2.753	3.026	3.566	3.202	2.249	1.844	1.773	1.688	1.618	1.748	1.920	2.106	1.755	1.675	1.625	1.693	1.980	2.456	5.912	27.14	100.1	188.8	113.6	14.06	0.944	0.633	0.628	0.586
575.0	41.81	60.18	55.73	44.30	36.85	33.42	34.62	47.32	101.6	70.36	45.47	56.62	275.4	1646	661.0	20.43	15.14	13.85	12.32	11.56	11.38	10.49	9.854	9.502	9.162	9.102	9.413	9.585	9.386	9.802	8.596	8.698	8.332	7.875	7.067	6.808	6.340	5.607	5.680	4.897	4.710	4.056	3.714	3.642	3.389	3.228	2.969	2.839	2.478	2.275	2.202	2.411	3.116	2.605	1.789	1.553	1.546	1.384	1.592	1.645	1.689	2.074	1.815	1.664	1.541	1.681	1.771	2.532	7.135	23.37	50.60	146.2	157.6	18.48	0.813	0.620	0.591
580.0	50.02	52.23	51.56	43.47	32.60	31.68	31.35	32.96	78.04	93.32	45.33	45.74	89.83	836.7	1363	52.59	13.48	12.09	10.55	9.871	9.585	8.661	8.540	8.694	8.647	8.247	7.615	8.083	8.037	7.777	7.506	7.826	7.169	6.269	6.133	5.415	5.408	4.849	4.749	4.222	4.062	3.569	3.304	3.238	3.131	2.639	2.713	2.405	2.266	2.040	1.820	1.976	2.516	2.766	1.964	1.492	1.369	1.485	1.330	1.618	1.474	1.720	1.908	1.645	1.608	1.507	1.499	1.716	2.661	6.209	12.30	47.55	170.9	121.5	10.43	0.706	0.650
585.0	46.82	52.39	56.43	40.67	31.71	28.12	31.05	31.81	52.40	100.9	49.29	41.01	47.62	276.2	1532	259.0	12.08	10.31	9.327	8.829	7.991	7.428	7.773	7.792	7.527	7.215	6.880	7.117	6.897	6.873	6.606	6.702	6.089	5.355	5.120	4.682	4.769	4.305	4.166	3.540	3.300	3.174	2.921	2.689	2.601	2.494	2.312	2.180	2.044	1.802	1.682	1.641	1.787	2.490	2.150	1.647	1.369	1.402	1.249	1.341	1.331	1.588	1.845	1.742	1.318	1.369	1.381	1.382	1.579	2.420	3.743	11.63	62.93	163.9	84.59	4.275	0.571
590.0	49.19	47.48	51.41	35.98	30.92	24.54	27.54	28.84	36.79	84.25	70.84	38.16	37.47	84.47	752.5	918.3	41.62	9.154	8.304	7.321	6.554	6.171	6.548	6.315	6.042	5.917	5.824	5.904	5.347	5.808	5.556	5.359	4.828	4.488	4.265	3.960	3.787	3.529	3.282	2.981	2.774	2.711	2.393	2.233	2.290	2.130	1.904	1.820	1.668	1.484	1.405	1.341	1.417	1.661	1.947	1.642	1.355	1.195	1.127	1.126	1.160	1.229	1.371	1.643	1.374	1.287	1.174	1.115	1.322	1.399	1.763	3.380	15.03	55.77	112.8	75.35	13.09
595.0	45.58	44.49	51.20	34.82	27.29	25.38	25.07	25.17	31.81	54.83	90.35	43.31	33.92	38.87	200.5	1015	326.6	8.954	6.749	6.172	5.620	5.406	5.444	5.216	4.905	4.740	4.319	4.676	4.578	4.754	4.315	4.542	3.769	3.628	3.593	3.377	3.064	3.010	2.725	2.455	2.293	2.142	2.010	1.957	1.919	1.740	1.599	1.490	1.412	1.330	1.154	1.170	1.200	1.153	1.462	1.650	1.475	1.192	0.983	1.019	1.040	1.211	1.089	1.180	1.463	1.403	1.140	1.113	1.202	1.060	1.167	1.601	3.985	12.97	28.91	81.70	100.9
600.0	40.42	49.52	44.99	33.56	24.90	27.31	22.93	25.71	28.24	40.69	87.10	53.47	34.63	29.22	60.20	561.5	729.1	21.32	6.037	5.377	5.190	4.936	4.739	4.310	4.102	3.937	3.784	4.096	4.348	3.961	3.922	3.903	3.326	3.229	2.930	2.724	2.702	2.474	2.448	2.062	2.041	1.971	1.792	1.748	1.543	1.573	1.464	1.509	1.224	1.069	1.001	1.123	1.048	0.963	1.216	1.541	1.493	1.224	1.067	0.917	0.974	1.023	1.047	0.976	1.197	1.493	1.278	1.099	1.106	0.990	1.151	1.112	1.481	3.508	6.952	25.29	98.24
605.0	42.06	41.98	38.18	34.40	25.68	22.49	23.37	26.00	29.36	35.96	71.21	66.81	35.93	27.87	27.81	191.1	945.0	79.22	5.264	4.591	4.501	4.369	4.228	3.720	3.777	3.518	3.729	3.386	3.746	3.579	3.563	3.297	3.061	2.797	2.610	2.432	2.254	2.241	2.067	1.932	1.720	1.562	1.606	1.512	1.412	1.267	1.297	1.295	1.144	1.018	0.873	0.937	0.981	0.855	0.951	1.195	1.410	1.350	0.996	0.855	0.871	1.069	0.977	0.944	1.113	1.325	1.400	1.055	1.014	0.934	0.984	1.015	0.914	1.365	2.143	6.273	34.01
610.0	40.10	43.63	39.94	32.49	25.05	21.31	24.20	25.96	28.70	35.03	51.33	79.86	43.45	27.62	21.42	55.22	535.5	524.7	18.49	4.349	4.126	3.721	3.472	3.247	3.309	2.894	2.998	2.977	2.923	2.992	2.857	2.674	2.527	2.366	2.291	2.065	1.978	1.919	1.772	1.670	1.527	1.511	1.410	1.321	1.251	1.140	1.019	1.107	0.978	0.917	0.769	0.782	0.748	0.832	0.776	0.908	1.245	1.302	1.062	0.900	0.884	0.861	0.825	0.902	0.925	1.043	1.232	1.148	1.060	0.998	1.000	0.922	0.842	0.863	1.004	1.941	8.124
615.0	37.56	43.57	40.09	30.69	22.06	20.88	23.17	25.35	30.32	32.02	42.11	69.17	55.19	28.22	20.71	22.70	145.2	690.2	77.93	4.384	3.663	3.283	2.939	2.751	2.741	2.607	2.538	2.358	2.369	2.466	2.314	2.313	2.203	1.950	1.807	1.875	1.687	1.567	1.498	1.533	1.169	1.206	1.121	1.128	1.091	0.978	0.922	1.002	0.923	0.828	0.733	0.680	0.682	0.715	0.688	0.735	0.841	1.034	1.054	0.850	0.821	0.833	0.756	0.875	0.777	0.916	1.050	1.139	1.103	1.010	0.947	0.864	0.770	0.751	0.723	0.970	2.289
620.0	33.36	36.94	36.86	29.47	23.38	21.27	22.84	23.45	27.36	32.89	36.88	54.76	65.88	30.42	20.04	14.45	40.88	434.8	435.6	8.525	3.381	2.872	2.642	2.443	2.474	2.293	2.169	2.043	2.097	1.991	2.077	2.138	1.957	1.876	1.618	1.571	1.479	1.435	1.371	1.255	1.111	1.118	0.973	1.079	1.018	0.947	0.850	0.838	0.871	0.721	0.610	0.695	0.617	0.655	0.553	0.680	0.663	0.856	0.997	0.924	0.883	0.782	0.746	0.827	0.850	0.848	0.973	0.976	1.025	0.922	1.023	0.738	0.782	0.703	0.655	0.712	0.975
625.0	38.32	38.91	34.43	27.19	22.98	20.32	20.21	23.50	26.13	32.01	37.14	43.51	66.89	35.48	19.98	12.80	16.53	159.4	644.1	47.14	3.219	2.577	2.357	2.297	2.029	2.093	1.830	2.032	1.907	1.922	1.856	1.857	1.634	1.683	1.477	1.532	1.299	1.235	1.147	1.106	1.013	0.973	0.973	1.114	0.792	0.871	0.684	0.716	0.754	0.681	0.609	0.642	0.539	0.532	0.649	0.559	0.582	0.759	0.913	0.966	0.881	0.785	0.705	0.846	0.768	0.777	0.793	0.768	0.964	1.056	0.920	0.743	0.699	0.653	0.657	0.600	0.621
630.0	35.16	37.54	34.29	25.36	21.15	18.31	19.03	22.35	25.64	30.68	35.66	39.12	55.38	46.22	20.95	12.71	10.61	43.56	422.5	328.5	8.480	2.461	2.131	1.794	1.828	1.731	1.734	1.773	1.676	1.563	1.634	1.528	1.445	1.340	1.269	1.272	1.187	1.116	1.066	0.987	0.889	0.870	0.823	0.844	0.779	0.756	0.635	0.705	0.642	0.567	0.519	0.573	0.498	0.535	0.579	0.558	0.567	0.692	0.714	0.872	0.819	0.792	0.659	0.740	0.759	0.766	0.728	0.705	0.803	0.868	0.950	0.836	0.700	0.696	0.593	0.540	0.514
635.0	33.94	32.60	34.89	25.33	21.30	17.85	19.19	21.15	24.16	30.05	33.48	38.24	42.63	52.15	25.29	14.06	9.808	14.94	119.3	511.4	57.87	2.498	2.087	1.760	1.683	1.816	1.371	1.512	1.504	1.406	1.353	1.195	1.270	1.224	1.214	1.045	0.954	1.083	0.947	0.849	0.800	0.739	0.768	0.663	0.701	0.689	0.630	0.624	0.595	0.490	0.477	0.519	0.562	0.528	0.488	0.507	0.501	0.656	0.603	0.644	0.778	0.840	0.628	0.635	0.724	0.748	0.653	0.587	0.683	0.714	0.742	0.909	0.774	0.710	0.544	0.610	0.465
640.0	39.31	36.03	35.31	28.10	19.69	18.92	20.43	21.90	24.92	30.63	32.32	36.15	36.98	47.66	30.62	15.57	10.38	8.961	31.90	372.8	267.6	4.306	1.762	1.713	1.504	1.378	1.261	1.387	1.452	1.227	1.227	1.104	1.169	1.247	1.026	1.041	0.877	0.852	0.856	0.833	0.700	0.729	0.699	0.650	0.641	0.593	0.641	0.628	0.468	0.518	0.494	0.471	0.486	0.487	0.538	0.499	0.496	0.570	0.539	0.558	0.699	0.696	0.616	0.630	0.642	0.675	0.621	0.705	0.565	0.622	0.734	0.817	0.763	0.653	0.502	0.626	0.460
645.0	35.59	34.67	37.34	28.18	19.72	19.45	20.56	22.39	23.99	30.66	30.21	35.55	35.70	39.45	37.75	15.49	10.91	7.833	11.13	151.8	448.1	25.41	1.699	1.457	1.510	1.301	1.296	1.242	1.354	1.258	1.218	1.209	1.086	1.275	1.071	1.053	1.032	0.945	0.863	0.870	0.818	0.672	0.686	0.641	0.572	0.561	0.549	0.574	0.536	0.416	0.427	0.456	0.482	0.446	0.468	0.441	0.456	0.545	0.555	0.577	0.740	0.640	0.722	0.584	0.634	0.591	0.642	0.622	0.606	0.594	0.709	0.721	0.684	0.630	0.525	0.531	0.489
650.0	36.41	35.58	44.10	28.02	19.52	18.81	18.49	22.07	24.19	27.48	30.74	35.91	34.68	35.24	41.46	18.12	10.91	7.888	6.888	44.12	426.3	129.0	2.078	1.491	1.676	1.245	1.444	1.283	1.261	1.213	1.153	1.203	1.148	1.136	1.254	1.065	1.058	0.912	0.868	0.792	0.747	0.619	0.616	0.605	0.552	0.533	0.561	0.539	0.553	0.487	0.387	0.435	0.458	0.462	0.477	0.461	0.455	0.499	0.506	0.538	0.589	0.655	0.658	0.607	0.627	0.621	0.563	0.630	0.668	0.765	0.584	0.630	0.673	0.657	0.591	0.545	0.490
