Sample:	'1
File name:	g2025090301月四会四南200m雨水井 20倍.FD3
Run date:	'13:37:24, 09/03/2025
Operator:	Administrator
Comment:	'

Instrument
Model:	F-2700 FL Spectrophotometer
Serial number:	23B8-004
ROM Version:	4J14000 07

Instrument parameters
Measurement type:	3-D scan
Data mode:	Fluorescence
EX  Start WL:	220.0 nm
EX  End WL:	600.0 nm
EX Sampling interval:	5.0 nm
EM  Start WL:	230.0 nm
EM  End WL:	650.0 nm
EM Sampling interval:	5.0 nm
Scan speed:	12000 nm/min
EX Slit:	5.0 nm
EM Slit:	5.0 nm
PMT Voltage:	700 V
Response:	Auto 
Corrected spectra:	Off
Contour interval:	50.000

Peak integration
Integration method:	Rectangular
Sensitivity:	1
Threshold:	1.000

Peaks
No.	ApexEX/EM(nm)	Height(Data)
1	225.0/490.0	251.9
2	230.0/250.0	292.1
3	230.0/500.0	233.8
4	235.0/255.0	376.2
5	235.0/515.0	187.7
6	240.0/265.0	418.0
7	240.0/525.0	176.5
8	245.0/270.0	425.3
9	245.0/540.0	150.5
10	250.0/550.0	131.0
11	270.0/300.0	8777
12	270.0/595.0	616.8
13	300.0/335.0	549.5
14	305.0/345.0	494.5
15	310.0/350.0	408.5
16	315.0/355.0	385.5
17	320.0/360.0	357.0
18	325.0/370.0	303.9
19	330.0/375.0	282.2
20	335.0/380.0	267.7
21	345.0/395.0	183.9
22	350.0/400.0	183.9
23	355.0/405.0	164.8
24	365.0/420.0	141.9
25	370.0/425.0	127.5
26	380.0/440.0	88.64
27	385.0/445.0	79.31
28	390.0/305.0	13.44
29	390.0/450.0	66.66
30	395.0/460.0	68.03
31	400.0/465.0	67.20
32	405.0/470.0	62.51
33	410.0/475.0	61.86
34	415.0/485.0	59.86
35	420.0/490.0	55.05
36	425.0/495.0	51.62
37	440.0/305.0	11.44
38	445.0/300.0	11.07
39	445.0/525.0	28.22
40	480.0/260.0	1.962
41	485.0/265.0	2.231
42	490.0/520.0	25.58
43	495.0/270.0	2.162
44	545.0/300.0	38.40
45	545.0/595.0	3.107
46	550.0/305.0	38.36

Data points
	220.0	225.0	230.0	235.0	240.0	245.0	250.0	255.0	260.0	265.0	270.0	275.0	280.0	285.0	290.0	295.0	300.0	305.0	310.0	315.0	320.0	325.0	330.0	335.0	340.0	345.0	350.0	355.0	360.0	365.0	370.0	375.0	380.0	385.0	390.0	395.0	400.0	405.0	410.0	415.0	420.0	425.0	430.0	435.0	440.0	445.0	450.0	455.0	460.0	465.0	470.0	475.0	480.0	485.0	490.0	495.0	500.0	505.0	510.0	515.0	520.0	525.0	530.0	535.0	540.0	545.0	550.0	555.0	560.0	565.0	570.0	575.0	580.0	585.0	590.0	595.0	600.0
230.0	55.48	608.6	1665	568.0	24.00	2.740	2.276	2.279	2.451	2.669	2.890	3.059	1.790	0.994	0.791	0.639	0.577	0.438	0.398	0.508	0.385	0.342	0.305	0.262	0.247	0.233	0.183	0.220	0.115	0.169	0.162	0.183	0.109	0.138	0.145	0.169	0.166	0.151	0.133	0.106	0.267	0.552	0.621	0.289	0.165	0.115	0.536	2.796	5.294	4.302	1.746	0.339	0.087	0.058	0.052	0.103	0.077	0.070	0.059	0.073	0.051	0.067	0.048	0.058	0.088	0.075	0.079	0.100	0.047	0.065	0.063	0.058	0.055	0.049	0.088	0.081	0.065
235.0	183.6	187.9	902.5	1536	493.7	37.63	3.697	3.102	2.959	2.789	3.351	2.673	2.323	0.796	0.907	0.867	0.704	0.484	0.475	0.516	0.459	0.308	0.362	0.193	0.147	0.249	0.207	0.238	0.165	0.121	0.177	0.140	0.216	0.171	0.143	0.126	0.115	0.142	0.106	0.119	0.128	0.188	0.441	0.575	0.513	0.264	0.180	0.758	1.797	3.111	4.907	5.604	2.724	0.648	0.078	0.103	0.110	0.041	0.092	0.061	0.154	0.057	0.068	0.070	0.086	0.037	0.099	0.129	0.085	0.024	0.056	0.052	0.054	0.086	0.080	0.068	0.043
240.0	227.6	183.0	269.2	1131	1660	383.8	20.36	3.460	4.249	3.198	3.128	2.714	2.761	1.257	0.854	0.718	0.583	0.571	0.359	0.371	0.383	0.197	0.314	0.262	0.291	0.260	0.253	0.218	0.242	0.252	0.196	0.098	0.190	0.078	0.219	0.108	0.111	0.112	0.157	0.097	0.143	0.103	0.200	0.350	0.600	0.728	0.402	0.352	0.439	0.861	2.319	5.555	7.580	5.848	2.366	0.405	0.078	0.072	0.080	0.050	0.093	0.036	0.051	0.050	0.088	0.041	0.065	0.094	0.026	0.076	0.066	0.067	0.054	0.059	0.133	0.110	0.084
245.0	145.9	292.2	154.2	369.8	1566	1687	287.5	9.413	4.207	4.106	3.854	3.501	2.437	1.545	0.936	0.868	0.540	0.437	0.349	0.421	0.408	0.296	0.278	0.300	0.264	0.273	0.290	0.206	0.171	0.158	0.148	0.151	0.157	0.135	0.227	0.106	0.112	0.120	0.134	0.093	0.163	0.113	0.177	0.193	0.362	0.690	0.893	0.858	0.353	0.327	0.664	1.620	4.314	7.968	8.785	5.281	1.686	0.193	0.058	0.093	0.099	0.093	0.051	0.055	0.075	0.084	0.075	0.062	0.039	0.078	0.065	0.036	0.063	0.059	0.043	0.087	0.068
250.0	47.05	187.1	292.1	206.3	489.3	1444	2181	767.9	49.12	5.333	4.569	4.013	2.749	1.687	1.023	0.813	0.630	0.510	0.558	0.621	0.465	0.411	0.304	0.312	0.205	0.215	0.255	0.193	0.190	0.157	0.187	0.189	0.135	0.182	0.149	0.160	0.128	0.158	0.107	0.120	0.152	0.124	0.147	0.140	0.165	0.244	0.437	0.780	0.987	0.916	0.582	0.518	1.089	2.416	4.589	7.054	9.672	8.730	5.264	1.757	0.225	0.095	0.091	0.092	0.071	0.071	0.065	0.066	0.051	0.060	0.059	0.050	0.098	0.054	0.069	0.069	0.079
255.0	21.64	54.34	184.9	376.2	235.5	360.5	1463	2789	1024	47.47	6.009	4.431	3.031	2.220	1.418	0.784	0.982	0.682	0.596	0.715	0.462	0.432	0.310	0.344	0.250	0.221	0.212	0.236	0.209	0.204	0.189	0.301	0.171	0.175	0.170	0.146	0.168	0.193	0.130	0.152	0.133	0.109	0.140	0.148	0.137	0.159	0.169	0.260	0.428	0.812	1.421	1.306	0.705	0.791	1.134	1.755	3.066	6.722	13.11	16.48	9.480	1.993	0.239	0.083	0.103	0.050	0.063	0.061	0.102	0.050	0.074	0.110	0.061	0.061	0.078	0.078	0.111
260.0	17.85	21.90	65.56	318.9	370.3	148.4	424.7	2033	2468	253.6	23.64	5.935	4.380	2.052	1.551	1.062	0.988	0.661	0.617	0.662	0.674	0.517	0.317	0.338	0.322	0.325	0.236	0.258	0.268	0.262	0.189	0.167	0.198	0.160	0.190	0.138	0.148	0.212	0.123	0.123	0.119	0.146	0.119	0.122	0.129	0.179	0.152	0.158	0.171	0.299	0.750	1.730	1.962	1.204	0.556	0.559	0.801	1.733	4.863	12.02	19.40	15.74	6.699	1.016	0.120	0.139	0.074	0.143	0.067	0.083	0.090	0.058	0.058	0.072	0.090	0.069	0.125
265.0	15.57	14.98	23.38	130.9	418.0	276.2	132.8	644.1	2726	2006	196.8	10.89	5.326	2.638	1.776	1.219	0.790	0.912	0.585	0.701	0.668	0.454	0.594	0.399	0.322	0.395	0.357	0.255	0.460	0.254	0.260	0.345	0.194	0.160	0.186	0.163	0.106	0.152	0.169	0.172	0.118	0.146	0.180	0.110	0.127	0.154	0.087	0.086	0.086	0.133	0.238	0.698	1.639	2.231	1.553	0.708	0.374	0.558	1.332	3.348	8.445	15.77	20.33	14.04	4.519	0.566	0.105	0.103	0.088	0.106	0.063	0.068	0.039	0.117	0.062	0.095	0.104
270.0	38.74	23.54	20.60	43.23	178.6	425.3	291.4	204.0	848.3	2419	2830	725.2	45.04	5.045	2.742	1.609	1.229	0.967	0.655	0.860	0.776	0.499	0.517	0.441	0.358	0.379	0.309	0.259	0.291	0.259	0.199	0.249	0.243	0.265	0.211	0.246	0.165	0.213	0.255	0.191	0.193	0.148	0.180	0.172	0.238	0.160	0.185	0.183	0.090	0.104	0.131	0.265	0.531	1.129	1.812	2.162	1.873	1.070	0.608	0.962	2.125	4.279	8.537	13.68	17.91	16.56	10.64	3.838	0.740	0.170	0.076	0.113	0.093	0.081	0.068	0.099	0.139
275.0	279.4	179.5	83.28	43.05	73.07	203.2	590.1	355.8	408.0	902.3	2285	4794	978.8	50.42	5.788	2.689	1.926	1.508	0.922	1.089	0.677	0.658	0.561	0.484	0.415	0.271	0.310	0.364	0.261	0.263	0.309	0.272	0.597	0.717	0.800	0.642	0.614	0.673	0.564	0.553	0.667	0.585	0.568	0.685	0.676	0.596	0.539	0.374	0.268	0.201	0.151	0.220	0.255	0.407	0.686	1.023	2.065	3.459	2.774	1.425	1.361	1.981	3.213	4.454	6.161	10.24	20.67	27.06	21.65	4.466	0.543	0.248	0.196	0.129	0.146	0.176	0.154
280.0	947.2	591.7	273.1	117.8	117.4	182.5	533.9	1044	958.3	1259	1816	4237	4575	655.5	24.35	4.626	2.503	2.115	1.253	1.106	0.984	0.636	0.559	0.609	0.548	0.493	0.314	0.409	0.364	0.380	0.314	0.629	1.330	1.822	2.147	1.877	1.955	1.804	1.574	1.448	1.799	1.732	1.740	1.863	1.922	1.888	1.479	1.282	0.713	0.496	0.404	0.448	0.389	0.479	0.640	0.823	1.494	2.847	4.728	5.228	4.217	3.939	4.664	5.752	6.900	7.722	11.04	19.02	33.95	26.66	12.45	2.359	0.387	0.312	0.144	0.208	0.240
285.0	1986	1285	604.4	265.3	193.9	293.2	597.6	1419	2091	2170	2907	3307	4894	3542	114.4	10.55	3.797	2.292	1.660	1.608	1.124	0.812	0.695	0.586	0.515	0.588	0.494	0.515	0.424	0.494	0.471	1.071	2.623	4.085	4.538	4.245	3.983	3.332	3.248	3.206	3.261	3.519	3.687	3.676	3.931	3.750	3.043	2.459	1.405	1.013	0.774	0.741	0.748	0.784	0.970	1.361	1.911	2.718	4.667	6.943	9.595	9.328	9.068	10.84	12.05	11.90	12.74	13.86	18.21	23.48	28.31	21.03	7.692	1.236	0.339	0.320	0.310
290.0	3606	2425	1258	539.4	362.0	489.6	898.5	1799	3370	4719	5276	4844	3491	3479	3584	412.2	25.31	3.773	2.575	2.208	1.555	1.202	0.943	0.856	0.777	0.712	0.664	0.630	0.516	0.578	0.673	1.706	4.223	7.095	8.317	7.549	7.263	6.259	5.733	5.437	5.813	6.029	6.757	6.982	7.095	6.729	5.536	4.733	3.179	2.250	1.545	1.307	1.234	1.300	1.574	2.161	3.047	4.046	5.986	7.955	11.87	15.57	18.64	21.09	22.38	22.24	21.77	21.03	18.77	15.44	14.60	17.28	20.55	20.17	13.88	5.840	1.260
295.0	5051	3559	1863	819.6	516.2	654.6	1182	2246	4024	6413	7729	6719	4000	1876	2462	3770	574.1	20.18	4.356	3.508	1.746	1.701	1.182	0.956	0.835	0.966	0.824	0.774	0.512	0.565	0.817	2.012	5.718	9.658	11.43	10.97	10.40	8.920	7.959	7.439	7.669	8.624	9.075	9.720	9.892	9.342	8.129	6.614	4.864	3.188	2.331	2.161	1.886	1.855	2.048	2.749	4.214	5.479	7.675	9.554	14.18	17.92	22.87	28.81	33.34	33.68	30.46	29.48	24.77	17.60	12.47	9.016	7.962	9.233	17.74	27.95	21.19
300.0	5647	4115	2162	981.7	591.1	725.2	1297	2401	4292	6730	8777	7841	4534	1706	960.4	2663	3355	82.76	9.656	4.754	2.266	2.049	1.481	1.186	1.147	1.083	0.924	1.074	0.603	0.819	0.849	2.213	6.421	10.66	12.79	12.44	11.63	9.932	8.826	8.689	8.646	9.224	10.43	10.98	10.85	11.07	8.913	7.786	5.681	3.806	2.967	2.269	2.156	2.104	2.718	3.024	4.216	6.051	8.027	10.76	15.05	19.08	24.65	29.71	35.20	38.40	36.59	33.40	27.88	20.67	13.24	8.308	5.429	4.121	5.984	13.64	23.90
305.0	5595	4236	2309	1061	644.9	762.2	1317	2392	4300	6603	8590	8376	4891	1799	588.0	842.6	3051	2519	66.22	7.719	2.773	2.186	1.584	1.314	1.191	1.048	0.922	0.918	0.870	0.758	0.912	2.538	6.313	10.81	13.44	12.60	12.11	10.41	8.438	8.903	8.625	9.697	10.36	10.93	11.44	11.01	9.276	8.216	6.040	4.213	3.039	2.794	2.230	2.202	2.714	3.028	4.154	6.180	8.249	10.88	14.53	19.18	23.51	29.11	34.17	36.78	38.36	36.55	31.35	21.80	14.45	8.921	5.160	3.154	2.744	4.108	7.981
310.0	5147	3925	2172	1028	647.4	728.8	1201	2180	3843	5900	7581	7600	5053	1938	553.4	321.1	909.3	2165	2303	289.9	17.24	2.791	2.020	1.478	1.150	1.096	0.878	0.915	0.870	0.872	0.964	2.246	5.599	9.679	12.02	11.90	11.27	9.735	8.321	8.015	7.893	8.467	9.401	10.00	10.30	10.17	8.697	7.660	5.788	4.024	2.967	2.726	2.243	2.260	2.503	3.046	3.983	5.501	7.067	9.897	13.18	16.84	21.62	25.87	30.32	32.28	33.23	32.98	30.14	23.46	15.57	9.438	5.310	3.308	2.252	2.144	2.906
315.0	4381	3372	1912	951.4	591.6	649.5	1025	1852	3182	4917	6296	6254	4401	2164	635.8	237.7	285.8	551.0	1479	4174	422.5	10.94	2.473	1.791	1.401	1.096	1.021	0.963	0.900	0.700	0.845	1.866	4.858	8.473	9.985	10.18	9.699	8.791	7.390	6.924	6.630	7.168	8.027	8.528	8.875	8.797	7.318	6.664	4.907	3.720	2.649	2.527	2.096	1.993	2.282	2.793	3.541	4.478	6.406	8.064	11.10	13.79	17.88	21.79	25.15	26.65	27.44	26.87	24.51	20.00	15.28	11.44	6.313	3.669	2.401	1.747	1.778
320.0	3748	2995	1671	879.8	549.9	601.1	905.0	1590	2677	4151	5325	5292	3686	2019	854.5	259.3	171.4	189.0	428.2	3136	2757	61.33	5.327	2.294	1.835	1.363	0.953	1.111	0.857	0.662	0.778	1.665	3.932	7.154	8.954	8.845	8.169	7.178	6.354	5.965	5.753	6.336	6.823	7.015	7.499	7.469	6.294	5.884	4.717	3.290	2.552	2.146	2.029	1.933	2.139	2.438	3.185	4.086	5.573	6.775	9.173	12.13	14.78	17.52	21.23	22.78	23.09	23.21	21.00	16.34	12.74	10.29	8.165	4.971	2.981	2.001	1.470
325.0	3302	2594	1557	818.0	529.7	549.2	792.3	1344	2265	3464	4494	4453	3129	1630	990.6	397.0	172.5	128.1	153.7	943.7	2611	1731	49.72	3.627	2.128	1.525	0.998	1.023	0.921	0.753	0.831	1.402	3.417	6.264	7.297	7.437	7.340	6.122	5.360	5.114	4.771	5.069	5.784	5.911	6.639	6.516	5.610	5.090	4.019	2.911	2.427	2.193	1.934	1.855	2.024	2.121	2.984	3.735	4.812	6.197	7.995	10.07	12.34	14.76	17.74	19.17	19.29	19.36	17.50	14.49	10.38	7.761	6.473	5.800	4.708	2.861	1.776
330.0	2642	2175	1353	768.4	502.0	502.7	685.9	1093	1797	2715	3521	3536	2531	1292	751.8	609.4	325.5	152.5	120.5	275.5	783.5	1572	1655	217.2	11.95	1.960	1.470	1.145	0.900	0.918	0.875	1.223	2.692	4.648	6.145	5.936	5.608	5.058	4.360	4.057	3.753	4.156	4.553	5.001	5.149	5.380	4.933	4.382	3.498	2.631	2.109	1.988	1.860	1.671	1.790	2.023	2.611	2.999	3.766	4.848	5.970	8.073	9.821	11.72	13.82	15.14	15.35	15.18	13.86	11.69	8.452	6.279	4.888	4.120	3.861	4.097	3.505
335.0	2166	1835	1204	719.1	496.3	461.0	593.8	894.9	1408	2092	2677	2716	2013	1081	581.1	493.2	549.5	282.8	147.0	151.8	240.4	410.1	1137	2031	318.3	9.463	2.019	1.409	1.094	0.756	0.952	1.164	2.011	3.654	4.369	4.765	4.357	4.198	3.665	3.445	3.237	3.263	3.559	3.910	4.134	4.491	4.180	3.976	3.268	2.485	2.163	1.934	1.891	1.793	1.778	1.888	2.129	2.695	3.315	4.073	4.878	6.132	7.458	8.970	10.47	11.42	11.88	11.66	10.96	9.285	7.167	5.188	3.623	3.268	2.806	2.947	3.274
340.0	1825	1640	1127	696.2	493.9	447.7	549.7	779.3	1165	1696	2169	2217	1679	950.5	530.7	393.2	489.4	456.4	201.4	141.2	132.7	147.2	333.9	1524	1772	52.40	4.212	1.742	1.056	1.103	0.905	1.122	1.714	2.892	3.726	3.924	3.548	3.371	3.020	2.802	2.600	2.803	3.189	3.252	3.535	4.022	3.597	3.644	2.948	2.287	1.878	1.918	1.942	1.592	1.638	1.845	2.013	2.307	2.822	3.424	4.279	4.982	6.093	7.393	8.359	9.060	9.816	9.804	9.268	7.732	6.142	4.564	3.464	2.767	2.497	2.589	2.295
345.0	1601	1484	1053	684.5	481.6	447.2	508.5	680.3	997.2	1405	1791	1836	1425	839.7	501.2	362.6	364.8	494.5	334.1	157.1	121.0	99.47	119.3	473.7	1708	1364	43.16	2.902	1.566	1.200	1.026	1.002	1.531	2.617	3.116	3.159	3.148	2.712	2.478	2.187	2.291	2.425	2.849	2.966	3.330	3.383	3.198	3.228	2.598	2.119	1.900	1.882	1.769	1.600	1.614	1.832	1.840	2.158	2.339	3.086	3.473	4.392	5.190	6.089	7.118	7.500	7.963	8.038	7.983	6.566	5.247	4.650	3.488	2.715	2.370	2.397	2.276
350.0	1333	1259	935.2	642.3	486.3	441.5	482.8	594.9	819.2	1111	1396	1441	1155	731.4	471.1	352.9	310.9	350.1	408.5	281.4	148.5	105.7	84.89	145.8	513.6	1234	983.7	196.2	10.35	1.576	1.175	0.960	1.453	2.094	2.482	2.570	2.512	2.254	2.004	2.022	1.916	2.032	2.410	2.559	2.701	2.849	2.815	2.803	2.512	2.093	1.845	1.996	1.802	1.652	1.625	1.664	1.775	1.944	2.341	2.518	3.026	3.480	4.177	4.786	5.459	5.937	6.178	6.338	5.940	5.384	4.293	3.920	3.106	2.457	2.281	2.350	2.265
355.0	1121	1111	860.3	618.7	491.6	436.8	469.9	528.9	670.4	884.9	1094	1132	933.5	640.3	447.5	349.6	304.3	282.0	304.1	385.5	255.1	127.8	93.04	85.49	150.7	312.4	798.1	1742	287.7	7.475	1.703	1.128	1.245	1.777	1.918	1.844	1.986	1.854	1.732	1.560	1.510	1.592	1.889	2.017	2.233	2.466	2.291	2.575	2.319	1.950	1.582	1.897	1.789	1.757	1.701	1.812	1.912	1.841	2.078	2.093	2.676	3.045	3.583	3.898	4.510	4.750	4.992	5.050	4.765	4.275	3.540	3.169	2.780	2.497	2.394	2.179	2.052
360.0	958.7	998.2	796.3	611.2	509.6	456.6	464.3	513.9	603.5	763.7	923.2	950.2	811.7	577.7	427.8	346.4	303.3	271.7	258.8	321.0	357.0	182.5	108.7	81.58	78.51	99.99	230.2	1298	1479	48.57	3.783	1.528	1.288	1.618	1.742	1.636	1.648	1.622	1.379	1.424	1.402	1.467	1.643	1.853	2.005	2.159	2.138	2.401	2.200	1.930	1.660	1.920	1.754	1.692	1.774	1.858	1.853	2.002	2.029	2.113	2.206	2.745	3.083	3.428	3.563	3.768	4.093	4.130	3.930	3.572	3.071	2.839	2.569	2.411	2.054	2.136	1.934
365.0	912.5	896.1	744.2	595.5	512.5	478.9	462.5	494.5	555.6	671.9	806.0	832.2	720.5	540.5	412.8	341.4	296.7	270.0	252.9	258.2	341.8	281.9	135.8	92.49	72.61	58.97	77.98	393.2	1440	1196	39.87	2.341	1.416	1.546	1.551	1.539	1.581	1.421	1.214	1.269	1.276	1.341	1.499	1.765	1.821	1.960	2.128	2.187	1.964	1.738	1.615	1.853	1.915	1.911	1.863	1.790	1.659	1.895	1.766	1.929	2.036	2.636	2.686	2.863	3.168	3.135	3.410	3.562	3.437	3.299	2.791	2.715	2.413	2.240	2.022	2.252	2.028
370.0	791.3	826.1	690.1	590.0	510.2	481.5	462.1	476.8	515.7	593.3	688.3	712.0	631.2	494.2	395.5	333.5	297.6	271.8	256.0	239.0	258.2	303.9	237.6	123.3	82.99	61.11	50.95	112.1	428.2	1093	1182	173.9	8.434	1.670	1.593	1.396	1.446	1.379	1.192	1.200	1.110	1.259	1.338	1.591	1.689	1.819	1.900	1.940	1.852	1.666	1.575	1.760	1.868	1.875	1.834	1.745	1.767	1.877	1.951	1.914	2.030	2.126	2.416	2.640	2.738	2.859	3.174	3.192	3.043	2.846	2.623	2.597	2.349	2.236	2.099	2.036	1.975
375.0	715.3	741.6	654.8	591.1	509.1	475.0	460.1	465.0	472.2	518.3	596.7	619.5	561.2	455.8	373.9	324.0	296.4	276.4	253.9	239.4	224.5	227.3	282.2	210.7	103.2	71.61	53.47	54.20	116.5	271.3	820.6	1354	240.5	6.413	1.856	1.403	1.399	1.317	1.038	1.174	1.096	1.222	1.238	1.332	1.465	1.705	1.762	1.773	1.827	1.519	1.473	1.773	1.742	1.917	2.006	1.738	1.845	1.898	1.810	1.805	1.837	1.997	2.255	2.359	2.343	2.556	2.614	2.932	2.686	2.749	2.363	2.419	2.105	2.067	1.946	1.879	1.844
380.0	653.6	681.1	638.8	549.5	506.9	479.9	459.3	449.3	448.9	479.7	539.3	558.0	510.3	428.9	361.7	318.0	288.5	271.9	254.1	238.0	219.8	201.8	226.3	267.7	150.2	81.50	58.95	46.53	50.55	78.05	228.3	1037	1099	40.43	3.405	1.518	1.456	1.273	1.099	0.945	1.098	1.231	1.064	1.192	1.399	1.616	1.697	1.759	1.786	1.603	1.539	1.685	1.898	1.881	1.631	1.715	1.498	1.786	1.858	1.744	1.948	1.918	1.991	2.311	2.431	2.268	2.530	2.527	2.630	2.502	2.225	2.112	2.127	2.055	1.975	2.080	1.730
385.0	625.6	660.2	586.6	519.1	491.8	473.6	441.5	429.5	430.2	444.9	498.7	520.5	474.3	405.7	350.1	307.4	282.1	266.2	247.9	236.2	216.0	193.5	187.5	236.4	217.7	107.3	66.15	50.24	40.06	38.31	66.48	316.5	1038	838.2	31.68	2.081	1.524	1.287	1.223	0.972	1.060	1.152	1.067	1.029	1.338	1.477	1.633	1.635	1.546	1.430	1.467	1.678	1.800	1.734	1.720	1.607	1.618	1.857	1.882	1.669	1.940	1.701	1.823	2.006	2.197	2.174	2.282	2.262	2.297	2.258	2.132	2.050	2.049	1.698	1.897	1.899	1.891
390.0	573.0	613.5	570.1	501.5	463.1	441.0	425.8	415.3	404.8	416.5	450.1	464.6	431.2	375.9	325.2	291.6	268.1	252.2	243.4	227.8	214.1	192.3	173.5	177.2	207.6	177.5	93.66	58.80	45.53	35.91	34.00	84.72	301.5	743.2	608.3	135.2	7.606	1.473	1.246	0.943	1.001	1.041	1.015	1.122	1.241	1.310	1.470	1.610	1.439	1.372	1.392	1.629	1.580	1.575	1.634	1.508	1.713	1.716	1.686	1.561	1.751	1.717	1.671	1.688	1.784	1.899	1.998	1.943	2.039	2.089	1.924	1.952	1.897	1.764	1.726	1.804	1.843
395.0	526.7	565.4	524.3	473.7	444.2	413.4	411.4	389.4	372.7	377.5	407.8	407.6	387.4	346.9	301.0	270.1	251.8	241.5	230.2	218.7	204.4	188.1	168.9	157.6	153.2	183.9	162.4	78.91	54.57	43.30	32.91	36.86	79.72	182.8	460.0	875.6	200.2	5.797	1.433	1.105	1.168	0.975	1.044	1.165	1.278	1.221	1.374	1.484	1.510	1.274	1.288	1.440	1.567	1.452	1.592	1.508	1.727	1.734	1.478	1.573	1.626	1.500	1.529	1.470	1.680	1.851	1.720	1.846	1.774	1.765	1.756	1.685	1.895	1.641	1.688	1.580	1.689
400.0	482.5	553.2	491.3	459.1	425.3	401.6	388.2	368.0	354.7	353.0	374.1	378.6	367.2	322.8	286.5	258.3	241.0	229.2	221.5	212.6	200.4	185.2	167.2	151.9	135.9	141.1	183.9	121.2	64.11	48.95	37.07	29.77	33.79	53.16	128.8	614.2	819.4	35.23	2.715	1.354	1.125	1.018	1.032	1.088	1.177	1.151	1.461	1.439	1.533	1.187	1.279	1.503	1.558	1.527	1.519	1.525	1.659	1.588	1.539	1.515	1.465	1.449	1.548	1.311	1.696	1.448	1.679	1.623	1.657	1.650	1.677	1.462	1.740	1.551	1.561	1.465	1.542
405.0	479.7	530.3	489.7	434.7	406.5	387.7	372.3	349.8	336.4	334.0	355.7	356.3	340.7	307.5	269.4	246.1	230.9	216.6	210.8	205.3	195.4	182.7	165.5	150.8	131.6	119.6	152.8	164.8	89.40	55.22	42.70	32.43	26.22	26.14	39.69	180.2	728.2	622.1	28.57	1.774	1.019	1.013	1.033	0.945	1.109	1.120	1.361	1.364	1.344	1.155	1.181	1.322	1.456	1.392	1.552	1.652	1.618	1.427	1.324	1.525	1.476	1.448	1.446	1.494	1.726	1.423	1.610	1.545	1.572	1.646	1.579	1.500	1.638	1.442	1.447	1.391	1.662
410.0	436.3	501.7	454.0	406.3	372.6	358.5	347.6	330.5	314.5	319.8	332.7	325.1	310.5	278.5	250.6	227.6	212.8	205.0	198.8	193.7	186.2	174.4	161.8	150.1	132.2	116.0	118.1	147.1	141.7	82.61	51.95	38.51	29.30	23.30	21.12	49.27	206.0	509.7	445.7	124.7	6.647	1.221	1.077	0.980	1.158	1.135	1.300	1.269	1.271	1.193	1.048	1.302	1.408	1.272	1.441	1.494	1.502	1.375	1.345	1.406	1.413	1.321	1.357	1.465	1.485	1.314	1.560	1.543	1.551	1.494	1.390	1.419	1.480	1.450	1.317	1.304	1.409
415.0	428.0	455.5	425.2	384.4	353.3	331.9	332.6	311.1	295.2	292.3	299.3	293.7	280.7	258.3	226.6	210.2	196.6	190.1	185.0	181.7	177.6	168.0	157.9	147.4	129.4	118.0	110.2	113.3	136.9	134.5	71.84	44.76	33.64	25.46	19.68	21.25	53.84	123.5	289.5	625.7	176.8	5.281	1.223	1.049	1.024	1.047	1.122	1.223	1.273	1.057	1.140	1.216	1.267	1.103	1.372	1.253	1.375	1.276	1.374	1.311	1.395	1.293	1.176	1.331	1.226	1.352	1.426	1.432	1.346	1.451	1.387	1.163	1.264	1.330	1.171	1.136	1.349
420.0	388.0	421.7	407.7	363.4	330.2	303.5	308.0	292.6	279.4	277.1	277.6	276.6	256.0	240.0	211.0	193.9	184.3	180.6	175.2	173.1	170.4	162.0	153.4	143.7	128.5	118.0	110.1	104.2	111.8	141.9	104.6	51.97	36.08	27.90	20.52	16.04	20.27	34.06	78.24	404.5	584.7	32.78	2.553	1.172	1.116	1.074	1.094	1.095	1.123	1.013	0.991	1.201	1.149	1.224	1.199	1.138	1.255	1.313	1.241	1.280	1.324	1.328	1.142	1.167	1.259	1.139	1.201	1.317	1.280	1.287	1.192	1.228	1.131	1.344	1.167	1.179	1.126
425.0	376.5	407.2	388.0	348.9	306.3	290.7	284.1	277.9	269.0	263.5	259.6	260.0	237.1	223.2	197.7	183.1	173.6	168.8	167.9	168.8	164.2	157.4	148.4	142.3	128.7	118.9	108.8	102.2	98.98	117.4	127.5	71.14	40.53	29.87	21.75	16.32	14.16	14.62	23.63	114.1	464.5	462.3	26.83	1.864	1.146	1.287	1.179	1.045	1.025	0.885	0.935	1.254	1.087	1.185	1.102	1.027	1.112	1.031	1.188	1.218	1.321	1.215	1.162	1.104	1.198	1.191	1.204	1.318	1.342	1.060	1.157	1.102	1.115	1.195	1.097	1.121	1.086
430.0	492.7	370.2	348.6	317.2	285.9	274.4	267.3	263.6	252.5	246.8	248.3	235.9	220.5	203.5	185.4	168.6	161.9	158.0	156.1	155.8	154.1	147.8	143.3	136.4	125.0	116.0	109.7	102.3	94.77	93.14	106.8	101.3	57.40	33.34	23.84	18.26	14.22	11.69	11.64	30.63	126.6	341.0	350.6	116.6	7.563	1.692	1.250	1.144	1.109	0.940	0.952	1.082	1.069	1.066	1.037	0.989	1.104	1.074	1.160	1.101	1.154	1.168	1.124	1.176	1.120	1.136	1.101	1.137	1.087	1.117	1.015	1.052	0.910	1.018	1.118	1.059	0.907
435.0	952.8	368.7	343.7	299.2	267.5	259.1	251.2	247.1	235.6	231.9	234.3	214.8	203.4	185.3	171.1	154.7	149.9	144.3	147.3	146.1	143.9	140.7	138.7	133.0	122.2	113.3	105.6	100.3	94.23	85.21	81.53	90.91	87.58	45.23	28.29	20.71	16.43	13.43	11.24	13.77	34.77	82.54	197.1	498.2	176.1	7.703	1.686	1.376	1.067	0.967	0.875	1.075	0.987	0.991	1.093	0.985	0.975	1.060	1.177	1.068	1.265	1.069	1.063	1.108	1.087	1.117	0.902	1.112	0.920	0.972	0.925	0.984	0.852	0.905	0.882	0.869	0.933
440.0	1273	482.5	314.2	287.5	249.3	237.5	237.6	239.0	229.1	219.0	220.8	206.9	190.1	174.2	156.5	144.4	140.7	137.6	138.8	139.1	138.7	135.4	131.3	130.4	119.0	110.2	104.5	99.29	92.83	85.33	73.40	70.92	88.64	66.98	34.22	23.38	19.72	15.92	14.43	13.11	15.82	26.02	55.07	292.7	504.1	31.20	5.175	1.902	1.282	1.081	1.041	1.071	1.007	0.967	0.965	1.012	0.910	0.954	1.080	1.170	1.015	0.871	1.022	0.925	0.960	0.887	0.959	0.904	0.875	0.913	0.951	0.914	0.879	0.898	0.845	0.900	0.924
445.0	1262	786.4	303.7	272.3	242.4	227.8	223.0	227.0	218.9	209.1	201.9	193.7	172.9	165.4	149.6	136.4	131.6	133.8	129.2	132.6	132.4	128.0	126.5	123.3	115.0	106.0	99.92	97.35	90.88	82.98	71.33	63.77	71.94	79.31	44.67	27.84	22.51	20.18	17.84	16.13	15.57	16.56	22.40	84.20	358.0	431.3	27.18	3.514	1.691	1.106	0.902	1.051	1.033	0.901	0.841	0.965	0.815	0.981	0.983	1.068	0.967	0.877	0.937	0.891	1.022	0.859	0.902	0.934	0.897	0.817	0.802	0.833	0.757	0.848	0.771	0.829	0.814
450.0	743.4	1288	439.3	244.3	215.5	205.4	204.3	203.6	202.6	195.3	189.0	178.2	160.6	147.3	134.8	125.6	119.5	120.8	119.2	122.5	121.5	120.1	118.4	115.6	107.6	100.1	95.44	91.82	87.13	79.66	69.34	60.76	56.76	65.83	66.66	44.15	29.49	27.12	25.00	24.00	23.45	21.98	21.56	33.83	103.5	286.8	500.1	113.5	8.560	1.697	1.081	1.037	0.946	0.884	0.781	0.832	0.852	0.908	0.934	0.890	0.874	0.894	0.821	0.876	0.849	0.926	0.915	0.870	0.831	0.730	0.702	0.795	0.770	0.713	0.859	0.690	0.828
455.0	359.4	1109	924.2	242.9	203.0	186.1	182.8	188.5	186.4	180.5	171.7	158.8	146.0	133.9	119.8	112.8	108.3	107.6	107.0	110.8	111.0	109.0	109.4	106.1	98.60	92.45	88.73	85.06	81.81	75.89	67.13	59.35	52.77	51.11	62.17	65.68	44.76	33.67	33.32	33.75	32.56	31.26	29.60	29.54	42.20	79.58	220.5	423.4	161.6	10.11	1.439	1.091	0.910	0.827	0.850	0.762	0.880	0.787	0.866	0.936	0.842	0.823	0.709	0.899	0.871	0.846	0.840	0.773	0.867	0.614	0.598	0.709	0.795	0.627	0.642	0.642	0.768
460.0	255.3	653.4	1294	361.0	185.5	170.1	167.8	174.0	174.6	165.8	161.3	149.1	135.2	121.0	111.1	100.6	100.6	100.5	100.0	101.5	101.5	101.5	98.39	97.70	91.09	84.23	82.40	80.49	76.85	70.74	65.76	58.34	52.36	47.77	52.00	68.03	59.86	41.02	38.18	39.46	38.96	38.00	35.77	33.35	32.74	35.56	64.31	221.4	417.8	130.0	5.074	1.490	0.879	0.858	0.843	0.663	0.916	0.659	0.864	0.829	0.885	0.711	0.718	0.850	0.725	0.717	0.677	0.678	0.731	0.656	0.667	0.696	0.695	0.619	0.665	0.545	0.654
465.0	206.2	343.7	1264	668.5	173.4	160.4	160.9	157.8	159.0	155.1	154.5	138.5	124.6	110.8	103.2	94.13	92.27	92.05	93.46	94.03	94.12	91.73	91.71	90.00	84.44	80.34	77.58	75.10	73.37	67.38	61.97	56.22	51.51	46.90	47.72	57.65	67.20	52.56	43.32	43.50	42.71	42.17	41.44	36.89	33.00	28.34	29.69	64.64	269.6	410.2	22.94	2.716	1.114	0.960	0.830	0.724	0.716	0.713	0.837	0.733	0.808	0.721	0.641	0.660	0.748	0.810	0.663	0.649	0.609	0.607	0.628	0.647	0.525	0.562	0.637	0.583	0.626
470.0	226.1	207.4	704.7	1143	306.4	143.9	141.2	145.9	143.6	141.3	135.5	122.9	112.7	98.11	89.61	84.20	81.34	80.45	82.19	83.54	81.67	82.09	80.87	81.13	74.99	70.84	69.71	66.49	65.18	62.33	58.78	52.83	49.74	46.02	44.93	47.54	58.99	62.51	52.47	47.22	45.57	45.79	44.47	40.37	35.89	28.71	23.24	25.84	73.71	225.2	261.3	103.5	8.192	1.065	0.897	0.719	0.717	0.678	0.770	0.743	0.702	0.594	0.632	0.671	0.630	0.675	0.709	0.549	0.568	0.581	0.589	0.526	0.479	0.469	0.482	0.534	0.547
475.0	261.6	197.0	285.5	1033	653.7	140.1	126.6	127.9	125.6	118.2	116.3	109.7	96.85	86.16	80.46	74.08	71.50	71.43	71.78	73.41	72.52	71.44	71.27	70.72	65.92	62.76	60.87	59.60	58.10	56.44	53.11	49.63	45.63	43.23	43.50	44.06	47.86	56.61	61.86	52.10	47.04	45.88	44.12	41.47	37.09	29.99	22.52	18.02	24.17	55.41	101.1	254.4	148.3	9.786	1.198	0.943	0.890	0.689	0.747	0.711	0.656	0.511	0.589	0.723	0.559	0.532	0.552	0.552	0.567	0.595	0.503	0.421	0.573	0.450	0.515	0.477	0.512
480.0	235.4	209.5	173.8	594.4	1122	242.4	116.7	119.3	116.4	113.9	107.8	101.8	89.75	81.24	72.44	67.22	65.51	65.25	64.87	65.48	66.12	65.41	65.92	64.95	61.07	56.06	55.50	54.10	54.39	52.43	50.47	45.85	44.04	41.79	41.87	41.73	43.43	49.75	60.82	57.67	48.71	45.35	43.83	41.46	36.37	30.26	22.65	16.32	13.66	17.67	27.10	118.0	292.0	111.8	4.941	1.370	1.140	0.934	0.784	0.626	0.621	0.560	0.465	0.581	0.571	0.579	0.463	0.493	0.487	0.404	0.458	0.429	0.393	0.452	0.378	0.445	0.467
485.0	224.0	233.2	147.0	289.7	1163	488.1	115.1	113.9	108.9	108.2	100.9	93.63	84.04	73.47	67.56	63.14	59.29	59.72	61.61	60.31	61.71	59.70	59.80	59.67	56.78	52.47	51.10	50.33	49.96	49.15	46.68	44.56	42.26	40.95	39.86	39.65	41.56	44.45	52.68	59.86	52.13	44.93	43.25	40.01	36.50	30.51	22.86	16.20	11.23	9.272	10.37	32.23	167.6	271.1	26.95	3.542	1.771	1.265	0.816	0.671	0.585	0.527	0.527	0.634	0.534	0.496	0.507	0.361	0.445	0.395	0.369	0.431	0.410	0.456	0.376	0.381	0.456
490.0	145.2	251.9	159.5	159.5	661.9	1008	229.2	106.2	102.0	100.5	95.48	89.73	77.91	67.58	60.20	56.53	54.13	54.20	54.67	54.89	54.30	54.52	54.64	54.05	51.10	48.03	45.79	45.36	45.78	44.65	43.17	40.74	38.88	38.33	37.30	37.92	39.51	40.69	44.71	52.47	55.05	48.15	42.90	38.98	35.71	29.91	23.46	17.70	12.39	9.227	8.367	12.56	46.14	138.1	212.6	111.0	11.87	2.575	1.526	1.052	0.797	0.632	0.607	0.501	0.521	0.494	0.473	0.398	0.427	0.446	0.346	0.364	0.430	0.418	0.434	0.327	0.427
495.0	97.91	197.4	204.3	121.5	245.3	974.1	655.0	109.3	93.65	93.03	89.37	81.24	70.96	60.61	54.38	50.12	47.03	47.73	48.65	49.63	48.84	48.10	47.79	47.79	43.43	41.81	40.76	40.55	41.66	40.66	40.24	37.88	36.57	34.75	34.54	36.17	36.80	37.72	39.05	43.46	49.26	51.62	43.47	36.88	34.37	29.04	23.53	19.25	14.74	12.15	10.50	11.29	19.41	39.97	90.95	270.7	188.8	16.22	2.871	1.737	1.036	0.797	0.599	0.661	0.505	0.392	0.445	0.406	0.462	0.391	0.363	0.361	0.358	0.343	0.379	0.342	0.457
500.0	86.46	136.6	233.8	117.9	130.6	586.5	1114	172.3	87.89	88.91	83.81	77.33	65.73	56.83	50.58	46.47	44.80	43.66	43.90	45.13	44.58	45.47	43.83	42.24	39.77	37.98	37.84	36.56	36.83	37.62	36.54	34.56	33.88	32.49	32.06	33.72	34.10	35.72	36.22	38.76	42.05	50.32	45.53	37.21	32.99	28.53	24.39	20.05	16.79	14.31	12.48	13.41	16.01	21.59	33.99	125.7	353.1	149.5	9.847	2.445	1.363	0.998	0.667	0.552	0.421	0.430	0.442	0.394	0.431	0.398	0.293	0.323	0.312	0.302	0.400	0.331	0.378
505.0	72.07	105.6	207.6	141.5	103.7	261.7	1252	350.3	85.05	83.30	75.34	72.25	61.75	53.86	47.41	42.66	41.26	39.77	40.41	40.81	40.79	39.45	39.98	39.45	35.86	34.88	34.26	33.76	34.22	34.05	33.12	32.09	30.92	30.13	29.97	30.68	31.98	32.43	33.55	35.70	37.09	43.50	45.07	38.29	31.74	27.43	24.58	20.85	18.17	16.21	15.28	15.77	17.41	20.48	23.81	45.34	191.4	301.9	31.11	6.049	2.078	1.091	0.936	0.627	0.399	0.474	0.354	0.409	0.365	0.321	0.330	0.380	0.387	0.357	0.347	0.361	0.334
510.0	69.08	84.84	150.4	179.9	97.66	120.7	724.7	901.3	157.1	74.68	72.35	63.74	57.28	47.68	42.65	37.06	35.97	35.02	35.43	34.77	35.68	34.82	34.84	34.33	32.14	30.09	29.03	30.39	30.26	29.72	29.98	28.65	28.12	27.63	26.94	27.66	28.54	29.30	30.64	31.51	32.38	34.71	39.66	38.97	32.57	26.80	23.53	20.90	19.15	17.74	17.61	18.09	20.02	22.16	24.23	28.26	60.26	142.9	220.4	120.5	11.50	1.674	1.012	0.724	0.458	0.430	0.379	0.365	0.304	0.316	0.274	0.316	0.281	0.311	0.268	0.307	0.312
515.0	51.42	76.73	92.33	187.7	121.3	82.21	239.3	995.4	512.3	73.80	67.89	57.75	50.30	42.14	37.22	32.69	31.73	30.13	30.92	29.37	30.40	29.31	29.41	29.23	27.39	26.72	25.70	27.18	26.32	26.81	26.44	25.53	24.58	24.93	24.10	24.98	24.45	25.94	27.10	28.03	28.23	29.20	31.63	34.54	33.97	27.36	22.50	20.55	19.62	17.87	17.94	19.68	21.19	23.81	25.34	26.03	30.32	45.41	87.36	244.0	153.1	12.50	1.377	0.779	0.504	0.447	0.317	0.333	0.252	0.401	0.299	0.285	0.238	0.270	0.257	0.255	0.243
520.0	57.52	61.39	76.79	152.9	152.8	70.83	102.4	623.8	943.4	120.1	62.80	54.05	46.31	37.59	33.01	29.04	29.00	27.80	28.12	26.81	27.00	26.75	26.51	25.68	23.60	23.73	23.64	23.74	23.09	23.28	23.60	22.15	22.37	21.98	22.03	21.53	22.71	23.30	24.78	25.10	25.02	26.50	26.21	29.45	32.03	27.56	22.42	19.39	18.64	17.77	17.78	19.05	21.49	23.55	25.58	25.38	24.27	23.52	29.26	103.5	232.3	101.9	5.577	0.967	0.604	0.439	0.464	0.344	0.285	0.362	0.275	0.290	0.197	0.299	0.262	0.157	0.300
525.0	56.68	60.07	65.36	101.9	176.5	75.30	68.96	271.9	1133	254.0	54.67	50.10	41.80	35.21	31.10	26.97	25.88	25.17	24.47	23.83	24.74	24.41	24.60	22.84	21.51	21.47	20.80	20.74	20.74	21.14	21.54	19.76	20.08	19.60	20.04	19.77	20.88	20.92	21.89	22.59	22.83	23.86	22.86	24.32	27.09	28.22	22.62	18.55	17.22	17.06	17.30	18.60	20.94	23.26	24.34	24.21	22.22	18.58	16.06	30.13	114.3	201.3	29.91	2.367	0.672	0.474	0.411	0.357	0.272	0.267	0.261	0.259	0.191	0.212	0.288	0.224	0.338
530.0	48.96	50.50	53.70	69.09	155.3	109.0	55.41	104.3	690.8	794.3	103.3	43.21	36.60	31.29	27.81	23.62	22.16	22.48	21.28	21.62	21.66	21.48	20.58	20.50	19.03	18.46	18.03	18.48	17.81	19.03	18.55	18.25	17.62	17.84	17.30	17.60	17.91	18.60	18.83	19.74	20.40	20.20	20.70	20.66	21.90	23.85	23.35	18.19	15.51	15.21	15.39	16.61	18.54	21.15	22.74	22.02	20.13	16.09	12.32	12.66	30.85	88.76	141.2	81.97	10.62	0.550	0.382	0.403	0.316	0.295	0.234	0.246	0.156	0.253	0.228	0.239	0.199
535.0	37.54	41.97	51.03	55.87	98.79	142.9	57.13	56.43	227.4	951.8	382.5	43.34	32.57	27.23	23.92	20.84	19.36	18.86	18.52	18.19	18.34	17.82	17.26	17.67	16.23	16.38	15.39	15.84	15.20	16.37	16.34	15.32	15.62	15.03	15.27	14.73	15.20	15.78	15.83	16.68	17.13	17.37	17.39	17.56	17.58	17.81	20.23	17.69	14.69	13.37	13.84	14.40	16.31	18.59	19.99	19.75	17.80	14.64	10.72	8.391	10.39	21.92	46.63	143.0	151.7	9.262	0.471	0.410	0.286	0.202	0.249	0.276	0.188	0.190	0.231	0.211	0.147
540.0	41.02	36.71	43.62	44.29	64.11	150.5	69.95	45.33	88.37	613.1	778.4	64.30	29.31	24.48	20.77	18.30	17.11	16.60	15.83	15.90	16.87	16.43	15.33	15.72	14.61	13.93	13.73	13.81	13.46	13.45	14.58	13.48	13.70	13.35	13.73	13.26	13.38	13.93	14.74	14.03	14.85	14.84	15.38	15.31	14.67	14.39	16.43	17.40	14.83	12.28	12.39	12.81	13.98	16.04	18.04	18.38	15.74	12.87	9.782	6.801	5.491	7.093	11.95	55.92	211.4	80.00	3.940	0.418	0.346	0.215	0.168	0.226	0.142	0.177	0.184	0.208	0.185
545.0	42.98	33.59	42.33	37.36	44.59	114.0	104.9	42.22	50.15	254.6	990.0	167.1	28.50	22.63	18.37	15.73	14.96	14.15	13.60	13.97	14.72	14.12	13.99	14.16	13.13	12.15	12.29	12.61	12.25	12.24	12.56	11.83	12.28	11.70	12.16	11.46	11.92	12.10	12.82	12.69	13.19	13.17	13.18	13.07	12.67	12.10	12.80	15.47	15.13	12.22	10.99	11.34	12.49	14.06	16.10	16.19	14.37	11.80	8.498	6.010	4.186	3.720	4.110	14.07	94.06	154.9	28.95	1.579	0.300	0.314	0.172	0.209	0.144	0.203	0.167	0.154	0.163
550.0	42.12	38.20	34.73	30.69	31.08	63.69	131.0	57.17	43.45	99.49	621.0	610.9	54.32	19.44	15.46	13.33	12.26	12.21	11.84	12.12	11.80	11.52	11.71	11.52	10.87	10.29	10.34	10.69	10.26	10.01	10.39	10.25	10.35	9.847	9.821	9.965	10.03	10.11	10.32	10.48	10.78	10.85	10.67	10.93	10.74	10.14	10.29	11.38	12.57	11.73	10.16	9.769	10.72	11.72	13.11	13.25	12.30	10.52	7.389	5.063	3.502	2.533	2.103	4.108	22.61	63.66	102.9	63.99	7.686	0.291	0.192	0.196	0.155	0.153	0.153	0.195	0.141
555.0	67.68	46.98	34.54	28.16	27.52	36.82	114.5	99.03	61.96	91.41	238.4	841.5	166.6	19.86	14.01	10.83	10.28	10.60	9.805	9.733	9.801	9.075	9.591	9.318	8.734	8.327	8.302	8.306	8.406	8.398	8.315	8.444	8.199	8.009	7.967	7.992	7.719	8.126	8.599	8.389	8.460	8.976	8.704	9.218	9.082	8.423	8.225	8.107	9.025	10.34	9.702	8.377	8.875	9.671	10.49	10.42	10.06	8.323	6.698	4.492	3.011	2.127	1.668	1.822	5.791	14.98	31.64	100.8	76.77	6.897	0.299	0.173	0.175	0.129	0.147	0.133	0.188
560.0	99.35	73.48	42.30	30.63	28.70	32.58	89.71	147.6	100.9	127.6	172.1	624.5	535.1	34.26	12.41	9.234	9.044	8.740	8.813	7.856	8.099	7.905	7.835	7.720	7.285	7.173	6.937	7.132	7.303	6.811	7.039	7.130	6.687	6.571	6.513	6.685	6.784	7.063	7.222	7.068	7.149	7.399	7.632	7.659	7.768	7.396	7.069	6.931	6.712	7.972	8.801	8.146	7.523	8.112	8.828	8.722	8.173	7.074	5.845	4.179	2.843	1.760	1.540	1.570	2.216	4.245	7.967	37.69	103.0	31.90	2.944	0.229	0.185	0.123	0.169	0.152	0.175
565.0	165.4	107.2	51.62	34.05	30.07	34.51	72.56	169.8	155.7	182.2	215.0	371.8	781.3	103.3	12.20	8.615	7.615	7.480	7.017	7.044	7.391	6.748	6.580	6.415	6.043	5.957	5.684	6.040	6.047	5.963	6.284	6.262	5.749	5.985	5.799	5.707	5.770	6.286	6.368	6.322	6.082	6.375	6.068	6.425	6.344	6.524	5.647	5.557	5.598	6.030	7.446	7.627	6.754	6.921	7.561	7.755	7.069	5.909	4.962	4.155	2.846	1.993	1.592	1.561	1.687	2.017	2.808	9.631	44.63	89.34	26.30	1.325	0.262	0.116	0.188	0.170	0.136
570.0	217.4	156.7	74.87	41.86	34.95	41.77	72.89	176.1	247.2	267.4	312.9	314.2	588.1	418.4	37.50	7.057	6.263	5.900	5.516	5.524	5.574	5.516	5.634	4.861	4.832	4.657	4.675	4.669	4.942	4.698	5.093	4.804	4.752	4.886	5.161	4.953	5.038	5.061	5.075	5.184	5.069	5.329	5.343	5.702	5.372	5.295	4.849	4.619	4.543	4.865	5.274	6.116	6.336	5.754	6.035	6.131	5.796	4.661	4.009	3.482	2.882	2.299	1.932	1.761	1.803	1.845	1.828	3.403	11.30	35.68	61.74	41.41	6.304	0.212	0.187	0.136	0.117
575.0	293.7	212.4	105.4	51.97	41.92	51.70	82.66	173.5	322.5	373.0	418.2	373.7	312.3	602.1	283.9	7.098	5.659	5.229	4.358	4.719	4.365	4.715	4.350	4.080	4.091	4.117	3.791	3.787	3.822	3.568	3.973	4.037	3.798	4.374	4.347	4.207	4.140	4.134	4.153	4.410	4.255	4.516	4.572	4.822	4.545	4.365	4.114	3.843	3.625	3.589	3.776	4.408	5.460	5.395	5.050	5.048	4.537	3.575	3.395	2.815	2.588	2.637	2.355	1.853	2.102	2.201	2.144	2.418	3.692	8.784	17.95	54.86	33.17	5.101	0.232	0.194	0.105
580.0	333.5	244.7	125.4	61.79	45.98	55.31	91.08	172.4	353.9	455.7	482.7	436.5	254.7	439.8	774.7	12.55	4.491	4.519	3.940	3.672	3.766	4.115	3.853	3.609	3.497	3.728	3.279	3.119	3.247	2.930	3.343	3.377	3.409	3.651	3.635	3.805	3.542	3.614	3.654	3.466	3.714	3.852	4.029	4.018	3.780	3.739	3.636	3.259	3.103	3.085	3.179	3.558	4.563	4.864	4.517	4.133	3.609	3.459	2.820	2.655	2.302	2.531	2.686	2.341	2.415	2.324	2.299	2.214	2.272	3.049	4.723	19.69	65.66	29.71	2.326	0.209	0.167
585.0	361.7	254.8	143.5	68.78	46.26	53.17	92.83	180.3	337.4	515.8	540.6	480.5	266.6	225.5	1111	49.81	4.386	3.856	3.301	3.419	3.258	3.215	3.470	3.424	2.923	3.026	2.880	2.713	2.943	2.843	2.794	2.918	3.023	3.426	3.648	3.258	3.224	3.088	3.252	3.251	3.171	3.348	3.528	3.714	3.374	3.339	3.385	2.906	2.640	2.618	2.655	2.800	3.557	4.208	4.271	4.036	3.111	2.974	2.533	2.331	2.221	2.264	2.717	2.684	2.663	2.616	2.494	2.446	2.142	1.878	1.841	5.015	26.98	66.68	21.71	0.984	0.163
590.0	396.8	281.0	146.8	69.75	45.10	56.93	99.48	181.6	324.9	534.6	586.1	517.7	291.0	128.1	694.1	210.9	10.69	3.262	2.785	3.355	2.834	2.626	2.600	2.616	2.400	2.280	2.276	2.209	2.352	2.285	2.418	2.399	2.652	2.920	3.129	2.873	2.839	2.737	2.703	2.691	2.772	2.921	2.970	3.196	2.943	2.894	2.744	2.543	2.300	2.106	2.119	2.289	2.553	3.037	3.760	3.468	2.930	2.540	2.311	2.045	2.074	1.997	2.472	2.871	2.962	2.708	2.490	2.461	2.188	1.625	1.250	1.662	6.621	26.10	38.32	32.87	4.304
595.0	403.6	286.2	151.0	68.40	44.68	53.55	97.93	178.2	303.9	498.9	616.8	522.6	306.6	109.8	222.7	348.1	65.49	3.035	2.564	2.553	2.215	2.208	2.156	2.149	1.866	1.690	1.896	1.947	2.029	2.035	1.885	2.019	2.220	2.247	2.734	2.696	2.337	2.267	2.244	2.097	2.187	2.608	2.510	2.775	2.441	2.417	2.312	2.074	2.012	1.878	1.827	1.815	2.132	2.420	2.909	3.057	2.609	2.115	2.094	1.813	1.837	2.046	2.185	2.574	3.090	3.107	2.489	2.427	2.136	1.518	1.014	0.948	1.839	6.085	10.64	39.16	31.44
600.0	394.6	282.7	147.6	64.53	46.56	54.37	96.48	163.5	299.1	459.5	612.5	533.2	308.9	110.4	75.67	240.1	200.1	5.966	2.499	2.191	1.964	2.042	1.751	1.864	1.511	1.607	1.547	1.585	1.501	1.459	1.651	1.495	1.997	1.963	2.505	2.404	2.177	1.965	1.738	2.017	2.016	2.215	2.274	2.340	2.039	2.208	2.062	1.908	1.654	1.603	1.551	1.640	1.812	1.849	2.229	2.680	2.489	2.040	1.709	1.614	1.706	1.852	1.911	2.254	2.811	3.103	2.579	2.635	2.051	1.407	0.999	0.777	0.668	1.597	2.567	12.87	37.73
605.0	403.6	282.5	147.1	67.28	43.43	52.48	94.49	155.9	283.0	435.4	582.4	525.7	299.6	109.6	40.19	99.50	305.8	26.19	2.146	1.736	1.576	1.453	1.696	1.463	1.442	1.374	1.376	1.278	1.341	1.298	1.236	1.390	1.747	1.741	2.060	2.291	2.058	1.785	1.778	1.607	1.736	1.788	1.832	2.089	1.970	2.026	1.885	1.613	1.638	1.430	1.354	1.295	1.425	1.551	1.594	2.041	2.356	1.842	1.728	1.472	1.591	1.707	1.837	2.264	2.536	3.019	2.698	2.622	1.946	1.600	1.057	0.644	0.469	0.546	0.732	3.084	14.42
610.0	344.2	268.4	140.3	67.26	40.20	50.35	80.43	144.8	254.9	387.5	507.4	504.0	289.6	106.3	32.18	31.31	207.3	140.4	5.578	1.544	1.380	1.409	1.527	1.141	1.251	1.178	1.036	1.075	1.107	1.099	0.996	1.198	1.357	1.584	1.598	1.727	1.696	1.534	1.586	1.464	1.427	1.527	1.633	1.580	1.683	1.734	1.659	1.484	1.338	1.219	1.163	1.220	1.234	1.341	1.293	1.552	1.836	1.701	1.649	1.297	1.467	1.511	1.724	1.910	2.211	2.458	2.447	2.490	1.871	1.454	1.016	0.608	0.415	0.339	0.336	0.874	3.382
615.0	310.2	234.7	130.4	66.77	35.11	43.38	69.89	130.8	225.8	346.8	442.1	458.4	282.7	104.5	29.48	13.95	62.30	235.5	44.42	1.823	1.256	1.119	1.144	1.074	1.065	1.129	0.985	0.876	0.740	1.018	1.012	0.946	1.069	1.322	1.423	1.403	1.330	1.450	1.216	1.148	1.206	1.219	1.342	1.361	1.424	1.399	1.250	1.222	1.072	0.968	0.902	0.925	1.069	1.044	1.075	1.150	1.092	1.368	1.533	1.311	1.115	1.199	1.581	1.717	1.862	2.211	2.101	1.983	1.906	1.394	0.912	0.592	0.409	0.290	0.260	0.314	0.848
620.0	283.0	210.4	120.7	60.29	34.44	40.37	62.15	123.7	198.2	307.4	397.1	403.3	276.5	98.90	27.97	10.35	18.62	165.0	133.4	3.461	1.087	0.859	0.967	0.962	1.005	0.941	0.769	0.723	0.873	0.661	0.723	0.694	0.917	1.210	1.175	1.095	1.315	1.135	1.123	1.202	1.042	0.917	1.154	1.267	1.218	1.246	1.120	1.072	0.999	0.921	0.808	0.884	0.844	0.865	0.967	0.946	0.978	1.045	1.244	1.290	1.060	1.149	1.445	1.511	1.665	1.906	1.802	1.946	1.767	1.430	0.880	0.664	0.345	0.271	0.243	0.212	0.323
625.0	241.4	184.8	106.4	54.71	34.76	37.29	59.74	108.3	183.2	281.8	360.7	359.9	263.9	97.07	27.74	8.856	7.766	67.41	213.3	17.87	1.073	0.840	1.127	0.732	0.911	0.715	0.649	0.801	0.724	0.633	0.734	0.544	0.707	0.916	1.114	1.011	1.055	0.909	0.957	1.095	0.908	0.883	1.156	1.048	1.119	1.044	0.977	1.048	0.840	0.796	0.777	0.679	0.769	0.748	0.809	0.813	0.839	0.827	1.142	1.253	1.028	1.018	1.294	1.511	1.483	1.790	1.579	1.610	1.700	1.334	0.936	0.566	0.412	0.251	0.193	0.182	0.187
630.0	197.8	160.3	96.03	49.35	30.96	33.56	52.98	94.27	161.4	243.1	312.5	304.3	230.3	102.4	27.66	9.299	5.586	19.11	153.3	104.3	2.914	0.817	0.922	0.776	0.637	0.653	0.538	0.595	0.567	0.532	0.429	0.524	0.627	0.759	0.894	0.803	0.934	0.828	0.730	0.855	0.758	0.837	0.852	0.930	0.921	0.895	0.901	0.815	0.690	0.697	0.633	0.555	0.613	0.665	0.711	0.636	0.656	0.632	0.836	0.970	0.994	0.994	1.124	1.267	1.290	1.508	1.565	1.454	1.254	1.172	0.863	0.552	0.332	0.247	0.230	0.186	0.142
635.0	182.4	145.3	88.49	41.69	27.39	28.53	44.57	78.10	134.6	206.6	261.1	259.2	183.6	102.0	30.02	9.780	5.559	7.088	46.31	183.6	24.21	0.890	0.773	0.612	0.675	0.561	0.488	0.380	0.433	0.405	0.372	0.463	0.625	0.586	0.810	0.853	0.801	0.627	0.676	0.627	0.660	0.757	0.643	0.770	0.787	0.744	0.755	0.664	0.550	0.559	0.524	0.430	0.458	0.565	0.636	0.490	0.542	0.530	0.666	0.737	0.854	0.955	0.890	0.986	1.175	1.273	1.293	1.265	1.168	1.005	0.732	0.623	0.364	0.264	0.162	0.138	0.097
640.0	153.4	135.0	66.91	36.00	26.18	26.40	37.25	65.66	112.8	179.1	229.1	227.6	157.1	95.06	35.28	9.999	5.404	3.924	13.14	141.4	64.70	1.386	0.732	0.397	0.528	0.457	0.451	0.475	0.424	0.376	0.337	0.340	0.492	0.582	0.592	0.693	0.706	0.581	0.562	0.608	0.576	0.674	0.614	0.631	0.594	0.676	0.655	0.548	0.512	0.475	0.427	0.391	0.472	0.434	0.563	0.490	0.485	0.481	0.503	0.598	0.696	0.826	0.780	0.999	0.907	1.057	1.103	1.042	1.153	0.867	0.569	0.576	0.383	0.303	0.164	0.167	0.117
645.0	142.2	121.7	64.79	37.48	24.37	23.19	37.27	61.19	99.04	157.3	204.0	196.3	140.7	80.15	41.69	9.701	6.370	3.818	5.150	61.90	129.5	8.394	0.579	0.481	0.642	0.494	0.428	0.412	0.386	0.295	0.325	0.312	0.444	0.515	0.581	0.522	0.561	0.448	0.542	0.482	0.476	0.482	0.777	0.505	0.440	0.599	0.565	0.499	0.522	0.349	0.383	0.375	0.405	0.396	0.440	0.440	0.453	0.425	0.498	0.509	0.681	0.870	0.881	0.823	0.841	0.907	0.891	0.937	0.939	0.691	0.467	0.480	0.448	0.348	0.200	0.129	0.105
650.0	129.2	90.13	56.30	35.49	20.13	21.60	32.13	53.69	87.30	137.4	177.3	171.1	124.2	65.92	44.43	12.88	6.253	3.885	3.746	18.79	125.0	39.61	0.846	0.439	0.657	0.396	0.346	0.394	0.270	0.247	0.296	0.318	0.398	0.542	0.655	0.404	0.417	0.485	0.435	0.337	0.497	0.437	0.530	0.484	0.414	0.505	0.555	0.455	0.409	0.395	0.382	0.435	0.416	0.356	0.412	0.340	0.419	0.358	0.452	0.424	0.513	0.696	0.772	0.826	0.740	0.829	0.843	0.839	0.801	0.560	0.480	0.350	0.390	0.345	0.295	0.248	0.172
