Sample:	'1
File name:	W110413»ãÊ¢Ñ­»·Ë®.FD3
Run date:	'14:01:45, 11/05/2024
Operator:	horiz
Comment:	'

Instrument
Model:	F-2700 FL Spectrophotometer
Serial number:	23B8-004
ROM Version:	4J14000 07

Instrument parameters
Measurement type:	3-D scan
Data mode:	Fluorescence
EX  Start WL:	220.0 nm
EX  End WL:	600.0 nm
EX Sampling interval:	5.0 nm
EM  Start WL:	230.0 nm
EM  End WL:	650.0 nm
EM Sampling interval:	5.0 nm
Scan speed:	12000 nm/min
EX Slit:	5.0 nm
EM Slit:	5.0 nm
PMT Voltage:	700 V
Response:	Auto 
Corrected spectra:	Off
Contour interval:	50.000

Peak integration
Integration method:	Rectangular
Sensitivity:	1
Threshold:	1.000

Peaks
No.	ApexEX/EM(nm)	Height(Data)
1	225.0/310.0	636.8
2	225.0/565.0	57.02
3	225.0/575.0	55.22
4	225.0/595.0	60.88
5	225.0/610.0	58.68
6	225.0/630.0	48.74
7	230.0/355.0	960.7
8	230.0/500.0	332.6
9	235.0/370.0	980.4
10	235.0/380.0	977.1
11	240.0/265.0	347.9
12	240.0/405.0	941.4
13	240.0/525.0	250.0
14	245.0/270.0	341.6
15	245.0/535.0	211.9
16	250.0/275.0	446.5
17	250.0/550.0	162.5
18	255.0/285.0	498.4
19	255.0/560.0	142.9
20	260.0/290.0	564.1
21	260.0/575.0	116.3
22	265.0/585.0	116.2
23	270.0/300.0	1334
24	270.0/600.0	118.6
25	275.0/305.0	1430
26	275.0/610.0	104.0
27	280.0/625.0	81.72
28	285.0/635.0	50.64
29	300.0/335.0	496.9
30	305.0/345.0	458.1
31	310.0/350.0	404.7
32	315.0/355.0	418.3
33	320.0/365.0	443.5
34	325.0/370.0	439.4
35	330.0/375.0	434.8
36	335.0/380.0	433.2
37	445.0/525.0	21.03
38	495.0/270.0	1.913
39	505.0/275.0	2.607
40	510.0/280.0	3.195
41	515.0/285.0	3.333
42	525.0/290.0	3.394
43	545.0/300.0	6.641
44	550.0/305.0	7.157
45	560.0/310.0	6.723
46	575.0/290.0	37.86
47	575.0/320.0	5.113
48	585.0/325.0	4.656

Wavelength data
No.	EX/EM(nm)	Height(Data)	

Data points
	220.0	225.0	230.0	235.0	240.0	245.0	250.0	255.0	260.0	265.0	270.0	275.0	280.0	285.0	290.0	295.0	300.0	305.0	310.0	315.0	320.0	325.0	330.0	335.0	340.0	345.0	350.0	355.0	360.0	365.0	370.0	375.0	380.0	385.0	390.0	395.0	400.0	405.0	410.0	415.0	420.0	425.0	430.0	435.0	440.0	445.0	450.0	455.0	460.0	465.0	470.0	475.0	480.0	485.0	490.0	495.0	500.0	505.0	510.0	515.0	520.0	525.0	530.0	535.0	540.0	545.0	550.0	555.0	560.0	565.0	570.0	575.0	580.0	585.0	590.0	595.0	600.0
230.0	51.27	802.0	2063	624.7	30.31	7.189	5.128	4.627	3.921	3.392	3.082	3.134	2.638	2.012	1.738	1.595	1.298	1.118	1.089	0.983	0.872	0.797	0.860	0.756	0.711	0.700	0.721	0.590	0.633	0.573	0.565	0.512	0.444	0.451	0.408	0.401	0.463	0.417	0.387	0.369	0.419	0.421	0.471	0.398	0.340	0.354	0.932	3.615	6.244	4.422	1.799	0.460	0.291	0.254	0.259	0.239	0.280	0.269	0.259	0.268	0.244	0.254	0.262	0.252	0.275	0.264	0.250	0.266	0.263	0.267	0.274	0.267	0.268	0.295	0.268	0.280	0.287
235.0	98.91	232.1	1242	2123	520.5	38.27	6.682	5.865	4.444	3.803	3.256	2.937	2.774	2.093	1.662	1.494	1.324	1.090	1.168	1.094	0.805	0.804	0.813	0.683	0.728	0.698	0.704	0.540	0.598	0.635	0.568	0.504	0.546	0.438	0.438	0.377	0.445	0.381	0.408	0.394	0.389	0.369	0.398	0.478	0.524	0.434	0.456	1.127	2.618	4.461	6.993	6.816	2.934	0.674	0.296	0.301	0.317	0.267	0.290	0.283	0.220	0.252	0.289	0.271	0.283	0.233	0.259	0.280	0.256	0.257	0.250	0.253	0.253	0.285	0.240	0.325	0.299
240.0	141.4	145.8	392.2	1829	2279	391.5	21.03	6.187	6.229	4.452	4.023	3.676	2.867	2.327	1.782	1.868	1.381	1.165	1.204	0.982	0.848	0.853	0.940	0.711	0.784	0.730	0.667	0.675	0.585	0.682	0.534	0.493	0.463	0.474	0.488	0.418	0.395	0.452	0.423	0.406	0.355	0.380	0.355	0.479	0.618	0.711	0.459	0.531	0.838	1.524	4.215	9.221	11.06	7.190	2.396	0.486	0.353	0.330	0.287	0.289	0.222	0.228	0.293	0.238	0.246	0.251	0.234	0.282	0.262	0.271	0.265	0.259	0.242	0.248	0.227	0.348	0.295
245.0	119.9	202.6	148.7	633.2	2566	2319	278.5	9.912	6.113	4.743	4.592	3.786	2.779	2.834	1.870	1.828	1.637	1.251	1.275	1.146	1.103	0.832	0.805	0.720	0.826	0.672	0.682	0.632	0.571	0.661	0.605	0.489	0.516	0.421	0.437	0.386	0.402	0.403	0.413	0.395	0.387	0.419	0.348	0.371	0.479	0.708	0.690	0.679	0.513	0.543	1.193	3.434	8.451	13.52	12.90	6.029	1.356	0.369	0.288	0.285	0.237	0.276	0.297	0.254	0.267	0.254	0.226	0.294	0.279	0.268	0.249	0.254	0.287	0.302	0.275	0.277	0.275
250.0	58.24	151.2	230.2	221.9	855.0	2496	2821	885.0	45.67	6.506	5.260	4.127	3.214	2.738	2.170	1.938	1.614	1.472	1.198	1.230	1.000	0.864	0.849	0.793	0.842	0.716	0.729	0.610	0.611	0.686	0.582	0.483	0.493	0.432	0.448	0.437	0.409	0.368	0.433	0.434	0.416	0.397	0.377	0.372	0.360	0.459	0.524	0.741	0.818	0.774	0.655	1.057	2.281	4.781	8.759	12.63	15.49	12.39	6.427	1.614	0.329	0.280	0.309	0.296	0.299	0.261	0.281	0.303	0.303	0.288	0.268	0.284	0.298	0.300	0.307	0.295	0.305
255.0	39.09	56.00	176.4	301.9	267.5	655.4	2471	4401	1156	37.80	7.001	5.073	4.292	3.326	2.514	2.233	1.743	1.622	1.317	1.081	1.041	0.975	0.928	0.860	0.932	0.776	0.825	0.730	0.664	0.670	0.613	0.545	0.494	0.492	0.488	0.483	0.420	0.388	0.405	0.425	0.397	0.374	0.407	0.366	0.366	0.418	0.346	0.449	0.540	0.826	1.139	1.192	0.852	1.316	2.223	3.340	7.002	15.38	25.67	21.88	9.115	1.639	0.410	0.280	0.329	0.295	0.327	0.298	0.306	0.293	0.315	0.278	0.289	0.289	0.254	0.310	0.348
260.0	33.82	31.94	75.90	268.1	277.7	192.5	789.2	4082	4468	237.6	16.50	7.342	4.855	3.753	2.458	2.506	1.877	1.516	1.181	1.100	1.129	1.169	0.932	0.873	1.078	0.758	0.853	0.793	0.748	0.665	0.663	0.607	0.502	0.498	0.533	0.457	0.405	0.390	0.396	0.383	0.437	0.437	0.376	0.423	0.348	0.377	0.351	0.363	0.366	0.469	0.883	1.715	1.427	1.073	0.823	1.061	1.939	4.578	13.12	25.69	29.62	20.22	6.658	0.864	0.310	0.304	0.328	0.286	0.301	0.362	0.297	0.291	0.312	0.269	0.251	0.307	0.356
265.0	41.10	26.51	34.00	133.4	347.9	210.9	209.9	1507	5428	4001	174.7	9.866	6.318	4.245	2.887	2.788	1.913	1.728	1.441	1.351	1.163	1.174	1.084	0.890	0.977	0.789	0.784	0.784	0.741	0.704	0.624	0.643	0.603	0.564	0.513	0.450	0.424	0.429	0.398	0.426	0.384	0.401	0.361	0.432	0.350	0.403	0.313	0.393	0.293	0.314	0.452	0.987	1.714	1.798	1.133	0.616	0.787	1.327	3.421	8.447	20.13	34.29	28.94	16.06	3.259	0.493	0.337	0.334	0.283	0.321	0.259	0.273	0.272	0.277	0.286	0.325	0.327
270.0	44.31	28.84	24.26	46.11	176.2	341.6	234.1	385.7	1889	5009	4181	699.0	32.66	5.684	3.977	3.301	2.648	1.985	1.765	1.425	1.310	1.162	1.135	0.951	0.974	0.872	0.901	0.770	0.730	0.783	0.676	0.698	0.610	0.557	0.514	0.475	0.487	0.469	0.411	0.452	0.431	0.412	0.396	0.426	0.377	0.397	0.323	0.353	0.315	0.310	0.330	0.512	0.798	1.121	1.658	1.913	1.559	0.892	1.137	2.220	5.075	10.80	18.49	27.68	29.97	26.83	11.84	3.200	0.573	0.327	0.290	0.381	0.338	0.346	0.304	0.330	0.334
275.0	51.74	46.43	33.80	29.36	57.31	172.5	446.5	274.2	460.8	1343	4575	7815	911.4	22.52	5.790	4.084	3.216	2.390	2.058	1.772	1.377	1.440	1.159	1.017	0.968	0.862	1.010	0.858	0.689	0.894	0.729	0.660	0.607	0.614	0.605	0.578	0.523	0.531	0.449	0.492	0.492	0.419	0.464	0.450	0.456	0.437	0.379	0.373	0.340	0.355	0.332	0.400	0.518	0.542	0.676	1.138	2.386	2.607	1.680	0.972	1.529	2.796	4.485	6.815	10.93	26.02	43.88	30.16	17.94	3.102	0.469	0.438	0.394	0.386	0.329	0.294	0.323
280.0	76.42	82.10	56.39	38.00	35.30	68.69	309.2	493.9	211.3	355.9	1510	7801	6560	131.0	11.40	5.542	3.867	2.798	2.511	1.653	1.707	1.482	1.277	1.049	0.929	0.928	1.039	0.827	0.879	0.844	0.781	0.755	0.674	0.644	0.612	0.632	0.543	0.528	0.495	0.483	0.469	0.493	0.488	0.504	0.426	0.552	0.532	0.457	0.380	0.325	0.385	0.393	0.434	0.364	0.489	0.674	1.042	2.059	3.195	2.221	1.107	1.109	1.408	1.989	2.947	7.171	17.95	37.24	54.64	28.01	12.63	1.499	0.463	0.420	0.331	0.336	0.351
285.0	118.1	133.1	102.4	53.78	39.07	43.86	141.9	498.4	315.3	195.6	454.5	2889	8727	4416	91.39	8.966	5.054	3.475	2.851	2.070	1.834	1.610	1.429	1.112	1.113	0.963	0.981	0.829	0.816	0.790	0.793	0.791	0.717	0.730	0.753	0.655	0.589	0.606	0.560	0.530	0.469	0.570	0.525	0.506	0.627	0.596	0.623	0.511	0.497	0.368	0.401	0.457	0.435	0.421	0.438	0.467	0.624	1.020	2.053	3.333	3.130	1.792	0.961	1.146	1.382	2.354	4.925	11.18	27.66	46.48	52.68	24.21	7.007	0.817	0.388	0.418	0.352
290.0	236.3	267.3	222.0	115.8	65.58	61.18	98.94	260.6	564.1	519.8	411.0	957.9	3121	6054	4686	382.1	18.63	5.112	3.574	2.394	2.207	1.770	1.754	1.302	1.308	1.099	1.093	0.875	0.949	0.873	0.783	0.691	0.713	0.767	0.813	0.775	0.679	0.726	0.690	0.625	0.605	0.636	0.589	0.619	0.667	0.803	0.870	0.775	0.804	0.655	0.520	0.555	0.469	0.483	0.509	0.498	0.616	0.736	1.087	1.620	2.629	3.394	3.376	2.623	1.896	1.906	2.631	3.894	7.788	13.95	24.21	37.86	34.55	35.14	16.21	6.032	0.869
295.0	384.7	437.0	347.0	196.0	105.1	98.01	123.7	217.9	406.6	877.1	902.7	760.9	1114	1732	4684	5942	511.4	12.42	5.259	3.365	2.731	2.166	2.023	1.574	1.409	1.240	1.217	1.028	1.012	0.843	0.910	0.771	0.672	0.841	0.946	0.836	0.840	0.820	0.788	0.664	0.646	0.733	0.809	0.764	0.881	1.031	1.118	1.304	1.059	0.893	0.680	0.698	0.591	0.621	0.613	0.654	0.777	0.748	1.145	1.270	1.700	2.289	3.007	4.866	5.225	3.803	3.007	3.281	4.018	5.162	6.922	9.771	10.74	23.25	45.71	52.22	24.11
300.0	447.2	531.7	440.2	242.4	141.3	129.9	157.9	248.1	399.1	783.3	1334	977.5	771.4	651.0	1504	7439	4846	74.55	8.933	4.153	3.268	2.788	2.481	1.791	1.512	1.422	1.285	1.010	1.173	0.937	0.971	0.807	0.782	0.846	0.954	1.058	0.997	0.911	0.848	0.746	0.724	0.728	0.821	0.927	1.061	1.098	1.325	1.436	1.306	1.077	0.819	0.793	0.757	0.752	0.617	0.733	0.864	0.853	1.158	1.258	1.607	2.115	2.490	3.750	5.547	6.641	5.303	3.915	3.703	3.910	3.500	3.756	3.425	6.353	15.45	34.42	52.43
305.0	496.3	626.1	502.5	289.0	166.1	160.8	206.5	300.5	455.4	739.0	1265	1430	840.1	474.5	479.0	2626	7575	3507	57.44	5.935	4.103	3.122	2.651	1.874	1.770	1.610	1.494	1.109	1.070	1.083	1.045	0.946	0.821	0.937	0.974	1.168	0.998	0.985	0.866	0.751	0.807	0.827	0.872	0.955	1.065	1.226	1.483	1.537	1.405	1.172	0.977	0.957	0.877	0.841	0.785	0.839	1.084	1.035	1.493	1.742	1.979	2.152	2.666	3.435	4.267	5.679	7.157	6.394	4.818	4.137	3.264	2.805	2.023	2.532	4.259	9.166	20.91
310.0	521.4	636.8	547.4	316.4	199.7	187.0	238.1	341.5	503.3	744.7	1065	1391	1215	556.7	292.3	700.7	2520	4846	4645	259.3	12.89	4.290	3.563	2.480	1.879	1.801	1.632	1.265	1.197	1.158	1.056	0.903	0.939	0.988	1.071	1.087	1.075	0.968	0.881	0.860	0.838	0.906	0.899	1.047	1.070	1.269	1.495	1.606	1.551	1.163	1.006	1.069	0.870	0.919	0.914	1.020	1.176	1.202	1.488	1.782	2.069	2.503	2.866	3.370	4.036	4.554	5.431	6.138	6.723	6.094	4.277	2.767	2.117	1.928	1.943	3.059	5.483
315.0	521.7	632.3	553.3	336.7	229.2	210.2	258.2	351.5	500.5	712.4	947.8	1092	1158	860.3	324.2	289.6	659.2	1249	4272	3996	375.5	10.60	5.297	2.915	2.426	2.046	1.896	1.417	1.290	1.290	1.111	1.026	0.990	0.911	0.933	0.935	0.948	0.998	0.825	0.768	0.770	0.925	0.911	0.982	1.068	1.354	1.565	1.664	1.525	1.294	0.993	1.073	0.986	0.988	1.024	1.099	1.194	1.376	1.513	1.910	1.995	2.484	2.700	3.375	3.797	4.241	4.574	4.853	4.884	5.871	5.756	4.853	3.072	2.001	1.710	1.757	2.167
320.0	531.0	637.3	588.7	367.8	247.1	226.4	269.0	356.4	498.0	684.6	898.0	977.7	935.2	916.6	521.5	232.6	266.3	351.5	1253	4296	3551	57.40	7.998	3.678	2.994	2.312	2.125	1.613	1.485	1.479	1.199	1.146	0.947	0.951	0.950	0.979	0.961	0.965	0.905	0.697	0.766	1.019	0.913	0.957	1.123	1.373	1.523	1.744	1.639	1.308	1.064	1.165	1.114	1.100	1.000	1.191	1.328	1.469	1.642	1.911	1.990	2.314	2.678	3.253	3.688	3.961	4.127	4.484	4.384	4.357	4.486	5.113	4.987	3.540	2.158	1.602	1.631
325.0	528.9	715.5	693.1	440.5	278.2	251.7	291.3	362.0	493.2	662.8	848.1	911.4	835.3	732.5	705.0	328.6	200.3	167.8	333.5	1455	5077	2939	48.77	4.864	3.773	2.715	2.179	1.635	1.643	1.481	1.286	1.095	1.011	0.978	0.930	1.007	0.940	0.920	0.831	0.859	0.841	0.899	0.863	1.105	1.238	1.348	1.646	1.791	1.832	1.515	1.337	1.347	1.241	1.067	1.133	1.251	1.285	1.503	1.765	1.891	2.007	2.393	2.622	3.148	3.534	3.703	4.098	4.158	3.962	4.052	3.741	3.622	4.059	4.656	3.473	2.170	1.691
330.0	570.5	764.1	789.7	566.4	371.5	315.3	326.2	383.8	481.3	623.8	773.1	839.4	765.9	604.4	568.9	528.9	295.5	153.3	147.2	376.1	1630	4040	4277	214.9	12.99	3.904	3.247	2.001	1.779	1.673	1.376	1.130	0.991	0.978	1.040	0.953	0.944	0.888	0.843	0.791	0.859	0.879	0.878	1.101	1.214	1.565	1.791	2.064	2.248	1.908	1.707	1.633	1.458	1.309	1.361	1.433	1.452	1.607	1.788	1.878	2.030	2.292	2.594	2.911	3.413	3.470	3.755	3.734	3.785	3.881	3.523	3.270	3.003	3.267	3.451	3.683	3.158
335.0	552.8	795.9	877.1	711.6	484.0	408.4	398.5	421.1	484.9	607.5	716.3	778.9	722.4	573.2	463.4	460.0	496.9	241.1	135.6	155.9	413.7	1015	3573	3281	338.4	12.20	4.354	2.369	2.063	1.901	1.532	1.323	1.086	0.970	1.114	0.909	1.062	0.864	0.895	0.864	0.965	0.842	0.839	1.077	1.341	1.577	1.829	2.253	2.391	2.177	2.041	2.295	1.944	1.809	1.700	1.816	1.771	1.759	1.882	1.912	2.162	2.408	2.555	2.974	3.176	3.287	3.406	3.449	3.707	3.568	3.492	2.943	2.784	2.681	2.675	2.763	3.179
340.0	563.1	825.6	929.7	787.4	585.4	477.3	447.0	465.3	507.8	597.3	682.6	731.6	686.9	568.5	452.2	390.8	473.0	395.8	174.8	126.5	160.4	277.2	1021	3405	3067	266.3	7.845	3.232	2.546	1.924	1.772	1.444	1.123	0.943	1.006	0.947	0.891	0.856	0.791	0.796	0.902	0.797	0.985	1.024	1.352	1.598	1.979	2.322	2.405	2.325	2.164	2.390	2.211	2.078	2.112	1.899	1.960	2.146	2.068	2.088	2.251	2.379	2.729	2.817	2.985	3.015	3.426	3.258	3.378	3.497	3.415	2.992	2.839	2.613	2.571	2.546	2.493
345.0	566.8	842.3	947.4	849.9	666.1	553.7	511.6	498.3	524.2	595.2	651.3	694.1	663.5	559.8	455.2	382.3	377.9	458.1	291.7	150.3	124.9	132.0	280.8	1105	4107	2661	45.97	4.631	3.033	2.559	2.101	1.614	1.249	1.022	0.934	1.019	0.895	0.884	0.828	0.852	0.883	0.853	1.006	1.081	1.318	1.590	1.952	2.334	2.550	2.392	2.392	2.610	2.683	2.289	2.185	2.016	2.116	2.294	2.202	2.267	2.284	2.504	2.647	2.690	2.755	3.010	3.185	3.069	3.277	3.215	3.189	3.021	2.764	2.804	2.414	2.453	2.458
350.0	553.2	823.0	955.5	907.9	752.7	659.9	592.4	556.0	556.8	595.1	635.6	657.3	631.2	565.7	478.1	410.0	364.2	379.9	404.7	284.2	169.3	136.6	146.1	305.7	1276	3095	3912	199.6	14.72	3.483	2.362	1.903	1.458	1.163	1.065	1.030	0.987	0.899	0.914	0.860	0.882	0.837	0.903	1.071	1.335	1.660	1.978	2.343	2.488	2.402	2.454	2.899	2.765	2.643	2.549	2.646	2.466	2.520	2.455	2.633	2.450	2.657	2.659	2.874	2.933	2.850	3.017	3.048	3.094	3.108	2.902	3.085	2.866	2.890	2.672	2.594	2.584
355.0	557.3	819.5	960.7	917.5	830.0	754.7	674.3	621.4	603.4	607.8	630.2	636.3	621.4	571.7	500.1	441.1	402.4	370.4	365.7	418.3	298.7	187.9	155.6	160.6	348.5	770.6	2767	2949	344.0	16.76	3.372	2.466	1.695	1.348	1.224	1.100	1.030	0.949	0.801	0.902	0.794	0.864	0.830	1.045	1.305	1.698	1.798	2.110	2.455	2.490	2.543	2.924	2.983	2.917	2.967	2.848	2.895	2.884	2.735	2.782	2.637	2.760	2.702	2.779	2.842	2.906	2.875	3.073	3.009	3.113	3.018	3.002	3.038	2.882	2.886	2.790	2.839
360.0	527.2	809.6	956.0	972.0	900.5	807.5	720.6	665.3	628.1	636.3	633.4	637.2	622.5	574.2	518.6	469.5	437.5	394.9	371.4	407.6	417.3	265.1	190.2	154.5	165.0	231.0	747.2	2361	2914	298.6	9.188	2.987	1.974	1.492	1.238	1.025	1.036	1.086	0.953	0.852	0.820	0.843	0.908	1.100	1.366	1.624	1.856	2.182	2.410	2.447	2.530	2.999	2.973	3.106	3.145	2.991	3.230	3.138	2.892	2.898	2.689	2.949	2.876	3.041	2.840	3.114	2.810	2.999	3.101	3.021	3.049	3.116	3.035	3.130	3.209	2.853	2.898
365.0	536.2	779.1	942.6	976.3	924.4	856.3	786.6	698.3	664.1	646.4	643.0	637.9	627.6	584.5	537.5	498.3	460.9	427.7	398.7	388.2	443.5	382.2	242.6	184.0	146.7	131.3	222.7	708.5	3140	2767	45.26	5.090	2.764	1.651	1.537	1.160	1.035	1.083	0.906	0.887	0.957	0.908	0.945	1.075	1.346	1.629	1.778	2.175	2.320	2.574	2.378	3.111	3.270	3.093	3.175	3.126	3.295	3.294	3.034	3.083	2.853	3.116	3.102	3.055	3.102	3.076	2.939	3.073	2.769	3.052	3.073	3.097	3.324	3.223	3.188	3.217	3.210
370.0	547.1	768.2	935.8	980.4	949.8	901.4	834.5	746.8	704.4	671.4	651.8	644.4	635.4	598.4	554.8	524.0	497.9	472.5	443.3	416.6	417.7	439.4	368.6	246.5	182.0	140.0	129.5	212.3	915.7	2776	2846	827.2	14.83	2.603	1.912	1.414	1.242	1.218	1.040	0.855	0.977	0.838	0.996	1.083	1.283	1.604	1.759	2.169	2.407	2.354	2.588	3.098	3.281	3.305	3.350	3.288	3.435	3.441	3.236	3.278	3.140	3.119	3.221	3.085	3.062	3.027	2.990	3.071	2.953	3.123	3.173	3.178	3.117	3.203	3.146	3.277	3.384
375.0	541.4	775.0	915.4	969.7	964.8	934.4	865.5	776.3	729.1	698.0	676.2	663.0	643.4	614.1	568.7	542.6	520.3	504.9	483.6	457.7	432.7	420.3	434.8	361.0	233.7	175.5	137.1	123.9	255.8	675.2	1762	3374	312.0	16.90	2.723	1.854	1.535	1.241	1.170	0.942	1.086	0.987	1.001	1.211	1.257	1.507	1.760	2.140	2.400	2.361	2.531	3.108	3.266	3.471	3.647	3.579	3.438	3.594	3.282	3.196	3.068	3.272	3.143	3.306	3.064	2.944	2.886	3.072	2.985	3.232	3.284	3.340	3.339	3.589	3.099	3.449	3.438
380.0	542.2	747.1	901.0	977.1	975.4	942.6	886.0	804.6	739.7	714.1	690.5	668.6	648.9	622.3	581.6	550.4	536.1	523.5	505.3	481.4	454.2	430.2	420.2	433.2	298.9	207.3	159.9	122.8	124.9	197.3	474.6	2181	2529	258.6	8.793	2.312	1.894	1.640	1.334	1.023	1.208	1.040	1.012	1.258	1.202	1.609	1.824	2.143	2.270	2.237	2.574	3.265	3.325	3.525	3.648	3.681	3.365	3.424	3.417	3.355	3.199	3.316	3.099	3.132	3.098	2.907	3.039	3.114	3.204	3.305	3.267	3.385	3.650	3.156	3.206	3.439	3.383
385.0	561.3	741.1	902.8	958.8	966.3	957.0	883.7	809.4	753.9	724.6	695.3	679.8	646.2	627.2	581.8	556.2	546.6	539.3	522.5	497.7	474.1	440.1	411.2	421.9	376.6	254.0	184.3	141.6	110.1	103.4	146.6	607.7	2230	2105	206.2	4.093	2.047	2.066	1.657	1.215	1.171	1.089	1.048	1.240	1.360	1.549	1.802	2.217	2.369	2.285	2.445	3.162	3.374	3.477	3.537	3.562	3.619	3.475	3.471	3.309	3.418	3.449	3.217	3.208	3.302	3.231	3.182	3.157	3.162	3.402	3.347	3.170	3.548	3.339	3.292	3.459	3.611
390.0	536.9	731.6	880.1	950.9	966.2	948.8	896.3	818.4	764.2	732.1	703.4	681.0	647.2	619.4	583.5	555.6	551.6	538.6	530.2	508.8	487.0	455.9	422.9	397.6	390.8	338.8	234.5	171.3	132.6	103.1	89.37	173.2	615.8	1505	1965	670.0	13.58	2.744	1.865	1.437	1.340	1.113	1.076	1.258	1.348	1.559	1.879	2.106	2.264	2.397	2.478	3.138	3.484	3.451	3.445	3.547	3.655	3.543	3.567	3.398	3.397	3.484	3.318	3.265	3.225	3.192	3.090	3.154	3.157	3.172	3.267	3.177	3.417	3.398	3.294	3.441	3.430
395.0	528.1	759.7	876.2	915.2	951.7	939.4	894.5	820.9	777.6	742.9	717.3	681.0	645.9	615.3	579.4	553.5	546.0	536.9	526.5	515.1	496.4	469.3	438.3	402.5	368.9	362.3	314.6	215.0	159.9	124.1	95.83	90.78	172.6	364.7	1005	2456	267.3	18.38	2.706	1.722	1.440	1.148	1.048	1.259	1.461	1.532	1.638	2.036	2.298	2.324	2.542	3.044	3.247	3.518	3.469	3.268	3.771	3.749	3.635	3.432	3.613	3.481	3.418	3.680	3.226	3.343	3.175	3.056	3.024	3.258	3.104	3.245	3.251	3.273	3.457	3.513	3.476
400.0	512.8	717.0	850.9	906.7	928.6	924.1	902.5	827.4	790.0	748.8	716.2	675.6	645.3	609.1	575.8	549.8	539.6	531.7	522.0	510.9	492.9	471.2	443.6	406.3	369.0	344.8	345.5	267.7	186.1	143.1	109.7	84.01	81.90	109.6	263.2	1473	2082	253.1	10.41	2.149	1.713	1.234	1.109	1.332	1.422	1.607	1.736	2.105	2.223	2.213	2.481	2.866	3.376	3.490	3.435	3.379	3.657	3.579	3.594	3.454	3.492	3.350	3.410	3.333	3.439	3.155	3.216	2.937	3.156	3.124	3.129	3.245	3.177	3.256	3.298	3.232	3.409
405.0	514.6	696.5	831.9	895.6	941.4	909.8	882.1	829.4	784.8	739.4	716.9	675.3	643.0	605.7	563.4	539.2	528.9	518.8	512.2	502.5	488.1	466.9	441.9	410.0	373.0	338.6	330.6	317.1	217.2	161.0	126.8	93.12	69.14	59.14	82.26	399.4	1590	2094	201.0	4.806	2.048	1.493	1.346	1.418	1.501	1.641	1.903	1.986	2.150	2.155	2.278	3.021	3.266	3.285	3.462	3.553	3.454	3.537	3.535	3.460	3.581	3.219	3.456	3.135	3.154	3.292	3.066	3.337	3.014	3.160	3.245	3.178	3.238	3.106	3.369	3.240	3.415
410.0	498.9	667.3	821.2	862.0	897.2	887.4	862.1	818.2	780.2	747.7	717.1	677.2	629.2	586.6	546.4	521.5	511.3	499.9	496.0	486.9	474.5	455.6	438.6	410.6	374.9	343.1	313.3	310.4	277.7	202.0	146.7	110.0	79.15	58.78	49.87	110.5	426.1	1563	1966	641.8	12.76	1.985	1.561	1.549	1.581	1.646	1.858	1.954	2.058	2.073	2.353	2.955	3.132	3.199	3.331	3.408	3.554	3.474	3.486	3.394	3.630	3.299	3.341	3.382	3.238	3.328	3.090	3.076	3.049	3.147	3.353	3.191	3.133	3.135	3.142	3.225	3.222
415.0	482.7	636.9	780.4	837.7	874.0	854.3	844.8	803.5	776.7	745.1	709.8	665.9	616.2	570.3	533.1	500.9	488.6	480.4	471.6	464.8	452.5	441.8	423.4	400.7	375.8	343.9	311.0	287.5	280.5	257.1	178.9	128.0	93.25	68.04	50.88	52.96	113.8	368.0	982.6	2104	247.3	14.60	2.008	1.741	1.528	1.694	1.723	1.902	2.080	2.163	2.232	2.744	3.146	2.942	3.068	3.242	3.494	3.466	3.566	3.337	3.412	3.304	3.396	3.257	3.317	3.189	3.115	2.896	3.226	2.861	2.940	3.072	3.148	3.019	3.032	3.264	3.233
420.0	478.1	634.0	773.3	799.5	843.3	840.8	817.1	796.3	761.5	734.8	695.6	650.1	600.4	554.3	513.7	480.2	469.2	460.7	451.3	448.6	432.8	425.0	406.9	390.3	366.4	338.8	308.9	280.7	264.1	269.0	213.9	141.5	105.5	77.24	57.69	44.19	48.83	99.04	248.6	1193	1976	212.6	7.714	2.160	1.684	1.841	1.782	1.997	2.084	2.018	2.246	2.650	2.900	3.052	2.903	3.128	3.368	3.279	3.462	3.353	3.418	3.158	3.244	3.219	3.217	3.108	3.205	2.886	3.158	2.871	2.880	3.085	3.040	2.982	3.005	2.970	2.967
425.0	454.0	626.5	739.2	775.6	815.1	816.0	812.4	782.6	749.6	731.9	687.9	643.1	588.9	540.8	500.1	465.8	450.8	439.6	433.2	427.6	420.3	410.6	399.5	382.6	357.7	336.2	310.4	280.6	257.4	253.5	240.6	165.1	116.9	86.99	65.61	47.48	38.11	41.76	69.28	313.0	1542	1459	162.0	4.332	2.201	2.048	1.784	2.001	2.038	1.797	1.996	2.554	2.719	3.045	2.917	3.029	3.433	3.445	3.237	3.372	3.398	3.339	3.468	3.142	3.218	3.058	3.104	2.846	3.056	2.979	2.906	2.863	3.003	2.806	2.891	2.871	2.899
430.0	541.2	590.7	715.3	750.7	770.0	784.6	776.0	774.8	743.6	717.8	681.4	633.8	581.3	524.9	475.2	445.7	426.0	418.6	410.2	403.4	398.5	388.5	382.1	368.8	348.4	329.2	305.9	282.2	259.7	240.0	229.0	199.4	141.0	98.38	74.58	55.93	42.36	34.24	33.93	83.73	408.6	984.7	1228	546.8	12.06	2.459	2.073	2.010	2.039	2.018	2.084	2.565	2.743	2.975	2.949	2.918	3.171	3.394	3.206	3.309	3.333	3.375	3.177	3.168	3.131	3.059	3.040	2.903	3.030	2.851	2.826	2.765	2.913	2.879	2.731	2.904	2.700
435.0	864.1	560.4	676.5	717.8	737.7	749.5	764.7	763.8	739.4	715.8	674.0	622.0	567.3	512.1	458.2	426.0	406.5	395.7	387.6	381.7	374.4	372.6	361.7	352.4	339.3	318.9	301.9	282.4	260.1	236.4	215.9	198.8	175.7	118.6	84.88	65.56	50.02	38.13	31.01	36.45	104.1	232.9	609.7	2002	232.6	14.66	2.667	2.198	2.057	2.211	2.073	2.671	2.647	2.868	2.817	2.869	3.122	3.286	3.151	3.253	3.421	3.350	3.274	3.359	3.074	2.957	3.008	2.852	2.774	2.901	2.800	2.552	2.741	2.842	2.713	2.560	2.626
440.0	1140	641.1	646.4	703.7	713.9	740.6	741.8	746.2	730.7	710.2	663.6	609.8	559.0	497.2	448.2	411.2	389.5	378.8	374.9	364.7	360.4	352.3	347.3	340.2	329.1	314.4	297.8	279.2	261.7	239.5	210.0	187.0	183.1	140.3	94.67	71.85	55.10	43.88	34.04	28.89	38.92	64.07	157.8	1246	1816	206.8	7.909	2.588	2.090	2.033	2.123	2.565	2.588	2.854	2.691	2.851	3.047	2.897	3.322	3.277	3.281	3.324	3.099	3.293	3.199	3.084	2.834	3.150	2.840	2.960	2.672	2.658	2.535	2.595	2.658	2.556	2.851
445.0	1157	887.7	627.7	672.6	696.7	719.1	719.4	722.1	709.9	690.5	658.0	599.3	541.9	483.2	434.6	396.0	377.8	365.1	359.0	348.2	344.8	338.2	332.6	326.8	316.3	300.2	291.3	274.6	257.9	238.4	211.1	183.3	171.0	157.8	110.1	78.51	61.30	48.51	37.80	30.31	27.84	28.79	46.24	335.0	1496	1748	153.3	3.981	2.460	2.203	2.081	2.508	2.546	2.730	2.756	3.026	3.235	2.983	3.049	3.148	3.292	3.078	3.330	3.020	3.101	2.948	2.830	2.926	2.687	2.599	2.854	2.776	2.434	2.500	2.355	2.633	2.476
450.0	795.8	1438	756.4	640.5	652.0	669.0	688.1	693.3	683.1	663.3	628.2	580.9	516.9	457.3	409.3	370.2	352.5	339.0	330.9	324.4	317.6	312.8	308.0	303.7	294.9	284.8	273.3	260.8	248.7	231.7	207.7	178.6	158.0	146.4	130.3	92.91	67.99	53.84	43.71	35.36	28.92	24.12	23.92	85.85	405.1	1421	1738	420.4	9.595	2.419	2.194	2.442	2.511	2.586	2.572	2.837	3.050	2.881	2.948	3.028	3.017	3.037	3.171	3.020	2.927	2.990	2.891	2.790	2.644	2.680	2.671	2.505	2.455	2.585	2.339	2.488	2.548
455.0	450.5	1379	1255	605.5	600.6	619.1	648.2	646.6	640.3	635.6	598.0	549.7	487.3	428.7	379.4	342.4	325.6	312.8	300.5	298.2	290.8	283.5	280.9	276.3	275.5	262.5	254.7	243.9	236.0	221.3	200.2	177.3	152.1	132.1	126.3	110.8	79.12	59.21	48.32	40.29	32.75	26.86	22.07	31.83	100.2	330.8	894.8	1535	185.5	10.90	2.484	2.634	2.453	2.615	2.544	2.668	2.835	2.686	2.841	2.859	2.903	2.992	2.842	3.054	2.883	2.825	2.624	2.619	2.426	2.485	2.373	2.430	2.325	2.259	2.106	2.427	2.401
460.0	326.3	988.0	1788	687.2	566.9	587.6	602.6	609.8	616.3	600.4	570.5	526.8	463.8	407.9	360.0	322.3	302.5	287.3	280.7	276.5	268.2	263.4	263.7	259.0	253.9	245.6	240.0	230.2	222.4	213.2	193.5	171.2	148.5	126.5	114.9	112.0	91.24	64.60	52.15	43.44	35.25	28.59	22.68	21.34	33.09	82.39	224.9	902.2	1115	152.5	6.212	2.848	2.475	2.505	2.407	2.645	2.695	2.597	2.723	2.807	2.806	2.821	2.778	2.870	2.668	2.741	2.503	2.546	2.438	2.340	2.143	2.482	2.141	2.201	2.027	2.106	2.225
465.0	302.0	592.1	1831	935.9	550.0	554.8	570.3	581.9	579.5	571.6	546.7	497.9	443.1	390.6	339.6	304.2	286.4	266.0	260.4	252.9	249.6	244.6	241.7	239.3	235.5	230.6	225.1	219.0	211.3	200.4	184.1	165.1	143.3	123.7	108.2	103.0	97.46	71.74	56.16	45.03	36.99	30.89	24.69	19.97	19.50	28.01	57.74	239.4	903.2	1119	116.8	3.678	2.538	2.520	2.367	2.492	2.604	2.571	2.535	2.727	2.551	2.597	2.782	2.752	2.560	2.580	2.478	2.457	2.368	2.260	2.286	2.286	2.089	1.960	2.262	2.156	2.070
470.0	303.8	415.3	1160	1741	630.0	504.0	518.9	535.6	533.6	527.3	506.6	460.8	406.8	357.3	311.9	277.4	257.9	242.6	233.2	229.5	222.5	218.2	216.6	213.6	212.7	206.4	203.0	198.2	194.7	185.9	171.2	155.3	135.1	117.5	102.5	90.92	88.55	79.94	61.10	46.58	38.68	32.51	26.16	21.27	17.86	16.92	21.30	60.24	243.5	772.9	875.6	278.5	9.329	2.627	2.318	2.270	2.388	2.543	2.384	2.442	2.337	2.405	2.504	2.539	2.398	2.439	2.291	2.268	2.150	2.141	2.149	2.019	1.848	1.884	1.969	1.889	1.965
475.0	284.1	332.3	588.6	1685	1273	464.8	462.8	486.5	489.9	476.4	461.0	419.6	372.5	322.7	287.2	253.9	233.4	219.0	207.4	204.7	197.2	192.2	190.8	191.5	188.7	184.1	182.0	177.3	175.3	168.7	158.6	142.0	125.2	109.9	96.57	84.12	76.58	73.98	67.97	50.85	39.16	33.08	26.85	22.40	18.85	15.34	14.03	21.05	60.18	179.7	410.9	874.3	184.3	12.22	2.588	2.342	2.289	2.284	2.202	2.293	2.325	2.172	2.305	2.286	2.311	2.233	2.078	2.043	1.934	1.909	1.923	2.092	1.838	1.770	1.753	1.665	1.879
480.0	284.3	329.9	400.8	1128	1836	537.4	434.7	445.9	456.6	448.7	432.4	393.8	352.1	309.0	260.4	236.4	215.9	204.9	193.5	187.6	181.9	178.5	175.1	174.3	172.6	169.1	167.3	163.6	162.8	155.6	147.9	134.1	118.7	104.4	92.36	80.03	71.70	66.87	67.54	56.35	39.91	33.75	28.16	23.25	18.98	15.77	13.31	12.75	19.86	45.53	103.0	496.5	930.9	171.8	5.659	2.402	2.464	2.232	2.135	2.189	2.231	1.987	2.142	2.085	2.217	2.116	2.160	1.881	1.904	1.754	1.750	1.645	1.757	1.657	1.702	1.734	1.658
485.0	255.7	321.8	348.3	655.7	1965	919.6	410.9	419.8	431.5	425.8	407.6	374.3	328.2	288.6	248.5	221.7	202.7	189.5	178.9	174.0	167.5	163.2	164.7	161.1	160.3	156.5	154.3	153.8	152.3	145.1	140.2	126.6	114.1	100.6	88.12	77.25	69.48	61.86	61.63	59.23	44.70	34.06	28.16	23.96	19.69	16.44	13.58	11.53	11.26	15.80	27.85	134.9	715.8	967.0	26.33	3.280	2.502	2.286	2.178	2.051	2.151	2.037	2.125	1.967	2.076	2.009	2.025	1.842	1.861	1.789	1.806	1.659	1.704	1.633	1.472	1.516	1.448
490.0	204.5	336.3	333.5	404.8	1227	1690	457.2	387.6	400.5	389.2	383.4	349.7	307.4	267.8	230.1	203.2	186.7	172.6	164.4	159.7	153.1	150.0	149.8	147.1	145.4	142.8	140.5	140.7	137.3	135.2	129.3	117.4	105.9	94.36	83.61	73.13	66.15	57.84	54.38	54.50	49.83	37.91	29.05	24.27	20.63	17.01	14.67	12.11	9.934	9.746	11.24	34.46	189.9	633.6	820.9	366.9	10.80	2.461	2.119	1.998	2.092	1.902	1.993	1.800	2.129	1.865	1.881	1.678	1.727	1.682	1.533	1.582	1.629	1.447	1.406	1.478	1.474
495.0	180.8	297.4	323.7	326.3	553.2	1716	1052	357.3	362.3	359.0	347.5	321.5	280.2	245.2	210.6	186.3	170.7	156.5	147.2	143.0	136.9	135.0	131.7	128.9	130.6	126.3	125.7	127.1	125.4	122.6	116.6	106.5	96.78	87.06	78.55	68.52	61.26	55.13	49.87	46.50	46.83	42.37	31.02	24.46	20.81	17.46	15.06	12.41	10.45	8.545	7.786	12.38	46.15	146.9	429.6	1219	215.3	12.24	2.347	1.963	2.135	1.747	1.849	1.767	1.904	1.694	1.728	1.538	1.647	1.575	1.396	1.586	1.393	1.302	1.392	1.443	1.439
500.0	168.9	251.3	332.6	290.8	349.8	1139	1701	388.3	331.1	331.5	318.8	295.1	256.4	225.8	194.5	173.3	155.9	143.3	136.0	131.1	124.1	122.0	121.0	118.2	117.1	117.4	115.6	114.7	115.1	112.1	105.2	98.70	89.40	81.12	72.26	64.48	57.74	50.51	46.79	42.04	40.03	42.20	34.77	24.81	20.70	17.48	15.37	13.21	10.75	8.667	7.659	7.314	14.47	36.31	107.6	689.1	1151	173.5	5.743	2.116	1.969	1.801	1.797	1.687	1.767	1.611	1.589	1.537	1.763	1.591	1.434	1.401	1.326	1.324	1.353	1.248	1.407
505.0	141.5	211.9	305.3	286.6	286.6	610.4	1914	685.1	308.5	306.2	293.0	270.2	236.5	206.9	180.2	156.8	142.3	131.6	123.8	118.6	113.9	109.7	109.9	108.7	106.3	105.4	106.4	105.4	104.7	103.2	98.28	91.69	83.84	74.99	67.09	60.85	55.00	48.26	44.27	39.70	35.95	37.58	36.12	27.20	20.44	17.55	15.34	12.73	10.66	9.353	7.523	6.770	7.466	11.75	27.43	181.8	828.6	780.3	29.12	3.030	1.960	1.835	1.716	1.724	1.647	1.564	1.482	1.421	1.555	1.505	1.404	1.285	1.139	1.143	1.273	1.197	1.346
510.0	124.1	178.1	259.0	281.7	249.6	333.3	1213	1454	361.3	271.3	264.1	240.7	212.3	186.0	160.0	140.6	126.4	116.6	109.5	103.2	100.7	97.30	97.27	94.42	93.79	92.20	91.55	92.05	91.42	91.36	86.39	81.87	73.64	66.01	60.09	54.99	49.45	45.06	39.99	35.91	32.41	31.24	31.64	29.62	22.19	17.23	14.89	12.19	10.52	9.132	7.699	6.697	5.890	6.335	9.497	43.69	213.8	477.2	662.1	124.3	11.03	1.902	1.659	1.619	1.451	1.452	1.377	1.351	1.381	1.307	1.194	1.220	1.190	1.101	1.153	1.090	1.030
515.0	118.6	150.3	188.9	271.0	243.0	230.9	503.9	1660	822.5	240.3	232.6	214.8	189.5	164.9	140.9	124.9	112.5	102.8	96.33	89.14	87.79	85.09	83.79	82.41	81.03	79.84	80.40	79.31	78.42	78.41	74.23	70.93	63.95	58.62	53.74	47.70	43.26	39.58	36.02	31.54	29.25	26.53	25.62	27.04	24.39	18.14	14.20	11.99	10.12	8.999	7.642	6.904	5.581	5.357	5.441	12.95	50.26	110.0	286.4	650.8	214.1	11.84	1.591	1.490	1.363	1.313	1.302	1.263	1.163	1.109	1.108	1.097	1.037	1.087	1.004	1.013	0.954
520.0	115.5	141.4	157.6	235.5	246.4	198.2	270.8	1127	1449	271.1	209.6	192.4	173.1	150.8	127.7	112.1	99.38	91.92	87.27	81.81	78.86	75.50	75.32	73.09	72.31	71.77	70.70	70.21	70.09	69.90	67.60	63.64	57.07	52.94	47.67	43.36	39.74	35.80	32.54	29.74	26.42	24.37	22.36	23.33	23.97	19.50	14.01	11.78	10.15	8.872	7.423	6.953	5.842	5.227	4.505	5.859	13.93	27.11	69.65	336.7	741.4	170.2	7.204	1.590	1.333	1.198	1.229	1.182	1.133	1.002	1.076	1.052	0.994	1.026	0.967	0.985	0.981
525.0	102.9	136.5	140.7	189.3	250.0	184.5	200.9	556.5	1791	539.6	196.3	176.4	154.5	138.8	116.8	102.5	89.82	83.90	77.16	73.80	70.50	67.70	67.08	65.98	64.00	65.84	63.53	63.02	63.81	63.00	60.63	57.22	51.82	48.49	43.65	39.81	36.87	33.09	29.81	27.30	24.82	22.14	20.19	19.48	20.83	21.03	15.02	11.64	9.645	8.359	7.211	6.757	6.039	5.405	4.396	4.358	5.750	8.611	17.75	86.07	458.9	582.3	30.74	3.112	1.448	1.220	1.244	1.140	1.092	0.974	0.932	0.873	0.917	0.977	0.855	1.101	0.883
530.0	94.73	108.8	121.8	141.3	222.5	193.7	164.8	261.3	1187	1345	220.8	156.3	135.3	119.5	101.3	88.33	79.20	72.86	68.17	64.65	61.73	58.32	58.01	56.63	56.31	55.73	54.08	54.10	55.40	54.95	53.04	49.32	45.81	41.84	38.32	34.59	31.90	29.24	26.55	24.18	22.08	19.75	18.38	17.20	16.63	18.39	16.59	12.16	9.507	7.862	6.911	6.125	5.440	5.303	4.549	3.866	3.997	4.147	6.213	21.11	115.1	309.9	449.1	127.4	11.57	1.316	1.191	1.065	0.977	0.902	0.889	0.856	0.854	0.846	0.808	0.839	0.761
535.0	72.78	102.9	102.3	116.3	162.1	211.9	146.3	164.9	445.2	1641	733.0	137.5	118.3	103.5	88.55	75.50	70.04	61.42	57.33	54.36	52.02	51.70	50.10	47.97	48.10	45.89	46.76	46.35	47.37	47.69	44.70	42.32	38.81	35.50	33.03	30.24	27.43	25.16	23.52	21.08	19.31	18.26	16.19	15.41	13.52	13.62	15.12	13.34	9.473	7.321	6.316	5.507	5.102	4.676	4.741	3.859	3.732	3.215	3.427	6.624	27.29	70.93	164.5	419.2	222.9	14.88	1.125	1.062	0.949	0.778	0.809	0.831	0.754	0.770	0.707	0.803	0.735
540.0	67.72	86.35	93.92	97.14	119.0	204.7	147.2	137.6	201.3	1103	1523	159.8	105.1	90.64	78.81	67.95	60.98	54.32	51.06	48.02	45.83	45.60	43.95	41.53	41.65	40.80	41.16	40.59	40.81	40.51	39.40	37.42	34.47	31.42	28.86	26.91	24.45	21.91	20.94	19.00	17.64	15.81	14.32	13.79	12.19	11.57	12.67	13.07	9.992	7.235	6.031	5.265	4.612	4.334	4.266	4.064	3.538	2.816	2.630	3.366	7.828	17.30	39.19	184.8	562.2	180.8	8.923	1.046	0.862	0.747	0.757	0.760	0.728	0.792	0.725	0.788	0.685
545.0	62.71	82.11	90.06	92.38	97.22	159.4	156.5	116.6	135.2	498.1	1968	340.4	95.03	80.75	69.96	60.10	53.66	47.05	44.40	42.96	40.27	39.52	38.31	37.07	35.61	35.70	36.71	35.89	36.27	35.51	35.14	32.62	30.47	27.15	25.30	23.03	21.31	19.53	18.14	16.91	15.54	14.00	13.10	12.08	11.00	10.12	10.03	11.79	10.66	7.506	5.530	4.881	4.311	3.968	3.998	3.932	3.636	2.676	2.471	2.494	3.438	5.267	10.10	44.88	286.5	437.1	137.7	4.271	0.967	0.734	0.733	0.722	0.761	0.682	0.707	0.656	0.643
550.0	54.51	64.93	71.91	78.20	78.28	109.7	162.5	112.6	102.1	191.7	1216	1006	118.9	67.99	57.60	50.27	44.87	40.29	37.56	35.40	33.67	32.20	32.14	30.71	30.43	29.58	29.59	29.76	30.18	29.49	28.42	26.68	25.16	23.32	21.55	19.28	17.77	16.77	15.44	14.01	13.08	11.98	10.98	9.927	9.390	8.567	8.089	8.582	9.277	7.933	5.734	4.601	3.898	3.681	3.358	3.331	3.373	2.790	2.432	2.019	2.201	2.439	3.474	11.14	68.64	186.5	309.0	196.5	13.48	0.943	0.775	0.669	0.677	0.599	0.560	0.627	0.583
555.0	55.19	60.72	62.11	66.98	64.89	76.77	134.3	127.2	80.34	103.4	388.3	1289	424.7	56.15	45.71	40.51	36.23	33.27	30.96	29.18	27.67	26.56	25.37	24.96	25.02	24.02	23.09	23.39	23.65	24.21	22.52	21.25	20.39	18.98	17.17	15.89	14.16	13.63	12.64	11.59	10.69	9.856	8.783	8.508	7.661	7.156	6.684	6.427	6.615	7.160	6.015	4.285	3.516	3.421	2.945	2.780	2.623	2.692	2.603	1.909	1.842	1.534	1.791	3.475	16.31	42.52	93.10	344.8	226.6	18.25	0.854	0.673	0.631	0.548	0.623	0.609	0.575
560.0	52.63	51.92	54.19	55.24	57.67	61.64	97.53	142.9	74.76	76.50	142.1	871.4	967.6	69.93	41.40	35.39	31.23	27.83	25.72	24.24	23.15	22.74	21.82	21.20	20.36	19.80	20.25	20.34	20.20	20.41	19.40	17.56	16.89	15.68	14.59	13.48	12.10	11.58	10.25	9.944	8.901	8.656	7.304	7.225	6.850	5.949	5.767	5.200	4.915	5.719	5.852	4.279	3.319	2.848	2.684	2.638	2.455	2.290	2.359	1.954	1.633	1.382	1.507	1.757	4.550	10.45	21.83	126.0	365.4	182.9	11.76	0.749	0.583	0.484	0.523	0.582	0.483
565.0	45.82	57.02	51.71	50.32	51.02	51.61	68.85	131.3	80.30	65.32	80.45	377.0	1319	136.7	36.18	29.84	26.85	23.78	23.23	20.55	19.86	18.97	17.87	17.78	17.74	17.41	17.12	17.38	17.53	17.05	16.21	14.97	14.26	13.43	12.50	11.19	10.79	9.636	9.011	8.590	7.606	7.048	6.145	6.207	5.881	5.252	5.171	4.489	4.072	4.384	5.160	4.619	3.285	2.705	2.461	2.397	2.172	2.117	2.079	2.020	1.605	1.344	1.372	1.267	1.753	3.150	5.542	29.78	157.2	316.1	129.2	4.468	0.568	0.548	0.487	0.513	0.468
570.0	53.43	51.82	47.13	45.78	43.42	43.16	48.56	94.22	104.1	60.62	64.11	135.0	855.5	679.4	54.62	25.13	21.86	20.01	18.61	17.01	16.16	15.47	14.92	14.32	13.77	13.70	13.84	13.79	13.65	13.50	13.32	12.36	11.50	10.66	9.999	9.300	8.558	7.972	7.429	6.824	6.435	5.924	5.358	5.256	4.774	4.635	4.138	3.866	3.458	3.324	3.670	4.142	3.411	2.500	2.132	1.962	1.978	1.670	1.649	1.720	1.641	1.398	1.215	0.999	1.124	1.410	1.921	7.327	36.90	118.0	203.1	117.6	13.47	0.797	0.498	0.488	0.481
575.0	53.72	55.22	48.34	41.39	36.84	36.21	39.97	59.39	116.3	72.37	62.00	75.99	273.0	941.5	245.5	20.62	18.67	16.52	14.77	13.69	13.02	13.21	11.94	11.15	11.74	10.93	10.76	10.71	10.68	10.42	10.58	9.897	8.991	8.802	8.098	7.464	6.835	6.455	5.911	5.310	5.018	4.899	4.263	4.205	3.914	3.651	3.328	3.192	2.974	2.591	2.466	2.944	3.382	2.710	2.020	1.817	1.562	1.536	1.340	1.450	1.412	1.458	1.181	0.987	0.982	1.006	1.099	2.228	8.928	26.86	53.96	153.8	172.0	19.08	0.683	0.502	0.463
580.0	50.13	53.69	45.00	38.16	35.18	33.01	34.64	45.59	100.6	97.84	63.01	64.53	104.4	632.2	590.0	28.75	15.56	13.92	12.29	11.71	10.99	11.02	10.20	9.742	9.582	9.328	9.181	8.782	8.794	8.899	8.710	8.711	7.498	7.466	6.532	6.231	5.616	5.577	4.900	4.863	4.442	4.072	3.832	3.509	3.431	3.092	2.865	2.698	2.553	2.423	1.987	2.238	2.655	2.623	2.172	1.580	1.455	1.289	1.264	1.156	1.197	1.297	1.413	0.932	0.913	0.835	0.887	1.121	2.654	6.465	12.68	49.94	187.3	128.4	10.70	0.548	0.470
585.0	52.16	55.30	49.36	35.69	31.68	29.06	33.52	40.07	76.26	116.2	68.91	65.46	65.06	264.7	813.7	80.22	13.25	12.05	10.51	9.965	9.563	8.994	8.839	8.062	8.751	7.963	8.266	7.754	7.473	7.956	7.449	7.367	6.440	6.517	5.707	5.140	4.971	4.581	4.354	4.176	3.891	3.490	3.288	2.978	3.046	2.787	2.524	2.375	2.261	1.931	1.754	1.777	1.989	2.540	2.344	1.550	1.331	1.167	1.137	0.977	1.092	1.146	1.254	1.069	0.881	0.839	0.728	0.816	1.165	2.059	3.365	11.75	69.67	174.4	95.45	5.776	0.472
590.0	53.15	57.48	46.27	33.58	30.82	25.42	30.52	34.96	54.61	110.5	88.11	66.74	57.28	90.08	521.3	394.8	22.34	9.557	8.868	8.341	7.879	7.131	7.334	6.860	6.998	6.695	6.665	6.362	6.293	6.254	6.277	5.858	5.272	5.403	4.516	4.434	3.978	3.873	3.680	3.363	3.208	3.014	2.654	2.601	2.501	2.320	2.148	2.018	1.925	1.685	1.416	1.438	1.544	1.860	2.080	1.765	1.312	1.108	1.037	0.909	0.923	0.923	1.010	1.220	1.213	0.856	0.745	0.711	0.841	1.035	1.267	3.085	16.32	58.71	133.4	95.53	12.18
595.0	52.95	60.88	48.66	32.33	27.00	24.13	25.94	32.89	43.78	83.72	111.9	73.41	56.66	44.37	158.6	571.2	84.00	8.483	7.267	6.941	6.185	5.911	5.610	5.445	5.400	5.156	5.536	5.273	5.101	5.274	5.133	4.403	4.282	4.004	3.803	3.356	3.189	3.191	2.771	2.855	2.679	2.409	2.134	1.972	2.025	1.912	1.711	1.612	1.556	1.315	1.260	1.123	1.285	1.224	1.804	1.726	1.396	1.046	0.943	0.814	0.779	0.729	0.767	0.933	1.226	1.072	0.827	0.731	0.715	0.744	0.757	1.106	4.060	13.47	34.78	105.6	97.18
600.0	51.29	56.32	48.00	31.06	23.33	23.93	25.69	29.86	41.33	69.26	118.6	80.61	55.40	35.59	51.44	396.5	340.5	12.11	6.356	6.028	5.752	5.287	4.909	4.883	4.681	4.660	4.730	4.229	4.299	4.401	4.002	3.922	3.769	3.329	3.120	2.911	2.714	2.789	2.612	2.357	2.273	2.071	1.856	1.773	1.913	1.551	1.576	1.415	1.466	1.140	1.153	1.064	1.050	1.020	1.274	1.377	1.414	1.128	0.870	0.780	0.724	0.727	0.750	0.757	0.972	1.230	0.946	0.701	0.711	0.790	0.588	0.590	1.286	3.347	8.126	32.63	97.05
605.0	48.96	54.41	45.05	29.24	22.69	21.43	25.06	29.30	41.29	58.90	105.0	93.31	55.31	33.42	24.04	165.5	526.8	43.57	5.940	5.343	4.752	4.776	4.268	4.541	4.001	3.903	3.650	3.687	3.591	3.470	3.659	3.551	3.078	3.027	2.727	2.594	2.514	2.337	2.131	2.007	1.897	1.663	1.638	1.621	1.642	1.422	1.385	1.307	1.239	1.057	0.978	0.957	0.909	0.901	0.916	1.124	1.355	1.094	0.796	0.771	0.695	0.657	0.653	0.696	0.719	1.043	1.142	0.705	0.710	0.712	0.551	0.560	0.654	1.125	2.197	7.705	33.99
610.0	52.97	58.68	43.80	29.00	22.57	20.28	23.25	28.40	38.19	52.00	85.88	104.0	59.60	33.20	19.13	50.19	376.9	237.0	11.12	4.387	3.933	3.962	3.515	3.597	3.184	3.297	3.008	3.321	2.985	2.966	2.906	2.868	2.470	2.504	2.279	2.137	2.043	1.901	1.751	1.637	1.523	1.509	1.463	1.283	1.412	1.189	1.202	1.142	1.052	0.953	0.863	0.818	0.760	0.817	0.732	0.848	1.042	1.176	0.869	0.666	0.669	0.662	0.589	0.684	0.704	0.839	0.933	0.871	0.685	0.600	0.543	0.516	0.552	0.606	0.865	2.055	8.022
615.0	47.85	55.18	42.14	26.46	20.33	20.45	20.52	27.37	36.23	49.48	66.67	99.89	68.91	31.09	16.98	19.97	118.3	380.7	58.91	4.054	3.222	3.218	3.011	2.601	2.689	2.839	2.504	2.629	2.309	2.543	2.278	2.437	2.150	1.840	1.803	1.767	1.624	1.685	1.296	1.356	1.301	1.273	1.156	1.050	1.065	1.068	0.998	0.970	0.872	0.825	0.786	0.777	0.644	0.680	0.608	0.601	0.817	0.913	0.940	0.753	0.665	0.543	0.603	0.608	0.728	0.697	0.758	0.933	0.850	0.657	0.545	0.430	0.457	0.482	0.535	0.774	2.156
620.0	46.30	50.97	41.53	26.44	19.45	18.61	19.20	24.62	34.67	48.99	58.73	83.81	77.26	32.10	16.09	13.07	35.41	287.3	227.5	4.821	2.971	3.091	2.648	2.310	2.468	2.201	2.127	2.154	2.000	2.194	1.790	1.973	1.786	1.659	1.565	1.454	1.566	1.378	1.227	1.229	1.062	1.050	1.032	0.889	0.967	0.970	0.860	0.978	0.794	0.682	0.643	0.630	0.630	0.605	0.577	0.562	0.720	0.719	0.737	0.768	0.650	0.579	0.596	0.566	0.579	0.580	0.655	0.709	0.881	0.721	0.538	0.429	0.392	0.448	0.453	0.485	0.782
625.0	40.06	45.60	41.65	27.28	16.25	18.37	19.31	22.05	31.80	44.90	56.74	69.73	81.72	34.17	16.14	11.22	15.56	129.9	377.6	20.77	2.876	2.788	2.413	2.144	2.271	2.002	1.864	1.983	1.786	1.855	1.704	1.650	1.786	1.417	1.381	1.262	1.218	1.186	1.119	1.055	0.947	0.938	0.977	0.859	0.740	0.874	0.759	0.785	0.733	0.604	0.544	0.575	0.520	0.577	0.495	0.511	0.586	0.561	0.757	0.703	0.657	0.564	0.554	0.509	0.503	0.524	0.552	0.593	0.744	0.741	0.557	0.500	0.338	0.386	0.450	0.455	0.476
630.0	38.95	48.74	35.34	24.27	17.75	18.16	19.43	22.71	29.44	41.33	50.36	56.41	71.03	41.17	16.44	10.71	9.975	37.30	287.5	139.0	4.538	2.329	1.911	1.948	1.752	1.682	1.638	1.638	1.634	1.553	1.463	1.337	1.407	1.205	1.178	1.099	0.971	1.025	0.925	0.984	0.873	0.848	0.766	0.756	0.686	0.718	0.685	0.660	0.556	0.542	0.507	0.501	0.465	0.495	0.460	0.424	0.477	0.472	0.557	0.635	0.695	0.581	0.560	0.495	0.475	0.516	0.525	0.568	0.624	0.637	0.682	0.552	0.353	0.341	0.374	0.387	0.401
635.0	40.89	43.63	38.33	24.15	15.66	15.98	17.07	21.05	27.91	36.32	45.46	48.78	50.58	50.64	18.77	10.09	8.553	12.72	92.57	283.7	33.52	2.201	1.666	1.651	1.464	1.419	1.441	1.308	1.289	1.313	1.174	1.185	1.280	0.916	0.995	0.927	0.894	0.888	0.813	0.778	0.672	0.736	0.728	0.674	0.581	0.616	0.555	0.518	0.521	0.519	0.428	0.432	0.436	0.358	0.376	0.400	0.467	0.401	0.493	0.561	0.574	0.557	0.565	0.500	0.426	0.508	0.494	0.539	0.577	0.532	0.569	0.556	0.439	0.383	0.385	0.402	0.349
640.0	38.68	40.44	37.68	21.87	15.85	16.26	15.77	21.88	25.33	33.97	40.58	44.80	41.76	48.70	22.28	9.808	8.610	7.084	26.01	237.3	116.5	2.931	1.503	1.445	1.489	1.242	1.204	1.140	1.255	1.232	1.115	1.108	1.007	0.829	0.970	0.899	0.778	0.759	0.768	0.672	0.723	0.675	0.592	0.611	0.575	0.609	0.517	0.487	0.438	0.411	0.360	0.449	0.449	0.379	0.352	0.380	0.408	0.408	0.393	0.455	0.537	0.503	0.482	0.439	0.494	0.509	0.535	0.480	0.472	0.495	0.486	0.597	0.451	0.421	0.391	0.389	0.314
645.0	43.40	44.34	37.03	23.44	17.05	15.12	15.80	21.62	23.89	32.83	39.45	40.86	35.63	42.21	29.44	10.48	8.724	5.872	9.127	115.7	216.6	11.38	1.576	1.228	1.257	1.248	1.136	1.028	1.231	0.997	0.991	0.897	0.935	0.718	0.757	0.796	0.723	0.686	0.651	0.616	0.608	0.632	0.564	0.493	0.567	0.535	0.498	0.500	0.451	0.346	0.328	0.350	0.365	0.414	0.373	0.407	0.413	0.384	0.362	0.389	0.418	0.481	0.581	0.473	0.450	0.452	0.469	0.369	0.410	0.432	0.461	0.528	0.520	0.398	0.343	0.345	0.356
650.0	41.24	44.72	33.61	22.14	14.90	14.08	15.67	18.77	22.61	30.60	37.10	38.12	33.56	33.42	35.17	12.53	8.826	5.679	5.194	37.06	227.9	49.10	1.549	1.177	1.204	1.196	1.118	1.045	0.963	0.961	0.865	0.844	0.804	0.779	0.720	0.757	0.613	0.542	0.685	0.562	0.492	0.493	0.542	0.501	0.483	0.507	0.468	0.446	0.471	0.373	0.320	0.393	0.368	0.364	0.368	0.348	0.374	0.376	0.348	0.354	0.407	0.392	0.525	0.439	0.418	0.431	0.401	0.438	0.425	0.450	0.432	0.401	0.460	0.573	0.362	0.340	0.348
