Sample:	'1
File name:	c2025052204ËúºÓ´óÇÅÄÏÇÅ.FD3
Run date:	'12:46:26, 05/23/2025
Operator:	Administrator
Comment:	'

Instrument
Model:	F-2700 FL Spectrophotometer
Serial number:	23B8-004
ROM Version:	4J14000 07

Instrument parameters
Measurement type:	3-D scan
Data mode:	Fluorescence
EX  Start WL:	220.0 nm
EX  End WL:	600.0 nm
EX Sampling interval:	5.0 nm
EM  Start WL:	230.0 nm
EM  End WL:	650.0 nm
EM Sampling interval:	5.0 nm
Scan speed:	12000 nm/min
EX Slit:	5.0 nm
EM Slit:	5.0 nm
PMT Voltage:	700 V
Response:	Auto 
Corrected spectra:	Off
Contour interval:	50.000

Peak integration
Integration method:	Rectangular
Sensitivity:	1
Threshold:	1.000

Peaks
No.	ApexEX/EM(nm)	Height(Data)
1	225.0/340.0	2411
2	225.0/580.0	105.1
3	230.0/345.0	2385
4	255.0/280.0	483.9
5	255.0/555.0	174.6
6	260.0/285.0	501.8
7	260.0/570.0	131.4
8	265.0/585.0	125.7
9	270.0/380.0	1430
10	270.0/600.0	107.9
11	275.0/305.0	1483
12	275.0/610.0	109.9
13	280.0/310.0	1542
14	280.0/335.0	1593
15	280.0/625.0	101.7
16	285.0/635.0	81.01
17	455.0/340.0	7.047
18	520.0/285.0	3.704
19	555.0/305.0	7.487
20	560.0/310.0	7.984
21	565.0/335.0	7.921
22	570.0/315.0	8.035
23	580.0/320.0	8.323
24	585.0/325.0	8.045

Data points
	220.0	225.0	230.0	235.0	240.0	245.0	250.0	255.0	260.0	265.0	270.0	275.0	280.0	285.0	290.0	295.0	300.0	305.0	310.0	315.0	320.0	325.0	330.0	335.0	340.0	345.0	350.0	355.0	360.0	365.0	370.0	375.0	380.0	385.0	390.0	395.0	400.0	405.0	410.0	415.0	420.0	425.0	430.0	435.0	440.0	445.0	450.0	455.0	460.0	465.0	470.0	475.0	480.0	485.0	490.0	495.0	500.0	505.0	510.0	515.0	520.0	525.0	530.0	535.0	540.0	545.0	550.0	555.0	560.0	565.0	570.0	575.0	580.0	585.0	590.0	595.0	600.0
230.0	93.75	1834	4376	1414	58.11	9.607	7.398	6.671	6.194	5.513	4.880	5.248	4.264	3.925	3.179	2.801	2.486	2.205	2.000	1.826	1.732	1.636	1.402	1.411	1.404	1.260	1.133	1.108	1.104	0.994	0.921	0.868	0.844	0.786	0.710	0.708	0.698	0.618	0.593	0.569	0.675	0.793	0.777	0.603	0.530	0.530	2.500	10.43	15.97	10.95	3.746	0.839	0.415	0.430	0.380	0.371	0.352	0.393	0.321	0.362	0.323	0.337	0.361	0.337	0.329	0.334	0.347	0.328	0.313	0.352	0.324	0.310	0.304	0.344	0.346	0.336	0.315
235.0	143.2	498.5	2582	4207	627.6	91.04	8.836	6.584	7.055	5.796	6.046	6.133	4.268	4.271	3.163	2.960	2.771	2.222	2.115	1.810	1.854	1.629	1.472	1.395	1.324	1.227	1.129	1.186	1.107	0.966	0.942	0.900	0.890	0.887	0.762	0.764	0.682	0.715	0.605	0.551	0.558	0.670	0.739	0.949	0.675	0.542	0.905	2.833	6.410	10.71	13.99	14.68	6.720	1.575	0.448	0.393	0.356	0.368	0.347	0.341	0.344	0.351	0.324	0.371	0.316	0.355	0.330	0.351	0.309	0.321	0.299	0.322	0.342	0.311	0.302	0.349	0.338
240.0	178.4	206.2	744.8	3358	4392	513.3	50.44	8.329	7.817	7.498	6.170	6.022	4.092	4.045	3.301	2.892	2.829	2.402	2.154	1.985	1.634	1.659	1.569	1.435	1.527	1.272	1.268	1.055	0.992	0.959	0.988	1.042	0.837	0.804	0.673	0.676	0.733	0.663	0.675	0.689	0.539	0.528	0.575	0.642	0.760	0.833	0.759	0.992	1.795	3.213	7.611	18.42	23.45	15.81	5.490	0.945	0.463	0.458	0.437	0.412	0.363	0.403	0.282	0.399	0.305	0.338	0.342	0.346	0.306	0.342	0.335	0.323	0.337	0.307	0.319	0.361	0.390
245.0	129.2	209.5	239.5	1084	4592	3901	399.0	21.10	8.871	7.504	6.997	6.867	5.159	4.893	3.635	3.150	2.824	2.580	2.443	2.160	1.935	1.677	1.604	1.421	1.400	1.225	1.104	1.155	0.969	0.975	0.971	0.913	0.867	0.827	0.632	0.649	0.719	0.688	0.652	0.617	0.515	0.524	0.585	0.545	0.586	0.890	1.020	0.858	0.825	0.991	2.097	6.192	15.66	26.24	25.85	14.09	3.966	0.648	0.484	0.390	0.374	0.379	0.331	0.380	0.313	0.370	0.359	0.437	0.296	0.333	0.334	0.335	0.407	0.365	0.338	0.303	0.340
250.0	65.42	142.8	230.4	329.8	1412	4115	5168	1487	105.8	11.18	9.002	7.255	6.652	5.282	4.326	3.374	3.005	2.668	2.485	2.075	1.942	1.780	1.585	1.549	1.405	1.404	1.317	1.144	1.042	0.962	1.023	0.816	0.859	0.831	0.721	0.701	0.692	0.730	0.689	0.627	0.626	0.538	0.559	0.526	0.519	0.572	0.704	0.817	0.998	0.919	0.949	1.721	3.980	8.462	15.68	23.91	29.94	28.25	13.40	4.378	0.633	0.427	0.375	0.390	0.412	0.346	0.394	0.417	0.371	0.350	0.383	0.414	0.364	0.344	0.340	0.298	0.368
255.0	46.92	61.22	155.0	272.4	400.0	1022	3970	9112	2130	133.6	13.40	10.90	8.313	6.639	4.805	3.982	3.671	2.858	2.852	2.338	2.102	1.881	1.581	1.656	1.475	1.546	1.322	1.159	1.253	1.012	0.928	1.036	0.836	0.853	0.838	0.671	0.673	0.693	0.633	0.574	0.697	0.605	0.569	0.551	0.519	0.499	0.608	0.588	0.669	0.853	1.135	1.463	1.433	2.253	3.870	5.926	11.28	27.41	50.48	31.27	21.02	5.165	0.605	0.470	0.485	0.384	0.411	0.431	0.387	0.381	0.421	0.329	0.430	0.355	0.424	0.343	0.412
260.0	47.91	40.34	66.98	212.3	289.1	284.5	1148	6855	9999.9	1708	78.98	13.68	9.933	8.239	5.383	4.918	3.717	3.094	3.056	2.364	2.402	1.917	1.716	1.709	1.989	1.788	1.461	1.129	1.283	1.255	1.074	1.142	0.933	0.908	0.846	0.807	0.780	0.692	0.711	0.643	0.674	0.600	0.577	0.647	0.536	0.573	0.530	0.503	0.457	0.567	0.796	1.590	1.701	1.249	1.329	1.723	3.037	7.540	21.32	43.71	68.82	30.83	17.03	2.658	0.544	0.471	0.455	0.429	0.391	0.422	0.347	0.344	0.385	0.374	0.413	0.393	0.458
265.0	51.71	40.02	37.75	99.82	287.8	230.4	297.6	2158	9992	9999.9	1276	36.75	12.40	9.638	6.963	5.442	4.020	3.270	3.352	2.841	2.415	2.352	1.716	1.728	1.659	1.746	1.445	1.235	1.299	1.302	1.182	1.128	0.979	0.903	0.903	0.786	0.754	0.682	0.704	0.575	0.644	0.589	0.629	0.571	0.569	0.601	0.510	0.595	0.482	0.515	0.525	0.871	1.451	1.755	1.528	0.914	1.109	2.134	5.312	13.23	36.90	65.34	82.79	28.42	11.51	1.104	0.537	0.556	0.451	0.494	0.394	0.383	0.366	0.406	0.425	0.404	0.409
270.0	76.67	55.10	41.49	50.92	134.6	289.7	265.7	542.3	2968	9309	9999.9	4578	82.04	15.61	10.54	7.466	5.434	4.187	3.380	3.248	2.647	2.546	2.177	2.098	1.779	1.739	1.530	1.530	1.292	1.339	1.284	1.186	1.085	0.995	0.940	0.894	0.834	0.748	0.748	0.731	0.678	0.689	0.669	0.673	0.682	0.670	0.619	0.580	0.579	0.517	0.486	0.575	0.795	1.083	1.568	1.903	1.847	1.358	1.701	3.470	8.952	18.70	38.74	57.59	77.57	66.14	19.20	9.470	1.439	0.552	0.480	0.435	0.470	0.487	0.447	0.452	0.472
275.0	145.6	112.1	80.64	57.72	62.48	134.2	364.1	372.1	722.5	2229	6996	9999.9	6571	100.7	16.43	10.55	7.139	5.903	4.695	3.997	3.176	2.824	2.565	2.495	1.991	2.006	1.660	1.612	1.429	1.339	1.261	1.304	1.225	1.301	1.043	1.016	1.028	1.009	0.973	0.803	0.770	0.915	0.836	0.867	0.890	0.847	0.771	0.715	0.658	0.580	0.540	0.549	0.615	0.677	0.818	1.074	1.840	2.525	2.154	1.630	2.631	4.648	9.224	13.63	22.20	45.21	93.46	119.0	30.27	13.05	1.089	0.583	0.638	0.521	0.504	0.444	0.482
280.0	245.6	208.9	146.9	79.48	56.81	74.06	221.4	483.9	343.3	584.2	1896	9999.9	9999.9	1134	66.31	14.16	10.50	8.274	5.569	4.371	3.641	2.955	2.864	2.224	2.123	1.946	1.905	1.624	1.614	1.492	1.424	1.420	1.380	1.222	1.148	1.163	1.199	1.161	1.122	0.991	1.054	0.964	1.077	0.973	1.071	1.122	1.007	0.963	0.776	0.646	0.635	0.643	0.664	0.646	0.716	0.770	1.047	1.803	2.818	2.809	1.955	1.820	2.639	3.813	5.807	11.41	30.89	77.09	119.7	119.4	25.86	8.040	0.836	0.527	0.612	0.513	0.618
285.0	379.7	328.3	223.3	124.4	73.84	68.12	124.6	366.0	501.8	298.4	564.2	2899	9999.9	9999.9	853.5	34.48	13.64	9.091	6.908	5.745	4.339	3.781	3.477	2.671	2.500	2.050	2.243	2.064	1.856	1.505	1.663	1.587	1.269	1.298	1.188	1.213	1.362	1.474	1.424	1.489	1.283	1.216	1.172	1.393	1.332	1.342	1.200	1.199	1.052	0.907	0.738	0.774	0.768	0.585	0.730	0.658	0.797	1.053	1.601	2.717	3.704	2.678	1.692	1.832	2.233	3.516	7.953	19.37	44.95	100.2	136.5	106.9	21.30	3.568	0.776	0.573	0.679
290.0	564.6	523.6	388.6	226.0	129.8	109.1	124.0	212.8	474.2	588.3	434.9	896.9	3017	9999.9	9999.9	3232	54.67	14.26	9.406	7.009	5.327	4.208	3.693	3.064	3.013	2.626	2.281	2.028	1.985	1.791	1.704	1.646	1.346	1.435	1.378	1.482	1.784	1.912	1.759	1.776	1.697	1.545	1.433	1.646	1.657	1.740	1.668	1.760	1.478	1.268	1.006	0.976	0.897	0.830	0.882	0.869	0.870	1.036	1.235	1.545	2.364	3.122	3.417	3.283	2.347	2.274	3.202	5.737	11.45	25.50	47.66	80.13	100.3	80.38	72.65	14.97	4.962
295.0	771.4	721.4	574.7	345.0	207.4	172.2	180.8	224.7	341.3	640.4	871.7	656.5	1031	2520	6195	9999.9	4838	65.61	14.69	9.949	6.919	5.450	4.228	3.822	3.128	2.966	2.668	2.353	2.105	1.863	1.724	1.761	1.637	1.510	1.564	1.687	1.950	2.075	2.243	2.092	2.026	1.958	1.833	1.937	1.949	2.004	1.993	2.209	2.012	1.650	1.323	1.373	1.185	1.152	1.173	1.045	1.141	1.239	1.393	1.487	1.757	2.098	2.436	4.307	5.087	4.051	3.002	3.542	4.676	7.424	12.30	19.34	25.00	35.34	91.91	145.2	117.9
300.0	872.6	877.6	718.2	449.3	282.8	237.6	252.4	301.3	402.3	595.2	1070	1003	760.3	942.8	1753	9048	9999.9	694.4	44.37	13.82	8.485	6.534	5.182	4.645	3.672	3.312	2.948	2.391	2.266	2.162	2.008	1.924	1.640	1.580	1.704	1.782	2.404	2.474	2.441	2.242	2.273	2.218	2.180	2.209	2.375	2.341	2.548	2.607	2.440	2.002	1.637	1.595	1.584	1.281	1.410	1.218	1.542	1.565	1.709	1.858	1.945	2.332	2.433	3.235	4.943	5.931	5.792	4.495	4.223	4.209	5.222	6.631	7.669	9.654	25.37	64.15	129.1
305.0	1019	1036	865.7	569.0	376.8	310.4	348.3	414.2	561.9	753.8	1075	1483	1065	791.1	788.7	2616	9999.9	9999.9	556.8	25.52	11.53	8.191	6.012	4.967	4.106	3.607	3.196	2.736	2.673	2.315	2.142	1.947	1.717	1.567	1.632	1.867	2.374	2.841	2.493	2.635	2.568	2.642	2.576	2.451	2.602	2.802	2.867	2.943	2.703	2.346	2.168	1.944	1.774	1.631	1.687	1.637	1.990	1.886	2.156	2.570	2.729	3.109	3.298	3.976	4.536	5.815	7.085	7.487	6.200	5.098	4.899	4.556	4.568	4.580	7.750	16.38	38.07
310.0	1187	1236	1008	683.0	465.9	409.4	460.4	560.3	702.9	909.4	1149	1468	1542	1074	735.3	932.8	2927	9999.9	9999.9	2272	39.41	12.53	8.469	6.647	5.024	4.051	3.630	2.992	2.847	2.571	2.261	2.008	1.897	1.719	1.760	1.942	2.519	2.864	2.699	2.975	2.817	2.858	2.740	2.770	3.052	3.153	3.149	3.418	3.203	2.797	2.430	2.223	2.240	1.951	1.955	2.045	2.364	2.591	2.723	3.218	3.384	3.798	4.165	4.683	5.185	5.874	6.565	7.289	7.984	7.811	6.812	5.552	4.567	4.193	4.535	5.870	10.49
315.0	1322	1401	1193	805.6	557.4	489.6	536.8	666.8	817.2	1026	1260	1456	1538	1498	933.7	641.7	956.6	2455	5980	9999.9	3553	45.60	12.14	8.827	5.998	4.918	3.940	3.614	3.033	2.937	2.530	2.202	2.053	1.725	1.888	2.059	2.475	2.811	2.798	3.046	2.928	2.864	3.144	2.994	3.283	3.462	3.602	3.958	3.866	3.164	2.573	2.567	2.574	2.196	2.220	2.436	2.687	2.829	3.235	3.624	3.778	4.243	4.578	5.166	5.789	6.179	6.584	6.922	7.443	7.835	8.035	7.633	6.399	5.250	4.336	3.990	4.519
320.0	1484	1642	1379	923.3	633.3	555.5	603.0	735.9	880.1	1101	1336	1510	1529	1510	1182	679.1	562.4	772.6	1549	8432	9999.9	519.1	30.83	12.01	8.015	6.310	4.502	3.885	3.288	3.106	2.773	2.304	1.954	1.836	1.835	2.037	2.500	2.757	2.779	3.284	3.253	3.155	3.362	3.180	3.457	4.166	4.037	4.708	4.688	3.546	3.087	2.966	2.667	2.648	2.503	2.729	2.912	3.231	3.529	3.837	4.436	4.454	5.081	5.476	6.106	6.633	6.940	7.008	7.392	7.421	7.212	7.713	8.323	7.540	5.009	3.967	3.552
325.0	1768	1919	1701	1150	721.3	601.7	650.7	788.3	930.5	1152	1382	1561	1557	1422	1343	863.6	522.2	424.8	474.2	2310	9999.9	9999.9	431.7	19.17	10.55	7.452	5.199	4.332	4.084	3.558	3.043	2.648	2.205	2.018	2.092	2.225	2.412	2.834	3.020	3.169	3.227	3.060	3.499	3.748	4.084	4.710	4.818	5.298	5.371	4.644	3.489	3.316	2.939	2.834	2.619	2.765	3.091	3.214	3.552	4.097	4.446	4.590	5.311	5.728	6.194	6.774	7.034	7.421	7.485	7.666	7.262	6.953	7.419	8.045	6.728	5.133	3.883
330.0	1909	2162	2062	1446	925.0	692.4	704.2	821.9	967.1	1180	1425	1574	1591	1433	1249	1023	686.3	402.1	278.4	629.0	2775	9326	9999.9	1819	30.94	11.28	7.446	5.566	4.664	4.212	3.447	3.003	2.544	2.259	2.173	2.127	2.499	2.776	2.963	3.028	3.196	3.402	3.811	4.015	4.414	5.091	5.450	6.232	6.000	5.583	4.390	4.319	3.756	3.311	3.058	2.929	3.305	3.387	3.964	4.209	4.394	4.721	5.432	6.148	6.213	6.723	7.327	7.414	7.575	7.564	7.606	6.991	7.042	6.959	6.511	6.284	5.470
335.0	1969	2332	2268	1663	1086	813.0	764.9	864.1	996.9	1204	1415	1575	1593	1455	1216	948.8	861.4	548.0	295.7	297.6	727.3	2193	6197	9999.9	2915	38.10	10.32	7.516	6.053	4.666	4.095	3.189	2.830	2.425	2.339	2.342	2.656	2.657	3.038	3.195	3.326	3.424	3.548	3.989	4.298	5.508	5.600	6.619	6.611	5.800	4.951	5.063	4.411	3.635	3.624	3.101	3.598	3.568	3.936	4.328	4.619	4.755	5.583	6.039	6.333	6.901	7.286	7.235	7.392	7.921	7.794	7.170	6.976	6.540	6.299	5.522	5.746
340.0	1948	2411	2359	1803	1216	894.6	815.1	883.8	1027	1213	1411	1553	1575	1446	1207	928.4	811.3	708.6	373.0	260.9	299.4	591.2	1598	8714	9999.9	436.7	24.97	10.29	7.249	5.736	4.424	3.540	3.020	2.555	2.350	2.250	2.584	2.621	2.926	3.260	3.221	3.330	3.843	4.198	4.554	5.590	5.849	7.047	6.954	6.212	5.180	5.423	4.887	4.314	3.906	3.533	3.725	3.898	4.184	4.356	4.783	5.147	5.676	6.048	6.183	6.587	6.984	7.209	7.314	7.916	7.410	7.072	6.942	6.936	6.211	5.514	5.300
345.0	1937	2360	2385	1879	1315	977.4	860.3	925.7	1043	1210	1390	1514	1536	1420	1200	934.5	755.1	715.7	521.1	301.5	238.0	261.2	449.8	2441	9999.9	9999.9	370.1	15.69	8.708	6.518	5.032	3.844	3.627	2.815	2.419	1.999	2.653	2.787	2.882	3.209	3.180	3.654	3.693	4.179	4.339	5.098	5.778	6.853	6.941	6.460	5.498	5.660	5.071	4.362	4.215	4.052	3.895	3.950	4.063	4.248	4.769	5.158	5.330	5.982	6.179	6.622	6.747	7.097	7.016	7.654	7.603	7.209	6.784	6.686	5.957	5.568	5.103
350.0	1837	2226	2291	1885	1405	1110	974.5	994.7	1086	1227	1372	1455	1462	1368	1181	955.4	767.8	658.3	610.1	471.2	302.0	245.4	245.7	648.9	2893	9090	9999.9	1568	27.46	9.350	6.476	5.014	3.825	3.204	2.681	2.321	2.674	2.718	2.777	2.895	3.232	3.287	3.539	3.895	4.423	4.792	5.401	6.732	6.659	6.245	5.643	5.730	5.456	5.033	4.496	4.323	4.537	4.440	4.620	4.709	4.912	5.327	5.552	6.007	6.456	6.589	6.420	6.756	7.095	7.156	7.140	6.969	6.848	6.623	5.989	5.700	5.136
355.0	1733	2065	2178	1858	1514	1257	1101	1106	1179	1276	1380	1436	1421	1337	1190	978.4	820.3	685.2	597.7	598.0	459.7	314.6	256.9	298.9	757.1	2157	6320	9999.9	2494	31.41	8.810	6.485	4.675	3.521	2.950	2.464	2.766	2.778	2.854	3.231	3.097	2.992	3.440	3.788	4.210	4.765	5.369	5.985	6.241	6.050	5.435	5.988	5.947	5.374	5.006	4.683	5.023	4.827	5.200	5.320	4.989	5.415	5.762	5.812	6.712	6.369	6.667	6.465	6.724	6.453	6.848	6.633	6.764	6.606	6.120	5.709	5.418
360.0	1693	1969	2099	1841	1549	1318	1203	1191	1244	1325	1390	1444	1395	1316	1183	1000	859.0	729.8	627.9	598.2	591.7	405.5	302.7	259.5	313.6	587.9	1674	8688	9999.9	399.9	20.97	8.525	5.654	4.262	3.325	2.547	2.899	2.892	2.865	2.783	3.115	2.963	3.491	3.906	4.005	4.763	5.197	5.859	5.985	5.707	5.382	5.874	6.283	5.344	5.457	4.929	5.214	5.402	5.690	5.557	5.445	5.717	6.069	6.395	6.511	6.344	6.922	6.655	6.740	6.932	6.703	6.676	6.919	6.470	6.202	5.915	5.556
365.0	1662	1881	2004	1816	1592	1406	1266	1239	1292	1357	1400	1407	1375	1297	1172	1014	888.8	777.6	674.2	605.9	610.1	535.9	374.7	291.0	247.9	263.4	470.6	2537	9999.9	9999.9	325.7	13.02	7.398	4.951	4.073	2.903	2.986	2.937	3.178	3.095	2.841	3.263	3.493	3.708	4.063	4.837	4.837	5.687	5.740	5.702	5.143	5.952	6.182	5.706	5.890	5.226	5.678	5.607	5.551	5.302	5.784	6.125	6.461	6.492	6.377	6.560	6.545	6.709	6.545	6.711	6.408	6.758	6.712	6.489	6.311	6.068	6.106
370.0	1590	1819	1893	1787	1623	1470	1348	1301	1335	1386	1411	1406	1355	1270	1172	1031	930.5	831.7	737.4	661.9	617.5	606.6	515.5	373.0	285.8	239.7	237.3	658.3	2965	9152	9999.9	1396	23.33	7.653	4.961	3.629	3.436	3.347	3.207	3.347	3.073	3.297	3.516	3.635	4.029	4.576	4.498	5.283	5.488	5.291	4.922	5.767	6.128	5.855	5.754	5.506	5.764	5.814	5.851	5.919	6.083	6.207	6.388	6.523	6.554	6.503	6.592	6.613	6.352	6.565	6.593	6.468	6.583	6.413	6.431	6.202	5.912
375.0	1551	1728	1857	1737	1639	1513	1430	1363	1393	1406	1422	1396	1336	1261	1160	1046	963.6	875.1	797.9	727.3	663.1	612.2	609.8	509.6	362.6	286.7	234.0	275.8	747.1	2168	6683	9999.9	2113	26.60	7.172	4.930	4.050	3.651	3.507	3.523	3.304	3.445	3.422	3.562	4.034	4.461	4.561	5.218	5.267	5.184	5.054	5.711	6.049	5.955	5.862	5.702	6.264	5.684	6.238	6.245	5.789	6.246	6.495	6.656	6.696	6.497	6.730	6.341	6.544	6.658	6.191	6.396	6.466	6.100	6.279	6.130	6.135
380.0	1497	1698	1778	1693	1644	1545	1453	1403	1406	1418	1430	1391	1336	1253	1164	1051	978.4	911.4	837.9	772.8	700.6	640.3	613.5	605.3	447.9	335.0	268.0	222.9	278.2	560.5	1780	8569	9999.9	333.9	16.57	6.375	5.130	4.114	3.776	3.651	3.673	3.385	3.616	3.731	3.978	4.229	4.558	4.986	5.053	4.895	4.776	5.557	6.116	6.110	6.481	6.030	6.714	6.137	6.015	6.435	6.291	6.291	6.701	6.452	6.858	6.572	6.576	6.680	6.445	6.551	6.410	6.428	6.811	6.514	6.229	6.253	6.275
385.0	1511	1649	1728	1679	1626	1531	1470	1410	1415	1415	1413	1385	1326	1243	1156	1053	988.2	928.3	867.2	799.3	731.8	675.1	622.0	611.9	542.7	393.3	307.1	240.0	197.7	222.6	471.4	2524	9999.9	8473	261.2	10.28	6.334	4.747	4.135	3.772	3.853	3.804	3.915	3.835	3.935	4.259	4.274	4.864	5.034	4.677	4.538	5.708	6.313	6.023	6.318	6.056	6.349	6.617	6.211	6.291	6.283	6.321	6.817	6.666	6.866	6.512	6.597	6.339	6.467	6.550	6.097	6.146	6.266	6.318	6.197	6.364	6.220
390.0	1481	1618	1687	1644	1611	1529	1477	1424	1415	1407	1387	1358	1302	1227	1141	1056	994.3	941.6	887.3	828.3	770.0	715.0	656.9	612.7	581.6	499.7	377.5	287.2	222.4	184.7	205.2	635.4	2870	7444	6034	1109	19.47	7.210	5.456	4.505	4.033	3.818	3.882	3.853	4.110	4.382	4.380	4.929	5.027	4.742	4.593	5.521	6.039	6.008	6.344	5.881	6.353	6.415	6.219	6.341	6.290	6.478	6.509	6.574	6.654	6.380	6.375	6.457	6.375	6.345	6.252	6.215	6.352	6.341	6.453	6.442	6.330
395.0	1440	1597	1617	1608	1570	1528	1477	1430	1414	1395	1391	1355	1290	1216	1131	1053	997.9	947.4	907.7	858.8	805.7	753.7	699.2	648.4	592.5	563.3	488.1	360.4	282.0	226.0	189.1	244.9	709.4	1768	4723	9313	1757	24.28	7.740	5.567	4.680	4.213	4.110	4.134	4.139	4.657	4.276	4.949	5.006	4.537	4.646	5.575	6.191	6.239	6.445	5.924	6.659	6.383	6.284	6.425	6.385	6.512	6.465	6.496	6.360	6.073	6.417	6.303	6.401	6.135	6.156	6.156	6.174	6.289	6.125	5.984	6.208
400.0	1466	1570	1616	1591	1573	1526	1479	1439	1428	1395	1390	1351	1293	1212	1130	1055	1004	958.9	916.9	870.4	828.2	775.1	736.0	680.6	623.6	580.9	562.9	449.9	343.6	277.4	223.2	192.4	255.5	463.1	1281	6746	8340	288.3	16.09	6.598	5.439	4.790	4.511	4.374	4.188	4.566	4.124	5.035	4.860	4.538	4.481	5.258	6.047	6.186	6.246	5.886	6.283	6.384	6.442	6.441	6.342	6.609	6.416	6.650	6.166	6.262	6.290	6.151	6.277	6.209	6.242	6.018	6.003	6.226	6.245	6.166	6.340
405.0	1437	1574	1583	1567	1551	1507	1463	1447	1425	1408	1403	1359	1304	1224	1134	1058	1003	958.0	925.8	885.2	842.3	797.9	762.8	716.0	660.3	609.8	589.8	542.8	413.7	336.3	273.3	216.8	183.4	194.6	354.3	1948	7611	6536	236.9	10.32	6.006	5.514	4.760	4.467	4.150	4.635	4.258	4.931	4.813	4.802	4.610	5.514	5.836	6.029	6.054	6.054	6.226	6.288	6.595	6.415	6.448	6.570	6.360	6.546	6.456	6.147	6.522	6.168	6.063	6.066	6.264	5.999	5.941	6.222	6.186	5.982	6.269
410.0	1452	1512	1545	1528	1506	1487	1442	1436	1425	1393	1388	1357	1285	1209	1118	1044	985.0	941.6	917.9	880.4	846.3	814.6	778.5	745.9	698.2	646.7	605.0	578.2	508.6	411.6	333.4	263.1	202.4	164.2	168.8	502.1	2150	5547	4705	1035	18.28	6.498	5.480	4.942	4.534	4.604	4.405	4.656	4.864	4.613	4.553	5.384	5.951	5.964	5.827	5.949	6.286	6.433	6.409	6.484	6.334	6.825	6.540	6.433	6.490	6.065	6.379	6.268	6.042	5.979	6.248	6.015	6.061	6.124	6.099	6.117	6.174
415.0	1386	1487	1505	1467	1442	1432	1409	1388	1407	1390	1357	1309	1250	1168	1082	1004	949.0	917.9	888.9	858.3	829.6	800.6	780.1	745.3	708.8	661.4	612.6	567.4	539.7	484.7	378.2	292.7	226.0	172.9	141.5	187.8	531.2	1313	3423	7001	1574	21.89	6.675	5.304	5.045	4.494	4.523	4.662	4.720	4.345	4.144	5.258	5.849	5.689	5.822	5.744	6.279	6.073	6.355	5.945	6.173	6.520	6.389	6.100	6.524	6.334	6.232	5.875	6.066	6.065	5.939	5.694	5.719	6.096	5.799	6.246	6.008
420.0	1345	1464	1418	1405	1403	1379	1376	1377	1372	1358	1327	1262	1208	1125	1048	965.4	918.3	884.0	857.1	826.4	801.3	779.9	760.8	736.2	701.8	659.6	614.3	565.7	526.9	508.4	417.9	313.6	240.2	181.9	139.0	122.4	175.1	330.0	897.1	4738	6472	268.9	15.79	6.491	5.456	4.940	4.482	4.854	4.540	4.454	4.238	5.164	5.517	5.629	6.084	5.598	6.140	6.094	6.049	5.919	6.334	6.412	6.255	5.987	6.402	6.210	5.674	5.715	5.855	5.669	5.607	5.643	5.392	5.739	5.399	5.696	5.442
425.0	1338	1405	1388	1367	1370	1347	1349	1328	1346	1324	1294	1230	1171	1082	1013	929.5	875.3	851.6	831.2	807.0	783.4	763.0	742.4	721.3	692.1	654.4	611.8	567.0	519.4	495.4	448.6	338.7	252.7	193.6	148.5	115.8	101.4	113.2	227.6	1315	5401	5256	230.8	9.815	5.962	5.271	4.838	4.523	4.585	4.015	4.211	5.097	5.238	5.452	5.496	5.511	5.842	5.881	6.172	5.909	6.058	6.307	6.152	5.966	6.279	6.095	5.530	5.599	5.491	5.251	5.597	5.392	5.401	5.567	5.465	5.403	5.251
430.0	1709	1321	1328	1322	1312	1307	1303	1297	1298	1289	1266	1210	1136	1048	968.2	893.2	842.6	811.0	788.9	765.7	752.2	736.8	721.0	706.8	681.9	651.0	612.0	573.9	527.5	489.1	452.8	385.7	285.9	215.4	165.8	128.7	96.90	75.87	85.09	317.5	1452	3955	3773	986.8	18.41	6.298	5.288	4.867	4.779	4.180	4.077	4.870	5.094	5.239	5.407	5.515	5.703	5.980	5.909	5.984	5.980	6.089	6.047	5.904	5.818	5.648	5.589	5.411	5.286	5.315	5.192	5.112	5.302	5.285	5.485	5.317	5.196
435.0	2740	1342	1295	1249	1243	1257	1274	1277	1275	1260	1239	1170	1096	1006	935.4	853.0	802.3	767.7	746.7	728.8	722.0	710.3	698.1	684.3	665.0	639.4	611.3	574.3	538.8	491.0	445.7	400.4	328.8	240.9	188.4	145.8	108.7	79.44	61.93	101.5	345.7	915.9	2342	5814	1624	23.85	6.423	5.381	4.895	4.410	4.025	4.970	5.307	5.118	5.286	5.207	5.841	5.920	5.743	5.775	5.591	6.014	5.671	5.762	5.557	5.462	5.418	5.060	5.153	5.351	5.139	4.902	4.910	5.064	5.023	5.162	5.020
440.0	3719	1682	1220	1200	1201	1193	1210	1237	1253	1232	1207	1155	1063	980.6	897.1	816.8	770.9	735.4	714.9	698.6	689.7	679.6	674.0	660.4	644.6	626.2	599.1	565.5	532.2	491.5	440.2	389.0	342.7	267.8	200.3	156.0	119.0	84.68	62.85	58.17	103.5	225.5	594.1	3556	5896	1288	16.92	6.319	5.366	4.879	4.191	4.882	5.020	4.988	5.201	5.059	5.516	6.015	5.692	5.560	5.657	5.826	5.907	5.665	5.502	5.389	5.252	5.181	5.080	5.271	4.950	4.907	4.913	5.015	4.778	5.058	4.903
445.0	3634	2518	1193	1163	1150	1152	1172	1195	1209	1200	1160	1107	1023	946.3	857.3	775.5	730.7	707.1	686.4	666.3	655.6	646.9	646.6	635.2	619.5	600.8	574.9	544.2	516.6	478.9	430.7	374.0	327.4	283.2	212.2	161.5	125.2	90.77	68.41	54.45	54.43	74.35	152.2	945.4	4360	5354	216.1	12.97	5.735	4.695	4.373	4.631	4.664	4.819	4.997	4.784	5.375	5.428	5.472	5.650	5.751	5.830	5.705	5.825	5.502	5.183	5.012	5.033	4.885	4.793	4.630	4.748	4.753	4.805	4.567	4.772	4.791
450.0	2278	3707	1587	1082	1078	1087	1117	1128	1148	1134	1089	1042	950.7	874.0	793.7	715.6	675.0	651.7	630.5	616.9	608.4	598.5	591.9	587.2	573.1	558.2	536.7	512.7	486.7	456.8	411.5	359.5	307.2	267.9	229.7	174.4	131.4	97.77	75.48	59.15	48.41	45.59	56.40	228.9	1129	3357	4431	994.3	17.33	5.624	4.523	4.893	4.796	4.549	4.836	4.648	5.342	5.336	5.178	5.381	5.503	5.158	5.481	5.380	5.196	4.809	4.846	4.844	4.582	4.638	4.387	4.474	4.324	4.346	4.278	4.476	4.268
455.0	1247	3243	2981	1070	994.0	994.9	1031	1067	1057	1051	1023	966.7	891.1	810.8	729.4	656.1	618.7	587.6	573.5	562.9	556.9	546.8	538.9	531.9	525.1	512.9	493.5	472.1	455.4	426.7	391.2	341.4	290.4	248.3	222.8	191.2	141.8	104.1	83.15	65.29	53.35	43.97	39.76	71.87	268.5	768.8	1898	4729	1502	20.69	5.544	5.171	4.757	4.647	4.599	4.572	4.855	4.991	4.913	5.025	5.168	4.873	5.236	4.955	5.016	4.735	4.691	4.428	4.284	4.316	4.203	4.320	4.199	3.971	3.935	3.981	3.888
460.0	935.0	2086	3961	1413	931.7	944.2	970.1	1003	998.5	995.0	972.7	911.1	828.1	753.6	676.6	615.8	570.8	541.7	532.8	517.5	510.6	503.4	500.2	494.5	487.5	475.1	459.5	446.8	425.8	403.4	369.4	327.7	282.2	237.8	208.3	190.8	154.2	111.1	87.28	70.89	56.24	46.84	38.90	39.39	79.38	187.1	455.8	2396	4746	1174	16.58	5.835	4.997	4.541	4.457	4.482	4.851	4.631	4.816	5.030	4.802	4.752	4.606	4.716	4.738	4.318	4.124	4.098	4.162	3.946	3.888	4.061	3.676	3.946	3.679	3.950	3.741
465.0	862.1	1250	3727	2383	885.6	891.5	908.5	932.8	949.4	935.9	901.8	862.4	773.2	698.8	626.5	566.9	527.8	508.1	491.3	479.3	474.4	467.1	459.1	457.0	453.3	440.4	428.2	413.4	399.0	382.1	352.1	310.7	269.0	231.5	197.7	179.7	157.8	122.0	91.30	73.99	60.30	49.74	40.78	34.60	38.72	58.60	115.9	596.1	2963	4200	894.7	14.99	5.701	4.935	4.712	4.420	4.711	4.648	4.688	4.650	4.662	4.597	4.546	4.537	4.394	4.287	3.966	3.929	3.983	3.825	3.755	3.737	3.590	3.647	3.577	3.650	3.556
470.0	799.8	865.8	2132	3632	1348	804.8	814.6	851.5	867.6	857.3	827.4	785.7	707.3	634.8	567.5	511.6	474.6	453.5	441.3	430.3	417.2	415.1	410.9	406.9	401.9	393.7	385.3	372.9	361.7	348.4	322.8	288.3	250.0	214.5	186.2	163.5	145.7	128.1	99.08	76.30	62.88	52.79	43.24	36.10	31.77	32.56	41.53	145.8	733.2	2189	3175	1511	19.02	5.691	4.613	4.402	4.436	4.231	4.567	4.344	4.353	4.245	4.329	4.058	3.981	4.030	3.717	3.859	3.691	3.508	3.430	3.375	3.234	3.210	3.338	3.424	3.387
475.0	702.2	726.1	1056	2964	2802	790.6	734.3	763.2	778.9	769.5	761.0	703.4	635.1	566.7	510.2	457.1	422.3	401.6	386.7	374.7	367.3	361.8	360.8	355.2	350.9	347.2	341.9	333.1	322.2	309.5	291.7	261.7	230.1	199.1	175.0	150.7	131.5	119.4	105.0	82.27	65.13	54.69	45.97	38.12	32.41	28.16	26.19	45.95	174.4	498.2	1044	2961	1544	25.61	5.413	4.456	4.102	3.998	3.999	4.077	3.994	3.987	3.917	3.694	3.715	3.510	3.472	3.456	3.350	3.015	3.065	3.203	2.989	2.997	3.012	2.835	2.934
480.0	680.9	701.2	722.5	1780	3779	1158	696.2	713.7	718.1	716.2	700.7	653.7	584.9	524.7	469.1	423.2	387.6	369.1	357.2	346.5	333.9	329.2	331.7	325.3	322.1	316.6	310.1	303.3	294.7	285.8	270.3	243.6	215.8	187.5	165.1	143.0	125.1	111.5	104.5	88.48	67.08	56.05	46.64	39.37	33.82	28.90	24.61	24.73	51.10	120.8	244.9	1173	3255	1346	21.56	4.877	4.508	3.998	3.876	3.764	3.787	3.677	3.641	3.562	3.668	3.346	3.267	3.296	3.175	3.153	2.932	3.100	2.984	2.664	2.834	2.678	2.660
485.0	618.5	667.0	615.9	959.3	3506	2166	668.8	675.2	665.8	668.5	659.4	616.8	554.6	490.7	434.9	388.3	359.7	344.5	329.2	318.3	310.5	303.8	301.7	303.4	298.5	293.3	285.9	280.3	275.7	267.4	253.8	229.4	204.5	178.3	157.9	137.5	119.5	105.9	98.09	91.14	72.62	57.68	48.72	41.02	34.60	30.30	24.98	20.98	24.28	37.33	63.40	281.6	1678	3237	986.3	16.03	4.854	4.258	3.854	3.581	3.557	3.693	3.525	3.481	3.600	3.233	3.154	3.035	2.925	2.907	2.963	2.776	2.648	2.779	2.632	2.595	2.567
490.0	506.6	602.3	574.2	631.8	1927	3512	1150	618.2	620.4	618.2	599.9	565.2	505.0	450.1	397.5	357.7	330.1	311.8	298.0	288.5	282.0	274.4	272.3	271.8	267.7	264.0	258.7	253.8	248.6	244.1	230.5	212.3	190.0	167.3	149.4	131.0	115.9	101.1	90.81	85.08	77.61	63.47	49.93	42.54	36.58	31.36	26.30	22.28	19.75	19.65	23.45	70.83	400.5	1388	2573	1462	99.49	5.466	3.987	3.656	3.481	3.457	3.474	3.041	3.163	3.103	2.879	2.810	2.739	2.666	2.670	2.597	2.527	2.482	2.341	2.342	2.431
495.0	451.0	518.3	555.7	515.7	828.6	2962	2720	623.9	563.4	565.0	544.8	512.9	454.7	408.5	359.3	320.3	296.3	277.8	265.4	257.5	248.3	244.0	242.5	240.6	234.6	234.3	230.0	225.0	223.4	223.4	209.3	191.2	172.5	154.9	137.4	123.8	108.9	96.40	87.67	77.17	72.46	67.88	53.19	43.79	38.00	31.82	27.65	22.98	19.70	16.68	15.49	24.77	96.56	316.0	803.4	2549	1771	29.85	4.629	4.050	3.574	3.265	3.098	3.055	2.942	2.905	2.849	2.815	2.382	2.632	2.466	2.355	2.323	2.354	2.250	2.143	2.306
500.0	407.3	462.6	521.0	465.7	529.6	1735	3892	977.5	523.3	521.5	500.9	470.4	425.7	369.1	327.6	292.9	270.7	253.6	241.9	234.0	224.8	218.3	222.7	216.7	212.9	211.8	208.2	205.3	204.9	203.5	191.6	177.9	158.7	143.6	129.1	115.8	103.5	91.76	82.29	72.58	67.25	65.53	56.86	45.21	37.49	32.88	27.92	23.27	19.98	16.40	13.75	14.48	29.37	77.25	187.2	937.4	2970	1503	24.61	4.436	3.459	3.092	3.039	2.856	2.816	2.727	2.548	2.519	2.432	2.260	2.258	2.096	2.234	2.208	2.058	1.958	2.204
505.0	390.0	416.3	475.8	451.3	438.9	829.1	3779	2038	498.3	481.8	466.8	434.4	393.6	344.3	304.7	268.6	248.6	231.8	220.9	213.3	205.2	202.9	199.7	197.9	195.8	193.0	190.5	187.0	188.0	184.4	176.2	162.8	147.7	134.2	119.4	108.6	98.38	86.14	77.34	68.32	61.82	59.37	56.07	46.73	37.82	32.47	27.17	24.28	20.09	16.71	14.04	12.25	14.37	23.94	47.57	221.2	1341	2990	1076	18.08	3.878	3.203	2.937	2.780	2.692	2.671	2.456	2.364	2.300	2.235	2.333	2.085	2.072	1.991	2.051	1.877	2.030
510.0	324.6	351.9	412.1	422.0	385.9	480.4	2010	3585	920.8	430.6	413.0	388.8	350.4	307.8	272.0	237.7	220.3	206.1	194.8	187.5	179.9	176.8	175.9	172.6	171.2	167.7	166.6	164.1	164.4	162.4	156.0	144.7	132.0	119.2	106.4	97.01	88.75	79.52	71.29	63.69	57.02	52.81	51.07	47.50	39.46	31.77	27.20	23.83	19.78	16.52	14.30	12.00	10.98	12.07	16.69	54.85	316.0	1201	2158	1047	93.96	4.127	2.982	2.744	2.510	2.502	2.329	2.111	2.127	2.103	2.047	2.005	1.898	1.819	1.760	1.809	1.817
515.0	281.5	311.5	331.9	384.5	357.3	358.0	751.5	3355	2409	433.1	371.1	344.6	308.2	271.4	238.6	208.5	192.6	179.6	168.3	163.5	156.0	152.7	149.0	147.3	146.9	143.6	143.1	141.2	143.3	140.2	135.5	127.2	115.9	105.7	95.41	86.24	79.65	71.06	64.96	58.32	52.09	47.79	44.01	42.02	40.49	33.25	26.38	22.67	18.87	16.52	14.31	12.21	10.34	9.706	9.749	17.83	75.57	272.3	625.3	1891	1579	29.64	3.562	2.819	2.550	2.163	2.104	2.168	2.091	1.947	1.725	1.800	1.572	1.716	1.645	1.701	1.619
520.0	249.3	280.1	278.3	322.5	342.5	303.6	399.6	1858	4166	769.0	332.0	307.9	279.9	248.3	219.4	190.6	174.9	161.6	149.3	145.9	138.7	136.5	132.4	131.7	132.2	128.2	127.3	127.1	127.5	126.9	120.2	114.4	105.0	94.92	86.58	78.69	72.30	66.07	60.17	53.55	48.31	44.80	40.67	37.75	39.72	34.38	26.88	21.78	18.20	16.18	14.38	12.31	10.33	9.243	8.211	9.528	22.05	65.43	145.0	686.4	2175	1176	23.83	3.216	2.513	2.316	2.192	2.153	1.923	1.694	1.828	1.635	1.716	1.579	1.471	1.528	1.469
525.0	229.0	247.0	254.9	276.8	341.7	282.5	310.4	795.8	4376	1847	319.0	284.8	255.7	227.7	198.2	174.3	160.1	148.4	136.2	131.4	126.7	125.5	121.0	118.0	119.1	117.0	113.2	115.5	114.9	114.7	108.1	104.6	95.53	87.13	79.68	72.62	66.51	61.33	56.06	49.75	46.22	41.40	37.68	34.53	35.06	34.25	27.24	21.44	18.22	15.25	13.86	11.69	10.57	9.218	7.926	7.684	10.03	19.06	36.83	161.4	940.9	2103	252.3	15.75	2.766	2.173	1.999	1.928	1.864	1.604	1.561	1.649	1.409	1.524	1.262	1.443	1.405
530.0	200.5	222.1	220.9	228.5	281.7	282.6	257.6	378.1	2291	4037	744.7	250.0	223.0	199.3	172.9	152.3	137.2	128.9	119.6	115.2	111.3	107.2	104.7	102.9	103.5	100.7	98.84	100.3	100.2	99.83	95.54	91.50	83.89	76.56	70.40	64.71	58.71	54.43	49.77	44.91	41.62	37.79	34.22	31.29	30.14	30.34	27.31	22.34	17.60	14.79	13.17	11.07	9.947	9.078	8.258	7.274	7.030	8.812	12.38	39.85	220.8	823.9	1372	835.4	20.02	3.095	2.099	1.848	1.710	1.594	1.478	1.462	1.391	1.372	1.257	1.278	1.244
535.0	181.8	206.3	189.0	199.7	219.5	283.3	233.1	251.6	738.7	3788	1950	245.6	197.2	171.9	149.4	134.2	117.6	109.4	104.2	98.68	95.32	93.60	88.64	87.91	86.17	86.18	85.94	85.76	83.97	84.76	81.30	76.04	72.18	65.35	60.28	56.14	51.19	47.46	43.56	39.66	37.26	33.91	30.53	27.90	26.49	25.20	25.58	22.44	17.75	13.71	12.66	10.61	9.408	8.416	8.067	7.250	6.359	6.458	6.900	12.82	52.80	186.9	398.2	1311	1116	28.65	2.577	1.802	1.552	1.529	1.441	1.366	1.308	1.333	1.160	1.233	1.133
540.0	162.7	179.8	171.2	174.0	181.4	247.6	226.4	203.1	325.8	1968	4366	505.4	175.3	152.7	134.9	118.0	104.9	96.06	90.07	87.49	83.51	81.93	77.98	76.22	76.62	74.82	75.20	74.03	74.03	74.99	70.99	68.07	63.45	58.85	53.21	50.37	45.88	41.88	38.84	35.72	33.61	30.38	28.13	25.20	23.56	21.55	21.84	21.50	17.83	13.62	11.36	10.24	8.888	7.839	7.552	7.489	6.256	5.695	5.627	6.418	15.35	44.85	92.50	464.5	1480	816.5	21.58	2.258	1.622	1.516	1.332	1.247	1.242	1.101	1.121	1.077	0.973
545.0	162.5	160.7	152.9	157.8	154.1	201.9	228.2	179.8	214.4	728.6	4693	1426	164.1	135.7	119.3	104.8	94.64	85.53	80.75	78.29	72.61	71.59	68.10	69.48	67.43	64.97	65.77	66.05	66.49	66.25	64.50	60.69	55.77	52.83	48.18	44.41	41.77	37.88	35.34	32.03	29.24	27.06	25.82	23.00	21.46	19.92	18.50	18.90	17.92	13.94	10.96	9.889	8.313	7.485	7.240	6.958	6.428	5.498	4.855	4.928	7.020	13.07	23.82	109.1	623.2	1416	250.4	13.32	1.936	1.472	1.303	1.343	1.092	1.109	1.082	0.914	0.905
550.0	146.4	143.1	141.6	134.7	136.3	147.7	205.4	166.4	164.2	286.8	2251	3862	435.1	118.1	101.7	89.36	80.54	72.84	68.56	65.24	61.87	59.36	57.94	57.32	57.01	54.81	54.82	54.89	54.56	55.58	54.19	50.75	47.80	44.64	40.35	37.48	35.21	31.90	29.80	27.82	25.17	23.76	21.92	19.97	18.48	17.28	15.79	15.29	15.26	13.80	10.74	8.838	7.380	6.921	6.368	6.219	5.901	5.389	4.860	4.433	4.697	5.945	7.936	27.13	146.0	541.9	912.5	571.5	19.01	2.155	1.472	1.265	1.160	1.054	0.953	0.921	0.856
555.0	127.5	125.0	119.6	112.0	111.2	117.0	162.7	174.6	140.1	159.7	644.9	3705	1429	115.1	83.53	74.98	65.67	62.01	56.42	53.23	50.20	49.22	47.66	47.80	45.27	45.47	45.47	44.80	44.60	45.56	43.87	41.87	38.47	35.60	33.06	31.05	29.01	26.85	24.82	23.03	21.21	19.72	18.36	16.73	15.78	14.88	13.10	12.08	11.64	12.19	10.55	7.983	6.827	6.107	5.775	5.516	5.340	5.041	4.805	4.165	4.117	3.996	4.428	8.506	35.30	123.0	260.7	826.9	710.3	26.90	1.804	1.413	1.151	0.993	0.942	0.852	0.821
560.0	120.5	115.9	109.4	94.44	97.94	96.58	122.0	172.2	125.7	122.9	236.8	1841	3756	170.2	73.58	62.66	56.91	52.47	48.74	45.53	42.86	41.53	41.24	40.81	38.83	39.11	37.46	37.66	37.15	37.95	36.76	35.22	32.67	30.80	28.47	26.37	24.81	23.11	21.27	19.69	18.25	16.85	15.59	14.75	13.32	12.90	11.48	10.54	9.725	10.01	9.910	7.898	6.492	5.468	5.164	4.784	4.922	4.670	4.690	4.339	3.827	3.456	3.464	4.520	10.28	29.73	60.80	288.0	901.1	264.7	19.06	1.578	1.324	1.086	0.993	0.787	0.783
565.0	130.3	107.7	102.3	87.20	83.43	82.50	98.02	157.9	123.6	108.6	132.7	617.5	4233	942.1	65.92	54.20	48.69	44.45	40.88	39.25	36.86	36.12	34.53	33.41	32.82	32.82	31.41	32.71	32.59	32.02	31.35	29.86	28.44	25.50	23.95	22.76	20.51	19.54	18.39	17.27	15.47	14.50	13.57	13.01	11.62	11.13	9.792	9.165	8.143	8.156	8.363	7.318	6.112	5.149	4.692	4.421	4.443	4.394	3.946	4.201	3.744	3.214	3.367	3.561	4.892	9.061	16.01	67.95	365.5	787.5	232.5	9.544	1.457	1.139	0.971	0.822	0.782
570.0	112.2	100.9	96.92	74.96	70.21	70.32	74.81	115.3	131.4	94.83	98.68	209.1	2079	3066	229.7	46.04	40.23	37.56	33.78	32.28	30.37	29.67	28.16	28.01	26.84	26.79	25.93	26.67	26.11	26.06	25.35	24.40	22.80	21.39	19.31	18.60	16.99	16.16	15.33	14.37	13.13	12.35	11.43	10.77	10.08	9.160	8.603	8.014	6.997	6.512	6.378	6.345	5.999	4.909	4.405	4.140	3.998	3.943	3.685	3.844	3.864	3.542	3.329	3.513	3.721	4.678	6.202	17.78	86.30	307.7	548.5	354.2	17.24	1.572	0.985	0.778	0.786
575.0	106.1	99.61	89.67	66.09	58.14	60.37	65.49	78.77	124.2	101.5	82.73	103.4	562.8	3140	1001	45.76	34.17	30.62	27.99	26.65	25.03	24.30	22.62	22.40	21.68	21.25	21.45	21.32	21.98	21.39	20.64	19.78	18.87	17.09	15.81	15.01	14.34	13.63	12.54	11.35	11.09	9.915	9.280	8.813	8.411	7.482	7.306	6.762	5.904	5.463	5.097	5.171	5.343	4.763	4.258	3.764	3.789	3.397	3.516	3.581	3.697	3.864	3.510	3.419	3.342	3.863	3.924	6.424	21.72	70.93	155.6	478.6	268.3	23.75	1.042	0.798	0.763
580.0	102.4	105.1	83.79	61.06	57.39	54.67	57.69	64.34	104.6	115.5	76.06	79.69	177.4	1613	2802	95.70	30.56	26.06	23.59	22.01	21.31	20.33	19.19	18.42	18.90	18.16	18.35	17.99	18.36	18.12	17.31	17.00	16.15	14.74	13.19	12.93	12.56	11.78	10.32	9.736	9.369	8.539	8.283	7.407	7.003	6.461	5.987	5.889	5.126	4.727	4.403	4.073	4.485	4.575	4.066	3.504	3.619	3.281	3.114	3.420	3.238	3.545	3.322	3.265	3.286	3.497	3.467	4.066	7.360	17.97	36.86	165.7	489.6	243.4	14.88	0.992	0.741
585.0	101.1	98.67	83.96	60.27	51.92	49.61	48.41	56.55	78.79	125.7	76.05	71.71	88.04	528.2	3275	549.0	26.99	23.14	20.62	19.38	18.35	17.43	17.01	16.81	16.22	15.80	15.58	15.25	15.48	15.49	15.16	14.54	13.16	12.90	11.44	11.13	10.66	9.960	9.057	8.633	8.171	7.390	7.038	6.856	6.305	5.646	5.475	5.109	4.516	4.045	3.661	3.476	3.704	4.111	3.876	3.474	3.270	3.099	2.838	2.914	2.928	3.130	3.135	3.225	2.983	3.196	3.143	3.249	3.775	6.054	10.09	39.25	205.0	500.8	186.2	6.616	0.769
590.0	103.6	95.54	80.53	58.21	46.23	42.19	43.80	47.75	60.13	107.0	93.73	68.68	68.35	161.2	1632	2026	67.03	20.39	18.11	16.57	15.27	14.72	13.96	13.16	13.02	12.81	12.86	12.64	13.14	12.61	12.63	12.03	11.23	10.72	9.522	9.055	8.406	8.359	7.723	7.192	6.740	6.422	5.674	5.716	5.307	4.968	4.503	4.204	3.912	3.733	3.223	2.936	2.970	3.156	3.642	3.309	2.724	2.577	2.479	2.481	2.493	2.712	2.661	2.938	2.980	2.661	2.818	2.690	2.695	3.128	3.935	10.10	48.20	190.1	328.6	154.8	15.82
595.0	96.28	92.99	79.38	55.13	43.73	38.33	38.59	45.18	49.72	77.06	106.6	68.00	59.87	72.89	425.3	2254	639.7	19.86	15.34	13.31	12.63	12.06	11.22	10.97	10.54	10.41	10.14	10.06	10.55	10.22	9.779	9.786	8.856	8.553	8.002	7.481	6.945	6.572	6.634	6.145	5.397	5.242	4.699	4.783	4.533	4.196	3.612	3.700	3.195	3.093	2.681	2.535	2.523	2.574	2.772	2.878	2.568	2.252	2.173	2.157	2.138	2.271	2.174	2.313	2.526	2.408	2.452	2.225	2.329	2.084	2.335	3.506	11.87	43.30	89.95	258.8	243.6
600.0	88.74	81.39	73.75	54.95	39.14	37.55	39.17	42.80	48.69	62.60	107.9	77.66	56.96	50.87	121.5	1232	1700	48.50	12.94	12.31	11.20	10.31	9.852	9.342	9.352	8.871	8.628	8.651	9.136	8.882	8.583	8.069	7.592	7.055	6.525	6.256	5.995	5.579	5.614	5.279	4.631	4.622	3.971	3.889	3.900	3.458	3.241	3.280	2.707	2.622	2.331	2.274	1.972	2.028	2.242	2.550	2.406	2.202	1.971	1.945	1.802	1.954	1.910	1.982	2.217	2.172	2.068	1.945	1.976	1.887	1.878	1.877	3.606	10.50	20.97	87.77	298.2
605.0	93.29	87.62	75.00	49.74	36.09	38.38	37.57	44.37	46.10	57.63	97.82	94.74	60.74	49.03	54.59	409.7	2147	279.8	12.85	10.15	9.705	9.181	8.580	8.714	7.877	7.564	7.827	7.970	7.782	7.567	7.489	6.761	6.098	5.784	5.902	5.622	5.269	4.912	4.578	4.642	4.222	4.007	3.510	3.530	3.417	3.001	2.907	2.740	2.466	2.313	2.095	1.962	1.849	1.734	1.820	1.922	2.248	2.211	1.785	1.767	1.572	1.743	1.704	1.809	2.099	1.930	2.155	1.853	1.965	1.659	1.623	1.482	1.791	3.180	5.524	20.72	115.1
610.0	95.28	83.26	71.03	53.00	37.34	36.41	36.75	45.04	51.18	63.06	82.72	109.9	75.26	55.44	44.81	118.7	1184	1141	39.01	9.265	8.507	7.263	7.158	6.914	6.733	6.374	6.412	6.485	6.239	6.531	6.150	5.775	5.269	5.138	4.903	4.480	4.548	4.142	3.709	3.622	3.513	3.312	3.061	2.888	2.895	2.583	2.441	2.346	2.156	1.961	1.821	1.659	1.575	1.532	1.554	1.575	1.933	1.986	1.760	1.662	1.522	1.580	1.563	1.668	1.745	1.665	1.973	1.835	1.752	1.592	1.509	1.272	1.278	1.476	1.907	5.313	26.89
615.0	93.34	85.21	64.12	55.92	42.10	35.97	37.64	45.75	52.12	63.27	73.30	104.7	92.21	58.22	44.58	49.24	319.5	1563	411.7	8.452	7.276	6.375	6.057	5.590	5.835	4.904	5.433	5.231	5.037	5.375	5.130	4.565	4.458	4.257	4.185	3.720	3.633	3.399	3.222	2.975	2.918	2.737	2.525	2.403	2.263	2.185	2.104	1.970	1.899	1.473	1.406	1.387	1.487	1.317	1.247	1.304	1.475	1.610	1.628	1.507	1.306	1.475	1.354	1.355	1.444	1.426	1.545	1.689	1.626	1.577	1.338	1.247	1.336	1.074	1.076	1.894	6.684
620.0	90.40	78.92	69.37	51.39	39.47	33.37	34.87	42.48	49.70	59.62	69.80	90.37	100.5	60.21	43.23	34.23	90.92	961.0	1118	20.16	6.405	6.033	5.136	4.996	5.254	4.543	4.889	4.196	4.416	4.134	4.461	4.115	3.732	3.796	3.527	3.327	3.205	2.878	2.972	2.944	2.308	2.326	2.257	2.108	2.140	1.798	1.735	1.795	1.537	1.395	1.217	1.260	1.131	1.087	1.079	1.188	1.229	1.289	1.602	1.468	1.262	1.356	1.115	1.246	1.344	1.344	1.343	1.421	1.584	1.575	1.364	1.146	0.996	1.034	0.749	1.038	1.984
625.0	90.56	78.11	65.54	46.43	41.38	31.77	33.69	42.85	48.61	57.90	67.85	79.78	101.7	66.75	43.34	29.96	38.43	342.1	1550	73.82	6.185	5.435	4.518	4.484	4.556	3.927	4.136	3.572	3.958	3.701	4.109	3.726	3.458	3.289	2.926	3.023	2.954	2.605	2.718	2.514	1.885	2.034	1.830	1.800	1.768	1.505	1.510	1.455	1.246	1.272	1.261	1.079	0.993	1.037	0.985	1.054	1.091	1.093	1.298	1.295	1.192	1.241	1.161	1.155	1.316	1.251	1.335	1.199	1.494	1.430	1.329	1.026	1.035	0.928	0.786	0.921	1.015
630.0	87.18	77.20	64.73	48.31	35.84	30.36	34.14	40.29	47.11	55.14	68.00	74.35	88.29	74.48	44.27	29.05	24.94	92.68	943.7	792.7	21.56	4.692	4.389	4.008	3.585	3.418	3.463	3.106	3.118	3.065	3.279	2.980	2.890	2.539	2.437	2.536	2.444	2.281	2.225	2.017	1.954	1.730	1.640	1.459	1.459	1.432	1.244	1.245	1.106	1.073	1.031	0.951	0.956	0.868	0.889	1.000	0.942	1.037	1.081	1.146	1.195	1.075	1.136	1.053	1.132	1.088	1.239	1.111	1.205	1.188	1.303	1.030	0.920	0.837	0.756	0.758	0.722
635.0	81.35	84.04	69.64	46.40	36.20	31.60	32.65	39.25	47.53	55.06	64.68	72.39	74.33	81.01	48.64	28.90	22.74	32.07	252.9	1221	237.3	4.866	3.681	3.298	3.270	3.023	2.972	2.638	2.730	2.682	2.691	2.388	2.403	2.341	2.332	2.061	2.033	1.995	1.929	1.683	1.660	1.409	1.402	1.254	1.301	1.399	1.099	1.097	1.074	0.925	0.804	0.861	0.826	0.765	0.770	0.863	0.804	0.896	0.892	0.850	1.032	1.080	1.012	0.984	0.899	0.983	0.987	1.039	1.108	1.026	1.121	1.015	0.907	0.783	0.728	0.693	0.635
640.0	82.25	81.35	71.94	49.29	32.69	30.33	31.93	38.65	45.72	54.31	63.10	69.36	68.88	76.20	55.36	29.79	22.02	19.07	65.16	817.8	581.5	10.09	3.917	3.136	2.887	2.643	2.514	2.335	2.610	2.362	2.329	2.218	1.897	2.067	1.910	1.906	1.856	1.617	1.658	1.612	1.460	1.446	1.152	1.140	1.130	1.217	1.074	1.031	1.033	0.811	0.732	0.882	0.693	0.742	0.710	0.723	0.689	0.818	0.765	0.720	1.011	0.941	1.037	0.979	0.899	0.880	0.835	1.010	0.935	1.069	0.959	1.037	0.927	0.794	0.710	0.633	0.611
645.0	87.95	93.46	73.88	50.23	35.10	29.18	33.72	34.91	44.61	53.28	60.48	67.85	66.47	67.85	59.86	30.65	21.39	15.85	21.06	309.0	1101	53.79	3.857	2.905	2.584	2.358	2.448	2.245	2.227	2.133	2.001	2.012	1.760	1.803	1.797	1.745	1.554	1.491	1.614	1.499	1.261	1.203	1.223	1.173	0.976	1.046	0.913	0.986	0.911	0.792	0.684	0.805	0.627	0.624	0.607	0.729	0.676	0.734	0.710	0.721	0.915	0.886	0.936	0.866	0.809	0.987	0.881	0.757	0.837	0.950	0.877	0.962	0.930	0.808	0.699	0.626	0.554
650.0	104.5	87.79	76.34	48.46	33.78	32.55	31.41	34.55	43.33	48.78	60.87	64.58	65.12	60.12	60.62	32.99	21.25	14.81	11.29	83.92	997.4	363.8	4.600	3.116	2.523	2.132	2.190	2.069	2.128	1.976	1.760	1.729	1.660	1.571	1.641	1.677	1.459	1.406	1.425	1.195	1.179	1.332	1.371	1.195	0.941	0.945	0.913	0.983	0.808	0.700	0.621	0.683	0.620	0.644	0.645	0.632	0.610	0.695	0.782	0.625	0.772	0.792	0.841	0.790	0.810	0.856	0.869	0.741	0.948	0.953	0.827	0.929	0.874	0.940	0.739	0.604	0.552
