Sample:	'1
File name:	Default_20230303_101827.FD3
Run date:	'10:12:06, 03/03/2023
Operator:	user
Comment:	'

Instrument
Model:	F-2700 FL Spectrophotometer
Serial number:	2190-003
ROM Version:	4J14000 07

Instrument parameters
Measurement type:	3-D scan
Data mode:	Fluorescence
EX  Start WL:	220.0 nm
EX  End WL:	600.0 nm
EX Sampling interval:	5.0 nm
EM  Start WL:	230.0 nm
EM  End WL:	650.0 nm
EM Sampling interval:	5.0 nm
Scan speed:	12000 nm/min
EX Slit:	5.0 nm
EM Slit:	5.0 nm
PMT Voltage:	700 V
Response:	Auto 
Corrected spectra:	Off
Contour interval:	50.000

Peak integration
Integration method:	Rectangular
Sensitivity:	1
Threshold:	1.000

Peaks
No.	ApexEX/EM(nm)	Height(Data)
1	230.0/335.0	-22.01
2	250.0/385.0	273.6
3	250.0/405.0	279.3
4	255.0/380.0	275.2
5	255.0/555.0	-93.14
6	260.0/285.0	267.7
7	260.0/565.0	-95.65
8	265.0/290.0	303.5
9	265.0/395.0	312.2
10	265.0/425.0	336.5
11	265.0/580.0	-75.19
12	270.0/295.0	504.1
13	270.0/410.0	323.8
14	270.0/445.0	349.7
15	270.0/590.0	-64.75
16	275.0/305.0	660.1
17	275.0/425.0	334.2
18	275.0/435.0	337.3
19	275.0/605.0	-57.18
20	280.0/310.0	683.6
21	280.0/330.0	464.2
22	280.0/615.0	-45.99
23	285.0/315.0	701.7
24	285.0/340.0	480.2
25	285.0/380.0	403.0
26	285.0/400.0	360.9
27	285.0/625.0	-31.13
28	290.0/320.0	685.0
29	290.0/405.0	364.0
30	290.0/640.0	-26.71
31	300.0/335.0	398.8
32	305.0/340.0	394.6
33	310.0/345.0	350.8
34	310.0/410.0	334.6
35	320.0/360.0	312.6
36	325.0/365.0	319.9
37	330.0/370.0	282.6
38	335.0/380.0	300.9
39	340.0/385.0	306.9
40	345.0/390.0	276.1
41	350.0/400.0	271.1
42	355.0/405.0	268.6
43	360.0/410.0	241.5
44	365.0/415.0	233.4
45	370.0/425.0	223.9
46	415.0/485.0	50.08
47	430.0/505.0	28.45
48	435.0/510.0	22.35
49	445.0/525.0	14.91
50	450.0/530.0	11.14
51	460.0/545.0	6.421
52	465.0/550.0	2.997
53	520.0/285.0	-6.393
54	545.0/300.0	-5.912
55	550.0/305.0	-6.180
56	560.0/310.0	-6.313
57	580.0/325.0	-6.372

Data points
	220.0	225.0	230.0	235.0	240.0	245.0	250.0	255.0	260.0	265.0	270.0	275.0	280.0	285.0	290.0	295.0	300.0	305.0	310.0	315.0	320.0	325.0	330.0	335.0	340.0	345.0	350.0	355.0	360.0	365.0	370.0	375.0	380.0	385.0	390.0	395.0	400.0	405.0	410.0	415.0	420.0	425.0	430.0	435.0	440.0	445.0	450.0	455.0	460.0	465.0	470.0	475.0	480.0	485.0	490.0	495.0	500.0	505.0	510.0	515.0	520.0	525.0	530.0	535.0	540.0	545.0	550.0	555.0	560.0	565.0	570.0	575.0	580.0	585.0	590.0	595.0	600.0
230.0	-875.0	-304.5	 2494	 1474	-242.7	-287.3	-241.5	-208.6	-186.8	-164.7	-141.6	-122.4	-103.3	-84.01	-68.11	-56.58	-47.36	-40.54	-35.28	-31.02	-28.26	-25.75	-23.58	-21.89	-20.49	-19.31	-18.52	-17.67	-17.25	-17.00	-16.32	-15.18	-14.08	-13.15	-12.38	-11.05	-10.96	-10.82	-10.50	-10.18	-9.880	-9.813	-9.581	-9.277	-9.187	-8.884	-7.543	-5.262	-1.840	-2.189	-4.835	-7.176	-7.294	-7.590	-7.395	-7.863	-7.924	-8.117	-7.903	-7.964	-8.039	-8.035	-8.126	-8.132	-8.096	-8.210	-8.266	-8.283	-8.367	-8.280	-8.386	-8.467	-8.539	-8.553	-8.761	-8.890	-9.115
235.0	-869.1	-605.5	508.0	 2405	 1461	-158.0	-237.7	-209.9	-188.0	-163.9	-144.8	-123.3	-103.6	-84.66	-68.52	-56.47	-46.73	-40.19	-35.01	-31.15	-27.90	-25.67	-23.61	-22.19	-20.67	-19.35	-18.71	-18.06	-17.50	-16.94	-16.38	-15.48	-14.08	-13.71	-12.45	-11.09	-11.01	-10.68	-10.53	-10.33	-9.844	-9.902	-9.663	-9.118	-9.024	-8.900	-7.887	-7.306	-5.524	-3.316	-1.004	-2.582	-5.187	-7.340	-7.441	-7.809	-7.851	-7.988	-8.074	-8.150	-8.156	-8.098	-7.893	-8.198	-8.122	-8.176	-8.236	-8.126	-8.534	-8.318	-8.358	-8.438	-8.495	-8.257	-8.842	-8.853	-9.082
240.0	-825.9	-607.1	-303.3	981.0	 3108	 1197	-185.5	-206.5	-185.8	-159.1	-142.4	-126.2	-101.5	-81.27	-68.53	-57.85	-47.91	-40.86	-35.48	-31.37	-28.18	-25.81	-23.85	-22.14	-20.76	-18.82	-18.66	-17.86	-17.64	-16.84	-16.20	-15.29	-13.94	-13.38	-12.34	-11.12	-11.07	-10.68	-10.61	-10.08	-9.687	-9.994	-9.856	-9.456	-8.975	-8.852	-7.780	-7.828	-6.858	-5.404	-3.500	-1.009	-0.544	-2.225	-6.135	-7.766	-7.889	-8.067	-8.177	-8.076	-8.049	-7.975	-8.025	-8.122	-8.152	-8.320	-8.247	-8.026	-8.491	-8.502	-8.436	-8.441	-8.454	-8.489	-8.685	-8.984	-9.104
245.0	-856.5	-628.8	-463.4	-62.42	 1655	 2973	894.0	-186.4	-186.0	-163.5	-142.5	-123.9	-102.8	-83.34	-67.92	-56.04	-47.11	-40.52	-35.56	-31.76	-28.36	-26.29	-24.25	-21.77	-20.08	-18.82	-18.59	-17.74	-17.54	-16.44	-16.09	-15.40	-14.27	-13.52	-12.49	-11.21	-10.97	-10.98	-10.34	-10.03	-9.872	-9.850	-9.580	-9.426	-9.205	-8.842	-7.783	-7.875	-7.151	-5.850	-5.625	-5.452	-3.594	0.800	0.219	-4.521	-7.277	-7.971	-8.153	-7.867	-7.882	-8.046	-8.095	-8.282	-8.058	-8.172	-8.399	-8.166	-8.320	-8.449	-8.413	-8.548	-8.415	-8.524	-8.593	-8.973	-9.362
250.0	-862.6	-687.8	-434.0	-276.2	165.8	 1635	 3511	 2204	102.6	-162.4	-139.8	-124.6	-101.9	-81.97	-67.56	-56.11	-46.97	-40.86	-35.37	-31.10	-27.62	-25.90	-23.72	-21.98	-20.26	-18.91	-18.22	-17.49	-17.12	-16.67	-16.11	-15.09	-14.23	-13.36	-12.49	-11.43	-10.93	-11.05	-10.39	-10.23	-9.949	-9.943	-9.737	-9.412	-8.978	-8.843	-7.752	-7.532	-6.874	-5.921	-5.974	-6.943	-6.429	-5.239	-3.116	-1.393	0.866	-1.041	-4.555	-7.254	-7.835	-7.988	-8.132	-8.175	-8.160	-8.274	-8.420	-8.201	-8.256	-8.475	-8.444	-8.531	-8.526	-8.567	-8.732	-8.986	-9.308
255.0	-877.2	-699.6	-497.8	-249.5	-114.9	155.9	 1169	 4738	 1828	187.6	-141.9	-120.2	-100.7	-80.81	-66.19	-54.69	-46.90	-40.35	-35.56	-30.53	-27.97	-26.25	-23.85	-21.86	-20.20	-19.28	-17.74	-17.06	-16.51	-16.49	-16.31	-15.12	-14.10	-13.65	-12.54	-11.45	-11.05	-11.02	-10.34	-10.36	-9.770	-10.10	-9.798	-9.233	-9.100	-8.826	-7.688	-7.550	-6.966	-5.857	-5.791	-7.071	-6.862	-7.149	-6.331	-6.223	-4.889	-0.237	5.292	4.009	-2.770	-7.311	-8.052	-7.943	-8.190	-8.299	-8.307	-8.217	-8.259	-8.382	-8.444	-8.541	-8.733	-8.421	-8.602	-8.906	-9.280
260.0	-897.2	-692.9	-549.0	-316.2	-105.1	-115.8	96.36	 2102	 5858	 1571	22.54	-118.6	-99.85	-83.17	-65.75	-55.13	-46.36	-39.36	-35.22	-31.09	-28.31	-25.95	-24.39	-21.95	-20.11	-19.31	-17.85	-17.18	-17.07	-16.86	-15.73	-15.10	-14.27	-13.61	-12.73	-11.51	-10.85	-11.38	-10.62	-10.54	-9.808	-9.951	-9.789	-9.367	-8.932	-8.839	-7.874	-7.785	-6.972	-6.069	-5.919	-6.940	-6.771	-7.265	-7.123	-7.346	-7.381	-5.862	-1.894	5.017	8.723	3.891	-5.516	-7.852	-8.113	-8.149	-8.352	-8.164	-8.166	-8.507	-8.563	-8.660	-8.465	-8.418	-8.641	-8.835	-9.223
265.0	-876.6	-697.8	-553.9	-396.3	-154.2	-35.19	-114.5	375.8	 3190	 7351	 1264	-67.19	-95.90	-79.06	-66.36	-54.55	-46.35	-39.34	-34.70	-31.17	-28.56	-26.10	-23.79	-21.72	-20.27	-18.85	-18.50	-17.52	-17.53	-16.90	-15.62	-15.33	-13.90	-13.57	-12.80	-11.39	-11.09	-10.93	-10.66	-10.22	-9.842	-9.965	-9.663	-9.387	-8.963	-8.885	-7.752	-7.989	-6.954	-6.098	-6.166	-7.226	-6.657	-6.950	-6.927	-7.691	-7.897	-7.491	-6.630	-3.906	2.505	11.42	11.35	0.290	-7.084	-8.104	-8.233	-8.139	-8.126	-8.461	-8.592	-8.505	-8.123	-8.297	-8.711	-8.844	-9.109
270.0	-879.2	-696.8	-546.9	-419.8	-284.1	-72.53	9.726	-19.91	650.8	 3384	 7001	 4690	251.6	-75.98	-64.76	-52.40	-46.12	-39.09	-34.13	-30.81	-27.68	-25.53	-23.53	-21.58	-20.16	-19.11	-17.81	-17.56	-17.65	-16.42	-15.50	-15.31	-13.83	-13.22	-12.70	-11.35	-10.90	-11.01	-10.87	-10.35	-9.936	-9.955	-9.755	-9.373	-8.981	-8.758	-7.630	-7.735	-6.997	-6.161	-6.100	-7.319	-7.019	-7.381	-6.881	-6.887	-7.325	-7.525	-7.720	-7.108	-5.467	-2.020	3.053	8.019	10.08	6.489	-1.898	-7.456	-8.275	-8.252	-8.410	-8.473	-8.289	-8.513	-8.602	-8.892	-9.115
275.0	-843.0	-663.2	-537.2	-401.2	-326.8	-214.9	-22.17	136.2	58.92	660.9	 2213	 8852	 7086	331.9	-60.46	-52.19	-43.32	-39.17	-34.12	-30.76	-27.21	-25.01	-23.39	-21.82	-20.41	-18.72	-17.86	-17.60	-17.18	-16.45	-15.65	-14.90	-14.10	-13.36	-12.46	-11.13	-10.90	-11.09	-10.42	-10.46	-9.793	-9.707	-9.658	-9.304	-9.256	-8.853	-7.760	-7.567	-6.998	-5.946	-6.127	-7.325	-6.933	-7.515	-7.252	-7.490	-7.535	-6.717	-7.329	-7.803	-7.348	-6.774	-5.607	-4.196	-0.767	9.158	21.75	14.92	-1.016	-7.942	-8.455	-8.433	-8.301	-8.502	-8.624	-8.789	-8.962
280.0	-829.0	-689.0	-530.7	-403.1	-341.6	-247.9	-146.6	149.0	151.2	67.93	437.4	 3410	9999.9	 5388	140.6	-49.16	-41.59	-38.41	-33.77	-30.13	-27.24	-25.28	-23.57	-21.24	-20.19	-18.74	-18.11	-17.68	-16.80	-16.37	-16.04	-15.12	-14.03	-12.75	-12.52	-10.97	-11.08	-10.85	-10.60	-10.28	-9.723	-9.800	-9.673	-9.270	-8.834	-8.780	-7.642	-7.688	-6.990	-5.887	-6.149	-7.380	-7.213	-7.487	-7.350	-7.530	-7.958	-7.246	-6.870	-7.153	-7.673	-7.807	-7.582	-7.107	-6.394	-3.570	4.259	17.95	24.52	9.644	-5.585	-8.431	-8.375	-8.471	-8.702	-8.739	-9.035
285.0	-836.6	-653.5	-507.5	-389.8	-320.4	-257.7	-213.4	-28.03	267.7	66.68	45.61	780.8	 4808	9999.9	 3666	12.68	-39.09	-35.74	-32.64	-29.64	-26.89	-25.00	-22.69	-21.27	-19.74	-18.76	-17.77	-17.32	-16.52	-16.42	-16.09	-15.22	-14.16	-12.59	-12.47	-10.81	-10.66	-10.79	-10.28	-10.16	-9.560	-9.831	-9.601	-9.292	-8.951	-8.579	-7.575	-7.911	-7.008	-6.084	-6.124	-7.276	-7.159	-7.704	-7.288	-7.738	-7.792	-7.621	-7.532	-6.528	-6.393	-7.530	-7.744	-7.782	-7.608	-7.115	-5.071	0.031	13.15	26.38	20.82	1.840	-7.409	-8.446	-8.510	-8.831	-9.150
290.0	-778.4	-575.5	-458.9	-360.2	-308.0	-248.3	-204.7	-122.8	88.88	303.5	158.2	196.6	 1167	 4560	 9562	 5297	176.1	-32.48	-30.17	-28.43	-26.77	-24.71	-22.21	-20.84	-19.63	-18.52	-17.96	-17.16	-16.78	-16.36	-15.56	-15.15	-13.81	-12.83	-12.23	-10.70	-10.80	-10.60	-10.27	-10.14	-9.552	-9.737	-9.714	-9.289	-8.934	-8.733	-7.322	-7.497	-6.898	-6.025	-6.114	-7.241	-7.123	-7.572	-7.295	-7.774	-7.779	-7.759	-7.761	-7.379	-6.880	-6.824	-6.974	-7.427	-7.542	-7.691	-7.134	-6.003	-3.139	2.661	11.11	18.79	19.54	11.53	-1.035	-7.820	-9.095
295.0	-720.6	-512.5	-390.0	-331.9	-278.3	-227.6	-189.7	-126.0	-39.86	138.1	504.1	278.6	344.7	 1096	 2812	 9304	 8239	243.4	-26.64	-27.89	-25.28	-23.47	-22.51	-20.70	-18.96	-18.87	-17.74	-17.16	-16.58	-16.42	-15.57	-14.82	-13.62	-12.75	-12.25	-10.57	-10.60	-10.28	-10.10	-10.09	-9.623	-9.566	-9.669	-8.966	-8.906	-8.540	-7.268	-7.366	-6.803	-5.977	-5.919	-7.276	-7.181	-7.569	-7.227	-7.669	-7.855	-7.750	-7.771	-7.633	-7.489	-7.602	-7.471	-6.668	-6.472	-7.137	-7.683	-7.237	-6.811	-5.517	-3.865	-1.658	2.687	16.93	31.05	20.49	-0.572
300.0	-666.5	-458.2	-289.1	-299.0	-231.3	-207.2	-157.4	-105.0	-48.48	35.33	390.0	586.0	281.1	361.7	708.9	 3443	9999.9	 3296	144.6	-23.96	-24.11	-23.30	-22.21	-19.91	-19.41	-18.68	-17.83	-16.83	-16.84	-16.22	-15.46	-14.84	-13.30	-12.86	-12.27	-10.79	-10.08	-10.23	-10.05	-10.14	-9.212	-9.737	-9.575	-8.868	-8.639	-8.432	-7.559	-7.095	-6.718	-5.874	-5.669	-7.152	-7.047	-7.427	-7.197	-7.478	-7.716	-7.522	-7.355	-7.695	-7.473	-7.755	-7.471	-7.050	-6.311	-5.912	-7.043	-7.540	-7.408	-7.412	-6.903	-6.735	-5.670	-1.276	11.61	30.41	34.61
305.0	-661.1	-439.2	-244.7	-236.2	-227.5	-183.6	-150.9	-80.54	-17.79	44.93	238.3	660.1	544.8	248.0	265.4	848.0	 4742	9999.9	 2539	43.85	-22.05	-20.96	-20.83	-18.35	-18.89	-18.36	-17.29	-16.73	-16.59	-16.10	-15.57	-14.42	-13.30	-12.31	-12.11	-10.81	-10.15	-10.40	-9.884	-9.951	-9.653	-9.488	-9.661	-8.938	-8.743	-8.327	-7.371	-7.330	-6.727	-5.599	-5.654	-6.897	-7.079	-7.385	-7.052	-7.541	-7.519	-7.395	-7.462	-7.614	-7.559	-7.817	-7.480	-7.174	-6.953	-6.659	-6.180	-6.757	-7.311	-7.635	-7.418	-7.695	-7.465	-6.611	-3.791	4.318	20.99
310.0	-609.1	-398.9	-227.8	-226.2	-205.1	-165.0	-122.7	-63.80	2.948	82.07	212.2	428.7	683.6	522.8	243.9	269.2	 1139	 4505	 8904	 5533	127.3	-16.82	-19.57	-18.85	-18.29	-17.99	-16.68	-16.45	-16.27	-16.16	-15.71	-14.31	-13.45	-12.61	-12.11	-10.89	-10.42	-10.26	-9.788	-9.863	-9.513	-9.521	-9.371	-8.956	-8.691	-8.406	-7.100	-7.306	-6.606	-5.786	-5.697	-7.049	-7.001	-7.414	-7.041	-7.591	-7.690	-7.672	-7.544	-7.402	-7.492	-7.535	-7.532	-7.351	-7.210	-7.056	-6.621	-6.623	-6.313	-6.829	-7.309	-7.727	-7.643	-7.533	-7.374	-5.537	-1.696
315.0	-616.2	-347.4	-227.0	-177.7	-161.5	-145.1	-92.77	-33.12	22.22	128.0	246.6	349.1	474.7	701.7	483.8	189.2	307.7	 1022	 2643	 9293	 7486	187.1	-16.26	-17.48	-16.96	-16.43	-16.42	-15.68	-16.39	-16.25	-15.58	-13.93	-13.81	-12.59	-11.90	-10.65	-10.50	-10.35	-10.06	-9.896	-9.158	-9.200	-9.402	-8.743	-8.438	-8.384	-7.225	-7.308	-6.740	-5.696	-5.942	-6.949	-7.020	-7.441	-6.805	-7.551	-7.762	-7.710	-7.239	-7.181	-7.580	-7.380	-7.470	-7.104	-7.166	-7.370	-6.821	-7.251	-6.861	-7.055	-6.429	-7.089	-7.533	-7.903	-7.899	-7.741	-7.313
320.0	-554.9	-310.8	-190.5	-155.6	-133.5	-118.0	-77.87	-30.96	56.37	149.1	266.2	352.7	432.8	551.5	685.0	278.4	137.7	257.8	605.6	 3515	9999.9	 2192	113.0	-15.61	-15.84	-16.19	-16.20	-16.34	-16.12	-15.36	-15.08	-13.62	-13.80	-12.85	-11.73	-10.51	-10.34	-10.12	-10.09	-10.26	-9.199	-9.546	-9.347	-8.685	-8.552	-8.256	-6.997	-6.941	-6.502	-5.745	-5.856	-7.050	-7.026	-7.344	-6.777	-7.567	-7.670	-7.567	-7.268	-7.448	-7.478	-7.350	-7.391	-7.153	-7.074	-7.184	-6.986	-7.302	-7.073	-7.428	-6.475	-6.601	-6.913	-7.516	-8.108	-7.978	-8.387
325.0	-529.8	-303.8	-147.7	-130.5	-140.9	-111.8	-70.01	-1.665	72.13	169.1	257.3	357.9	429.9	462.4	593.9	497.6	159.2	102.9	151.9	827.1	 4749	9999.9	 1853	52.71	-14.21	-14.94	-15.80	-16.09	-15.25	-15.32	-15.32	-13.78	-13.42	-12.43	-11.66	-10.27	-10.45	-10.22	-10.04	-9.843	-9.295	-9.644	-9.426	-8.401	-8.381	-8.133	-7.033	-6.642	-6.506	-5.721	-5.767	-7.132	-6.913	-7.357	-6.850	-7.290	-7.591	-7.447	-7.387	-7.330	-7.439	-7.068	-7.173	-7.361	-7.104	-7.179	-7.151	-7.376	-7.138	-7.085	-6.884	-6.859	-6.372	-6.955	-7.691	-8.368	-8.612
330.0	-548.1	-252.8	-68.19	-86.31	-105.5	-79.70	-49.47	36.28	103.9	199.0	294.6	389.2	464.2	452.9	444.1	478.4	354.8	126.4	70.94	204.8	 1123	 4408	 8049	 4967	100.3	-10.31	-14.05	-14.91	-15.18	-14.81	-14.74	-13.87	-12.96	-12.36	-11.58	-10.38	-10.11	-10.35	-9.858	-9.692	-9.614	-9.493	-9.257	-8.632	-8.267	-8.197	-7.104	-6.954	-6.473	-5.571	-5.638	-7.063	-6.880	-7.198	-6.842	-7.128	-7.460	-7.309	-7.306	-7.201	-7.329	-7.378	-7.363	-7.237	-7.085	-7.081	-7.133	-7.168	-7.154	-7.037	-7.127	-7.189	-7.195	-7.206	-6.857	-7.446	-8.328
335.0	-527.6	-209.7	-22.01	-44.61	-66.67	-37.84	2.758	52.26	115.3	223.4	315.9	419.9	463.9	465.5	411.1	351.4	398.8	321.6	102.2	86.99	275.2	996.8	 2508	 8935	 7126	150.0	-11.27	-12.99	-13.96	-14.68	-14.36	-13.37	-12.95	-12.65	-11.26	-9.989	-10.07	-10.31	-9.742	-9.602	-9.279	-9.032	-9.156	-8.569	-8.459	-7.951	-6.960	-7.026	-6.139	-5.346	-5.530	-7.057	-6.724	-7.003	-6.785	-7.044	-7.477	-7.179	-7.218	-7.110	-6.915	-7.153	-7.096	-7.141	-7.436	-6.962	-7.195	-7.232	-7.052	-6.920	-7.358	-7.539	-7.397	-7.391	-7.657	-7.479	-7.521
340.0	-496.2	-217.4	-60.64	4.540	-20.94	-14.42	31.40	78.32	152.0	206.7	319.1	430.5	459.7	480.2	410.2	321.8	285.2	394.6	222.7	77.77	95.23	244.9	581.3	 3517	9999.9	 5279	98.57	-11.37	-12.55	-14.14	-13.45	-13.17	-13.04	-11.91	-11.30	-9.813	-10.35	-9.942	-10.04	-9.675	-9.226	-9.192	-9.031	-8.518	-7.881	-7.595	-6.958	-6.755	-6.010	-5.504	-5.697	-6.706	-6.634	-7.094	-6.735	-6.692	-7.407	-7.163	-7.083	-7.157	-7.102	-7.161	-6.970	-6.830	-7.159	-6.915	-7.018	-7.138	-6.957	-7.007	-7.510	-7.317	-7.147	-7.236	-7.628	-7.827	-8.042
345.0	-475.1	-212.3	-34.16	6.780	13.34	15.66	75.51	106.8	170.4	218.6	319.8	394.7	452.3	463.9	401.6	314.6	246.3	300.3	350.8	136.4	71.05	87.74	153.2	833.4	 4935	9999.9	 1498	46.81	-10.97	-12.60	-13.59	-13.30	-12.18	-11.97	-11.16	-9.999	-10.48	-9.956	-9.865	-9.514	-9.259	-9.146	-9.245	-8.810	-7.882	-7.719	-6.946	-6.939	-5.864	-5.635	-5.653	-6.770	-6.492	-6.906	-6.652	-6.865	-7.342	-7.036	-7.196	-6.828	-7.225	-7.046	-6.921	-7.324	-7.119	-6.883	-7.025	-7.238	-7.087	-6.986	-7.375	-7.385	-7.403	-7.465	-7.503	-7.981	-8.148
350.0	-493.6	-208.6	-23.15	50.99	27.15	66.34	105.5	128.5	172.3	243.7	317.2	372.8	424.3	442.1	396.7	320.2	251.0	225.3	295.2	287.0	143.8	79.21	76.82	213.4	 1181	 4604	 7931	 4586	86.67	-9.550	-12.12	-11.74	-11.51	-11.66	-11.28	-10.07	-10.27	-9.714	-9.532	-9.488	-9.278	-9.406	-9.137	-8.802	-8.073	-7.853	-6.819	-6.843	-6.106	-5.563	-5.603	-6.614	-6.350	-6.893	-6.589	-6.963	-7.314	-7.022	-7.089	-7.100	-7.325	-7.028	-6.957	-7.213	-6.854	-6.945	-7.143	-7.132	-7.238	-6.888	-7.328	-7.203	-7.462	-7.471	-7.744	-7.750	-8.193
355.0	-519.1	-205.1	-29.86	47.55	84.54	112.7	152.3	170.7	196.4	235.0	321.9	360.2	411.5	432.0	397.4	344.7	274.4	233.8	223.9	271.4	290.1	131.3	79.28	96.28	294.0	 1049	 2650	 8749	 6400	124.4	-8.821	-10.99	-10.84	-11.12	-11.20	-10.15	-10.13	-9.512	-9.565	-9.333	-9.372	-9.250	-9.374	-8.481	-8.093	-7.861	-6.795	-6.729	-6.303	-5.385	-5.534	-6.516	-6.405	-6.805	-6.620	-6.766	-7.406	-6.965	-6.912	-6.945	-7.289	-7.013	-7.094	-6.922	-6.919	-7.176	-7.064	-7.091	-7.198	-6.937	-7.105	-7.066	-7.555	-7.329	-7.504	-7.883	-8.200
360.0	-475.1	-189.6	20.34	59.41	110.9	130.3	174.4	181.2	220.2	249.2	316.8	349.5	398.6	408.5	388.3	348.1	297.9	251.6	225.3	221.0	312.6	242.9	109.7	82.90	111.7	262.8	621.7	 3664	9999.9	 4630	79.88	-9.407	-9.874	-10.85	-10.81	-9.633	-9.378	-9.619	-9.558	-9.369	-9.217	-9.068	-9.442	-8.735	-8.065	-7.829	-6.960	-6.793	-6.389	-5.340	-5.263	-6.574	-6.389	-6.888	-6.707	-6.881	-7.253	-7.141	-7.285	-7.056	-6.639	-6.761	-7.328	-7.165	-6.830	-7.341	-7.158	-7.089	-7.104	-7.026	-7.215	-6.640	-7.320	-7.367	-7.551	-7.806	-8.117
365.0	-533.8	-216.1	-12.63	69.83	135.4	128.3	188.4	190.9	196.9	262.9	315.2	362.2	391.2	415.7	388.8	352.9	313.6	269.9	241.4	225.6	261.7	319.9	177.8	98.47	87.93	104.2	167.3	883.3	 5178	9999.9	 1308	35.41	-9.110	-10.60	-10.16	-9.827	-9.533	-9.709	-9.343	-9.600	-9.077	-9.096	-8.976	-8.555	-7.947	-7.731	-6.855	-6.660	-6.337	-5.258	-5.402	-6.698	-6.284	-6.597	-6.409	-6.642	-7.149	-7.031	-7.306	-7.104	-7.096	-6.854	-6.966	-6.777	-6.941	-7.128	-7.058	-7.230	-7.288	-7.398	-6.870	-7.159	-7.298	-7.371	-7.538	-7.813	-8.028
370.0	-555.3	-207.6	-23.66	90.55	138.4	193.3	219.6	224.2	224.6	280.2	308.7	352.8	383.9	389.7	386.2	350.8	321.6	296.7	270.7	246.4	239.3	274.5	282.6	177.6	105.1	88.05	82.96	227.3	 1253	 4822	 8036	 4296	65.78	-8.135	-9.026	-8.977	-9.504	-9.420	-9.270	-9.456	-9.027	-8.797	-9.047	-8.572	-8.337	-7.717	-6.836	-6.962	-6.189	-5.566	-5.351	-6.210	-6.228	-6.616	-6.302	-6.797	-6.975	-7.157	-7.086	-7.092	-7.009	-7.057	-6.850	-7.002	-7.092	-7.135	-7.180	-7.083	-7.016	-7.251	-6.847	-7.073	-7.334	-7.330	-7.592	-7.613	-8.178
375.0	-566.0	-264.3	-55.00	104.4	166.6	197.5	251.6	258.0	252.9	299.4	281.3	327.0	373.4	395.8	392.6	347.7	342.7	313.6	296.0	272.6	258.1	242.1	270.2	291.4	173.9	106.8	86.07	96.86	308.1	 1096	 2883	 9045	 5582	93.46	-7.498	-8.060	-9.019	-8.954	-8.555	-9.284	-8.596	-8.995	-9.028	-8.728	-7.935	-7.797	-6.984	-6.895	-6.173	-5.450	-5.422	-6.363	-6.361	-6.511	-6.284	-6.496	-6.986	-7.035	-7.112	-7.012	-6.985	-6.776	-7.070	-7.000	-7.168	-7.081	-7.485	-6.854	-7.028	-7.344	-6.842	-7.207	-7.363	-7.045	-7.632	-7.604	-7.668
380.0	-546.9	-309.2	-36.73	68.10	209.8	221.0	254.5	275.2	242.2	280.0	305.2	337.2	364.9	403.0	375.4	373.5	346.6	329.8	315.2	292.8	277.0	248.1	238.7	300.9	238.7	137.1	99.69	79.09	108.2	269.0	675.0	 4081	9999.9	 3740	53.50	-6.695	-8.411	-7.880	-8.800	-8.926	-8.688	-8.865	-8.939	-8.467	-8.441	-7.769	-6.987	-6.977	-6.120	-5.585	-5.329	-6.093	-6.129	-6.541	-6.401	-6.523	-7.002	-6.843	-6.707	-6.906	-7.142	-6.923	-7.131	-7.067	-7.188	-6.799	-7.313	-7.201	-7.383	-7.386	-7.316	-7.296	-7.264	-7.340	-7.172	-7.686	-7.624
385.0	-556.6	-256.3	-87.24	78.79	168.2	242.4	273.6	260.9	278.0	273.2	317.2	341.3	368.1	397.0	376.6	371.2	350.1	342.2	324.1	314.6	291.1	267.5	243.7	262.7	306.9	200.9	120.1	86.55	76.32	93.04	171.8	996.8	 5671	 9282	966.5	15.40	-6.757	-7.396	-8.202	-8.897	-8.483	-8.676	-8.766	-8.409	-8.154	-7.627	-6.942	-7.041	-6.356	-5.565	-5.246	-6.265	-6.072	-6.560	-6.480	-6.814	-6.919	-6.659	-7.065	-6.798	-7.133	-6.727	-7.027	-7.007	-6.801	-7.150	-7.253	-6.918	-7.273	-7.276	-7.232	-7.092	-7.118	-7.029	-7.212	-7.575	-7.849
390.0	-531.6	-275.1	-62.06	90.34	201.3	228.9	254.7	277.3	289.9	297.4	292.4	343.2	347.2	367.6	365.5	368.8	354.5	340.3	332.8	323.9	306.8	287.0	265.8	246.2	270.8	276.1	180.3	114.7	89.41	71.57	71.87	242.8	 1400	 4790	 6929	 3183	47.50	-6.346	-7.643	-8.394	-8.269	-8.383	-8.683	-8.190	-8.058	-7.670	-6.977	-6.778	-6.049	-5.334	-5.158	-6.354	-6.201	-6.536	-6.226	-6.518	-6.753	-6.703	-7.020	-6.883	-7.033	-7.010	-7.152	-7.090	-7.124	-7.085	-7.064	-7.051	-7.358	-7.394	-7.106	-7.156	-7.205	-7.147	-7.247	-7.567	-7.846
395.0	-514.1	-263.9	-78.13	67.69	190.2	231.5	224.0	297.4	302.1	312.2	300.9	326.5	348.3	357.9	359.5	359.3	355.4	350.5	338.7	326.7	318.8	295.4	278.5	256.7	248.6	254.0	265.0	172.8	111.4	83.33	63.16	86.68	332.2	 1084	 2834	 7844	 4074	63.99	-6.048	-7.329	-7.595	-8.322	-8.624	-8.056	-7.822	-7.352	-6.593	-6.648	-6.116	-5.244	-5.049	-6.484	-6.117	-6.352	-6.491	-6.499	-6.623	-6.533	-6.660	-7.095	-7.029	-6.897	-7.229	-7.304	-6.936	-7.191	-7.225	-7.334	-6.988	-7.098	-7.333	-7.099	-7.201	-7.341	-7.064	-7.519	-7.465
400.0	-564.7	-285.8	-62.56	56.07	189.3	236.7	272.7	284.5	313.0	310.9	318.9	333.6	345.3	360.9	357.4	359.5	349.9	345.2	331.1	328.8	320.0	300.5	290.9	269.8	249.1	232.4	271.1	242.6	141.9	99.17	73.29	59.91	102.5	258.3	671.8	 3951	 8023	927.3	36.28	-6.467	-7.054	-8.388	-8.052	-8.000	-7.864	-7.307	-6.681	-6.559	-6.025	-5.205	-5.314	-6.389	-6.177	-6.581	-6.389	-6.322	-6.771	-6.770	-6.839	-6.858	-7.208	-6.955	-7.306	-7.200	-6.750	-6.829	-7.114	-7.243	-7.285	-7.279	-7.284	-7.181	-7.326	-7.437	-7.260	-7.643	-7.542
405.0	-584.5	-339.8	-58.77	68.26	182.6	250.1	279.3	263.7	292.6	299.5	317.1	333.4	343.7	355.3	364.0	359.4	344.7	337.1	331.9	325.5	325.8	305.0	296.0	272.7	259.1	232.4	242.6	268.6	193.1	118.7	86.10	62.54	57.68	78.70	162.4	990.0	 4928	 6872	784.8	11.60	-6.539	-8.012	-7.747	-7.886	-7.974	-7.718	-6.601	-6.456	-5.797	-5.117	-5.224	-6.238	-6.249	-6.698	-6.317	-6.529	-6.585	-6.756	-6.901	-6.936	-6.861	-6.995	-7.194	-7.351	-6.884	-6.745	-7.124	-7.284	-7.109	-7.239	-6.970	-7.019	-7.396	-7.588	-7.487	-7.680	-7.668
410.0	-569.5	-298.9	-82.00	64.00	152.3	224.4	257.5	265.0	276.5	310.9	323.8	314.0	343.1	355.3	356.2	346.8	333.8	327.7	334.6	325.0	319.9	307.2	296.6	280.4	264.3	244.8	228.6	238.9	241.5	172.4	111.9	79.40	59.39	48.76	55.89	233.0	 1242	 4001	 5560	 2604	40.13	-5.831	-7.363	-7.542	-7.238	-7.519	-6.520	-6.683	-5.972	-5.211	-5.331	-6.295	-6.294	-6.634	-6.315	-6.474	-6.685	-6.783	-6.846	-6.765	-6.680	-6.995	-7.098	-7.400	-7.153	-7.022	-6.959	-7.126	-7.138	-7.208	-7.129	-7.300	-7.183	-7.540	-7.379	-7.618	-7.867
415.0	-614.9	-300.5	-73.10	62.80	135.7	204.7	256.1	259.3	289.4	304.1	314.0	328.8	339.6	329.6	332.5	335.4	322.8	318.5	318.7	313.6	309.7	302.1	291.9	278.0	267.8	252.4	239.2	219.2	221.3	233.4	152.2	98.71	69.89	51.74	39.31	69.02	286.7	903.7	 2360	 6113	 3171	58.94	-5.865	-6.969	-7.300	-7.049	-6.452	-6.832	-6.014	-5.282	-5.250	-6.329	-6.154	-6.473	-6.259	-6.548	-6.923	-7.176	-7.108	-7.054	-6.954	-7.007	-7.148	-7.145	-7.253	-7.212	-7.011	-7.060	-7.012	-7.178	-7.245	-7.219	-7.154	-7.597	-7.670	-7.541	-7.775
420.0	-613.7	-322.5	-162.3	31.01	120.1	223.4	250.7	275.7	303.5	324.7	303.5	333.3	315.2	322.7	323.5	322.8	310.0	308.1	310.3	301.2	300.0	291.4	291.0	279.2	267.9	256.4	237.7	218.3	205.5	228.0	201.4	122.9	80.69	60.71	42.24	37.11	76.63	209.7	560.7	 3083	 6283	828.3	25.84	-6.597	-6.732	-6.963	-6.412	-6.278	-5.873	-5.183	-5.477	-6.144	-6.144	-6.474	-6.352	-6.790	-6.488	-6.916	-6.960	-7.011	-6.964	-7.105	-7.194	-6.907	-7.174	-7.508	-7.238	-7.350	-7.116	-7.199	-7.473	-7.377	-7.179	-7.346	-7.556	-7.542	-7.979
425.0	-570.4	-274.4	-121.1	26.39	130.1	200.3	255.8	283.8	324.3	336.5	316.0	334.2	323.6	317.4	314.2	301.8	302.2	298.3	297.7	297.3	290.4	288.7	280.7	274.4	273.0	253.7	238.3	224.7	208.7	203.2	223.9	161.1	95.61	70.87	49.25	35.23	35.10	57.41	131.6	769.8	 3824	 5333	672.2	1.325	-6.192	-6.375	-6.011	-6.480	-5.799	-5.124	-5.385	-6.129	-5.899	-6.288	-6.486	-6.445	-6.677	-6.789	-6.982	-7.211	-7.036	-6.973	-7.096	-6.700	-7.015	-7.310	-7.178	-7.317	-7.244	-7.357	-7.319	-7.547	-7.336	-7.118	-7.858	-7.872	-7.991
430.0	-408.0	-324.4	-109.1	14.00	113.7	188.8	243.6	279.1	312.5	325.6	314.0	328.1	330.1	320.2	298.5	297.2	286.2	282.5	283.6	281.1	280.3	278.9	276.2	270.9	266.7	256.8	242.6	232.0	210.2	199.1	199.6	192.2	137.8	83.86	58.82	41.97	32.42	27.47	38.83	177.3	958.4	 3028	 4354	 1709	32.60	-5.512	-5.719	-6.237	-6.000	-4.945	-5.152	-6.203	-5.942	-6.496	-6.382	-6.360	-6.712	-6.814	-6.806	-6.964	-7.004	-7.090	-7.123	-6.983	-6.978	-7.074	-7.273	-7.409	-7.528	-7.231	-7.258	-7.460	-7.305	-7.289	-7.697	-7.916	-7.991
435.0	89.47	-319.0	-169.5	2.141	116.7	190.3	204.7	280.5	295.0	323.2	326.9	337.3	334.0	300.5	302.7	283.4	270.9	272.9	270.4	267.9	268.6	266.5	267.7	263.7	265.3	260.5	244.8	235.8	222.8	205.5	188.3	182.5	177.7	118.0	71.74	52.11	39.05	27.33	23.07	48.25	219.3	682.2	 1904	 5057	 2555	43.81	-4.675	-5.735	-5.188	-4.760	-4.993	-6.265	-6.133	-6.421	-6.424	-6.525	-6.627	-6.948	-7.033	-6.629	-6.618	-7.124	-7.016	-6.967	-6.686	-7.305	-7.159	-7.279	-7.253	-7.105	-7.181	-7.654	-7.390	-7.459	-7.349	-7.894	-7.984
440.0	356.0	-102.1	-157.2	-29.33	105.6	158.1	234.0	254.8	313.2	330.1	330.8	317.9	314.5	286.5	294.9	271.1	258.9	257.1	260.6	256.7	268.8	248.0	261.9	262.6	260.8	251.5	247.8	234.1	224.5	207.4	187.6	167.2	172.6	147.3	88.40	59.40	43.86	31.62	21.91	22.31	56.78	156.7	450.8	 2807	 5471	723.5	17.24	-5.031	-5.205	-4.409	-4.962	-6.159	-5.996	-6.645	-6.295	-6.443	-6.911	-6.758	-6.710	-6.727	-6.598	-6.841	-6.894	-6.827	-7.110	-6.992	-7.249	-7.399	-7.166	-6.977	-7.463	-7.607	-7.365	-7.303	-7.601	-8.117	-8.005
445.0	384.6	472.8	-152.3	-25.43	93.79	148.4	204.7	267.0	301.4	339.9	349.7	311.3	314.4	301.4	280.3	265.4	247.6	251.0	243.2	246.0	250.2	241.0	250.0	249.4	253.1	248.4	243.5	238.0	221.7	208.5	186.8	164.7	155.6	161.1	111.7	69.95	50.64	36.85	24.67	19.98	21.38	40.25	103.4	720.5	 3637	 4778	517.3	0.355	-4.655	-4.474	-4.697	-6.248	-5.898	-6.425	-6.279	-6.453	-6.726	-6.778	-6.935	-6.736	-6.821	-6.859	-7.146	-7.152	-7.090	-7.284	-6.967	-7.153	-7.288	-7.502	-7.569	-7.535	-7.460	-7.139	-7.807	-7.973	-7.991
450.0	-232.6	984.0	227.1	-40.18	71.64	120.0	189.3	246.3	271.7	308.0	337.5	316.0	301.5	283.2	268.1	248.6	238.5	231.1	229.1	226.6	231.5	227.4	233.4	235.6	239.4	234.7	231.6	227.5	219.5	204.8	189.6	165.5	144.7	139.1	130.3	90.38	56.29	42.46	30.76	23.15	17.71	16.37	27.09	163.5	927.8	 3018	 4135	 1500	25.39	-3.868	-4.363	-5.651	-5.532	-6.294	-6.135	-6.537	-6.807	-6.775	-6.717	-6.873	-6.726	-6.818	-6.917	-7.080	-7.133	-7.203	-6.971	-7.173	-6.933	-7.391	-7.530	-7.524	-7.648	-7.377	-7.691	-7.886	-8.246
455.0	-578.9	433.7	 1195	-5.167	20.90	118.3	168.5	245.4	251.6	292.2	310.2	294.2	273.1	258.3	243.5	226.1	219.6	208.3	211.5	204.7	208.5	208.4	213.4	212.4	221.3	214.8	213.7	214.6	208.0	196.9	186.9	164.6	144.6	121.4	118.5	109.8	74.58	46.49	35.53	25.82	18.64	13.95	12.09	40.16	208.8	682.3	 1917	 4631	 1970	29.80	-4.021	-5.006	-5.379	-6.151	-6.158	-6.363	-6.672	-6.546	-6.558	-6.827	-6.730	-6.925	-7.114	-7.033	-6.863	-7.388	-7.058	-7.292	-7.022	-7.171	-7.459	-7.333	-7.791	-7.463	-7.846	-7.954	-8.284
460.0	-654.4	-152.7	 1594	346.5	-7.432	75.19	156.4	210.8	245.2	257.4	300.1	280.6	271.2	245.1	229.5	217.3	200.4	195.6	192.9	193.2	194.2	196.8	197.1	199.4	205.9	206.2	205.0	202.1	197.4	187.2	177.8	161.5	139.2	117.4	101.2	104.2	91.58	56.01	38.04	29.03	18.78	13.59	9.996	13.27	49.07	153.7	460.8	 2662	 4519	503.8	12.87	-4.601	-5.254	-5.950	-6.159	-6.496	-6.675	-6.772	-6.991	-6.916	-6.564	-6.802	-7.315	-7.207	-6.896	-7.237	-7.374	-7.171	-7.426	-7.640	-7.343	-7.696	-7.439	-7.456	-7.741	-8.104	-8.604
465.0	-644.5	-354.8	 1116	 1002	13.39	53.78	135.4	197.8	229.4	262.3	266.0	252.6	248.0	218.3	218.0	202.2	193.9	179.6	182.7	174.5	181.5	176.3	188.3	187.8	195.4	192.1	192.7	187.6	192.3	182.5	170.5	155.4	136.0	115.1	98.83	91.68	96.30	65.46	39.59	30.70	22.15	14.96	10.76	9.396	13.58	36.81	105.1	693.2	 3163	 3610	418.4	-0.966	-4.994	-5.997	-6.118	-6.147	-6.747	-6.371	-6.815	-6.740	-6.852	-6.895	-7.018	-7.166	-7.084	-7.308	-7.232	-7.502	-7.582	-7.323	-7.442	-7.738	-7.546	-7.347	-7.593	-8.121	-8.464
470.0	-655.0	-440.9	214.2	 1544	500.1	37.07	98.19	149.3	189.4	226.4	234.3	236.5	216.1	201.0	194.0	182.3	170.9	167.3	158.1	152.7	155.8	159.9	162.9	166.0	170.9	174.2	174.3	168.8	169.8	164.3	158.4	142.4	125.4	107.4	91.70	77.81	77.42	73.40	49.92	33.44	23.67	17.28	11.58	10.17	6.825	11.03	25.16	155.6	810.5	 2369	 2888	 1073	20.80	-5.463	-5.713	-5.952	-6.570	-6.624	-6.871	-6.949	-6.923	-6.931	-6.949	-7.374	-7.307	-7.283	-7.173	-7.258	-7.761	-7.588	-7.651	-7.523	-7.671	-7.715	-7.911	-8.343	-8.179
475.0	-680.4	-471.0	-229.2	749.4	 1542	64.32	68.52	110.8	168.6	181.8	209.3	209.9	193.4	179.1	176.2	158.8	145.8	141.2	138.8	137.9	138.4	135.3	138.0	148.2	148.1	150.2	153.8	147.9	150.1	146.4	142.1	129.7	115.4	100.5	85.57	74.20	65.21	64.12	60.52	41.69	25.11	18.23	12.86	11.12	7.052	6.156	7.761	35.59	180.4	534.3	 1323	 3051	588.0	27.94	-5.448	-6.129	-6.952	-6.346	-6.854	-7.114	-6.995	-7.236	-7.171	-7.267	-7.160	-7.549	-7.156	-7.454	-7.572	-7.505	-7.467	-7.647	-7.690	-7.763	-7.895	-8.216	-8.161
480.0	-671.3	-499.7	-315.6	150.0	 1737	471.2	58.24	98.11	144.0	177.6	192.3	188.3	175.1	161.9	154.3	135.1	132.0	123.9	123.8	126.7	127.7	124.9	126.8	135.0	133.2	135.8	140.1	138.7	138.9	135.5	133.6	118.4	109.9	94.29	82.32	70.20	58.79	53.39	55.97	49.56	29.65	18.12	15.04	12.18	7.081	5.791	3.906	9.181	40.94	119.3	316.6	 1696	 2940	531.5	6.066	-5.938	-6.328	-6.197	-6.552	-6.864	-7.062	-7.247	-7.262	-7.266	-7.221	-7.598	-7.438	-7.518	-7.616	-7.898	-7.646	-7.776	-7.735	-8.024	-7.987	-8.362	-8.523
485.0	-720.2	-503.8	-360.1	-110.9	 1224	 1207	58.42	81.29	116.2	148.5	155.9	177.3	160.3	147.0	138.0	122.2	119.1	110.9	113.7	115.8	114.6	114.5	112.0	123.4	122.1	125.9	129.9	133.5	131.8	124.8	125.2	114.9	102.3	92.32	76.87	67.14	56.28	48.70	48.29	50.08	36.31	21.75	16.16	11.74	7.857	5.843	3.996	4.266	9.976	27.10	70.78	438.1	 2154	 2712	74.06	-3.077	-5.954	-6.360	-6.662	-6.786	-7.150	-7.036	-6.985	-7.230	-7.249	-7.468	-7.494	-7.596	-7.470	-7.966	-7.662	-7.976	-7.967	-7.980	-8.096	-8.270	-8.773
490.0	-768.2	-507.5	-338.3	-204.3	297.8	 1629	596.3	60.09	97.03	118.2	136.3	149.9	138.3	135.6	124.4	116.8	109.3	107.6	100.3	102.9	101.9	104.1	105.9	109.0	109.9	115.1	117.0	117.5	117.6	114.9	112.0	104.9	93.80	82.63	74.80	64.19	55.19	45.87	42.35	43.00	42.03	29.49	17.05	11.89	9.700	6.827	5.156	3.393	4.500	6.935	15.92	96.21	551.0	 1717	 2234	900.2	21.07	-5.834	-6.473	-6.792	-6.750	-7.174	-7.052	-7.477	-7.407	-7.482	-7.415	-7.573	-7.615	-7.904	-7.747	-7.859	-7.971	-7.948	-7.969	-8.282	-8.702
495.0	-756.7	-549.2	-322.4	-208.8	-63.79	796.8	 1649	107.7	67.18	95.77	104.2	121.3	120.8	115.7	103.5	100.6	90.76	90.87	87.20	90.97	88.71	88.29	93.32	94.75	96.79	101.2	100.9	102.1	104.4	102.5	101.2	97.33	87.68	75.91	68.86	57.39	50.27	43.61	36.92	33.42	35.68	34.88	21.71	13.00	9.600	7.851	6.255	5.024	3.553	2.931	4.001	19.95	120.6	384.2	 1071	 2748	633.5	27.05	-6.236	-6.764	-6.921	-7.117	-7.273	-7.360	-7.256	-7.651	-7.504	-7.651	-7.698	-7.823	-7.907	-7.882	-7.731	-8.011	-8.132	-8.410	-8.589
500.0	-755.3	-557.2	-330.4	-214.1	-138.3	199.1	 1918	571.8	51.58	96.21	90.41	103.1	106.1	98.25	86.92	87.25	75.37	83.23	76.87	77.24	79.57	75.93	83.47	84.82	82.83	90.00	93.83	96.83	96.01	91.93	89.91	87.22	79.25	71.26	62.89	54.27	47.99	39.08	34.65	31.21	28.43	32.69	27.12	16.56	10.20	8.166	7.283	4.385	3.146	2.065	0.962	2.907	24.76	83.28	252.4	 1530	 2739	530.1	5.956	-6.593	-6.709	-6.971	-7.238	-7.440	-7.319	-7.443	-7.595	-7.649	-7.692	-7.995	-8.085	-7.967	-7.840	-7.768	-8.169	-8.634	-8.495
505.0	-786.3	-585.7	-355.8	-236.3	-159.8	-29.12	 1225	 1519	71.96	54.97	89.90	80.77	78.91	81.77	75.87	71.00	70.20	70.68	65.67	67.80	71.01	72.11	73.25	75.77	75.50	80.26	81.11	82.96	83.99	83.82	83.08	77.90	71.41	63.27	55.42	50.12	43.37	37.84	32.81	28.46	24.84	25.89	28.45	19.29	10.69	7.397	6.928	3.988	3.113	2.962	0.593	-0.845	3.969	16.13	53.59	390.5	 1941	 2521	78.75	-3.830	-6.342	-6.917	-7.222	-7.146	-7.473	-7.827	-7.528	-7.936	-7.675	-7.901	-7.929	-8.069	-8.031	-7.897	-7.943	-8.296	-8.775
510.0	-802.5	-619.5	-393.3	-212.1	-164.5	-107.1	329.7	 1809	757.7	40.07	62.86	74.97	66.76	65.47	62.62	61.51	59.87	59.43	53.61	58.40	59.55	58.94	62.25	66.31	63.69	69.23	69.27	71.69	70.67	71.82	71.76	70.26	62.23	55.50	50.37	43.46	38.60	33.47	30.05	25.28	21.50	19.60	22.14	22.35	15.51	8.696	6.142	4.369	3.171	2.355	1.198	-1.305	-0.836	0.761	8.679	84.04	493.7	 1540	 1948	732.9	18.17	-6.709	-7.001	-7.273	-7.336	-7.577	-7.524	-7.871	-7.791	-7.914	-7.872	-7.998	-8.037	-8.001	-8.112	-8.484	-8.798
515.0	-853.4	-606.7	-435.9	-255.3	-171.7	-130.6	7.519	838.2	 1915	187.7	34.77	42.25	44.33	51.68	48.83	53.47	46.97	42.58	41.40	45.47	41.24	46.39	48.90	54.75	51.26	56.30	55.38	61.53	60.01	63.82	58.89	57.02	51.69	46.26	41.65	37.29	32.49	28.09	24.70	23.30	18.79	15.82	15.39	17.22	16.87	11.03	6.526	4.551	2.607	2.188	1.273	-0.900	-1.262	-2.432	-1.050	15.22	105.9	342.3	879.7	 2202	600.6	19.31	-6.663	-7.246	-7.435	-7.393	-7.256	-8.040	-7.647	-8.009	-8.074	-8.008	-7.885	-7.927	-8.275	-8.665	-8.637
520.0	-806.1	-632.1	-447.6	-303.0	-176.6	-153.6	-88.46	189.2	 1993	847.2	31.96	30.78	27.39	36.52	37.99	37.95	35.81	36.14	34.55	37.58	37.45	43.37	41.54	46.20	45.21	46.03	49.62	52.72	53.04	54.58	49.90	48.94	46.33	41.23	36.61	33.75	29.65	26.14	21.73	20.60	16.42	14.83	11.99	13.27	16.64	14.68	7.638	4.117	2.599	2.464	0.992	-1.014	-1.799	-3.083	-3.405	-0.234	20.03	72.43	205.6	 1201	 2055	463.0	1.381	-7.113	-7.352	-7.757	-7.618	-7.924	-7.834	-7.983	-8.137	-7.982	-7.898	-8.181	-8.456	-8.414	-8.773
525.0	-884.0	-647.2	-457.7	-326.2	-199.6	-133.1	-110.9	-23.34	 1144	 1726	67.35	16.58	27.28	12.63	29.09	30.18	27.92	30.08	28.45	29.53	32.32	31.62	30.99	34.72	39.87	44.57	43.41	43.74	45.43	46.45	45.93	44.29	41.75	37.12	33.50	30.04	25.23	22.28	20.07	17.48	14.32	12.42	10.14	9.336	13.40	14.91	9.528	4.713	2.474	1.963	0.882	-1.405	-2.303	-2.990	-3.396	-3.539	0.589	12.19	42.06	300.6	 1393	 1801	74.91	-5.638	-7.349	-7.698	-7.586	-7.694	-7.760	-7.807	-8.260	-8.182	-7.867	-7.996	-8.603	-8.536	-8.872
530.0	-844.1	-672.3	-468.0	-351.6	-232.1	-121.5	-121.5	-82.46	275.9	 1896	902.6	4.273	8.537	7.846	19.99	17.71	19.09	19.29	22.33	23.75	23.99	25.31	26.74	28.63	31.95	33.43	35.98	34.47	37.91	37.78	37.18	37.74	33.60	31.08	28.48	24.86	22.07	19.17	18.40	14.75	12.49	10.17	8.533	8.230	7.971	10.46	11.14	6.366	2.760	1.577	0.621	-1.692	-2.598	-3.442	-3.366	-4.339	-3.934	-1.657	5.352	62.64	346.8	 1062	 1354	347.7	14.17	-7.471	-7.565	-7.850	-7.885	-8.057	-8.082	-8.163	-8.100	-8.177	-8.498	-8.617	-8.955
535.0	-859.8	-648.7	-486.9	-357.0	-264.6	-151.9	-130.5	-104.7	-1.777	717.8	 2211	198.0	-6.965	0.231	5.947	8.867	7.555	8.930	13.55	18.32	16.73	20.82	21.37	22.09	21.41	25.69	25.82	26.90	29.23	30.88	29.50	29.14	28.43	25.37	21.88	19.85	17.36	14.12	14.98	11.79	10.26	8.871	6.746	4.312	4.657	4.800	8.613	8.413	3.715	1.461	-0.012	-2.268	-2.777	-3.440	-3.650	-4.369	-5.083	-4.694	-3.376	9.731	72.70	233.3	589.9	 1458	527.3	11.41	-7.573	-7.664	-7.973	-8.074	-8.323	-8.252	-8.095	-8.072	-8.518	-8.689	-9.031
540.0	-828.1	-677.3	-515.6	-360.9	-261.7	-180.9	-102.8	-106.5	-65.32	121.6	 2002	953.1	-16.51	-2.727	-0.456	1.225	1.101	4.685	7.343	11.28	12.34	10.21	14.10	17.47	19.11	20.74	20.95	22.20	23.40	25.22	23.15	23.77	21.90	21.00	19.13	16.45	13.73	11.17	12.14	8.797	9.143	6.211	5.031	5.229	3.337	1.882	5.444	7.677	5.688	1.685	-0.174	-2.430	-2.646	-3.941	-4.198	-4.342	-5.565	-5.213	-5.268	-2.222	11.87	47.08	134.3	780.6	 1425	367.9	-2.570	-7.652	-7.895	-7.981	-8.146	-7.859	-8.283	-8.153	-8.479	-8.710	-8.883
545.0	-850.6	-676.6	-494.1	-361.5	-286.4	-191.0	-109.8	-108.7	-97.40	-34.50	 1028	 2017	41.50	-19.74	-10.72	-7.255	-3.465	1.055	2.643	6.794	9.390	8.972	8.338	13.88	13.08	14.96	15.63	19.47	18.84	19.88	20.19	18.15	16.67	16.25	16.39	14.62	10.91	9.516	9.396	7.038	7.008	4.165	3.000	3.510	2.514	1.019	2.104	4.716	6.421	2.277	-0.592	-2.860	-3.300	-3.974	-4.127	-4.827	-5.561	-5.285	-5.892	-5.393	-2.471	5.793	24.95	193.3	960.5	 1206	67.60	-6.849	-7.823	-8.125	-8.132	-8.131	-8.081	-8.240	-8.612	-8.809	-8.797
550.0	-860.1	-684.1	-522.4	-367.9	-302.1	-222.5	-138.9	-96.29	-115.3	-74.83	226.8	 1864	990.8	-19.93	-19.77	-13.05	-8.843	-6.789	-0.961	-0.099	3.849	4.884	3.828	7.823	7.511	9.498	11.13	11.15	13.18	13.66	13.42	12.66	12.20	11.16	10.35	11.09	7.152	7.300	6.064	4.791	3.866	3.137	2.068	1.139	0.494	-0.060	0.401	1.395	2.635	2.997	0.448	-3.156	-3.922	-4.511	-4.632	-5.067	-5.690	-5.598	-5.937	-6.147	-5.460	-3.650	0.323	37.97	238.6	725.0	793.9	289.7	5.935	-7.694	-8.072	-8.119	-8.088	-8.225	-8.485	-8.690	-8.750
555.0	-849.0	-700.1	-543.3	-387.4	-312.2	-243.0	-184.3	-93.14	-106.2	-101.7	-17.66	610.6	 2106	198.0	-29.18	-17.07	-15.31	-11.24	-8.164	-6.947	-3.572	-0.526	0.207	1.243	2.618	4.795	5.771	5.842	7.515	7.395	7.110	8.472	6.292	6.710	6.892	5.435	5.142	3.617	3.139	3.032	1.243	0.997	-0.528	-0.528	-0.933	-1.001	-1.012	-1.488	-0.120	1.761	1.246	-2.753	-3.923	-4.713	-4.913	-5.579	-5.804	-6.133	-5.964	-6.271	-6.141	-6.140	-5.342	2.694	47.71	157.6	383.1	951.2	354.0	0.249	-7.777	-8.194	-7.973	-8.292	-8.269	-8.707	-8.929
560.0	-828.0	-691.0	-534.1	-403.9	-309.7	-255.6	-196.3	-106.3	-100.5	-113.8	-76.88	97.08	 1773	794.3	-33.29	-26.67	-18.70	-16.73	-12.00	-10.58	-6.932	-6.306	-3.648	-2.976	-1.070	0.261	2.972	2.269	3.201	2.704	2.891	4.130	2.720	3.292	4.381	2.074	1.661	1.623	0.988	0.628	-0.250	-1.253	-2.525	-1.792	-2.231	-2.358	-1.561	-2.399	-2.337	0.527	0.588	-2.599	-4.020	-4.997	-5.293	-5.754	-6.223	-6.323	-6.107	-6.129	-6.286	-6.577	-6.489	-4.683	5.221	30.08	86.76	534.8	859.9	73.99	-6.170	-8.075	-8.231	-8.321	-8.261	-8.372	-9.035
565.0	-829.5	-708.9	-511.0	-394.5	-318.2	-257.5	-206.8	-132.3	-95.65	-111.6	-91.38	-30.31	839.0	 1828	26.51	-28.98	-21.53	-20.11	-15.50	-12.31	-9.877	-9.023	-7.016	-5.151	-2.994	-3.246	-1.445	-0.322	0.532	1.135	-0.279	0.819	0.683	0.127	0.964	1.435	-0.120	-0.638	-1.261	-1.202	-1.854	-2.209	-3.148	-2.738	-2.789	-3.177	-2.109	-3.281	-3.093	-1.352	-0.962	-2.187	-3.421	-5.053	-5.547	-6.094	-6.281	-6.384	-6.497	-6.164	-6.932	-6.812	-6.836	-6.632	-4.206	1.186	13.94	135.4	611.3	632.6	50.79	-7.533	-8.363	-8.185	-8.428	-8.804	-9.155
570.0	-876.7	-669.2	-530.1	-405.0	-321.3	-259.6	-215.9	-160.4	-98.31	-98.59	-102.2	-73.08	167.8	 1558	836.4	-26.41	-28.00	-23.53	-19.42	-15.91	-13.63	-11.88	-11.04	-8.853	-7.013	-6.112	-4.926	-3.683	-3.360	-2.778	-2.731	-1.543	-1.444	-2.084	-1.756	-2.006	-1.939	-2.765	-2.266	-2.702	-2.958	-3.596	-4.001	-4.175	-4.112	-4.423	-3.518	-4.138	-3.988	-2.939	-2.722	-3.031	-3.007	-5.212	-5.762	-6.202	-6.229	-6.356	-6.518	-6.165	-6.811	-6.926	-6.979	-6.792	-6.419	-5.314	-2.401	24.59	153.9	427.7	497.9	161.5	-1.518	-8.192	-8.398	-8.773	-9.090
575.0	-854.1	-699.3	-526.8	-417.6	-320.7	-268.3	-215.6	-178.5	-131.0	-77.93	-104.4	-85.86	-20.78	475.2	 1742	163.4	-30.75	-28.37	-23.63	-20.71	-17.70	-14.73	-12.27	-12.04	-10.83	-9.364	-7.984	-7.178	-6.551	-5.051	-5.314	-4.872	-4.728	-3.937	-4.220	-3.542	-3.571	-4.254	-4.121	-4.354	-4.048	-5.300	-5.494	-5.339	-5.376	-5.085	-4.458	-4.639	-4.484	-3.569	-3.769	-4.660	-3.635	-4.923	-5.682	-6.267	-6.605	-6.703	-6.952	-6.635	-6.828	-6.634	-7.186	-6.839	-7.100	-6.748	-6.430	-0.159	28.53	90.97	247.6	544.1	77.56	-4.727	-8.283	-8.772	-9.214
580.0	-848.4	-680.3	-512.6	-408.5	-323.3	-262.3	-227.8	-189.6	-149.0	-75.19	-97.23	-85.50	-60.75	70.73	 1445	565.4	-33.18	-28.90	-26.96	-21.39	-18.12	-16.38	-14.25	-13.15	-13.53	-10.56	-10.59	-8.218	-8.391	-6.574	-7.815	-6.399	-6.198	-6.533	-5.890	-4.749	-4.715	-5.187	-5.599	-5.259	-5.377	-5.902	-5.912	-5.791	-5.653	-5.901	-4.965	-5.208	-4.738	-3.970	-4.266	-5.169	-4.368	-4.605	-5.205	-6.423	-6.942	-6.991	-6.968	-6.928	-6.890	-6.827	-7.205	-7.204	-7.081	-7.140	-7.098	-5.861	0.382	14.44	55.07	323.4	460.2	58.35	-7.761	-8.697	-8.952
585.0	-803.9	-678.0	-535.7	-409.5	-319.8	-264.9	-229.1	-186.5	-155.0	-97.45	-77.50	-90.14	-68.53	-28.92	654.0	 1420	17.71	-31.46	-27.16	-21.89	-20.84	-18.37	-16.16	-15.46	-11.94	-12.18	-11.81	-9.854	-10.14	-8.673	-8.309	-7.262	-7.146	-6.970	-6.794	-5.288	-6.261	-6.193	-6.692	-6.301	-5.564	-6.796	-6.475	-6.296	-6.155	-6.402	-5.191	-5.873	-5.180	-4.247	-4.651	-5.682	-5.140	-5.125	-5.109	-6.278	-7.164	-6.679	-7.101	-6.947	-6.753	-7.036	-6.978	-7.469	-7.347	-7.434	-7.309	-7.187	-5.970	-2.606	6.446	81.40	360.3	362.1	35.31	-8.432	-9.114
590.0	-854.4	-693.8	-530.3	-404.2	-327.5	-272.1	-236.6	-192.8	-158.2	-123.1	-64.75	-85.13	-73.40	-50.15	128.7	 1186	597.4	-27.51	-27.19	-24.18	-22.47	-19.14	-18.00	-16.23	-14.49	-13.35	-12.16	-11.92	-11.27	-10.53	-10.30	-8.497	-8.628	-8.135	-7.723	-6.698	-6.761	-6.702	-7.169	-7.138	-6.610	-6.984	-7.380	-6.930	-6.742	-6.572	-5.943	-6.160	-5.557	-4.408	-4.881	-6.229	-5.981	-6.286	-4.965	-6.134	-6.755	-7.051	-7.133	-7.147	-7.109	-7.218	-7.183	-7.450	-7.250	-7.495	-7.301	-7.513	-7.337	-6.501	-4.537	12.10	90.11	255.2	288.9	45.14	-5.765
595.0	-867.9	-693.1	-539.2	-420.9	-328.8	-265.7	-235.9	-199.3	-164.7	-137.7	-81.62	-70.01	-75.14	-54.51	-9.014	353.8	 1242	97.13	-29.77	-25.62	-23.04	-20.57	-18.62	-17.52	-16.23	-14.59	-13.53	-12.93	-12.77	-12.12	-11.63	-10.15	-10.24	-9.409	-8.790	-7.344	-7.959	-7.549	-7.445	-7.527	-7.742	-7.666	-7.974	-7.552	-7.494	-7.220	-6.152	-6.404	-5.969	-5.020	-5.261	-6.305	-6.586	-6.856	-6.192	-6.155	-6.814	-6.976	-7.058	-7.368	-7.189	-7.416	-7.330	-7.496	-7.273	-7.637	-7.682	-7.403	-7.690	-7.323	-6.927	-3.499	14.19	51.80	147.5	308.6	68.11
600.0	-867.1	-693.0	-539.2	-404.7	-342.5	-272.6	-232.8	-200.5	-166.6	-146.3	-95.50	-57.99	-72.57	-58.84	-43.49	52.36	998.6	395.2	-29.15	-26.11	-24.19	-20.42	-19.98	-18.76	-16.87	-15.28	-14.67	-13.64	-13.24	-12.83	-12.48	-11.65	-10.91	-10.55	-8.617	-8.647	-7.864	-8.539	-8.110	-8.198	-8.055	-8.058	-7.938	-7.619	-7.656	-7.345	-6.485	-6.714	-5.835	-5.357	-5.223	-6.322	-6.700	-7.099	-6.257	-6.410	-6.708	-6.745	-7.025	-7.354	-7.355	-7.633	-7.417	-7.458	-7.374	-7.672	-7.425	-7.641	-7.879	-7.868	-7.696	-6.997	-3.044	5.176	30.81	194.9	270.0
605.0	-939.9	-712.5	-544.9	-402.4	-344.4	-270.3	-234.0	-201.3	-167.9	-147.2	-117.8	-57.18	-68.09	-60.79	-48.37	-20.07	443.9	977.6	3.297	-26.40	-23.34	-21.17	-20.24	-18.73	-17.29	-16.26	-14.99	-14.84	-14.25	-13.44	-12.36	-12.12	-10.75	-10.76	-8.830	-9.106	-8.718	-9.139	-8.494	-8.471	-8.156	-8.811	-8.087	-8.090	-7.280	-7.475	-6.878	-6.763	-6.012	-5.400	-5.392	-6.741	-6.545	-6.883	-6.673	-6.831	-6.466	-6.735	-7.166	-7.233	-7.792	-7.505	-7.718	-7.691	-7.371	-7.428	-7.542	-7.575	-8.063	-7.979	-7.997	-7.649	-6.744	-5.255	0.379	47.65	218.2
610.0	-897.6	-683.4	-538.3	-418.7	-340.2	-275.3	-230.4	-199.1	-172.4	-145.3	-120.4	-69.97	-49.97	-59.95	-52.01	-39.30	83.52	842.6	425.7	-25.01	-25.12	-22.93	-20.65	-18.69	-17.65	-16.70	-16.08	-15.14	-14.21	-14.07	-13.05	-12.73	-11.53	-10.76	-10.23	-8.993	-9.410	-9.249	-8.594	-8.659	-8.314	-8.707	-8.424	-8.396	-7.741	-7.981	-6.896	-6.886	-6.299	-5.493	-5.607	-6.866	-6.890	-7.125	-6.807	-7.272	-7.066	-6.807	-6.923	-7.296	-7.648	-7.658	-7.731	-7.600	-7.524	-7.693	-7.557	-7.618	-7.907	-7.889	-7.984	-7.937	-7.883	-7.601	-6.486	3.851	52.32
615.0	-914.0	-646.7	-541.8	-421.8	-332.1	-278.2	-231.2	-205.7	-171.5	-146.7	-123.9	-88.92	-45.99	-50.88	-51.30	-45.25	-13.15	258.1	921.8	64.95	-26.00	-23.34	-20.96	-20.10	-18.05	-17.57	-16.51	-15.10	-14.99	-15.24	-14.05	-13.62	-11.78	-11.36	-10.72	-9.453	-9.872	-9.320	-9.010	-9.259	-9.161	-8.837	-8.841	-8.596	-8.113	-8.201	-7.209	-7.267	-6.488	-5.597	-5.523	-7.171	-6.951	-7.235	-6.940	-7.239	-7.557	-7.332	-7.135	-7.302	-7.603	-7.563	-7.799	-7.808	-7.571	-7.836	-7.663	-7.711	-7.769	-8.140	-7.933	-8.136	-8.305	-8.138	-8.059	-5.611	4.871
620.0	-889.5	-668.4	-539.1	-412.4	-327.6	-270.9	-233.2	-202.9	-170.8	-141.0	-124.9	-96.44	-50.09	-41.76	-52.46	-48.59	-35.29	35.92	776.1	300.9	-24.14	-24.15	-21.39	-19.79	-18.56	-17.90	-16.66	-16.25	-15.26	-14.80	-14.30	-13.13	-12.48	-11.55	-10.86	-9.581	-9.646	-9.513	-9.184	-9.160	-9.215	-9.250	-9.080	-8.504	-8.412	-8.066	-7.117	-7.433	-6.665	-5.714	-5.754	-7.316	-7.093	-7.268	-7.102	-7.255	-7.659	-7.340	-7.127	-7.248	-7.438	-7.448	-7.800	-7.648	-7.842	-7.838	-7.875	-7.700	-7.913	-7.862	-8.119	-7.949	-8.199	-8.362	-8.340	-7.874	-5.673
625.0	-940.8	-698.4	-531.7	-422.8	-325.2	-272.5	-232.9	-197.9	-173.2	-143.7	-128.6	-96.16	-61.65	-31.13	-50.94	-45.59	-39.71	-20.55	357.4	750.6	-0.486	-24.21	-22.22	-20.84	-19.04	-18.34	-16.89	-16.39	-16.04	-15.49	-14.74	-12.95	-12.60	-11.71	-10.97	-10.04	-9.831	-9.711	-9.561	-9.491	-9.197	-9.231	-9.406	-8.821	-8.544	-8.261	-7.346	-7.618	-6.867	-5.616	-5.941	-6.818	-6.959	-7.319	-7.105	-7.439	-7.794	-7.532	-7.361	-7.228	-7.582	-7.671	-7.668	-7.485	-7.921	-7.988	-7.933	-7.787	-7.791	-8.024	-8.171	-8.082	-8.165	-8.428	-8.530	-8.569	-8.201
630.0	-857.8	-690.8	-540.8	-421.6	-332.7	-279.6	-228.8	-202.9	-172.9	-147.6	-128.1	-101.0	-72.63	-32.05	-43.72	-46.56	-40.63	-32.74	68.40	694.4	323.7	-21.81	-22.22	-21.26	-19.25	-18.52	-17.22	-16.49	-16.10	-15.76	-15.11	-13.81	-13.11	-12.13	-11.64	-10.42	-10.07	-10.06	-9.769	-9.624	-9.167	-9.429	-9.530	-9.165	-8.702	-8.554	-7.362	-7.861	-6.925	-5.862	-6.140	-7.154	-7.147	-7.589	-7.193	-7.415	-7.753	-7.743	-7.598	-7.445	-7.427	-7.703	-7.825	-7.882	-7.833	-7.809	-7.955	-8.009	-8.050	-7.997	-8.195	-8.091	-8.308	-8.404	-8.574	-8.769	-8.805
635.0	-855.8	-717.5	-527.2	-405.6	-332.3	-274.4	-238.0	-197.9	-178.9	-152.8	-129.9	-98.95	-74.53	-50.42	-28.84	-43.47	-40.41	-35.95	-10.52	222.3	728.8	44.68	-22.34	-21.14	-19.25	-18.73	-17.56	-16.81	-16.46	-16.07	-15.03	-14.38	-13.62	-12.53	-11.37	-10.28	-10.33	-10.07	-9.813	-9.587	-9.306	-9.230	-9.537	-9.033	-8.982	-8.794	-7.457	-8.032	-6.754	-5.985	-6.153	-7.284	-6.889	-7.636	-7.453	-7.729	-7.909	-7.842	-7.856	-7.622	-7.629	-7.643	-7.852	-7.828	-8.024	-7.811	-7.875	-8.000	-8.138	-8.121	-8.098	-8.228	-8.237	-8.475	-8.479	-8.712	-9.120
640.0	-848.3	-697.7	-536.8	-415.2	-331.2	-279.5	-236.9	-202.1	-176.0	-150.8	-124.9	-103.3	-75.58	-58.45	-26.71	-40.48	-40.93	-36.01	-27.75	34.23	651.1	235.4	-22.16	-20.80	-19.71	-18.69	-17.41	-16.61	-16.49	-15.68	-15.35	-14.59	-13.58	-12.70	-11.64	-10.22	-10.13	-10.21	-9.994	-9.808	-9.434	-9.434	-9.680	-9.231	-9.230	-8.741	-7.697	-7.964	-7.099	-5.967	-6.111	-7.217	-7.061	-7.542	-7.419	-7.550	-7.880	-7.792	-7.783	-7.784	-7.632	-7.780	-7.748	-7.880	-7.907	-7.849	-8.123	-7.972	-8.104	-8.178	-7.952	-8.317	-8.378	-8.292	-8.476	-8.877	-8.900
645.0	-868.2	-690.5	-550.6	-414.4	-336.6	-272.5	-233.8	-203.0	-171.7	-153.3	-123.8	-103.5	-82.14	-62.85	-35.73	-34.12	-42.16	-36.02	-31.06	-15.58	322.0	588.0	-6.480	-19.79	-20.04	-18.12	-18.23	-17.56	-16.56	-16.01	-15.75	-14.36	-13.66	-13.08	-11.56	-10.32	-10.32	-10.46	-9.754	-9.814	-9.338	-9.706	-9.472	-9.297	-9.117	-8.804	-7.751	-7.702	-7.203	-6.029	-6.097	-7.405	-7.289	-7.565	-7.453	-7.743	-7.588	-7.712	-7.804	-7.869	-7.981	-7.519	-7.825	-7.840	-8.097	-8.140	-8.195	-8.025	-8.040	-8.266	-8.210	-8.435	-8.317	-8.184	-8.438	-8.902	-9.034
650.0	-861.4	-704.4	-535.4	-420.1	-342.8	-275.2	-240.7	-203.2	-173.1	-156.2	-126.7	-102.4	-82.10	-63.03	-45.86	-31.23	-41.00	-35.62	-31.50	-26.98	76.55	674.5	113.0	-20.10	-19.72	-18.45	-18.13	-17.60	-16.96	-16.15	-15.35	-14.77	-13.71	-13.02	-11.65	-10.60	-10.31	-10.62	-10.03	-9.901	-9.033	-9.799	-9.537	-9.353	-9.159	-8.696	-7.768	-7.891	-7.045	-5.917	-6.193	-7.256	-7.314	-7.569	-7.281	-7.814	-7.886	-7.671	-7.863	-7.729	-7.873	-7.557	-7.831	-7.908	-8.018	-8.187	-8.202	-8.262	-8.212	-8.352	-8.393	-8.360	-8.440	-8.242	-8.555	-8.688	-8.965
