Sample:	'1
File name:	w01007´´»Ô¶þÔ°ÅÅË®5±¶.FD3
Run date:	'16:01:44, 04/11/2024
Operator:	Administrator
Comment:	'

Instrument
Model:	F-2700 FL Spectrophotometer
Serial number:	23B8-004
ROM Version:	4J14000 07

Instrument parameters
Measurement type:	3-D scan
Data mode:	Fluorescence
EX  Start WL:	220.0 nm
EX  End WL:	600.0 nm
EX Sampling interval:	5.0 nm
EM  Start WL:	230.0 nm
EM  End WL:	650.0 nm
EM Sampling interval:	5.0 nm
Scan speed:	12000 nm/min
EX Slit:	5.0 nm
EM Slit:	5.0 nm
PMT Voltage:	700 V
Response:	Auto 
Corrected spectra:	Off
Contour interval:	50.000

Peak integration
Integration method:	Rectangular
Sensitivity:	1
Threshold:	1.000

Peaks
No.	ApexEX/EM(nm)	Height(Data)
1	230.0/345.0	2858
2	230.0/495.0	363.7
3	235.0/510.0	285.0
4	240.0/260.0	356.9
5	240.0/520.0	246.6
6	245.0/270.0	345.9
7	245.0/380.0	2348
8	245.0/530.0	208.6
9	250.0/275.0	443.3
10	250.0/545.0	174.1
11	255.0/280.0	618.0
12	255.0/560.0	152.2
13	260.0/285.0	675.4
14	260.0/570.0	125.8
15	265.0/290.0	763.3
16	265.0/585.0	119.9
17	270.0/300.0	1063
18	270.0/600.0	95.78
19	275.0/305.0	1185
20	275.0/610.0	81.36
21	280.0/310.0	1020
22	280.0/625.0	70.54
23	285.0/320.0	1004
24	285.0/635.0	52.20
25	290.0/325.0	1023
26	330.0/375.0	385.4
27	335.0/380.0	376.1
28	365.0/420.0	160.1
29	380.0/440.0	95.97
30	400.0/300.0	4.764
31	400.0/465.0	45.27
32	405.0/295.0	4.968
33	410.0/475.0	28.99
34	415.0/485.0	25.12
35	420.0/490.0	20.77
36	425.0/495.0	18.58
37	430.0/505.0	16.07
38	435.0/510.0	13.32
39	440.0/515.0	11.77
40	445.0/525.0	10.47
41	450.0/530.0	8.043
42	455.0/535.0	7.088
43	460.0/345.0	9.377
44	460.0/545.0	5.727
45	475.0/360.0	9.015
46	475.0/565.0	2.684
47	480.0/375.0	8.787
48	485.0/265.0	2.247
49	490.0/380.0	8.844
50	495.0/270.0	2.008
51	495.0/385.0	8.985
52	505.0/275.0	2.982
53	515.0/280.0	3.502
54	520.0/285.0	4.008
55	530.0/290.0	4.307
56	540.0/295.0	5.854
57	545.0/300.0	6.034
58	550.0/305.0	6.211
59	560.0/310.0	5.385
60	585.0/325.0	5.845

Data points
	220.0	225.0	230.0	235.0	240.0	245.0	250.0	255.0	260.0	265.0	270.0	275.0	280.0	285.0	290.0	295.0	300.0	305.0	310.0	315.0	320.0	325.0	330.0	335.0	340.0	345.0	350.0	355.0	360.0	365.0	370.0	375.0	380.0	385.0	390.0	395.0	400.0	405.0	410.0	415.0	420.0	425.0	430.0	435.0	440.0	445.0	450.0	455.0	460.0	465.0	470.0	475.0	480.0	485.0	490.0	495.0	500.0	505.0	510.0	515.0	520.0	525.0	530.0	535.0	540.0	545.0	550.0	555.0	560.0	565.0	570.0	575.0	580.0	585.0	590.0	595.0	600.0
230.0	69.26	1235	3778	1312	50.50	6.434	6.178	4.387	3.105	3.283	3.003	2.548	2.220	1.953	1.551	1.499	1.289	1.173	0.917	0.876	0.732	0.669	0.609	0.519	0.499	0.445	0.450	0.408	0.383	0.340	0.395	0.322	0.353	0.288	0.256	0.274	0.286	0.289	0.273	0.286	0.445	0.919	0.775	0.473	0.339	0.256	1.730	8.009	12.49	8.195	2.965	0.565	0.220	0.160	0.188	0.178	0.171	0.179	0.144	0.159	0.129	0.130	0.138	0.171	0.127	0.183	0.147	0.148	0.129	0.126	0.149	0.132	0.152	0.143	0.140	0.139	0.144
235.0	210.4	337.1	1778	3147	617.3	73.15	6.474	5.107	4.403	3.339	3.306	2.588	1.998	2.428	1.447	1.230	1.378	0.981	0.757	0.760	0.751	0.638	0.515	0.643	0.591	0.400	0.392	0.393	0.446	0.290	0.316	0.351	0.364	0.294	0.298	0.222	0.273	0.263	0.211	0.242	0.344	0.428	0.722	0.824	0.787	0.442	0.596	2.099	4.371	6.988	9.214	9.606	4.383	1.113	0.198	0.195	0.164	0.195	0.150	0.144	0.092	0.186	0.205	0.156	0.152	0.139	0.178	0.136	0.141	0.129	0.131	0.153	0.165	0.100	0.152	0.155	0.110
240.0	249.5	206.4	471.9	2039	2976	502.7	35.63	5.645	4.798	4.580	3.795	3.086	2.259	2.124	1.726	1.437	1.323	1.114	0.952	0.965	0.676	0.719	0.584	0.600	0.517	0.369	0.470	0.435	0.471	0.411	0.357	0.354	0.309	0.305	0.253	0.245	0.270	0.242	0.240	0.241	0.249	0.261	0.340	0.558	0.869	0.987	0.685	0.734	1.152	1.927	4.435	11.01	13.76	9.449	3.779	0.670	0.187	0.174	0.189	0.125	0.162	0.156	0.195	0.156	0.165	0.138	0.190	0.136	0.137	0.167	0.140	0.217	0.124	0.117	0.101	0.118	0.147
245.0	144.2	280.9	202.7	592.8	2499	2870	379.2	16.12	6.587	5.039	4.536	3.064	2.698	2.474	1.767	1.534	1.431	0.961	0.936	1.056	0.682	0.673	0.620	0.445	0.659	0.487	0.455	0.420	0.451	0.347	0.401	0.397	0.419	0.333	0.218	0.268	0.360	0.210	0.257	0.280	0.265	0.189	0.247	0.286	0.468	0.753	1.141	1.027	0.600	0.647	1.177	3.402	8.603	13.51	14.88	8.792	2.541	0.339	0.217	0.131	0.157	0.157	0.168	0.140	0.160	0.143	0.121	0.152	0.176	0.141	0.161	0.175	0.141	0.081	0.129	0.097	0.202
250.0	49.14	165.8	290.2	250.0	711.2	2080	2962	1321	89.55	6.901	5.789	3.864	3.556	2.813	2.358	1.903	1.425	1.262	1.013	1.010	0.739	0.746	0.634	0.559	0.657	0.545	0.475	0.449	0.460	0.452	0.338	0.324	0.327	0.367	0.333	0.266	0.336	0.298	0.274	0.247	0.284	0.209	0.252	0.258	0.275	0.358	0.619	0.943	1.202	1.037	0.799	0.996	2.135	4.095	7.767	11.44	15.15	13.56	8.090	2.482	0.430	0.186	0.193	0.144	0.160	0.172	0.160	0.159	0.157	0.146	0.125	0.141	0.118	0.136	0.202	0.146	0.171
255.0	25.57	51.24	160.2	344.5	278.2	508.0	1607	4132	1847	100.2	9.144	5.337	4.297	3.323	2.555	1.936	1.445	1.464	1.122	1.042	0.935	0.840	0.797	0.650	0.846	0.558	0.474	0.481	0.512	0.399	0.415	0.371	0.294	0.389	0.239	0.311	0.245	0.310	0.280	0.204	0.253	0.242	0.243	0.276	0.188	0.265	0.313	0.405	0.527	0.979	1.352	1.479	1.002	1.130	1.951	2.810	4.916	10.99	20.29	23.04	13.12	3.043	0.306	0.189	0.291	0.151	0.212	0.143	0.173	0.152	0.114	0.117	0.128	0.142	0.190	0.111	0.110
260.0	15.54	22.16	55.88	254.6	356.9	179.9	431.4	2545	4743	1424	47.22	6.639	4.831	3.588	2.378	2.153	1.881	1.541	1.391	1.209	0.843	0.820	0.825	0.754	0.642	0.499	0.618	0.499	0.416	0.506	0.373	0.314	0.312	0.389	0.322	0.310	0.283	0.256	0.314	0.217	0.289	0.234	0.205	0.289	0.255	0.245	0.180	0.231	0.311	0.411	0.773	1.665	1.847	1.180	0.766	0.865	1.294	2.885	7.768	17.53	27.23	23.71	10.57	1.570	0.285	0.176	0.211	0.179	0.175	0.189	0.154	0.157	0.096	0.149	0.157	0.098	0.129
265.0	16.00	17.55	23.08	99.33	355.6	267.3	135.5	742.4	3631	4954	248.9	16.88	5.403	4.384	3.258	2.638	2.150	1.787	1.604	1.233	0.885	0.841	0.683	0.736	0.658	0.547	0.543	0.523	0.494	0.470	0.473	0.356	0.397	0.257	0.278	0.348	0.295	0.285	0.251	0.230	0.316	0.273	0.253	0.315	0.241	0.305	0.216	0.202	0.255	0.259	0.292	0.792	1.547	2.247	1.562	0.762	0.523	0.874	1.962	4.964	12.62	25.53	31.96	21.53	6.402	0.732	0.362	0.237	0.200	0.215	0.137	0.126	0.107	0.123	0.208	0.136	0.140
270.0	57.84	37.00	26.53	36.88	140.2	345.9	303.1	222.5	1027	3438	5364	918.5	61.69	6.303	4.471	3.693	2.710	2.038	1.621	1.395	1.093	1.020	0.816	0.826	0.708	0.692	0.627	0.570	0.484	0.529	0.484	0.446	0.575	0.416	0.479	0.544	0.473	0.464	0.376	0.353	0.360	0.335	0.333	0.418	0.380	0.336	0.299	0.334	0.252	0.243	0.188	0.381	0.586	1.072	1.726	2.008	1.978	1.136	0.788	1.397	3.231	7.099	13.43	22.14	27.31	26.78	15.62	5.325	0.778	0.206	0.251	0.159	0.139	0.162	0.175	0.158	0.155
275.0	239.5	167.9	91.02	42.67	50.09	131.7	443.3	362.0	310.8	871.4	2775	6807	1331	65.81	7.184	4.886	3.097	2.664	1.952	1.577	1.490	1.112	0.888	1.002	0.797	0.701	0.637	0.697	0.541	0.527	0.483	0.523	0.654	0.851	1.027	1.126	1.222	1.097	1.037	0.939	0.772	0.788	0.950	0.829	0.747	0.873	0.667	0.618	0.464	0.287	0.362	0.294	0.355	0.416	0.637	0.909	2.056	2.982	2.534	1.157	1.142	2.064	3.553	5.480	7.913	15.04	30.84	35.67	24.52	6.248	0.747	0.253	0.169	0.263	0.224	0.181	0.207
280.0	542.1	376.0	201.0	85.13	43.65	59.54	247.4	618.0	315.6	334.1	840.8	4067	6927	984.4	32.70	5.429	4.344	3.005	2.322	1.867	1.552	1.209	1.215	0.962	0.942	0.794	0.797	0.671	0.743	0.710	0.629	0.469	0.724	1.144	1.633	2.045	2.494	2.268	1.805	1.703	1.484	1.519	1.402	1.567	1.560	1.546	1.379	1.127	0.895	0.537	0.401	0.325	0.338	0.295	0.394	0.465	0.874	1.874	3.176	3.502	1.793	1.228	1.524	2.003	2.636	4.483	9.944	22.69	41.10	35.42	19.57	3.321	0.378	0.229	0.232	0.234	0.345
285.0	792.0	631.2	352.5	143.0	62.61	56.98	120.3	463.8	675.4	310.5	407.0	1269	5214	6373	658.8	13.33	4.905	4.220	2.495	2.198	1.747	1.493	1.272	1.172	0.896	0.792	0.726	0.662	0.585	0.740	0.523	0.617	0.840	1.444	2.425	3.008	3.520	3.626	2.866	2.716	2.229	2.260	2.213	2.276	2.397	2.457	1.924	1.778	1.342	0.813	0.570	0.480	0.426	0.367	0.342	0.418	0.630	0.863	1.723	3.405	4.008	2.972	1.686	1.499	1.712	2.149	3.334	6.468	14.71	28.94	44.40	31.29	12.89	1.682	0.314	0.376	0.395
290.0	1038	890.8	521.5	222.7	106.8	83.94	109.6	241.4	596.8	763.3	491.2	563.6	1522	4329	5751	1768	35.92	5.764	3.630	2.734	2.156	1.744	1.454	1.289	1.133	0.871	0.794	0.742	0.679	0.777	0.546	0.651	1.059	1.816	3.107	3.832	4.360	4.422	3.893	3.548	2.850	2.779	2.785	2.873	3.070	3.073	2.572	2.463	1.861	1.136	0.826	0.751	0.593	0.509	0.453	0.530	0.590	0.684	0.945	1.605	2.534	3.592	4.307	3.686	2.789	2.160	2.088	2.748	4.538	7.819	14.96	22.46	28.28	32.65	21.75	10.54	2.452
295.0	1154	997.1	634.2	298.1	161.7	126.9	139.2	206.4	356.2	721.9	981.8	527.3	571.4	1103	2675	6807	755.4	39.19	5.285	4.129	2.774	2.135	1.642	1.646	1.182	1.215	0.863	0.855	0.839	0.797	0.698	0.611	1.166	1.956	3.282	4.038	4.724	4.968	4.378	3.860	3.279	3.045	3.027	3.158	3.237	3.308	2.994	3.080	2.274	1.422	1.114	0.986	0.675	0.744	0.604	0.548	0.787	0.778	0.978	1.167	1.617	1.999	2.765	4.299	5.854	4.326	2.696	2.272	2.316	2.937	4.197	5.770	7.100	12.38	25.73	44.08	34.59
300.0	1152	1021	660.6	339.3	204.2	172.4	184.8	241.6	322.0	523.8	1063	851.2	419.5	408.7	738.1	3844	6053	597.9	17.67	5.356	3.493	2.423	2.052	1.780	1.570	1.282	0.897	1.011	0.804	0.821	0.748	0.739	1.055	1.895	3.113	3.933	4.764	4.749	4.336	3.905	3.440	3.121	3.100	3.322	3.342	3.541	3.193	2.990	2.402	1.511	1.338	1.061	0.968	0.909	0.818	0.788	1.056	0.991	1.176	1.311	1.489	1.875	2.053	2.850	4.343	6.034	5.339	3.452	2.446	1.955	1.979	2.125	2.375	3.511	7.177	18.45	38.00
305.0	1103	994.6	704.7	382.6	255.6	223.1	258.1	303.2	370.3	493.5	794.3	1185	603.4	318.6	289.8	1072	4722	5144	82.51	9.917	4.632	2.914	2.394	1.990	1.697	1.457	0.986	0.926	0.939	0.813	0.897	0.740	1.121	1.801	2.908	3.630	4.291	4.392	4.303	3.804	3.242	3.088	2.848	2.798	3.152	3.270	3.122	2.953	2.510	1.657	1.426	1.312	1.221	1.142	0.991	1.153	1.289	1.180	1.358	1.566	1.817	2.093	2.281	2.488	3.125	4.225	6.211	5.962	4.347	2.602	1.853	1.660	1.465	1.633	2.489	4.841	11.30
310.0	1018	977.6	736.7	454.5	331.3	328.6	358.2	406.8	445.5	536.5	675.5	951.0	1020	563.2	299.0	393.7	1326	3720	4517	1495	25.16	4.711	3.372	2.579	2.012	1.709	1.324	1.135	1.036	0.983	0.851	0.849	1.106	1.748	2.644	3.103	3.708	3.890	3.699	3.393	3.054	2.978	2.974	2.807	2.987	3.245	3.113	2.888	2.584	1.996	1.549	1.735	1.387	1.422	1.435	1.447	1.655	1.807	1.963	2.021	2.185	2.175	2.454	2.690	3.073	3.357	4.107	4.814	5.385	5.332	3.846	2.875	1.746	1.721	1.859	2.318	3.552
315.0	1051	999.0	803.4	562.9	410.7	399.1	434.4	496.3	519.1	585.2	679.4	780.9	884.2	996.7	485.7	307.3	451.7	943.3	2329	6226	529.8	26.72	4.396	3.072	2.677	1.800	1.515	1.234	1.072	1.202	0.785	0.835	1.034	1.631	2.262	2.421	3.181	3.429	3.249	3.118	3.018	2.857	2.971	2.753	2.946	3.501	3.346	3.042	2.832	2.220	1.951	2.066	1.701	1.840	1.719	1.652	1.930	1.992	2.287	2.196	2.359	2.757	2.660	2.825	3.177	3.132	3.576	3.842	4.048	4.515	5.345	5.699	3.956	2.607	2.068	2.042	2.252
320.0	1185	1282	1131	766.2	518.9	470.6	483.1	549.6	572.9	643.9	729.2	801.7	823.7	1004	835.5	382.7	299.6	343.0	644.8	3681	4335	442.2	13.43	3.965	3.066	2.303	1.774	1.610	1.284	1.277	1.169	1.036	1.070	1.448	2.126	2.299	2.839	2.939	3.062	3.061	2.951	2.864	3.034	3.105	3.448	3.870	4.060	4.269	3.977	3.189	2.602	2.732	2.338	2.155	1.928	1.921	2.284	2.215	2.526	2.543	2.662	2.847	2.905	3.124	3.383	3.513	4.309	4.034	3.973	4.388	4.542	5.330	5.901	5.058	3.190	2.601	2.353
325.0	1419	1727	1754	1219	698.8	545.2	545.5	605.2	641.9	705.0	809.0	894.9	905.3	924.7	1023	633.1	336.3	256.0	255.6	1014	3947	3878	63.68	6.798	4.091	2.831	2.102	1.799	1.558	1.325	1.185	0.942	0.967	1.431	1.707	2.292	2.639	2.822	3.066	3.094	3.009	3.270	3.293	3.706	4.187	4.964	5.357	6.182	5.935	4.857	4.120	3.930	2.724	2.446	2.204	2.358	2.323	2.573	2.634	2.959	3.064	3.139	3.150	3.463	3.726	4.156	4.279	4.579	4.545	4.720	4.658	4.706	5.456	5.845	5.407	4.097	2.901
330.0	1610	2086	2310	1776	1033	683.0	609.5	634.6	682.7	756.3	869.8	980.6	1001	967.3	922.6	870.9	554.5	300.5	214.8	324.8	1119	3123	3814	1186	20.63	4.192	2.856	2.306	1.792	1.487	1.430	1.143	1.127	1.387	1.637	2.047	2.454	2.762	2.752	2.983	2.951	3.329	3.648	4.059	4.789	5.637	6.242	7.653	7.735	6.673	5.896	5.500	4.235	3.134	2.595	2.674	2.782	2.853	2.956	3.077	3.307	3.444	3.413	3.729	4.026	4.390	4.703	4.766	5.174	5.219	4.944	5.064	5.150	4.860	5.357	5.350	5.097
335.0	1709	2300	2598	2104	1302	864.6	696.7	665.4	714.8	780.6	902.2	1017	1060	1017	893.5	779.9	763.5	462.0	245.6	200.4	343.6	776.8	2187	4955	438.4	22.91	4.026	3.218	2.140	1.859	1.621	1.337	1.143	1.388	1.689	1.886	2.174	2.210	2.472	2.991	3.026	3.428	3.854	4.204	4.805	6.047	6.895	8.500	9.121	7.525	7.279	6.437	5.037	4.111	3.378	3.091	3.263	3.120	3.206	3.100	3.393	3.552	3.656	3.728	4.164	4.243	4.777	5.035	5.128	5.183	5.422	5.039	5.281	4.829	4.936	4.561	4.560
340.0	1757	2393	2806	2323	1516	1029	788.9	724.8	748.8	827.6	924.8	1039	1090	1063	927.8	751.3	713.6	641.6	317.6	200.3	191.4	257.8	597.7	3125	3583	374.7	10.88	3.779	2.674	2.140	1.611	1.497	1.534	1.431	1.669	1.872	2.162	2.288	2.478	2.835	2.931	3.352	3.970	4.235	4.983	6.098	7.223	8.613	9.267	8.132	7.597	7.420	5.726	4.841	3.835	3.586	3.367	3.653	3.159	3.203	3.537	3.566	4.057	3.928	4.352	4.414	4.864	4.899	5.204	5.458	5.584	5.547	5.206	5.183	5.287	4.468	4.335
345.0	1737	2385	2858	2482	1713	1205	900.9	808.4	791.1	860.8	941.4	1058	1107	1079	958.5	773.5	643.0	655.0	474.8	234.9	181.3	161.5	203.8	877.8	3646	3276	54.98	5.930	3.411	2.590	1.886	1.684	1.597	1.119	1.523	1.879	1.952	2.226	2.450	2.541	2.821	3.287	3.697	4.225	4.974	6.294	6.660	8.794	9.377	8.630	7.854	8.124	6.838	5.507	4.520	4.038	4.090	3.783	3.766	3.574	3.610	3.787	4.241	4.125	4.291	4.676	4.894	4.794	5.342	5.551	5.518	5.798	5.633	5.056	5.482	4.946	4.232
350.0	1677	2234	2702	2504	1917	1483	1170	998.3	941.6	955.1	994.3	1078	1116	1091	983.4	815.9	656.8	566.7	550.1	384.3	221.4	167.4	140.3	260.1	1050	2828	3126	1025	18.25	3.389	2.411	1.871	1.649	1.451	1.726	1.759	1.977	2.191	2.392	2.635	2.868	3.206	3.691	4.082	4.705	5.885	6.554	8.328	8.820	8.332	7.772	8.429	7.555	6.510	5.782	5.063	5.055	4.719	4.324	4.341	4.424	4.358	4.601	4.682	4.690	4.700	5.025	5.215	5.439	5.703	5.542	5.835	5.637	5.479	5.380	4.838	4.386
355.0	1625	2166	2580	2464	2119	1788	1456	1278	1213	1148	1108	1131	1147	1128	1031	870.8	720.7	579.1	488.1	492.2	348.8	205.4	155.7	147.4	293.6	686.5	1909	4345	403.0	20.19	3.397	2.269	2.094	1.488	1.868	1.904	2.118	2.052	2.362	2.725	2.945	3.344	3.683	4.129	4.704	5.628	5.944	7.624	8.352	8.094	7.507	8.790	8.087	7.526	6.947	6.304	6.337	5.923	5.871	5.459	5.697	5.545	5.548	5.229	5.080	5.347	5.143	5.333	5.666	5.566	5.763	5.779	6.159	6.013	5.423	5.258	5.038
360.0	1550	2035	2437	2450	2223	1993	1669	1445	1355	1287	1206	1185	1176	1153	1051	909.2	762.3	612.0	486.3	454.0	454.5	272.1	175.8	140.9	140.8	202.4	513.3	2912	3308	349.1	10.35	3.274	2.404	1.949	1.893	1.848	2.108	2.150	2.362	2.486	3.174	3.136	3.751	3.986	4.776	5.864	6.076	7.384	8.194	7.503	7.422	9.015	8.526	8.094	7.768	6.916	7.095	7.075	6.755	6.218	6.313	6.229	6.124	5.895	5.651	5.621	5.547	5.527	5.559	5.814	6.116	5.584	6.208	5.989	5.718	5.592	5.201
365.0	1521	1947	2338	2400	2261	2116	1814	1550	1450	1340	1259	1209	1176	1150	1056	921.5	787.6	639.6	502.4	416.7	450.1	379.3	213.8	155.1	120.9	106.6	153.9	828.4	3412	3063	51.89	5.273	2.983	2.295	2.010	1.838	2.133	2.170	2.425	2.370	2.726	3.627	3.413	3.931	4.422	5.465	5.924	7.134	7.584	7.014	7.181	8.876	8.461	8.489	8.262	7.541	7.602	7.387	6.782	6.440	6.632	6.640	6.522	6.142	6.418	5.453	5.916	5.888	5.536	5.836	5.968	5.875	5.976	6.141	5.536	5.650	5.276
370.0	1465	1845	2191	2349	2320	2210	1957	1674	1524	1404	1291	1217	1176	1138	1056	927.8	804.4	666.8	527.6	429.5	391.3	406.3	327.4	198.1	137.9	103.5	88.09	222.0	977.0	2747	3092	901.6	16.83	3.033	2.336	2.274	2.378	2.313	2.447	2.540	2.725	3.428	3.582	3.847	4.140	5.136	5.387	6.560	7.135	6.678	6.968	8.668	8.579	8.561	8.596	8.160	8.436	7.849	7.429	6.981	7.002	6.719	6.524	6.507	6.264	5.736	5.680	5.723	5.582	5.783	5.849	5.806	5.888	5.800	5.708	5.551	5.564
375.0	1402	1728	2045	2231	2300	2328	2061	1774	1582	1451	1317	1222	1168	1108	1031	920.1	809.0	688.5	553.1	452.3	388.7	363.1	385.4	306.6	183.5	131.5	95.12	98.24	248.9	652.7	1941	3875	356.1	18.00	3.118	2.698	2.590	2.335	2.450	2.746	2.944	3.269	3.487	3.646	4.454	4.572	4.929	6.056	6.690	6.410	6.627	8.342	8.787	8.024	8.620	8.595	8.402	8.570	8.019	7.656	7.064	7.018	6.913	6.492	6.353	5.936	5.791	5.734	5.497	5.576	5.781	5.464	5.597	5.645	5.207	5.785	5.585
380.0	1364	1661	1962	2152	2275	2348	2100	1801	1581	1437	1276	1193	1153	1071	1000	893.5	806.4	685.8	566.4	471.7	404.8	359.5	361.9	376.1	250.7	162.0	113.8	86.38	96.56	171.2	512.0	2667	2908	295.3	8.168	3.155	2.812	2.518	2.523	2.697	2.742	3.083	3.536	3.629	4.342	4.745	4.949	5.833	5.995	6.142	6.492	7.838	8.631	8.306	8.844	8.756	8.671	8.725	7.987	7.481	7.122	6.991	6.813	6.674	5.836	5.698	5.444	5.469	5.394	5.318	5.633	5.677	5.733	5.630	5.360	5.628	5.708
385.0	1326	1558	1857	2053	2228	2317	2109	1765	1544	1386	1239	1156	1109	1039	955.7	869.7	780.9	673.4	563.3	476.9	415.0	372.9	340.3	362.6	329.6	201.6	134.9	95.92	72.32	69.31	135.2	759.5	3057	2554	42.31	4.623	3.142	3.018	2.502	2.623	2.824	2.869	3.216	3.529	3.973	4.614	4.692	5.543	5.831	5.850	6.218	7.745	8.004	8.494	8.652	8.985	8.649	8.427	7.827	7.259	6.795	6.676	6.644	6.660	5.974	5.592	5.548	5.428	5.501	5.225	5.544	5.342	5.534	5.340	5.463	5.115	5.340
390.0	1244	1466	1707	1914	2109	2231	2045	1723	1468	1297	1175	1076	1028	963.6	897.5	822.5	746.7	651.4	550.2	470.8	417.3	374.7	335.1	319.8	328.9	275.3	165.4	110.9	77.06	55.37	55.99	186.7	868.5	2218	2371	699.2	14.67	3.514	2.891	2.981	2.885	3.008	3.271	3.486	3.920	4.213	4.528	5.249	5.221	5.344	5.717	7.352	7.754	7.855	8.258	8.636	8.571	8.052	7.734	7.007	6.644	6.251	6.149	5.982	5.608	5.261	5.299	5.199	5.390	4.971	4.960	5.226	5.110	5.132	5.079	5.027	4.997
395.0	1149	1349	1590	1770	1951	2124	1955	1659	1404	1218	1072	994.0	946.7	886.2	828.5	770.6	703.8	620.7	531.1	463.3	410.6	376.9	338.3	307.9	284.5	291.6	233.2	133.8	86.08	59.52	43.16	61.79	207.1	521.5	1505	2957	296.5	16.83	3.406	3.262	3.111	3.029	3.047	3.249	3.924	3.949	4.142	4.840	4.936	4.986	5.220	6.841	7.047	7.432	8.137	8.009	8.138	7.534	7.172	6.880	6.061	6.059	6.037	5.502	4.880	5.025	4.625	4.806	4.698	4.369	4.802	4.507	4.855	4.711	4.463	4.970	4.695
400.0	1101	1263	1476	1681	1840	2019	1869	1607	1342	1146	994.2	930.0	881.8	834.7	778.6	723.6	664.9	595.5	516.8	456.3	409.9	377.7	339.9	307.9	273.8	259.5	262.3	175.0	98.20	66.36	45.65	38.11	62.28	127.4	390.9	1972	2426	257.6	8.661	3.500	3.024	3.134	3.277	3.441	3.590	3.912	4.160	4.517	4.762	4.582	4.905	6.124	6.753	7.034	7.809	7.631	8.019	7.880	7.127	6.927	6.084	5.793	5.715	5.327	4.690	4.579	4.449	4.382	4.286	4.186	4.420	4.464	4.428	4.211	4.262	4.265	4.437
405.0	1048	1224	1373	1549	1737	1913	1802	1552	1294	1090	943.6	869.2	827.9	779.0	726.9	674.4	629.8	564.9	496.4	443.5	405.3	372.8	338.1	307.0	274.0	241.2	241.4	217.9	123.0	73.42	49.65	34.87	32.45	41.01	96.95	543.8	2318	2200	38.66	4.622	3.100	3.116	3.279	3.336	3.394	3.960	3.753	4.419	4.416	4.284	4.748	6.036	6.472	6.845	7.301	7.119	7.774	7.225	6.587	6.288	5.803	5.563	5.138	4.837	4.525	4.275	4.216	4.066	3.985	3.823	4.286	4.139	4.135	4.056	4.003	3.985	4.046
410.0	1005	1147	1266	1418	1586	1771	1706	1486	1230	1009	872.0	783.4	754.7	710.0	667.7	625.2	583.6	525.0	472.1	422.3	387.5	360.9	331.0	301.7	269.1	233.0	205.4	205.3	172.7	99.93	59.60	40.13	29.31	24.73	31.88	129.3	632.7	1732	1970	653.1	14.85	3.499	3.246	3.185	3.165	3.616	3.333	4.071	3.945	4.096	4.245	5.558	5.842	6.211	6.736	6.759	7.235	6.870	6.400	6.486	5.676	5.233	4.717	4.413	4.156	3.966	3.813	3.646	3.696	3.598	3.729	3.788	3.757	3.689	3.610	3.725	4.031
415.0	923.7	1033	1156	1282	1445	1629	1577	1404	1179	952.3	792.3	709.3	675.8	642.8	605.7	571.3	532.1	488.7	439.1	399.2	367.5	343.7	317.1	291.4	261.0	226.7	195.1	172.5	174.5	147.6	77.36	45.90	32.77	24.03	19.96	37.75	148.9	400.9	1080	2324	280.2	17.42	3.541	3.170	3.197	3.665	3.218	3.612	3.758	3.691	3.849	4.880	5.375	5.657	6.110	6.293	6.504	6.753	6.299	5.721	5.489	5.026	4.435	4.118	3.791	3.605	3.478	3.403	3.231	3.432	3.465	3.664	3.589	3.459	3.720	3.806	3.556
420.0	887.0	1010	1082	1188	1346	1526	1511	1353	1148	911.6	752.0	658.8	616.1	597.5	560.9	528.8	499.0	461.2	417.1	377.6	357.8	328.5	306.0	283.4	255.6	225.1	191.4	161.4	149.5	160.1	108.3	53.76	36.47	25.50	19.13	18.15	41.30	95.50	270.6	1415	2226	251.3	9.265	3.414	3.222	3.574	3.115	3.436	3.450	3.376	3.388	4.482	5.127	5.415	5.729	5.895	6.310	6.338	5.889	5.708	5.416	5.134	4.498	4.089	3.762	3.275	3.082	3.342	3.246	3.174	3.369	3.367	3.222	3.264	3.309	3.203	3.377
425.0	851.7	931.7	995.9	1097	1252	1441	1426	1309	1122	894.2	721.7	620.3	574.7	556.5	527.6	494.4	469.9	437.6	398.5	361.1	341.0	317.9	292.7	275.1	248.3	219.5	191.1	160.9	136.9	139.8	135.4	72.98	40.00	28.29	20.27	15.85	18.00	28.04	65.98	375.2	1747	1881	191.3	5.251	3.184	3.424	3.079	3.259	3.278	3.280	3.398	4.251	4.610	4.891	5.375	5.592	6.288	5.903	5.835	5.788	5.232	4.923	4.414	3.951	3.530	3.051	2.877	3.095	3.025	2.855	3.036	3.228	2.966	2.970	2.781	3.208	3.028
430.0	1354	858.1	924.4	998.8	1136	1319	1350	1270	1097	879.2	681.7	574.7	533.8	508.3	487.5	460.3	435.3	410.0	375.3	345.2	325.6	303.3	282.5	263.9	242.1	216.0	189.3	161.4	137.3	119.8	120.7	105.6	58.67	33.30	22.77	17.39	14.53	14.58	21.05	88.95	456.0	1241	1593	593.7	14.89	3.667	3.121	3.420	3.038	3.054	3.109	3.926	4.276	4.630	4.869	5.436	5.707	5.664	5.307	5.489	5.042	4.682	4.335	3.846	3.400	2.952	2.903	2.886	2.671	2.664	2.544	2.824	2.683	2.734	2.764	2.805	2.953
435.0	2620	854.9	865.1	921.0	1044	1214	1259	1243	1083	861.4	658.3	537.4	487.7	465.9	453.0	427.9	404.6	382.0	356.6	327.4	307.2	285.4	268.9	252.4	232.8	208.6	186.7	165.2	140.5	119.3	101.0	102.6	89.24	46.13	26.15	19.93	15.29	12.65	11.92	25.06	106.7	284.6	764.7	1957	268.5	19.04	3.370	3.459	3.082	2.909	2.888	3.596	3.916	4.156	4.492	5.006	5.400	5.134	5.356	5.356	4.958	4.715	4.398	3.541	3.151	2.834	2.779	2.526	2.566	2.346	2.474	2.394	2.575	2.539	2.579	2.607	2.543
440.0	3257	1209	797.3	849.2	976.5	1155	1212	1206	1066	844.1	642.2	516.5	460.2	440.3	425.9	401.9	385.7	363.2	343.4	315.5	291.7	276.4	257.0	242.5	226.0	204.3	182.6	165.1	140.7	117.6	98.03	87.87	95.97	67.00	32.16	22.06	16.47	13.07	10.58	11.68	28.53	67.81	187.9	1096	1897	249.1	13.48	3.652	3.143	2.864	2.762	3.328	3.892	3.838	4.328	4.715	5.432	5.030	5.158	5.433	5.123	4.694	4.309	3.635	3.233	2.795	2.685	2.191	2.569	2.309	2.452	2.294	2.578	2.431	2.557	2.472	2.517
445.0	2862	2075	782.2	810.4	909.9	1083	1168	1158	1048	824.1	613.6	495.2	442.5	411.0	399.8	378.7	364.2	343.7	323.5	299.9	281.0	264.0	245.5	233.5	219.7	201.8	178.9	162.1	140.0	118.6	97.11	78.78	81.83	81.68	44.28	24.28	17.59	13.86	10.87	9.554	11.66	19.52	46.52	281.9	1336	1794	196.9	7.128	3.172	2.900	2.627	3.217	3.678	3.722	4.064	4.215	5.149	4.861	5.141	5.140	4.972	4.838	4.454	3.599	3.070	2.639	2.653	2.264	2.252	2.280	2.239	2.275	2.213	2.463	2.423	2.508	2.507
450.0	1528	2914	1056	731.4	839.1	988.3	1086	1105	1009	803.8	587.3	461.7	409.8	380.3	362.9	349.0	337.3	320.1	298.9	280.8	264.2	245.4	229.2	217.2	205.5	189.7	173.9	155.3	138.4	119.1	98.93	78.75	67.56	68.04	62.14	35.61	20.36	14.93	11.42	9.349	8.774	9.094	14.53	67.02	338.9	1075	1671	734.1	13.51	2.995	2.798	3.112	3.391	3.434	3.800	4.087	4.555	4.666	4.731	4.761	4.603	4.386	3.989	3.351	3.030	2.423	2.375	2.208	2.205	2.162	2.062	2.121	1.999	2.179	2.302	2.264	2.236
455.0	775.8	2186	2279	704.9	733.5	884.4	997.3	1037	956.9	767.7	561.3	424.1	369.6	343.3	331.1	315.1	307.3	291.4	276.6	259.0	240.8	226.7	212.6	199.6	189.6	175.8	163.4	147.8	134.4	116.3	96.57	78.10	62.13	51.59	55.42	52.63	29.00	15.83	12.19	9.805	8.371	7.578	7.183	18.99	78.80	245.2	670.6	2093	752.3	16.83	3.048	3.065	3.264	3.274	3.357	3.726	4.219	4.372	4.398	4.548	4.605	4.219	3.739	3.370	2.872	2.382	2.026	2.004	1.993	1.917	1.936	1.826	1.903	1.935	1.922	2.037	2.287
460.0	581.3	1261	2819	882.2	670.7	823.0	916.5	965.5	900.5	729.1	530.1	397.6	341.7	320.6	304.0	289.8	279.9	267.1	256.9	239.9	224.2	207.6	195.3	187.6	175.3	165.8	153.3	142.1	128.3	112.6	94.27	76.61	59.15	47.11	42.71	51.68	39.83	19.21	12.58	9.639	8.233	7.329	6.238	8.197	20.72	58.12	159.3	1037	1608	191.3	11.81	3.254	2.929	3.200	3.452	3.544	3.983	3.932	4.251	4.249	4.209	4.179	3.951	3.199	2.639	2.306	2.021	1.856	1.708	1.758	1.756	1.903	1.698	1.683	1.788	1.877	1.978
465.0	522.2	717.4	2381	1589	628.3	764.5	853.9	902.5	860.5	696.1	494.0	367.0	314.4	293.2	278.5	267.8	257.0	247.5	235.5	222.1	209.0	192.8	180.0	172.8	163.9	154.5	146.0	134.0	122.3	108.5	91.17	73.86	57.05	45.13	36.18	40.24	45.27	26.86	13.84	10.08	8.373	6.940	6.192	6.042	8.195	16.35	38.95	256.9	994.9	1372	170.1	7.898	2.895	3.139	3.205	3.274	3.583	3.932	3.965	4.154	3.922	3.890	3.451	3.060	2.651	2.255	2.049	1.778	1.758	1.574	1.585	1.655	1.480	1.677	1.810	1.710	1.834
470.0	512.9	515.9	1240	2200	880.9	674.6	750.3	813.8	776.3	627.6	449.2	334.4	278.6	257.9	246.4	237.4	226.2	217.5	211.5	198.5	184.6	171.1	160.1	154.4	147.6	139.5	130.0	121.3	112.7	99.82	85.17	68.81	54.68	42.88	33.05	29.60	35.02	34.78	20.73	11.36	8.337	6.761	5.972	5.680	5.635	6.968	11.72	60.41	246.6	753.1	1158	550.2	14.71	3.111	3.044	3.125	3.220	3.470	3.783	3.783	3.832	3.454	3.048	2.776	2.344	1.971	1.958	1.674	1.620	1.601	1.534	1.409	1.445	1.570	1.446	1.573	1.614
475.0	493.6	436.0	592.2	1582	1695	631.4	659.1	711.7	692.2	562.0	407.5	300.1	245.0	226.8	218.2	205.9	200.4	190.7	187.5	173.1	161.4	151.2	140.6	135.6	129.8	124.8	114.8	109.5	101.0	90.88	79.24	64.55	51.42	40.39	30.88	26.02	23.25	28.00	28.99	16.25	8.679	6.508	5.678	5.248	4.949	4.931	5.253	15.90	57.38	170.7	395.0	1036	651.1	21.28	2.994	2.692	3.265	3.158	3.339	3.228	3.400	3.141	2.903	2.506	2.262	1.853	1.754	1.371	1.513	1.355	1.226	1.162	1.290	1.506	1.262	1.258	1.425
480.0	435.2	423.2	415.4	872.4	2060	796.1	608.6	659.5	641.4	520.7	379.3	277.1	227.2	208.6	198.0	185.5	182.8	176.1	171.7	160.4	146.9	136.4	128.4	123.8	117.7	111.3	105.5	101.7	93.77	85.09	75.52	60.10	49.56	37.88	29.40	24.15	19.61	20.54	27.41	23.27	10.90	6.880	5.590	5.181	5.085	4.765	4.035	6.009	15.09	40.45	92.05	420.3	1169	229.2	15.60	2.585	2.958	2.721	3.402	3.051	3.058	2.807	2.633	2.379	2.030	1.825	1.644	1.380	1.375	1.272	1.048	1.085	1.181	1.263	1.166	1.273	1.294
485.0	380.1	437.3	378.7	496.0	1726	1289	551.8	612.0	596.0	491.9	352.1	258.6	208.9	193.4	183.4	169.0	166.4	162.6	155.3	146.7	136.0	127.9	121.0	114.2	109.1	103.1	99.23	93.68	88.05	80.14	70.03	57.29	46.92	36.71	28.83	22.51	18.29	17.31	20.84	25.12	15.52	7.868	5.981	4.996	4.952	4.712	4.201	3.997	5.599	11.16	22.61	101.1	615.3	1100	203.0	9.656	2.728	2.575	2.833	2.872	3.094	2.679	2.608	2.217	1.564	1.672	1.532	1.372	1.171	1.185	1.222	1.078	1.069	1.168	1.101	1.003	1.283
490.0	311.5	415.7	355.7	349.7	898.5	1741	732.9	547.1	534.2	445.7	321.6	237.2	191.4	170.6	160.8	154.5	148.3	143.5	140.4	130.9	122.3	113.9	106.8	103.0	98.25	93.32	89.38	86.17	79.75	74.01	64.92	52.76	43.28	34.07	27.41	21.49	17.69	15.27	14.61	18.91	20.77	13.04	6.756	5.293	4.735	4.451	4.281	4.011	3.540	4.537	6.877	24.50	147.6	503.7	944.7	618.4	17.99	3.084	2.838	2.621	2.688	2.636	2.384	2.173	1.684	1.579	1.476	1.254	1.114	1.191	1.072	1.064	1.067	1.069	0.962	1.058	1.197
495.0	260.9	348.3	363.7	294.5	442.1	1294	1375	516.3	466.6	399.3	291.9	211.9	170.3	152.4	142.9	134.4	128.4	125.8	122.9	116.2	108.0	100.5	94.69	91.30	87.73	83.15	81.00	76.80	71.47	67.20	57.61	48.29	39.15	31.39	25.36	19.73	16.78	14.24	12.23	12.34	16.23	18.58	10.36	5.708	4.672	4.123	3.965	3.914	3.387	2.924	3.293	7.330	34.62	114.3	307.3	1048	802.5	26.11	2.874	2.422	2.453	2.366	2.071	1.802	1.640	1.522	1.252	1.163	1.096	0.975	1.005	0.947	0.915	0.993	0.963	0.819	1.035
500.0	218.7	274.6	349.0	275.8	312.5	730.7	1752	631.5	432.1	357.1	264.3	194.0	154.1	137.7	128.1	122.2	117.1	113.8	111.6	103.0	98.19	91.22	84.03	81.32	78.49	74.64	72.06	70.02	65.42	60.02	54.00	44.63	36.32	29.15	23.66	19.17	15.90	13.15	10.96	9.718	11.30	17.49	14.84	7.678	4.828	4.115	3.808	3.471	3.456	2.843	2.480	3.408	9.311	27.35	71.49	392.6	1174	258.5	18.89	2.469	2.231	2.046	2.027	1.667	1.391	1.256	1.096	1.099	1.012	0.941	0.818	0.831	0.859	0.991	0.874	0.895	0.934
505.0	212.4	234.9	316.7	280.6	255.4	413.9	1551	1043	399.5	327.1	239.2	171.0	139.5	124.9	114.9	111.8	104.4	102.6	100.1	93.38	87.77	81.97	75.52	71.63	68.42	66.73	65.32	63.74	59.09	54.37	48.47	41.93	32.80	26.85	21.29	17.76	14.77	12.42	10.39	8.672	8.559	12.82	16.07	10.52	5.809	4.099	3.596	3.268	3.034	3.016	2.304	2.149	3.821	7.746	17.78	92.43	537.3	1054	233.9	11.83	2.479	2.035	1.839	1.502	1.277	1.170	0.923	1.004	0.813	0.870	0.831	0.799	0.786	0.792	0.712	0.825	1.050
510.0	187.3	197.9	239.3	285.0	232.4	284.2	822.0	1563	531.1	289.5	210.3	151.4	121.4	108.1	99.83	95.85	90.89	86.98	84.70	79.12	75.83	71.08	65.93	63.00	60.10	58.34	56.54	55.11	52.03	48.09	42.15	36.58	29.38	24.00	19.24	15.99	13.24	11.45	9.328	7.993	7.465	8.092	11.77	13.32	8.411	4.825	3.413	3.189	2.711	2.478	2.476	2.207	2.375	3.190	5.521	22.35	126.7	440.5	764.3	501.1	18.52	2.449	1.927	1.518	1.200	1.110	0.870	0.903	0.727	0.782	0.689	0.726	0.708	0.796	0.702	0.719	0.853
515.0	162.8	159.6	177.2	248.1	236.8	226.2	376.7	1238	1127	258.9	183.3	132.9	103.8	90.25	86.30	82.96	76.61	74.98	71.99	67.35	65.16	61.05	54.77	53.36	51.64	50.28	47.92	46.75	44.07	41.92	36.56	31.36	25.23	20.80	17.30	14.29	11.68	9.964	8.463	7.551	6.577	6.180	7.104	10.74	11.77	7.031	3.566	2.882	2.625	2.208	2.257	2.265	2.109	1.911	2.491	6.383	29.86	99.76	228.1	764.8	589.7	26.22	2.056	1.472	1.354	1.027	0.953	0.713	0.731	0.782	0.838	0.657	0.548	0.693	0.593	0.623	0.628
520.0	141.3	146.8	149.4	195.7	246.6	196.0	248.9	688.4	1572	319.5	161.9	120.2	92.53	81.11	76.02	72.03	68.92	66.36	63.68	61.68	56.37	52.70	48.66	47.45	45.41	44.56	42.14	41.92	40.41	36.52	32.32	28.43	22.67	19.25	15.91	12.67	10.76	9.342	7.990	6.990	6.033	5.576	5.496	7.158	10.71	9.282	4.282	2.817	2.590	2.144	1.830	2.308	2.271	1.662	1.937	2.555	8.018	23.75	53.16	278.3	799.9	261.3	18.70	1.448	1.170	1.072	0.844	0.766	0.708	0.670	0.662	0.600	0.533	0.555	0.560	0.577	0.534
525.0	121.4	136.0	128.1	152.5	239.2	198.0	203.7	347.7	1486	763.4	147.2	105.0	82.09	73.16	67.16	63.44	59.38	59.30	57.13	52.99	51.28	47.62	44.20	42.79	40.38	39.77	38.24	37.09	36.19	34.07	28.77	25.34	21.26	17.24	13.89	11.80	10.22	8.560	7.284	6.543	5.665	5.018	4.841	5.203	8.135	10.47	6.310	3.335	2.300	2.011	1.867	2.106	2.166	2.087	1.754	1.625	3.144	6.508	13.21	65.58	350.5	745.6	226.3	9.604	1.204	1.003	0.664	0.791	0.677	0.640	0.682	0.481	0.578	0.549	0.475	0.460	0.552
530.0	104.2	109.2	112.9	119.2	185.6	208.6	171.1	221.0	758.7	1418	227.9	91.67	71.50	62.50	57.76	53.71	51.82	50.73	48.72	45.65	43.64	39.52	37.80	36.25	34.84	33.38	32.24	31.03	30.87	28.71	25.77	21.71	18.55	14.85	12.18	10.37	8.876	7.560	6.761	5.875	5.255	4.785	4.224	4.191	4.996	7.876	8.043	4.907	2.438	1.834	1.739	1.720	1.721	2.051	1.737	1.599	1.782	2.664	4.089	15.91	82.45	302.2	571.3	366.8	17.27	1.292	0.747	0.667	0.593	0.629	0.548	0.469	0.543	0.479	0.456	0.491	0.510
535.0	83.74	93.82	90.47	96.47	125.9	207.9	158.8	162.1	300.7	1214	882.6	89.18	62.70	52.28	48.63	44.40	43.88	43.43	40.17	39.00	35.92	33.34	31.10	30.22	28.82	28.37	26.71	26.05	25.99	23.96	21.69	18.64	15.46	13.11	10.23	8.815	7.756	6.582	5.956	5.157	4.641	4.248	3.798	3.486	3.427	4.642	6.957	7.088	3.586	1.922	1.770	1.382	1.496	1.538	1.765	1.692	1.414	1.548	1.981	4.496	19.49	68.52	167.6	521.8	272.2	23.99	1.037	0.722	0.624	0.597	0.432	0.524	0.478	0.371	0.553	0.498	0.455
540.0	78.05	78.68	73.63	81.95	95.08	182.8	167.9	136.1	175.2	626.4	1438	159.3	54.63	47.22	41.78	38.97	38.95	37.16	35.05	33.10	30.11	29.24	26.63	25.53	24.35	24.47	23.46	22.96	22.32	20.95	18.62	16.44	13.55	11.33	9.269	7.745	7.005	5.974	4.876	4.711	4.169	3.906	3.345	3.225	2.886	3.269	4.567	6.857	5.112	2.265	1.594	1.329	1.291	1.151	1.493	1.838	1.301	1.108	1.292	1.928	5.310	16.16	38.86	185.1	535.4	250.6	16.83	0.781	0.573	0.476	0.362	0.451	0.418	0.362	0.503	0.345	0.465
545.0	81.24	79.07	66.69	74.92	76.68	136.8	174.1	120.5	132.0	257.9	1428	484.6	48.55	44.35	35.77	33.80	33.03	31.43	29.75	28.48	26.83	25.75	23.48	22.80	20.85	21.05	20.41	19.58	18.47	18.43	15.99	14.93	12.10	10.03	8.241	6.838	6.155	5.221	4.412	4.317	3.877	3.460	3.417	2.913	2.701	2.546	3.009	5.209	5.727	3.154	1.589	1.199	1.086	1.029	1.159	1.562	1.598	1.204	1.074	1.239	1.999	4.516	9.632	43.24	233.1	523.8	205.5	8.246	0.679	0.564	0.433	0.494	0.512	0.368	0.408	0.387	0.441
550.0	84.53	77.06	61.52	63.03	62.15	92.60	162.7	125.7	106.4	126.3	686.4	1129	114.1	35.90	31.07	27.50	27.18	25.94	24.64	23.44	22.86	20.99	19.45	18.67	17.67	17.28	16.93	16.57	15.42	14.84	13.40	11.74	9.952	8.562	7.215	6.130	5.359	4.356	3.995	3.517	3.241	2.811	2.749	2.431	2.352	2.163	2.146	3.012	4.572	4.151	2.480	1.274	1.057	1.029	1.037	1.083	1.298	1.659	1.071	0.964	1.209	1.647	2.861	10.32	54.60	202.5	394.8	224.6	17.04	0.843	0.500	0.472	0.375	0.387	0.339	0.345	0.331
555.0	87.08	72.65	63.13	50.21	52.59	61.53	115.6	144.9	88.14	89.49	214.6	1076	560.2	31.62	26.34	23.60	21.79	20.41	19.15	19.19	17.70	15.98	15.35	14.38	13.95	13.57	13.87	12.91	12.54	11.75	10.85	9.366	8.070	6.842	6.033	5.086	4.487	3.710	3.366	3.146	2.815	2.615	2.292	2.252	1.947	1.973	1.763	1.851	2.407	3.762	3.498	1.819	1.025	0.824	0.942	0.858	0.945	1.378	1.365	1.027	0.945	0.950	1.329	2.920	12.93	45.67	109.6	334.0	266.5	23.27	0.647	0.576	0.434	0.370	0.301	0.280	0.287
560.0	104.9	74.98	64.66	45.78	47.07	50.89	77.72	152.2	87.71	76.83	95.62	558.1	1079	72.59	22.75	20.24	18.34	17.04	16.04	15.08	15.21	13.15	12.99	11.92	11.73	11.36	11.49	11.01	10.76	9.869	9.182	8.057	7.053	5.538	5.144	4.309	4.106	3.576	2.977	2.582	2.363	2.214	2.037	2.031	1.826	1.637	1.642	1.346	1.557	2.461	3.477	2.387	1.032	0.755	0.771	0.704	0.823	0.910	1.386	1.165	0.936	0.780	0.936	1.251	3.418	10.76	25.24	113.8	363.9	217.3	14.89	0.555	0.420	0.330	0.273	0.288	0.312
565.0	95.62	88.57	62.91	41.19	38.59	42.72	58.14	133.0	101.6	67.87	67.61	207.4	1197	165.9	19.08	16.99	15.72	14.63	14.67	13.05	12.84	11.75	10.58	9.958	9.933	9.402	9.383	9.484	8.906	8.641	7.718	7.104	5.754	5.013	4.171	3.846	3.155	2.849	2.443	2.336	1.945	2.060	1.752	1.583	1.646	1.598	1.471	1.307	1.258	1.484	2.603	2.684	1.504	0.751	0.644	0.666	0.726	0.682	1.027	1.293	0.999	0.710	0.809	0.762	1.201	2.887	6.211	26.51	145.3	336.1	154.5	6.050	0.506	0.371	0.206	0.402	0.322
570.0	111.0	97.87	66.00	40.91	32.28	37.64	44.89	89.69	125.8	66.10	58.07	83.80	620.9	799.0	58.65	14.15	12.94	11.74	11.42	10.63	10.11	9.575	8.654	8.296	8.212	7.639	7.767	7.281	7.303	6.924	6.381	5.491	4.712	4.030	3.647	3.085	2.802	2.451	2.218	2.070	1.910	1.589	1.584	1.416	1.459	1.488	1.272	1.130	1.053	1.001	1.552	2.296	1.984	1.123	0.682	0.578	0.627	0.654	0.738	1.034	1.099	0.894	0.716	0.611	0.722	1.123	1.844	6.501	33.96	122.7	234.4	137.5	15.39	0.748	0.307	0.306	0.328
575.0	114.6	105.7	71.54	41.96	29.43	30.08	36.80	54.62	123.1	84.85	54.73	53.95	180.1	897.6	349.5	12.21	10.33	9.119	9.065	8.713	7.890	7.532	6.944	6.498	6.324	6.453	5.817	5.982	5.159	5.666	4.673	4.524	4.019	3.339	2.839	2.804	2.326	2.026	2.015	1.825	1.725	1.526	1.487	1.356	1.227	1.313	1.127	1.053	0.951	0.851	0.871	1.371	1.845	1.490	0.851	0.511	0.546	0.564	0.554	0.683	0.776	1.124	0.941	0.674	0.651	0.666	0.898	1.906	8.076	27.71	63.91	186.8	192.1	20.69	0.424	0.254	0.251
580.0	117.8	102.9	67.34	39.37	28.51	28.99	31.50	42.23	93.31	105.6	51.27	45.81	65.22	505.1	767.6	28.20	8.870	8.268	7.443	7.664	7.515	6.440	6.016	5.124	5.259	5.001	5.138	4.742	4.504	4.704	4.076	3.632	3.343	3.027	2.592	2.484	2.095	1.776	1.920	1.566	1.559	1.400	1.291	1.134	1.214	1.188	1.054	1.005	0.762	0.673	0.702	0.835	1.480	1.630	1.199	0.573	0.536	0.506	0.573	0.576	0.588	0.933	1.077	0.692	0.573	0.666	0.573	0.817	2.304	6.587	14.79	62.64	215.9	146.9	12.10	0.371	0.262
585.0	110.7	91.02	66.81	35.24	28.87	24.57	30.08	35.71	63.91	119.9	60.71	45.15	39.48	178.0	939.6	102.3	8.175	7.136	6.743	6.505	5.731	4.978	4.879	4.567	4.408	4.619	4.450	3.888	3.911	3.819	3.400	2.999	2.815	2.683	2.341	2.053	1.881	1.832	1.584	1.521	1.301	1.296	1.191	0.956	1.116	1.042	1.060	0.909	0.748	0.591	0.577	0.611	1.070	1.442	1.264	0.790	0.517	0.490	0.616	0.549	0.489	0.647	1.098	0.824	0.611	0.457	0.456	0.630	0.969	1.860	3.752	14.57	83.08	208.4	100.9	4.613	0.351
590.0	103.1	90.87	61.95	33.70	24.45	22.83	25.70	30.28	44.25	100.4	79.25	42.03	32.25	55.41	516.1	509.9	23.93	5.970	5.644	4.943	4.689	4.133	4.169	3.843	3.786	3.691	3.450	3.294	3.264	3.073	2.692	2.450	2.352	2.062	2.222	1.759	1.590	1.494	1.418	1.268	1.032	1.008	1.042	0.917	0.979	0.898	0.937	0.752	0.700	0.541	0.507	0.500	0.624	1.031	1.302	1.097	0.642	0.408	0.431	0.469	0.479	0.552	0.763	0.921	0.695	0.483	0.426	0.472	0.599	0.721	1.150	3.498	19.27	72.41	141.8	90.95	14.52
595.0	100.0	84.10	59.02	32.53	23.44	20.70	23.80	24.54	33.53	65.25	95.44	42.09	29.16	24.78	139.4	646.1	99.89	5.178	4.542	4.213	4.051	3.605	3.238	3.083	2.927	3.009	2.926	2.758	2.767	2.501	2.285	2.163	1.877	1.701	1.698	1.858	1.452	1.268	1.164	1.008	1.039	0.949	0.875	0.730	0.926	0.735	0.872	0.691	0.615	0.522	0.474	0.418	0.407	0.501	0.942	1.063	0.874	0.509	0.422	0.384	0.430	0.495	0.535	0.577	0.803	0.694	0.379	0.390	0.457	0.364	0.559	1.065	4.562	16.42	37.27	107.2	123.9
600.0	84.27	77.99	56.10	35.41	21.67	18.81	23.16	23.03	30.79	45.63	95.78	51.11	27.70	18.65	40.53	404.3	412.7	10.66	4.210	3.784	3.333	3.071	2.714	2.634	2.535	2.402	2.473	2.322	2.235	2.124	1.905	1.729	1.518	1.399	1.371	1.497	1.346	1.175	1.055	0.858	0.772	0.801	0.804	0.743	0.795	0.647	0.675	0.672	0.564	0.447	0.406	0.382	0.370	0.405	0.571	0.949	1.090	0.567	0.335	0.372	0.389	0.466	0.376	0.420	0.590	0.792	0.513	0.332	0.385	0.353	0.332	0.468	1.216	3.937	8.541	34.49	129.1
605.0	83.23	69.89	50.38	32.51	21.31	18.34	23.34	23.46	29.78	36.36	76.18	67.19	28.85	17.77	17.72	148.5	585.4	57.71	3.641	3.206	2.728	2.677	2.558	2.317	2.125	2.228	1.797	1.917	1.821	1.842	1.647	1.414	1.377	1.324	1.238	1.142	1.497	1.038	0.809	0.852	0.796	0.731	0.617	0.685	0.749	0.579	0.591	0.601	0.551	0.397	0.396	0.382	0.286	0.337	0.446	0.772	0.975	0.805	0.430	0.356	0.322	0.501	0.431	0.390	0.509	0.724	0.666	0.476	0.335	0.293	0.243	0.365	0.497	1.107	2.131	7.986	47.70
610.0	73.53	68.21	45.09	31.20	21.32	21.14	22.06	23.98	29.62	34.96	52.50	81.36	34.70	19.23	14.15	42.59	371.7	309.4	10.34	2.650	2.530	2.270	2.082	1.798	1.857	1.794	1.795	1.536	1.576	1.480	1.357	1.190	1.281	1.105	1.118	0.919	1.191	1.161	0.838	0.724	0.684	0.666	0.614	0.674	0.595	0.562	0.515	0.547	0.454	0.419	0.332	0.377	0.315	0.314	0.331	0.535	0.761	0.837	0.595	0.397	0.273	0.344	0.373	0.364	0.436	0.550	0.570	0.573	0.352	0.388	0.274	0.332	0.345	0.431	0.667	1.940	11.07
615.0	68.07	64.87	38.71	25.56	23.78	19.88	21.72	23.83	29.78	31.61	40.60	72.24	51.78	21.05	15.04	17.89	107.0	457.3	68.83	2.637	2.184	2.064	1.791	1.571	1.594	1.564	1.366	1.218	1.349	1.246	1.044	1.027	1.060	0.937	0.891	0.807	0.825	0.944	0.945	0.652	0.664	0.577	0.531	0.557	0.583	0.509	0.521	0.430	0.418	0.382	0.279	0.389	0.367	0.258	0.354	0.296	0.478	0.617	0.708	0.497	0.341	0.303	0.376	0.347	0.354	0.377	0.397	0.673	0.554	0.453	0.258	0.340	0.254	0.250	0.308	0.640	2.698
620.0	63.21	56.61	40.94	24.79	24.63	20.50	23.23	24.83	30.93	31.30	36.22	55.78	66.97	22.94	15.55	12.92	32.17	313.8	265.6	4.782	2.187	1.652	1.553	1.428	1.454	1.527	1.100	1.270	1.218	0.992	0.928	0.993	0.903	0.861	0.789	0.719	0.739	0.817	0.924	0.644	0.522	0.500	0.477	0.471	0.448	0.544	0.443	0.450	0.340	0.368	0.338	0.314	0.340	0.293	0.271	0.215	0.360	0.565	0.670	0.556	0.371	0.302	0.370	0.349	0.341	0.424	0.360	0.542	0.567	0.546	0.281	0.288	0.248	0.222	0.260	0.332	0.788
625.0	49.43	58.56	41.64	30.80	23.28	21.42	22.78	27.40	28.45	31.39	33.49	42.48	70.54	29.68	16.00	12.55	14.08	126.4	426.4	28.26	1.783	1.651	1.531	1.349	1.251	1.351	1.099	1.098	0.968	0.901	0.907	0.791	0.867	0.702	0.676	0.670	0.679	0.552	0.750	0.736	0.536	0.497	0.438	0.459	0.433	0.373	0.443	0.408	0.397	0.403	0.272	0.270	0.284	0.282	0.230	0.197	0.251	0.391	0.595	0.546	0.478	0.306	0.356	0.306	0.321	0.355	0.319	0.380	0.517	0.534	0.414	0.336	0.271	0.242	0.242	0.277	0.368
630.0	51.46	48.66	38.66	26.29	22.63	20.42	22.80	24.78	26.79	29.18	32.58	35.21	57.78	43.11	18.82	12.92	10.66	35.77	300.2	181.5	4.712	1.502	1.355	1.200	1.016	0.967	1.051	1.018	0.689	0.822	0.824	0.711	0.576	0.520	0.498	0.599	0.538	0.495	0.604	0.570	0.592	0.436	0.424	0.367	0.447	0.350	0.356	0.370	0.350	0.323	0.271	0.270	0.269	0.274	0.237	0.234	0.263	0.280	0.416	0.483	0.511	0.397	0.336	0.343	0.325	0.345	0.340	0.401	0.408	0.443	0.469	0.423	0.315	0.263	0.219	0.273	0.291
635.0	51.69	47.03	40.84	30.58	22.33	22.62	21.32	23.04	25.91	29.48	29.69	32.14	41.84	52.20	23.49	12.85	10.28	13.53	89.37	354.6	48.38	1.531	1.382	1.101	1.011	0.880	0.952	0.664	0.804	0.675	0.646	0.663	0.573	0.470	0.532	0.493	0.490	0.415	0.470	0.415	0.540	0.437	0.409	0.417	0.373	0.442	0.371	0.324	0.351	0.278	0.258	0.328	0.249	0.294	0.227	0.202	0.242	0.260	0.371	0.347	0.464	0.411	0.377	0.373	0.298	0.355	0.384	0.331	0.327	0.332	0.451	0.542	0.371	0.273	0.233	0.255	0.247
640.0	57.19	53.27	44.19	28.23	20.47	22.17	22.28	24.00	24.59	26.57	29.94	31.59	33.25	49.59	30.90	14.25	9.956	9.079	25.12	270.4	186.5	2.745	1.213	1.016	0.870	0.845	0.799	0.633	0.666	0.564	0.662	0.648	0.439	0.405	0.521	0.527	0.453	0.400	0.384	0.422	0.363	0.573	0.420	0.389	0.392	0.394	0.341	0.347	0.351	0.292	0.227	0.286	0.242	0.297	0.184	0.211	0.291	0.262	0.285	0.279	0.490	0.451	0.376	0.371	0.288	0.326	0.365	0.297	0.261	0.365	0.291	0.544	0.424	0.322	0.246	0.199	0.244
645.0	52.85	54.15	51.86	34.96	21.26	22.17	23.53	25.29	27.13	26.79	29.83	33.64	33.54	42.02	39.27	15.37	11.16	8.027	9.613	118.0	320.6	17.14	1.234	1.030	0.773	0.850	0.852	0.624	0.745	0.568	0.643	0.582	0.520	0.299	0.494	0.425	0.381	0.405	0.346	0.388	0.385	0.525	0.411	0.315	0.403	0.358	0.316	0.342	0.385	0.345	0.224	0.292	0.225	0.286	0.184	0.204	0.295	0.284	0.286	0.246	0.379	0.381	0.407	0.373	0.256	0.303	0.345	0.310	0.326	0.272	0.326	0.396	0.468	0.359	0.282	0.267	0.243
650.0	56.20	61.91	63.24	43.64	27.41	22.64	22.22	25.41	27.59	28.45	32.84	33.07	33.84	35.89	43.26	20.01	12.14	8.227	6.732	35.02	314.0	64.37	1.261	0.996	0.911	0.835	0.633	0.626	0.672	0.604	0.575	0.546	0.539	0.357	0.388	0.386	0.370	0.365	0.330	0.350	0.476	0.379	0.513	0.286	0.403	0.475	0.397	0.345	0.360	0.370	0.313	0.279	0.214	0.209	0.221	0.291	0.256	0.263	0.191	0.270	0.307	0.327	0.460	0.373	0.335	0.334	0.334	0.326	0.318	0.249	0.345	0.343	0.368	0.428	0.388	0.275	0.257
