Sample:	'1
File name:	W102504天浔金属外排口4倍.FD3
Run date:	'09:34:54, 10/28/2024
Operator:	horiz
Comment:	'

Instrument
Model:	F-2700 FL Spectrophotometer
Serial number:	23B8-004
ROM Version:	4J14000 07

Instrument parameters
Measurement type:	3-D scan
Data mode:	Fluorescence
EX  Start WL:	220.0 nm
EX  End WL:	600.0 nm
EX Sampling interval:	5.0 nm
EM  Start WL:	230.0 nm
EM  End WL:	650.0 nm
EM Sampling interval:	5.0 nm
Scan speed:	12000 nm/min
EX Slit:	5.0 nm
EM Slit:	5.0 nm
PMT Voltage:	700 V
Response:	Auto 
Corrected spectra:	Off
Contour interval:	50.000

Peak integration
Integration method:	Rectangular
Sensitivity:	1
Threshold:	1.000

Peaks
No.	ApexEX/EM(nm)	Height(Data)
1	225.0/575.0	73.60
2	225.0/610.0	54.95
3	230.0/345.0	2512
4	230.0/620.0	50.19
5	235.0/255.0	357.5
6	240.0/265.0	402.1
7	245.0/270.0	399.3
8	250.0/275.0	509.5
9	255.0/280.0	591.6
10	255.0/560.0	187.4
11	260.0/290.0	685.9
12	260.0/575.0	145.9
13	265.0/585.0	131.0
14	270.0/600.0	127.4
15	275.0/310.0	1745
16	275.0/335.0	1532
17	275.0/415.0	3966
18	275.0/435.0	3808
19	275.0/610.0	124.4
20	280.0/315.0	1615
21	280.0/625.0	102.7
22	285.0/635.0	75.00
23	350.0/415.0	2477
24	350.0/430.0	2364
25	460.0/340.0	7.188
26	475.0/350.0	6.539
27	485.0/265.0	1.980
28	495.0/270.0	2.107
29	505.0/275.0	3.159
30	510.0/280.0	3.491
31	520.0/285.0	3.927
32	530.0/290.0	4.130
33	545.0/300.0	7.832
34	550.0/305.0	9.373
35	560.0/310.0	9.423
36	570.0/315.0	9.096
37	575.0/415.0	16.17
38	585.0/325.0	8.435

Wavelength data
No.	EX/EM(nm)	Height(Data)	

Data points
	220.0	225.0	230.0	235.0	240.0	245.0	250.0	255.0	260.0	265.0	270.0	275.0	280.0	285.0	290.0	295.0	300.0	305.0	310.0	315.0	320.0	325.0	330.0	335.0	340.0	345.0	350.0	355.0	360.0	365.0	370.0	375.0	380.0	385.0	390.0	395.0	400.0	405.0	410.0	415.0	420.0	425.0	430.0	435.0	440.0	445.0	450.0	455.0	460.0	465.0	470.0	475.0	480.0	485.0	490.0	495.0	500.0	505.0	510.0	515.0	520.0	525.0	530.0	535.0	540.0	545.0	550.0	555.0	560.0	565.0	570.0	575.0	580.0	585.0	590.0	595.0	600.0
230.0	47.76	864.5	2243	609.4	22.78	2.983	2.342	2.549	2.370	2.428	2.309	2.298	2.078	1.665	1.269	1.286	0.900	0.827	0.829	0.818	0.674	0.717	0.643	0.661	0.726	0.641	0.781	0.693	0.709	0.567	0.560	0.460	0.374	0.306	0.275	0.278	0.252	0.241	0.168	0.182	0.214	0.348	0.378	0.200	0.128	0.125	1.011	4.735	7.616	4.927	1.527	0.255	0.092	0.085	0.057	0.065	0.071	0.054	0.044	0.058	0.054	0.040	0.040	0.042	0.041	0.050	0.039	0.039	0.039	0.032	0.045	0.032	0.025	0.032	0.039	0.031	0.034
235.0	123.2	248.5	1357	2236	458.0	30.27	3.449	3.109	3.341	2.495	2.475	2.222	2.209	1.638	1.529	1.072	0.973	0.869	0.912	0.783	0.841	0.836	0.774	0.649	0.658	0.725	0.729	0.601	0.731	0.502	0.580	0.528	0.443	0.281	0.334	0.253	0.209	0.229	0.225	0.169	0.172	0.185	0.304	0.503	0.414	0.194	0.301	1.264	3.130	5.671	7.298	7.028	2.587	0.485	0.095	0.061	0.052	0.054	0.047	0.063	0.050	0.067	0.057	0.048	0.036	0.049	0.034	0.044	0.049	0.048	0.045	0.033	0.029	0.053	0.034	0.036	0.036
240.0	186.0	156.6	408.3	1888	2206	331.5	13.06	3.747	3.385	2.906	2.560	2.468	2.480	1.873	1.614	1.286	1.135	0.792	0.855	0.776	0.755	0.682	0.783	0.660	0.697	0.777	0.843	0.756	0.622	0.617	0.478	0.528	0.373	0.306	0.326	0.206	0.238	0.290	0.202	0.162	0.178	0.122	0.186	0.320	0.528	0.563	0.390	0.456	0.789	1.687	4.209	10.30	10.94	6.436	1.631	0.218	0.061	0.072	0.061	0.079	0.052	0.060	0.063	0.129	0.049	0.040	0.037	0.032	0.027	0.041	0.039	0.043	0.020	0.038	0.036	0.034	0.028
245.0	139.4	257.1	158.7	641.6	2502	2211	223.1	7.797	5.137	3.833	2.913	2.661	2.609	2.116	1.708	1.203	1.180	1.070	0.867	0.814	0.836	0.657	0.698	0.681	0.731	0.881	0.909	0.864	0.848	0.620	0.466	0.394	0.377	0.431	0.318	0.277	0.232	0.327	0.216	0.252	0.203	0.121	0.149	0.169	0.312	0.596	0.729	0.585	0.318	0.496	1.058	3.692	8.724	13.93	12.09	5.371	1.142	0.084	0.066	0.086	0.050	0.066	0.062	0.044	0.048	0.039	0.046	0.028	0.071	0.041	0.024	0.038	0.023	0.059	0.072	0.030	0.034
250.0	47.19	178.6	263.8	244.5	815.7	2355	2608	837.7	43.44	4.783	3.634	3.636	2.875	2.386	1.905	1.290	1.190	1.102	0.989	0.954	0.763	0.691	0.730	0.674	0.847	0.889	0.858	0.900	0.794	0.547	0.625	0.442	0.431	0.398	0.334	0.329	0.246	0.263	0.179	0.233	0.198	0.173	0.139	0.133	0.200	0.249	0.432	0.722	0.897	0.760	0.565	0.962	2.198	4.889	8.431	12.31	15.23	11.83	5.793	1.273	0.151	0.082	0.045	0.061	0.066	0.058	0.065	0.047	0.039	0.054	0.040	0.040	0.025	0.029	0.071	0.029	0.026
255.0	21.20	54.50	187.9	357.5	265.7	613.2	2257	4309	1205	27.09	5.850	4.702	3.731	2.461	2.098	1.440	1.507	1.376	1.054	1.036	0.738	0.749	0.929	0.639	1.058	0.858	0.865	0.858	0.819	0.559	0.538	0.455	0.449	0.379	0.371	0.290	0.235	0.314	0.149	0.197	0.187	0.160	0.133	0.134	0.166	0.177	0.177	0.246	0.431	0.845	1.189	1.300	0.839	1.243	2.054	3.100	6.618	14.94	24.95	21.22	7.859	1.078	0.118	0.077	0.069	0.059	0.100	0.057	0.061	0.048	0.046	0.062	0.055	0.015	0.038	0.063	0.068
260.0	17.85	22.42	72.09	308.7	321.2	183.5	702.2	3820	6130	201.4	14.77	6.051	4.488	2.994	2.388	1.773	1.502	1.314	1.191	1.064	0.933	0.899	0.919	0.742	1.001	0.942	0.926	1.008	0.875	0.591	0.647	0.427	0.557	0.337	0.378	0.257	0.258	0.303	0.196	0.171	0.217	0.156	0.166	0.186	0.126	0.175	0.135	0.127	0.178	0.335	0.761	1.663	1.686	0.897	0.647	0.815	1.633	4.222	12.53	25.87	27.36	18.20	5.395	0.575	0.127	0.101	0.107	0.073	0.072	0.069	0.051	0.053	0.101	0.036	0.051	0.055	0.060
265.0	12.93	14.48	26.72	141.3	402.1	225.0	188.5	1349	7634	3810	147.7	9.585	6.177	4.019	2.878	2.178	1.682	1.391	1.351	1.316	1.116	0.952	0.982	0.973	0.770	0.871	0.949	0.998	0.840	0.712	0.625	0.558	0.485	0.342	0.398	0.292	0.265	0.260	0.211	0.174	0.183	0.177	0.152	0.103	0.126	0.136	0.167	0.115	0.183	0.154	0.302	0.814	1.686	1.980	1.252	0.497	0.485	1.096	3.105	8.185	18.05	31.76	27.02	15.88	3.088	0.231	0.122	0.094	0.103	0.068	0.065	0.109	0.055	0.050	0.056	0.056	0.092
270.0	28.63	28.71	25.50	48.81	189.6	399.3	246.9	346.9	2532	4521	4205	602.0	29.45	5.683	3.734	2.720	2.017	1.690	1.464	1.330	1.307	1.005	1.042	0.950	0.909	0.902	1.013	0.953	0.922	0.693	0.643	0.586	0.509	0.432	0.477	0.365	0.319	0.279	0.282	0.229	0.228	0.180	0.199	0.160	0.195	0.175	0.208	0.174	0.188	0.143	0.176	0.307	0.602	1.230	1.852	2.107	1.499	0.827	0.959	2.006	4.490	9.699	16.51	29.20	29.21	26.10	11.29	3.207	0.312	0.128	0.101	0.113	0.087	0.083	0.083	0.052	0.078
275.0	72.34	78.40	58.09	40.45	62.00	184.0	509.5	291.2	616.2	1171	4199	7089	793.5	20.29	5.894	3.714	2.669	2.149	1.773	1.455	1.370	1.340	1.022	1.017	0.969	0.865	1.138	1.182	1.036	0.698	0.743	0.675	0.497	0.633	0.541	0.513	0.373	0.363	0.366	0.299	0.341	0.253	0.290	0.238	0.315	0.313	0.287	0.324	0.295	0.240	0.236	0.248	0.329	0.433	0.646	1.035	2.392	3.159	2.015	0.998	1.326	2.490	3.984	7.029	10.42	23.02	41.40	28.69	18.70	3.092	0.284	0.143	0.093	0.116	0.108	0.084	0.083
280.0	141.7	142.0	121.9	71.22	56.86	90.40	361.0	591.6	288.9	348.6	1337	6330	6837	113.9	9.995	4.820	3.159	2.686	1.948	1.740	1.449	1.423	1.087	1.216	1.044	0.949	1.367	1.271	1.127	0.829	0.770	0.791	0.612	0.708	0.591	0.601	0.523	0.632	0.403	0.480	0.360	0.324	0.292	0.343	0.389	0.439	0.541	0.473	0.402	0.327	0.252	0.261	0.299	0.338	0.323	0.493	1.121	2.351	3.491	2.772	1.422	1.008	1.322	2.163	2.908	6.312	16.01	35.98	56.44	27.41	13.28	1.529	0.190	0.179	0.115	0.156	0.141
285.0	213.6	234.4	199.0	117.7	80.28	88.15	186.3	584.9	536.0	242.4	464.8	2167	8345	4182	79.29	7.756	4.662	3.357	2.471	1.861	1.613	1.303	1.240	1.322	1.082	1.170	1.293	1.495	1.132	0.815	0.726	0.776	0.602	0.766	0.737	0.784	0.654	0.726	0.557	0.493	0.477	0.432	0.378	0.512	0.551	0.587	0.668	0.663	0.688	0.599	0.459	0.423	0.390	0.402	0.428	0.417	0.685	1.065	2.109	3.597	3.927	1.872	1.106	1.338	1.462	2.385	4.450	10.32	26.31	43.31	52.97	23.94	7.111	0.641	0.166	0.141	0.120
290.0	351.9	408.6	329.2	206.5	136.0	132.5	162.4	327.2	685.9	679.3	469.9	807.0	2744	5001	4324	339.3	16.24	4.858	3.362	2.482	1.881	1.488	1.566	1.378	1.262	1.248	1.437	1.523	1.189	0.917	0.928	0.772	0.779	0.867	1.004	0.996	0.968	0.899	0.704	0.698	0.581	0.623	0.552	0.707	0.779	0.890	1.037	1.042	1.038	0.908	0.704	0.663	0.620	0.551	0.628	0.635	0.740	0.796	1.190	1.835	2.957	3.932	4.130	3.427	2.278	2.200	2.693	3.780	7.544	12.66	22.14	31.46	29.92	33.54	15.68	7.011	0.822
295.0	497.3	578.5	480.4	291.5	194.8	187.2	207.5	285.6	467.8	946.8	983.1	697.3	1005	1402	3676	5122	454.2	13.11	5.197	3.459	2.215	1.785	1.868	1.466	1.496	1.295	1.318	1.585	1.344	1.047	0.972	0.872	0.905	0.881	1.228	1.341	1.257	1.161	1.017	0.836	0.839	0.778	0.757	0.974	0.973	1.353	1.255	1.427	1.419	1.182	1.015	0.854	0.778	0.902	0.759	0.885	1.110	1.029	1.216	1.558	2.016	2.271	3.404	5.771	6.469	4.572	3.278	3.344	4.059	4.935	6.616	8.339	8.845	19.38	38.18	52.21	25.10
300.0	609.5	685.3	578.0	376.4	244.7	248.9	273.6	335.7	475.4	814.4	1408	1027	774.1	624.3	1183	4796	4177	67.87	9.731	4.758	2.962	2.256	1.996	1.744	1.759	1.538	1.725	1.769	1.464	1.067	1.014	0.800	0.881	1.087	1.271	1.625	1.363	1.268	1.106	0.972	0.868	0.845	0.903	0.964	1.321	1.576	1.613	1.854	1.986	1.390	1.218	1.030	1.082	1.074	0.990	1.105	1.353	1.326	1.442	1.721	2.131	2.441	3.043	4.423	6.688	7.832	6.544	4.572	4.220	4.079	3.835	3.594	3.350	5.594	12.44	30.52	48.15
305.0	697.9	791.3	701.3	451.0	318.5	319.6	375.5	474.4	643.6	922.0	1449	1693	1038	646.0	586.3	1725	5431	3258	54.45	7.336	3.821	2.916	2.510	2.167	1.695	1.664	1.871	1.752	1.566	1.060	1.153	1.003	0.886	1.225	1.384	1.490	1.411	1.447	1.222	1.040	0.913	1.140	0.992	1.366	1.387	1.888	1.922	2.302	2.276	1.752	1.475	1.355	1.274	1.319	1.267	1.455	1.631	1.820	2.181	2.617	2.990	3.446	3.805	4.817	5.889	7.756	9.373	8.765	7.030	5.046	4.409	3.844	3.075	3.557	4.519	8.772	18.91
310.0	755.7	899.3	803.1	543.6	379.8	385.8	471.1	598.0	771.0	1029	1372	1745	1598	896.2	593.5	686.5	1914	4049	4394	245.5	12.67	4.001	3.049	2.547	1.983	1.884	2.205	2.011	1.563	1.404	1.182	1.096	0.813	1.194	1.389	1.499	1.509	1.313	1.286	1.138	1.054	1.143	1.118	1.498	1.772	2.007	2.175	2.530	2.428	1.965	1.659	1.737	1.536	1.559	1.538	1.722	2.061	2.406	2.708	3.100	3.463	4.169	4.577	5.334	5.978	7.088	7.833	9.020	9.423	8.731	6.743	5.103	4.063	3.602	3.370	4.015	5.981
315.0	857.4	1027	903.1	614.7	449.7	442.8	529.9	660.5	819.6	1087	1361	1533	1615	1359	743.9	524.9	734.0	1131	3704	4984	350.1	10.97	4.673	2.941	2.374	2.250	2.536	2.197	1.900	1.713	1.151	0.998	0.921	1.243	1.443	1.423	1.490	1.289	1.330	1.187	1.132	1.107	1.332	1.537	1.909	2.314	2.669	2.911	2.669	2.233	1.881	2.097	1.698	1.737	1.808	1.883	2.238	2.774	3.165	3.197	3.532	4.395	4.443	5.495	6.213	6.660	7.530	7.670	8.108	8.609	9.096	8.457	5.622	4.413	3.764	3.366	3.472
320.0	993.2	1277	1098	714.6	510.5	490.2	576.6	707.1	860.1	1128	1388	1524	1512	1492	1042	572.9	522.1	444.0	1076	4162	3198	52.73	7.628	3.705	2.912	2.508	2.715	2.769	2.021	1.406	1.270	1.218	1.002	1.263	1.501	1.349	1.329	1.358	1.216	1.262	1.207	1.242	1.511	1.620	2.166	2.645	3.103	3.507	3.107	2.615	2.234	2.301	1.869	2.069	2.071	2.062	2.559	2.741	3.292	3.568	3.831	4.378	5.096	5.738	6.521	6.999	7.073	7.755	8.040	7.669	8.220	8.442	8.000	6.597	4.572	3.797	3.279
325.0	1223	1586	1419	938.6	597.9	510.6	584.8	738.4	883.1	1127	1391	1526	1483	1357	1272	724.8	501.9	315.1	335.5	1325	3996	2512	44.83	6.197	3.532	3.035	2.964	3.105	2.307	1.764	1.213	1.415	1.093	1.336	1.371	1.407	1.369	1.306	1.310	1.254	1.290	1.227	1.612	1.690	2.625	3.277	3.650	4.179	4.140	3.376	2.894	2.815	2.359	2.189	2.081	2.230	2.705	2.946	3.121	3.860	3.934	4.520	5.015	5.845	6.662	6.960	7.499	7.574	7.834	7.713	7.752	7.403	7.446	8.435	6.677	5.253	3.446
330.0	1429	1950	1924	1412	873.4	627.8	631.6	759.3	895.1	1131	1385	1530	1495	1298	1157	975.7	620.6	340.6	224.6	402.6	1283	2852	3018	201.8	14.79	4.348	4.204	3.589	2.800	1.907	1.681	1.383	1.061	1.350	1.341	1.256	1.278	1.373	1.368	1.284	1.326	1.518	1.631	2.154	2.948	3.928	4.323	5.598	5.590	4.669	4.290	4.173	3.402	2.876	2.559	2.534	2.723	3.086	3.350	3.780	3.993	4.707	5.107	5.908	6.431	7.087	7.413	7.777	7.939	7.953	7.807	7.131	6.901	7.169	6.819	6.802	5.686
335.0	1564	2160	2310	1870	1238	825.6	706.8	789.3	911.7	1134	1373	1532	1510	1337	1109	942.1	884.4	494.1	282.9	277.3	438.3	799.1	2457	3801	324.4	15.55	6.279	4.660	3.083	2.162	1.960	1.562	1.213	1.473	1.461	1.268	1.220	1.397	1.364	1.388	1.485	1.520	2.066	2.427	3.283	4.405	5.043	6.292	6.538	5.701	5.303	5.780	4.902	4.166	3.377	2.901	3.179	3.184	3.576	3.979	4.046	4.714	4.926	5.702	6.656	6.986	7.450	7.638	7.838	8.048	7.919	7.447	7.211	7.067	6.159	5.981	6.198
340.0	1670	2276	2484	2047	1399	929.7	745.5	808.3	916.9	1125	1349	1504	1493	1335	1114	891.9	864.2	680.5	366.8	290.1	287.8	334.0	799.1	3165	2796	260.1	13.62	5.913	4.076	2.129	2.008	1.607	1.460	1.595	1.395	1.356	1.311	1.328	1.350	1.542	1.442	1.750	1.960	2.508	3.482	4.351	5.145	6.769	7.188	6.574	6.148	6.178	5.643	4.624	3.829	3.250	3.279	3.419	3.390	3.907	4.150	4.606	5.106	5.617	6.438	6.658	7.359	7.709	7.633	7.675	7.802	7.529	7.269	6.826	6.085	5.911	5.418
345.0	1615	2275	2512	2088	1450	941.0	755.0	801.9	925.9	1106	1305	1439	1422	1300	1097	871.7	762.8	742.2	512.2	336.5	287.4	266.1	343.8	1067	3426	2459	45.03	8.850	4.830	2.541	2.192	1.792	1.391	1.635	1.344	1.430	1.334	1.405	1.427	1.413	1.428	1.652	1.852	2.477	3.459	4.593	5.140	6.510	6.876	6.796	6.148	6.459	5.441	4.711	3.879	3.146	3.280	3.386	3.350	3.806	4.236	4.479	4.991	5.873	6.077	6.415	7.089	7.006	7.695	7.450	7.566	7.349	6.965	6.752	5.930	5.893	5.366
350.0	1508	2088	2326	2052	1491	985.7	781.5	809.8	906.9	1057	1238	1352	1348	1251	1080	877.5	736.8	667.2	646.6	504.5	360.7	310.6	289.1	397.3	1104	2613	4270	1037	17.08	3.783	2.627	1.874	1.554	1.701	1.360	1.388	1.297	1.426	1.337	1.413	1.383	1.555	1.917	2.377	3.100	4.089	4.847	6.216	6.320	6.362	6.150	6.539	5.674	4.973	4.043	3.325	3.344	3.380	3.572	3.899	4.168	4.474	4.847	5.298	5.911	6.121	6.615	6.838	6.876	7.107	7.039	7.175	6.511	6.743	6.065	5.905	5.445
355.0	1389	1867	2109	1920	1480	1023	810.2	830.5	911.7	1030	1186	1272	1276	1212	1058	892.9	767.8	667.8	635.1	665.5	497.2	395.1	335.2	294.0	385.7	696.4	3210	6877	336.0	16.46	3.978	2.665	1.776	1.844	1.532	1.356	1.330	1.407	1.260	1.445	1.374	1.519	1.717	2.231	2.849	3.703	4.335	5.459	5.851	5.973	5.578	6.079	5.416	5.172	4.353	3.691	3.586	3.573	3.765	3.863	4.320	4.386	4.660	5.286	5.571	5.809	6.238	6.305	6.553	6.698	6.883	6.673	6.627	6.133	6.112	5.954	5.479
360.0	1282	1721	1989	1812	1445	1037	848.7	846.7	932.8	1030	1149	1219	1227	1157	1040	907.3	795.3	710.2	654.7	677.9	676.0	482.9	397.9	315.9	270.9	275.3	910.0	5147	5806	264.2	9.436	3.606	2.261	1.977	1.825	1.317	1.355	1.297	1.467	1.327	1.341	1.415	1.805	2.238	2.869	3.431	4.020	4.631	5.271	5.377	5.127	5.925	5.516	4.888	4.302	3.772	3.613	3.910	3.916	4.006	4.248	4.427	4.697	5.255	5.608	5.621	6.044	6.296	6.290	6.331	6.346	6.500	6.356	6.297	5.889	5.978	5.775
365.0	1202	1630	1845	1747	1434	1049	893.9	891.6	963.4	1061	1144	1187	1192	1130	1035	924.6	831.3	764.6	714.3	693.9	739.6	656.4	486.0	380.6	297.2	221.9	305.8	1542	5667	2392	41.06	6.665	3.127	2.619	2.086	1.527	1.467	1.312	1.610	1.402	1.397	1.583	1.689	2.231	2.514	3.243	3.780	4.499	4.949	5.070	4.763	5.846	5.238	5.001	4.208	3.731	3.785	4.043	4.148	4.061	4.120	4.695	4.833	5.171	5.646	5.566	5.662	5.846	6.168	5.961	6.368	6.403	6.306	6.286	6.040	5.926	5.679
370.0	1132	1510	1728	1648	1401	1111	960.2	958.2	1025	1096	1140	1159	1155	1108	1038	945.2	890.4	846.9	812.5	784.9	772.9	782.9	676.5	502.4	385.4	288.1	234.1	462.2	1670	2277	2586	678.7	15.75	4.496	2.839	1.945	1.638	1.606	1.518	1.447	1.379	1.533	1.670	2.030	2.521	3.003	3.548	4.181	4.711	4.736	4.633	5.425	5.216	5.002	4.627	4.015	4.126	4.170	4.281	4.521	4.590	4.959	5.196	5.324	5.554	5.557	5.586	5.531	5.908	6.089	6.338	6.255	6.319	6.375	6.268	6.385	6.009
375.0	1109	1438	1613	1572	1387	1148	1018	1013	1070	1122	1139	1134	1134	1095	1030	963.2	925.4	906.9	891.6	875.8	846.3	820.5	817.2	688.1	511.3	390.8	302.2	292.2	509.9	621.2	1632	2958	283.0	22.15	5.099	2.914	2.143	1.829	1.637	1.580	1.392	1.496	1.720	1.951	2.389	2.911	3.288	4.031	4.699	4.531	4.543	5.303	5.109	5.071	4.667	4.198	4.403	4.394	4.525	4.758	5.170	4.973	5.455	5.600	5.867	5.442	5.534	5.492	5.827	5.964	5.921	6.039	6.328	6.351	6.145	6.406	6.280
380.0	1112	1420	1558	1527	1381	1176	1048	1057	1092	1142	1138	1123	1125	1089	1034	971.0	944.8	941.1	940.2	930.3	908.1	870.3	845.3	826.4	644.5	495.0	387.3	326.2	313.4	284.6	512.9	2011	2306	267.9	13.86	4.706	3.104	2.343	1.868	1.838	1.455	1.705	1.725	1.951	2.464	2.776	3.222	3.705	4.240	4.033	4.228	5.193	5.236	4.894	4.838	4.144	4.557	4.660	4.701	4.759	5.359	5.172	5.239	5.688	5.759	5.603	5.560	5.804	6.056	5.776	6.009	5.774	6.112	6.036	6.198	6.480	6.323
385.0	1092	1382	1532	1505	1397	1200	1108	1102	1141	1177	1168	1141	1138	1111	1051	992.4	967.2	969.7	976.2	981.5	966.1	934.0	894.6	888.2	800.9	625.3	500.4	399.1	347.0	275.1	268.6	649.8	2261	2234	202.4	10.11	5.268	3.426	2.322	2.000	1.535	1.497	1.762	1.985	2.351	2.830	3.092	3.862	4.109	4.112	4.146	4.933	5.270	4.833	4.894	4.447	4.982	4.898	4.935	4.780	5.469	5.427	5.737	5.690	6.011	5.327	5.879	5.798	5.826	6.069	5.951	5.984	6.225	6.257	6.538	6.461	6.467
390.0	1105	1369	1534	1536	1443	1315	1239	1246	1276	1324	1317	1296	1291	1244	1163	1072	1021	1016	1035	1058	1068	1062	1040	1005	980.2	889.0	732.6	620.2	532.7	431.2	327.8	346.6	744.0	2121	2463	661.1	20.22	8.848	4.412	2.702	1.839	1.646	1.872	2.120	2.636	2.864	3.148	3.929	4.108	4.169	4.131	5.062	5.381	5.258	5.189	4.944	5.214	5.335	5.474	5.617	5.724	6.019	6.062	6.329	6.301	6.112	6.400	6.175	6.277	6.616	6.651	6.504	6.653	6.747	6.989	6.871	7.063
395.0	1231	1455	1618	1605	1594	1497	1474	1507	1572	1671	1672	1736	1709	1623	1463	1277	1149	1111	1129	1176	1219	1256	1279	1271	1251	1236	1154	995.6	885.7	752.5	606.3	478.3	428.6	675.0	1557	2743	984.1	27.93	10.99	4.641	2.518	2.404	2.307	2.413	2.543	3.080	3.213	3.998	4.184	4.460	4.352	5.504	5.762	5.879	5.665	5.772	5.659	6.063	6.168	6.624	6.959	6.925	7.646	7.828	7.741	7.916	8.251	7.897	8.062	8.153	8.258	8.385	8.234	8.007	8.645	7.928	7.870
400.0	1386	1581	1728	1766	1768	1730	1768	1841	1965	2172	2312	2377	2314	2164	1901	1569	1329	1228	1237	1301	1385	1460	1545	1591	1591	1597	1580	1452	1289	1138	944.4	737.1	551.7	422.3	627.6	1866	2894	235.6	25.36	8.321	3.896	2.719	2.544	2.793	2.857	3.332	3.621	4.465	4.717	4.624	4.974	6.082	6.482	6.565	6.267	6.252	7.099	7.223	7.262	7.768	7.856	8.183	9.247	9.655	9.965	9.775	10.09	10.20	10.13	10.50	10.45	10.46	10.13	10.32	10.08	9.302	8.745
405.0	1487	1736	1865	1940	1994	2020	2093	2210	2436	2783	3070	3137	3050	2800	2417	1932	1551	1376	1362	1447	1565	1691	1825	1937	1987	2005	2014	1958	1765	1564	1336	1061	789.1	581.8	512.6	764.6	2350	1932	203.3	16.10	5.508	3.318	2.995	3.180	3.465	3.670	3.850	4.783	5.049	5.033	5.273	6.530	6.857	6.995	6.656	7.292	8.034	8.304	8.819	9.329	9.393	9.923	11.02	11.63	12.15	12.24	12.70	13.10	13.59	13.61	13.01	13.43	13.09	12.76	12.28	11.30	10.26
410.0	1598	1829	2004	2105	2212	2287	2405	2569	2898	3343	3748	3877	3743	3412	2902	2286	1754	1492	1466	1566	1713	1894	2082	2251	2357	2399	2406	2376	2239	2000	1719	1388	1051	780.3	619.1	558.0	867.4	1764	2178	717.8	15.84	4.950	3.862	3.595	3.765	4.025	4.213	4.812	5.297	5.222	5.507	6.948	7.448	7.643	7.881	8.505	8.985	9.157	9.921	10.24	11.09	12.07	12.94	13.51	14.45	14.92	15.05	15.30	15.86	15.75	15.45	15.54	15.51	15.00	13.25	13.14	11.90
415.0	1558	1805	1992	2106	2232	2318	2448	2631	2978	3440	3857	3966	3846	3506	2981	2315	1757	1481	1445	1543	1702	1900	2097	2280	2412	2470	2477	2440	2337	2149	1835	1493	1135	853.5	667.2	527.4	473.0	554.6	1223	2995	223.5	16.46	4.729	4.008	3.921	3.720	4.182	4.877	4.882	5.112	5.551	7.014	7.321	7.934	8.311	8.447	9.432	9.352	10.09	10.72	11.24	12.23	12.95	13.90	14.30	15.09	15.40	15.39	16.01	16.01	15.97	16.17	15.92	15.19	13.52	13.02	11.80
420.0	1538	1762	1931	2038	2183	2262	2388	2576	2872	3295	3688	3798	3689	3356	2844	2211	1684	1414	1388	1475	1623	1818	2021	2199	2325	2388	2400	2359	2252	2108	1830	1474	1126	852.0	664.2	511.3	378.5	275.5	370.8	1929	1733	188.2	9.729	4.395	4.086	3.985	4.202	4.664	4.995	5.029	5.340	6.673	6.979	7.553	7.815	8.090	9.222	9.400	9.932	10.41	10.89	11.67	12.05	13.02	13.74	14.50	14.55	15.29	15.52	15.42	15.42	15.82	15.36	14.44	12.98	12.50	11.46
425.0	1492	1746	1860	1964	2113	2250	2363	2530	2795	3206	3578	3697	3576	3257	2759	2142	1634	1370	1331	1417	1569	1745	1943	2125	2252	2320	2343	2310	2191	2048	1833	1474	1128	858.6	669.9	516.6	362.7	222.2	164.2	557.4	1425	1179	30.56	6.381	4.696	4.233	4.052	4.690	4.834	4.929	5.374	6.692	7.160	7.266	7.725	8.224	9.554	9.443	10.19	10.06	10.76	11.27	11.98	13.01	13.94	13.98	14.18	14.72	14.86	15.29	14.65	14.76	14.99	13.89	13.39	11.84	11.76
430.0	1606	1684	1835	1975	2112	2285	2433	2604	2864	3258	3646	3772	3638	3307	2799	2173	1631	1353	1305	1387	1525	1710	1916	2110	2245	2333	2364	2331	2225	2072	1865	1556	1202	914.8	724.8	563.0	399.8	238.3	137.2	178.2	410.4	835.6	955.9	346.0	14.14	4.918	4.392	4.693	4.885	4.893	5.081	6.718	7.237	7.468	7.853	8.290	9.380	9.776	10.03	10.47	10.86	11.59	12.14	13.21	13.78	14.31	14.42	14.89	14.71	15.35	14.88	15.02	14.89	13.92	13.09	12.03	11.11
435.0	1984	1689	1836	1982	2151	2339	2505	2680	2924	3313	3706	3808	3673	3332	2806	2181	1635	1339	1281	1348	1485	1664	1880	2076	2220	2317	2351	2334	2232	2087	1880	1597	1274	974.1	775.1	611.8	444.2	270.9	152.7	108.1	131.7	214.4	531.6	1315	682.5	14.06	5.073	4.980	4.882	5.059	4.951	6.747	7.129	7.657	8.408	8.393	9.453	10.14	10.65	10.24	11.22	11.69	12.82	13.48	13.88	14.53	14.68	15.40	14.82	15.50	15.19	14.83	14.60	14.10	12.71	12.16	11.13
440.0	2340	1762	1776	1942	2128	2315	2508	2651	2871	3181	3565	3672	3528	3208	2693	2104	1569	1291	1235	1290	1408	1581	1784	1967	2109	2204	2248	2231	2146	2007	1811	1544	1252	984.4	775.5	619.0	456.2	287.3	165.9	100.3	76.73	78.37	152.3	866.5	1697	168.9	8.723	5.088	5.018	4.975	4.972	6.618	7.060	7.650	8.007	8.701	9.469	10.26	10.28	10.12	10.80	11.11	12.56	12.88	13.23	13.91	13.94	14.22	14.53	15.19	14.63	14.65	14.37	13.75	12.35	11.86	10.28
445.0	2378	2053	1705	1861	2042	2256	2393	2540	2693	2965	3252	3360	3242	2950	2504	1944	1466	1206	1157	1199	1298	1451	1633	1807	1936	2015	2065	2056	1980	1858	1684	1436	1168	945.1	758.8	599.7	445.6	289.6	174.2	105.8	72.28	53.83	59.02	251.7	1263	1066	25.87	6.596	5.212	4.753	5.000	6.301	6.915	7.382	7.794	8.322	9.306	9.678	9.882	9.866	10.21	10.88	11.45	12.06	12.22	12.16	13.17	13.15	13.66	13.68	13.65	13.02	13.09	12.85	11.81	10.78	9.638
450.0	1732	2529	1760	1690	1886	2062	2225	2334	2406	2582	2811	2880	2782	2540	2159	1700	1301	1076	1028	1058	1135	1253	1404	1555	1666	1739	1775	1774	1717	1617	1472	1258	1028	846.9	704.5	560.3	416.9	279.8	179.5	117.1	80.34	56.02	43.50	77.52	344.9	799.6	945.0	303.0	11.32	5.044	4.856	5.882	6.411	6.944	7.297	7.552	8.742	9.167	9.586	9.080	9.439	9.802	10.20	10.47	10.49	10.79	11.33	11.52	11.51	11.73	11.72	11.36	11.49	11.15	10.08	9.630	8.750
455.0	1214	2398	2286	1563	1718	1893	2055	2117	2154	2265	2423	2469	2376	2165	1864	1472	1147	964.6	912.3	925.7	980.6	1081	1203	1326	1424	1489	1514	1518	1470	1398	1273	1103	907.1	747.0	635.2	528.2	396.2	273.0	183.9	125.7	88.89	64.10	46.36	44.02	96.70	196.9	502.5	1101	170.2	12.34	5.217	5.896	6.033	6.455	6.623	7.153	7.828	8.530	8.806	8.503	8.506	8.918	9.183	9.053	9.245	9.414	9.803	9.809	10.06	9.899	9.822	9.725	9.979	9.287	8.829	8.450	7.744
460.0	1021	1783	2773	1567	1604	1776	1920	1978	1977	2078	2194	2239	2147	1945	1676	1339	1045	888.0	833.0	844.6	883.5	965.1	1074	1179	1267	1326	1356	1361	1326	1263	1154	1010	833.5	690.9	584.0	504.1	390.3	268.4	184.4	130.5	96.37	70.03	50.85	39.72	44.06	61.28	135.8	678.8	982.5	136.3	8.372	5.935	5.809	6.183	6.531	6.992	7.634	8.019	8.264	8.169	8.158	8.262	8.282	8.513	8.527	8.217	8.999	8.809	9.091	9.200	8.891	9.160	9.034	8.509	7.977	8.065	6.904
465.0	919.7	1321	2721	1933	1507	1646	1796	1851	1833	1887	2002	2039	1955	1776	1523	1222	961.6	812.2	763.2	773.7	802.4	875.9	971.6	1070	1139	1198	1226	1227	1197	1149	1058	926.1	773.3	642.6	544.4	470.2	381.2	269.5	184.5	133.6	99.30	74.15	55.18	41.64	35.27	32.81	45.56	191.8	819.6	904.2	103.0	6.662	5.745	5.596	6.007	6.595	7.386	7.502	7.698	7.488	7.597	7.393	7.545	8.122	8.041	7.851	8.073	8.205	8.535	8.266	8.417	8.234	7.993	7.993	7.280	7.106	6.690
470.0	880.8	1023	1839	2538	1507	1478	1613	1652	1621	1643	1725	1769	1693	1531	1309	1061	837.3	709.9	667.1	669.5	688.1	744.9	825.4	911.2	971.5	1020	1047	1046	1025	989.9	916.5	804.3	675.8	566.4	485.0	413.4	343.0	261.2	185.1	133.2	100.7	76.83	59.07	45.65	37.11	29.68	28.41	57.03	228.6	655.3	739.4	264.5	11.56	5.678	5.723	6.014	6.624	6.827	6.850	6.735	6.862	6.586	6.651	6.888	6.872	6.982	7.414	6.884	7.150	7.451	7.415	7.053	6.922	7.049	6.316	6.257	5.771
475.0	764.6	886.0	1134	2325	1976	1310	1395	1413	1381	1387	1439	1463	1397	1272	1084	887.6	707.1	602.8	567.6	566.9	573.2	616.0	676.0	748.1	793.6	832.1	851.9	862.1	845.5	814.6	759.8	674.8	573.4	482.4	416.5	357.5	296.2	237.0	183.9	132.6	100.3	77.40	61.51	49.04	39.76	31.90	26.74	28.59	63.41	158.6	358.6	826.9	170.7	12.03	5.610	5.630	5.865	6.123	5.855	5.963	5.862	5.952	5.918	5.976	6.021	5.910	5.941	5.736	6.190	6.016	6.171	5.975	5.892	5.638	5.432	5.196	5.221
480.0	721.7	791.4	878.1	1645	2424	1307	1242	1269	1223	1213	1239	1250	1202	1091	934.4	768.7	617.9	529.8	502.6	495.3	496.6	531.4	581.6	642.0	679.4	713.2	729.9	734.2	721.8	697.1	655.3	584.5	501.5	426.5	370.0	320.2	266.4	212.5	175.9	136.1	101.7	79.18	62.89	51.01	42.17	33.55	28.45	24.22	28.14	45.99	95.30	465.7	769.4	142.0	8.144	5.301	5.355	5.578	5.384	5.561	5.129	5.620	5.185	5.436	4.833	5.361	5.041	5.290	5.395	5.501	5.426	5.257	5.043	5.027	4.499	4.378	4.436
485.0	645.3	767.5	765.3	1099	2421	1575	1134	1149	1089	1072	1091	1100	1057	953.9	818.5	677.5	553.0	477.2	450.3	439.4	441.8	468.4	507.1	560.0	593.5	619.7	629.6	637.4	631.8	611.8	575.4	516.2	446.4	384.7	332.8	288.7	242.6	194.6	160.8	135.8	103.6	79.20	64.16	52.29	43.30	35.69	30.40	25.00	22.06	22.53	31.37	130.2	597.3	677.6	25.28	6.203	5.675	5.162	4.950	5.215	4.961	4.944	4.629	4.592	4.522	5.025	4.805	4.789	4.686	4.677	4.890	4.608	4.395	4.283	3.996	3.906	3.866
490.0	534.2	709.0	720.1	820.4	1613	2203	1134	1008	953.0	928.3	943.5	938.9	899.8	816.2	702.4	584.3	477.8	417.6	390.8	380.7	380.0	398.5	435.6	472.8	502.2	523.9	533.3	539.3	533.5	520.8	492.2	443.1	386.1	334.5	293.3	257.7	217.5	176.6	145.0	124.9	106.5	82.41	65.14	54.46	46.37	38.33	33.23	27.48	22.77	19.67	19.13	39.26	163.7	451.8	576.2	231.7	12.39	5.242	4.615	4.579	4.353	4.095	3.976	3.995	4.107	4.107	4.106	4.100	3.978	4.185	4.247	4.047	4.008	3.854	3.586	3.505	3.371
495.0	441.1	621.8	675.8	678.2	943.4	2108	1582	877.1	821.1	806.2	812.0	806.9	767.5	694.4	594.8	496.7	411.6	361.8	335.7	326.3	322.6	340.5	368.6	398.5	421.9	439.6	447.4	452.5	448.0	439.1	415.5	376.6	333.7	289.3	255.7	229.8	193.7	158.0	131.6	110.9	98.28	85.92	67.71	56.87	47.33	41.02	35.27	30.78	25.13	20.86	18.37	20.65	46.43	110.4	295.7	715.8	191.4	14.36	4.871	4.376	3.751	3.644	3.386	3.486	3.400	3.362	3.487	3.401	3.434	3.395	3.573	3.481	3.351	3.381	3.127	2.930	2.936
500.0	385.6	535.8	654.9	611.2	696.5	1476	2088	855.3	728.6	713.5	721.1	709.5	674.8	608.1	529.0	434.2	366.5	325.0	298.1	288.3	283.1	297.3	322.4	346.8	365.9	380.1	388.1	391.4	387.9	381.5	363.9	331.0	294.1	257.1	228.1	203.5	175.6	145.9	120.6	102.3	89.46	83.91	69.81	56.42	47.64	41.47	36.78	31.47	27.04	22.64	19.50	17.30	20.97	33.78	78.80	397.2	728.8	166.5	8.516	4.219	3.674	3.336	3.099	3.317	3.204	3.132	3.128	2.894	3.156	3.082	3.238	2.909	2.881	2.806	2.713	2.654	2.391
505.0	347.8	450.2	608.6	565.4	586.3	924.6	2211	1115	649.0	636.9	639.4	626.9	589.2	539.2	467.4	386.3	322.7	284.6	263.7	253.4	250.2	262.7	283.0	304.9	325.0	335.4	340.8	341.1	342.2	334.5	317.4	291.3	258.9	228.0	204.6	183.0	158.9	133.8	110.9	95.13	83.03	77.49	70.66	57.71	47.49	41.04	37.26	31.98	28.00	23.85	20.60	17.68	16.28	17.52	25.91	108.6	514.0	723.0	28.22	5.302	3.611	3.096	3.118	2.877	2.794	2.665	2.827	2.642	2.803	2.768	2.969	2.784	2.580	2.337	2.486	2.408	2.336
510.0	298.3	374.4	484.7	534.3	513.5	614.1	1444	1833	661.4	537.7	540.2	534.0	498.2	448.5	388.6	325.1	271.6	241.7	223.8	215.0	211.6	218.5	234.0	252.8	269.3	276.0	282.0	282.0	281.8	275.9	263.8	243.8	216.9	192.6	175.4	156.0	137.6	116.9	99.71	85.66	74.29	66.54	63.46	58.20	48.31	40.91	36.27	31.69	27.40	24.22	21.44	18.36	15.74	14.28	14.45	31.49	136.7	436.7	501.8	234.3	11.69	3.119	2.816	2.559	2.560	2.400	2.416	2.438	2.463	2.323	2.450	2.422	2.285	2.119	2.132	2.030	1.895
515.0	258.3	314.1	372.4	480.8	464.5	471.4	715.6	1951	1113	454.4	447.3	439.0	403.1	367.4	317.8	264.4	223.5	198.3	188.3	178.1	173.1	179.9	193.2	205.2	215.2	223.4	226.7	227.2	225.2	222.4	214.5	196.9	178.1	159.3	144.9	131.4	115.3	100.2	86.62	75.43	66.37	58.95	54.31	53.75	49.56	40.79	35.17	31.01	27.35	23.85	21.25	18.50	15.91	13.76	12.07	14.87	36.54	103.4	213.7	639.8	199.0	14.56	2.712	2.290	2.204	2.162	1.982	2.052	2.061	1.980	1.837	1.897	1.938	1.826	1.855	1.586	1.634
520.0	218.9	270.7	311.4	409.3	447.7	395.2	473.9	1320	1803	451.4	386.8	378.7	350.6	314.8	270.9	228.4	193.1	173.4	162.3	154.0	150.4	155.8	163.7	172.9	184.1	188.9	191.4	191.7	190.5	189.5	182.8	167.6	153.5	138.9	126.1	114.2	100.7	88.39	77.37	68.33	60.82	54.74	50.00	48.12	47.59	42.23	34.73	30.00	26.46	23.30	20.95	18.65	15.70	13.91	11.61	10.73	14.49	28.13	54.10	313.1	609.5	177.1	9.459	2.260	2.002	1.766	1.861	1.831	1.738	1.652	1.731	1.743	1.639	1.557	1.737	1.509	1.457
525.0	194.0	234.7	271.3	327.4	425.4	360.2	384.3	697.2	2180	693.9	337.7	328.9	310.6	270.8	231.4	195.8	169.4	150.1	140.8	133.0	131.7	133.9	143.1	149.8	158.8	161.7	162.1	164.6	164.5	162.6	157.1	145.2	133.2	120.2	109.0	99.13	90.13	78.98	69.33	61.97	55.61	50.08	44.95	42.59	42.91	41.32	34.78	28.93	25.22	22.48	20.06	18.16	15.36	13.65	11.10	9.833	9.255	11.26	16.10	80.30	370.4	569.8	130.8	4.180	2.010	1.656	1.708	1.684	1.660	1.463	1.577	1.485	1.435	1.345	1.395	1.349	1.205
530.0	162.0	203.3	230.0	259.4	360.0	346.8	316.0	389.0	1434	1487	358.4	278.3	255.7	228.8	193.7	165.9	141.9	123.8	117.6	112.0	109.4	111.3	118.2	124.8	131.0	132.6	134.2	134.6	135.4	133.1	129.0	119.8	109.8	99.74	91.96	84.14	76.05	67.17	60.22	53.43	48.83	44.12	40.20	37.65	36.13	36.88	34.42	28.48	23.26	20.88	18.88	16.87	14.59	13.06	11.13	9.266	7.703	7.340	7.452	21.05	93.63	287.0	390.5	121.0	11.33	1.779	1.518	1.444	1.434	1.271	1.368	1.261	1.239	1.161	1.182	1.071	1.051
535.0	142.7	172.2	187.1	205.8	262.4	334.3	270.0	273.7	560.7	1683	790.6	233.3	215.3	188.0	159.7	137.9	116.8	105.3	97.75	93.02	89.93	92.39	95.18	100.7	104.8	107.5	107.6	108.9	108.3	107.3	104.1	96.87	89.00	81.95	75.84	71.03	62.90	57.28	50.43	45.65	41.50	38.32	35.22	32.32	30.55	30.16	31.11	28.25	22.68	19.24	17.03	15.18	13.72	11.93	10.69	9.175	7.213	6.086	5.224	7.731	23.42	66.51	136.2	380.3	195.4	13.63	1.498	1.320	1.162	1.081	1.145	0.976	1.006	0.928	0.933	0.845	0.883
540.0	125.4	140.8	159.7	175.4	204.7	298.5	256.4	225.3	288.7	1067	1457	231.8	184.0	160.9	134.9	115.7	100.1	90.24	83.03	78.63	76.44	77.86	81.85	86.63	89.41	91.71	93.43	91.81	91.32	90.80	88.20	81.71	75.60	70.14	64.49	59.95	53.69	49.68	44.29	40.50	36.61	33.92	31.25	29.53	27.00	26.30	27.02	26.22	22.40	17.80	15.35	14.16	12.16	11.15	10.02	8.651	6.991	5.674	4.765	4.576	7.884	16.97	33.13	163.5	386.4	153.0	7.076	1.307	1.020	0.996	0.924	0.925	0.827	0.890	0.763	0.863	0.650
545.0	110.9	119.1	142.0	152.2	164.9	244.3	248.8	189.6	204.3	488.7	1789	394.7	160.2	140.6	116.6	99.53	85.35	78.09	72.37	68.18	66.02	66.40	70.42	71.80	77.14	77.67	79.59	78.47	77.44	77.84	75.01	69.80	64.29	58.42	55.55	51.05	46.83	42.79	38.15	35.82	33.19	29.96	27.47	26.35	24.38	23.31	22.90	22.98	21.60	17.22	14.52	12.46	11.75	10.48	8.781	8.191	7.199	5.540	4.342	3.728	4.080	5.803	9.289	40.01	194.5	346.6	29.77	3.607	1.083	0.857	0.828	0.737	0.823	0.792	0.651	0.762	0.640
550.0	91.66	111.5	121.0	125.4	134.6	169.8	240.0	173.9	154.5	224.1	1059	1056	153.9	112.4	96.24	80.29	69.19	63.36	58.66	56.05	54.07	53.75	57.12	59.20	60.71	62.62	61.98	62.46	61.76	61.17	59.98	56.38	52.15	48.10	44.86	41.57	38.50	34.99	31.98	29.58	27.33	25.35	23.60	22.07	21.01	19.67	18.75	18.24	18.29	16.53	13.33	11.24	10.10	8.777	7.584	6.906	6.314	5.228	4.124	3.338	3.003	3.126	3.622	10.43	47.21	154.5	200.4	118.8	11.80	0.993	0.749	0.631	0.688	0.673	0.602	0.593	0.594
555.0	74.35	97.07	101.4	100.5	103.5	116.8	189.6	179.8	123.7	139.2	359.3	1288	426.6	88.89	75.83	63.42	54.50	49.60	46.28	42.90	43.32	41.91	44.50	45.81	46.63	48.14	48.94	48.57	47.67	47.31	45.42	43.85	40.60	37.03	34.75	32.99	29.73	27.67	25.36	24.12	21.89	20.16	19.30	18.39	17.45	16.56	15.09	14.36	14.24	14.44	12.47	9.916	8.297	7.383	6.449	5.936	5.195	4.747	3.987	3.052	2.399	2.226	2.140	3.592	11.56	35.57	66.05	229.2	182.7	15.50	0.790	0.628	0.620	0.503	0.533	0.458	0.487
560.0	63.68	91.00	84.74	90.23	89.72	93.14	136.1	187.4	114.2	107.7	159.2	820.5	904.5	90.59	61.89	51.74	45.12	40.42	38.54	35.47	34.55	35.14	35.66	36.85	38.68	38.68	39.73	39.29	39.00	38.33	37.19	35.83	34.11	30.76	28.55	26.74	24.65	23.08	21.31	19.80	18.41	17.50	16.06	15.16	14.86	13.70	12.94	11.60	11.73	12.16	11.00	9.181	7.525	6.398	5.747	5.043	4.439	3.953	3.983	3.039	2.285	2.017	1.663	1.943	3.627	8.875	15.86	85.39	256.0	147.7	8.324	0.629	0.514	0.440	0.505	0.377	0.378
565.0	72.28	81.45	85.49	78.61	77.18	80.42	98.23	177.6	115.0	94.84	107.7	339.6	1189	131.3	50.94	43.89	37.53	34.43	32.02	29.58	28.38	28.73	30.24	30.17	31.61	32.78	31.92	32.42	32.08	31.89	31.56	29.57	28.12	25.58	23.90	22.23	21.48	19.04	17.87	16.28	15.49	14.64	13.62	13.06	12.67	11.97	11.41	10.50	9.559	9.510	9.591	8.629	6.532	5.676	4.836	4.475	3.603	3.447	3.207	3.076	2.267	1.743	1.507	1.445	1.715	2.807	4.293	20.45	111.3	254.1	89.63	3.537	0.429	0.374	0.459	0.420	0.327
570.0	67.62	70.23	72.74	67.26	64.81	68.38	75.19	122.6	138.3	86.20	86.60	139.4	729.2	651.8	60.26	35.16	29.65	27.17	25.25	23.77	22.97	22.86	23.38	24.46	25.09	25.36	24.92	25.40	24.71	25.56	24.21	23.30	21.75	19.95	19.16	17.79	16.81	15.27	14.34	13.18	12.30	11.82	11.11	10.60	10.37	9.662	9.056	8.414	7.859	7.256	7.407	7.404	6.405	5.003	4.136	3.880	3.176	2.874	2.540	2.524	2.347	1.827	1.301	1.332	1.239	1.370	1.669	5.187	26.38	97.25	160.0	94.47	10.55	0.600	0.328	0.352	0.253
575.0	64.21	73.60	70.40	55.24	53.54	55.19	59.00	80.97	145.9	95.17	78.36	88.24	237.7	869.4	233.5	28.76	23.75	21.87	19.24	18.51	18.06	17.78	17.62	18.61	19.12	19.23	19.02	19.22	19.37	19.11	19.35	17.49	16.54	15.42	14.53	13.68	13.12	12.23	11.44	10.34	9.742	9.473	8.946	8.530	8.066	7.865	7.561	6.919	6.343	5.584	5.310	5.384	5.560	4.738	3.687	3.154	2.828	2.298	2.047	1.783	1.926	1.918	1.559	1.172	1.064	0.929	1.054	1.716	6.492	22.23	45.16	137.0	127.0	12.11	0.365	0.231	0.273
580.0	56.77	68.94	66.73	49.56	49.85	47.40	54.65	61.30	122.1	113.8	76.69	76.91	100.7	569.5	574.8	30.13	20.16	17.82	16.83	15.77	15.27	15.21	15.46	15.28	15.60	15.99	15.92	15.86	15.93	16.00	15.67	14.93	13.22	12.59	11.91	11.27	10.64	10.05	9.348	8.880	8.437	7.738	7.579	7.078	6.721	6.412	6.010	5.850	5.314	4.705	4.360	4.051	4.820	4.480	3.379	2.988	2.347	2.041	1.816	1.516	1.581	1.696	1.661	1.073	0.865	0.816	0.890	1.089	2.084	5.450	10.69	47.58	157.7	87.33	5.756	0.289	0.228
585.0	54.09	65.02	63.47	49.46	42.54	42.98	48.83	54.22	89.75	131.0	79.88	72.17	69.15	227.2	798.9	73.46	16.93	14.62	14.54	12.85	12.46	13.49	12.83	12.59	13.61	13.80	13.46	12.96	13.54	13.26	13.17	12.25	11.34	10.47	9.829	9.075	8.692	8.134	7.802	7.606	7.174	6.537	6.000	6.077	5.664	5.625	5.163	4.810	4.617	4.094	3.870	3.542	3.643	3.921	3.338	2.666	1.996	1.904	1.679	1.241	1.406	1.266	1.616	1.297	0.941	0.747	0.916	0.842	0.946	1.754	2.811	11.29	63.14	138.0	30.90	2.556	0.300
590.0	54.52	63.75	61.76	45.03	38.88	38.05	41.20	47.28	62.44	123.8	96.04	69.36	59.98	82.22	495.2	384.1	21.95	12.28	11.12	10.51	10.05	10.51	10.20	10.34	10.78	10.65	10.51	10.58	10.82	10.14	10.08	9.362	8.778	8.538	7.918	7.554	6.904	6.488	6.234	5.946	5.734	5.382	4.873	4.567	4.610	4.612	4.305	4.003	3.738	3.208	3.190	2.813	2.767	2.789	2.928	2.538	1.929	1.496	1.293	1.123	1.123	1.075	1.216	1.372	1.191	0.747	0.780	0.701	0.697	0.821	0.985	2.887	14.83	49.74	81.82	62.06	10.46
595.0	51.25	60.34	59.24	40.05	33.70	34.22	37.16	42.70	50.57	91.12	122.1	71.77	56.98	46.81	149.3	556.2	74.11	10.57	8.609	8.656	7.982	8.373	7.797	7.812	8.100	8.641	8.130	8.379	7.742	7.940	7.798	7.499	6.860	6.650	6.368	5.686	5.588	5.052	4.982	4.351	4.181	4.105	3.918	3.943	3.764	3.573	3.409	3.213	2.911	2.659	2.570	2.203	2.063	2.100	2.369	2.338	1.990	1.312	1.029	0.967	0.952	0.897	0.876	0.940	1.292	0.861	0.741	0.616	0.549	0.644	0.489	0.953	3.555	11.31	22.21	73.94	85.10
600.0	53.76	53.12	52.07	37.11	32.92	30.68	33.74	38.70	46.27	68.07	127.4	79.31	56.44	38.34	51.30	377.1	297.1	13.39	7.686	7.134	6.495	6.642	6.483	6.638	7.038	7.023	6.591	6.739	6.735	6.595	6.360	6.303	5.647	5.328	5.069	4.571	4.483	4.132	4.257	3.719	3.537	3.359	3.336	3.298	3.244	2.992	2.807	2.755	2.537	2.221	2.057	1.741	1.687	1.604	1.768	2.107	1.908	1.319	0.934	0.964	0.784	0.802	0.722	0.780	0.900	1.053	0.949	0.696	0.578	0.532	0.396	0.506	1.013	2.715	5.124	23.68	90.14
605.0	50.30	48.54	51.89	36.97	31.18	29.43	34.54	38.09	44.02	61.04	118.1	95.94	60.70	38.19	30.36	154.2	461.3	46.51	6.971	5.962	5.617	5.562	5.572	5.751	5.907	5.991	5.716	5.578	5.615	5.619	5.267	5.264	4.760	4.441	4.502	3.645	3.794	3.473	3.372	3.241	3.007	2.827	2.895	2.794	2.747	2.485	2.505	2.495	2.106	1.841	1.734	1.509	1.453	1.367	1.350	1.549	1.661	1.360	0.980	0.830	0.769	0.732	0.641	0.820	0.626	0.991	1.020	0.636	0.495	0.522	0.466	0.461	0.474	0.843	1.384	5.569	33.14
610.0	47.88	54.95	49.07	35.85	30.14	29.38	35.48	41.07	50.25	65.51	99.31	124.4	74.05	45.87	33.44	54.24	327.0	300.6	11.11	4.999	4.800	4.259	4.399	4.452	4.596	4.896	4.765	4.672	4.495	4.610	4.592	4.155	3.959	3.677	3.493	3.139	3.010	3.016	2.613	2.465	2.361	2.243	2.148	2.125	2.092	2.038	1.984	1.839	1.634	1.553	1.436	1.326	1.227	1.070	0.988	1.082	1.247	1.298	1.017	0.773	0.663	0.692	0.653	0.700	0.655	0.748	0.900	0.829	0.627	0.591	0.471	0.405	0.364	0.426	0.515	1.457	7.760
615.0	54.84	52.25	48.73	34.05	27.65	28.93	31.55	40.84	50.95	66.26	83.24	121.3	88.67	50.58	33.99	30.60	109.8	483.1	55.43	4.713	3.914	3.500	3.454	3.656	3.692	3.507	3.820	3.531	3.703	3.633	3.501	3.130	2.954	2.751	2.637	2.624	2.354	2.218	2.215	2.031	1.868	1.725	1.708	1.681	1.618	1.521	1.699	1.428	1.458	1.145	1.071	1.004	0.976	0.914	0.852	0.766	0.871	0.923	1.098	0.815	0.616	0.619	0.588	0.620	0.503	0.673	0.623	0.885	0.711	0.640	0.405	0.387	0.372	0.287	0.360	0.488	1.884
620.0	38.96	47.82	50.19	33.29	29.75	27.52	32.55	38.17	48.09	61.32	74.96	104.3	99.07	51.41	34.04	25.02	42.38	358.1	239.4	5.281	3.376	2.763	2.901	3.188	3.127	2.858	3.000	2.883	2.978	2.647	2.864	2.798	2.256	2.516	2.242	1.969	2.025	1.645	1.720	1.732	1.486	1.500	1.325	1.410	1.365	1.272	1.320	1.333	1.160	0.984	0.951	1.003	0.852	0.786	0.729	0.655	0.705	0.743	0.868	0.813	0.556	0.497	0.574	0.577	0.491	0.537	0.567	0.702	0.754	0.795	0.417	0.345	0.346	0.294	0.287	0.361	0.593
625.0	39.62	44.06	46.32	31.65	25.82	28.88	31.45	36.99	43.82	57.77	70.62	85.93	102.7	55.05	34.75	23.24	24.92	154.1	396.9	19.83	3.181	2.646	2.606	2.707	2.594	2.405	2.676	2.500	2.570	2.333	2.612	2.230	1.992	1.966	1.804	1.693	1.662	1.442	1.418	1.425	1.196	1.216	1.137	1.217	1.128	1.122	1.078	1.147	0.990	0.830	0.791	0.754	0.643	0.655	0.676	0.580	0.546	0.629	0.727	0.806	0.588	0.528	0.532	0.422	0.477	0.489	0.574	0.666	0.650	0.756	0.512	0.337	0.329	0.279	0.213	0.268	0.293
630.0	43.75	46.80	45.37	30.82	24.15	26.36	29.95	35.49	41.76	53.65	67.03	74.52	90.76	65.17	33.77	23.44	21.42	46.81	303.6	136.0	4.638	2.301	2.219	2.150	2.170	1.938	2.120	2.141	2.061	1.860	2.013	1.710	1.650	1.523	1.488	1.285	1.250	1.165	1.114	1.119	0.938	1.017	0.976	0.930	0.946	0.907	0.866	0.860	0.823	0.728	0.680	0.533	0.519	0.506	0.484	0.464	0.465	0.461	0.510	0.626	0.629	0.545	0.450	0.463	0.478	0.479	0.447	0.490	0.458	0.603	0.697	0.391	0.318	0.267	0.218	0.253	0.228
635.0	37.07	48.74	43.51	32.47	23.45	22.26	28.67	33.85	37.63	52.57	64.46	71.19	72.76	75.00	37.53	23.45	19.32	19.28	95.25	281.1	31.87	2.279	1.888	1.756	1.694	1.605	1.773	1.832	1.564	1.556	1.501	1.449	1.231	1.235	1.122	0.992	0.960	1.024	0.859	0.896	0.767	0.763	0.681	0.608	0.743	0.605	0.616	0.673	0.637	0.646	0.593	0.491	0.442	0.459	0.369	0.361	0.434	0.348	0.371	0.424	0.549	0.478	0.483	0.494	0.425	0.442	0.378	0.467	0.456	0.446	0.491	0.489	0.329	0.267	0.285	0.203	0.270
640.0	39.68	46.82	44.65	32.91	22.33	21.80	27.25	31.43	36.68	48.57	61.33	68.77	66.83	74.05	44.21	24.66	20.21	12.65	26.50	236.1	112.3	2.763	1.602	1.465	1.573	1.374	1.614	1.561	1.364	1.436	1.363	1.150	1.204	1.121	0.947	1.012	0.728	0.837	0.671	0.698	0.580	0.636	0.629	0.525	0.559	0.599	0.533	0.589	0.578	0.445	0.488	0.435	0.321	0.301	0.298	0.360	0.306	0.404	0.303	0.289	0.447	0.520	0.510	0.471	0.400	0.493	0.364	0.401	0.547	0.443	0.395	0.579	0.475	0.296	0.284	0.218	0.241
645.0	48.15	61.53	49.00	32.15	22.21	21.57	24.46	32.80	36.29	48.29	57.82	66.20	63.37	65.48	51.03	26.27	20.43	12.40	10.57	112.8	207.4	9.871	1.564	1.373	1.440	1.300	1.353	1.365	1.294	1.220	1.129	1.052	1.066	0.899	0.763	0.705	0.669	0.625	0.646	0.596	0.568	0.506	0.509	0.509	0.501	0.569	0.496	0.546	0.450	0.437	0.408	0.354	0.284	0.279	0.253	0.372	0.323	0.338	0.205	0.288	0.333	0.466	0.424	0.379	0.474	0.418	0.360	0.389	0.447	0.372	0.372	0.462	0.470	0.389	0.300	0.157	0.231
650.0	45.49	61.59	53.23	34.79	21.95	22.44	25.58	29.83	36.07	45.96	54.78	60.39	60.09	56.25	56.66	26.93	19.96	11.75	6.724	35.51	225.4	44.68	1.764	1.344	1.237	1.334	1.224	1.268	1.068	1.081	1.011	1.044	0.975	0.808	0.714	0.596	0.623	0.568	0.527	0.498	0.487	0.465	0.496	0.435	0.456	0.471	0.466	0.530	0.470	0.401	0.335	0.299	0.296	0.263	0.272	0.292	0.311	0.281	0.231	0.263	0.315	0.407	0.383	0.426	0.407	0.355	0.264	0.462	0.472	0.389	0.371	0.400	0.441	0.477	0.325	0.157	0.197
