Sample:	'1
File name:	w112910袁家屋子东南闸口.FD3
Run date:	'13:14:14, 12/02/2024
Operator:	Administrator
Comment:	'

Instrument
Model:	F-2700 FL Spectrophotometer
Serial number:	23B8-004
ROM Version:	4J14000 07

Instrument parameters
Measurement type:	3-D scan
Data mode:	Fluorescence
EX  Start WL:	220.0 nm
EX  End WL:	600.0 nm
EX Sampling interval:	5.0 nm
EM  Start WL:	230.0 nm
EM  End WL:	650.0 nm
EM Sampling interval:	5.0 nm
Scan speed:	12000 nm/min
EX Slit:	5.0 nm
EM Slit:	5.0 nm
PMT Voltage:	700 V
Response:	Auto 
Corrected spectra:	Off
Contour interval:	50.000

Peak integration
Integration method:	Rectangular
Sensitivity:	1
Threshold:	1.000

Peaks
No.	ApexEX/EM(nm)	Height(Data)
1	225.0/305.0	875.0
2	225.0/325.0	963.3
3	225.0/570.0	50.68
4	225.0/585.0	62.69
5	225.0/595.0	62.66
6	225.0/605.0	64.74
7	225.0/620.0	56.40
8	230.0/340.0	1090
9	230.0/500.0	295.0
10	230.0/615.0	54.39
11	235.0/385.0	785.1
12	235.0/510.0	275.3
13	240.0/265.0	385.3
14	240.0/390.0	760.0
15	240.0/400.0	760.4
16	240.0/525.0	236.1
17	245.0/270.0	378.1
18	245.0/535.0	204.3
19	250.0/275.0	480.4
20	250.0/545.0	166.7
21	255.0/280.0	586.8
22	255.0/560.0	141.0
23	260.0/575.0	118.2
24	265.0/585.0	125.9
25	270.0/300.0	1582
26	270.0/600.0	133.8
27	275.0/305.0	1891
28	275.0/335.0	1583
29	275.0/610.0	128.6
30	280.0/625.0	98.70
31	315.0/355.0	414.9
32	320.0/365.0	398.6
33	325.0/370.0	387.4
34	330.0/375.0	382.2
35	335.0/380.0	374.0
36	350.0/400.0	344.0
37	365.0/420.0	289.6
38	415.0/485.0	53.25
39	430.0/505.0	33.10
40	445.0/525.0	19.36
41	505.0/275.0	2.909
42	510.0/280.0	3.111
43	520.0/285.0	3.373
44	530.0/290.0	3.952
45	540.0/295.0	6.191
46	545.0/300.0	7.441
47	550.0/305.0	8.130
48	560.0/310.0	7.404
49	570.0/315.0	6.599
50	575.0/320.0	5.937
51	585.0/325.0	5.603

Data points
	220.0	225.0	230.0	235.0	240.0	245.0	250.0	255.0	260.0	265.0	270.0	275.0	280.0	285.0	290.0	295.0	300.0	305.0	310.0	315.0	320.0	325.0	330.0	335.0	340.0	345.0	350.0	355.0	360.0	365.0	370.0	375.0	380.0	385.0	390.0	395.0	400.0	405.0	410.0	415.0	420.0	425.0	430.0	435.0	440.0	445.0	450.0	455.0	460.0	465.0	470.0	475.0	480.0	485.0	490.0	495.0	500.0	505.0	510.0	515.0	520.0	525.0	530.0	535.0	540.0	545.0	550.0	555.0	560.0	565.0	570.0	575.0	580.0	585.0	590.0	595.0	600.0
230.0	46.04	1253	2405	676.8	28.51	4.000	2.514	2.991	2.441	2.431	2.290	2.214	1.976	1.562	1.226	0.948	0.836	0.845	0.755	0.631	0.565	0.554	0.508	0.498	0.434	0.345	0.337	0.336	0.317	0.331	0.228	0.221	0.239	0.249	0.214	0.232	0.194	0.167	0.173	0.195	0.201	0.245	0.237	0.200	0.158	0.172	1.041	4.755	7.642	5.154	1.572	0.335	0.118	0.122	0.125	0.113	0.101	0.097	0.107	0.095	0.088	0.072	0.093	0.095	0.091	0.071	0.074	0.069	0.075	0.062	0.071	0.063	0.074	0.067	0.057	0.058	0.048
235.0	98.23	350.7	1594	2636	603.1	45.31	3.659	3.133	2.627	2.848	2.360	1.967	2.344	1.591	1.376	1.046	0.943	0.683	0.603	0.619	0.565	0.439	0.503	0.439	0.519	0.444	0.345	0.297	0.252	0.256	0.230	0.193	0.258	0.213	0.243	0.263	0.257	0.130	0.137	0.216	0.200	0.240	0.240	0.302	0.284	0.188	0.362	1.278	3.192	6.226	8.537	8.772	3.360	0.657	0.138	0.103	0.120	0.103	0.103	0.125	0.073	0.078	0.098	0.087	0.063	0.054	0.056	0.057	0.079	0.061	0.068	0.051	0.069	0.079	0.065	0.061	0.083
240.0	143.7	167.9	480.2	2231	2971	469.6	23.56	4.777	3.359	2.886	3.048	2.519	2.112	1.697	1.507	1.303	1.093	0.769	0.764	0.669	0.682	0.464	0.568	0.493	0.469	0.368	0.353	0.356	0.274	0.233	0.305	0.269	0.256	0.222	0.183	0.209	0.198	0.206	0.198	0.181	0.143	0.192	0.174	0.284	0.333	0.403	0.335	0.415	0.888	1.894	5.132	12.84	15.22	9.324	3.091	0.408	0.117	0.121	0.146	0.094	0.062	0.102	0.146	0.119	0.089	0.129	0.052	0.069	0.087	0.050	0.069	0.064	0.075	0.086	0.048	0.048	0.070
245.0	106.3	203.8	174.1	760.1	3227	3097	339.0	11.66	4.096	3.291	3.947	3.033	2.686	1.883	1.423	1.316	1.293	0.770	0.969	0.801	0.728	0.461	0.562	0.396	0.466	0.488	0.425	0.312	0.402	0.290	0.334	0.260	0.277	0.264	0.244	0.143	0.214	0.322	0.272	0.246	0.190	0.148	0.152	0.199	0.245	0.449	0.540	0.453	0.408	0.527	1.345	4.509	12.08	19.79	18.65	8.715	1.814	0.228	0.204	0.089	0.168	0.071	0.081	0.135	0.132	0.106	0.112	0.060	0.062	0.060	0.064	0.051	0.073	0.076	0.057	0.054	0.053
250.0	44.28	142.8	233.9	261.4	1016	3008	3729	1262	67.97	5.790	4.308	3.829	3.088	2.433	1.732	1.505	1.106	0.936	0.888	0.792	0.729	0.560	0.563	0.531	0.522	0.524	0.446	0.394	0.428	0.304	0.333	0.291	0.272	0.256	0.192	0.212	0.186	0.245	0.199	0.237	0.203	0.189	0.171	0.160	0.177	0.263	0.357	0.611	0.776	0.643	0.670	1.183	2.978	6.595	12.54	18.61	23.28	17.77	9.541	2.235	0.220	0.110	0.120	0.109	0.137	0.107	0.108	0.087	0.083	0.071	0.068	0.057	0.068	0.092	0.070	0.071	0.058
255.0	24.85	50.99	151.1	332.1	324.5	757.8	2762	5837	1693	64.48	6.690	5.553	4.265	2.923	2.063	1.698	1.355	1.163	1.126	0.845	0.689	0.657	0.625	0.631	0.604	0.443	0.447	0.412	0.418	0.373	0.454	0.353	0.265	0.258	0.261	0.205	0.198	0.224	0.206	0.237	0.219	0.234	0.222	0.166	0.182	0.208	0.200	0.320	0.384	0.616	1.107	1.153	1.008	1.652	2.974	4.562	9.303	22.24	38.78	27.06	13.73	2.092	0.185	0.119	0.159	0.131	0.100	0.099	0.077	0.090	0.063	0.080	0.104	0.054	0.080	0.106	0.063
260.0	20.43	27.11	57.48	279.5	328.9	234.5	806.5	4521	6264	287.3	29.25	7.599	4.793	3.492	2.391	1.930	1.733	1.286	1.132	0.947	0.783	0.716	0.629	0.590	0.485	0.503	0.483	0.378	0.470	0.341	0.352	0.337	0.310	0.253	0.273	0.221	0.197	0.287	0.222	0.210	0.237	0.164	0.181	0.183	0.228	0.181	0.195	0.204	0.210	0.294	0.695	1.407	1.473	1.069	0.849	1.205	2.307	6.107	17.34	34.10	46.74	24.98	10.05	0.874	0.148	0.167	0.134	0.140	0.123	0.133	0.070	0.113	0.068	0.054	0.113	0.079	0.071
265.0	22.47	25.31	25.48	124.1	385.3	265.5	220.3	1447	6162	5932	226.4	14.37	5.673	4.412	3.120	2.526	1.780	1.447	1.255	1.064	1.028	0.693	0.660	0.647	0.598	0.554	0.435	0.402	0.431	0.399	0.405	0.332	0.324	0.359	0.276	0.272	0.253	0.326	0.236	0.230	0.217	0.202	0.209	0.260	0.247	0.208	0.196	0.181	0.139	0.166	0.257	0.721	1.451	1.878	1.238	0.658	0.798	1.564	4.241	10.38	26.68	47.03	53.69	21.45	5.042	0.370	0.138	0.184	0.161	0.119	0.113	0.094	0.072	0.097	0.088	0.113	0.062
270.0	41.34	31.82	29.39	45.83	179.3	378.1	295.3	383.8	1877	5540	6990	870.1	50.91	6.735	4.456	3.028	2.099	1.814	1.311	1.338	1.047	0.903	0.834	0.822	0.655	0.642	0.495	0.539	0.546	0.433	0.451	0.394	0.407	0.387	0.371	0.289	0.253	0.303	0.235	0.231	0.198	0.218	0.244	0.262	0.255	0.260	0.252	0.185	0.209	0.156	0.184	0.310	0.552	0.927	1.442	1.747	1.568	1.036	1.275	2.558	6.437	13.78	27.43	40.35	38.98	41.96	14.76	5.450	0.475	0.186	0.124	0.124	0.149	0.169	0.123	0.113	0.097
275.0	84.59	71.46	69.35	48.09	65.73	170.4	480.4	355.8	474.5	1364	4664	9999.9	1221	49.34	7.026	4.308	3.497	2.597	1.797	1.529	1.196	0.923	0.945	0.962	0.744	0.710	0.586	0.591	0.576	0.473	0.412	0.490	0.457	0.458	0.403	0.429	0.318	0.312	0.328	0.252	0.233	0.331	0.269	0.267	0.361	0.256	0.333	0.319	0.380	0.225	0.219	0.239	0.303	0.418	0.562	0.928	2.048	2.909	1.997	1.159	1.696	3.332	6.443	9.536	12.77	33.31	63.29	69.55	23.80	6.070	0.362	0.228	0.150	0.162	0.146	0.111	0.156
280.0	127.3	156.3	127.5	72.16	50.74	83.75	283.6	586.8	294.8	378.9	1333	7360	9209	865.9	22.82	6.482	4.268	2.646	2.042	1.707	1.625	1.230	1.044	0.885	0.830	0.824	0.552	0.700	0.576	0.551	0.469	0.449	0.542	0.397	0.437	0.391	0.393	0.389	0.379	0.306	0.212	0.369	0.343	0.316	0.385	0.405	0.465	0.429	0.502	0.391	0.315	0.322	0.324	0.288	0.308	0.409	0.867	1.820	3.111	2.656	1.417	1.136	1.791	2.496	3.248	8.609	22.27	51.46	75.14	32.98	19.44	2.958	0.294	0.177	0.220	0.113	0.155
285.0	190.4	251.4	215.8	126.0	65.13	71.60	133.7	480.4	589.5	266.9	462.7	2286	8698	7621	122.5	11.45	5.193	3.627	2.873	1.943	1.798	1.408	1.193	0.978	0.962	0.941	0.655	0.732	0.626	0.528	0.526	0.534	0.517	0.411	0.546	0.500	0.528	0.448	0.485	0.353	0.286	0.464	0.395	0.465	0.540	0.631	0.640	0.669	0.644	0.511	0.391	0.442	0.347	0.343	0.297	0.341	0.492	0.797	1.526	3.060	3.373	1.950	1.372	1.145	1.461	2.769	5.814	13.73	31.64	57.44	82.51	30.49	14.26	1.252	0.310	0.192	0.233
290.0	355.0	441.9	392.0	225.5	112.7	96.05	125.2	269.6	640.2	768.6	575.7	947.6	2766	6712	7088	1863	30.30	5.579	3.714	2.888	2.309	1.744	1.361	1.213	1.061	1.031	0.769	0.724	0.732	0.657	0.602	0.571	0.591	0.558	0.691	0.698	0.678	0.599	0.595	0.474	0.480	0.494	0.553	0.684	0.718	0.890	0.943	1.126	1.070	0.859	0.617	0.660	0.503	0.469	0.421	0.478	0.532	0.626	0.983	1.589	2.458	3.424	3.952	3.186	2.275	2.328	3.096	4.843	8.896	15.88	31.86	42.68	59.22	50.92	38.08	10.80	1.757
295.0	507.6	662.6	569.6	339.7	173.0	137.9	169.6	262.7	477.5	977.5	1241	999.9	1196	1851	4364	9400	685.5	29.05	5.580	3.540	2.839	2.190	1.658	1.343	1.189	0.993	0.843	0.850	0.815	0.824	0.695	0.626	0.648	0.748	0.872	0.825	0.817	0.693	0.777	0.568	0.513	0.648	0.609	0.791	0.949	1.277	1.321	1.635	1.559	1.320	0.886	0.824	0.642	0.646	0.581	0.620	0.697	0.862	1.046	1.357	1.779	2.336	3.272	5.101	6.191	4.886	4.080	3.945	4.424	6.075	9.217	10.89	15.33	24.88	58.02	79.59	33.20
300.0	584.3	768.9	704.8	423.2	220.4	179.0	212.1	318.4	509.1	879.8	1582	1406	1007	800.1	1251	6379	5820	519.4	13.99	5.107	3.857	2.836	1.921	1.803	1.429	1.247	1.063	0.977	0.936	0.704	0.848	0.705	0.602	0.844	0.953	1.008	0.907	0.757	0.733	0.647	0.570	0.619	0.730	0.933	1.143	1.414	1.648	1.747	1.855	1.481	1.148	1.055	0.829	0.652	0.653	0.771	0.918	1.090	1.378	1.437	1.925	2.186	2.874	4.047	6.022	7.441	6.866	5.252	4.360	4.353	4.622	3.990	4.656	6.429	16.39	39.80	70.58
305.0	636.9	875.0	790.0	471.4	258.8	210.7	265.8	382.2	588.2	891.3	1431	1891	1192	655.4	477.8	1850	6640	4975	72.95	8.232	4.764	3.655	2.571	1.941	1.839	1.462	1.061	0.975	0.920	0.888	0.817	0.777	0.647	0.747	1.012	1.048	1.007	0.810	0.714	0.646	0.711	0.569	0.847	0.847	1.308	1.487	1.725	2.031	1.953	1.497	1.197	1.104	1.059	0.842	0.780	0.922	1.145	1.360	1.643	1.912	2.384	2.539	3.302	4.185	4.885	6.279	8.130	7.866	5.750	4.497	3.847	3.023	2.464	2.486	4.506	10.15	22.68
310.0	628.5	868.5	796.2	489.5	292.4	257.7	313.9	446.3	644.1	935.5	1304	1712	1594	819.2	371.7	550.1	1925	4949	5379	1369	21.57	5.210	3.241	2.457	1.995	1.674	1.438	1.177	1.057	1.023	0.858	0.790	0.742	0.865	1.076	1.053	1.015	0.825	0.815	0.718	0.733	0.704	0.870	0.883	1.203	1.486	1.726	2.147	1.943	1.571	1.275	1.184	1.129	1.043	0.881	1.056	1.285	1.508	1.780	2.012	2.542	2.937	3.667	4.405	4.605	5.247	6.135	7.305	7.404	6.814	5.399	3.383	2.392	1.841	1.997	3.110	5.818
315.0	638.0	839.7	802.3	513.9	332.1	306.3	384.2	519.4	714.6	978.7	1300	1489	1478	1214	504.3	317.3	551.0	1212	3385	6918	487.6	21.65	4.664	3.607	2.440	1.962	1.781	1.495	1.280	1.116	1.061	0.951	0.857	0.978	0.945	1.030	0.983	0.875	0.748	0.647	0.667	0.694	0.827	0.902	1.187	1.432	1.709	2.174	1.981	1.459	1.376	1.197	1.184	1.189	1.238	1.259	1.514	1.643	1.947	2.228	2.582	3.045	3.969	4.286	5.002	5.261	5.752	6.209	5.622	6.040	6.599	5.578	3.720	2.368	1.847	1.695	2.374
320.0	652.2	846.7	819.9	535.3	371.5	348.5	437.8	584.3	796.4	1068	1336	1467	1354	1228	808.8	345.6	287.3	367.8	912.0	4681	4142	401.8	10.18	4.591	3.317	2.481	1.901	1.400	1.413	1.071	1.075	0.998	0.926	0.992	0.999	1.005	1.002	0.832	0.794	0.698	0.651	0.724	0.912	0.907	1.285	1.510	1.772	2.164	2.071	1.616	1.459	1.452	1.435	1.277	1.343	1.489	1.611	1.875	2.527	2.481	3.045	3.582	4.181	4.531	5.120	5.182	5.754	5.644	5.606	5.319	5.447	5.937	5.530	4.229	2.627	1.771	1.957
325.0	658.7	963.3	912.9	619.9	420.0	400.0	505.4	676.8	875.5	1144	1395	1498	1344	1093	993.3	539.1	271.0	203.2	273.3	1351	5066	3776	56.04	7.374	4.050	3.006	2.011	1.631	1.564	1.145	1.164	1.018	0.908	1.075	1.019	1.041	0.932	0.892	0.698	0.718	0.742	0.704	1.099	1.029	1.344	1.570	1.855	2.245	2.304	1.809	1.626	1.658	1.356	1.339	1.488	1.614	1.782	2.250	2.649	2.690	3.175	3.710	4.165	4.566	5.382	5.474	5.644	5.676	5.736	5.481	5.416	4.443	4.902	5.603	4.155	2.996	2.053
330.0	675.9	963.1	1006	744.9	527.7	485.1	581.9	771.0	993.3	1257	1476	1560	1397	1089	885.5	768.0	445.2	212.9	157.1	362.3	1469	4260	4287	1163	17.53	4.394	2.904	2.300	1.921	1.512	1.246	1.179	1.029	1.010	1.011	1.031	0.896	0.863	0.732	0.793	0.739	0.842	0.883	1.053	1.328	1.606	1.939	2.386	2.480	2.169	1.891	1.950	1.767	1.611	1.771	1.721	2.194	2.527	3.027	3.210	3.631	4.157	4.685	5.180	5.644	5.830	5.933	6.029	5.912	5.765	5.187	4.648	4.389	4.715	4.247	4.329	3.869
335.0	672.7	935.9	1071	850.0	629.9	574.9	654.7	841.7	1081	1331	1518	1583	1427	1143	861.1	690.3	659.8	350.6	171.5	168.7	384.7	1026	2943	6163	402.8	17.93	4.063	2.724	2.392	1.757	1.560	1.345	1.181	1.121	1.173	1.089	0.947	1.012	0.886	0.677	0.727	0.795	0.904	1.042	1.298	1.752	1.867	2.545	2.509	2.437	2.100	2.216	2.133	1.856	2.077	2.052	2.488	2.897	3.031	3.410	3.813	4.414	4.794	5.432	5.706	5.930	5.974	6.062	6.185	5.973	5.600	4.947	4.530	4.309	3.943	3.580	3.773
340.0	620.2	970.9	1090	896.4	666.3	607.7	683.2	860.7	1094	1315	1490	1550	1407	1146	867.3	643.2	608.9	520.7	227.7	145.2	160.1	281.1	804.8	4462	5051	331.2	8.332	3.580	2.801	1.989	1.703	1.362	1.266	1.085	1.104	0.978	0.949	0.934	0.831	0.727	0.748	0.820	0.959	1.067	1.180	1.613	1.893	2.459	2.568	2.561	2.254	2.307	2.446	2.098	2.104	2.021	2.726	2.804	3.333	3.576	4.002	4.198	4.990	5.297	5.555	5.767	5.903	5.821	6.025	5.721	5.378	4.809	4.695	4.210	3.759	3.286	3.130
345.0	627.0	917.6	1069	916.8	683.6	632.4	695.1	860.7	1071	1268	1431	1460	1348	1119	866.1	634.5	509.7	538.7	363.0	168.2	126.6	129.8	227.2	1323	4929	3120	48.85	5.349	3.159	2.469	1.916	1.459	1.292	1.142	0.975	1.074	1.008	0.834	0.714	0.838	0.789	0.912	0.855	0.995	1.168	1.608	1.799	2.409	2.716	2.396	2.338	2.604	2.442	2.334	2.039	2.257	2.688	2.839	3.228	3.459	3.935	4.292	4.943	5.058	5.331	5.601	5.446	5.643	5.658	5.499	5.451	4.893	4.530	4.322	3.792	3.295	3.029
350.0	617.5	830.3	992.2	897.3	725.8	654.9	692.7	827.9	997.1	1168	1299	1332	1233	1048	828.9	624.9	481.9	431.8	441.0	303.6	162.3	122.2	119.9	344.4	1452	3457	3502	899.9	15.21	3.294	2.254	1.882	1.519	1.242	1.059	0.994	0.982	0.912	0.745	0.776	0.775	0.814	0.819	0.973	1.088	1.488	1.697	2.218	2.401	2.345	2.214	2.635	2.345	2.336	2.265	2.304	2.548	2.666	2.971	3.375	3.663	3.986	4.429	4.725	4.919	5.012	5.162	4.986	4.965	5.058	4.833	4.683	4.320	4.100	3.725	3.372	3.104
355.0	567.6	755.9	913.3	871.3	732.1	671.9	681.7	792.7	922.7	1061	1144	1183	1113	970.3	783.6	617.7	492.2	404.3	374.7	414.9	278.1	157.5	123.8	147.8	371.5	839.2	2541	4650	368.8	15.17	3.315	2.204	1.885	1.421	1.186	1.081	0.937	0.991	0.844	0.650	0.824	0.663	0.759	0.915	1.012	1.405	1.540	1.895	2.103	2.061	2.224	2.440	2.233	2.222	2.151	2.259	2.684	2.629	2.952	3.233	3.236	3.676	4.012	4.446	4.337	4.641	4.696	4.565	4.737	4.604	4.358	4.272	3.862	3.903	3.707	3.215	3.239
360.0	511.2	733.0	847.7	843.3	750.5	677.6	689.0	757.6	865.1	982.5	1058	1095	1024	907.2	758.6	608.6	502.5	416.2	358.5	378.7	389.1	226.9	149.7	124.5	148.3	231.8	706.3	3563	3106	300.4	7.602	3.041	2.192	1.721	1.338	1.168	0.906	0.893	0.931	0.700	0.809	0.803	0.796	0.941	1.012	1.301	1.590	1.727	2.204	1.954	2.068	2.507	2.731	2.397	2.231	2.307	2.497	2.560	2.753	3.032	3.003	3.435	3.890	3.981	4.262	4.072	4.528	4.267	4.162	4.198	4.518	4.068	3.720	4.168	3.391	3.302	3.103
365.0	461.2	698.0	800.8	815.7	755.5	683.9	677.6	733.4	819.4	914.8	985.8	1004	942.6	846.3	732.7	604.0	505.7	433.2	373.8	348.8	398.6	338.1	190.2	141.3	116.2	110.8	198.9	1080	4068	2838	45.38	4.566	2.788	1.886	1.470	1.166	1.074	0.926	0.918	0.765	0.749	0.737	0.779	0.899	0.980	1.314	1.325	1.771	2.120	2.060	1.977	2.407	2.495	2.283	2.309	2.242	2.548	2.567	2.603	2.885	3.104	3.461	3.789	3.697	3.847	3.864	4.115	3.910	4.051	3.966	4.042	3.775	3.437	3.554	3.479	3.359	3.245
370.0	455.6	649.5	773.8	800.8	748.4	687.2	681.4	709.1	775.0	844.7	907.4	916.6	870.6	794.7	699.7	596.2	519.8	457.6	404.7	365.0	357.5	387.4	309.5	193.7	140.1	111.7	103.8	283.4	1235	3147	3269	816.2	13.72	2.815	1.989	1.477	1.221	1.095	0.885	0.768	0.772	0.770	0.785	0.841	1.008	1.157	1.389	1.736	2.003	1.970	1.927	2.353	2.461	2.502	2.367	2.172	2.486	2.516	2.612	2.726	3.137	3.166	3.365	3.374	3.557	3.532	3.686	3.766	3.741	3.725	3.720	3.439	3.436	3.325	3.320	3.436	3.205
375.0	452.7	612.3	738.4	768.6	739.6	709.6	679.2	702.9	741.6	794.9	829.2	838.4	806.3	754.8	668.2	595.4	528.7	480.2	438.5	395.1	365.5	349.4	382.2	302.6	184.7	137.5	108.2	123.2	317.3	768.6	2383	4121	318.7	14.16	2.899	1.869	1.434	1.188	0.972	0.827	0.856	0.949	0.866	0.813	0.936	1.268	1.467	1.627	1.866	1.871	1.920	2.343	2.406	2.398	2.515	2.554	2.698	2.389	2.628	2.826	2.717	2.729	3.110	3.224	3.202	3.398	3.280	3.419	3.454	3.496	3.463	3.271	3.293	3.379	3.166	3.295	3.325
380.0	430.9	600.1	724.1	777.5	758.4	711.5	688.8	697.7	710.5	756.7	785.0	791.8	760.9	712.5	646.4	588.4	532.8	493.5	459.1	421.3	386.9	353.6	361.4	374.0	246.7	165.9	127.7	103.9	124.9	211.2	658.7	3117	2688	259.3	6.890	2.482	1.778	1.403	1.031	0.951	0.867	0.857	0.881	0.872	1.034	1.199	1.332	1.605	1.920	1.706	1.880	2.309	2.304	2.378	2.443	2.470	2.656	2.464	2.655	2.819	2.662	2.964	2.846	3.061	3.007	3.080	3.198	3.236	3.227	3.252	3.193	3.256	3.188	3.221	3.168	3.117	3.373
385.0	446.6	576.1	718.0	785.1	758.5	700.6	685.0	688.3	698.9	722.2	751.7	750.9	728.3	684.2	632.4	580.1	535.9	507.5	469.9	440.5	402.6	370.8	347.9	373.3	329.9	206.0	152.4	117.8	98.92	97.41	183.8	937.3	3368	2388	37.68	4.067	2.187	1.715	1.283	0.994	0.922	0.791	0.938	0.831	0.990	1.162	1.505	1.592	1.709	1.697	1.730	2.334	2.652	2.415	2.562	2.417	2.741	2.743	2.791	2.699	2.571	2.817	2.911	2.917	3.149	2.933	2.946	3.062	3.124	3.303	2.937	3.095	3.027	2.996	3.135	3.079	3.154
390.0	424.7	573.3	715.9	759.3	760.0	711.1	694.6	678.1	681.0	705.1	717.6	715.5	700.2	664.4	617.9	571.5	537.4	512.5	488.2	459.6	425.1	392.9	364.6	345.8	356.0	302.3	203.9	151.1	120.9	99.03	95.76	247.9	1008	2450	2500	667.9	12.34	2.386	1.677	1.128	1.086	0.900	0.833	0.882	0.965	1.194	1.278	1.579	1.724	1.810	1.720	2.291	2.459	2.449	2.503	2.453	2.642	2.665	2.584	2.808	2.593	2.777	2.891	2.797	2.897	2.834	2.868	2.974	2.967	3.003	2.863	3.048	3.028	3.162	3.221	3.001	2.962
395.0	409.8	568.8	696.0	745.2	750.8	714.1	697.3	684.4	680.1	684.6	695.0	699.2	671.6	647.0	602.4	568.8	541.2	516.2	499.1	471.5	443.6	414.0	386.9	357.0	336.0	345.8	295.9	196.7	154.4	126.8	100.8	111.4	264.0	604.0	1735	3157	269.0	13.41	2.297	1.575	1.384	0.967	0.937	1.102	0.890	1.231	1.277	1.471	1.669	1.739	1.791	2.193	2.424	2.545	2.630	2.602	2.573	2.616	2.620	2.679	2.497	2.815	2.631	2.846	2.903	2.867	2.826	2.844	2.773	2.960	3.111	2.827	3.067	2.944	2.967	3.202	3.047
400.0	403.6	545.0	685.1	739.7	760.4	723.8	697.5	681.8	669.9	677.9	681.5	681.2	662.5	636.4	590.4	555.1	531.7	514.7	497.6	475.2	450.1	425.9	400.4	371.4	339.6	331.3	344.0	254.2	185.2	150.2	116.0	93.81	107.9	172.6	482.8	2298	2237	230.0	6.581	1.900	1.623	1.063	1.132	1.175	0.880	1.293	1.334	1.520	1.774	1.657	1.654	2.228	2.395	2.354	2.615	2.482	2.670	2.770	2.580	2.660	2.665	2.827	2.655	2.883	3.008	2.756	2.899	2.826	2.788	2.935	2.892	2.843	2.969	2.976	2.835	2.932	3.119
405.0	400.7	537.8	696.0	734.5	750.0	719.6	696.5	684.8	661.9	668.5	677.7	669.9	654.8	624.2	584.4	549.9	523.1	511.4	496.8	469.6	453.9	430.8	409.2	382.9	352.5	324.7	334.4	313.6	219.3	170.1	133.9	101.1	82.69	82.35	139.5	679.6	2532	2038	34.58	3.232	1.873	1.470	1.201	0.946	1.072	1.303	1.251	1.509	1.785	1.697	1.737	2.144	2.429	2.416	2.499	2.255	2.675	2.565	2.505	2.708	2.881	2.730	2.645	2.789	2.954	2.668	2.801	2.813	2.626	2.928	2.563	2.730	3.040	2.950	2.810	2.840	2.988
410.0	369.6	522.9	674.8	727.9	732.9	720.0	694.7	678.6	663.0	660.0	661.0	654.3	635.6	608.3	571.0	534.4	511.5	497.6	484.2	464.8	446.3	429.9	413.8	388.7	361.7	333.4	314.6	317.6	285.6	210.8	156.1	118.8	90.77	73.84	70.38	177.9	732.1	1846	2050	605.3	11.42	1.852	1.389	1.245	1.250	1.265	1.292	1.561	1.712	1.737	1.701	2.258	2.302	2.320	2.405	2.445	2.704	2.793	2.539	2.659	2.729	2.675	2.581	2.826	2.724	2.603	2.752	2.627	2.578	2.853	2.639	2.806	2.870	2.831	2.802	2.830	2.886
415.0	389.4	502.5	648.5	699.2	718.8	708.4	674.3	667.2	654.2	652.5	648.2	641.7	613.2	587.8	552.4	516.2	496.1	480.3	467.3	451.3	435.0	423.6	408.8	387.8	365.5	338.2	315.8	294.1	303.9	270.7	190.4	137.7	105.0	83.60	65.05	71.73	183.6	441.6	1282	2461	249.7	13.87	1.760	1.540	1.238	1.438	1.325	1.732	1.760	1.694	1.741	2.180	2.369	2.264	2.382	2.496	2.629	2.635	2.706	2.712	2.736	2.516	2.591	2.598	2.501	2.478	2.626	2.610	2.534	2.736	2.560	2.747	2.850	2.643	2.627	2.865	2.878
420.0	377.0	507.4	623.2	676.9	697.8	679.6	681.1	659.0	644.3	636.9	630.0	620.7	592.1	568.1	531.2	498.3	480.6	463.6	451.2	436.3	421.6	408.3	399.2	382.8	360.6	340.2	315.4	288.7	285.9	289.6	225.1	151.4	115.5	90.63	69.62	52.31	65.22	115.2	337.6	1626	2032	220.2	6.110	1.831	1.322	1.503	1.306	1.688	1.539	1.548	1.804	2.010	2.203	2.262	2.315	2.270	2.533	2.687	2.692	2.552	2.668	2.792	2.647	2.665	2.320	2.583	2.540	2.520	2.344	2.634	2.670	2.509	2.599	2.484	2.517	2.585	2.717
425.0	365.0	471.4	602.8	655.9	674.4	677.7	655.6	655.3	636.4	623.8	619.2	600.4	567.7	544.7	515.8	477.4	455.9	445.2	436.0	420.2	407.7	395.5	386.9	376.6	356.5	335.8	314.3	289.2	271.1	273.7	254.3	172.1	123.7	98.01	75.21	51.70	41.68	44.22	88.61	456.3	1809	1844	33.55	3.110	1.674	1.546	1.483	1.432	1.691	1.519	1.777	2.211	2.162	2.202	2.355	2.377	2.552	2.536	2.770	2.621	2.585	2.682	2.666	2.747	2.374	2.459	2.532	2.517	2.399	2.509	2.545	2.674	2.477	2.461	2.478	2.561	2.747
430.0	477.7	453.5	570.5	639.6	662.8	670.1	654.4	638.9	623.6	620.0	607.1	586.8	548.1	526.5	488.0	452.9	433.9	421.2	413.6	400.9	389.0	377.4	372.6	362.1	348.0	327.6	311.3	287.5	267.9	252.5	243.6	208.3	144.5	106.6	81.38	58.49	43.24	33.17	35.97	113.5	492.0	1392	1676	562.0	11.86	2.120	1.686	1.661	1.675	1.588	1.617	2.090	2.098	2.266	2.507	2.312	2.577	2.469	2.539	2.539	2.617	2.634	2.464	2.465	2.390	2.486	2.430	2.374	2.466	2.378	2.505	2.312	2.401	2.475	2.396	2.474	2.609
435.0	863.1	468.7	552.5	624.3	630.3	640.3	627.3	631.3	620.8	602.6	595.0	573.5	531.9	500.2	461.9	433.3	409.3	396.2	389.8	376.6	365.3	360.9	356.2	348.2	332.1	321.3	308.0	285.8	266.0	246.9	224.4	208.5	179.4	123.2	88.24	65.13	50.09	37.04	28.98	39.87	120.2	326.0	904.9	2086	242.3	15.84	2.245	1.906	1.799	1.765	1.655	2.017	2.114	2.296	2.285	2.221	2.495	2.317	2.390	2.417	2.553	2.684	2.517	2.667	2.430	2.379	2.341	2.314	2.301	2.302	2.387	2.191	2.266	2.224	2.278	2.315	2.460
440.0	1237	570.5	512.0	612.5	609.6	625.2	629.0	625.0	607.3	596.9	579.0	566.2	516.6	483.8	448.6	415.4	392.9	377.2	371.9	360.1	349.4	343.4	343.8	336.5	325.7	315.7	300.0	280.5	265.4	246.2	218.7	195.0	185.8	146.0	97.76	72.44	55.13	41.08	30.83	26.20	39.50	82.25	230.7	1278	1941	222.3	8.733	2.313	1.924	1.728	1.765	1.963	2.206	2.234	2.367	2.295	2.355	2.418	2.297	2.630	2.639	2.508	2.438	2.662	2.396	2.241	2.296	2.277	2.150	2.258	2.236	2.317	2.078	2.139	2.096	2.394	2.094
445.0	1248	932.7	516.6	570.8	594.0	612.5	613.6	610.8	594.3	573.8	561.4	545.7	503.4	470.6	429.9	391.4	374.5	362.2	352.8	340.2	333.2	329.3	327.7	320.0	311.9	301.2	289.1	271.6	263.3	243.3	216.7	185.7	174.7	161.1	112.1	79.12	58.83	44.16	33.27	25.49	23.62	29.55	60.28	344.5	1576	1823	164.5	4.787	2.211	1.824	1.721	1.942	2.050	2.245	2.152	2.244	2.478	2.438	2.511	2.633	2.372	2.429	2.471	2.386	2.370	2.381	2.107	2.279	2.291	2.231	2.076	2.113	2.070	2.258	2.146	2.306	1.950
450.0	767.3	1610	702.8	541.6	561.5	579.1	579.3	587.0	571.0	549.7	536.3	508.9	473.2	443.5	400.3	367.1	346.6	335.6	327.4	315.4	308.7	305.5	301.8	296.5	293.5	281.5	272.2	259.2	249.4	233.1	208.8	179.0	155.7	147.7	128.8	91.65	63.64	49.02	38.06	29.05	23.25	20.09	24.53	85.41	415.4	1253	1622	608.9	11.70	2.305	1.898	1.915	2.053	2.096	2.120	2.178	2.303	2.243	2.331	2.378	2.364	2.351	2.352	2.172	2.338	2.350	1.977	2.055	2.107	2.074	2.065	1.944	1.962	2.170	2.046	2.034	1.913
455.0	374.1	1557	1387	520.6	521.7	534.3	554.4	553.7	533.3	518.8	505.1	478.9	436.7	409.1	369.5	339.3	320.2	307.6	297.1	289.6	281.7	276.5	271.3	268.8	265.2	258.3	249.4	241.3	231.8	219.7	199.7	173.1	148.3	129.9	121.7	107.9	74.25	52.66	42.01	32.33	26.22	20.88	17.89	28.72	100.3	289.5	736.0	1861	826.3	14.37	2.324	2.038	1.894	1.904	1.992	2.080	2.146	2.090	2.284	2.204	2.235	2.338	2.119	1.903	2.219	2.104	2.115	1.930	2.020	1.951	1.988	1.891	1.752	2.086	2.013	1.851	1.872
460.0	256.4	979.2	2078	716.4	490.8	496.0	512.2	518.6	515.8	494.7	476.4	451.2	416.6	376.4	343.8	315.0	296.2	281.5	274.0	265.3	256.9	253.7	249.6	250.2	245.8	239.8	230.2	226.1	216.8	206.4	187.2	165.5	142.2	122.2	108.5	108.3	85.64	58.18	44.05	34.53	28.16	22.30	17.78	17.33	30.73	71.44	180.0	977.6	1953	176.7	9.633	2.395	2.062	2.055	2.053	2.135	2.025	2.067	2.329	2.098	2.095	2.092	2.094	1.965	1.986	1.953	1.940	1.778	1.677	1.945	1.940	1.843	1.692	1.754	1.972	1.766	1.815
465.0	247.0	534.2	2093	1050	461.0	474.5	477.0	490.9	476.2	468.2	453.5	426.4	390.8	355.6	323.0	295.2	277.3	263.2	256.2	247.2	239.4	232.7	230.0	231.3	230.7	224.4	217.1	210.4	205.1	195.7	178.0	157.3	134.8	117.2	101.8	95.44	91.46	65.59	46.33	36.20	29.23	23.97	18.99	16.04	16.29	23.36	46.51	249.7	1303	1436	151.5	6.546	2.231	2.127	1.967	2.028	1.948	2.060	2.043	2.260	1.996	2.026	1.938	1.876	1.889	2.016	1.872	1.810	1.788	1.727	1.758	1.716	1.577	1.813	1.460	1.706	1.576
470.0	232.7	328.3	1165	2108	669.2	426.6	443.9	445.5	434.8	428.3	413.0	389.4	357.0	322.1	292.1	265.0	246.5	235.9	226.8	221.7	214.6	208.8	207.4	206.8	204.4	200.6	194.9	191.2	185.4	178.8	165.1	145.4	126.0	110.1	94.92	82.39	79.86	73.29	53.03	38.27	30.82	25.31	20.78	16.92	14.28	13.74	17.02	61.45	330.3	902.5	1194	546.5	13.27	2.411	2.085	1.874	1.983	1.957	1.846	1.947	1.786	1.866	1.924	1.847	1.845	1.798	1.676	1.710	1.548	1.598	1.583	1.477	1.479	1.603	1.377	1.468	1.516
475.0	237.2	282.3	510.2	1840	1723	423.5	404.8	402.0	385.8	390.4	372.5	348.6	321.9	290.5	261.8	235.9	218.3	208.3	199.8	193.8	188.7	182.9	181.9	181.1	181.8	175.8	171.9	166.1	166.2	160.4	150.0	133.7	116.4	101.3	89.39	75.94	67.24	65.47	61.83	43.22	31.49	25.37	21.23	18.02	15.75	12.56	11.41	20.09	78.64	206.6	441.7	1267	719.4	18.70	2.320	1.949	1.890	1.666	1.719	1.634	1.708	1.761	1.709	1.597	1.548	1.582	1.566	1.542	1.315	1.456	1.514	1.565	1.401	1.362	1.260	1.308	1.229
480.0	239.3	278.1	316.7	1046	2432	594.2	358.6	374.2	359.5	365.5	349.3	322.4	304.8	265.5	238.6	216.5	200.6	189.3	183.1	178.2	170.7	165.8	164.2	166.9	163.8	159.8	159.2	153.5	154.3	149.0	139.7	125.3	109.7	96.02	84.33	73.48	63.67	57.71	59.13	50.13	34.18	26.84	22.47	17.85	16.12	13.14	10.97	11.31	23.03	50.76	105.8	551.7	1408	209.3	13.38	2.115	1.834	1.650	1.545	1.718	1.677	1.606	1.484	1.545	1.550	1.608	1.384	1.406	1.406	1.336	1.370	1.295	1.414	1.326	1.204	1.206	1.314
485.0	190.4	281.4	268.6	529.3	2323	1336	349.8	348.6	346.5	337.0	328.1	304.4	283.9	246.5	222.1	201.8	187.5	179.0	170.7	165.2	158.8	153.0	150.8	153.2	151.6	148.6	145.0	143.9	144.6	139.6	131.3	117.1	103.6	92.32	80.60	69.29	61.99	53.24	52.00	53.25	38.97	27.72	23.43	19.01	16.62	13.90	11.56	9.935	10.97	16.15	27.62	135.5	806.5	1298	186.1	7.265	2.193	1.773	1.702	1.654	1.636	1.628	1.588	1.448	1.530	1.363	1.352	1.325	1.281	1.248	1.198	1.164	1.285	1.153	1.096	1.049	1.177
490.0	145.2	277.6	276.7	327.4	1226	2340	626.8	320.4	316.1	311.5	307.4	281.0	258.2	228.5	204.3	184.7	170.0	160.9	156.3	148.3	143.0	139.7	137.5	136.1	135.9	134.2	132.0	130.7	128.8	125.2	120.0	108.7	96.86	86.19	75.34	65.22	57.82	50.15	45.54	45.64	43.90	33.12	24.27	19.82	17.07	14.77	12.18	10.51	8.880	8.745	10.52	34.25	198.2	647.7	1142	625.0	15.41	2.224	1.721	1.656	1.586	1.503	1.502	1.445	1.328	1.259	1.374	1.152	1.143	1.229	1.168	1.042	1.189	1.158	1.111	1.039	1.003
495.0	127.7	222.3	288.0	266.7	493.3	1965	1660	327.3	295.3	285.6	277.0	259.5	232.6	207.7	185.6	166.2	153.3	143.7	136.8	134.5	127.4	124.6	122.3	122.4	120.4	119.5	116.2	117.1	116.2	111.7	106.6	98.18	87.41	79.67	69.96	61.42	53.34	47.28	42.53	39.03	39.15	37.84	27.89	20.57	17.52	14.90	12.58	11.16	9.253	7.703	7.074	11.58	47.61	148.0	415.0	1234	844.2	22.06	2.146	1.661	1.587	1.541	1.365	1.270	1.159	1.180	1.262	0.971	1.035	1.162	1.156	0.977	1.206	0.925	0.956	1.061	0.972
500.0	114.3	187.1	295.0	249.9	295.6	1083	2462	434.7	264.4	260.8	258.6	242.8	216.2	194.7	170.0	153.1	142.9	131.8	124.3	121.2	116.0	112.8	111.0	109.4	108.4	105.9	105.2	104.5	104.6	102.0	96.97	90.94	80.76	73.86	65.80	57.94	51.31	44.14	40.27	35.90	34.51	35.60	31.72	21.76	17.87	15.50	12.73	11.14	9.334	7.792	6.346	6.812	14.06	36.33	97.66	502.9	1388	641.2	16.00	1.895	1.617	1.378	1.310	1.274	1.087	1.183	1.137	1.106	1.004	1.050	1.021	1.001	1.077	0.903	0.813	0.969	1.014
505.0	94.74	151.5	256.8	258.7	233.3	504.1	2325	1115	249.9	240.3	235.2	221.0	202.3	181.9	155.2	139.0	128.3	121.6	115.0	106.9	104.8	102.3	100.5	100.9	98.22	97.63	94.95	96.02	96.46	94.05	89.96	83.12	74.76	67.93	61.17	55.01	48.77	43.73	37.92	33.92	30.38	30.31	33.10	24.65	18.15	15.21	12.56	10.84	9.271	8.104	6.884	5.455	6.634	11.50	24.86	121.3	695.1	1351	214.5	9.267	1.745	1.383	1.325	1.316	1.068	1.047	1.046	1.111	0.949	0.968	1.045	0.962	0.991	0.937	0.722	0.806	0.915
510.0	89.72	128.6	207.4	275.3	213.5	269.0	1184	2174	447.7	214.8	212.7	194.2	177.7	155.9	136.5	123.0	113.0	106.4	102.4	95.15	91.85	89.81	87.90	87.81	85.83	85.03	83.85	84.76	84.08	82.16	78.71	73.77	66.53	61.08	55.05	49.59	44.16	38.82	35.20	30.78	27.75	25.50	27.54	27.23	20.55	15.10	12.69	10.82	9.064	8.077	6.876	5.923	5.246	6.028	8.373	29.75	167.1	595.4	952.8	540.2	15.76	1.820	1.408	1.252	1.074	1.053	0.999	0.902	0.881	0.929	0.775	0.823	0.863	0.797	0.696	0.832	0.809
515.0	79.74	111.8	159.7	254.7	217.9	196.7	430.7	1969	1357	215.1	184.6	173.1	160.1	137.5	121.3	105.9	96.91	93.13	88.07	81.97	79.84	76.50	75.23	75.45	73.44	73.00	72.84	73.64	70.56	72.12	70.01	64.70	58.95	53.45	48.79	44.50	39.13	35.35	31.79	27.68	24.96	22.36	21.97	23.85	23.09	17.20	12.61	10.54	9.199	7.846	6.540	6.262	5.144	4.759	4.654	9.294	39.91	135.2	311.2	975.1	698.1	22.09	1.478	1.163	1.099	0.884	1.004	0.933	0.907	0.946	0.752	0.811	0.741	0.627	0.639	0.583	0.623
520.0	65.87	102.9	131.8	204.5	230.4	173.3	226.4	1089	2203	298.6	164.6	158.4	142.7	123.3	106.1	100.0	88.74	81.71	78.84	71.93	71.85	67.66	68.06	66.05	65.47	65.85	64.53	64.42	63.78	64.20	62.38	58.05	53.30	47.94	43.97	39.12	35.64	32.70	28.87	26.11	23.38	20.51	19.34	19.57	22.52	18.98	12.93	10.38	8.987	7.799	6.503	5.971	5.231	4.396	3.880	4.790	11.27	32.46	72.85	388.8	1069	237.5	15.42	1.301	1.153	0.913	1.009	0.897	0.802	0.845	0.758	0.676	0.713	0.672	0.535	0.519	0.545
525.0	64.85	89.94	115.0	161.4	236.1	169.6	163.5	455.2	2296	899.5	156.1	144.3	129.9	112.2	100.0	88.91	80.51	73.76	70.77	66.18	64.46	60.90	59.74	58.47	58.92	58.98	57.95	57.57	58.01	58.24	55.74	52.93	48.23	44.37	39.82	36.03	32.99	30.10	26.48	24.22	22.06	19.53	17.82	17.18	18.88	19.36	14.33	10.31	8.627	7.689	6.652	5.641	5.221	4.537	3.773	3.556	5.054	9.335	18.17	93.04	517.6	962.9	205.7	7.208	1.075	0.832	0.924	0.796	0.689	0.772	0.645	0.607	0.749	0.628	0.536	0.487	0.550
530.0	62.42	73.23	97.90	118.8	200.9	188.2	140.1	207.2	1208	1988	318.4	124.1	113.7	99.30	87.24	78.46	70.09	65.15	60.78	58.47	55.34	53.01	51.87	51.80	51.49	51.29	50.16	50.04	51.30	50.55	48.63	45.33	41.81	39.00	34.17	31.89	28.89	26.73	23.72	21.91	19.34	17.99	16.09	14.79	14.86	16.26	15.72	11.54	8.589	6.960	6.202	5.248	4.861	4.564	4.074	3.501	3.438	4.103	5.788	22.44	123.9	429.7	713.0	418.3	15.14	1.311	0.945	0.750	0.789	0.702	0.570	0.521	0.610	0.520	0.526	0.485	0.505
535.0	49.27	57.31	90.86	96.52	139.9	204.3	135.4	132.3	392.4	1917	1131	118.1	96.91	86.45	75.94	67.40	60.12	56.57	51.79	49.21	48.39	45.54	44.85	44.62	43.04	43.93	42.02	42.98	43.02	42.86	40.87	38.90	35.89	33.10	29.76	27.60	24.95	22.79	20.98	19.00	16.76	15.38	14.47	13.23	11.96	12.52	14.04	12.90	9.041	6.607	5.508	5.029	4.447	4.150	4.118	3.410	2.917	2.863	3.011	6.639	29.14	97.54	226.2	709.5	523.4	21.39	1.129	0.807	0.709	0.583	0.562	0.533	0.444	0.443	0.463	0.400	0.417
540.0	45.25	62.91	77.04	83.52	101.3	182.5	148.9	111.0	168.5	1033	1993	187.2	86.65	77.41	67.87	57.88	54.64	49.13	45.56	42.52	41.40	40.72	38.81	38.61	37.97	37.56	37.90	37.61	37.86	37.71	35.75	34.61	31.38	28.82	26.56	23.91	22.69	20.06	18.81	17.13	15.16	14.26	12.60	11.65	10.72	10.63	11.06	12.40	9.978	6.582	5.356	4.769	4.115	3.856	3.734	3.572	3.090	2.501	2.391	3.053	7.883	23.10	52.50	274.2	776.1	237.1	14.69	0.918	0.679	0.522	0.558	0.506	0.500	0.440	0.420	0.395	0.510
545.0	41.89	56.16	67.30	78.26	78.57	144.1	166.7	97.81	108.3	407.1	2135	585.7	79.43	67.60	56.24	51.12	47.16	44.51	40.66	38.42	36.83	36.22	34.96	34.07	32.84	33.54	33.10	33.44	32.43	33.14	31.31	30.51	27.80	25.27	23.85	21.55	20.32	18.61	16.76	15.11	13.72	13.02	11.43	10.49	10.10	9.220	8.749	10.56	10.50	7.245	5.157	4.504	3.749	3.599	3.299	3.423	3.188	2.352	2.095	2.116	3.196	6.333	12.82	65.02	362.0	712.9	197.9	6.553	0.763	0.656	0.646	0.472	0.472	0.483	0.394	0.416	0.359
550.0	43.06	51.26	61.62	61.15	66.24	93.89	159.9	104.7	86.32	157.3	1105	1578	131.9	56.65	48.88	44.21	39.32	37.49	33.60	32.26	30.97	29.75	28.88	28.89	27.58	28.06	27.13	27.14	27.09	27.48	26.31	25.35	23.16	21.98	19.84	18.40	17.12	15.70	14.41	12.87	11.60	11.25	10.01	9.271	8.751	7.772	7.195	7.750	8.775	7.804	5.659	4.228	3.531	3.213	2.984	2.925	2.960	2.573	2.087	1.799	1.821	2.499	3.893	15.43	85.79	302.1	519.5	263.5	15.11	0.983	0.504	0.410	0.363	0.398	0.339	0.334	0.375
555.0	36.86	40.62	54.05	53.30	57.06	65.38	121.2	130.5	71.10	86.34	329.4	1698	672.4	51.32	41.35	36.64	33.11	30.43	27.90	26.82	25.29	24.26	24.43	23.78	22.15	22.50	22.60	21.59	23.03	21.96	21.75	20.88	19.03	17.62	15.90	14.94	14.06	12.89	11.81	10.64	9.416	9.162	8.480	7.977	7.275	6.344	5.910	5.737	6.276	6.862	6.171	4.249	3.115	2.650	2.606	2.385	2.563	2.440	2.249	1.697	1.419	1.517	1.756	4.311	19.91	68.16	157.1	463.7	248.5	20.91	0.705	0.387	0.371	0.369	0.365	0.347	0.348
560.0	36.90	43.84	46.30	43.76	46.45	52.06	84.10	141.0	68.60	62.86	122.7	969.5	1380	85.80	36.52	29.86	27.04	24.75	24.46	23.68	21.45	21.20	19.62	19.55	18.97	18.61	19.16	19.33	18.73	18.62	18.18	17.36	15.26	14.55	13.53	12.69	11.95	11.04	9.965	8.793	8.083	7.604	7.244	6.627	6.200	5.652	5.137	4.796	4.843	5.472	5.588	4.552	2.891	2.418	2.237	2.128	2.088	1.912	2.056	1.827	1.244	1.143	1.232	1.626	5.125	15.94	36.33	175.3	481.5	224.8	13.07	0.489	0.374	0.324	0.283	0.259	0.297
565.0	38.40	47.56	48.26	43.84	41.02	44.51	57.64	131.0	83.45	55.58	68.97	365.4	1691	164.0	31.66	25.91	24.69	22.11	20.77	19.30	18.14	17.78	16.88	16.50	16.14	15.89	16.16	16.17	15.99	15.87	14.83	14.76	13.54	12.36	11.82	10.93	10.43	8.928	8.590	7.995	7.223	6.403	6.066	5.991	5.390	5.124	4.587	4.319	3.778	4.056	4.700	4.576	3.139	2.359	2.179	1.839	1.774	1.558	1.740	1.859	1.449	1.011	1.169	1.040	1.809	4.307	8.824	41.11	215.9	477.0	177.1	5.035	0.478	0.305	0.271	0.292	0.293
570.0	44.08	50.68	48.97	38.96	33.55	36.64	40.89	88.52	112.1	58.10	58.90	130.0	968.8	985.6	64.34	22.56	19.71	18.62	16.74	15.59	14.65	13.85	13.33	13.40	12.93	13.40	13.28	13.13	13.10	12.52	12.25	12.00	11.07	9.992	9.289	9.065	8.420	7.329	6.959	6.753	5.829	5.608	5.118	4.827	4.365	4.393	3.826	3.477	3.309	3.128	3.325	4.051	3.338	2.376	1.914	1.639	1.494	1.349	1.310	1.527	1.494	1.118	0.981	0.891	0.970	1.551	2.567	9.814	50.87	191.1	353.2	143.3	13.85	0.561	0.311	0.271	0.245
575.0	34.23	47.48	47.01	43.18	30.78	33.42	34.11	53.55	118.2	80.44	61.96	77.52	293.9	1268	369.9	18.73	16.65	14.87	13.77	12.34	11.79	11.22	11.08	11.29	10.53	10.47	10.04	10.74	10.40	9.859	9.771	9.692	8.856	8.042	7.651	7.038	6.490	6.047	5.622	5.184	4.748	4.478	3.863	3.811	3.649	3.788	3.203	2.861	2.697	2.521	2.347	2.877	3.149	2.839	1.863	1.442	1.329	1.254	1.175	1.213	1.326	1.314	0.908	0.833	0.783	0.907	1.004	2.688	11.96	43.22	103.7	273.0	224.9	18.85	0.441	0.312	0.268
580.0	44.46	57.35	54.13	40.11	29.83	29.30	33.11	39.55	102.6	102.1	68.84	70.38	114.4	772.3	866.3	31.45	13.98	12.33	11.82	10.52	10.27	9.125	9.406	9.366	8.994	8.644	8.730	8.629	8.493	8.472	8.337	8.238	7.345	7.043	6.231	5.934	5.468	5.053	4.632	4.500	4.184	3.804	3.565	3.241	3.401	3.068	2.637	2.504	2.347	2.248	2.163	1.966	2.388	2.563	1.970	1.408	1.149	1.052	1.087	1.025	1.046	1.280	1.200	0.875	0.732	0.821	0.749	1.134	3.268	10.13	23.80	100.4	308.9	179.5	10.58	0.386	0.277
585.0	46.00	62.69	56.70	40.27	30.86	28.41	31.17	39.34	76.36	125.9	77.63	72.33	76.03	300.1	1145	98.62	12.27	10.81	9.252	9.738	8.594	7.581	8.416	7.633	7.666	6.901	7.452	7.141	7.184	7.096	6.907	6.403	6.526	5.860	5.470	5.153	4.755	4.521	4.109	3.827	3.659	3.209	3.127	2.897	2.989	2.630	2.485	2.262	2.011	1.931	1.730	1.655	1.916	2.345	2.176	1.484	1.012	1.021	0.915	0.829	0.872	1.058	1.164	1.030	0.692	0.700	0.689	0.786	1.303	2.696	5.843	23.56	131.7	299.5	118.5	4.027	0.299
590.0	45.98	59.88	57.46	38.65	29.16	25.62	27.08	36.49	54.44	119.0	102.5	80.09	68.69	100.9	677.8	582.5	24.94	9.064	7.990	7.801	6.937	6.650	6.730	6.463	6.155	5.704	5.583	5.821	6.086	6.016	5.617	5.509	5.417	4.797	4.430	4.047	3.875	3.708	3.339	3.155	2.900	2.683	2.537	2.416	2.462	2.241	2.070	1.878	1.735	1.647	1.374	1.284	1.345	1.588	1.877	1.681	1.105	0.879	0.834	0.793	0.726	0.855	0.844	1.100	0.873	0.777	0.679	0.720	0.811	1.052	1.748	5.608	30.74	113.4	205.5	118.6	13.37
595.0	49.42	62.66	56.70	38.78	23.54	21.88	26.13	34.12	47.71	88.29	129.4	85.36	69.86	53.81	195.9	791.2	94.75	7.862	6.783	6.198	5.871	5.407	5.178	5.124	4.969	4.570	4.517	4.714	4.959	4.495	4.888	4.603	4.105	4.305	3.452	3.365	2.981	2.983	2.666	2.634	2.410	2.273	2.139	2.158	2.009	1.696	1.598	1.516	1.395	1.407	1.047	1.177	1.024	1.064	1.434	1.612	1.137	0.950	0.762	0.731	0.642	0.715	0.653	0.774	1.035	0.952	0.608	0.705	0.608	0.571	0.817	1.580	7.122	25.56	56.94	167.0	164.5
600.0	58.78	61.07	56.70	36.22	20.92	22.82	24.14	33.65	44.66	69.33	133.8	100.1	70.41	42.59	60.90	516.5	447.2	13.01	5.774	5.080	4.889	4.970	4.481	4.118	4.232	3.881	3.968	4.019	4.188	3.737	3.924	3.679	3.391	3.201	2.837	2.782	2.470	2.518	2.339	2.173	2.144	1.692	1.800	1.772	1.600	1.484	1.486	1.390	1.354	1.050	0.915	1.078	0.890	0.809	0.990	1.393	1.245	0.954	0.652	0.746	0.614	0.594	0.538	0.615	0.946	1.058	0.600	0.629	0.536	0.487	0.464	0.622	1.821	5.908	13.02	56.76	192.4
605.0	53.10	64.74	54.16	36.01	23.54	20.96	25.95	31.06	43.75	62.40	121.1	113.2	69.60	41.21	28.12	197.9	669.4	56.73	5.214	4.502	3.911	3.978	3.792	3.506	3.459	3.301	3.317	3.339	3.266	3.296	3.211	3.185	2.929	2.847	2.620	2.327	2.133	2.024	2.078	1.785	1.818	1.571	1.496	1.359	1.409	1.288	1.341	1.262	1.173	0.932	0.888	0.865	0.691	0.868	0.720	1.071	1.370	1.144	0.660	0.596	0.567	0.506	0.509	0.593	0.730	0.899	0.873	0.679	0.643	0.557	0.422	0.418	0.678	1.465	3.154	13.18	74.99
610.0	48.15	56.58	52.17	34.24	22.60	20.29	24.26	30.63	42.25	59.23	95.87	128.6	76.16	40.15	21.36	56.81	443.8	338.2	11.14	4.096	3.686	3.279	3.153	2.835	2.864	2.647	2.827	2.749	2.652	2.838	2.713	2.649	2.300	2.342	2.148	1.905	1.869	1.820	1.611	1.458	1.444	1.308	1.193	1.050	1.074	1.147	1.098	1.134	0.912	0.846	0.748	0.671	0.600	0.653	0.738	0.651	1.019	0.980	0.709	0.531	0.502	0.472	0.483	0.603	0.533	0.618	0.775	0.800	0.654	0.519	0.381	0.338	0.366	0.598	0.902	3.127	17.33
615.0	44.13	49.82	54.39	31.19	23.64	19.50	25.04	30.28	38.19	55.31	79.99	116.8	91.11	41.40	19.84	21.81	131.1	522.0	65.97	3.719	3.011	2.867	2.519	2.189	2.439	2.519	2.273	2.252	2.279	2.142	2.197	1.863	1.887	1.702	1.733	1.492	1.467	1.458	1.267	1.186	1.089	1.058	1.005	0.859	0.857	0.848	0.967	0.875	0.770	0.676	0.642	0.571	0.488	0.525	0.626	0.482	0.603	0.761	0.811	0.625	0.550	0.416	0.451	0.487	0.530	0.449	0.581	0.783	0.730	0.508	0.343	0.296	0.238	0.335	0.424	0.879	3.991
620.0	38.43	56.40	45.41	32.75	19.01	17.67	23.52	27.38	38.28	54.06	71.63	97.30	96.24	41.28	19.18	14.14	37.56	371.3	272.7	5.480	2.417	2.326	2.239	1.729	1.862	1.908	1.981	1.666	1.932	1.803	1.830	1.625	1.631	1.507	1.381	1.256	1.469	1.206	1.128	0.993	1.015	0.831	0.933	0.850	0.759	0.857	0.779	0.716	0.669	0.547	0.505	0.464	0.402	0.410	0.472	0.423	0.452	0.592	0.779	0.615	0.498	0.371	0.463	0.429	0.507	0.417	0.562	0.528	0.793	0.557	0.381	0.268	0.234	0.279	0.242	0.321	1.027
625.0	41.43	48.02	44.50	27.50	16.42	17.51	20.93	27.68	36.08	52.58	67.62	81.71	98.70	44.31	19.05	12.29	15.38	152.5	443.9	26.71	2.277	2.167	2.029	1.758	1.841	1.758	1.668	1.414	1.597	1.634	1.421	1.397	1.289	1.251	1.205	1.004	1.143	1.039	0.973	0.855	0.848	0.855	0.765	0.662	0.694	0.702	0.666	0.710	0.589	0.422	0.467	0.394	0.385	0.470	0.412	0.403	0.371	0.338	0.550	0.637	0.609	0.333	0.397	0.409	0.424	0.429	0.449	0.499	0.606	0.591	0.427	0.319	0.279	0.218	0.170	0.186	0.399
630.0	41.90	43.50	42.91	27.77	17.93	17.36	18.72	25.00	35.59	49.78	60.86	72.04	86.39	55.76	20.62	12.07	10.49	42.24	328.8	175.8	5.027	1.882	1.682	1.504	1.435	1.525	1.420	1.168	1.395	1.287	1.257	1.201	1.090	1.021	1.010	0.904	0.855	0.806	0.750	0.759	0.690	0.670	0.558	0.609	0.562	0.558	0.514	0.527	0.442	0.385	0.333	0.359	0.341	0.356	0.342	0.346	0.327	0.324	0.361	0.539	0.540	0.418	0.380	0.331	0.399	0.383	0.439	0.445	0.453	0.549	0.567	0.368	0.296	0.190	0.185	0.143	0.251
635.0	34.34	37.52	40.54	25.56	18.10	13.73	20.23	24.50	34.93	45.88	58.89	65.28	66.57	63.03	25.68	13.14	9.453	13.93	101.1	352.6	43.30	1.815	1.571	1.301	1.137	1.300	1.032	0.959	1.057	1.038	1.002	0.886	0.990	0.807	0.825	0.726	0.675	0.714	0.698	0.575	0.500	0.476	0.610	0.510	0.456	0.460	0.396	0.448	0.409	0.302	0.295	0.306	0.295	0.309	0.301	0.338	0.263	0.266	0.274	0.357	0.467	0.480	0.400	0.347	0.324	0.364	0.405	0.401	0.372	0.435	0.440	0.471	0.284	0.188	0.204	0.172	0.202
640.0	33.97	37.81	36.31	24.87	19.38	14.43	18.66	27.06	34.26	43.55	58.36	61.04	58.92	60.74	32.18	14.46	9.124	8.631	27.41	283.0	166.7	2.536	1.168	1.209	1.179	1.213	0.940	0.961	0.876	0.801	0.971	0.681	0.704	0.678	0.665	0.552	0.696	0.559	0.470	0.529	0.464	0.422	0.371	0.469	0.398	0.412	0.351	0.381	0.389	0.371	0.265	0.288	0.243	0.255	0.273	0.244	0.281	0.244	0.240	0.325	0.339	0.512	0.404	0.347	0.357	0.364	0.360	0.360	0.334	0.393	0.396	0.461	0.377	0.204	0.174	0.161	0.182
645.0	30.42	36.36	33.98	24.46	17.26	13.32	19.59	27.27	34.89	44.87	57.83	59.07	54.12	53.51	39.43	15.60	9.830	6.873	9.622	129.8	298.9	16.45	1.468	0.982	1.104	0.843	0.801	0.887	0.822	0.791	0.791	0.723	0.691	0.621	0.565	0.492	0.514	0.456	0.487	0.383	0.442	0.328	0.390	0.355	0.322	0.306	0.330	0.368	0.303	0.337	0.261	0.241	0.214	0.234	0.209	0.232	0.253	0.202	0.220	0.276	0.265	0.428	0.455	0.369	0.334	0.382	0.308	0.309	0.318	0.303	0.308	0.402	0.418	0.316	0.197	0.140	0.189
650.0	30.77	36.65	34.94	22.09	14.87	15.61	21.25	27.48	35.37	43.99	55.67	56.78	53.14	46.60	44.37	18.08	9.931	7.172	5.470	38.87	307.8	60.77	1.474	0.901	0.979	0.761	0.784	0.760	0.634	0.740	0.676	0.729	0.516	0.550	0.566	0.436	0.439	0.448	0.508	0.254	0.390	0.305	0.362	0.305	0.271	0.304	0.252	0.278	0.291	0.224	0.242	0.204	0.203	0.191	0.249	0.244	0.220	0.212	0.224	0.256	0.269	0.309	0.364	0.370	0.314	0.350	0.290	0.326	0.293	0.288	0.251	0.329	0.411	0.392	0.198	0.175	0.170
