Sample:	'1
File name:	G2025072814乌阳河入织女河.FD3
Run date:	'15:48:42, 08/01/2025
Operator:	Administrator
Comment:	'

Instrument
Model:	F-2700 FL Spectrophotometer
Serial number:	23B8-004
ROM Version:	4J14000 07

Instrument parameters
Measurement type:	3-D scan
Data mode:	Fluorescence
EX  Start WL:	220.0 nm
EX  End WL:	600.0 nm
EX Sampling interval:	5.0 nm
EM  Start WL:	230.0 nm
EM  End WL:	650.0 nm
EM Sampling interval:	5.0 nm
Scan speed:	12000 nm/min
EX Slit:	5.0 nm
EM Slit:	5.0 nm
PMT Voltage:	700 V
Response:	Auto 
Corrected spectra:	Off
Contour interval:	50.000

Peak integration
Integration method:	Rectangular
Sensitivity:	1
Threshold:	1.000

Peaks
No.	ApexEX/EM(nm)	Height(Data)
1	230.0/345.0	5268
2	255.0/285.0	486.2
3	265.0/585.0	189.4
4	270.0/595.0	166.6
5	275.0/610.0	143.7
6	280.0/625.0	125.5
7	285.0/345.0	4844
8	455.0/340.0	13.55
9	460.0/345.0	13.95
10	475.0/365.0	15.69
11	485.0/360.0	15.92
12	535.0/270.0	39.56
13	575.0/290.0	48.47

Data points
	220.0	225.0	230.0	235.0	240.0	245.0	250.0	255.0	260.0	265.0	270.0	275.0	280.0	285.0	290.0	295.0	300.0	305.0	310.0	315.0	320.0	325.0	330.0	335.0	340.0	345.0	350.0	355.0	360.0	365.0	370.0	375.0	380.0	385.0	390.0	395.0	400.0	405.0	410.0	415.0	420.0	425.0	430.0	435.0	440.0	445.0	450.0	455.0	460.0	465.0	470.0	475.0	480.0	485.0	490.0	495.0	500.0	505.0	510.0	515.0	520.0	525.0	530.0	535.0	540.0	545.0	550.0	555.0	560.0	565.0	570.0	575.0	580.0	585.0	590.0	595.0	600.0
230.0	80.28	1598	3702	954.6	46.05	11.43	9.603	8.464	7.891	6.447	6.433	6.107	5.186	5.008	4.355	3.861	3.583	3.069	2.654	2.467	2.080	2.042	1.816	1.686	1.563	1.442	1.428	1.308	1.309	1.262	1.105	1.061	1.006	0.874	0.764	0.736	0.690	0.696	0.647	0.547	0.628	0.713	0.668	0.596	0.526	0.556	1.814	7.317	11.54	8.081	3.032	0.772	0.416	0.417	0.402	0.375	0.381	0.423	0.426	0.375	0.413	0.402	0.367	0.379	0.385	0.378	0.370	0.384	0.415	0.358	0.392	0.357	0.396	0.376	0.373	0.415	0.403
235.0	93.23	444.3	2346	3711	663.2	64.65	11.69	9.247	9.222	7.451	6.545	6.068	5.297	5.181	4.276	3.834	3.339	2.988	2.759	2.578	2.352	1.931	1.976	1.834	1.529	1.557	1.381	1.252	1.248	1.172	1.055	0.987	0.977	0.785	0.802	0.732	0.637	0.631	0.584	0.571	0.580	0.648	0.692	0.673	0.661	0.578	0.777	2.141	4.770	8.301	11.34	11.87	5.301	1.239	0.391	0.343	0.371	0.359	0.454	0.401	0.462	0.419	0.353	0.429	0.378	0.373	0.395	0.390	0.473	0.350	0.361	0.339	0.399	0.385	0.367	0.412	0.416
240.0	137.2	168.8	708.0	3340	3937	510.0	32.52	10.84	9.153	7.637	6.605	5.857	6.107	4.937	4.750	3.500	3.824	3.070	2.696	2.512	2.291	1.964	1.898	1.709	1.505	1.526	1.385	1.269	1.319	1.215	1.046	1.015	1.062	0.765	0.821	0.814	0.784	0.655	0.778	0.690	0.686	0.673	0.659	0.580	0.685	0.757	0.663	0.897	1.469	2.688	6.791	15.53	17.89	11.19	3.886	0.706	0.454	0.362	0.455	0.392	0.398	0.355	0.383	0.426	0.422	0.406	0.439	0.385	0.409	0.388	0.398	0.343	0.366	0.364	0.385	0.435	0.386
245.0	126.7	155.7	207.4	1155	4567	3772	371.2	16.05	10.28	8.680	7.835	6.455	6.377	5.630	4.424	4.249	4.138	2.963	2.890	2.521	1.953	2.292	1.802	1.834	1.550	1.662	1.481	1.365	1.246	1.185	1.110	1.128	0.912	0.880	0.903	0.802	0.747	0.707	0.682	0.623	0.666	0.599	0.677	0.522	0.635	0.665	0.787	0.747	0.780	0.911	1.883	5.863	13.39	21.31	19.92	9.674	2.446	0.474	0.416	0.422	0.399	0.352	0.475	0.437	0.420	0.406	0.340	0.401	0.381	0.372	0.349	0.334	0.459	0.413	0.503	0.458	0.410
250.0	68.32	120.2	170.0	318.7	1519	4230	4698	1420	72.84	11.55	9.706	7.417	7.098	6.183	5.017	4.386	4.018	3.492	3.154	2.707	2.245	2.116	2.064	1.925	1.610	1.610	1.609	1.415	1.305	1.131	1.088	1.138	0.908	0.847	0.878	0.782	0.708	0.651	0.658	0.644	0.646	0.626	0.558	0.532	0.582	0.518	0.579	0.753	0.887	0.728	0.824	1.712	3.565	7.406	13.22	19.29	23.09	18.19	9.495	2.498	0.525	0.421	0.447	0.411	0.386	0.396	0.420	0.415	0.390	0.400	0.375	0.396	0.450	0.422	0.464	0.469	0.400
255.0	53.51	58.26	121.5	224.1	396.8	1093	4383	7819	1810	66.73	11.97	9.150	7.882	6.267	5.136	4.546	4.425	3.861	3.190	2.993	2.462	2.151	2.265	1.869	1.849	1.689	1.601	1.559	1.480	1.351	1.041	0.953	0.938	0.867	0.824	0.882	0.762	0.608	0.856	0.585	0.604	0.583	0.597	0.578	0.503	0.467	0.521	0.511	0.584	0.802	0.988	1.044	1.324	2.044	3.302	4.997	10.02	22.40	35.87	27.75	13.31	2.282	0.668	0.418	0.435	0.525	0.395	0.388	0.382	0.543	0.355	0.382	0.398	0.385	0.406	0.453	0.442
260.0	56.24	45.58	61.95	190.4	226.3	288.4	1388	7286	7563	316.7	32.04	11.04	9.065	8.104	6.467	5.240	4.619	3.762	3.590	3.452	2.728	2.152	2.229	2.077	1.953	1.624	1.465	1.453	1.426	1.389	1.092	1.143	1.082	0.896	0.860	0.863	0.878	0.662	0.738	0.594	0.567	0.626	0.594	0.612	0.554	0.471	0.494	0.452	0.506	0.499	0.763	1.288	1.281	0.989	1.089	1.547	2.659	6.473	18.02	34.95	43.29	25.07	9.518	1.304	0.506	0.543	0.447	0.391	0.377	0.509	0.377	0.414	0.381	0.434	0.393	0.412	0.402
265.0	46.94	35.54	38.93	101.4	253.2	174.7	347.1	2635	9399	6837	247.5	16.14	11.32	9.242	6.868	5.868	4.611	4.465	3.869	3.111	2.820	2.063	2.052	2.046	2.018	1.566	1.381	1.665	1.425	1.408	1.179	1.135	1.042	1.156	0.925	0.890	0.807	0.714	0.669	0.624	0.616	0.646	0.673	0.617	0.586	0.479	0.451	0.492	0.425	0.433	0.559	0.851	1.315	1.447	1.008	0.796	1.022	1.907	4.580	11.60	28.44	45.08	33.83	21.11	4.685	0.681	0.506	0.489	0.387	0.429	0.496	0.379	0.450	0.362	0.399	0.415	0.421
270.0	93.79	53.48	42.96	49.96	138.5	259.5	216.8	646.8	3236	8667	9138	976.6	55.31	12.32	9.234	6.675	5.580	5.054	4.155	3.323	2.896	2.418	2.302	2.040	2.068	1.950	1.635	1.585	1.524	1.439	1.441	1.302	1.214	1.137	1.020	0.929	0.867	0.828	0.846	0.736	0.742	0.707	0.661	0.650	0.652	0.581	0.547	0.555	0.446	0.433	0.454	0.563	0.730	1.037	1.379	1.477	1.321	1.131	1.469	3.048	7.124	14.13	23.95	39.56	39.55	38.16	14.30	4.556	0.817	0.530	0.522	0.465	0.472	0.458	0.438	0.450	0.387
275.0	217.1	162.3	89.67	58.49	68.49	152.1	353.7	321.5	809.1	2309	8847	9999.9	1318	47.95	12.73	8.011	7.018	5.383	4.293	4.108	3.263	2.748	2.759	2.120	2.206	2.047	1.640	1.670	1.769	1.574	1.394	1.267	1.300	1.172	1.292	1.145	1.189	1.090	1.083	1.005	0.909	0.939	0.941	0.918	0.862	0.874	0.705	0.836	0.657	0.503	0.455	0.621	0.558	0.760	0.780	0.987	1.724	2.132	1.611	1.444	2.229	3.817	5.972	9.870	14.90	36.13	61.66	33.84	21.59	4.092	0.601	0.522	0.491	0.498	0.468	0.465	0.507
280.0	399.9	311.2	183.3	91.08	72.19	103.9	294.7	440.9	358.2	680.8	2862	9999.9	9999.9	878.4	26.27	10.94	8.413	5.907	4.917	4.579	3.723	3.171	2.736	2.249	2.334	2.067	1.871	1.745	1.805	1.600	1.429	1.342	1.336	1.321	1.492	1.611	1.477	1.429	1.357	1.276	1.262	1.295	1.238	1.315	1.171	1.206	1.118	1.032	0.920	0.670	0.613	0.625	0.594	0.675	0.701	0.784	1.131	1.927	2.459	2.057	1.603	1.839	2.259	3.172	4.427	9.993	25.76	49.55	72.88	32.16	15.54	1.810	0.600	0.551	0.512	0.610	0.497
285.0	616.2	494.9	306.0	159.4	106.8	116.3	196.3	486.2	411.8	416.2	939.0	4112	9999.9	8011	139.9	15.85	10.04	7.535	6.014	5.333	4.167	3.077	2.711	2.562	2.582	2.042	2.173	1.992	1.629	1.552	1.501	1.308	1.376	1.537	1.845	1.909	2.023	1.839	1.822	1.808	1.631	1.624	1.661	1.635	1.541	1.614	1.481	1.470	1.133	0.972	0.781	0.691	0.759	0.809	0.704	0.798	1.032	1.348	1.924	2.920	2.873	2.032	1.848	2.014	2.532	3.685	7.166	15.10	37.62	64.41	72.54	26.90	8.127	0.876	0.596	0.667	0.486
290.0	904.4	771.6	507.7	281.0	192.4	188.3	225.9	381.9	668.2	746.5	746.1	1419	4196	9999.9	9808	530.7	35.53	10.58	7.660	6.261	4.611	3.722	3.163	2.780	2.648	2.462	2.206	2.020	1.837	1.632	1.542	1.490	1.633	1.735	2.020	2.217	2.584	2.458	2.277	2.010	1.978	1.945	2.170	2.106	2.241	2.375	1.980	2.115	1.746	1.450	1.171	1.131	1.078	1.001	1.015	1.107	1.327	1.328	1.530	2.062	2.625	3.363	3.673	3.292	2.901	3.083	3.740	5.493	10.46	19.17	34.98	48.47	44.19	49.98	18.02	7.374	1.150
295.0	1112	1035	746.6	437.2	310.7	291.1	325.0	413.1	618.8	1078	1156	1070	1484	2824	9824	9999.9	747.2	31.81	11.30	8.326	5.823	4.525	3.602	3.551	2.886	2.743	2.378	2.250	2.094	1.819	1.596	1.536	1.652	1.879	2.200	2.579	3.045	3.147	2.725	2.382	2.159	2.301	2.571	2.370	2.780	2.886	2.680	2.660	2.200	1.818	1.675	1.504	1.472	1.385	1.444	1.458	1.565	1.696	1.892	2.007	2.274	2.942	3.659	5.237	5.096	4.546	4.121	4.302	5.161	6.614	10.04	12.49	14.39	36.26	69.06	78.35	28.00
300.0	1295	1177	878.3	552.2	414.6	382.5	413.1	492.6	686.0	1063	1561	1300	1065	1080	3057	9999.9	6833	538.5	20.04	11.10	6.597	5.287	4.038	3.958	3.141	2.853	2.833	2.473	2.104	1.976	1.859	1.592	1.469	1.846	2.328	2.695	3.168	3.160	3.147	2.339	2.540	2.407	2.616	2.697	2.898	3.213	3.178	3.014	2.678	2.084	1.951	1.995	1.907	1.697	1.712	1.856	2.053	2.106	2.232	2.286	2.616	3.131	3.752	4.690	6.164	6.669	5.684	4.925	4.648	4.581	5.106	4.897	4.907	9.904	23.94	57.04	84.64
305.0	1285	1249	1002	696.0	522.3	501.5	525.9	623.1	825.3	1124	1636	1777	1221	852.6	1027	3879	9999.9	5532	85.26	15.92	9.486	6.755	4.903	4.069	4.003	3.258	2.939	2.319	2.242	1.995	1.900	1.850	1.613	1.964	2.534	2.882	3.254	3.254	3.122	2.494	2.536	2.530	2.613	2.966	3.007	3.287	3.374	3.237	2.972	2.338	2.144	2.359	2.072	2.052	2.047	2.267	2.453	2.507	2.800	2.847	3.244	3.612	4.219	4.979	5.650	6.523	7.630	7.004	5.779	5.146	4.485	3.953	3.396	4.081	6.931	15.50	35.30
310.0	1356	1354	1108	816.5	656.3	644.0	671.9	801.8	1008	1298	1667	1982	1761	1119	796.8	1225	3875	9999.9	8489	1491	31.88	10.74	6.583	4.945	4.372	3.670	3.074	2.762	2.503	2.355	1.894	1.938	1.869	1.952	2.316	2.816	3.097	3.040	3.133	2.795	2.639	2.635	2.720	2.997	3.093	3.202	3.421	3.475	3.196	2.746	2.481	2.815	2.558	2.606	2.588	2.691	3.010	3.131	3.373	3.534	3.815	4.427	5.070	5.607	5.950	6.454	7.128	8.057	7.955	7.412	6.082	5.084	3.999	3.669	4.090	5.526	9.888
315.0	1488	1594	1355	1031	926.7	903.3	908.0	1017	1226	1535	1888	2107	2156	1843	1184	1045	1509	2901	8465	9999.9	554.6	35.87	9.729	7.276	5.044	4.249	3.504	3.135	2.671	2.649	2.255	2.029	1.954	2.187	2.360	2.636	3.145	3.289	3.112	3.073	3.082	3.067	2.922	3.180	3.651	3.831	3.629	4.263	3.816	3.486	3.212	3.510	3.401	3.425	3.635	3.776	4.019	3.782	4.064	4.392	4.570	5.348	5.844	6.563	6.917	7.464	7.946	7.859	8.307	8.523	9.066	8.073	6.419	5.768	5.096	5.459	6.311
320.0	1907	2071	1946	1526	1389	1321	1262	1287	1534	1899	2298	2572	2623	2623	2158	1720	1656	1691	3068	9999.9	9541	439.5	20.53	9.443	6.733	5.193	4.532	4.055	2.869	3.046	2.344	2.332	2.151	2.163	2.438	2.898	3.163	3.535	3.534	3.261	3.466	3.353	3.499	3.762	4.621	5.001	5.139	5.807	5.427	4.774	4.382	4.780	4.835	4.818	4.817	5.229	5.238	4.861	4.985	5.651	5.706	6.284	7.163	7.584	8.385	8.946	9.619	9.925	9.806	10.37	10.62	11.36	11.34	10.09	8.812	8.380	8.526
325.0	2533	3118	2942	2193	1811	1714	1557	1557	1836	2261	2739	3059	3187	3185	3075	2501	2222	1856	1751	4088	9999.9	4365	68.28	14.95	8.698	6.295	5.053	4.321	3.504	3.312	2.994	2.499	2.347	2.390	2.489	2.914	3.172	3.635	3.931	3.929	3.971	4.063	4.276	4.583	5.633	6.248	6.650	8.128	8.033	6.777	5.986	6.529	6.699	6.271	6.084	6.183	6.353	6.255	5.692	6.561	7.195	7.285	7.937	8.942	10.12	10.33	11.55	11.57	11.71	12.81	13.00	12.95	13.79	14.32	13.30	12.23	11.76
330.0	3024	3893	3955	3078	2396	2116	1872	1801	2106	2588	3090	3501	3690	3690	3612	3340	2886	2290	1766	1909	3648	7956	7240	1362	25.98	9.350	6.752	5.167	4.247	3.716	3.342	2.829	2.553	2.356	2.707	3.011	3.208	3.980	4.131	4.120	4.425	4.467	4.837	5.448	6.447	7.599	8.428	10.79	10.79	9.148	8.450	9.029	8.673	8.148	7.653	7.425	7.591	7.192	6.802	7.435	7.869	8.379	9.124	10.14	11.13	12.15	12.48	13.19	13.33	14.75	14.53	14.97	15.63	15.92	16.42	16.17	15.81
335.0	3418	4513	4755	3833	3145	2722	2309	2138	2451	2968	3530	3982	4305	4395	4305	4073	3827	3020	2224	1762	1458	2132	6553	9999.9	463.1	29.01	9.449	6.772	5.385	4.759	4.122	3.055	2.743	2.707	2.851	3.166	3.431	4.146	4.416	4.921	4.820	5.301	5.429	6.223	6.973	8.903	10.04	12.33	12.47	11.48	10.27	11.48	10.24	10.25	9.845	9.188	9.484	8.652	7.957	8.868	8.836	9.459	10.82	11.46	12.66	13.15	14.31	15.17	15.49	16.25	17.44	17.91	19.00	18.77	18.94	19.01	18.92
340.0	3547	4841	5217	4326	3581	3111	2639	2363	2690	3202	3782	4278	4614	4776	4693	4406	4219	3512	2530	1891	1082	785.0	1940	8829	9009	392.4	18.89	8.540	6.280	4.806	4.425	3.459	3.158	2.943	2.920	3.311	3.570	4.602	4.665	5.389	5.158	5.226	5.588	6.574	7.434	9.244	10.86	13.55	13.49	12.36	11.66	13.13	12.06	11.98	11.20	10.28	10.83	9.626	9.265	9.863	10.22	10.55	11.62	12.71	13.80	14.49	15.02	16.08	16.40	17.70	19.06	19.16	20.06	20.61	20.26	20.73	20.16
345.0	3619	4876	5268	4666	3894	3432	2822	2531	2796	3257	3840	4330	4654	4844	4756	4450	4170	3636	2710	1973	1076	566.1	669.3	2807	9999.9	3715	59.23	13.60	7.611	5.808	4.700	3.675	3.023	3.202	2.882	3.178	3.652	4.542	4.805	5.274	5.516	5.380	6.064	6.467	7.390	9.123	10.91	12.98	13.95	12.95	12.49	14.37	13.59	12.97	12.60	11.59	11.29	10.49	9.746	9.434	10.51	11.42	11.96	13.18	14.11	14.72	15.42	16.44	16.92	17.53	19.30	19.57	20.68	20.65	20.93	20.95	20.51
350.0	3531	4663	5188	4819	4234	3767	3117	2790	2982	3387	3876	4292	4592	4786	4736	4434	4144	3552	2863	2167	1205	663.1	514.1	881.6	3082	6456	6232	1342	25.41	8.769	6.204	4.485	3.528	3.448	3.190	3.227	3.668	4.488	4.834	4.892	5.312	5.292	5.578	6.221	6.975	9.169	10.55	12.67	13.56	12.60	12.90	14.77	14.42	14.32	13.80	12.82	12.25	11.19	10.48	10.66	11.08	11.78	12.44	13.08	14.22	14.75	15.41	15.92	16.65	17.45	18.88	19.23	19.82	20.66	20.53	20.72	21.02
355.0	3365	4388	5003	4900	4541	4066	3459	3096	3203	3550	3926	4271	4530	4714	4674	4413	4119	3528	2864	2373	1463	849.5	622.4	581.2	951.5	1677	4857	9249	432.3	30.44	8.677	5.858	4.215	3.442	3.333	3.438	4.012	4.641	4.893	4.994	5.141	4.838	5.810	5.954	6.877	8.837	9.775	12.30	12.91	12.51	13.35	15.41	14.94	15.27	14.52	13.75	13.09	12.27	11.55	12.02	12.18	12.09	13.31	13.74	14.33	14.79	15.38	15.69	16.52	17.47	18.77	18.86	19.51	20.26	20.19	20.40	20.36
360.0	3278	4303	4888	4858	4611	4235	3597	3246	3333	3611	3930	4218	4396	4556	4518	4269	4023	3443	2827	2368	1671	1039	771.2	607.7	561.6	610.3	1403	6891	8423	393.1	20.66	8.003	5.246	4.064	3.704	3.473	4.011	4.374	4.906	4.834	5.072	4.915	5.480	6.053	6.666	8.168	9.372	11.34	12.37	11.89	13.16	15.42	15.16	15.92	14.89	14.25	14.41	13.31	12.02	12.67	12.55	13.40	13.58	14.31	14.54	14.63	15.17	14.77	15.94	16.99	17.86	17.68	19.29	20.19	19.51	20.15	20.28
365.0	3132	4088	4691	4777	4657	4284	3687	3342	3408	3648	3880	4101	4254	4346	4307	4084	3844	3356	2772	2330	1756	1271	936.6	726.8	567.6	445.8	519.4	2064	8228	7284	313.3	14.08	7.243	5.121	4.313	3.770	4.169	4.589	5.012	4.844	5.031	4.942	5.400	5.803	6.557	7.967	8.752	11.02	11.75	11.72	12.83	15.69	15.10	15.67	15.35	14.69	14.36	13.44	12.66	12.44	12.87	13.42	13.73	14.30	14.99	14.71	14.78	14.85	15.63	16.26	16.79	17.40	18.30	18.99	18.43	19.52	19.21
370.0	2946	3884	4444	4640	4607	4291	3750	3394	3427	3618	3803	3956	4038	4100	4042	3865	3663	3245	2750	2352	1813	1474	1223	944.8	731.0	549.6	428.9	666.3	2423	6429	5834	1326	24.16	7.789	5.339	4.578	4.447	4.480	4.997	4.749	4.919	4.898	5.063	5.727	6.266	7.746	8.499	10.69	11.47	11.40	12.17	15.19	15.15	15.78	15.41	14.80	14.64	13.58	12.76	12.81	12.64	13.29	13.67	14.22	13.87	14.44	14.40	14.44	15.08	15.67	16.15	16.45	17.30	17.83	17.72	17.82	18.14
375.0	2909	3625	4287	4488	4562	4280	3775	3436	3433	3588	3704	3845	3857	3875	3811	3635	3489	3128	2739	2402	1938	1624	1490	1257	969.9	756.1	528.2	462.3	744.7	1607	4137	8630	1930	27.88	8.327	5.783	5.075	4.819	5.172	4.899	4.715	4.741	5.352	6.013	6.315	7.476	8.095	10.20	10.66	10.91	11.74	14.70	14.99	15.62	15.19	14.78	14.33	13.88	12.84	13.06	12.99	13.15	13.81	14.22	13.56	14.14	13.75	14.30	15.07	14.41	14.97	15.34	16.60	16.85	16.73	16.89	17.20
380.0	2810	3469	4072	4367	4493	4253	3792	3443	3395	3550	3677	3739	3735	3683	3597	3448	3321	3046	2713	2430	2040	1759	1610	1486	1199	932.7	689.5	505.7	444.6	540.1	1171	6003	7805	335.3	18.79	7.849	5.978	5.070	5.028	4.853	4.990	5.021	5.238	5.717	6.224	7.112	7.694	9.558	10.21	10.68	11.28	14.80	14.78	15.47	15.07	14.30	14.48	13.40	13.22	12.68	12.95	12.90	13.64	13.83	13.85	14.10	13.68	13.53	13.94	14.17	14.39	14.65	15.38	15.79	15.77	16.00	16.43
385.0	2730	3356	3944	4256	4388	4206	3735	3413	3353	3455	3544	3639	3617	3522	3416	3287	3176	2947	2677	2435	2102	1867	1700	1591	1405	1094	830.8	616.8	452.8	363.7	419.7	1746	6929	5997	263.8	12.67	7.646	6.240	5.838	4.942	4.761	4.934	5.472	5.628	6.368	6.817	7.625	9.518	10.22	10.23	10.85	13.81	14.68	15.05	14.20	14.36	14.10	13.78	13.20	12.88	12.83	13.17	13.26	13.26	13.47	13.43	13.85	12.78	13.65	13.88	14.26	14.49	14.71	14.62	14.83	15.39	15.54
390.0	2626	3224	3745	4026	4210	4079	3679	3390	3294	3331	3411	3460	3417	3330	3217	3102	3007	2833	2629	2440	2174	1972	1822	1683	1537	1312	1008	764.3	566.4	424.2	331.4	545.9	1989	4949	4493	1054	21.78	8.638	6.730	5.714	5.174	5.067	5.388	5.563	6.057	6.753	7.446	9.050	9.747	9.925	10.24	13.03	14.09	14.48	14.34	14.19	14.01	13.61	12.72	12.27	12.47	12.60	12.67	12.79	13.10	12.59	12.72	12.76	13.14	13.18	13.29	13.53	13.97	14.11	13.96	14.16	14.96
395.0	2595	3082	3595	3877	4018	3954	3651	3337	3239	3245	3303	3334	3277	3158	3031	2932	2851	2713	2578	2425	2231	2060	1936	1800	1645	1473	1233	938.1	720.2	551.1	407.3	355.0	599.6	1238	3129	6401	1579	25.71	9.233	6.843	6.005	5.469	5.487	5.647	5.920	6.781	7.072	8.762	9.119	9.204	9.969	12.65	13.57	13.45	13.80	13.71	13.63	13.62	12.69	12.89	12.43	12.55	12.56	12.05	12.48	12.19	12.16	11.91	12.53	12.14	12.51	12.87	13.02	13.41	13.40	13.32	14.24
400.0	2510	3034	3459	3762	3913	3884	3582	3346	3226	3200	3221	3241	3161	3042	2914	2823	2752	2647	2531	2403	2253	2112	2001	1883	1727	1556	1377	1105	849.5	661.9	485.0	372.9	338.6	413.8	886.9	4396	5811	288.7	19.26	8.467	6.800	5.621	5.632	5.719	5.955	6.729	7.194	8.528	9.012	8.670	10.13	12.27	12.85	13.55	13.86	13.44	13.53	13.19	12.97	12.46	12.22	12.57	12.15	12.54	11.97	11.86	11.68	11.80	12.23	11.98	12.05	11.97	12.49	12.96	13.01	12.87	13.85
405.0	2425	2982	3359	3599	3781	3815	3509	3317	3167	3140	3189	3156	3056	2946	2825	2726	2665	2574	2473	2377	2255	2152	2050	1941	1796	1619	1444	1249	984.6	772.3	588.3	441.2	334.2	272.2	320.1	1289	5057	4520	231.1	12.85	7.871	6.480	5.942	5.733	6.085	6.708	7.013	8.024	8.769	8.677	9.538	11.90	12.73	13.41	13.62	13.05	13.50	13.01	13.10	12.40	12.25	12.31	11.79	11.91	11.48	11.92	11.31	11.32	11.56	12.23	11.92	12.06	11.97	12.59	12.40	12.68	13.15
410.0	2407	2820	3215	3449	3629	3654	3447	3263	3130	3081	3075	3026	2939	2816	2693	2583	2533	2463	2388	2315	2217	2144	2073	1985	1846	1681	1506	1345	1153	920.5	717.6	546.3	405.7	301.8	242.7	409.2	1450	3730	3546	931.7	20.34	8.482	6.746	6.326	6.341	6.473	6.782	7.793	8.428	8.290	9.138	11.35	12.13	12.49	12.77	12.63	13.35	12.96	12.45	12.28	11.76	11.63	11.93	11.96	11.58	11.36	11.14	11.09	11.22	11.03	11.14	11.38	11.65	11.88	11.83	12.24	12.27
415.0	2328	2739	3096	3280	3466	3522	3372	3206	3071	3005	2953	2898	2793	2662	2541	2428	2386	2319	2275	2219	2153	2099	2043	1980	1866	1717	1546	1379	1243	1064	835.6	634.1	488.2	362.6	272.0	247.8	431.6	929.7	2356	4770	1338	22.76	8.372	6.654	6.550	6.874	6.658	7.395	7.984	8.118	8.583	11.28	11.50	12.35	12.20	12.62	13.01	13.01	12.30	12.18	11.79	11.36	11.05	10.96	11.24	11.10	10.37	10.48	10.61	10.58	10.51	10.52	11.00	11.02	10.84	11.36	11.94
420.0	2273	2563	2894	3106	3325	3353	3273	3131	2988	2913	2859	2782	2673	2538	2423	2312	2265	2218	2170	2145	2084	2047	2005	1946	1850	1719	1561	1397	1260	1133	917.9	702.0	541.0	408.4	306.2	236.0	222.4	293.0	655.1	3269	4525	258.5	15.71	7.580	7.053	7.069	6.535	7.724	7.760	7.718	8.284	10.56	11.13	11.87	11.62	12.17	12.37	12.55	11.83	11.81	11.80	11.61	11.05	10.71	10.64	10.57	10.10	10.42	9.998	10.28	10.27	10.15	10.33	10.54	10.73	10.43	10.89
425.0	2115	2455	2784	3001	3181	3257	3210	3075	2928	2840	2768	2689	2549	2435	2310	2226	2169	2128	2095	2058	2019	1994	1956	1904	1817	1704	1559	1415	1272	1150	993.7	770.6	589.0	455.2	345.5	258.7	198.3	168.7	215.5	945.2	3865	2280	202.2	11.19	7.721	7.058	6.653	7.641	7.361	7.715	8.005	10.17	10.62	11.00	11.19	11.58	11.95	12.06	11.72	11.60	10.61	11.15	11.05	10.26	10.50	10.06	10.16	9.498	9.615	9.976	9.686	9.421	10.12	10.28	10.04	10.40	10.47
430.0	2357	2367	2656	2856	3024	3122	3100	3005	2877	2765	2684	2583	2449	2323	2192	2104	2043	2003	1979	1953	1922	1903	1882	1849	1784	1684	1566	1436	1298	1171	1034	861.2	663.1	513.7	397.2	303.6	228.3	170.4	139.7	274.8	1096	2620	2920	795.9	18.50	8.569	7.339	7.653	7.367	7.392	7.822	9.883	10.28	10.59	11.03	11.13	11.73	11.92	11.27	11.48	10.98	10.85	10.73	10.25	10.43	9.804	9.707	9.505	9.276	9.397	9.474	9.163	9.646	9.731	9.416	9.489	10.15
435.0	3170	2304	2505	2725	2876	2987	3010	2948	2828	2682	2577	2493	2349	2195	2074	1971	1925	1896	1861	1846	1817	1814	1806	1790	1730	1646	1552	1444	1319	1198	1053	914.2	750.8	576.1	448.9	352.6	270.6	201.2	149.6	144.8	303.7	648.3	1977	4040	1102	20.96	8.767	8.285	7.682	7.215	7.410	9.928	10.01	10.30	10.21	11.18	11.27	11.76	11.38	11.32	11.06	10.56	10.62	9.983	9.957	9.787	9.484	9.097	9.206	8.777	8.773	9.234	8.673	9.368	9.035	9.503	9.567
440.0	4025	2465	2431	2584	2753	2880	2940	2881	2740	2626	2517	2405	2251	2111	1983	1882	1829	1791	1785	1760	1739	1743	1737	1722	1679	1610	1519	1426	1319	1205	1068	915.5	785.5	625.9	485.4	386.6	301.0	226.0	169.5	130.7	139.6	198.3	554.6	2937	3811	232.5	14.42	9.115	7.846	7.500	7.643	9.328	9.287	10.05	9.845	10.50	10.95	11.46	11.26	10.79	10.73	10.11	10.05	10.04	9.718	9.428	8.805	8.612	8.373	8.504	8.794	8.806	8.593	9.111	9.087	8.861	9.150
445.0	3936	3052	2296	2484	2646	2788	2829	2794	2664	2552	2439	2304	2148	2026	1903	1793	1747	1705	1695	1679	1666	1660	1657	1654	1609	1552	1473	1390	1308	1198	1067	916.2	790.0	666.1	516.5	407.3	324.4	250.8	190.0	142.7	115.6	107.8	171.4	872.0	3496	2049	167.8	11.40	8.635	7.487	7.538	8.849	9.138	9.884	9.952	10.32	11.04	11.21	11.02	10.56	10.53	10.19	9.728	9.817	9.448	9.058	8.927	8.158	8.440	8.206	8.345	8.471	8.376	8.546	8.465	8.681	8.700
450.0	2759	4234	2468	2309	2467	2578	2678	2651	2539	2422	2301	2170	2017	1884	1751	1658	1613	1576	1561	1547	1537	1527	1535	1532	1499	1457	1393	1326	1253	1164	1045	906.7	776.8	666.9	558.6	438.9	351.6	275.7	216.6	166.8	129.9	104.5	98.93	240.4	1007	2416	2586	699.2	16.80	8.334	7.568	8.562	8.931	9.042	9.327	9.563	10.54	10.27	10.30	10.02	9.924	9.558	9.478	9.317	8.542	8.608	8.189	7.846	7.973	8.190	7.783	7.721	7.619	7.813	7.947	7.895	7.984
455.0	1799	3854	3544	2136	2251	2377	2483	2451	2368	2254	2149	1998	1855	1713	1595	1509	1463	1428	1413	1399	1397	1388	1392	1401	1374	1339	1295	1236	1182	1112	1004	881.4	756.7	644.7	565.2	470.9	375.3	298.8	238.4	190.8	151.5	119.4	96.53	110.7	266.5	591.9	1674	3378	218.7	17.19	8.377	8.789	8.356	8.528	8.664	8.591	9.868	9.382	9.480	9.552	9.194	9.112	8.833	8.813	8.635	8.149	7.655	7.248	7.494	7.607	7.151	6.965	7.135	7.351	7.068	7.158	7.252
460.0	1472	2664	4560	2202	2108	2229	2326	2314	2245	2154	2021	1873	1741	1601	1491	1401	1348	1318	1298	1287	1288	1286	1284	1298	1282	1246	1209	1169	1122	1064	968.0	857.5	742.5	635.5	549.1	481.5	395.3	310.8	253.8	205.5	163.9	132.7	104.4	88.81	108.2	169.4	454.4	2318	2854	181.5	13.45	9.069	8.355	8.439	8.354	8.371	9.144	9.151	8.989	9.045	8.802	8.883	8.305	8.282	8.284	7.328	7.176	7.150	7.202	6.739	6.796	6.880	6.727	6.491	6.539	6.794	6.682
465.0	1344	1868	4588	2841	1948	2082	2180	2174	2122	2017	1909	1759	1618	1501	1392	1302	1246	1219	1202	1193	1181	1185	1192	1197	1188	1163	1130	1100	1065	1009	931.5	823.8	716.1	620.9	533.2	471.4	407.4	325.8	263.8	214.2	175.1	142.6	111.9	89.24	77.92	78.54	132.8	669.3	2646	1552	149.5	11.45	8.928	8.273	7.963	7.907	8.626	8.781	8.678	8.579	8.480	7.982	8.004	7.818	7.270	7.077	7.505	6.681	6.521	6.293	6.260	6.218	5.996	6.283	6.147	6.606	6.216
470.0	1242	1474	2897	4246	2046	1866	1972	1988	1950	1843	1741	1601	1464	1352	1246	1166	1110	1088	1069	1062	1050	1056	1057	1065	1062	1043	1022	993.9	970.9	931.1	865.7	771.4	676.4	590.1	512.4	445.3	395.0	337.2	273.0	222.5	183.0	151.6	121.2	97.52	78.06	64.17	64.95	176.5	748.3	1697	1834	631.5	16.60	8.585	7.879	7.582	7.973	8.033	8.042	7.705	7.627	7.623	7.594	7.307	6.939	6.680	6.496	6.143	5.900	5.779	5.702	5.939	5.814	5.698	5.576	5.679	5.649
475.0	1125	1265	1663	3936	3111	1707	1745	1783	1745	1673	1577	1439	1313	1204	1103	1025	981.2	963.0	946.8	934.0	921.1	924.8	926.7	936.0	937.1	925.7	912.6	889.7	869.9	844.7	790.1	714.0	634.1	557.1	486.2	422.2	370.4	331.4	285.2	229.6	189.9	157.1	128.4	104.4	84.17	66.73	53.87	69.83	189.8	406.0	1028	2278	223.7	18.83	8.190	7.212	7.594	7.416	7.454	7.351	7.208	7.034	6.907	6.761	6.243	6.357	5.830	5.739	5.417	5.183	5.240	5.061	5.271	5.189	5.088	4.991	5.032
480.0	1005	1130	1322	2636	4212	1747	1622	1646	1613	1563	1458	1344	1220	1110	1021	946.0	900.8	880.3	862.9	850.0	838.8	842.0	849.3	854.3	854.6	844.4	835.3	821.2	810.9	788.8	740.7	672.8	598.1	533.3	466.0	408.1	356.5	319.5	284.8	235.4	196.3	161.3	132.7	108.3	89.51	70.84	54.66	48.28	68.36	110.0	268.4	1365	1795	212.0	13.23	7.770	7.361	7.162	7.090	7.000	6.807	6.700	6.645	6.067	5.836	5.882	5.318	5.306	5.020	4.967	4.972	4.652	4.604	4.533	4.862	4.813	4.857
485.0	906.0	1041	1199	1720	4358	2327	1514	1556	1524	1463	1368	1257	1139	1036	945.5	875.8	835.5	816.3	800.1	784.9	780.3	775.0	785.1	785.6	792.1	783.3	778.0	765.6	755.5	738.8	698.9	641.3	569.3	511.6	449.1	396.4	350.3	308.2	277.2	242.5	198.1	163.1	135.3	112.2	91.68	74.07	58.09	47.88	43.06	46.21	77.21	382.9	1670	1738	165.9	9.652	7.719	6.884	6.938	6.942	6.581	5.979	6.210	5.616	5.609	5.370	5.212	5.136	4.999	4.811	4.587	4.287	4.232	4.362	4.321	4.551	4.532
490.0	808.1	983.9	1106	1276	2776	3639	1614	1426	1398	1342	1257	1156	1046	948.2	864.5	797.1	759.3	736.3	718.8	708.7	700.5	697.9	705.3	712.4	717.4	712.5	710.6	702.8	696.0	683.0	651.6	598.2	536.9	484.1	429.4	379.7	338.5	295.4	263.0	234.9	203.7	166.7	138.6	115.1	96.14	78.12	63.11	51.33	41.60	35.78	37.72	102.9	459.9	1301	1716	619.6	17.74	7.922	6.961	6.525	6.280	5.829	5.703	5.235	5.198	4.954	4.970	4.587	4.498	4.244	4.311	4.059	4.178	4.055	3.850	4.061	4.237
495.0	726.2	867.0	995.0	1074	1509	3631	2470	1302	1285	1219	1152	1050	953.5	864.7	783.8	717.1	674.7	652.7	640.6	630.6	627.0	623.9	629.8	633.0	640.2	638.8	634.6	632.9	631.7	620.5	597.4	549.5	498.9	449.6	397.7	358.7	319.1	282.9	250.2	221.2	198.0	171.2	140.4	118.5	99.08	81.71	66.01	54.16	44.95	36.57	32.13	42.63	119.0	310.3	922.5	2129	830.1	21.66	7.975	7.018	6.426	5.743	5.610	5.210	4.959	4.895	4.547	4.295	4.205	4.128	4.021	3.739	4.088	3.648	3.528	3.790	3.679
500.0	632.0	773.4	948.3	976.5	1111	2463	3501	1333	1180	1134	1067	968.2	880.2	786.7	709.7	658.4	617.0	594.2	580.0	576.9	561.7	560.8	568.0	577.3	580.6	583.5	582.7	584.7	577.5	572.3	548.5	505.4	465.7	418.6	376.1	337.7	301.7	268.5	236.4	210.5	188.3	168.4	141.2	117.4	97.87	82.35	68.43	55.68	46.96	38.60	32.45	31.89	44.65	85.56	239.8	1211	2079	233.3	16.04	7.667	6.337	5.586	5.365	4.966	4.631	4.769	4.360	3.846	3.916	3.692	3.636	3.552	3.649	3.606	3.545	3.669	3.623
505.0	574.1	743.4	858.3	903.4	927.7	1483	3823	1753	1082	1046	980.9	893.0	798.4	724.7	649.1	598.4	565.1	540.1	525.3	519.8	515.1	511.4	518.1	525.4	525.1	528.1	530.7	535.1	532.3	521.6	504.4	467.2	432.2	386.4	352.8	316.6	282.3	254.2	225.5	199.6	176.0	160.6	140.3	116.9	96.86	81.84	68.73	58.79	48.42	40.46	34.73	31.10	30.39	38.19	71.52	331.4	1500	1790	191.3	10.90	6.975	5.783	5.393	4.608	4.283	4.375	4.165	3.866	3.702	3.521	3.226	3.263	3.010	3.187	3.405	3.261	3.259
510.0	537.6	646.4	744.6	819.6	822.3	990.4	2551	3070	1127	930.5	872.9	793.9	708.4	637.3	577.6	526.0	498.3	478.1	465.7	457.5	453.0	449.6	450.3	459.5	459.3	462.6	463.0	466.1	466.4	463.3	446.5	418.1	384.5	348.8	317.7	285.8	259.6	232.4	207.1	183.1	162.1	144.3	132.6	117.3	96.80	80.44	69.80	58.18	49.56	42.67	37.78	34.11	31.01	31.73	38.16	95.04	404.0	1123	1447	540.9	17.81	6.951	5.451	4.619	4.227	3.909	3.775	3.274	3.190	3.195	2.952	3.040	2.881	2.840	2.875	2.805	2.838
515.0	465.8	560.1	622.5	735.4	726.3	782.8	1248	3434	1859	813.1	767.8	691.5	621.7	561.8	502.0	462.9	432.5	413.5	404.5	392.3	388.1	387.2	389.3	395.4	398.7	398.7	398.7	402.7	404.8	401.8	391.5	365.4	338.3	309.0	282.0	255.4	232.8	208.4	188.9	165.8	148.0	130.4	117.6	110.7	97.24	79.24	67.82	59.05	50.65	44.40	40.27	37.02	33.81	32.62	34.38	45.74	112.7	272.5	637.4	1575	720.5	21.88	6.276	4.850	4.096	3.545	3.198	3.117	2.834	2.939	2.686	2.661	2.668	2.560	2.499	2.482	2.553
520.0	434.1	497.9	559.7	646.1	663.3	678.8	820.4	2419	2971	852.8	691.7	630.1	557.2	503.5	454.9	418.0	385.9	370.9	360.8	350.8	345.4	344.4	346.6	350.0	354.3	355.2	358.0	360.2	361.1	359.7	354.4	327.5	301.0	280.3	256.0	232.1	211.5	192.9	173.0	152.1	136.0	120.8	107.6	101.3	92.55	78.93	66.25	57.45	50.07	44.64	41.35	38.00	35.48	34.45	34.21	37.04	49.80	82.26	167.9	795.1	1557	239.4	15.47	5.201	4.162	3.482	3.229	2.662	2.707	2.658	2.407	2.453	2.426	2.447	2.381	2.350	2.363
525.0	389.7	452.3	502.5	568.8	624.9	612.8	652.5	1312	3630	1287	635.6	566.0	501.7	451.9	407.3	374.3	350.5	335.2	325.5	319.6	310.8	313.1	315.3	315.6	317.7	320.9	319.5	323.5	324.3	326.8	317.3	297.8	274.0	256.1	232.8	210.3	193.6	178.3	158.6	140.2	127.7	111.8	101.9	92.09	86.89	78.36	65.39	55.64	49.95	44.76	40.65	38.08	36.49	34.62	35.15	34.64	37.12	41.16	56.71	211.1	937.1	1320	201.0	8.703	4.503	3.596	2.936	2.486	2.519	2.343	2.309	2.367	2.149	2.196	2.099	2.229	2.174
530.0	333.6	385.5	435.6	477.6	539.0	551.2	560.7	748.2	2459	2705	693.3	496.7	439.3	400.1	354.9	325.2	306.2	289.9	280.5	273.2	268.9	268.6	270.4	270.4	272.4	273.8	277.4	279.2	283.5	283.5	276.8	260.1	239.9	221.9	204.1	186.1	170.5	156.2	141.0	126.8	114.2	101.8	91.69	82.90	76.13	72.14	64.34	54.39	47.40	42.23	38.57	36.71	34.69	34.44	34.06	33.75	34.54	32.33	32.59	63.19	242.6	704.7	1007	435.9	16.80	4.072	3.225	2.660	2.418	2.325	2.139	2.090	2.066	1.972	2.089	1.897	1.999
535.0	282.6	333.3	378.9	398.1	453.0	494.8	473.4	524.4	1032	3260	1469	437.3	381.3	339.8	303.5	280.8	260.9	247.4	239.4	233.3	226.3	226.0	228.1	230.0	230.8	229.9	233.9	237.6	240.7	242.2	235.0	221.0	206.6	189.9	176.9	161.3	148.4	134.6	122.9	111.4	99.04	89.75	80.64	73.29	65.96	62.44	59.37	51.88	44.12	39.04	35.93	33.47	32.41	32.07	31.53	32.31	31.14	28.62	26.11	30.65	67.46	168.2	366.2	1022	621.7	21.69	3.521	2.658	2.413	2.355	1.945	1.827	1.895	1.886	1.855	1.913	1.941
540.0	257.8	294.4	316.4	357.3	383.1	440.6	433.2	442.3	575.8	2241	2428	463.1	337.0	308.1	270.7	251.0	231.3	217.0	210.8	204.9	200.1	199.6	198.4	200.6	202.4	202.9	205.4	206.3	210.2	211.2	205.9	194.5	182.2	167.8	154.6	143.2	130.9	120.1	110.7	99.50	89.01	80.77	72.72	66.44	60.31	55.52	52.15	49.72	42.62	36.96	33.72	31.36	30.55	30.10	30.22	30.42	28.94	26.50	23.85	22.41	27.42	47.95	92.03	441.1	1068	245.5	15.16	3.060	2.357	2.196	1.947	1.687	1.727	1.717	1.523	1.698	1.745
545.0	238.9	271.7	298.0	308.9	336.3	381.0	394.2	379.8	423.9	1059	3375	806.8	299.0	271.8	239.1	215.9	203.9	194.3	183.7	180.1	176.7	176.7	175.0	176.5	176.8	177.1	179.3	181.5	185.7	185.5	181.0	170.2	159.2	147.6	137.0	126.8	116.2	107.3	97.58	87.24	80.38	72.65	65.69	59.43	54.58	49.79	46.11	45.46	41.36	34.78	30.83	29.05	27.65	27.47	27.47	28.35	27.00	24.53	22.44	19.82	18.68	21.56	28.90	110.5	531.4	924.1	206.0	8.069	2.524	2.219	2.045	1.615	1.653	1.716	1.440	1.411	1.528
550.0	220.0	237.6	258.5	267.5	267.1	311.2	348.3	325.7	339.0	492.0	2164	2188	345.1	228.0	199.3	180.1	170.0	161.5	152.1	148.5	146.4	146.2	145.4	145.3	147.8	147.9	148.3	150.9	152.7	155.1	150.0	141.6	133.5	123.0	114.4	105.3	96.86	88.74	82.75	74.03	68.34	61.11	55.72	51.19	46.90	42.38	39.31	37.17	35.80	32.20	27.93	25.78	24.57	24.07	23.93	24.07	23.89	22.14	19.94	17.39	15.47	14.76	14.39	31.59	131.0	411.8	658.8	322.1	16.96	2.771	2.108	1.578	1.518	1.440	1.389	1.305	1.326
555.0	201.4	209.0	205.7	223.2	228.3	236.7	291.6	288.8	279.1	306.8	764.6	2869	931.0	191.7	163.2	151.4	134.5	129.6	123.0	119.6	117.2	116.9	117.0	115.6	120.0	117.8	119.7	120.2	123.8	123.7	120.6	113.7	106.4	99.38	92.93	85.21	79.79	73.25	67.34	60.94	55.67	50.88	46.28	42.81	39.66	35.47	32.80	30.51	29.26	28.40	24.77	22.34	20.60	20.45	20.80	20.29	20.22	19.13	17.33	15.09	13.43	11.98	10.88	13.67	35.08	96.63	206.1	594.7	264.9	22.71	2.555	1.810	1.589	1.319	1.104	1.308	1.233
560.0	195.0	182.1	186.0	195.9	189.9	196.3	236.1	278.4	243.5	250.5	356.4	1911	1760	201.4	136.4	126.8	116.7	109.0	104.3	100.6	99.25	98.83	97.62	96.17	99.73	99.56	101.1	101.7	103.7	104.3	100.9	95.11	91.12	83.78	78.15	72.58	66.92	61.99	56.63	50.98	47.37	42.86	39.16	36.59	34.19	29.95	28.46	26.27	25.13	23.94	23.25	20.30	18.55	17.54	18.05	17.26	17.30	16.46	15.28	13.56	12.57	10.59	9.656	9.388	13.71	26.77	51.30	223.7	588.8	241.9	15.61	2.096	1.645	1.373	1.131	1.278	1.156
565.0	180.8	183.8	162.8	182.3	162.5	173.4	195.0	249.0	225.9	216.3	231.4	802.3	2675	458.7	118.8	107.4	100.4	93.49	89.42	85.77	84.02	84.71	84.54	81.23	83.40	84.79	85.36	85.90	85.60	88.30	86.91	80.34	75.65	71.26	65.85	61.73	56.62	52.61	48.67	43.40	40.65	37.06	34.19	31.48	29.13	26.13	24.52	22.88	21.23	20.31	19.98	18.59	16.97	15.77	15.68	15.26	15.45	14.75	13.49	12.11	10.79	9.792	8.502	8.122	8.657	11.40	16.08	55.93	258.7	562.6	192.2	7.399	1.797	1.383	1.143	1.096	1.107
570.0	171.1	175.9	156.3	145.5	135.3	143.1	157.8	195.1	218.2	191.7	192.4	315.7	1754	1576	140.8	88.04	81.56	76.25	73.72	70.48	68.22	68.02	66.73	67.74	67.57	66.89	67.52	68.16	69.33	70.04	68.47	65.49	61.29	56.92	53.10	50.08	46.44	42.76	39.44	35.93	32.94	30.36	27.77	25.77	24.07	22.34	20.28	18.90	17.34	16.08	15.98	15.55	14.71	13.39	12.88	13.38	12.53	12.46	11.21	10.62	9.701	8.665	7.604	7.359	7.184	7.491	8.315	17.02	63.55	220.6	385.3	207.7	16.05	1.704	1.118	1.009	0.998
575.0	171.8	161.9	134.4	120.7	116.3	117.3	128.9	150.3	201.1	172.6	171.0	185.7	558.9	2216	582.5	74.01	65.74	62.78	57.96	56.82	54.56	54.37	52.57	52.76	55.14	53.42	53.94	53.73	56.24	56.09	54.27	53.36	49.73	45.27	42.69	39.52	36.73	34.55	31.46	28.94	26.36	24.40	22.56	21.12	19.58	17.61	16.95	15.21	14.38	13.10	12.50	12.44	12.38	12.35	11.26	10.86	10.53	10.34	9.330	9.306	8.462	7.679	7.046	6.216	5.980	6.103	5.873	7.764	17.88	52.25	110.1	317.6	249.9	20.92	1.380	1.040	1.061
580.0	157.1	158.6	136.1	117.3	104.7	103.4	112.4	125.3	181.5	179.6	153.6	154.5	219.0	1486	1245	90.69	57.88	52.60	50.06	48.22	45.91	45.41	44.71	44.68	46.75	45.53	44.96	44.88	46.03	47.28	44.74	44.84	41.42	38.84	36.37	33.61	30.78	28.95	27.00	24.50	22.63	21.12	19.75	17.93	17.22	15.85	14.43	13.33	12.14	11.38	10.51	9.956	10.79	10.85	10.17	9.351	9.200	9.067	8.110	8.329	7.511	6.797	6.333	5.624	5.413	5.713	5.407	5.718	7.160	14.62	27.14	111.7	351.8	202.9	12.41	1.074	0.997
585.0	153.0	155.1	124.8	107.0	100.5	93.55	100.5	113.3	151.2	189.4	150.1	142.9	135.2	599.1	1971	240.4	49.98	45.58	42.59	41.15	40.10	38.31	37.75	38.77	39.07	38.73	38.36	39.10	39.26	40.09	38.74	37.01	35.15	32.44	30.54	28.43	26.60	24.95	22.62	21.52	19.72	17.79	16.52	16.01	14.92	13.66	12.59	11.87	10.65	9.501	9.230	8.521	9.098	9.603	8.940	8.528	8.234	7.915	6.950	7.243	6.135	5.715	5.904	5.278	4.928	4.918	4.741	5.037	4.894	5.892	8.317	27.32	143.8	338.1	134.6	5.095	1.025
590.0	153.8	138.2	118.0	93.12	86.15	82.44	89.55	98.44	118.1	169.6	158.1	133.3	109.4	203.2	1313	1003	67.53	36.50	35.04	33.37	32.42	31.47	30.73	30.99	31.02	30.92	31.16	31.24	32.45	32.08	30.99	29.78	28.59	26.03	24.69	22.91	21.58	19.73	18.68	17.51	15.72	14.56	13.65	12.84	12.30	11.26	10.25	9.843	8.839	8.090	7.662	7.175	7.275	7.655	7.731	7.672	6.781	6.369	6.029	5.874	5.179	4.821	4.839	4.559	4.490	4.343	4.021	3.985	3.667	3.506	3.780	7.618	34.33	126.3	228.1	130.5	14.21
595.0	142.6	125.5	101.0	88.93	79.97	76.22	72.36	87.69	99.16	140.9	166.6	127.2	102.8	99.05	393.2	1519	304.3	29.60	28.62	27.07	25.96	25.32	23.98	25.04	24.96	25.23	25.02	24.91	25.92	25.96	24.79	24.06	22.78	21.13	19.60	18.53	17.25	15.77	15.06	13.72	12.58	11.68	11.35	10.20	9.946	9.434	8.419	7.910	7.186	6.547	6.605	6.015	6.106	6.002	6.356	6.460	6.034	5.409	5.138	4.860	4.291	4.093	3.841	3.771	3.780	3.673	3.286	3.252	2.903	2.739	2.588	3.011	8.804	29.28	63.41	186.2	174.7
600.0	138.9	119.6	100.5	82.34	69.64	68.68	68.90	81.01	91.27	115.3	163.6	130.9	96.87	77.82	125.9	1083	804.0	39.22	24.46	23.66	22.34	21.18	20.67	20.37	21.20	20.67	20.77	21.10	21.13	22.36	21.03	20.08	19.18	17.72	16.60	15.45	14.18	13.36	12.34	12.01	11.09	9.677	10.03	9.050	8.577	8.020	7.370	6.803	6.216	5.635	5.564	5.189	4.823	4.864	4.941	5.528	5.504	4.692	4.242	4.092	3.929	3.780	3.465	3.041	3.217	3.364	3.083	2.746	2.472	2.343	2.026	1.713	3.042	7.513	15.14	64.34	209.8
605.0	137.2	115.2	105.3	76.63	68.39	64.35	65.25	79.82	84.23	108.7	151.3	136.1	96.81	70.54	64.17	441.6	1282	93.11	21.32	20.39	18.82	18.45	18.29	17.60	18.30	17.77	17.59	17.74	17.67	18.56	17.30	17.06	16.43	15.14	13.95	13.62	12.34	11.76	10.74	9.832	9.324	8.412	8.092	7.535	7.210	6.698	6.214	5.675	5.344	4.984	4.732	4.427	4.316	4.221	4.184	4.449	5.136	4.521	3.928	3.595	3.423	3.054	3.134	3.021	2.816	2.957	3.004	2.505	2.303	2.009	1.671	1.572	1.734	2.586	4.145	15.39	83.63
610.0	121.9	111.6	93.89	67.14	63.67	63.70	63.67	72.89	85.18	100.6	130.9	143.7	102.1	69.92	52.08	134.0	936.6	588.1	31.94	16.39	15.48	15.04	14.94	14.05	14.43	14.53	14.29	14.49	14.63	14.25	14.62	13.49	13.07	12.73	11.49	10.84	10.03	9.607	8.875	8.069	7.160	6.905	6.571	5.996	5.833	5.509	5.180	5.005	4.357	4.164	3.754	3.688	3.472	3.539	3.499	3.617	4.032	3.858	3.452	3.104	2.813	2.583	2.453	2.638	2.598	2.356	2.359	2.298	2.136	1.787	1.539	1.423	1.305	1.437	1.718	4.106	19.94
615.0	110.3	106.8	82.63	65.83	57.97	54.79	59.22	67.60	80.31	94.39	116.6	140.1	109.9	71.83	49.98	56.37	289.8	1055	94.13	14.74	12.78	11.70	12.53	12.03	11.26	11.78	11.10	11.48	11.44	11.92	11.30	10.99	10.58	10.41	9.354	8.962	8.344	7.397	7.227	6.441	5.790	5.623	5.366	4.844	4.619	4.275	4.248	3.952	3.471	3.266	3.270	2.997	3.000	2.979	2.869	2.759	3.180	3.004	3.200	2.640	2.430	2.419	2.152	1.948	2.111	1.931	1.989	2.065	1.720	1.538	1.366	1.288	0.989	1.137	1.072	1.611	5.109
620.0	103.0	99.12	83.25	68.25	55.15	52.55	54.94	65.46	73.20	90.31	107.7	129.0	119.1	72.39	49.54	39.43	89.42	821.1	515.4	18.75	11.54	9.874	10.51	10.06	9.994	10.04	8.847	9.490	9.929	9.887	9.875	8.992	8.435	8.678	7.821	7.412	7.139	6.266	5.778	5.414	4.884	4.665	4.382	4.195	3.747	3.701	3.680	3.217	2.949	2.732	2.817	2.559	2.549	2.405	2.486	2.419	2.562	2.503	2.783	2.480	1.959	1.998	1.850	1.859	1.706	1.670	1.669	1.690	1.658	1.592	1.305	1.112	1.022	1.014	0.967	0.932	1.736
625.0	97.56	97.55	77.67	64.97	52.24	53.23	54.11	61.00	69.28	90.39	103.4	112.9	125.5	74.56	49.68	36.17	41.31	365.5	917.2	57.48	10.43	8.856	8.769	8.369	8.397	8.501	8.040	7.816	8.118	7.838	8.007	7.943	7.215	6.872	6.662	6.243	5.418	5.376	5.028	4.572	4.273	3.879	3.487	3.500	3.122	3.228	2.990	2.873	2.612	2.404	2.262	2.158	2.305	2.106	2.170	2.078	2.008	2.037	2.442	2.275	1.881	1.850	1.682	1.627	1.605	1.532	1.644	1.506	1.623	1.645	1.250	1.115	1.053	0.890	0.830	0.806	0.992
630.0	95.23	95.98	78.19	63.20	53.54	52.20	57.86	60.53	72.05	84.43	97.21	107.4	115.3	89.20	55.02	40.88	35.18	110.7	737.8	432.1	16.24	7.726	7.049	7.331	6.709	6.825	6.546	6.562	6.386	6.882	6.280	6.145	5.851	5.725	5.462	4.855	4.469	4.307	3.924	3.672	3.665	3.180	3.171	2.898	2.663	2.763	2.320	2.372	2.230	1.943	1.935	1.900	1.830	1.765	1.786	1.800	1.808	1.614	1.960	1.855	1.734	1.761	1.503	1.449	1.446	1.382	1.381	1.422	1.409	1.343	1.281	1.056	1.095	0.824	0.776	0.752	0.813
635.0	90.04	96.12	79.20	63.42	64.21	57.26	60.27	66.19	73.32	84.12	100.6	106.0	108.3	108.6	71.34	56.18	50.24	55.61	248.3	875.7	69.72	7.370	6.459	6.028	5.521	5.585	5.078	5.349	5.340	5.317	4.995	5.025	4.739	4.528	4.050	3.922	3.845	3.644	3.251	2.974	2.843	2.705	2.608	2.274	2.198	2.203	1.920	1.925	1.813	1.701	1.493	1.690	1.414	1.520	1.577	1.514	1.310	1.435	1.487	1.428	1.426	1.545	1.415	1.192	1.279	1.229	1.331	1.244	1.142	1.190	1.284	1.071	1.039	0.898	0.733	0.723	0.813
640.0	95.68	105.6	91.47	77.81	68.55	66.03	66.42	69.56	72.80	90.91	105.9	113.4	114.7	118.5	91.80	72.45	64.99	55.15	92.66	760.8	335.4	10.19	5.688	5.236	4.882	4.537	4.525	4.606	4.496	4.457	4.231	3.815	4.026	3.710	3.339	3.348	2.831	2.719	2.717	2.597	2.317	2.387	2.359	2.019	1.815	1.914	1.689	1.809	1.621	1.484	1.307	1.360	1.370	1.329	1.331	1.409	1.308	1.313	1.277	1.324	1.241	1.448	1.336	1.184	1.179	1.112	1.201	1.242	1.198	1.038	1.178	1.117	1.083	1.007	0.909	0.845	0.848
645.0	111.8	123.2	109.7	82.33	74.55	70.03	67.69	68.84	72.38	94.12	109.1	119.1	125.4	125.9	113.5	87.74	80.37	64.69	60.73	381.9	643.4	32.07	4.988	4.533	4.318	4.063	4.131	3.761	3.851	3.782	3.884	3.438	3.420	3.317	2.732	2.761	2.731	2.205	2.235	2.166	2.089	2.156	2.048	1.933	1.663	1.754	1.488	1.562	1.429	1.402	1.284	1.272	1.197	1.303	1.201	1.259	1.240	1.222	1.199	1.243	1.033	1.442	1.294	1.199	1.160	1.052	1.300	1.144	1.181	1.180	1.127	1.090	1.233	1.044	0.913	0.952	0.924
650.0	117.1	138.7	122.4	89.29	81.46	75.14	69.90	70.26	81.56	95.70	113.1	125.5	135.4	131.1	128.2	99.25	90.10	70.47	56.43	140.7	730.7	77.41	4.976	3.985	4.137	3.569	3.374	3.350	3.500	3.382	3.367	3.142	2.866	2.835	2.500	2.503	2.359	2.084	1.919	1.961	1.835	1.923	1.661	1.601	1.597	1.484	1.424	1.472	1.382	1.291	1.145	1.177	1.055	1.230	1.149	1.102	1.163	1.143	1.085	1.101	1.045	1.235	1.163	1.152	1.109	0.969	1.106	1.037	1.175	1.143	1.111	1.102	1.132	0.943	1.014	0.971	1.017
