Sample:	'1
File name:	Default_20240316_161647.FD3
Run date:	'16:10:26, 03/16/2024
Operator:	dsjg
Comment:	'

Instrument
Model:	F-2700 FL Spectrophotometer
Serial number:	2198-001
ROM Version:	4J14000 07

Instrument parameters
Measurement type:	3-D scan
Data mode:	Fluorescence
EX  Start WL:	220.0 nm
EX  End WL:	600.0 nm
EX Sampling interval:	5.0 nm
EM  Start WL:	230.0 nm
EM  End WL:	650.0 nm
EM Sampling interval:	5.0 nm
Scan speed:	12000 nm/min
EX Slit:	5.0 nm
EM Slit:	5.0 nm
PMT Voltage:	700 V
Response:	Auto 
Corrected spectra:	Off
Contour interval:	50.000

Peak integration
Integration method:	Rectangular
Sensitivity:	1
Threshold:	1.000

Peaks
No.	ApexEX/EM(nm)	Height(Data)
1	225.0/495.0	67.71
2	225.0/575.0	13.63
3	225.0/595.0	12.37
4	225.0/605.0	16.32
5	230.0/340.0	 1226
6	230.0/505.0	65.89
7	230.0/555.0	10.49
8	230.0/600.0	8.957
9	235.0/255.0	160.7
10	235.0/515.0	56.40
11	240.0/265.0	186.8
12	240.0/525.0	48.99
13	245.0/270.0	154.8
14	245.0/540.0	42.90
15	250.0/275.0	171.5
16	250.0/550.0	34.85
17	255.0/280.0	196.2
18	255.0/560.0	29.71
19	260.0/285.0	181.0
20	260.0/570.0	23.76
21	265.0/480.0	15.48
22	265.0/585.0	24.57
23	275.0/610.0	38.09
24	280.0/320.0	700.9
25	280.0/615.0	37.47
26	290.0/645.0	26.70
27	315.0/355.0	174.3
28	320.0/360.0	170.4
29	325.0/365.0	141.9
30	335.0/380.0	101.6
31	340.0/385.0	89.24
32	345.0/390.0	68.40
33	350.0/395.0	67.72
34	355.0/405.0	68.24
35	355.0/610.0	1.487
36	360.0/410.0	55.14
37	365.0/415.0	54.23
38	370.0/425.0	52.51
39	375.0/430.0	42.75
40	380.0/435.0	39.73
41	385.0/445.0	38.12
42	390.0/450.0	29.13
43	395.0/455.0	26.88
44	400.0/465.0	24.56
45	405.0/470.0	18.93
46	410.0/475.0	17.13
47	415.0/485.0	15.00
48	420.0/490.0	12.72
49	425.0/495.0	11.59
50	430.0/505.0	10.66
51	435.0/510.0	8.541
52	440.0/515.0	7.650
53	445.0/525.0	6.809
54	450.0/530.0	5.473
55	455.0/535.0	4.964
56	460.0/335.0	2.719
57	460.0/545.0	4.557
58	465.0/340.0	2.774
59	465.0/550.0	3.592
60	470.0/560.0	3.129
61	475.0/565.0	2.559
62	480.0/570.0	1.851
63	485.0/580.0	1.532
64	555.0/305.0	2.837
65	560.0/310.0	3.073
66	565.0/315.0	2.992
67	580.0/320.0	3.304
68	585.0/325.0	3.199

Data points
	220.0	225.0	230.0	235.0	240.0	245.0	250.0	255.0	260.0	265.0	270.0	275.0	280.0	285.0	290.0	295.0	300.0	305.0	310.0	315.0	320.0	325.0	330.0	335.0	340.0	345.0	350.0	355.0	360.0	365.0	370.0	375.0	380.0	385.0	390.0	395.0	400.0	405.0	410.0	415.0	420.0	425.0	430.0	435.0	440.0	445.0	450.0	455.0	460.0	465.0	470.0	475.0	480.0	485.0	490.0	495.0	500.0	505.0	510.0	515.0	520.0	525.0	530.0	535.0	540.0	545.0	550.0	555.0	560.0	565.0	570.0	575.0	580.0	585.0	590.0	595.0	600.0
230.0	26.30	626.1	 1390	391.3	9.848	3.615	2.566	2.076	1.822	1.340	1.367	0.923	1.204	1.096	0.702	0.826	0.563	0.371	0.271	0.379	0.366	0.318	0.295	0.280	0.259	0.127	0.231	0.187	0.199	0.278	0.232	0.206	0.208	0.267	0.274	0.415	0.490	0.444	0.356	0.413	0.369	0.475	0.556	0.340	0.290	0.244	0.331	1.227	2.798	2.612	1.302	0.375	0.221	0.177	0.134	0.154	0.196	0.188	0.159	0.181	0.174	0.182	0.103	0.118	0.129	0.180	0.100	0.129	0.192	0.151	0.077	0.092	0.115	0.077	0.082	0.107	0.067
235.0	59.59	174.2	761.5	 1199	380.6	16.33	2.886	2.429	1.903	1.394	2.277	1.562	0.881	0.599	0.494	0.777	0.465	0.278	0.341	0.324	0.462	0.144	0.308	0.158	0.416	0.232	0.157	0.249	0.235	0.232	0.192	0.142	0.194	0.262	0.197	0.210	0.373	0.423	0.290	0.334	0.335	0.306	0.281	0.455	0.369	0.414	0.334	0.461	0.912	1.602	2.286	2.870	1.752	0.588	0.156	0.228	0.293	0.213	0.251	0.185	0.086	0.083	0.101	0.159	0.130	0.196	0.087	0.147	0.096	0.086	0.098	0.009	0.171	0.206	0.104	0.065	0.007
240.0	95.43	88.65	227.3	924.5	 1078	273.3	7.677	1.993	1.944	1.526	2.228	1.825	1.575	1.545	1.033	0.574	0.225	0.367	0.381	0.404	0.507	0.369	0.413	0.111	0.264	0.281	0.203	0.109	0.321	0.232	0.140	0.134	0.208	0.207	0.096	0.245	0.228	0.383	0.432	0.313	0.244	0.364	0.269	0.579	0.346	0.640	0.433	0.309	0.424	0.590	0.957	2.150	3.227	2.834	1.261	0.441	0.180	0.225	0.198	0.151	0.231	0.104	0.145	0.163	0.107	0.143	0.150	0.165	0.122	0.152	0.150	0.071	0.093	0.233	0.127	0.165	0.120
245.0	77.03	115.9	79.46	310.1	 1067	896.1	159.2	4.383	2.046	2.043	1.732	1.135	0.814	0.480	1.011	0.500	0.072	0.361	0.297	0.227	0.533	0.447	0.152	0.130	0.155	0.369	0.158	0.159	0.282	0.061	0.155	0.162	0.246	0.192	0.204	0.235	0.220	0.395	0.379	0.369	0.365	0.383	0.355	0.491	0.346	0.518	0.551	0.539	0.289	0.342	0.394	0.815	1.854	3.221	3.570	2.378	0.667	0.203	0.066	0.070	0.231	0.179	0.132	0.118	0.164	0.117	0.188	0.141	0.253	0.078	0.100	0.056	0.150	0.187	0.087	0.069	0.129
250.0	32.41	97.35	127.0	110.9	344.1	857.5	913.9	299.7	20.37	2.193	2.407	1.833	1.228	0.750	0.643	0.804	0.337	0.344	0.276	0.323	0.372	0.420	0.200	0.391	0.340	0.321	0.209	0.154	0.303	0.235	0.258	0.209	0.172	0.164	0.143	0.245	0.089	0.232	0.241	0.407	0.480	0.424	0.458	0.352	0.356	0.420	0.376	0.457	0.489	0.482	0.391	0.393	0.633	1.040	1.837	2.659	3.333	3.193	1.958	1.009	0.201	0.146	0.164	0.169	0.105	0.126	0.110	0.153	0.206	0.067	0.148	0.045	0.142	0.049	0.011	0.135	0.038
255.0	13.74	29.48	100.2	160.7	117.7	221.4	664.8	 1217	399.7	21.07	2.359	2.284	1.145	0.871	0.892	0.987	0.711	0.603	0.300	0.447	0.416	0.441	0.357	0.327	0.280	0.349	0.211	0.177	0.190	0.265	0.268	0.133	0.231	0.155	0.163	0.368	0.124	0.151	0.264	0.197	0.409	0.375	0.480	0.376	0.339	0.456	0.328	0.393	0.366	0.423	0.580	0.574	0.434	0.397	0.638	0.774	1.327	2.508	4.596	6.288	2.331	0.607	0.102	0.229	0.119	0.203	0.107	0.075	0.155	0.093	0.141	0.126	0.138	0.078	0.021	0.167	0.049
260.0	17.02	15.57	37.18	148.7	149.3	71.54	200.6	913.2	 1269	300.7	7.616	2.225	1.312	1.419	0.940	1.118	0.871	0.483	0.445	0.626	0.325	0.303	0.326	0.266	0.230	0.089	0.218	0.143	-0.004	0.159	0.414	0.269	0.210	0.210	0.205	0.308	0.110	0.199	0.189	0.089	0.163	0.397	0.440	0.396	0.437	0.323	0.227	0.371	0.334	0.325	0.420	0.575	0.821	0.662	0.384	0.408	0.443	0.783	1.909	4.907	4.986	3.972	1.754	0.426	0.103	0.164	0.106	0.081	0.213	0.138	0.156	0.124	0.101	0.132	0.075	0.207	0.059
265.0	13.26	12.25	13.14	73.50	186.8	99.37	58.51	300.1	 1157	 1150	212.4	3.681	1.612	1.798	1.364	1.041	0.662	0.525	0.426	0.421	0.270	0.270	0.390	0.426	0.309	0.186	0.164	0.148	0.227	0.225	0.290	0.199	0.175	0.258	0.142	0.172	0.149	0.125	0.142	0.121	0.176	0.237	0.482	0.317	0.399	0.378	0.289	0.382	0.285	0.319	0.327	0.349	0.704	0.755	0.672	0.354	0.356	0.294	0.582	1.473	2.734	4.328	5.475	3.269	0.935	0.231	0.175	0.122	0.137	0.168	0.127	0.050	0.076	0.091	0.182	0.184	0.134
270.0	18.15	10.32	11.17	23.16	86.48	154.8	112.4	87.54	351.8	895.5	 1121	480.3	37.27	2.151	1.488	1.133	0.913	0.481	0.470	0.449	0.397	0.262	0.443	0.262	0.239	0.220	0.067	0.236	0.345	0.280	0.168	0.151	0.173	0.207	0.230	0.189	0.152	0.181	0.103	0.086	0.145	0.138	0.306	0.306	0.450	0.427	0.364	0.305	0.300	0.335	0.298	0.296	0.371	0.444	0.569	0.800	0.625	0.467	0.358	0.575	0.714	1.338	2.554	3.681	4.269	5.436	2.156	0.706	0.235	0.149	0.077	0.075	0.119	0.097	0.139	0.121	0.113
275.0	22.55	17.56	9.688	10.40	21.65	67.59	171.5	136.0	98.06	223.3	633.7	 1276	291.5	32.95	1.704	1.174	0.945	0.763	0.638	0.495	0.376	0.094	0.209	0.298	0.144	0.467	0.085	0.277	0.349	0.285	0.237	0.170	0.251	0.186	0.235	0.274	0.219	0.142	0.149	0.149	0.170	0.196	0.167	0.186	0.408	0.501	0.422	0.397	0.274	0.321	0.298	0.214	0.358	0.365	0.385	0.417	0.539	0.937	0.796	0.528	0.397	0.460	0.663	1.024	1.267	3.923	4.621	4.690	2.690	1.087	0.092	0.039	0.097	0.123	0.281	0.099	0.114
280.0	21.69	26.37	17.66	11.69	8.184	21.75	103.4	196.2	101.2	63.00	179.6	791.1	 1193	233.1	11.95	1.441	1.138	0.875	0.687	0.774	0.636	0.338	0.303	0.437	0.299	0.336	0.160	0.160	0.331	0.414	0.360	0.226	0.174	0.213	0.275	0.182	0.335	0.204	0.193	0.204	0.217	0.166	0.219	0.227	0.255	0.467	0.434	0.373	0.351	0.369	0.317	0.311	0.277	0.345	0.246	0.399	0.316	0.667	0.848	1.089	0.744	0.306	0.285	0.381	0.455	1.204	1.742	3.522	4.961	4.302	1.996	0.202	0.174	0.098	0.166	0.056	0.116
285.0	29.50	36.38	22.84	10.42	9.849	9.658	41.12	151.7	181.0	58.76	52.13	248.2	895.0	 1051	172.4	4.036	1.654	0.821	0.708	0.955	0.603	0.319	0.411	0.345	0.318	0.335	0.232	0.332	0.348	0.179	0.243	0.347	0.281	0.230	0.246	0.287	0.330	0.301	0.200	0.183	0.174	0.159	0.125	0.246	0.141	0.319	0.496	0.521	0.437	0.338	0.285	0.331	0.327	0.288	0.204	0.301	0.299	0.304	0.501	0.862	1.186	0.757	0.445	0.299	0.204	0.392	0.508	1.096	2.393	4.149	4.914	3.234	0.997	0.145	0.130	0.042	0.074
290.0	35.90	45.14	29.51	17.53	13.37	13.49	23.00	64.29	152.0	182.2	87.75	81.49	270.4	668.8	851.5	440.5	33.41	1.802	0.964	0.800	0.552	0.442	0.276	0.446	0.415	0.349	0.212	0.301	0.230	0.208	0.258	0.263	0.282	0.271	0.319	0.366	0.298	0.347	0.230	0.295	0.115	0.172	0.229	0.285	0.204	0.216	0.353	0.522	0.450	0.413	0.348	0.334	0.211	0.288	0.285	0.241	0.226	0.327	0.387	0.452	0.759	0.781	0.895	0.880	0.433	0.309	0.339	0.451	0.668	1.297	2.260	3.117	3.885	3.487	2.396	0.923	0.205
295.0	46.36	54.63	46.93	32.89	28.95	34.91	44.79	66.01	97.54	199.3	251.5	125.3	113.3	197.4	454.0	973.6	636.4	28.93	2.351	0.671	0.745	0.563	0.411	0.343	0.335	0.475	0.294	0.221	0.299	0.191	0.204	0.264	0.295	0.288	0.375	0.533	0.415	0.287	0.246	0.313	0.275	0.251	0.202	0.164	0.218	0.264	0.259	0.355	0.516	0.438	0.364	0.386	0.316	0.350	0.324	0.428	0.331	0.576	0.331	0.454	0.464	0.529	0.674	1.114	1.315	0.943	0.542	0.442	0.431	0.587	0.751	0.905	1.471	2.328	4.392	5.408	3.264
300.0	87.70	87.21	78.96	71.65	70.96	76.61	99.18	125.4	161.6	241.7	372.6	320.1	198.9	171.9	224.2	651.5	 1117	139.1	15.38	1.560	1.038	0.621	0.772	0.466	0.467	0.366	0.318	0.237	0.361	0.284	0.219	0.167	0.299	0.312	0.388	0.532	0.417	0.465	0.383	0.305	0.367	0.306	0.282	0.252	0.324	0.316	0.405	0.325	0.440	0.488	0.499	0.448	0.460	0.476	0.439	0.531	0.539	0.559	0.646	0.641	0.689	0.725	0.907	1.036	1.370	2.027	1.579	1.222	0.833	0.740	0.823	0.670	0.924	1.214	2.090	4.077	5.946
305.0	133.5	150.2	149.7	114.4	128.3	155.8	186.1	229.0	305.4	380.2	508.1	619.2	486.6	276.7	298.2	376.1	857.0	 1043	111.6	4.804	1.186	0.966	0.744	0.569	0.520	0.371	0.416	0.338	0.207	0.439	0.305	0.180	0.368	0.473	0.565	0.617	0.593	0.503	0.535	0.535	0.474	0.469	0.359	0.332	0.391	0.405	0.536	0.405	0.479	0.537	0.665	0.657	0.671	0.584	0.623	0.731	0.767	0.904	1.021	1.065	1.039	1.375	1.642	1.471	1.788	2.079	2.520	2.837	2.103	1.777	1.445	1.080	1.365	1.322	1.352	1.936	3.510
310.0	207.7	239.7	224.8	183.6	177.2	208.3	268.1	318.1	400.9	469.2	560.6	657.0	691.0	511.9	390.9	331.5	447.4	728.5	761.5	377.7	20.71	1.474	0.754	0.646	0.597	0.484	0.380	0.421	0.340	0.324	0.310	0.338	0.318	0.366	0.530	0.624	0.707	0.570	0.614	0.612	0.522	0.494	0.512	0.447	0.546	0.548	0.676	0.655	0.664	0.680	0.669	0.702	0.845	0.721	0.819	0.930	1.000	1.232	1.261	1.498	1.505	1.598	1.982	1.934	1.947	2.117	2.490	2.824	3.073	2.889	2.226	1.815	1.847	1.683	1.596	1.470	1.907
315.0	270.1	333.6	326.0	258.2	234.5	257.0	322.4	367.8	443.2	513.6	610.9	663.3	696.3	689.4	536.5	364.6	346.8	363.8	372.4	801.2	501.2	13.90	1.103	0.756	0.612	0.690	0.295	0.315	0.400	0.399	0.320	0.297	0.558	0.449	0.447	0.634	0.692	0.682	0.681	0.713	0.578	0.620	0.709	0.587	0.685	0.529	0.903	0.887	0.827	0.831	0.673	0.794	0.844	1.005	1.025	1.185	1.184	1.390	1.477	1.525	1.665	1.757	1.940	1.964	2.092	2.236	2.664	2.694	2.920	2.992	2.909	2.726	2.191	1.966	1.734	1.643	1.663
320.0	403.6	513.0	456.2	325.2	264.0	283.2	346.1	396.2	464.7	541.4	629.1	687.2	700.9	686.7	660.6	410.9	339.0	282.0	149.5	439.4	876.9	94.82	5.592	1.165	0.878	0.686	0.290	0.461	0.447	0.362	0.411	0.400	0.418	0.481	0.583	0.673	0.884	0.853	0.743	0.698	0.723	0.673	0.605	0.767	0.713	0.817	1.002	1.206	1.222	1.062	0.917	0.895	0.999	1.027	1.180	1.213	1.120	1.490	1.460	1.777	1.615	1.896	2.052	2.162	2.299	2.353	2.650	2.698	3.021	2.960	2.872	3.296	3.304	2.847	2.047	1.846	1.748
325.0	471.6	695.5	613.2	399.1	302.5	287.2	340.0	398.1	446.5	521.8	609.8	673.9	678.4	627.6	656.8	494.1	333.8	254.8	96.73	151.6	518.4	755.2	74.56	2.376	1.203	0.774	0.503	0.375	0.511	0.321	0.296	0.414	0.419	0.437	0.504	0.536	0.865	0.920	0.753	0.603	0.711	0.884	0.635	0.776	0.980	1.134	1.419	1.583	1.758	1.445	0.994	1.073	1.181	0.985	1.132	1.198	1.132	1.318	1.514	1.800	1.634	1.826	1.859	2.029	2.155	2.271	2.573	2.513	2.921	2.546	2.584	2.859	2.818	3.199	2.206	1.947	1.623
330.0	570.0	877.7	858.0	623.3	432.6	333.1	339.0	378.6	423.5	489.4	568.1	637.1	633.9	582.9	567.5	509.7	407.7	253.1	100.4	76.65	169.4	440.7	623.5	303.4	17.61	1.159	0.644	0.299	0.581	0.360	0.335	0.294	0.433	0.472	0.458	0.591	0.662	0.761	0.665	0.667	0.750	0.791	0.768	0.893	1.200	1.339	1.622	1.909	2.077	1.958	1.464	1.460	1.539	1.384	1.248	1.181	1.435	1.385	1.507	1.732	1.637	1.704	1.851	2.009	2.146	2.208	2.462	2.498	2.733	2.592	2.416	2.707	2.413	2.639	2.400	2.435	2.083
335.0	693.6	 1099	 1111	900.9	655.2	425.2	360.3	366.5	403.8	463.7	546.7	620.3	614.7	577.3	542.3	450.9	453.7	337.2	133.1	85.69	91.39	145.0	289.8	768.9	439.5	11.63	1.063	0.672	0.646	0.387	0.356	0.270	0.576	0.522	0.478	0.577	0.577	0.808	0.720	0.702	0.795	0.764	0.769	1.130	1.280	1.565	1.987	2.443	2.719	2.391	2.078	2.139	2.057	1.856	1.660	1.248	1.566	1.374	1.456	1.431	1.666	1.622	1.787	1.997	2.071	2.340	2.393	2.342	2.676	2.745	2.399	2.504	2.432	2.376	2.109	2.217	2.519
340.0	736.1	 1126	 1226	 1009	744.4	459.1	340.2	346.4	369.9	431.9	510.2	575.5	586.1	546.8	504.5	412.3	389.7	381.7	174.6	93.94	78.16	79.89	111.3	393.0	920.3	75.78	3.386	0.873	0.469	0.559	0.425	0.421	0.470	0.437	0.403	0.591	0.687	0.734	0.688	0.741	0.740	0.711	0.793	1.113	1.155	1.795	2.148	2.741	2.508	2.774	2.384	2.474	2.276	2.159	1.592	1.428	1.166	1.404	1.492	1.331	1.756	1.537	1.825	1.690	2.000	2.076	2.088	2.295	2.436	2.404	2.340	2.283	2.410	2.263	1.965	1.919	2.119
345.0	692.4	 1058	 1172	 1020	734.4	441.2	322.0	311.1	327.7	388.2	449.0	504.2	523.6	503.9	466.0	373.3	323.1	329.5	238.3	105.5	73.85	65.96	63.33	132.1	551.7	611.6	59.87	1.614	0.762	0.668	0.647	0.551	0.356	0.357	0.473	0.771	0.652	0.782	0.695	0.835	0.612	0.730	0.864	1.076	1.196	1.503	2.037	2.688	2.449	2.590	2.267	2.456	2.280	2.205	1.685	1.323	1.131	1.263	1.475	1.359	1.370	1.563	1.539	1.569	1.759	1.968	1.815	2.038	2.221	2.159	2.112	2.154	2.184	2.042	1.870	1.783	1.915
350.0	613.8	978.8	 1104	 1002	746.3	424.4	280.9	265.1	279.6	318.3	377.1	427.5	450.3	437.1	405.1	334.0	274.9	240.9	222.6	163.8	86.95	61.95	55.18	58.29	154.0	386.4	546.5	246.3	13.40	0.827	0.637	0.543	0.387	0.438	0.582	0.658	0.597	0.771	0.625	0.660	0.631	0.705	0.794	0.914	1.099	1.432	1.766	2.328	2.364	2.475	2.217	2.322	2.453	2.044	1.708	1.174	1.047	1.008	1.154	1.338	1.235	1.249	1.390	1.394	1.456	1.661	1.582	1.722	1.728	1.947	1.873	1.880	1.934	1.860	1.557	1.552	1.584
355.0	538.8	851.9	 1023	941.6	720.8	391.2	248.1	221.3	232.6	265.2	312.5	344.5	372.1	376.5	344.8	285.8	234.3	193.6	151.0	174.3	148.6	66.74	50.69	42.49	47.20	94.53	229.8	665.9	365.1	9.621	0.609	0.717	0.357	0.505	0.563	0.552	0.690	0.522	0.503	0.638	0.655	0.520	0.673	0.824	0.871	1.302	1.411	2.035	2.192	2.243	2.002	2.288	2.115	2.051	1.432	1.060	0.995	0.935	0.819	1.084	1.131	1.064	1.203	1.280	1.096	1.308	1.344	1.492	1.424	1.670	1.655	1.788	1.536	1.698	1.338	1.396	1.377
360.0	459.5	732.6	895.9	828.0	639.2	355.9	215.4	188.1	201.9	226.0	256.5	293.0	310.6	316.9	294.1	245.8	204.2	162.6	118.8	121.0	170.4	96.22	48.62	35.06	22.98	27.53	60.70	327.2	810.4	68.88	3.043	0.775	0.592	0.483	0.425	0.529	0.596	0.651	0.501	0.556	0.577	0.539	0.632	0.760	0.684	1.213	1.393	1.516	1.771	1.984	1.767	2.122	1.980	1.865	1.304	0.814	0.947	0.669	0.761	0.860	0.996	0.988	1.196	1.121	1.021	1.165	1.106	1.370	1.319	1.567	1.501	1.237	1.372	1.255	1.306	1.111	1.245
365.0	401.9	632.7	749.1	721.1	561.2	315.7	187.6	154.5	168.1	191.4	225.4	245.5	260.8	265.5	250.0	210.4	176.0	138.7	99.94	87.44	123.9	141.9	58.29	30.98	16.65	12.58	17.84	89.50	494.5	555.0	54.24	1.328	0.773	0.576	0.518	0.495	0.533	0.545	0.389	0.469	0.542	0.401	0.594	0.623	0.709	0.869	1.179	1.262	1.561	1.714	1.443	1.853	1.727	1.615	1.209	0.814	0.841	0.692	0.701	0.682	0.779	0.873	0.950	0.912	0.966	0.999	1.135	1.097	1.220	1.352	1.245	1.098	1.265	1.057	1.134	0.979	0.978
370.0	299.6	500.6	597.0	607.5	481.4	273.9	156.8	131.7	135.8	151.8	175.4	198.9	211.5	217.8	205.5	174.0	145.6	116.7	86.49	69.93	73.24	110.5	106.7	45.84	15.11	9.183	8.634	23.44	128.7	361.3	511.4	217.7	11.88	0.696	0.678	0.473	0.500	0.556	0.420	0.385	0.384	0.407	0.448	0.542	0.507	0.815	0.865	1.143	1.248	1.417	1.238	1.507	1.510	1.365	1.143	0.783	0.708	0.642	0.579	0.573	0.625	0.727	0.737	0.844	0.868	0.834	0.913	0.950	1.023	1.033	1.033	1.022	1.059	1.023	0.967	0.878	0.817
375.0	223.9	386.0	491.1	477.8	385.5	230.3	127.3	109.7	110.6	117.9	142.4	153.9	162.7	169.8	162.6	138.4	116.4	93.79	72.97	57.37	50.87	57.77	93.20	91.30	25.10	8.948	6.717	9.176	32.03	85.82	220.8	605.6	298.0	10.92	0.910	0.661	0.542	0.678	0.472	0.337	0.493	0.382	0.485	0.538	0.502	0.642	0.727	0.887	1.042	1.049	1.072	1.211	1.384	1.066	0.932	0.623	0.615	0.501	0.463	0.534	0.593	0.556	0.462	0.566	0.728	0.729	0.749	0.662	0.872	0.737	0.831	0.891	0.808	0.747	0.799	0.747	0.664
380.0	180.4	317.0	392.8	387.1	324.6	190.5	110.4	86.29	89.80	99.00	117.3	125.1	136.0	138.3	133.1	115.2	98.01	81.04	63.59	49.89	42.12	39.50	54.08	101.6	59.04	11.73	6.155	5.866	10.68	22.38	56.79	299.5	634.2	58.30	3.476	0.689	0.500	0.604	0.333	0.293	0.446	0.472	0.366	0.430	0.477	0.474	0.661	0.789	0.922	0.894	0.891	1.045	1.090	0.864	0.771	0.576	0.409	0.438	0.441	0.479	0.478	0.542	0.526	0.554	0.511	0.564	0.677	0.777	0.669	0.615	0.629	0.728	0.685	0.708	0.726	0.539	0.560
385.0	169.8	248.2	336.2	328.4	277.1	162.1	92.73	72.85	78.48	82.69	93.76	110.1	112.0	119.9	109.1	97.28	83.74	71.79	55.10	43.00	36.51	33.32	34.13	64.78	89.24	28.82	6.297	5.123	5.723	7.814	15.49	80.09	393.7	636.8	45.91	1.244	0.494	0.616	0.557	0.377	0.417	0.448	0.295	0.330	0.426	0.476	0.469	0.775	0.693	0.640	0.791	0.973	0.979	0.820	0.617	0.489	0.479	0.403	0.515	0.429	0.410	0.407	0.375	0.455	0.460	0.601	0.646	0.710	0.700	0.715	0.558	0.531	0.635	0.703	0.608	0.589	0.483
390.0	134.4	203.6	263.6	259.6	223.0	132.5	83.12	59.91	65.15	67.85	74.69	86.92	90.09	95.58	89.89	79.21	68.82	58.90	48.28	37.90	32.57	28.31	26.14	31.56	59.47	68.40	25.39	5.899	4.586	5.024	6.549	20.44	102.1	365.1	397.7	175.1	10.98	0.767	0.474	0.484	0.377	0.436	0.284	0.271	0.383	0.463	0.447	0.594	0.560	0.585	0.611	0.799	0.787	0.720	0.612	0.435	0.403	0.375	0.372	0.367	0.388	0.329	0.353	0.392	0.361	0.469	0.533	0.471	0.674	0.648	0.630	0.637	0.618	0.560	0.450	0.575	0.392
395.0	109.5	155.8	198.4	207.5	170.0	112.1	68.44	50.63	51.34	55.57	60.31	69.91	74.62	74.28	73.02	65.19	56.81	49.62	39.48	33.53	27.73	24.85	23.31	20.29	25.36	51.65	67.72	20.82	5.068	4.249	4.504	7.249	25.27	85.04	165.9	462.4	240.7	15.06	0.594	0.386	0.355	0.324	0.352	0.294	0.311	0.371	0.502	0.457	0.484	0.424	0.500	0.638	0.538	0.569	0.532	0.379	0.287	0.328	0.355	0.323	0.422	0.205	0.206	0.256	0.426	0.310	0.433	0.453	0.547	0.524	0.511	0.528	0.526	0.474	0.503	0.475	0.323
400.0	85.59	125.9	159.1	171.7	149.9	97.82	56.01	46.43	44.64	47.13	50.67	56.58	63.05	62.34	60.75	55.76	49.38	41.81	35.00	30.94	25.08	22.75	20.38	16.72	15.73	25.49	66.01	51.02	9.780	4.648	3.898	4.436	8.084	21.40	41.86	223.1	480.8	239.1	4.178	0.524	0.362	0.281	0.247	0.215	0.230	0.381	0.421	0.441	0.432	0.500	0.549	0.639	0.528	0.528	0.451	0.268	0.324	0.322	0.223	0.282	0.371	0.291	0.223	0.239	0.334	0.282	0.234	0.396	0.514	0.535	0.353	0.527	0.592	0.415	0.485	0.397	0.441
405.0	75.57	102.6	139.5	151.0	129.9	81.99	53.54	44.29	40.29	39.79	46.99	50.07	54.43	53.09	53.76	48.85	42.83	37.11	32.94	27.51	24.73	20.87	19.01	15.81	13.02	14.30	36.55	68.24	28.01	6.053	4.243	3.701	4.223	6.860	11.88	58.50	283.0	656.5	42.22	1.419	0.411	0.362	0.352	0.191	0.217	0.413	0.330	0.370	0.385	0.480	0.471	0.504	0.512	0.377	0.377	0.333	0.269	0.318	0.305	0.234	0.256	0.201	0.153	0.162	0.213	0.283	0.260	0.307	0.476	0.422	0.389	0.377	0.484	0.382	0.367	0.379	0.482
410.0	64.42	95.80	115.7	123.6	106.6	72.97	47.94	39.08	35.93	35.91	40.03	44.79	45.48	47.03	46.42	41.44	36.78	33.63	29.15	25.15	22.11	19.93	17.35	15.06	12.13	10.89	16.22	40.66	55.14	25.33	6.021	3.764	3.746	4.007	4.563	15.12	71.90	329.4	329.5	148.4	9.967	0.564	0.455	0.414	0.295	0.377	0.307	0.314	0.285	0.434	0.401	0.486	0.448	0.381	0.381	0.329	0.282	0.246	0.266	0.261	0.234	0.192	0.208	0.172	0.251	0.277	0.253	0.227	0.388	0.326	0.321	0.301	0.380	0.370	0.350	0.302	0.325
415.0	52.54	73.28	100.8	98.38	82.59	62.18	42.17	35.69	30.39	27.47	33.20	36.67	37.54	39.15	41.83	36.72	33.54	29.44	25.66	22.36	20.03	18.60	17.00	14.01	11.25	10.02	9.634	16.32	37.30	54.23	19.47	4.851	3.778	3.557	3.403	5.059	17.81	76.21	129.1	346.4	192.9	10.48	0.658	0.478	0.393	0.351	0.310	0.342	0.371	0.340	0.362	0.364	0.389	0.325	0.319	0.270	0.248	0.241	0.303	0.254	0.238	0.242	0.137	0.177	0.156	0.274	0.194	0.392	0.350	0.356	0.307	0.235	0.290	0.372	0.279	0.338	0.321
420.0	39.05	71.24	82.87	80.48	76.00	58.54	39.22	32.60	28.26	27.07	32.80	32.64	33.68	34.99	33.63	32.19	29.67	26.55	22.97	19.74	18.71	17.06	16.26	13.74	11.16	9.918	8.728	9.393	18.23	48.66	43.84	10.60	3.660	3.283	2.847	3.240	5.396	18.79	31.87	159.8	366.4	45.99	3.598	0.464	0.332	0.475	0.284	0.310	0.380	0.317	0.353	0.273	0.367	0.249	0.333	0.222	0.256	0.286	0.250	0.236	0.294	0.222	0.255	0.274	0.267	0.221	0.256	0.327	0.239	0.382	0.129	0.374	0.262	0.286	0.406	0.244	0.273
425.0	38.35	57.87	78.91	79.41	73.73	50.64	37.42	28.15	26.95	29.20	30.28	30.62	33.04	32.60	32.03	29.46	27.55	24.69	22.01	19.25	17.80	16.59	14.75	12.51	10.80	9.304	8.780	8.135	9.872	27.33	52.51	25.61	5.030	3.096	2.552	2.737	2.978	5.578	8.597	41.19	210.7	316.3	39.45	1.302	0.405	0.449	0.289	0.298	0.356	0.357	0.368	0.410	0.360	0.409	0.265	0.238	0.308	0.199	0.240	0.325	0.243	0.139	0.194	0.212	0.103	0.182	0.190	0.233	0.248	0.263	0.196	0.255	0.328	0.434	0.345	0.221	0.370
430.0	52.52	58.40	65.32	73.71	62.45	48.20	34.58	28.38	25.71	26.94	28.89	27.33	28.13	28.54	28.41	25.72	24.90	22.54	20.45	17.87	15.79	14.97	13.72	12.65	10.54	9.338	8.371	7.628	7.730	12.71	30.33	42.75	20.08	4.860	2.856	2.606	2.518	2.752	3.047	10.53	53.70	172.5	268.0	128.7	9.328	0.524	0.296	0.306	0.312	0.266	0.254	0.298	0.301	0.275	0.258	0.256	0.254	0.271	0.209	0.241	0.215	0.207	0.184	0.217	0.164	0.193	0.168	0.250	0.174	0.237	0.152	0.224	0.279	0.247	0.254	0.249	0.284
435.0	146.4	46.86	57.95	67.77	60.90	45.99	32.45	28.84	26.03	24.29	24.93	27.70	25.28	26.12	25.43	23.34	21.50	20.25	18.73	16.77	14.68	12.88	13.22	11.45	10.64	8.620	8.384	8.052	7.307	7.721	12.52	26.47	39.73	16.53	3.640	2.700	2.248	2.247	1.903	3.333	13.09	39.95	101.6	290.8	173.8	10.16	0.452	0.359	0.312	0.240	0.313	0.303	0.296	0.256	0.302	0.222	0.229	0.256	0.194	0.191	0.171	0.185	0.244	0.203	0.185	0.306	0.159	0.233	0.202	0.181	0.138	0.178	0.255	0.182	0.259	0.273	0.286
440.0	321.2	50.28	54.94	60.54	51.46	41.42	31.57	26.04	23.65	21.23	22.91	26.26	23.17	25.20	24.74	22.20	20.31	19.18	17.53	15.94	13.52	12.69	12.18	11.08	9.833	8.882	8.364	7.846	6.790	6.701	7.874	13.18	34.67	31.82	7.980	2.594	2.163	1.824	1.865	1.814	3.895	10.00	24.77	139.6	322.2	42.22	3.176	0.397	0.453	0.250	0.293	0.267	0.262	0.206	0.170	0.257	0.244	0.241	0.096	0.310	0.140	0.217	0.232	0.295	0.199	0.264	0.199	0.222	0.240	0.211	0.251	0.253	0.138	0.228	0.164	0.284	0.347
445.0	473.7	104.4	44.15	50.22	41.85	38.53	32.53	25.77	25.61	20.60	21.38	24.71	23.51	23.06	22.55	20.80	19.24	17.49	15.92	15.34	13.52	12.23	11.59	10.70	9.244	8.309	8.164	7.689	6.885	6.208	6.188	7.755	19.42	38.12	18.58	3.921	2.060	1.805	1.688	1.514	1.801	3.036	6.541	36.14	192.9	322.2	33.16	1.304	0.466	0.292	0.302	0.278	0.262	0.226	0.281	0.266	0.175	0.224	0.163	0.225	0.220	0.202	0.254	0.245	0.193	0.261	0.220	0.191	0.180	0.185	0.165	0.244	0.231	0.279	0.031	0.096	0.305
450.0	393.2	362.0	57.85	44.82	46.10	35.53	29.86	22.94	22.73	18.69	22.07	22.27	20.99	20.31	20.24	18.21	16.86	16.05	13.98	13.79	11.99	10.88	10.27	10.07	8.862	7.875	7.293	6.859	6.570	6.059	6.105	5.728	8.558	21.12	29.13	14.84	3.652	1.661	1.542	1.567	1.499	1.548	2.240	9.016	48.66	199.4	260.4	126.5	7.807	0.378	0.209	0.289	0.308	0.234	0.244	0.208	0.245	0.227	0.236	0.213	0.195	0.201	0.135	0.203	0.181	0.238	0.169	0.191	0.118	0.224	0.145	0.315	0.135	0.237	0.042	0.162	0.201
455.0	162.1	535.1	189.4	47.17	40.68	35.49	25.73	21.29	18.77	17.46	19.76	18.89	18.64	19.14	18.08	15.96	15.40	14.66	13.24	11.86	10.62	9.722	9.762	9.002	8.026	7.769	6.971	6.629	6.255	5.700	5.351	4.786	4.971	8.397	17.62	26.88	12.23	2.319	1.282	1.304	1.173	1.368	1.323	2.680	11.64	45.79	99.90	291.0	151.2	7.111	0.336	0.347	0.320	0.258	0.260	0.247	0.304	0.177	0.185	0.147	0.163	0.256	0.193	0.205	0.211	0.172	0.331	0.168	0.191	0.259	0.259	0.257	0.101	0.316	0.122	0.113	0.195
460.0	67.86	436.4	431.1	48.36	36.20	30.76	25.53	23.16	18.60	16.83	19.12	17.82	17.41	16.76	15.96	14.66	13.89	12.76	11.46	10.82	9.084	9.104	8.607	8.246	7.330	7.185	6.513	6.763	6.151	5.489	5.171	4.296	4.130	4.721	8.174	23.15	20.81	5.770	1.499	1.306	1.203	1.138	1.121	1.295	3.355	10.91	24.25	134.1	280.1	32.91	2.316	0.385	0.319	0.321	0.185	0.180	0.202	0.200	0.212	0.203	0.228	0.179	0.128	0.233	0.210	0.172	0.246	0.167	0.125	0.186	0.277	0.223	0.139	0.219	0.247	0.101	0.128
465.0	39.08	227.7	566.4	114.6	35.32	26.73	21.02	19.22	18.66	16.49	16.25	16.24	16.72	15.18	16.45	13.95	13.02	10.86	11.00	10.23	8.889	8.757	8.272	7.913	7.089	6.751	6.342	6.182	5.855	4.967	5.316	4.428	4.066	3.785	4.067	12.90	24.56	12.68	2.493	1.233	1.256	1.103	0.988	0.975	1.449	3.091	6.187	33.98	169.7	226.9	25.61	1.071	0.395	0.232	0.271	0.270	0.291	0.182	0.130	0.201	0.156	0.160	0.183	0.181	0.306	0.178	0.186	0.194	0.118	0.138	0.190	0.248	0.153	0.246	0.224	0.141	0.214
470.0	37.44	77.17	436.5	376.0	50.81	26.43	21.67	19.26	17.05	15.06	15.54	15.52	14.07	13.17	13.68	12.75	10.66	10.25	10.01	8.853	7.726	7.733	7.531	6.884	6.678	5.902	5.638	5.575	5.143	5.052	4.950	3.969	3.520	3.124	2.883	5.478	13.60	18.93	9.684	2.299	1.215	0.987	0.881	0.854	1.005	1.361	1.950	8.316	42.66	128.9	174.6	96.36	7.042	0.304	0.184	0.240	0.245	0.213	0.161	0.297	0.223	0.154	0.196	0.159	0.190	0.170	0.137	0.127	0.233	0.226	0.199	0.195	0.209	0.143	0.198	0.199	0.213
475.0	42.76	42.59	165.0	516.5	188.7	25.99	18.83	19.19	15.70	13.97	14.31	12.62	13.10	12.06	11.83	10.20	9.165	8.840	8.225	7.011	6.815	6.894	6.538	6.218	6.310	5.940	5.358	5.085	4.932	4.383	4.288	4.090	3.237	2.661	2.589	2.968	5.196	11.61	17.13	7.452	1.561	0.870	0.827	0.917	1.005	1.125	0.935	2.312	10.19	29.69	66.36	196.3	128.5	4.397	0.318	0.201	0.235	0.266	0.196	0.276	0.259	0.096	0.290	0.243	0.134	0.153	0.240	0.036	0.162	0.157	0.162	0.170	0.189	0.175	0.194	0.130	0.182
480.0	57.24	33.39	59.69	400.1	378.0	33.89	18.25	13.68	13.01	15.48	13.49	11.24	11.79	11.04	10.63	9.734	8.279	8.272	7.586	6.331	6.501	6.237	5.544	5.455	5.227	5.016	4.799	4.881	4.847	4.289	4.148	3.734	3.110	2.661	2.605	2.231	2.708	5.659	14.93	13.36	3.849	0.981	0.607	0.767	0.857	0.995	0.737	1.047	2.795	7.143	16.26	89.04	258.0	33.52	1.681	0.233	0.242	0.236	0.216	0.260	0.161	0.070	0.146	0.171	0.168	0.216	0.215	0.165	0.190	0.074	0.025	0.291	0.162	0.146	0.268	0.102	0.146
485.0	60.17	46.29	32.91	199.9	506.8	105.0	18.54	15.07	13.09	11.05	11.31	10.39	10.66	10.01	10.29	9.793	8.362	7.701	6.630	6.560	5.724	5.466	5.624	5.164	5.240	5.248	4.731	4.735	4.507	4.363	3.995	3.354	3.048	2.610	2.427	1.942	1.926	2.714	8.467	15.00	8.418	2.072	0.631	0.792	0.751	0.888	0.715	0.744	1.064	2.162	4.216	22.76	153.7	176.6	26.57	0.729	0.309	0.190	0.194	0.297	0.167	0.173	0.144	0.118	0.135	0.267	0.155	0.198	0.229	0.137	0.112	0.152	0.192	0.152	0.180	0.073	0.188
490.0	39.99	55.50	25.73	70.77	362.7	330.8	29.88	14.08	12.08	11.87	10.15	9.432	10.35	8.966	8.721	8.456	7.905	7.111	6.120	5.647	5.408	5.164	4.816	4.876	4.612	4.462	4.092	4.207	4.133	3.851	3.549	3.183	2.747	2.457	2.057	1.822	1.663	1.787	3.472	9.007	12.72	6.805	1.630	0.744	0.627	0.745	0.656	0.706	0.691	0.832	1.349	5.656	38.14	99.03	150.2	70.05	4.400	0.305	0.301	0.345	0.123	0.186	0.186	0.134	0.220	0.169	0.152	0.135	0.217	0.140	0.196	0.176	0.105	0.178	0.198	0.198	0.155
495.0	20.22	67.71	38.54	33.46	128.3	435.0	158.8	13.52	12.67	11.73	10.66	8.739	9.109	8.988	8.803	6.612	6.635	6.105	5.745	5.159	4.456	4.727	4.114	4.121	3.950	4.017	3.656	3.581	3.868	3.411	3.119	3.109	2.360	2.003	1.952	1.869	1.534	1.447	1.584	3.378	8.713	11.59	5.325	1.144	0.566	0.647	0.637	0.796	0.671	0.596	0.675	1.687	8.949	22.94	64.75	170.3	38.01	3.244	0.392	0.457	0.109	0.227	0.151	0.113	0.110	0.136	0.095	0.050	0.191	0.144	0.150	0.186	0.079	0.117	0.076	0.128	0.185
500.0	11.25	52.11	54.90	24.59	40.62	307.2	342.1	24.36	9.902	10.92	9.752	7.792	8.453	8.766	6.581	5.909	5.335	5.156	4.912	4.329	4.391	4.138	3.869	3.793	3.741	3.359	3.389	3.510	3.289	3.155	3.030	2.888	2.296	2.012	1.978	1.704	1.315	1.306	1.313	1.742	4.076	9.952	9.651	2.858	0.745	0.651	0.484	0.630	0.684	0.568	0.520	0.747	2.334	5.582	15.98	85.13	168.6	33.58	4.537	0.483	0.206	0.195	0.136	0.123	0.081	0.198	0.130	0.081	0.144	0.099	0.233	0.141	0.067	0.090	0.113	0.169	0.137
505.0	14.15	32.81	65.89	27.34	25.15	144.9	426.2	96.24	10.88	10.13	8.180	7.379	6.747	6.673	6.241	4.741	5.061	4.657	4.385	3.736	3.819	3.411	3.762	3.354	3.417	3.421	3.030	3.156	2.809	2.898	2.535	2.389	1.998	2.045	1.555	1.491	1.466	1.413	1.112	1.138	1.844	6.239	10.66	5.962	1.259	0.540	0.526	0.560	0.688	0.601	0.503	0.543	0.929	1.640	4.226	21.86	113.7	158.7	37.71	0.985	0.198	0.133	0.178	0.168	0.107	0.132	0.135	0.232	0.069	0.284	0.161	0.119	0.125	0.199	0.099	0.144	0.069
510.0	13.77	23.04	46.83	43.71	17.40	48.42	280.2	290.5	33.63	9.567	8.059	6.782	6.802	5.918	5.510	4.824	4.581	4.239	3.893	3.248	3.275	3.111	3.149	3.083	2.771	2.865	2.802	2.571	2.552	2.510	2.521	2.172	2.041	1.858	1.523	1.341	1.234	1.150	1.003	0.976	1.165	2.510	6.274	8.541	4.472	1.345	0.526	0.464	0.467	0.582	0.649	0.616	0.521	0.652	1.331	5.289	29.03	91.82	237.7	149.8	3.359	0.156	0.165	0.144	0.154	0.153	0.127	0.199	0.124	0.129	0.182	0.120	0.182	0.173	0.117	0.162	0.171
515.0	15.65	17.78	31.34	56.40	21.83	19.45	91.10	352.6	176.3	8.068	7.227	4.523	5.242	4.872	5.046	3.898	3.716	3.389	3.424	3.247	2.691	2.697	2.648	2.629	2.752	2.348	2.611	2.433	2.236	2.512	2.142	1.924	1.753	1.521	1.430	1.190	1.082	1.023	0.808	0.794	0.824	1.173	2.360	5.855	7.650	3.349	0.919	0.527	0.478	0.482	0.398	0.538	0.507	0.346	0.506	1.438	6.893	21.05	79.42	584.2	37.08	2.383	0.188	0.239	0.245	0.206	0.160	0.180	0.115	0.094	0.138	0.138	0.179	0.179	0.031	0.075	0.147
520.0	16.12	14.11	18.44	52.51	32.47	12.63	29.45	235.1	355.0	20.55	7.123	4.923	4.206	4.299	4.286	3.878	3.363	2.846	2.772	2.797	2.801	2.466	2.523	2.202	2.507	2.125	2.313	2.302	2.151	2.288	2.090	1.927	1.588	1.513	1.213	0.908	1.107	0.909	0.885	0.709	0.829	0.905	1.241	2.978	7.254	5.822	1.806	0.549	0.399	0.499	0.372	0.543	0.557	0.460	0.410	0.599	1.883	4.969	18.88	313.4	131.7	29.67	0.671	0.264	0.188	0.309	0.257	0.254	0.104	0.079	0.208	0.033	0.126	0.076	0.104	0.166	0.167
525.0	21.29	10.10	13.66	34.11	48.99	13.64	13.29	99.43	422.3	100.4	5.633	4.670	4.385	3.845	3.943	3.313	2.884	3.175	2.438	2.402	2.288	2.129	2.175	2.167	2.101	1.913	2.114	1.904	1.766	2.166	1.636	1.745	1.626	1.300	1.308	1.048	0.897	0.929	0.829	0.678	0.663	0.618	0.805	1.280	4.278	6.809	3.698	1.094	0.483	0.481	0.407	0.447	0.484	0.502	0.380	0.369	0.675	1.431	4.586	78.47	89.21	114.3	18.96	0.387	0.254	0.105	0.123	0.172	0.130	0.028	0.177	0.070	0.050	0.128	0.077	0.153	0.135
530.0	16.60	10.97	7.082	19.44	45.17	26.26	10.07	30.10	246.0	266.2	31.87	4.038	4.267	3.935	3.848	3.495	2.914	2.505	2.591	2.122	1.993	1.801	2.107	1.860	1.836	2.015	1.932	1.827	1.760	1.785	1.644	1.488	1.349	1.159	0.969	0.896	0.867	0.822	0.721	0.635	0.632	0.610	0.731	0.734	1.631	4.497	5.473	3.059	0.839	0.381	0.400	0.388	0.440	0.498	0.438	0.412	0.373	0.583	1.309	17.96	22.94	69.38	91.52	24.06	2.255	0.214	0.114	0.116	0.103	0.092	0.158	0.127	0.070	0.064	0.067	0.078	0.178
535.0	15.62	13.58	6.472	11.71	28.69	41.58	11.50	13.32	71.53	275.6	159.3	5.308	3.550	2.950	2.737	3.181	2.958	2.306	2.255	1.891	2.166	1.644	1.771	1.744	1.637	1.524	1.656	1.675	1.548	1.677	1.499	1.154	1.292	1.181	0.963	0.694	0.851	0.768	0.494	0.495	0.570	0.597	0.490	0.589	0.715	1.807	4.260	4.964	2.209	0.635	0.329	0.301	0.333	0.350	0.530	0.462	0.369	0.393	0.554	4.374	5.372	15.96	39.63	102.2	34.36	2.444	0.178	0.198	0.151	0.163	0.159	0.192	0.114	0.007	0.103	0.161	0.143
540.0	14.05	9.082	6.949	8.111	18.71	42.90	17.04	7.869	22.29	162.1	268.8	25.25	3.131	2.654	2.259	3.183	2.336	2.005	1.872	1.489	1.829	1.421	1.675	1.525	1.464	1.404	1.399	1.451	1.607	1.406	1.091	1.078	1.214	0.973	0.701	0.518	0.644	0.618	0.497	0.448	0.446	0.501	0.516	0.461	0.451	0.833	2.266	4.660	3.807	1.288	0.303	0.286	0.335	0.345	0.434	0.449	0.446	0.295	0.248	1.287	1.409	3.809	9.723	55.62	101.5	34.31	0.685	0.222	0.146	0.089	0.126	0.096	0.038	0.077	0.147	0.171	0.111
545.0	5.182	6.931	9.893	10.20	9.796	33.17	29.48	8.026	10.24	66.13	279.8	103.2	3.778	3.133	2.402	2.096	1.768	1.889	1.813	1.655	1.438	1.524	1.736	1.459	1.239	1.120	1.125	1.536	1.546	1.405	1.028	1.118	0.992	1.044	0.705	0.692	0.760	0.644	0.574	0.484	0.366	0.624	0.441	0.489	0.372	0.529	1.019	3.302	4.557	2.404	0.655	0.254	0.236	0.323	0.317	0.373	0.520	0.316	0.256	0.587	0.537	1.069	2.394	14.75	68.98	238.2	14.95	0.345	0.096	0.123	0.184	0.052	0.040	0.120	0.068	0.098	0.166
550.0	10.23	5.714	8.702	9.797	6.832	17.96	34.85	14.80	6.742	20.02	140.4	219.6	29.73	2.336	2.226	1.685	2.055	1.468	1.641	1.385	1.167	1.476	1.614	1.210	0.962	0.965	1.095	1.291	1.084	1.217	0.946	1.081	0.848	0.814	0.673	0.722	0.738	0.486	0.499	0.425	0.371	0.497	0.398	0.355	0.412	0.415	0.612	1.372	3.132	3.592	1.878	0.525	0.300	0.274	0.356	0.314	0.323	0.465	0.315	0.455	0.305	0.398	0.742	3.482	17.81	142.8	55.11	22.33	1.782	0.169	0.118	0.067	0.091	0.101	0.071	0.119	0.186
555.0	9.243	7.878	10.49	8.518	6.109	9.580	26.15	25.75	7.482	8.556	40.02	185.7	135.1	2.951	2.138	1.958	1.868	1.412	1.389	1.216	1.259	1.423	1.125	1.055	0.925	1.328	0.988	1.078	1.066	1.013	0.654	0.938	0.903	0.589	0.799	0.773	0.499	0.541	0.479	0.450	0.315	0.545	0.410	0.329	0.342	0.357	0.455	0.661	1.317	2.922	2.996	1.288	0.363	0.212	0.233	0.243	0.396	0.301	0.443	0.450	0.217	0.277	0.370	0.988	4.134	32.30	26.40	71.57	30.18	1.392	0.159	0.152	0.227	0.158	0.058	0.147	0.132
560.0	8.741	5.696	7.969	3.720	2.225	5.156	15.02	29.71	9.887	5.897	10.71	96.79	193.1	23.06	2.560	2.085	1.619	1.206	0.951	0.903	0.745	1.046	0.851	1.033	0.712	0.997	0.797	0.846	0.810	1.033	0.720	0.877	0.837	0.639	0.535	0.651	0.472	0.658	0.436	0.325	0.368	0.354	0.425	0.345	0.354	0.335	0.354	0.473	0.690	1.706	3.129	2.209	0.628	0.197	0.172	0.314	0.309	0.270	0.442	0.507	0.190	0.197	0.236	0.439	1.055	7.414	6.398	36.53	69.57	20.28	0.573	0.093	0.270	0.185	0.117	0.153	0.131
565.0	15.34	6.934	7.192	2.151	5.989	6.103	8.423	27.27	17.87	3.784	5.926	33.81	171.9	87.85	1.741	1.315	1.397	1.065	1.364	1.018	0.839	0.790	0.846	0.957	0.877	0.755	0.633	0.682	0.749	0.881	0.648	0.770	0.619	0.599	0.640	0.557	0.416	0.534	0.503	0.431	0.294	0.371	0.423	0.392	0.420	0.327	0.278	0.420	0.393	0.762	1.981	2.559	1.240	0.428	0.170	0.268	0.270	0.206	0.308	0.372	0.328	0.197	0.202	0.273	0.441	1.796	1.572	9.497	44.95	57.66	10.78	0.306	0.188	0.146	0.064	0.083	0.212
570.0	9.501	12.03	6.981	5.260	3.732	4.953	4.823	15.71	23.76	7.603	5.533	10.51	82.43	143.7	29.27	1.810	1.073	0.891	0.952	1.136	0.774	0.629	0.954	0.803	0.685	0.695	0.681	0.582	0.589	0.751	0.654	0.545	0.522	0.431	0.591	0.447	0.349	0.420	0.340	0.366	0.204	0.308	0.274	0.247	0.329	0.236	0.231	0.311	0.280	0.396	0.851	1.823	1.851	0.927	0.278	0.261	0.265	0.227	0.241	0.299	0.304	0.325	0.224	0.224	0.264	0.583	0.540	2.291	11.64	33.35	40.77	17.79	1.268	0.111	0.152	0.073	0.106
575.0	9.996	13.63	9.602	4.527	1.696	2.217	1.974	9.034	21.37	16.80	4.906	5.263	22.66	100.9	110.9	3.137	1.180	0.995	0.943	0.975	0.765	0.668	0.819	0.514	0.509	0.712	0.518	0.348	0.397	0.482	0.601	0.482	0.420	0.428	0.518	0.343	0.360	0.294	0.434	0.327	0.318	0.215	0.160	0.231	0.229	0.287	0.202	0.188	0.222	0.214	0.354	0.785	1.615	1.456	0.604	0.357	0.292	0.177	0.212	0.323	0.258	0.366	0.334	0.247	0.118	0.316	0.221	0.745	2.715	7.566	17.62	41.88	20.31	0.985	0.143	0.161	0.128
580.0	10.11	9.786	4.478	5.700	2.857	4.669	3.801	5.432	16.09	20.59	6.579	4.335	7.581	50.15	145.4	23.31	1.211	0.904	0.619	0.776	0.699	0.765	0.799	0.552	0.821	0.526	0.497	0.414	0.397	0.432	0.625	0.465	0.256	0.341	0.521	0.297	0.194	0.261	0.302	0.307	0.289	0.233	0.168	0.136	0.204	0.201	0.203	0.207	0.127	0.219	0.240	0.355	1.007	1.532	0.905	0.420	0.185	0.185	0.282	0.231	0.137	0.297	0.231	0.281	0.151	0.155	0.244	0.275	0.825	1.888	4.367	21.50	39.55	12.72	0.362	0.120	0.040
585.0	9.455	8.268	7.975	4.930	2.920	4.782	4.109	4.077	10.46	24.57	11.74	4.618	4.547	17.79	118.7	73.95	1.305	1.111	0.517	0.674	0.657	0.502	0.457	0.502	0.489	0.409	0.563	0.335	0.474	0.463	0.475	0.473	0.218	0.249	0.483	0.367	0.243	0.339	0.258	0.322	0.354	0.201	0.091	0.215	0.114	0.247	0.136	0.212	0.148	0.148	0.138	0.242	0.552	1.260	1.203	0.646	0.223	0.152	0.244	0.142	0.145	0.193	0.217	0.281	0.224	0.318	0.234	0.235	0.399	0.506	1.023	5.624	24.97	35.24	7.453	0.237	0.198
590.0	14.00	10.84	7.340	7.517	2.590	4.127	5.300	5.650	6.938	19.12	19.32	5.945	4.715	6.867	54.82	103.7	24.50	1.172	0.654	0.682	0.598	0.533	0.550	0.388	0.415	0.438	0.333	0.512	0.386	0.385	0.409	0.525	0.274	0.239	0.300	0.312	0.213	0.384	0.216	0.248	0.252	0.211	0.186	0.149	0.194	0.193	0.182	0.176	0.149	0.182	0.174	0.200	0.373	0.497	1.112	0.922	0.447	0.215	0.210	0.168	0.200	0.229	0.203	0.292	0.241	0.206	0.203	0.191	0.250	0.181	0.390	1.437	6.453	18.78	26.49	12.43	0.894
595.0	8.923	12.37	6.456	6.488	3.495	6.510	4.380	6.640	6.524	14.32	23.08	13.89	5.989	5.172	16.36	68.97	76.73	2.783	0.826	0.533	0.434	0.590	0.343	0.298	0.336	0.455	0.448	0.660	0.259	0.226	0.429	0.496	0.363	0.301	0.312	0.350	0.248	0.257	0.270	0.253	0.156	0.174	0.268	0.119	0.199	0.221	0.151	0.192	0.137	0.169	0.126	0.117	0.273	0.331	0.673	0.915	0.807	0.342	0.244	0.198	0.209	0.202	0.185	0.121	0.242	0.271	0.180	0.154	0.128	0.119	0.238	0.439	1.555	4.381	10.48	26.83	15.39
600.0	15.85	7.421	8.957	8.344	7.217	7.091	7.096	9.669	9.642	13.33	24.11	20.75	10.45	8.071	9.696	34.00	91.97	21.89	1.082	0.490	0.240	0.418	0.353	0.354	0.227	0.395	0.429	0.716	0.306	0.361	0.338	0.268	0.301	0.246	0.345	0.261	0.249	0.219	0.232	0.180	0.271	0.104	0.164	0.124	0.137	0.127	0.188	0.269	0.196	0.132	0.157	0.148	0.257	0.166	0.405	0.691	0.894	0.663	0.258	0.154	0.213	0.148	0.175	0.178	0.250	0.350	0.211	0.089	0.238	0.210	0.210	0.092	0.443	1.102	2.547	12.71	27.96
605.0	13.62	16.32	5.930	7.994	7.923	9.965	9.209	10.95	14.92	16.93	27.44	30.85	17.56	13.35	12.25	17.66	71.89	61.17	1.787	0.547	0.415	0.363	0.241	0.358	0.135	0.274	0.414	1.147	0.461	0.321	0.311	0.352	0.261	0.225	0.182	0.220	0.243	0.317	0.267	0.324	0.252	0.180	0.153	0.153	0.133	0.176	0.186	0.221	0.258	0.100	0.132	0.102	0.212	0.161	0.274	0.430	0.788	0.761	0.341	0.120	0.215	0.111	0.193	0.243	0.177	0.279	0.271	0.209	0.190	0.197	0.222	0.134	0.130	0.428	0.633	3.304	16.44
610.0	17.97	15.54	11.42	10.02	9.375	13.07	14.77	16.01	21.31	22.78	29.00	38.09	30.86	20.63	17.58	15.78	39.25	78.98	21.06	0.730	0.613	0.344	0.383	0.356	0.303	0.288	0.362	1.487	0.401	0.160	0.339	0.229	0.241	0.213	0.240	0.241	0.245	0.251	0.322	0.238	0.164	0.168	0.172	0.182	0.202	0.181	0.143	0.277	0.148	0.148	0.171	0.186	0.180	0.157	0.223	0.313	0.538	0.744	0.521	0.254	0.206	0.219	0.242	0.297	0.208	0.285	0.295	0.248	0.193	0.180	0.168	0.202	0.227	0.285	0.299	0.857	4.281
615.0	22.91	12.49	12.44	10.93	8.140	11.66	15.32	18.96	21.90	26.45	28.60	33.89	37.47	25.09	17.84	13.59	19.26	49.35	60.52	2.449	0.512	0.453	0.495	0.254	0.250	0.332	0.187	0.906	0.244	0.492	0.275	0.340	0.204	0.335	0.199	0.270	0.252	0.313	0.329	0.125	0.187	0.155	0.187	0.127	0.187	0.226	0.083	0.104	0.236	0.122	0.210	0.142	0.165	0.157	0.189	0.237	0.297	0.415	0.729	0.396	0.281	0.207	0.252	0.199	0.180	0.233	0.364	0.261	0.350	0.228	0.149	0.135	0.128	0.231	0.161	0.425	1.074
620.0	29.71	14.83	12.42	11.21	11.67	11.06	16.06	18.22	21.06	23.23	26.67	33.19	37.35	25.63	18.54	14.52	14.59	27.41	64.84	20.13	0.302	0.344	0.288	0.221	0.315	0.481	0.204	0.384	0.259	0.225	0.252	0.322	0.199	0.334	0.312	0.249	0.300	0.188	0.232	0.168	0.146	0.081	0.159	0.176	0.090	0.200	0.100	0.076	0.111	0.119	0.136	0.114	0.156	0.160	0.178	0.176	0.236	0.259	0.487	0.534	0.369	0.216	0.151	0.173	0.198	0.194	0.234	0.160	0.382	0.265	0.195	0.130	0.084	0.119	0.191	0.310	0.288
625.0	20.58	18.09	11.12	13.43	7.881	10.92	15.95	17.00	19.28	25.19	25.66	29.03	34.34	28.35	18.42	14.02	14.33	15.23	45.32	57.01	0.539	0.274	0.296	0.433	0.289	0.393	0.221	0.316	0.299	0.196	0.210	0.349	0.246	0.253	0.410	0.187	0.188	0.301	0.251	0.182	0.092	0.099	0.128	0.198	0.192	0.127	0.140	0.186	0.213	0.177	0.117	0.126	0.134	0.127	0.133	0.145	0.183	0.108	0.357	0.523	0.302	0.210	0.187	0.204	0.144	0.195	0.152	0.218	0.301	0.235	0.281	0.250	0.148	0.170	0.260	0.138	0.200
630.0	15.12	16.82	16.01	12.58	10.66	12.13	15.46	16.55	19.93	21.58	25.04	28.57	32.35	31.38	20.76	15.16	13.09	11.68	19.10	71.93	15.83	0.257	0.288	0.370	0.248	0.238	0.176	0.169	0.260	0.208	0.190	0.350	0.170	0.173	0.255	0.157	0.149	0.205	0.183	0.198	0.193	0.135	0.210	0.126	0.210	0.195	0.141	0.165	0.165	0.131	0.117	0.164	0.177	0.115	0.121	0.158	0.161	0.158	0.273	0.387	0.421	0.332	0.292	0.201	0.159	0.234	0.151	0.181	0.203	0.158	0.337	0.182	0.142	0.216	0.198	0.113	0.112
635.0	17.70	22.50	18.85	13.93	12.65	12.44	12.89	16.69	20.68	21.68	26.66	27.68	27.78	29.16	25.57	15.33	14.17	10.54	6.990	40.92	45.68	1.684	0.153	0.287	0.225	0.153	0.166	0.235	0.273	0.291	0.268	0.388	0.122	0.182	0.202	0.155	0.153	0.087	0.281	0.137	0.119	0.133	0.199	0.134	0.110	0.277	0.235	0.156	0.188	0.135	0.119	0.231	0.143	0.090	0.100	0.142	0.150	0.165	0.326	0.205	0.251	0.237	0.351	0.233	0.172	0.332	0.170	0.107	0.269	0.208	0.207	0.203	0.224	0.258	0.148	0.117	0.182
640.0	20.58	24.65	20.13	18.30	11.25	13.76	13.13	17.46	20.74	21.63	26.23	26.09	26.66	27.30	26.61	15.77	13.31	10.24	4.168	17.95	48.43	13.66	0.299	0.305	0.319	0.072	0.156	0.219	0.144	0.263	0.270	0.307	0.233	0.160	0.203	0.088	0.093	0.173	0.147	0.117	0.123	0.163	0.186	0.130	0.158	0.241	0.180	0.268	0.182	0.182	0.275	0.185	0.255	0.098	0.173	0.128	0.187	0.089	0.244	0.131	0.223	0.356	0.209	0.343	0.158	0.194	0.169	0.187	0.224	0.228	0.128	0.175	0.287	0.314	0.192	0.275	0.151
645.0	25.54	29.03	26.07	15.06	14.50	11.75	12.77	16.40	18.85	19.21	23.05	24.11	24.75	25.86	26.70	17.16	11.98	8.866	3.213	6.199	30.30	36.11	0.706	0.391	0.188	0.219	0.166	0.282	0.308	0.120	0.354	0.274	0.159	0.231	0.197	0.114	0.109	0.171	0.197	0.112	0.235	0.115	0.198	0.197	0.255	0.138	0.164	0.184	0.176	0.066	0.238	0.108	0.210	0.107	0.183	0.170	0.206	0.095	0.240	0.145	0.143	0.266	0.365	0.316	0.160	0.191	0.191	0.193	0.281	0.297	0.175	0.163	0.237	0.219	0.214	0.124	0.123
650.0	28.94	27.30	25.74	15.00	14.35	13.06	11.98	13.83	16.66	18.16	22.70	23.17	22.76	21.83	22.81	18.71	11.82	8.936	3.314	2.696	14.57	46.32	5.659	0.248	0.412	0.204	0.178	0.270	0.262	0.083	0.260	0.311	0.199	0.253	0.163	0.200	0.257	0.158	0.086	0.096	0.160	0.062	0.157	0.115	0.162	0.266	0.257	0.196	0.245	0.188	0.201	0.141	0.122	0.148	0.168	0.193	0.176	0.164	0.194	0.138	0.141	0.138	0.241	0.238	0.275	0.194	0.231	0.222	0.224	0.210	0.145	0.228	0.200	0.269	0.221	0.147	0.088
