Sample:	'1
File name:	T2025041718¸£Ã÷½¹»¯Î÷.FD3
Run date:	'16:13:22, 04/21/2025
Operator:	Administrator
Comment:	'

Instrument
Model:	F-2700 FL Spectrophotometer
Serial number:	23B8-004
ROM Version:	4J14000 07

Instrument parameters
Measurement type:	3-D scan
Data mode:	Fluorescence
EX  Start WL:	220.0 nm
EX  End WL:	600.0 nm
EX Sampling interval:	5.0 nm
EM  Start WL:	230.0 nm
EM  End WL:	650.0 nm
EM Sampling interval:	5.0 nm
Scan speed:	12000 nm/min
EX Slit:	5.0 nm
EM Slit:	5.0 nm
PMT Voltage:	700 V
Response:	Auto 
Corrected spectra:	Off
Contour interval:	50.000

Peak integration
Integration method:	Rectangular
Sensitivity:	1
Threshold:	1.000

Peaks
No.	ApexEX/EM(nm)	Height(Data)
1	225.0/340.0	2245
2	225.0/575.0	148.7
3	245.0/535.0	210.9
4	250.0/545.0	168.2
5	255.0/280.0	589.3
6	255.0/560.0	140.5
7	260.0/285.0	623.8
8	260.0/575.0	117.6
9	265.0/585.0	116.6
10	270.0/300.0	1217
11	270.0/410.0	764.4
12	270.0/600.0	109.4
13	275.0/305.0	1552
14	275.0/325.0	1468
15	275.0/610.0	112.8
16	280.0/310.0	1541
17	280.0/625.0	100.4
18	285.0/635.0	75.22
19	320.0/365.0	440.7
20	455.0/335.0	6.742
21	520.0/285.0	4.256
22	545.0/300.0	6.896
23	555.0/305.0	8.302
24	560.0/310.0	8.245
25	575.0/315.0	8.214

Data points
	220.0	225.0	230.0	235.0	240.0	245.0	250.0	255.0	260.0	265.0	270.0	275.0	280.0	285.0	290.0	295.0	300.0	305.0	310.0	315.0	320.0	325.0	330.0	335.0	340.0	345.0	350.0	355.0	360.0	365.0	370.0	375.0	380.0	385.0	390.0	395.0	400.0	405.0	410.0	415.0	420.0	425.0	430.0	435.0	440.0	445.0	450.0	455.0	460.0	465.0	470.0	475.0	480.0	485.0	490.0	495.0	500.0	505.0	510.0	515.0	520.0	525.0	530.0	535.0	540.0	545.0	550.0	555.0	560.0	565.0	570.0	575.0	580.0	585.0	590.0	595.0	600.0
230.0	116.8	3354	9835	3733	152.3	15.17	12.56	10.24	9.558	8.160	8.452	7.689	6.883	5.928	5.236	4.300	3.851	3.772	3.265	3.067	2.661	2.546	2.346	2.173	2.067	1.960	1.808	1.562	1.527	1.535	1.499	1.330	1.293	1.272	1.150	1.005	0.872	0.891	0.831	0.795	0.829	1.047	1.010	0.818	0.682	0.725	3.204	17.40	34.03	26.52	10.73	2.192	0.663	0.521	0.460	0.426	0.463	0.463	0.461	0.416	0.420	0.427	0.399	0.394	0.419	0.406	0.392	0.416	0.407	0.374	0.400	0.423	0.380	0.381	0.348	0.379	0.415
235.0	205.6	884.2	5253	9821	3746	248.8	18.78	12.80	10.99	10.07	8.950	8.748	6.959	6.549	5.311	4.570	4.125	3.703	3.354	3.016	2.676	2.424	2.489	2.251	2.218	2.114	1.935	1.695	1.694	1.585	1.361	1.493	1.508	1.271	1.115	1.061	0.948	0.778	0.795	0.766	0.743	0.945	0.997	1.022	0.957	0.765	1.348	4.598	11.58	20.32	31.60	25.24	17.58	4.734	0.684	0.526	0.457	0.455	0.457	0.425	0.409	0.457	0.398	0.408	0.406	0.391	0.403	0.422	0.362	0.402	0.412	0.489	0.402	0.381	0.338	0.356	0.398
240.0	253.7	335.7	1464	7166	9999.9	2971	156.8	16.70	14.21	11.81	9.862	9.674	8.240	7.198	5.970	4.930	4.311	3.819	3.380	3.078	3.009	2.592	2.514	2.264	2.139	2.105	1.929	1.953	1.806	1.635	1.459	1.499	1.351	1.280	1.202	1.150	1.007	0.894	0.810	0.962	0.801	0.792	0.821	0.967	1.130	1.092	1.080	1.613	3.076	5.591	14.27	35.77	54.78	26.06	15.40	2.871	0.686	0.464	0.511	0.501	0.461	0.432	0.480	0.394	0.427	0.423	0.426	0.406	0.367	0.452	0.418	0.433	0.400	0.400	0.388	0.383	0.474
245.0	178.5	302.4	430.7	2206	9929	9999.9	2274	72.82	20.27	14.01	12.80	10.95	9.134	7.978	6.205	5.225	4.832	4.206	3.568	3.389	3.117	2.465	2.433	2.448	2.330	2.260	1.983	1.991	1.723	1.695	1.638	1.396	1.292	1.227	1.224	1.105	1.031	0.932	1.038	0.908	0.932	0.822	0.836	0.754	0.915	1.030	1.277	1.370	1.182	1.664	3.621	10.52	30.82	53.82	67.31	24.78	12.03	1.740	0.626	0.528	0.534	0.487	0.447	0.435	0.498	0.432	0.473	0.457	0.424	0.438	0.425	0.460	0.396	0.394	0.384	0.394	0.436
250.0	92.41	191.5	313.2	624.3	2925	9318	9999.9	6226	155.9	24.74	17.18	13.43	11.00	9.452	7.120	5.877	5.601	4.572	4.321	3.524	3.279	2.961	2.676	2.501	2.698	2.339	2.189	1.964	1.741	1.805	1.608	1.477	1.304	1.270	1.211	1.161	1.139	0.977	0.945	0.843	0.821	0.869	0.816	0.736	0.736	0.815	0.891	1.196	1.360	1.342	1.477	2.917	7.564	15.86	34.00	50.18	75.56	65.83	45.97	10.16	1.856	0.635	0.542	0.529	0.533	0.554	0.472	0.518	0.451	0.448	0.445	0.451	0.451	0.423	0.432	0.435	0.451
255.0	79.28	86.43	197.0	410.0	779.3	2246	7903	9999.9	9999.9	204.5	27.70	19.20	15.29	11.33	9.112	7.689	6.674	5.362	4.771	4.018	3.600	3.084	3.124	2.874	2.767	2.601	2.372	2.151	1.937	1.851	1.756	1.528	1.489	1.267	1.269	1.124	1.137	1.012	0.878	0.857	0.896	0.963	0.842	0.800	0.735	0.728	0.709	0.816	0.839	1.109	1.581	2.140	2.540	4.033	8.156	11.94	22.90	53.09	114.9	133.3	29.07	14.68	1.483	0.624	0.720	0.585	0.635	0.568	0.518	0.520	0.528	0.565	0.529	0.393	0.451	0.450	0.557
260.0	81.35	64.80	92.87	268.3	444.8	590.3	2236	9999.9	9999.9	8460	145.0	29.20	20.58	15.06	11.26	8.833	7.059	6.155	5.069	4.874	3.798	3.502	2.926	3.198	2.777	2.547	2.424	2.368	2.099	2.080	1.975	1.566	1.666	1.516	1.454	1.309	1.275	1.066	1.065	0.970	0.968	1.035	0.797	0.851	0.717	0.731	0.674	0.705	0.683	0.783	1.079	1.925	2.158	1.967	2.408	3.157	5.776	13.74	42.05	101.1	152.3	146.5	25.47	9.401	1.016	0.705	0.645	0.646	0.558	0.532	0.537	0.531	0.566	0.500	0.481	0.456	0.571
265.0	81.53	70.67	66.68	127.2	371.3	369.6	571.2	3364	9999.9	9999.9	1713	93.16	28.81	20.74	13.81	10.01	8.344	6.719	5.872	5.348	4.247	3.651	3.615	3.290	3.023	2.883	2.650	2.356	2.237	2.107	2.280	1.786	1.668	1.586	1.442	1.246	1.212	1.339	1.179	0.898	1.019	1.038	0.902	0.915	0.911	0.788	0.753	0.789	0.698	0.628	0.709	1.108	1.687	2.215	2.100	1.593	1.861	3.718	10.14	27.10	70.04	154.7	197.9	144.2	20.80	3.882	0.910	0.717	0.669	0.561	0.581	0.657	0.533	0.613	0.609	0.523	0.602
270.0	180.5	167.3	131.8	93.25	177.4	372.2	397.8	848.1	3656	9999.9	9999.9	6557	111.4	33.05	21.76	14.13	11.18	8.929	6.875	5.868	5.158	4.292	4.126	3.673	3.205	3.190	2.729	2.690	2.430	2.514	2.441	2.032	2.006	1.662	1.729	1.536	1.316	1.396	1.275	1.100	1.115	1.177	1.094	1.118	1.157	1.032	0.999	1.014	0.928	0.759	0.729	0.828	1.020	1.346	1.912	2.363	2.208	2.092	3.077	6.771	16.80	41.02	82.40	142.9	181.0	142.9	107.6	13.64	4.197	0.936	0.725	0.772	0.648	0.687	0.616	0.603	0.662
275.0	414.9	411.3	303.2	152.1	97.84	175.8	444.8	488.6	925.1	2519	9999.9	9999.9	9484	132.8	35.04	22.60	15.63	12.38	9.713	7.363	6.612	5.156	4.585	4.479	3.940	3.499	2.966	3.003	2.802	2.585	2.623	2.341	2.074	2.179	2.248	2.149	1.867	1.608	1.472	1.469	1.366	1.489	1.441	1.502	1.762	1.626	1.615	1.662	1.535	1.181	0.855	0.851	0.908	0.958	1.142	1.454	2.113	3.323	3.017	2.846	4.669	10.05	19.27	33.10	48.30	91.57	222.0	248.2	172.7	20.84	3.031	1.079	0.855	0.827	0.809	0.801	0.738
280.0	713.8	686.2	480.0	209.1	95.46	112.7	280.6	589.3	445.3	705.2	2865	9999.9	9999.9	6904	97.70	31.52	21.44	15.48	11.97	8.961	7.616	5.750	5.164	5.195	4.284	4.270	3.432	3.197	3.110	2.789	2.428	2.457	2.357	2.412	2.658	2.549	2.169	1.952	1.684	1.689	1.616	1.861	1.831	1.873	2.015	2.187	2.303	2.225	1.936	1.376	1.066	1.045	0.864	0.859	1.039	1.122	1.412	2.301	3.416	3.689	2.977	3.333	5.333	8.422	11.95	22.55	68.06	161.5	298.1	245.3	31.14	14.24	1.574	1.125	0.951	0.978	0.881
285.0	914.2	967.2	674.0	303.8	125.4	110.7	168.4	456.4	623.8	377.9	842.8	3590	9999.9	9999.9	942.7	67.08	27.96	19.49	14.27	11.53	8.745	6.495	5.957	4.986	4.532	4.338	3.901	3.081	3.255	2.886	2.673	2.488	2.761	2.554	2.993	2.854	2.724	2.178	2.081	1.982	1.897	2.212	2.068	2.095	2.628	2.741	2.737	2.699	2.399	1.930	1.392	1.124	1.063	0.999	1.041	1.094	1.219	1.545	2.000	3.302	4.256	3.478	2.789	3.252	4.079	6.455	16.89	40.73	105.3	224.0	318.6	220.3	25.82	8.616	1.265	1.059	1.001
290.0	1146	1215	880.8	411.5	181.5	143.8	168.8	278.0	577.1	703.9	577.8	1128	3817	9999.9	9999.9	9999.9	71.53	30.63	20.90	14.63	11.27	8.449	7.257	5.746	5.592	4.625	4.423	3.966	3.534	3.228	2.895	2.723	2.711	2.895	3.338	3.604	3.199	2.848	2.572	2.373	2.308	2.442	2.521	2.521	2.947	3.199	3.195	3.360	2.974	2.368	1.742	1.455	1.278	1.216	1.219	1.222	1.335	1.498	1.651	2.007	2.914	3.887	4.299	3.951	3.355	3.285	5.814	11.12	25.63	55.55	109.3	179.6	237.8	247.6	136.8	17.77	7.676
295.0	1365	1368	1029	504.3	259.5	203.8	218.7	281.4	439.8	764.1	995.1	780.2	1266	2646	9999.9	9999.9	5516	81.14	31.45	20.63	14.87	11.23	9.101	7.092	6.337	5.564	4.982	4.554	3.964	3.704	3.464	3.155	3.083	3.139	3.534	3.710	3.571	3.414	2.968	2.828	2.479	2.820	2.711	2.871	3.469	3.621	3.656	3.919	3.263	2.754	1.980	1.787	1.676	1.407	1.405	1.463	1.483	1.629	1.680	1.991	2.520	2.626	3.473	4.965	6.010	5.343	4.270	5.320	8.344	14.77	26.59	42.04	58.31	99.51	225.1	356.5	237.4
300.0	1430	1457	1109	620.7	325.9	273.7	294.2	366.6	478.9	711.1	1217	1100	867.6	997.3	2868	9999.9	9999.9	4197	65.90	28.70	19.79	13.32	11.20	8.289	7.040	6.220	5.799	4.953	4.259	4.024	3.752	3.339	3.329	3.329	3.729	3.848	3.918	3.476	3.120	2.990	2.853	2.917	2.927	3.102	3.696	3.678	3.814	4.169	3.833	3.046	2.440	2.127	1.813	1.606	1.709	1.672	1.937	1.928	2.165	2.425	2.577	3.071	3.463	4.304	5.723	6.896	6.691	5.599	5.317	6.375	8.730	11.86	15.13	24.71	61.86	166.4	325.9
305.0	1446	1552	1226	701.8	405.5	343.7	389.1	480.3	616.9	815.4	1188	1552	1100	797.8	1020	3499	9999.9	9999.9	590.1	49.02	24.83	17.60	12.55	9.800	8.630	7.300	5.968	5.170	4.721	4.465	4.008	3.527	3.332	3.559	3.611	4.022	4.278	4.139	3.403	3.390	3.418	3.032	3.187	3.545	3.872	4.299	4.228	4.282	4.104	3.246	2.559	2.452	2.099	2.071	2.078	2.056	2.355	2.183	2.701	3.263	3.348	3.429	4.057	4.589	5.248	6.330	7.857	8.302	6.574	5.372	5.568	5.795	6.068	8.082	16.29	40.64	99.76
310.0	1489	1598	1287	767.7	470.7	434.2	486.5	587.6	732.8	935.4	1191	1497	1541	1016	721.5	1100	3836	9999.9	9999.9	9999.9	52.41	26.25	17.88	13.11	10.67	8.373	7.043	6.030	5.283	4.734	4.431	3.903	3.706	3.691	3.915	4.036	4.194	4.017	3.798	3.548	3.430	3.203	3.453	3.671	4.011	4.450	4.375	4.376	4.288	3.437	2.519	2.821	2.443	2.318	2.441	2.271	2.623	2.801	3.280	3.358	3.703	3.939	4.515	5.077	5.834	6.193	6.771	7.612	8.245	8.020	6.886	5.394	4.826	4.814	6.404	11.55	24.52
315.0	1568	1623	1373	824.0	545.4	488.4	549.3	677.3	821.0	1022	1254	1431	1511	1410	828.3	620.4	1121	2546	9999.9	9999.9	3933	58.08	26.71	18.60	14.16	10.35	8.739	6.958	6.198	5.688	4.754	4.219	4.121	4.060	3.982	4.147	4.266	4.214	4.039	3.772	3.731	3.473	3.675	3.753	4.161	4.422	4.363	4.835	4.279	3.743	3.006	3.053	2.826	2.549	2.630	2.582	3.046	3.272	3.393	3.646	4.059	4.352	5.131	5.569	5.996	6.478	6.805	7.132	7.419	8.073	7.889	8.214	6.241	4.914	4.377	5.301	7.757
320.0	1701	1840	1485	902.6	588.7	517.1	589.1	723.5	863.2	1072	1294	1457	1451	1439	1086	583.8	548.0	761.8	2804	9999.9	9999.9	3018	48.88	24.44	16.97	12.43	10.02	8.002	7.066	6.230	5.325	4.679	4.331	4.230	4.105	4.323	4.473	4.258	4.031	3.676	3.668	3.792	3.761	3.912	4.358	4.691	4.741	5.286	4.586	3.968	3.042	2.976	3.079	2.718	2.743	2.686	3.026	3.382	3.457	3.916	4.210	4.663	5.557	5.719	5.980	6.480	6.645	7.137	7.267	7.499	7.239	7.830	7.772	6.415	4.581	4.006	4.412
325.0	1763	2032	1722	1026	637.0	540.5	615.7	736.1	873.4	1089	1322	1468	1456	1318	1217	721.4	442.5	373.2	744.9	3658	9999.9	9999.9	443.7	37.03	21.63	15.67	11.76	9.242	7.909	6.545	6.002	4.801	4.219	4.221	4.499	4.338	4.311	4.195	4.012	3.734	3.499	3.788	4.025	3.966	4.700	5.399	5.397	5.612	5.419	4.395	3.531	3.296	3.119	2.706	2.742	2.783	2.806	3.440	3.915	4.029	4.370	4.804	5.217	6.023	6.275	6.587	6.971	7.248	7.132	7.501	7.137	6.884	7.260	7.442	6.485	4.487	3.601
330.0	1830	2160	1907	1228	746.8	595.0	633.6	740.8	876.0	1082	1305	1456	1448	1273	1078	874.0	553.3	315.7	303.9	923.1	4021	9999.9	9999.9	7696	42.73	22.54	15.66	11.82	9.772	7.704	6.871	5.598	4.794	4.454	4.517	4.341	4.323	4.027	4.111	3.779	3.672	3.900	4.025	4.231	4.837	5.239	5.782	6.085	5.870	4.820	3.915	3.924	3.454	3.012	2.773	2.918	3.041	3.378	3.837	4.200	4.311	4.686	5.076	5.907	6.211	6.370	6.962	7.236	7.118	7.151	7.109	6.770	6.363	6.517	6.083	5.824	4.932
335.0	1921	2237	2033	1388	876.7	660.9	647.8	758.4	892.0	1059	1293	1427	1437	1267	1017	790.9	718.1	423.1	243.0	330.7	992.3	2501	9999.9	9999.9	3161	47.62	22.24	16.30	12.16	9.660	7.913	6.531	5.642	4.975	4.621	4.598	4.158	4.230	4.066	4.026	3.822	3.850	4.356	4.254	5.047	5.747	5.917	6.742	6.351	5.576	4.276	4.373	4.138	3.518	3.351	3.223	3.277	3.499	3.774	4.085	4.490	4.577	5.406	5.361	5.995	6.174	6.711	7.263	7.356	7.248	6.918	6.887	6.426	6.006	5.315	4.895	5.193
340.0	1921	2245	2053	1450	931.0	706.1	676.8	757.2	890.5	1057	1268	1385	1388	1244	1000	740.0	671.1	568.2	286.8	215.9	333.5	649.0	2946	9999.9	9999.9	2487	39.07	20.51	14.79	11.26	9.049	7.232	6.048	5.282	4.792	4.568	4.514	4.524	3.705	4.108	3.860	4.006	3.905	4.308	4.955	5.634	5.907	6.486	6.404	5.207	4.500	4.580	4.065	3.667	3.645	3.093	3.342	3.808	3.988	3.993	4.461	4.680	5.175	5.544	5.909	6.041	6.495	6.933	7.088	7.074	6.770	6.506	6.308	5.903	5.162	4.837	4.565
345.0	1824	2173	2039	1446	949.7	733.7	676.6	760.0	869.3	1028	1203	1321	1334	1186	971.0	728.0	582.8	577.7	402.3	220.9	203.0	247.4	745.6	4083	9999.9	9999.9	373.1	29.50	18.25	13.19	10.27	8.208	6.783	6.025	5.003	4.826	4.550	4.085	3.940	3.867	3.816	3.708	4.195	4.242	4.726	5.727	5.762	6.527	6.276	5.358	4.747	4.677	4.315	3.559	3.513	2.996	3.393	3.766	3.766	3.965	4.245	4.704	5.106	5.255	5.721	5.788	6.443	6.301	6.738	6.715	6.610	6.489	5.990	5.766	5.000	4.854	4.261
350.0	1731	2001	1901	1434	1002	764.9	706.1	768.4	859.0	979.0	1116	1220	1221	1107	929.5	711.4	560.7	492.7	477.1	346.8	220.6	188.0	271.1	999.3	4410	9999.9	9999.9	1610	35.62	18.33	13.54	9.408	7.613	6.290	5.348	4.776	4.566	4.314	4.055	3.796	3.669	3.906	3.903	4.040	4.540	5.221	5.224	5.891	5.942	5.196	4.492	4.560	4.616	3.752	3.615	3.233	3.519	3.916	3.738	3.882	4.244	4.523	4.815	5.041	5.581	5.622	6.054	5.813	6.155	6.147	6.139	6.149	5.825	5.459	5.206	4.552	4.274
355.0	1569	1753	1755	1360	1010	807.1	744.7	789.9	847.7	945.5	1048	1121	1122	1029	883.0	701.9	567.4	478.7	426.4	450.5	329.2	215.2	195.4	327.0	1060	2529	9999.9	9999.9	2825	40.49	18.61	12.83	9.463	7.498	6.002	5.028	4.823	4.308	4.396	3.944	3.750	3.729	3.719	4.073	4.448	4.788	4.987	5.571	5.588	4.926	4.402	4.613	4.485	4.143	3.820	3.344	3.617	3.726	4.053	4.073	4.306	4.160	4.537	5.050	5.178	5.369	5.629	5.416	5.835	6.017	5.705	5.597	5.719	5.274	4.766	4.482	4.278
360.0	1448	1706	1637	1324	1016	836.4	771.2	791.6	848.0	912.4	1000	1051	1043	969.4	844.5	695.3	574.7	490.4	424.7	427.5	433.2	277.1	201.3	196.2	330.2	637.1	2988	9999.9	9999.9	2237	32.63	16.05	11.47	8.836	6.804	5.599	4.830	4.672	4.178	3.835	3.889	3.638	3.772	3.789	4.294	4.584	4.713	5.310	5.296	4.712	4.043	4.382	4.537	4.112	3.732	3.542	3.605	3.658	4.037	4.022	4.239	4.229	4.789	4.837	4.945	5.099	5.124	5.056	5.625	5.495	5.351	5.304	5.266	4.763	4.738	4.560	4.486
365.0	1405	1557	1568	1291	1017	845.2	780.1	797.7	826.8	891.2	959.0	989.9	990.3	925.6	817.4	684.6	584.7	507.2	440.0	406.3	440.7	378.8	242.9	190.0	186.0	226.5	735.7	4118	9999.9	9999.9	341.6	24.16	14.71	10.44	8.044	6.397	5.353	4.884	4.199	3.964	3.652	3.657	3.783	3.791	4.220	4.302	4.293	5.309	5.004	4.582	4.019	4.630	4.252	3.989	3.791	3.651	3.749	3.952	4.020	4.076	4.148	4.170	4.686	4.548	4.888	5.022	4.947	4.834	5.116	5.234	5.008	4.960	5.184	4.732	4.626	4.596	4.658
370.0	1292	1463	1468	1240	1016	861.4	798.0	804.5	822.5	865.4	904.9	929.5	917.5	870.2	778.9	669.7	587.6	531.0	473.1	432.6	416.1	429.5	353.6	238.9	184.1	159.7	243.2	989.5	4363	9999.9	9999.9	1459	30.64	14.95	10.17	7.676	6.025	5.451	4.571	4.292	4.050	3.785	3.670	3.796	3.935	4.106	4.312	4.817	4.740	4.383	3.928	4.437	4.365	4.028	3.899	3.646	3.912	4.233	4.007	3.958	4.286	4.251	4.425	4.397	4.627	4.711	4.471	4.514	4.620	4.707	4.998	4.770	4.827	4.573	4.480	4.394	4.347
375.0	1189	1394	1399	1184	997.1	869.5	804.5	797.8	810.1	836.9	856.4	881.8	854.3	804.7	744.9	654.8	594.9	552.8	498.0	460.5	431.5	409.4	421.6	343.5	227.0	175.2	158.4	297.5	1032	2554	9999.9	9999.9	2456	33.68	14.52	10.13	7.606	6.225	5.490	4.675	4.346	3.961	3.700	3.755	3.786	4.147	4.208	4.510	4.542	3.932	3.758	4.530	4.394	4.290	4.236	3.751	4.039	4.219	3.995	3.933	4.261	4.443	4.489	4.274	4.227	4.595	4.424	4.241	4.374	4.402	4.463	4.417	4.704	4.431	4.473	4.274	4.441
380.0	1178	1327	1317	1170	959.2	872.1	806.6	805.6	800.0	810.7	831.8	838.9	817.9	773.5	717.4	641.6	594.9	559.5	519.0	483.3	451.2	417.8	409.5	414.1	287.8	203.1	158.1	159.7	301.2	627.6	3040	9999.9	9999.9	1883	25.77	12.52	9.155	7.101	5.797	5.035	4.161	4.189	3.887	3.848	3.852	4.006	4.044	4.614	4.473	3.891	3.740	4.159	4.237	4.120	4.076	3.948	4.043	3.933	4.082	3.829	4.032	4.204	4.345	4.185	4.097	4.172	4.195	4.291	4.194	4.270	4.526	4.388	4.401	4.230	4.233	4.337	4.434
385.0	1146	1241	1251	1138	960.5	865.1	808.9	798.4	795.0	799.3	796.3	810.9	785.4	744.0	700.3	633.6	587.5	559.7	529.4	501.2	470.3	432.9	404.0	411.7	366.1	243.8	181.3	146.7	150.5	203.8	735.0	3900	9999.9	9999.9	284.7	18.41	11.44	8.477	6.683	5.416	4.676	4.392	3.729	3.981	3.718	3.993	3.799	4.495	4.424	3.857	3.563	4.123	4.012	3.862	4.033	3.860	4.054	3.812	4.062	4.011	4.023	4.225	4.174	4.069	4.081	4.271	4.244	4.305	4.113	4.260	4.397	4.238	4.080	4.442	4.060	4.221	4.597
390.0	1070	1201	1194	1092	954.4	871.3	813.2	778.2	771.3	776.0	777.6	775.1	754.7	721.0	679.1	624.0	584.1	558.0	537.1	517.0	489.5	453.7	423.6	400.1	394.2	332.6	233.1	178.2	144.6	131.2	229.3	925.9	3838	9999.9	9999.9	4312	25.16	11.52	8.221	6.481	5.387	4.773	4.122	3.906	3.967	4.074	3.746	4.350	4.092	3.799	3.435	3.765	4.181	3.825	3.944	3.748	4.138	3.882	4.095	3.843	3.974	3.985	3.997	4.132	4.126	3.988	4.023	4.053	3.991	4.147	4.141	4.163	3.985	4.311	4.041	4.150	4.231
395.0	1093	1146	1127	1052	936.2	861.3	813.4	771.8	760.5	765.1	759.4	755.1	736.5	705.6	660.7	609.0	578.9	557.7	541.9	522.3	504.9	479.9	451.9	416.5	386.5	382.0	322.2	227.7	176.8	145.7	138.3	270.1	902.6	2439	9999.9	9999.9	2087	29.08	11.28	7.897	6.474	5.743	4.523	4.150	4.347	4.114	3.932	4.083	3.957	3.575	3.407	3.770	4.067	3.873	4.056	3.792	4.237	3.981	3.902	3.839	3.878	3.852	3.998	3.857	4.160	3.899	3.756	3.718	3.866	4.081	4.314	4.129	3.952	4.201	4.025	4.100	4.285
400.0	1038	1068	1098	1006	923.2	847.8	812.1	796.2	766.6	749.1	755.2	753.1	726.9	705.1	662.0	604.6	571.7	554.2	540.3	530.0	512.6	493.0	468.3	434.7	402.0	381.1	372.0	291.6	213.1	170.8	136.6	139.7	259.2	590.8	2696	9999.9	9999.9	1704	23.10	10.09	7.162	6.133	5.143	4.070	4.521	4.124	3.973	4.100	3.863	3.690	3.557	3.982	3.972	3.841	3.872	3.691	3.921	3.774	4.034	4.076	3.909	3.836	3.865	3.809	4.115	3.677	3.882	3.790	3.858	3.953	4.090	3.797	3.935	4.019	4.160	3.922	4.240
405.0	1007	1053	1050	976.9	908.7	839.7	821.1	796.5	773.4	752.9	760.0	749.7	726.9	699.6	650.8	604.1	559.4	545.4	534.9	525.1	516.9	502.0	482.0	457.4	421.0	391.6	376.8	354.0	259.4	200.9	159.9	128.4	128.0	185.0	644.9	3118	9999.9	9999.9	264.7	16.82	9.135	7.113	5.994	4.935	4.560	4.247	3.943	4.248	4.011	3.745	3.510	3.972	4.095	3.764	3.795	3.820	4.049	3.768	3.875	3.803	3.547	3.841	3.743	3.710	3.782	3.917	3.830	3.749	3.726	3.674	3.972	3.739	3.687	4.051	4.283	3.833	4.099
410.0	982.7	1049	1036	948.3	884.9	831.3	830.2	796.4	783.1	755.9	764.4	754.3	732.0	694.1	642.7	588.7	547.6	537.1	525.8	518.2	517.0	506.7	492.9	473.0	442.9	411.1	380.3	372.4	330.6	249.6	190.6	148.4	117.3	107.1	194.6	737.4	3083	9999.9	9999.9	3844	22.15	9.023	6.746	5.706	4.914	4.447	4.049	4.135	3.899	3.726	3.452	3.812	3.807	3.825	3.985	3.618	3.956	3.826	3.895	3.850	3.646	4.017	3.862	3.800	3.542	3.756	3.839	3.701	3.711	3.794	3.677	3.900	3.732	3.792	3.873	3.748	3.983
415.0	943.8	965.9	960.0	912.2	837.4	827.8	810.9	792.4	779.5	756.4	758.3	742.5	706.7	679.2	625.1	566.7	530.9	515.3	509.4	503.7	505.6	495.0	487.3	475.0	451.2	421.6	387.8	358.4	348.1	309.5	220.8	167.5	127.7	99.80	100.6	207.5	719.4	2326	6670	9999.9	1971	27.83	9.002	6.741	5.635	4.688	4.245	4.222	3.864	3.671	3.333	3.793	3.912	3.839	3.743	3.836	4.235	4.020	3.933	3.895	3.816	4.010	3.807	3.893	3.644	3.818	3.666	3.787	3.717	3.808	3.969	3.731	3.687	3.616	3.719	3.915	3.877
420.0	932.1	936.8	908.7	890.0	834.5	808.0	803.8	781.9	765.0	756.5	751.2	723.3	689.1	655.5	603.5	545.8	512.2	493.9	490.4	488.6	485.8	489.1	476.5	468.4	449.4	422.5	390.9	355.7	332.9	327.4	253.8	181.7	135.8	104.2	83.80	92.21	195.3	544.7	1691	8156	9999.9	1690	21.80	8.358	6.430	5.311	4.306	4.211	3.943	3.593	3.224	3.779	3.602	3.791	3.696	3.846	4.300	3.984	3.836	3.932	3.665	3.825	3.680	3.911	3.949	3.778	3.603	3.496	3.722	3.510	3.752	3.454	3.615	3.626	3.630	3.623	3.592
425.0	942.4	908.6	905.1	858.7	811.4	806.6	793.3	795.8	777.7	750.6	735.1	711.6	672.2	633.4	582.4	528.1	503.1	480.5	474.2	473.8	474.3	473.4	465.8	460.0	444.5	418.5	392.5	355.7	327.7	315.3	285.8	205.1	144.8	110.3	85.34	72.22	81.40	149.2	399.9	2222	9548	9999.9	261.1	15.75	7.402	5.820	4.919	4.451	4.088	3.486	3.258	3.892	3.864	3.585	3.596	3.574	4.006	4.093	3.819	3.960	3.973	4.149	3.815	3.721	3.702	3.655	3.428	3.359	3.421	3.391	3.542	3.440	3.452	3.390	3.426	3.478	3.498
430.0	1709	878.8	862.7	823.5	793.4	798.3	794.6	790.4	778.4	753.4	728.1	699.4	653.0	612.8	560.8	503.8	475.1	456.9	451.7	451.2	452.1	454.8	452.3	446.7	435.5	412.0	389.2	362.4	332.8	302.6	282.4	242.9	170.8	123.3	95.01	75.35	62.41	66.03	112.9	515.5	2507	7226	9471	3621	21.59	7.928	5.664	4.790	4.072	3.722	3.143	3.920	3.913	3.751	3.789	3.667	4.064	4.148	4.028	3.960	3.932	3.939	3.851	3.666	3.589	3.590	3.504	3.236	3.322	3.187	3.395	3.427	3.345	3.439	3.243	3.282	3.440
435.0	4150	972.9	833.0	791.7	762.3	773.4	776.0	779.8	764.0	739.8	721.5	681.1	641.3	594.9	531.8	480.4	443.7	436.2	428.1	429.0	429.1	432.5	434.6	429.5	420.3	405.0	381.5	360.8	336.1	304.9	270.1	244.8	206.2	143.8	105.1	82.18	64.86	52.48	53.59	136.1	575.6	1643	4345	9999.9	1939	29.00	7.634	6.017	4.809	4.155	3.358	3.834	3.917	3.570	3.730	3.755	3.981	4.190	3.989	3.794	4.047	3.885	3.846	3.721	3.628	3.574	3.510	3.110	3.382	3.212	3.337	3.370	2.989	3.353	3.182	3.372	3.115
440.0	5775	1678	804.4	756.0	763.9	767.4	771.3	769.7	752.9	730.7	704.5	670.3	624.7	573.0	512.5	461.4	424.0	409.8	407.4	408.4	412.3	416.8	414.3	413.7	406.3	394.1	374.6	353.6	330.4	300.5	263.2	232.2	213.2	164.6	114.7	87.79	68.60	52.40	43.05	54.50	147.5	382.0	1045	5723	9999.9	1774	22.38	7.388	5.625	4.194	3.781	3.906	3.902	3.740	3.709	3.900	4.239	3.927	3.913	3.939	3.916	4.020	3.935	3.652	3.735	3.529	3.350	3.203	3.270	3.176	3.251	3.232	2.917	3.300	3.146	3.153	3.038
445.0	5656	3560	812.3	733.8	731.4	735.4	745.8	756.1	729.5	702.8	686.9	643.6	593.4	543.3	487.1	436.7	405.1	391.9	388.5	385.9	386.5	391.8	395.4	395.5	391.1	375.8	360.1	344.2	321.5	292.6	259.1	220.4	197.5	177.2	127.7	93.18	71.06	54.99	42.48	38.02	53.75	102.0	248.7	1445	6997	9999.9	1335	18.63	6.451	4.897	4.076	4.058	3.809	3.671	3.913	3.727	4.023	3.969	4.120	3.829	3.613	3.884	3.760	3.700	3.735	3.431	3.279	3.233	3.179	3.052	2.938	3.094	2.795	3.158	3.012	2.781	2.957
450.0	3141	6053	1834	681.3	682.4	688.0	698.0	708.6	696.1	666.5	644.7	606.5	550.3	501.4	448.0	403.4	372.8	364.6	356.6	355.8	356.5	358.7	363.2	362.9	361.1	350.6	332.4	321.6	301.4	278.7	247.4	212.8	179.9	162.2	140.6	104.1	75.63	58.68	46.42	37.77	35.75	42.09	70.87	336.1	1743	5637	8479	3637	92.16	6.650	4.701	4.502	4.036	3.794	3.767	3.666	3.947	3.863	3.805	3.839	3.580	3.785	3.687	3.648	3.485	3.474	3.067	3.099	3.102	2.936	2.886	2.846	2.810	2.909	2.807	2.765	2.847
455.0	1239	5277	4976	810.0	631.3	626.3	662.5	662.9	656.7	624.2	606.9	554.3	503.7	463.4	410.0	370.1	340.6	327.5	319.9	320.2	321.1	324.9	324.7	326.4	324.9	318.6	304.8	295.8	277.7	260.4	234.7	200.1	169.8	145.3	133.4	118.3	84.91	62.29	48.50	39.33	33.57	30.84	32.64	89.00	399.7	1273	3028	8609	4990	23.75	6.399	5.042	4.568	3.967	3.689	3.694	3.878	3.735	3.645	3.409	3.717	3.595	3.407	3.304	3.327	3.112	2.886	2.685	3.032	2.848	2.973	2.800	2.613	2.737	2.729	2.535	2.498
460.0	730.1	2988	7223	1728	580.5	597.8	606.7	628.5	619.5	586.6	562.6	524.5	473.9	431.2	381.2	342.6	313.4	299.7	292.8	292.6	295.3	299.0	300.0	298.8	298.7	293.1	283.4	272.3	261.0	245.9	221.7	191.9	163.4	137.6	121.2	115.0	94.21	65.90	50.46	41.37	34.92	28.46	25.11	34.81	101.5	294.8	703.6	3769	9040	1425	19.76	6.271	4.967	4.411	3.621	3.508	3.913	3.551	3.500	3.411	3.652	3.483	3.338	3.236	3.328	2.865	2.825	2.789	2.892	2.575	2.570	2.518	2.306	2.486	2.467	2.524	2.345
465.0	595.4	1335	6885	3909	605.6	545.6	567.3	587.8	578.9	553.9	529.9	494.6	444.0	399.1	358.0	318.2	288.8	277.5	269.8	270.2	271.6	276.0	276.4	277.1	273.6	270.7	263.9	253.1	241.8	227.4	208.6	182.0	157.3	134.0	111.8	104.4	97.84	71.69	52.49	42.20	35.43	29.07	24.54	23.25	35.57	77.52	167.3	904.1	4905	7664	1213	19.07	5.844	4.523	4.002	3.613	3.577	3.681	3.445	3.274	3.431	3.391	3.238	2.837	3.005	2.837	2.895	2.663	2.593	2.604	2.337	2.423	2.339	2.431	2.291	2.435	2.325
470.0	577.1	676.2	3529	6858	1767	504.6	519.3	528.0	518.6	502.5	479.9	444.8	403.5	358.9	317.3	283.3	258.9	247.4	242.5	238.9	239.5	241.7	244.3	244.8	242.2	241.3	234.3	227.3	216.8	204.8	190.1	167.5	144.1	123.5	104.9	91.99	85.97	77.93	58.09	43.65	35.53	29.74	25.12	21.94	21.55	28.83	47.43	211.0	1180	3720	5609	3166	99.28	6.219	4.379	4.016	3.904	3.469	3.583	3.241	3.156	3.202	3.050	2.832	2.780	2.605	2.560	2.598	2.352	2.425	2.303	2.294	2.296	2.304	2.091	2.266	2.124
475.0	531.2	499.6	1181	5850	4929	586.5	458.3	465.7	463.0	446.9	430.6	397.9	363.2	319.5	283.8	248.5	229.2	221.1	211.8	210.8	211.2	210.4	212.6	214.5	212.5	209.0	204.6	198.4	190.5	182.7	170.3	151.7	130.9	113.2	96.40	84.14	72.83	71.26	64.12	47.75	36.20	30.08	24.73	20.99	18.81	18.67	20.88	55.37	269.9	836.7	1782	5239	3599	26.79	5.552	4.101	3.876	3.582	3.204	2.956	2.847	2.887	2.942	2.671	2.671	2.324	2.301	2.414	2.289	2.054	2.126	2.018	1.994	2.273	1.946	2.058	1.867
480.0	478.0	460.7	567.5	3203	7574	1556	423.4	430.0	430.1	423.5	396.4	366.6	328.5	299.5	258.5	226.2	210.1	200.5	193.3	189.8	189.7	192.2	190.2	194.0	191.8	190.3	185.4	179.5	174.9	166.8	155.8	139.8	121.7	105.5	92.70	79.34	68.04	62.81	63.02	53.44	38.24	30.39	25.22	20.95	18.84	16.53	14.98	21.24	67.94	193.3	410.1	2018	5915	1608	23.42	4.735	4.103	3.673	3.325	2.978	2.873	2.828	2.806	2.495	2.522	2.232	2.285	2.281	2.045	2.060	1.882	1.896	2.054	1.987	1.790	1.836	1.848
485.0	408.0	459.6	424.4	1276	7336	3771	443.6	406.9	404.6	390.6	377.9	343.9	304.7	275.5	235.7	213.8	193.5	185.0	180.1	176.3	174.0	174.7	175.4	175.7	173.6	173.2	168.2	165.2	161.6	155.8	144.4	131.4	114.8	99.12	87.35	77.17	65.17	57.82	56.00	55.85	41.19	31.84	25.85	21.85	19.44	16.49	14.18	14.01	22.97	49.93	97.78	477.1	2962	5616	1340	17.70	4.710	3.846	3.566	2.975	2.822	2.775	2.641	2.439	2.324	2.224	2.346	2.117	2.115	1.981	1.743	1.908	1.849	1.771	1.595	1.621	1.616
490.0	364.7	438.4	380.3	548.2	3830	7341	1617	372.2	369.9	357.2	345.6	315.7	279.3	246.9	220.0	193.3	175.3	166.3	159.4	158.1	154.6	156.9	156.0	158.2	157.0	154.8	152.5	149.1	146.7	141.1	131.9	120.6	106.4	93.31	82.09	71.83	62.33	55.01	49.98	49.17	45.85	35.43	27.47	22.47	19.64	17.04	14.74	12.78	13.30	17.90	28.03	112.4	701.3	2462	4501	2450	109.2	5.849	3.968	3.357	3.034	2.807	2.621	2.541	2.341	2.121	2.262	2.004	1.977	1.750	1.809	1.919	1.752	1.695	1.531	1.633	1.657
495.0	298.6	370.2	376.3	362.4	1178	6538	5398	421.1	338.0	324.5	313.3	285.0	253.3	223.8	198.0	172.0	159.7	147.5	141.2	138.7	137.1	137.5	137.0	138.2	139.2	137.9	134.8	133.0	130.0	125.3	117.1	108.8	96.57	85.70	74.88	65.82	58.97	51.62	45.87	42.19	42.64	40.46	30.41	23.27	19.60	17.47	15.10	13.35	11.39	11.06	12.43	30.65	161.2	554.3	1465	4575	3648	30.07	5.169	3.537	2.987	2.845	2.393	2.405	2.214	2.135	2.087	1.881	1.950	1.687	1.687	1.804	1.567	1.500	1.694	1.545	1.493
500.0	282.9	301.0	362.3	315.9	479.0	3591	8514	1330	311.0	298.1	284.0	261.4	232.2	204.3	180.3	156.9	144.4	136.0	130.6	125.3	125.3	125.7	123.6	126.2	122.4	124.7	120.8	119.0	118.9	114.8	109.0	101.1	88.39	78.01	69.79	61.92	54.87	48.70	43.27	38.69	37.31	39.11	33.08	24.45	19.95	17.19	14.96	13.23	11.54	9.951	9.255	12.69	41.12	128.5	336.5	1745	5343	1730	25.67	4.453	3.353	2.768	2.459	2.511	2.148	2.049	1.796	1.811	1.781	1.629	1.671	1.485	1.548	1.548	1.607	1.491	1.363
505.0	252.6	251.8	338.9	300.0	299.1	1371	8672	2960	313.9	268.4	257.8	241.9	211.9	185.7	164.2	143.3	133.2	122.6	118.2	114.9	115.3	110.5	112.5	112.3	111.6	112.7	109.1	107.1	107.2	103.2	99.59	91.00	81.99	72.97	65.43	57.35	51.39	46.87	40.75	36.39	33.33	34.37	33.89	26.51	20.17	17.09	14.77	13.23	11.16	10.23	8.455	8.627	14.01	33.38	80.32	409.4	2480	4973	1404	19.13	3.817	2.843	2.431	2.328	1.958	2.111	1.866	1.701	1.552	1.549	1.550	1.456	1.339	1.394	1.431	1.513	1.376
510.0	225.9	226.0	271.3	298.7	245.2	490.4	4483	8066	1273	249.7	228.3	213.1	187.9	165.7	145.6	127.2	115.6	106.4	103.4	100.8	99.21	97.81	98.62	98.37	97.20	95.97	94.77	93.91	92.68	91.35	86.23	79.24	72.78	64.83	59.24	52.41	47.69	41.76	37.59	33.99	30.66	28.78	29.96	28.76	22.49	16.95	14.72	13.13	11.09	9.789	8.535	7.776	8.048	12.08	22.43	95.72	582.6	2093	3637	1859	102.6	4.302	2.848	2.345	1.973	1.952	1.784	1.573	1.560	1.475	1.516	1.428	1.235	1.227	1.293	1.316	1.203
515.0	199.2	192.8	203.4	266.0	244.9	274.4	1286	7855	5432	291.2	207.2	190.3	166.8	144.8	127.2	109.7	99.94	91.40	90.35	86.27	85.46	83.81	84.86	82.84	82.63	83.30	80.99	81.39	80.20	78.52	74.84	68.83	62.84	57.26	51.36	46.29	41.87	37.93	34.13	30.69	27.61	25.23	24.20	26.13	25.08	18.32	14.54	12.18	11.12	9.627	8.467	7.850	6.862	7.195	9.253	25.46	133.5	470.6	1093	3366	1846	29.62	3.501	2.457	2.041	1.955	1.693	1.532	1.613	1.417	1.332	1.298	1.252	1.142	1.141	1.231	1.086
520.0	178.6	183.8	188.6	231.7	242.3	205.0	437.7	4363	9459	1088	194.5	171.4	151.5	130.0	114.6	98.10	90.24	82.08	80.09	77.82	76.23	74.47	74.15	73.07	73.58	73.64	71.83	71.87	71.73	70.25	67.33	62.05	56.97	51.28	46.12	42.56	38.24	35.33	31.69	28.40	25.74	23.22	21.59	22.11	24.48	20.04	14.25	12.42	10.90	9.326	8.048	7.377	6.740	5.982	6.024	9.436	33.32	108.4	250.6	1287	3584	1560	23.82	3.209	2.280	1.934	1.726	1.562	1.427	1.379	1.278	1.276	1.124	1.152	1.068	1.168	1.197
525.0	158.4	163.4	163.9	187.4	239.0	192.2	231.1	1598	9999.9	3738	202.6	160.8	139.4	120.5	103.1	88.83	80.20	75.79	73.10	68.21	67.02	67.22	66.99	65.83	65.98	65.82	63.88	65.39	64.74	64.22	60.67	56.25	51.89	46.51	42.29	38.31	35.28	31.33	29.69	26.49	23.83	21.78	19.43	18.52	21.29	20.52	15.59	12.19	10.44	8.933	7.924	7.202	6.488	5.905	5.201	5.567	10.95	27.51	59.24	300.5	1666	3486	1154	16.70	2.402	2.153	1.788	1.564	1.405	1.296	1.202	1.279	1.158	1.146	1.033	1.144	0.984
530.0	154.5	149.5	143.5	149.2	207.6	199.8	166.3	497.9	5431	9174	983.3	145.9	125.0	106.7	90.28	78.20	70.02	65.18	62.58	60.58	58.31	57.33	57.94	57.56	57.93	56.06	56.05	55.71	56.43	55.66	52.49	49.30	45.81	41.66	37.32	33.90	31.48	28.97	26.04	23.74	21.67	19.88	17.54	16.44	17.01	17.83	17.03	13.05	9.851	8.547	7.550	6.711	6.129	5.662	5.265	4.702	5.627	9.140	16.10	70.01	393.3	1474	2530	1055	90.96	3.203	2.042	1.640	1.417	1.245	1.273	1.126	1.220	0.989	1.061	1.021	0.974
535.0	124.1	142.2	124.6	123.1	150.6	210.9	144.8	213.3	1493	9222	5473	185.0	112.5	93.70	80.74	68.83	62.14	57.64	54.50	51.90	50.18	48.98	48.73	48.32	49.08	47.78	47.31	47.04	47.28	47.15	46.31	42.16	38.97	35.45	31.71	28.76	27.68	24.83	22.79	20.95	18.64	17.67	15.85	14.70	14.21	14.28	15.88	14.08	9.986	8.149	7.077	6.228	5.427	5.172	4.768	4.625	4.468	4.884	6.323	18.13	89.93	331.3	764.8	2252	1625	28.34	2.682	1.826	1.425	1.124	1.180	1.221	1.091	0.924	0.893	0.901	0.938
540.0	132.6	133.1	120.4	110.3	122.6	187.2	150.3	143.5	441.1	4917	9999.9	733.9	102.9	83.61	72.53	60.12	56.45	50.33	48.00	46.35	44.51	42.77	42.54	42.41	43.08	42.62	41.52	41.04	42.36	40.03	40.56	37.53	34.70	31.10	28.95	26.78	24.41	22.12	20.49	19.24	16.84	16.25	14.61	13.33	12.62	12.43	12.96	13.99	10.77	8.054	6.580	5.991	5.360	4.944	4.607	4.504	3.941	3.782	3.945	6.456	22.47	76.09	175.3	867.4	2520	1210	21.58	2.182	1.522	1.317	1.138	1.115	1.039	0.915	0.837	0.872	0.947
545.0	140.2	124.2	110.5	98.39	109.4	153.8	168.2	120.4	188.9	1688	9999.9	1671	103.3	78.86	63.95	54.71	50.04	46.20	43.24	41.61	39.13	38.83	38.41	37.62	38.63	38.28	36.27	36.23	36.47	35.78	35.87	32.89	30.40	27.87	25.77	23.79	21.83	20.22	18.05	17.18	15.67	14.81	13.34	12.33	11.36	11.14	10.82	11.82	11.05	8.200	6.338	5.402	4.889	4.592	4.342	4.158	3.903	3.580	3.197	3.665	7.249	19.24	41.41	203.2	1155	2380	249.8	13.54	1.958	1.493	1.251	1.074	0.902	0.946	0.858	0.830	0.882
550.0	138.4	125.7	114.5	88.69	87.40	105.7	161.6	118.8	118.5	471.7	5339	8479	587.4	69.31	55.79	48.02	41.99	39.26	36.73	35.23	33.60	31.98	31.74	31.48	31.64	30.99	30.61	30.31	30.54	29.87	29.09	27.34	25.75	23.52	21.42	20.28	18.60	17.19	15.40	14.46	13.60	12.24	11.37	10.74	10.10	9.321	9.028	9.047	9.614	8.814	6.609	4.815	4.404	4.140	3.713	3.532	3.595	3.621	2.899	2.830	3.672	6.226	11.01	47.22	271.2	984.8	1524	843.0	18.81	2.068	1.406	1.166	1.011	1.030	0.860	0.835	0.829
555.0	146.1	132.7	113.8	84.04	74.65	75.75	127.4	140.0	90.78	172.3	1401	9017	4174	89.84	49.21	40.20	35.31	32.47	30.20	29.11	26.94	25.89	25.47	25.71	26.46	25.41	24.79	24.78	25.19	24.69	22.97	22.65	21.07	19.56	18.17	15.92	15.12	14.46	12.47	12.13	11.54	10.30	9.892	9.049	8.803	8.064	7.590	6.970	7.126	7.626	6.687	4.897	3.822	3.487	3.352	3.170	2.938	3.182	2.998	2.540	2.656	3.136	4.043	11.97	61.90	221.4	467.2	1440	1073	26.63	1.990	1.320	1.121	1.059	0.862	0.798	0.721
560.0	147.9	136.7	113.1	78.97	60.82	64.31	97.52	140.5	85.63	97.94	380.3	4669	8731	398.2	45.59	36.13	30.33	27.56	26.03	24.80	23.12	22.69	21.93	22.41	22.42	21.30	20.99	21.51	21.33	20.75	19.90	19.25	17.86	16.86	15.60	14.04	12.96	12.58	11.06	10.57	10.02	9.137	8.369	7.583	7.411	7.276	6.340	6.110	5.681	6.205	6.602	5.232	3.616	3.135	2.874	2.679	2.777	2.556	2.751	2.513	2.173	2.315	2.411	4.109	15.21	50.83	107.1	540.6	1533	745.4	18.81	1.542	1.134	0.944	0.901	0.799	0.817
565.0	161.8	137.0	107.5	77.05	57.11	56.76	71.29	129.8	96.98	77.98	143.3	1522	9999.9	1174	44.91	33.58	27.82	24.87	23.27	21.27	20.55	19.73	18.27	19.11	18.72	18.46	17.93	18.53	17.90	17.54	17.76	16.86	15.27	14.41	12.96	12.19	10.94	10.77	10.02	9.141	8.462	8.041	6.966	7.062	6.601	6.271	5.644	5.458	4.995	4.948	5.621	5.368	3.715	3.236	2.684	2.413	2.422	2.377	2.550	2.584	2.006	1.881	1.844	2.272	4.795	12.91	25.41	126.3	677.0	1405	242.3	10.41	1.332	1.014	0.922	0.764	0.720
570.0	155.9	148.5	115.6	74.82	50.29	49.73	53.95	92.13	116.9	72.41	83.79	408.6	5081	6773	362.0	30.53	24.43	22.25	19.31	18.17	17.35	16.76	15.85	15.60	15.28	15.12	15.02	14.64	15.05	14.51	14.27	13.73	12.47	11.55	10.56	10.06	9.039	8.577	8.248	7.737	7.430	6.746	6.247	6.023	5.591	5.186	4.810	4.744	4.159	3.966	4.087	4.546	3.977	3.113	2.485	2.268	2.097	2.035	2.239	2.253	2.173	2.004	1.692	1.836	2.401	4.228	6.984	29.71	158.7	560.2	888.1	529.0	17.66	1.529	0.938	0.807	0.755
575.0	136.8	148.7	118.5	73.01	44.81	44.15	44.63	59.84	117.6	81.15	68.43	139.0	1309	7504	2948	40.16	21.87	18.92	15.77	15.27	13.79	13.63	12.88	12.56	12.71	12.17	12.23	12.08	11.90	11.96	11.84	10.89	10.08	9.473	8.544	8.015	7.656	7.210	6.543	6.132	5.998	5.509	5.560	5.140	4.875	4.487	4.077	3.969	3.646	3.193	3.253	3.193	3.639	3.136	2.442	1.958	1.875	2.038	1.842	1.708	2.031	2.254	1.861	1.631	1.766	2.105	2.627	7.818	36.62	126.2	261.4	812.5	652.8	25.22	1.264	0.893	0.683
580.0	148.8	141.8	114.8	70.49	41.84	40.76	43.28	47.31	95.54	101.6	66.08	79.49	343.0	3929	6554	105.6	20.64	16.75	14.82	13.18	12.21	11.62	11.61	11.17	10.85	10.64	10.70	10.49	10.31	10.12	9.845	9.517	8.442	8.074	7.858	7.100	6.641	6.499	5.736	5.404	5.004	4.759	4.548	4.304	4.240	4.081	3.771	3.418	3.136	2.872	2.729	2.547	3.029	3.330	2.481	2.002	1.843	1.852	1.733	1.515	1.811	1.880	1.925	1.506	1.508	1.659	1.772	2.900	9.334	29.33	60.09	292.9	882.0	261.2	17.02	1.146	0.784
585.0	152.8	151.0	112.1	69.53	44.26	34.25	40.35	45.23	73.79	116.6	68.96	67.60	120.3	1271	7788	767.1	20.67	15.53	13.54	11.85	11.11	10.57	10.63	9.693	9.372	9.387	9.012	9.670	9.034	8.579	8.229	8.217	7.503	6.764	6.952	6.327	5.658	5.450	4.953	4.948	4.431	4.336	3.944	3.885	3.538	3.548	3.515	3.005	2.659	2.565	2.453	2.117	2.430	2.886	2.510	1.877	1.629	1.789	1.526	1.416	1.554	1.471	1.797	1.690	1.459	1.573	1.411	1.662	3.243	7.786	14.54	68.25	371.4	769.5	223.3	8.636	0.889
590.0	145.4	136.7	107.2	63.33	41.00	33.44	37.55	39.72	56.87	104.5	85.85	62.62	69.05	333.1	3926	4600	189.6	14.70	12.11	10.42	9.663	8.747	8.931	8.285	8.055	7.597	7.425	7.669	7.650	7.338	7.066	6.897	6.153	5.776	5.747	5.306	4.837	4.642	4.330	3.992	3.758	3.702	3.512	3.380	3.096	2.918	2.847	2.735	2.406	2.196	2.098	1.873	1.784	2.096	2.292	2.065	1.577	1.597	1.345	1.273	1.295	1.301	1.484	1.642	1.417	1.367	1.327	1.368	1.797	2.773	4.151	16.15	86.59	300.2	538.7	350.1	17.23
595.0	138.0	127.9	103.6	61.45	39.93	32.34	37.00	39.13	48.82	77.80	106.9	66.61	59.51	109.0	997.4	5325	1674	18.92	11.24	9.565	8.356	7.801	7.603	7.041	6.768	6.425	6.218	6.062	6.404	5.985	5.821	5.502	5.457	4.603	4.961	4.321	4.109	3.778	3.500	3.406	3.133	3.338	2.912	2.762	2.610	2.551	2.389	2.172	2.025	1.852	1.691	1.669	1.405	1.607	1.937	2.013	1.739	1.450	1.194	1.081	1.114	1.060	1.119	1.275	1.329	1.408	1.198	1.183	1.300	1.509	1.731	4.377	19.96	67.62	150.7	458.6	275.8
600.0	133.4	122.9	102.0	58.86	39.47	30.15	33.39	38.36	45.15	63.42	109.4	79.55	56.32	58.97	252.3	2918	4119	64.90	11.33	8.985	7.905	6.679	6.539	6.350	5.897	5.713	5.578	5.385	5.525	4.983	5.041	4.845	4.454	4.260	4.137	4.001	3.812	3.243	3.013	2.952	2.908	2.715	2.508	2.368	2.260	2.051	2.164	1.936	1.803	1.738	1.479	1.512	1.309	1.271	1.512	1.777	1.820	1.447	1.074	1.089	1.071	1.061	0.998	1.183	1.205	1.381	1.180	1.306	1.164	1.131	1.343	1.753	5.134	15.80	34.41	154.2	471.4
605.0	128.4	126.1	91.01	51.79	36.48	29.45	33.40	39.78	42.56	57.99	99.34	98.70	60.02	48.52	81.44	951.6	5265	513.1	11.82	8.839	7.312	6.325	6.308	5.375	5.592	5.279	5.025	4.854	4.835	4.629	4.685	4.413	4.010	3.814	3.549	3.577	3.370	2.859	2.615	2.544	2.440	2.364	2.362	2.169	2.074	1.898	2.012	1.736	1.660	1.547	1.376	1.278	1.221	1.184	1.289	1.395	1.744	1.582	1.260	1.079	1.036	1.088	0.982	1.104	1.052	1.269	1.329	1.169	1.097	1.013	1.123	1.046	1.767	4.144	8.236	35.81	188.7
610.0	117.0	113.3	89.29	53.25	37.13	31.33	34.78	40.23	49.56	60.63	84.33	112.8	72.88	52.39	46.98	245.4	2891	3008	50.51	8.482	7.016	6.214	5.617	4.991	4.809	4.462	4.320	4.068	4.155	3.996	4.121	3.793	3.414	3.303	3.137	3.029	2.971	2.864	2.392	2.296	2.326	2.031	1.949	1.797	1.796	1.799	1.742	1.558	1.474	1.287	1.197	1.161	1.091	1.075	1.055	1.098	1.376	1.502	1.247	1.039	0.992	1.022	1.029	1.054	1.107	1.159	1.191	1.205	1.078	0.972	0.968	0.961	1.047	1.526	2.437	8.668	43.70
615.0	103.6	107.4	89.17	58.73	35.67	31.37	36.72	40.92	50.23	60.09	75.93	105.4	90.53	54.41	40.16	74.99	744.7	3800	586.6	10.70	6.784	5.759	4.891	4.605	4.193	4.079	3.953	3.614	3.739	3.534	3.663	3.231	3.159	2.955	2.599	2.598	2.540	2.485	2.241	1.820	1.807	1.617	1.653	1.653	1.488	1.490	1.577	1.469	1.327	1.063	1.041	1.038	0.863	0.999	0.979	0.949	1.089	1.248	1.255	1.039	1.022	1.085	0.932	1.048	1.056	0.894	1.120	1.277	1.251	0.946	0.833	0.811	0.811	0.860	1.078	2.500	10.35
620.0	111.0	99.24	77.94	52.44	33.02	33.01	36.77	40.53	47.72	59.70	70.45	88.25	100.3	56.17	37.77	37.02	188.2	2232	2652	40.11	6.824	5.131	4.511	4.368	3.881	3.805	3.394	3.215	3.154	3.012	3.176	2.921	2.720	2.642	2.429	2.415	2.253	2.014	2.107	1.829	1.599	1.463	1.414	1.522	1.526	1.428	1.477	1.266	1.071	1.064	0.982	0.894	0.841	0.939	0.957	0.880	0.909	1.068	1.070	1.082	1.049	0.978	0.870	0.886	1.043	0.988	1.071	0.990	1.182	1.040	0.978	0.829	0.725	0.746	0.736	1.091	2.890
625.0	105.2	100.2	81.40	49.32	32.95	34.57	36.26	35.87	46.60	58.40	69.55	77.77	100.4	59.69	38.62	28.33	58.06	751.7	3711	341.2	7.349	5.000	4.503	3.989	3.440	3.375	2.922	2.806	2.779	2.810	2.768	2.653	2.460	2.358	2.344	2.166	2.057	1.925	1.733	1.828	1.589	1.423	1.339	1.407	1.214	1.270	1.190	1.201	1.065	1.015	0.961	0.879	0.882	0.792	0.758	0.839	0.767	0.945	1.057	1.058	1.033	0.770	0.758	0.880	0.916	0.927	0.956	0.870	0.963	1.047	0.943	0.772	0.820	0.726	0.676	0.705	1.184
630.0	105.8	100.1	80.59	51.64	33.69	31.04	33.69	37.57	46.70	56.12	65.37	71.80	86.58	71.82	39.19	26.47	27.89	190.4	2183	2077	34.65	5.639	4.303	4.055	3.292	3.097	2.847	2.744	2.650	2.645	2.491	2.385	2.263	2.042	2.010	1.939	1.702	1.762	1.508	1.740	1.616	1.292	1.332	1.247	1.187	1.149	1.133	1.119	1.033	0.866	0.794	0.788	0.827	0.748	0.702	0.788	0.753	0.803	0.837	1.037	0.924	0.903	0.784	0.896	0.876	0.976	0.842	0.823	0.907	0.965	0.960	0.882	0.762	0.732	0.712	0.593	0.693
635.0	106.8	95.14	76.64	50.19	35.78	29.70	33.36	36.82	43.98	51.62	63.50	68.72	72.90	75.22	43.97	25.15	21.69	53.63	567.3	2900	457.7	7.041	4.629	4.069	3.356	2.975	2.648	2.445	2.291	2.364	2.291	2.181	2.086	1.882	1.826	1.808	1.523	1.512	1.471	1.545	1.635	1.410	1.317	1.003	0.934	1.014	1.060	1.007	0.903	0.800	0.816	0.712	0.708	0.667	0.733	0.678	0.729	0.656	0.785	0.735	0.937	0.852	0.813	0.906	0.803	0.835	0.799	0.762	0.865	0.754	0.893	1.039	0.879	0.743	0.682	0.497	0.577
640.0	105.5	92.22	71.27	47.87	36.22	28.86	33.48	34.81	44.11	52.99	61.63	65.61	67.47	72.09	50.22	26.22	20.59	22.88	138.4	1865	1838	24.33	4.763	3.505	3.139	2.847	2.559	2.312	2.436	2.285	2.034	2.173	2.086	1.976	1.863	1.688	1.462	1.520	1.372	1.410	1.399	1.558	1.172	1.087	0.898	0.984	0.913	0.858	0.837	0.697	0.753	0.652	0.620	0.573	0.797	0.625	0.755	0.689	0.874	0.678	0.809	0.771	0.832	0.827	0.753	0.684	0.790	0.754	0.809	0.780	0.796	0.909	0.904	0.707	0.681	0.600	0.520
645.0	101.3	98.05	75.86	47.83	32.94	27.43	30.50	35.15	41.94	49.80	60.71	65.20	62.89	63.55	56.21	28.06	18.88	16.00	38.70	667.4	2745	67.56	4.989	3.646	3.064	2.967	2.612	2.349	2.213	2.109	1.984	1.820	1.828	1.764	1.687	1.655	1.439	1.487	1.273	1.296	1.217	1.377	1.178	0.969	0.885	0.875	0.940	0.935	0.906	0.756	0.628	0.638	0.627	0.621	0.587	0.559	0.677	0.595	0.697	0.728	0.721	0.797	0.857	0.738	0.731	0.725	0.899	0.716	0.797	0.731	0.747	0.808	0.786	0.753	0.635	0.604	0.546
650.0	110.7	102.7	82.52	48.52	32.07	25.82	28.79	32.49	40.86	47.24	56.74	61.17	62.84	55.42	57.12	30.35	18.73	13.26	15.39	175.6	2317	963.1	7.868	3.873	3.178	2.757	2.538	2.399	2.024	2.260	1.871	1.815	1.785	1.863	1.481	1.434	1.463	1.439	1.246	1.253	1.081	1.200	1.347	1.098	1.000	0.998	0.770	0.922	0.838	0.698	0.626	0.642	0.620	0.679	0.522	0.588	0.598	0.627	0.599	0.721	0.719	0.791	0.696	0.820	0.714	0.698	0.749	0.749	0.712	0.794	0.732	0.665	0.687	0.714	0.672	0.649	0.630
