Sample:	'1
File name:	金博利达门口.FD3
Run date:	'14:38:23, 05/24/2023
Operator:	aa
Comment:	'

Instrument
Model:	F-2700 FL Spectrophotometer
Serial number:	2086-009
ROM Version:	4J14000 07

Instrument parameters
Measurement type:	3-D scan
Data mode:	Fluorescence
EX  Start WL:	220.0 nm
EX  End WL:	600.0 nm
EX Sampling interval:	5.0 nm
EM  Start WL:	230.0 nm
EM  End WL:	650.0 nm
EM Sampling interval:	5.0 nm
Scan speed:	12000 nm/min
EX Slit:	5.0 nm
EM Slit:	5.0 nm
PMT Voltage:	700 V
Response:	0.04 s
Corrected spectra:	Off
Contour interval:	50.000

Peak integration
Integration method:	Rectangular
Sensitivity:	1
Threshold:	1.000

Peaks
No.	ApexEX/EM(nm)	Height(Data)
1	225.0/585.0	42.60
2	230.0/340.0	905.9
3	230.0/605.0	35.88
4	240.0/260.0	253.2
5	245.0/270.0	257.1
6	245.0/395.0	813.4
7	245.0/540.0	186.8
8	250.0/550.0	152.1
9	255.0/280.0	436.4
10	255.0/565.0	132.9
11	260.0/285.0	456.8
12	260.0/400.0	812.1
13	260.0/575.0	113.7
14	265.0/410.0	812.7
15	265.0/585.0	98.51
16	270.0/300.0	867.3
17	270.0/600.0	90.18
18	275.0/305.0	 1035
19	275.0/385.0	841.7
20	275.0/610.0	83.17
21	280.0/310.0	976.8
22	280.0/340.0	874.8
23	280.0/625.0	68.30
24	285.0/315.0	927.5
25	285.0/635.0	53.97
26	290.0/325.0	845.0
27	305.0/345.0	492.5
28	310.0/350.0	458.4
29	315.0/355.0	477.8
30	320.0/365.0	503.9
31	325.0/370.0	513.2
32	510.0/280.0	2.464
33	520.0/285.0	2.870
34	530.0/290.0	2.803
35	540.0/295.0	3.869
36	545.0/300.0	4.593
37	550.0/305.0	4.852
38	560.0/310.0	4.518
39	570.0/315.0	4.759
40	575.0/320.0	4.662
41	580.0/325.0	4.453

Data points
	220.0	225.0	230.0	235.0	240.0	245.0	250.0	255.0	260.0	265.0	270.0	275.0	280.0	285.0	290.0	295.0	300.0	305.0	310.0	315.0	320.0	325.0	330.0	335.0	340.0	345.0	350.0	355.0	360.0	365.0	370.0	375.0	380.0	385.0	390.0	395.0	400.0	405.0	410.0	415.0	420.0	425.0	430.0	435.0	440.0	445.0	450.0	455.0	460.0	465.0	470.0	475.0	480.0	485.0	490.0	495.0	500.0	505.0	510.0	515.0	520.0	525.0	530.0	535.0	540.0	545.0	550.0	555.0	560.0	565.0	570.0	575.0	580.0	585.0	590.0	595.0	600.0
230.0	24.77	668.6	 2762	 1329	81.79	5.163	5.447	4.173	3.367	3.736	3.210	2.942	2.154	2.019	1.709	1.593	1.256	1.105	1.323	1.157	0.827	0.886	0.877	1.046	0.713	0.778	0.693	0.617	0.594	0.636	0.632	0.446	0.439	0.483	0.457	0.465	0.409	0.450	0.384	0.378	0.428	0.487	0.522	0.519	0.403	0.337	0.575	3.353	7.776	7.452	4.522	1.346	0.355	0.250	0.209	0.186	0.241	0.208	0.181	0.214	0.134	0.157	0.170	0.192	0.183	0.128	0.142	0.131	0.129	0.125	0.133	0.104	0.108	0.066	0.089	0.084	0.127
235.0	56.61	170.9	 1214	 2564	786.6	114.4	5.908	3.840	4.587	4.216	2.800	3.061	2.088	2.431	2.246	1.554	1.512	1.094	1.129	0.920	0.930	0.825	0.904	0.983	0.700	0.657	0.484	0.673	0.555	0.494	0.495	0.571	0.468	0.535	0.383	0.484	0.455	0.495	0.369	0.342	0.348	0.546	0.445	0.569	0.562	0.454	0.406	1.023	2.435	3.991	7.297	8.529	5.662	2.095	0.398	0.215	0.293	0.246	0.141	0.231	0.169	0.189	0.135	0.295	0.157	0.093	0.141	0.081	0.253	0.101	0.122	0.108	0.095	0.155	0.106	0.098	0.083
240.0	77.82	92.96	321.9	 1548	 2940	655.7	62.95	4.987	4.596	5.775	3.326	3.884	2.646	2.478	2.226	1.485	1.518	1.082	1.271	1.044	0.988	0.870	0.862	1.106	0.864	0.785	0.667	0.617	0.668	0.705	0.462	0.531	0.552	0.496	0.384	0.358	0.439	0.476	0.385	0.441	0.381	0.402	0.332	0.330	0.535	0.591	0.459	0.560	0.767	1.159	2.795	7.072	10.01	10.47	5.157	1.219	0.316	0.255	0.194	0.227	0.164	0.211	0.215	0.233	0.176	0.111	0.191	0.091	0.272	0.068	0.106	0.106	0.111	0.101	0.170	0.139	0.111
245.0	45.97	105.0	114.0	437.3	 2284	 3232	522.2	29.84	5.797	6.342	4.118	4.408	2.703	2.192	2.305	1.637	1.525	1.139	1.227	1.420	1.139	0.807	0.903	1.363	0.751	0.767	0.793	0.619	0.577	0.594	0.534	0.494	0.521	0.462	0.273	0.308	0.377	0.480	0.539	0.478	0.332	0.347	0.310	0.333	0.445	0.446	0.569	0.713	0.563	0.485	0.765	2.170	5.039	10.99	12.65	10.61	4.783	0.789	0.188	0.204	0.176	0.160	0.160	0.111	0.118	0.116	0.273	0.130	0.154	0.105	0.148	0.162	0.132	0.103	0.110	0.038	0.104
250.0	17.39	66.59	144.9	170.9	634.3	 2184	 3550	 1846	158.4	9.538	5.567	5.025	3.533	2.858	2.693	1.953	2.010	1.571	1.234	1.174	1.199	1.144	0.983	1.292	0.824	0.826	0.828	0.678	0.638	0.625	0.561	0.469	0.462	0.429	0.372	0.352	0.414	0.363	0.484	0.484	0.416	0.504	0.473	0.371	0.382	0.343	0.467	0.697	0.612	0.710	0.637	0.794	1.356	3.228	5.471	10.11	14.86	16.73	13.06	5.353	0.993	0.184	0.197	0.174	0.129	0.225	0.189	0.157	0.141	0.173	0.138	0.153	0.120	0.085	0.137	0.089	0.134
255.0	12.24	25.47	84.40	217.6	232.8	518.3	 1819	 5316	 2897	213.6	8.472	6.618	4.371	3.811	3.691	2.288	2.342	1.765	1.471	1.422	1.221	1.027	1.087	1.282	0.885	0.889	0.883	0.810	0.674	0.560	0.623	0.449	0.530	0.427	0.402	0.403	0.313	0.267	0.376	0.396	0.470	0.389	0.524	0.391	0.377	0.300	0.443	0.456	0.453	0.528	0.822	1.148	0.863	0.972	1.422	2.534	4.485	10.60	24.80	32.36	20.91	7.009	0.822	0.203	0.202	0.182	0.225	0.176	0.125	0.108	0.126	0.155	0.146	0.092	0.109	0.112	0.200
260.0	10.10	15.73	31.39	155.1	253.2	172.4	471.8	 3103	 7051	 2484	126.7	9.309	5.633	4.688	3.643	2.464	2.673	2.116	1.525	1.463	1.433	1.168	1.012	1.359	0.885	1.017	0.781	0.756	0.819	0.553	0.737	0.597	0.466	0.532	0.416	0.396	0.428	0.287	0.464	0.313	0.341	0.277	0.471	0.373	0.418	0.356	0.368	0.258	0.363	0.324	0.571	1.038	1.261	1.127	0.770	0.764	1.293	2.723	8.790	22.76	34.06	34.68	17.66	3.290	0.462	0.157	0.202	0.232	0.229	0.178	0.114	0.128	0.126	0.147	0.064	0.161	0.062
265.0	16.34	15.03	16.41	65.03	237.8	221.9	140.2	875.3	 4821	 8373	 1906	49.56	8.894	5.277	4.380	3.116	2.803	2.454	1.776	1.783	1.541	1.305	0.962	1.483	0.990	1.011	0.765	0.684	0.865	0.636	0.889	0.507	0.602	0.589	0.455	0.358	0.455	0.416	0.394	0.323	0.331	0.468	0.411	0.449	0.542	0.408	0.326	0.343	0.397	0.314	0.292	0.573	0.770	1.524	1.496	0.850	0.601	0.940	2.317	6.120	14.38	32.23	43.05	30.91	10.79	1.233	0.207	0.302	0.250	0.127	0.094	0.219	0.139	0.198	0.093	0.148	0.096
270.0	30.34	26.92	19.34	27.62	96.52	257.1	242.3	248.3	 1297	 4975	 8104	 3800	114.4	9.948	6.184	4.549	3.613	2.538	2.028	1.769	1.640	1.532	1.361	1.646	0.994	1.076	1.055	0.792	0.853	0.715	0.758	0.675	0.568	0.581	0.456	0.416	0.514	0.463	0.413	0.534	0.408	0.376	0.509	0.398	0.495	0.487	0.404	0.463	0.409	0.333	0.312	0.422	0.418	0.800	1.153	1.541	1.530	1.020	0.987	1.637	3.548	8.622	17.51	29.39	36.60	37.52	20.42	7.893	1.060	0.222	0.204	0.203	0.182	0.147	0.114	0.143	0.149
275.0	69.99	54.04	44.78	26.29	37.16	99.91	302.0	308.0	347.0	 1177	 3513	9999.9	 5751	136.7	9.172	6.038	4.613	2.952	2.316	2.355	1.723	1.575	1.320	1.961	1.057	1.051	1.167	0.562	0.910	0.767	0.664	0.709	0.533	0.661	0.717	0.570	0.521	0.611	0.535	0.572	0.495	0.507	0.535	0.581	0.618	0.536	0.601	0.476	0.473	0.357	0.385	0.342	0.376	0.376	0.539	0.690	1.467	2.175	2.257	1.111	1.095	2.311	4.367	6.898	10.28	22.23	47.37	56.96	30.81	7.607	0.702	0.298	0.151	0.168	0.129	0.190	0.198
280.0	116.2	110.4	72.90	36.51	28.65	48.40	175.9	436.4	272.4	330.3	919.8	 5469	9999.9	 1624	81.60	8.362	6.162	3.662	3.546	2.476	1.809	1.911	1.500	1.982	1.150	1.157	1.167	1.012	0.752	0.812	0.547	0.726	0.769	0.640	0.752	0.746	0.761	0.679	0.621	0.553	0.619	0.548	0.572	0.626	0.714	0.735	0.632	0.676	0.498	0.496	0.365	0.418	0.378	0.379	0.385	0.424	0.718	1.318	2.464	2.355	1.325	1.086	1.413	2.054	2.734	5.811	16.07	38.73	62.86	42.63	20.90	2.598	0.258	0.142	0.189	0.176	0.161
285.0	156.9	149.2	116.4	62.91	42.38	41.23	85.64	322.8	456.8	225.0	314.6	 1517	 7186	9999.9	 1236	33.83	8.012	5.011	3.651	2.844	2.055	1.552	1.661	2.334	1.218	1.209	1.331	1.118	0.949	1.008	0.699	0.835	0.594	0.865	0.658	0.954	0.857	0.833	0.730	0.780	0.775	0.679	0.551	0.780	0.945	0.940	0.742	0.748	0.700	0.523	0.455	0.470	0.483	0.461	0.263	0.385	0.545	0.767	1.243	2.316	2.870	1.860	1.059	1.012	1.089	1.880	4.268	10.31	26.14	50.85	67.23	35.05	11.38	0.783	0.207	0.168	0.227
290.0	233.3	232.4	178.0	110.0	74.77	66.53	86.88	169.5	416.2	516.1	310.3	532.1	 1964	 6277	9999.9	 3596	68.75	7.984	5.162	3.388	2.742	2.161	1.922	2.438	1.475	1.266	1.299	1.121	0.885	0.999	0.733	0.802	0.641	0.651	0.850	1.034	1.030	0.967	0.918	0.938	0.984	0.862	0.871	1.020	1.093	1.206	1.141	1.012	0.941	0.641	0.598	0.665	0.568	0.546	0.460	0.473	0.592	0.607	0.831	1.120	1.848	2.503	2.803	2.422	1.642	1.247	1.845	3.194	6.785	13.76	26.51	40.09	46.21	45.56	21.76	8.053	0.794
295.0	304.3	319.2	253.4	152.9	111.7	102.1	119.3	165.2	260.5	547.4	757.4	475.4	691.4	 1587	 4334	9999.9	 5766	81.30	7.640	4.673	3.433	2.976	2.213	3.273	1.749	1.549	1.119	1.315	1.035	1.016	0.952	0.774	0.793	0.731	0.978	1.069	1.224	1.274	1.099	1.261	1.112	1.191	1.210	1.123	1.279	1.330	1.267	1.312	1.006	0.805	0.787	0.875	0.702	0.691	0.702	0.629	0.735	0.889	0.893	1.064	1.151	1.441	2.042	3.255	3.869	2.882	2.007	1.844	2.697	3.979	6.832	9.664	13.23	28.87	59.87	68.00	32.38
300.0	337.6	357.2	312.0	197.6	142.6	128.8	150.5	191.6	260.1	430.1	867.3	747.4	498.9	585.1	 1166	 5351	9999.9	971.1	48.26	6.816	4.403	3.371	2.484	4.167	2.078	1.731	1.443	1.348	1.317	1.121	1.065	0.733	0.687	0.884	0.919	1.278	1.383	1.368	1.275	1.188	1.071	1.142	1.167	1.153	1.453	1.540	1.503	1.412	1.180	1.030	0.994	0.900	0.809	0.817	0.679	0.740	0.931	0.925	1.051	1.133	1.295	1.391	1.611	2.324	3.657	4.593	3.690	2.264	2.175	2.223	2.606	3.168	3.754	7.524	19.92	47.77	75.20
305.0	365.5	398.6	339.0	230.7	180.4	162.2	189.7	234.2	296.7	419.2	693.1	 1035	642.2	425.3	449.5	 1440	 7867	9999.9	761.1	20.68	6.018	4.297	2.775	4.521	1.983	1.933	1.402	1.593	1.311	0.943	1.137	0.870	0.812	0.934	1.104	1.312	1.371	1.261	1.432	1.038	1.162	1.141	1.376	1.409	1.502	1.427	1.637	1.610	1.371	1.029	1.072	0.981	0.949	0.779	0.780	0.948	1.013	1.013	1.251	1.339	1.424	1.501	1.746	2.054	2.564	3.614	4.852	4.471	3.038	2.542	2.117	1.949	1.818	2.619	5.427	12.48	31.88
310.0	375.1	441.6	406.9	269.2	216.8	194.8	217.5	281.6	354.8	467.3	614.8	873.5	976.8	594.7	359.7	461.5	 2045	 6000	 7371	 2694	45.48	6.059	4.125	5.975	2.281	2.346	1.834	1.582	1.310	1.042	1.174	1.017	0.851	0.909	1.163	1.382	1.562	1.421	1.372	1.339	1.255	1.245	1.433	1.497	1.742	1.573	1.672	1.557	1.498	1.156	1.137	1.170	0.994	1.060	0.843	0.960	1.085	1.216	1.380	1.506	1.449	1.689	2.178	2.245	2.458	2.870	3.610	4.188	4.518	4.215	3.176	2.122	1.750	1.818	2.108	3.468	7.865
315.0	433.3	492.6	446.0	303.4	249.6	219.6	249.7	317.6	399.0	524.2	637.4	771.1	887.5	927.5	489.1	283.7	568.8	 1415	 3338	 9274	 3733	54.04	6.193	8.627	2.902	3.063	2.093	1.997	1.473	1.270	1.092	1.118	0.720	0.938	1.003	1.227	1.421	1.436	1.400	1.490	1.259	1.266	1.562	1.518	1.613	1.728	1.855	1.763	1.493	1.383	1.211	1.174	1.167	1.149	0.966	1.119	1.319	1.497	1.558	1.860	1.700	2.055	2.366	2.509	2.879	2.900	3.082	3.318	3.746	4.162	4.759	3.817	2.539	1.672	1.601	1.574	2.633
320.0	479.5	579.4	523.7	344.3	274.0	240.2	273.0	348.9	437.9	558.9	673.2	784.3	792.7	895.9	729.2	312.1	268.3	397.4	838.2	 4831	 9383	700.4	33.67	11.88	3.527	3.329	1.946	2.175	1.305	1.129	1.146	1.061	0.840	1.009	1.016	1.387	1.371	1.352	1.371	1.418	1.459	1.587	1.510	1.666	1.740	1.944	2.032	2.112	1.833	1.454	1.264	1.260	1.084	1.303	1.007	1.319	1.438	1.520	1.661	1.873	1.855	2.248	2.579	2.597	2.802	3.168	2.873	3.615	3.450	3.545	4.058	4.662	4.143	2.740	1.802	1.187	1.462
325.0	511.6	658.3	651.8	421.6	312.8	274.7	303.2	365.9	465.0	596.2	712.8	814.4	804.4	775.7	845.0	469.1	233.7	191.6	252.0	 1253	 6293	 5793	564.4	25.57	4.707	4.360	2.757	2.273	1.659	1.339	1.290	1.170	0.949	0.881	1.001	1.414	1.337	1.331	1.319	1.517	1.445	1.599	1.475	1.755	2.086	2.221	2.158	2.500	2.152	1.615	1.449	1.560	1.361	1.255	1.075	1.348	1.506	1.744	1.835	2.010	1.906	2.442	2.451	2.845	2.873	2.989	3.170	3.537	3.447	3.339	3.609	3.799	4.453	4.210	2.987	1.524	1.446
330.0	561.4	730.8	742.1	524.2	386.5	303.8	329.4	388.1	489.0	623.3	735.0	850.4	835.7	748.7	698.2	626.1	390.2	188.4	147.2	345.2	 1622	 4532	 6216	 6976	34.18	6.371	4.035	3.088	2.075	1.625	1.679	1.219	1.055	0.979	1.265	1.232	1.246	1.490	1.399	1.583	1.404	1.548	1.565	1.799	2.117	2.365	2.272	2.795	2.595	2.048	1.842	1.884	1.408	1.329	1.294	1.363	1.564	1.676	1.880	2.037	2.175	2.565	2.530	2.991	3.170	3.295	3.490	3.652	3.548	3.762	3.491	3.368	3.461	3.543	3.494	3.108	2.666
335.0	584.8	798.8	836.1	613.1	456.0	355.1	362.5	421.6	507.6	644.9	759.6	857.1	858.3	768.0	650.2	538.0	559.3	318.3	161.9	169.9	428.4	 1073	 3124	9999.9	 2990	44.69	5.596	4.109	2.731	1.891	1.914	1.404	1.269	1.044	1.203	1.323	1.415	1.594	1.426	1.569	1.411	1.384	1.790	1.792	2.207	2.645	2.745	2.998	2.695	2.189	2.182	2.129	1.688	1.548	1.526	1.540	1.781	1.817	2.199	2.248	2.326	2.570	2.795	3.074	3.063	3.356	3.661	3.787	3.783	3.737	3.634	3.346	3.175	3.161	2.895	2.990	3.646
340.0	615.1	804.7	905.9	674.0	509.7	396.2	386.7	449.1	536.0	659.3	760.8	865.8	874.8	780.6	662.3	504.3	510.3	475.7	232.6	158.7	182.4	307.3	797.6	 9836	 8094	590.5	23.74	5.413	3.568	2.654	2.098	1.712	1.212	1.330	1.155	1.233	1.356	1.481	1.722	1.603	1.403	1.556	1.678	1.900	2.325	2.577	2.929	3.079	2.963	2.522	2.128	2.224	2.056	1.714	1.559	1.767	2.006	1.859	2.156	2.174	2.526	2.478	2.800	3.078	3.138	3.356	3.437	3.668	3.889	3.697	3.596	3.338	3.311	2.991	2.848	2.634	2.831
345.0	597.0	813.0	871.2	690.3	537.1	429.1	423.5	467.4	562.7	670.1	753.0	841.1	862.0	780.7	676.3	509.5	447.2	492.5	374.8	194.5	157.4	161.2	245.1	 2676	 5906	 9596	453.9	11.01	4.718	3.394	2.445	1.927	1.394	1.444	1.245	1.272	1.461	1.394	1.685	1.618	1.598	1.627	1.683	2.031	2.220	2.700	2.552	2.854	2.825	2.253	2.267	2.323	2.036	2.125	1.685	1.972	2.139	1.864	2.284	2.420	2.620	2.387	2.747	2.906	3.140	3.245	3.527	3.702	3.783	3.727	3.638	3.507	3.593	3.091	2.685	2.634	2.464
350.0	567.9	756.2	863.2	718.0	595.5	505.9	481.1	511.2	586.0	678.2	753.7	845.7	847.1	778.2	686.7	542.6	459.4	427.8	458.4	358.0	219.8	174.9	162.3	682.6	 1571	 6481	 5420	 1859	29.35	4.852	3.251	2.383	1.706	1.385	1.341	1.252	1.406	1.401	1.388	1.485	1.523	1.692	1.728	1.880	2.048	2.340	2.565	2.819	2.692	2.336	2.431	2.648	2.228	2.164	1.938	2.095	2.277	2.181	2.488	2.516	2.570	2.526	2.912	3.150	3.181	3.215	3.371	3.593	3.642	3.744	3.630	3.540	3.375	3.112	2.884	2.731	2.676
355.0	556.1	727.7	825.2	730.3	647.6	573.6	557.4	573.0	627.2	713.6	766.0	837.0	832.9	779.1	702.6	579.7	503.3	444.8	425.4	477.8	377.7	238.2	190.8	275.7	434.8	 1522	 2912	 7738	 2633	35.56	4.705	3.248	2.238	1.702	1.467	1.325	1.554	1.618	1.535	1.528	1.592	1.744	1.675	1.887	2.056	2.399	2.259	2.783	2.642	2.403	2.435	2.798	2.451	2.464	2.088	2.514	2.313	2.472	2.584	2.803	2.700	3.067	2.947	3.171	3.202	3.202	3.288	3.478	3.646	3.843	3.533	3.463	3.478	3.215	2.928	2.880	2.760
360.0	538.4	698.0	799.5	740.9	681.2	616.8	620.0	610.8	669.5	720.1	772.6	827.2	817.0	776.7	712.5	613.6	539.0	477.8	445.2	461.0	496.3	338.6	237.1	218.9	207.5	416.9	756.8	 4588	 7494	520.3	18.88	4.500	2.718	2.176	1.813	1.432	1.538	1.443	1.672	1.521	1.608	1.802	1.760	1.826	1.821	2.442	2.278	2.604	2.555	2.267	2.529	2.677	2.594	2.493	2.252	2.601	2.433	2.501	2.678	2.731	2.783	2.950	3.043	3.203	3.236	3.491	3.555	3.491	3.679	3.570	3.420	3.412	3.481	3.669	3.150	3.068	3.182
365.0	525.6	677.3	751.4	749.4	718.4	655.3	651.7	643.0	690.2	751.3	781.6	819.9	820.1	771.3	721.4	631.8	572.8	515.8	478.6	459.7	503.9	462.0	303.9	239.1	183.9	190.6	234.9	 1256	 5792	 4403	391.9	7.840	3.514	2.366	1.959	1.701	1.515	1.656	1.715	1.757	1.572	1.734	1.806	1.595	1.880	2.134	2.213	2.680	2.507	2.247	2.532	2.681	2.818	2.815	2.459	2.713	3.071	2.559	2.718	2.870	2.936	3.250	3.256	3.271	3.091	3.608	3.530	3.409	3.683	3.405	3.318	3.541	3.557	3.337	3.181	3.260	3.321
370.0	517.0	675.1	753.7	752.5	747.3	711.7	690.1	687.5	733.3	766.3	799.1	832.6	811.1	783.8	728.2	657.5	609.6	568.8	534.6	500.3	490.3	513.2	444.3	308.2	224.5	180.2	151.1	347.6	 1570	 4066	 4922	 1517	22.69	3.809	2.623	2.117	1.768	1.748	1.696	1.783	1.682	1.798	1.757	1.761	2.020	2.269	2.313	2.539	2.522	2.211	2.391	2.767	2.542	2.938	2.543	2.680	2.993	2.951	2.880	2.902	2.985	3.240	3.358	3.249	3.285	3.540	3.583	3.485	3.574	3.503	3.599	3.485	3.553	3.357	3.163	3.615	3.349
375.0	520.6	661.3	759.0	760.6	768.3	769.3	714.1	736.1	761.9	790.2	815.0	831.6	818.9	788.2	734.1	668.4	641.6	609.7	582.0	557.2	531.7	501.7	514.8	443.6	297.4	222.0	170.7	175.6	419.2	976.5	 2799	 6502	472.6	25.35	3.723	2.619	2.337	1.908	1.883	1.873	1.796	1.700	1.745	1.888	2.081	2.243	2.161	2.497	2.398	2.510	2.273	2.837	2.916	2.987	3.055	2.999	2.859	3.278	3.076	3.112	3.371	3.084	3.428	3.320	3.559	3.499	3.766	3.768	3.740	3.595	3.730	3.427	3.417	3.328	3.595	3.848	3.553
380.0	515.4	662.8	732.2	761.8	771.5	779.1	752.0	764.2	771.9	807.8	819.7	835.2	820.6	792.1	737.5	681.5	652.9	636.4	609.8	582.8	564.2	523.2	512.1	516.6	382.1	268.8	203.3	163.4	183.7	279.8	741.4	 4170	 5383	404.9	10.89	3.408	2.596	2.186	1.945	1.771	1.776	1.667	1.829	1.738	1.985	2.058	2.229	2.637	2.494	2.300	2.232	2.977	2.683	3.041	2.942	3.256	3.043	3.346	3.208	3.151	3.449	3.238	3.373	3.379	3.512	3.478	3.327	3.586	3.755	3.728	3.789	3.460	3.426	3.223	3.559	3.763	3.662
385.0	517.9	649.2	712.5	770.1	782.1	785.5	763.5	767.2	792.9	805.1	822.1	841.7	811.8	783.1	737.5	687.7	665.6	655.6	632.1	608.3	586.1	549.2	518.9	516.6	469.2	323.9	239.8	187.3	153.7	146.2	224.8	 1187	 4656	 3558	54.24	5.808	3.357	2.657	2.461	2.063	1.840	1.731	1.964	1.979	2.017	2.269	2.407	2.531	2.485	2.267	2.176	3.054	2.928	3.062	3.050	3.097	3.111	3.063	3.370	3.324	3.189	3.246	3.388	3.175	3.455	3.445	3.360	3.510	3.580	3.686	3.472	3.670	3.775	3.500	3.562	3.599	3.902
390.0	527.9	636.6	724.6	775.4	800.1	797.6	772.9	783.0	801.2	810.7	821.6	830.9	807.7	777.6	737.5	690.9	674.4	665.9	648.8	634.0	613.3	580.6	542.5	506.1	492.8	427.3	307.2	231.7	182.1	144.1	130.3	318.5	 1296	 3358	 3762	 1073	18.49	3.427	2.806	2.684	2.219	1.875	2.106	2.001	2.000	2.057	2.132	2.520	2.394	2.223	2.287	2.972	2.828	3.175	3.161	3.161	3.203	3.175	3.465	3.273	3.276	3.476	3.445	3.428	3.473	3.604	3.589	3.786	3.652	3.539	3.354	3.633	3.796	3.562	3.764	3.686	3.792
395.0	511.4	647.6	738.1	766.3	805.0	813.4	798.1	806.0	810.6	814.6	821.8	812.5	796.3	767.9	725.8	692.7	677.5	668.2	662.5	652.6	631.1	604.4	569.4	528.9	486.1	468.2	412.7	293.3	224.3	178.5	136.2	142.6	336.5	803.7	 2328	 4749	 1585	20.33	3.638	3.127	2.437	2.370	2.075	2.188	2.140	2.374	2.329	2.492	2.489	2.260	2.336	3.021	2.634	3.062	3.282	3.230	3.256	3.216	3.193	3.298	3.365	3.658	3.249	3.434	3.346	3.408	3.572	3.767	3.981	3.506	3.443	3.439	3.515	3.587	3.730	3.690	4.090
400.0	527.7	625.2	736.7	756.8	809.7	812.0	807.6	803.5	812.1	808.7	811.6	799.5	787.6	769.5	721.1	687.5	676.1	670.9	665.1	657.1	631.4	616.5	583.9	549.0	499.9	464.5	461.0	360.1	261.0	208.2	158.6	122.7	133.9	217.9	617.6	 3175	 4822	342.5	8.148	3.959	2.651	2.686	2.343	2.232	2.213	2.497	2.135	2.564	2.394	2.234	2.471	3.111	2.752	2.944	3.245	3.244	3.278	3.406	3.082	3.422	3.372	3.422	3.238	3.368	3.236	3.312	3.632	3.511	3.752	3.437	3.449	3.382	3.207	3.669	3.479	3.670	3.959
405.0	522.2	610.8	712.8	753.8	807.0	805.5	801.0	808.1	807.8	808.0	810.1	781.2	780.9	751.8	706.4	685.2	666.7	665.6	663.6	654.0	638.4	624.1	591.8	560.2	516.1	467.6	454.8	421.3	307.2	235.0	182.6	132.3	100.8	96.16	170.2	914.6	 4007	 2981	46.89	5.870	3.486	2.620	2.479	2.307	2.664	2.232	2.192	2.674	2.427	2.302	2.370	2.964	2.719	3.113	3.203	3.156	3.240	3.351	3.391	3.337	3.213	3.372	3.357	3.275	3.361	3.288	3.254	3.624	3.597	3.342	3.469	3.629	3.134	3.591	3.433	3.392	3.564
410.0	514.2	611.0	704.1	757.4	782.4	805.6	797.2	805.3	805.3	812.7	790.9	777.4	770.4	734.2	700.0	666.7	653.3	653.6	653.8	642.0	632.2	616.4	596.8	568.6	528.9	485.4	449.2	432.6	382.8	286.7	212.0	157.2	111.7	82.77	80.57	233.0	 1114	 2819	 3218	 1034	16.17	3.470	2.724	2.512	2.647	2.442	2.316	2.438	2.436	2.258	2.394	3.019	2.822	3.023	3.121	3.106	3.111	3.320	3.353	3.354	3.287	3.301	3.361	3.487	3.376	3.155	3.268	3.409	3.277	3.235	3.499	3.330	3.420	3.560	3.411	3.296	3.654
415.0	513.6	615.1	666.7	738.7	768.0	791.7	787.6	806.6	801.2	796.1	776.2	762.5	747.6	717.4	677.1	653.0	633.5	627.6	637.6	629.4	619.7	608.6	588.2	573.4	537.1	502.5	459.0	418.2	405.8	360.2	252.7	182.4	131.6	95.53	73.36	90.17	274.3	668.2	 2086	 4929	358.4	15.17	3.615	2.971	2.899	2.660	2.359	2.385	2.524	2.380	2.438	2.957	2.779	2.879	3.117	2.897	3.131	3.104	3.560	3.409	3.337	3.416	3.235	3.405	3.303	3.192	3.235	3.158	3.521	3.166	3.486	3.081	3.205	3.234	3.369	3.346	3.564
420.0	482.8	599.7	680.6	723.3	756.9	776.8	787.1	788.0	803.1	788.0	770.2	744.3	732.2	695.3	668.5	628.8	614.8	613.3	618.1	616.4	603.9	600.1	584.9	565.6	535.5	509.3	464.3	424.3	395.5	383.3	296.8	203.1	150.8	108.3	79.93	65.83	93.02	171.0	558.5	 3541	 2922	295.7	6.598	3.446	3.314	2.481	2.516	2.343	2.466	2.124	2.239	2.782	2.896	3.192	3.003	3.044	3.144	3.166	3.499	3.139	3.192	3.296	3.345	3.428	3.162	3.463	3.326	3.354	3.069	2.990	3.313	3.156	3.190	3.266	3.344	3.236	3.636
425.0	465.6	581.9	656.5	703.4	738.9	771.1	770.3	779.1	780.4	778.3	760.7	735.0	713.8	679.3	642.1	616.0	600.7	591.3	599.0	595.4	586.8	589.3	570.9	560.3	534.9	509.2	469.9	429.4	390.3	373.7	338.2	235.6	166.0	123.5	90.32	68.77	59.16	65.06	143.4	 1054	 3158	 2570	42.93	5.146	3.380	2.805	2.492	2.604	2.530	2.123	2.288	2.903	2.911	3.185	2.880	3.326	3.156	3.104	3.519	3.054	3.025	3.375	3.445	3.455	3.256	3.124	3.227	3.230	3.112	3.361	3.170	3.051	3.294	3.195	3.294	3.003	3.447
430.0	489.4	554.5	642.5	688.3	726.2	740.5	764.3	779.2	779.2	773.3	753.7	727.8	697.6	659.7	619.2	591.5	570.1	567.5	570.9	569.8	567.7	566.9	556.1	546.5	529.2	502.8	469.2	435.7	397.3	362.1	336.4	282.2	199.5	142.1	105.7	81.14	61.38	47.75	56.82	253.9	899.3	 2341	 2748	924.3	14.93	3.468	2.595	2.679	2.537	2.225	2.299	2.886	2.794	3.169	2.723	3.248	2.925	3.086	3.318	3.235	3.199	3.413	3.302	3.182	3.130	3.005	3.067	3.193	2.976	2.994	2.956	2.972	2.973	2.906	3.101	2.904	3.213
435.0	778.0	562.5	626.4	660.5	703.3	724.1	745.4	769.8	771.0	764.5	745.1	722.7	681.9	638.8	598.5	559.9	542.9	536.5	544.2	543.8	543.7	538.6	533.5	535.5	513.3	496.0	466.3	441.1	403.6	365.3	324.9	287.7	245.7	167.5	122.7	94.35	73.03	53.90	44.50	79.85	217.2	554.8	 1820	 4081	331.9	14.21	3.528	2.934	2.691	2.255	2.272	2.656	2.735	2.812	2.725	2.856	2.933	3.239	3.055	3.070	3.129	3.293	2.993	3.241	2.953	3.043	2.914	3.069	2.942	2.933	2.886	3.076	2.906	2.754	2.926	2.934	2.903
440.0	 1148	595.2	607.2	655.8	688.4	706.6	729.8	754.3	759.4	755.1	727.3	709.1	660.5	624.4	576.5	543.3	522.5	517.2	523.4	521.9	521.4	521.1	514.7	519.9	499.9	486.3	459.8	437.1	403.5	366.6	320.5	279.8	257.0	194.4	137.4	104.2	81.11	59.02	46.60	45.61	68.27	139.1	487.9	 2818	 3945	264.8	6.073	3.478	2.641	2.370	2.273	2.540	2.667	2.854	2.674	2.958	2.995	3.211	3.103	3.111	3.240	3.340	3.183	2.966	2.915	3.082	3.061	2.977	3.006	2.882	3.023	2.785	3.056	2.943	2.904	3.197	3.081
445.0	 1374	816.4	574.6	632.5	658.9	693.7	708.5	728.5	741.3	734.3	723.3	685.4	650.8	597.0	559.5	517.7	509.0	495.7	500.6	496.7	499.3	494.4	496.2	501.7	484.6	470.8	450.0	426.9	403.1	368.4	323.3	276.4	246.8	217.4	154.0	114.5	88.21	67.95	51.38	41.97	37.81	48.21	122.7	834.0	 3967	 2251	36.54	4.553	3.076	2.525	2.392	2.720	2.516	2.735	2.687	2.831	2.960	3.177	2.887	3.371	3.003	3.034	3.055	2.981	3.025	3.295	2.803	2.727	2.750	2.642	2.922	2.533	2.785	2.815	2.567	3.067	2.869
450.0	 1035	 1476	646.4	600.7	620.3	663.7	669.7	690.6	716.8	706.9	699.1	659.2	619.7	569.7	528.5	490.0	473.2	464.6	466.2	466.4	465.7	463.6	466.7	468.5	456.1	447.1	429.3	413.4	391.0	361.4	322.7	275.9	235.2	212.5	180.8	131.8	98.10	76.25	58.86	46.30	36.84	31.79	44.10	199.5	 1154	 2210	 2323	656.4	11.73	2.925	2.529	2.901	2.579	2.601	2.560	2.737	2.817	3.068	2.927	3.086	3.088	2.941	2.839	3.002	2.987	3.184	2.812	2.757	2.833	2.698	2.791	2.537	2.663	2.492	2.518	2.640	2.799
455.0	555.5	 1692	 1161	556.1	586.0	618.7	637.2	645.9	681.9	672.4	659.0	620.7	581.3	537.8	485.6	454.4	435.9	430.4	430.5	424.9	425.0	422.1	425.2	433.9	422.0	418.1	403.1	390.7	375.4	344.2	312.8	271.9	230.4	198.2	180.1	155.9	110.5	82.72	66.84	51.38	40.60	32.26	29.45	58.97	269.2	528.0	 1497	 3069	263.5	10.02	3.016	3.247	2.569	2.746	2.536	2.530	2.728	2.765	2.947	2.957	2.718	2.786	2.657	2.908	2.818	2.590	2.769	2.614	2.626	2.855	2.445	2.686	2.415	2.360	2.353	2.276	2.651
460.0	376.6	 1246	 1750	593.5	560.8	578.0	599.7	625.1	650.7	653.6	633.8	592.6	554.5	508.7	456.3	428.7	406.6	402.0	396.6	393.5	395.9	397.5	399.8	405.7	398.2	390.6	383.0	373.3	357.6	334.4	302.8	265.7	225.4	193.6	168.6	158.7	123.7	89.71	69.98	54.97	44.07	34.86	28.11	29.26	73.34	128.7	399.0	 2276	 2141	185.2	4.983	3.406	2.706	2.699	2.430	2.410	2.740	2.662	2.966	2.659	2.710	2.696	2.737	2.938	2.498	2.518	2.635	2.507	2.566	2.636	2.489	2.415	2.450	2.310	2.550	2.117	2.384
465.0	337.4	734.3	 1993	857.6	532.5	549.3	569.0	604.6	608.8	629.8	607.9	571.8	527.5	485.0	435.1	403.8	384.3	373.4	372.8	372.1	367.5	376.3	373.7	377.0	372.7	366.7	361.9	358.0	338.3	321.0	294.6	257.9	221.1	190.1	162.1	149.4	134.4	99.61	73.51	58.89	48.71	37.50	30.21	25.60	31.20	41.02	98.99	690.8	 2416	 1634	30.07	4.429	2.869	2.697	2.543	2.517	2.649	2.643	2.687	2.861	2.861	2.645	2.780	2.921	2.459	2.627	2.474	2.410	2.443	2.304	2.277	2.257	2.309	2.102	2.230	2.084	2.322
470.0	310.2	441.9	 1343	 1624	581.9	511.6	530.4	563.1	569.9	577.8	562.4	532.9	492.5	441.5	401.4	369.7	347.6	345.5	336.6	334.4	333.9	338.7	337.8	340.8	338.9	334.2	331.7	325.7	313.4	297.6	275.8	246.1	211.0	182.8	155.7	137.2	127.9	110.0	80.19	61.94	51.15	40.64	33.07	26.66	23.91	22.04	33.00	164.0	711.7	 1774	 1774	609.4	10.14	2.968	2.673	2.568	2.537	2.483	2.493	2.690	2.557	2.593	2.475	2.531	2.427	2.406	2.433	2.177	2.253	2.275	2.180	2.205	2.159	2.054	2.062	1.984	2.068
475.0	287.7	353.4	644.5	 1824	895.2	474.8	477.1	510.0	532.8	542.4	514.0	496.3	455.7	407.7	369.4	335.0	317.1	313.2	303.8	303.1	297.4	304.7	304.8	304.4	307.1	301.4	302.9	293.7	286.3	274.0	254.3	229.7	197.5	172.8	149.2	130.0	114.5	107.3	90.97	68.29	53.33	42.70	35.44	28.53	24.29	19.62	18.95	46.23	166.4	423.0	 1187	 2734	244.5	9.693	2.713	2.521	2.639	2.432	2.487	2.445	2.454	2.393	2.285	2.628	2.321	2.169	2.277	2.014	2.031	2.115	1.865	1.968	2.118	1.912	1.974	1.754	1.790
480.0	291.5	323.3	428.7	 1303	 1701	490.7	451.3	475.6	500.5	506.5	489.1	467.9	427.1	382.4	342.5	314.7	297.6	287.4	283.2	280.0	272.1	280.0	277.9	283.9	281.5	276.8	278.5	271.5	267.5	255.3	239.7	218.0	189.1	166.9	140.8	124.9	108.8	98.87	93.08	74.58	55.03	44.75	37.01	29.87	25.05	19.74	17.28	20.76	45.61	101.5	319.6	 2061	 1796	210.6	4.121	2.632	2.510	2.364	2.496	2.498	2.227	2.166	2.412	2.239	2.096	2.118	2.208	2.122	1.824	1.946	1.621	1.946	1.791	1.622	1.750	1.633	1.812
485.0	259.5	303.6	349.5	734.2	 2010	696.4	429.6	452.3	472.3	482.0	469.4	436.4	399.6	359.1	329.4	295.8	279.8	267.0	259.1	264.0	257.7	257.8	256.5	261.4	260.8	261.2	260.0	253.8	252.0	242.9	226.8	207.9	181.3	157.8	138.2	121.6	105.7	92.32	89.23	80.20	60.91	45.51	38.51	31.30	26.89	21.23	17.72	15.72	19.29	29.91	77.76	643.4	 1837	 1590	31.43	3.384	2.797	2.499	2.512	2.404	2.222	2.058	1.984	1.938	2.032	2.046	1.954	1.947	1.855	1.669	1.643	1.776	1.848	1.561	1.696	1.785	2.021
490.0	227.5	288.2	303.7	418.4	 1372	 1480	474.8	416.6	437.4	448.8	428.7	410.4	371.0	332.1	301.4	271.7	255.3	245.7	237.8	238.3	233.6	233.3	233.3	235.7	235.7	237.0	233.9	231.6	229.6	222.3	209.1	192.6	171.8	151.6	130.8	116.0	101.1	87.31	80.81	77.67	66.54	50.15	39.97	32.43	27.94	23.07	19.13	16.08	14.11	14.56	24.00	150.3	539.3	 1525	 1406	164.2	9.414	2.794	2.402	2.326	2.286	1.873	1.928	2.056	1.848	1.918	1.943	1.906	1.816	1.714	1.507	1.701	1.606	1.571	1.672	1.549	1.632
495.0	178.7	265.8	315.9	330.6	627.7	 1753	954.5	375.4	398.1	402.3	390.7	370.9	337.4	301.7	275.0	244.8	230.6	218.7	215.6	210.0	208.0	207.9	210.9	210.6	207.4	211.2	208.2	207.2	207.5	203.2	190.7	175.2	157.7	138.7	122.2	109.5	95.87	82.11	74.01	67.42	66.08	55.91	42.13	33.47	28.19	24.53	19.98	16.89	14.20	11.86	12.53	39.88	125.2	367.1	 1063	 1754	256.5	6.486	2.741	2.409	2.088	2.115	1.718	1.995	1.864	1.807	1.930	1.725	1.651	1.669	1.534	1.344	1.363	1.591	1.339	1.443	1.362
500.0	174.4	235.1	303.2	283.8	369.0	 1286	 1640	406.6	361.3	372.5	356.1	343.8	311.5	277.4	252.5	225.8	207.9	200.2	198.3	193.0	186.4	188.7	190.6	189.9	189.5	191.7	187.7	185.7	189.7	184.7	177.7	161.0	144.8	130.6	115.3	102.6	90.77	79.35	70.72	62.50	59.17	58.43	47.07	34.56	28.44	24.06	20.67	16.94	14.14	11.63	10.39	15.40	33.34	86.67	293.7	 1404	 1548	40.46	3.832	2.605	2.144	1.969	1.778	1.861	1.851	1.517	1.593	1.438	1.490	1.381	1.307	1.306	1.282	1.517	1.173	1.318	1.187
505.0	167.0	199.9	276.5	261.0	288.6	701.8	 2062	558.7	333.4	336.2	331.4	317.0	288.3	258.6	233.0	209.5	195.5	185.2	180.1	173.0	172.7	171.8	170.0	171.1	174.7	175.6	171.9	168.7	173.8	166.9	160.5	150.0	134.6	120.4	108.1	94.59	85.42	75.11	67.00	58.74	53.25	53.23	48.60	36.99	28.45	24.24	20.32	17.59	14.47	11.79	9.610	9.888	13.09	24.01	69.83	442.0	 1634	 1241	35.33	2.877	2.028	1.891	1.494	1.770	1.628	1.510	1.487	1.234	1.447	1.340	1.264	1.428	1.014	1.240	1.077	1.299	1.161
510.0	145.3	173.4	244.6	253.6	247.3	358.1	 1446	 1595	378.0	297.2	296.1	278.7	254.1	230.6	202.2	180.4	170.5	161.4	158.0	153.0	151.7	147.2	147.5	150.5	150.4	150.2	148.7	149.4	150.9	147.8	141.1	131.4	119.0	107.1	96.11	85.74	77.17	67.72	61.82	54.06	48.52	44.86	44.46	39.40	29.60	23.65	20.13	17.43	14.36	12.09	10.10	8.702	8.358	10.10	19.68	103.1	495.6	 1293	 1598	158.8	6.885	2.154	1.701	1.615	1.536	1.356	1.260	1.198	1.240	1.210	1.204	1.229	0.998	1.152	0.998	1.049	1.118
515.0	126.4	156.0	199.4	234.2	224.2	250.4	601.0	 2103	934.0	264.1	266.9	243.1	223.0	200.9	176.2	160.4	150.0	139.9	136.5	133.3	130.0	126.8	129.9	129.5	131.3	129.1	130.3	128.2	129.1	128.4	122.2	114.4	104.3	93.87	85.17	78.04	68.84	62.00	54.93	48.54	44.89	39.64	37.22	37.33	31.86	24.29	18.89	17.04	14.71	11.84	10.12	8.970	7.515	7.346	8.787	26.67	114.0	315.7	 1196	 1590	220.8	3.923	1.762	1.518	1.456	1.247	1.218	1.143	1.148	0.994	1.102	1.074	0.819	0.984	0.912	0.850	0.935
520.0	114.0	127.2	165.0	211.3	219.5	204.0	297.6	 1569	 1810	297.3	234.2	219.1	201.2	178.3	159.7	143.3	135.3	124.0	120.8	118.2	117.1	112.0	115.6	117.0	116.1	114.7	113.6	114.3	116.7	114.4	108.0	103.1	93.98	84.98	76.61	71.15	63.28	56.80	51.17	45.95	41.72	36.53	33.02	32.76	32.47	24.33	18.52	15.84	13.76	11.87	10.32	8.912	7.315	6.463	6.354	9.694	29.28	73.52	338.9	 1471	 1263	36.48	2.345	1.589	1.443	1.169	1.171	1.163	0.874	0.854	1.012	0.938	0.718	0.812	0.745	0.952	0.936
525.0	105.9	114.9	148.9	180.6	219.4	187.2	212.0	792.0	 2366	424.2	212.8	203.2	183.3	165.3	144.6	129.9	122.8	113.0	111.1	108.5	104.5	101.9	103.4	105.2	104.7	104.0	102.8	102.6	106.4	104.1	99.00	93.89	85.05	77.92	69.57	64.54	58.83	52.75	46.86	43.09	38.00	34.33	30.34	29.25	29.59	26.62	19.46	15.81	13.50	11.76	10.04	8.874	7.293	6.640	5.487	5.766	9.673	19.60	79.44	505.9	 1452	831.8	27.03	1.909	1.212	1.106	1.183	1.099	0.860	0.965	0.826	0.905	0.919	0.696	0.732	0.878	1.072
530.0	89.86	105.3	125.5	144.8	200.5	180.2	173.2	326.6	 1672	 1685	261.5	179.6	163.2	145.6	128.7	113.9	105.5	100.2	97.99	94.75	91.57	88.74	88.37	89.66	89.03	88.81	89.02	89.07	91.28	88.98	85.90	81.41	75.29	68.59	62.57	57.21	53.46	46.57	42.12	38.03	35.39	30.66	28.04	25.84	24.82	25.50	21.29	15.99	13.17	11.17	9.455	8.304	7.045	6.387	5.483	4.778	5.440	7.454	20.56	116.7	461.2	 1001	777.6	133.0	3.380	1.180	1.126	1.066	0.861	0.852	0.772	0.733	0.760	0.656	0.741	0.728	0.829
535.0	73.52	96.53	110.6	121.5	162.2	186.3	147.6	192.1	610.3	 2332	834.4	156.6	138.4	122.8	113.4	101.3	93.70	87.07	83.21	81.96	77.81	77.15	76.45	79.40	76.42	76.80	77.50	77.77	77.46	78.91	73.23	70.21	64.40	59.85	55.04	50.41	46.24	40.96	38.24	34.45	32.01	28.15	24.78	22.90	21.11	20.96	21.22	16.99	12.39	10.35	8.954	8.240	7.026	6.241	5.479	4.959	4.513	4.563	7.237	28.35	104.8	251.2	796.5	 1096	40.37	2.196	1.207	0.934	0.972	0.973	0.696	0.650	0.574	0.651	0.701	0.630	0.563
540.0	63.21	90.21	97.94	98.54	132.1	186.8	142.5	145.3	257.8	 1705	 1791	185.6	125.9	110.6	100.4	90.59	82.26	79.06	73.47	72.53	69.26	68.57	67.04	68.39	67.74	67.71	67.22	67.50	67.10	68.58	65.61	62.79	56.36	53.07	49.67	45.68	40.77	37.48	34.91	31.78	28.54	25.92	23.24	20.20	18.91	17.96	18.37	17.48	13.08	9.836	8.258	7.785	6.721	5.891	5.310	4.828	4.286	4.004	4.290	8.826	25.76	58.22	240.7	 1075	819.4	31.70	1.311	1.001	0.976	0.831	0.682	0.627	0.503	0.589	0.625	0.633	0.592
545.0	61.69	80.02	89.25	94.39	109.0	160.7	151.9	130.9	161.6	783.2	 2416	315.3	117.6	98.87	91.35	79.52	74.79	70.72	66.26	63.79	63.63	62.50	59.69	61.18	60.16	60.15	61.10	61.78	60.60	61.46	60.29	57.86	51.37	47.48	45.52	41.16	36.92	34.74	31.82	28.52	26.23	23.53	21.72	19.08	17.44	15.73	15.69	16.72	14.01	10.04	8.148	7.179	6.305	5.586	5.053	4.762	4.334	3.735	3.285	4.265	7.962	14.99	56.30	381.6	 1111	327.1	20.87	1.192	0.946	0.817	0.676	0.672	0.579	0.646	0.686	0.403	0.538
550.0	59.42	74.47	79.46	81.58	87.42	119.0	152.1	116.5	120.1	281.7	 1623	 1710	157.8	89.56	78.45	69.06	66.31	61.76	56.85	55.16	54.60	53.22	51.48	53.43	51.38	52.46	51.65	51.78	52.68	52.94	50.92	49.32	45.01	40.98	39.36	35.64	33.04	29.85	27.10	25.09	23.45	20.62	19.35	16.95	15.73	14.07	13.46	13.53	13.60	10.62	8.259	6.774	5.744	5.430	4.683	4.648	4.344	3.789	3.174	3.063	3.820	5.105	14.37	87.94	373.2	668.5	558.2	26.13	2.222	0.854	0.711	0.709	0.547	0.505	0.627	0.502	0.485
555.0	56.70	64.68	69.73	70.30	75.97	83.61	142.0	122.2	97.28	140.0	533.3	 2445	639.1	77.87	68.74	60.66	55.88	52.40	48.41	46.99	46.58	45.46	45.27	44.31	44.47	42.79	44.88	44.42	44.61	44.73	43.60	41.25	38.19	34.53	32.76	31.52	28.41	25.20	23.47	21.95	20.46	18.50	16.55	14.80	13.79	12.22	11.29	10.48	11.21	10.72	8.610	6.567	5.135	4.692	4.274	3.961	3.947	3.762	2.985	2.801	2.673	2.841	5.050	21.06	84.70	174.1	613.1	666.2	37.87	1.603	0.841	0.705	0.536	0.412	0.394	0.535	0.475
560.0	59.03	63.36	67.38	66.75	63.06	71.03	115.7	131.7	91.17	101.3	194.5	 1737	 1520	94.49	60.44	54.50	48.75	46.23	43.54	40.60	40.63	38.59	39.57	38.97	38.03	37.85	39.11	38.20	38.58	38.49	38.44	35.16	33.95	31.31	29.29	26.68	23.73	22.40	20.89	19.73	18.04	16.20	14.33	12.58	12.41	10.85	10.24	8.897	8.890	9.631	8.810	6.923	4.941	4.457	3.907	4.101	3.523	3.592	3.232	2.760	2.593	2.237	2.699	6.124	20.25	40.40	194.9	696.4	347.3	26.61	0.994	0.725	0.597	0.446	0.401	0.423	0.325
565.0	44.93	57.19	54.24	56.69	55.72	60.30	86.58	132.9	90.29	87.40	105.6	763.8	 2138	209.4	54.74	47.77	42.67	39.67	37.17	34.71	34.38	34.14	33.34	33.48	33.82	32.80	32.75	32.95	34.10	33.39	33.61	30.34	29.56	26.69	25.06	23.07	21.68	19.64	18.57	16.94	15.45	14.45	12.91	11.67	10.91	10.50	9.129	7.923	7.333	7.874	8.496	6.908	4.857	4.148	3.797	3.717	3.401	3.078	2.928	2.954	2.291	2.030	2.117	2.654	5.780	10.43	45.42	257.3	678.6	294.4	14.89	0.792	0.705	0.519	0.340	0.443	0.397
570.0	42.61	50.11	49.69	49.08	47.97	49.52	61.21	101.9	103.1	73.06	76.72	239.8	 1424	 1201	83.20	39.62	34.63	32.21	30.75	29.76	28.64	27.48	26.60	26.80	26.92	26.71	27.10	26.88	27.69	27.30	26.54	25.04	23.42	21.84	20.62	18.58	17.73	16.08	15.24	14.04	13.09	11.75	11.05	9.575	9.033	8.437	7.750	6.792	6.132	6.009	6.584	6.594	5.016	3.812	3.280	3.047	2.991	2.552	2.462	2.678	2.195	1.993	1.924	1.972	2.629	3.614	11.27	59.68	236.2	489.4	345.0	22.65	1.131	0.541	0.419	0.389	0.344
575.0	39.83	44.33	43.46	40.45	39.42	41.45	45.81	65.17	113.7	71.04	64.67	100.9	433.0	 1750	438.1	32.31	27.45	26.44	24.84	23.98	22.11	22.45	21.20	21.90	21.02	21.30	20.95	20.58	21.50	21.67	20.44	19.16	18.37	17.41	16.81	14.11	14.29	13.19	12.20	10.88	9.772	9.295	8.566	7.917	7.137	6.850	6.329	5.741	4.987	4.626	4.560	4.706	4.815	3.874	3.024	2.553	2.305	2.334	1.956	2.281	2.107	1.943	1.638	1.788	1.671	1.954	3.580	14.34	53.72	128.9	363.4	336.3	31.36	0.765	0.487	0.421	0.304
580.0	38.68	37.70	40.00	36.94	35.62	36.17	39.83	47.06	98.71	81.57	57.25	64.84	138.3	 1215	 1123	44.30	22.84	22.12	20.77	19.79	18.50	18.52	17.08	18.03	17.51	16.66	17.64	16.51	16.68	17.26	16.88	15.95	15.10	14.03	12.92	12.27	11.39	10.60	9.624	8.955	8.506	7.663	6.915	6.609	6.043	5.759	5.409	4.950	4.192	3.954	3.563	3.515	4.158	3.811	2.641	2.259	2.011	2.028	1.711	2.036	1.712	1.863	1.785	1.614	1.384	1.506	1.726	4.210	13.15	29.88	116.4	391.0	283.5	18.64	0.536	0.432	0.430
585.0	39.23	42.60	37.69	35.38	30.41	33.19	34.92	41.08	71.78	98.51	54.20	54.17	68.85	485.0	 1615	137.3	18.84	17.80	16.80	15.48	15.50	15.07	14.33	15.10	13.77	14.63	14.33	13.89	14.03	14.61	14.17	12.47	12.03	11.92	10.94	10.09	9.637	8.690	8.006	7.611	7.263	6.519	6.030	5.680	4.986	4.668	4.498	4.023	3.654	3.064	2.947	2.951	3.333	3.524	2.793	2.202	1.783	1.749	1.518	1.525	1.604	1.768	1.606	1.495	1.299	1.298	1.361	1.950	3.861	7.787	27.30	146.6	413.0	173.2	6.895	0.447	0.462
590.0	41.15	38.28	32.04	29.92	26.98	25.57	29.37	34.84	48.17	89.64	66.85	48.78	48.28	143.1	 1046	906.0	40.52	14.82	13.56	12.61	12.12	11.89	11.62	11.42	11.04	11.50	10.94	11.07	10.95	11.34	10.73	9.923	9.272	9.018	8.307	7.777	7.566	6.897	6.436	6.129	5.614	5.228	4.924	4.376	4.139	3.792	3.365	3.154	2.849	2.546	2.278	2.102	2.294	2.615	2.559	2.167	1.673	1.489	1.434	1.279	1.399	1.424	1.462	1.595	1.326	1.309	1.215	1.411	1.904	2.676	6.940	34.27	144.7	252.6	148.3	18.41	0.687
595.0	36.33	36.28	36.13	27.46	25.44	24.70	23.19	29.79	37.24	68.90	85.77	47.70	41.96	55.28	302.0	 1343	141.7	12.92	11.27	10.31	9.477	9.073	9.153	9.064	8.849	8.652	8.296	8.159	8.858	8.593	8.556	8.082	7.889	7.054	6.129	5.863	5.971	5.635	5.039	4.954	4.556	4.458	3.729	3.623	3.455	2.956	2.755	2.390	2.277	1.983	1.916	1.561	1.620	1.899	2.116	1.889	1.645	1.299	1.174	1.167	1.358	1.142	1.218	1.588	1.458	1.306	1.447	1.288	1.308	1.590	2.457	8.477	32.96	67.39	189.3	199.2	21.89
600.0	35.17	35.21	31.84	27.08	24.14	22.75	21.25	25.93	32.37	51.04	90.18	54.07	41.83	36.41	85.84	916.0	753.7	23.02	8.771	8.245	8.061	7.706	7.395	7.935	7.395	7.436	6.991	7.170	7.140	7.394	7.388	6.816	6.169	5.868	5.393	5.259	4.977	4.517	4.075	4.179	3.590	3.709	3.264	3.040	2.971	2.469	2.343	2.194	2.033	1.659	1.585	1.354	1.470	1.367	1.759	1.862	1.755	1.265	1.091	1.139	1.283	1.225	1.057	1.359	1.576	1.433	1.074	1.219	1.283	1.324	1.387	2.676	7.969	15.74	62.21	223.1	139.7
605.0	30.68	35.48	35.88	25.20	20.74	22.50	22.11	26.55	28.90	39.06	79.49	67.54	40.42	30.24	35.81	358.9	 1106	97.66	8.446	7.596	7.041	6.814	6.612	6.348	5.762	6.067	6.610	5.972	5.766	6.010	5.969	5.897	5.474	4.933	4.715	4.268	4.116	3.638	3.758	3.436	3.005	2.981	2.610	2.620	2.413	2.284	2.108	2.106	1.750	1.806	1.485	1.399	1.167	1.204	1.232	1.616	1.785	1.412	1.171	1.012	1.154	1.237	0.931	1.159	1.527	1.277	1.392	1.122	1.292	1.349	1.264	1.268	2.586	4.245	14.95	85.74	206.5
610.0	30.08	33.26	34.36	22.27	19.07	19.07	21.19	24.11	29.77	36.23	59.10	83.17	44.13	30.84	25.00	97.48	710.3	630.6	23.97	6.330	5.778	5.758	5.037	5.141	4.756	4.788	4.912	4.919	4.926	4.922	4.892	4.573	4.236	4.022	3.902	3.497	3.417	3.166	2.952	2.722	2.575	2.379	2.144	2.072	2.079	1.969	1.655	1.731	1.385	1.301	1.193	1.179	1.075	0.948	0.954	1.184	1.434	1.327	1.171	0.998	1.034	1.126	1.068	1.213	1.357	1.250	1.488	1.527	1.393	1.290	1.258	1.092	1.434	1.625	3.887	20.16	74.07
615.0	35.21	30.47	28.27	23.83	19.98	17.45	18.99	23.13	28.61	36.24	46.82	79.72	54.84	29.72	22.94	32.88	197.1	902.8	111.7	5.342	4.840	4.740	4.143	4.148	3.889	3.913	3.766	3.789	3.887	3.893	3.451	3.648	3.423	3.088	2.855	3.187	2.700	2.367	2.529	2.381	1.944	1.854	1.676	1.686	1.702	1.570	1.439	1.356	1.130	0.986	0.891	1.047	0.889	0.843	0.801	1.049	1.151	1.216	1.208	0.975	0.995	1.057	1.087	1.024	1.304	1.189	1.416	1.534	1.710	1.394	1.285	1.089	1.139	0.982	1.454	5.012	16.94
620.0	33.12	23.81	24.30	22.07	18.84	17.67	19.12	21.50	26.14	33.83	42.24	63.95	62.01	31.15	21.23	18.69	53.05	595.1	546.1	12.53	3.923	3.629	3.649	3.978	3.567	3.182	3.271	3.231	3.401	3.240	2.947	2.905	2.864	2.662	2.369	2.429	2.240	2.092	1.929	2.107	1.766	1.540	1.458	1.435	1.430	1.350	1.269	1.133	1.000	0.852	0.893	0.763	0.803	0.762	0.779	0.930	0.748	0.991	1.160	0.986	0.933	0.807	1.033	1.068	1.181	1.028	1.339	1.299	1.561	1.478	1.220	0.960	0.935	0.863	0.776	1.473	4.180
625.0	29.56	27.73	27.64	23.17	16.43	15.72	20.17	21.63	26.42	32.77	37.16	51.20	68.30	34.24	21.76	15.62	19.65	223.6	800.0	72.20	3.845	3.389	3.252	3.699	3.117	3.147	2.745	2.675	2.865	2.777	2.794	2.554	2.426	2.208	2.102	2.187	1.783	1.749	1.853	1.690	1.363	1.324	1.309	1.369	1.078	1.116	1.036	0.987	0.872	0.708	0.760	0.618	0.728	0.734	0.755	0.659	0.716	0.832	0.956	1.105	0.970	0.688	0.968	1.034	1.021	0.904	1.145	1.216	1.377	1.443	1.167	0.974	0.794	0.798	0.629	0.754	1.342
630.0	28.37	28.61	24.80	20.62	16.79	15.23	17.48	21.21	27.31	30.07	34.02	45.38	58.92	44.90	21.56	13.42	11.40	57.97	509.5	446.5	18.33	3.076	2.703	2.908	2.445	2.492	2.331	2.228	2.252	2.236	2.120	2.032	1.969	1.843	1.760	1.692	1.724	1.513	1.444	1.340	1.239	1.211	1.071	1.063	1.015	0.832	0.888	0.824	0.731	0.621	0.643	0.595	0.582	0.580	0.653	0.540	0.620	0.602	0.813	0.833	0.892	0.719	0.711	0.779	0.968	0.787	0.854	0.968	1.204	1.147	0.993	0.767	0.677	0.656	0.476	0.470	0.550
635.0	31.03	29.92	25.18	21.23	17.08	13.93	15.73	22.13	22.51	30.09	35.17	43.52	42.25	53.97	25.92	13.46	9.052	18.12	137.2	634.0	95.14	2.783	1.970	2.505	2.121	2.067	2.028	1.655	1.918	1.683	1.705	1.605	1.546	1.510	1.354	1.276	1.542	1.133	1.129	1.087	1.016	0.924	0.952	0.873	0.837	0.641	0.737	0.799	0.757	0.450	0.583	0.479	0.475	0.515	0.465	0.381	0.476	0.560	0.592	0.607	0.684	0.609	0.689	0.649	0.669	0.668	0.726	0.874	0.857	0.887	0.855	0.724	0.582	0.525	0.441	0.365	0.403
640.0	31.47	26.96	24.86	21.68	14.29	15.35	16.78	18.93	23.02	27.95	33.70	41.36	37.83	52.52	33.40	12.82	9.081	8.920	35.11	429.0	455.6	7.505	2.270	2.474	1.987	1.662	1.584	1.583	1.389	1.492	1.468	1.228	1.127	1.391	1.183	1.208	1.261	1.031	0.841	0.898	0.747	0.807	0.717	0.583	0.621	0.621	0.639	0.571	0.618	0.425	0.455	0.528	0.443	0.471	0.377	0.387	0.402	0.358	0.446	0.587	0.646	0.617	0.557	0.524	0.553	0.548	0.606	0.587	0.585	0.637	0.707	0.635	0.541	0.448	0.400	0.243	0.359
645.0	31.86	28.48	25.80	20.31	13.53	14.36	16.48	20.20	22.71	25.78	33.44	40.50	34.32	43.87	36.01	14.28	8.997	6.570	11.64	162.6	667.8	53.61	2.277	2.300	1.778	1.565	1.405	1.404	1.348	1.308	1.024	1.193	1.058	1.079	0.875	1.192	0.972	0.977	0.776	0.913	0.694	0.703	0.675	0.685	0.582	0.469	0.550	0.510	0.489	0.462	0.422	0.471	0.418	0.449	0.318	0.294	0.425	0.382	0.428	0.388	0.493	0.361	0.531	0.484	0.440	0.528	0.523	0.486	0.514	0.661	0.557	0.513	0.508	0.372	0.347	0.335	0.212
650.0	27.69	35.70	28.62	19.04	14.97	14.46	15.46	18.88	20.41	26.53	30.22	37.92	34.06	36.99	41.07	16.57	8.999	6.334	5.838	43.55	555.6	232.0	2.839	2.384	1.357	1.404	1.406	1.356	1.230	1.126	0.945	1.127	1.079	1.053	0.940	0.894	1.048	0.883	0.748	0.723	0.603	0.718	0.685	0.587	0.616	0.447	0.474	0.534	0.469	0.351	0.414	0.380	0.329	0.355	0.204	0.297	0.391	0.389	0.404	0.352	0.345	0.465	0.419	0.367	0.445	0.510	0.502	0.401	0.366	0.567	0.412	0.433	0.474	0.326	0.319	0.238	0.250
