Sample:	'1
File name:	g2025081807猪龙河入小清河.FD3
Run date:	'17:44:37, 08/18/2025
Operator:	Administrator
Comment:	'

Instrument
Model:	F-2700 FL Spectrophotometer
Serial number:	23B8-004
ROM Version:	4J14000 07

Instrument parameters
Measurement type:	3-D scan
Data mode:	Fluorescence
EX  Start WL:	220.0 nm
EX  End WL:	600.0 nm
EX Sampling interval:	5.0 nm
EM  Start WL:	230.0 nm
EM  End WL:	650.0 nm
EM Sampling interval:	5.0 nm
Scan speed:	12000 nm/min
EX Slit:	5.0 nm
EM Slit:	5.0 nm
PMT Voltage:	700 V
Response:	Auto 
Corrected spectra:	Off
Contour interval:	50.000

Peak integration
Integration method:	Rectangular
Sensitivity:	1
Threshold:	1.000

Peaks
No.	ApexEX/EM(nm)	Height(Data)
1	225.0/580.0	92.92
2	225.0/605.0	86.49
3	225.0/635.0	75.21
4	230.0/340.0	2252
5	230.0/500.0	413.9
6	235.0/510.0	358.8
7	240.0/265.0	394.4
8	240.0/525.0	305.5
9	245.0/270.0	381.5
10	245.0/535.0	253.8
11	250.0/275.0	498.0
12	250.0/550.0	206.5
13	255.0/280.0	636.8
14	255.0/565.0	173.9
15	260.0/575.0	139.5
16	265.0/585.0	132.8
17	270.0/600.0	142.3
18	275.0/310.0	2411
19	275.0/610.0	161.5
20	280.0/625.0	142.1
21	320.0/365.0	632.1
22	325.0/370.0	609.4
23	330.0/375.0	620.4
24	335.0/385.0	639.0
25	475.0/350.0	7.789
26	495.0/270.0	2.673
27	505.0/275.0	3.595
28	510.0/280.0	3.821
29	510.0/405.0	5.790
30	520.0/285.0	4.684
31	530.0/290.0	4.772
32	555.0/305.0	11.59
33	560.0/310.0	11.58
34	570.0/315.0	10.91

Data points
	220.0	225.0	230.0	235.0	240.0	245.0	250.0	255.0	260.0	265.0	270.0	275.0	280.0	285.0	290.0	295.0	300.0	305.0	310.0	315.0	320.0	325.0	330.0	335.0	340.0	345.0	350.0	355.0	360.0	365.0	370.0	375.0	380.0	385.0	390.0	395.0	400.0	405.0	410.0	415.0	420.0	425.0	430.0	435.0	440.0	445.0	450.0	455.0	460.0	465.0	470.0	475.0	480.0	485.0	490.0	495.0	500.0	505.0	510.0	515.0	520.0	525.0	530.0	535.0	540.0	545.0	550.0	555.0	560.0	565.0	570.0	575.0	580.0	585.0	590.0	595.0	600.0
230.0	56.67	642.3	1982	709.4	42.78	9.593	8.267	7.381	6.272	5.755	5.069	5.023	4.528	3.614	3.096	2.655	2.158	2.086	1.853	1.761	1.491	1.497	1.320	1.242	1.285	1.173	1.089	1.137	1.053	0.995	1.016	0.937	0.867	0.782	0.702	0.732	0.660	0.692	0.646	0.601	0.592	0.650	0.701	0.619	0.574	0.529	1.012	4.464	9.321	8.191	3.837	1.007	0.480	0.449	0.455	0.428	0.448	0.493	0.442	0.416	0.453	0.442	0.518	0.423	0.500	0.470	0.443	0.442	0.472	0.436	0.471	0.494	0.480	0.444	0.519	0.478	0.480
235.0	111.6	199.3	1079	2166	578.0	62.77	8.371	8.581	6.461	6.507	5.440	5.487	4.625	3.849	3.243	2.912	2.202	2.009	1.901	1.724	1.683	1.497	1.392	1.194	1.299	1.136	1.051	1.125	0.998	1.101	1.031	0.896	0.868	0.764	0.768	0.733	0.629	0.634	0.692	0.575	0.613	0.602	0.702	0.735	0.751	0.560	0.597	1.417	3.339	6.009	9.708	11.95	6.879	1.919	0.542	0.459	0.528	0.463	0.433	0.495	0.433	0.407	0.491	0.391	0.527	0.461	0.464	0.486	0.473	0.466	0.414	0.533	0.488	0.439	0.483	0.471	0.566
240.0	163.9	149.2	316.9	1610	2580	471.2	40.16	9.861	7.674	5.904	6.428	6.450	4.827	3.739	3.409	3.074	2.378	1.947	1.923	1.861	1.616	1.474	1.354	1.403	1.305	1.095	1.103	1.196	1.108	0.977	0.942	0.933	0.858	0.883	0.765	0.735	0.640	0.729	0.693	0.566	0.656	0.643	0.578	0.672	0.834	0.960	0.759	0.781	1.145	1.849	4.503	11.86	17.78	14.59	6.446	1.439	0.500	0.456	0.436	0.425	0.454	0.450	0.453	0.418	0.459	0.520	0.439	0.463	0.511	0.459	0.439	0.462	0.515	0.479	0.447	0.432	0.514
245.0	125.1	210.8	150.0	506.9	2415	2943	361.9	23.96	8.986	8.128	6.834	6.258	5.123	3.702	3.747	3.243	2.302	2.068	1.908	2.130	1.929	1.578	1.254	1.464	1.386	1.225	1.056	1.265	1.056	1.037	0.936	1.014	0.902	0.886	0.698	0.772	0.682	0.669	0.729	0.634	0.614	0.551	0.583	0.570	0.705	0.839	0.959	1.005	0.805	0.809	1.371	3.739	9.956	18.86	22.40	15.03	5.334	0.881	0.500	0.402	0.471	0.501	0.447	0.504	0.443	0.479	0.418	0.457	0.479	0.440	0.477	0.448	0.445	0.447	0.533	0.440	0.552
250.0	65.74	148.1	243.3	220.7	733.9	2435	3461	1379	93.49	10.06	7.670	6.259	5.461	4.141	3.766	3.372	2.821	2.399	2.132	1.931	1.859	1.499	1.450	1.466	1.281	1.350	1.193	1.228	1.136	1.037	0.932	0.972	0.887	0.840	0.707	0.739	0.653	0.759	0.695	0.674	0.642	0.593	0.638	0.541	0.563	0.658	0.730	0.984	1.158	1.187	0.935	1.312	2.696	5.635	10.81	17.70	23.54	23.81	14.59	5.756	1.167	0.503	0.621	0.487	0.486	0.468	0.470	0.449	0.472	0.514	0.497	0.539	0.474	0.470	0.519	0.434	0.502
255.0	49.47	61.12	152.5	336.6	284.6	599.2	2206	6414	1931	115.6	10.83	8.180	6.115	5.025	4.422	3.595	3.161	2.788	2.295	2.098	1.967	1.705	1.455	1.420	1.437	1.252	1.140	1.298	1.006	1.163	0.973	1.015	0.858	0.742	0.902	0.793	0.610	0.717	0.680	0.731	0.589	0.663	0.648	0.595	0.539	0.610	0.610	0.556	0.705	0.997	1.566	1.863	1.368	1.820	2.841	4.397	7.032	15.81	33.80	32.70	23.26	7.207	1.050	0.517	0.560	0.476	0.461	0.503	0.507	0.497	0.430	0.512	0.477	0.477	0.452	0.418	0.552
260.0	48.14	40.22	62.37	267.5	357.7	201.3	621.8	4434	6608	1549	59.87	10.65	7.420	6.347	4.738	4.078	3.616	2.765	2.322	2.019	2.048	1.573	1.654	1.382	1.545	1.255	1.230	1.216	1.141	1.218	1.059	1.060	0.916	0.800	0.820	0.713	0.677	0.789	0.680	0.622	0.651	0.647	0.637	0.632	0.583	0.603	0.542	0.503	0.542	0.535	0.953	2.048	2.290	1.811	1.246	1.350	2.069	4.219	11.89	26.48	46.92	32.61	19.85	4.504	0.712	0.553	0.565	0.570	0.538	0.555	0.519	0.528	0.534	0.535	0.442	0.511	0.531
265.0	46.32	34.45	33.82	121.6	394.4	279.1	183.0	1335	5744	7143	247.6	26.05	9.632	7.014	5.208	4.128	3.821	2.738	2.322	2.101	2.130	1.830	1.621	1.531	1.424	1.510	1.446	1.255	1.309	1.262	1.187	1.049	0.989	0.844	0.867	0.688	0.701	0.716	0.605	0.667	0.650	0.625	0.644	0.594	0.580	0.573	0.555	0.481	0.512	0.438	0.546	1.058	1.819	2.576	2.056	1.253	0.959	1.446	3.189	7.145	19.62	39.08	58.89	30.74	15.21	2.049	0.605	0.536	0.575	0.563	0.459	0.508	0.556	0.491	0.455	0.535	0.515
270.0	66.41	57.22	43.03	52.74	168.6	381.5	310.9	359.7	1667	5614	7902	2724	71.90	10.35	7.323	5.313	4.573	3.553	2.707	2.571	2.323	2.010	1.677	1.789	1.539	1.670	1.471	1.405	1.379	1.394	1.152	1.112	1.013	0.923	0.922	0.723	0.726	0.742	0.797	0.704	0.631	0.736	0.670	0.619	0.653	0.642	0.586	0.566	0.531	0.528	0.477	0.638	0.842	1.416	2.142	2.673	2.420	1.627	1.363	2.129	5.000	10.58	22.43	35.17	49.88	46.46	20.70	10.81	2.167	0.659	0.594	0.519	0.589	0.558	0.527	0.569	0.503
275.0	128.6	126.0	111.8	77.48	70.28	162.0	498.0	374.3	438.3	1364	4549	9999.9	1367	80.17	10.72	7.187	5.502	4.196	3.156	2.636	2.607	2.251	1.964	1.843	1.640	1.703	1.542	1.381	1.453	1.350	1.254	1.168	1.202	1.150	1.137	0.869	0.857	0.792	0.823	0.680	0.720	0.724	0.764	0.734	0.809	0.750	0.760	0.808	0.828	0.810	0.594	0.628	0.722	0.714	1.030	1.285	2.469	3.595	3.161	1.748	1.747	2.928	5.678	8.580	13.05	23.10	51.27	77.20	31.75	14.33	1.736	0.637	0.666	0.536	0.512	0.589	0.584
280.0	203.1	225.4	193.0	122.3	68.19	76.67	292.0	636.8	307.3	396.0	1264	7132	9999.9	1039	43.36	9.587	7.192	5.308	4.025	3.140	2.951	2.294	1.962	2.042	1.876	1.561	1.515	1.513	1.334	1.199	1.206	1.318	1.132	1.185	1.104	1.032	0.829	1.005	0.944	0.863	0.771	1.005	0.829	0.910	0.833	0.962	1.027	1.092	1.028	0.833	0.784	0.810	0.702	0.702	0.686	0.909	1.231	2.270	3.821	3.777	2.303	1.566	1.961	2.607	3.816	6.157	15.37	39.37	70.62	80.76	27.69	7.554	0.915	0.683	0.683	0.687	0.542
285.0	308.6	341.3	305.6	187.4	97.50	69.31	139.1	522.7	623.8	282.3	454.3	2165	9621	8778	700.5	20.43	8.625	6.069	4.469	3.537	2.991	2.335	2.352	1.905	1.983	1.737	1.846	1.576	1.396	1.503	1.321	1.453	1.145	1.275	1.165	1.118	0.914	1.053	1.078	0.932	0.854	0.957	0.943	0.931	1.063	1.232	1.329	1.409	1.319	1.084	0.965	0.929	0.942	0.776	0.758	0.753	0.883	1.172	1.927	3.514	4.684	3.257	1.991	1.596	2.094	2.670	4.539	10.33	23.74	55.26	82.72	36.03	21.40	3.562	0.889	0.633	0.602
290.0	425.0	518.5	460.3	286.4	159.1	111.6	135.8	284.8	663.8	780.0	536.8	848.2	2874	7803	8844	2298	42.88	9.783	5.937	4.607	3.656	2.916	2.840	2.250	2.177	1.904	1.872	1.829	1.551	1.475	1.390	1.378	1.279	1.286	1.328	1.300	1.300	1.236	1.136	1.039	1.048	1.073	1.194	1.096	1.354	1.452	1.674	1.810	1.785	1.511	1.341	1.268	1.036	0.901	0.934	0.919	1.026	1.164	1.354	2.002	2.920	4.085	4.772	4.051	3.184	2.631	2.923	4.387	7.125	14.67	26.67	37.22	59.89	52.08	49.31	14.23	3.725
295.0	554.2	678.1	616.4	383.7	231.1	173.1	198.1	289.2	482.6	970.4	1182	841.0	1123	2060	5019	9999.9	757.0	52.01	9.533	6.293	4.776	3.665	3.325	2.898	2.591	2.223	2.010	1.882	1.643	1.725	1.517	1.406	1.397	1.543	1.656	1.464	1.351	1.458	1.263	1.181	1.080	1.229	1.282	1.314	1.532	1.829	1.966	2.409	2.143	1.912	1.546	1.753	1.341	1.193	1.120	1.184	1.266	1.327	1.541	1.920	2.152	2.951	3.659	4.927	6.769	5.874	4.624	3.801	4.342	5.776	8.389	10.14	15.10	20.51	52.68	85.13	37.37
300.0	637.4	793.5	737.4	485.4	311.7	258.3	318.6	397.4	628.0	994.7	1686	1436	1044	943.9	1534	7170	9999.9	622.4	32.85	8.907	6.437	4.364	3.794	3.324	2.634	2.433	1.900	1.947	1.825	1.692	1.488	1.524	1.418	1.498	1.630	1.526	1.534	1.534	1.479	1.292	1.206	1.425	1.488	1.555	1.790	2.085	2.254	2.695	2.498	2.180	1.988	2.017	1.629	1.543	1.419	1.552	1.843	1.890	2.262	2.431	2.580	3.272	4.024	5.054	6.789	8.806	8.506	6.365	5.449	5.240	5.345	4.796	5.800	6.716	14.91	36.49	68.58
305.0	690.4	927.3	869.1	600.1	406.3	399.8	472.9	680.0	949.6	1328	1918	2343	1533	1061	949.3	2364	9693	5482	451.8	15.98	7.928	5.367	4.465	3.623	3.027	2.847	2.300	2.315	2.038	1.809	1.844	1.552	1.470	1.632	1.888	1.708	1.867	1.672	1.480	1.384	1.295	1.495	1.526	1.786	2.073	2.285	2.812	3.097	3.019	2.529	2.262	2.232	1.990	1.920	1.914	2.191	2.373	2.637	3.329	3.726	4.073	4.828	5.596	6.713	7.677	9.147	10.73	11.59	9.496	7.330	6.577	5.572	5.287	5.172	6.519	11.15	22.43
310.0	800.8	1041	989.5	694.3	514.6	502.9	637.2	850.4	1126	1533	1947	2411	2253	1416	999.4	1073	3117	6590	7130	1754	30.56	8.088	5.762	4.440	3.694	3.185	2.614	2.327	2.141	2.004	1.966	1.608	1.520	1.655	1.672	1.682	1.898	1.624	1.627	1.513	1.560	1.665	1.628	1.927	2.225	2.414	2.867	3.411	3.427	2.821	2.597	2.589	2.481	2.389	2.540	2.592	3.096	3.459	4.124	4.570	4.893	5.825	6.498	7.539	8.280	9.143	9.976	11.25	11.58	11.24	9.408	7.264	5.977	5.604	5.426	5.968	8.215
315.0	840.6	1125	1098	791.4	602.8	593.0	732.1	942.0	1200	1585	1949	2229	2252	1932	1165	872.1	1269	1827	4527	9999.9	532.1	32.81	7.825	5.782	4.472	3.674	3.171	2.538	2.500	2.288	1.887	1.738	1.825	1.553	1.788	1.703	1.792	1.677	1.626	1.447	1.531	1.635	1.563	2.087	2.480	2.653	3.150	3.493	3.886	3.423	2.812	3.057	3.028	2.704	2.854	3.134	3.354	3.994	4.569	4.609	5.053	6.075	6.590	7.632	8.419	9.047	9.728	9.814	10.25	10.15	10.91	10.52	7.999	6.641	5.567	5.182	5.403
320.0	935.1	1219	1229	871.0	658.8	646.5	774.2	975.7	1196	1585	1928	2168	2099	1989	1516	906.7	904.5	754.2	1259	6734	8636	447.5	18.47	7.762	5.115	4.633	3.511	3.000	2.777	2.517	2.169	1.852	1.966	1.728	1.817	1.801	1.805	1.703	1.588	1.429	1.584	1.756	1.714	2.014	2.536	2.949	3.259	4.101	4.040	3.513	3.182	3.105	3.153	3.056	2.960	3.110	3.476	4.221	4.525	4.767	5.097	6.175	6.630	7.410	8.198	9.085	9.408	10.00	10.21	10.01	9.642	9.866	9.922	8.767	6.829	5.688	4.856
325.0	1025	1371	1417	1037	737.4	666.3	779.0	951.8	1154	1485	1827	2042	1964	1759	1669	1025	809.5	529.5	421.4	1929	7961	4074	63.63	12.08	6.441	5.266	3.903	3.171	2.815	2.723	2.162	2.227	1.782	1.846	1.701	1.768	1.740	1.667	1.635	1.607	1.498	1.684	1.701	2.145	2.543	3.188	3.625	4.473	4.652	4.074	3.711	3.682	3.537	3.162	3.132	3.150	3.969	3.840	4.615	4.959	5.605	5.876	6.381	7.539	7.942	8.394	8.883	9.430	9.846	9.258	9.008	8.884	8.632	9.580	8.675	6.344	5.085
330.0	1096	1600	1781	1447	1039	782.9	790.2	915.5	1070	1361	1675	1886	1832	1593	1444	1239	921.9	516.3	289.6	558.4	2284	5464	5845	1403	24.66	6.782	4.994	4.118	3.303	3.093	2.521	2.187	1.957	1.899	1.734	2.017	1.731	1.639	1.677	1.514	1.620	1.761	1.925	2.144	2.753	3.448	4.064	5.168	5.773	5.115	4.879	5.121	4.529	4.040	3.660	3.396	3.883	3.993	4.611	4.770	5.240	5.409	6.193	6.728	7.523	7.678	8.372	8.543	9.066	8.804	8.571	7.943	7.749	8.117	8.186	7.847	7.176
335.0	1220	1797	2132	1969	1505	1038	850.1	933.9	1053	1293	1569	1759	1748	1561	1352	1173	1167	684.6	353.9	327.5	651.9	1374	4181	8602	436.7	27.32	6.931	5.162	3.963	3.544	2.842	2.449	2.211	1.998	1.867	1.823	1.681	1.519	1.590	1.497	1.704	1.783	2.118	2.428	2.917	3.630	4.781	5.967	6.623	6.653	6.401	7.111	6.987	6.113	4.963	4.408	4.129	4.124	4.629	4.661	4.847	5.172	5.794	6.347	7.010	7.390	8.102	8.487	8.396	8.451	8.629	7.741	7.499	7.761	6.922	7.172	7.190
340.0	1170	1828	2252	2099	1695	1138	899.8	931.7	1028	1219	1446	1645	1654	1503	1295	1082	1092	869.4	431.6	307.1	318.6	437.0	1185	6175	7615	386.6	15.58	6.605	4.554	3.866	3.160	2.431	2.327	2.162	2.074	1.797	1.798	1.592	1.627	1.557	1.631	1.876	2.232	2.653	3.026	3.692	4.444	5.979	6.859	7.090	6.822	7.777	7.486	6.669	5.346	4.283	4.097	4.315	4.476	4.679	4.846	5.297	5.476	6.124	6.425	6.820	7.417	7.665	7.752	7.956	7.949	7.600	7.674	7.344	7.022	6.644	6.400
345.0	1135	1750	2166	2064	1693	1149	880.3	900.5	968.8	1142	1341	1503	1515	1406	1222	1010	923.7	891.8	572.9	333.2	267.7	250.2	381.9	1836	7302	3445	55.39	9.491	5.747	4.070	3.261	2.884	2.436	2.137	1.942	1.878	1.734	1.678	1.428	1.494	1.675	1.785	2.010	2.384	2.856	3.496	4.287	5.584	6.405	6.771	6.759	7.713	7.630	6.589	5.330	4.571	4.375	4.432	4.570	4.508	4.475	5.006	5.148	5.706	6.158	6.461	6.511	7.234	7.301	7.229	7.389	7.438	7.227	6.785	6.719	6.219	5.735
350.0	1036	1620	2035	2045	1734	1205	927.5	908.8	954.7	1072	1228	1361	1382	1296	1159	974.3	850.0	755.2	691.5	496.7	320.4	255.4	249.0	525.8	2120	4763	4960	1214	21.76	5.846	4.278	3.274	2.810	2.352	2.011	1.874	1.632	1.683	1.475	1.456	1.565	1.808	1.849	2.357	2.629	3.387	4.111	5.295	6.133	6.565	6.762	7.789	7.519	6.963	5.820	4.747	4.653	4.492	4.425	4.440	4.457	4.868	5.064	5.429	5.561	5.989	6.094	6.525	6.414	6.808	6.966	6.864	6.621	6.518	6.344	5.998	5.718
355.0	957.7	1524	1931	1982	1729	1272	973.7	947.1	981.2	1038	1172	1264	1269	1216	1098	955.1	836.7	710.3	627.0	651.4	468.9	315.3	269.4	277.8	573.6	1173	3570	6958	408.8	24.17	6.196	4.014	3.108	2.459	2.108	2.031	1.832	1.523	1.604	1.413	1.605	1.609	1.708	2.050	2.313	3.157	4.014	4.959	5.855	5.988	6.153	7.493	7.225	6.806	6.042	4.789	4.612	4.617	4.591	4.820	4.571	5.082	5.256	5.430	5.365	5.848	5.826	5.932	5.967	6.312	6.440	6.460	6.617	6.055	6.145	5.875	5.948
360.0	934.5	1384	1780	1855	1636	1253	1016	979.2	994.5	1052	1129	1198	1197	1141	1048	922.3	820.2	703.4	598.7	616.4	609.6	397.0	303.8	253.9	259.0	349.3	989.1	5097	6301	357.0	13.50	5.490	3.588	3.028	2.122	1.990	1.742	1.604	1.707	1.478	1.580	1.661	1.748	2.015	2.365	2.990	3.453	4.492	5.426	5.563	5.946	7.224	7.190	6.681	5.524	4.980	4.900	4.814	4.907	4.588	4.859	4.738	5.287	5.238	5.141	5.340	5.507	5.533	5.634	6.103	5.979	6.161	6.192	5.919	5.680	5.676	5.910
365.0	862.3	1289	1624	1722	1551	1256	1041	1016	1025	1048	1106	1144	1136	1085	1006	896.0	812.8	710.6	618.2	579.4	632.1	530.3	361.8	281.1	221.5	194.1	302.8	1521	6218	3253	52.16	8.985	5.109	3.476	2.463	2.086	2.055	1.950	1.635	1.590	1.611	1.659	1.707	2.034	2.210	2.974	3.268	4.270	5.085	5.245	5.611	6.746	6.461	6.478	5.435	5.083	5.060	4.930	4.932	4.745	5.034	4.825	5.211	4.974	5.211	5.016	5.215	5.437	5.546	5.950	5.583	5.588	5.974	6.272	5.538	5.495	5.166
370.0	810.2	1186	1477	1599	1513	1243	1074	1042	1051	1068	1103	1114	1096	1039	971.4	881.6	814.8	735.4	656.0	605.2	590.3	609.4	504.4	359.8	270.9	212.7	192.6	431.1	1824	4320	4475	1102	19.78	5.361	3.453	2.577	2.133	2.033	1.763	1.622	1.636	1.679	1.810	1.978	2.206	2.615	3.128	3.900	4.542	4.915	5.239	6.085	6.218	6.206	5.527	5.037	5.533	5.064	4.923	5.077	4.935	5.192	5.256	5.016	5.174	5.361	5.233	5.336	5.271	5.560	5.350	5.582	5.672	5.664	5.382	5.471	5.182
375.0	747.6	1104	1343	1470	1438	1261	1127	1076	1085	1084	1101	1099	1067	1019	954.7	867.8	815.7	757.4	696.0	649.8	608.8	589.1	620.4	507.2	357.1	281.1	230.8	240.2	512.1	1088	3275	6130	358.6	21.76	5.381	3.319	2.712	2.158	1.818	1.841	1.738	1.763	1.727	1.977	2.211	2.479	2.837	3.366	4.066	4.517	5.024	5.760	6.039	6.231	5.469	5.134	5.148	5.122	5.155	5.439	5.138	5.461	5.286	5.270	5.481	5.325	5.249	5.362	5.283	5.239	5.213	5.300	5.251	5.446	5.146	5.136	5.280
380.0	721.7	1021	1259	1392	1413	1259	1140	1106	1096	1115	1113	1096	1057	990.5	923.4	858.2	810.6	765.9	723.1	678.2	636.0	603.8	615.1	622.1	461.0	346.8	282.6	239.1	256.1	351.6	936.1	4528	5257	301.6	11.57	4.757	3.381	2.381	2.026	1.914	1.784	1.934	1.852	2.103	2.214	2.670	2.869	3.415	3.853	4.235	4.448	5.604	5.697	5.811	5.708	5.143	5.169	5.431	5.164	5.468	5.122	5.361	5.260	5.268	5.681	5.385	5.338	5.135	5.280	4.960	5.583	5.320	5.417	5.337	5.192	5.026	5.161
385.0	763.5	995.1	1234	1348	1367	1259	1161	1121	1113	1119	1113	1102	1055	980.0	919.2	848.1	807.9	771.1	739.4	697.9	665.0	631.8	607.9	639.0	579.7	422.2	341.7	278.3	240.3	220.6	315.3	1362	5101	2754	42.94	7.601	4.162	2.733	2.342	1.974	1.790	1.707	1.924	2.096	2.340	2.543	2.806	3.365	3.899	3.967	4.355	5.435	5.333	6.062	5.713	5.224	5.472	5.660	5.395	5.368	5.146	5.413	5.485	5.544	5.440	5.311	5.175	4.844	5.069	5.054	5.434	5.118	5.084	5.221	5.062	4.979	5.417
390.0	699.2	946.6	1175	1297	1314	1248	1170	1140	1126	1125	1110	1093	1047	976.7	900.6	833.0	803.2	774.6	755.5	718.9	693.8	666.7	638.7	621.3	629.3	550.0	429.3	347.9	290.3	239.7	215.0	403.4	1484	3310	3406	883.0	16.73	4.580	3.080	2.332	1.953	1.864	1.992	2.067	2.250	2.453	2.830	3.356	3.670	3.792	4.087	5.291	5.295	5.674	5.306	5.360	5.646	5.626	5.443	5.456	5.371	5.404	5.478	5.503	5.502	5.302	5.149	4.954	5.081	5.258	5.459	5.206	5.050	5.218	5.100	5.131	5.305
395.0	674.8	915.7	1129	1224	1279	1233	1197	1156	1156	1131	1124	1093	1049	976.9	893.8	830.4	796.6	775.3	761.4	734.4	719.0	701.0	675.3	641.7	625.8	622.3	564.9	433.6	361.1	299.3	243.2	228.5	420.9	825.6	2321	4426	301.9	19.03	4.578	3.103	2.430	1.870	2.164	2.206	2.143	2.343	2.805	3.350	3.759	3.685	4.021	5.151	5.210	5.732	5.195	5.223	5.659	5.577	5.307	5.827	5.519	5.396	5.559	5.180	5.607	5.416	5.086	4.944	5.077	5.210	5.134	5.086	5.079	5.226	5.087	5.035	5.200
400.0	667.9	925.0	1106	1196	1250	1235	1194	1157	1155	1138	1133	1108	1054	978.3	896.4	829.8	796.9	777.7	754.8	740.9	731.1	720.7	699.1	669.6	645.7	627.2	636.7	526.8	418.0	352.2	284.9	221.5	208.7	261.6	646.6	3071	3682	260.8	10.89	4.249	2.844	2.232	2.218	2.229	2.117	2.431	2.907	3.234	3.690	3.613	3.722	5.098	5.124	5.626	5.412	5.499	5.761	5.769	5.770	5.322	5.427	5.364	5.395	5.342	5.493	5.382	4.970	5.069	5.283	5.125	4.929	5.021	5.148	4.958	5.015	4.954	4.921
405.0	661.7	890.9	1101	1166	1219	1222	1185	1164	1151	1150	1147	1111	1062	988.1	900.8	834.6	790.3	766.2	756.2	744.3	738.0	724.9	715.7	691.2	668.2	634.4	644.9	612.3	486.0	402.2	330.9	251.4	190.2	157.0	214.5	898.8	3330	2331	38.74	6.633	3.685	2.786	2.356	2.210	2.109	2.546	2.596	3.383	3.469	3.581	3.915	4.675	4.903	5.211	5.261	5.179	5.375	5.498	5.790	5.412	5.595	5.569	5.486	5.313	5.580	5.338	4.919	5.208	5.028	5.091	4.715	4.923	5.092	4.881	4.914	5.236	4.906
410.0	643.7	873.3	1053	1138	1185	1183	1176	1171	1147	1146	1135	1111	1062	981.9	896.2	819.0	773.0	751.9	738.6	734.9	726.6	721.1	719.0	703.2	682.8	652.6	631.7	625.0	582.5	471.2	379.2	295.2	216.8	161.6	140.0	267.4	951.4	2304	2526	754.2	14.69	3.824	3.007	2.596	2.407	2.603	2.753	3.277	3.529	3.470	3.924	4.484	4.973	5.066	5.047	5.155	5.378	5.437	5.552	5.406	5.382	5.555	5.451	5.450	5.257	5.100	5.240	5.016	4.882	5.090	4.902	5.015	5.173	4.873	4.768	4.908	5.038
415.0	618.2	831.2	992.0	1077	1105	1133	1151	1146	1127	1122	1126	1091	1030	955.8	870.7	795.5	744.7	724.8	713.6	709.8	703.6	704.7	705.7	697.2	679.1	652.3	625.6	596.9	595.6	546.8	422.5	326.0	246.8	183.9	140.5	140.2	268.9	566.5	1520	3094	279.4	16.73	3.860	2.943	2.440	2.750	2.606	3.142	3.592	3.346	3.577	4.424	4.778	4.651	4.975	5.102	5.289	5.587	5.336	5.423	5.589	5.302	5.499	5.270	5.213	4.955	4.985	4.847	4.921	4.797	4.518	4.986	5.000	4.998	4.497	4.763	4.662
420.0	606.2	808.6	943.8	1043	1095	1103	1114	1133	1110	1104	1100	1068	1004	925.4	837.8	772.9	721.9	700.0	684.0	683.4	681.2	679.6	683.6	678.3	668.0	642.5	619.7	581.0	567.6	564.6	463.9	344.4	264.1	200.0	151.2	121.3	123.8	169.0	408.9	1987	2262	248.1	9.719	3.403	2.879	2.759	2.785	3.106	3.232	3.326	3.471	4.453	4.794	4.810	4.876	5.038	5.262	5.399	5.315	5.546	5.461	5.242	5.345	5.124	5.128	5.101	5.024	4.841	4.837	4.770	4.624	4.728	4.760	4.724	4.370	4.463	4.704
425.0	602.7	802.5	902.1	1026	1076	1087	1081	1109	1095	1084	1072	1034	981.2	903.2	812.3	740.5	698.8	671.8	664.7	661.8	657.2	657.8	660.6	661.8	652.8	633.5	604.9	578.6	548.1	537.1	499.1	374.7	278.3	214.4	163.8	126.8	100.7	88.07	126.3	554.5	2065	2110	36.91	5.791	3.500	3.086	2.895	2.978	3.234	3.181	3.388	4.291	4.757	4.740	4.932	5.077	5.388	5.162	5.337	5.430	5.221	5.226	5.128	5.218	5.233	5.264	5.032	4.599	4.995	4.716	4.586	4.478	4.510	4.519	4.410	4.272	4.575
430.0	607.2	755.7	887.2	992.2	1036	1048	1073	1082	1071	1069	1045	1016	946.2	874.8	785.3	715.9	673.1	644.7	635.2	630.7	630.1	630.0	634.8	635.6	631.2	613.9	592.7	571.2	539.1	509.6	487.0	420.4	313.3	236.1	185.2	142.6	110.1	81.70	71.51	154.8	566.2	1604	1951	697.7	15.12	4.053	3.380	3.191	3.267	3.198	3.321	4.154	4.423	4.582	4.643	4.922	5.018	5.093	5.168	5.393	5.269	5.119	5.099	4.954	5.011	4.828	4.807	4.579	4.592	4.374	4.596	4.196	4.394	4.441	4.284	4.218	4.478
435.0	786.9	722.1	864.7	940.4	995.1	1021	1056	1075	1045	1047	1024	985.1	914.7	835.6	754.0	688.9	647.6	618.0	607.6	602.6	597.0	598.1	604.9	607.9	603.0	590.2	574.6	556.2	533.0	499.3	456.7	415.8	361.1	265.7	201.0	160.5	125.5	92.85	70.15	74.20	155.6	384.2	993.5	2495	1004	20.00	4.276	3.588	3.447	3.071	3.419	3.986	4.156	4.573	4.588	4.970	5.117	4.776	5.217	5.254	4.955	5.082	5.020	4.923	4.873	4.791	4.717	4.362	4.426	4.366	4.422	4.310	4.221	4.359	4.228	4.081	4.261
440.0	1080	783.6	821.7	891.3	960.0	1004	1016	1041	1027	1029	998.8	948.8	890.4	812.0	733.2	661.5	617.6	591.8	581.7	577.6	574.0	570.3	577.1	581.1	580.6	568.3	557.4	539.3	520.2	488.0	445.7	397.0	364.9	294.7	217.5	169.8	134.6	102.4	76.55	62.21	67.64	110.8	258.8	1435	2295	245.3	13.03	4.165	3.692	3.359	3.354	3.913	4.065	4.448	4.537	4.428	4.821	4.808	5.233	4.875	4.985	5.149	4.963	4.735	4.723	4.496	4.471	4.098	4.402	4.246	4.326	4.104	4.211	4.098	3.978	3.977	4.003
445.0	1117	981.6	810.2	868.9	917.4	958.4	986.8	1021	1006	993.8	978.3	917.7	858.7	774.4	696.7	635.4	592.6	564.8	555.8	548.1	540.9	545.4	546.8	555.2	551.1	541.3	530.9	521.9	498.2	475.3	432.3	382.8	342.3	308.7	234.3	177.5	141.0	107.9	82.23	64.96	54.27	53.54	79.54	385.2	1709	1979	190.0	8.141	3.952	3.526	3.423	4.115	3.920	4.217	4.305	4.351	4.764	4.840	4.716	4.705	5.052	4.698	4.723	4.822	4.629	4.136	4.227	4.046	4.064	4.124	4.025	4.141	4.154	3.993	4.034	3.853	3.860
450.0	780.9	1429	895.0	821.5	855.5	905.3	934.7	962.5	950.9	933.6	912.6	861.2	799.0	729.4	652.9	591.6	550.5	525.3	515.2	507.8	498.7	500.0	506.2	507.4	504.7	501.9	494.5	483.0	468.0	446.1	409.8	362.5	314.3	286.1	251.1	192.5	147.6	115.2	90.79	72.16	56.76	46.45	43.81	105.4	450.8	1325	1708	668.3	15.03	4.051	3.590	3.966	3.896	4.212	4.136	4.209	4.600	4.792	4.682	4.554	4.639	4.734	4.747	4.409	4.318	4.145	4.366	3.956	3.885	3.888	3.769	3.756	3.741	3.730	3.789	3.533	3.636
455.0	505.4	1358	1312	765.9	780.9	832.5	876.3	890.4	897.3	870.7	845.2	799.4	741.1	666.7	601.6	543.6	497.9	473.7	470.7	460.5	454.2	452.3	454.9	458.4	457.6	452.8	449.2	442.5	431.2	413.3	380.1	339.3	297.1	260.6	235.0	209.1	159.6	121.2	97.72	78.14	63.33	48.44	40.32	46.66	117.8	311.9	715.0	1922	909.3	18.31	4.062	4.089	3.864	4.009	3.911	4.145	4.275	4.531	4.192	4.588	4.240	4.372	4.400	4.024	4.282	4.110	3.967	3.864	3.746	3.615	3.629	3.511	3.480	3.440	3.470	3.365	3.511
460.0	423.5	959.9	1919	882.5	738.6	771.3	830.8	836.7	846.0	819.4	800.7	763.6	694.1	620.5	561.1	506.5	469.1	443.9	434.6	428.8	418.9	417.6	420.7	422.5	424.5	420.8	419.0	408.7	402.7	388.0	357.1	324.9	280.4	245.9	216.5	204.8	170.7	124.7	100.4	81.62	66.24	52.11	41.03	36.36	46.06	85.34	179.1	958.9	1895	197.2	13.83	4.453	3.992	3.968	3.853	3.919	4.131	4.182	4.231	4.053	3.877	4.167	3.957	3.948	3.890	3.950	3.861	3.767	3.618	3.588	3.371	3.396	3.378	3.405	3.126	3.173	3.266
465.0	382.6	609.1	1926	1285	694.7	726.1	770.8	789.4	798.2	767.8	754.8	709.5	655.6	578.8	524.0	473.8	437.3	413.6	404.8	397.2	386.3	388.2	387.0	389.4	389.0	387.3	386.7	377.5	372.5	365.7	339.0	306.3	268.3	232.7	204.6	189.4	173.4	133.2	102.2	83.60	69.30	55.62	44.47	36.28	31.78	36.20	53.47	247.8	1196	1540	175.4	9.931	4.223	4.028	3.821	3.698	3.973	3.964	4.273	3.959	3.923	3.788	3.906	3.932	3.966	3.833	3.576	3.641	3.230	3.063	2.948	3.073	3.194	3.188	3.080	3.124	3.091
470.0	359.2	457.2	1190	1962	846.1	658.3	694.9	722.7	722.0	705.2	693.1	650.7	591.8	527.8	472.9	427.5	396.7	372.4	362.5	354.4	345.2	344.8	345.9	348.3	346.2	345.1	341.4	340.0	335.7	327.5	308.9	278.4	246.6	216.3	188.3	167.4	155.1	138.7	108.3	85.14	69.51	57.18	46.99	37.92	31.41	27.36	27.25	67.49	305.4	894.1	1223	593.5	15.67	4.575	3.831	3.745	3.809	3.641	3.786	3.750	3.644	3.779	3.684	3.366	3.582	3.446	3.467	3.215	3.081	2.992	2.720	2.878	3.014	2.987	2.904	2.754	2.801
475.0	348.4	392.9	627.1	1796	1495	624.0	627.4	647.9	645.4	639.4	626.6	589.3	527.6	478.8	427.4	379.6	359.1	335.0	322.4	313.7	304.2	305.5	305.7	305.4	305.8	302.4	301.8	298.6	296.6	291.3	275.1	250.1	222.2	197.6	171.9	152.6	136.0	126.8	114.6	88.21	69.55	58.30	48.22	39.90	33.33	26.91	22.85	28.56	79.01	208.7	457.1	1253	685.0	21.19	4.194	3.849	3.638	3.431	3.834	3.559	3.348	3.328	3.379	3.150	3.450	3.303	3.011	2.851	2.772	2.915	2.750	2.703	2.622	2.676	2.688	2.581	2.487
480.0	336.2	382.0	482.0	1162	2121	772.7	582.4	593.8	603.7	602.0	579.8	549.2	492.9	436.9	397.1	351.9	326.6	308.9	298.0	287.4	279.1	278.0	275.9	276.7	278.4	275.7	274.5	271.1	270.7	266.6	251.7	232.8	207.7	185.4	162.3	145.0	126.8	115.1	111.6	93.43	71.73	58.66	49.17	40.03	34.21	28.40	23.24	20.98	29.07	55.64	113.1	565.7	1333	229.0	15.38	3.887	3.496	3.422	3.283	3.558	3.326	3.245	3.160	3.270	2.960	3.057	2.835	2.603	2.612	2.808	2.553	2.680	2.620	2.354	2.636	2.420	2.359
485.0	319.6	385.1	414.0	681.7	2142	1257	552.4	566.4	564.6	564.5	546.9	516.8	462.6	413.5	368.3	329.0	306.8	288.2	279.7	267.2	257.1	256.5	256.5	255.4	257.6	252.6	253.0	252.0	251.1	247.3	236.6	217.8	196.9	175.4	155.0	137.2	121.1	110.0	103.2	97.24	76.12	59.59	50.69	41.47	35.39	29.93	24.40	20.13	19.09	22.41	33.82	144.6	764.7	1232	197.2	9.589	3.924	3.609	3.430	3.386	3.047	3.129	3.020	2.965	2.894	2.882	2.586	2.586	2.320	2.384	2.400	2.394	2.621	2.548	2.355	2.304	2.401
490.0	251.0	386.5	391.8	476.2	1304	2090	732.1	518.4	521.7	515.1	501.5	476.6	426.2	382.6	334.6	300.8	279.0	265.3	254.7	242.8	236.3	233.0	229.8	229.7	230.4	229.2	227.7	227.7	227.5	224.8	217.1	198.7	180.8	162.0	144.0	127.8	113.6	101.8	92.16	89.00	80.77	63.80	51.11	42.29	37.07	31.19	26.24	21.83	18.36	16.07	17.16	40.37	192.0	628.0	1072	607.1	17.43	3.963	3.388	3.106	2.935	2.978	2.920	2.773	2.751	2.643	2.497	2.478	2.426	2.450	2.264	2.205	2.187	2.174	2.110	2.127	2.124
495.0	212.8	342.7	397.3	385.9	637.2	2005	1493	488.7	470.8	459.3	448.9	432.0	383.2	346.3	302.8	273.0	253.5	233.7	223.1	216.3	209.5	205.0	203.3	204.8	204.9	204.2	203.0	202.8	202.0	199.0	192.9	180.0	163.7	147.6	133.1	118.4	104.5	93.13	84.70	76.92	75.01	68.39	53.17	43.40	37.19	31.97	27.40	23.07	19.32	15.86	14.14	17.78	50.28	146.8	393.4	1221	793.0	23.77	3.775	3.060	2.947	2.792	2.565	2.602	2.548	2.191	2.359	2.340	2.188	2.274	2.171	2.200	2.016	1.946	2.280	1.928	2.039
500.0	196.1	297.0	413.9	365.3	421.6	1264	2271	598.5	422.7	427.6	417.8	388.6	355.7	314.6	279.0	250.7	230.7	216.4	206.1	196.3	188.0	185.0	186.5	184.0	183.1	184.8	183.0	183.4	183.7	181.1	175.8	164.1	150.6	136.7	123.6	111.0	98.65	87.79	78.55	70.02	67.94	66.82	57.14	44.08	36.36	32.31	27.73	23.41	20.27	16.89	14.09	13.00	18.75	39.75	95.88	520.6	1336	250.8	17.26	3.101	2.829	2.547	2.406	2.510	2.416	2.333	2.158	2.106	2.347	2.131	1.998	2.052	1.915	1.941	1.823	1.887	1.867
505.0	197.9	241.2	368.2	351.6	343.8	661.1	2440	1073	404.4	392.4	390.5	352.1	329.5	294.9	259.1	229.3	211.1	197.8	188.3	178.7	171.4	169.6	169.0	168.3	165.2	167.1	166.8	166.6	165.9	164.0	159.5	149.3	137.5	124.5	112.4	101.8	91.28	82.86	74.63	66.16	60.52	60.35	58.21	46.14	37.05	32.30	27.74	23.74	20.45	17.20	14.47	12.49	12.16	15.85	27.61	129.3	690.8	1162	217.7	9.626	3.000	2.622	2.407	2.379	2.380	2.142	2.042	2.066	1.917	2.153	1.946	1.933	1.918	1.790	1.630	1.887	1.757
510.0	174.7	217.4	307.9	358.8	307.4	388.6	1467	2094	550.8	355.3	346.5	318.3	290.8	256.5	230.7	204.7	184.1	174.4	166.0	157.3	152.1	151.2	147.4	147.5	144.3	145.6	145.6	146.5	147.4	144.9	141.8	131.1	121.7	110.9	100.2	91.73	82.93	74.90	66.86	60.64	55.57	51.55	51.57	47.81	38.13	31.20	26.73	22.92	19.78	17.37	14.75	12.54	11.13	10.52	12.41	34.31	169.3	540.2	849.4	471.2	17.37	2.971	2.479	2.339	2.122	2.078	1.971	1.862	1.718	1.862	1.697	1.917	1.659	1.640	1.583	1.654	1.548
515.0	155.1	191.5	238.7	335.3	300.6	289.9	590.6	2199	1337	327.8	302.4	278.8	259.0	226.5	197.3	176.7	164.8	154.6	143.4	137.7	133.9	131.1	127.3	126.0	125.5	126.1	124.2	126.1	125.5	123.6	122.4	114.2	105.4	96.86	89.21	80.93	74.55	65.66	61.40	55.23	49.50	46.05	43.00	43.78	40.74	32.32	25.58	22.02	19.82	16.56	14.23	13.03	10.84	9.633	9.137	13.34	42.79	125.2	282.9	835.9	604.8	23.54	2.698	2.168	2.029	2.143	1.799	1.847	1.648	1.508	1.561	1.606	1.537	1.488	1.502	1.491	1.468
520.0	128.3	167.8	193.3	293.7	298.7	251.8	336.6	1393	2316	435.3	272.4	253.7	232.5	205.5	175.6	158.3	149.5	137.8	129.1	123.3	121.7	114.8	114.4	114.5	111.0	112.5	111.2	112.6	110.6	111.1	107.8	101.7	95.05	86.85	80.33	72.69	67.45	60.77	56.29	50.86	45.78	41.78	38.20	38.42	39.60	33.04	25.26	21.79	18.42	16.03	14.18	12.82	11.38	9.291	8.463	8.925	14.84	32.72	68.52	338.3	910.3	246.8	16.52	2.370	2.010	1.812	1.781	1.912	1.479	1.478	1.509	1.610	1.476	1.355	1.331	1.365	1.345
525.0	130.4	150.6	175.4	231.5	305.5	230.2	257.6	656.2	2723	890.9	251.3	231.2	210.9	187.9	163.2	146.6	132.8	122.4	117.3	111.4	107.7	103.1	102.1	102.8	101.2	100.8	100.7	100.1	100.3	99.64	96.08	91.54	85.78	78.58	72.98	66.46	60.59	55.91	50.16	47.10	42.32	39.45	35.93	33.68	35.68	34.48	26.07	20.54	17.55	15.70	13.65	12.11	11.25	9.722	8.498	7.479	8.247	11.71	19.14	82.09	435.4	805.3	212.6	7.630	2.251	1.999	1.599	1.610	1.488	1.431	1.423	1.228	1.401	1.408	1.326	1.264	1.501
530.0	116.3	130.2	153.1	178.9	271.1	247.1	217.2	314.3	1654	2112	382.4	205.9	184.6	162.7	145.9	128.3	118.5	108.5	103.1	96.91	93.51	91.13	88.91	88.45	87.61	86.78	85.72	87.23	86.63	87.23	84.39	79.85	74.30	69.22	63.87	58.55	53.55	49.25	44.64	41.87	37.40	34.46	32.51	29.55	29.16	30.04	27.20	21.04	17.13	14.89	13.00	11.78	10.15	9.502	8.295	7.312	6.905	6.968	8.126	21.73	105.9	357.3	603.5	299.4	16.59	2.143	1.677	1.517	1.448	1.273	1.367	1.288	1.232	1.312	1.249	1.220	1.291
535.0	105.7	112.3	136.6	150.2	197.3	253.8	187.6	211.1	586.7	2449	1144	189.1	160.3	140.7	123.7	112.2	104.7	93.67	88.71	83.48	79.68	77.76	76.27	76.67	74.52	74.93	73.61	74.42	74.33	73.66	72.13	68.84	63.00	58.17	54.48	50.75	46.15	42.74	39.30	36.10	33.00	30.46	28.03	25.38	24.65	23.51	25.55	22.03	17.18	13.71	12.13	10.48	9.606	8.576	8.314	7.034	6.256	5.932	5.755	8.197	26.73	82.49	190.1	571.6	262.2	21.35	1.713	1.620	1.377	1.284	1.284	1.214	1.100	1.153	1.113	1.081	1.217
540.0	86.77	106.7	128.4	134.6	154.5	242.7	188.1	173.4	264.7	1531	2074	234.8	143.6	122.8	108.3	99.47	89.53	83.58	78.96	75.50	70.80	68.24	67.11	68.05	65.08	65.75	66.13	65.44	65.29	64.25	64.15	60.25	56.89	51.24	47.56	44.57	41.77	38.25	35.45	32.81	29.38	26.94	25.63	22.96	21.38	20.36	21.61	21.49	17.47	13.26	11.37	9.918	9.086	8.032	8.142	7.167	6.173	5.571	5.055	5.354	9.063	21.00	45.30	224.4	607.6	231.3	13.68	1.588	1.361	1.280	1.154	1.147	1.035	1.186	1.044	0.963	1.066
545.0	97.87	105.0	115.3	112.9	127.8	196.5	206.2	151.7	175.1	641.5	2749	595.1	131.2	108.8	98.23	88.01	80.86	73.07	69.78	67.32	63.52	61.41	60.12	59.78	58.10	58.16	56.66	57.46	56.82	57.94	55.81	53.43	49.62	46.03	43.01	39.09	36.68	33.87	31.34	29.22	26.58	24.64	23.31	20.99	19.58	18.36	17.90	19.98	17.51	13.56	10.39	9.320	8.313	7.668	7.288	6.681	6.635	5.346	4.696	4.198	4.879	7.108	12.38	54.34	287.1	564.7	177.1	5.953	1.374	1.210	1.088	1.131	1.125	0.993	0.974	1.018	0.992
550.0	87.36	94.79	102.9	103.4	106.3	144.0	206.5	146.2	135.0	249.2	1655	1831	167.6	94.80	83.90	74.59	68.17	62.06	58.99	57.02	52.32	51.46	49.40	49.32	47.87	47.70	46.72	48.02	47.47	48.07	46.95	43.95	41.00	38.45	35.34	32.99	30.66	28.08	27.08	24.71	22.97	21.38	19.49	17.90	16.82	15.68	14.70	15.10	15.20	13.55	9.928	8.351	7.293	6.817	6.347	5.934	5.975	5.322	4.415	3.845	3.634	3.897	4.704	14.12	68.87	235.7	395.0	148.9	15.22	1.385	1.145	1.093	1.040	0.988	0.918	0.961	0.869
555.0	90.86	80.81	94.63	89.76	93.77	96.63	165.9	158.1	114.0	139.8	519.7	2362	730.7	84.35	68.35	60.85	55.72	50.11	48.97	45.93	42.95	41.33	39.77	39.73	38.84	38.46	39.14	38.19	37.81	38.54	38.75	35.30	33.23	30.11	29.27	27.16	25.03	22.96	22.17	20.29	18.70	17.65	16.08	15.25	14.51	13.18	12.16	11.28	11.88	12.05	10.04	7.967	6.570	5.825	5.662	5.039	5.217	4.843	4.471	3.664	3.297	2.883	2.954	4.924	17.01	54.23	119.5	340.9	242.6	19.34	1.326	1.175	0.937	0.891	0.946	0.923	0.782
560.0	94.91	83.03	88.84	88.43	79.96	79.58	124.0	170.7	104.6	105.8	194.9	1512	1508	119.5	58.16	52.28	47.24	43.59	41.99	38.69	37.39	35.26	34.77	33.89	33.22	32.76	32.43	32.90	32.53	32.36	32.34	30.57	28.18	26.30	24.86	23.15	21.42	19.78	18.57	16.99	15.83	14.98	13.93	12.77	12.61	11.64	10.60	9.903	9.320	10.05	10.07	7.535	6.352	5.333	4.869	4.531	4.449	3.919	4.290	3.352	2.833	2.541	2.452	2.541	5.404	13.55	28.31	129.3	371.4	194.3	11.11	1.161	0.900	0.748	0.937	0.802	0.811
565.0	78.90	77.49	75.26	75.62	71.30	70.11	92.09	173.9	109.1	87.65	111.3	599.4	2287	350.5	50.46	45.75	40.61	37.11	34.84	32.73	31.56	29.77	29.48	28.53	27.80	27.03	27.38	28.30	27.23	27.46	27.38	25.05	24.56	23.06	21.60	19.22	18.54	16.59	15.74	14.67	13.91	12.79	12.28	11.20	10.84	9.854	9.376	8.481	7.669	7.837	8.845	7.651	6.027	4.848	4.590	4.125	3.922	3.709	3.679	3.593	2.952	2.466	2.259	2.004	2.588	4.452	7.719	31.04	160.7	355.1	122.4	4.231	0.943	0.790	0.845	0.795	0.760
570.0	78.72	82.05	78.18	69.07	61.85	58.92	66.77	125.0	131.2	81.61	85.22	201.3	1470	1365	87.20	37.54	34.05	30.99	28.32	27.24	26.14	24.85	23.52	23.13	23.04	22.27	22.18	22.73	22.59	22.48	22.69	20.81	19.81	18.25	17.37	15.90	14.97	13.72	12.88	12.09	11.39	10.34	9.721	9.301	8.973	8.028	7.840	6.996	6.472	6.028	6.667	6.734	6.068	4.446	4.054	3.588	3.284	3.382	3.096	3.036	3.085	2.488	2.075	1.866	2.036	2.365	2.961	8.224	38.38	139.0	228.6	135.8	13.22	0.940	0.788	0.729	0.792
575.0	81.51	92.07	80.22	65.92	54.33	50.79	52.90	79.14	139.5	94.61	79.21	101.1	449.4	1913	486.8	31.76	27.29	25.58	24.05	22.01	20.45	19.57	18.47	18.40	18.60	18.22	17.86	18.20	18.39	18.11	17.93	16.31	15.57	14.13	13.81	12.81	12.15	11.12	10.13	9.760	9.078	8.225	8.139	7.748	7.246	6.880	6.347	6.301	5.302	4.874	4.830	4.916	5.557	4.643	3.711	3.124	3.061	2.848	2.627	2.501	2.581	2.486	2.034	1.755	1.764	1.616	1.831	2.948	9.557	31.95	66.04	210.9	174.8	16.39	0.900	0.774	0.690
580.0	84.28	92.92	78.35	62.48	48.33	46.07	49.60	61.33	127.4	113.7	77.43	79.37	155.3	1271	1069	49.98	23.63	21.94	20.04	18.08	18.52	17.25	16.54	15.84	15.00	14.76	15.36	15.65	15.34	15.40	15.07	14.02	12.78	12.23	11.41	10.51	10.03	9.168	9.100	8.458	7.945	7.542	6.765	6.730	6.665	5.735	5.514	5.266	4.685	4.216	4.040	3.934	4.629	4.327	3.526	2.706	2.734	2.584	2.371	2.174	2.183	2.237	2.259	1.778	1.543	1.467	1.514	1.863	3.156	8.167	15.76	75.86	223.6	127.2	7.629	0.732	0.684
585.0	84.15	87.89	77.29	61.67	47.24	43.41	46.50	53.41	100.0	132.8	82.60	74.28	85.27	498.4	1741	115.1	21.32	19.22	17.71	15.45	15.89	15.09	13.96	14.05	13.72	12.83	13.06	12.81	13.33	13.10	12.77	12.21	10.77	10.51	9.789	9.188	8.347	8.462	7.558	7.251	6.813	6.590	6.057	6.047	5.687	5.112	4.790	4.655	4.117	3.858	3.473	3.463	3.627	4.167	3.789	2.910	2.545	2.205	2.093	1.896	1.987	1.902	2.152	2.020	1.563	1.448	1.453	1.381	1.667	2.750	4.398	18.21	92.19	213.8	36.36	3.176	0.714
590.0	85.59	83.76	75.27	58.11	45.48	41.73	41.35	46.87	70.16	131.5	103.2	77.69	68.96	154.8	1132	846.0	42.24	16.28	14.79	13.56	12.77	12.30	11.70	11.76	11.45	10.58	10.77	10.40	10.73	10.57	10.52	10.32	8.901	8.622	8.124	7.605	7.199	6.858	6.284	6.112	5.529	5.280	5.087	4.861	4.528	4.131	4.142	3.976	3.435	3.247	2.998	2.839	2.748	3.178	3.334	2.886	2.504	2.058	1.892	1.855	1.743	1.534	1.707	1.978	1.695	1.397	1.348	1.186	1.309	1.483	1.776	4.851	21.91	80.82	131.3	88.67	11.38
595.0	82.29	80.90	74.38	58.09	42.39	35.80	40.90	45.21	56.42	101.0	128.0	80.11	68.85	67.87	327.0	1297	259.3	14.58	12.36	11.37	11.01	10.30	9.628	9.330	8.976	9.107	9.033	8.585	8.296	8.303	8.198	8.067	7.635	7.159	6.551	6.198	5.572	5.404	4.988	4.847	4.642	4.359	3.995	3.851	3.936	3.525	3.235	3.024	2.909	2.680	2.453	2.510	2.356	2.159	2.590	2.784	2.515	1.985	1.664	1.473	1.544	1.450	1.435	1.589	1.823	1.556	1.305	1.177	1.128	1.077	1.132	1.801	5.576	18.70	37.14	118.8	111.8
600.0	76.95	81.85	68.16	53.58	38.36	35.74	39.07	43.81	53.33	84.17	142.3	93.65	67.09	49.31	99.16	886.5	704.1	26.02	10.81	9.819	9.530	8.685	8.199	7.971	7.368	7.457	7.546	7.524	6.944	7.392	7.495	6.943	6.632	6.172	5.302	5.254	5.026	4.638	4.331	4.154	3.806	3.741	3.620	3.330	3.258	3.029	2.823	2.654	2.646	2.430	2.193	2.096	1.966	1.928	2.089	2.470	2.451	1.963	1.617	1.511	1.347	1.297	1.189	1.359	1.613	1.579	1.380	1.054	1.059	1.065	0.965	1.157	1.938	4.880	9.029	40.49	131.1
605.0	84.11	86.49	67.45	50.21	35.64	35.85	41.34	48.65	59.51	80.73	137.2	118.0	79.66	50.85	49.95	350.7	1121	77.67	10.11	8.793	8.197	7.863	7.002	7.111	6.527	6.343	6.041	6.454	5.941	6.310	6.482	6.006	5.565	5.103	4.736	4.512	4.416	4.085	3.929	3.733	3.306	3.079	3.004	2.937	2.886	2.666	2.641	2.303	2.212	1.937	1.798	1.827	1.830	1.728	1.804	2.108	2.238	1.927	1.666	1.369	1.357	1.277	1.271	1.392	1.275	1.523	1.471	1.313	1.141	1.197	1.061	0.957	1.125	1.818	2.646	9.806	50.72
610.0	81.21	82.39	72.31	48.69	41.26	41.37	45.84	56.44	69.59	93.49	132.2	161.5	105.6	68.01	54.92	116.6	783.9	533.0	23.76	7.640	6.856	6.371	5.816	5.757	5.371	5.529	5.207	5.248	5.113	5.156	5.263	5.022	4.604	4.183	4.027	3.826	3.565	3.437	3.057	3.080	2.819	2.546	2.554	2.351	2.323	2.318	2.169	2.025	1.901	1.707	1.551	1.532	1.644	1.503	1.469	1.592	1.895	1.822	1.620	1.279	1.271	1.165	1.290	1.235	1.299	1.327	1.431	1.454	1.222	1.084	1.072	1.003	1.039	1.081	1.268	2.867	12.23
615.0	79.53	82.17	69.51	53.43	38.76	40.39	44.43	58.81	73.01	99.11	121.2	161.3	126.6	75.71	58.58	60.36	249.0	905.6	81.78	7.150	5.614	5.106	4.741	5.268	4.717	4.441	4.267	4.286	4.173	3.754	4.437	3.961	3.533	3.499	3.239	3.178	2.993	2.999	2.685	2.373	2.303	2.217	1.970	1.912	1.997	1.940	1.826	1.809	1.577	1.470	1.484	1.336	1.318	1.222	1.181	1.299	1.485	1.621	1.610	1.442	1.203	1.118	1.110	1.124	1.280	1.339	1.292	1.480	1.493	1.099	0.947	1.013	0.957	0.995	0.826	1.194	3.288
620.0	72.99	76.16	73.24	51.88	38.20	37.98	44.79	57.80	69.95	94.93	113.1	144.9	138.4	77.43	57.33	45.50	88.41	643.1	490.4	12.61	5.376	4.593	4.691	4.305	3.763	3.826	3.483	4.050	3.729	3.542	3.804	3.351	3.067	3.314	2.877	2.836	2.489	2.685	2.180	2.210	1.967	1.802	1.875	1.789	1.662	1.571	1.546	1.552	1.400	1.354	1.202	1.338	1.091	1.144	1.066	0.952	1.181	1.278	1.533	1.288	1.181	0.985	1.118	0.989	1.240	1.189	1.040	1.207	1.535	1.225	1.042	1.070	0.912	0.856	0.833	0.830	1.291
625.0	72.49	78.72	66.45	50.62	38.99	37.23	45.42	54.33	66.02	88.23	106.6	126.7	142.1	81.11	57.31	41.23	49.65	263.0	806.1	53.96	4.978	3.937	3.990	3.817	3.703	3.113	3.399	3.606	3.071	3.258	3.004	2.785	2.757	2.506	2.456	2.396	2.251	2.251	1.878	1.823	1.763	1.637	1.679	1.667	1.598	1.437	1.226	1.415	1.193	1.224	1.098	1.103	1.030	1.087	0.952	0.903	0.964	1.146	1.211	1.457	1.264	1.043	1.092	1.070	1.081	1.154	1.095	1.084	1.365	1.385	1.059	0.846	0.906	0.980	0.833	0.760	0.868
630.0	67.44	72.64	68.65	48.76	39.37	37.05	45.21	53.00	63.08	83.01	98.89	111.3	127.2	91.65	55.76	39.39	39.72	81.59	568.8	411.2	13.01	3.808	3.638	3.136	2.960	2.844	3.025	2.846	2.857	2.707	2.539	2.458	2.248	2.115	2.245	1.900	1.954	1.762	1.583	1.487	1.476	1.413	1.423	1.304	1.331	1.220	1.135	1.212	1.126	1.075	0.911	0.959	0.821	0.932	0.920	0.851	0.821	0.959	0.978	1.260	1.311	1.040	1.067	0.978	1.035	1.042	1.038	1.053	1.169	1.141	1.192	1.018	0.893	0.901	0.772	0.733	0.781
635.0	68.97	75.21	64.38	48.79	37.44	36.45	42.33	50.10	58.65	73.95	93.13	102.2	106.4	101.1	57.91	39.29	37.45	35.02	166.0	736.9	66.17	3.815	3.121	2.777	2.592	2.353	2.502	2.464	2.426	2.201	2.287	2.007	1.938	1.948	1.870	1.553	1.524	1.523	1.319	1.282	1.341	1.151	1.163	1.190	1.161	1.014	0.966	1.051	0.982	0.941	0.882	0.908	0.733	0.885	0.765	0.837	0.804	0.898	0.891	0.949	1.050	0.984	0.975	0.840	0.953	0.900	1.042	0.947	0.897	1.114	1.127	1.105	0.939	0.797	0.738	0.723	0.727
640.0	72.60	71.44	66.61	49.49	37.69	37.03	41.91	45.30	56.09	73.24	90.37	97.31	95.51	99.87	65.59	42.24	36.07	24.71	45.90	536.3	373.5	7.311	3.004	2.364	2.230	2.325	2.041	1.913	1.980	1.965	1.803	1.749	1.947	1.678	1.668	1.378	1.391	1.213	1.248	1.281	1.197	1.070	0.989	1.029	1.097	0.998	0.932	0.860	0.961	0.856	0.768	0.918	0.713	0.820	0.714	0.825	0.867	0.808	0.912	0.914	0.930	0.932	1.034	0.882	0.915	0.906	0.983	0.984	0.822	0.893	1.108	1.007	1.034	0.845	0.809	0.803	0.646
645.0	73.75	73.32	66.02	47.71	36.41	32.32	37.07	46.13	53.36	67.33	85.94	93.57	87.56	85.39	73.23	40.81	35.93	22.01	17.04	215.0	636.9	37.59	2.831	2.235	2.305	2.054	1.936	1.749	1.792	1.844	1.691	1.638	1.696	1.548	1.385	1.353	1.171	1.335	1.037	0.977	1.098	1.046	0.949	0.972	0.891	0.959	0.906	0.827	0.862	0.788	0.707	0.753	0.721	0.692	0.695	0.735	0.763	0.781	0.748	0.792	0.815	0.928	1.005	0.885	0.842	0.865	0.949	0.889	0.941	0.905	0.880	1.000	1.022	0.995	0.818	0.777	0.719
650.0	62.97	78.32	68.36	47.07	35.05	31.66	36.74	42.08	49.82	63.77	75.82	83.79	80.34	74.02	72.49	40.64	33.81	20.69	10.67	62.42	595.4	177.8	3.377	2.293	2.048	2.056	1.743	1.726	1.679	1.829	1.640	1.469	1.527	1.514	1.277	1.157	1.098	1.057	1.044	0.888	1.009	0.881	0.938	0.836	0.772	0.851	0.793	0.727	0.761	0.713	0.635	0.619	0.650	0.618	0.600	0.624	0.691	0.735	0.746	0.678	0.790	0.816	0.884	0.849	0.834	0.828	0.973	0.872	0.881	0.856	0.815	0.901	0.859	1.083	0.723	0.842	0.631
