Sample:	'1
File name:	H2025091103ÇåÈªÁÖÇÅ.FD3
Run date:	'14:33:20, 09/11/2025
Operator:	Administrator
Comment:	'

Instrument
Model:	F-2700 FL Spectrophotometer
Serial number:	23C7-003
ROM Version:	4J14000 07

Instrument parameters
Measurement type:	3-D scan
Data mode:	Fluorescence
EX  Start WL:	220.0 nm
EX  End WL:	600.0 nm
EX Sampling interval:	5.0 nm
EM  Start WL:	230.0 nm
EM  End WL:	650.0 nm
EM Sampling interval:	5.0 nm
Scan speed:	12000 nm/min
EX Slit:	5.0 nm
EM Slit:	5.0 nm
PMT Voltage:	700 V
Response:	Auto 
Corrected spectra:	Off
Contour interval:	50.000

Peak integration
Integration method:	Rectangular
Sensitivity:	1
Threshold:	1.000

Peaks
No.	ApexEX/EM(nm)	Height(Data)
1	225.0/310.0	440.0
2	225.0/555.0	54.84
3	225.0/580.0	45.64
4	225.0/595.0	41.96
5	225.0/610.0	44.26
6	225.0/625.0	37.78
7	230.0/340.0	501.4
8	230.0/355.0	501.1
9	230.0/365.0	492.9
10	230.0/495.0	244.3
11	235.0/395.0	524.3
12	235.0/505.0	208.3
13	240.0/260.0	228.0
14	240.0/400.0	527.9
15	240.0/415.0	520.5
16	240.0/520.0	177.3
17	245.0/270.0	219.8
18	245.0/535.0	141.7
19	250.0/275.0	273.4
20	250.0/405.0	529.2
21	250.0/545.0	118.6
22	255.0/280.0	364.9
23	255.0/430.0	505.1
24	255.0/560.0	104.0
25	260.0/570.0	85.97
26	265.0/585.0	87.05
27	270.0/300.0	967.5
28	270.0/400.0	510.2
29	270.0/595.0	84.55
30	275.0/305.0	1129
31	275.0/610.0	81.44
32	280.0/310.0	1010
33	280.0/375.0	520.1
34	280.0/620.0	67.52
35	285.0/635.0	44.26
36	300.0/335.0	408.5
37	305.0/345.0	382.7
38	310.0/350.0	355.7
39	315.0/355.0	364.4
40	320.0/360.0	376.3
41	325.0/370.0	364.5
42	330.0/375.0	349.7
43	335.0/380.0	344.0
44	440.0/515.0	22.22
45	445.0/525.0	18.16
46	510.0/280.0	2.281
47	515.0/285.0	2.386
48	530.0/290.0	2.942
49	550.0/305.0	5.821
50	560.0/310.0	5.402
51	565.0/315.0	4.936
52	575.0/290.0	44.37
53	575.0/320.0	4.540
54	580.0/325.0	3.893

Data points
	220.0	225.0	230.0	235.0	240.0	245.0	250.0	255.0	260.0	265.0	270.0	275.0	280.0	285.0	290.0	295.0	300.0	305.0	310.0	315.0	320.0	325.0	330.0	335.0	340.0	345.0	350.0	355.0	360.0	365.0	370.0	375.0	380.0	385.0	390.0	395.0	400.0	405.0	410.0	415.0	420.0	425.0	430.0	435.0	440.0	445.0	450.0	455.0	460.0	465.0	470.0	475.0	480.0	485.0	490.0	495.0	500.0	505.0	510.0	515.0	520.0	525.0	530.0	535.0	540.0	545.0	550.0	555.0	560.0	565.0	570.0	575.0	580.0	585.0	590.0	595.0	600.0
230.0	33.83	575.4	2041	902.9	42.15	6.211	5.534	4.384	3.864	3.829	3.201	3.087	2.757	2.439	2.122	1.916	1.565	1.563	1.373	1.242	1.115	0.999	0.892	0.981	0.844	0.784	0.707	0.686	0.741	0.626	0.596	0.603	0.569	0.487	0.505	0.453	0.436	0.424	0.411	0.417	0.399	0.494	0.586	0.463	0.375	0.380	0.844	3.958	8.431	7.590	3.116	0.738	0.322	0.322	0.258	0.259	0.262	0.285	0.242	0.292	0.264	0.246	0.270	0.278	0.274	0.277	0.276	0.291	0.290	0.280	0.313	0.271	0.277	0.254	0.263	0.266	0.305
235.0	91.53	162.0	982.5	2171	468.2	76.07	6.393	5.516	5.085	3.535	3.328	3.327	3.077	2.667	1.995	1.827	1.686	1.648	1.426	1.313	1.265	1.155	0.918	0.871	0.714	0.796	0.762	0.694	0.615	0.652	0.678	0.505	0.525	0.444	0.426	0.371	0.464	0.426	0.371	0.345	0.374	0.406	0.459	0.592	0.545	0.480	0.436	1.178	3.025	5.433	8.090	9.725	5.302	1.342	0.308	0.249	0.286	0.262	0.227	0.294	0.239	0.316	0.302	0.292	0.266	0.245	0.318	0.302	0.347	0.319	0.311	0.303	0.314	0.257	0.287	0.294	0.269
240.0	108.9	117.1	265.1	1390	2511	397.2	35.47	6.274	4.821	3.451	3.570	3.596	2.778	2.661	2.231	1.952	1.507	1.452	1.380	1.352	1.409	1.096	1.007	0.832	0.815	0.802	0.776	0.640	0.669	0.643	0.647	0.551	0.464	0.413	0.498	0.450	0.417	0.505	0.459	0.345	0.412	0.363	0.408	0.459	0.611	0.722	0.463	0.568	0.921	1.641	3.907	9.702	13.89	10.43	3.865	0.659	0.315	0.268	0.282	0.286	0.274	0.282	0.265	0.313	0.260	0.319	0.266	0.232	0.316	0.358	0.276	0.248	0.280	0.265	0.307	0.272	0.319
245.0	71.11	153.7	120.8	396.6	2028	2843	306.0	16.25	6.126	4.437	4.016	3.737	3.272	2.622	2.497	2.058	1.801	1.473	1.550	1.354	1.393	1.159	1.111	1.031	0.866	0.889	0.801	0.740	0.646	0.757	0.706	0.615	0.486	0.465	0.498	0.462	0.425	0.448	0.444	0.329	0.433	0.434	0.419	0.326	0.420	0.587	0.675	0.742	0.577	0.616	1.121	3.275	8.404	14.90	15.63	9.314	2.432	0.346	0.304	0.341	0.312	0.240	0.359	0.295	0.295	0.344	0.342	0.274	0.235	0.296	0.353	0.302	0.331	0.247	0.397	0.246	0.303
250.0	31.08	91.06	155.6	162.7	574.6	2025	2891	1128	84.46	6.679	5.517	4.556	3.950	3.069	2.578	2.123	1.842	1.519	1.580	1.353	1.197	1.183	1.098	1.079	0.958	0.850	0.777	0.784	0.732	0.774	0.649	0.628	0.558	0.570	0.467	0.484	0.432	0.445	0.390	0.419	0.404	0.452	0.353	0.339	0.367	0.426	0.478	0.683	0.843	0.773	0.696	1.045	2.249	4.793	8.893	13.60	16.52	14.58	8.162	2.605	0.474	0.282	0.303	0.262	0.317	0.310	0.294	0.311	0.310	0.320	0.291	0.305	0.347	0.252	0.312	0.286	0.332
255.0	22.01	33.31	93.16	211.2	206.3	479.1	1656	4410	1656	98.20	7.029	5.971	4.133	3.190	2.478	2.594	1.778	1.803	1.643	1.461	1.476	1.229	1.112	1.097	0.884	1.000	0.778	0.754	0.824	0.691	0.735	0.567	0.498	0.619	0.448	0.488	0.414	0.416	0.373	0.466	0.454	0.346	0.368	0.326	0.342	0.368	0.355	0.432	0.431	0.637	1.009	1.098	1.008	1.309	2.238	3.495	6.235	15.11	25.87	22.51	12.18	2.579	0.435	0.307	0.339	0.275	0.339	0.310	0.332	0.354	0.286	0.362	0.318	0.249	0.336	0.283	0.278
260.0	22.21	21.14	33.77	152.0	228.0	158.0	430.9	2771	5237	1300	57.69	7.831	5.438	4.223	3.123	2.677	2.066	1.948	1.651	1.524	1.385	1.176	1.284	1.019	0.932	0.873	0.835	0.871	0.781	0.776	0.705	0.617	0.545	0.555	0.473	0.461	0.387	0.458	0.416	0.382	0.419	0.348	0.438	0.403	0.286	0.357	0.314	0.341	0.300	0.390	0.645	1.149	1.479	0.962	0.820	1.024	1.699	4.273	11.63	24.15	32.78	21.73	8.458	1.224	0.398	0.264	0.360	0.400	0.299	0.420	0.294	0.316	0.338	0.270	0.363	0.295	0.310
265.0	24.22	17.53	19.10	61.54	215.7	190.5	125.5	779.8	4088	5705	978.8	20.45	6.898	4.709	3.567	3.031	2.697	1.924	1.801	1.684	1.387	1.435	1.172	1.112	0.974	0.990	0.861	0.902	0.842	0.844	0.700	0.708	0.657	0.558	0.490	0.491	0.437	0.571	0.410	0.401	0.458	0.464	0.428	0.419	0.339	0.386	0.339	0.313	0.254	0.278	0.359	0.615	1.210	1.493	1.146	0.630	0.701	1.246	2.949	7.513	19.23	34.85	28.11	17.63	4.269	0.479	0.358	0.339	0.348	0.334	0.290	0.270	0.352	0.293	0.345	0.313	0.350
270.0	29.81	21.68	18.16	24.56	85.60	219.8	196.3	215.2	1136	4144	6230	2273	60.55	6.924	4.817	3.521	2.898	2.268	1.917	1.733	1.487	1.676	1.180	1.225	1.099	1.019	1.010	0.855	0.826	0.836	0.756	0.690	0.690	0.569	0.487	0.570	0.511	0.512	0.452	0.447	0.416	0.399	0.453	0.447	0.393	0.373	0.357	0.372	0.288	0.322	0.309	0.392	0.574	0.819	1.237	1.354	1.249	0.880	1.027	2.008	4.909	10.77	18.66	30.24	30.43	28.55	11.16	3.475	0.561	0.343	0.344	0.295	0.321	0.329	0.353	0.303	0.335
275.0	44.67	34.68	24.24	20.36	30.88	86.52	273.4	233.8	300.1	998.8	3467	8633	1097	68.83	7.079	4.207	3.916	2.685	2.459	2.014	1.656	1.662	1.407	1.081	1.163	1.084	0.985	0.917	0.747	0.915	0.789	0.775	0.698	0.654	0.565	0.605	0.502	0.471	0.444	0.446	0.394	0.479	0.570	0.461	0.451	0.431	0.363	0.399	0.375	0.294	0.336	0.362	0.409	0.454	0.588	0.806	1.552	1.933	1.400	1.040	1.537	2.795	4.558	7.457	11.62	29.00	48.87	27.63	16.38	3.053	0.508	0.394	0.333	0.334	0.332	0.384	0.314
280.0	73.26	54.35	41.82	29.44	25.08	42.38	161.1	364.9	210.3	287.1	947.8	5650	8435	845.1	34.31	6.133	4.203	3.298	2.606	2.112	1.784	1.756	1.433	1.279	1.216	1.044	1.144	0.940	0.895	0.967	0.818	0.834	0.738	0.671	0.656	0.571	0.570	0.538	0.549	0.558	0.475	0.560	0.585	0.491	0.579	0.496	0.478	0.523	0.337	0.376	0.307	0.352	0.347	0.377	0.450	0.499	0.875	1.608	2.281	1.865	1.133	1.126	1.516	2.210	3.174	8.014	21.43	43.05	59.55	25.18	9.586	1.042	0.353	0.362	0.406	0.386	0.385
285.0	118.9	94.86	75.05	46.39	31.18	39.65	80.32	290.1	373.2	191.3	328.0	1655	7477	6864	554.0	14.63	5.922	3.940	2.901	2.324	2.185	1.899	1.541	1.326	1.215	1.107	1.110	0.910	0.941	0.852	0.919	0.886	0.657	0.748	0.640	0.609	0.624	0.587	0.644	0.580	0.587	0.646	0.636	0.580	0.526	0.559	0.596	0.699	0.521	0.460	0.395	0.426	0.416	0.414	0.433	0.440	0.591	0.730	1.531	2.386	2.367	1.566	1.028	1.204	1.455	2.575	5.737	13.14	33.71	57.45	58.21	20.16	4.489	0.476	0.438	0.442	0.384
290.0	185.3	192.8	157.4	93.70	59.95	57.89	77.79	159.8	385.4	479.3	348.5	629.4	2214	6096	6937	1800	34.17	6.069	3.887	3.149	2.467	2.052	1.828	1.462	1.521	1.229	1.159	1.053	1.009	0.995	0.855	0.799	0.728	0.767	0.666	0.810	0.728	0.771	0.734	0.633	0.673	0.723	0.652	0.648	0.719	0.765	0.738	0.874	0.803	0.669	0.533	0.533	0.481	0.442	0.496	0.537	0.562	0.656	0.896	1.334	2.068	2.740	2.942	2.185	1.766	1.894	2.693	4.357	9.055	17.46	32.05	44.37	39.36	40.35	12.71	3.931	0.669
295.0	282.7	310.4	247.7	155.8	94.41	81.28	95.70	149.1	272.3	581.7	755.2	594.3	861.9	1605	4130	9251	605.1	39.52	5.849	4.045	3.299	2.484	2.168	1.785	1.777	1.427	1.323	1.201	1.060	1.044	1.011	0.919	0.828	0.790	0.820	0.890	0.853	0.968	0.833	0.833	0.690	0.804	0.738	0.858	0.915	1.060	1.046	1.063	1.141	0.978	0.713	0.634	0.638	0.539	0.664	0.616	0.675	0.858	0.875	1.186	1.469	1.799	2.840	3.922	4.096	3.139	2.856	3.197	3.972	5.707	8.495	11.15	13.93	38.05	65.59	63.88	19.46
300.0	324.0	381.2	324.9	202.1	119.3	101.5	120.6	175.0	268.5	492.6	967.5	831.5	666.7	629.1	1122	6054	8461	490.3	21.48	5.501	4.185	2.985	2.502	1.996	1.715	1.607	1.355	1.365	1.095	1.091	0.982	0.833	0.861	0.884	0.843	1.012	0.979	1.013	0.930	0.778	0.882	0.808	1.036	1.021	0.973	1.179	1.180	1.284	1.306	1.059	0.765	0.801	0.761	0.719	0.764	0.704	0.710	0.881	0.958	1.228	1.434	1.803	2.299	3.289	4.724	5.030	4.135	3.574	3.455	3.441	3.547	3.545	4.105	9.994	25.36	59.78	81.23
305.0	368.3	404.3	363.4	225.5	130.9	113.3	140.5	194.7	295.8	469.0	840.9	1129	743.4	448.9	379.6	1646	7437	4394	341.4	10.59	5.142	3.445	2.974	2.319	1.782	1.522	1.389	1.311	1.284	1.232	0.960	0.911	0.816	0.873	0.919	1.070	1.107	1.004	0.954	0.922	0.925	0.893	0.935	1.124	1.014	1.326	1.339	1.549	1.322	1.159	0.886	0.872	0.797	0.779	0.746	0.826	0.855	1.039	1.173	1.475	1.562	1.760	2.259	2.714	3.711	5.052	5.821	4.948	3.976	3.223	2.804	2.172	1.943	3.012	6.428	16.15	39.98
310.0	375.8	440.0	386.3	239.3	138.2	125.9	155.3	210.5	315.4	471.6	707.9	1002	1010	524.4	243.0	442.4	1978	5064	5721	1398	24.18	5.210	3.796	2.510	2.139	1.871	1.674	1.381	1.364	1.172	1.051	1.032	0.915	0.953	1.057	1.064	1.153	1.043	0.998	0.948	0.919	0.955	0.972	1.066	1.129	1.314	1.391	1.632	1.426	1.188	0.934	0.918	0.815	0.782	0.751	0.844	0.967	1.028	1.252	1.498	1.497	1.976	2.311	2.681	3.149	3.769	4.541	5.287	5.402	4.648	3.376	2.130	1.625	1.701	2.220	4.182	9.663
315.0	376.7	432.3	388.5	243.4	151.3	135.7	161.5	220.2	311.2	455.7	639.5	798.3	886.3	770.3	285.8	193.6	498.8	1191	3468	7809	435.4	27.36	5.191	3.544	2.756	2.318	1.800	1.573	1.250	1.180	1.208	1.112	0.860	1.006	0.885	1.014	0.987	1.029	0.935	0.866	0.941	0.898	1.011	0.998	1.145	1.289	1.337	1.530	1.430	1.186	0.899	1.011	0.859	0.945	0.787	0.939	0.943	1.033	1.214	1.610	1.629	1.910	2.237	2.650	2.886	3.311	3.780	3.811	4.138	4.936	4.842	3.429	2.060	1.459	1.455	1.707	2.905
320.0	364.6	437.7	391.4	248.5	161.1	144.3	166.2	219.2	304.6	440.8	603.9	713.1	716.2	741.5	464.3	170.7	181.9	312.8	876.7	4961	6889	363.3	15.06	4.639	3.009	2.516	1.933	1.902	1.534	1.379	1.211	1.067	0.922	0.972	1.037	1.119	1.063	1.071	0.960	0.857	0.814	0.957	0.815	1.112	1.168	1.257	1.356	1.519	1.628	1.266	0.958	0.985	0.890	0.985	0.792	0.982	1.022	1.064	1.288	1.474	1.805	1.997	2.071	2.484	2.767	3.024	3.521	3.451	3.507	3.960	4.222	4.540	3.417	2.096	1.407	1.254	1.463
325.0	363.0	451.4	439.0	268.6	167.5	151.3	167.7	220.7	302.3	418.7	570.2	669.8	645.8	571.7	585.6	271.9	132.7	128.4	235.3	1319	5889	3332	270.2	8.109	4.334	3.141	2.388	1.878	1.671	1.370	1.287	1.051	1.120	0.909	0.897	0.995	1.057	1.072	1.005	0.887	0.798	0.844	0.863	1.066	1.069	1.270	1.413	1.672	1.558	1.266	1.015	0.947	0.964	0.913	0.953	0.943	1.108	1.129	1.211	1.453	1.556	1.833	2.058	2.305	2.785	2.997	3.117	3.432	3.363	3.569	3.202	3.339	3.893	3.489	2.261	1.421	1.235
330.0	372.1	464.7	449.3	307.0	203.8	167.1	176.2	222.5	298.0	405.6	533.6	618.6	604.3	494.3	444.0	431.1	245.3	118.7	112.5	338.5	1556	3972	4609	1205	20.44	4.148	2.838	2.177	2.021	1.615	1.413	1.103	1.105	0.947	1.028	1.026	1.045	1.021	0.940	0.879	0.865	0.837	0.992	1.100	1.178	1.279	1.492	1.726	1.600	1.446	1.138	1.146	1.099	0.992	0.992	0.957	1.176	1.124	1.212	1.421	1.607	1.796	2.063	2.324	2.577	2.811	3.004	3.212	3.054	3.266	2.989	2.654	2.747	2.894	3.102	3.020	2.319
335.0	352.8	477.4	482.2	346.4	235.3	198.2	189.2	231.2	294.1	391.2	503.4	585.7	579.8	479.1	381.6	342.0	408.5	218.5	114.6	142.9	397.3	942.2	2692	6611	1817	25.36	3.996	3.290	2.259	1.913	1.557	1.420	1.228	1.129	1.034	0.934	1.059	0.989	0.873	0.785	0.827	0.924	0.959	1.085	1.293	1.571	1.669	1.704	1.819	1.521	1.246	1.374	1.277	1.034	1.141	1.074	1.162	1.209	1.244	1.436	1.572	1.810	1.820	2.264	2.547	2.659	2.832	3.111	2.993	3.174	2.838	2.559	2.529	2.329	2.305	2.531	3.073
340.0	354.8	484.7	501.4	380.2	270.4	220.6	210.5	244.0	300.0	382.7	490.5	557.3	553.0	481.4	379.0	308.5	361.9	361.1	168.7	119.9	157.1	264.4	692.4	4038	6330	332.6	15.66	3.848	2.744	2.186	1.684	1.427	1.249	1.174	1.059	1.090	0.905	0.921	0.931	0.791	0.911	0.860	1.048	1.068	1.223	1.492	1.595	1.861	1.887	1.526	1.300	1.435	1.451	1.146	1.236	1.134	1.343	1.259	1.171	1.343	1.557	1.712	1.878	2.170	2.228	2.514	2.736	2.982	2.989	2.982	2.808	2.562	2.573	2.280	2.195	2.309	2.507
345.0	367.7	489.5	498.7	403.6	297.0	247.0	231.4	255.1	301.8	378.3	467.7	538.8	537.6	482.2	393.0	318.9	298.6	382.7	286.8	147.9	127.6	132.3	208.7	1075	4819	5114	265.6	7.790	3.474	2.508	1.891	1.617	1.521	1.149	1.075	1.021	1.061	0.940	0.823	0.809	0.767	0.946	0.954	1.159	1.340	1.510	1.709	1.809	1.918	1.603	1.454	1.534	1.505	1.371	1.279	1.186	1.338	1.377	1.301	1.356	1.684	1.701	1.869	2.140	2.278	2.384	2.517	2.687	3.003	2.865	2.726	2.708	2.571	2.371	2.364	2.263	2.325
350.0	367.3	475.9	493.8	424.3	329.0	283.6	267.0	280.6	318.7	378.3	453.2	515.2	522.3	477.8	414.4	346.6	304.1	312.1	355.7	277.5	167.2	134.1	126.0	294.9	1260	3564	3748	1141	19.62	3.961	2.448	1.942	1.564	1.226	1.243	1.095	0.955	0.964	0.874	0.880	0.751	0.941	1.004	1.050	1.305	1.407	1.530	1.789	1.879	1.653	1.588	1.670	1.655	1.520	1.366	1.337	1.404	1.401	1.391	1.498	1.665	1.796	1.887	2.158	2.265	2.272	2.527	2.590	2.851	2.906	2.704	2.665	2.663	2.557	2.517	2.431	2.280
355.0	358.4	479.5	501.1	433.8	375.4	335.7	318.3	313.8	340.1	392.2	452.2	504.1	515.9	482.4	435.5	377.4	341.5	315.9	315.8	364.4	288.8	176.9	138.1	146.5	335.1	838.5	1929	5219	1803	25.13	3.961	2.882	1.994	1.559	1.419	1.159	1.022	1.013	0.861	0.877	0.800	0.890	1.015	1.027	1.317	1.439	1.487	1.811	1.788	1.644	1.674	1.531	1.716	1.720	1.523	1.687	1.478	1.573	1.746	1.676	1.697	1.971	2.001	2.155	2.338	2.353	2.542	2.546	2.806	2.698	2.668	2.625	2.784	2.642	2.542	2.599	2.648
360.0	340.4	453.5	483.4	465.5	397.5	368.9	349.1	344.1	366.1	410.9	453.1	502.5	513.4	488.7	448.8	404.4	369.5	341.3	316.9	337.8	376.3	247.0	167.7	133.4	144.0	233.7	489.0	2877	5336	327.1	15.85	3.429	2.411	1.860	1.370	1.165	1.072	1.051	1.066	0.883	0.886	0.878	0.979	1.110	1.222	1.369	1.564	1.705	1.693	1.727	1.544	1.802	1.814	1.769	1.720	1.740	1.668	1.724	1.777	1.801	1.913	2.010	2.165	2.211	2.411	2.259	2.517	2.622	2.606	2.806	2.843	2.694	2.753	2.667	2.863	2.687	2.872
365.0	329.2	442.6	492.9	466.4	424.8	389.7	388.1	374.6	391.5	423.9	469.2	504.1	509.4	493.7	465.6	423.8	396.9	370.7	339.8	326.5	371.6	347.0	210.1	150.4	119.2	111.7	149.6	746.2	3638	4618	273.2	8.192	2.906	2.178	1.754	1.430	1.179	1.029	1.126	0.921	0.843	0.944	1.138	1.114	1.183	1.419	1.546	1.656	1.848	1.712	1.562	1.930	1.853	1.815	1.789	1.728	1.860	1.898	1.813	1.914	2.102	2.219	2.359	2.115	2.361	2.494	2.563	2.636	2.746	2.777	2.808	2.639	2.761	2.933	2.823	3.031	3.096
370.0	334.9	438.8	490.0	486.9	453.9	419.9	416.3	412.9	423.1	448.4	483.5	509.5	512.6	499.9	473.1	445.9	420.3	399.8	376.3	351.8	344.3	364.5	316.0	203.7	141.1	108.1	93.02	208.1	927.9	2896	3291	1123	18.81	3.134	2.138	1.625	1.414	1.158	1.116	1.030	1.010	1.041	1.069	1.147	1.204	1.437	1.575	1.714	1.818	1.744	1.660	1.963	1.966	2.009	1.852	1.971	2.136	1.953	2.050	2.139	2.181	2.200	2.272	2.345	2.354	2.455	2.580	2.665	2.710	2.637	2.794	2.665	2.885	3.069	2.878	2.941	3.297
375.0	340.0	439.2	491.5	498.6	475.3	458.5	448.5	440.0	448.3	468.0	498.0	509.4	520.1	505.9	482.3	458.9	441.2	423.6	407.1	379.4	359.2	338.8	349.7	303.9	183.6	132.2	101.3	104.4	246.6	677.0	1464	4415	1778	23.85	3.036	2.118	1.563	1.296	1.143	1.049	0.966	1.050	1.132	1.206	1.164	1.511	1.467	1.734	1.890	1.664	1.711	1.967	2.079	2.148	2.130	2.204	2.215	2.158	2.111	2.193	2.385	2.400	2.297	2.575	2.497	2.393	2.689	2.594	2.705	2.759	2.911	2.768	3.118	3.101	3.045	3.004	3.189
380.0	350.0	430.0	489.4	505.1	493.0	483.2	474.0	457.0	462.4	482.8	498.2	510.4	510.6	503.5	483.4	461.4	448.9	435.0	421.5	396.3	371.4	342.4	326.1	344.0	247.4	157.6	119.2	95.94	108.0	187.1	364.9	2138	4456	285.7	15.93	2.637	1.856	1.480	1.341	1.184	1.069	1.137	1.194	1.220	1.273	1.467	1.642	1.726	1.844	1.887	1.714	1.920	2.195	1.981	2.192	2.170	2.218	2.186	2.201	2.376	2.403	2.435	2.307	2.467	2.438	2.392	2.500	2.729	2.576	2.666	2.781	2.852	2.997	3.030	3.299	3.031	3.196
385.0	365.5	428.4	492.7	512.2	503.6	493.3	486.3	472.5	473.3	494.6	503.5	506.8	507.3	496.4	483.6	461.1	452.7	439.8	426.0	410.8	383.4	353.2	325.2	323.5	305.5	200.3	140.3	106.5	88.62	87.53	112.8	538.9	2604	3658	245.0	8.684	2.288	1.852	1.420	1.221	1.121	1.232	1.198	1.227	1.213	1.617	1.531	1.738	1.862	1.780	1.667	2.047	2.139	2.123	2.135	2.305	2.280	2.244	2.309	2.328	2.386	2.624	2.510	2.593	2.514	2.361	2.501	2.617	2.619	2.529	2.713	2.901	3.005	2.904	3.231	3.059	3.243
390.0	357.5	431.8	493.1	514.5	510.5	507.6	507.3	499.2	491.0	496.1	505.6	506.0	507.8	490.7	476.8	456.6	450.9	442.4	430.1	413.6	391.8	364.1	333.3	307.5	298.2	269.5	189.3	132.9	104.4	82.11	70.10	150.8	644.6	1967	2366	1015	16.57	2.790	1.727	1.508	1.249	1.228	1.227	1.289	1.284	1.572	1.522	1.727	1.781	1.775	1.695	2.126	2.160	2.313	2.312	2.261	2.323	2.334	2.333	2.531	2.407	2.366	2.446	2.549	2.441	2.379	2.498	2.557	2.633	2.639	2.698	2.724	2.830	2.962	3.037	3.099	3.189
395.0	350.5	415.3	498.8	524.3	519.3	519.9	510.3	508.4	503.7	504.7	507.5	504.9	501.9	484.4	468.2	447.3	441.0	438.3	427.1	412.6	394.3	372.5	342.1	312.1	282.6	274.0	258.1	174.5	127.9	98.97	76.69	75.94	172.0	459.0	891.6	2971	1546	22.84	2.908	2.175	1.420	1.310	1.337	1.253	1.358	1.497	1.576	1.700	1.942	1.929	1.846	2.069	2.231	2.279	2.281	2.419	2.338	2.344	2.352	2.391	2.373	2.383	2.491	2.706	2.467	2.469	2.405	2.610	2.665	2.566	2.557	2.693	2.831	2.860	3.007	3.158	3.275
400.0	339.6	440.5	491.5	513.9	527.9	527.0	520.8	511.5	501.2	508.0	510.2	500.2	497.4	476.6	459.4	441.6	434.5	430.8	420.7	406.5	392.0	373.5	348.5	318.8	284.9	261.0	270.8	223.4	150.1	115.0	88.03	69.07	74.02	126.3	220.4	1255	3166	1172	16.03	2.589	1.803	1.413	1.180	1.299	1.322	1.581	1.596	1.788	1.951	1.906	1.802	2.098	2.047	2.390	2.278	2.332	2.445	2.293	2.447	2.399	2.344	2.332	2.590	2.620	2.533	2.431	2.503	2.581	2.608	2.462	2.612	2.945	2.665	2.744	2.811	3.180	3.212
405.0	337.7	436.3	491.3	512.7	517.0	523.1	529.2	518.7	506.5	504.3	504.2	497.3	491.6	466.6	453.4	435.3	422.1	417.4	413.6	402.9	386.6	370.5	348.7	323.3	289.0	260.4	251.5	254.9	186.0	134.0	103.0	75.83	59.88	58.04	70.12	307.7	1588	3106	227.9	10.03	2.124	1.643	1.388	1.350	1.315	1.495	1.616	1.776	1.932	1.860	1.602	2.092	2.255	2.319	2.316	2.471	2.361	2.447	2.409	2.481	2.465	2.408	2.656	2.514	2.513	2.536	2.349	2.581	2.513	2.728	2.653	2.708	2.764	2.847	2.900	2.942	3.199
410.0	348.5	429.2	484.4	498.6	515.2	523.6	520.2	518.2	502.9	504.3	500.6	489.2	476.8	457.4	438.2	420.7	406.0	402.0	400.1	387.3	376.3	361.0	345.1	322.6	293.6	265.5	242.8	237.4	228.4	174.6	122.3	91.08	67.61	51.60	42.87	87.15	384.7	1429	1817	938.0	16.38	2.459	1.772	1.616	1.486	1.561	1.577	1.834	1.887	1.741	1.633	2.063	2.228	2.246	2.282	2.349	2.444	2.396	2.520	2.569	2.456	2.435	2.446	2.508	2.430	2.352	2.245	2.451	2.475	2.596	2.462	2.481	2.743	2.733	2.858	2.816	3.086
415.0	326.8	414.6	469.6	490.4	520.5	503.5	521.1	517.9	500.5	503.8	503.9	481.3	460.7	441.1	421.6	401.9	387.2	381.1	379.6	367.6	363.6	348.5	338.1	317.5	296.7	268.1	247.1	224.8	220.7	215.9	154.9	105.7	79.70	58.95	44.10	43.92	102.7	331.3	602.6	2044	1381	22.94	2.773	1.874	1.730	1.614	1.621	1.795	2.024	1.739	1.595	1.992	2.136	2.126	2.285	2.206	2.300	2.463	2.579	2.526	2.458	2.574	2.510	2.558	2.302	2.293	2.391	2.522	2.418	2.416	2.518	2.510	2.610	2.622	2.556	2.751	2.814
420.0	322.2	414.2	469.1	481.5	499.7	493.6	508.7	508.3	499.7	498.4	485.2	473.7	450.0	428.5	405.6	385.9	370.2	365.3	360.2	354.6	344.6	336.8	329.1	309.4	290.5	266.6	249.6	226.4	211.9	214.8	186.1	122.8	89.38	66.36	49.70	38.78	43.57	88.37	146.7	776.9	2284	990.2	16.66	2.555	1.916	1.698	1.701	1.806	1.836	1.712	1.689	2.048	2.184	1.983	2.239	2.142	2.213	2.260	2.423	2.637	2.578	2.357	2.324	2.484	2.603	2.259	2.276	2.454	2.499	2.493	2.423	2.458	2.477	2.442	2.499	2.588	2.699
425.0	319.2	397.3	447.1	467.9	479.9	500.7	506.0	501.9	496.1	489.7	476.5	463.9	445.4	415.0	387.9	371.4	354.6	348.1	346.2	338.6	333.6	324.3	317.0	303.2	285.5	268.2	248.0	227.8	210.0	200.2	199.0	148.5	100.2	73.75	56.17	41.71	33.36	36.84	44.63	187.9	1015	2189	221.9	10.43	2.163	1.877	1.777	1.735	1.717	1.696	1.659	1.959	2.127	2.024	2.197	2.065	2.205	2.288	2.278	2.424	2.404	2.460	2.606	2.474	2.455	2.466	2.267	2.194	2.302	2.460	2.277	2.282	2.412	2.323	2.642	2.559	2.510
430.0	422.0	379.6	429.9	459.3	465.4	490.0	493.2	505.1	489.7	483.2	480.7	454.4	430.0	398.2	376.0	354.8	338.2	329.6	327.3	321.9	313.4	309.5	304.7	293.1	278.7	263.9	246.5	229.4	213.3	193.5	183.5	170.0	126.9	85.83	64.13	48.38	37.07	30.16	26.19	53.54	242.9	913.8	1485	860.1	15.71	2.830	2.042	1.860	1.890	1.696	1.700	1.955	2.080	2.039	2.111	2.178	2.334	2.232	2.346	2.300	2.393	2.483	2.507	2.356	2.436	2.360	2.230	2.226	2.295	2.277	2.243	2.341	2.274	2.304	2.291	2.448	2.500
435.0	764.8	406.8	412.8	442.8	462.3	471.5	487.5	493.3	484.7	482.4	471.1	454.7	417.4	387.5	359.8	340.6	322.9	313.5	307.1	299.8	297.8	292.4	289.6	283.7	271.4	258.9	243.1	231.2	215.7	196.7	177.1	158.8	149.4	108.3	74.40	56.18	43.86	33.59	26.06	26.64	65.28	212.2	450.9	1667	1302	21.85	2.701	2.281	1.928	1.752	1.641	2.045	2.115	1.982	2.165	2.093	2.254	2.440	2.240	2.441	2.356	2.368	2.332	2.304	2.473	2.340	2.275	2.190	2.336	2.110	2.273	2.185	2.138	2.275	2.070	2.364	2.511
440.0	984.1	504.5	395.7	427.9	450.8	467.5	476.9	479.6	485.2	477.4	458.7	448.1	412.7	378.7	349.2	324.5	312.2	301.7	293.7	286.4	286.3	280.3	276.3	272.0	261.9	252.6	239.8	228.6	215.4	199.9	176.5	155.0	146.3	128.3	87.00	62.07	48.85	37.70	29.20	23.71	28.00	57.49	109.6	617.8	2016	943.9	14.61	2.579	2.121	1.861	1.721	2.024	2.006	1.984	2.060	2.059	2.263	2.213	2.395	2.463	2.277	2.448	2.407	2.374	2.364	2.239	2.107	2.070	2.191	2.001	2.163	1.979	2.229	2.200	2.163	2.323	2.459
445.0	909.7	819.5	395.7	412.7	431.5	452.4	473.5	477.8	477.5	469.2	456.9	435.7	404.8	366.2	334.2	309.6	298.0	287.4	277.2	276.1	271.3	268.4	264.3	260.5	254.6	244.7	233.5	224.5	211.7	198.5	177.5	153.0	135.4	130.9	103.3	69.15	52.64	40.99	32.55	25.65	21.54	24.18	33.82	148.7	881.3	2013	190.0	9.504	2.487	1.802	1.745	2.010	1.964	2.073	1.931	1.967	2.247	2.216	2.451	2.232	2.248	2.454	2.261	2.393	2.422	2.177	1.920	2.256	2.051	2.117	2.011	2.119	2.102	2.029	2.345	2.146	2.467
450.0	520.7	1250	620.6	388.4	407.0	429.2	445.1	457.6	458.2	456.6	443.0	418.3	383.1	348.4	318.3	293.0	277.1	265.7	258.9	255.9	251.1	250.4	246.4	242.8	236.9	231.5	221.1	213.3	204.4	192.9	173.4	151.0	129.6	118.5	110.8	84.42	59.64	45.78	36.48	28.88	23.20	19.64	18.67	42.07	209.8	831.0	1294	736.8	13.25	2.411	1.833	1.960	2.020	1.914	2.054	1.961	2.082	2.197	2.232	2.160	2.260	2.325	2.300	2.143	2.161	2.119	1.971	2.238	2.195	2.037	2.050	2.069	1.982	2.016	2.080	2.020	2.111
455.0	289.3	1011	1282	414.9	382.0	398.5	412.7	429.6	435.2	434.4	421.3	396.6	363.3	327.8	297.6	273.9	256.2	245.4	236.4	233.9	232.8	228.6	228.2	221.7	216.7	214.5	206.7	200.4	192.1	182.7	169.3	148.0	127.1	110.8	98.89	94.71	72.50	50.16	40.01	32.73	26.00	21.39	17.67	19.48	54.88	192.1	395.8	1350	951.1	15.80	2.189	2.082	2.062	1.946	2.004	1.900	2.041	2.017	2.072	2.219	2.210	2.425	2.114	2.154	1.996	2.184	1.943	2.164	2.131	1.977	2.044	1.895	1.960	1.860	1.996	1.750	1.964
460.0	254.1	577.9	1643	605.8	364.3	381.8	391.8	404.3	418.0	413.2	403.9	385.1	343.9	310.2	280.6	254.4	240.0	225.6	218.6	217.3	213.2	210.8	210.5	206.6	201.7	199.6	192.8	189.5	182.9	175.4	163.6	144.7	124.3	106.9	91.62	88.75	81.56	56.05	42.14	34.16	28.03	22.34	18.54	15.54	20.93	50.02	94.99	504.6	1505	603.3	10.57	2.400	2.113	1.931	1.927	1.945	1.968	1.847	1.948	2.113	2.035	2.173	1.979	2.061	2.142	1.942	1.938	1.934	2.049	1.942	1.693	1.774	1.860	1.705	1.990	1.874	2.026
465.0	222.1	345.5	1426	1140	354.2	357.4	368.5	386.1	393.7	392.7	381.6	365.0	327.6	293.6	264.5	240.7	221.3	210.6	205.7	203.5	198.1	194.2	195.3	195.1	189.0	185.6	183.2	179.9	175.1	167.1	157.6	140.3	120.0	103.8	88.71	79.84	81.55	64.63	44.77	35.51	29.80	23.60	19.60	16.31	14.53	19.00	27.57	121.0	694.6	1376	146.1	6.360	2.256	2.011	1.832	1.813	2.028	1.942	1.936	1.908	2.018	2.131	2.133	2.016	1.901	1.891	1.847	1.876	1.911	1.855	1.572	1.663	1.736	1.658	1.661	1.705	1.848
470.0	233.0	263.3	718.2	1659	661.4	329.8	339.3	355.7	364.9	363.9	357.4	337.1	304.2	272.5	243.0	217.7	203.0	192.5	185.6	181.4	177.3	175.1	175.2	174.5	170.5	169.0	165.6	162.4	159.9	154.2	146.5	131.7	115.2	99.50	85.35	74.12	70.21	67.18	52.76	38.14	31.11	25.52	21.04	17.32	14.94	13.10	13.15	32.82	165.6	612.8	927.7	505.5	11.84	2.252	1.885	1.780	1.887	1.840	1.841	1.884	1.854	1.946	2.069	1.893	1.850	1.879	1.692	1.829	1.685	1.698	1.598	1.545	1.659	1.656	1.497	1.663	1.703
475.0	246.7	237.0	358.4	1201	1453	356.4	316.2	325.9	330.3	331.8	329.8	307.8	273.1	249.0	222.2	197.6	180.0	175.2	168.2	162.1	157.7	155.3	157.5	154.1	153.8	150.1	148.4	146.4	144.3	141.1	134.7	120.4	107.2	91.83	81.68	70.65	61.92	58.47	58.04	44.95	32.22	26.71	22.15	18.54	15.94	12.78	10.67	13.54	42.23	140.9	290.9	929.9	622.2	15.15	2.197	1.837	1.811	1.823	1.655	1.805	1.771	1.781	1.864	1.519	1.653	1.740	1.417	1.835	1.598	1.628	1.378	1.514	1.513	1.470	1.432	1.482	1.503
480.0	232.8	234.4	263.1	612.4	1885	600.9	297.1	307.0	309.4	316.1	305.2	287.9	262.2	232.0	209.3	185.4	169.9	161.5	155.5	148.8	144.3	143.6	141.7	142.4	141.3	140.8	136.2	135.5	135.4	132.9	125.1	113.6	100.1	90.09	77.79	68.02	58.81	53.52	53.55	49.31	34.86	27.51	22.72	19.19	16.46	13.55	10.87	10.21	14.65	36.13	69.43	365.6	1135	182.9	8.999	2.053	1.796	1.707	1.679	1.651	1.550	1.588	1.736	1.459	1.486	1.499	1.451	1.693	1.502	1.606	1.419	1.491	1.363	1.553	1.365	1.375	1.277
485.0	185.6	258.3	232.7	325.6	1570	1160	292.4	293.5	299.4	294.7	297.6	277.4	250.3	220.0	195.6	173.8	160.7	151.9	144.1	138.7	134.3	132.9	132.2	132.8	132.2	130.1	127.5	127.9	126.2	125.2	118.2	108.7	96.30	86.96	74.57	65.95	57.44	51.48	47.45	49.04	40.56	28.32	23.45	20.07	16.93	14.31	11.55	9.527	9.375	12.67	19.47	88.40	592.2	1028	146.5	3.784	2.120	1.888	1.743	1.625	1.596	1.584	1.619	1.614	1.488	1.541	1.474	1.457	1.437	1.535	1.382	1.421	1.300	1.263	1.344	1.239	1.376
490.0	161.6	239.9	230.9	234.1	747.3	1735	560.1	275.8	278.0	279.3	276.2	261.1	234.5	208.2	182.2	162.0	148.3	138.2	132.0	127.3	123.4	121.4	121.5	119.9	119.4	118.0	116.3	116.5	116.7	115.8	109.2	100.5	90.61	81.24	71.44	62.91	55.18	49.53	43.67	43.01	41.75	33.14	25.14	21.26	17.39	14.95	12.26	10.35	8.530	8.242	8.688	23.60	142.8	504.8	861.2	388.2	11.36	2.067	1.748	1.600	1.553	1.556	1.526	1.501	1.443	1.429	1.412	1.361	1.338	1.306	1.281	1.273	1.317	1.211	1.205	1.271	1.273
495.0	132.3	197.4	244.3	210.1	321.1	1262	1389	285.7	252.2	257.0	250.9	240.1	215.8	190.5	167.0	146.5	133.3	124.2	119.2	114.0	111.2	110.6	109.2	107.6	107.7	105.4	104.5	105.6	105.8	104.6	99.55	91.96	84.69	74.85	66.34	59.07	52.21	46.54	40.59	37.65	36.22	36.25	28.08	21.78	18.02	15.80	12.98	10.94	8.797	7.401	6.626	9.385	35.27	116.1	321.3	968.9	203.2	13.03	1.871	1.602	1.672	1.412	1.456	1.345	1.303	1.436	1.253	1.233	1.212	1.322	1.107	1.240	1.303	1.061	1.149	1.162	1.133
500.0	123.1	161.9	235.6	199.0	218.4	629.6	1882	487.5	232.0	241.4	232.9	222.6	196.8	175.6	154.8	136.0	123.3	116.4	108.2	105.3	100.6	98.79	98.44	98.88	97.55	95.49	94.70	96.58	97.77	94.88	90.71	85.64	76.96	69.52	62.54	56.08	49.69	43.91	38.68	34.98	32.31	33.83	31.25	22.80	18.02	15.43	12.97	10.94	9.237	7.570	6.345	6.320	11.39	29.27	76.26	432.2	973.2	179.3	5.954	1.694	1.613	1.448	1.307	1.422	1.239	1.309	1.136	1.194	1.247	1.235	1.145	1.179	1.148	1.146	1.126	1.145	1.130
505.0	116.9	136.4	207.0	208.3	181.3	308.5	1702	1022	220.7	220.3	215.1	204.1	184.3	163.1	145.9	127.6	115.0	106.8	100.5	95.70	92.74	91.13	90.32	89.59	88.68	87.48	86.69	86.61	89.38	86.93	83.48	79.50	71.48	63.76	58.38	52.00	46.95	41.10	37.30	33.17	30.04	29.13	30.84	25.11	18.44	15.65	13.04	11.09	9.516	7.612	6.420	5.592	6.005	9.563	19.90	105.8	587.3	870.3	27.09	2.439	1.554	1.530	1.447	1.247	1.231	1.233	1.069	1.130	1.174	1.274	1.209	0.987	1.140	1.076	0.882	1.070	1.115
510.0	99.93	124.5	158.9	201.5	166.4	195.4	814.4	1730	439.7	195.2	193.5	181.3	164.4	145.9	126.6	114.3	102.3	93.01	88.26	84.03	81.34	79.58	78.21	78.47	77.02	75.97	76.40	76.54	76.71	76.18	74.09	70.46	63.44	57.37	52.20	46.75	41.96	38.02	34.10	30.70	27.05	25.24	26.22	25.44	20.63	15.10	12.50	10.92	9.220	7.648	6.620	5.632	5.020	5.281	7.307	26.17	144.5	483.1	640.0	114.3	8.660	1.467	1.377	1.220	1.214	1.152	1.100	1.049	1.028	1.077	0.994	0.959	1.000	0.925	0.821	0.942	1.040
515.0	83.21	110.6	121.4	177.6	166.1	148.6	304.9	1416	1251	195.1	169.6	158.7	143.1	126.9	112.2	98.69	86.74	81.32	75.45	72.13	71.04	68.78	68.73	66.95	66.53	64.53	65.23	65.98	66.91	65.56	64.45	60.77	55.74	49.94	45.00	41.97	37.20	33.75	30.62	27.43	24.81	22.73	21.06	22.08	22.22	16.00	12.16	10.60	8.834	7.534	6.272	5.693	4.881	4.395	4.487	8.368	34.44	110.4	266.6	664.2	184.2	8.279	1.351	1.205	1.194	1.153	1.042	0.904	1.018	1.044	0.889	0.865	0.912	0.862	0.894	0.857	0.942
520.0	86.52	102.9	107.8	147.1	177.3	132.2	173.9	727.3	1879	354.4	151.8	146.1	129.3	115.0	100.7	87.81	78.08	73.82	67.98	64.19	63.03	61.27	60.53	58.96	58.49	57.42	57.27	57.79	58.80	58.49	57.18	54.36	49.83	45.57	40.89	37.27	33.70	30.86	27.99	25.25	22.42	20.61	18.94	18.59	21.07	17.66	12.26	10.14	8.543	7.303	6.144	5.580	5.133	4.146	3.913	4.263	10.04	26.52	63.96	347.6	647.6	135.2	2.858	1.230	1.137	0.952	1.048	0.918	0.930	0.963	0.843	0.714	0.808	0.759	0.757	0.862	0.868
525.0	84.39	87.01	94.73	114.8	171.5	129.2	135.0	298.4	1819	843.4	145.4	131.1	119.2	105.4	92.02	80.47	73.06	66.00	61.51	58.37	56.47	55.04	54.49	53.00	53.37	51.11	51.92	52.04	52.36	53.22	51.33	48.30	44.79	40.88	37.56	34.17	30.82	28.21	25.93	23.14	20.79	18.96	17.33	15.69	17.21	18.16	13.41	9.840	8.068	6.788	5.962	5.499	5.000	4.465	3.734	3.513	4.463	8.010	16.23	87.22	430.8	546.2	24.53	1.522	1.115	0.965	0.982	0.954	0.880	0.843	0.816	0.735	0.692	0.805	0.805	0.833	0.762
530.0	73.56	74.48	83.89	94.75	137.2	138.9	114.6	154.1	894.2	1714	318.9	117.0	102.8	91.72	78.48	70.54	63.67	57.44	52.91	50.84	49.63	47.94	46.58	46.22	45.72	45.26	44.83	45.52	44.75	45.57	44.34	42.21	39.26	35.92	32.50	30.12	27.49	24.93	23.04	20.83	18.82	17.01	15.67	14.28	13.98	15.33	14.39	10.73	8.119	6.576	5.737	5.146	4.617	4.348	3.645	3.314	3.203	3.716	5.314	21.13	108.5	336.0	416.0	105.2	6.293	1.110	0.958	0.842	0.829	0.785	0.725	0.720	0.781	0.724	0.722	0.753	0.664
535.0	66.55	65.75	78.95	79.56	100.9	141.7	103.4	112.9	288.1	1566	1086	112.4	89.54	80.73	67.27	60.49	54.86	49.45	46.00	44.53	42.66	41.05	39.62	39.61	38.79	38.87	38.35	38.08	38.51	39.23	38.32	35.12	34.07	31.04	28.24	25.88	24.06	21.72	20.23	18.03	16.79	15.41	13.98	13.03	11.68	11.81	12.76	11.83	8.386	6.191	5.522	4.693	4.231	4.146	3.933	3.243	2.941	2.697	2.767	6.259	25.57	76.91	189.7	460.3	151.3	4.304	1.064	0.861	0.804	0.797	0.641	0.711	0.646	0.648	0.585	0.652	0.563
540.0	52.90	57.03	70.76	70.42	78.17	126.4	107.3	95.29	136.4	829.0	1813	173.4	82.42	71.06	61.25	54.39	49.40	45.22	41.81	39.35	37.45	37.01	34.73	35.15	34.21	34.06	34.41	34.19	33.98	35.07	33.95	31.63	29.15	26.95	24.87	23.37	21.90	18.87	18.52	16.08	14.84	14.07	12.61	12.13	10.50	10.18	10.55	11.18	8.827	5.988	5.121	4.498	4.061	3.810	3.723	3.291	2.914	2.569	2.100	2.837	7.051	18.47	45.97	256.1	444.2	27.18	1.841	0.859	0.720	0.797	0.716	0.627	0.617	0.703	0.616	0.616	0.524
545.0	49.64	57.14	64.90	65.63	66.46	102.6	118.6	86.68	97.96	306.3	1929	606.8	76.81	64.41	56.56	49.00	44.25	40.39	37.45	35.82	33.92	32.77	31.56	30.94	31.10	31.25	30.59	30.62	30.63	31.45	30.24	28.74	26.75	24.32	23.25	20.67	19.32	17.70	16.55	14.71	13.81	12.47	12.04	11.03	10.08	9.471	8.810	9.928	9.308	6.793	5.131	4.173	4.128	3.648	3.361	3.196	3.080	2.376	2.102	1.992	2.886	5.259	11.37	65.72	315.2	348.2	21.65	1.110	0.808	0.741	0.596	0.600	0.627	0.703	0.653	0.589	0.555
550.0	53.37	51.18	56.18	56.49	59.13	74.82	113.1	88.05	78.29	129.0	976.1	1508	194.6	56.36	48.67	42.25	38.08	34.73	31.97	30.54	29.49	28.46	27.72	27.12	26.91	26.33	26.20	26.31	26.70	26.85	26.46	25.32	23.13	21.38	19.77	18.35	16.70	15.55	14.52	13.07	12.07	11.01	10.51	9.394	9.022	8.209	7.495	7.372	8.130	7.324	5.359	3.990	3.687	3.421	3.110	2.872	2.888	2.535	2.063	1.875	1.902	2.368	3.649	15.74	80.48	235.6	258.6	90.33	4.254	0.766	0.687	0.598	0.572	0.611	0.571	0.524	0.557
555.0	45.15	54.84	47.74	49.01	49.48	57.90	90.29	98.03	70.78	79.47	283.3	1583	792.1	54.88	42.58	36.84	32.98	30.57	28.66	26.21	24.71	24.19	23.91	23.43	23.42	22.13	22.35	22.20	23.16	22.32	22.53	21.09	19.48	18.66	17.03	15.62	14.08	13.31	12.20	11.07	10.47	9.402	9.090	8.405	7.955	7.403	6.899	6.014	6.277	6.842	5.668	4.053	3.431	3.237	2.744	2.558	2.476	2.334	2.091	1.870	1.610	1.562	1.788	4.433	18.76	53.96	132.0	331.9	115.0	2.776	0.716	0.599	0.577	0.556	0.480	0.478	0.469
560.0	44.00	44.59	44.06	46.57	46.38	49.81	65.58	104.0	68.61	63.71	112.1	867.0	1535	104.9	38.19	33.11	28.72	27.79	24.94	23.33	21.82	21.39	20.84	21.15	20.36	19.33	19.59	19.59	20.27	19.80	19.65	18.56	17.57	15.99	15.26	13.96	12.44	11.84	10.74	10.20	9.463	8.681	7.980	7.751	6.814	6.539	6.140	5.355	5.017	5.615	5.806	4.579	3.182	3.039	2.485	2.444	2.352	2.231	2.118	1.900	1.535	1.341	1.392	1.917	4.913	12.89	32.52	187.3	306.7	25.67	1.290	0.646	0.550	0.551	0.522	0.533	0.497
565.0	50.95	40.49	45.10	43.48	40.82	44.26	51.15	97.50	75.99	58.27	69.24	301.3	1762	388.1	36.17	29.79	25.86	23.66	21.92	20.59	19.22	19.01	18.31	18.76	17.68	17.49	17.22	16.76	17.84	16.96	17.23	15.64	15.01	13.98	12.75	12.16	11.31	10.42	9.853	8.938	8.580	7.677	7.018	6.968	6.370	5.930	5.130	4.880	4.190	4.471	5.151	4.635	3.423	2.638	2.441	2.377	2.250	1.888	2.010	1.816	1.563	1.376	1.160	1.245	2.004	3.695	8.130	48.25	221.1	214.2	19.04	0.827	0.596	0.491	0.517	0.562	0.472
570.0	44.65	42.87	41.46	38.16	35.81	39.68	42.28	69.11	85.97	56.13	58.13	109.7	915.8	1179	74.74	25.44	21.68	20.04	18.56	17.56	16.04	15.46	15.59	14.80	14.70	14.17	13.75	13.90	14.10	14.08	14.26	13.12	12.62	11.34	10.80	10.12	9.040	8.720	8.107	7.422	6.799	6.263	6.034	5.884	5.317	4.798	4.323	4.077	3.731	3.350	3.642	4.136	3.693	2.636	2.180	2.031	1.964	1.693	1.724	1.664	1.563	1.384	1.110	1.045	1.204	1.495	2.551	11.59	56.67	153.7	187.9	61.77	2.549	0.512	0.523	0.570	0.445
575.0	42.43	44.14	37.72	35.72	32.03	31.00	33.63	45.02	85.51	66.58	53.23	65.39	253.7	1373	509.6	23.95	18.18	15.97	14.15	13.46	12.74	12.40	12.07	11.37	11.34	11.68	10.85	11.15	11.08	11.02	11.26	10.38	9.848	9.044	8.336	7.790	7.371	6.866	6.322	5.766	5.351	4.700	4.683	4.680	4.297	4.129	3.578	3.331	3.088	2.702	2.501	2.836	3.280	2.953	2.013	1.762	1.626	1.587	1.341	1.295	1.399	1.339	1.088	1.023	0.937	1.026	1.192	3.188	13.15	35.20	88.49	204.2	28.16	1.650	0.515	0.466	0.407
580.0	40.29	45.64	34.68	32.53	28.37	27.27	29.23	35.05	69.34	80.37	54.08	56.09	92.37	752.2	1136	54.95	14.86	13.40	12.02	11.38	10.96	10.38	9.936	9.431	9.454	8.908	9.323	9.512	8.339	9.540	8.588	8.816	8.015	7.372	7.122	6.009	6.089	5.438	5.291	4.964	4.341	4.107	4.171	3.805	3.592	3.528	3.106	2.756	2.479	2.407	1.943	2.090	2.809	2.809	2.038	1.591	1.355	1.423	1.183	1.113	1.160	1.395	1.063	0.955	0.870	0.869	0.943	1.280	3.590	8.450	21.50	113.3	166.2	22.14	0.818	0.491	0.371
585.0	38.88	44.58	35.56	29.31	24.73	26.78	27.97	29.79	49.91	87.05	57.04	54.63	57.21	251.5	1405	224.9	13.41	11.43	10.86	9.829	9.181	8.379	8.185	8.145	7.789	7.674	7.520	7.640	7.229	7.409	7.322	7.010	6.543	6.252	6.030	5.341	4.923	4.473	4.429	4.007	3.649	3.622	3.260	3.114	2.993	2.846	2.578	2.431	2.124	2.030	1.718	1.752	2.060	2.429	2.038	1.416	1.226	1.256	1.084	1.030	1.027	1.048	1.091	0.950	0.826	0.820	0.754	0.789	1.379	2.430	5.254	29.30	119.8	126.4	14.27	0.531	0.412
590.0	41.21	40.77	36.09	26.26	22.46	22.54	24.74	25.86	37.80	78.83	71.14	56.46	49.08	82.72	737.7	825.5	42.40	9.498	8.571	7.449	7.079	6.978	6.668	6.221	6.062	5.673	5.675	5.907	5.672	5.933	5.926	5.656	5.159	4.831	4.454	4.251	4.041	3.676	3.478	3.226	2.939	2.980	2.619	2.527	2.547	2.289	2.023	1.885	1.774	1.601	1.429	1.419	1.475	1.683	1.850	1.582	1.155	1.047	0.893	0.943	0.848	0.851	1.005	0.940	0.857	0.726	0.733	0.715	0.771	1.066	1.636	7.003	30.57	82.25	95.27	17.80	1.432
595.0	39.24	41.96	35.36	26.46	20.81	20.09	21.10	23.44	32.41	55.18	84.55	59.85	47.61	42.57	188.9	971.2	325.1	8.714	6.845	6.014	5.923	5.587	5.062	4.868	4.506	4.776	4.350	4.578	4.610	4.910	4.366	4.164	3.941	3.612	3.478	3.259	3.026	2.739	2.702	2.273	2.297	2.236	2.083	2.004	1.911	1.871	1.569	1.603	1.415	1.238	1.116	1.030	1.220	1.095	1.423	1.582	1.209	0.976	0.773	0.837	0.655	0.717	0.813	0.930	0.930	0.771	0.693	0.655	0.668	0.692	0.789	1.976	7.112	18.96	42.79	95.90	24.77
600.0	38.02	41.88	37.46	27.61	16.99	17.25	19.76	22.36	29.43	44.19	83.45	64.60	47.37	33.00	55.16	520.9	661.7	26.70	6.006	5.460	5.084	4.364	3.967	4.367	3.641	4.213	3.699	3.792	3.759	3.912	3.650	3.321	3.313	2.959	2.904	2.755	2.541	2.274	2.234	2.142	2.016	1.889	1.865	1.711	1.648	1.751	1.466	1.274	1.259	0.989	0.986	0.964	1.005	0.835	1.044	1.416	1.204	0.857	0.699	0.655	0.636	0.591	0.687	0.748	1.003	0.834	0.710	0.589	0.630	0.589	0.593	0.828	1.980	4.634	10.47	52.59	86.74
605.0	41.16	39.09	34.85	24.68	16.88	16.95	19.34	21.41	27.46	38.12	73.36	74.23	47.60	30.85	24.85	163.2	924.2	72.39	5.549	4.934	4.362	3.872	3.605	3.778	3.149	3.384	3.098	3.170	3.050	3.284	3.151	2.840	2.719	2.649	2.466	2.359	2.259	2.023	1.885	1.872	1.937	1.658	1.534	1.505	1.395	1.433	1.344	1.047	1.184	1.035	0.873	0.843	0.865	0.754	0.849	1.024	1.146	0.909	0.716	0.638	0.586	0.569	0.656	0.622	0.766	0.886	0.687	0.570	0.627	0.545	0.556	0.587	0.850	1.370	2.713	13.56	59.64
610.0	39.92	44.26	34.11	24.33	15.41	14.84	16.48	19.58	25.51	34.37	56.41	81.44	50.59	29.97	17.85	44.64	481.6	553.3	25.35	4.039	3.816	3.459	3.061	3.256	2.832	2.618	2.592	2.654	2.469	2.650	2.490	2.393	2.385	2.203	1.943	1.844	1.779	1.731	1.548	1.385	1.562	1.431	1.339	1.265	1.211	1.092	1.146	0.997	0.939	0.812	0.761	0.695	0.703	0.712	0.675	0.778	0.927	1.002	0.771	0.628	0.604	0.549	0.649	0.619	0.698	0.686	0.822	0.767	0.561	0.563	0.576	0.476	0.457	0.642	0.902	3.291	15.29
615.0	41.20	40.46	31.23	21.63	14.51	15.64	14.96	17.77	23.77	31.70	48.61	71.98	58.88	29.69	16.01	16.85	119.0	668.1	215.7	4.381	3.132	2.744	2.705	2.556	2.380	2.245	2.204	2.123	2.042	2.067	2.006	1.969	2.131	1.784	1.686	1.498	1.539	1.466	1.367	1.248	1.150	1.177	1.050	1.022	1.051	0.877	0.961	0.861	0.902	0.724	0.650	0.597	0.695	0.639	0.579	0.588	0.738	0.886	0.759	0.674	0.568	0.461	0.588	0.590	0.597	0.592	0.571	0.767	0.758	0.508	0.579	0.433	0.485	0.445	0.502	1.038	3.659
620.0	36.66	33.66	31.08	21.00	15.42	14.74	15.21	17.50	22.88	30.32	41.47	56.95	67.52	29.34	14.30	10.53	31.70	365.5	507.2	15.21	3.028	2.626	2.293	2.246	2.123	2.024	1.833	1.780	1.720	1.794	1.821	1.760	1.793	1.452	1.530	1.405	1.359	1.400	1.232	1.145	0.891	0.943	0.858	0.871	0.887	0.771	0.745	0.757	0.687	0.600	0.631	0.538	0.632	0.539	0.579	0.524	0.525	0.697	0.806	0.687	0.605	0.567	0.556	0.510	0.513	0.548	0.537	0.632	0.806	0.564	0.509	0.511	0.409	0.447	0.479	0.490	1.055
625.0	33.65	37.78	32.09	21.34	15.46	12.10	13.88	16.12	21.25	29.19	37.86	49.20	66.21	32.19	14.19	8.669	11.95	113.6	671.3	56.22	2.849	2.311	1.850	2.037	1.909	1.979	1.618	1.698	1.650	1.630	1.589	1.487	1.431	1.553	1.384	1.278	1.279	1.238	1.007	1.030	0.792	0.820	0.789	0.827	0.821	0.759	0.675	0.706	0.667	0.595	0.544	0.490	0.519	0.535	0.470	0.432	0.485	0.577	0.694	0.690	0.549	0.554	0.507	0.500	0.504	0.446	0.510	0.559	0.707	0.567	0.542	0.430	0.417	0.429	0.476	0.413	0.528
630.0	32.32	35.29	25.64	19.36	14.42	12.24	13.84	14.26	20.01	26.56	34.66	41.95	53.50	39.11	14.25	7.982	6.829	29.45	366.7	403.1	17.82	2.222	2.016	1.864	1.585	1.455	1.458	1.523	1.401	1.353	1.422	1.297	1.163	1.228	1.062	1.026	1.064	0.951	0.897	0.809	0.805	0.722	0.737	0.725	0.671	0.711	0.658	0.601	0.551	0.487	0.463	0.418	0.397	0.480	0.452	0.428	0.449	0.456	0.548	0.616	0.559	0.482	0.464	0.461	0.505	0.517	0.466	0.515	0.555	0.616	0.550	0.483	0.351	0.439	0.361	0.358	0.364
635.0	33.92	28.86	26.15	16.83	12.91	12.04	11.93	14.14	17.91	24.78	31.99	35.77	39.17	44.26	16.90	7.851	5.768	10.14	91.16	499.2	158.2	2.578	1.833	1.656	1.377	1.439	1.262	1.283	1.264	1.167	1.196	1.102	1.091	1.044	0.938	0.930	0.799	0.886	0.798	0.672	0.707	0.682	0.695	0.710	0.563	0.560	0.572	0.479	0.536	0.425	0.382	0.415	0.367	0.454	0.468	0.387	0.365	0.416	0.382	0.488	0.635	0.507	0.445	0.424	0.459	0.502	0.393	0.457	0.487	0.507	0.560	0.569	0.379	0.382	0.355	0.380	0.355
640.0	32.52	26.48	26.90	16.01	11.87	11.50	13.44	15.20	16.71	23.63	30.45	33.57	32.24	39.14	22.27	8.115	5.767	5.625	23.25	287.0	394.1	8.926	1.770	1.349	1.297	1.193	1.185	1.025	1.120	1.100	1.062	1.031	0.964	0.890	0.907	0.792	0.777	0.692	0.739	0.609	0.557	0.682	0.597	0.710	0.633	0.476	0.518	0.526	0.465	0.406	0.380	0.345	0.333	0.411	0.394	0.432	0.353	0.375	0.429	0.371	0.555	0.481	0.453	0.388	0.429	0.418	0.451	0.487	0.465	0.432	0.487	0.547	0.425	0.420	0.312	0.301	0.344
645.0	32.29	28.95	24.35	16.93	11.32	10.36	12.33	14.29	15.48	21.35	28.14	32.44	29.20	30.64	26.53	8.937	5.747	4.807	7.818	93.38	507.1	43.67	1.913	1.510	1.313	1.011	1.054	1.043	0.994	1.084	0.956	0.838	0.814	0.831	0.741	0.706	0.708	0.672	0.697	0.603	0.535	0.668	0.561	0.632	0.559	0.512	0.459	0.496	0.479	0.346	0.374	0.434	0.416	0.377	0.329	0.372	0.358	0.354	0.380	0.384	0.478	0.445	0.442	0.378	0.486	0.457	0.444	0.438	0.454	0.401	0.368	0.443	0.465	0.308	0.300	0.318	0.343
650.0	29.69	30.79	23.23	18.20	11.65	10.11	11.41	12.84	14.91	20.23	27.11	28.73	27.65	23.63	28.90	11.51	5.748	4.732	4.441	24.45	375.8	217.3	2.972	1.362	1.311	1.225	1.109	1.022	1.000	0.950	0.996	0.892	0.741	0.824	0.701	0.641	0.765	0.694	0.629	0.683	0.565	0.624	0.490	0.582	0.476	0.550	0.422	0.439	0.496	0.337	0.367	0.346	0.355	0.276	0.345	0.299	0.341	0.423	0.402	0.470	0.394	0.429	0.509	0.404	0.449	0.420	0.381	0.473	0.425	0.374	0.384	0.365	0.494	0.385	0.419	0.333	0.318
