Sample:	'1
File name:	T2025041007Œ‘¿«πµ»Î50m¥Ûπµ.FD3
Run date:	'15:22:05, 04/11/2025
Operator:	Administrator
Comment:	'

Instrument
Model:	F-2700 FL Spectrophotometer
Serial number:	23B8-004
ROM Version:	4J14000 07

Instrument parameters
Measurement type:	3-D scan
Data mode:	Fluorescence
EX  Start WL:	220.0 nm
EX  End WL:	600.0 nm
EX Sampling interval:	5.0 nm
EM  Start WL:	230.0 nm
EM  End WL:	650.0 nm
EM Sampling interval:	5.0 nm
Scan speed:	12000 nm/min
EX Slit:	5.0 nm
EM Slit:	5.0 nm
PMT Voltage:	700 V
Response:	Auto 
Corrected spectra:	Off
Contour interval:	50.000

Peak integration
Integration method:	Rectangular
Sensitivity:	1
Threshold:	1.000

Peaks
No.	ApexEX/EM(nm)	Height(Data)
1	225.0/585.0	187.7
2	225.0/630.0	142.6
3	230.0/340.0	7352
4	250.0/550.0	184.5
5	255.0/565.0	170.4
6	260.0/575.0	177.5
7	265.0/590.0	199.5
8	275.0/325.0	7020
9	275.0/615.0	349.7
10	460.0/340.0	20.13
11	475.0/340.0	20.47
12	560.0/325.0	33.37

Data points
	220.0	225.0	230.0	235.0	240.0	245.0	250.0	255.0	260.0	265.0	270.0	275.0	280.0	285.0	290.0	295.0	300.0	305.0	310.0	315.0	320.0	325.0	330.0	335.0	340.0	345.0	350.0	355.0	360.0	365.0	370.0	375.0	380.0	385.0	390.0	395.0	400.0	405.0	410.0	415.0	420.0	425.0	430.0	435.0	440.0	445.0	450.0	455.0	460.0	465.0	470.0	475.0	480.0	485.0	490.0	495.0	500.0	505.0	510.0	515.0	520.0	525.0	530.0	535.0	540.0	545.0	550.0	555.0	560.0	565.0	570.0	575.0	580.0	585.0	590.0	595.0	600.0
230.0	52.22	845.6	2151	763.9	44.86	10.65	9.061	7.866	7.339	6.581	6.495	6.188	5.565	5.000	3.870	3.733	2.808	2.731	2.215	1.864	1.876	1.772	1.524	1.382	1.319	1.241	1.156	1.064	1.039	0.970	0.952	0.894	0.839	0.804	0.697	0.693	0.679	0.622	0.577	0.580	0.573	0.550	0.538	0.495	0.463	0.460	1.215	4.398	7.402	5.693	2.627	0.718	0.392	0.396	0.391	0.380	0.397	0.414	0.369	0.401	0.386	0.377	0.377	0.357	0.359	0.391	0.372	0.358	0.377	0.393	0.403	0.378	0.378	0.403	0.395	0.347	0.421
235.0	62.02	244.9	1526	2856	570.3	69.82	10.42	9.259	8.238	7.298	7.048	6.263	6.122	5.225	4.477	3.496	2.994	2.819	2.393	2.252	1.934	1.903	1.566	1.485	1.339	1.308	1.181	1.241	1.117	1.076	1.131	0.961	0.870	0.853	0.705	0.719	0.672	0.763	0.629	0.581	0.560	0.564	0.502	0.504	0.529	0.423	0.579	1.393	3.417	6.150	9.678	10.32	4.926	1.289	0.407	0.338	0.333	0.400	0.414	0.361	0.401	0.368	0.345	0.360	0.396	0.355	0.359	0.340	0.409	0.388	0.427	0.389	0.377	0.375	0.395	0.382	0.405
240.0	69.25	100.9	486.8	2671	3732	460.2	38.26	11.15	10.06	8.778	7.244	7.314	6.876	5.307	4.533	3.530	3.392	2.674	2.318	2.099	1.838	1.769	1.454	1.394	1.341	1.282	1.095	1.383	1.013	1.009	1.063	0.849	0.834	0.793	0.707	0.662	0.657	0.649	0.574	0.614	0.590	0.576	0.582	0.543	0.591	0.504	0.525	0.638	1.098	2.067	5.982	14.35	18.25	13.32	4.898	0.873	0.428	0.413	0.407	0.389	0.449	0.352	0.370	0.402	0.400	0.428	0.410	0.381	0.421	0.342	0.402	0.417	0.379	0.401	0.381	0.375	0.434
245.0	64.15	104.0	149.0	977.7	4550	3676	358.2	19.07	12.30	9.913	8.850	8.286	6.723	5.700	4.941	3.639	3.251	2.828	2.280	2.241	1.912	1.888	1.412	1.493	1.383	1.355	1.165	1.192	1.097	0.936	0.911	0.833	0.781	0.846	0.836	0.730	0.679	0.780	0.604	0.597	0.607	0.584	0.543	0.499	0.518	0.496	0.626	0.691	0.620	0.804	1.719	5.412	14.40	25.96	23.89	13.94	3.295	0.598	0.409	0.409	0.389	0.417	0.463	0.450	0.427	0.404	0.379	0.434	0.378	0.435	0.397	0.436	0.345	0.373	0.391	0.354	0.412
250.0	52.93	86.67	145.0	277.7	1577	4988	5731	1303	79.72	13.24	10.42	9.567	7.848	6.663	5.436	4.332	3.682	2.981	2.439	2.426	2.349	1.962	1.538	1.651	1.614	1.399	1.319	1.189	1.167	1.031	0.996	0.966	0.869	0.865	0.767	0.700	0.624	0.681	0.610	0.567	0.604	0.594	0.621	0.589	0.512	0.530	0.533	0.741	0.756	0.740	0.812	1.608	3.822	9.078	17.38	28.05	32.49	29.53	11.96	3.346	0.619	0.529	0.468	0.455	0.446	0.413	0.415	0.429	0.433	0.406	0.447	0.444	0.364	0.404	0.399	0.381	0.413
255.0	47.35	52.42	114.0	226.2	418.0	1323	5869	9999.9	1772	78.34	15.20	11.45	10.47	7.595	5.881	4.760	3.826	3.086	2.775	2.394	2.485	1.966	1.723	1.556	1.450	1.580	1.542	1.319	1.177	1.046	1.008	1.125	1.006	0.824	0.757	0.742	0.689	0.675	0.596	0.606	0.686	0.600	0.630	0.620	0.536	0.573	0.488	0.527	0.591	0.761	1.008	1.186	1.339	2.467	4.258	7.126	14.89	37.44	59.71	29.34	18.21	3.254	0.612	0.457	0.427	0.470	0.465	0.437	0.405	0.464	0.417	0.449	0.427	0.436	0.434	0.425	0.448
260.0	47.29	44.46	61.33	198.8	254.9	345.4	1920	9948	9999.9	1279	38.23	15.32	11.74	8.466	6.522	5.337	4.525	3.588	2.975	2.480	2.416	2.004	1.847	1.621	1.677	1.585	1.574	1.662	1.281	1.246	1.100	1.207	0.978	0.835	0.791	0.855	0.711	0.708	0.600	0.620	0.684	0.581	0.572	0.665	0.689	0.588	0.443	0.511	0.496	0.583	0.768	1.368	1.378	1.199	1.383	2.026	3.890	10.64	30.57	58.19	75.69	27.88	12.90	1.625	0.578	0.499	0.501	0.509	0.454	0.445	0.433	0.511	0.471	0.438	0.441	0.417	0.548
265.0	52.35	48.34	43.28	111.6	274.6	203.2	477.1	3720	9999.9	9999.9	206.1	24.38	14.99	11.22	8.479	5.751	5.381	4.082	3.444	3.126	2.379	2.272	1.937	1.805	1.830	1.676	1.376	1.465	1.276	1.352	1.256	1.157	0.927	1.031	0.807	0.855	0.748	0.787	0.591	0.689	0.643	0.651	0.643	0.668	0.667	0.644	0.588	0.533	0.475	0.457	0.507	0.998	1.444	1.774	1.241	0.994	1.405	2.942	7.620	19.35	50.73	83.33	83.91	24.06	7.201	0.906	0.585	0.554	0.563	0.519	0.422	0.498	0.506	0.462	0.482	0.463	0.534
270.0	115.2	134.4	107.3	77.74	157.0	295.8	272.6	914.2	3970	9999.9	9999.9	789.4	55.18	16.36	11.20	7.550	6.113	4.540	4.028	3.323	2.853	2.722	2.290	2.080	1.895	1.867	1.562	1.623	1.466	1.396	1.455	1.227	1.081	1.112	1.032	0.979	0.874	0.811	0.725	0.726	0.723	0.686	0.806	0.710	0.700	0.830	0.779	0.721	0.684	0.576	0.529	0.673	0.833	1.230	1.678	1.657	1.627	1.462	2.353	4.968	12.65	26.56	49.81	72.14	61.38	67.07	15.91	6.414	0.953	0.597	0.519	0.582	0.542	0.504	0.569	0.466	0.519
275.0	294.8	403.4	316.6	149.5	105.1	204.8	447.3	427.4	1025	2796	9999.9	9999.9	1121	53.15	16.55	10.64	8.088	5.831	4.820	4.102	3.258	3.057	2.458	2.153	2.230	1.919	1.696	1.649	1.521	1.636	1.300	1.134	1.283	1.199	1.267	0.998	1.011	0.887	0.901	0.756	0.815	0.783	0.967	0.906	1.073	1.275	1.312	1.548	1.377	1.063	0.701	0.720	0.653	0.800	1.042	1.404	2.373	3.054	2.301	2.169	3.771	6.944	12.14	17.64	24.33	67.97	119.6	115.2	24.95	6.708	0.935	0.799	0.687	0.659	0.654	0.588	0.572
280.0	495.4	717.9	597.3	262.1	150.8	188.0	417.9	606.6	485.8	931.7	3544	9999.9	9914	777.8	29.01	15.12	10.69	7.708	5.597	5.035	4.206	3.236	3.110	2.507	2.456	2.187	1.874	1.747	1.694	1.789	1.374	1.448	1.424	1.409	1.312	1.214	1.203	1.079	0.915	0.833	0.834	0.931	1.120	1.215	1.370	1.676	1.932	2.330	2.204	1.400	1.065	1.018	0.834	0.846	1.060	1.255	1.712	3.021	3.671	3.152	2.545	3.119	4.302	5.606	7.156	18.61	49.46	108.4	138.2	33.25	19.01	2.699	0.840	0.684	0.715	0.613	0.627
285.0	728.8	1081	896.5	400.2	231.8	249.6	382.2	739.8	738.2	721.3	1343	5064	9999.9	7861	113.9	21.53	13.92	9.429	6.894	5.161	4.153	3.697	3.494	2.769	2.561	2.260	2.034	1.772	1.833	1.741	1.647	1.413	1.469	1.405	1.379	1.419	1.217	1.111	1.078	1.006	0.955	1.156	1.284	1.639	1.701	2.340	2.673	3.135	3.174	2.091	1.461	1.302	1.158	1.126	1.353	1.305	1.921	2.194	3.230	4.396	4.174	3.420	3.458	4.159	4.191	7.136	13.97	31.48	72.21	120.2	144.2	30.44	13.74	1.335	0.809	0.769	0.648
290.0	1025	1469	1262	626.3	375.3	389.7	501.1	729.5	1150	1274	1341	2080	5280	9999.9	9999.9	1843	36.75	13.98	9.126	6.368	5.300	4.498	3.707	3.153	2.936	2.660	2.222	2.132	1.917	1.870	1.661	1.607	1.542	1.727	1.641	1.592	1.438	1.313	1.134	1.162	1.067	1.255	1.547	1.916	2.390	3.100	3.710	4.193	3.879	2.854	2.044	1.905	1.807	1.696	1.949	2.054	2.346	2.732	3.039	3.747	4.951	5.980	6.265	6.259	5.737	6.782	7.948	11.60	20.83	35.80	67.72	88.97	116.4	89.49	57.91	10.31	1.888
295.0	1241	1799	1581	878.5	584.0	626.5	773.7	983.8	1354	1998	1917	1863	2250	3162	9999.9	9999.9	635.5	38.85	14.15	9.084	7.252	5.881	4.267	3.492	3.317	2.895	2.631	2.354	2.116	1.784	1.857	1.798	1.761	1.949	1.923	1.794	1.601	1.412	1.256	1.442	1.211	1.472	1.659	2.156	2.709	3.404	4.442	5.088	4.939	3.560	2.655	2.630	2.235	2.439	2.625	3.038	3.661	3.799	4.497	4.778	5.199	6.734	7.810	10.60	10.89	10.17	9.395	9.702	11.41	13.69	19.56	23.24	33.52	62.72	134.3	152.2	32.74
300.0	1358	1983	1807	1120	864.3	958.5	1218	1488	1895	2496	3098	2721	2181	1612	3717	9999.9	9999.9	487.0	28.46	12.78	8.510	6.939	5.194	4.123	3.532	3.091	2.995	2.653	2.473	2.366	2.081	1.736	1.773	1.870	2.039	1.909	1.763	1.609	1.385	1.364	1.400	1.603	1.785	2.372	3.198	3.927	4.746	5.738	5.435	4.218	3.527	3.503	3.313	3.776	3.921	4.309	5.504	5.660	6.468	7.183	7.810	9.031	10.14	12.49	14.56	15.44	14.21	13.27	12.61	11.78	11.63	10.72	11.65	18.44	44.33	101.6	155.9
305.0	1459	2207	2105	1422	1231	1476	1871	2315	2933	3637	4443	4507	3450	2287	2130	5239	9999.9	5041	77.07	21.42	11.87	8.738	6.496	5.102	4.120	3.683	3.186	2.966	2.621	2.402	2.292	2.027	1.842	2.116	2.176	1.934	1.820	1.830	1.527	1.504	1.547	1.710	2.106	2.491	3.278	4.361	5.219	6.746	6.054	4.953	4.401	4.625	4.568	4.997	5.525	6.565	7.810	8.718	9.785	10.75	12.01	13.51	15.27	17.20	18.45	21.44	22.63	21.18	19.37	17.55	15.25	13.07	11.44	12.34	16.77	30.19	63.74
310.0	1573	2396	2445	1835	1660	2009	2598	3169	3897	4763	5584	5979	5258	3627	2669	2686	5567	9999.9	9999.9	1496	29.28	12.59	8.353	6.854	5.019	4.388	3.809	3.336	3.021	2.898	2.501	2.255	2.065	2.203	2.210	1.934	1.879	1.936	1.725	1.774	1.785	1.926	2.365	2.759	3.558	4.677	5.713	7.167	7.050	5.967	5.451	6.086	6.103	6.812	7.476	8.755	10.52	12.04	13.62	14.77	16.23	17.82	20.36	22.54	24.41	26.00	27.60	27.60	28.09	26.53	22.85	19.86	16.85	16.19	14.87	16.70	23.00
315.0	1636	2664	2755	2210	2057	2437	3106	3694	4309	5221	6097	6511	6142	4787	3315	2441	2728	3315	9999.9	9999.9	482.7	29.54	12.16	9.092	6.412	5.356	4.369	3.906	3.383	3.194	2.943	2.563	2.157	2.295	2.150	2.177	2.097	1.967	1.787	1.854	1.947	2.112	2.568	2.861	3.831	5.148	6.462	8.018	7.831	6.803	6.498	7.085	7.462	8.130	8.698	10.53	12.43	14.08	15.79	16.62	18.07	19.69	22.37	24.88	26.11	27.98	30.04	29.80	30.87	30.35	28.80	26.49	21.98	19.83	17.30	15.95	15.93
320.0	1970	3279	3422	2598	2270	2614	3321	3947	4495	5465	6402	6884	6524	5457	3947	2629	2258	1632	3187	9999.9	9999.9	385.9	21.22	11.94	7.840	6.296	4.861	4.345	3.777	3.448	2.956	2.699	2.312	2.401	2.345	2.108	2.127	2.046	1.962	2.076	2.080	2.224	2.758	3.225	4.052	6.019	7.738	9.667	9.624	8.279	7.403	8.017	8.323	8.743	9.701	11.07	13.51	15.65	17.30	17.77	19.42	20.93	23.76	25.60	27.29	29.02	31.69	31.81	32.96	32.11	31.01	29.43	26.77	23.40	19.60	17.04	15.48
325.0	2393	4285	4538	3103	2442	2663	3360	4010	4561	5478	6471	7020	6694	5653	4414	2894	2214	1345	1069	3873	9999.9	3900	60.73	17.73	10.03	7.129	5.584	4.623	4.144	3.973	3.037	2.628	2.613	2.329	2.410	2.184	2.212	2.018	2.050	2.007	2.259	2.411	2.601	3.463	4.887	7.175	9.281	12.92	12.85	10.94	8.917	9.303	8.811	9.229	10.40	11.27	13.57	15.82	17.05	17.79	19.02	20.75	23.28	25.54	27.41	29.63	31.40	32.09	33.37	33.05	32.06	29.75	27.83	26.59	22.81	18.54	16.37
330.0	2618	4863	5647	4174	3109	2886	3332	3888	4336	5186	6127	6725	6539	5601	4408	3178	2321	1380	738.8	1189	3886	9999.9	9061	1389	27.35	10.49	7.522	6.089	4.809	4.225	3.371	3.108	2.851	2.576	2.307	2.240	2.082	2.112	1.970	2.025	2.106	2.428	2.815	3.927	5.393	7.924	10.60	14.56	15.78	13.76	11.82	12.19	11.58	10.93	10.87	11.47	13.56	15.02	16.88	17.84	18.54	19.74	22.15	24.02	26.23	28.53	29.82	31.03	32.31	32.20	31.48	29.50	27.63	25.49	23.17	20.15	18.43
335.0	2901	5523	6783	5657	4580	3547	3424	3837	4167	4950	5876	6515	6475	5714	4517	3374	2691	1691	935.9	784.5	1298	2747	8917	9999.9	423.8	28.40	10.98	7.845	5.679	5.001	4.050	3.721	2.990	2.731	2.578	2.430	2.133	2.254	2.111	2.045	2.136	2.726	3.016	4.072	5.941	8.696	11.93	16.63	18.77	17.06	15.82	17.72	17.22	16.19	13.92	12.99	14.06	15.21	16.47	17.46	17.50	18.99	20.96	23.89	25.00	27.42	28.30	30.11	31.35	31.13	30.74	29.85	28.09	26.98	24.04	21.36	19.74
340.0	3003	5894	7352	6298	5124	3799	3394	3690	3983	4685	5542	6170	6178	5557	4470	3325	2701	1895	1078	792.5	794.0	1001	2741	9999.9	9999.9	369.1	18.48	9.455	7.254	5.660	4.555	3.725	3.132	3.026	2.577	2.490	2.173	2.206	2.163	2.172	2.176	2.765	3.198	4.091	6.009	9.306	12.47	17.64	20.13	18.18	17.48	20.47	18.89	18.11	14.98	12.87	13.94	15.19	15.99	16.66	17.20	18.03	19.29	22.89	23.68	25.41	27.38	27.70	29.93	29.85	29.93	29.17	28.57	26.46	23.75	21.20	20.00
345.0	2843	5377	7031	6185	4998	3683	3170	3379	3635	4210	4979	5542	5603	5090	4145	3100	2460	1883	1197	818.0	711.3	642.2	916.7	3401	9999.9	9331	54.20	13.65	8.761	6.365	5.306	4.187	3.366	2.935	2.711	2.393	2.183	2.263	2.147	1.992	2.166	2.631	2.950	3.981	5.600	8.692	11.97	16.58	18.99	17.71	16.95	19.92	18.23	17.30	14.62	12.57	13.09	14.05	14.62	15.21	15.15	16.21	17.87	19.83	21.75	23.25	24.62	25.10	26.75	27.28	27.51	27.13	25.12	23.53	22.15	19.38	18.18
350.0	2456	4708	6260	5860	4938	3587	2947	3052	3232	3669	4300	4777	4853	4471	3697	2837	2247	1723	1295	956.3	750.6	617.6	563.8	985.3	3291	9354	7442	1361	24.19	8.636	6.371	4.681	4.001	3.089	2.800	2.499	2.209	2.143	2.058	1.852	2.023	2.446	2.882	3.532	4.918	7.505	10.25	14.62	17.01	16.24	15.95	19.28	18.02	17.36	14.48	11.93	12.31	12.80	13.22	13.63	14.14	14.76	15.90	17.51	18.80	20.22	20.77	22.17	23.18	23.92	24.19	23.74	22.56	21.24	19.88	18.25	16.87
355.0	2206	3976	5617	5466	4786	3483	2787	2779	2906	3226	3702	4083	4156	3887	3281	2578	2076	1612	1239	1075	859.5	654.1	527.5	488.4	870.3	2248	5995	9999.9	2178	29.75	8.806	5.867	4.542	3.611	3.019	2.648	2.171	2.089	1.908	2.008	2.117	2.260	2.694	3.124	4.666	6.337	9.284	12.75	14.72	14.94	14.81	17.95	17.80	16.88	14.51	11.81	11.78	11.55	11.94	12.59	12.66	13.46	14.17	15.40	16.65	17.17	18.24	18.87	19.74	20.08	21.13	20.81	19.72	18.98	17.78	16.20	15.60
360.0	1878	3440	4813	4895	4350	3237	2621	2538	2629	2887	3256	3558	3604	3401	2909	2330	1894	1509	1178	1028	939.9	700.9	531.9	393.4	359.0	600.0	1612	8165	9999.9	377.2	20.37	7.990	5.065	3.926	3.203	2.650	2.453	2.128	2.156	2.173	2.014	1.986	2.602	2.847	4.328	5.671	7.883	10.63	12.92	12.91	13.56	16.02	16.09	15.37	13.28	11.15	10.75	10.69	11.39	11.65	11.58	11.77	12.36	13.62	14.91	15.07	15.95	16.99	16.97	17.49	18.36	18.22	17.40	17.02	15.67	14.73	14.12
365.0	1574	2929	4102	4337	3900	2965	2419	2355	2407	2610	2909	3131	3168	2990	2601	2123	1748	1429	1135	972.3	924.1	780.7	556.2	393.4	271.0	255.2	437.1	2358	9995	9473	319.6	13.21	6.799	4.962	3.667	2.915	2.626	2.296	2.177	1.987	1.900	1.978	2.395	2.754	3.754	4.999	6.615	9.057	11.15	11.14	12.01	14.43	14.56	13.59	12.64	10.17	10.44	10.09	10.43	10.54	10.54	11.23	11.60	12.49	13.13	13.64	14.12	14.79	14.86	15.84	15.45	15.64	15.72	14.88	13.78	13.62	12.89
370.0	1356	2480	3454	3722	3499	2727	2234	2173	2193	2345	2544	2711	2731	2581	2277	1894	1606	1354	1110	959.4	872.8	810.1	660.2	446.7	297.4	218.1	208.3	601.9	2821	7816	8816	1355	22.96	7.050	4.912	3.559	2.944	2.306	2.199	2.011	1.941	1.984	2.245	2.522	3.424	4.370	5.706	7.715	9.457	9.374	10.45	12.46	12.79	12.47	11.49	9.439	9.447	9.629	9.442	9.784	9.743	10.10	10.52	11.09	11.67	12.25	12.31	12.80	12.96	13.64	13.72	13.71	13.56	13.00	12.39	12.27	11.60
375.0	1136	2010	2883	3160	3065	2471	2060	1977	1979	2106	2244	2343	2336	2219	1975	1685	1463	1274	1083	944.3	850.3	768.5	716.7	554.6	360.0	260.4	201.4	245.1	704.6	1839	5108	9999.9	2166	27.95	6.807	4.449	3.599	2.743	2.417	2.186	1.884	1.945	2.075	2.252	3.002	3.928	4.647	6.430	8.070	7.914	8.778	10.66	11.18	11.32	9.998	8.714	8.652	8.783	8.970	8.780	8.685	9.297	9.516	9.658	10.17	10.53	10.76	10.99	11.54	12.05	11.74	11.70	11.81	11.68	11.01	10.47	10.52
380.0	971.7	1743	2454	2726	2714	2285	1926	1857	1840	1940	2028	2102	2095	1976	1777	1546	1362	1205	1053	938.5	840.4	756.3	690.5	624.0	436.3	305.6	232.2	192.9	255.4	478.9	1320	6649	9545	1606	20.04	5.628	4.457	3.356	2.485	2.348	2.074	2.036	2.163	2.013	2.764	3.285	4.063	5.628	6.673	6.765	7.448	9.629	9.875	10.05	9.159	8.420	8.408	8.428	8.193	8.338	8.442	8.509	8.803	8.969	9.152	9.322	9.636	9.855	10.28	10.32	10.11	10.65	10.56	10.84	10.25	9.539	9.762
385.0	902.9	1514	2120	2442	2468	2113	1821	1749	1714	1758	1862	1902	1884	1798	1629	1439	1282	1155	1027	927.0	840.6	757.9	672.6	622.4	519.5	362.7	270.0	210.8	181.4	197.8	362.0	1820	7553	7978	282.0	11.54	5.126	3.993	2.744	2.388	2.122	1.949	1.963	1.949	2.475	3.200	3.803	4.939	5.867	6.191	6.383	8.599	9.163	9.042	8.485	8.097	7.874	7.905	7.681	7.927	7.804	7.886	8.345	8.642	8.274	8.616	8.868	8.982	9.198	9.059	9.772	9.760	9.678	9.455	9.364	8.826	8.830
390.0	780.2	1319	1805	2114	2186	1941	1693	1617	1590	1632	1683	1700	1691	1617	1476	1322	1200	1101	997.4	907.5	837.2	763.6	687.1	609.5	550.4	467.2	338.8	262.9	209.1	174.2	176.2	474.6	2030	5577	6504	1100	19.74	5.587	3.806	2.810	2.269	2.064	2.118	2.093	2.465	2.836	3.328	4.371	4.922	5.288	5.577	7.500	8.104	8.186	7.674	7.278	7.206	7.283	7.241	7.047	7.128	7.383	7.579	7.827	7.518	7.790	8.082	8.261	8.439	8.275	8.592	8.624	8.634	8.946	8.532	8.451	8.399
395.0	683.3	1148	1550	1827	1932	1763	1582	1508	1490	1511	1541	1549	1527	1473	1355	1227	1128	1046	962.3	891.7	828.2	768.6	702.4	631.3	558.4	524.5	449.2	334.9	264.8	214.9	172.9	202.2	519.7	1309	3424	7313	1846	25.18	5.707	3.664	2.817	2.451	2.319	2.286	2.298	2.762	2.942	3.913	4.597	4.555	5.049	6.572	7.094	7.647	7.480	6.690	6.853	6.707	6.690	6.653	7.121	6.717	7.075	7.118	7.220	7.223	6.975	7.114	7.385	7.539	8.066	7.906	8.370	7.964	8.134	7.853	8.027
400.0	606.1	986.8	1422	1657	1777	1680	1514	1457	1432	1432	1463	1451	1430	1381	1277	1166	1077	1009	942.0	872.5	820.8	769.7	715.1	650.8	577.9	535.0	509.4	410.9	315.2	254.7	199.1	165.7	198.5	349.0	868.2	4432	6953	1370	17.41	4.855	3.463	2.742	2.385	2.159	2.282	2.625	2.830	3.583	4.252	4.303	4.719	6.088	6.229	6.741	6.805	6.450	6.632	6.637	6.307	6.340	6.775	6.262	6.777	6.787	7.005	6.659	6.565	7.025	7.095	6.935	7.349	7.638	7.900	7.438	7.330	7.369	7.580
405.0	595.7	937.5	1299	1515	1666	1596	1470	1419	1381	1379	1403	1387	1364	1314	1215	1120	1043	977.1	912.3	853.8	807.7	762.6	718.2	667.6	602.5	550.7	521.1	482.7	373.1	294.6	234.3	181.0	147.0	148.8	243.0	1189	5183	5889	251.9	9.850	4.118	3.107	2.587	2.355	2.380	2.542	2.892	3.291	3.891	3.900	4.355	5.669	6.093	6.247	6.170	6.083	6.493	6.377	6.415	5.921	6.254	6.393	6.416	6.603	6.215	6.325	6.398	6.716	6.895	6.529	6.865	6.940	7.543	7.161	7.040	7.151	7.012
410.0	518.6	850.3	1169	1359	1525	1497	1417	1366	1334	1323	1324	1313	1285	1234	1144	1059	981.1	927.5	874.3	819.3	782.3	745.2	708.1	671.4	620.3	572.5	529.2	506.5	455.3	360.7	278.6	215.5	161.2	126.5	118.9	310.6	1370	3937	4800	1013	17.76	4.152	3.106	2.725	2.388	2.590	2.776	3.198	3.570	3.719	3.996	5.196	5.500	5.801	5.895	6.006	6.107	6.249	6.338	5.946	5.850	6.205	6.063	6.357	6.202	5.976	6.328	6.340	6.524	6.414	6.743	6.629	6.692	6.944	6.557	6.693	6.725
415.0	483.9	779.4	1057	1255	1397	1394	1349	1342	1279	1258	1257	1239	1199	1148	1066	983.9	912.0	872.3	819.8	776.2	746.9	715.2	689.9	664.9	625.8	581.1	544.3	504.7	482.6	430.5	325.6	247.8	186.2	138.2	105.6	126.0	343.5	916.8	2387	5294	1606	22.09	4.340	3.050	2.707	2.678	2.749	3.183	3.348	3.413	3.703	4.815	5.146	5.431	5.326	5.553	6.137	6.016	6.132	5.791	5.547	5.909	6.091	5.893	5.940	5.739	5.904	6.116	5.946	6.010	6.128	6.181	6.402	6.375	5.833	6.173	6.245
420.0	448.7	708.0	965.5	1192	1302	1326	1321	1295	1244	1226	1205	1187	1138	1090	1006	928.0	863.8	828.2	779.2	740.2	712.5	693.2	668.9	649.4	620.3	582.8	547.9	511.8	478.3	455.9	367.6	269.9	201.1	153.0	112.5	91.22	121.0	235.2	596.8	3131	5098	263.1	15.03	4.091	3.025	2.831	2.719	2.981	3.172	3.207	3.452	4.731	4.676	5.216	5.385	5.376	5.699	5.534	5.877	5.772	5.766	5.783	5.719	5.780	5.960	5.414	5.487	5.700	5.645	5.670	5.601	5.842	5.903	5.925	5.964	5.855	6.051
425.0	433.0	667.0	914.5	1118	1245	1271	1278	1264	1199	1184	1170	1143	1087	1031	953.3	875.8	824.0	789.6	743.0	703.2	684.3	666.2	653.0	632.8	610.8	582.2	546.7	512.8	473.2	447.8	402.7	302.1	220.4	165.1	121.8	91.70	77.96	88.26	157.8	826.9	3681	4184	231.9	7.227	3.633	2.908	2.743	2.761	3.065	3.097	3.458	4.071	4.400	5.086	5.133	5.230	5.654	5.640	5.533	5.660	5.766	5.508	5.560	5.655	5.614	5.250	5.478	5.547	5.200	5.316	5.549	5.405	5.631	5.506	5.491	5.586	5.520
430.0	550.6	621.8	851.2	1037	1153	1205	1236	1226	1189	1151	1135	1099	1031	974.0	903.5	825.1	775.7	732.7	694.7	665.2	643.8	627.7	622.8	612.7	595.1	574.4	544.9	513.6	478.9	442.5	401.2	342.2	251.7	186.3	139.8	104.4	79.44	63.27	64.91	205.2	965.6	2857	2994	899.3	15.26	3.851	3.161	2.900	3.147	3.162	3.354	4.040	4.408	4.824	4.724	5.015	5.335	5.411	5.461	5.499	5.464	5.493	5.611	5.323	5.419	5.299	5.311	5.103	5.073	5.069	5.309	5.267	5.494	5.306	5.040	5.316	5.533
435.0	970.6	602.7	768.4	954.4	1074	1151	1196	1204	1161	1135	1102	1063	989.3	924.4	847.9	774.5	720.3	688.1	648.8	625.2	604.8	591.3	589.6	585.2	573.1	559.6	537.7	511.5	483.0	442.5	393.9	347.5	291.7	212.6	158.8	120.1	88.94	65.81	52.27	71.90	233.6	660.3	1733	4363	1400	19.72	4.108	3.439	3.346	3.005	3.150	3.920	4.208	4.455	4.454	4.700	5.203	5.392	5.442	5.423	5.494	5.283	5.522	5.342	5.428	5.220	5.213	4.977	5.052	4.892	5.101	4.790	5.155	4.917	4.926	4.704	5.098
440.0	1150	671.6	736.2	914.3	1026	1104	1156	1176	1141	1113	1079	1017	948.5	882.2	809.4	732.0	679.7	648.4	614.2	590.5	571.5	564.3	566.3	565.3	555.3	541.6	526.4	506.1	477.3	436.8	391.0	336.4	302.4	236.5	170.5	128.8	99.09	73.99	55.31	47.07	74.32	163.8	441.7	2723	4347	237.6	12.35	4.001	3.750	3.210	3.204	3.765	4.260	4.506	4.406	4.710	5.010	5.449	5.458	5.645	5.299	5.314	5.122	5.201	5.360	5.144	5.044	4.702	4.962	4.853	4.814	4.652	5.091	4.914	4.871	4.638	4.822
445.0	1154	943.0	698.2	864.1	989.3	1068	1102	1142	1108	1078	1045	983.6	905.8	838.3	762.5	688.6	638.5	606.2	578.1	555.9	540.1	534.4	535.1	536.1	533.2	520.5	507.3	491.8	466.9	439.5	386.0	330.6	291.5	252.2	186.8	137.9	105.4	79.09	59.67	44.96	42.22	54.98	113.1	733.5	3354	3632	186.9	7.125	4.084	3.145	3.349	3.583	4.103	4.351	4.304	4.580	4.959	5.055	5.352	5.369	5.094	5.548	5.005	5.223	5.230	4.979	4.886	4.577	4.779	4.640	4.385	4.365	4.560	4.462	4.731	4.410	4.328
450.0	755.0	1401	814.8	788.8	918.6	1004	1040	1072	1059	1021	975.1	924.7	845.9	774.7	704.6	630.0	587.8	554.7	529.5	511.1	495.0	489.6	491.1	495.8	493.3	486.2	475.9	462.9	443.2	417.8	373.9	323.2	275.4	242.2	202.2	151.6	112.3	86.28	66.10	50.06	38.78	34.60	42.04	176.6	892.8	2605	2616	778.9	13.01	3.831	3.500	3.668	3.837	4.128	4.296	4.615	4.773	4.948	5.146	5.189	5.036	5.193	4.962	4.903	4.723	4.736	4.592	4.447	4.373	4.619	4.174	4.188	4.217	4.151	4.172	4.138	3.925
455.0	390.9	1423	1251	741.0	833.9	915.6	966.4	1005	997.6	959.4	922.7	854.8	777.0	708.4	633.6	571.0	527.9	501.0	476.9	457.1	445.6	439.6	443.9	446.4	448.0	444.3	438.3	427.2	413.6	394.4	355.6	311.6	262.6	224.7	197.1	166.7	122.9	92.28	72.64	54.10	41.90	33.75	28.70	54.07	210.7	601.3	1473	3590	1100	14.78	3.768	3.917	3.887	3.861	4.140	4.239	4.598	4.647	4.725	4.832	4.901	4.703	4.776	4.827	4.533	4.205	4.347	4.179	4.254	4.177	3.931	3.914	4.125	3.774	4.046	3.796	3.947
460.0	288.3	995.7	1909	822.7	764.5	853.6	911.1	955.9	939.6	897.5	871.3	806.7	724.9	656.1	590.6	525.0	481.9	458.6	434.0	415.5	404.8	404.2	408.8	413.4	411.3	410.4	405.8	397.1	385.8	371.1	336.2	297.8	251.9	215.0	183.7	167.8	133.5	97.79	74.67	57.79	45.44	34.97	27.63	29.04	59.75	144.9	369.2	2175	3359	177.2	10.50	4.287	3.642	4.031	3.876	3.873	4.422	4.305	4.558	4.467	4.491	4.303	4.585	4.417	4.376	4.200	4.146	3.937	4.044	3.789	3.755	3.422	3.835	3.650	3.533	3.787	3.628
465.0	236.1	604.8	2086	1308	726.0	783.4	857.0	892.6	865.6	843.2	819.8	746.0	673.3	607.4	542.8	480.4	445.3	421.5	399.4	384.6	374.9	372.1	372.5	379.9	379.1	378.2	376.7	371.0	364.4	347.8	319.0	280.9	244.2	205.6	174.6	156.7	137.5	103.7	76.16	60.39	47.96	37.35	30.02	24.71	27.76	43.86	92.47	582.8	2642	2643	154.2	6.641	3.999	3.923	4.037	3.671	4.279	4.405	4.374	3.934	4.165	4.129	4.204	4.463	4.235	4.168	4.038	3.800	3.568	3.518	3.661	3.437	3.436	3.474	3.254	3.308	3.505
470.0	224.8	377.3	1337	2324	870.5	717.1	770.4	802.7	795.8	768.2	734.0	680.2	609.4	541.0	483.6	432.4	395.3	374.3	352.6	339.0	331.1	330.3	331.2	336.2	337.5	338.9	334.3	333.8	328.6	312.9	291.2	257.5	225.8	192.1	164.0	141.4	127.7	109.5	81.67	62.19	50.25	39.30	32.25	25.59	22.26	22.95	31.52	139.2	704.8	1901	1839	684.3	13.11	4.106	3.882	3.784	3.836	4.114	4.040	3.660	3.904	3.928	3.960	4.057	3.820	3.667	3.694	3.484	3.330	3.357	3.381	3.251	3.187	3.007	2.997	2.911	3.029
475.0	206.2	302.4	629.2	2403	1837	651.4	687.1	714.4	706.3	691.1	652.7	601.4	541.4	485.1	421.5	375.0	346.9	325.1	310.1	295.8	291.4	288.7	288.9	289.8	296.5	296.0	293.3	292.5	289.4	281.5	261.4	233.2	205.4	177.2	151.5	130.2	113.0	103.6	89.22	66.57	51.39	41.10	33.94	27.15	22.81	19.93	18.81	41.17	165.0	436.1	960.7	2402	868.5	16.20	4.116	3.639	3.583	3.944	3.792	3.498	3.785	3.615	3.672	3.538	3.256	3.184	3.310	3.168	3.036	2.958	2.929	2.714	2.817	3.000	2.589	2.783	2.876
480.0	188.8	276.7	408.4	1600	2906	790.9	632.7	665.9	660.1	637.1	601.0	560.6	499.3	440.4	385.3	341.9	314.7	297.1	279.7	267.5	261.6	259.4	262.0	264.2	268.1	266.6	268.4	266.9	264.9	255.4	238.7	216.9	191.0	166.8	143.4	124.2	105.9	94.11	89.04	71.22	52.66	42.16	34.74	28.18	23.46	20.13	16.92	19.88	45.31	104.2	238.1	1342	2365	204.9	10.40	3.910	3.521	3.559	3.671	3.508	3.155	3.483	3.391	3.414	3.152	2.991	3.026	3.030	2.911	2.789	2.483	2.688	2.591	2.699	2.582	2.556	2.575
485.0	181.8	259.0	342.3	865.4	3278	1453	591.3	623.8	611.7	596.7	557.4	521.3	459.4	406.5	355.1	315.6	293.4	271.3	257.2	249.7	241.9	238.0	239.0	244.1	245.3	245.6	245.9	243.7	245.3	237.3	225.7	203.0	180.4	157.7	137.0	119.1	101.6	87.87	82.35	74.70	56.45	43.77	35.83	29.89	25.08	21.47	17.87	15.92	19.44	31.07	59.59	356.7	1776	1695	167.1	6.076	3.778	3.579	3.437	3.320	3.095	3.189	3.129	3.340	3.095	2.916	2.699	2.836	2.781	2.819	2.510	2.688	2.189	2.479	2.478	2.410	2.538
490.0	156.9	252.8	304.0	482.6	2127	3053	808.4	571.8	561.8	546.5	519.4	477.7	419.9	369.1	324.2	289.1	260.6	244.8	231.2	220.6	215.3	213.1	213.6	218.7	220.6	221.3	223.1	221.1	221.0	215.0	205.9	186.8	167.3	146.8	127.5	112.3	97.35	84.27	74.30	70.45	61.14	47.00	37.80	31.75	26.40	22.67	18.93	16.22	15.02	15.47	20.60	86.12	468.1	1281	1761	664.3	13.93	3.867	3.469	3.449	3.278	3.153	2.894	3.100	2.888	2.682	2.595	2.592	2.657	2.531	2.298	2.524	2.232	2.390	2.263	2.173	2.268
495.0	140.4	222.2	301.1	355.3	889.4	3534	2027	525.4	507.3	495.8	473.2	427.1	381.7	333.6	290.6	257.5	234.0	219.1	205.0	195.1	189.1	190.1	189.7	195.6	194.7	194.3	195.1	196.2	197.4	191.2	184.4	167.2	151.2	133.7	119.3	103.6	91.49	79.64	70.48	62.75	60.22	52.64	39.94	33.41	28.46	23.90	19.96	17.43	14.56	13.01	12.48	26.05	110.2	294.8	925.5	2249	928.6	17.65	3.795	3.407	3.278	2.890	2.788	2.780	2.721	2.364	2.479	2.481	2.426	2.261	2.228	2.323	2.138	2.128	2.072	1.924	1.950
500.0	120.0	199.8	279.9	313.8	482.9	2420	3408	644.7	473.5	455.5	430.1	389.3	346.4	302.7	265.9	234.4	211.5	195.3	186.8	178.0	170.8	171.8	171.9	175.5	175.7	178.6	176.4	177.1	178.1	174.7	167.6	152.9	140.8	124.8	111.4	96.86	86.24	75.60	66.93	58.19	54.29	52.74	44.11	33.53	28.48	24.43	21.09	17.97	15.15	13.25	11.00	13.26	30.50	71.03	229.1	1249	2274	222.2	10.88	3.621	3.107	2.834	2.523	2.605	2.534	2.520	2.262	2.281	2.042	2.154	2.138	2.019	2.235	1.880	2.106	1.774	1.828
505.0	112.1	178.5	269.1	290.7	356.5	1200	4280	1322	439.6	418.0	395.9	360.9	319.8	277.1	240.6	214.5	192.2	177.9	167.2	160.1	157.9	156.2	157.6	159.3	158.5	162.9	160.5	161.3	161.3	160.2	153.6	141.6	129.4	114.7	102.4	90.43	80.95	71.26	63.71	55.81	50.49	49.45	45.51	36.38	28.87	25.34	21.63	18.35	15.35	13.71	10.96	10.29	13.19	21.62	56.40	327.1	1577	1772	184.2	5.877	3.123	2.890	2.694	2.553	2.320	2.381	2.157	2.275	2.059	1.936	2.065	1.852	1.919	1.853	1.624	1.732	1.674
510.0	114.6	150.8	229.1	286.2	297.9	525.6	2872	3303	601.9	373.4	350.2	317.3	280.2	244.1	211.8	187.9	168.7	155.2	147.4	140.4	135.7	135.5	135.5	138.3	137.8	139.5	140.7	139.3	139.8	140.1	133.6	125.3	114.3	101.9	91.25	80.94	73.73	64.59	58.92	52.37	45.42	42.87	42.02	38.01	30.51	25.04	21.67	18.75	15.94	14.16	12.03	10.24	9.697	10.95	18.16	77.89	406.9	1144	1525	567.8	13.74	3.108	2.696	2.393	2.325	2.259	1.984	1.856	1.975	1.948	1.827	1.654	1.612	1.630	1.567	1.657	1.540
515.0	97.81	131.4	180.3	258.3	271.4	331.4	1044	4310	1751	341.6	311.0	276.8	242.4	216.1	185.0	163.3	144.6	134.4	127.8	120.4	114.9	117.4	115.8	118.6	118.4	118.5	118.9	119.9	121.2	120.2	115.3	108.8	98.57	89.23	80.05	72.05	65.30	58.92	52.74	47.37	42.57	37.94	35.81	35.75	33.30	25.50	21.19	18.31	16.06	13.80	12.12	10.89	9.134	8.387	9.546	22.20	94.75	261.0	663.9	1670	767.3	17.64	2.843	2.282	2.099	2.057	1.881	1.731	1.948	1.848	1.723	1.562	1.623	1.496	1.479	1.339	1.474
520.0	81.75	121.1	163.7	222.2	253.5	265.7	446.1	3077	3639	447.0	284.6	255.8	219.9	190.7	164.8	142.3	131.4	119.6	114.0	106.9	102.4	104.4	103.5	104.8	105.3	105.2	104.3	106.8	105.7	106.4	103.9	96.78	87.54	80.80	72.58	65.08	59.29	53.96	48.40	43.53	39.07	35.25	31.63	32.17	32.87	27.28	21.50	18.35	15.97	13.67	12.09	10.30	9.061	8.147	7.691	9.641	25.40	62.30	159.5	841.8	1646	228.3	12.08	2.553	2.207	1.903	1.879	1.670	1.623	1.602	1.414	1.392	1.485	1.300	1.429	1.410	1.378
525.0	90.43	108.9	146.7	196.2	242.6	234.0	288.3	1412	4917	1075	256.9	229.9	200.7	171.8	148.7	128.3	116.1	107.6	101.1	96.90	93.25	93.02	92.53	95.15	94.67	94.08	94.65	95.72	96.08	96.90	93.27	86.52	79.92	72.75	65.98	58.63	54.26	48.72	44.97	39.65	36.57	32.63	30.10	28.27	29.84	27.99	22.28	18.21	15.30	13.18	11.90	10.30	9.360	7.874	7.249	7.111	9.844	17.88	39.42	211.1	997.7	1387	194.3	5.950	2.314	1.847	1.810	1.604	1.495	1.544	1.523	1.385	1.247	1.279	1.205	1.214	1.326
530.0	75.90	94.07	124.3	157.3	223.0	224.5	225.3	516.2	3363	3164	399.4	199.4	174.1	151.3	130.4	112.1	101.0	93.63	88.19	82.87	81.05	79.96	79.34	81.26	80.59	80.81	80.96	81.59	82.59	82.47	80.33	74.76	68.76	62.73	57.47	51.64	48.36	42.96	39.80	36.03	32.74	29.66	27.34	25.32	24.62	24.93	23.01	18.01	14.69	12.71	11.36	9.760	8.538	7.912	6.694	6.411	6.641	7.811	12.32	50.22	248.5	745.6	1073	461.7	14.71	2.073	1.782	1.612	1.485	1.396	1.344	1.318	1.135	1.253	1.061	1.157	1.176
535.0	78.66	91.82	109.8	127.3	174.8	228.6	193.5	264.9	1100	4721	1439	181.3	150.5	128.9	109.6	97.33	86.50	79.47	75.95	71.76	68.15	68.30	67.80	67.59	68.37	68.38	68.62	68.07	69.04	69.80	66.73	62.20	59.47	53.93	49.31	44.64	41.83	38.20	34.39	31.51	29.38	26.47	23.72	22.68	20.61	20.96	21.16	18.49	14.30	12.07	10.53	9.347	8.391	7.328	6.751	6.532	5.901	5.472	6.300	14.14	58.13	169.3	383.9	1094	669.5	20.42	1.914	1.671	1.342	1.254	1.121	1.228	1.096	1.196	0.989	1.069	1.041
540.0	69.22	85.43	101.8	114.9	146.0	207.3	178.9	195.8	397.1	3230	3587	215.1	133.2	114.9	98.03	85.11	76.63	70.32	67.14	63.93	60.11	60.51	59.09	58.28	59.92	58.98	60.14	60.60	60.45	60.88	59.18	55.43	51.98	47.74	43.63	39.58	36.73	33.23	30.26	28.37	25.99	23.87	21.67	19.98	18.60	17.43	18.39	17.95	14.93	11.66	9.868	9.028	7.910	6.826	6.522	6.134	5.439	4.712	4.736	6.012	15.48	40.21	90.15	470.5	1149	238.2	14.27	1.741	1.327	1.178	1.205	1.240	1.220	1.052	0.950	1.008	1.026
545.0	77.30	98.89	103.9	106.2	116.6	181.0	179.4	165.9	216.6	1315	5044	740.8	121.1	100.4	85.27	75.65	66.71	62.15	58.42	54.67	52.88	51.25	52.51	52.52	51.62	51.32	52.78	52.49	52.88	52.71	50.88	48.38	45.45	41.40	39.09	35.21	32.41	30.35	27.62	25.51	23.01	21.41	20.13	18.23	17.15	15.67	15.47	16.59	15.12	11.42	9.193	8.338	7.459	6.107	5.787	6.069	5.391	4.674	4.005	4.085	5.920	11.47	22.39	113.0	570.5	1001	206.4	7.433	1.345	1.209	1.161	1.192	1.011	0.951	0.905	0.891	0.970
550.0	86.78	111.1	114.7	101.3	98.36	132.4	184.5	152.1	160.2	426.2	3212	2733	155.6	86.58	72.18	62.21	56.65	52.32	48.68	45.74	44.38	42.82	43.41	43.87	42.81	42.89	42.77	44.13	43.77	43.48	42.17	39.99	37.44	34.09	32.16	29.44	27.28	26.10	23.26	21.84	19.59	18.41	17.61	15.92	15.03	13.61	12.72	12.82	13.20	11.49	9.025	7.489	6.502	5.784	5.136	5.143	5.051	4.475	3.816	3.466	3.605	4.728	6.999	27.21	136.1	442.5	708.9	421.0	16.10	1.715	1.124	1.144	0.936	0.948	0.845	0.794	0.890
555.0	101.3	119.0	120.9	83.66	87.13	102.7	156.6	158.9	132.9	195.6	953.3	4327	978.8	78.11	58.43	50.40	46.35	42.90	39.55	36.80	35.67	34.50	34.67	34.24	34.60	34.15	34.67	34.53	35.54	34.88	34.98	32.59	30.19	28.04	25.92	23.62	22.53	21.09	19.64	17.79	16.52	14.95	14.14	13.31	12.83	11.80	11.16	10.65	10.36	10.22	8.900	6.880	5.572	5.065	4.837	4.239	4.187	3.876	3.551	3.245	2.819	3.026	3.539	7.890	32.04	100.4	216.0	662.5	526.3	23.09	1.362	1.121	0.915	0.855	0.817	0.833	0.843
560.0	110.2	137.8	128.9	82.29	81.83	89.33	130.0	167.5	125.8	147.0	318.8	2921	2871	118.1	53.15	43.46	40.33	36.20	33.22	32.03	30.41	29.22	29.81	28.72	29.17	29.13	28.28	29.43	29.68	29.56	29.29	27.85	25.23	23.15	21.84	19.88	18.99	17.43	16.80	15.44	13.99	13.38	12.31	12.06	10.89	10.41	9.876	8.821	8.053	8.384	8.372	6.598	5.208	4.806	4.322	3.930	3.665	3.623	3.515	3.273	2.665	2.578	2.629	3.384	8.873	24.23	50.20	241.1	701.2	245.1	16.73	1.266	0.906	0.791	0.785	0.758	0.756
565.0	127.4	150.7	132.7	89.31	79.92	82.43	105.6	170.4	133.1	133.6	171.4	1121	4242	477.7	46.54	37.51	34.35	31.64	28.06	27.18	26.29	25.31	25.67	24.68	24.99	24.57	24.39	25.24	25.63	24.90	25.17	23.57	20.89	19.58	18.44	17.24	16.34	15.45	13.69	13.50	12.39	11.63	10.57	10.65	9.534	8.974	8.366	7.712	6.977	6.818	7.278	6.651	5.124	4.311	3.758	3.614	3.254	3.046	3.083	3.291	2.656	2.430	2.395	2.267	3.806	6.900	12.74	56.76	287.5	619.8	209.6	9.582	1.015	0.814	0.677	0.650	0.796
570.0	126.5	166.5	142.7	85.62	73.83	74.81	91.79	140.2	156.6	133.0	143.8	362.0	2755	2096	85.51	32.98	28.53	26.23	23.76	21.43	21.59	20.90	20.82	20.37	20.05	20.03	19.48	20.53	20.58	20.36	19.62	18.61	17.19	16.20	14.91	13.85	13.34	12.47	11.40	10.92	10.00	9.337	8.658	8.502	8.246	7.606	6.986	6.572	5.859	5.568	5.479	5.900	5.033	4.113	3.561	3.093	3.128	2.796	2.626	2.962	2.825	2.475	2.227	2.007	2.406	3.066	4.407	14.11	67.08	233.4	428.1	303.1	17.15	1.243	0.841	0.703	0.757
575.0	126.9	180.1	144.6	89.29	70.38	72.86	84.20	111.9	177.5	149.0	148.0	184.9	810.4	3411	685.5	30.38	24.15	21.19	19.44	17.97	16.48	16.19	16.54	16.00	16.12	16.44	15.23	16.22	16.28	16.36	15.72	14.58	13.97	12.91	11.92	11.27	10.85	9.989	9.177	8.719	8.028	7.387	7.046	6.912	6.686	6.495	5.750	5.669	4.951	4.468	4.318	4.311	4.695	4.101	3.301	2.878	2.753	2.492	2.398	2.455	2.319	2.577	2.174	2.050	2.085	2.102	2.383	4.709	16.20	53.11	115.9	359.3	256.6	24.09	1.072	0.709	0.772
580.0	135.2	186.6	155.0	87.65	65.68	72.94	78.94	100.3	169.6	170.2	158.0	155.2	270.1	2321	2102	55.66	20.94	18.91	15.86	15.75	14.87	14.47	14.23	13.30	13.50	13.66	13.01	13.36	13.91	13.75	13.36	12.44	12.13	11.00	9.894	9.364	9.265	8.603	7.913	7.365	6.713	6.623	6.219	6.101	5.850	5.568	4.982	4.941	4.501	3.991	3.760	3.221	3.950	3.875	3.081	2.603	2.398	2.238	2.168	2.246	2.116	2.392	2.414	2.111	2.041	1.987	1.993	2.489	4.783	13.11	26.95	116.7	382.6	236.8	16.86	0.920	0.832
585.0	144.7	187.7	156.7	96.74	67.95	75.94	80.42	99.19	151.0	193.9	165.9	156.5	147.9	893.5	3134	253.2	18.92	16.17	14.17	13.62	13.56	12.56	11.98	11.56	12.01	11.75	11.68	11.52	11.97	12.26	11.54	11.07	10.21	9.172	8.898	8.295	7.786	7.580	6.809	6.591	6.064	5.719	5.176	5.048	5.157	4.711	4.469	4.193	3.955	3.428	3.231	3.003	3.243	3.363	3.230	2.578	2.134	2.044	2.005	2.061	1.979	2.081	2.366	2.184	1.967	1.921	1.826	2.001	2.440	4.019	7.247	27.18	146.2	396.6	186.7	8.425	0.826
590.0	132.2	173.0	154.5	91.44	69.72	73.02	83.53	100.2	135.8	199.5	187.5	163.1	126.3	264.2	2052	1373	44.44	14.70	12.44	11.67	10.85	10.78	9.950	9.993	10.06	9.648	9.547	9.262	9.569	9.543	9.089	9.098	8.444	7.616	7.017	6.838	6.379	6.223	5.678	5.323	5.038	4.825	4.391	4.320	4.320	4.093	3.857	3.600	3.334	2.913	2.711	2.581	2.510	2.606	2.945	2.636	2.134	2.017	1.876	1.934	1.783	1.904	2.097	2.046	1.934	1.887	1.849	1.790	1.775	2.013	2.600	6.848	34.07	137.7	276.3	191.3	16.79
595.0	128.9	165.9	156.4	88.16	74.10	76.94	89.13	107.8	135.5	187.7	218.9	172.2	133.1	115.7	587.1	2291	381.0	13.67	10.80	9.794	8.991	9.126	8.397	8.245	7.834	7.957	7.806	7.476	8.177	7.601	7.451	7.319	6.838	6.205	5.712	5.811	5.247	4.892	4.764	4.079	4.150	3.857	3.589	3.548	3.559	3.383	3.114	3.099	2.894	2.544	2.376	2.079	2.077	1.992	2.332	2.619	2.203	1.809	1.647	1.757	1.757	1.732	1.740	1.683	2.084	2.006	1.887	1.715	1.541	1.606	1.614	2.477	8.432	31.47	71.70	221.7	241.1
600.0	129.1	166.3	147.0	93.65	74.20	82.16	99.40	122.1	143.9	186.9	241.2	195.9	142.7	92.03	172.7	1648	1201	26.96	10.38	9.034	8.006	7.346	7.425	6.960	7.010	6.676	6.733	6.479	6.624	6.563	6.477	6.253	5.850	5.528	5.122	4.953	4.319	4.092	4.051	3.670	3.773	3.220	3.134	3.270	2.831	2.862	2.790	2.680	2.663	2.184	2.045	1.857	1.797	1.781	1.889	2.293	2.145	1.949	1.643	1.676	1.674	1.607	1.755	1.762	1.827	1.968	1.750	1.643	1.750	1.467	1.374	1.544	2.691	7.618	16.80	69.38	257.7
605.0	117.7	156.0	145.6	98.68	83.18	94.84	116.4	136.2	164.4	202.8	262.3	223.4	171.3	109.7	94.25	678.9	1949	80.05	9.921	7.754	7.589	6.807	6.460	6.058	6.431	5.720	5.852	5.570	5.775	5.753	5.546	5.339	4.923	4.827	4.411	4.324	3.956	3.743	3.520	3.104	2.968	3.025	2.647	2.818	2.500	2.526	2.481	2.481	2.381	1.988	1.792	1.719	1.606	1.573	1.574	2.090	2.038	2.098	1.726	1.659	1.589	1.717	1.767	1.763	1.887	1.979	1.966	1.830	1.742	1.451	1.556	1.400	1.556	2.489	4.678	16.44	93.46
610.0	112.4	156.4	149.3	107.8	90.59	110.8	137.4	167.8	209.0	251.8	306.3	310.2	239.0	161.0	114.0	231.4	1452	881.3	24.79	7.359	6.568	5.649	5.626	5.273	5.164	4.788	4.964	4.657	4.830	5.101	4.329	4.309	4.124	4.081	3.650	3.542	3.487	3.051	2.945	2.764	2.478	2.515	2.382	2.334	2.250	2.323	2.146	2.075	2.039	1.795	1.516	1.497	1.576	1.490	1.477	1.645	1.942	2.042	1.781	1.672	1.653	1.860	1.898	1.903	2.147	2.182	2.460	2.117	2.093	1.668	1.683	1.478	1.367	1.553	2.017	4.596	21.95
615.0	120.1	150.9	146.6	108.1	95.23	116.0	149.7	184.4	228.9	277.8	316.0	349.7	285.8	196.6	141.1	133.3	493.3	1589	212.9	7.230	5.428	4.996	4.516	4.594	4.120	4.116	4.289	3.922	4.128	3.873	3.818	3.736	3.889	3.328	3.203	3.041	2.767	2.748	2.412	2.263	2.034	1.947	1.934	1.862	1.849	1.990	1.804	1.816	1.766	1.578	1.470	1.379	1.448	1.286	1.364	1.479	1.750	2.000	1.911	1.745	1.717	1.747	1.812	1.939	2.092	2.109	2.198	2.239	2.159	2.056	2.029	1.666	1.365	1.447	1.534	2.060	5.768
620.0	109.8	143.9	145.0	113.2	102.1	118.8	152.8	186.5	226.7	275.8	313.7	345.3	303.5	205.5	147.5	111.4	186.6	1246	599.0	11.55	5.081	4.409	4.184	4.061	3.614	3.684	3.891	3.641	3.552	3.600	3.133	3.348	3.176	3.030	2.723	2.895	2.383	2.341	2.240	1.982	1.975	1.851	1.761	1.549	1.730	1.669	1.676	1.592	1.644	1.363	1.293	1.221	1.289	1.244	1.271	1.227	1.450	1.657	1.881	1.823	1.632	1.825	1.757	1.991	1.959	2.119	2.227	2.240	2.155	2.152	1.973	1.679	1.485	1.437	1.298	1.463	2.164
625.0	105.5	137.7	138.9	108.7	99.92	117.5	147.5	192.1	222.3	264.6	301.6	323.5	307.7	215.2	150.6	107.4	112.3	573.0	1291	50.89	5.197	4.153	4.091	3.524	3.488	3.435	3.228	3.116	3.086	3.050	2.701	2.765	2.799	2.470	2.467	2.416	2.126	2.025	1.832	1.802	1.654	1.576	1.523	1.472	1.523	1.447	1.567	1.465	1.427	1.256	1.145	1.153	1.225	1.154	1.109	1.211	1.359	1.422	1.700	1.956	1.799	1.721	1.581	1.789	1.823	2.019	2.055	2.207	2.174	2.276	1.926	1.661	1.412	1.429	1.271	1.280	1.331
630.0	99.78	142.6	136.6	108.5	102.8	120.9	150.8	180.8	214.4	251.5	291.2	309.9	300.5	225.6	155.1	107.3	94.73	179.6	1066	562.0	11.50	3.891	3.492	3.091	3.043	2.767	2.718	2.640	2.778	2.713	2.473	2.379	2.350	2.208	2.041	2.081	1.724	1.702	1.547	1.436	1.525	1.398	1.342	1.338	1.358	1.350	1.333	1.238	1.286	1.183	1.113	1.032	1.126	1.077	1.040	1.204	1.269	1.332	1.501	1.749	1.694	1.652	1.675	1.792	1.825	1.860	1.844	2.036	2.043	2.012	2.028	1.684	1.447	1.341	1.223	1.128	1.113
635.0	108.9	137.3	136.7	112.8	102.7	125.0	153.4	175.8	203.1	242.9	278.8	301.2	289.1	235.6	159.1	110.5	92.43	78.16	347.3	1138	62.01	3.868	3.178	2.900	2.430	2.317	2.220	2.189	2.393	2.497	2.173	2.125	2.011	1.825	1.831	1.596	1.489	1.404	1.386	1.280	1.338	1.320	1.217	1.127	1.081	1.293	1.211	1.244	1.050	1.081	0.962	1.034	0.947	1.002	0.969	1.156	1.213	1.266	1.329	1.487	1.542	1.502	1.688	1.679	1.744	1.738	1.898	2.073	2.117	1.812	2.004	1.800	1.503	1.321	1.346	1.186	1.050
640.0	110.6	145.8	145.9	117.6	104.9	116.3	149.9	171.1	195.5	235.2	274.0	291.3	277.2	239.3	166.9	112.7	91.77	56.41	96.89	971.2	423.8	6.129	3.253	2.773	2.496	2.347	2.220	2.235	2.253	2.056	2.013	1.942	1.761	1.709	1.542	1.361	1.347	1.322	1.293	1.301	1.159	1.117	1.053	1.070	1.018	1.144	1.086	1.017	1.048	1.006	0.878	0.967	0.849	0.975	0.931	0.922	1.102	1.231	1.175	1.234	1.398	1.510	1.496	1.566	1.582	1.640	1.838	1.705	1.851	1.812	1.896	1.752	1.590	1.478	1.247	1.101	1.078
645.0	108.8	156.0	160.1	115.7	99.68	117.6	139.0	167.8	190.2	232.8	264.7	283.6	271.5	235.1	175.9	112.4	88.92	51.10	35.73	473.6	907.8	31.47	3.435	2.596	2.251	2.012	1.918	2.021	1.866	1.919	1.849	1.670	1.479	1.437	1.372	1.197	1.165	1.194	1.135	1.140	1.019	1.015	0.980	1.012	1.020	1.036	0.948	1.003	0.962	0.841	0.786	0.846	0.789	0.935	0.833	0.946	1.076	1.109	1.313	1.046	1.312	1.511	1.427	1.433	1.554	1.647	1.586	1.823	1.833	1.901	1.753	1.687	1.585	1.491	1.256	1.131	1.090
650.0	112.1	178.3	184.7	118.4	95.73	108.9	137.3	161.4	182.1	219.3	253.5	275.8	265.5	223.8	175.3	112.8	87.28	50.20	22.52	146.4	1011	191.2	3.966	2.464	2.302	1.995	2.161	1.557	1.783	1.617	1.696	1.448	1.383	1.413	1.358	1.219	1.162	1.157	1.017	0.976	0.943	1.004	0.879	0.877	0.895	1.049	0.938	1.037	1.053	0.820	0.751	0.852	0.826	0.874	0.835	0.901	1.149	1.100	1.215	1.068	1.166	1.386	1.464	1.501	1.430	1.650	1.631	1.730	1.733	1.707	1.684	1.577	1.629	1.591	1.404	1.156	1.090
