Sample:	'1
File name:	T2025031410≥§…Ω¥Û«≈.FD3
Run date:	'10:39:34, 03/17/2025
Operator:	Administrator
Comment:	'

Instrument
Model:	F-2700 FL Spectrophotometer
Serial number:	23B8-004
ROM Version:	4J14000 07

Instrument parameters
Measurement type:	3-D scan
Data mode:	Fluorescence
EX  Start WL:	220.0 nm
EX  End WL:	600.0 nm
EX Sampling interval:	5.0 nm
EM  Start WL:	230.0 nm
EM  End WL:	650.0 nm
EM Sampling interval:	5.0 nm
Scan speed:	12000 nm/min
EX Slit:	5.0 nm
EM Slit:	5.0 nm
PMT Voltage:	700 V
Response:	Auto 
Corrected spectra:	Off
Contour interval:	50.000

Peak integration
Integration method:	Rectangular
Sensitivity:	1
Threshold:	1.000

Peaks
No.	ApexEX/EM(nm)	Height(Data)
1	230.0/585.0	48.64
2	235.0/340.0	6483
3	240.0/265.0	348.7
4	245.0/270.0	355.5
5	245.0/435.0	1353
6	250.0/275.0	457.1
7	250.0/450.0	1446
8	255.0/280.0	550.0
9	255.0/560.0	156.8
10	260.0/575.0	124.0
11	265.0/585.0	113.6
12	275.0/320.0	5238
13	275.0/615.0	287.2
14	280.0/385.0	2326
15	280.0/400.0	1875
16	280.0/625.0	261.3
17	320.0/405.0	699.8
18	335.0/385.0	745.7
19	335.0/405.0	767.5
20	355.0/385.0	834.2
21	355.0/405.0	944.2
22	370.0/405.0	840.8
23	370.0/425.0	559.4
24	430.0/505.0	31.83
25	445.0/525.0	19.18
26	460.0/545.0	10.93
27	475.0/340.0	21.49
28	505.0/275.0	2.961
29	510.0/280.0	3.010
30	510.0/445.0	6.200
31	520.0/285.0	3.747
32	560.0/320.0	24.79
33	570.0/385.0	12.21

Data points
	220.0	225.0	230.0	235.0	240.0	245.0	250.0	255.0	260.0	265.0	270.0	275.0	280.0	285.0	290.0	295.0	300.0	305.0	310.0	315.0	320.0	325.0	330.0	335.0	340.0	345.0	350.0	355.0	360.0	365.0	370.0	375.0	380.0	385.0	390.0	395.0	400.0	405.0	410.0	415.0	420.0	425.0	430.0	435.0	440.0	445.0	450.0	455.0	460.0	465.0	470.0	475.0	480.0	485.0	490.0	495.0	500.0	505.0	510.0	515.0	520.0	525.0	530.0	535.0	540.0	545.0	550.0	555.0	560.0	565.0	570.0	575.0	580.0	585.0	590.0	595.0	600.0
230.0	24.63	479.4	1306	442.9	19.39	4.747	3.847	2.951	3.061	3.161	3.095	2.968	2.660	2.382	2.049	1.589	1.514	1.288	0.983	0.847	0.851	0.736	0.635	0.615	0.535	0.556	0.533	0.518	0.502	0.443	0.474	0.461	0.331	0.324	0.263	0.280	0.239	0.226	0.239	0.222	0.246	0.294	0.309	0.229	0.198	0.190	0.534	2.558	4.847	4.239	1.773	0.429	0.178	0.151	0.146	0.154	0.137	0.165	0.141	0.117	0.148	0.137	0.140	0.137	0.147	0.136	0.118	0.129	0.124	0.140	0.121	0.127	0.132	0.125	0.139	0.122	0.131
235.0	54.98	143.9	891.6	1706	480.8	35.34	5.090	3.786	3.791	2.859	3.807	3.590	3.132	2.537	1.918	1.596	1.486	1.163	0.905	0.837	0.750	0.804	0.656	0.558	0.505	0.537	0.528	0.478	0.505	0.399	0.406	0.487	0.345	0.357	0.247	0.243	0.241	0.260	0.204	0.237	0.240	0.250	0.283	0.305	0.301	0.241	0.266	0.738	1.814	3.991	6.550	7.452	3.905	0.845	0.181	0.148	0.139	0.169	0.133	0.133	0.154	0.136	0.132	0.159	0.145	0.187	0.160	0.153	0.110	0.124	0.113	0.129	0.129	0.127	0.147	0.124	0.137
240.0	97.48	91.50	287.3	1470	2057	386.0	17.83	5.125	4.632	3.277	3.717	3.920	3.243	2.738	2.219	1.642	1.611	1.114	0.942	0.946	0.774	0.695	0.628	0.648	0.528	0.507	0.609	0.584	0.500	0.395	0.420	0.465	0.295	0.358	0.292	0.212	0.254	0.273	0.209	0.237	0.222	0.201	0.202	0.268	0.325	0.416	0.316	0.356	0.583	1.200	3.381	8.864	11.89	9.423	3.445	0.607	0.182	0.189	0.146	0.149	0.143	0.132	0.124	0.164	0.159	0.123	0.150	0.125	0.147	0.134	0.114	0.134	0.121	0.137	0.116	0.126	0.139
245.0	75.85	141.1	107.7	517.2	2242	2241	280.6	9.621	4.818	3.859	4.001	3.970	3.371	2.972	2.503	2.095	1.771	1.341	0.945	1.043	0.833	0.686	0.601	0.707	0.618	0.486	0.572	0.698	0.406	0.431	0.481	0.583	0.381	0.316	0.347	0.263	0.235	0.277	0.264	0.212	0.226	0.182	0.224	0.220	0.257	0.446	0.591	0.474	0.364	0.444	0.889	2.848	7.474	14.08	15.09	8.930	2.683	0.351	0.157	0.155	0.134	0.140	0.146	0.146	0.173	0.132	0.161	0.151	0.134	0.112	0.188	0.138	0.126	0.137	0.145	0.126	0.137
250.0	34.33	111.6	194.9	194.4	720.1	2184	2828	989.0	56.17	5.709	5.220	4.619	3.879	3.086	2.700	1.929	1.796	1.444	1.041	1.002	0.761	0.751	0.741	0.688	0.669	0.542	0.696	0.609	0.486	0.527	0.518	0.510	0.372	0.365	0.348	0.264	0.291	0.302	0.257	0.233	0.235	0.217	0.244	0.222	0.238	0.252	0.358	0.531	0.706	0.626	0.519	0.918	1.877	4.315	8.179	13.51	17.59	16.63	9.889	2.889	0.371	0.199	0.166	0.165	0.176	0.157	0.200	0.151	0.124	0.154	0.172	0.147	0.147	0.142	0.150	0.153	0.143
255.0	23.73	37.88	141.2	284.3	244.9	556.0	2104	4412	1402	54.74	6.295	5.827	4.757	3.566	3.060	2.177	2.097	1.663	1.292	1.033	0.829	0.845	0.801	0.936	0.744	0.600	0.646	0.705	0.533	0.604	0.562	0.522	0.371	0.410	0.341	0.256	0.338	0.354	0.272	0.237	0.252	0.248	0.232	0.205	0.198	0.214	0.260	0.300	0.418	0.656	0.939	1.195	0.770	1.196	1.974	3.231	5.706	14.12	28.43	27.54	15.98	3.383	0.344	0.199	0.203	0.202	0.158	0.159	0.208	0.204	0.163	0.169	0.198	0.144	0.145	0.162	0.185
260.0	19.94	23.76	56.39	242.0	276.5	181.7	623.0	3439	5058	253.1	27.79	7.372	5.790	4.622	3.718	2.347	2.269	1.738	1.325	1.117	1.017	0.993	0.687	0.868	0.798	0.675	0.718	0.788	0.607	0.565	0.562	0.520	0.408	0.422	0.354	0.261	0.328	0.260	0.276	0.270	0.246	0.242	0.273	0.229	0.189	0.200	0.200	0.239	0.226	0.307	0.571	1.364	1.555	1.111	0.732	1.007	1.534	3.792	10.87	24.21	38.26	27.02	13.23	1.765	0.288	0.262	0.207	0.179	0.172	0.214	0.177	0.184	0.156	0.179	0.137	0.183	0.160
265.0	21.71	21.86	26.29	114.1	348.7	235.4	179.1	1124	4940	4975	203.6	14.96	7.203	5.121	4.047	2.879	2.530	2.072	1.491	1.168	1.000	1.125	0.921	0.787	0.714	0.714	0.767	0.722	0.575	0.600	0.588	0.579	0.378	0.444	0.383	0.293	0.334	0.305	0.257	0.271	0.289	0.269	0.264	0.267	0.212	0.216	0.251	0.283	0.199	0.226	0.269	0.678	1.422	1.847	1.539	0.733	0.620	1.138	2.702	6.667	17.92	35.29	46.50	23.82	8.376	0.779	0.245	0.212	0.174	0.200	0.215	0.198	0.165	0.163	0.200	0.179	0.151
270.0	29.34	30.98	25.78	46.48	170.3	355.5	266.9	303.1	1507	4536	5970	796.7	53.25	7.667	5.174	3.877	3.233	2.493	1.767	1.265	1.308	1.113	1.114	0.905	0.828	0.695	0.806	0.787	0.632	0.655	0.653	0.668	0.526	0.544	0.411	0.312	0.364	0.367	0.326	0.298	0.300	0.264	0.276	0.277	0.237	0.274	0.262	0.261	0.235	0.200	0.251	0.327	0.597	0.948	1.649	1.863	1.754	1.113	0.947	1.751	4.375	9.529	19.79	30.82	32.63	38.41	16.35	7.247	0.852	0.271	0.212	0.234	0.217	0.161	0.195	0.191	0.168
275.0	52.02	65.87	60.12	46.67	65.41	164.6	457.1	318.6	388.3	1112	3622	8532	1152	56.29	8.093	5.641	3.975	3.208	2.215	1.686	1.552	1.168	1.345	1.019	0.988	0.820	0.682	0.786	0.759	0.713	0.663	0.706	0.520	0.567	0.562	0.444	0.394	0.392	0.319	0.329	0.282	0.367	0.369	0.285	0.328	0.381	0.348	0.372	0.355	0.296	0.289	0.284	0.370	0.494	0.649	0.909	1.921	2.961	2.406	1.111	1.316	2.442	4.717	7.319	9.136	21.82	46.82	64.77	26.59	8.631	0.704	0.305	0.306	0.184	0.225	0.228	0.165
280.0	95.20	117.1	106.1	65.66	51.04	78.13	283.6	550.0	264.3	322.1	1006	5524	8549	866.0	27.92	7.149	4.895	3.442	2.706	1.992	1.803	1.376	1.242	1.130	1.274	1.081	0.838	0.771	0.819	0.703	0.665	0.589	0.640	0.609	0.635	0.523	0.386	0.492	0.354	0.433	0.348	0.399	0.366	0.395	0.452	0.477	0.472	0.514	0.483	0.395	0.387	0.328	0.413	0.408	0.433	0.485	0.832	1.640	3.010	2.970	1.825	1.076	1.543	2.192	2.538	5.677	14.29	36.74	62.13	65.49	22.49	4.715	0.508	0.244	0.255	0.228	0.274
285.0	140.5	184.2	159.0	98.74	62.41	62.30	133.8	459.7	542.5	239.6	362.0	1620	6939	7555	121.8	13.93	6.258	4.287	3.089	2.229	2.152	1.491	1.299	1.257	1.035	1.227	0.861	0.722	0.805	0.793	0.650	0.722	0.709	0.704	0.689	0.581	0.639	0.552	0.373	0.395	0.400	0.441	0.408	0.430	0.499	0.599	0.639	0.691	0.662	0.531	0.491	0.439	0.419	0.451	0.353	0.430	0.530	0.801	1.479	2.716	3.747	2.574	1.460	1.132	1.278	2.071	3.975	9.395	21.25	47.58	72.23	32.45	17.27	1.953	0.284	0.345	0.259
290.0	214.6	298.0	261.6	165.8	102.8	98.11	121.3	257.7	585.2	667.5	422.8	641.1	2030	5589	6376	1975	36.37	7.938	3.904	2.911	2.543	1.767	1.532	1.438	1.189	1.074	1.039	0.981	0.870	0.820	0.739	0.832	0.677	0.691	0.671	0.711	0.689	0.528	0.503	0.443	0.446	0.520	0.611	0.548	0.640	0.791	0.850	1.016	0.929	0.797	0.724	0.629	0.587	0.607	0.565	0.582	0.641	0.690	0.866	1.401	2.295	3.250	3.830	3.391	2.346	1.944	2.385	3.661	6.151	12.40	23.71	33.64	51.73	45.19	39.46	12.21	2.690
295.0	321.9	444.4	459.4	309.0	213.8	201.7	237.7	313.3	490.0	898.7	1096	750.7	927.9	1572	3255	8254	701.8	50.11	7.756	4.212	3.117	2.619	2.068	1.704	1.460	1.214	1.035	0.964	1.090	1.012	0.868	0.855	0.867	0.695	0.829	0.827	0.766	0.578	0.584	0.539	0.572	0.491	0.696	0.661	0.946	1.138	1.140	1.466	1.434	1.069	0.960	1.059	1.019	0.856	0.864	1.007	1.214	1.203	1.318	1.449	2.189	2.501	3.078	4.768	6.286	5.115	3.824	3.511	4.110	5.207	7.228	9.109	13.31	18.34	45.66	74.65	34.40
300.0	480.5	698.4	764.0	555.5	433.0	437.9	446.0	744.6	1019	1440	1847	1517	1304	1206	1447	5083	7812	590.4	38.14	7.346	4.712	3.249	2.726	1.898	1.920	1.710	1.287	1.027	1.294	1.047	1.150	0.993	0.909	0.869	0.917	0.835	0.768	0.817	0.628	0.719	0.724	0.695	0.719	0.814	1.161	1.508	2.003	2.438	2.172	1.968	1.727	1.881	1.815	1.879	1.850	2.060	2.471	2.838	3.389	3.460	4.015	5.016	5.768	6.867	8.368	10.22	10.30	8.373	7.908	7.800	7.141	6.901	7.045	8.331	14.99	33.39	61.18
305.0	715.9	1126	1197	871.5	834.8	903.6	1186	1606	2125	2805	3504	3986	3225	2406	2069	2563	6862	5092	439.5	16.96	6.736	3.958	3.156	2.578	2.250	1.786	1.674	1.415	1.425	1.085	1.260	1.099	1.064	0.902	1.066	1.079	0.955	1.118	0.962	0.996	0.965	0.959	1.006	1.252	1.634	2.135	2.804	3.548	3.483	3.232	3.097	3.282	3.098	3.173	3.393	4.002	5.002	5.817	6.730	7.550	8.253	9.850	12.03	13.20	14.35	16.20	18.39	17.97	17.65	15.48	13.87	12.38	11.48	11.98	11.89	14.92	24.27
310.0	979.4	1624	1841	1497	1281	1342	1740	2208	2729	3503	4232	4840	4654	3523	2815	2273	3297	4816	5132	1611	28.69	6.197	4.276	3.420	2.690	2.103	2.006	1.693	1.641	1.364	1.337	1.321	1.147	1.113	1.111	1.085	1.114	1.153	1.130	1.087	1.167	1.221	1.350	1.644	2.088	2.898	3.743	4.887	5.330	4.704	4.425	4.803	4.706	4.688	5.101	5.567	6.901	8.162	9.147	9.914	11.11	12.68	14.41	16.48	17.66	19.48	20.76	21.73	23.50	22.21	19.84	17.32	15.76	15.82	14.41	13.08	14.21
315.0	1228	2137	2464	2024	1680	1703	2103	2548	2988	3783	4557	5148	5101	4459	3435	2457	2491	2051	2632	6441	2150	31.15	6.711	4.347	3.277	2.662	2.269	1.924	1.731	1.462	1.542	1.366	1.211	1.239	1.099	1.051	1.264	1.102	1.226	1.192	1.323	1.472	1.822	1.823	2.648	3.636	4.748	6.815	7.104	6.222	5.716	6.456	6.269	6.175	6.319	6.972	8.153	9.915	11.00	11.47	12.54	13.68	15.73	17.51	19.33	20.63	21.43	23.21	24.44	23.95	23.06	22.30	20.41	18.27	16.68	13.91	13.02
320.0	1403	2468	2900	2359	1871	1818	2206	2649	3022	3802	4604	5238	5160	4640	3885	2646	2377	1472	869.7	3589	6245	453.6	18.93	5.733	3.896	3.092	2.601	2.208	1.950	1.732	1.709	1.568	1.284	1.228	1.274	1.250	1.326	1.153	1.325	1.301	1.549	1.545	1.791	2.124	2.776	4.166	5.507	7.617	8.082	7.376	6.633	7.808	7.178	6.541	6.821	7.280	8.820	10.33	11.33	11.79	12.70	13.51	15.93	18.06	19.52	20.83	22.01	23.64	24.79	24.53	23.43	22.77	22.94	21.28	17.67	15.23	13.80
325.0	1546	2792	3414	2840	2109	1879	2189	2602	2865	3539	4306	4925	4939	4384	3893	2753	2239	1313	485.3	1028	4485	3873	348.1	11.63	5.076	3.831	2.968	2.425	2.116	1.942	1.733	1.603	1.241	1.180	1.282	1.229	1.297	1.276	1.305	1.222	1.424	1.497	1.799	2.171	3.293	4.886	6.192	8.562	9.333	8.890	8.143	9.055	7.997	7.109	7.072	7.293	8.346	10.01	11.34	11.62	12.08	13.08	14.86	16.50	18.08	19.34	21.00	21.89	23.38	23.07	22.30	21.11	21.23	21.36	18.76	16.21	13.97
330.0	1816	3387	4567	4300	3238	2304	2187	2464	2634	3213	3904	4512	4607	4136	3598	2841	2288	1321	536.9	467.7	1314	3327	4227	1350	25.20	5.538	3.953	2.906	2.271	2.156	1.835	1.757	1.375	1.359	1.349	1.309	1.231	1.255	1.232	1.316	1.411	1.577	1.830	2.431	3.553	5.408	7.042	10.27	12.41	12.36	12.37	13.91	12.18	10.84	9.396	8.130	8.523	9.766	10.70	10.81	10.98	11.95	13.32	14.75	16.20	17.84	19.01	20.26	21.65	21.41	21.10	20.12	20.38	19.89	17.88	16.81	14.81
335.0	2001	4001	5844	6198	5092	3173	2350	2419	2516	2985	3615	4230	4410	4064	3546	2803	2490	1590	755.2	522.3	608.1	993.2	2387	5732	1868	28.37	5.434	3.828	2.907	2.376	2.161	1.904	1.557	1.431	1.409	1.324	1.432	1.212	1.275	1.320	1.522	1.732	1.880	2.718	3.669	5.945	8.040	12.32	15.29	15.68	16.79	20.36	19.48	17.52	13.44	9.750	9.285	9.850	10.82	11.01	10.66	11.22	12.51	13.84	14.76	16.13	17.54	18.91	20.44	20.65	20.75	20.21	19.71	19.79	18.13	16.48	15.39
340.0	1992	3911	5991	6483	5440	3313	2278	2275	2312	2685	3235	3801	3983	3747	3311	2605	2276	1672	856.9	556.9	478.3	480.7	790.3	3458	5535	384.4	16.17	4.820	3.346	2.685	2.480	2.020	1.818	1.438	1.431	1.291	1.377	1.375	1.276	1.316	1.477	1.840	2.061	2.675	3.933	6.155	8.185	12.74	15.37	16.31	17.64	21.49	20.48	18.49	14.25	10.30	9.534	9.446	9.901	10.21	9.789	9.955	11.25	12.22	13.41	14.86	15.91	16.95	18.05	18.69	19.37	18.58	18.84	18.12	16.72	15.26	14.01
345.0	1849	3708	5705	6216	5138	3133	2099	2032	2076	2373	2842	3317	3458	3313	2910	2316	1941	1518	949.5	575.7	441.0	373.4	391.3	1038	4223	3272	303.4	7.401	4.128	3.237	2.607	2.074	1.755	1.556	1.441	1.294	1.315	1.240	1.236	1.140	1.237	1.542	1.954	2.466	3.660	5.738	7.653	11.78	14.56	15.63	17.11	20.68	19.69	17.35	13.56	9.660	8.976	8.564	9.179	8.987	9.106	9.296	10.70	11.01	11.71	13.16	14.21	14.86	15.69	16.77	17.12	16.69	16.45	15.97	15.02	13.65	12.65
350.0	1673	3403	5314	6006	5180	3106	1969	1849	1862	2090	2457	2832	2977	2889	2573	2092	1744	1332	983.6	709.1	494.8	386.2	342.7	404.5	1182	2990	3642	1139	19.65	4.367	3.054	2.491	1.800	1.597	1.344	1.281	1.384	1.102	1.211	1.168	1.174	1.526	1.734	2.380	3.292	5.102	6.932	10.64	13.40	14.69	16.17	19.98	19.35	18.08	13.29	9.376	8.059	8.215	8.193	8.233	7.818	7.980	8.900	9.873	10.60	11.32	12.32	12.74	13.56	14.68	14.56	14.45	14.41	13.89	13.17	12.38	11.75
355.0	1483	2908	4728	5452	4838	2971	1844	1698	1691	1852	2122	2409	2548	2480	2237	1858	1560	1200	881.3	778.3	601.0	421.1	354.8	289.8	355.7	730.3	2092	4887	388.3	22.41	4.779	3.421	2.322	1.684	1.402	1.223	1.330	1.238	1.289	1.041	1.244	1.460	1.567	2.069	2.846	4.381	5.971	9.242	12.01	12.95	14.79	18.15	18.26	17.01	12.65	9.160	7.842	7.559	7.436	7.617	7.193	7.240	7.906	8.780	9.211	9.809	10.47	11.10	11.42	12.04	12.70	12.68	12.68	12.11	11.64	10.93	10.31
360.0	1288	2563	4098	4733	4290	2699	1721	1554	1545	1676	1882	2096	2201	2138	1942	1637	1383	1093	806.1	698.0	664.0	465.2	355.2	263.4	189.2	228.0	558.7	3166	4558	346.2	13.28	5.445	3.154	1.916	1.461	1.304	1.336	1.132	1.115	1.090	1.195	1.242	1.491	1.868	2.691	3.708	5.318	8.063	10.38	11.10	12.83	15.90	15.98	14.76	11.57	8.369	7.270	6.708	6.630	6.794	7.284	6.916	7.242	7.760	8.129	8.352	9.249	9.372	10.32	10.80	10.71	10.72	11.10	10.51	9.703	9.484	8.992
365.0	1141	2238	3518	4071	3801	2437	1581	1448	1444	1546	1694	1839	1932	1871	1717	1454	1235	1000	765.4	637.4	629.1	546.5	379.2	270.8	174.0	134.8	183.8	901.6	3978	3044	49.50	12.39	5.535	2.841	1.968	1.372	1.395	1.152	1.131	1.164	1.082	1.162	1.372	1.773	2.284	3.305	4.429	7.238	8.941	9.761	11.40	13.77	13.74	13.41	10.43	7.256	6.544	6.365	6.243	6.149	6.613	6.324	6.282	7.267	7.534	7.749	8.090	8.483	8.728	9.036	9.021	9.573	9.872	9.255	8.709	8.163	8.209
370.0	961.9	1927	3025	3608	3403	2301	1499	1361	1348	1460	1593	1697	1812	1717	1513	1300	1130	932.5	747.6	630.2	573.0	569.6	500.1	350.2	233.7	184.6	192.9	343.4	1184	3059	3531	1042	29.18	11.02	3.441	1.973	1.466	1.367	1.236	1.145	0.983	1.111	1.302	1.651	2.050	2.917	3.871	5.878	7.623	8.748	9.615	12.33	12.37	11.99	9.672	7.051	6.431	6.127	6.184	5.905	5.918	6.139	6.140	6.665	6.776	7.449	7.430	7.727	8.066	8.637	8.830	8.646	8.363	8.332	7.819	7.622	7.345
375.0	856.5	1634	2648	3243	3201	2286	1486	1321	1357	1455	1699	1746	2046	1770	1360	1173	1032	873.9	743.3	653.3	596.3	569.1	606.1	572.6	404.9	359.8	418.6	451.3	564.3	998.2	2613	4921	1421	38.35	8.081	3.479	2.049	1.660	1.353	1.323	1.131	1.169	1.318	1.546	1.806	2.687	3.357	5.202	6.700	7.298	8.666	10.98	11.26	11.45	9.657	7.081	6.325	5.974	5.654	5.544	6.081	6.360	6.261	7.115	7.383	7.887	7.543	7.613	8.751	10.14	10.68	8.817	7.653	7.523	7.330	6.893	7.020
380.0	770.8	1478	2381	3018	3076	2298	1508	1323	1359	1487	1792	1807	2262	1843	1271	1088	965.8	843.0	737.2	668.0	631.9	595.0	627.6	722.2	574.2	509.9	662.1	707.5	557.6	653.9	1290	3763	4391	299.2	16.39	4.894	2.472	1.988	1.716	1.379	1.217	1.074	1.328	1.633	1.897	2.296	3.070	4.718	5.899	6.819	7.933	10.38	10.73	10.97	10.01	7.647	6.406	5.875	5.912	5.646	6.009	6.391	6.414	7.037	7.627	8.505	8.035	7.984	9.299	11.34	11.64	8.920	7.356	7.268	6.717	6.572	6.504
385.0	742.2	1332	2178	2774	2890	2251	1483	1292	1348	1480	1798	1804	2326	1846	1200	1014	910.0	815.9	725.2	671.2	649.6	615.9	639.7	745.7	700.1	608.9	786.3	834.2	610.5	632.0	991.5	1693	3875	2531	211.5	7.234	3.304	2.319	1.902	1.502	1.323	1.175	1.404	1.450	1.820	2.324	3.091	4.432	5.590	6.150	7.133	9.257	10.25	10.87	9.348	7.419	6.286	5.846	5.470	5.658	5.664	6.053	6.425	6.637	7.654	8.580	7.783	7.944	9.244	11.44	12.21	8.462	6.743	6.554	6.137	6.071	6.218
390.0	639.8	1172	1855	2344	2482	2005	1386	1223	1249	1358	1600	1602	1973	1613	1092	939.2	844.8	773.7	700.9	661.4	637.9	609.7	619.0	666.2	651.8	636.1	717.8	729.6	539.5	528.2	755.9	882.2	1242	2544	2757	763.8	14.65	3.270	2.014	1.708	1.365	1.152	1.289	1.426	1.725	2.172	2.773	3.784	4.723	5.388	6.016	8.076	8.646	9.282	8.213	6.652	5.922	5.502	5.284	5.364	5.245	5.511	5.843	5.898	6.830	7.639	7.009	6.849	7.784	9.713	10.37	7.608	6.246	5.771	5.901	5.532	5.384
395.0	581.5	1018	1642	2046	2210	1838	1348	1194	1210	1290	1495	1497	1836	1496	1033	887.8	811.6	756.6	697.9	672.8	657.6	636.6	645.7	674.8	638.3	662.7	790.5	756.3	554.4	533.7	724.4	713.9	483.3	660.9	1783	3479	280.3	16.04	2.965	2.029	1.653	1.226	1.360	1.313	1.717	2.107	2.576	3.462	4.288	4.795	5.525	6.907	7.799	8.495	7.702	6.344	5.762	5.502	5.374	5.067	5.354	4.992	5.494	5.633	6.415	7.046	6.772	6.475	7.072	9.173	9.351	7.471	5.792	5.595	5.311	5.142	4.967
400.0	552.8	979.3	1511	1940	2093	1803	1354	1209	1207	1290	1522	1509	1875	1510	1012	862.8	801.1	746.0	706.6	686.6	682.5	674.5	693.7	734.8	688.8	702.1	889.6	872.4	630.8	604.4	802.5	755.9	351.2	238.6	499.0	2406	3047	240.5	7.703	2.659	1.840	1.732	1.512	1.422	1.706	2.132	2.409	3.255	4.140	4.505	5.248	6.797	7.379	7.864	7.680	6.292	5.768	5.304	5.234	5.047	5.278	5.435	5.378	5.781	6.433	6.633	6.545	6.395	6.965	9.413	9.805	7.076	5.607	5.565	4.852	5.054	5.073
405.0	536.8	918.4	1430	1852	2017	1778	1341	1191	1192	1288	1516	1498	1864	1491	992.9	849.6	787.4	738.0	701.4	696.4	699.8	690.6	725.9	767.5	726.9	726.5	901.8	944.2	691.4	645.0	840.8	782.9	338.3	157.0	165.1	707.3	2763	2122	35.46	4.242	2.249	1.790	1.309	1.429	1.543	2.006	2.264	3.117	3.888	4.277	4.964	6.382	7.048	7.610	7.593	6.110	5.842	5.458	4.847	5.294	4.967	5.246	5.417	5.529	6.345	6.822	6.711	6.217	7.010	8.955	9.420	6.884	5.372	5.264	4.856	4.735	4.877
410.0	484.0	823.4	1262	1609	1784	1608	1290	1164	1149	1198	1367	1354	1593	1325	938.0	811.7	753.1	710.8	675.1	673.5	676.1	670.7	691.9	721.8	687.3	674.5	773.0	812.8	659.8	590.5	697.9	641.4	296.1	144.1	99.86	199.6	786.7	2012	2214	656.6	12.14	2.286	1.614	1.605	1.772	1.808	2.116	2.822	3.506	3.761	4.351	5.472	6.481	6.741	6.701	5.794	5.671	5.389	4.913	5.048	4.915	5.134	5.072	5.218	5.840	6.152	5.706	5.638	6.208	7.689	7.760	6.035	5.063	4.834	4.601	4.507	4.611
415.0	431.9	749.7	1108	1401	1548	1455	1230	1135	1084	1112	1203	1200	1341	1145	870.8	767.0	710.6	673.4	646.3	633.4	634.5	635.8	645.7	659.7	629.6	613.0	660.0	662.3	582.0	551.5	570.5	498.4	256.5	139.9	92.98	92.08	205.6	483.7	1383	2730	253.3	13.79	2.325	1.756	1.832	1.808	2.039	2.749	3.237	3.381	4.145	4.912	5.444	6.020	5.911	5.461	5.270	5.136	4.916	4.722	4.751	4.637	4.766	4.716	5.273	5.334	4.840	4.958	5.257	6.221	6.285	5.155	4.558	4.589	4.424	4.272	4.355
420.0	410.7	720.5	1036	1286	1450	1375	1213	1123	1074	1067	1144	1119	1231	1063	831.6	739.4	679.7	652.8	626.7	614.6	608.8	610.6	619.9	632.4	607.3	588.1	620.6	615.2	530.4	533.4	547.1	462.2	247.9	142.2	95.58	72.63	78.97	128.5	364.2	1825	2074	222.6	6.527	2.247	2.004	2.035	2.044	2.544	2.969	3.311	3.719	4.621	5.113	5.627	5.587	5.343	5.386	4.861	5.116	4.613	4.748	4.582	4.680	4.631	4.674	5.140	4.464	4.669	5.106	5.449	5.599	4.778	4.649	4.355	4.168	4.261	4.211
425.0	391.7	719.0	1009	1235	1401	1352	1222	1143	1069	1046	1119	1079	1168	1008	810.3	716.2	658.9	635.3	608.1	600.7	597.4	592.7	605.4	617.2	593.2	574.1	609.7	599.7	512.4	504.3	559.4	466.6	251.2	152.1	100.8	73.85	56.48	51.85	96.84	513.7	1995	1909	33.74	3.532	2.309	2.153	2.336	2.551	2.852	3.081	3.483	4.279	5.031	5.280	5.382	5.167	5.328	5.246	5.071	4.694	5.180	4.652	4.687	4.602	4.803	4.824	4.477	4.425	5.021	5.363	5.446	4.517	4.533	4.114	4.012	3.990	4.141
430.0	399.8	654.6	950.9	1175	1341	1352	1268	1183	1094	1032	1048	1022	1081	944.2	777.7	698.0	645.6	619.7	598.7	585.5	576.4	568.7	576.2	591.0	571.2	554.0	574.5	567.3	490.7	466.7	510.1	460.0	265.5	165.2	116.3	84.39	59.03	41.73	40.69	127.9	549.0	1546	1857	625.1	12.13	2.633	2.394	2.690	2.820	2.966	3.246	4.252	4.876	5.021	5.264	5.056	5.436	5.273	5.370	4.940	5.029	4.620	4.593	4.425	4.498	4.495	4.167	4.358	4.355	5.069	4.956	4.332	4.086	3.973	3.979	3.984	3.942
435.0	478.6	617.9	899.0	1113	1289	1353	1347	1247	1109	1008	984.8	954.1	974.0	868.9	744.3	676.7	630.3	602.5	586.1	567.4	546.1	535.7	543.4	546.9	534.7	519.9	529.7	518.3	461.0	433.4	440.1	406.7	286.4	186.8	130.9	96.00	67.07	46.42	34.23	44.66	133.9	361.4	1050	2435	240.8	15.55	2.679	2.895	2.963	2.869	3.166	4.294	4.570	4.684	5.467	5.176	5.589	5.656	5.778	5.390	4.976	4.751	4.464	4.384	4.305	4.151	4.384	3.879	3.898	4.417	4.520	4.176	3.872	3.745	3.734	3.936	3.983
440.0	596.8	628.1	860.0	1079	1264	1348	1407	1297	1122	991.2	939.6	895.8	906.9	821.2	719.6	655.4	620.2	588.5	572.5	548.7	521.0	504.3	514.5	515.2	500.7	493.5	494.9	481.3	440.0	417.8	406.6	363.1	284.2	207.6	140.5	104.8	73.62	50.81	35.41	28.85	43.57	90.56	268.5	1511	1952	221.6	9.352	3.192	3.027	3.031	3.370	4.200	4.473	4.909	5.315	5.270	5.885	5.941	6.017	5.716	4.997	4.937	4.678	4.336	4.159	4.095	3.878	3.794	3.840	4.124	4.327	3.858	3.688	3.681	3.531	3.804	3.920
445.0	614.9	698.8	828.8	1072	1265	1391	1422	1328	1144	965.9	890.8	856.1	848.9	778.8	694.3	635.7	602.5	573.2	559.2	532.0	496.8	474.3	479.1	481.5	474.2	466.3	468.6	454.2	422.4	398.9	382.4	337.2	265.9	220.7	154.7	108.0	78.14	55.30	38.98	28.60	25.34	31.47	69.09	409.4	1721	1841	168.8	5.810	3.067	3.022	3.430	4.185	4.391	4.763	5.477	5.470	6.027	6.067	6.200	5.501	4.964	4.868	4.412	4.230	4.046	4.262	3.716	3.711	3.621	3.976	3.937	3.468	3.515	3.741	3.576	3.845	3.847
450.0	519.0	972.8	859.0	1013	1228	1369	1446	1343	1129	931.5	837.0	797.6	782.1	721.9	646.5	598.6	572.0	549.9	530.2	499.8	459.2	437.5	435.7	441.3	434.5	428.5	428.3	421.6	394.8	376.0	358.2	314.4	243.7	206.1	171.3	121.9	83.89	59.22	42.84	31.38	24.09	20.03	25.24	99.50	458.0	1358	1741	646.4	12.63	3.349	3.226	4.065	4.500	4.890	5.094	5.474	6.058	6.078	6.132	5.607	5.340	4.961	4.388	3.945	3.751	3.715	3.520	3.377	3.521	3.613	3.603	3.254	3.430	3.502	3.462	3.697	3.678
455.0	369.2	1044	1158	972.2	1146	1334	1410	1326	1084	869.7	777.3	728.0	713.9	653.3	599.1	553.2	534.8	511.9	493.6	461.9	419.2	395.5	388.7	396.9	395.9	386.8	388.2	383.7	363.9	348.1	330.8	290.1	228.5	186.0	166.5	137.7	92.75	63.68	46.40	34.71	26.22	20.39	17.20	31.02	109.0	313.2	798.8	2073	879.0	15.83	3.717	4.010	4.371	4.918	5.063	5.102	6.090	6.068	6.191	5.677	5.131	4.962	4.168	3.952	3.449	3.243	3.193	2.954	3.210	3.388	3.237	3.434	3.306	3.244	3.265	3.444	3.477
460.0	298.7	811.9	1480	991.7	1114	1265	1351	1288	1042	821.5	724.2	674.4	658.4	607.4	557.8	519.9	499.5	478.2	458.2	434.7	387.5	359.2	353.6	360.5	358.1	356.1	355.3	352.3	340.6	327.1	309.0	272.5	217.9	179.7	151.3	137.2	105.6	67.80	49.08	36.81	27.60	21.78	16.98	16.51	32.07	76.70	194.4	1085	2047	179.0	11.90	4.269	4.541	4.734	5.032	5.177	5.808	5.701	5.710	5.476	5.201	4.595	4.017	3.961	3.338	3.149	3.075	2.893	2.907	3.089	2.912	3.162	3.026	3.032	2.969	3.110	3.302
465.0	268.2	589.4	1589	1269	1049	1198	1311	1218	999.0	766.4	670.6	628.9	599.0	560.8	519.6	485.6	471.8	452.3	428.8	402.9	354.5	330.2	323.2	327.3	327.2	326.1	325.1	325.1	313.8	302.9	288.7	252.7	207.6	169.6	140.7	124.1	108.3	75.05	50.29	38.41	29.67	22.85	18.10	15.01	15.63	24.29	49.47	276.3	1332	1439	160.5	9.578	4.643	4.744	4.936	5.250	5.263	5.787	5.554	5.310	4.858	4.169	3.887	3.511	3.030	3.058	2.886	2.534	2.734	2.865	2.688	2.831	2.883	2.954	2.802	2.835	3.014
470.0	256.7	432.7	1109	1794	1103	1099	1191	1114	908.5	705.5	604.7	554.3	535.8	501.9	469.6	434.7	420.6	400.3	384.3	353.6	311.1	286.8	281.6	287.9	286.1	285.2	284.0	285.1	279.0	269.1	255.8	227.6	189.2	156.6	130.2	108.6	95.62	81.40	56.90	39.67	29.73	23.88	19.03	15.51	13.27	13.35	17.56	67.46	334.8	910.8	1243	681.5	15.69	5.076	4.625	4.810	5.047	5.371	5.139	4.795	4.398	3.835	3.550	3.200	2.932	2.771	2.615	2.344	2.396	2.440	2.633	2.437	2.532	2.624	2.548	2.661	2.739
475.0	251.4	385.3	653.4	1714	1637	1000	1070	1002	813.3	632.9	531.7	492.6	472.7	437.9	412.8	383.8	370.2	349.0	340.9	310.8	267.7	245.4	242.4	245.8	246.7	245.1	247.4	245.3	244.4	236.4	225.9	201.9	169.5	141.8	119.9	98.06	82.59	74.79	63.73	43.64	31.48	24.60	20.46	16.25	13.64	12.05	11.07	21.23	79.79	208.4	448.1	1354	863.9	22.14	4.965	4.590	4.634	4.694	4.992	4.332	4.062	3.525	3.163	2.918	2.603	2.424	2.391	2.191	2.231	2.204	2.217	2.132	2.232	2.251	2.214	2.366	2.326
480.0	238.8	354.9	504.9	1199	2118	1054	973.5	922.7	752.8	579.3	494.3	450.3	424.4	397.2	373.7	352.7	339.1	316.8	309.5	279.8	243.4	222.2	219.7	220.4	218.8	221.6	224.1	223.9	220.9	217.7	204.9	184.2	155.3	133.4	110.8	92.13	76.90	65.37	62.64	50.69	33.31	25.47	21.03	17.49	14.64	12.35	10.31	11.14	23.41	51.29	106.7	564.7	1551	719.3	17.76	4.622	4.555	4.709	4.416	3.974	3.819	3.399	2.912	2.718	2.249	2.156	2.152	2.019	1.985	2.112	2.079	2.095	2.115	1.964	2.140	2.077	2.035
485.0	221.9	346.0	444.1	779.8	2150	1370	898.8	861.6	698.2	541.7	457.1	418.0	400.3	367.6	341.9	324.3	309.6	291.5	285.2	254.5	222.9	202.9	199.0	200.9	201.5	203.0	203.6	204.7	204.0	198.7	188.2	170.3	146.5	126.3	104.3	87.34	72.46	60.24	55.68	53.58	38.66	26.66	21.61	18.04	15.58	12.71	10.88	9.481	11.16	16.37	28.56	138.3	812.7	1535	203.4	12.72	4.554	4.506	4.153	3.707	3.709	2.974	2.846	2.453	2.179	1.927	2.253	1.871	1.898	1.938	1.764	1.941	1.783	1.977	2.109	1.858	1.993
490.0	192.7	340.0	392.4	559.9	1393	2039	974.7	756.9	612.5	491.9	413.1	380.6	359.8	329.2	304.9	290.3	275.2	260.3	252.4	227.7	200.5	181.2	176.6	177.7	178.7	179.4	182.5	183.2	183.2	178.5	170.2	152.4	132.9	114.4	97.31	83.08	68.09	55.83	48.53	47.19	43.33	30.98	22.76	18.82	16.04	13.62	11.89	9.944	8.949	9.047	11.19	35.22	197.3	683.8	1206	729.8	18.89	4.862	4.127	3.560	3.358	2.862	2.681	2.329	2.167	1.961	1.991	1.809	1.917	1.729	1.702	1.724	1.781	1.861	1.802	1.779	1.878
495.0	151.4	294.1	404.5	455.2	757.7	1936	1536	678.0	538.2	431.7	369.4	335.5	312.4	290.8	270.2	254.4	241.0	228.7	218.9	199.2	173.3	158.4	152.0	156.1	155.1	157.9	159.7	160.6	161.6	158.5	149.7	134.0	118.4	103.2	88.71	76.56	63.52	52.06	44.17	40.27	40.02	37.56	26.03	19.60	16.86	14.33	12.35	10.83	9.106	7.881	7.551	12.66	48.44	156.8	402.0	1273	1075	26.24	4.247	3.522	3.192	2.521	2.382	2.120	1.818	1.719	1.665	1.536	1.702	1.705	1.690	1.470	1.625	1.538	1.626	1.745	1.700
500.0	137.7	252.7	384.6	415.6	539.6	1302	2105	744.4	482.2	384.7	336.6	311.6	279.4	262.9	244.8	227.7	216.5	204.9	195.0	178.5	155.4	142.2	138.0	136.5	139.9	140.5	141.7	145.1	143.4	141.0	135.0	121.2	107.9	93.86	81.37	69.94	59.02	49.90	41.50	36.62	34.27	36.15	30.54	21.07	16.42	14.43	12.71	11.28	9.375	8.055	7.075	7.688	15.23	38.97	95.26	481.1	1522	831.1	21.50	3.554	2.880	2.506	2.172	1.964	1.753	1.693	1.621	1.436	1.513	1.623	1.501	1.509	1.356	1.426	1.411	1.403	1.445
505.0	127.2	209.0	344.9	406.2	467.9	763.5	2142	1095	433.6	349.3	300.7	278.6	255.0	237.7	218.1	205.5	192.8	184.7	172.1	160.1	136.0	127.1	124.2	123.1	125.2	126.5	127.1	128.1	128.7	126.5	121.9	111.2	97.78	86.26	75.12	63.84	55.96	45.93	39.70	34.10	30.59	31.24	31.83	23.42	17.53	14.92	12.84	11.21	9.587	8.308	7.444	6.737	7.956	12.91	25.33	114.9	668.0	1480	232.5	14.57	2.949	2.459	2.253	1.935	1.540	1.589	1.461	1.429	1.549	1.399	1.569	1.425	1.342	1.410	1.441	1.283	1.404
510.0	114.9	168.8	278.0	390.5	398.0	492.0	1331	1877	541.3	304.3	261.1	245.9	223.3	206.8	188.9	179.5	166.1	158.4	148.3	135.8	117.7	108.4	105.6	105.6	108.1	108.3	109.8	110.7	111.4	110.7	106.1	96.23	85.70	74.72	65.50	57.74	49.77	41.60	36.51	31.61	27.81	26.00	27.27	25.92	19.82	15.19	12.55	10.94	9.485	8.369	7.539	6.433	6.029	6.856	9.393	29.15	157.9	580.7	1000	643.4	18.73	2.973	2.028	1.833	1.559	1.513	1.290	1.410	1.322	1.236	1.309	1.171	1.237	1.239	1.273	1.154	1.220
515.0	96.36	140.6	214.6	360.0	364.3	376.6	610.7	1859	1178	276.2	233.7	210.9	196.8	178.8	160.9	150.2	139.5	131.3	123.6	112.4	101.9	91.72	89.23	91.60	92.50	92.62	91.54	95.69	95.62	94.54	90.07	82.89	73.12	65.28	57.67	50.53	44.48	38.18	32.60	28.68	25.20	23.20	21.88	23.96	22.41	16.20	12.45	10.46	9.497	8.348	7.474	6.913	5.856	5.558	5.811	9.795	38.27	132.4	291.9	957.9	884.7	26.77	2.416	1.675	1.560	1.423	1.157	1.275	1.060	1.147	1.051	1.057	1.070	1.059	1.066	0.929	1.076
520.0	77.53	123.4	187.6	292.4	356.6	319.2	397.7	1184	1896	360.9	208.6	190.4	174.1	158.5	141.8	131.1	123.3	117.4	109.0	98.91	89.49	81.69	80.52	81.28	79.80	81.71	82.62	83.96	84.01	84.12	78.86	73.29	64.90	58.89	50.97	45.17	39.54	34.66	30.47	26.24	23.39	20.97	19.25	20.17	21.64	18.68	13.19	10.61	9.444	8.029	7.264	6.862	5.980	5.331	4.900	5.344	11.54	32.60	68.39	339.2	1121	673.8	20.93	1.818	1.516	1.155	1.139	1.038	1.055	0.969	0.995	1.041	0.904	1.050	0.938	0.945	0.974
525.0	65.09	119.7	154.3	238.2	338.1	298.8	317.3	602.0	2101	749.2	190.3	174.6	155.9	143.2	129.6	116.8	109.5	103.9	96.57	88.32	78.21	71.08	69.83	71.05	71.45	72.62	75.30	73.89	74.00	73.82	71.77	65.58	58.83	52.32	46.89	40.91	35.96	31.20	27.79	24.99	21.83	19.34	17.25	16.98	18.91	19.18	15.03	10.62	9.196	7.995	7.033	6.383	5.840	5.346	4.614	4.327	5.358	9.988	17.95	79.91	465.1	1115	233.2	13.40	1.553	1.202	1.041	1.048	0.908	0.992	0.933	0.926	0.721	0.848	0.952	0.786	0.866
530.0	57.43	97.36	130.2	185.3	284.4	292.2	256.4	321.5	1241	1712	304.7	150.3	135.8	123.8	109.5	100.1	93.74	87.42	82.93	76.17	67.66	60.77	60.34	60.86	60.86	62.38	62.71	62.69	63.78	62.71	60.35	56.06	50.29	45.90	40.33	36.59	31.74	28.16	25.07	22.60	19.71	17.98	15.98	14.86	15.26	17.02	15.94	11.76	8.950	7.596	6.731	6.094	5.391	5.315	4.680	4.092	3.947	4.782	6.360	19.99	109.0	423.2	749.1	511.0	17.98	1.779	1.116	1.043	0.895	0.821	0.913	0.895	0.728	0.755	0.738	0.805	0.791
535.0	48.24	84.04	115.1	149.1	211.7	277.8	221.8	220.9	447.7	1809	981.2	135.3	115.9	103.3	91.97	85.72	79.94	75.07	67.77	64.79	57.15	51.62	51.39	51.13	51.69	52.09	52.26	53.28	54.10	52.95	50.50	46.73	42.98	38.63	35.08	30.95	27.11	24.49	22.05	19.95	18.54	15.76	14.28	13.08	12.76	12.98	14.03	13.02	9.122	7.036	6.460	5.566	4.871	4.829	4.628	4.265	3.636	3.768	3.595	6.451	26.15	95.91	209.4	701.2	665.3	25.69	1.641	1.062	0.805	0.851	0.748	0.795	0.654	0.687	0.589	0.705	0.745
540.0	46.93	70.35	96.39	131.4	164.0	243.1	218.3	182.9	216.0	1064	1786	183.5	103.3	89.71	79.43	73.43	69.30	62.99	59.45	55.72	49.05	45.11	44.57	44.01	44.35	44.69	45.38	45.83	46.83	46.33	43.87	41.24	36.71	33.82	30.37	27.37	24.10	21.79	20.31	17.59	16.01	14.42	12.87	11.84	11.15	10.93	11.34	12.27	10.12	7.148	5.785	5.193	4.435	4.232	3.958	4.115	3.517	3.202	2.753	3.415	7.453	22.76	48.55	238.9	816.5	244.2	19.20	1.190	0.850	0.852	0.692	0.642	0.646	0.664	0.557	0.669	0.629
545.0	36.56	62.97	96.81	110.8	140.9	204.0	217.8	163.4	148.8	430.4	2064	528.6	90.21	81.46	70.16	65.39	61.23	56.47	52.67	47.04	42.60	39.29	38.37	39.19	38.83	38.40	39.03	40.20	39.78	40.22	38.53	35.97	32.38	30.12	26.61	23.72	21.69	19.54	17.71	16.11	13.93	13.07	12.06	11.09	10.26	9.609	9.081	10.60	10.93	7.759	5.616	4.930	4.440	4.090	3.684	3.858	3.645	2.907	2.560	2.461	3.227	6.386	12.33	55.90	327.5	753.1	224.4	11.04	1.011	0.761	0.726	0.636	0.613	0.645	0.494	0.569	0.637
550.0	38.97	53.74	78.43	89.17	104.8	140.2	206.0	148.2	116.3	174.7	1108	1478	135.5	69.04	59.59	54.58	49.44	46.06	43.41	38.77	35.35	32.33	31.10	32.16	32.35	31.88	32.91	32.64	32.63	32.57	31.66	29.57	26.89	24.91	21.83	19.90	18.13	16.40	14.99	13.29	12.24	10.87	10.26	9.367	8.796	8.278	7.702	8.047	9.160	8.094	5.792	4.665	3.932	3.684	3.400	3.370	3.331	3.115	2.396	2.154	2.125	2.685	3.904	13.53	76.10	284.4	532.3	373.4	17.04	1.259	0.793	0.626	0.581	0.535	0.554	0.417	0.524
555.0	40.04	51.92	68.22	74.40	88.47	98.91	157.4	154.2	93.79	98.40	333.2	1620	660.5	60.06	49.45	43.85	40.86	37.35	33.68	30.19	29.05	26.15	25.62	25.73	25.73	26.38	25.70	26.22	26.46	25.63	25.12	23.92	21.85	20.07	18.06	15.73	14.59	13.55	12.16	10.73	10.11	9.277	8.429	7.793	7.226	7.074	6.496	6.252	6.450	7.070	6.453	4.539	3.397	3.041	2.957	2.861	2.647	2.758	2.621	2.100	1.691	1.855	1.875	3.920	18.06	64.34	146.5	468.5	451.6	24.60	0.941	0.672	0.617	0.559	0.486	0.398	0.382
560.0	37.48	55.19	58.92	59.71	72.01	76.77	110.8	156.8	87.33	77.58	126.3	905.8	1344	94.50	42.38	37.05	33.34	30.92	27.49	25.98	24.30	22.53	20.98	21.24	20.74	21.84	21.49	21.19	22.44	21.40	21.13	19.14	17.75	17.18	15.24	13.60	12.73	11.58	10.45	9.389	8.559	8.051	7.148	6.907	6.515	6.069	5.447	5.160	4.948	5.726	5.914	4.670	3.147	2.806	2.551	2.342	2.227	2.384	2.407	2.052	1.485	1.384	1.295	1.781	4.927	15.17	33.70	157.2	532.4	241.3	16.35	0.743	0.620	0.564	0.552	0.412	0.449
565.0	35.28	50.17	54.24	52.25	61.02	66.04	85.39	150.1	91.19	66.55	74.88	335.8	1674	316.7	36.69	31.33	28.82	26.58	23.88	21.53	20.15	18.83	17.73	18.29	18.26	18.23	18.54	17.99	18.86	18.68	17.84	16.21	15.54	14.31	13.58	11.69	10.70	9.644	8.873	8.101	7.725	6.867	6.030	5.933	5.510	5.193	4.738	4.294	4.112	4.442	5.074	4.830	3.306	2.484	2.272	2.341	2.067	1.983	2.028	2.248	1.531	1.408	1.167	1.231	1.968	4.167	8.331	36.42	206.2	506.8	198.0	7.490	0.602	0.542	0.457	0.376	0.465
570.0	29.91	46.49	47.20	48.43	50.79	53.84	62.65	105.9	114.8	61.96	59.68	120.8	920.7	1085	68.86	26.17	23.06	20.91	20.23	17.72	16.30	14.86	14.88	14.82	14.60	14.66	14.67	14.29	14.77	15.14	14.62	12.77	12.89	11.49	10.27	9.561	8.603	7.920	7.160	6.602	6.178	5.910	5.085	5.064	4.685	4.382	3.928	3.759	3.397	3.344	3.453	4.071	3.452	2.545	1.961	1.958	1.807	1.687	1.590	1.658	1.622	1.413	1.169	1.042	1.176	1.718	2.583	8.992	47.91	188.8	354.5	196.0	15.44	0.758	0.463	0.401	0.376
575.0	35.71	44.09	45.72	43.43	43.66	44.32	49.21	67.24	124.0	72.96	54.87	67.77	266.8	1266	413.8	23.60	19.42	17.14	15.60	14.58	12.87	12.13	11.30	12.33	11.73	12.12	11.15	11.34	12.26	12.20	11.30	10.53	10.24	8.932	8.052	7.466	6.560	6.425	5.912	5.166	5.057	4.565	4.200	3.853	3.745	3.493	3.257	3.156	2.924	2.565	2.496	2.869	3.159	2.913	1.928	1.724	1.534	1.347	1.425	1.228	1.522	1.645	1.130	0.981	1.041	1.161	1.311	2.736	11.41	42.77	97.20	289.5	241.2	20.41	0.558	0.437	0.283
580.0	38.39	43.04	47.36	41.38	38.79	37.87	43.58	49.66	101.8	95.72	56.00	57.85	96.63	723.5	927.5	38.14	16.25	14.92	13.37	12.26	10.69	10.21	9.469	9.689	9.895	9.860	9.332	9.905	10.16	10.25	9.692	8.177	8.336	7.549	6.909	6.445	5.506	5.531	5.112	4.657	4.422	3.909	3.817	3.618	3.195	3.260	2.957	2.685	2.479	2.276	2.074	2.118	2.565	2.799	2.103	1.586	1.364	1.364	1.197	1.208	1.154	1.362	1.382	0.980	0.940	0.901	1.000	1.242	3.124	10.13	22.46	99.21	332.0	198.3	12.44	0.480	0.363
585.0	37.64	43.30	48.64	37.84	36.00	35.16	38.41	41.59	74.97	113.6	60.18	55.57	58.01	259.3	1202	103.1	14.95	13.09	11.69	9.983	8.962	9.013	8.260	7.980	8.139	8.046	8.493	7.880	8.530	8.608	8.370	7.137	7.197	6.509	5.950	5.658	4.856	4.745	4.469	4.109	3.822	3.175	3.080	3.230	2.940	2.695	2.543	2.252	2.070	1.993	1.860	1.938	2.073	2.318	2.178	1.670	1.335	1.143	1.054	0.954	0.947	1.103	1.330	1.146	0.893	0.973	0.909	0.903	1.301	2.883	5.575	23.08	132.4	327.8	137.0	4.594	0.418
590.0	32.18	43.66	45.28	37.63	31.32	33.21	36.60	40.83	56.20	108.5	83.32	56.54	49.93	87.60	664.6	652.7	33.95	11.31	9.357	8.526	7.773	7.203	6.845	7.006	6.580	6.453	7.032	6.664	7.068	6.969	6.611	6.059	5.785	5.220	4.710	4.510	4.249	3.829	3.646	3.231	3.157	2.836	2.559	2.552	2.381	2.224	2.169	1.926	1.831	1.634	1.557	1.466	1.493	1.715	2.057	1.838	1.384	1.036	0.981	0.899	0.861	0.857	1.012	1.227	1.087	0.883	0.860	0.747	0.914	1.174	1.760	5.615	30.76	119.3	217.9	132.3	14.04
595.0	40.61	44.67	46.98	38.28	34.13	32.43	36.87	40.73	48.23	84.75	110.5	67.85	54.64	49.09	187.9	830.3	226.4	10.79	7.887	7.126	6.178	5.474	5.807	5.515	5.259	5.421	5.202	5.386	5.549	5.482	5.104	4.705	4.612	4.253	3.758	3.564	3.496	2.948	2.782	2.612	2.443	2.303	2.177	1.948	1.867	1.923	1.781	1.615	1.429	1.312	1.377	1.303	1.082	1.124	1.563	1.663	1.411	1.087	0.903	0.816	0.737	0.692	0.827	0.858	1.200	1.054	0.878	0.731	0.805	0.725	0.800	1.710	7.277	26.94	58.96	183.6	182.7
600.0	40.43	57.41	50.29	43.53	37.40	34.40	40.30	46.85	56.72	77.89	127.7	90.68	68.56	49.97	70.84	509.1	575.2	20.30	7.355	6.230	5.820	4.734	5.091	4.641	4.413	4.263	4.291	4.547	4.402	4.531	4.286	4.302	3.940	3.603	3.436	2.801	2.884	2.568	2.319	2.277	2.020	1.950	1.886	1.762	1.696	1.549	1.611	1.324	1.438	1.243	1.189	1.020	0.927	1.001	1.163	1.400	1.447	1.281	0.889	0.814	0.743	0.742	0.792	0.798	0.948	1.109	0.833	0.732	0.851	0.656	0.729	0.797	1.975	6.448	13.59	61.20	211.3
605.0	38.82	59.37	56.57	50.80	39.72	42.98	52.23	63.57	79.05	103.7	156.2	143.7	102.9	76.39	66.15	209.1	785.0	71.99	7.406	5.451	4.656	4.265	4.650	4.073	3.894	3.644	3.670	3.853	3.720	3.716	3.548	3.670	3.634	3.072	2.882	2.515	2.547	2.202	2.110	2.007	1.616	1.704	1.539	1.562	1.483	1.470	1.282	1.206	1.214	1.115	1.025	0.997	0.856	0.884	0.985	1.232	1.444	1.379	0.967	0.813	0.802	0.818	0.795	0.897	0.966	1.180	1.141	0.917	0.935	0.871	0.716	0.706	1.018	1.958	3.514	14.26	80.72
610.0	45.10	73.77	77.12	63.41	56.88	58.88	79.77	102.2	136.9	177.2	218.8	245.3	191.7	145.0	120.5	124.0	528.7	448.4	19.23	4.609	4.040	3.797	3.450	3.453	3.095	3.075	3.148	3.313	3.007	3.146	3.105	2.995	2.804	2.341	2.173	2.060	2.041	1.780	1.662	1.630	1.524	1.422	1.365	1.307	1.263	1.306	1.104	1.080	1.099	1.019	0.899	0.840	0.855	0.885	0.882	0.953	1.272	1.345	1.147	0.948	0.943	0.987	1.096	1.284	1.230	1.346	1.481	1.463	1.353	1.271	1.066	0.888	0.952	1.287	1.502	3.795	19.00
615.0	55.80	85.55	92.50	83.38	63.70	71.27	97.03	118.5	151.3	203.2	238.4	287.2	246.0	175.6	149.5	117.7	222.5	617.4	75.69	4.526	3.274	2.901	2.633	2.682	2.482	2.643	2.693	2.766	2.524	2.501	2.404	2.333	2.097	1.882	1.737	1.623	1.474	1.383	1.412	1.413	1.202	1.114	1.148	0.986	1.031	1.101	1.010	0.972	0.994	0.909	0.772	0.748	0.808	0.813	0.772	0.816	0.985	1.111	1.211	1.190	1.018	1.129	1.185	1.440	1.389	1.363	1.425	1.633	1.809	1.514	1.185	1.089	1.041	1.054	1.116	1.440	4.875
620.0	60.78	80.49	95.63	83.40	69.74	75.90	94.33	117.1	149.1	191.8	232.1	267.3	260.7	179.4	151.5	113.5	132.9	419.0	355.7	8.139	3.091	2.400	2.329	2.327	2.303	2.337	2.220	2.088	2.032	2.086	1.969	1.936	1.904	1.623	1.603	1.346	1.283	1.278	1.309	1.138	0.960	0.929	0.955	1.010	0.859	0.930	0.921	0.938	0.843	0.855	0.715	0.737	0.735	0.716	0.752	0.692	0.828	1.032	1.229	1.191	1.026	1.011	1.161	1.375	1.325	1.371	1.438	1.501	1.733	1.314	1.198	1.032	0.967	1.006	0.990	0.858	1.697
625.0	62.05	90.48	106.6	89.79	74.46	78.77	95.40	122.2	152.1	188.7	217.4	253.1	261.3	187.4	150.6	112.4	108.8	190.0	534.2	42.13	2.674	2.437	2.112	2.045	1.798	2.075	1.877	1.909	1.946	1.830	1.853	1.806	1.593	1.420	1.345	1.268	1.041	1.071	1.048	0.940	0.832	0.894	0.903	0.847	0.759	0.761	0.765	0.836	0.769	0.704	0.698	0.766	0.668	0.671	0.726	0.697	0.821	0.834	1.077	1.268	0.969	0.980	1.007	1.115	1.145	1.307	1.402	1.447	1.577	1.563	1.336	1.042	1.074	1.019	0.955	0.848	1.003
630.0	54.73	94.15	115.0	94.60	75.86	81.69	98.51	119.1	139.7	178.9	210.0	242.2	248.1	203.3	150.8	109.7	104.2	87.64	352.0	276.3	7.228	2.052	1.882	1.712	1.592	1.848	1.479	1.564	1.630	1.571	1.586	1.527	1.271	1.278	1.043	1.061	0.879	0.913	0.848	0.868	0.802	0.738	0.729	0.709	0.662	0.655	0.738	0.835	0.735	0.655	0.683	0.702	0.659	0.611	0.656	0.641	0.757	0.736	0.859	1.071	1.016	0.974	0.955	1.124	1.097	1.313	1.216	1.444	1.367	1.512	1.438	1.218	1.103	1.113	0.914	0.786	0.770
635.0	59.49	99.09	120.6	97.03	82.25	79.96	101.5	119.5	138.9	170.3	207.4	235.6	234.8	211.1	156.6	112.2	100.1	63.78	105.5	431.6	55.89	2.145	1.770	1.606	1.345	1.364	1.207	1.207	1.294	1.209	1.252	1.358	1.043	0.995	0.877	0.910	0.788	0.803	0.757	0.695	0.721	0.562	0.578	0.662	0.630	0.643	0.620	0.728	0.747	0.624	0.599	0.647	0.525	0.568	0.561	0.603	0.672	0.620	0.761	1.022	1.002	1.023	0.974	1.082	1.153	1.219	1.136	1.206	1.259	1.296	1.295	1.289	1.200	1.083	0.961	0.715	0.739
640.0	66.10	101.3	122.1	96.89	82.64	82.38	93.84	116.6	134.2	169.2	201.9	230.0	228.2	207.1	165.8	113.0	100.5	59.00	35.06	302.2	236.1	3.634	1.537	1.256	1.201	1.405	1.299	1.009	1.074	1.204	1.212	1.166	0.973	0.857	0.788	0.787	0.673	0.695	0.592	0.618	0.549	0.488	0.492	0.504	0.545	0.577	0.554	0.638	0.568	0.687	0.492	0.621	0.552	0.581	0.550	0.533	0.720	0.682	0.676	0.827	0.908	1.016	1.002	0.934	1.023	1.122	1.109	1.195	1.287	1.231	1.254	1.256	1.295	1.240	0.932	0.731	0.686
645.0	73.53	98.63	124.1	100.4	81.57	81.50	93.85	112.4	128.9	155.8	189.9	219.8	213.7	195.2	167.4	109.4	98.27	55.84	18.57	123.9	379.6	24.80	1.598	1.317	1.220	1.026	1.174	1.135	0.912	0.972	1.002	1.019	0.807	1.021	0.779	0.736	0.774	0.649	0.535	0.530	0.529	0.454	0.486	0.495	0.484	0.493	0.536	0.601	0.641	0.546	0.440	0.658	0.494	0.543	0.571	0.525	0.615	0.551	0.682	0.724	0.785	0.918	0.976	0.976	1.120	0.985	1.126	1.100	1.186	1.178	1.182	1.048	1.217	1.162	0.900	0.752	0.736
650.0	74.61	104.9	120.5	102.7	81.22	72.40	91.51	104.3	114.4	145.7	172.8	197.1	196.6	179.5	158.9	104.6	90.53	50.89	14.48	36.60	352.6	66.25	1.885	1.303	1.210	0.938	1.020	0.980	0.825	0.950	0.840	0.764	0.798	0.830	0.743	0.796	0.669	0.711	0.484	0.526	0.410	0.354	0.489	0.504	0.405	0.434	0.541	0.594	0.551	0.548	0.461	0.585	0.541	0.508	0.509	0.532	0.582	0.595	0.667	0.744	0.715	0.710	0.860	0.962	1.054	0.972	1.080	1.023	1.123	1.199	1.042	1.066	1.103	1.089	0.957	0.731	0.640
