Sample:	'1
File name:	潍坊中远重工科技出水-8倍.FD3
Run date:	'09:59:02, 04/03/2025
Operator:	Administrator
Comment:	'

Instrument
Model:	F-2700 FL Spectrophotometer
Serial number:	23B8-004
ROM Version:	4J14000 07

Instrument parameters
Measurement type:	3-D scan
Data mode:	Fluorescence
EX  Start WL:	220.0 nm
EX  End WL:	600.0 nm
EX Sampling interval:	5.0 nm
EM  Start WL:	230.0 nm
EM  End WL:	650.0 nm
EM Sampling interval:	5.0 nm
Scan speed:	12000 nm/min
EX Slit:	5.0 nm
EM Slit:	5.0 nm
PMT Voltage:	700 V
Response:	Auto 
Corrected spectra:	Off
Contour interval:	50.000

Peak integration
Integration method:	Rectangular
Sensitivity:	1
Threshold:	1.000

Peaks
No.	ApexEX/EM(nm)	Height(Data)
1	225.0/305.0	8523
2	225.0/420.0	193.9
3	225.0/490.0	211.7
4	225.0/595.0	567.1
5	230.0/505.0	191.1
6	235.0/255.0	406.6
7	235.0/515.0	164.4
8	240.0/265.0	451.5
9	240.0/525.0	154.9
10	245.0/270.0	455.0
11	245.0/540.0	139.1
12	250.0/275.0	575.5
13	250.0/550.0	122.4
14	255.0/565.0	120.9
15	260.0/575.0	163.8
16	270.0/300.0	4076
17	270.0/415.0	147.0
18	270.0/600.0	299.4
19	275.0/305.0	4276
20	275.0/610.0	270.4
21	300.0/335.0	375.2
22	305.0/345.0	325.5
23	310.0/350.0	257.3
24	315.0/355.0	243.2
25	320.0/360.0	230.1
26	325.0/370.0	186.1
27	330.0/375.0	176.8
28	335.0/380.0	183.5
29	335.0/415.0	112.8
30	340.0/385.0	152.4
31	345.0/395.0	126.7
32	350.0/400.0	136.9
33	355.0/405.0	130.4
34	365.0/420.0	107.2
35	370.0/425.0	96.10
36	375.0/430.0	78.83
37	380.0/440.0	66.71
38	385.0/445.0	60.20
39	395.0/460.0	41.65
40	400.0/305.0	10.88
41	400.0/465.0	36.26
42	405.0/470.0	28.06
43	410.0/480.0	24.11
44	415.0/485.0	21.26
45	420.0/490.0	17.62
46	425.0/500.0	15.34
47	430.0/505.0	13.95
48	435.0/510.0	11.08
49	440.0/520.0	10.05
50	445.0/525.0	8.804
51	455.0/540.0	6.195
52	460.0/305.0	21.51
53	465.0/555.0	3.456
54	470.0/560.0	2.843
55	475.0/260.0	1.889
56	475.0/570.0	2.284
57	480.0/575.0	1.990
58	485.0/265.0	2.337
59	495.0/270.0	2.074
60	505.0/275.0	3.294
61	510.0/280.0	4.042
62	545.0/300.0	18.70
63	550.0/305.0	19.52

Data points
	220.0	225.0	230.0	235.0	240.0	245.0	250.0	255.0	260.0	265.0	270.0	275.0	280.0	285.0	290.0	295.0	300.0	305.0	310.0	315.0	320.0	325.0	330.0	335.0	340.0	345.0	350.0	355.0	360.0	365.0	370.0	375.0	380.0	385.0	390.0	395.0	400.0	405.0	410.0	415.0	420.0	425.0	430.0	435.0	440.0	445.0	450.0	455.0	460.0	465.0	470.0	475.0	480.0	485.0	490.0	495.0	500.0	505.0	510.0	515.0	520.0	525.0	530.0	535.0	540.0	545.0	550.0	555.0	560.0	565.0	570.0	575.0	580.0	585.0	590.0	595.0	600.0
230.0	65.13	816.8	2120	711.5	23.79	2.695	2.256	1.967	1.839	2.038	1.771	1.955	1.659	1.029	0.658	0.566	0.499	0.451	0.416	0.402	0.374	0.289	0.265	0.425	0.238	0.192	0.233	0.201	0.214	0.160	0.156	0.214	0.168	0.148	0.144	0.136	0.149	0.159	0.140	0.127	0.269	0.504	0.523	0.287	0.110	0.163	0.902	4.119	6.288	4.212	1.471	0.239	0.087	0.066	0.070	0.075	0.065	0.092	0.089	0.081	0.072	0.062	0.064	0.059	0.069	0.081	0.068	0.075	0.062	0.073	0.061	0.070	0.062	0.064	0.060	0.054	0.067
235.0	193.0	250.8	1213	2620	514.0	29.57	3.141	3.039	2.561	2.208	1.933	1.908	1.260	0.937	1.060	0.694	0.539	0.381	0.375	0.287	0.425	0.261	0.304	0.515	0.234	0.238	0.180	0.253	0.169	0.131	0.255	0.212	0.206	0.206	0.145	0.171	0.140	0.131	0.134	0.109	0.175	0.262	0.420	0.595	0.457	0.320	0.331	1.107	2.466	4.381	6.008	5.367	2.241	0.297	0.078	0.107	0.089	0.093	0.081	0.106	0.054	0.078	0.066	0.063	0.067	0.071	0.088	0.083	0.109	0.067	0.063	0.051	0.045	0.093	0.082	0.075	0.045
240.0	235.4	198.2	360.6	2410	2015	374.1	12.63	3.141	2.731	2.102	2.009	2.211	1.290	1.194	1.171	0.709	0.624	0.427	0.262	0.373	0.310	0.397	0.213	0.437	0.179	0.247	0.180	0.287	0.182	0.183	0.163	0.200	0.193	0.154	0.161	0.144	0.100	0.154	0.190	0.148	0.149	0.140	0.228	0.437	0.545	0.737	0.460	0.421	0.652	1.380	3.627	7.681	8.495	5.520	1.495	0.245	0.087	0.103	0.097	0.080	0.083	0.072	0.066	0.089	0.058	0.075	0.076	0.098	0.089	0.079	0.059	0.066	0.059	0.088	0.072	0.071	0.051
245.0	161.9	298.8	167.4	814.5	2177	1944	248.9	7.465	3.303	2.829	2.670	2.948	1.765	1.671	0.862	0.787	0.613	0.492	0.312	0.398	0.309	0.347	0.341	0.412	0.214	0.261	0.186	0.281	0.124	0.128	0.164	0.180	0.171	0.147	0.169	0.156	0.093	0.166	0.174	0.150	0.146	0.111	0.181	0.189	0.327	0.771	0.882	0.710	0.433	0.430	0.979	2.831	6.720	11.37	9.046	4.093	0.907	0.133	0.168	0.077	0.081	0.081	0.087	0.070	0.064	0.067	0.051	0.094	0.096	0.070	0.079	0.078	0.050	0.054	0.074	0.088	0.070
250.0	57.14	205.4	308.8	299.2	718.2	1979	2242	862.1	29.88	4.230	3.419	3.089	2.080	1.638	0.978	0.790	0.585	0.490	0.449	0.419	0.503	0.375	0.364	0.502	0.267	0.270	0.251	0.280	0.174	0.203	0.207	0.276	0.207	0.177	0.152	0.136	0.119	0.174	0.146	0.146	0.170	0.126	0.138	0.167	0.169	0.300	0.508	0.869	1.052	0.854	0.549	0.778	1.768	4.000	6.425	9.241	11.97	9.516	4.212	1.002	0.118	0.122	0.098	0.084	0.079	0.078	0.072	0.078	0.087	0.082	0.068	0.085	0.047	0.066	0.088	0.068	0.064
255.0	24.75	60.43	234.6	406.6	260.5	518.3	1922	4179	293.2	24.20	5.438	4.101	2.829	2.242	1.151	1.131	0.702	0.592	0.681	0.458	0.467	0.358	0.331	0.589	0.239	0.257	0.330	0.336	0.296	0.198	0.215	0.311	0.168	0.150	0.166	0.122	0.184	0.135	0.110	0.102	0.165	0.154	0.136	0.178	0.138	0.217	0.209	0.313	0.504	1.117	1.378	1.311	0.797	1.033	1.545	2.420	5.373	12.49	17.66	14.99	5.939	0.749	0.126	0.112	0.088	0.082	0.076	0.108	0.095	0.090	0.070	0.135	0.043	0.098	0.095	0.075	0.071
260.0	22.97	28.09	88.93	366.4	354.5	169.2	605.2	3818	2357	236.4	11.16	5.932	2.815	2.340	1.405	1.016	0.798	0.828	0.658	0.593	0.391	0.580	0.301	0.703	0.295	0.283	0.320	0.315	0.293	0.243	0.191	0.244	0.170	0.156	0.155	0.172	0.179	0.161	0.089	0.184	0.166	0.142	0.152	0.142	0.116	0.153	0.185	0.177	0.220	0.490	0.914	1.889	1.662	0.992	0.557	0.668	1.386	3.602	9.107	17.83	21.61	13.10	4.024	0.397	0.095	0.099	0.095	0.097	0.095	0.092	0.082	0.114	0.045	0.109	0.088	0.094	0.058
265.0	21.89	17.57	30.99	170.9	451.5	249.4	166.0	1357	3691	2060	162.3	8.237	4.059	2.760	1.836	1.245	0.937	0.902	0.699	0.581	0.470	0.491	0.419	0.713	0.443	0.239	0.311	0.399	0.289	0.275	0.125	0.302	0.157	0.176	0.153	0.168	0.187	0.150	0.195	0.116	0.309	0.170	0.136	0.144	0.130	0.177	0.158	0.129	0.150	0.233	0.369	0.952	1.875	2.337	1.004	0.478	0.436	0.955	2.328	5.977	14.36	22.62	22.65	10.16	1.797	0.208	0.105	0.083	0.077	0.104	0.081	0.090	0.067	0.091	0.109	0.095	0.084
270.0	27.57	31.30	23.73	55.55	217.3	455.0	271.5	350.5	1273	3649	3409	659.0	24.80	4.674	2.784	1.761	1.200	1.088	0.831	0.720	0.595	0.589	0.437	0.953	0.396	0.244	0.264	0.329	0.297	0.279	0.219	0.344	0.229	0.209	0.217	0.211	0.195	0.183	0.169	0.170	0.192	0.160	0.171	0.165	0.176	0.177	0.179	0.129	0.146	0.168	0.174	0.331	0.708	1.395	1.832	2.074	1.515	0.768	0.731	1.547	3.585	7.243	13.35	19.60	20.43	16.35	8.303	1.868	0.230	0.114	0.106	0.101	0.109	0.133	0.100	0.107	0.087
275.0	80.00	84.16	65.38	43.11	66.63	214.8	575.5	321.6	327.0	984.0	3376	6394	803.0	17.78	4.267	2.475	2.088	1.497	1.152	0.867	0.733	0.644	0.583	0.954	0.435	0.302	0.326	0.293	0.435	0.320	0.230	0.304	0.338	0.270	0.279	0.319	0.302	0.246	0.304	0.280	0.233	0.251	0.244	0.268	0.218	0.325	0.295	0.282	0.256	0.211	0.175	0.205	0.273	0.443	0.675	1.116	2.432	3.294	1.880	0.719	1.049	1.859	3.240	4.852	7.067	15.92	27.43	25.72	12.12	1.757	0.215	0.120	0.134	0.165	0.104	0.094	0.071
280.0	316.3	355.3	292.9	147.5	80.09	94.27	401.3	659.2	257.5	354.7	1180	6115	4788	135.7	10.77	3.663	2.498	1.779	1.151	1.084	0.818	0.615	0.623	1.221	0.335	0.368	0.355	0.321	0.406	0.351	0.336	0.365	0.343	0.518	0.636	0.717	0.603	0.541	0.475	0.476	0.475	0.481	0.526	0.631	0.568	0.711	0.896	0.834	0.786	0.679	0.414	0.457	0.357	0.288	0.353	0.468	1.057	2.598	4.042	2.781	1.345	0.837	1.344	1.749	2.346	4.922	11.27	23.07	31.79	22.45	7.624	0.879	0.216	0.193	0.200	0.179	0.129
285.0	1119	1298	1049	656.5	295.7	146.0	238.1	750.7	754.4	334.5	810.8	2533	6145	3739	94.12	6.956	3.723	2.332	1.699	1.373	1.003	0.886	0.628	1.380	0.371	0.615	0.454	0.429	0.451	0.369	0.371	0.509	0.680	1.159	1.452	1.855	1.879	1.659	1.337	1.334	1.188	1.173	1.420	1.787	2.055	2.456	2.951	3.317	3.129	2.641	1.945	1.716	1.166	0.784	0.607	0.458	0.781	1.253	2.681	4.497	4.463	2.801	2.212	2.457	2.571	3.432	4.915	8.365	16.99	28.89	31.50	18.46	4.494	0.478	0.279	0.251	0.152
290.0	3202	3976	3721	2314	929.6	424.1	376.2	705.7	1383	1633	1665	2128	3094	4861	2879	364.8	12.78	3.582	2.209	2.002	1.522	1.308	0.812	1.609	0.663	0.610	0.508	0.555	0.593	0.497	0.442	0.846	1.258	2.783	4.037	5.088	5.313	4.792	3.848	3.350	3.362	3.309	3.933	4.921	5.771	7.027	8.086	9.674	9.807	7.891	6.405	5.331	3.490	2.220	1.721	1.333	1.394	1.701	2.521	3.551	5.257	6.809	7.593	7.360	7.183	7.567	8.056	8.586	10.04	13.53	17.75	22.41	23.97	23.87	12.63	3.628	0.603
295.0	5367	6588	6390	4039	1687	732.0	611.3	904.9	1561	2678	3208	2944	2633	2041	2982	4195	95.27	9.272	3.321	2.900	2.002	1.447	0.979	2.183	0.876	0.738	0.690	0.682	0.686	0.601	0.599	0.961	2.022	4.309	6.556	7.814	8.175	8.106	6.376	5.314	5.242	5.687	6.593	7.473	9.923	11.78	13.35	16.44	16.70	13.91	11.09	9.070	6.113	4.332	2.732	2.228	2.190	2.650	3.237	4.198	5.448	7.166	8.954	12.77	14.63	13.60	12.84	12.26	11.74	11.93	11.20	9.442	8.407	14.08	26.10	29.87	17.34
300.0	6384	7900	7745	4958	2114	930.3	752.8	1053	1726	2808	4076	3683	2842	1474	1043	3879	3332	76.49	5.808	3.561	2.370	1.801	1.430	2.367	0.921	0.861	0.721	0.876	0.631	0.698	0.802	1.307	2.431	5.341	7.845	9.766	10.43	9.991	7.550	6.626	6.911	7.142	7.970	8.825	11.84	14.61	16.91	20.07	20.39	17.01	13.64	11.52	7.639	5.084	3.506	2.592	2.846	3.097	3.874	4.534	6.364	7.910	9.653	12.70	16.04	18.70	17.71	15.41	13.93	13.25	11.13	7.072	4.259	4.525	8.602	18.32	30.11
305.0	6653	8523	8295	5316	2311	998.9	818.0	1127	1802	2757	4027	4276	3053	1406	443.8	1314	4177	2496	53.64	4.626	2.742	2.273	1.614	2.748	1.122	0.884	0.819	0.861	0.631	0.744	0.795	1.209	2.530	5.681	8.675	10.41	10.88	10.35	8.129	7.075	7.224	7.515	8.214	9.832	12.14	15.68	18.26	21.10	21.51	18.70	14.76	12.55	7.957	5.412	3.643	2.854	3.057	3.269	3.901	4.923	6.617	8.123	9.940	12.02	14.92	17.89	19.52	18.84	15.38	13.96	11.13	6.705	3.563	2.300	2.818	5.083	11.14
310.0	6265	7887	7754	5009	2215	986.0	789.4	1074	1700	2551	3461	3897	3250	1405	312.2	352.6	1327	3070	2132	264.4	10.01	3.020	2.013	3.319	1.322	0.968	0.876	0.856	0.799	0.803	0.716	1.295	2.410	5.360	8.086	9.658	10.39	9.625	7.750	7.135	6.651	6.984	8.211	9.553	11.70	14.75	16.71	19.78	20.15	17.43	13.84	11.81	7.996	5.117	3.801	2.995	3.111	3.284	3.950	4.973	6.195	7.667	9.790	11.20	13.01	15.23	16.15	16.87	16.46	14.84	11.57	6.502	3.138	1.880	1.521	1.864	3.093
315.0	5167	6703	6524	4306	1896	866.4	692.4	934.1	1452	2134	2824	3009	2727	1582	316.2	139.5	331.8	765.1	2184	3813	356.7	8.469	2.809	4.336	1.462	1.136	0.984	0.994	0.912	0.739	0.678	1.213	2.118	4.687	6.877	8.354	8.953	8.096	6.286	6.380	5.865	6.013	6.907	8.071	9.893	12.04	14.05	17.10	16.72	15.10	12.07	9.888	6.752	4.530	3.400	2.602	2.888	3.014	3.298	4.050	5.462	6.411	7.999	10.03	11.28	12.61	13.14	13.00	12.20	12.35	11.65	8.049	3.847	1.714	1.155	1.110	1.277
320.0	4468	5527	5334	3595	1605	743.4	602.0	798.6	1206	1797	2343	2446	2115	1450	506.4	105.9	111.3	196.7	636.4	3400	2864	61.43	4.269	5.783	1.599	1.316	1.096	0.894	0.879	0.694	0.646	1.360	1.725	3.960	5.916	7.040	7.165	6.872	5.693	5.149	4.909	5.405	5.929	6.956	8.264	10.57	11.86	14.17	13.94	12.29	9.925	8.649	5.691	4.089	2.870	2.207	2.433	2.482	2.981	3.617	4.642	5.527	6.725	8.292	9.230	9.998	10.42	10.53	9.840	9.449	8.903	7.242	5.321	3.055	1.437	0.833	0.817
325.0	3684	4655	4488	2910	1328	629.2	517.2	667.5	1021	1476	1925	1987	1673	1044	672.9	203.0	68.15	71.81	163.7	1086	3364	2419	44.92	8.437	2.103	1.464	1.477	0.767	0.809	0.938	0.585	1.260	1.597	3.004	4.906	6.138	6.083	5.893	4.752	4.292	4.015	4.399	4.882	5.772	6.518	8.207	9.837	11.23	11.69	9.873	8.027	6.988	4.360	3.538	2.352	2.014	2.095	2.199	2.720	3.268	3.859	4.516	5.483	6.811	7.752	8.219	8.816	8.957	8.106	7.829	6.732	4.750	4.100	4.197	2.804	1.603	0.892
330.0	2777	3401	3351	2193	1028	509.2	419.4	532.4	785.1	1133	1463	1505	1258	710.7	430.3	406.2	164.0	53.60	60.86	264.3	1041	2731	1625	1315	9.351	1.894	1.576	1.081	0.952	0.932	0.697	1.261	1.263	2.658	3.745	4.425	4.852	4.614	3.549	3.213	3.259	3.412	3.530	4.391	5.084	6.260	7.436	8.800	8.656	7.678	6.041	5.321	3.413	2.535	1.822	1.658	1.673	1.708	2.160	2.524	2.968	3.566	4.268	5.202	5.799	6.422	6.653	6.564	6.086	5.744	5.199	3.468	2.400	2.224	2.548	2.669	2.458
335.0	2021	2415	2405	1610	769.3	398.1	332.9	422.6	582.7	829.0	1057	1098	926.8	524.4	248.9	267.3	375.2	93.39	44.86	81.93	251.8	673.2	1578	9970	319.5	7.026	1.925	1.570	1.173	0.959	0.837	1.304	1.174	1.960	2.771	3.060	3.241	3.289	2.937	2.415	2.423	2.671	2.807	3.441	3.909	4.577	5.158	6.130	6.397	5.493	4.509	3.949	2.723	2.097	1.521	1.352	1.330	1.519	1.767	1.835	2.114	2.805	3.168	3.701	4.233	4.652	4.626	4.655	4.419	4.219	3.825	2.562	1.636	1.357	1.256	1.457	2.089
340.0	1547	1896	1847	1248	640.0	342.4	294.2	355.9	472.7	648.6	829.9	865.7	732.3	428.7	200.2	155.9	310.8	280.3	69.08	45.23	79.55	169.8	452.1	7904	2120	52.81	3.905	1.873	1.359	0.989	1.036	1.596	0.990	1.429	2.331	2.421	2.486	2.651	2.150	1.942	1.962	2.034	2.198	2.549	3.153	3.691	3.970	4.957	4.869	4.262	3.746	3.114	2.417	1.683	1.436	1.120	1.139	1.276	1.440	1.577	1.938	2.196	2.421	2.832	3.264	3.666	3.648	3.753	3.642	3.290	2.854	2.105	1.285	1.161	0.924	0.944	1.075
345.0	1263	1482	1485	999.9	513.4	300.3	263.4	303.6	387.4	517.7	659.9	685.8	588.8	361.2	178.1	122.4	168.6	325.5	180.1	47.63	42.34	58.77	117.6	2350	2284	1650	44.10	2.665	1.643	1.201	1.139	1.822	1.030	1.155	1.932	2.033	2.220	2.129	1.748	1.612	1.428	1.516	1.777	1.942	2.709	2.826	3.192	3.879	4.055	3.391	2.832	2.666	1.897	1.331	1.357	1.038	1.098	1.082	1.376	1.272	1.594	1.853	2.077	2.476	2.706	2.775	2.987	3.083	2.847	2.916	2.420	1.757	1.174	1.071	0.932	0.902	0.849
350.0	915.3	1073	1085	746.8	423.7	261.4	226.0	252.5	304.7	403.1	499.9	510.9	447.5	300.6	164.9	116.6	110.0	174.5	257.3	142.6	49.27	37.72	45.82	544.4	688.4	1618	1874	209.0	11.74	1.464	1.198	2.228	0.914	1.026	1.386	1.580	1.675	1.674	1.409	1.229	1.070	1.271	1.405	1.531	1.852	2.071	2.344	2.841	2.926	2.601	2.188	1.992	1.594	1.192	1.112	0.866	1.019	0.909	1.036	1.071	1.285	1.365	1.736	1.814	1.955	2.166	2.203	2.295	2.319	2.226	1.992	1.572	1.075	0.969	0.888	0.788	0.748
355.0	687.9	827.8	798.4	570.4	339.7	234.5	197.6	218.3	244.9	314.2	374.2	386.2	347.2	245.2	155.6	115.4	98.32	102.4	144.5	243.2	136.4	44.94	34.54	143.2	167.5	390.1	1319	2076	340.5	9.406	1.707	3.186	0.935	1.136	1.208	1.184	1.362	1.275	1.067	0.975	0.957	0.934	1.130	1.227	1.475	1.585	1.734	2.040	2.020	1.978	1.670	1.563	1.255	1.100	0.928	0.708	0.919	0.805	0.820	1.057	1.036	1.156	1.425	1.550	1.457	1.761	1.802	1.898	1.727	1.752	1.519	1.269	0.904	1.080	0.783	0.734	0.721
360.0	552.1	665.5	621.4	479.8	304.5	217.8	184.2	199.5	217.0	265.0	309.2	321.3	292.0	217.4	147.9	116.0	99.70	88.92	93.30	176.9	230.1	70.41	36.63	55.33	53.63	99.43	354.2	1547	2300	52.70	4.315	4.260	1.108	0.868	1.115	0.927	1.131	1.170	0.931	0.830	0.840	0.726	0.979	0.967	1.221	1.329	1.464	1.653	1.600	1.572	1.251	1.295	1.135	0.902	0.850	0.856	0.801	0.822	0.819	0.988	0.856	0.931	1.127	1.352	1.320	1.553	1.430	1.407	1.444	1.439	1.413	1.015	0.992	0.953	0.853	0.578	0.688
365.0	488.5	552.5	543.7	418.1	277.4	208.3	179.0	185.0	200.6	229.8	267.7	275.3	254.1	198.7	142.2	115.3	101.1	89.49	82.05	107.5	210.3	174.7	54.85	38.11	31.23	36.57	91.30	454.1	2130	1541	45.18	8.034	1.466	1.061	1.120	1.104	0.981	0.866	0.822	0.793	0.722	0.807	0.905	0.824	0.982	1.092	1.260	1.498	1.383	1.285	1.216	1.150	0.961	0.849	0.797	0.805	0.704	0.749	0.800	0.782	0.900	0.905	0.956	1.053	1.219	1.135	1.341	1.326	1.183	1.275	1.094	0.984	0.887	0.843	0.734	0.726	0.772
370.0	392.6	455.1	422.3	342.6	256.0	196.3	171.2	174.2	179.8	202.0	231.2	233.3	215.6	180.1	137.9	117.4	104.2	94.78	85.55	84.41	119.3	186.1	146.6	51.90	31.02	26.47	34.20	112.4	601.2	1287	1563	1277	12.52	1.457	1.147	1.016	0.973	0.892	0.828	0.750	0.683	0.725	0.744	0.779	0.869	0.961	0.981	1.206	1.148	1.056	0.939	0.995	0.926	0.803	0.741	0.740	0.730	0.790	0.827	0.737	0.767	0.845	0.966	0.986	0.991	1.086	1.121	1.186	1.047	1.095	0.990	0.949	0.737	0.744	0.674	0.690	0.785
375.0	318.8	362.2	344.7	294.5	238.0	193.6	176.7	160.2	163.2	179.0	195.3	201.9	191.1	162.8	132.6	117.0	107.1	100.1	89.84	82.36	85.41	107.2	176.8	136.8	44.46	28.56	25.61	38.22	144.6	305.0	941.8	6775	306.1	11.86	1.334	1.234	0.995	0.778	0.841	0.585	0.591	0.650	0.713	0.734	0.739	0.884	0.845	0.906	0.956	0.830	0.913	0.913	0.890	0.854	0.757	0.786	0.767	0.884	0.737	0.728	0.739	0.814	0.782	0.888	0.834	1.001	0.912	0.972	0.905	1.010	0.872	0.806	0.761	0.713	0.653	0.754	0.832
380.0	298.6	327.1	311.4	273.9	223.4	186.3	166.6	159.0	160.2	170.5	181.0	182.3	174.3	150.0	127.3	118.6	106.6	102.7	92.66	86.12	79.79	79.34	121.5	183.5	90.91	34.15	25.76	24.41	44.23	77.66	244.9	4339	1715	227.2	4.379	1.343	1.059	0.892	0.655	0.586	0.642	0.645	0.672	0.751	0.650	0.820	0.750	0.803	0.963	0.721	0.762	0.802	0.768	0.807	0.774	0.671	0.745	0.832	0.721	0.731	0.651	0.684	0.670	0.862	0.845	0.852	0.900	0.883	0.887	0.852	0.805	0.821	0.666	0.748	0.769	0.719	0.656
385.0	286.6	291.7	267.3	263.4	217.0	184.4	163.1	162.1	151.8	161.1	169.6	169.2	163.8	143.5	128.9	116.0	107.4	103.3	93.89	90.36	79.60	74.66	82.58	147.0	152.4	53.69	29.62	23.45	23.99	28.94	63.58	1163	1410	1277	38.60	2.451	1.167	0.885	0.642	0.595	0.671	0.614	0.648	0.625	0.654	0.605	0.725	0.751	0.770	0.719	0.725	0.870	0.809	0.769	0.808	0.711	0.757	0.761	0.713	0.676	0.746	0.801	0.726	0.835	0.785	0.779	0.878	0.864	0.779	0.805	0.830	0.755	0.672	0.807	0.726	0.654	0.688
390.0	237.5	254.3	258.4	234.9	205.3	182.2	161.7	158.3	148.6	157.3	158.1	160.0	153.1	139.7	125.4	117.0	106.9	105.7	97.97	92.14	84.00	76.61	74.09	91.18	136.9	125.4	48.34	29.66	24.47	21.36	25.16	271.2	381.5	928.3	1113	160.0	11.25	1.156	0.972	0.703	0.705	0.631	0.680	0.679	0.554	0.688	0.656	0.733	0.718	0.691	0.667	0.806	0.728	0.701	0.721	0.704	0.721	0.728	0.740	0.722	0.716	0.728	0.754	0.804	0.756	0.744	0.726	0.889	0.712	0.699	0.723	0.737	0.759	0.801	0.747	0.701	0.668
395.0	209.6	227.0	237.6	212.6	207.2	174.2	162.8	154.0	148.1	151.6	153.3	150.8	142.7	134.9	119.8	114.4	105.6	105.2	99.12	92.56	85.51	79.57	71.99	79.26	82.07	126.7	118.5	48.58	28.62	22.64	19.80	72.78	92.48	217.5	605.3	1285	267.3	11.58	1.290	0.746	0.786	0.709	0.693	0.611	0.681	0.637	0.639	0.724	0.668	0.615	0.604	0.861	0.670	0.696	0.773	0.663	0.690	0.750	0.744	0.733	0.732	0.664	0.731	0.752	0.719	0.699	0.777	0.729	0.673	0.709	0.628	0.688	0.814	0.777	0.689	0.679	0.838
400.0	215.9	235.1	228.0	215.0	202.2	177.8	163.6	156.4	148.7	143.5	147.5	145.3	138.2	131.7	120.0	112.9	107.0	103.0	100.4	92.71	85.72	80.06	74.37	81.22	66.65	88.61	136.9	89.83	36.28	26.31	20.80	30.63	29.45	55.04	154.5	804.5	1297	213.4	4.785	1.076	0.895	0.764	0.762	0.648	0.694	0.627	0.614	0.596	0.720	0.711	0.543	0.779	0.767	0.803	0.664	0.647	0.811	0.709	0.673	0.743	0.759	0.636	0.631	0.750	0.782	0.726	0.671	0.656	0.780	0.734	0.666	0.733	0.722	0.726	0.639	0.727	0.775
405.0	217.1	212.0	218.7	201.4	192.0	176.1	165.2	158.8	149.1	147.3	149.2	143.9	136.7	127.9	119.4	109.6	104.9	102.7	98.80	93.64	85.71	81.06	75.63	92.55	65.93	68.68	108.2	130.4	55.87	30.78	24.16	25.15	16.62	19.49	40.42	217.8	984.0	1127	34.87	1.890	1.007	0.871	0.803	0.707	0.639	0.602	0.647	0.606	0.757	0.715	0.630	0.762	0.744	0.709	0.619	0.708	0.773	0.856	0.749	0.685	0.677	0.600	0.708	0.705	0.703	0.815	0.746	0.692	0.707	0.713	0.712	0.656	0.729	0.785	0.797	0.739	0.713
410.0	200.7	208.1	210.8	195.9	191.2	178.7	161.5	159.9	148.8	147.6	145.3	141.9	132.8	124.2	116.3	108.2	101.6	98.84	94.43	90.68	85.36	81.27	76.63	106.4	67.65	63.35	72.71	107.0	106.4	49.61	29.35	25.73	15.53	12.70	15.06	53.93	260.7	763.4	953.9	148.3	10.07	0.993	1.052	0.702	0.764	0.692	0.620	0.627	0.654	0.649	0.605	0.685	0.690	0.655	0.694	0.624	0.698	0.759	0.763	0.737	0.665	0.656	0.741	0.691	0.629	0.773	0.683	0.689	0.624	0.659	0.710	0.652	0.652	0.729	0.643	0.708	0.659
415.0	196.5	189.7	189.0	191.7	185.7	169.4	157.3	154.5	143.8	142.0	147.0	136.9	128.6	122.5	110.8	101.1	97.39	95.87	89.32	86.51	83.24	78.73	75.88	112.8	67.01	62.88	63.08	68.48	99.00	100.4	45.07	27.34	17.02	12.34	11.02	17.62	62.80	177.2	489.9	957.8	232.2	12.75	1.376	0.791	0.764	0.742	0.569	0.617	0.701	0.615	0.567	0.674	0.600	0.747	0.712	0.648	0.609	0.687	0.739	0.718	0.658	0.671	0.658	0.704	0.664	0.708	0.669	0.718	0.637	0.578	0.758	0.641	0.654	0.636	0.738	0.681	0.767
420.0	183.3	193.9	188.8	184.1	177.1	164.2	154.6	155.4	143.9	141.3	144.6	132.7	124.0	119.3	106.9	99.23	93.55	92.00	86.92	83.43	80.25	76.28	74.29	109.8	68.16	62.71	60.46	57.86	70.32	107.2	73.44	32.28	18.46	13.50	10.57	10.40	18.55	43.38	122.8	577.0	958.1	212.2	4.475	0.874	0.890	0.800	0.554	0.558	0.635	0.659	0.547	0.675	0.564	0.702	0.693	0.590	0.700	0.595	0.729	0.615	0.714	0.610	0.696	0.704	0.610	0.686	0.694	0.692	0.586	0.584	0.659	0.757	0.618	0.564	0.588	0.708	0.696
425.0	175.3	187.4	186.9	177.7	165.7	158.1	154.1	153.7	143.2	141.0	137.3	131.0	119.8	112.4	103.5	94.89	89.99	87.36	83.97	77.93	75.44	75.50	72.44	102.0	66.83	61.83	59.19	56.48	55.67	80.97	96.10	49.08	20.63	13.85	10.76	9.447	9.410	13.34	30.78	154.6	717.7	1047	33.07	1.743	0.922	0.854	0.469	0.651	0.577	0.571	0.531	0.752	0.637	0.705	0.700	0.590	0.617	0.676	0.638	0.674	0.657	0.615	0.748	0.694	0.527	0.703	0.682	0.667	0.721	0.622	0.588	0.685	0.559	0.512	0.554	0.614	0.573
430.0	337.7	184.8	172.4	173.2	164.1	156.2	149.8	148.7	144.5	137.8	133.5	124.9	115.6	109.0	97.53	87.94	83.78	82.63	78.38	73.36	72.46	70.93	68.21	98.10	64.70	61.90	58.75	54.74	51.28	55.47	75.78	78.83	36.36	16.69	12.00	9.659	8.559	7.537	10.37	37.52	189.7	651.0	1515	137.7	9.587	0.941	0.634	0.697	0.678	0.606	0.530	0.646	0.587	0.696	0.631	0.600	0.690	0.723	0.652	0.703	0.567	0.743	0.654	0.676	0.565	0.638	0.637	0.674	0.612	0.566	0.644	0.658	0.584	0.514	0.605	0.553	0.567
435.0	884.9	196.9	161.3	166.5	156.8	149.0	146.5	147.9	144.9	135.9	132.2	123.1	111.5	100.8	92.74	84.81	80.20	76.35	73.83	70.69	68.92	66.82	64.69	93.81	60.73	60.04	58.38	53.18	49.28	47.00	47.75	69.50	64.88	28.86	14.20	10.73	8.870	7.010	6.367	11.49	44.72	149.8	879.8	880.0	221.9	10.05	0.876	0.662	0.677	0.557	0.458	0.586	0.677	0.721	0.645	0.597	0.539	0.767	0.599	0.681	0.665	0.704	0.635	0.639	0.725	0.593	0.566	0.673	0.575	0.568	0.579	0.514	0.544	0.492	0.475	0.653	0.558
440.0	1261	345.0	153.8	157.3	149.0	146.1	140.9	142.6	139.1	134.2	128.5	116.3	105.0	95.80	84.67	80.16	75.31	72.83	69.86	67.39	64.87	63.12	62.56	90.86	60.78	58.82	56.08	52.36	48.71	44.61	40.58	49.46	66.71	47.03	18.45	11.27	9.285	7.132	6.052	6.142	12.51	35.89	219.9	559.7	947.4	177.8	3.247	0.757	0.736	0.593	0.498	0.617	0.576	0.749	0.594	0.559	0.558	0.729	0.640	0.831	0.665	0.635	0.678	0.676	0.704	0.524	0.615	0.591	0.562	0.591	0.539	0.538	0.493	0.570	0.548	0.571	0.504
445.0	1283	709.5	152.7	144.7	151.2	143.8	140.8	141.4	140.2	129.8	120.5	113.5	102.1	93.18	82.34	76.87	71.95	69.45	66.04	62.13	60.87	60.25	58.61	83.24	57.08	54.93	53.21	50.65	47.38	43.41	38.53	38.47	50.08	60.20	30.87	12.48	9.568	7.343	6.339	4.961	5.663	10.27	51.81	152.2	753.6	879.2	27.12	1.432	0.773	0.606	0.575	0.579	0.562	0.603	0.643	0.603	0.591	0.705	0.633	0.705	0.702	0.680	0.611	0.643	0.708	0.469	0.563	0.531	0.519	0.523	0.532	0.468	0.469	0.550	0.477	0.492	0.420
450.0	700.1	1303	335.9	137.9	137.5	134.0	135.0	135.3	129.4	123.6	114.8	108.7	95.35	86.05	77.14	69.97	64.33	63.27	61.12	57.86	55.72	54.78	54.70	72.86	53.46	51.93	50.77	47.60	44.81	40.94	36.19	34.45	32.79	46.13	46.05	24.21	11.21	8.008	6.588	5.296	4.796	5.032	14.06	36.06	202.8	612.0	691.5	118.8	6.104	0.701	0.599	0.547	0.619	0.650	0.626	0.635	0.583	0.638	0.708	0.664	0.628	0.580	0.634	0.660	0.628	0.519	0.559	0.516	0.532	0.516	0.474	0.480	0.438	0.606	0.469	0.530	0.374
455.0	278.3	1219	941.0	147.4	129.7	127.0	119.2	124.5	123.6	113.8	110.8	98.76	87.74	78.23	69.55	61.60	58.05	56.63	52.65	52.02	50.32	50.41	49.89	62.79	48.90	47.32	46.71	44.41	41.60	39.52	34.96	31.43	26.05	27.35	38.53	40.88	18.60	8.939	6.654	5.298	4.450	4.175	5.778	9.789	47.14	141.1	345.9	680.3	163.7	6.011	0.749	0.583	0.660	0.631	0.559	0.572	0.628	0.499	0.594	0.596	0.620	0.505	0.570	0.603	0.585	0.496	0.544	0.459	0.576	0.529	0.563	0.561	0.427	0.484	0.476	0.412	0.359
460.0	155.3	695.9	1466	275.4	117.6	118.5	116.4	121.9	116.3	109.0	103.2	95.81	83.49	72.56	65.65	57.79	52.95	53.09	49.03	47.92	46.20	45.60	45.33	56.79	45.32	44.41	42.69	41.07	39.52	37.97	33.54	30.97	24.03	21.44	25.94	41.65	30.00	11.13	7.054	5.370	4.290	4.033	3.995	4.257	12.19	33.30	85.61	414.6	601.8	120.1	3.007	0.655	0.671	0.655	0.637	0.454	0.601	0.599	0.529	0.508	0.531	0.555	0.551	0.534	0.447	0.580	0.482	0.552	0.461	0.534	0.465	0.448	0.390	0.410	0.410	0.422	0.346
465.0	142.5	308.6	1519	639.1	113.7	104.5	108.7	108.9	107.7	102.8	96.70	86.54	78.54	67.78	60.25	52.90	50.72	48.60	45.23	43.89	43.53	41.95	41.89	51.71	41.78	41.10	39.19	38.84	38.12	35.78	31.54	29.52	23.29	20.17	19.39	30.18	36.26	18.80	8.079	5.618	4.595	4.030	3.638	3.142	4.370	8.996	20.76	111.8	484.5	565.6	22.11	1.313	0.674	0.657	0.580	0.478	0.580	0.510	0.646	0.499	0.525	0.478	0.646	0.627	0.501	0.554	0.490	0.522	0.465	0.552	0.423	0.379	0.424	0.484	0.309	0.485	0.315
470.0	171.5	156.1	831.9	1288	259.6	99.17	100.7	99.84	99.20	92.93	89.38	79.22	71.22	62.23	53.80	47.50	44.33	42.92	39.48	38.43	37.85	37.32	36.79	43.97	37.26	36.94	35.79	34.94	34.04	32.16	29.10	27.65	21.74	18.43	16.63	18.47	27.52	28.06	15.03	6.603	4.803	4.127	3.796	3.008	2.950	3.599	6.067	26.32	130.5	410.5	539.2	109.3	6.347	0.689	0.629	0.535	0.607	0.525	0.615	0.515	0.579	0.529	0.563	0.544	0.478	0.453	0.430	0.467	0.355	0.440	0.345	0.392	0.418	0.391	0.336	0.380	0.315
475.0	224.6	126.2	286.6	1186	678.5	104.9	91.09	89.67	87.28	87.65	81.84	72.04	63.87	54.29	47.82	41.91	38.23	37.92	34.61	34.19	32.70	31.80	32.75	38.38	32.90	31.77	31.85	31.49	30.66	28.34	26.89	24.67	20.13	17.72	15.07	13.52	15.05	23.37	23.96	10.97	4.961	3.930	3.703	2.989	2.964	2.261	2.708	6.962	30.25	94.35	254.6	473.4	161.3	5.855	0.750	0.532	0.545	0.539	0.591	0.486	0.536	0.471	0.568	0.493	0.397	0.414	0.425	0.454	0.288	0.365	0.324	0.335	0.363	0.329	0.308	0.258	0.300
480.0	215.7	144.4	134.2	701.8	1323	195.0	80.96	86.14	81.17	82.97	76.49	67.48	58.90	48.88	42.91	37.50	35.40	35.03	31.66	30.38	29.37	29.42	29.61	34.53	29.85	29.29	28.44	28.26	28.52	27.09	25.02	23.00	19.26	16.91	14.03	12.66	11.84	15.46	24.11	17.28	6.645	3.857	3.511	2.895	2.555	2.417	1.972	2.725	7.715	22.19	62.57	261.8	536.2	28.58	2.381	0.561	0.592	0.510	0.586	0.513	0.569	0.468	0.473	0.500	0.370	0.362	0.420	0.491	0.368	0.345	0.333	0.317	0.389	0.317	0.261	0.320	0.336
485.0	157.8	182.8	94.75	307.8	1406	488.3	79.80	80.28	80.59	75.25	67.84	63.21	56.07	45.90	40.61	35.54	31.96	31.04	28.96	28.32	28.27	27.79	27.08	30.93	27.62	26.95	26.53	26.11	26.28	25.33	23.07	22.10	18.61	15.56	13.06	11.80	10.49	11.10	17.46	21.26	11.58	4.826	3.470	2.827	2.467	2.416	2.081	1.865	2.712	5.910	15.13	69.07	406.3	452.6	25.40	1.216	0.601	0.475	0.614	0.456	0.535	0.486	0.456	0.468	0.446	0.349	0.429	0.433	0.361	0.320	0.336	0.282	0.267	0.311	0.210	0.296	0.299
490.0	111.4	211.7	114.9	131.0	807.2	1146	193.5	72.30	71.87	67.70	63.79	58.17	50.74	42.00	37.29	32.02	29.80	28.40	26.21	25.50	24.90	24.57	24.88	27.24	25.05	24.51	24.76	23.97	24.12	23.72	21.07	20.50	17.06	14.91	12.66	11.37	9.692	8.816	10.57	16.06	17.62	9.107	4.046	2.976	2.488	2.235	2.242	1.957	1.646	2.227	4.214	16.29	106.3	308.6	463.7	113.5	7.373	0.779	0.730	0.459	0.458	0.422	0.428	0.458	0.470	0.359	0.401	0.379	0.327	0.339	0.303	0.290	0.246	0.278	0.246	0.295	0.280
495.0	77.79	158.3	165.5	84.79	265.4	1195	681.9	80.01	65.26	64.55	59.19	51.94	47.31	38.08	33.51	29.05	26.52	26.28	23.15	23.02	20.91	21.39	21.26	23.17	21.94	21.96	22.23	21.68	21.18	20.85	19.53	18.82	15.29	13.57	12.21	10.36	9.149	7.963	7.351	8.889	14.66	15.17	6.912	3.053	2.616	2.161	1.804	2.100	1.675	1.455	1.677	4.439	24.50	70.69	230.2	465.2	174.8	9.070	0.972	0.516	0.444	0.453	0.358	0.419	0.399	0.353	0.268	0.363	0.341	0.299	0.344	0.291	0.253	0.309	0.205	0.324	0.198
500.0	52.93	119.1	188.1	85.56	105.8	733.3	1207	239.0	61.75	59.62	51.62	48.06	44.28	34.00	30.62	26.26	23.54	23.09	20.86	20.07	19.48	19.76	19.84	20.81	19.98	21.37	19.58	19.94	19.84	19.49	17.69	17.51	14.78	12.65	11.24	9.757	8.514	7.411	6.562	6.286	9.443	15.34	11.22	4.198	2.428	1.914	1.889	1.824	1.900	1.494	1.136	1.703	6.075	16.50	56.29	247.5	471.3	169.1	5.889	0.566	0.485	0.449	0.371	0.445	0.355	0.384	0.275	0.324	0.318	0.242	0.300	0.259	0.220	0.238	0.282	0.220	0.219
505.0	48.31	84.27	191.1	108.0	66.45	308.1	1365	1101	59.41	54.94	49.79	43.06	40.27	32.18	27.68	23.30	22.05	21.46	19.87	17.54	17.93	17.53	18.37	18.99	17.93	18.31	18.01	18.38	17.86	17.35	16.11	15.61	13.48	11.85	10.42	9.059	8.020	7.031	6.010	5.510	6.163	11.42	13.95	6.835	2.822	1.846	1.737	1.471	1.792	1.710	1.030	1.015	1.973	4.416	13.40	63.73	317.7	578.1	31.10	1.384	0.417	0.370	0.379	0.409	0.352	0.328	0.245	0.293	0.272	0.269	0.252	0.252	0.224	0.213	0.232	0.228	0.187
510.0	52.25	53.64	127.4	156.3	63.08	113.2	812.6	3128	127.0	48.04	44.39	39.47	34.11	28.79	24.35	20.43	18.44	18.07	16.90	16.35	15.38	15.71	15.45	16.43	16.00	15.92	16.05	15.88	15.37	15.25	14.70	14.10	11.54	10.62	9.513	8.402	7.324	6.394	5.679	5.002	4.547	6.189	10.82	11.08	5.611	2.253	1.696	1.452	1.402	1.545	1.342	1.013	0.972	1.617	3.704	14.86	81.68	307.8	635.6	123.9	8.482	0.531	0.434	0.375	0.288	0.326	0.262	0.283	0.302	0.194	0.238	0.209	0.217	0.181	0.206	0.206	0.177
515.0	49.59	46.46	66.35	164.4	88.68	61.28	256.7	3502	532.5	45.92	37.60	34.21	28.10	24.59	21.21	18.48	16.33	15.57	14.49	13.69	13.37	13.06	13.02	13.43	13.79	13.23	13.51	13.85	13.92	13.29	12.77	12.62	9.975	9.310	8.263	7.381	6.841	5.450	5.036	4.472	3.876	4.072	5.701	9.752	9.496	4.346	1.582	1.430	1.169	1.159	1.342	1.431	0.870	0.925	1.319	3.800	18.86	69.77	247.1	467.7	198.9	9.291	0.404	0.356	0.322	0.264	0.258	0.263	0.219	0.215	0.227	0.197	0.147	0.235	0.246	0.189	0.169
520.0	49.52	36.40	42.93	130.7	128.0	46.91	92.18	2143	1068	95.06	33.57	31.01	25.76	22.08	18.07	16.13	14.37	13.98	13.15	12.68	12.32	11.87	11.61	11.72	11.77	11.44	12.03	11.96	12.32	12.27	11.15	11.04	8.704	8.329	7.399	6.555	6.171	5.225	4.425	4.080	3.593	3.235	3.441	6.136	10.05	7.061	2.457	1.316	1.115	1.146	1.117	1.483	1.194	0.746	0.701	1.338	4.724	16.11	58.03	233.0	492.6	148.5	4.184	0.450	0.365	0.295	0.279	0.309	0.267	0.147	0.213	0.181	0.173	0.298	0.188	0.177	0.226
525.0	34.16	39.36	36.49	77.32	154.9	58.64	51.08	885.7	1358	259.4	33.19	29.11	24.19	21.24	17.92	14.38	13.20	12.91	12.25	11.12	10.76	10.59	10.76	10.46	10.90	11.23	11.12	10.52	11.25	10.51	9.987	9.903	8.585	7.743	7.111	5.969	5.402	5.072	4.347	3.779	3.325	2.888	2.836	3.560	7.663	8.804	4.106	1.511	0.944	1.047	0.909	1.070	1.466	0.988	0.655	0.788	1.574	4.132	13.77	57.89	288.9	433.0	30.51	1.453	0.394	0.308	0.320	0.295	0.228	0.263	0.153	0.207	0.133	0.207	0.168	0.183	0.160
530.0	33.54	33.86	29.97	44.32	137.5	94.15	38.18	249.3	845.9	1026	90.49	26.49	22.22	19.06	15.30	12.09	11.22	10.92	10.34	9.357	9.318	9.437	9.061	9.387	9.146	9.143	9.372	8.905	9.388	9.403	8.707	8.859	7.275	6.592	6.059	5.358	4.868	4.292	3.741	3.269	2.900	2.544	2.335	2.528	3.887	7.103	6.600	3.066	1.147	0.922	0.829	0.774	1.004	1.225	0.927	0.664	0.738	1.395	3.627	13.37	71.20	226.9	379.7	127.1	9.112	0.358	0.327	0.331	0.211	0.220	0.173	0.186	0.166	0.198	0.118	0.148	0.142
535.0	22.83	28.48	29.21	28.83	73.39	137.3	46.14	82.38	258.2	1331	433.6	24.59	19.85	16.31	13.09	10.59	9.843	9.128	8.379	7.871	7.399	7.862	7.454	7.793	7.618	7.510	7.710	7.813	7.862	7.919	7.504	6.942	6.342	5.765	5.231	4.568	4.059	3.779	3.149	2.951	2.614	2.252	2.054	1.886	2.052	3.478	6.382	5.552	2.156	0.824	0.680	0.659	0.646	0.824	1.125	0.878	0.535	0.664	1.228	3.343	16.34	51.20	137.5	372.1	179.0	10.98	0.325	0.423	0.237	0.194	0.176	0.137	0.174	0.266	0.098	0.120	0.121
540.0	24.72	26.90	27.86	25.94	38.13	139.1	66.99	42.15	81.14	863.0	947.1	51.88	17.45	14.07	11.14	9.444	8.578	8.001	7.051	7.190	6.823	7.128	6.461	7.004	6.793	6.790	6.812	6.921	6.893	6.645	6.303	6.221	5.570	4.944	4.396	4.199	3.819	3.342	3.066	2.698	2.460	2.072	1.833	1.544	1.534	1.920	4.233	6.195	3.410	1.262	0.759	0.570	0.575	0.528	0.871	1.138	0.641	0.468	0.702	1.145	4.004	11.73	31.84	162.3	307.6	146.2	5.333	0.480	0.272	0.206	0.173	0.160	0.189	0.165	0.103	0.097	0.120
545.0	24.64	23.68	23.87	23.79	23.43	104.4	99.14	33.81	38.22	332.0	1244	173.9	16.85	13.19	9.743	8.882	7.880	6.954	6.691	6.479	5.861	6.210	6.080	6.059	5.837	6.090	6.009	6.054	6.196	6.053	5.740	5.795	5.114	4.468	4.039	3.664	3.142	2.816	2.445	2.302	2.312	1.751	1.640	1.411	1.375	1.402	2.302	4.759	4.661	2.191	0.815	0.513	0.452	0.432	0.598	1.078	1.091	0.481	0.451	0.568	1.217	2.953	7.573	38.59	153.4	317.1	31.97	3.784	0.288	0.194	0.167	0.139	0.140	0.138	0.122	0.090	0.122
550.0	27.13	25.49	21.24	20.36	17.97	52.23	122.4	48.31	25.48	97.12	744.5	774.1	48.55	10.88	8.716	7.204	6.538	6.147	5.388	5.387	5.107	4.908	4.942	5.024	5.169	4.817	5.106	5.050	5.016	4.976	4.842	4.911	4.269	3.703	3.521	2.902	2.770	2.452	2.270	2.015	1.807	1.548	1.509	1.298	1.252	1.069	1.255	2.542	4.087	3.434	1.555	0.601	0.388	0.423	0.418	0.583	0.950	0.877	0.485	0.359	0.550	0.956	1.990	8.942	36.44	136.4	203.1	139.3	12.63	0.339	0.213	0.136	0.151	0.161	0.113	0.154	0.135
555.0	25.21	30.40	21.87	20.11	15.77	23.39	92.48	89.18	23.88	38.52	214.9	1046	176.0	10.83	7.942	6.316	5.380	4.927	4.183	4.139	4.101	3.974	3.977	3.914	3.920	3.805	4.125	4.016	4.063	4.136	3.807	3.967	3.786	3.026	2.802	2.213	2.235	2.030	1.812	1.729	1.603	1.302	1.353	1.073	0.971	0.909	0.903	1.170	2.108	3.456	2.728	1.094	0.399	0.395	0.388	0.376	0.481	0.788	0.945	0.393	0.333	0.424	0.672	2.260	8.386	30.76	62.91	283.2	201.0	12.30	0.275	0.182	0.158	0.167	0.109	0.151	0.132
560.0	49.77	52.06	37.63	24.99	16.07	17.72	58.16	119.8	29.38	29.67	73.33	675.1	721.9	26.86	6.847	5.646	4.335	4.527	3.689	3.580	3.485	3.409	3.721	3.098	3.523	3.287	3.294	3.513	3.538	3.410	3.523	3.309	3.086	2.627	2.319	2.147	1.928	1.737	1.541	1.332	1.474	1.145	1.218	0.979	0.884	0.681	0.835	0.745	1.122	2.404	2.843	1.732	0.507	0.324	0.336	0.322	0.311	0.515	1.107	0.656	0.384	0.328	0.382	0.777	2.122	7.160	14.57	101.0	238.7	102.2	5.246	0.163	0.138	0.164	0.089	0.103	0.134
565.0	75.36	81.77	67.76	40.14	23.39	17.29	35.10	120.9	53.25	37.38	53.81	276.7	1030	114.1	6.431	4.752	4.111	4.244	3.229	3.193	2.794	2.742	2.996	2.658	3.062	2.874	2.893	2.839	3.131	2.843	2.895	2.899	2.605	2.240	2.074	1.944	1.676	1.510	1.405	1.217	1.262	1.051	1.203	0.950	0.796	0.826	0.802	0.781	0.863	1.435	2.684	2.251	0.872	0.445	0.317	0.333	0.249	0.430	0.762	0.901	0.503	0.336	0.296	0.449	0.749	1.893	3.631	23.66	93.07	164.6	31.70	2.225	0.267	0.223	0.094	0.120	0.113
570.0	156.8	188.0	185.9	106.7	48.47	25.74	29.93	96.01	117.1	73.93	87.93	141.3	676.1	579.2	25.77	4.282	3.488	3.330	2.811	2.501	2.645	2.398	2.342	2.479	2.271	2.317	2.300	2.379	2.302	2.365	2.324	2.513	1.964	1.864	1.804	1.766	1.628	1.322	1.272	1.017	1.128	0.888	0.999	0.892	0.915	0.902	0.967	0.840	0.910	0.995	1.557	2.284	1.643	0.857	0.397	0.314	0.278	0.331	0.450	0.713	0.851	0.591	0.429	0.501	0.577	0.869	1.280	5.815	21.74	60.41	90.88	74.85	13.21	0.326	0.143	0.135	0.099
575.0	267.6	332.0	315.9	193.8	84.45	41.80	39.36	68.64	163.8	136.9	142.3	155.2	278.1	811.9	120.6	4.738	3.270	3.122	2.509	2.267	1.991	1.908	1.774	1.890	1.829	1.958	1.935	1.896	1.696	1.710	1.752	1.950	1.556	1.611	1.783	1.478	1.570	1.278	1.252	1.000	1.055	1.008	0.995	0.921	1.061	1.019	1.110	1.181	1.172	1.054	1.016	1.706	1.990	1.288	0.684	0.360	0.315	0.327	0.387	0.505	0.797	1.093	0.795	0.600	0.696	0.790	0.890	1.937	5.583	14.09	25.15	93.16	123.4	11.90	0.237	0.203	0.100
580.0	355.4	411.3	399.4	263.1	106.2	46.40	41.99	66.39	161.9	192.7	181.4	178.2	181.1	547.5	469.6	11.13	2.846	2.643	2.248	1.748	1.747	1.861	1.650	1.430	1.390	1.714	1.628	1.652	1.524	1.493	1.448	1.632	1.332	1.258	1.772	1.373	1.454	1.222	1.195	1.054	1.014	1.001	1.037	0.893	1.078	1.012	1.259	1.490	1.419	1.206	0.912	1.299	1.701	1.418	0.946	0.497	0.303	0.316	0.406	0.427	0.580	1.018	1.304	0.898	0.835	0.903	0.848	1.202	2.069	3.821	6.217	30.40	118.2	85.12	4.574	0.198	0.111
585.0	382.6	467.0	464.2	285.0	122.4	54.23	43.37	70.36	146.1	232.1	210.1	204.5	172.9	247.7	666.3	59.21	2.757	2.458	1.953	2.165	1.293	1.716	1.498	1.327	1.314	1.442	1.487	1.384	1.367	1.440	1.294	1.462	1.211	1.185	1.603	1.377	1.300	1.231	1.184	1.028	0.942	0.844	1.009	0.873	1.095	1.189	1.199	1.423	1.400	1.339	0.947	1.062	1.252	1.710	1.197	0.619	0.359	0.321	0.386	0.378	0.523	0.796	1.326	1.127	0.948	0.931	1.095	1.160	1.258	1.612	1.962	7.269	40.71	133.9	30.40	2.094	0.155
590.0	419.9	542.7	532.8	328.1	140.4	59.76	50.24	77.55	129.6	242.8	254.1	227.5	181.1	126.3	414.4	318.5	9.649	2.298	1.655	1.748	1.327	1.517	1.089	1.327	1.091	1.214	1.108	1.132	1.277	1.126	1.115	1.329	0.998	1.310	1.420	1.471	1.332	1.184	1.085	0.838	0.896	0.876	0.970	0.868	1.034	1.237	1.227	1.558	1.497	1.352	1.091	1.050	0.843	1.092	1.306	0.996	0.469	0.375	0.435	0.439	0.513	0.647	1.073	1.387	1.219	1.082	1.172	1.126	1.091	1.130	1.014	2.088	9.491	48.20	54.69	45.11	6.260
595.0	449.3	567.1	552.8	345.9	152.8	66.41	53.69	79.71	126.6	222.0	291.1	241.5	191.1	100.4	125.4	473.8	74.60	2.633	1.336	1.259	1.377	1.272	0.899	1.040	1.053	0.972	0.873	0.947	0.978	0.851	0.748	1.135	1.000	0.926	1.195	1.246	1.238	1.162	1.025	0.799	0.865	0.889	0.944	0.921	1.147	1.387	1.476	1.618	1.650	1.346	1.079	0.965	0.706	0.705	1.011	1.048	0.780	0.478	0.412	0.413	0.506	0.644	0.867	1.107	1.528	1.407	1.168	1.227	1.118	0.955	0.765	0.784	2.418	10.93	14.52	49.03	35.58
600.0	462.5	563.8	528.1	349.1	153.5	67.74	51.91	80.18	121.5	198.6	299.4	257.5	191.2	89.91	43.58	321.3	255.8	8.144	1.208	1.364	1.093	1.188	0.916	0.868	0.879	0.878	0.722	0.857	0.949	0.874	0.750	0.912	0.830	0.887	1.135	1.083	1.134	0.932	0.862	0.773	0.823	0.848	0.917	0.909	1.108	1.351	1.465	1.539	1.649	1.320	1.064	0.947	0.622	0.558	0.737	0.979	0.940	0.672	0.384	0.380	0.527	0.597	0.859	1.029	1.293	1.519	1.244	1.190	1.137	0.999	0.883	0.592	0.804	2.593	3.420	15.46	45.57
605.0	414.1	536.4	540.2	335.8	150.8	63.50	53.12	79.57	113.9	180.6	282.7	266.1	188.1	89.56	23.83	127.2	396.0	45.53	1.411	1.223	1.054	1.073	0.711	0.830	0.741	0.747	0.739	0.809	0.713	0.771	0.739	0.766	0.657	0.835	0.974	1.038	1.122	0.821	0.889	0.739	0.669	0.791	0.870	0.836	1.069	1.171	1.427	1.696	1.469	1.193	1.052	0.913	0.623	0.477	0.490	0.714	0.909	0.796	0.533	0.367	0.613	0.641	0.753	0.831	1.092	1.492	1.452	1.265	0.982	0.840	0.794	0.595	0.399	0.749	0.898	3.628	16.60
610.0	390.3	518.2	506.0	320.8	138.9	59.01	49.35	72.30	111.7	162.9	241.2	270.4	181.7	83.72	18.37	35.06	273.1	310.6	4.818	1.290	0.913	1.109	0.585	0.689	0.627	0.621	0.613	0.697	0.587	0.555	0.546	0.776	0.599	0.730	1.016	0.885	0.959	0.897	0.738	0.704	0.634	0.659	0.809	0.789	0.947	1.235	1.211	1.393	1.378	1.123	0.951	0.925	0.595	0.421	0.375	0.397	0.713	0.902	0.684	0.436	0.515	0.640	0.707	0.825	1.042	1.105	1.251	1.253	1.026	0.837	0.755	0.519	0.269	0.378	0.312	0.900	3.889
615.0	359.2	461.8	449.6	293.9	133.4	51.51	47.73	69.27	97.58	149.1	199.6	242.5	181.0	74.86	15.75	11.55	82.04	527.0	45.91	1.261	0.804	0.941	0.593	0.460	0.545	0.532	0.495	0.511	0.378	0.504	0.470	0.708	0.427	0.760	0.788	0.834	0.837	0.838	0.762	0.591	0.617	0.550	0.755	0.696	0.852	1.074	1.062	1.285	1.340	1.059	0.924	0.817	0.507	0.370	0.323	0.262	0.404	0.735	0.752	0.546	0.440	0.545	0.665	0.795	0.878	0.995	1.057	1.203	1.286	0.887	0.833	0.468	0.283	0.267	0.151	0.252	0.968
620.0	351.4	422.0	405.7	265.7	119.6	48.96	44.78	65.19	87.35	131.5	177.2	210.5	184.2	69.46	14.68	6.213	22.48	406.9	159.9	2.908	0.749	0.919	0.592	0.488	0.449	0.373	0.453	0.464	0.363	0.427	0.406	0.649	0.447	0.613	0.695	0.821	0.716	0.688	0.624	0.564	0.513	0.509	0.746	0.709	0.864	0.900	0.999	1.097	1.195	0.965	0.855	0.753	0.478	0.324	0.244	0.228	0.291	0.523	0.757	0.595	0.429	0.580	0.630	0.671	0.804	0.718	0.913	0.896	1.252	0.927	0.674	0.445	0.221	0.234	0.121	0.143	0.291
625.0	314.0	393.0	387.4	245.7	112.8	48.40	40.95	61.65	84.51	121.7	161.6	177.2	173.2	68.77	14.46	5.228	7.428	173.5	271.3	19.67	0.571	0.838	0.577	0.488	0.344	0.403	0.363	0.387	0.369	0.447	0.391	0.590	0.317	0.458	0.660	0.721	0.674	0.622	0.551	0.412	0.494	0.505	0.601	0.662	0.647	0.930	0.996	0.889	1.138	0.856	0.804	0.628	0.460	0.325	0.222	0.251	0.297	0.376	0.585	0.657	0.601	0.453	0.478	0.563	0.762	0.837	0.899	0.773	0.912	0.958	0.736	0.401	0.257	0.185	0.119	0.137	0.155
630.0	260.5	332.5	324.3	214.5	94.60	40.81	36.25	51.12	74.68	103.2	142.5	146.1	146.0	74.47	13.33	4.274	3.682	44.45	210.4	165.4	2.187	0.917	0.465	0.501	0.380	0.421	0.348	0.323	0.276	0.413	0.387	0.587	0.305	0.452	0.607	0.719	0.537	0.543	0.512	0.443	0.449	0.431	0.563	0.514	0.553	0.770	0.896	0.906	0.890	0.802	0.684	0.570	0.397	0.300	0.227	0.217	0.232	0.235	0.443	0.524	0.547	0.508	0.523	0.478	0.581	0.725	0.762	0.637	0.707	0.755	0.753	0.457	0.225	0.158	0.114	0.111	0.142
635.0	214.8	274.0	274.5	175.9	79.35	34.76	31.59	43.15	60.96	89.52	115.2	121.6	110.4	76.99	15.20	3.906	2.733	11.58	66.84	344.3	28.69	0.928	0.447	0.511	0.424	0.428	0.327	0.325	0.296	0.258	0.291	0.555	0.308	0.437	0.490	0.595	0.469	0.488	0.439	0.491	0.415	0.357	0.404	0.405	0.499	0.615	0.655	0.782	0.784	0.711	0.599	0.478	0.324	0.226	0.178	0.196	0.209	0.238	0.265	0.393	0.505	0.527	0.507	0.466	0.508	0.527	0.661	0.635	0.592	0.611	0.602	0.496	0.276	0.115	0.127	0.117	0.111
640.0	180.2	252.1	239.7	152.9	66.56	33.54	26.39	38.97	53.48	77.92	98.10	103.0	92.20	70.49	19.84	3.935	2.575	4.247	17.86	289.0	72.62	1.985	0.471	0.393	0.352	0.344	0.281	0.250	0.281	0.211	0.220	0.555	0.215	0.338	0.447	0.504	0.444	0.477	0.362	0.306	0.392	0.358	0.416	0.335	0.462	0.558	0.597	0.677	0.603	0.594	0.506	0.480	0.314	0.220	0.173	0.131	0.179	0.174	0.257	0.258	0.388	0.472	0.404	0.439	0.487	0.563	0.544	0.591	0.534	0.490	0.457	0.369	0.400	0.185	0.112	0.121	0.114
645.0	172.3	205.9	210.3	129.4	60.88	29.04	24.53	35.21	46.80	68.74	86.76	90.95	75.52	57.81	26.19	4.385	2.551	2.620	5.143	135.5	188.8	16.26	0.472	0.520	0.311	0.328	0.248	0.240	0.270	0.227	0.272	0.459	0.226	0.331	0.402	0.399	0.402	0.499	0.368	0.297	0.315	0.314	0.534	0.353	0.421	0.483	0.608	0.665	0.596	0.459	0.434	0.392	0.287	0.182	0.180	0.173	0.183	0.152	0.176	0.271	0.308	0.420	0.447	0.432	0.369	0.444	0.523	0.461	0.538	0.385	0.301	0.283	0.460	0.308	0.154	0.101	0.106
650.0	140.2	190.3	177.4	118.7	52.62	27.53	22.62	30.37	41.12	58.27	77.07	78.28	65.91	43.42	32.32	6.119	2.321	2.242	2.328	40.45	207.9	64.96	0.501	0.424	0.447	0.249	0.246	0.236	0.242	0.244	0.259	0.457	0.212	0.304	0.310	0.339	0.332	0.341	0.295	0.267	0.248	0.293	0.474	0.347	0.424	0.455	0.427	0.490	0.570	0.495	0.354	0.343	0.243	0.177	0.170	0.121	0.142	0.164	0.151	0.159	0.233	0.371	0.439	0.338	0.383	0.433	0.417	0.430	0.443	0.372	0.291	0.229	0.275	0.292	0.163	0.078	0.103
