Sample:	'1
File name:	G2025072506月四会四泵站.FD3
Run date:	'10:18:29, 07/29/2025
Operator:	Administrator
Comment:	'

Instrument
Model:	F-2700 FL Spectrophotometer
Serial number:	23B8-004
ROM Version:	4J14000 07

Instrument parameters
Measurement type:	3-D scan
Data mode:	Fluorescence
EX  Start WL:	220.0 nm
EX  End WL:	600.0 nm
EX Sampling interval:	5.0 nm
EM  Start WL:	230.0 nm
EM  End WL:	650.0 nm
EM Sampling interval:	5.0 nm
Scan speed:	12000 nm/min
EX Slit:	5.0 nm
EM Slit:	5.0 nm
PMT Voltage:	700 V
Response:	Auto 
Corrected spectra:	Off
Contour interval:	50.000

Peak integration
Integration method:	Rectangular
Sensitivity:	1
Threshold:	1.000

Peaks
No.	ApexEX/EM(nm)	Height(Data)
1	225.0/585.0	43.20
2	225.0/605.0	37.85
3	225.0/625.0	32.38
4	230.0/340.0	2004
5	230.0/600.0	36.61
6	230.0/630.0	30.21
7	240.0/265.0	429.3
8	245.0/270.0	439.0
9	245.0/535.0	255.4
10	250.0/275.0	564.9
11	250.0/550.0	207.4
12	255.0/280.0	637.6
13	255.0/440.0	1246
14	255.0/560.0	171.9
15	260.0/290.0	639.5
16	260.0/575.0	133.1
17	265.0/295.0	835.1
18	265.0/585.0	124.3
19	270.0/300.0	1174
20	270.0/600.0	108.9
21	275.0/310.0	1310
22	275.0/410.0	1496
23	275.0/610.0	103.6
24	280.0/315.0	1289
25	280.0/340.0	1308
26	280.0/625.0	89.83
27	285.0/320.0	1374
28	285.0/640.0	69.35
29	290.0/325.0	1261
30	320.0/365.0	663.7
31	345.0/415.0	946.7
32	350.0/435.0	919.1
33	355.0/410.0	950.8
34	425.0/500.0	43.19
35	440.0/520.0	25.45
36	460.0/340.0	5.301
37	475.0/350.0	5.253
38	485.0/265.0	2.215
39	485.0/370.0	5.119
40	490.0/375.0	4.950
41	495.0/270.0	2.139
42	505.0/275.0	3.186
43	505.0/445.0	4.986
44	510.0/280.0	3.556
45	510.0/440.0	4.828
46	515.0/285.0	3.576
47	530.0/290.0	3.535
48	540.0/295.0	4.641
49	545.0/300.0	5.472
50	550.0/305.0	5.997
51	560.0/310.0	5.652
52	570.0/315.0	5.887
53	575.0/320.0	6.078
54	585.0/325.0	6.275

Data points
	220.0	225.0	230.0	235.0	240.0	245.0	250.0	255.0	260.0	265.0	270.0	275.0	280.0	285.0	290.0	295.0	300.0	305.0	310.0	315.0	320.0	325.0	330.0	335.0	340.0	345.0	350.0	355.0	360.0	365.0	370.0	375.0	380.0	385.0	390.0	395.0	400.0	405.0	410.0	415.0	420.0	425.0	430.0	435.0	440.0	445.0	450.0	455.0	460.0	465.0	470.0	475.0	480.0	485.0	490.0	495.0	500.0	505.0	510.0	515.0	520.0	525.0	530.0	535.0	540.0	545.0	550.0	555.0	560.0	565.0	570.0	575.0	580.0	585.0	590.0	595.0	600.0
230.0	43.55	1017	2329	718.3	32.00	6.293	5.688	4.581	3.617	3.043	3.360	2.832	2.665	2.334	1.927	1.585	1.456	1.227	1.225	1.197	1.036	0.930	0.852	0.714	0.780	0.683	0.666	0.657	0.585	0.650	0.612	0.524	0.494	0.452	0.436	0.435	0.378	0.339	0.350	0.304	0.328	0.343	0.368	0.313	0.272	0.302	1.312	5.021	7.585	4.762	1.653	0.412	0.222	0.213	0.202	0.216	0.190	0.216	0.210	0.225	0.210	0.200	0.202	0.198	0.229	0.215	0.186	0.201	0.214	0.219	0.219	0.232	0.216	0.257	0.217	0.213	0.193
235.0	84.30	285.1	1557	2624	594.6	44.19	5.925	5.552	4.773	4.763	3.676	3.373	2.815	2.431	1.760	1.650	1.382	1.341	1.081	1.122	1.012	0.891	0.774	0.825	0.701	0.629	0.607	0.689	0.601	0.608	0.604	0.498	0.537	0.448	0.458	0.414	0.415	0.364	0.337	0.256	0.369	0.266	0.426	0.367	0.390	0.297	0.457	1.447	3.305	6.132	8.081	7.646	2.782	0.570	0.217	0.221	0.261	0.190	0.218	0.227	0.214	0.218	0.252	0.204	0.230	0.217	0.209	0.193	0.206	0.196	0.219	0.257	0.226	0.195	0.184	0.213	0.209
240.0	114.7	135.0	481.0	2387	3007	445.3	20.90	6.501	5.997	4.645	3.871	3.445	3.020	2.744	2.207	1.895	1.595	1.431	1.290	1.161	1.036	0.992	0.897	1.001	0.904	0.655	0.553	0.719	0.629	0.712	0.567	0.574	0.571	0.470	0.455	0.390	0.379	0.361	0.370	0.263	0.283	0.273	0.323	0.382	0.508	0.533	0.391	0.574	0.922	1.999	5.362	11.33	12.21	7.411	2.415	0.439	0.231	0.234	0.249	0.225	0.180	0.210	0.250	0.217	0.192	0.215	0.246	0.203	0.229	0.258	0.211	0.219	0.196	0.225	0.182	0.206	0.232
245.0	92.69	171.8	169.7	857.1	3607	2591	312.7	9.839	5.558	5.473	4.110	3.306	3.255	2.878	1.978	2.077	1.477	1.476	1.246	1.265	1.142	0.904	0.947	1.034	0.906	0.608	0.731	0.669	0.654	0.706	0.560	0.631	0.481	0.462	0.438	0.378	0.384	0.298	0.383	0.317	0.274	0.343	0.314	0.321	0.347	0.491	0.651	0.735	0.403	0.634	1.448	4.085	10.14	15.99	13.65	6.788	1.543	0.332	0.243	0.246	0.209	0.206	0.246	0.280	0.230	0.261	0.270	0.236	0.257	0.239	0.204	0.208	0.255	0.218	0.264	0.222	0.265
250.0	48.09	148.4	239.1	283.1	1245	2879	3278	1052	54.48	6.972	4.995	4.584	3.534	3.353	2.492	2.075	1.596	1.698	1.298	1.194	0.937	1.122	0.903	1.006	0.906	0.759	0.793	0.745	0.717	0.626	0.592	0.599	0.550	0.464	0.444	0.440	0.401	0.366	0.375	0.354	0.291	0.383	0.307	0.351	0.299	0.367	0.484	0.780	0.909	0.726	0.719	1.193	2.678	5.675	10.24	14.95	17.46	14.10	7.068	1.810	0.381	0.237	0.240	0.266	0.261	0.243	0.222	0.235	0.233	0.273	0.233	0.220	0.218	0.212	0.249	0.190	0.254
255.0	27.84	57.34	186.5	345.7	372.2	763.0	2959	4905	1429	45.85	7.947	6.635	4.747	3.921	3.001	2.273	1.858	1.559	1.410	1.213	1.172	1.060	1.049	1.015	0.982	0.749	0.863	0.628	0.741	0.591	0.683	0.603	0.561	0.393	0.381	0.405	0.379	0.328	0.331	0.309	0.279	0.318	0.283	0.313	0.267	0.284	0.346	0.404	0.543	0.790	1.440	1.291	1.076	1.555	2.551	3.875	7.373	17.49	27.49	23.55	10.07	1.908	0.323	0.245	0.252	0.336	0.237	0.272	0.208	0.260	0.241	0.268	0.275	0.222	0.284	0.229	0.234
260.0	24.48	38.78	77.23	319.7	342.8	226.1	953.7	4511	5150	296.8	19.90	8.832	5.459	3.562	3.396	2.782	2.138	1.745	1.503	1.119	1.233	1.016	1.211	0.909	0.946	0.949	0.859	0.776	0.665	0.786	0.729	0.628	0.491	0.421	0.382	0.380	0.432	0.392	0.390	0.347	0.321	0.366	0.348	0.321	0.306	0.233	0.327	0.299	0.326	0.441	0.951	1.775	1.740	1.063	0.876	1.154	1.998	5.051	13.47	26.55	31.84	21.82	7.166	0.943	0.290	0.326	0.237	0.256	0.251	0.300	0.276	0.210	0.282	0.258	0.258	0.251	0.252
265.0	31.55	27.30	32.54	155.4	429.3	251.0	253.7	1647	6027	4689	223.2	13.69	6.206	4.968	3.789	2.576	2.468	1.997	1.657	1.224	1.169	1.123	1.222	0.923	0.969	0.955	0.943	0.833	0.669	0.753	0.706	0.729	0.503	0.490	0.373	0.492	0.437	0.349	0.331	0.317	0.272	0.402	0.344	0.371	0.302	0.300	0.253	0.274	0.246	0.300	0.468	0.986	1.891	2.215	1.308	0.703	0.746	1.473	3.402	8.263	20.12	35.39	31.31	17.76	3.774	0.465	0.220	0.260	0.246	0.274	0.250	0.256	0.233	0.227	0.256	0.219	0.266
270.0	41.34	33.18	26.13	56.82	216.7	439.0	300.2	430.5	2046	5364	4893	901.9	42.33	6.761	4.354	3.391	2.746	2.541	1.953	1.547	1.374	1.122	1.320	1.021	1.092	0.950	0.935	0.893	0.911	0.718	0.704	0.702	0.553	0.518	0.440	0.431	0.469	0.429	0.329	0.371	0.342	0.367	0.365	0.351	0.370	0.330	0.271	0.294	0.283	0.294	0.300	0.446	0.752	1.264	1.965	2.139	1.827	1.135	1.067	2.143	5.045	10.75	18.63	28.86	30.47	28.05	12.70	3.399	0.477	0.284	0.253	0.251	0.243	0.256	0.260	0.227	0.278
275.0	72.04	52.97	41.79	37.56	78.70	215.3	564.9	354.2	520.8	1426	4807	9429	1171	34.12	7.213	4.917	3.506	2.922	1.876	2.037	1.563	1.591	1.314	1.031	1.125	1.033	1.009	0.771	0.900	0.801	0.826	0.821	0.623	0.596	0.586	0.524	0.506	0.404	0.374	0.445	0.430	0.401	0.391	0.416	0.373	0.388	0.416	0.393	0.445	0.328	0.262	0.326	0.421	0.517	0.770	1.277	2.522	3.186	2.105	1.116	1.551	2.851	4.627	7.026	10.31	23.97	43.75	32.48	18.97	3.616	0.375	0.314	0.298	0.290	0.236	0.194	0.299
280.0	101.7	99.84	69.75	46.77	50.07	94.06	400.6	637.6	292.3	411.4	1536	8541	7197	173.1	14.90	6.012	3.974	3.639	2.300	2.038	1.931	1.639	1.407	1.321	0.984	1.025	1.056	0.833	0.855	0.854	0.711	0.784	0.647	0.647	0.664	0.597	0.512	0.425	0.398	0.422	0.375	0.427	0.455	0.483	0.442	0.431	0.461	0.448	0.444	0.370	0.329	0.340	0.376	0.351	0.460	0.635	1.126	2.349	3.556	2.870	1.456	1.164	1.624	2.108	2.834	6.452	16.70	34.12	50.86	30.41	12.60	1.342	0.283	0.333	0.288	0.230	0.255
285.0	135.0	148.9	100.5	61.78	54.85	68.08	181.6	632.3	403.5	243.0	472.5	2917	8470	5412	125.8	8.927	5.098	3.800	2.705	2.312	1.837	1.776	1.525	1.441	1.077	1.104	0.991	0.897	0.768	0.884	0.782	0.718	0.659	0.614	0.720	0.586	0.524	0.515	0.414	0.435	0.406	0.444	0.482	0.552	0.556	0.559	0.591	0.498	0.475	0.410	0.330	0.392	0.385	0.441	0.387	0.509	0.714	1.123	2.170	3.576	3.510	2.193	1.256	1.101	1.208	2.095	4.497	9.725	23.38	44.02	51.34	24.05	6.303	0.587	0.353	0.291	0.288
290.0	181.6	203.3	163.6	104.2	78.32	88.67	123.1	301.8	639.5	586.3	322.4	841.0	2767	6277	5706	495.2	23.81	5.466	3.639	2.739	2.044	1.890	1.799	1.403	1.238	1.198	0.999	1.089	0.904	0.868	0.751	0.788	0.733	0.691	0.823	0.653	0.654	0.587	0.538	0.512	0.498	0.573	0.489	0.564	0.661	0.625	0.605	0.714	0.637	0.535	0.481	0.496	0.462	0.496	0.456	0.562	0.611	0.767	0.985	1.616	2.392	3.369	3.535	2.626	1.622	1.322	1.942	3.100	6.150	12.22	22.19	30.70	32.39	33.16	16.17	5.267	0.629
295.0	210.8	257.1	221.9	163.8	132.2	127.6	149.6	216.2	367.8	835.1	778.9	492.1	840.7	1681	4803	6981	657.6	18.47	5.471	3.437	2.766	2.413	1.926	1.577	1.371	1.266	1.032	1.109	0.967	1.085	0.877	0.848	0.885	0.728	0.845	0.758	0.720	0.553	0.610	0.539	0.496	0.534	0.550	0.600	0.695	0.794	0.830	0.815	0.825	0.680	0.649	0.633	0.626	0.733	0.588	0.741	0.680	0.793	0.919	1.176	1.348	1.728	2.588	4.232	4.641	2.821	1.962	1.959	2.675	3.713	5.849	7.677	9.627	21.09	41.68	36.12	23.80
300.0	239.7	309.7	270.3	211.3	176.6	174.8	203.4	257.6	329.9	611.2	1174	717.8	519.0	600.4	1512	6357	5685	97.44	10.21	4.529	3.398	2.770	2.180	1.913	1.643	1.301	1.101	1.101	1.115	1.068	0.911	0.921	0.896	0.820	0.788	0.828	0.691	0.633	0.601	0.573	0.585	0.677	0.571	0.725	0.735	0.755	0.887	1.022	0.965	0.869	0.758	0.878	0.861	0.833	0.905	0.872	1.055	1.026	1.197	1.345	1.314	1.553	1.766	2.938	4.511	5.472	4.199	2.428	2.231	2.197	2.617	2.841	3.076	5.737	13.66	28.67	48.42
305.0	279.1	351.9	341.4	267.2	238.9	242.7	280.0	352.3	407.9	603.6	1090	1309	700.1	500.3	606.6	2218	7154	4231	73.48	6.685	4.175	3.098	2.476	2.185	1.880	1.393	1.471	1.150	1.282	1.087	1.047	0.851	0.756	0.845	0.855	0.827	0.670	0.622	0.661	0.631	0.576	0.558	0.561	0.711	0.719	0.915	0.921	0.950	1.065	0.940	0.861	0.947	1.101	1.099	1.038	1.063	1.239	1.509	1.640	1.676	1.748	2.080	2.091	2.390	3.347	4.643	5.997	5.464	3.695	2.660	2.461	2.156	2.273	2.669	4.329	8.069	19.43
310.0	291.7	390.4	405.5	335.0	299.4	313.8	365.6	444.4	537.8	674.8	910.9	1310	1265	714.9	515.8	755.3	2402	5109	4519	327.1	16.60	4.209	3.386	2.513	2.138	1.745	1.631	1.396	1.386	1.248	1.022	0.832	0.945	0.936	0.816	0.880	0.748	0.766	0.623	0.634	0.608	0.598	0.652	0.712	0.838	0.938	1.001	1.186	1.204	1.107	1.082	1.174	1.224	1.203	1.355	1.352	1.505	1.767	1.772	2.019	2.183	2.309	2.568	2.871	3.338	3.571	4.219	5.205	5.652	5.223	4.297	3.006	2.459	2.358	2.508	3.234	5.578
315.0	345.4	451.8	494.1	415.4	351.7	370.7	438.8	515.9	619.9	739.0	907.6	1076	1289	1214	646.0	493.1	793.0	1377	3795	4964	462.5	13.56	4.624	3.327	2.216	2.031	1.798	1.525	1.502	1.333	1.206	0.953	0.908	0.796	0.874	0.903	0.813	0.639	0.752	0.657	0.674	0.694	0.686	0.755	0.887	1.209	1.189	1.342	1.442	1.466	1.258	1.403	1.468	1.520	1.531	1.653	1.755	1.913	2.119	2.313	2.533	2.418	2.784	3.028	3.364	3.533	3.924	4.342	4.405	5.068	5.887	5.556	3.684	2.811	2.514	2.251	2.775
320.0	450.3	700.9	727.3	532.6	421.2	412.4	488.4	570.6	682.7	819.6	978.7	1115	1174	1374	983.4	526.5	489.7	497.4	1132	4686	4194	70.55	8.181	3.874	2.853	2.374	1.883	1.882	1.436	1.462	1.247	1.053	0.917	0.868	0.914	0.893	0.841	0.761	0.806	0.673	0.735	0.781	0.816	0.941	1.094	1.605	1.767	2.082	2.010	1.771	1.661	1.696	1.519	1.659	1.779	1.709	2.093	2.278	2.395	2.468	2.743	2.849	2.942	3.349	3.689	3.691	4.012	4.297	4.470	4.529	4.994	6.078	5.801	4.649	3.215	2.602	2.382
325.0	620.1	1023	1140	755.0	505.0	471.8	525.0	621.6	733.7	898.5	1063	1202	1193	1224	1261	714.3	469.7	336.6	368.3	1540	5184	3264	57.14	5.819	3.259	2.717	2.234	1.844	1.598	1.437	1.193	1.034	1.024	1.114	0.905	0.805	0.851	0.725	0.840	0.787	0.788	0.784	0.953	1.021	1.397	1.693	2.461	3.080	3.149	2.542	2.125	2.141	1.969	1.808	1.896	1.933	2.303	2.378	2.642	2.796	2.783	3.082	3.170	3.706	3.639	4.442	4.385	4.619	4.593	4.622	4.861	5.258	5.846	6.275	5.202	3.461	2.841
330.0	746.2	1269	1535	1102	709.1	561.4	559.5	662.5	768.2	933.9	1113	1238	1240	1158	1131	1018	642.7	366.8	255.3	458.7	1641	3746	4135	258.2	15.53	4.116	2.707	2.197	1.727	1.731	1.543	1.187	1.121	1.083	0.944	0.969	0.845	0.790	0.769	0.740	0.815	0.898	0.929	1.190	1.481	2.024	2.857	3.785	4.075	3.682	3.107	3.170	2.737	2.566	2.216	2.159	2.463	2.416	2.542	2.881	2.754	3.226	3.472	3.792	4.014	4.357	4.558	4.795	4.960	4.810	4.847	4.785	4.810	5.311	5.125	5.054	4.497
335.0	851.3	1453	1804	1423	997.8	712.7	623.7	707.8	801.5	986.2	1149	1292	1301	1209	1060	970.7	941.8	534.2	306.8	278.7	493.4	977.1	3316	3890	391.1	15.00	4.125	2.893	2.014	1.665	1.698	1.317	1.168	1.120	0.892	0.888	0.810	0.858	0.743	0.938	0.863	0.894	0.990	1.198	1.539	2.183	3.157	4.277	5.069	4.445	3.941	4.491	3.707	3.386	2.645	2.400	2.697	2.667	2.625	3.041	3.082	3.305	3.548	4.085	4.080	4.718	4.804	4.854	5.206	5.158	4.951	5.162	4.967	4.884	4.567	4.364	4.807
340.0	855.0	1559	2004	1608	1139	804.5	677.0	728.2	831.6	995.0	1164	1303	1308	1232	1072	903.7	927.5	761.8	392.6	279.0	272.0	333.2	966.9	3586	3452	309.2	7.452	3.803	2.513	2.079	1.710	1.477	1.382	1.108	0.961	0.824	0.786	0.913	0.764	0.885	0.782	0.934	1.040	1.318	1.775	2.423	3.477	4.477	5.301	4.865	4.549	4.824	4.292	3.670	3.218	2.631	3.056	2.859	2.856	2.999	3.311	3.504	3.555	4.125	4.376	4.554	4.971	4.872	5.188	5.220	5.229	4.861	4.758	4.673	4.589	4.177	4.258
345.0	785.8	1516	1965	1690	1235	888.8	722.3	743.2	829.4	987.4	1134	1273	1279	1215	1074	892.9	813.4	838.8	564.5	324.4	256.7	220.3	315.1	1151	4022	2976	50.61	5.312	3.020	2.572	1.823	1.538	1.296	1.410	1.063	0.925	0.915	0.897	0.770	0.897	0.805	0.985	0.898	1.327	1.606	2.452	3.307	4.325	5.210	4.901	4.660	5.111	4.674	3.921	3.306	3.047	2.865	2.691	2.920	3.021	3.267	3.529	3.582	3.903	4.144	4.372	4.697	4.585	5.089	4.968	5.024	5.043	5.060	5.000	4.526	4.110	3.945
350.0	757.4	1391	1842	1686	1332	986.8	797.3	783.1	841.1	951.4	1099	1220	1233	1186	1065	907.0	781.7	731.5	706.7	509.8	323.5	247.4	215.4	352.8	1241	3058	2782	228.7	15.69	3.486	2.186	1.729	1.422	1.337	1.108	0.985	1.004	0.919	0.813	0.796	0.816	0.925	0.895	1.245	1.606	2.289	2.941	3.994	4.855	4.816	4.749	5.253	4.790	4.359	3.674	3.492	3.243	3.005	3.134	3.210	3.279	3.541	3.716	3.918	3.918	4.292	4.481	4.457	4.814	4.894	4.741	4.880	4.800	5.021	4.405	4.334	4.090
355.0	681.1	1248	1728	1662	1405	1107	905.1	856.4	881.6	964.8	1089	1176	1194	1157	1067	928.1	819.6	714.8	654.3	678.6	486.8	317.2	246.6	215.7	364.8	771.8	2002	3321	371.5	15.76	3.253	2.052	1.812	1.490	1.166	1.171	0.977	1.022	0.769	0.787	0.854	0.846	0.914	1.174	1.656	1.947	2.703	3.705	4.428	4.387	4.562	5.115	4.952	4.582	4.036	3.694	3.802	3.400	3.395	3.503	3.309	3.571	3.959	4.148	4.186	4.279	4.207	4.339	4.565	4.701	4.668	5.270	4.694	4.805	4.644	4.483	4.290
360.0	636.3	1144	1610	1586	1431	1174	973.4	908.7	926.1	987.3	1077	1157	1171	1134	1059	937.8	838.9	734.0	644.9	653.6	642.4	412.1	288.2	219.7	200.2	252.5	571.0	2599	3090	297.7	8.358	2.674	2.036	1.586	1.452	1.191	0.985	0.972	0.798	0.706	0.954	0.840	0.961	1.065	1.456	1.980	2.309	3.456	3.983	4.135	4.418	5.208	4.972	4.987	4.244	4.048	3.794	3.767	3.480	3.536	3.609	3.736	3.859	4.100	4.059	4.129	4.160	4.625	4.353	4.722	4.710	4.922	4.580	4.504	4.487	4.600	4.209
365.0	610.5	1056	1484	1564	1458	1215	1029	947.0	949.5	1006	1082	1125	1140	1117	1046	947.4	854.3	766.8	670.5	617.4	663.7	562.9	349.9	256.1	192.5	162.6	199.3	786.7	3097	2631	49.66	5.412	2.676	2.345	1.473	1.209	1.114	0.875	0.948	0.849	0.840	0.853	0.964	1.133	1.421	1.735	2.275	2.972	3.847	3.961	4.120	4.967	4.654	5.061	4.270	4.062	3.984	3.912	3.727	3.614	3.801	3.774	4.145	4.162	4.272	4.349	4.361	4.478	4.444	4.521	4.455	4.625	4.621	4.509	4.664	4.757	4.483
370.0	578.4	971.2	1367	1498	1428	1252	1106	1013	980.1	1021	1075	1108	1111	1084	1025	943.3	871.2	793.7	709.8	641.2	615.7	624.9	508.7	334.6	241.0	184.2	149.9	248.2	919.8	2352	2488	209.0	14.87	3.054	2.013	1.622	1.182	1.075	0.944	0.912	0.886	0.930	0.941	1.087	1.308	1.634	2.061	2.890	3.463	3.663	4.029	4.815	4.760	5.119	4.579	4.357	4.209	4.003	4.081	3.942	3.866	3.945	4.009	3.944	4.184	4.356	4.332	4.181	4.283	4.096	4.302	4.343	4.428	4.444	4.545	4.594	4.469
375.0	521.5	887.0	1243	1416	1400	1274	1150	1057	1011	1031	1084	1093	1088	1057	994.0	933.4	867.5	806.9	745.9	679.4	624.9	584.6	602.6	484.6	315.9	237.9	180.7	161.8	277.9	591.4	1620	2910	332.4	15.72	3.275	2.181	1.433	1.252	1.036	1.035	0.830	0.868	0.940	1.070	1.299	1.675	1.933	2.727	3.238	3.284	3.877	4.832	4.767	4.906	4.950	4.564	4.585	4.162	3.882	3.869	4.085	4.158	3.844	3.911	4.079	4.015	4.158	4.391	4.433	4.511	4.288	4.189	4.267	4.516	4.259	4.259	4.654
380.0	477.9	820.5	1176	1365	1391	1291	1178	1078	1017	1036	1082	1082	1073	1036	964.9	914.8	855.6	813.0	752.3	698.8	642.7	590.4	577.4	584.2	414.1	288.3	220.0	169.1	155.7	197.2	455.9	2120	2584	257.9	8.392	3.211	2.239	1.392	1.045	1.004	0.830	0.906	0.972	0.976	1.222	1.637	1.857	2.572	3.118	3.226	3.710	4.665	4.767	4.825	4.819	4.605	4.764	4.377	4.113	3.929	4.379	4.056	3.937	4.104	4.106	4.034	4.247	4.283	4.377	4.185	4.050	3.980	4.098	4.669	4.311	4.571	4.183
385.0	453.7	771.4	1097	1315	1360	1286	1189	1103	1035	1046	1069	1059	1046	1008	945.7	895.2	844.3	800.8	762.3	707.0	662.8	609.4	560.8	577.8	522.0	349.5	260.4	201.6	156.0	129.9	161.3	624.8	2368	2105	41.11	6.577	3.407	2.019	1.203	1.219	0.947	0.885	1.009	1.065	1.171	1.543	1.822	2.680	2.900	2.945	3.484	4.284	4.693	4.783	4.563	4.486	4.741	4.510	4.151	4.100	4.014	3.680	4.107	4.134	4.088	4.080	4.156	4.164	4.084	4.180	4.165	4.158	4.071	4.344	4.368	4.003	4.337
390.0	452.2	727.9	1032	1248	1326	1274	1204	1102	1043	1051	1072	1058	1038	993.9	936.6	876.5	833.4	788.2	759.3	716.3	679.5	636.1	591.7	564.4	561.7	491.9	355.1	270.4	215.9	171.5	141.9	215.8	700.7	1764	1859	533.2	16.61	4.864	2.243	1.511	1.109	1.036	1.052	1.024	1.103	1.483	1.741	2.439	2.711	3.000	3.314	4.297	4.511	4.798	4.452	4.574	4.709	4.750	4.503	4.197	4.073	4.026	4.066	4.124	3.903	4.051	3.920	3.881	3.949	3.966	3.997	4.071	3.982	4.040	4.111	4.012	4.281
395.0	424.5	693.4	992.6	1169	1264	1256	1214	1139	1086	1092	1130	1121	1103	1044	964.7	887.7	836.2	787.3	761.0	736.0	710.2	687.8	655.4	633.0	604.8	609.5	508.8	415.0	342.5	287.6	235.3	206.8	274.9	494.3	1200	2365	281.9	20.98	5.075	2.318	1.523	1.091	1.088	1.062	1.194	1.439	1.654	2.229	2.665	3.022	3.257	4.017	4.393	4.378	4.488	4.418	4.494	4.631	4.638	4.417	4.162	3.909	4.268	4.230	4.222	4.099	3.836	3.974	4.100	3.967	4.013	3.969	3.977	4.093	4.240	4.172	4.407
400.0	414.4	654.9	958.3	1147	1248	1241	1220	1156	1135	1174	1230	1254	1212	1140	1039	933.7	851.6	799.7	775.4	766.2	758.1	750.5	738.0	721.0	703.2	698.3	709.7	610.2	480.2	433.4	369.9	302.5	261.0	264.1	418.6	1686	1991	228.7	12.83	3.774	2.115	1.328	1.221	1.111	1.186	1.548	1.663	2.212	2.516	3.058	3.164	3.892	4.512	4.331	4.547	4.453	4.748	4.683	4.628	4.563	4.124	4.324	4.086	4.442	4.330	4.173	4.239	4.230	4.187	4.181	3.956	3.932	4.198	4.027	4.017	4.342	3.956
405.0	391.5	656.0	890.8	1097	1213	1222	1216	1179	1191	1261	1355	1388	1340	1265	1133	992.3	887.4	816.9	790.3	798.0	801.0	813.3	824.7	833.7	826.3	821.3	845.6	828.2	691.6	604.2	532.3	427.3	352.6	285.1	273.1	594.2	1818	1600	38.51	6.273	2.491	1.556	1.312	1.321	1.375	1.534	1.594	2.166	2.653	2.825	3.117	4.022	4.559	4.453	4.500	4.775	4.870	4.807	4.649	4.680	4.371	4.413	4.432	4.315	4.448	4.396	4.574	4.522	4.267	4.434	4.137	4.203	4.228	3.949	4.166	4.349	4.084
410.0	384.8	601.5	862.1	1049	1178	1215	1216	1204	1239	1331	1439	1496	1457	1351	1203	1034	899.5	813.8	789.2	800.2	825.1	853.4	887.8	919.3	934.1	938.7	941.7	950.8	900.4	780.4	683.7	573.7	455.7	358.3	295.6	311.3	606.0	1332	1415	403.7	11.86	2.206	1.709	1.482	1.491	1.542	1.770	2.152	2.543	2.668	3.106	3.747	4.200	4.567	4.406	4.642	4.900	4.919	4.631	4.659	4.484	4.693	4.568	4.529	4.487	4.517	4.549	4.392	4.309	4.423	4.495	4.333	4.323	4.068	3.882	4.167	3.841
415.0	355.6	574.1	806.0	989.4	1114	1168	1185	1188	1239	1322	1417	1466	1416	1312	1167	996.6	855.0	774.7	751.4	765.0	792.1	832.4	870.3	906.1	932.0	946.7	941.3	924.7	921.9	858.2	722.4	603.5	479.7	374.5	304.2	249.8	252.3	367.5	863.4	1673	245.4	10.99	2.465	1.599	1.576	1.675	1.757	2.214	2.421	2.665	3.076	3.573	3.963	4.429	4.481	4.434	4.850	4.767	4.694	4.628	4.828	4.515	4.226	4.499	4.746	4.364	4.421	4.212	4.246	4.379	4.352	4.202	4.159	3.850	3.679	3.847	3.825
420.0	337.8	554.4	753.6	975.7	1080	1143	1178	1189	1203	1269	1361	1401	1349	1242	1102	944.5	814.5	739.1	715.3	726.4	755.7	789.8	828.7	869.6	900.2	913.4	908.0	883.3	859.6	846.3	740.1	597.4	471.1	370.2	294.9	227.1	169.1	141.8	244.7	1136	1483	189.7	5.200	2.034	1.614	1.790	1.661	2.121	2.437	2.663	2.973	3.479	3.879	4.397	4.232	4.349	4.472	4.735	4.645	4.626	4.629	4.556	4.226	4.479	4.359	3.964	4.219	3.922	4.133	4.025	4.112	4.182	3.903	3.876	3.623	3.434	3.601
425.0	323.9	540.2	739.7	936.2	1052	1104	1154	1186	1195	1233	1329	1353	1296	1210	1054	910.3	779.3	710.0	691.3	700.8	727.5	760.5	804.2	844.8	873.6	894.0	887.4	866.3	831.8	812.8	765.7	616.8	474.0	372.9	297.0	227.3	154.4	92.45	84.99	326.4	1304	1216	33.74	3.065	1.829	1.814	1.749	1.976	2.244	2.397	2.747	3.657	3.943	3.882	4.108	4.444	4.685	4.788	4.708	4.524	4.651	4.499	3.884	4.394	4.290	4.191	4.017	3.881	3.960	3.841	3.941	3.871	3.517	3.713	3.761	3.777	3.484
430.0	392.0	513.6	710.5	876.0	1024	1111	1171	1197	1209	1250	1332	1350	1294	1195	1044	897.6	761.6	692.3	669.1	682.5	709.2	743.7	794.4	843.8	884.7	905.6	907.7	891.9	858.0	820.4	784.0	683.9	524.7	404.0	322.1	246.6	166.7	93.15	55.57	92.29	367.3	986.5	1229	141.4	9.662	2.197	1.978	2.155	2.345	2.391	2.599	3.663	3.784	3.895	4.139	4.347	4.685	4.888	4.739	4.690	4.663	4.496	4.235	4.402	4.107	4.181	4.033	4.062	4.047	3.961	3.788	3.592	3.504	3.673	3.400	3.616	3.346
435.0	715.9	524.2	702.4	871.6	997.4	1118	1207	1219	1228	1260	1325	1345	1278	1175	1032	878.8	745.5	673.3	654.8	658.1	688.6	719.5	777.6	833.6	878.5	905.4	919.1	906.3	879.6	836.9	783.0	708.1	585.9	439.4	346.9	268.7	182.8	102.6	54.49	43.87	96.97	237.0	775.6	1363	222.7	9.245	2.420	2.276	2.429	2.364	2.569	3.538	3.710	3.935	4.048	4.471	4.693	4.739	4.732	4.543	4.742	4.619	4.274	4.431	4.181	4.069	3.996	3.956	4.180	4.090	3.719	3.595	3.589	3.687	3.542	3.555	3.287
440.0	1062	581.7	660.3	829.5	984.4	1115	1212	1246	1228	1239	1282	1283	1224	1130	989.0	837.2	716.3	653.7	633.5	637.7	653.0	693.6	744.0	794.7	842.4	867.9	891.8	879.4	849.7	815.6	754.4	675.2	584.7	454.6	347.8	269.5	185.3	107.3	57.72	35.77	39.44	65.60	210.0	996.9	1274	168.2	4.769	2.643	2.536	2.460	2.765	3.575	3.536	3.806	3.968	4.295	4.767	4.713	4.828	4.500	4.698	4.693	4.069	4.049	4.038	4.043	3.805	3.689	3.788	3.895	3.468	3.587	3.430	3.386	3.313	3.368	3.348
445.0	1175	817.0	663.3	835.4	959.4	1102	1196	1236	1206	1181	1204	1192	1147	1060	932.4	795.8	679.1	623.5	606.9	606.6	614.4	648.6	689.4	743.6	778.8	806.9	824.1	818.0	794.3	755.0	703.7	619.2	531.7	449.7	343.6	257.9	179.7	106.3	58.70	37.41	28.95	29.24	58.06	291.0	1189	1080	27.72	3.549	2.626	2.543	2.620	3.199	3.463	3.952	4.077	4.191	4.624	4.986	4.661	4.614	4.491	4.506	4.147	3.836	3.805	3.975	3.687	3.395	3.654	3.358	3.412	3.497	3.295	3.308	3.142	3.133	3.306
450.0	772.2	1398	766.6	792.7	934.2	1069	1169	1186	1126	1091	1091	1075	1026	943.9	833.7	718.9	621.2	568.9	557.5	551.0	551.3	574.9	614.2	652.3	685.9	712.7	726.2	721.7	701.0	674.5	623.4	547.9	460.9	398.2	333.1	245.7	167.6	103.0	61.91	40.91	29.64	23.41	25.63	75.13	337.4	914.7	1003	125.8	8.852	2.602	2.661	3.377	3.485	3.791	3.874	3.986	4.689	4.882	4.777	4.625	4.514	4.304	4.050	3.642	3.584	3.625	3.425	3.124	3.247	3.192	3.233	3.134	3.018	3.088	2.925	3.011	2.956
455.0	371.5	1454	1259	754.8	875.5	1027	1117	1132	1053	1015	975.0	962.3	910.7	841.1	741.2	642.6	563.3	520.2	503.7	498.0	487.8	508.6	543.4	572.9	607.6	627.6	639.3	636.8	623.0	596.8	555.7	485.7	402.7	341.1	300.1	246.1	163.4	100.5	62.98	44.37	32.20	24.53	20.67	28.13	84.21	218.6	602.4	1159	183.3	8.782	2.875	3.227	3.395	3.793	3.684	3.989	4.662	4.629	4.595	4.316	4.088	4.183	3.641	3.535	3.288	3.305	3.051	2.963	2.880	3.006	2.964	2.730	2.956	2.965	2.712	2.719	2.699
460.0	273.7	974.5	1824	866.6	847.1	981.9	1081	1088	1012	932.4	915.2	894.0	832.2	767.8	676.0	596.5	522.7	484.3	467.2	460.7	451.7	464.9	493.7	521.3	554.2	572.4	583.0	581.7	570.9	548.8	511.2	452.8	375.9	312.7	269.1	238.0	169.7	102.0	64.34	45.77	34.35	26.39	20.92	18.89	28.40	56.78	159.0	806.5	1025	138.7	5.200	3.275	3.276	3.479	3.544	3.887	4.492	4.408	4.292	4.175	4.046	3.953	3.519	3.302	3.124	3.148	2.906	2.799	2.744	2.647	2.826	2.677	2.841	2.852	2.386	2.458	2.404
465.0	253.6	578.3	1993	1244	787.3	934.3	1019	1026	957.2	871.2	862.5	836.9	772.5	710.1	628.0	554.0	486.4	447.4	431.3	429.5	418.2	426.7	452.4	478.2	509.3	522.5	537.6	536.4	527.6	509.9	477.0	422.6	351.1	291.4	243.2	216.2	174.1	106.3	64.67	46.01	35.11	27.92	21.81	18.02	16.86	21.31	42.42	231.0	933.4	857.1	23.70	4.093	3.453	3.464	3.602	3.727	4.279	4.233	4.005	4.241	3.667	3.847	3.464	3.145	3.085	2.969	2.648	2.662	2.497	2.451	2.467	2.370	2.463	2.537	2.405	2.435	2.427
470.0	233.9	384.6	1264	1999	911.6	840.7	920.6	938.8	870.7	789.5	762.4	739.3	682.2	629.3	555.9	489.8	433.9	396.7	386.6	379.4	368.3	373.2	394.3	418.8	438.7	456.8	468.3	470.7	462.0	446.8	419.5	372.9	312.6	257.9	217.9	183.1	152.2	113.6	70.63	47.20	36.33	29.08	23.15	18.57	15.63	14.12	17.10	57.82	261.7	683.2	711.1	119.6	9.342	3.669	3.406	3.527	3.904	3.854	3.804	3.747	3.473	3.430	3.087	2.788	2.995	2.702	2.510	2.386	2.369	2.318	2.327	2.148	2.144	2.158	2.155	2.297	2.112
475.0	230.6	319.3	629.8	1964	1539	756.6	820.0	842.9	774.6	689.3	661.2	637.1	586.1	534.9	478.3	424.7	377.5	343.5	337.3	328.6	318.3	318.2	333.4	354.2	368.9	383.4	393.5	395.8	389.4	378.6	357.7	316.0	267.6	223.2	189.7	156.4	124.9	102.2	79.55	51.57	37.14	29.36	24.84	19.85	16.30	13.45	12.05	19.85	64.09	160.6	379.7	791.5	181.4	10.25	3.322	3.147	3.550	3.631	3.749	3.288	3.292	2.960	2.726	2.700	2.580	2.469	2.277	2.199	2.142	1.941	2.037	1.950	1.923	1.791	2.057	1.992	2.048
480.0	231.5	285.8	426.4	1308	2208	855.5	755.5	761.2	708.4	634.7	597.7	566.4	530.6	478.1	429.0	380.2	336.8	314.1	307.9	293.7	280.7	286.1	294.2	311.1	325.5	335.3	342.8	346.4	341.8	335.2	313.7	279.4	236.1	200.9	168.3	139.8	109.2	87.17	79.52	57.30	38.78	29.21	24.78	19.99	16.46	13.96	11.56	11.57	20.14	40.76	97.23	484.8	771.9	151.8	5.408	3.341	3.329	3.127	3.387	3.111	3.020	2.643	2.474	2.510	2.370	2.167	2.111	2.043	1.901	1.928	1.931	1.720	1.752	1.636	1.722	1.729	1.790
485.0	205.1	293.4	358.8	748.6	2392	1248	700.7	702.6	638.9	585.4	545.0	515.9	483.3	438.7	382.5	341.6	312.5	288.7	278.1	266.3	255.3	255.0	263.9	278.6	290.2	299.7	306.0	306.5	307.3	297.3	280.0	250.0	214.6	182.6	153.1	128.7	100.1	76.64	69.69	62.28	43.35	30.11	25.85	20.34	17.47	14.65	12.46	10.48	10.77	14.39	26.41	134.8	626.9	691.6	28.05	4.253	3.220	3.307	3.172	3.037	2.620	2.569	2.330	2.207	2.007	2.003	1.757	1.823	1.749	1.711	1.686	1.551	1.621	1.616	1.557	1.618	1.625
490.0	164.7	297.9	332.2	469.8	1538	1993	801.9	632.1	580.0	523.7	485.9	457.8	425.5	384.5	341.7	302.2	275.8	255.2	247.3	235.0	224.0	224.0	229.6	243.2	254.0	259.7	264.1	267.0	266.4	258.8	245.6	218.7	189.1	163.3	137.5	114.1	90.77	71.12	59.74	56.91	50.56	35.02	26.43	21.38	18.24	15.38	12.99	11.04	9.323	8.917	10.60	34.57	169.4	477.8	619.8	124.7	10.99	3.226	3.004	2.678	2.507	2.425	2.310	1.971	1.877	1.969	1.716	1.660	1.704	1.702	1.587	1.554	1.523	1.597	1.384	1.486	1.487
495.0	140.5	252.4	335.2	374.4	743.8	1977	1395	563.6	514.1	460.7	425.6	408.9	371.8	332.0	299.5	268.1	242.0	223.5	214.7	206.6	196.8	194.3	196.1	208.3	216.3	226.4	229.4	228.9	227.4	224.7	211.9	191.1	165.0	142.5	120.4	102.8	82.05	64.79	53.01	47.17	47.56	42.71	28.78	21.71	18.49	16.34	13.28	11.90	9.681	8.298	7.801	12.44	41.93	112.1	322.6	752.6	211.2	12.09	2.826	2.388	2.287	2.093	2.062	1.841	1.612	1.780	1.646	1.451	1.599	1.632	1.381	1.368	1.431	1.352	1.390	1.322	1.319
500.0	112.4	221.4	340.5	330.6	462.6	1326	2014	611.6	465.4	422.7	382.6	364.0	336.5	300.7	269.4	243.9	219.8	203.0	193.8	183.6	180.1	175.1	175.6	186.4	192.8	199.9	201.3	204.3	201.8	199.0	188.4	170.9	147.8	129.3	109.2	94.03	76.26	61.01	48.89	41.55	40.55	43.19	32.41	23.02	18.11	15.51	13.47	11.90	10.52	8.370	7.166	7.533	13.74	28.82	82.10	430.5	753.3	171.5	6.244	2.424	2.300	2.087	1.961	1.768	1.610	1.559	1.487	1.428	1.389	1.312	1.240	1.195	1.324	1.401	1.129	1.105	1.237
505.0	107.1	188.6	323.9	327.3	366.2	742.0	2196	932.8	417.4	384.1	351.6	328.3	304.1	271.2	240.0	217.9	199.4	182.8	175.4	167.3	159.2	156.9	158.6	165.0	171.3	176.6	178.3	181.7	181.4	177.4	166.0	153.9	135.3	115.8	99.45	84.77	70.46	55.84	46.25	38.83	35.02	38.16	35.48	25.07	18.21	15.33	13.80	11.59	10.13	8.532	7.161	6.304	7.101	10.34	21.92	115.3	534.2	673.7	31.21	3.635	2.284	2.012	1.886	1.639	1.561	1.374	1.372	1.199	1.250	1.343	1.323	1.200	1.238	1.221	0.986	1.046	1.271
510.0	91.93	152.7	256.7	330.5	311.3	433.1	1397	1717	481.8	331.9	302.3	284.7	258.9	235.9	208.1	185.9	170.0	155.9	149.8	143.6	135.3	134.0	136.2	141.3	144.6	149.2	150.5	152.9	154.0	149.6	141.5	129.8	115.0	98.32	85.80	73.44	61.55	50.06	40.96	34.80	31.04	30.14	32.56	28.82	20.27	15.30	13.18	11.17	9.528	8.530	7.441	6.644	6.041	6.594	8.621	29.31	140.0	410.1	526.3	132.8	10.88	1.944	1.662	1.604	1.457	1.185	1.273	1.207	1.225	1.243	1.157	1.087	1.103	1.139	1.023	0.956	1.063
515.0	83.90	129.7	192.6	310.5	301.2	319.9	602.4	1847	1000	295.9	261.5	246.1	221.8	200.2	178.6	155.2	145.4	130.9	128.0	121.0	113.2	111.6	112.9	117.0	119.3	122.2	124.4	127.8	127.3	124.7	118.0	109.2	97.11	83.08	73.64	62.77	53.56	44.38	36.71	31.54	27.13	25.10	24.66	28.34	24.08	17.04	12.45	10.77	9.478	8.440	7.668	7.267	5.854	5.266	5.693	10.03	34.51	95.21	228.9	570.7	211.2	12.06	1.742	1.468	1.263	1.286	1.157	1.132	1.134	1.094	1.147	0.938	1.058	1.002	0.977	0.929	0.991
520.0	84.83	115.0	157.6	272.6	294.5	273.3	349.7	1234	1663	327.9	229.5	216.5	193.6	180.0	158.4	138.9	127.8	116.0	113.4	107.7	99.50	99.79	98.99	101.6	103.7	105.4	106.3	107.7	109.3	107.9	103.2	94.61	84.37	73.53	65.52	57.25	47.17	39.79	33.27	29.08	25.31	22.76	20.95	22.94	25.45	18.56	13.14	10.21	9.299	8.070	7.221	6.856	6.193	5.083	4.953	5.246	10.78	24.32	56.36	288.2	566.5	168.5	6.216	1.448	1.195	1.232	1.155	1.058	1.017	0.953	0.971	0.841	0.878	0.864	0.866	0.890	0.820
525.0	79.60	100.5	140.1	210.4	294.5	243.9	263.6	619.8	1956	624.0	207.7	187.0	172.1	157.2	137.9	120.9	111.9	101.3	99.10	94.29	89.72	87.48	88.65	87.87	91.28	92.38	94.58	95.56	96.57	93.99	90.53	81.74	73.37	65.26	57.24	51.03	42.78	36.07	30.90	26.57	23.15	20.79	19.29	18.80	22.27	20.68	14.54	10.51	8.943	7.976	6.748	6.400	6.291	5.430	4.836	4.302	5.153	8.216	15.05	73.53	342.8	506.8	32.44	2.954	1.277	1.199	0.967	0.975	0.885	0.931	0.886	0.726	0.844	0.772	0.859	0.971	0.900
530.0	61.77	90.42	115.6	159.5	263.5	248.5	219.3	309.4	1227	1448	251.0	164.3	149.3	133.4	118.9	104.2	95.43	89.40	83.58	79.25	76.31	73.21	74.67	75.09	76.74	78.48	78.53	80.28	79.24	79.59	75.90	69.35	62.13	55.38	48.28	42.98	36.70	31.68	27.18	24.04	21.00	18.58	16.58	15.96	16.71	18.87	16.60	11.25	8.614	7.439	6.397	5.962	5.578	5.383	4.754	4.213	3.963	4.420	5.824	18.47	86.23	263.5	369.7	136.8	11.10	1.194	0.981	0.894	0.837	0.745	0.801	0.764	0.757	0.684	0.733	0.699	0.623
535.0	62.37	88.01	96.35	120.2	188.2	255.4	200.4	202.0	459.4	1642	746.1	145.2	125.0	109.9	99.02	88.29	80.97	73.55	69.53	66.04	62.96	59.99	61.68	62.00	62.60	64.74	64.93	64.90	65.80	65.43	63.44	58.86	51.53	46.05	41.54	36.73	31.17	26.82	24.05	21.22	18.63	16.21	15.02	13.85	13.60	13.76	16.02	13.55	8.829	6.884	6.171	5.665	5.004	4.844	4.648	4.119	3.644	3.460	3.418	5.939	20.86	60.57	134.7	426.8	208.2	13.28	1.034	0.855	0.672	0.668	0.700	0.677	0.612	0.655	0.647	0.652	0.605
540.0	59.19	76.84	91.84	95.41	142.5	245.4	191.1	159.0	220.1	1035	1420	177.6	114.6	95.25	86.64	77.55	71.38	63.94	60.29	57.66	54.77	51.89	52.27	53.96	53.93	55.13	54.77	55.09	56.07	55.52	52.88	49.70	44.71	39.68	36.41	31.33	27.56	23.62	20.62	18.99	16.82	15.01	13.42	12.11	11.53	10.98	12.56	13.35	10.04	6.765	5.610	5.155	4.671	4.361	4.244	4.190	3.694	2.960	2.863	3.008	6.241	15.02	32.28	185.3	399.5	160.1	6.672	0.913	0.718	0.709	0.635	0.668	0.520	0.591	0.556	0.582	0.518
545.0	54.95	69.24	80.98	85.35	116.0	198.0	207.4	136.2	150.5	453.4	1691	269.6	97.83	86.56	75.41	65.84	61.77	56.14	53.50	51.39	46.59	45.49	45.17	46.34	46.81	47.79	48.11	47.98	48.79	47.27	47.12	42.77	39.02	34.85	31.33	27.91	24.19	21.26	18.09	16.26	15.40	13.23	11.97	10.56	10.17	9.744	9.807	12.24	11.31	7.294	5.285	4.632	4.266	3.988	3.594	4.083	3.559	2.846	2.673	2.396	2.970	4.714	8.441	45.07	201.9	364.3	33.51	2.964	0.791	0.674	0.618	0.664	0.560	0.522	0.555	0.564	0.629
550.0	48.00	59.60	66.03	71.75	91.15	135.8	207.4	135.0	118.0	188.2	993.6	1075	133.6	71.42	61.22	54.92	49.82	46.34	43.77	40.81	37.91	37.63	37.84	37.21	39.19	38.71	38.31	38.96	39.59	39.25	37.86	34.67	31.64	28.05	26.03	22.68	20.13	17.25	15.58	13.67	12.27	11.24	10.53	9.306	8.564	7.769	7.576	8.563	10.03	8.227	5.585	4.321	3.697	3.488	3.178	3.159	3.216	3.037	2.450	1.975	1.970	2.218	3.057	11.13	48.72	159.4	224.3	127.7	11.64	0.741	0.594	0.583	0.506	0.600	0.476	0.430	0.532
555.0	42.41	50.82	56.07	64.14	70.14	88.09	162.6	154.2	93.00	108.9	324.9	1299	474.0	61.32	48.63	43.53	40.13	37.17	35.57	33.58	29.94	30.45	30.28	29.60	30.15	30.37	30.59	31.03	30.72	31.42	28.90	27.53	24.78	22.32	20.26	17.69	16.31	14.61	12.72	11.41	10.47	9.369	8.163	7.828	7.045	6.463	6.165	6.110	6.811	7.675	6.337	4.387	3.177	3.013	2.555	2.807	2.587	2.674	2.572	1.953	1.658	1.690	1.629	3.370	11.73	36.49	72.71	230.2	174.4	13.60	0.709	0.549	0.505	0.489	0.464	0.372	0.482
560.0	39.61	50.57	55.05	53.18	59.10	68.12	115.8	171.9	90.88	83.32	133.4	804.6	994.9	80.14	43.27	36.50	33.35	31.31	29.56	29.00	25.23	25.20	24.24	24.28	24.31	24.94	24.45	25.46	25.55	25.19	24.34	22.60	20.40	18.75	17.09	15.26	14.00	12.06	10.62	9.572	8.781	7.924	7.211	6.725	5.861	5.826	5.224	4.864	4.784	6.234	6.329	4.784	3.055	2.733	2.469	2.370	2.417	2.524	2.438	1.933	1.414	1.344	1.323	1.509	3.330	8.908	17.33	86.69	242.6	124.4	6.945	0.561	0.447	0.377	0.487	0.391	0.467
565.0	43.26	50.38	51.50	46.03	52.77	59.09	78.64	157.7	99.80	74.47	79.02	322.4	1241	173.1	36.85	32.19	27.83	26.75	25.23	23.78	22.18	21.77	21.36	20.99	20.88	20.51	20.37	21.10	21.52	21.39	20.09	19.20	17.15	15.76	14.27	13.07	11.53	9.995	9.094	8.160	7.597	6.754	6.424	5.988	5.273	5.150	4.296	4.423	3.870	4.481	5.118	4.772	3.237	2.303	2.284	2.062	2.127	1.932	1.924	1.864	1.512	1.298	1.128	1.028	1.429	2.723	4.640	20.72	103.5	222.4	34.43	2.616	0.512	0.336	0.389	0.418	0.429
570.0	39.79	45.43	46.07	40.94	40.18	49.70	56.58	111.4	126.8	65.12	62.24	116.7	729.5	725.9	64.06	25.79	22.77	20.85	19.50	18.69	17.48	16.85	16.81	16.30	16.79	16.48	16.55	16.53	16.44	16.76	16.21	15.09	13.64	12.37	11.05	10.29	9.481	8.101	7.332	6.656	6.158	5.670	5.147	4.811	4.492	4.194	3.686	3.560	3.134	3.109	3.662	4.472	3.694	2.373	1.930	1.802	1.787	1.562	1.523	1.582	1.759	1.253	0.912	0.874	0.987	1.218	1.586	5.209	24.49	85.68	143.7	89.03	10.93	0.531	0.396	0.420	0.425
575.0	37.45	40.58	40.45	36.49	35.18	39.03	44.22	63.96	133.1	76.16	54.11	63.04	224.1	915.2	288.6	21.35	18.14	16.10	15.22	14.12	13.45	13.51	13.25	13.10	13.23	13.01	12.96	12.84	13.23	13.45	12.74	11.60	10.39	9.676	8.356	8.538	7.208	6.476	5.811	5.336	5.046	4.422	4.434	3.726	3.741	3.470	3.125	2.688	2.483	2.519	2.305	3.162	3.561	2.667	1.823	1.440	1.533	1.531	1.273	1.194	1.365	1.461	1.176	0.771	0.793	0.809	0.980	1.612	5.901	19.67	41.43	125.5	113.9	11.80	0.465	0.397	0.373
580.0	38.01	41.77	38.93	35.64	34.18	38.55	38.42	46.96	113.7	98.94	50.94	48.76	82.74	562.6	663.7	33.58	15.14	14.81	13.02	12.23	11.58	11.22	11.16	10.87	10.84	10.66	10.78	10.59	11.05	10.93	10.47	9.977	9.104	8.492	7.237	6.933	5.803	5.402	5.321	4.599	4.426	3.839	3.764	3.155	3.238	2.852	2.663	2.482	2.285	2.143	1.826	2.155	2.715	2.789	2.062	1.365	1.321	1.268	0.951	1.070	1.016	1.242	1.420	0.849	0.771	0.690	0.726	0.883	1.850	4.802	9.863	43.91	140.8	81.97	5.451	0.423	0.374
585.0	37.96	43.20	37.58	34.31	30.53	33.05	34.73	37.89	79.46	124.3	54.88	45.18	46.82	219.0	853.8	101.9	13.26	11.83	11.43	10.79	9.965	9.684	8.944	9.891	9.655	9.209	9.109	9.149	9.213	9.023	8.587	8.869	7.693	7.103	5.840	5.642	5.231	4.519	4.232	3.910	3.735	3.175	3.048	2.759	2.675	2.335	2.317	2.092	1.986	1.649	1.499	1.705	2.026	2.647	2.392	1.482	1.152	1.138	1.086	0.945	0.875	0.854	1.248	1.055	0.779	0.730	0.535	0.669	0.900	1.520	2.634	10.53	57.16	133.0	33.02	1.996	0.375
590.0	34.79	40.22	34.46	32.85	28.46	29.17	32.35	35.07	52.33	114.1	74.89	43.14	39.54	74.43	507.6	429.2	26.31	9.591	9.644	8.512	8.077	8.131	7.945	7.745	7.456	7.289	7.738	7.615	7.386	7.237	7.021	6.947	6.433	5.632	4.899	4.602	4.380	3.716	3.354	3.141	3.020	2.828	2.493	2.349	2.101	2.097	1.910	1.785	1.599	1.455	1.361	1.350	1.419	1.905	2.247	1.905	1.135	0.974	0.938	0.873	0.820	0.701	0.899	1.071	0.885	0.716	0.544	0.638	0.633	0.807	0.990	2.696	13.65	50.12	87.81	57.88	8.309
595.0	27.33	38.00	34.69	30.29	23.82	26.61	27.64	31.18	38.87	72.84	106.1	45.96	36.86	37.93	149.8	567.9	104.5	8.496	7.631	7.193	6.665	6.523	6.609	6.208	5.958	5.897	6.117	6.107	6.022	5.600	5.589	5.388	4.980	4.604	4.116	3.776	3.457	3.046	3.104	2.723	2.412	2.149	1.995	1.867	1.817	1.561	1.684	1.427	1.341	1.188	1.131	0.981	1.087	1.338	1.768	1.980	1.426	0.874	0.806	0.818	0.727	0.637	0.697	0.743	0.983	0.793	0.588	0.541	0.493	0.551	0.623	0.971	3.458	11.52	24.71	74.89	70.04
600.0	28.28	34.82	36.61	28.67	22.52	25.37	26.44	30.78	34.23	54.22	108.9	56.80	38.18	30.43	49.94	375.7	336.2	14.30	6.404	5.919	5.918	5.467	5.358	5.062	4.913	4.734	4.963	5.139	5.113	4.819	4.909	4.366	4.043	3.634	3.522	3.246	2.771	2.439	2.357	2.305	1.968	1.813	1.868	1.616	1.518	1.287	1.384	1.264	1.092	1.047	0.966	0.934	0.942	0.865	1.218	1.797	1.495	0.935	0.759	0.666	0.647	0.625	0.548	0.596	0.751	0.949	0.674	0.465	0.473	0.487	0.495	0.576	1.159	2.846	5.895	26.05	83.04
605.0	32.05	37.85	31.56	29.15	23.73	23.27	25.21	29.88	37.94	44.50	92.74	78.26	40.36	29.91	27.28	150.7	484.1	52.89	5.716	5.242	4.937	4.677	4.981	4.118	4.203	3.984	4.089	4.304	4.045	4.208	4.236	3.703	3.677	3.036	2.785	2.709	2.493	2.251	2.132	1.959	1.779	1.542	1.572	1.649	1.392	1.235	1.260	1.105	0.966	0.911	0.817	0.872	0.836	0.742	0.785	1.356	1.465	1.130	0.895	0.667	0.586	0.607	0.539	0.621	0.534	0.761	0.753	0.455	0.474	0.510	0.483	0.464	0.613	0.952	1.620	6.328	33.67
610.0	34.96	32.87	32.63	26.27	25.06	23.95	27.32	32.26	39.36	45.09	74.21	103.6	51.44	35.59	28.08	52.36	329.1	250.8	12.53	4.360	4.062	3.772	3.692	3.589	3.539	3.488	3.372	3.452	3.493	3.420	3.342	2.987	2.801	2.435	2.387	2.070	2.013	1.896	1.697	1.657	1.497	1.371	1.236	1.146	1.171	1.052	1.074	0.880	0.895	0.743	0.737	0.721	0.689	0.572	0.647	0.872	1.138	1.213	0.920	0.660	0.567	0.518	0.493	0.559	0.560	0.612	0.713	0.704	0.573	0.443	0.536	0.442	0.415	0.552	0.708	1.675	8.047
615.0	30.29	32.19	30.27	28.30	23.50	23.67	25.97	33.60	35.48	46.15	61.71	98.26	69.23	37.72	29.62	27.34	106.3	380.6	68.81	3.949	3.214	3.199	2.760	2.767	2.960	2.844	2.717	2.849	2.823	2.744	2.699	2.399	1.996	1.884	2.015	1.660	1.855	1.473	1.460	1.243	1.269	1.257	0.939	0.906	0.973	0.889	0.857	0.803	0.639	0.690	0.641	0.687	0.586	0.503	0.531	0.608	0.758	0.998	1.021	0.831	0.560	0.478	0.544	0.629	0.489	0.513	0.617	0.720	0.783	0.542	0.439	0.431	0.428	0.447	0.437	0.637	2.052
620.0	29.07	29.64	29.23	26.13	22.76	25.37	26.09	31.12	36.86	42.80	53.75	81.65	85.57	40.45	28.96	21.40	39.32	273.0	204.3	6.613	2.989	2.589	2.777	2.409	2.571	2.559	2.319	2.402	2.330	2.560	1.966	2.109	1.858	1.588	1.553	1.618	1.590	1.365	1.187	0.935	1.042	1.075	0.845	0.824	0.770	0.756	0.751	0.669	0.586	0.562	0.504	0.516	0.525	0.469	0.534	0.507	0.580	0.726	0.947	0.839	0.540	0.521	0.517	0.514	0.397	0.469	0.486	0.477	0.701	0.626	0.458	0.354	0.400	0.459	0.359	0.428	0.751
625.0	27.96	32.38	27.92	24.71	22.01	22.33	27.79	31.57	34.53	39.64	47.38	64.28	89.83	43.61	28.44	20.27	22.12	119.0	323.1	25.27	2.780	2.216	2.238	2.111	2.336	2.159	2.093	2.072	2.054	2.115	1.773	1.893	1.672	1.498	1.414	1.217	1.288	1.124	1.017	0.824	0.926	0.863	0.836	0.731	0.662	0.708	0.608	0.606	0.522	0.449	0.553	0.485	0.524	0.476	0.483	0.433	0.519	0.602	0.870	0.855	0.739	0.509	0.433	0.464	0.482	0.483	0.489	0.466	0.542	0.664	0.497	0.449	0.309	0.410	0.354	0.377	0.380
630.0	32.74	28.09	30.21	26.73	23.64	23.04	26.81	29.77	35.16	39.82	45.65	52.83	78.20	56.91	29.65	20.38	18.41	37.64	241.1	142.5	5.382	2.423	1.929	1.850	1.846	1.753	1.668	1.679	1.656	1.659	1.420	1.460	1.373	1.302	1.199	1.022	1.028	0.829	0.811	0.737	0.762	0.696	0.673	0.628	0.541	0.574	0.526	0.534	0.517	0.476	0.460	0.446	0.413	0.428	0.435	0.428	0.449	0.506	0.578	0.725	0.650	0.581	0.401	0.448	0.403	0.469	0.429	0.449	0.461	0.582	0.547	0.440	0.383	0.372	0.365	0.402	0.362
635.0	36.47	34.73	28.98	26.10	21.80	22.62	24.60	29.10	34.09	37.90	43.93	48.63	60.12	67.36	34.95	21.01	17.36	16.00	77.65	263.6	38.50	2.202	1.841	1.452	1.611	1.591	1.553	1.618	1.394	1.377	1.285	1.265	1.176	1.176	0.893	0.781	0.785	0.707	0.750	0.723	0.535	0.627	0.558	0.577	0.515	0.464	0.496	0.428	0.453	0.440	0.405	0.477	0.403	0.420	0.411	0.410	0.435	0.461	0.446	0.487	0.552	0.659	0.485	0.481	0.408	0.471	0.472	0.368	0.567	0.468	0.512	0.564	0.502	0.352	0.352	0.339	0.362
640.0	40.09	35.76	29.25	25.91	23.78	20.05	22.73	29.68	32.67	39.40	42.90	48.01	51.49	69.35	42.21	23.16	17.66	12.51	23.43	214.0	123.7	2.956	1.656	1.388	1.399	1.313	1.300	1.469	1.210	1.170	1.188	0.978	1.096	0.896	0.734	0.733	0.723	0.685	0.597	0.570	0.538	0.520	0.574	0.487	0.477	0.502	0.483	0.434	0.447	0.440	0.380	0.386	0.340	0.352	0.364	0.343	0.345	0.410	0.383	0.440	0.509	0.559	0.455	0.502	0.400	0.443	0.447	0.393	0.450	0.463	0.421	0.511	0.530	0.355	0.324	0.308	0.374
645.0	40.12	42.79	42.60	29.72	23.73	22.22	22.62	28.85	31.37	39.52	43.83	48.67	51.05	63.33	52.39	24.47	17.70	11.61	9.925	101.5	215.0	13.15	1.613	1.515	1.300	1.155	1.330	1.269	1.147	1.145	1.147	0.992	0.907	0.850	0.683	0.751	0.691	0.465	0.546	0.467	0.482	0.490	0.449	0.454	0.438	0.462	0.372	0.383	0.441	0.390	0.411	0.298	0.310	0.356	0.295	0.336	0.361	0.317	0.368	0.355	0.448	0.508	0.501	0.492	0.449	0.415	0.416	0.408	0.372	0.407	0.399	0.391	0.568	0.444	0.335	0.286	0.387
650.0	41.21	51.41	53.23	33.13	24.06	20.84	25.16	28.03	32.42	39.39	43.42	48.79	49.16	53.35	56.39	26.58	18.76	12.06	7.581	33.45	229.8	54.33	1.815	1.309	1.334	1.245	1.121	1.127	0.967	0.912	1.073	0.827	0.830	0.762	0.688	0.744	0.479	0.538	0.468	0.555	0.410	0.378	0.425	0.383	0.457	0.412	0.403	0.353	0.427	0.345	0.378	0.328	0.294	0.276	0.304	0.285	0.274	0.400	0.437	0.293	0.380	0.495	0.524	0.504	0.431	0.418	0.420	0.378	0.364	0.392	0.402	0.419	0.394	0.575	0.357	0.279	0.311
