Sample:	'1
File name:	L2025090908Óý²ÅÂ·ÇÅ.FD3
Run date:	'15:03:27, 09/09/2025
Operator:	Administrator
Comment:	'

Instrument
Model:	F-2700 FL Spectrophotometer
Serial number:	3064-004
ROM Version:	4J14000 07

Instrument parameters
Measurement type:	3-D scan
Data mode:	Fluorescence
EX  Start WL:	220.0 nm
EX  End WL:	600.0 nm
EX Sampling interval:	5.0 nm
EM  Start WL:	230.0 nm
EM  End WL:	650.0 nm
EM Sampling interval:	5.0 nm
Scan speed:	12000 nm/min
EX Slit:	5.0 nm
EM Slit:	5.0 nm
PMT Voltage:	700 V
Response:	Auto 
Corrected spectra:	Off
Contour interval:	50.000

Peak integration
Integration method:	Rectangular
Sensitivity:	1
Threshold:	1.000

Peaks
No.	ApexEX/EM(nm)	Height(Data)
1	225.0/610.0	29.78
2	230.0/575.0	46.88
3	230.0/585.0	43.35
4	235.0/345.0	994.0
5	235.0/615.0	28.27
6	235.0/625.0	27.79
7	240.0/520.0	249.3
8	240.0/610.0	28.85
9	245.0/530.0	230.1
10	245.0/630.0	25.18
11	250.0/270.0	423.1
12	250.0/545.0	224.2
13	255.0/280.0	672.8
14	255.0/555.0	190.4
15	260.0/285.0	883.3
16	260.0/570.0	177.5
17	265.0/290.0	 1004
18	265.0/580.0	185.2
19	270.0/295.0	 1445
20	270.0/380.0	 1371
21	270.0/590.0	157.4
22	275.0/305.0	 1763
23	275.0/375.0	 1376
24	275.0/605.0	161.6
25	280.0/310.0	 1786
26	280.0/340.0	 1462
27	280.0/615.0	144.3
28	285.0/315.0	 1740
29	285.0/365.0	 1411
30	285.0/630.0	106.2
31	290.0/320.0	 1640
32	290.0/640.0	89.68
33	305.0/340.0	 1059
34	310.0/345.0	933.3
35	315.0/355.0	835.2
36	320.0/360.0	891.4
37	325.0/245.0	7.604
38	325.0/365.0	865.6
39	330.0/375.0	804.8
40	335.0/380.0	842.6
41	340.0/385.0	820.2
42	350.0/400.0	725.4
43	355.0/405.0	703.7
44	430.0/505.0	83.23
45	435.0/510.0	67.92
46	445.0/525.0	49.59
47	450.0/530.0	39.93
48	460.0/340.0	3.963
49	460.0/545.0	27.27
50	475.0/565.0	12.24
51	505.0/275.0	3.081
52	510.0/280.0	3.941
53	520.0/285.0	4.473
54	530.0/290.0	4.157
55	540.0/295.0	5.940
56	545.0/300.0	6.718
57	550.0/305.0	7.794
58	560.0/310.0	7.897
59	570.0/315.0	7.990
60	575.0/320.0	8.256
61	585.0/325.0	7.979
62	590.0/330.0	6.718

Data points
	220.0	225.0	230.0	235.0	240.0	245.0	250.0	255.0	260.0	265.0	270.0	275.0	280.0	285.0	290.0	295.0	300.0	305.0	310.0	315.0	320.0	325.0	330.0	335.0	340.0	345.0	350.0	355.0	360.0	365.0	370.0	375.0	380.0	385.0	390.0	395.0	400.0	405.0	410.0	415.0	420.0	425.0	430.0	435.0	440.0	445.0	450.0	455.0	460.0	465.0	470.0	475.0	480.0	485.0	490.0	495.0	500.0	505.0	510.0	515.0	520.0	525.0	530.0	535.0	540.0	545.0	550.0	555.0	560.0	565.0	570.0	575.0	580.0	585.0	590.0	595.0	600.0
230.0	18.28	902.6	 4748	 2663	120.8	7.942	7.142	3.415	3.589	2.942	3.326	3.341	2.764	3.056	2.133	2.526	1.922	1.477	1.599	1.477	1.248	2.587	1.120	0.785	1.110	0.882	0.735	0.625	0.571	0.759	0.603	0.597	0.556	0.365	0.463	0.497	0.689	0.481	0.332	0.413	0.382	0.552	0.537	0.265	0.450	0.342	1.595	6.648	10.66	7.379	2.803	0.566	0.207	0.200	0.166	0.142	0.113	0.170	0.068	0.057	0.104	0.030	-0.021	0.025	0.027	0.008	-0.016	0.008	0.060	-0.032	-0.007	-0.012	-0.051	-0.049	-0.065	-0.015	-0.048
235.0	50.21	227.4	 2046	 5618	 3018	254.6	9.347	3.608	4.911	2.840	2.769	4.126	4.425	3.481	2.641	2.155	2.034	1.813	1.434	1.643	1.138	6.144	1.020	1.237	1.094	0.701	0.562	0.585	0.848	0.654	0.731	0.590	0.552	0.774	0.542	0.381	0.673	0.610	0.504	0.317	0.391	0.391	0.492	0.484	0.795	0.394	0.720	1.847	3.747	7.643	10.85	8.952	4.351	0.679	0.119	0.229	0.162	0.116	0.145	0.037	0.048	0.064	0.018	0.124	0.215	0.046	-0.001	-0.026	0.028	0.103	0.046	-0.104	-0.093	-0.110	-0.070	-0.073	-0.087
240.0	51.90	116.9	520.4	 3346	 7374	 3191	131.4	5.309	4.832	4.365	5.318	4.118	3.635	3.638	3.080	2.176	2.707	2.065	1.560	1.545	1.247	7.420	1.361	1.235	1.404	0.890	0.800	0.703	0.769	0.649	0.652	0.536	0.633	0.650	0.510	0.274	0.635	0.537	0.523	0.480	0.352	0.275	0.437	0.531	0.796	0.553	0.627	0.658	0.962	2.299	6.103	11.71	13.91	9.445	2.445	0.497	0.274	0.161	0.215	0.102	0.054	0.042	-0.016	0.004	0.113	0.142	-0.045	0.005	0.046	-0.006	0.056	0.016	-0.007	-0.072	-0.043	-0.129	-0.105
245.0	34.42	123.8	175.0	898.1	 5285	 8251	840.3	35.65	6.725	5.300	7.104	5.532	3.727	2.827	3.716	3.399	2.729	1.869	1.659	1.700	1.134	7.604	1.093	1.002	0.793	1.135	0.825	0.478	0.787	0.772	0.694	0.581	0.654	0.324	0.428	0.443	0.490	0.402	0.395	0.328	0.360	0.370	0.337	0.351	0.733	0.582	0.802	0.912	0.495	0.889	1.630	4.031	11.05	18.10	16.64	8.811	1.694	0.235	0.328	0.142	0.061	0.007	-0.015	0.056	0.097	0.088	0.150	-0.014	-0.003	0.069	-0.008	-0.069	0.033	0.089	0.011	-0.111	-0.089
250.0	16.15	64.10	167.5	308.4	 1373	 5313	 7992	 2720	228.0	9.882	9.032	7.273	5.560	4.271	4.502	3.650	3.067	1.715	1.964	1.608	1.543	5.017	1.266	1.200	1.057	1.194	0.870	0.669	0.878	0.629	0.701	0.846	0.514	0.396	0.330	0.469	0.679	0.342	0.388	0.427	0.403	0.507	0.337	0.251	0.544	0.489	0.468	0.771	0.816	0.915	0.768	1.191	2.928	6.238	10.98	17.32	19.43	15.68	7.921	2.020	0.259	0.113	0.026	0.020	0.112	0.056	0.036	0.064	0.063	0.040	0.040	0.004	0.026	0.048	-0.006	-0.075	-0.063
255.0	12.89	32.17	80.96	270.9	456.2	 1243	 3961	 7216	 4480	290.8	11.90	11.02	8.872	4.738	5.147	4.291	2.987	1.921	1.715	1.824	1.329	2.494	1.507	1.039	1.188	0.977	0.737	0.825	1.089	0.834	0.627	0.610	0.509	0.464	0.427	0.443	0.772	0.373	0.377	0.425	0.468	0.504	0.459	0.409	0.533	0.436	0.418	0.358	0.629	0.936	1.205	1.135	1.257	1.750	2.836	4.385	8.340	19.69	33.74	28.97	12.21	1.592	0.088	0.210	0.109	0.108	0.060	0.178	0.204	-0.059	-0.021	0.110	0.018	0.027	0.026	-0.041	0.048
260.0	18.29	21.04	30.83	160.5	393.1	392.2	992.3	 3721	9999.9	 3762	154.8	15.20	10.17	6.232	7.009	4.622	3.610	2.615	1.743	2.336	1.654	1.812	1.689	1.280	0.960	0.922	1.373	1.045	1.156	0.673	0.694	0.798	0.800	0.738	0.617	0.458	0.336	0.309	0.213	0.414	0.512	0.335	0.402	0.441	0.551	0.374	0.335	0.338	0.440	0.472	0.911	1.763	1.597	1.049	0.889	1.183	2.370	5.689	16.75	33.25	42.44	27.91	7.177	0.718	0.175	0.119	0.150	0.180	0.198	-0.021	-0.089	0.212	0.054	0.058	-0.074	-0.054	-0.036
265.0	29.47	28.99	21.09	68.35	293.2	395.7	293.2	996.8	 6581	9999.9	 2747	65.76	12.71	9.812	8.633	5.600	3.719	3.238	2.266	2.364	1.951	2.184	2.116	1.223	1.213	1.147	1.045	1.048	1.301	1.243	0.873	0.912	0.906	0.684	0.622	0.540	0.697	0.314	0.373	0.386	0.438	0.439	0.290	0.447	0.555	0.301	0.395	0.309	0.357	0.336	0.511	0.865	1.519	2.044	1.296	0.822	0.763	1.521	4.162	11.08	27.25	47.74	46.00	23.30	3.361	0.258	0.272	0.138	0.147	0.070	0.065	0.114	0.169	0.090	-0.040	-0.055	0.099
270.0	33.06	36.25	31.39	32.05	107.7	353.9	423.1	318.3	 1716	 6027	9999.9	 7015	174.8	17.03	10.44	6.620	5.293	3.961	3.022	2.224	2.520	2.005	2.111	1.723	1.803	1.307	1.290	1.124	1.230	1.294	1.052	0.801	0.997	0.774	0.528	0.506	0.887	0.429	0.557	0.425	0.465	0.401	0.409	0.459	0.751	0.273	0.491	0.297	0.426	0.286	0.443	0.405	0.614	1.172	1.771	1.952	1.653	1.135	1.250	2.717	6.847	15.21	28.47	44.12	46.18	46.41	17.04	3.230	0.323	0.325	0.192	0.091	0.459	0.121	0.028	0.007	0.077
275.0	56.55	65.40	69.02	49.88	55.06	135.7	420.8	559.7	484.9	 1446	 4025	9999.9	9999.9	210.9	18.30	10.34	7.009	6.511	4.286	3.118	2.765	2.253	2.427	1.740	2.029	1.799	1.226	1.109	1.205	1.408	0.622	0.643	1.066	0.571	0.809	0.659	0.787	0.619	0.694	0.554	0.571	0.534	0.385	0.654	0.512	0.415	0.606	0.464	0.595	0.353	0.394	0.329	0.346	0.596	0.683	1.106	2.152	3.081	1.910	1.225	1.917	3.741	6.851	10.94	18.57	50.17	74.24	48.36	21.98	2.927	0.133	0.093	0.395	0.029	0.102	0.118	0.051
280.0	103.1	141.6	104.2	85.93	63.35	84.28	220.0	672.8	519.8	462.6	 1102	 5592	9999.9	 2569	128.6	14.89	10.16	7.608	4.275	3.773	3.253	2.491	2.039	1.822	2.291	1.711	1.235	1.060	1.880	1.118	0.984	0.766	1.198	0.739	0.622	0.935	1.169	0.833	0.748	0.759	0.618	0.504	0.765	0.830	0.908	0.897	0.719	0.876	0.758	0.623	0.463	0.561	0.378	0.442	0.513	0.612	0.889	2.551	3.941	3.211	1.628	1.466	2.042	3.142	5.225	13.84	32.90	65.28	90.15	43.32	11.15	0.610	0.253	0.047	0.109	0.263	-0.024
285.0	134.7	173.3	175.7	120.9	84.38	88.91	128.2	399.5	883.3	461.2	490.8	 1620	 7326	9999.9	 1950	51.59	12.41	8.147	5.622	4.441	2.839	2.959	2.286	1.595	2.769	1.608	1.332	1.315	2.103	0.886	0.936	0.871	1.172	0.958	0.705	1.010	1.424	1.121	0.925	0.753	0.975	0.797	1.180	1.053	1.297	1.140	1.081	0.972	0.929	0.821	0.617	0.641	0.503	0.392	0.397	0.535	0.764	1.335	2.238	3.865	4.473	2.291	1.280	1.631	2.432	4.269	8.790	20.14	51.47	87.02	55.67	30.73	4.166	0.391	0.236	0.191	0.050
290.0	187.8	259.1	275.5	187.1	130.3	134.4	150.4	237.6	601.6	 1004	734.7	795.9	 2121	 6654	9999.9	 6513	104.2	13.45	7.932	6.013	3.720	3.582	3.080	2.991	2.716	1.842	1.662	1.562	1.521	1.380	1.040	1.049	1.103	0.945	0.839	0.853	1.585	1.238	1.237	1.211	1.200	1.178	1.206	1.152	1.620	1.349	1.303	1.205	1.246	1.035	0.942	0.842	0.764	0.586	0.592	0.740	0.745	0.890	1.193	1.919	3.037	3.802	4.157	3.460	2.559	2.763	3.653	6.192	13.20	26.14	38.72	64.19	61.89	73.11	20.70	4.603	0.369
295.0	215.4	314.2	341.9	270.3	203.6	202.6	210.5	257.4	407.8	765.1	 1445	940.5	986.0	 1840	 3793	9999.9	9999.9	136.1	12.56	7.623	5.809	4.369	3.358	3.312	3.605	2.137	1.912	1.968	2.018	1.460	1.013	1.295	1.277	1.310	1.069	0.934	1.976	1.775	1.338	1.429	1.382	1.374	1.249	1.342	1.717	1.950	1.436	1.832	1.528	1.391	1.042	1.000	0.978	1.021	0.800	0.926	1.031	1.113	1.212	1.627	1.727	2.348	3.700	5.748	5.940	3.974	3.241	3.754	4.808	7.464	9.837	15.90	21.47	69.41	97.99	56.56	29.36
300.0	249.7	364.9	403.3	304.0	235.9	245.0	271.3	283.8	403.4	617.4	 1303	 1582	928.7	871.7	 1159	 4240	9999.9	 7062	87.94	10.82	8.109	5.963	3.632	3.478	3.704	3.189	1.957	2.081	2.111	1.417	1.264	1.270	1.001	1.461	1.047	1.150	1.894	1.400	1.833	1.534	1.418	1.331	1.453	1.550	1.720	1.725	1.932	1.822	1.838	1.502	1.186	1.061	1.083	1.222	0.974	1.258	1.313	1.306	1.391	1.797	1.693	1.961	2.721	3.891	5.852	6.718	6.008	3.694	3.538	4.118	3.805	4.890	5.756	17.88	36.93	76.68	109.5
305.0	262.4	379.5	425.7	364.2	267.9	284.0	325.7	355.6	456.6	654.8	 1019	 1763	 1423	782.2	637.0	 1198	 6210	9999.9	 1239	49.05	10.02	7.369	5.228	4.317	4.148	3.224	2.192	2.121	2.004	1.591	1.299	1.260	1.336	1.264	1.018	0.897	1.952	1.379	1.951	1.518	1.411	1.522	1.257	1.674	1.953	1.703	1.884	2.175	1.907	1.640	1.293	1.137	1.391	1.433	1.055	1.328	1.313	1.340	1.304	1.740	1.925	2.188	2.773	3.343	4.246	6.419	7.794	7.234	5.042	3.712	3.125	2.823	3.013	5.207	9.392	21.37	54.56
310.0	280.2	405.6	472.2	409.5	312.1	343.9	362.9	420.7	551.6	713.6	968.6	 1345	 1786	 1302	686.5	577.3	 1638	 5426	9999.9	 4965	75.49	11.31	6.761	5.554	5.161	3.670	2.336	2.335	2.296	1.924	1.538	1.375	1.531	1.052	1.129	0.889	1.970	1.325	1.642	1.569	1.574	1.441	1.298	1.442	1.876	1.910	1.891	2.091	2.074	1.713	1.545	1.398	1.501	1.395	1.116	1.370	1.510	1.585	1.844	1.868	2.176	2.641	2.864	3.243	4.037	4.770	5.401	7.082	7.897	6.486	4.789	3.523	3.006	3.032	3.459	5.827	13.57
315.0	291.2	431.3	512.1	444.8	351.0	367.7	414.9	472.1	600.3	798.8	 1010	 1220	 1426	 1740	 1153	560.8	623.9	 1385	 3080	9999.9	 7214	101.2	11.94	7.666	6.929	4.984	2.962	2.220	2.919	2.500	1.933	1.282	1.465	1.130	1.082	0.945	1.652	1.153	1.574	1.621	1.652	1.759	1.645	1.524	2.067	2.250	1.808	2.017	2.116	1.489	1.357	1.583	1.431	1.322	1.226	1.563	1.798	1.700	2.022	2.131	2.337	2.906	3.060	3.674	3.913	4.427	4.559	5.085	5.275	6.892	7.990	6.174	4.074	3.151	2.414	2.771	4.192
320.0	326.2	478.0	613.8	501.8	379.2	409.0	440.9	531.2	646.7	857.7	 1057	 1245	 1337	 1519	 1640	782.9	471.3	530.9	832.3	 3886	9999.9	 5639	67.03	10.09	9.155	5.398	3.606	2.806	2.709	2.444	1.774	1.175	1.649	1.378	1.244	1.258	1.956	1.460	1.474	1.641	1.676	1.559	1.643	1.820	2.273	2.497	2.111	2.522	2.361	1.875	1.710	1.877	1.589	1.628	1.607	1.635	2.006	1.778	2.051	2.461	2.809	3.684	3.069	3.921	3.805	5.096	4.557	5.144	5.319	6.230	6.738	8.256	6.852	4.690	2.766	2.631	2.485
325.0	343.0	563.1	745.5	655.5	450.9	444.3	456.4	542.4	700.4	894.2	 1115	 1299	 1410	 1408	 1565	 1246	558.9	398.7	368.1	 1013	 5406	9999.9	920.2	39.67	11.56	6.335	4.300	3.088	3.220	2.641	1.875	1.582	1.909	1.547	1.123	1.295	2.051	1.432	1.592	1.522	1.649	1.504	1.645	1.980	2.130	2.510	2.352	2.768	2.867	2.652	2.078	1.887	1.818	1.860	1.745	1.952	2.035	1.934	2.498	2.361	2.653	3.572	3.613	4.379	4.184	4.784	4.889	5.265	5.537	6.026	5.464	6.216	7.637	7.979	4.887	2.864	2.518
330.0	365.5	618.1	861.4	813.4	560.3	509.0	513.9	585.5	745.3	940.7	 1164	 1350	 1448	 1397	 1328	 1304	989.6	502.6	326.7	397.0	 1369	 5091	 9784	 3872	62.62	10.17	5.886	4.904	4.105	2.843	2.250	1.993	2.042	1.637	1.392	1.416	2.135	1.439	1.330	1.842	1.734	1.737	1.601	1.922	2.547	2.637	3.022	3.137	3.458	3.017	2.681	2.479	1.806	2.135	1.773	1.864	2.081	2.093	2.469	2.769	3.151	3.417	3.796	4.681	4.634	4.858	5.207	5.593	6.092	5.990	5.704	5.384	5.965	6.676	6.718	6.310	4.693
335.0	402.5	627.2	915.0	888.9	652.3	570.9	562.0	626.5	781.8	944.4	 1185	 1358	 1452	 1429	 1283	 1093	 1101	884.3	416.1	321.4	475.8	 1255	 3012	9999.9	 6169	80.67	10.74	6.605	4.649	3.466	2.605	2.416	2.274	1.594	1.805	1.264	2.255	1.442	1.631	1.688	1.938	1.700	1.692	1.875	2.609	2.869	3.159	3.516	3.884	3.730	2.771	2.789	2.326	2.099	2.238	2.335	2.084	2.444	2.696	2.824	3.250	3.790	4.215	4.113	4.978	4.960	5.552	5.613	6.121	6.217	5.362	5.000	5.475	5.650	5.052	4.929	6.762
340.0	407.5	646.7	941.9	976.9	765.6	673.1	620.7	673.1	805.0	975.1	 1184	 1356	 1462	 1434	 1313	 1071	950.1	 1059	657.5	358.9	311.2	432.7	790.8	 4147	9999.9	 4515	55.83	8.635	6.197	4.966	3.127	2.543	2.475	1.878	1.695	1.341	2.568	1.801	1.454	1.474	1.536	1.695	1.776	2.026	2.626	2.545	3.018	3.547	3.963	3.660	2.837	2.952	2.637	2.290	2.200	2.414	2.170	2.514	2.746	2.903	3.385	3.716	3.907	4.132	4.977	5.470	5.512	5.594	6.302	5.843	5.793	5.808	5.957	5.480	5.100	4.464	5.326
345.0	412.3	618.4	938.5	994.0	813.1	719.1	695.2	689.5	826.1	 1011	 1184	 1339	 1454	 1448	 1309	 1088	890.5	911.7	933.3	482.1	322.8	295.8	316.3	 1065	 6355	9999.9	760.4	35.06	8.179	6.083	3.582	2.859	2.773	1.694	1.781	1.520	2.218	1.593	1.671	1.328	1.736	1.550	1.627	2.007	2.650	2.656	2.864	3.595	3.851	3.402	3.483	2.889	3.197	2.795	2.113	2.603	2.839	2.676	2.794	3.123	3.180	3.524	4.368	4.274	4.855	4.892	5.506	5.438	5.566	5.830	5.628	5.919	6.012	5.801	5.132	4.784	4.762
350.0	364.1	584.3	892.4	967.9	890.0	812.8	783.6	782.0	896.9	 1028	 1191	 1337	 1425	 1427	 1309	 1109	922.2	816.2	872.5	801.1	477.4	333.7	278.0	396.4	 1609	 5198	 8633	 3236	53.47	8.924	5.009	3.684	3.130	2.205	1.896	1.754	2.464	1.723	1.693	1.512	1.728	1.624	1.530	1.852	2.647	2.319	3.124	3.339	3.444	3.290	3.474	3.278	3.194	2.951	2.969	2.809	2.936	3.069	2.779	3.439	3.535	3.626	4.192	4.396	4.692	5.108	5.142	5.179	5.629	5.817	5.543	5.766	5.790	5.527	5.375	4.932	4.523
355.0	361.0	548.3	843.6	935.8	944.0	897.6	895.9	893.5	 1029	 1113	 1254	 1346	 1413	 1406	 1317	 1156	977.5	850.1	774.0	835.2	797.2	471.7	343.5	310.3	519.4	 1276	 2899	 9794	 5155	71.69	7.858	5.490	4.140	2.503	2.137	1.468	2.836	1.648	1.645	1.436	1.828	1.661	1.843	1.824	2.567	2.187	2.685	2.976	3.832	3.121	3.149	3.673	3.611	3.383	3.376	2.961	3.317	3.077	3.336	3.839	4.070	4.142	4.308	4.772	4.694	4.947	5.055	5.223	5.644	5.632	5.548	5.816	5.768	5.292	5.657	5.208	4.793
360.0	327.6	515.8	786.2	949.5	956.2	981.8	989.8	 1004	 1102	 1210	 1301	 1356	 1397	 1401	 1337	 1191	 1019	898.7	792.7	766.0	891.4	685.9	415.5	342.4	320.7	433.3	764.2	 4175	9999.9	 3902	47.47	7.431	5.503	3.331	2.377	1.618	2.913	1.706	1.674	1.308	1.511	1.736	1.711	1.727	2.579	2.182	2.474	3.022	3.379	3.162	3.257	3.751	3.563	3.408	3.553	3.924	4.047	3.616	3.877	4.058	4.052	4.608	4.752	5.475	5.217	5.193	5.514	5.378	5.686	5.981	5.628	6.160	5.944	5.226	5.788	5.712	5.467
365.0	330.3	503.2	793.0	932.2	990.0	 1029	 1060	 1073	 1150	 1233	 1360	 1383	 1398	 1411	 1328	 1195	 1047	938.3	838.2	766.8	812.7	865.6	567.2	403.9	324.5	279.0	298.2	 1070	 6003	9999.9	679.0	27.37	7.264	3.873	3.340	1.961	3.389	1.771	2.095	1.363	1.676	1.545	1.758	1.773	2.521	2.191	2.513	2.925	3.109	3.110	3.178	3.317	3.683	3.696	3.683	4.057	4.460	3.874	4.342	4.909	4.010	4.403	4.830	5.070	5.111	4.748	5.633	5.053	5.885	5.815	5.898	5.914	5.783	5.836	5.713	5.456	5.597
370.0	344.9	488.7	733.0	892.0	988.7	 1093	 1119	 1150	 1238	 1284	 1356	 1369	 1385	 1395	 1316	 1201	 1082	991.7	908.5	828.1	783.9	824.7	798.5	555.6	394.8	312.1	249.1	368.4	 1515	 5246	 8011	 2808	43.99	6.763	4.181	2.697	3.992	2.044	2.195	1.770	1.920	1.681	1.738	1.827	2.354	2.304	2.259	2.819	2.857	3.050	3.179	3.530	3.594	4.037	3.938	3.863	4.334	3.926	4.753	4.882	4.293	4.901	5.065	5.213	4.870	5.209	5.388	5.298	5.638	5.972	5.719	5.954	5.825	5.482	5.799	5.405	5.459
375.0	347.5	470.0	723.7	853.6	995.7	 1113	 1188	 1210	 1282	 1280	 1355	 1376	 1364	 1356	 1299	 1191	 1094	 1030	954.1	889.1	825.6	784.1	804.8	793.4	527.3	392.2	297.4	264.8	461.7	 1258	 2920	 9151	 4316	55.98	6.346	3.735	5.104	2.710	2.014	2.221	2.147	1.735	1.718	2.036	2.585	2.137	2.076	2.694	3.033	2.856	3.169	3.545	3.827	4.109	3.857	4.345	4.352	4.180	4.333	4.742	4.198	4.841	4.887	5.252	5.005	5.050	5.326	5.086	5.643	5.486	5.405	5.392	5.853	5.463	5.870	5.436	5.551
380.0	357.5	463.3	685.5	849.0	983.3	 1135	 1198	 1249	 1303	 1293	 1371	 1370	 1357	 1328	 1291	 1202	 1113	 1043	980.3	922.4	852.2	808.9	764.7	842.6	698.0	464.7	351.3	281.0	260.1	391.2	744.9	 4188	9999.9	 2941	34.92	5.569	6.484	2.897	2.715	2.331	2.225	2.287	1.712	1.789	2.621	2.012	2.116	2.313	2.693	2.830	3.409	3.444	3.620	4.066	3.945	4.235	4.856	4.165	4.399	4.607	4.830	4.565	5.132	4.996	5.091	4.885	5.217	5.014	5.599	5.294	5.667	5.408	5.744	5.771	5.736	5.817	5.834
385.0	322.2	459.1	649.3	844.9	972.7	 1121	 1170	 1233	 1275	 1308	 1343	 1319	 1326	 1304	 1264	 1173	 1104	 1054	991.1	938.9	878.6	837.2	770.3	780.9	820.2	579.7	408.0	322.7	249.9	225.3	260.3	 1065	 6993	 8996	527.5	18.13	7.911	3.383	2.760	2.446	2.280	1.828	1.861	2.114	2.678	1.936	2.091	2.419	2.729	2.760	3.066	3.248	3.491	4.313	3.716	3.944	4.249	4.541	4.635	4.641	4.916	4.809	5.159	5.002	5.081	4.572	5.550	5.100	5.425	5.115	5.466	5.464	5.372	5.708	6.118	5.714	5.448
390.0	288.0	426.2	620.7	807.0	981.7	 1107	 1165	 1211	 1254	 1279	 1295	 1278	 1284	 1247	 1210	 1139	 1083	 1049	996.8	954.1	909.1	858.7	795.7	751.1	770.2	738.0	528.5	386.4	292.5	231.8	187.5	326.7	 1752	 4769	 6602	 2081	37.12	5.571	4.016	2.998	2.962	2.086	1.992	1.982	2.450	2.195	2.031	2.549	2.482	2.702	2.957	3.306	3.704	3.845	3.916	4.017	4.462	4.385	4.623	4.665	4.819	4.786	4.857	5.119	4.548	5.096	4.855	5.027	5.212	5.227	5.263	5.275	5.324	5.239	5.449	5.597	5.773
395.0	279.9	421.9	591.9	769.4	966.4	 1071	 1145	 1205	 1220	 1221	 1261	 1234	 1239	 1207	 1159	 1102	 1052	 1023	992.0	952.6	922.0	875.5	820.9	771.9	729.7	723.2	709.7	492.9	350.7	275.0	209.1	193.0	474.2	 1122	 2537	 6820	 3866	45.40	6.453	3.958	4.070	2.504	2.194	1.951	2.899	2.114	2.131	2.659	3.064	2.636	2.596	3.373	3.641	3.770	3.688	4.417	4.404	4.429	4.502	4.843	4.721	4.872	4.093	5.272	4.290	4.882	4.906	5.123	5.146	5.081	4.794	4.807	5.104	5.302	5.997	5.717	5.558
400.0	282.2	416.1	564.8	727.1	949.6	 1048	 1131	 1176	 1192	 1190	 1220	 1223	 1195	 1164	 1121	 1067	 1032	 1001	969.1	947.2	919.5	888.8	831.1	783.8	726.2	685.7	725.4	621.1	413.4	323.0	241.7	189.5	208.6	318.0	631.7	 3331	9999.9	 2306	28.60	5.763	4.421	2.382	2.276	1.965	2.661	2.193	2.484	2.598	2.667	2.437	2.717	3.189	3.672	3.859	4.039	4.402	4.210	4.482	4.348	4.273	4.485	4.868	4.022	4.757	4.354	4.641	4.661	4.717	4.946	5.373	4.766	4.371	5.099	5.125	5.203	5.247	5.196
405.0	247.8	391.6	575.6	767.5	875.9	 1009	 1101	 1161	 1180	 1192	 1211	 1187	 1163	 1123	 1094	 1036	993.1	981.2	950.9	932.6	903.7	874.4	834.6	787.1	734.1	684.2	670.7	703.7	516.7	366.0	280.1	209.5	167.0	151.6	195.9	849.6	 9447	 6863	443.4	14.73	5.501	3.269	2.769	2.199	3.515	2.142	1.973	2.673	2.325	2.509	2.423	3.339	3.635	3.499	3.694	4.225	4.226	4.384	4.279	4.082	4.795	4.675	4.568	4.374	4.586	4.220	4.156	4.545	4.934	5.193	4.645	4.755	5.300	5.068	5.231	5.290	4.881
410.0	276.4	366.1	558.5	709.6	859.6	966.8	 1067	 1138	 1158	 1156	 1163	 1133	 1116	 1081	 1051	996.9	955.7	946.0	918.1	907.5	880.8	861.7	826.1	792.1	745.2	700.5	644.5	644.9	623.8	461.6	327.3	247.7	188.4	143.0	117.3	242.7	 2381	 3647	 4672	 1848	28.99	4.531	3.117	2.775	3.982	2.431	1.964	2.376	2.431	2.580	2.481	3.098	3.226	3.561	3.861	3.837	4.153	4.323	4.096	4.247	4.667	4.650	4.634	4.439	4.524	4.326	4.331	4.502	4.506	4.773	4.478	4.703	4.839	4.807	4.905	5.032	4.924
415.0	275.9	359.3	506.3	674.9	830.0	923.6	 1023	 1096	 1130	 1125	 1117	 1088	 1057	 1036	 1008	950.8	913.7	897.4	875.7	876.0	846.1	830.5	798.1	782.6	736.3	705.4	645.2	609.0	595.2	579.6	407.5	286.2	219.1	162.3	119.7	119.7	579.6	849.9	 2043	 5677	 2652	39.63	5.023	2.958	4.830	2.426	2.505	2.212	2.483	2.480	2.251	2.951	3.497	3.131	3.418	3.851	4.089	4.208	4.439	4.158	4.427	4.393	4.255	4.737	4.395	4.249	4.194	4.368	4.065	4.355	4.257	4.447	4.644	4.175	4.096	5.188	4.839
420.0	236.9	339.6	478.4	659.2	799.0	894.1	977.5	 1068	 1086	 1100	 1087	 1056	 1040	993.1	960.2	905.6	883.4	858.1	838.0	844.4	820.0	801.9	775.1	769.6	735.5	700.2	650.7	604.5	562.8	581.7	493.8	328.2	244.7	183.6	135.9	106.9	187.7	229.2	506.0	 2746	 6882	464.7	22.72	3.638	5.298	2.811	2.745	2.196	2.435	2.537	2.440	2.882	3.047	3.150	3.796	4.071	4.184	3.973	4.522	4.485	4.191	4.247	3.927	4.478	4.237	4.380	3.775	4.100	3.711	4.199	4.522	3.813	4.793	4.491	3.949	4.583	4.236
425.0	239.0	325.1	460.1	626.2	748.5	878.6	950.1	 1036	 1078	 1062	 1076	 1033	 1006	954.8	928.3	887.0	836.7	823.3	806.6	805.2	796.9	773.9	759.7	741.8	727.5	694.3	651.2	605.8	556.4	541.4	542.1	399.4	272.9	204.1	152.6	114.4	108.8	95.44	147.1	693.1	 4476	 4769	386.4	10.38	6.474	3.251	2.833	2.438	2.401	2.395	2.277	2.881	2.928	3.035	3.164	3.751	4.124	3.747	4.595	3.977	4.348	4.388	4.043	3.988	3.764	4.264	4.177	3.919	3.613	4.364	3.820	4.424	4.126	3.877	4.355	4.382	4.186
430.0	589.1	311.0	444.2	590.7	719.3	821.2	923.8	986.8	 1043	 1042	 1044	 1007	968.3	933.9	888.8	831.0	793.9	775.3	769.0	762.9	751.4	740.3	729.0	709.3	697.1	677.3	644.9	606.2	560.6	518.7	503.4	467.6	337.6	233.0	173.5	133.9	105.7	81.07	76.20	185.5	 1130	 2643	 3495	 1438	28.86	4.657	3.511	2.517	2.420	2.397	2.451	2.909	2.942	3.134	3.283	3.333	3.909	3.798	4.283	3.847	4.002	3.889	3.703	4.238	3.719	4.341	3.959	3.984	3.809	4.075	3.699	3.826	3.879	3.888	4.288	3.846	3.990
435.0	 1373	394.5	413.0	555.6	688.4	782.1	872.9	955.5	 1033	 1046	 1027	991.9	942.2	890.2	848.7	786.1	749.8	725.9	725.1	727.5	713.0	699.7	687.5	684.5	670.1	654.5	629.8	607.5	566.4	517.6	477.2	445.7	413.8	285.2	200.8	153.5	122.2	91.21	70.82	81.75	281.7	613.0	 1420	 4317	 3137	33.27	4.425	3.404	2.409	2.508	2.450	2.953	2.752	3.204	3.504	3.333	3.459	3.642	3.970	3.824	4.307	3.879	3.729	3.940	4.005	3.989	3.701	3.433	3.603	4.175	3.734	4.214	3.795	3.180	4.025	3.702	3.971
440.0	 1707	848.8	390.5	555.9	673.2	751.4	829.8	928.3	994.8	 1036	 1003	961.5	909.7	852.6	803.3	751.2	707.2	697.3	692.3	685.7	671.0	663.8	655.7	662.9	649.1	640.6	619.0	593.4	566.0	522.7	472.9	416.8	418.4	343.0	227.7	167.2	134.1	102.0	79.81	64.62	98.38	162.6	348.8	 2100	9999.9	418.9	19.57	3.796	3.076	2.689	2.601	2.844	3.009	2.879	2.995	3.366	3.258	3.685	4.086	3.532	4.455	3.627	3.795	3.891	4.383	4.234	3.654	3.284	3.638	3.810	3.670	4.030	4.029	3.630	3.666	3.567	3.801
445.0	 1342	 1673	415.0	519.7	650.6	722.5	826.2	933.1	978.7	 1017	951.5	936.4	885.9	829.3	781.5	722.8	686.0	670.0	655.1	638.4	637.1	638.4	627.5	626.6	622.0	613.9	599.7	578.8	549.2	517.8	469.8	411.0	379.0	373.3	270.0	184.5	145.4	114.6	85.16	67.69	61.85	65.81	101.0	529.9	 7202	 3390	327.4	9.734	3.426	2.994	2.535	2.724	2.650	3.005	3.044	3.156	2.935	3.453	3.288	3.820	4.015	4.093	3.862	3.667	3.834	3.530	3.628	3.581	3.961	3.585	3.210	3.683	3.669	3.457	3.639	3.441	3.855
450.0	589.5	 2685	 1100	489.1	605.2	684.4	789.8	871.7	934.4	955.4	937.1	900.8	844.8	786.5	726.6	679.0	638.9	619.1	613.6	605.2	598.9	591.9	587.2	584.1	585.5	581.3	567.7	552.2	534.3	506.5	462.5	409.3	357.9	336.8	312.3	225.5	162.1	128.1	97.70	79.38	61.80	51.60	49.55	139.9	 1798	 2107	 3364	 1243	21.42	3.921	3.227	2.974	2.931	2.898	2.737	3.105	3.254	3.243	3.236	3.440	3.542	3.735	3.744	3.648	3.652	3.510	3.534	3.424	3.237	3.242	3.513	3.299	3.226	2.998	3.325	3.425	3.660
455.0	256.5	 1744	 2830	601.9	551.3	663.0	723.1	804.1	898.0	900.8	881.9	860.4	777.1	730.1	680.6	625.4	586.4	559.5	563.2	550.1	553.3	536.0	541.2	531.1	539.3	536.5	535.0	520.2	504.6	481.8	444.7	396.5	351.8	303.5	286.3	270.3	189.8	138.6	109.6	89.39	70.10	56.60	43.61	56.65	420.9	488.4	 1428	 3672	 1840	26.40	4.464	3.205	2.882	2.872	2.798	2.980	3.279	3.157	3.052	2.944	3.516	3.576	3.798	3.372	3.217	3.426	3.471	3.523	3.276	2.649	3.119	2.918	3.157	3.144	3.186	2.789	3.435
460.0	192.8	739.1	 3570	 1234	528.2	606.9	694.7	767.1	839.4	858.3	847.2	823.2	761.2	704.2	646.7	587.5	558.4	531.1	520.7	513.2	504.4	504.7	498.8	497.1	501.0	505.1	501.3	495.4	484.2	461.4	431.8	388.0	342.4	294.3	261.6	264.4	226.1	154.0	116.0	95.81	75.38	61.06	45.07	40.54	117.7	127.3	346.2	 1748	 4053	326.3	16.11	3.787	3.120	3.084	2.688	3.019	2.955	2.998	2.872	2.999	3.459	3.567	3.428	3.242	3.131	3.135	2.982	3.218	3.227	2.546	2.985	2.770	2.774	3.171	2.734	2.919	3.173
465.0	160.5	359.7	 2686	 2750	527.5	552.0	650.0	717.1	791.9	820.6	819.6	777.2	715.5	662.3	614.5	549.8	517.6	492.5	486.3	474.7	466.9	467.6	469.1	476.8	470.4	469.7	472.9	465.7	454.2	440.2	419.4	378.4	329.2	286.4	247.3	233.4	235.0	177.5	125.1	101.9	80.00	66.50	49.66	40.18	53.95	48.60	93.62	437.9	 2448	 3324	276.2	8.518	3.392	2.957	2.789	2.887	2.929	3.195	2.932	3.261	3.499	3.450	3.265	3.107	3.025	3.434	3.082	2.895	3.239	2.867	3.061	2.730	2.690	2.815	2.729	2.877	3.004
470.0	152.6	237.5	 1140	 3686	 1553	525.4	590.0	667.3	732.4	756.3	745.8	720.1	664.3	608.1	555.5	509.7	475.3	453.9	438.9	428.5	426.0	425.3	421.3	423.8	424.0	425.5	427.0	427.9	421.2	407.5	389.9	353.6	315.6	277.3	237.5	211.3	203.1	193.9	144.9	106.0	83.94	70.19	55.03	45.05	40.91	34.13	39.11	112.8	608.3	 1875	 2844	 1095	19.95	3.642	2.989	2.869	2.734	2.921	2.822	3.084	3.184	3.069	3.123	2.798	2.777	3.030	2.796	2.838	2.865	2.671	2.728	2.642	2.713	2.272	2.379	2.755	2.678
475.0	160.1	188.2	454.0	 2143	 3802	682.2	561.8	623.2	668.4	696.8	684.6	664.3	606.7	551.5	515.4	462.4	432.4	407.1	389.8	384.5	379.1	374.3	376.7	378.5	378.6	380.8	384.2	383.6	380.8	375.2	352.1	329.9	293.8	259.2	223.3	194.2	178.0	168.3	163.2	121.9	88.89	73.46	58.36	46.87	41.80	34.07	29.83	41.89	149.0	430.4	 1204	 2839	 1274	26.52	3.627	3.085	2.742	2.716	2.786	2.756	2.951	2.668	3.004	2.978	2.580	2.412	2.585	2.556	2.440	2.299	2.510	2.436	2.239	2.278	2.361	2.323	2.002
480.0	135.9	201.6	284.3	908.7	 4437	 1103	501.3	557.6	608.6	631.6	654.3	619.0	558.5	511.5	478.7	425.1	395.3	374.1	362.8	358.5	348.3	342.3	347.8	348.6	345.2	350.8	353.3	353.8	350.8	347.3	334.7	306.2	272.5	244.5	212.0	189.1	167.5	148.1	154.1	136.8	94.95	74.51	61.17	51.62	43.28	35.69	29.81	27.43	47.57	108.2	288.3	 1243	 2794	364.2	15.65	3.695	3.010	3.022	2.668	2.716	2.590	2.285	2.382	2.452	2.701	2.261	2.159	2.059	2.390	2.020	2.075	1.800	2.222	1.840	2.050	2.048	2.188
485.0	131.9	199.6	227.2	440.3	 3251	 3609	517.6	546.3	579.6	590.8	613.8	573.7	530.7	488.1	438.0	397.4	370.2	347.6	330.9	329.5	318.5	315.5	319.7	319.0	321.1	323.6	326.5	330.2	329.7	319.7	311.0	284.5	260.5	235.2	204.3	183.6	159.8	141.0	136.5	139.7	107.8	77.66	61.72	51.19	43.97	37.36	32.37	25.46	26.51	37.19	75.83	305.0	 1641	 2653	295.2	7.455	3.070	3.424	2.849	2.588	2.440	2.142	2.713	2.661	2.328	2.455	2.285	2.178	2.214	1.955	1.881	1.872	2.297	1.814	1.997	2.057	1.941
490.0	106.5	180.0	222.5	294.2	 1293	 4481	 1775	487.8	515.9	533.6	556.5	524.1	490.7	450.0	397.3	359.9	330.9	305.6	299.1	298.1	287.3	284.3	280.2	284.5	288.5	291.0	293.3	297.4	294.2	289.8	282.2	260.3	241.6	215.4	190.6	172.8	151.9	131.8	119.2	119.6	116.4	90.25	64.42	53.65	46.05	38.03	33.22	27.29	23.14	22.37	28.64	77.71	404.5	 1378	 2100	 1078	20.68	3.078	2.689	2.536	2.551	2.249	2.313	2.592	2.484	2.219	2.159	1.938	1.949	1.677	1.600	1.902	1.960	1.836	1.612	1.867	1.680
495.0	90.32	146.8	214.7	229.9	495.3	 2455	 4505	585.3	469.5	493.6	483.7	471.4	430.2	403.6	355.0	311.9	297.7	273.4	266.5	263.1	257.1	256.1	243.5	248.9	251.8	253.0	256.2	262.4	266.5	257.6	254.4	234.5	220.2	194.6	174.0	158.9	140.1	122.9	111.0	100.1	103.2	101.5	73.69	53.35	47.92	38.23	32.82	28.44	23.30	20.95	19.02	27.79	98.94	315.2	785.7	 2871	 1244	27.53	2.963	2.507	2.474	2.002	1.968	2.154	2.416	2.170	1.939	1.880	1.432	1.615	1.862	1.689	1.338	1.476	1.487	1.753	1.675
500.0	69.75	124.0	216.1	234.7	295.5	964.1	 4902	 1321	434.3	461.0	452.8	430.5	387.5	364.3	334.9	292.6	270.4	249.7	241.3	233.1	233.1	230.0	224.4	224.3	228.4	229.9	230.4	231.6	241.0	235.9	229.9	215.1	201.1	181.6	161.8	146.1	132.5	115.5	105.9	92.28	89.72	93.45	82.44	56.78	46.58	38.82	32.25	28.81	23.62	20.34	16.76	15.72	31.00	77.50	185.7	 1273	 2533	378.6	14.66	3.030	2.620	2.095	1.858	1.831	2.167	2.028	1.933	1.825	1.351	1.352	1.750	1.492	1.191	1.658	1.551	1.354	1.406
505.0	73.12	97.79	184.7	262.7	248.6	437.2	 3281	 2643	436.8	426.0	416.1	390.9	368.0	341.6	301.8	271.8	238.6	226.2	215.6	213.4	206.4	212.3	205.9	210.6	206.0	208.7	213.4	212.7	215.4	213.0	212.3	198.7	188.7	164.9	149.3	134.2	123.8	109.4	99.38	86.10	78.60	79.31	83.23	65.51	46.81	38.44	33.26	29.05	23.63	19.97	16.55	13.68	15.61	24.35	47.79	306.7	 1396	 2193	302.1	5.875	2.610	1.997	2.097	2.085	1.775	2.107	1.820	1.774	1.383	1.285	1.395	1.142	1.456	1.238	1.444	1.345	1.168
510.0	66.29	87.59	143.1	242.7	232.8	288.4	 1227	 3147	 1255	380.9	369.9	352.2	326.5	297.4	267.1	242.9	214.9	202.3	193.6	186.6	186.6	183.4	178.4	180.6	181.1	183.3	186.2	186.9	186.2	189.8	187.4	174.4	166.2	150.4	134.8	123.5	111.7	99.27	90.22	79.45	71.40	66.06	67.54	67.92	52.58	38.25	32.34	28.55	23.40	20.01	17.89	14.14	12.61	13.03	16.92	73.94	339.9	 1118	 1696	697.8	19.93	2.485	1.941	1.773	1.645	1.658	1.506	1.442	1.443	1.269	1.528	1.281	1.155	1.393	1.293	1.319	1.146
515.0	60.34	82.42	110.4	206.4	247.7	217.6	452.1	 1673	 3176	522.0	328.9	311.2	282.9	254.4	236.6	215.3	189.0	176.5	165.2	162.9	156.9	156.1	154.3	152.4	155.6	162.3	160.7	161.2	165.8	166.3	162.0	152.1	141.1	131.2	118.3	110.9	100.8	89.41	79.66	72.61	63.46	57.87	54.43	59.32	58.02	43.01	32.83	27.88	23.80	19.90	16.97	14.78	12.30	10.55	10.64	22.08	81.19	254.8	609.9	 1764	402.6	24.44	2.106	1.831	1.566	1.602	1.357	1.061	1.331	1.395	1.343	1.200	1.070	1.206	1.013	1.063	1.185
520.0	48.87	64.66	104.6	151.7	249.3	201.4	266.5	667.4	 3589	 1608	296.6	284.7	252.4	232.8	202.9	187.2	170.3	157.3	150.0	148.6	140.0	141.2	136.2	136.4	139.3	139.9	145.0	147.2	148.6	148.1	145.5	140.4	129.9	119.0	110.6	100.9	89.41	80.89	74.54	66.46	59.82	55.25	50.05	49.07	54.77	48.03	34.96	26.50	23.52	19.12	16.77	14.00	11.16	10.38	9.178	10.66	23.62	61.21	144.0	782.3	 1883	355.6	10.55	1.780	1.687	1.713	1.133	1.054	1.160	1.332	1.238	1.095	0.966	0.831	1.094	1.136	1.044
525.0	48.81	55.49	91.93	114.2	230.6	209.8	203.4	322.8	 2390	 3383	313.2	261.4	223.5	207.9	188.4	171.7	151.5	145.3	139.1	130.5	127.0	125.5	125.1	124.8	124.2	129.0	128.6	130.2	135.4	131.7	132.9	126.6	118.6	107.8	96.87	90.34	82.58	75.25	67.20	62.98	57.44	50.49	46.54	42.38	46.46	49.59	38.29	26.35	22.43	18.02	16.08	13.30	12.16	10.95	9.311	7.999	10.36	18.03	36.83	188.8	 1087	 1670	261.8	4.042	1.845	1.796	1.388	0.901	1.161	1.133	1.018	0.898	0.928	0.886	0.736	0.885	0.824
530.0	47.11	56.85	77.29	99.82	169.4	230.1	182.6	220.4	884.1	 3795	 1278	228.1	203.6	187.5	168.7	148.6	134.8	129.0	119.2	116.4	113.5	109.0	109.6	108.9	107.4	109.6	109.6	113.0	115.9	114.2	113.7	110.2	102.5	93.91	87.41	78.89	73.67	68.36	61.44	55.87	51.19	45.99	41.32	37.57	36.97	39.85	39.93	30.07	22.18	17.94	15.32	13.07	11.51	10.45	8.916	7.648	7.438	8.846	12.15	46.14	264.9	846.6	 1214	516.3	17.75	1.805	1.453	1.040	1.146	0.950	0.905	0.812	0.833	0.920	0.738	0.869	0.630
535.0	40.47	56.66	62.70	76.32	108.8	198.8	197.1	170.8	345.7	 1761	 3513	359.2	178.6	163.1	147.2	128.7	116.5	110.0	103.9	100.3	97.04	91.66	94.81	91.13	90.55	93.85	93.52	94.53	100.8	96.31	96.74	94.03	86.75	79.73	74.19	68.63	63.32	59.45	52.55	49.04	46.53	39.71	35.92	33.35	30.21	30.06	34.49	34.39	24.31	17.79	14.19	12.09	10.48	9.135	8.679	7.370	6.567	6.551	6.720	14.08	62.90	192.4	443.1	 1309	386.6	20.31	1.648	1.306	0.943	0.886	0.938	0.745	0.544	0.559	0.597	0.788	0.639
540.0	35.63	43.11	64.72	68.93	95.99	160.5	220.1	151.2	201.2	637.7	 3825	 1325	168.2	140.0	133.5	114.2	110.0	98.01	92.76	93.00	90.96	84.57	82.11	82.31	82.31	80.70	85.57	84.79	86.29	85.39	86.36	80.11	76.25	70.65	64.81	62.05	56.48	53.14	47.24	42.40	42.81	35.30	34.09	29.19	27.94	25.51	27.57	31.45	26.82	17.75	13.65	11.47	10.61	9.329	7.811	7.620	6.577	5.874	5.815	6.800	17.47	46.14	104.2	591.6	 1306	333.6	6.656	1.638	1.302	0.979	1.069	0.612	0.644	0.496	0.559	0.848	0.483
545.0	28.89	49.27	55.11	68.64	84.36	122.2	224.2	149.2	162.1	270.9	 2357	 3117	196.0	129.0	120.3	103.0	96.09	89.55	80.82	80.57	75.93	75.32	74.48	71.45	73.40	72.59	74.83	75.28	76.33	74.26	74.94	72.79	67.78	62.46	58.89	54.35	51.58	48.29	42.58	39.76	37.18	32.69	31.24	27.94	24.80	22.78	21.98	25.43	27.27	19.39	13.67	10.49	9.790	8.705	7.920	7.675	6.794	6.076	5.502	5.231	7.246	13.76	26.79	144.0	765.5	 1436	51.97	3.180	1.589	1.331	1.104	0.896	0.691	0.488	0.630	0.567	0.428
550.0	32.92	37.67	48.56	60.75	66.87	86.97	175.9	177.5	139.9	164.7	785.4	 3586	 1219	110.1	99.49	87.76	79.36	73.46	66.85	67.11	63.84	62.22	61.48	60.31	60.16	60.15	60.59	63.25	64.86	62.75	62.51	60.89	57.34	53.25	49.36	45.39	43.05	39.69	36.20	34.06	31.61	28.09	26.37	23.91	21.93	19.92	18.36	19.22	22.13	20.91	15.51	10.39	8.936	7.979	7.355	6.507	6.702	6.456	5.416	4.922	5.387	6.676	9.470	35.58	188.6	746.0	967.4	220.5	14.49	1.876	1.450	1.201	0.829	0.510	0.642	0.459	0.485
555.0	30.16	38.79	46.98	49.59	62.34	67.31	110.9	190.4	126.6	126.5	277.3	 1545	 3784	222.5	84.70	74.09	64.42	61.70	56.23	54.84	52.14	51.69	50.85	49.90	49.97	48.21	49.58	51.82	51.62	51.71	50.76	49.14	47.35	42.66	41.43	37.71	35.18	32.28	30.85	29.07	25.44	22.82	21.67	19.81	18.61	16.14	16.27	14.96	15.64	17.23	16.84	10.98	8.165	6.878	6.754	6.375	5.848	6.116	5.527	5.791	5.023	5.670	6.400	12.29	45.97	170.6	384.5	852.7	331.1	13.24	2.434	1.477	0.937	0.824	0.730	0.403	0.392
560.0	35.25	37.56	42.32	52.83	51.89	63.98	79.61	167.5	149.5	112.7	139.6	501.9	 4167	 1041	71.90	61.09	58.58	52.46	45.98	47.70	44.44	45.07	43.03	45.00	42.65	42.98	42.19	42.83	43.79	44.26	43.71	41.54	40.06	36.28	35.77	31.47	30.04	28.24	26.75	23.62	22.24	20.21	19.18	17.54	15.92	14.29	14.32	12.91	12.08	13.24	15.33	12.16	8.212	6.660	5.919	5.944	5.646	5.690	6.291	6.109	5.716	6.323	5.838	7.603	15.64	42.61	92.86	415.4	883.6	229.6	5.498	1.940	1.189	0.856	0.453	0.319	0.262
565.0	31.07	35.77	38.13	43.71	53.05	59.73	65.72	126.2	172.0	100.2	113.3	195.8	 2469	 2549	85.41	54.32	47.50	45.34	40.23	41.73	39.92	35.83	37.20	37.73	36.29	37.05	37.78	36.17	37.85	37.39	37.52	34.69	33.59	31.17	29.85	27.49	26.02	23.84	23.11	20.75	18.63	17.13	16.06	15.74	13.37	13.41	12.14	11.18	10.53	10.70	12.20	12.24	8.635	6.284	5.910	5.748	5.936	5.946	6.455	6.762	6.980	6.900	6.890	8.177	9.459	15.67	26.68	106.6	557.7	764.0	47.51	2.964	1.644	1.004	0.534	0.467	0.310
570.0	26.96	39.01	35.46	43.23	41.14	47.55	52.54	76.19	177.5	118.7	96.77	113.5	748.5	 2999	857.5	46.31	39.15	38.34	34.82	33.73	31.59	29.34	29.08	29.13	28.15	29.97	29.95	28.84	30.18	29.83	29.72	28.39	27.12	25.00	24.73	22.34	20.35	19.46	18.69	16.92	15.09	13.94	13.09	12.29	11.12	10.55	9.653	9.056	8.338	8.145	8.692	10.16	9.709	7.294	6.153	5.782	5.937	6.626	6.782	7.366	8.596	8.779	8.463	9.218	9.322	11.15	12.81	30.53	143.9	429.5	480.9	182.1	9.395	1.259	0.626	0.521	0.352
575.0	27.07	38.16	46.88	41.64	39.16	41.81	47.18	53.59	122.3	163.7	92.99	94.46	230.3	 1209	 2759	114.5	32.60	30.42	27.32	26.72	22.66	23.60	22.50	22.93	22.97	23.98	23.97	23.97	23.63	23.26	24.33	22.80	22.41	20.91	19.87	17.29	16.67	15.53	14.16	12.78	13.16	11.00	10.54	9.629	9.526	8.895	8.134	7.664	6.724	6.470	6.657	6.999	8.547	8.202	6.506	5.450	5.817	6.763	6.946	7.263	8.822	9.504	9.250	10.09	9.736	9.669	10.29	13.93	38.36	102.3	218.7	557.2	206.6	5.908	0.800	0.492	0.280
580.0	32.89	34.07	36.91	37.56	34.17	35.45	41.63	47.68	81.83	185.2	101.6	88.58	113.9	370.0	 2980	694.0	30.78	25.31	23.22	21.83	18.86	18.98	19.83	18.68	20.61	19.15	19.55	19.88	21.01	20.35	20.09	19.03	19.44	16.66	16.94	14.17	14.21	12.94	11.81	10.32	10.74	9.070	9.134	8.360	7.965	7.104	7.052	6.475	5.777	5.211	5.286	5.277	6.684	8.051	6.453	5.228	5.357	6.053	6.488	6.955	8.411	9.349	9.061	9.223	9.564	8.749	9.113	9.708	15.02	27.99	56.03	286.1	477.6	51.02	1.736	0.538	0.232
585.0	32.51	32.58	43.35	38.67	33.47	29.72	38.12	42.33	64.07	167.6	122.6	84.28	84.48	132.8	 1700	 1838	40.55	20.95	19.73	19.26	16.91	16.22	16.95	16.43	16.13	14.93	15.90	17.43	16.88	16.43	16.89	16.16	15.68	13.63	13.85	12.74	11.18	11.15	9.880	9.694	9.060	7.121	7.935	7.370	6.920	5.918	6.133	5.498	5.186	5.182	4.645	4.436	5.140	6.443	6.543	5.092	4.996	5.114	5.763	5.786	6.997	7.012	8.083	8.684	8.771	7.951	7.760	7.955	8.495	11.60	16.56	73.30	321.3	415.9	36.46	0.967	0.304
590.0	25.96	31.51	39.44	34.02	29.84	28.62	38.34	39.34	52.88	105.5	157.4	86.95	78.55	74.27	509.5	 2196	606.7	19.59	16.85	15.87	14.17	13.70	13.88	12.89	13.36	12.49	12.87	13.77	13.98	13.09	13.95	13.27	12.53	10.97	11.17	10.19	9.259	8.668	7.852	7.966	7.350	5.702	6.557	5.442	5.564	4.924	4.759	4.377	4.286	3.917	3.812	3.595	3.459	4.220	5.619	5.278	4.082	4.053	4.542	4.910	5.571	5.512	6.282	6.920	6.749	6.258	6.007	6.387	5.881	6.032	6.551	18.90	82.51	271.5	313.9	160.7	4.209
595.0	22.71	32.85	38.53	32.38	25.77	24.35	27.16	36.67	43.43	69.35	146.7	118.6	78.53	59.66	142.8	863.0	 2042	61.16	15.78	12.17	10.66	10.88	10.66	10.92	9.415	10.58	10.27	10.85	10.38	10.82	10.91	9.383	9.487	8.690	8.667	8.153	7.488	7.075	6.513	6.274	5.954	5.296	5.018	4.836	4.171	3.914	3.838	3.861	3.404	3.068	3.283	2.757	2.363	2.950	4.023	4.513	4.198	3.422	3.552	3.805	4.086	4.129	4.333	4.719	5.531	4.831	4.231	4.695	4.633	4.217	3.377	5.931	19.50	62.00	144.5	502.6	55.63
600.0	23.35	26.37	33.05	26.99	28.01	26.09	30.91	35.22	40.75	63.69	124.1	155.4	83.28	58.10	62.71	248.6	 2192	191.3	14.59	10.83	9.189	9.976	9.159	8.754	9.096	8.699	8.918	8.522	9.019	9.192	8.494	9.147	7.970	7.409	6.619	6.212	6.218	5.720	5.397	5.104	4.574	4.453	4.011	4.234	3.723	3.333	3.063	3.078	2.828	2.544	2.747	1.947	2.058	2.287	2.731	3.641	3.941	3.301	2.938	3.086	2.987	3.592	3.671	3.721	4.341	4.084	3.630	4.256	3.953	3.568	2.462	2.998	5.427	14.52	35.09	270.9	356.4
605.0	25.66	27.09	31.13	28.78	27.68	27.20	26.47	36.34	45.01	52.61	92.33	161.6	88.27	59.18	46.28	77.42	 1223	 1223	18.40	9.875	7.523	8.304	7.357	7.522	7.494	8.000	8.177	7.316	7.706	7.744	7.856	7.150	7.193	5.837	6.017	5.323	5.363	5.033	5.232	4.071	3.832	4.210	3.472	3.455	2.957	2.990	2.777	2.491	2.392	2.151	2.095	2.055	1.879	1.755	1.816	2.605	3.566	3.382	2.747	2.792	2.605	3.166	3.070	3.349	3.148	3.624	3.672	3.375	3.245	2.745	2.064	2.360	2.325	3.891	8.350	69.22	267.8
610.0	21.62	29.78	26.69	25.49	28.85	27.20	26.87	33.87	41.37	57.29	74.16	130.8	117.6	61.91	41.61	37.68	350.8	 1551	360.6	8.732	7.096	6.776	6.521	6.490	6.096	5.967	5.822	5.900	6.130	6.488	5.766	5.845	5.892	5.206	4.529	4.441	4.343	3.967	3.949	3.294	3.113	3.208	2.761	2.577	2.498	2.312	2.280	2.038	2.084	1.778	1.752	1.635	1.530	1.365	1.590	2.013	2.570	3.031	2.505	2.354	2.371	2.167	2.630	2.689	2.472	2.751	3.094	2.727	2.622	2.211	1.812	1.502	1.308	1.498	2.447	15.94	69.09
615.0	17.66	24.37	26.50	28.27	16.71	26.08	24.04	29.85	40.05	55.62	62.87	95.56	144.3	66.67	40.30	30.94	92.57	629.7	 1275	32.48	6.329	6.194	5.562	5.389	4.239	4.698	4.865	4.963	4.345	4.338	4.601	4.620	4.631	3.903	3.800	3.241	3.641	3.202	3.433	2.734	2.327	2.422	2.193	1.865	2.145	2.047	1.872	1.393	1.707	1.561	1.378	1.455	1.353	1.025	1.236	1.358	1.728	2.113	2.531	2.077	2.109	1.796	2.135	2.464	1.938	2.402	2.185	2.410	2.425	1.821	1.448	0.927	0.901	0.699	0.975	3.916	15.81
620.0	11.42	20.72	26.50	25.95	18.82	24.08	23.75	27.46	40.21	52.58	60.32	75.74	127.4	83.18	42.17	28.71	36.63	179.4	 1461	145.9	5.571	5.326	5.111	4.457	4.260	4.036	4.015	4.504	3.125	3.656	4.159	3.703	3.751	3.420	3.341	2.479	3.096	2.382	2.533	2.611	1.791	2.128	1.893	1.663	2.030	1.567	1.538	1.291	1.426	1.112	1.214	1.188	0.868	0.865	0.935	1.176	1.296	1.524	2.113	2.263	1.925	1.395	1.702	1.557	1.587	1.855	1.870	1.644	2.090	2.104	1.503	0.986	0.860	0.545	0.630	1.253	3.832
625.0	8.753	18.10	20.32	27.79	22.66	22.63	25.65	26.05	35.35	51.87	61.18	64.33	103.8	106.1	43.68	29.02	24.46	51.29	869.2	852.7	9.404	4.243	3.696	3.817	3.874	3.755	3.451	3.291	3.622	3.348	3.440	3.392	3.195	2.718	2.451	2.617	2.328	2.518	1.918	2.085	1.730	1.811	1.680	1.570	1.672	1.192	1.171	1.083	1.136	0.970	0.946	0.917	0.723	0.892	0.866	0.868	1.370	1.064	1.838	1.779	1.964	1.510	1.422	1.447	1.492	1.475	1.588	1.645	1.686	1.853	1.226	0.781	0.743	0.620	0.500	0.553	1.117
630.0	10.95	14.86	23.74	22.93	17.13	25.18	22.38	25.91	34.57	50.24	58.76	62.32	76.73	106.2	53.55	27.76	21.04	22.10	252.9	 1155	242.0	3.915	3.622	2.904	2.861	2.484	2.960	2.383	2.715	2.736	2.540	2.407	2.507	1.922	2.300	2.144	2.022	1.998	1.436	1.487	1.595	1.575	1.304	1.287	1.308	1.030	1.029	0.996	0.945	0.836	0.793	0.797	0.664	0.727	0.762	0.722	0.983	0.831	1.122	1.368	1.651	1.407	1.287	1.333	1.195	1.202	1.513	1.249	1.260	1.333	1.216	0.780	0.716	0.374	0.324	0.338	0.544
635.0	8.790	16.81	22.47	23.46	17.64	20.08	20.26	20.38	33.00	45.61	56.80	64.67	67.11	86.62	77.06	32.30	20.86	16.08	65.22	500.9	905.6	20.25	3.575	2.501	2.348	2.423	2.302	2.007	2.104	1.961	1.811	2.035	2.313	1.653	1.897	1.708	1.630	1.664	1.249	1.142	1.234	1.301	0.945	0.991	0.955	0.809	0.857	0.808	0.649	0.834	0.585	0.693	0.713	0.627	0.647	0.516	0.722	0.833	0.777	0.845	1.228	1.329	1.031	1.059	0.836	1.090	1.129	0.770	0.789	0.988	1.086	0.945	0.522	0.393	0.409	0.195	0.286
640.0	8.530	21.25	29.26	25.13	18.44	15.55	19.36	22.62	32.95	43.73	54.03	57.03	60.33	68.61	89.68	35.96	22.53	15.18	22.76	144.4	 1086	113.4	3.022	2.477	2.310	1.959	1.839	1.775	1.861	1.699	1.457	1.938	1.882	1.505	1.879	1.444	1.308	1.256	1.108	1.236	0.985	1.045	0.942	0.976	1.007	0.581	0.643	0.532	0.682	0.564	0.696	0.485	0.330	0.479	0.529	0.652	0.685	0.522	0.579	0.668	0.914	1.127	1.038	0.816	0.817	0.861	0.829	0.999	0.930	0.545	0.774	0.807	0.664	0.461	0.293	0.117	0.256
645.0	25.59	21.50	34.28	27.56	17.47	15.61	20.86	24.88	32.89	41.10	50.72	56.18	62.73	57.83	87.64	46.30	21.74	15.27	13.62	39.47	688.5	607.1	4.925	2.674	2.180	1.884	1.365	1.607	1.609	1.519	1.282	1.305	1.229	1.351	1.329	0.915	1.374	1.103	0.883	0.863	0.844	0.985	1.035	0.787	0.918	0.507	0.568	0.524	0.541	0.685	0.516	0.389	0.424	0.354	0.506	0.391	0.514	0.328	0.390	0.456	0.556	0.907	1.096	0.643	0.596	0.666	0.777	0.680	0.738	0.579	0.373	0.401	0.784	0.572	0.317	0.084	0.277
650.0	28.95	24.15	28.71	32.18	20.62	15.38	18.03	23.68	27.17	39.05	44.96	57.16	59.48	56.10	73.77	61.09	23.61	18.01	10.81	15.23	248.4	987.1	45.39	2.581	2.206	1.555	1.899	1.510	1.406	1.821	1.016	1.125	0.964	1.128	1.236	1.044	1.229	0.938	0.908	0.709	0.838	0.811	0.667	0.955	0.668	0.657	0.527	0.476	0.572	0.419	0.443	0.365	0.419	0.383	0.475	0.453	0.567	0.339	0.271	0.506	0.529	0.697	1.000	0.807	0.544	0.682	0.662	0.575	0.467	0.498	0.491	0.379	0.690	0.489	0.397	0.278	0.095
