Sample:	'1
File name:	Default_20230214_150019.FD3
Run date:	'14:53:58, 02/14/2023
Operator:	dsjg
Comment:	'

Instrument
Model:	F-2700 FL Spectrophotometer
Serial number:	2198-001
ROM Version:	4J14000 07

Instrument parameters
Measurement type:	3-D scan
Data mode:	Fluorescence
EX  Start WL:	220.0 nm
EX  End WL:	600.0 nm
EX Sampling interval:	5.0 nm
EM  Start WL:	230.0 nm
EM  End WL:	650.0 nm
EM Sampling interval:	5.0 nm
Scan speed:	12000 nm/min
EX Slit:	5.0 nm
EM Slit:	5.0 nm
PMT Voltage:	700 V
Response:	Auto 
Corrected spectra:	Off
Contour interval:	50.000

Peak integration
Integration method:	Rectangular
Sensitivity:	1
Threshold:	1.000

Peaks
No.	ApexEX/EM(nm)	Height(Data)
1	230.0/345.0	201.3
2	230.0/505.0	67.97
3	235.0/260.0	118.5
4	235.0/515.0	66.55
5	240.0/265.0	147.0
6	240.0/400.0	187.2
7	240.0/525.0	63.93
8	245.0/270.0	139.9
9	245.0/415.0	179.9
10	245.0/540.0	56.35
11	250.0/275.0	167.5
12	250.0/425.0	172.3
13	250.0/550.0	46.51
14	255.0/280.0	183.3
15	255.0/440.0	175.7
16	255.0/560.0	41.03
17	260.0/435.0	177.0
18	260.0/575.0	31.16
19	265.0/295.0	202.5
20	265.0/420.0	172.0
21	265.0/585.0	28.19
22	270.0/300.0	264.7
23	270.0/595.0	24.45
24	275.0/305.0	289.9
25	275.0/605.0	20.58
26	280.0/310.0	252.2
27	280.0/355.0	199.8
28	280.0/385.0	199.5
29	280.0/615.0	16.80
30	285.0/315.0	241.1
31	285.0/360.0	200.3
32	285.0/630.0	13.34
33	290.0/325.0	236.4
34	290.0/645.0	10.60
35	295.0/330.0	201.8
36	300.0/335.0	198.9
37	305.0/340.0	190.9
38	310.0/350.0	163.5
39	315.0/355.0	155.4
40	320.0/360.0	162.1
41	330.0/375.0	136.2
42	335.0/380.0	149.4
43	340.0/385.0	136.1
44	350.0/400.0	123.6
45	355.0/405.0	120.5
46	365.0/420.0	96.69
47	370.0/425.0	93.59
48	375.0/430.0	80.71
49	380.0/440.0	71.23
50	385.0/445.0	64.46
51	400.0/465.0	39.89
52	405.0/470.0	31.87
53	415.0/485.0	23.96
54	420.0/490.0	19.44
55	430.0/505.0	14.93
56	435.0/510.0	11.99
57	445.0/525.0	8.911
58	450.0/530.0	7.444
59	455.0/540.0	6.256
60	460.0/545.0	5.219
61	475.0/565.0	2.721
62	545.0/300.0	1.799
63	555.0/305.0	1.744
64	570.0/315.0	1.568
65	575.0/320.0	1.495
66	585.0/325.0	1.697

Data points
	220.0	225.0	230.0	235.0	240.0	245.0	250.0	255.0	260.0	265.0	270.0	275.0	280.0	285.0	290.0	295.0	300.0	305.0	310.0	315.0	320.0	325.0	330.0	335.0	340.0	345.0	350.0	355.0	360.0	365.0	370.0	375.0	380.0	385.0	390.0	395.0	400.0	405.0	410.0	415.0	420.0	425.0	430.0	435.0	440.0	445.0	450.0	455.0	460.0	465.0	470.0	475.0	480.0	485.0	490.0	495.0	500.0	505.0	510.0	515.0	520.0	525.0	530.0	535.0	540.0	545.0	550.0	555.0	560.0	565.0	570.0	575.0	580.0	585.0	590.0	595.0	600.0
230.0	11.23	210.7	489.7	117.5	3.759	1.258	1.155	0.886	0.728	0.735	0.750	0.444	0.457	0.405	0.324	0.344	0.309	0.329	0.296	0.251	0.271	0.202	0.194	0.208	0.214	0.202	0.191	0.170	0.203	0.181	0.184	0.161	0.149	0.139	0.159	0.205	0.269	0.225	0.230	0.203	0.159	0.180	0.177	0.166	0.145	0.163	0.170	0.449	1.215	1.438	0.784	0.222	0.099	0.085	0.080	0.057	0.068	0.051	0.076	0.051	0.063	0.060	0.055	0.044	0.060	0.057	0.058	0.049	0.045	0.051	0.031	0.045	0.016	0.029	0.029	0.037	0.030
235.0	12.69	66.18	452.4	561.7	194.5	6.065	1.169	1.239	1.163	0.798	0.709	0.834	0.631	0.533	0.306	0.407	0.279	0.279	0.284	0.326	0.366	0.256	0.213	0.233	0.234	0.209	0.193	0.188	0.177	0.191	0.147	0.168	0.158	0.121	0.142	0.157	0.222	0.268	0.274	0.246	0.269	0.196	0.167	0.162	0.193	0.182	0.141	0.180	0.448	0.903	1.637	2.475	1.520	0.412	0.084	0.061	0.131	0.066	0.072	0.064	0.043	0.050	0.065	0.057	0.048	0.057	0.038	0.053	0.062	0.049	0.053	0.041	0.026	0.018	0.044	0.013	0.040
240.0	24.34	26.16	168.2	700.3	795.7	155.0	2.830	1.441	1.397	0.992	0.975	0.803	0.559	0.471	0.647	0.324	0.303	0.218	0.313	0.237	0.309	0.322	0.151	0.215	0.268	0.225	0.178	0.141	0.222	0.127	0.130	0.152	0.148	0.133	0.120	0.134	0.157	0.205	0.238	0.242	0.255	0.180	0.184	0.172	0.194	0.245	0.193	0.165	0.199	0.309	0.730	2.156	3.688	3.114	1.554	0.271	0.078	0.054	0.067	0.085	0.035	0.047	0.045	0.050	0.046	0.053	0.056	0.054	0.038	0.051	0.041	0.033	0.043	0.032	0.059	0.043	0.037
245.0	29.36	41.23	50.04	308.8	999.9	769.3	99.03	2.304	2.099	1.139	1.120	0.733	0.563	0.519	0.517	0.472	0.275	0.333	0.224	0.253	0.315	0.289	0.237	0.252	0.209	0.288	0.148	0.188	0.173	0.173	0.202	0.186	0.132	0.151	0.138	0.153	0.147	0.170	0.265	0.222	0.223	0.177	0.231	0.196	0.173	0.263	0.249	0.295	0.208	0.182	0.243	0.701	1.969	4.092	5.203	3.135	0.973	0.150	0.078	0.076	0.057	0.065	0.049	0.062	0.031	0.056	0.064	0.047	0.053	0.028	0.041	0.024	0.026	0.068	0.045	0.026	0.068
250.0	15.48	46.79	69.44	93.87	377.3	887.2	795.1	164.7	18.52	1.528	1.500	0.975	0.820	0.696	0.514	0.467	0.409	0.303	0.279	0.302	0.280	0.245	0.336	0.198	0.222	0.230	0.186	0.182	0.229	0.190	0.229	0.157	0.150	0.140	0.123	0.140	0.161	0.095	0.173	0.213	0.251	0.183	0.211	0.198	0.165	0.218	0.189	0.266	0.326	0.316	0.284	0.288	0.554	1.316	2.562	3.936	5.174	4.511	2.816	0.905	0.154	0.058	0.051	0.078	0.048	0.069	0.050	0.046	0.058	0.039	0.049	0.042	0.051	0.050	0.046	0.027	0.046
255.0	7.595	19.75	77.99	113.4	109.7	249.2	845.5	 1356	230.7	14.11	2.185	1.295	1.085	0.853	0.586	0.486	0.425	0.531	0.431	0.242	0.285	0.237	0.301	0.195	0.280	0.197	0.158	0.182	0.192	0.229	0.180	0.180	0.116	0.130	0.127	0.122	0.122	0.098	0.108	0.154	0.243	0.252	0.225	0.209	0.192	0.198	0.146	0.170	0.173	0.258	0.513	0.535	0.392	0.435	0.669	1.002	1.817	3.773	7.260	7.757	4.351	1.118	0.097	0.072	0.050	0.059	0.086	0.018	0.065	0.069	0.049	0.057	0.041	0.047	0.045	0.026	0.030
260.0	5.666	7.046	36.32	118.5	112.0	71.54	292.2	 1236	 1457	180.3	7.289	1.979	1.581	0.800	0.616	0.607	0.507	0.525	0.419	0.333	0.238	0.271	0.265	0.293	0.229	0.219	0.178	0.209	0.173	0.200	0.196	0.202	0.151	0.174	0.159	0.155	0.101	0.126	0.105	0.113	0.134	0.230	0.201	0.255	0.232	0.179	0.143	0.170	0.136	0.171	0.329	0.607	0.821	0.548	0.331	0.330	0.545	1.103	3.115	6.265	9.347	7.510	3.000	0.463	0.059	0.075	0.053	0.055	0.049	0.062	0.063	0.043	0.030	0.045	0.028	0.033	0.027
265.0	6.190	4.066	12.70	69.07	147.0	80.13	77.18	472.0	 1577	 1355	134.7	3.728	1.699	1.024	0.694	0.696	0.500	0.525	0.523	0.329	0.335	0.351	0.320	0.350	0.323	0.228	0.240	0.220	0.168	0.213	0.178	0.205	0.189	0.154	0.129	0.182	0.179	0.127	0.130	0.077	0.120	0.180	0.202	0.254	0.230	0.244	0.202	0.193	0.140	0.142	0.176	0.267	0.663	0.870	0.747	0.344	0.249	0.354	0.850	1.932	5.054	8.917	10.22	6.405	1.623	0.160	0.071	0.092	0.056	0.077	0.071	0.084	0.052	0.047	0.037	0.052	0.031
270.0	6.858	4.452	7.023	20.57	82.16	139.9	94.46	125.0	530.0	 1338	 1441	529.0	32.51	1.736	1.030	1.041	0.664	0.551	0.558	0.422	0.485	0.297	0.359	0.329	0.329	0.283	0.289	0.195	0.231	0.256	0.211	0.197	0.147	0.174	0.165	0.119	0.120	0.150	0.132	0.101	0.089	0.118	0.187	0.246	0.217	0.231	0.202	0.188	0.149	0.143	0.143	0.159	0.268	0.467	0.666	0.745	0.745	0.481	0.324	0.546	1.310	2.572	4.921	7.458	8.738	7.709	4.331	1.410	0.138	0.082	0.081	0.048	0.054	0.032	0.037	0.030	0.046
275.0	8.019	5.616	7.659	8.812	23.43	78.62	167.5	119.4	134.7	355.8	 1040	 1810	766.4	32.12	1.909	1.407	0.967	0.764	0.681	0.508	0.428	0.391	0.295	0.315	0.298	0.265	0.282	0.266	0.232	0.294	0.232	0.245	0.150	0.134	0.139	0.148	0.119	0.159	0.126	0.108	0.134	0.113	0.117	0.174	0.284	0.245	0.212	0.192	0.175	0.166	0.141	0.156	0.141	0.214	0.262	0.344	0.672	1.037	0.977	0.484	0.440	0.682	1.236	1.829	2.908	5.705	9.966	11.11	5.914	1.149	0.073	0.058	0.041	0.041	0.047	0.049	0.049
280.0	13.53	10.24	9.855	7.516	10.45	29.08	122.6	183.3	93.51	98.73	330.8	 1289	 1867	558.0	11.81	1.712	1.412	0.888	0.679	0.545	0.546	0.372	0.292	0.357	0.377	0.255	0.297	0.273	0.221	0.257	0.256	0.233	0.197	0.177	0.145	0.178	0.106	0.139	0.105	0.123	0.121	0.117	0.084	0.151	0.183	0.228	0.229	0.235	0.196	0.145	0.140	0.152	0.158	0.161	0.154	0.178	0.341	0.715	1.098	1.138	0.717	0.347	0.401	0.551	0.788	1.597	4.001	8.402	11.92	9.832	3.532	0.383	0.066	0.037	0.067	0.038	0.064
285.0	16.11	17.26	15.29	9.610	9.246	14.04	53.49	162.4	170.2	65.30	102.6	449.9	 1508	 1721	97.90	4.406	1.719	0.995	0.855	0.727	0.584	0.476	0.463	0.411	0.309	0.284	0.341	0.275	0.296	0.272	0.202	0.207	0.152	0.229	0.129	0.161	0.093	0.113	0.125	0.125	0.127	0.123	0.106	0.122	0.118	0.246	0.229	0.247	0.191	0.178	0.183	0.155	0.154	0.164	0.135	0.133	0.207	0.356	0.530	1.058	1.355	0.855	0.396	0.272	0.361	0.494	1.080	2.481	5.857	10.34	12.02	7.778	1.611	0.117	0.067	0.040	0.067
290.0	23.70	24.39	22.65	17.64	12.67	12.28	25.38	75.18	170.6	174.6	99.76	144.4	488.9	 1176	 1400	371.9	23.76	1.615	1.182	0.819	0.794	0.557	0.481	0.502	0.368	0.363	0.404	0.285	0.276	0.286	0.246	0.230	0.166	0.189	0.167	0.167	0.133	0.133	0.161	0.132	0.138	0.133	0.114	0.133	0.138	0.191	0.199	0.258	0.255	0.235	0.198	0.196	0.175	0.185	0.176	0.155	0.149	0.205	0.254	0.468	0.749	0.969	1.208	0.921	0.597	0.354	0.524	0.769	1.599	3.109	5.615	8.221	9.639	8.174	4.478	1.075	0.137
295.0	29.11	35.59	35.53	23.80	18.08	17.56	22.74	41.03	88.67	202.5	202.4	120.8	158.2	318.6	791.8	 1672	564.0	25.43	1.655	1.245	0.916	0.765	0.500	0.467	0.595	0.470	0.447	0.291	0.290	0.319	0.274	0.243	0.264	0.231	0.162	0.189	0.123	0.178	0.143	0.132	0.135	0.148	0.145	0.139	0.136	0.181	0.181	0.223	0.293	0.274	0.231	0.247	0.221	0.191	0.232	0.221	0.191	0.228	0.242	0.278	0.382	0.480	0.718	1.230	1.483	1.074	0.674	0.501	0.636	0.950	1.441	2.090	3.257	6.145	11.47	12.12	5.564
300.0	33.18	39.16	40.92	31.19	24.05	22.69	25.66	36.56	61.59	135.5	264.7	179.9	103.0	111.2	250.4	 1062	 1891	432.7	8.449	1.521	1.266	0.947	0.726	0.589	0.573	0.522	0.469	0.284	0.383	0.418	0.231	0.236	0.296	0.248	0.178	0.240	0.130	0.218	0.189	0.168	0.175	0.128	0.127	0.162	0.149	0.188	0.203	0.241	0.275	0.330	0.259	0.240	0.224	0.201	0.205	0.211	0.190	0.233	0.192	0.265	0.314	0.315	0.460	0.714	1.327	1.799	1.548	0.808	0.491	0.536	0.554	0.670	0.952	1.786	4.865	10.22	14.57
305.0	32.67	45.62	45.37	35.37	27.57	25.39	30.66	40.39	55.73	97.07	205.5	289.9	142.0	73.09	85.37	349.1	 1334	 1857	63.36	3.195	1.525	1.088	0.867	0.741	0.674	0.602	0.577	0.349	0.433	0.333	0.330	0.274	0.210	0.266	0.230	0.225	0.169	0.208	0.176	0.170	0.139	0.150	0.136	0.159	0.183	0.196	0.181	0.264	0.234	0.248	0.308	0.262	0.240	0.201	0.240	0.218	0.204	0.238	0.274	0.247	0.365	0.367	0.406	0.530	0.859	1.197	1.732	1.744	0.828	0.489	0.396	0.433	0.420	0.563	1.282	3.269	7.779
310.0	31.93	45.44	46.69	39.64	31.27	31.79	36.77	46.26	60.92	85.06	130.6	220.0	252.2	132.8	57.51	101.8	401.6	 1147	 1533	658.2	17.25	1.635	1.176	0.855	0.745	0.666	0.555	0.391	0.476	0.359	0.363	0.270	0.295	0.233	0.213	0.213	0.217	0.213	0.182	0.200	0.167	0.181	0.163	0.180	0.175	0.154	0.206	0.220	0.236	0.219	0.261	0.305	0.320	0.266	0.269	0.239	0.240	0.274	0.297	0.296	0.346	0.369	0.416	0.473	0.621	0.734	0.965	1.350	1.479	1.280	0.810	0.515	0.321	0.369	0.450	0.874	1.986
315.0	32.95	46.72	52.44	41.45	39.97	37.90	44.11	52.20	67.11	83.03	109.5	140.7	196.8	241.1	98.23	55.00	112.3	287.3	741.6	 1812	418.4	17.55	1.591	1.160	0.892	0.802	0.581	0.506	0.573	0.465	0.380	0.364	0.326	0.315	0.211	0.243	0.201	0.257	0.200	0.184	0.224	0.182	0.142	0.138	0.151	0.202	0.211	0.217	0.238	0.252	0.231	0.315	0.293	0.298	0.313	0.253	0.318	0.237	0.317	0.344	0.411	0.420	0.389	0.487	0.581	0.622	0.646	0.799	0.887	0.967	1.568	1.257	0.582	0.387	0.326	0.388	0.633
320.0	41.14	65.70	70.74	53.45	39.99	44.46	49.71	58.30	73.06	90.87	111.9	126.8	148.3	222.4	199.1	69.00	53.77	85.86	214.9	990.9	 1971	327.4	7.313	1.616	1.176	0.768	0.705	0.501	0.599	0.516	0.444	0.333	0.347	0.290	0.264	0.205	0.189	0.296	0.189	0.176	0.192	0.167	0.134	0.134	0.220	0.189	0.226	0.269	0.340	0.299	0.271	0.262	0.315	0.365	0.315	0.293	0.343	0.277	0.356	0.382	0.398	0.465	0.450	0.465	0.599	0.645	0.688	0.744	0.622	0.711	1.208	1.495	1.233	0.793	0.452	0.370	0.360
325.0	55.10	98.11	108.9	72.15	50.12	50.79	57.16	67.72	82.56	103.5	123.2	136.8	137.3	168.0	236.4	147.0	52.74	46.68	66.81	296.4	 1347	 1794	49.56	2.919	1.528	1.095	0.922	0.635	0.599	0.482	0.482	0.387	0.375	0.336	0.316	0.248	0.262	0.256	0.220	0.198	0.162	0.180	0.171	0.208	0.210	0.235	0.249	0.291	0.365	0.432	0.354	0.308	0.381	0.345	0.336	0.329	0.389	0.379	0.403	0.457	0.472	0.458	0.484	0.676	0.680	0.669	0.765	0.723	0.708	0.707	0.783	1.011	1.316	1.697	0.898	0.512	0.384
330.0	60.87	118.2	135.6	89.49	62.24	57.51	63.83	76.18	92.47	114.9	134.6	149.1	147.7	146.7	169.9	201.8	122.6	52.84	41.06	84.70	379.7	 1124	 1559	625.8	14.50	1.585	1.165	0.850	0.700	0.532	0.520	0.524	0.362	0.378	0.299	0.269	0.212	0.264	0.232	0.199	0.197	0.203	0.184	0.235	0.213	0.236	0.293	0.448	0.487	0.526	0.397	0.370	0.371	0.335	0.357	0.409	0.414	0.436	0.403	0.506	0.524	0.508	0.564	0.684	0.669	0.729	0.739	0.742	0.735	0.732	0.770	0.767	0.890	1.167	1.198	1.234	0.839
335.0	75.17	136.5	165.7	108.9	78.31	73.44	80.52	88.91	105.5	127.9	151.2	168.5	166.9	160.0	145.5	152.4	198.9	119.9	46.79	44.05	104.3	275.3	734.7	 1926	347.7	15.97	1.727	1.102	1.062	0.582	0.565	0.579	0.393	0.395	0.330	0.274	0.259	0.246	0.187	0.209	0.201	0.263	0.254	0.199	0.223	0.338	0.302	0.431	0.696	0.556	0.488	0.435	0.373	0.408	0.413	0.455	0.499	0.509	0.404	0.523	0.647	0.610	0.696	0.653	0.766	0.815	0.841	0.793	0.911	0.765	0.811	0.826	0.906	0.822	0.942	0.985	1.330
340.0	82.15	158.1	195.8	134.5	97.08	95.49	95.07	105.2	119.5	139.6	165.7	183.1	186.5	180.5	158.7	132.8	165.4	190.9	69.49	42.89	48.39	80.19	201.7	 1066	 2042	283.9	6.260	1.325	1.114	0.887	0.772	0.575	0.469	0.401	0.298	0.287	0.309	0.264	0.197	0.224	0.185	0.264	0.245	0.207	0.244	0.336	0.369	0.538	0.674	0.644	0.592	0.511	0.518	0.438	0.453	0.423	0.493	0.620	0.612	0.605	0.660	0.681	0.738	0.770	0.820	0.886	0.925	1.000	0.898	0.883	0.917	0.870	0.939	0.872	0.763	0.774	0.997
345.0	88.13	156.6	201.3	155.4	113.5	107.6	107.4	116.4	128.5	142.5	170.8	191.1	195.6	191.6	170.2	133.1	125.4	186.0	145.0	56.01	41.17	42.23	63.07	308.8	 1500	 1818	43.04	2.518	1.396	1.048	0.835	0.613	0.453	0.444	0.359	0.292	0.321	0.282	0.248	0.235	0.239	0.239	0.256	0.252	0.224	0.260	0.397	0.588	0.702	0.668	0.628	0.620	0.646	0.508	0.499	0.506	0.533	0.578	0.719	0.637	0.695	0.680	0.710	0.743	0.746	0.926	0.995	0.984	1.036	0.964	0.949	0.926	0.950	0.823	0.763	0.695	0.815
350.0	80.83	149.5	194.2	160.0	128.8	119.7	116.7	123.9	130.2	144.4	169.5	192.6	198.2	194.1	175.6	140.1	116.1	128.9	163.5	126.5	53.63	40.77	38.03	87.64	413.5	 1215	 1650	598.7	12.85	1.432	1.069	0.887	0.576	0.507	0.386	0.360	0.384	0.295	0.244	0.225	0.265	0.233	0.244	0.257	0.248	0.288	0.395	0.507	0.652	0.676	0.632	0.662	0.647	0.620	0.573	0.529	0.564	0.602	0.696	0.701	0.759	0.757	0.692	0.794	0.823	0.899	0.933	0.866	0.978	0.959	0.982	0.951	1.038	0.916	0.827	0.664	0.723
355.0	77.69	139.9	187.9	164.5	142.3	130.5	129.3	133.3	134.9	153.3	169.5	189.9	199.8	198.5	182.8	147.9	120.6	112.4	114.5	155.4	121.0	53.30	39.70	44.57	110.2	291.2	778.3	 1945	320.2	15.83	1.438	1.000	0.757	0.688	0.440	0.401	0.324	0.364	0.274	0.235	0.276	0.267	0.294	0.250	0.230	0.289	0.349	0.528	0.568	0.588	0.590	0.710	0.669	0.612	0.639	0.618	0.657	0.705	0.640	0.731	0.838	0.742	0.745	0.831	0.846	0.945	0.839	0.940	0.975	0.983	1.074	1.016	1.009	0.987	0.863	0.759	0.656
360.0	71.08	132.8	182.6	165.2	145.4	138.4	134.9	141.7	140.2	153.6	168.9	188.4	199.4	200.3	184.8	153.0	125.2	111.6	102.2	121.2	162.1	88.49	46.82	40.63	47.24	80.26	204.7	 1093	 1960	272.7	5.533	1.384	0.976	0.714	0.527	0.447	0.417	0.426	0.292	0.272	0.279	0.291	0.255	0.207	0.253	0.338	0.380	0.489	0.537	0.604	0.592	0.741	0.695	0.702	0.626	0.691	0.710	0.748	0.586	0.740	0.749	0.788	0.834	0.914	0.847	0.904	0.843	1.023	0.896	0.950	1.168	1.095	0.960	0.947	0.801	0.785	0.784
365.0	73.59	127.3	170.3	165.5	154.7	140.6	138.3	146.9	143.5	153.0	170.1	185.4	196.6	199.0	184.1	155.2	131.5	115.7	102.6	102.7	143.6	141.2	57.98	45.31	36.70	37.06	59.13	305.6	 1498	 1840	40.05	2.504	1.151	0.885	0.649	0.465	0.407	0.422	0.269	0.252	0.296	0.285	0.272	0.243	0.297	0.357	0.303	0.467	0.539	0.661	0.554	0.734	0.743	0.618	0.670	0.711	0.733	0.706	0.667	0.766	0.842	0.800	0.794	0.907	0.845	0.839	0.935	0.953	1.003	1.040	1.048	0.983	0.985	0.967	0.843	0.780	0.800
370.0	65.71	118.3	162.6	166.1	157.6	152.9	145.9	150.7	147.9	154.3	170.4	182.5	192.7	192.2	179.4	155.5	136.7	122.1	110.6	102.5	108.8	138.9	122.7	67.25	42.93	34.60	32.39	83.25	410.5	 1278	 1544	543.0	11.71	1.346	0.821	0.659	0.484	0.410	0.319	0.305	0.312	0.278	0.261	0.207	0.254	0.326	0.318	0.506	0.562	0.589	0.539	0.690	0.727	0.689	0.726	0.741	0.688	0.758	0.685	0.805	0.800	0.811	0.799	0.882	0.909	0.887	0.926	0.960	0.998	1.006	0.964	0.975	1.024	0.973	0.840	0.844	0.801
375.0	62.34	106.3	152.1	166.1	164.7	162.0	155.0	154.2	152.9	161.6	173.2	183.9	193.7	191.2	177.1	159.9	142.6	132.1	121.2	108.9	104.6	106.7	136.2	127.4	63.66	44.00	35.86	42.63	108.9	305.1	773.8	 1867	280.3	14.01	1.308	0.864	0.631	0.471	0.363	0.310	0.353	0.245	0.222	0.225	0.260	0.304	0.392	0.455	0.539	0.576	0.563	0.689	0.704	0.782	0.728	0.768	0.825	0.764	0.725	0.797	0.697	0.716	0.796	0.837	0.957	0.819	0.990	0.980	0.927	0.946	0.950	0.993	1.134	0.991	0.770	0.830	0.813
380.0	59.99	106.2	154.5	169.5	169.5	169.7	161.0	155.7	157.9	164.9	175.0	185.2	199.3	194.8	178.3	161.6	147.6	139.4	128.1	116.7	107.8	101.9	111.0	149.4	99.43	54.81	44.41	41.12	46.93	85.60	208.2	 1083	 1727	235.7	4.709	1.091	0.763	0.576	0.437	0.441	0.359	0.298	0.301	0.244	0.302	0.314	0.400	0.419	0.514	0.538	0.509	0.658	0.742	0.801	0.764	0.831	0.734	0.813	0.745	0.725	0.726	0.760	0.809	0.784	0.949	0.941	0.962	0.996	1.029	1.027	1.027	1.026	1.111	1.075	0.842	0.897	0.971
385.0	60.96	104.6	156.1	175.2	176.9	174.6	166.6	157.9	157.8	164.8	175.2	186.3	199.5	193.5	178.8	163.0	151.6	142.5	134.1	122.0	112.7	103.6	100.1	128.1	136.1	75.19	53.02	46.23	37.69	40.31	67.93	311.0	 1337	 1609	33.42	1.935	1.008	0.675	0.470	0.552	0.421	0.327	0.285	0.276	0.267	0.342	0.389	0.439	0.499	0.604	0.541	0.713	0.703	0.690	0.761	0.734	0.778	0.787	0.751	0.801	0.846	0.797	0.833	0.803	0.910	0.986	0.820	1.132	1.000	1.045	1.081	1.031	1.011	0.951	0.855	0.936	0.946
390.0	55.53	98.15	145.5	171.4	176.0	173.5	168.4	164.7	159.1	164.4	176.1	183.6	193.9	187.1	177.4	165.9	155.5	146.4	137.6	127.8	116.9	108.1	102.3	104.2	122.7	117.2	73.71	51.34	39.40	32.97	37.14	89.69	366.9	 1101	 1304	436.3	9.922	0.920	0.628	0.513	0.421	0.368	0.334	0.289	0.289	0.359	0.360	0.456	0.488	0.532	0.560	0.708	0.763	0.712	0.841	0.806	0.770	0.766	0.821	0.761	0.794	0.830	0.825	0.828	0.885	0.943	0.843	0.980	0.973	1.035	1.017	1.005	1.036	1.017	0.911	0.962	1.009
395.0	59.61	98.16	139.9	162.9	178.4	177.0	172.3	169.0	163.8	166.5	177.3	179.7	189.9	186.2	175.9	165.7	157.1	150.3	141.1	131.8	121.1	113.5	105.0	100.4	98.86	115.1	116.1	69.05	45.01	36.52	33.56	41.84	95.17	258.2	656.1	 1521	234.6	11.57	0.862	0.697	0.617	0.388	0.396	0.271	0.351	0.383	0.434	0.419	0.458	0.494	0.606	0.759	0.815	0.828	0.793	0.804	0.768	0.791	0.840	0.843	0.806	0.843	0.871	0.859	0.875	0.928	0.913	0.892	0.946	0.991	1.014	1.026	0.953	1.017	0.946	0.978	0.973
400.0	57.75	94.87	135.6	164.7	187.2	176.1	176.4	168.0	167.4	169.0	175.0	178.2	187.1	183.4	172.6	165.5	159.5	151.3	140.7	131.2	121.7	115.9	108.3	102.0	94.58	96.16	123.6	99.26	54.21	41.94	37.33	35.38	37.17	66.68	166.7	879.3	 1494	200.3	4.371	0.842	0.621	0.517	0.374	0.304	0.360	0.397	0.411	0.396	0.476	0.508	0.586	0.718	0.773	0.911	0.844	0.776	0.783	0.829	0.782	0.805	0.875	0.840	0.835	0.846	0.860	0.894	0.911	0.856	0.947	1.092	0.937	1.009	0.971	0.979	0.964	1.022	1.039
405.0	56.68	95.31	136.0	165.5	187.1	177.9	177.5	170.0	170.4	166.7	176.5	180.3	182.2	182.8	169.6	164.2	158.8	150.2	140.5	131.7	122.4	116.6	108.9	103.8	95.97	88.43	103.2	120.5	73.61	47.17	41.61	36.36	26.71	25.52	44.93	238.1	 1111	 1225	29.84	1.931	0.767	0.594	0.475	0.411	0.396	0.335	0.413	0.426	0.551	0.558	0.531	0.751	0.802	0.758	0.862	0.787	0.822	0.838	0.847	0.757	0.835	0.868	0.903	0.835	0.842	0.820	0.827	0.881	0.947	1.062	0.916	0.956	0.880	0.915	0.905	0.981	1.120
410.0	55.28	91.10	131.7	161.1	179.8	178.6	172.7	171.1	168.9	169.2	174.6	173.9	179.7	174.5	164.5	160.3	152.7	146.2	136.9	129.7	121.8	115.3	108.6	104.4	95.58	87.73	86.19	102.6	100.2	66.21	45.23	38.37	26.68	19.43	19.47	59.80	294.5	827.8	 1008	357.4	9.227	0.774	0.608	0.489	0.358	0.381	0.372	0.395	0.530	0.491	0.527	0.727	0.792	0.765	0.785	0.796	0.858	0.874	0.896	0.850	0.863	0.831	0.842	0.814	0.822	0.805	0.831	0.927	0.936	0.930	0.937	0.953	0.960	0.884	0.963	0.961	1.052
415.0	54.05	90.64	126.3	157.1	171.5	179.9	170.6	171.3	168.2	167.5	168.9	169.1	171.5	165.5	157.7	152.3	144.2	140.6	131.9	123.7	118.8	113.0	107.2	101.5	96.24	87.65	82.58	81.92	91.71	94.11	58.32	40.21	28.99	20.57	16.45	21.65	71.54	192.9	498.5	 1161	214.0	10.64	0.807	0.518	0.501	0.459	0.426	0.402	0.544	0.500	0.526	0.659	0.762	0.703	0.864	0.859	0.799	0.946	0.877	0.787	0.867	0.800	0.864	0.900	0.799	0.884	0.800	0.857	0.837	0.802	0.896	0.822	0.822	0.910	0.915	0.889	0.895
420.0	51.23	84.51	124.6	153.0	169.9	168.1	170.2	170.9	170.7	172.0	169.1	169.5	164.0	159.4	150.0	143.2	140.6	134.8	128.3	120.5	114.1	110.0	105.9	99.54	96.36	88.27	81.85	77.66	77.16	96.69	79.99	45.59	31.50	22.77	17.19	14.64	23.24	48.32	125.1	644.9	 1172	183.3	3.804	0.656	0.589	0.500	0.449	0.436	0.478	0.564	0.501	0.668	0.742	0.666	0.789	0.816	0.820	0.854	0.818	0.843	0.859	0.838	0.905	0.841	0.750	0.846	0.754	0.785	0.852	0.750	0.889	0.831	0.949	0.780	0.901	0.766	0.916
425.0	48.17	85.22	120.3	147.8	167.2	171.2	172.3	169.1	173.4	171.0	168.7	165.2	163.6	155.2	145.5	137.4	134.9	128.6	122.9	116.5	111.0	107.6	104.0	98.68	95.42	87.99	82.33	77.85	72.48	81.46	93.59	61.62	35.25	25.52	18.33	14.38	13.25	16.59	32.67	172.2	858.1	980.2	28.32	1.505	0.659	0.529	0.431	0.484	0.532	0.508	0.514	0.640	0.726	0.791	0.848	0.869	0.747	0.794	0.841	0.852	0.786	0.830	0.833	0.870	0.779	0.760	0.866	0.769	0.787	0.769	0.799	0.845	0.837	0.771	0.875	0.806	0.848
430.0	46.71	80.88	117.9	143.3	161.5	168.9	172.3	171.3	174.6	172.1	168.7	163.7	159.3	149.5	139.4	132.9	126.9	123.2	116.7	110.2	105.5	103.9	100.9	96.83	93.44	88.21	82.36	78.89	73.15	71.09	79.92	80.71	49.80	30.11	21.81	16.81	13.21	10.91	12.67	42.50	228.9	654.4	800.1	301.6	8.408	0.764	0.572	0.579	0.579	0.563	0.541	0.639	0.745	0.735	0.837	0.786	0.743	0.770	0.844	0.839	0.811	0.812	0.907	0.917	0.854	0.783	0.756	0.741	0.770	0.779	0.724	0.735	0.867	0.741	0.795	0.805	0.856
435.0	67.53	73.65	110.5	141.2	154.9	159.4	171.9	172.1	177.0	170.7	171.7	163.0	156.7	143.7	131.5	125.6	120.3	116.1	109.8	105.0	100.4	98.69	96.29	94.14	91.49	86.63	82.52	79.47	73.92	69.06	67.21	72.95	70.44	39.82	26.57	19.58	15.04	11.75	9.382	14.54	54.71	151.4	384.8	996.6	199.9	10.36	0.742	0.688	0.639	0.566	0.526	0.685	0.759	0.712	0.741	0.775	0.824	0.808	0.903	0.861	0.841	0.876	0.897	0.798	0.798	0.830	0.708	0.714	0.839	0.776	0.699	0.780	0.816	0.732	0.903	0.718	0.810
440.0	95.47	73.51	109.9	133.7	150.8	159.5	169.6	175.7	174.6	170.5	169.9	161.7	151.5	140.0	127.3	118.3	113.1	110.7	105.0	99.66	96.90	94.95	92.59	92.52	89.09	86.22	82.35	78.55	74.82	69.55	63.84	62.33	71.23	56.67	31.34	21.59	16.80	12.70	9.406	9.054	16.52	37.03	96.37	582.6	999.7	166.3	2.976	0.771	0.686	0.579	0.544	0.706	0.754	0.702	0.816	0.727	0.811	0.839	0.795	0.892	0.887	0.880	0.777	0.862	0.775	0.801	0.665	0.767	0.849	0.755	0.726	0.732	0.740	0.657	0.718	0.672	0.797
445.0	121.1	78.76	106.0	123.8	146.3	156.1	168.7	174.5	175.3	169.9	165.8	161.5	145.8	132.7	124.0	114.2	108.0	104.0	99.56	96.25	93.01	92.24	88.96	89.13	85.82	83.80	80.08	77.20	74.89	69.13	64.68	58.39	60.61	64.46	38.66	24.57	18.05	13.66	10.33	8.271	8.593	11.98	24.51	160.6	772.1	924.6	23.31	1.584	0.791	0.637	0.568	0.699	0.726	0.692	0.733	0.705	0.809	0.747	0.825	0.937	0.782	0.831	0.830	0.865	0.778	0.755	0.741	0.701	0.779	0.772	0.751	0.678	0.743	0.667	0.663	0.642	0.667
450.0	122.6	125.7	102.0	120.3	140.5	147.4	160.5	165.2	167.0	166.1	162.4	152.6	140.5	128.3	116.3	107.0	100.5	95.87	92.60	90.36	86.88	85.37	84.95	83.63	81.46	79.82	77.79	74.57	72.96	68.80	64.60	56.73	51.52	54.59	51.94	34.03	20.61	15.44	11.83	9.368	7.621	6.857	8.837	38.72	205.3	649.5	801.0	286.8	7.131	0.812	0.609	0.707	0.711	0.675	0.686	0.707	0.810	0.795	0.838	0.883	0.845	0.844	0.861	0.792	0.720	0.773	0.760	0.700	0.704	0.735	0.770	0.691	0.693	0.686	0.687	0.585	0.678
455.0	79.22	197.0	130.1	115.8	130.9	141.3	149.8	159.7	157.3	161.6	157.6	147.0	130.7	121.0	108.0	98.72	92.36	87.17	83.80	81.91	79.10	77.24	79.00	77.31	76.18	75.52	73.06	71.57	70.95	66.50	62.37	56.11	48.61	43.81	45.13	44.94	28.04	17.01	12.75	10.29	8.122	6.710	5.919	11.75	48.24	149.8	383.6	915.8	167.8	8.196	0.825	0.728	0.695	0.709	0.742	0.667	0.785	0.858	0.839	0.813	0.782	0.833	0.816	0.808	0.808	0.791	0.727	0.684	0.678	0.636	0.697	0.722	0.658	0.617	0.715	0.665	0.555
460.0	50.13	221.1	202.2	109.6	120.8	133.6	138.2	149.1	153.6	153.9	152.3	140.1	122.9	114.8	100.3	91.93	83.37	82.03	78.17	75.63	73.63	72.08	72.80	72.87	71.61	71.38	69.40	69.15	66.74	64.25	60.44	54.63	47.08	40.88	37.37	44.11	36.66	19.94	13.61	10.97	8.518	7.145	5.706	5.896	13.38	35.65	94.24	520.0	849.8	129.0	3.168	0.846	0.705	0.730	0.764	0.625	0.801	0.822	0.845	0.814	0.702	0.860	0.793	0.741	0.752	0.701	0.660	0.681	0.654	0.645	0.631	0.595	0.668	0.551	0.565	0.644	0.622
465.0	42.38	165.7	315.1	123.5	114.7	124.8	136.4	145.5	147.6	145.7	144.5	133.4	118.6	108.4	93.20	85.97	78.96	74.85	73.03	69.84	68.59	67.05	68.30	67.94	67.56	66.16	66.83	65.14	64.98	62.03	58.11	51.81	46.01	38.64	33.83	36.38	39.89	26.25	14.71	11.80	8.942	7.576	6.040	5.065	5.765	10.43	23.17	139.3	675.9	720.5	18.84	1.421	0.837	0.733	0.808	0.710	0.745	0.754	0.788	0.768	0.711	0.745	0.775	0.772	0.733	0.728	0.694	0.697	0.635	0.568	0.580	0.600	0.613	0.574	0.487	0.633	0.622
470.0	36.58	84.33	340.2	258.6	113.7	115.8	128.0	133.1	136.4	137.3	131.8	123.8	110.2	100.1	85.33	77.15	70.96	67.57	65.25	62.56	61.99	60.34	61.36	61.31	61.54	61.23	60.34	59.52	58.90	57.71	54.54	49.00	44.11	36.85	32.08	29.22	31.62	31.87	20.35	12.65	9.600	7.903	6.437	5.190	4.491	5.080	7.353	33.13	182.1	500.9	598.5	230.6	6.971	0.917	0.752	0.688	0.706	0.748	0.796	0.728	0.748	0.744	0.728	0.707	0.703	0.646	0.659	0.627	0.607	0.597	0.532	0.530	0.527	0.509	0.444	0.493	0.475
475.0	34.33	54.48	196.9	438.3	181.6	108.7	115.0	118.8	124.6	127.1	119.0	112.4	102.3	89.94	76.25	68.96	62.90	60.46	57.43	56.43	54.04	53.56	54.43	54.82	55.15	54.84	53.79	53.43	53.67	52.97	50.09	45.90	40.64	35.26	30.62	26.14	23.90	27.49	27.25	16.76	10.24	8.173	6.760	5.605	4.532	4.118	4.095	9.463	42.21	114.9	269.8	678.3	161.1	7.420	0.841	0.785	0.722	0.637	0.672	0.688	0.644	0.704	0.586	0.635	0.613	0.570	0.579	0.541	0.510	0.515	0.491	0.477	0.477	0.486	0.416	0.509	0.380
480.0	39.62	44.14	104.6	436.3	316.0	107.5	107.4	112.3	118.5	117.7	115.8	103.8	93.51	83.65	72.14	64.05	58.87	55.16	52.53	51.41	49.72	49.96	50.69	50.46	50.91	50.77	50.06	50.14	50.05	49.58	46.73	44.06	38.16	33.75	29.01	25.32	21.73	21.24	26.30	22.10	11.42	8.462	6.870	5.884	4.831	4.098	3.467	4.226	11.19	27.21	65.97	358.3	646.2	130.4	3.025	0.743	0.682	0.698	0.751	0.642	0.712	0.648	0.608	0.588	0.617	0.504	0.517	0.560	0.495	0.513	0.519	0.476	0.399	0.468	0.367	0.402	0.430
485.0	35.85	46.54	68.36	286.3	459.1	144.9	99.28	106.1	110.3	111.6	108.5	98.33	88.02	78.16	65.72	59.41	54.35	51.44	48.80	46.25	46.19	46.18	46.36	46.57	46.88	47.19	46.47	46.34	46.35	46.12	44.37	40.64	36.31	31.93	28.06	23.73	20.65	18.64	20.74	23.96	15.45	9.149	6.881	6.181	5.093	4.137	3.589	3.201	4.633	7.584	16.29	93.17	483.1	621.6	22.73	1.301	0.677	0.678	0.676	0.686	0.599	0.624	0.677	0.621	0.609	0.582	0.490	0.518	0.462	0.446	0.493	0.378	0.394	0.432	0.395	0.356	0.370
490.0	33.92	50.06	57.57	129.9	435.2	334.4	103.4	96.80	101.5	101.6	98.69	90.51	80.71	69.98	61.58	53.30	49.82	45.84	44.37	41.99	41.63	42.30	41.16	41.87	41.87	42.40	42.38	42.54	42.61	41.85	40.40	37.61	33.86	29.03	25.94	22.43	19.33	17.03	16.45	19.32	19.44	12.52	7.500	6.337	5.371	4.344	3.797	3.055	3.073	3.352	5.226	22.17	126.4	404.6	544.4	99.17	6.999	0.822	0.665	0.652	0.617	0.571	0.620	0.548	0.537	0.537	0.457	0.487	0.463	0.447	0.406	0.401	0.366	0.383	0.333	0.335	0.364
495.0	22.45	46.77	58.71	71.36	214.9	530.6	200.2	88.19	89.70	92.87	89.94	80.50	72.02	62.96	53.89	47.32	43.87	39.75	39.21	37.18	37.58	37.04	37.07	37.06	37.05	37.48	37.24	37.77	38.79	37.48	37.02	34.09	30.53	27.56	24.34	20.99	18.05	16.11	14.41	14.09	17.04	16.79	10.41	6.649	5.286	4.393	4.016	3.269	2.941	2.512	2.703	6.343	29.44	93.07	279.5	604.7	167.1	7.214	0.767	0.683	0.576	0.582	0.531	0.514	0.477	0.413	0.447	0.416	0.414	0.431	0.344	0.418	0.369	0.340	0.323	0.300	0.279
500.0	20.01	46.06	65.17	56.62	108.3	463.0	355.4	89.93	83.01	84.09	82.34	74.19	66.91	57.43	49.00	42.02	39.01	35.67	35.38	34.64	33.38	33.51	33.32	33.09	33.24	34.03	33.84	34.39	34.65	34.17	33.82	31.02	28.73	25.61	22.56	19.67	17.18	15.47	13.11	11.93	12.67	16.27	13.36	7.882	5.368	4.541	4.017	3.397	3.044	2.592	2.168	2.876	7.747	21.99	68.78	334.6	601.8	135.5	2.453	0.673	0.585	0.514	0.520	0.473	0.485	0.506	0.468	0.366	0.387	0.371	0.255	0.347	0.362	0.261	0.272	0.254	0.227
505.0	16.80	36.31	67.97	52.42	70.14	283.5	536.2	140.6	77.04	77.01	75.83	67.92	60.35	52.06	45.75	39.33	35.85	32.73	32.03	31.62	30.66	30.04	29.30	30.79	30.80	30.44	30.34	31.43	31.43	31.00	30.24	28.39	26.18	23.41	20.78	18.33	15.82	14.01	12.57	11.28	10.38	13.17	14.93	10.17	5.746	4.592	3.993	3.504	2.888	2.601	2.227	2.108	2.951	6.050	16.55	87.93	438.5	563.8	23.24	1.047	0.605	0.522	0.566	0.498	0.440	0.442	0.370	0.361	0.288	0.314	0.283	0.310	0.363	0.287	0.268	0.293	0.226
510.0	13.88	29.82	62.38	59.64	55.87	120.4	443.2	363.9	89.97	68.06	67.88	61.07	53.19	46.49	40.73	34.73	31.48	29.10	28.36	26.15	26.28	25.78	25.61	26.67	26.84	26.39	26.60	27.74	27.11	27.60	27.18	25.12	23.09	20.55	18.80	16.59	14.47	13.07	11.35	10.38	8.986	9.520	11.70	11.99	8.035	4.923	4.112	3.429	3.078	2.550	2.256	2.045	1.947	2.429	4.812	20.63	114.1	345.4	403.7	102.9	6.069	0.552	0.458	0.506	0.405	0.414	0.365	0.325	0.310	0.331	0.303	0.328	0.307	0.294	0.238	0.255	0.227
515.0	13.69	21.86	44.27	66.55	53.81	66.24	196.5	518.6	213.2	60.45	58.91	52.34	47.06	39.92	34.66	30.31	27.87	25.70	23.38	23.33	22.53	22.29	22.56	22.28	22.63	22.96	22.88	23.00	23.68	23.52	22.88	21.66	20.34	17.87	16.17	14.87	12.78	11.71	10.12	9.095	8.010	7.568	7.585	10.16	10.15	6.339	4.074	3.379	2.829	2.462	2.176	2.163	1.787	1.738	2.092	5.592	26.27	78.77	188.0	467.5	154.3	5.210	0.565	0.506	0.373	0.392	0.310	0.288	0.292	0.271	0.335	0.250	0.250	0.229	0.174	0.238	0.254
520.0	13.60	20.58	33.05	63.81	56.09	47.48	87.19	414.5	432.7	65.82	52.54	47.80	42.96	36.40	30.85	27.39	24.53	22.93	21.02	20.42	19.90	19.51	20.14	19.86	19.74	20.15	20.16	20.01	20.63	21.34	20.60	19.57	18.42	16.28	14.28	13.46	12.06	10.34	9.342	8.922	7.605	6.996	6.405	7.538	9.840	7.845	4.412	3.172	2.710	2.545	2.127	2.061	1.766	1.543	1.429	2.095	6.682	18.36	45.93	258.0	466.1	26.00	1.413	0.487	0.404	0.374	0.279	0.303	0.275	0.274	0.222	0.206	0.253	0.220	0.184	0.230	0.250
525.0	11.88	18.54	27.64	55.02	63.93	41.59	54.38	229.2	579.6	132.3	45.73	43.76	37.30	32.32	27.68	23.89	21.60	20.70	19.53	19.04	17.42	17.82	17.57	18.15	17.92	17.85	18.02	17.78	18.59	19.02	18.45	17.60	16.53	14.66	13.66	11.76	10.88	9.601	8.702	8.007	6.644	6.608	5.617	5.802	8.221	8.911	5.902	3.464	2.593	2.536	2.109	1.990	1.739	1.468	1.264	1.347	2.335	4.877	10.93	67.33	332.9	370.2	21.71	0.775	0.443	0.364	0.314	0.336	0.301	0.244	0.202	0.205	0.249	0.196	0.191	0.203	0.258
530.0	9.031	14.88	23.30	36.26	63.57	45.62	41.17	90.41	411.0	329.5	64.04	37.82	33.02	28.62	24.72	21.05	18.84	18.17	16.48	16.45	15.28	15.44	15.56	15.30	15.42	15.71	15.96	15.88	16.34	16.53	15.96	15.18	14.27	13.02	11.87	10.40	9.703	8.419	8.043	7.006	6.180	5.784	5.196	4.743	5.471	7.197	7.444	4.642	2.782	2.287	2.079	1.766	1.549	1.477	1.366	1.157	1.339	1.768	3.079	15.64	86.01	246.1	257.6	94.15	4.838	0.391	0.290	0.287	0.260	0.203	0.232	0.205	0.216	0.168	0.176	0.174	0.211
535.0	7.265	12.48	15.91	26.19	46.71	54.23	37.22	48.31	157.8	435.6	180.8	34.78	28.87	24.50	20.46	17.94	16.40	15.33	14.43	13.74	13.36	13.14	12.92	13.09	12.96	13.27	13.25	13.63	14.00	13.94	13.71	12.93	12.24	11.57	10.31	9.307	8.497	7.342	7.074	5.991	5.619	5.274	4.578	4.274	4.228	4.603	6.506	6.132	3.517	2.207	1.955	1.622	1.444	1.280	1.401	1.241	1.042	1.058	1.228	4.025	19.61	55.98	127.5	352.8	133.4	3.199	0.419	0.298	0.205	0.217	0.219	0.199	0.145	0.172	0.131	0.123	0.189
540.0	7.990	13.05	16.00	19.68	35.35	56.35	36.74	33.24	63.90	313.1	361.9	49.69	26.30	22.12	18.63	16.12	14.38	13.84	12.84	12.26	12.03	11.47	11.30	11.02	11.77	11.71	11.48	12.10	12.38	12.21	12.06	11.51	10.92	9.879	8.757	8.269	7.367	6.968	6.163	5.606	5.044	4.805	4.282	3.964	3.566	3.656	4.640	6.256	4.468	2.440	1.813	1.437	1.342	1.253	1.237	1.220	0.938	0.859	0.926	1.396	4.884	12.95	31.09	193.6	361.9	25.30	1.191	0.326	0.189	0.216	0.220	0.148	0.158	0.177	0.110	0.173	0.145
545.0	8.172	10.60	15.53	17.62	25.98	51.56	43.52	27.28	37.44	158.4	421.9	128.5	24.50	19.92	16.81	14.63	12.82	12.19	11.35	11.02	10.52	10.21	10.39	9.898	10.52	10.51	10.77	10.78	11.16	10.86	11.02	10.46	9.674	8.773	8.055	7.141	6.806	6.487	5.451	4.872	4.564	4.282	3.804	3.505	3.154	3.008	3.289	4.964	5.219	3.211	1.904	1.437	1.159	1.283	1.160	1.090	1.123	0.895	0.735	0.743	1.499	3.334	7.480	50.33	253.8	205.9	20.40	0.440	0.232	0.178	0.192	0.160	0.150	0.156	0.104	0.130	0.157
550.0	7.237	10.16	13.44	14.81	18.78	35.39	46.51	28.45	27.73	59.56	264.0	306.2	49.63	16.92	14.23	12.05	10.88	10.40	9.978	9.190	8.844	8.772	9.047	8.870	8.988	8.518	9.167	9.140	9.440	9.359	9.319	8.605	8.210	7.548	6.911	6.166	5.668	5.604	4.799	4.394	4.038	3.746	3.283	3.121	2.917	2.604	2.477	3.201	4.215	4.041	2.481	1.519	1.171	1.155	1.061	0.925	0.965	0.966	0.707	0.681	0.715	1.122	2.034	11.59	64.93	161.3	207.6	79.20	3.521	0.174	0.177	0.172	0.133	0.166	0.120	0.141	0.141
555.0	8.652	9.300	11.44	13.31	14.75	20.38	40.44	37.44	22.93	29.75	93.83	300.5	144.5	15.46	12.04	10.06	9.073	9.045	8.392	7.994	7.129	7.139	7.322	7.264	7.264	7.244	7.436	7.427	7.464	7.691	7.503	7.170	7.093	6.483	5.671	5.436	4.745	4.605	4.130	3.796	3.423	3.183	2.938	2.689	2.532	2.284	2.145	2.140	2.585	3.619	3.379	1.958	1.145	1.035	0.861	0.859	0.762	0.814	0.803	0.584	0.505	0.576	0.795	2.837	14.76	36.84	94.73	237.9	26.90	2.628	0.216	0.182	0.162	0.143	0.133	0.098	0.116
560.0	5.247	7.138	8.850	10.94	13.08	14.04	28.99	41.03	22.89	20.99	37.35	188.4	281.8	35.92	11.12	8.705	8.336	7.602	7.569	6.825	6.449	6.390	6.053	6.121	6.208	6.138	6.233	6.381	6.247	6.555	6.696	6.226	5.964	5.628	4.824	4.665	4.266	4.027	3.555	3.162	3.025	2.768	2.632	2.296	2.177	2.021	1.954	1.871	1.820	2.563	3.221	2.514	1.206	1.005	0.798	0.682	0.656	0.672	0.732	0.549	0.406	0.446	0.468	0.956	3.552	8.465	22.92	126.4	207.6	24.40	0.788	0.202	0.146	0.114	0.126	0.099	0.109
565.0	5.435	7.380	9.766	9.583	10.54	11.90	20.42	39.61	25.79	17.21	20.79	83.69	291.3	110.5	9.979	7.725	7.478	5.955	6.531	6.212	5.109	5.431	5.073	5.425	5.382	5.312	5.404	5.472	5.183	5.775	5.572	5.414	4.977	4.542	4.267	3.770	3.538	3.254	3.141	2.742	2.621	2.458	2.307	2.001	1.973	1.785	1.660	1.531	1.389	1.667	2.530	2.721	1.489	0.940	0.741	0.655	0.617	0.493	0.588	0.626	0.463	0.371	0.381	0.457	0.991	2.158	5.357	32.25	149.3	178.3	17.93	0.285	0.125	0.106	0.083	0.095	0.088
570.0	4.677	8.190	7.834	7.890	8.907	10.08	14.19	28.53	31.02	15.93	15.71	30.88	157.7	239.2	43.91	5.983	5.951	4.989	4.938	4.676	4.224	4.425	4.121	4.287	4.090	4.311	4.255	4.314	4.246	4.574	4.473	4.099	3.879	3.565	3.387	2.977	2.790	2.653	2.417	2.252	2.087	1.962	1.810	1.646	1.572	1.401	1.378	1.226	1.097	1.194	1.431	2.091	1.917	1.083	0.621	0.606	0.542	0.440	0.430	0.437	0.513	0.355	0.334	0.316	0.421	0.671	1.350	7.429	38.11	111.5	129.8	50.35	2.050	0.124	0.099	0.092	0.074
575.0	4.656	6.080	5.328	6.279	6.796	8.485	9.118	16.15	31.16	20.73	12.90	15.31	51.49	199.3	169.4	6.791	4.662	3.994	3.619	3.520	3.439	3.367	3.342	3.310	3.232	3.337	3.063	3.400	3.240	3.490	3.409	3.058	2.966	2.902	2.601	2.296	2.269	2.073	1.914	1.744	1.641	1.474	1.415	1.340	1.178	1.162	1.042	0.947	0.766	0.805	0.827	1.190	1.707	1.443	0.696	0.536	0.393	0.380	0.340	0.382	0.347	0.358	0.397	0.260	0.282	0.362	0.464	1.840	8.618	25.35	55.89	140.1	26.04	1.487	0.126	0.112	0.067
580.0	4.179	6.043	6.047	5.357	5.811	6.809	7.206	10.47	25.14	25.50	11.91	12.03	19.71	111.6	237.0	31.44	3.918	3.425	3.074	2.922	2.652	2.739	2.724	2.668	2.642	2.699	2.487	2.711	2.655	2.938	2.820	2.562	2.510	2.276	2.168	1.880	1.799	1.591	1.621	1.522	1.368	1.353	1.112	1.097	0.938	0.954	0.893	0.793	0.765	0.659	0.665	0.735	1.202	1.451	0.957	0.575	0.420	0.401	0.304	0.316	0.299	0.306	0.430	0.241	0.242	0.235	0.294	0.645	2.044	5.790	13.47	72.06	120.4	21.11	0.431	0.111	0.089
585.0	3.152	6.067	4.924	4.799	5.653	6.361	6.600	8.032	18.17	28.19	13.86	9.991	11.07	45.52	202.4	88.27	3.944	2.851	2.951	2.350	2.512	2.318	2.272	2.136	2.237	2.185	1.888	2.207	2.339	2.545	2.208	2.137	2.004	1.967	1.802	1.490	1.411	1.396	1.210	1.241	1.121	0.983	0.886	0.942	0.794	0.796	0.741	0.779	0.586	0.565	0.517	0.571	0.709	1.177	1.084	0.706	0.390	0.322	0.287	0.224	0.276	0.296	0.339	0.373	0.238	0.169	0.218	0.298	0.609	1.448	3.121	18.32	82.64	99.31	14.12	0.200	0.085
590.0	4.621	5.403	4.719	4.031	5.100	5.095	5.347	6.750	11.79	23.91	20.20	9.871	8.525	15.68	95.53	176.3	33.41	2.459	2.187	1.869	2.010	1.825	1.859	1.770	1.865	1.827	1.649	1.747	1.817	1.859	1.755	1.831	1.585	1.570	1.343	1.216	1.094	1.075	0.983	0.978	0.916	0.831	0.779	0.719	0.701	0.691	0.562	0.579	0.522	0.446	0.418	0.463	0.419	0.677	1.052	0.852	0.498	0.260	0.263	0.198	0.205	0.227	0.186	0.312	0.249	0.179	0.159	0.181	0.232	0.457	0.804	4.224	20.98	58.60	73.56	17.58	1.465
595.0	3.822	4.545	4.212	4.525	3.912	4.820	4.578	5.973	8.190	15.05	24.45	12.16	7.318	7.850	27.81	124.1	132.0	4.115	1.765	1.538	1.591	1.231	1.448	1.363	1.321	1.413	1.357	1.384	1.332	1.436	1.398	1.439	1.315	1.233	1.073	0.893	0.852	0.840	0.777	0.807	0.771	0.714	0.659	0.634	0.537	0.515	0.434	0.505	0.384	0.357	0.335	0.360	0.280	0.370	0.615	0.870	0.727	0.372	0.226	0.164	0.190	0.176	0.164	0.209	0.241	0.282	0.166	0.179	0.113	0.242	0.258	1.052	4.756	13.31	30.49	78.67	24.88
600.0	3.265	4.570	4.411	3.671	4.131	3.942	4.264	5.391	7.131	10.45	22.93	16.20	6.962	6.190	9.611	62.81	175.4	28.07	1.569	1.290	1.247	1.026	1.067	1.245	1.149	1.210	1.283	1.125	1.210	1.188	1.193	1.060	1.060	0.981	0.890	0.845	0.748	0.775	0.614	0.691	0.604	0.586	0.522	0.540	0.463	0.430	0.397	0.401	0.331	0.324	0.338	0.336	0.242	0.267	0.379	0.654	0.723	0.426	0.290	0.191	0.198	0.132	0.160	0.113	0.193	0.259	0.288	0.155	0.122	0.137	0.120	0.342	1.144	3.074	7.322	39.40	71.80
605.0	3.186	4.000	4.041	4.212	4.021	3.559	4.258	4.640	5.804	7.511	17.11	20.58	7.634	5.208	5.252	22.84	137.7	72.17	1.779	1.247	1.164	0.889	1.014	1.072	0.996	1.021	1.018	0.993	0.934	1.004	0.944	0.859	0.825	0.811	0.846	0.719	0.745	0.580	0.542	0.576	0.476	0.512	0.435	0.434	0.399	0.386	0.362	0.329	0.248	0.292	0.268	0.253	0.252	0.206	0.244	0.461	0.640	0.509	0.289	0.175	0.167	0.173	0.159	0.157	0.139	0.189	0.224	0.145	0.141	0.130	0.096	0.134	0.292	0.772	1.708	10.01	46.00
610.0	2.832	4.207	3.355	3.747	3.216	3.407	4.059	4.480	5.410	6.413	11.44	20.32	11.28	5.000	3.952	7.461	60.14	139.3	29.83	1.093	0.925	0.980	0.878	0.814	0.753	0.754	0.776	0.901	0.855	0.834	0.842	0.838	0.646	0.745	0.684	0.578	0.528	0.504	0.440	0.452	0.435	0.406	0.431	0.313	0.355	0.355	0.289	0.252	0.228	0.226	0.211	0.235	0.195	0.197	0.206	0.238	0.419	0.500	0.416	0.205	0.161	0.139	0.126	0.145	0.115	0.131	0.214	0.207	0.170	0.113	0.095	0.098	0.117	0.235	0.445	2.284	11.58
615.0	2.643	3.355	3.168	3.560	2.423	3.259	3.322	3.672	4.429	5.972	7.573	14.44	16.80	5.604	3.341	3.642	16.60	86.89	112.6	3.370	0.761	0.842	0.732	0.670	0.713	0.599	0.664	0.684	0.660	0.777	0.612	0.627	0.564	0.579	0.572	0.458	0.473	0.321	0.353	0.403	0.334	0.301	0.350	0.228	0.262	0.244	0.269	0.216	0.215	0.188	0.173	0.175	0.174	0.146	0.146	0.158	0.186	0.304	0.390	0.269	0.159	0.138	0.114	0.105	0.117	0.115	0.135	0.161	0.166	0.151	0.081	0.103	0.114	0.116	0.167	0.567	2.658
620.0	2.353	2.598	3.208	2.443	3.177	2.991	3.012	3.526	4.503	5.039	6.116	9.654	16.71	8.724	3.017	2.526	5.279	39.09	139.2	28.83	0.838	0.671	0.595	0.512	0.544	0.463	0.653	0.582	0.541	0.579	0.509	0.498	0.449	0.467	0.471	0.367	0.348	0.354	0.318	0.356	0.280	0.260	0.239	0.230	0.239	0.230	0.223	0.206	0.173	0.173	0.139	0.158	0.124	0.101	0.130	0.136	0.160	0.170	0.355	0.314	0.180	0.139	0.089	0.079	0.123	0.103	0.131	0.124	0.169	0.161	0.106	0.067	0.072	0.084	0.106	0.205	0.653
625.0	2.503	3.482	3.987	3.160	2.517	2.476	2.659	3.757	4.297	4.440	5.931	7.525	14.78	11.12	3.102	2.179	2.498	13.67	103.3	63.29	1.021	0.577	0.571	0.635	0.511	0.513	0.551	0.445	0.468	0.466	0.460	0.386	0.468	0.415	0.432	0.389	0.335	0.270	0.314	0.322	0.242	0.221	0.234	0.245	0.229	0.199	0.157	0.175	0.173	0.143	0.113	0.138	0.139	0.085	0.099	0.130	0.169	0.129	0.242	0.309	0.244	0.129	0.124	0.069	0.103	0.108	0.133	0.102	0.170	0.152	0.149	0.063	0.065	0.089	0.062	0.079	0.188
630.0	2.309	3.035	3.743	3.264	2.708	2.092	2.581	3.518	4.231	4.458	5.308	6.277	10.00	13.34	4.531	2.237	1.905	4.311	40.25	112.5	26.38	0.545	0.468	0.559	0.432	0.488	0.428	0.453	0.437	0.430	0.387	0.390	0.319	0.362	0.354	0.313	0.259	0.228	0.246	0.229	0.203	0.213	0.213	0.187	0.206	0.168	0.144	0.137	0.160	0.134	0.122	0.116	0.129	0.094	0.091	0.103	0.123	0.097	0.130	0.229	0.254	0.198	0.090	0.060	0.108	0.081	0.105	0.076	0.088	0.107	0.148	0.102	0.069	0.065	0.068	0.062	0.079
635.0	3.271	1.707	2.867	2.659	2.678	2.412	2.598	3.293	3.137	4.224	5.046	5.866	7.265	11.05	8.078	2.115	1.712	2.045	10.49	63.14	94.99	2.813	0.446	0.396	0.397	0.363	0.408	0.406	0.348	0.401	0.316	0.295	0.309	0.265	0.294	0.240	0.235	0.191	0.172	0.232	0.179	0.240	0.150	0.138	0.164	0.163	0.120	0.129	0.131	0.109	0.137	0.082	0.137	0.077	0.065	0.097	0.087	0.085	0.079	0.148	0.191	0.188	0.123	0.067	0.107	0.067	0.074	0.105	0.069	0.100	0.129	0.116	0.079	0.069	0.076	0.082	0.084
640.0	2.078	2.454	3.403	3.734	2.793	2.008	2.495	3.124	3.783	4.118	5.391	5.463	5.973	9.001	10.17	2.921	1.729	1.681	3.396	25.77	112.0	23.87	0.393	0.433	0.365	0.379	0.416	0.371	0.348	0.360	0.265	0.357	0.272	0.220	0.266	0.256	0.171	0.181	0.200	0.213	0.184	0.225	0.117	0.115	0.154	0.118	0.110	0.102	0.156	0.115	0.120	0.104	0.115	0.119	0.057	0.098	0.085	0.117	0.068	0.097	0.132	0.170	0.164	0.113	0.072	0.094	0.080	0.066	0.081	0.115	0.077	0.070	0.154	0.075	0.062	0.076	0.059
645.0	2.603	2.924	4.389	4.910	1.864	1.963	2.875	3.026	3.933	4.230	5.689	5.678	5.715	6.553	10.60	4.315	1.689	1.691	1.659	8.383	78.87	55.33	0.838	0.399	0.323	0.296	0.368	0.400	0.288	0.275	0.322	0.205	0.200	0.189	0.183	0.236	0.193	0.170	0.169	0.171	0.178	0.206	0.129	0.135	0.142	0.085	0.117	0.136	0.123	0.119	0.094	0.083	0.100	0.080	0.063	0.088	0.070	0.082	0.072	0.090	0.112	0.146	0.138	0.117	0.077	0.099	0.086	0.063	0.092	0.083	0.062	0.083	0.146	0.071	0.059	0.072	0.104
650.0	2.459	3.778	4.107	3.171	1.948	1.987	2.569	2.922	3.636	3.940	5.281	5.249	5.035	5.244	9.073	6.757	2.090	1.560	1.389	2.644	36.87	103.7	8.890	0.299	0.336	0.297	0.278	0.286	0.255	0.194	0.207	0.196	0.157	0.218	0.178	0.179	0.165	0.204	0.107	0.128	0.127	0.142	0.119	0.133	0.092	0.083	0.077	0.111	0.108	0.108	0.101	0.078	0.091	0.063	0.051	0.082	0.065	0.065	0.113	0.094	0.121	0.090	0.158	0.169	0.094	0.094	0.061	0.086	0.082	0.108	0.044	0.064	0.086	0.090	0.107	0.058	0.056
