Sample:	'1
File name:	T2025051302ñã¼Ò´å¶«ÇÅ01.FD3
Run date:	'11:14:13, 05/16/2025
Operator:	Administrator
Comment:	'

Instrument
Model:	F-2700 FL Spectrophotometer
Serial number:	23B8-004
ROM Version:	4J14000 07

Instrument parameters
Measurement type:	3-D scan
Data mode:	Fluorescence
EX  Start WL:	220.0 nm
EX  End WL:	600.0 nm
EX Sampling interval:	5.0 nm
EM  Start WL:	230.0 nm
EM  End WL:	650.0 nm
EM Sampling interval:	5.0 nm
Scan speed:	12000 nm/min
EX Slit:	5.0 nm
EM Slit:	5.0 nm
PMT Voltage:	700 V
Response:	Auto 
Corrected spectra:	Off
Contour interval:	50.000

Peak integration
Integration method:	Rectangular
Sensitivity:	1
Threshold:	1.000

Peaks
No.	ApexEX/EM(nm)	Height(Data)
1	225.0/340.0	821.0
2	225.0/415.0	830.3
3	225.0/485.0	485.9
4	225.0/635.0	43.32
5	235.0/510.0	325.5
6	240.0/265.0	378.1
7	240.0/525.0	273.9
8	245.0/270.0	406.3
9	245.0/535.0	219.8
10	250.0/275.0	510.1
11	250.0/420.0	718.5
12	250.0/550.0	181.5
13	255.0/280.0	548.6
14	255.0/425.0	700.1
15	255.0/560.0	147.8
16	260.0/290.0	478.9
17	260.0/575.0	117.0
18	265.0/295.0	591.6
19	265.0/585.0	98.40
20	270.0/300.0	821.3
21	270.0/600.0	85.82
22	275.0/305.0	834.3
23	275.0/335.0	522.6
24	275.0/345.0	522.3
25	275.0/610.0	71.56
26	280.0/625.0	58.61
27	285.0/320.0	744.0
28	285.0/635.0	43.31
29	290.0/325.0	642.5
30	300.0/335.0	431.5
31	305.0/345.0	401.1
32	310.0/350.0	336.3
33	315.0/355.0	338.1
34	320.0/365.0	349.5
35	325.0/370.0	334.2
36	330.0/375.0	340.1
37	335.0/385.0	337.3
38	340.0/390.0	329.5
39	345.0/395.0	318.7
40	350.0/400.0	318.8
41	505.0/275.0	3.003
42	510.0/280.0	3.432
43	520.0/285.0	3.533
44	530.0/290.0	2.943
45	540.0/295.0	3.863
46	545.0/300.0	4.642
47	550.0/305.0	4.728
48	560.0/310.0	4.175
49	570.0/315.0	4.577
50	580.0/320.0	4.341
51	585.0/325.0	4.178

Data points
	220.0	225.0	230.0	235.0	240.0	245.0	250.0	255.0	260.0	265.0	270.0	275.0	280.0	285.0	290.0	295.0	300.0	305.0	310.0	315.0	320.0	325.0	330.0	335.0	340.0	345.0	350.0	355.0	360.0	365.0	370.0	375.0	380.0	385.0	390.0	395.0	400.0	405.0	410.0	415.0	420.0	425.0	430.0	435.0	440.0	445.0	450.0	455.0	460.0	465.0	470.0	475.0	480.0	485.0	490.0	495.0	500.0	505.0	510.0	515.0	520.0	525.0	530.0	535.0	540.0	545.0	550.0	555.0	560.0	565.0	570.0	575.0	580.0	585.0	590.0	595.0	600.0
230.0	86.61	1212	3113	888.1	43.40	6.461	5.772	5.010	3.840	3.648	3.292	2.926	2.652	2.246	1.725	1.618	1.212	1.295	1.238	0.988	0.885	0.877	0.777	0.742	0.768	0.693	0.740	0.579	0.631	0.658	0.603	0.553	0.490	0.484	0.471	0.405	0.446	0.446	0.436	0.427	0.561	0.823	0.820	0.544	0.369	0.344	1.244	6.126	10.35	7.244	2.688	0.707	0.280	0.284	0.268	0.244	0.296	0.271	0.279	0.262	0.258	0.288	0.283	0.300	0.257	0.299	0.285	0.252	0.265	0.245	0.266	0.332	0.269	0.282	0.300	0.278	0.300
235.0	200.4	346.8	1696	2740	600.7	55.30	6.254	5.352	4.701	4.236	3.130	2.762	2.982	2.270	1.941	1.841	1.451	1.248	1.222	1.225	1.013	0.962	0.805	0.758	0.857	0.779	0.727	0.596	0.587	0.570	0.628	0.557	0.540	0.433	0.485	0.368	0.477	0.505	0.405	0.432	0.497	0.561	0.569	0.703	0.780	0.517	0.545	1.747	3.686	6.408	9.066	9.105	4.130	1.053	0.358	0.260	0.272	0.298	0.271	0.271	0.268	0.307	0.276	0.266	0.307	0.328	0.240	0.264	0.327	0.301	0.234	0.269	0.307	0.286	0.309	0.363	0.332
240.0	258.8	228.0	488.6	2166	2778	456.1	28.95	5.938	4.854	3.578	3.955	3.679	2.775	2.376	1.992	1.755	1.521	1.449	1.250	1.260	0.966	0.933	0.836	0.799	0.713	0.801	0.647	0.611	0.579	0.578	0.551	0.561	0.585	0.596	0.493	0.484	0.422	0.478	0.472	0.474	0.451	0.469	0.449	0.569	0.844	0.862	0.720	0.751	1.139	1.947	4.443	10.73	13.09	8.940	3.310	0.708	0.298	0.288	0.292	0.275	0.300	0.297	0.326	0.261	0.298	0.274	0.342	0.258	0.282	0.291	0.278	0.287	0.290	0.307	0.349	0.293	0.296
245.0	160.8	302.4	197.2	704.0	2835	2755	331.5	13.90	5.826	4.858	4.674	3.499	3.181	2.356	1.821	1.628	2.037	1.336	1.286	1.251	1.027	1.107	0.793	0.894	0.729	0.757	0.697	0.650	0.589	0.599	0.567	0.565	0.598	0.530	0.444	0.530	0.408	0.524	0.386	0.493	0.411	0.426	0.477	0.425	0.552	0.851	1.089	0.876	0.635	0.661	1.219	3.484	8.725	14.74	14.53	8.034	2.146	0.425	0.288	0.289	0.284	0.292	0.291	0.278	0.283	0.300	0.325	0.278	0.294	0.322	0.269	0.281	0.287	0.259	0.302	0.340	0.258
250.0	68.44	196.1	273.1	261.4	886.5	2593	3275	1121	63.60	7.065	5.160	4.109	3.497	2.656	2.253	1.731	1.893	1.442	1.445	1.221	1.031	1.078	0.960	0.807	0.802	0.796	0.732	0.716	0.628	0.648	0.607	0.620	0.525	0.508	0.464	0.499	0.414	0.475	0.421	0.436	0.421	0.376	0.420	0.387	0.411	0.518	0.630	0.871	1.002	0.864	0.748	1.117	2.313	4.805	8.801	13.00	17.05	15.17	8.274	2.495	0.418	0.310	0.298	0.266	0.263	0.287	0.271	0.306	0.311	0.312	0.271	0.297	0.293	0.275	0.274	0.288	0.270
255.0	43.26	65.62	170.6	332.7	297.8	665.2	2482	4975	1502	57.39	6.681	5.385	4.506	3.578	2.623	2.174	1.789	1.532	1.327	1.285	1.086	0.980	0.921	0.819	0.799	0.773	0.814	0.717	0.732	0.663	0.780	0.625	0.567	0.475	0.454	0.507	0.391	0.554	0.487	0.437	0.438	0.424	0.438	0.373	0.345	0.401	0.408	0.471	0.608	0.881	1.269	1.503	1.040	1.392	2.276	3.318	6.339	13.97	25.65	25.54	12.69	2.851	0.420	0.317	0.279	0.316	0.286	0.317	0.297	0.339	0.280	0.351	0.280	0.307	0.288	0.273	0.289
260.0	38.50	34.87	70.02	269.2	327.8	217.4	769.6	4056	5411	267.6	24.65	6.743	5.150	3.882	3.279	2.301	2.068	1.653	1.510	1.337	1.218	1.036	1.016	0.836	0.912	0.806	0.850	0.702	0.746	0.670	0.593	0.669	0.523	0.540	0.486	0.469	0.492	0.485	0.463	0.419	0.417	0.447	0.429	0.382	0.372	0.358	0.384	0.351	0.362	0.481	0.890	1.624	1.651	1.189	0.911	1.087	1.792	4.028	11.18	24.27	32.06	24.88	10.24	1.455	0.354	0.295	0.335	0.289	0.309	0.320	0.276	0.321	0.284	0.327	0.251	0.348	0.321
265.0	38.91	31.76	32.93	131.8	378.1	262.4	225.1	1379	5709	5212	207.2	12.24	6.251	4.720	3.407	2.899	2.233	1.892	1.710	1.321	1.122	1.084	1.091	0.870	0.896	0.792	0.891	0.665	0.787	0.688	0.637	0.681	0.568	0.585	0.505	0.474	0.498	0.474	0.444	0.373	0.455	0.500	0.467	0.434	0.388	0.412	0.344	0.352	0.383	0.372	0.477	0.925	1.668	1.990	1.391	0.846	0.829	1.300	2.952	7.160	17.39	34.75	32.98	21.38	5.964	0.625	0.376	0.365	0.362	0.319	0.338	0.348	0.303	0.347	0.290	0.351	0.334
270.0	44.51	37.15	30.06	55.23	199.8	406.3	295.1	375.2	1849	5345	6242	802.7	42.06	6.330	4.516	3.654	2.673	2.239	1.891	1.556	1.387	1.317	1.147	1.050	1.029	0.866	0.806	0.719	0.746	0.777	0.728	0.746	0.690	0.583	0.594	0.562	0.539	0.521	0.474	0.484	0.498	0.524	0.454	0.505	0.438	0.469	0.356	0.375	0.390	0.361	0.331	0.557	0.814	1.189	1.874	1.995	1.794	1.200	1.168	2.014	4.453	10.09	17.72	29.56	31.60	32.15	15.07	5.297	0.646	0.454	0.383	0.346	0.308	0.356	0.355	0.346	0.415
275.0	77.52	61.77	41.35	41.18	94.08	227.4	510.1	326.8	459.0	1352	4869	8979	1071	29.16	6.634	4.479	3.374	2.511	2.214	1.889	1.428	1.409	1.413	1.228	1.130	0.995	0.845	0.791	0.846	0.789	0.801	0.724	0.733	0.688	0.671	0.614	0.708	0.548	0.539	0.551	0.457	0.539	0.450	0.536	0.555	0.509	0.396	0.520	0.421	0.360	0.311	0.435	0.518	0.643	0.972	1.218	2.303	3.003	1.966	1.178	1.404	2.666	4.383	7.094	9.905	23.37	46.27	51.49	22.72	5.206	0.596	0.382	0.334	0.349	0.387	0.331	0.378
280.0	103.1	89.31	61.21	47.14	68.13	132.1	357.1	548.6	233.6	348.3	1454	7528	8116	145.8	14.48	6.101	4.140	3.308	2.770	2.168	1.574	1.498	1.379	1.260	1.191	1.097	0.944	0.873	0.908	0.839	0.779	0.790	0.684	0.812	0.718	0.735	0.746	0.627	0.614	0.623	0.509	0.560	0.557	0.584	0.566	0.536	0.468	0.609	0.558	0.417	0.301	0.431	0.495	0.622	0.717	0.807	1.260	2.281	3.432	2.670	1.471	1.000	1.496	1.983	2.709	6.182	16.66	37.13	55.26	32.36	16.89	2.365	0.468	0.387	0.402	0.400	0.372
285.0	154.9	117.1	95.04	62.78	71.88	93.96	175.3	499.7	344.9	160.9	389.4	2438	9091	6157	104.8	9.811	5.377	3.820	2.787	2.206	1.829	1.678	1.462	1.413	1.200	1.094	0.991	0.974	0.919	0.770	0.750	0.750	0.766	0.903	0.831	0.861	0.881	0.731	0.877	0.640	0.560	0.672	0.625	0.697	0.590	0.580	0.567	0.634	0.556	0.452	0.355	0.522	0.530	0.538	0.571	0.656	0.853	1.080	2.043	3.223	3.533	1.799	0.980	0.863	1.110	1.915	4.246	9.808	22.81	42.52	58.69	28.90	10.81	1.041	0.419	0.424	0.421
290.0	240.5	210.6	155.1	96.42	80.46	92.94	110.3	224.1	478.9	431.4	221.4	652.1	2799	6741	6319	423.8	21.39	5.465	3.816	2.913	2.402	2.039	1.686	1.566	1.354	1.179	1.093	1.063	0.958	0.869	0.861	0.872	0.702	0.924	0.949	0.932	1.089	0.880	0.939	0.804	0.779	0.725	0.701	0.790	0.731	0.698	0.748	0.809	0.705	0.616	0.496	0.580	0.542	0.544	0.553	0.646	0.739	0.715	1.018	1.491	2.214	2.919	2.943	2.235	1.326	1.186	1.629	2.834	5.863	11.32	22.63	33.20	42.88	38.77	18.72	8.467	1.247
295.0	334.7	292.0	225.1	139.0	97.82	102.8	106.0	135.0	239.0	591.6	553.8	318.5	759.6	1711	4910	6486	585.4	16.33	5.214	4.181	2.720	2.488	2.027	1.660	1.496	1.196	1.271	1.109	0.994	1.001	0.887	0.869	0.802	0.918	1.149	1.108	1.255	1.167	1.189	0.881	0.960	1.048	0.951	0.947	0.932	0.993	0.945	0.993	0.925	0.694	0.715	0.637	0.574	0.684	0.654	0.692	0.874	0.683	0.759	0.941	1.130	1.439	2.007	3.734	3.863	2.703	1.497	1.613	2.205	3.482	5.807	8.202	11.54	19.32	41.01	57.38	29.21
300.0	385.9	351.5	274.0	181.1	119.8	109.4	122.6	140.5	187.5	391.1	821.3	465.8	334.2	513.7	1431	6310	5427	83.72	9.038	5.423	3.692	2.851	2.075	1.840	1.488	1.587	1.209	1.221	1.103	0.960	0.996	0.951	0.899	0.949	1.174	1.283	1.415	1.183	1.238	1.163	0.963	1.043	0.881	1.068	1.054	1.099	1.071	1.144	1.061	0.829	0.719	0.796	0.688	0.827	0.696	0.720	0.741	0.851	0.956	0.861	0.984	1.110	1.431	2.199	3.449	4.642	3.504	1.797	1.716	1.824	2.348	2.654	3.322	5.178	12.42	31.25	53.16
305.0	428.8	413.1	322.8	211.1	155.0	136.7	144.0	175.2	211.7	308.6	666.7	834.3	377.9	290.7	435.5	2050	7294	4158	62.42	6.475	4.653	3.218	2.385	1.948	1.815	1.586	1.345	1.224	1.078	1.139	0.946	1.048	0.918	1.014	1.208	1.415	1.600	1.414	1.343	1.296	1.235	1.124	1.023	1.104	1.124	1.301	1.159	1.303	1.102	0.870	0.844	0.881	0.758	0.883	0.710	0.851	0.775	0.933	1.082	1.140	1.206	1.126	1.390	1.867	2.381	3.399	4.728	4.410	2.616	1.817	1.905	1.627	1.836	2.150	3.596	8.249	18.61
310.0	484.0	485.8	370.7	237.2	173.5	154.6	169.7	205.8	246.4	317.4	470.6	754.9	735.5	364.3	249.2	549.9	2276	5187	4711	288.5	14.76	4.451	3.085	2.416	2.137	1.609	1.374	1.401	1.175	1.292	1.026	0.997	0.894	1.111	1.166	1.470	1.551	1.353	1.414	1.395	1.371	1.181	1.237	1.208	1.321	1.328	1.279	1.474	1.263	0.955	0.846	0.967	0.873	0.877	0.872	0.850	1.052	1.009	1.101	1.260	1.306	1.392	1.555	1.821	2.097	2.361	2.981	3.818	4.175	4.032	3.054	1.952	1.637	1.648	1.711	2.697	4.867
315.0	521.4	534.9	408.9	264.6	187.2	169.4	194.1	237.2	278.0	340.7	436.1	529.2	724.8	683.5	279.0	233.8	578.8	1282	3909	4489	422.4	10.88	4.049	3.119	2.488	1.882	1.770	1.521	1.307	1.220	1.050	0.980	0.952	1.030	1.239	1.435	1.612	1.464	1.435	1.437	1.365	1.209	1.302	1.316	1.367	1.526	1.427	1.583	1.471	1.094	0.940	1.070	0.934	0.964	0.867	0.851	1.146	1.108	1.219	1.292	1.464	1.471	1.674	1.887	2.190	2.143	2.336	2.500	2.788	3.524	4.577	4.131	2.569	1.743	1.371	1.415	2.024
320.0	599.0	601.0	465.2	296.1	201.9	184.6	218.4	258.0	294.2	364.0	442.4	491.1	550.2	744.0	475.2	189.4	215.1	338.9	1115	4811	3956	62.05	7.006	4.061	3.225	2.354	1.860	1.695	1.526	1.259	1.166	0.994	1.066	0.985	1.221	1.349	1.553	1.594	1.434	1.345	1.307	1.217	1.233	1.470	1.616	1.702	1.554	1.590	1.590	1.159	1.053	1.089	0.952	0.946	0.991	1.011	1.132	1.255	1.303	1.406	1.457	1.650	1.663	1.918	2.118	2.068	2.123	2.427	2.599	2.537	3.377	4.064	4.341	3.103	1.692	1.455	1.454
325.0	663.8	673.2	548.8	331.7	224.2	204.0	229.9	270.6	309.1	384.7	452.3	490.7	495.4	575.2	642.5	280.2	150.9	140.4	290.4	1584	5500	3136	48.09	5.451	3.778	2.974	2.107	2.035	1.613	1.384	1.239	1.184	1.055	1.053	1.377	1.514	1.625	1.321	1.440	1.323	1.413	1.270	1.362	1.412	1.434	1.731	1.726	1.790	1.695	1.323	1.182	1.185	1.024	1.113	1.015	1.039	1.295	1.318	1.343	1.428	1.686	1.744	1.752	2.000	2.064	2.267	2.134	2.392	2.695	2.287	2.674	3.076	3.644	4.178	3.255	1.868	1.401
330.0	710.0	727.4	642.9	409.6	267.2	226.0	243.6	287.1	325.5	402.0	468.1	505.1	499.5	472.9	513.0	472.9	236.7	117.4	118.2	394.6	1745	4036	3677	232.9	12.44	3.745	2.760	2.123	1.810	1.557	1.423	1.293	1.256	1.161	1.242	1.458	1.576	1.440	1.376	1.393	1.342	1.421	1.436	1.475	1.593	1.864	1.840	2.009	2.011	1.565	1.320	1.443	1.237	1.139	1.155	1.064	1.219	1.325	1.440	1.508	1.675	1.736	1.964	2.196	2.126	2.365	2.290	2.419	2.711	2.436	2.543	2.405	2.591	3.062	3.108	3.232	2.732
335.0	747.1	769.8	705.8	465.6	319.0	273.2	274.9	303.1	348.5	419.1	487.2	522.6	516.0	463.3	403.4	403.7	431.5	191.2	99.40	142.0	426.5	1001	3237	3617	354.9	9.520	3.694	2.812	2.002	1.965	1.687	1.452	1.428	1.157	1.310	1.348	1.619	1.469	1.428	1.525	1.329	1.406	1.504	1.635	1.643	1.992	2.045	2.039	2.170	1.735	1.557	1.423	1.366	1.260	1.272	1.202	1.341	1.576	1.443	1.604	1.552	1.691	1.776	2.234	2.255	2.477	2.494	2.488	2.723	2.535	2.441	2.627	2.377	2.615	2.383	2.305	2.828
340.0	772.8	821.0	711.2	521.3	372.9	288.8	292.5	320.8	357.2	418.2	488.3	519.5	520.4	466.9	388.8	330.9	414.8	341.2	132.6	99.93	145.0	259.2	932.1	4021	3297	53.54	5.920	3.572	2.809	2.281	1.730	1.406	1.399	1.478	1.422	1.346	1.560	1.441	1.390	1.492	1.384	1.446	1.455	1.537	1.695	1.886	1.949	2.028	2.349	1.782	1.434	1.585	1.581	1.371	1.252	1.371	1.443	1.554	1.370	1.646	1.786	1.992	1.907	2.232	2.202	2.520	2.451	2.490	2.765	2.562	2.414	2.692	2.467	2.317	2.078	2.006	2.041
345.0	753.6	780.3	733.6	557.6	393.8	317.7	309.2	329.2	371.9	432.3	484.2	522.3	520.5	474.9	394.0	316.6	317.5	401.1	230.4	111.7	95.73	104.9	244.5	1323	4559	2758	44.51	4.787	3.175	2.278	1.801	1.601	1.295	1.444	1.322	1.326	1.599	1.572	1.651	1.461	1.359	1.459	1.571	1.701	1.751	1.948	1.945	2.222	2.255	1.825	1.612	1.815	1.685	1.531	1.422	1.430	1.501	1.460	1.673	1.665	1.815	2.027	2.080	2.229	2.141	2.569	2.519	2.675	2.549	2.722	2.425	2.455	2.481	2.406	2.081	1.960	2.159
350.0	743.0	775.0	717.1	573.7	434.8	364.2	339.1	355.4	382.5	431.2	481.9	516.6	517.2	475.2	406.3	328.8	287.8	308.7	336.3	216.9	117.8	92.75	106.7	337.0	1431	3282	3110	215.0	13.06	3.133	2.427	1.864	1.392	1.532	1.525	1.420	1.505	1.470	1.557	1.430	1.354	1.393	1.535	1.542	1.695	1.991	1.871	2.183	2.190	1.887	1.855	1.896	1.753	1.679	1.564	1.595	1.670	1.704	1.768	1.691	1.983	1.946	2.052	2.224	2.293	2.460	2.414	2.623	2.444	2.555	2.469	2.441	2.525	2.467	2.366	2.123	2.089
355.0	731.1	770.8	695.6	582.1	462.2	411.1	374.1	391.1	405.4	448.3	486.4	513.4	510.0	478.7	418.0	355.9	303.2	275.6	284.3	338.1	214.0	122.7	102.8	135.2	362.0	809.8	2485	3254	346.3	11.79	3.368	2.397	1.634	1.579	1.390	1.269	1.380	1.431	1.548	1.386	1.358	1.519	1.449	1.712	1.631	1.836	1.905	2.157	2.090	1.809	1.759	1.995	1.826	1.881	1.746	1.717	1.757	1.875	1.824	1.812	2.013	1.965	2.131	2.209	2.324	2.368	2.479	2.357	2.583	2.447	2.430	2.636	2.717	2.488	2.420	2.184	2.009
360.0	747.4	740.5	693.3	590.9	492.9	438.6	421.1	414.8	425.9	465.0	494.4	518.0	510.7	486.9	430.0	371.2	324.8	293.0	270.3	319.9	324.2	177.6	123.8	107.6	134.0	222.2	698.2	3111	3090	281.9	6.762	3.184	2.154	1.780	1.608	1.465	1.450	1.425	1.449	1.506	1.423	1.518	1.509	1.599	1.602	1.915	1.762	1.992	2.068	1.940	1.755	1.888	1.900	1.813	1.860	1.894	1.969	1.926	1.916	2.088	2.148	2.166	2.120	2.111	2.272	2.453	2.490	2.385	2.431	2.558	2.521	2.527	2.670	2.612	2.379	2.363	2.353
365.0	734.2	738.7	684.7	613.8	537.3	464.7	453.1	439.6	453.8	481.2	506.9	516.4	515.1	485.1	442.1	388.4	347.9	313.8	280.9	280.7	349.5	272.5	161.5	122.6	106.3	101.4	196.7	978.8	3734	2751	45.57	4.545	2.663	1.873	1.520	1.560	1.616	1.442	1.385	1.440	1.525	1.478	1.528	1.556	1.613	1.861	1.877	1.951	2.013	1.830	1.850	1.988	1.979	2.195	2.064	1.917	1.937	1.994	2.174	2.161	2.277	2.302	2.256	2.417	2.492	2.324	2.491	2.496	2.442	2.476	2.845	2.450	2.580	2.605	2.415	2.512	2.382
370.0	718.7	742.9	699.2	626.6	567.9	519.0	499.2	484.5	492.9	500.6	525.2	525.3	524.7	495.2	454.5	412.4	377.5	349.6	315.6	297.8	304.9	334.2	270.0	171.1	126.4	103.4	102.1	262.8	1126	2855	2955	753.7	13.85	2.776	2.001	1.763	1.722	1.657	1.458	1.453	1.462	1.459	1.580	1.552	1.813	1.877	1.878	2.082	2.014	1.867	1.828	2.195	2.175	2.161	2.302	2.219	2.115	2.307	2.219	2.235	2.339	2.409	2.531	2.425	2.529	2.533	2.522	2.482	2.440	2.719	2.629	2.576	2.682	2.659	2.632	2.590	2.537
375.0	739.9	763.9	724.4	661.7	599.2	562.8	538.2	533.1	523.8	532.1	542.5	545.6	536.5	501.1	470.4	434.6	406.1	380.2	350.9	327.1	309.5	306.7	340.1	267.2	168.0	131.7	107.1	119.7	293.3	696.7	2096	3710	326.5	14.69	2.948	2.102	1.972	1.710	1.680	1.512	1.749	1.428	1.716	1.467	1.698	1.809	1.747	2.006	1.887	1.854	1.788	2.240	2.208	2.234	2.367	2.360	2.410	2.417	2.462	2.484	2.556	2.401	2.493	2.194	2.652	2.577	2.594	2.657	2.620	2.664	2.589	2.610	2.707	2.680	2.672	2.603	2.724
380.0	748.2	766.3	725.2	683.2	639.8	596.0	571.0	562.4	555.0	553.1	555.7	559.5	538.2	519.0	484.1	445.5	424.6	404.0	375.5	352.4	327.8	301.2	321.8	335.8	226.2	157.7	123.8	102.7	121.5	194.4	574.2	2734	2739	264.7	6.826	2.646	2.146	2.061	1.675	1.699	1.654	1.704	1.754	1.665	1.722	1.829	1.851	2.008	1.869	1.925	1.853	2.379	2.327	2.290	2.412	2.391	2.702	2.567	2.438	2.653	2.432	2.452	2.635	2.589	2.701	2.622	2.541	2.555	2.563	2.957	2.465	2.833	2.783	2.930	2.772	2.670	2.880
385.0	766.3	776.3	739.5	691.4	654.1	630.1	598.4	582.5	572.5	572.7	569.6	575.1	547.5	525.5	496.3	458.3	437.7	420.1	398.2	374.3	348.9	321.7	309.4	337.3	304.7	196.3	147.2	117.1	96.67	91.59	163.3	799.8	2884	2391	39.71	4.331	2.586	2.364	1.872	1.774	1.666	1.614	1.786	1.641	1.861	1.946	1.889	2.029	2.075	2.003	1.940	2.320	2.369	2.456	2.532	2.325	2.681	2.620	2.400	2.555	2.474	2.826	2.560	2.635	2.719	2.554	2.558	2.675	2.595	2.865	2.593	2.903	2.953	3.004	2.769	2.751	3.024
390.0	755.6	803.5	759.4	714.8	682.1	639.3	626.8	609.9	607.5	593.9	587.9	580.5	560.9	533.8	504.2	468.2	450.3	437.2	416.2	395.8	374.1	349.1	322.4	316.0	329.5	282.3	193.8	147.3	115.4	92.97	87.86	213.6	823.4	2089	2270	675.0	13.59	2.882	2.318	2.013	1.858	1.811	1.802	1.647	1.867	2.066	1.951	2.116	2.097	2.020	1.994	2.345	2.498	2.556	2.666	2.525	2.823	2.547	2.606	2.763	2.704	2.893	2.704	2.840	2.805	2.787	2.723	2.825	2.677	2.888	2.866	3.063	2.879	3.028	2.932	2.889	2.966
395.0	774.7	805.5	761.1	741.6	698.3	670.1	670.4	640.5	626.9	622.4	606.9	590.2	574.8	538.4	513.0	481.5	458.5	447.8	434.7	416.0	390.3	374.7	346.9	325.8	309.9	318.7	276.7	190.3	146.9	115.3	90.70	96.18	217.2	501.8	1339	2799	284.7	16.52	3.023	2.296	2.038	1.956	1.974	1.984	2.078	1.977	1.895	2.143	2.142	2.050	2.074	2.551	2.621	2.817	2.626	2.735	2.854	2.714	2.813	2.850	2.893	3.083	2.951	2.938	2.797	2.747	2.886	2.878	2.638	2.755	2.709	3.062	3.066	3.096	2.944	3.063	3.178
400.0	780.3	808.7	768.8	757.7	720.6	693.6	689.6	661.7	644.9	643.1	618.7	597.5	577.9	551.5	518.5	483.8	467.9	457.2	439.8	425.7	403.9	386.1	360.7	338.2	314.4	304.2	318.8	245.2	172.8	137.9	105.2	82.14	89.77	141.3	353.3	1768	2311	248.0	9.459	2.876	2.266	2.155	2.023	1.983	2.107	2.043	1.920	2.193	2.184	2.219	2.029	2.461	2.675	2.771	2.716	2.724	2.840	2.942	2.681	2.899	3.084	2.930	2.971	2.938	2.866	2.751	2.841	2.995	2.873	2.885	2.997	2.898	3.072	3.149	2.952	3.059	3.366
405.0	830.3	805.8	775.1	750.2	735.1	708.4	694.2	683.6	663.9	643.4	632.0	601.4	581.6	552.9	514.2	483.3	466.7	462.6	446.6	431.2	410.6	390.6	373.6	349.3	323.6	300.0	308.9	298.4	211.4	158.6	124.3	92.28	72.65	68.69	104.7	481.9	1929	2079	193.4	5.117	2.669	2.417	2.183	2.168	2.193	2.200	2.022	2.342	2.154	2.050	2.089	2.651	2.675	2.613	2.768	2.646	3.000	3.091	2.791	3.046	3.088	2.988	2.836	3.067	2.824	2.797	2.803	2.945	2.820	2.752	2.893	2.941	3.016	2.928	2.969	3.033	3.403
410.0	800.8	824.1	789.7	745.2	734.8	707.6	705.2	695.4	678.5	658.0	642.6	610.4	581.3	550.0	510.2	479.5	464.6	457.1	441.8	427.9	410.4	397.2	382.2	361.9	337.2	311.7	296.9	300.6	273.0	199.8	147.0	111.6	83.63	63.80	57.60	132.0	522.0	1490	1833	611.0	14.00	2.847	2.332	2.331	2.192	2.177	2.242	2.318	2.280	2.071	2.008	2.645	2.578	2.805	2.789	2.686	2.882	3.150	3.095	3.220	2.926	3.116	2.871	3.001	2.926	2.860	3.062	2.890	2.949	2.971	2.906	2.950	2.965	2.953	2.871	2.901	3.182
415.0	805.8	830.3	780.0	744.2	717.1	712.3	701.0	697.3	678.6	666.4	648.9	605.3	573.9	538.6	507.9	475.4	453.4	447.1	433.7	424.0	411.7	394.9	386.6	368.3	341.8	320.2	298.6	282.2	284.5	256.4	179.7	130.6	98.55	74.23	57.30	61.52	139.6	353.8	905.6	2069	267.0	17.52	2.900	2.530	2.274	2.163	2.177	2.413	2.221	2.029	2.053	2.584	2.632	2.744	2.776	2.785	3.120	3.136	2.953	3.103	3.228	3.117	3.151	2.896	3.004	2.996	3.288	2.920	2.809	2.829	2.857	2.912	2.764	3.071	2.686	2.884	3.086
420.0	789.3	812.6	755.6	758.2	718.0	710.0	718.5	691.4	682.3	670.8	647.7	610.1	570.8	534.3	500.1	459.9	444.1	434.2	425.1	414.0	403.5	390.6	383.9	364.2	346.0	324.1	301.9	278.8	268.8	271.8	216.1	149.3	113.0	85.71	64.83	52.25	59.70	99.04	232.4	1185	1909	239.0	10.11	2.883	2.433	2.256	2.156	2.421	2.251	2.196	2.090	2.420	2.632	2.700	2.760	2.706	3.134	3.074	3.267	2.834	3.080	3.084	3.253	2.996	3.005	3.018	3.081	2.735	2.618	2.774	2.697	2.834	2.793	2.972	2.793	3.041	2.745
425.0	760.2	809.8	760.4	755.9	722.2	703.1	693.8	700.1	688.8	673.0	646.8	612.6	566.9	526.4	490.5	451.3	437.1	425.2	412.8	402.7	393.4	380.6	377.0	363.4	349.2	326.1	303.7	283.2	261.6	261.6	246.1	175.3	124.2	95.51	73.11	57.68	46.37	46.46	68.98	315.5	1377	1693	189.3	5.121	2.816	2.442	2.238	2.270	2.347	2.176	2.107	2.674	2.759	2.665	2.493	2.613	2.954	2.884	3.100	2.985	2.989	2.967	2.999	2.952	3.104	2.930	2.980	2.792	2.688	2.901	2.849	2.960	2.948	2.743	2.823	2.979	3.095
430.0	1100	773.6	724.2	721.5	707.7	697.5	686.9	695.1	686.2	668.4	653.1	607.7	560.9	515.9	479.8	437.4	425.7	415.2	401.8	390.9	380.6	371.5	366.9	356.6	344.3	326.3	305.3	287.2	268.2	248.7	238.5	210.9	152.7	110.0	86.83	67.95	52.53	41.73	38.70	87.91	362.3	1087	1456	528.9	14.24	3.165	2.588	2.389	2.315	2.154	1.951	2.542	2.541	2.778	2.422	2.654	3.018	2.888	3.070	2.987	3.070	2.978	2.958	3.172	3.053	2.986	2.975	2.829	2.936	2.754	2.683	2.916	2.742	2.880	2.713	2.807	2.919
435.0	2188	790.8	721.7	710.8	695.6	681.2	674.8	683.1	679.9	665.5	657.2	599.1	547.2	504.5	464.8	427.2	413.0	399.5	386.1	379.1	367.1	362.2	358.0	345.4	338.1	321.2	307.3	291.3	274.1	247.8	224.1	213.7	188.0	132.4	98.27	79.00	62.71	49.74	39.06	42.35	97.89	258.5	685.4	1720	252.6	17.63	3.098	2.793	2.412	2.114	2.092	2.528	2.664	2.572	2.533	2.629	2.987	2.915	3.001	3.002	2.984	3.205	2.955	3.250	3.053	3.019	3.061	2.816	2.647	2.681	2.690	2.640	2.670	2.775	2.654	2.760	2.877
440.0	2754	1007	690.9	689.2	678.9	671.8	670.0	673.9	669.7	658.4	647.8	590.9	541.7	495.3	455.4	417.7	397.8	385.8	373.7	364.0	358.8	349.7	346.5	337.3	332.7	321.0	302.1	288.7	273.1	252.0	223.0	201.6	194.1	159.5	112.3	87.60	71.43	56.12	43.21	35.82	42.75	73.80	176.1	974.1	1656	225.7	9.820	2.999	2.542	2.101	2.098	2.483	2.467	2.732	2.489	2.784	2.955	3.106	3.438	2.988	3.086	3.046	3.150	3.155	3.078	3.086	2.870	2.678	2.538	2.647	2.664	2.853	2.635	2.637	2.528	2.514	2.739
445.0	2683	1645	692.5	659.0	646.1	660.1	662.4	676.0	663.9	653.5	631.9	586.8	531.7	482.6	441.9	405.4	380.2	368.9	358.8	351.2	345.8	336.3	337.7	326.7	320.9	312.8	296.4	283.8	270.8	253.6	224.3	197.9	184.0	173.6	128.3	94.91	76.95	62.21	48.58	38.90	33.67	35.16	53.72	260.3	1194	1491	162.6	5.318	2.797	2.224	2.007	2.493	2.539	2.674	2.336	2.748	2.860	2.958	3.007	3.023	3.023	3.082	3.095	2.999	3.157	2.768	2.582	2.661	2.772	2.531	2.683	2.733	2.555	2.549	2.409	2.376	2.580
450.0	1643	2488	957.8	624.0	625.1	637.9	632.7	647.1	642.3	634.2	607.9	565.7	512.9	462.7	419.6	386.0	358.7	350.1	336.8	332.9	321.7	319.2	316.3	310.0	304.6	295.9	284.3	274.0	262.4	247.9	223.1	196.4	173.7	164.1	148.4	111.4	83.56	68.47	56.39	44.97	36.77	29.93	29.29	71.26	313.2	951.8	1277	450.2	11.70	2.674	2.176	2.605	2.501	2.674	2.416	2.588	2.806	2.803	2.844	2.907	2.936	3.052	2.859	3.028	2.879	2.995	2.470	2.717	2.692	2.553	2.659	2.724	2.379	2.640	2.352	2.370	2.554
455.0	825.8	2279	1793	621.3	585.7	588.4	591.9	614.2	613.9	599.9	581.4	540.9	487.4	435.5	396.6	363.1	340.1	322.3	314.0	305.3	298.3	296.7	291.6	289.6	285.5	276.3	266.5	260.8	249.6	237.3	216.7	192.3	170.8	152.4	143.2	128.1	95.63	73.90	61.84	50.29	41.11	32.59	27.40	31.36	82.02	224.1	558.1	1373	206.1	13.37	2.535	2.890	2.483	2.644	2.407	2.635	2.662	2.837	2.819	2.872	3.013	2.708	2.804	3.028	2.602	2.678	2.714	2.455	2.375	2.427	2.543	2.618	2.392	2.329	2.220	2.371	2.331
460.0	594.9	1487	2465	784.4	541.0	551.9	567.2	578.3	581.4	575.8	559.0	513.4	464.1	419.1	371.6	338.4	322.4	302.5	294.9	287.3	278.8	274.5	271.7	274.1	265.7	262.0	254.6	245.2	237.3	228.9	210.8	187.8	166.9	147.7	132.0	129.5	107.7	79.74	63.88	53.33	42.70	35.45	29.47	24.55	31.96	60.87	140.0	740.1	1257	168.7	8.595	2.999	2.359	2.450	2.483	2.533	2.592	2.692	2.683	2.739	2.760	2.711	2.596	2.792	2.691	2.479	2.474	2.441	2.271	2.422	2.310	2.291	2.094	2.072	2.078	2.284	2.308
465.0	570.7	858.4	2414	1301	516.9	521.0	541.4	547.7	555.3	550.6	535.0	488.8	444.6	392.8	353.2	317.6	301.1	285.3	276.5	268.4	263.0	259.3	255.4	253.9	245.9	244.3	238.5	234.9	226.8	218.8	202.3	182.2	159.2	142.4	125.6	119.9	115.1	87.06	66.98	55.50	45.78	37.51	31.00	24.45	21.79	25.38	40.83	195.0	906.6	1076	138.3	4.861	2.586	2.465	2.205	2.352	2.644	2.482	2.523	2.432	2.719	2.503	2.692	2.750	2.447	2.552	2.579	2.420	2.260	2.273	2.409	2.164	2.127	2.040	2.085	1.854	2.294
470.0	564.9	586.4	1459	2094	643.1	482.4	500.6	503.6	512.6	507.0	491.8	454.5	411.1	364.7	324.3	291.1	276.4	260.7	251.6	244.1	236.1	232.3	230.4	229.1	225.5	221.3	217.8	214.4	209.8	201.7	189.5	170.3	151.9	135.9	119.7	107.5	103.9	94.95	73.33	57.87	47.80	39.72	32.61	27.05	22.49	19.16	19.86	52.18	236.8	676.0	863.5	338.4	11.35	2.634	2.386	2.335	2.434	2.321	2.240	2.376	2.558	2.456	2.566	2.466	2.313	2.394	2.316	2.217	2.144	2.097	2.061	2.009	1.912	2.114	1.885	1.875	1.997
475.0	566.5	489.6	693.5	1955	1409	473.8	450.7	461.2	472.8	468.3	450.5	424.7	378.1	331.8	294.1	267.7	251.2	233.8	226.0	220.4	210.8	207.0	208.8	207.4	204.2	199.8	195.4	195.0	189.9	185.7	174.4	160.4	141.6	129.6	112.5	102.4	92.60	88.83	80.72	62.76	48.29	40.72	34.58	27.59	23.90	19.71	16.39	21.43	60.25	157.9	359.1	900.4	205.3	13.92	2.770	2.327	2.136	2.388	2.142	2.264	2.377	2.374	2.377	2.280	2.175	2.111	2.166	2.050	1.945	1.804	1.920	2.120	1.855	1.813	1.718	1.814	1.863
480.0	553.2	461.7	460.5	1283	2062	566.2	419.7	431.9	441.6	441.8	428.3	394.9	355.7	313.4	275.3	250.5	231.7	218.4	208.9	204.1	195.5	193.5	192.3	191.2	190.0	185.5	182.0	180.2	176.9	171.3	163.5	150.3	134.3	120.7	108.4	95.94	87.87	81.43	79.86	67.51	50.79	41.42	34.96	29.03	24.61	20.51	16.86	15.29	21.92	41.84	89.66	463.7	871.4	182.7	7.205	2.339	2.301	2.208	2.136	2.130	2.217	2.227	2.152	2.183	2.111	1.978	2.026	2.013	1.830	1.829	1.842	1.869	1.913	1.770	1.786	1.772	1.691
485.0	480.0	485.9	404.1	692.2	2157	1007	405.9	409.5	414.6	414.7	406.7	382.9	341.3	301.0	260.2	238.3	217.5	207.2	197.0	190.7	182.2	180.2	178.9	179.0	175.1	175.5	169.1	170.1	166.1	164.7	155.7	143.0	129.1	116.6	104.8	93.36	84.12	76.11	72.36	70.75	55.18	41.96	35.42	30.35	25.86	21.59	17.95	14.69	13.64	16.34	26.13	122.5	612.8	822.3	29.11	3.816	2.248	2.216	2.210	2.075	2.101	2.136	1.988	2.149	2.163	1.932	1.920	1.881	1.909	1.653	1.732	1.733	1.725	1.705	1.569	1.692	1.630
490.0	398.7	480.1	391.8	432.8	1358	1828	530.7	381.4	392.2	390.9	385.7	359.1	317.5	281.0	242.4	219.2	203.7	192.5	180.7	174.9	167.6	164.8	164.9	164.4	162.3	159.5	155.2	155.2	154.8	153.2	144.8	133.0	121.8	110.8	99.21	89.66	80.84	72.35	66.90	65.03	60.46	46.85	37.18	31.17	27.02	23.28	19.16	15.96	13.06	11.86	12.68	33.15	160.2	490.6	686.7	295.0	11.97	2.484	2.263	2.127	1.993	1.942	2.059	2.083	1.899	1.927	1.834	1.832	1.765	1.610	1.593	1.591	1.688	1.595	1.451	1.574	1.688
495.0	336.0	423.3	408.6	338.3	594.8	1897	1169	353.8	355.9	363.5	351.6	323.6	293.6	254.7	223.4	201.3	186.1	172.8	162.1	158.0	152.0	147.7	150.2	148.5	144.3	142.7	142.5	139.8	139.6	139.1	132.8	123.0	112.6	102.4	93.10	84.91	76.48	67.88	61.39	57.82	56.68	51.72	40.27	32.11	27.38	24.04	20.54	17.35	14.18	11.84	10.35	13.61	40.87	115.0	319.0	825.8	225.3	14.62	2.591	2.142	1.940	1.761	1.904	1.858	2.057	1.772	1.694	1.641	1.781	1.455	1.551	1.532	1.500	1.509	1.412	1.485	1.402
500.0	303.4	347.2	397.0	307.8	370.9	1264	1894	407.0	327.1	343.8	322.9	301.5	275.4	235.6	208.7	187.0	170.4	159.9	147.8	145.8	140.8	138.3	138.6	135.3	133.7	132.3	129.9	130.9	129.7	127.6	123.0	113.8	104.6	96.71	86.72	79.16	73.41	64.67	58.02	54.17	50.96	50.84	42.49	33.27	27.90	24.61	20.52	17.26	15.04	12.28	10.15	9.672	14.74	30.39	79.60	422.3	819.2	193.6	7.369	2.170	1.903	1.727	1.712	1.735	1.819	1.561	1.699	1.811	1.670	1.388	1.508	1.506	1.472	1.502	1.318	1.463	1.260
505.0	276.2	293.0	385.6	309.8	293.9	656.8	2156	763.2	311.2	307.1	302.3	278.1	256.7	218.3	196.9	173.6	159.6	147.3	138.7	135.6	129.1	126.0	125.5	124.0	124.3	120.1	119.3	119.4	119.3	118.7	114.8	104.6	99.03	90.48	82.57	74.21	68.89	61.89	55.93	50.58	45.69	46.13	43.64	35.16	27.73	24.26	20.85	17.29	15.33	12.92	10.26	8.845	8.942	11.82	21.99	109.7	539.3	752.2	31.77	3.718	2.020	1.612	1.745	1.683	1.739	1.563	1.516	1.615	1.433	1.485	1.464	1.357	1.351	1.290	1.231	1.235	1.226
510.0	254.8	251.2	316.7	325.5	262.4	352.2	1393	1707	341.4	278.9	273.1	254.5	227.7	199.5	176.7	154.2	142.8	132.2	125.0	120.6	114.1	111.6	110.5	110.4	108.1	106.7	105.6	105.3	105.2	105.5	101.2	95.26	88.32	80.25	74.25	68.20	62.62	56.83	51.19	46.67	42.49	39.78	40.31	36.70	29.46	23.55	20.24	17.45	15.11	12.99	10.91	9.190	7.822	7.956	9.385	28.58	138.9	425.0	562.5	132.7	11.20	1.914	1.706	1.630	1.615	1.463	1.494	1.524	1.355	1.357	1.409	1.314	1.313	1.181	1.152	1.160	1.242
515.0	219.0	226.0	245.3	305.2	258.8	249.4	559.5	1999	939.4	254.8	241.6	223.4	205.8	177.8	153.8	137.2	126.4	116.7	110.5	105.6	100.0	97.86	97.50	97.44	95.38	94.20	92.15	92.17	92.75	92.27	89.53	84.35	77.60	71.85	65.98	60.11	56.37	51.35	47.19	43.03	38.57	35.25	34.04	34.39	31.84	24.59	19.63	16.95	14.92	13.07	11.29	9.678	8.026	7.208	6.629	10.70	34.43	98.55	233.4	589.6	218.5	13.42	1.827	1.636	1.388	1.314	1.311	1.377	1.185	1.317	1.361	1.138	1.178	1.142	1.157	1.139	1.198
520.0	206.2	218.2	197.2	267.4	271.5	211.4	294.7	1388	1790	288.8	219.2	205.4	188.8	162.4	139.3	124.7	114.7	105.4	98.49	95.91	90.74	88.87	86.96	84.74	85.61	84.51	82.76	82.91	84.46	83.61	81.19	76.12	71.56	64.76	60.81	55.04	51.25	48.14	43.37	40.19	36.06	33.03	30.89	30.18	31.47	26.10	20.01	16.54	14.45	12.43	11.03	10.07	8.385	6.963	6.025	6.375	11.48	25.29	57.37	295.7	595.3	177.3	6.360	1.536	1.459	1.331	1.180	1.314	1.222	1.158	1.032	1.042	1.122	1.120	1.079	1.081	1.093
525.0	203.6	182.8	186.7	216.5	273.9	197.1	214.2	674.3	2259	589.1	209.4	185.8	172.4	146.2	129.4	114.8	105.0	97.19	90.99	86.63	81.45	79.35	79.25	77.84	77.29	76.40	74.66	74.03	76.39	75.00	73.03	68.35	64.74	60.22	54.70	52.16	47.72	44.93	40.16	36.43	33.41	30.94	28.07	26.54	27.80	27.06	21.06	16.49	14.03	12.03	10.83	9.222	8.510	7.020	6.244	5.585	6.477	8.749	15.80	75.65	360.0	538.8	32.08	3.067	1.511	1.395	1.138	1.214	1.055	1.128	0.926	1.058	0.931	0.978	1.086	0.907	0.972
530.0	164.4	164.1	160.9	171.7	240.3	208.6	177.8	298.3	1521	1634	237.9	164.7	153.9	130.3	115.3	101.8	92.60	86.16	80.53	76.97	71.77	70.74	69.05	67.24	67.24	66.39	66.92	65.31	66.32	65.25	63.82	61.00	56.04	52.53	49.40	46.10	42.83	39.78	36.52	33.25	30.06	28.09	25.43	23.70	23.39	24.07	21.67	17.27	14.03	11.52	10.24	9.029	7.995	7.326	6.508	5.420	5.048	5.131	6.410	19.56	91.15	283.1	386.8	131.8	10.81	1.504	1.111	1.072	0.975	1.050	0.874	0.990	0.911	0.979	0.875	0.856	0.899
535.0	145.3	138.3	144.1	138.1	184.7	219.8	158.5	185.7	552.9	2095	779.3	146.1	133.6	116.0	101.5	86.36	80.22	73.14	69.37	65.43	62.16	60.36	59.27	57.19	58.10	57.12	57.38	55.59	56.89	56.59	54.63	53.91	48.55	46.28	42.00	39.54	37.47	34.28	31.73	29.21	27.25	24.59	22.30	20.84	20.00	20.35	20.16	17.71	13.56	10.68	9.413	8.501	7.473	6.816	6.569	5.849	5.022	4.296	4.311	6.875	22.53	65.29	147.1	403.0	202.5	12.10	1.318	1.051	0.996	0.976	0.885	0.897	0.906	0.841	0.742	0.826	0.883
540.0	138.3	130.5	129.4	116.2	142.9	215.9	161.9	147.3	235.7	1438	1671	173.7	118.1	106.4	90.80	78.20	70.99	65.31	62.05	58.52	56.38	54.38	52.82	52.26	51.65	50.39	51.71	49.89	49.78	50.64	48.70	46.69	42.77	40.79	37.82	35.52	32.85	30.25	28.49	26.36	24.60	22.34	20.95	18.95	17.81	17.58	17.11	17.53	14.24	10.49	9.107	8.217	7.093	6.501	5.909	5.654	4.861	3.940	3.724	3.785	7.248	16.27	35.67	187.2	414.2	150.6	5.249	1.147	0.941	0.882	0.844	0.829	0.743	0.843	0.712	0.765	0.763
545.0	124.2	118.2	121.5	102.5	123.6	183.9	176.5	126.9	151.0	644.4	2233	386.9	105.7	94.48	80.29	70.03	64.82	59.82	54.68	52.49	51.02	48.17	47.74	45.40	45.16	44.45	44.83	44.48	44.56	45.60	43.34	41.45	38.23	35.50	33.59	31.68	29.01	27.48	26.08	24.13	22.28	20.22	18.94	17.35	16.22	15.27	14.91	15.65	13.82	10.49	8.743	7.834	6.727	5.955	5.598	5.488	5.013	3.993	3.408	3.082	3.863	5.460	9.579	46.64	228.0	372.9	31.80	2.443	0.921	0.936	0.941	0.767	0.796	0.774	0.660	0.709	0.719
550.0	102.5	103.4	97.44	91.23	99.71	129.1	181.5	120.1	113.2	239.4	1446	1323	129.4	80.10	67.86	59.95	54.64	50.35	46.87	45.14	41.81	40.21	39.85	38.11	38.41	37.33	37.66	37.28	37.34	37.52	36.53	35.18	32.48	30.22	28.77	26.94	25.04	23.25	22.20	20.50	18.83	17.54	16.17	15.00	14.17	13.17	12.29	12.29	12.77	10.98	8.552	7.184	6.131	5.359	5.268	4.823	4.679	4.119	3.360	2.878	2.899	2.975	3.670	11.76	56.60	177.9	229.4	120.3	10.64	1.073	0.851	0.798	0.676	0.797	0.704	0.725	0.623
555.0	95.38	74.09	81.30	72.64	82.51	89.56	146.2	134.9	94.44	119.8	467.4	1900	494.7	66.39	57.85	49.46	44.18	41.41	38.86	36.57	33.94	33.16	32.80	31.34	32.17	30.82	29.57	29.74	30.71	30.92	29.63	28.94	26.53	24.81	23.96	22.06	20.89	19.28	17.97	17.19	15.93	14.69	13.54	12.78	12.16	11.37	10.20	9.677	9.793	9.910	8.646	6.477	5.500	4.885	4.526	4.394	4.047	3.968	3.557	2.736	2.398	2.406	2.211	3.905	13.81	40.89	82.20	244.7	162.1	11.51	0.906	0.742	0.679	0.634	0.666	0.630	0.556
560.0	90.37	70.67	79.61	69.06	71.02	72.24	108.9	147.8	83.77	86.11	170.0	1300	1225	78.89	48.80	41.82	38.68	34.69	32.30	31.17	28.42	28.71	27.86	27.08	27.31	26.37	25.91	25.14	26.49	25.76	24.94	24.51	22.56	21.20	20.75	18.68	17.81	16.59	15.37	14.62	13.72	13.29	11.73	11.28	10.64	9.785	9.296	8.174	8.030	8.381	8.159	6.468	4.876	4.385	4.238	3.978	3.650	3.457	3.397	2.546	2.244	1.951	2.029	2.071	4.339	10.13	19.76	99.59	249.1	110.2	5.246	0.881	0.663	0.660	0.505	0.520	0.601
565.0	69.88	72.00	68.72	55.62	61.13	61.96	77.56	141.5	88.08	70.71	91.34	533.7	1781	149.4	43.87	35.99	32.54	30.63	27.77	26.55	25.49	25.16	23.43	23.50	22.85	22.30	21.82	21.83	22.56	21.45	21.86	20.51	19.00	18.54	17.77	15.45	15.02	14.41	12.94	12.56	11.89	11.35	10.26	9.700	9.092	8.394	8.118	7.333	6.676	6.843	7.374	6.377	4.845	3.942	3.843	3.649	3.077	3.070	2.866	2.763	2.112	1.948	1.855	1.696	2.000	3.299	5.259	24.40	115.6	223.1	32.85	2.284	0.614	0.652	0.489	0.492	0.544
570.0	68.98	66.86	55.36	53.44	49.35	51.24	55.71	102.3	109.6	61.54	63.70	172.5	1179	918.1	61.31	30.58	27.11	24.84	23.14	21.57	20.87	20.19	19.19	19.24	18.93	18.40	17.40	17.88	18.24	18.21	18.04	16.63	15.42	14.62	14.11	12.90	12.33	11.63	10.81	10.14	9.809	8.989	8.814	8.120	7.430	6.818	6.616	6.111	5.676	5.169	5.697	5.572	4.794	3.689	3.319	3.099	2.823	2.713	2.503	2.462	2.122	1.847	1.632	1.438	1.487	1.713	1.977	6.297	27.74	91.34	140.3	83.83	9.867	0.710	0.482	0.524	0.510
575.0	64.36	63.33	57.31	47.00	41.03	42.53	43.31	63.37	117.0	67.34	51.90	76.32	360.1	1407	316.1	25.68	22.93	20.24	18.90	17.64	17.33	16.09	15.21	15.31	14.93	14.75	14.15	13.82	13.99	14.23	14.46	13.20	12.04	11.73	11.30	10.69	9.974	9.281	8.936	8.063	7.850	7.229	7.279	6.483	6.095	5.760	5.436	5.157	4.589	4.102	3.934	3.957	4.379	3.808	3.002	2.750	2.325	2.298	2.008	2.085	1.911	2.052	1.668	1.235	1.261	1.379	1.225	2.162	6.845	20.99	41.54	125.2	109.3	11.78	0.572	0.581	0.496
580.0	65.45	63.92	49.47	44.45	37.11	33.54	34.02	45.02	98.61	81.79	48.21	50.21	114.7	941.4	860.5	32.68	19.32	18.15	16.55	14.79	14.35	13.93	13.31	12.68	12.35	11.97	12.03	11.95	11.95	12.28	11.67	11.69	10.26	9.922	9.451	8.757	8.481	8.175	7.768	6.983	7.022	6.256	6.181	5.676	5.235	4.909	4.617	4.470	4.017	3.672	3.470	3.250	3.771	3.704	3.049	2.401	2.118	1.939	1.806	1.729	1.647	1.768	1.803	1.287	1.049	1.141	1.087	1.387	2.219	5.274	10.02	44.13	135.4	81.80	5.700	0.594	0.524
585.0	66.89	56.63	48.56	40.35	32.33	33.97	32.59	36.53	72.79	98.40	47.59	41.92	54.62	368.0	1265	91.48	17.04	15.28	13.59	12.68	12.02	11.93	11.79	10.70	10.76	10.29	10.16	10.67	10.16	10.28	10.29	9.687	9.264	8.426	7.965	7.490	7.143	6.927	6.902	6.108	6.032	5.288	5.143	4.920	4.613	4.293	4.052	3.644	3.435	3.147	3.032	2.710	2.977	3.404	3.173	2.277	2.043	1.761	1.766	1.663	1.399	1.569	1.618	1.417	1.122	1.032	0.940	1.056	1.262	1.762	2.822	10.53	53.24	129.4	33.24	2.581	0.553
590.0	61.69	49.05	43.49	32.94	30.05	29.38	29.50	30.34	44.77	92.78	61.68	37.37	36.94	111.1	799.8	610.2	27.13	12.89	11.95	10.74	9.828	10.07	9.472	9.107	9.107	8.988	8.681	8.712	8.392	8.783	8.411	7.937	7.555	7.033	6.746	6.127	5.823	5.677	5.478	4.928	4.777	4.469	4.242	4.064	4.091	3.650	3.310	3.030	2.910	2.613	2.458	2.268	2.228	2.666	2.758	2.261	1.938	1.492	1.476	1.464	1.176	1.234	1.295	1.346	1.245	0.970	0.873	0.898	0.830	0.990	1.207	2.873	12.67	46.34	79.63	57.63	9.457
595.0	63.40	50.42	38.56	30.20	24.72	25.88	26.69	25.76	31.26	61.67	81.24	35.63	30.53	43.62	231.4	898.8	94.84	11.13	9.482	9.242	8.045	8.263	7.890	7.488	6.978	6.959	6.985	7.009	6.858	7.142	6.759	6.264	6.052	5.515	5.233	4.845	5.065	4.570	4.502	4.010	3.830	3.677	3.638	3.348	3.076	2.879	2.927	2.582	2.391	2.273	2.079	1.960	1.799	1.843	2.210	1.980	2.035	1.521	1.314	1.297	1.169	0.926	1.020	1.097	1.196	1.127	0.853	0.823	0.739	0.783	0.870	1.078	3.187	10.80	21.28	65.08	72.59
600.0	63.66	48.36	36.76	29.08	24.00	24.30	22.77	25.08	28.84	42.92	85.82	42.25	29.20	28.04	67.28	606.2	492.5	14.54	8.440	8.185	7.117	7.117	6.450	6.399	6.323	6.042	5.423	5.818	5.738	5.870	5.631	5.434	5.024	4.959	4.552	4.574	4.422	3.859	3.753	3.190	3.378	3.042	3.230	2.736	2.695	2.538	2.492	2.230	2.100	1.916	1.673	1.650	1.631	1.593	1.696	1.891	1.901	1.476	1.258	1.095	1.095	0.855	0.928	0.893	1.019	1.139	0.919	0.858	0.731	0.791	0.641	0.656	1.061	2.786	5.241	20.67	73.72
605.0	54.79	47.14	37.75	29.45	21.95	21.07	21.29	23.68	26.21	32.93	73.18	55.84	29.00	24.48	27.89	234.4	761.2	56.61	7.216	6.864	6.233	6.216	5.380	5.671	5.128	5.200	4.664	4.719	5.198	4.708	4.717	4.682	4.482	4.046	3.968	3.991	3.698	3.471	3.364	2.830	2.826	2.607	2.458	2.493	2.318	2.278	2.092	1.866	1.837	1.563	1.504	1.506	1.423	1.351	1.409	1.496	1.711	1.381	1.196	0.996	0.941	0.945	0.824	0.775	0.911	1.143	0.955	0.860	0.713	0.671	0.644	0.574	0.676	1.027	1.539	5.036	25.99
610.0	53.87	46.17	36.28	27.76	20.95	18.26	20.89	23.43	25.52	30.49	50.37	71.56	33.42	23.31	18.92	66.97	501.4	382.9	13.18	5.671	5.247	4.935	4.515	4.688	4.300	4.271	4.143	3.886	4.096	4.128	3.936	3.860	3.726	3.440	3.225	3.253	3.201	2.986	2.671	2.498	2.394	2.212	2.061	2.109	1.904	2.050	1.726	1.682	1.533	1.350	1.274	1.206	1.188	1.121	1.079	1.186	1.427	1.437	1.212	0.944	0.771	0.836	0.796	0.735	0.738	0.822	0.769	0.905	0.768	0.632	0.622	0.544	0.579	0.611	0.727	1.472	6.205
615.0	51.51	40.81	35.20	27.81	18.77	17.08	17.71	21.81	23.74	28.01	35.37	66.47	43.69	21.93	16.72	23.59	146.0	589.9	70.01	5.107	4.412	3.901	4.052	3.524	3.642	3.288	3.301	3.182	3.444	3.389	3.247	3.126	3.003	3.010	2.722	2.574	2.544	2.561	2.178	2.161	2.048	1.768	1.809	1.614	1.597	1.638	1.485	1.460	1.308	1.107	1.062	1.125	0.901	1.024	0.852	0.844	1.076	1.228	1.092	0.866	0.704	0.746	0.647	0.678	0.605	0.673	0.641	0.820	0.911	0.656	0.654	0.524	0.492	0.541	0.517	0.657	1.726
620.0	48.70	40.32	33.24	24.31	18.78	17.45	18.33	17.76	21.35	26.05	30.09	50.23	52.86	22.15	14.89	13.66	41.57	412.9	325.7	7.119	3.758	3.470	3.268	3.277	2.886	2.820	2.843	2.939	2.748	3.162	3.010	2.664	2.514	2.558	2.414	2.209	2.260	2.163	1.989	1.885	1.733	1.676	1.623	1.253	1.383	1.397	1.303	1.263	1.128	0.893	0.960	0.974	0.811	0.961	0.901	0.822	0.889	0.934	1.023	0.998	0.759	0.639	0.687	0.645	0.590	0.517	0.670	0.663	0.820	0.706	0.578	0.525	0.482	0.500	0.506	0.483	0.769
625.0	47.96	41.41	32.99	23.46	18.75	18.24	17.56	17.41	18.71	22.55	26.68	37.70	58.61	26.43	14.88	10.89	15.81	167.9	525.2	31.94	3.650	3.121	2.805	2.957	2.631	2.625	2.459	2.542	2.386	2.848	2.745	2.356	2.411	2.234	2.138	2.043	2.070	1.859	1.805	1.821	1.718	1.489	1.523	1.218	1.170	1.202	1.077	0.974	0.925	0.849	0.821	0.908	0.763	0.756	0.727	0.799	0.746	0.755	0.867	0.934	0.838	0.640	0.660	0.701	0.626	0.628	0.663	0.519	0.735	0.772	0.549	0.577	0.495	0.428	0.402	0.467	0.499
630.0	46.02	41.61	31.20	21.43	17.23	15.94	16.32	16.61	19.24	22.38	26.61	29.91	50.54	35.44	14.58	10.53	9.388	45.59	377.3	245.0	6.355	2.612	2.519	2.351	2.311	2.145	2.205	2.014	2.203	2.280	2.241	2.087	2.093	2.044	1.995	1.765	1.913	1.615	1.500	1.452	1.475	1.181	1.227	0.990	1.023	1.011	0.943	0.852	0.840	0.756	0.684	0.686	0.678	0.664	0.689	0.689	0.618	0.653	0.684	0.856	0.819	0.620	0.580	0.607	0.532	0.514	0.523	0.504	0.547	0.638	0.693	0.546	0.469	0.441	0.449	0.445	0.443
635.0	38.72	43.32	31.72	22.96	17.94	15.79	15.32	16.72	18.44	22.35	25.46	27.00	36.87	43.31	16.32	9.930	8.038	14.13	115.2	427.7	48.95	2.655	2.339	2.059	1.834	1.820	1.835	1.776	1.889	2.105	1.914	1.812	1.664	1.677	1.646	1.643	1.587	1.564	1.522	1.183	1.261	1.182	0.931	0.863	0.848	0.900	0.768	0.767	0.720	0.634	0.642	0.575	0.568	0.529	0.640	0.624	0.616	0.578	0.543	0.652	0.650	0.625	0.567	0.536	0.516	0.517	0.510	0.478	0.456	0.502	0.667	0.625	0.520	0.446	0.392	0.406	0.365
640.0	47.60	41.86	28.89	21.80	15.99	13.40	13.31	16.78	18.40	21.25	22.15	25.11	28.24	42.53	21.10	9.235	7.673	7.300	31.11	332.3	203.3	3.376	1.839	1.921	1.667	1.720	1.545	1.633	1.682	1.636	1.671	1.530	1.477	1.508	1.590	1.524	1.449	1.448	1.159	1.083	1.088	1.163	0.894	0.832	0.830	0.741	0.646	0.709	0.600	0.574	0.526	0.605	0.491	0.606	0.500	0.616	0.541	0.451	0.500	0.590	0.550	0.593	0.555	0.520	0.509	0.502	0.441	0.506	0.452	0.389	0.492	0.587	0.536	0.463	0.361	0.349	0.379
645.0	48.51	40.03	30.12	20.93	15.35	13.15	11.89	14.31	18.28	19.08	22.08	23.01	24.10	33.97	28.50	10.05	7.437	5.609	10.46	148.2	354.1	16.07	1.952	1.804	1.490	1.657	1.560	1.400	1.390	1.503	1.497	1.475	1.376	1.225	1.335	1.404	1.199	1.252	1.175	1.133	0.974	1.019	0.888	0.767	0.723	0.654	0.629	0.646	0.499	0.568	0.438	0.558	0.448	0.516	0.450	0.553	0.469	0.428	0.451	0.465	0.514	0.505	0.534	0.409	0.414	0.418	0.446	0.471	0.482	0.416	0.512	0.463	0.543	0.525	0.372	0.430	0.357
650.0	49.75	38.33	35.40	20.48	15.19	14.14	13.54	14.01	16.79	18.05	21.11	21.34	22.36	25.54	31.81	11.66	6.600	5.043	5.173	43.71	359.7	62.76	2.215	1.785	1.427	1.395	1.438	1.341	1.258	1.293	1.326	1.265	1.215	1.332	1.331	1.254	1.147	1.193	1.074	0.873	0.913	0.838	0.899	0.758	0.605	0.719	0.680	0.606	0.490	0.480	0.507	0.427	0.412	0.420	0.503	0.505	0.504	0.468	0.452	0.389	0.401	0.423	0.540	0.481	0.446	0.397	0.403	0.399	0.458	0.405	0.447	0.545	0.502	0.457	0.428	0.410	0.349
