Sample:	'1
File name:	s02018右达化工总排口.FD3
Run date:	'18:13:53, 07/27/2024
Operator:	horiz
Comment:	'

Instrument
Model:	F-2700 FL Spectrophotometer
Serial number:	23B8-004
ROM Version:	4J14000 07

Instrument parameters
Measurement type:	3-D scan
Data mode:	Fluorescence
EX  Start WL:	220.0 nm
EX  End WL:	600.0 nm
EX Sampling interval:	5.0 nm
EM  Start WL:	230.0 nm
EM  End WL:	650.0 nm
EM Sampling interval:	5.0 nm
Scan speed:	12000 nm/min
EX Slit:	5.0 nm
EM Slit:	5.0 nm
PMT Voltage:	700 V
Response:	Auto 
Corrected spectra:	Off
Contour interval:	50.000

Peak integration
Integration method:	Rectangular
Sensitivity:	1
Threshold:	1.000

Peaks
No.	ApexEX/EM(nm)	Height(Data)
1	225.0/310.0	624.4
2	225.0/600.0	70.36
3	225.0/620.0	64.57
4	230.0/250.0	210.4
5	230.0/340.0	722.2
6	230.0/500.0	282.7
7	235.0/255.0	303.1
8	235.0/510.0	260.9
9	240.0/265.0	346.6
10	240.0/395.0	861.0
11	240.0/525.0	234.0
12	245.0/270.0	348.0
13	245.0/390.0	863.2
14	245.0/535.0	195.7
15	250.0/275.0	446.3
16	250.0/545.0	159.0
17	255.0/280.0	545.4
18	255.0/560.0	134.9
19	260.0/570.0	113.4
20	265.0/585.0	125.1
21	270.0/300.0	1546
22	270.0/380.0	843.8
23	270.0/600.0	130.3
24	275.0/305.0	1781
25	275.0/610.0	122.0
26	280.0/620.0	96.22
27	285.0/635.0	59.24
28	300.0/335.0	557.3
29	305.0/345.0	499.4
30	310.0/350.0	441.1
31	315.0/355.0	430.1
32	320.0/360.0	435.2
33	325.0/370.0	430.5
34	330.0/375.0	432.7
35	335.0/380.0	434.8
36	445.0/525.0	20.62
37	485.0/265.0	2.446
38	495.0/270.0	2.345
39	505.0/275.0	3.295
40	510.0/280.0	3.702
41	520.0/285.0	4.064
42	530.0/290.0	4.701
43	540.0/295.0	7.247
44	545.0/300.0	8.435
45	550.0/305.0	9.607
46	560.0/310.0	8.522
47	570.0/315.0	7.479

Wavelength data
No.	EX/EM(nm)	Height(Data)	

Data points
	220.0	225.0	230.0	235.0	240.0	245.0	250.0	255.0	260.0	265.0	270.0	275.0	280.0	285.0	290.0	295.0	300.0	305.0	310.0	315.0	320.0	325.0	330.0	335.0	340.0	345.0	350.0	355.0	360.0	365.0	370.0	375.0	380.0	385.0	390.0	395.0	400.0	405.0	410.0	415.0	420.0	425.0	430.0	435.0	440.0	445.0	450.0	455.0	460.0	465.0	470.0	475.0	480.0	485.0	490.0	495.0	500.0	505.0	510.0	515.0	520.0	525.0	530.0	535.0	540.0	545.0	550.0	555.0	560.0	565.0	570.0	575.0	580.0	585.0	590.0	595.0	600.0
230.0	50.44	258.2	947.1	479.2	36.23	9.021	7.711	6.662	5.892	5.440	4.317	4.167	3.499	3.104	2.513	2.244	1.936	1.714	1.634	1.524	1.343	1.250	1.262	1.122	1.088	1.024	0.950	0.981	0.922	1.005	0.860	0.855	0.764	0.728	0.752	0.698	0.700	0.674	0.668	0.643	0.642	0.726	0.715	0.652	0.575	0.553	0.675	1.762	3.710	3.880	2.081	0.758	0.496	0.478	0.472	0.493	0.530	0.524	0.536	0.505	0.516	0.495	0.536	0.512	0.550	0.553	0.538	0.530	0.500	0.575	0.569	0.561	0.555	0.578	0.553	0.561	0.552
235.0	91.09	100.1	510.3	1122	462.9	52.54	7.680	6.577	5.942	5.372	4.863	4.779	3.956	3.189	2.312	2.312	1.917	1.809	1.650	1.471	1.292	1.276	1.234	1.136	1.045	1.091	0.947	0.963	0.994	0.894	0.954	0.769	0.794	0.729	0.795	0.645	0.628	0.681	0.713	0.626	0.661	0.621	0.730	0.768	0.721	0.621	0.581	0.869	1.508	2.605	4.320	5.672	3.495	1.268	0.545	0.523	0.560	0.549	0.523	0.541	0.480	0.502	0.528	0.520	0.557	0.573	0.528	0.597	0.499	0.630	0.596	0.558	0.593	0.536	0.585	0.538	0.564
240.0	116.6	114.3	167.0	817.6	1369	368.7	27.32	6.997	6.850	5.416	4.813	4.498	3.974	3.371	2.491	2.135	2.073	1.708	1.685	1.449	1.398	1.208	1.291	1.248	1.042	1.057	1.104	1.015	0.977	0.909	1.054	0.888	0.768	0.777	0.692	0.631	0.694	0.601	0.692	0.656	0.577	0.639	0.661	0.636	0.752	0.725	0.710	0.656	0.726	1.008	2.223	5.487	7.768	6.871	3.070	0.931	0.552	0.538	0.529	0.519	0.506	0.509	0.622	0.533	0.544	0.539	0.509	0.544	0.502	0.565	0.516	0.588	0.627	0.546	0.516	0.572	0.575
245.0	95.17	179.0	114.3	268.9	1220	1500	276.7	12.60	7.463	5.554	5.153	4.731	4.184	3.193	2.621	2.311	2.044	1.608	1.650	1.458	1.332	1.360	1.191	1.170	1.016	1.014	1.144	1.029	1.007	1.035	0.962	0.814	0.815	0.905	0.769	0.592	0.661	0.714	0.699	0.577	0.598	0.666	0.578	0.555	0.616	0.793	0.909	0.950	0.657	0.586	0.860	1.890	4.529	8.578	10.58	6.582	2.222	0.704	0.530	0.500	0.557	0.516	0.511	0.542	0.526	0.548	0.572	0.561	0.551	0.551	0.622	0.574	0.532	0.553	0.589	0.557	0.554
250.0	57.98	127.9	210.4	163.3	377.3	1194	1689	752.2	58.94	6.653	5.530	5.154	3.954	3.465	2.825	2.566	1.961	1.864	1.592	1.474	1.405	1.395	1.294	1.199	1.038	1.047	1.057	1.045	1.001	0.981	0.949	0.849	0.755	0.764	0.723	0.626	0.697	0.694	0.623	0.617	0.635	0.610	0.609	0.587	0.564	0.660	0.689	0.953	1.112	1.007	0.789	0.874	1.484	2.808	5.566	8.222	10.98	10.66	6.520	2.250	0.682	0.560	0.543	0.526	0.553	0.555	0.555	0.562	0.529	0.530	0.594	0.549	0.571	0.556	0.573	0.545	0.639
255.0	47.57	58.21	144.3	303.1	189.5	306.1	1074	2466	1046	54.55	7.077	5.821	4.411	4.092	3.226	2.259	2.184	1.867	1.756	1.647	1.402	1.332	1.347	1.098	1.160	1.147	1.141	1.046	1.172	1.009	0.886	0.831	0.814	0.856	0.677	0.703	0.655	0.666	0.641	0.640	0.696	0.642	0.599	0.633	0.547	0.607	0.517	0.664	0.735	0.947	1.534	1.397	1.224	1.091	1.710	2.312	3.845	8.628	15.98	17.59	9.354	2.426	0.640	0.549	0.576	0.585	0.570	0.537	0.504	0.598	0.586	0.590	0.602	0.686	0.582	0.564	0.598
260.0	45.04	38.76	62.65	251.3	295.1	130.5	318.6	1758	2895	235.4	27.70	7.170	5.347	4.456	3.316	2.757	2.094	2.106	1.701	1.669	1.455	1.476	1.355	1.218	1.054	1.059	1.121	1.093	1.063	1.031	0.951	0.791	0.858	0.815	0.689	0.655	0.675	0.613	0.645	0.648	0.694	0.758	0.645	0.569	0.577	0.631	0.482	0.643	0.605	0.626	1.003	1.765	2.094	1.302	0.969	0.964	1.346	2.581	6.648	14.85	21.77	17.57	7.181	1.415	0.587	0.664	0.594	0.624	0.574	0.556	0.560	0.547	0.583	0.610	0.545	0.582	0.604
265.0	43.59	32.22	32.44	113.2	346.6	233.6	108.5	556.5	2572	2859	188.5	12.10	6.166	4.420	3.691	2.629	2.443	1.989	1.677	1.687	1.496	1.523	1.287	1.270	1.151	1.244	1.018	1.170	1.034	1.104	0.881	0.875	0.829	0.774	0.775	0.690	0.714	0.683	0.714	0.702	0.673	0.692	0.585	0.572	0.614	0.645	0.504	0.542	0.558	0.500	0.566	0.985	1.896	2.446	1.718	1.007	0.854	1.074	2.046	4.478	10.99	21.20	26.17	15.57	4.023	0.781	0.639	0.603	0.620	0.573	0.557	0.545	0.575	0.618	0.537	0.569	0.634
270.0	55.06	36.91	28.80	43.92	156.5	348.0	256.6	175.7	775.8	2398	2718	691.5	40.92	5.544	4.058	3.027	2.774	2.339	1.984	1.705	1.595	1.470	1.372	1.315	1.206	1.151	1.047	1.078	1.103	1.002	0.924	0.873	0.799	0.808	0.806	0.650	0.688	0.651	0.701	0.675	0.624	0.669	0.631	0.635	0.595	0.594	0.553	0.490	0.515	0.461	0.467	0.643	0.917	1.380	1.996	2.345	2.091	1.302	1.052	1.523	3.049	6.302	12.27	19.44	23.60	19.83	11.24	3.315	0.757	0.612	0.586	0.589	0.611	0.647	0.580	0.590	0.635
275.0	73.71	52.21	37.46	35.05	56.63	152.0	446.3	285.8	221.9	611.5	1888	4556	908.7	32.39	5.186	3.914	3.054	2.539	2.068	1.820	1.789	1.647	1.512	1.520	1.145	1.150	1.151	1.089	1.104	1.059	0.939	0.863	0.909	0.843	0.868	0.702	0.683	0.764	0.729	0.631	0.619	0.731	0.653	0.590	0.673	0.639	0.579	0.579	0.615	0.488	0.501	0.552	0.704	0.759	0.959	1.351	2.631	3.295	2.439	1.382	1.249	2.032	3.362	5.112	7.291	15.35	30.27	28.89	15.77	3.188	0.690	0.680	0.664	0.639	0.578	0.657	0.702
280.0	88.88	81.16	63.57	45.08	39.35	66.79	277.1	545.4	215.6	205.8	580.4	3165	4453	135.1	14.67	4.532	3.791	2.680	2.181	1.991	1.694	1.672	1.383	1.461	1.209	1.107	1.227	0.996	1.194	1.144	1.040	0.924	0.800	0.881	0.867	0.787	0.742	0.878	0.721	0.786	0.646	0.711	0.676	0.719	0.646	0.698	0.693	0.736	0.596	0.536	0.564	0.535	0.620	0.606	0.732	0.775	1.332	2.577	3.702	3.435	1.615	1.206	1.418	1.904	2.327	4.576	11.15	24.15	36.83	26.33	10.55	1.737	0.626	0.621	0.606	0.647	0.728
285.0	121.8	131.9	111.1	76.95	55.09	52.72	123.4	486.8	533.3	204.5	279.9	1036	4123	3557	100.9	7.210	4.307	3.406	2.510	2.364	1.920	1.656	1.539	1.454	1.367	1.159	1.161	1.221	1.190	1.170	1.096	0.986	0.840	0.895	0.977	0.826	0.805	0.761	0.797	0.703	0.670	0.751	0.925	0.771	0.771	0.843	0.701	0.839	0.738	0.670	0.611	0.593	0.618	0.659	0.717	0.712	0.860	1.224	2.069	3.802	4.064	2.512	1.349	1.384	1.738	2.188	3.782	7.288	16.45	31.24	33.12	21.65	6.043	0.978	0.623	0.650	0.711
290.0	232.6	274.6	247.2	155.9	105.8	91.64	121.7	273.6	627.4	717.6	506.1	637.0	1438	3136	3329	391.6	21.27	4.134	3.055	2.673	2.206	1.903	1.745	1.486	1.574	1.338	1.275	1.234	1.120	1.121	1.047	1.008	0.907	0.915	0.903	0.915	0.982	0.842	0.803	0.776	0.763	0.764	0.863	0.887	0.926	1.074	1.068	1.175	1.161	0.937	0.795	0.867	0.793	0.829	0.843	0.779	0.938	1.114	1.366	2.092	3.124	4.111	4.701	4.097	2.826	2.653	3.059	3.872	5.808	9.862	15.33	23.02	25.97	26.26	15.00	5.541	1.147
295.0	326.1	452.5	409.3	251.3	165.8	154.5	190.7	280.4	481.9	972.1	1196	868.1	899.3	1023	1975	4024	532.7	16.53	4.086	3.102	2.331	1.978	1.803	1.608	1.569	1.425	1.462	1.316	1.218	1.304	1.053	1.012	0.921	0.886	1.027	1.017	1.043	0.932	0.897	0.815	0.836	0.791	1.007	0.995	1.120	1.404	1.308	1.570	1.657	1.269	1.072	1.169	1.089	1.052	1.097	0.977	1.237	1.432	1.561	1.979	2.344	2.904	4.001	6.148	7.247	5.558	4.332	4.391	4.855	5.051	5.900	7.038	7.624	13.79	29.43	33.22	22.86
300.0	386.8	541.7	497.7	320.9	216.1	195.9	240.0	328.4	503.1	864.6	1546	1318	939.1	618.2	623.4	2704	3587	78.61	8.529	3.716	2.882	2.198	2.054	1.749	1.650	1.482	1.401	1.193	1.269	1.139	1.018	1.071	0.873	0.973	1.099	1.089	1.228	1.026	0.938	0.822	0.946	0.919	1.009	1.185	1.216	1.445	1.647	1.823	1.858	1.506	1.352	1.384	1.317	1.199	1.276	1.302	1.430	1.606	1.685	2.022	2.447	2.822	3.611	5.023	7.142	8.435	7.289	5.798	5.169	4.860	4.253	3.646	3.118	4.334	9.038	19.84	37.27
305.0	430.0	619.7	557.6	361.2	254.4	228.2	288.5	380.1	562.0	852.5	1401	1781	1143	602.4	314.2	797.5	3246	2770	61.53	5.204	3.243	2.676	2.231	2.013	1.784	1.417	1.425	1.306	1.372	1.324	1.193	1.078	0.912	0.918	1.152	1.201	1.298	0.992	0.900	1.000	0.948	0.982	1.053	1.204	1.319	1.634	1.843	2.122	1.902	1.688	1.591	1.563	1.433	1.328	1.438	1.373	1.842	1.733	1.964	2.348	2.821	3.467	4.020	4.567	5.751	7.338	9.607	8.859	6.890	5.081	4.195	3.392	2.321	2.306	3.143	5.605	12.83
310.0	444.8	624.4	585.2	397.7	278.0	263.4	319.7	426.7	602.4	865.3	1203	1575	1479	752.7	294.3	291.2	940.0	2348	2512	267.8	14.89	3.396	2.660	2.162	1.908	1.644	1.591	1.399	1.288	1.323	1.242	1.020	1.003	1.007	1.181	1.148	1.121	1.060	0.955	0.956	0.938	1.007	1.098	1.248	1.383	1.610	1.795	2.161	2.101	1.753	1.596	1.573	1.589	1.474	1.497	1.624	1.685	2.000	2.197	2.470	2.928	3.516	4.068	4.728	5.385	6.218	7.098	8.044	8.522	7.821	5.883	3.855	2.546	2.072	2.035	2.462	3.930
315.0	443.6	605.5	574.7	408.9	297.7	290.2	341.6	436.6	594.1	827.0	1099	1277	1310	1085	408.4	218.0	317.9	612.9	1496	2964	390.0	11.95	3.223	2.573	2.244	1.902	1.674	1.442	1.406	1.325	1.243	1.208	0.957	1.124	1.167	1.097	1.036	1.014	0.904	0.972	0.961	0.970	1.071	1.233	1.457	1.634	1.886	2.230	2.217	1.807	1.605	1.576	1.695	1.483	1.560	1.669	1.897	2.122	2.308	2.704	2.990	3.318	3.943	4.360	5.378	5.515	5.768	6.469	6.265	6.920	7.479	6.023	3.806	2.510	2.066	2.001	2.196
320.0	420.4	592.7	602.6	429.6	296.4	296.6	347.7	441.1	582.2	782.1	1027	1152	1104	1019	664.5	259.2	209.8	236.5	424.3	1999	2614	59.74	6.200	2.968	2.196	2.215	1.688	1.630	1.469	1.472	1.279	1.355	1.036	1.066	1.088	1.025	1.035	1.040	0.967	0.969	1.019	0.991	1.103	1.186	1.437	1.581	1.923	2.338	2.195	1.919	1.518	1.628	1.620	1.508	1.731	1.805	2.010	2.050	2.173	2.568	2.949	3.279	3.953	4.157	4.874	5.298	5.493	5.759	5.716	5.508	5.753	6.009	5.849	4.199	2.614	2.060	1.912
325.0	410.8	624.2	632.5	450.3	316.9	311.6	349.5	435.1	570.8	742.4	950.2	1064	985.9	801.0	785.5	419.1	214.7	169.9	166.6	585.6	2348	2054	48.89	4.263	2.838	2.267	1.902	1.770	1.534	1.394	1.372	1.247	1.130	1.123	1.125	1.009	1.061	0.946	1.060	1.025	0.927	0.913	1.102	1.228	1.368	1.680	1.946	2.460	2.329	2.091	1.591	1.806	1.484	1.662	1.632	1.683	2.029	2.026	2.277	2.549	2.795	3.248	3.595	4.072	4.553	4.974	5.298	5.347	5.328	5.001	4.721	4.350	4.987	5.341	4.512	2.999	2.173
330.0	419.3	605.2	670.6	508.6	370.4	333.8	360.6	429.1	541.2	693.0	867.5	961.8	898.6	686.1	595.4	588.8	374.8	195.4	134.8	192.7	675.2	1736	1927	218.2	13.26	3.010	2.195	1.921	1.565	1.568	1.355	1.343	1.239	1.093	1.102	1.083	1.060	1.002	0.968	0.995	0.923	0.981	1.075	1.170	1.312	1.633	1.876	2.257	2.400	2.169	1.844	1.965	1.781	1.762	1.776	1.835	2.071	2.136	2.329	2.461	2.802	3.280	3.417	3.850	4.294	4.510	4.958	4.837	4.980	4.732	4.308	3.885	3.782	3.884	4.236	4.229	3.954
335.0	390.3	624.3	694.5	562.6	426.8	373.9	383.1	437.4	535.5	658.0	800.8	876.7	828.2	656.5	511.5	470.0	557.3	326.5	161.4	133.1	208.4	442.1	1195	2369	334.0	11.68	3.071	2.122	1.859	1.714	1.594	1.468	1.234	1.170	1.079	1.043	1.062	0.985	0.887	0.912	0.990	0.933	0.987	1.199	1.319	1.728	1.801	2.418	2.325	2.184	2.032	2.092	2.180	1.991	1.891	1.913	2.150	2.256	2.343	2.554	2.874	3.080	3.531	3.674	3.845	4.194	4.549	4.499	4.606	4.510	4.242	3.976	3.517	3.539	3.199	3.389	3.996
340.0	403.2	612.3	722.2	608.9	472.8	417.1	419.4	469.5	540.1	644.3	761.7	829.1	790.3	646.6	499.9	419.7	484.7	488.3	230.0	141.2	127.9	154.7	340.2	1638	2146	254.4	6.071	2.672	1.979	1.682	1.582	1.482	1.226	1.181	1.010	1.086	1.029	0.997	0.851	0.899	0.881	1.141	1.046	1.048	1.402	1.776	1.851	2.359	2.501	2.293	2.040	2.347	2.168	2.068	1.971	2.018	2.280	2.450	2.415	2.543	2.864	2.992	3.358	3.654	3.991	3.983	4.385	4.212	4.439	4.335	4.089	3.916	3.563	3.360	3.124	3.312	3.237
345.0	388.4	575.7	710.0	652.5	523.3	465.6	456.0	492.4	559.6	648.1	754.3	798.1	762.0	644.3	517.8	425.0	403.0	499.4	370.5	180.9	133.5	115.9	133.6	489.4	1923	1756	43.97	3.840	2.397	1.837	1.524	1.429	1.210	1.203	1.085	0.987	0.998	1.073	0.941	0.890	0.868	1.097	1.161	1.123	1.342	1.737	1.784	2.276	2.326	2.474	2.190	2.439	2.292	2.340	2.107	2.229	2.557	2.622	2.766	2.819	2.979	3.093	3.370	3.457	3.860	3.992	4.058	3.841	4.157	4.185	3.789	3.892	3.477	3.380	3.308	3.190	3.117
350.0	362.4	565.8	703.3	685.8	595.2	540.6	524.6	564.9	619.5	687.8	753.0	785.2	748.0	649.8	540.6	458.9	406.2	409.0	441.1	332.3	191.4	143.8	121.0	174.1	568.2	1402	1529	196.7	13.16	2.349	1.805	1.563	1.278	1.242	1.078	1.014	1.042	0.967	1.006	0.896	0.901	0.909	1.066	1.100	1.297	1.655	1.823	2.169	2.413	2.375	2.231	2.722	2.690	2.688	2.528	2.449	2.722	2.779	3.010	3.124	3.194	3.279	3.566	3.724	3.933	3.990	4.000	3.986	3.972	4.128	4.003	3.877	3.692	3.722	3.488	3.291	3.313
355.0	357.9	534.5	697.3	703.5	662.8	625.1	601.0	630.7	670.1	717.6	765.6	775.8	740.5	658.8	566.5	494.8	440.4	404.7	386.0	430.1	332.5	197.8	153.6	134.9	194.4	364.6	881.1	1841	317.7	14.44	2.721	1.844	1.502	1.385	1.239	0.975	1.012	0.889	0.982	0.917	0.918	0.929	0.962	1.210	1.276	1.547	1.623	2.104	2.361	2.415	2.327	2.955	2.956	2.783	2.849	2.896	3.110	2.859	3.152	3.363	3.523	3.719	3.837	3.970	3.904	4.053	3.920	3.921	4.076	4.128	3.881	4.279	3.758	3.670	3.452	3.503	3.835
360.0	361.8	542.9	702.6	726.5	700.9	660.5	666.2	674.6	712.7	741.5	786.8	778.0	750.8	668.2	584.9	520.3	468.2	423.7	381.6	394.9	435.2	285.3	189.2	151.3	130.2	142.7	256.4	1196	1793	262.5	6.887	2.426	1.763	1.414	1.318	1.101	1.106	0.862	0.922	0.903	0.899	0.948	0.962	1.115	1.321	1.657	1.716	2.214	2.403	2.465	2.420	3.040	3.000	3.240	2.954	2.953	3.112	3.312	3.363	3.687	3.614	3.990	3.929	4.048	3.925	4.015	4.328	3.941	4.146	4.233	3.910	4.027	4.039	3.737	3.550	3.624	3.681
365.0	349.7	529.3	715.8	754.6	728.1	715.1	704.6	723.6	750.8	782.9	799.7	791.2	754.1	683.5	607.6	544.9	501.8	452.7	407.1	380.8	432.0	398.3	245.4	180.9	140.1	113.3	112.4	351.5	1467	1603	44.13	4.212	2.250	1.594	1.293	1.103	1.214	0.990	0.958	0.963	1.045	1.052	0.914	1.073	1.288	1.487	1.833	1.982	2.277	2.276	2.400	3.213	3.239	3.340	3.271	3.069	3.515	3.590	3.535	3.564	3.931	4.102	4.062	4.190	4.085	4.100	4.087	3.899	4.261	4.191	3.985	3.909	3.942	3.767	3.741	3.774	4.049
370.0	344.8	539.9	708.2	787.7	790.8	777.3	753.0	771.6	793.9	821.2	828.5	818.3	766.2	695.5	627.4	573.3	529.3	489.9	448.9	414.5	404.4	430.5	378.0	250.8	184.3	141.2	109.0	134.3	425.9	1158	1371	185.6	13.55	2.144	1.603	1.295	1.217	1.151	0.999	1.000	0.949	1.042	1.086	1.097	1.328	1.541	1.749	2.012	2.451	2.311	2.425	3.141	3.315	3.499	3.371	3.377	3.499	3.696	3.856	3.809	4.095	4.143	4.351	4.417	4.237	4.327	4.234	4.011	4.262	4.157	4.206	4.040	4.142	3.910	3.992	3.982	3.929
375.0	354.4	548.2	719.2	815.5	846.0	809.9	794.6	809.2	818.9	836.2	843.5	840.8	783.1	703.2	640.8	591.2	553.8	514.1	482.9	451.9	420.2	407.1	432.7	376.7	244.9	188.1	141.9	113.4	153.4	301.3	730.7	1557	292.4	14.37	2.149	1.512	1.316	1.205	1.163	1.037	1.060	1.103	1.139	1.071	1.321	1.532	1.659	2.126	2.462	2.372	2.518	3.264	3.640	3.462	3.535	3.476	3.790	3.962	3.812	3.924	4.176	4.008	4.393	4.429	4.629	4.182	4.414	4.391	4.520	4.169	4.382	4.099	4.114	4.238	4.043	4.136	4.213
380.0	358.5	539.8	707.0	814.4	850.8	838.8	805.8	810.6	812.3	838.3	843.8	825.0	780.4	705.6	645.8	595.7	560.7	530.4	505.7	470.3	436.6	410.9	408.2	434.8	321.8	221.5	170.6	126.1	106.9	115.9	211.0	951.7	1453	233.3	6.870	1.995	1.389	1.447	1.260	1.029	1.092	1.155	1.025	1.237	1.227	1.640	1.641	2.235	2.450	2.414	2.555	3.325	3.603	3.541	3.747	3.579	3.987	3.912	4.125	3.960	4.266	3.977	4.419	4.480	4.451	4.072	4.333	4.357	4.423	4.297	4.017	4.010	4.239	4.100	4.278	4.144	4.227
385.0	357.6	557.7	713.8	819.9	850.5	847.2	823.7	819.3	820.3	828.2	831.0	823.1	778.3	707.7	641.9	593.2	566.9	540.4	511.6	487.6	456.6	425.6	400.5	411.2	399.3	267.1	194.7	148.7	113.0	89.30	89.02	272.2	1086	1250	37.72	3.510	2.024	1.629	1.201	1.094	1.095	1.045	1.204	1.246	1.376	1.548	1.668	2.078	2.405	2.460	2.662	3.352	3.616	3.550	3.836	3.588	3.965	3.812	3.924	4.008	4.350	4.054	4.309	4.293	4.425	4.241	4.173	4.054	4.460	4.421	4.409	4.119	4.272	4.216	4.323	4.021	4.208
390.0	359.0	543.7	708.9	828.5	850.7	863.2	829.0	815.5	824.6	828.2	825.9	806.7	765.0	700.4	637.8	600.5	567.0	544.3	524.8	500.3	471.6	446.0	412.6	389.9	396.7	353.7	247.6	181.6	139.4	105.4	79.37	99.03	306.4	819.5	983.5	353.6	12.84	2.311	1.519	1.231	1.111	1.102	1.191	1.289	1.301	1.563	1.625	2.087	2.449	2.485	2.513	3.273	3.623	3.543	3.745	3.630	3.982	4.032	4.034	3.987	4.199	4.133	4.126	4.274	4.327	4.164	4.261	4.179	4.122	4.046	4.202	4.153	4.252	4.010	4.122	3.961	4.251
395.0	390.3	530.9	715.5	826.4	861.0	860.1	840.9	824.2	814.5	820.7	802.3	789.5	745.7	684.5	630.7	589.0	563.3	541.7	528.3	506.4	483.5	459.9	432.3	398.7	374.0	371.0	333.2	225.1	169.4	132.4	98.88	79.45	105.3	211.7	493.5	1129	251.3	15.53	2.519	1.554	1.337	1.076	1.252	1.187	1.264	1.660	1.609	2.036	2.503	2.468	2.424	3.151	3.598	3.798	3.710	3.593	3.910	4.044	4.151	4.119	4.117	4.114	4.154	4.440	4.266	4.073	4.254	4.384	4.073	4.271	4.029	4.261	4.091	4.003	3.896	4.047	4.155
400.0	366.2	550.7	712.3	803.9	844.7	850.5	849.3	826.4	814.4	804.1	794.5	776.4	732.8	667.7	618.0	576.6	555.3	536.5	527.9	504.8	481.2	461.5	439.1	406.3	373.1	351.5	360.8	282.1	199.0	155.7	118.9	90.10	75.63	83.88	147.1	640.6	1043	206.7	8.159	2.125	1.545	1.243	1.286	1.253	1.506	1.673	1.693	2.192	2.333	2.468	2.542	3.203	3.416	3.560	3.845	3.541	4.075	3.921	4.120	3.880	4.031	4.092	4.102	4.190	4.158	4.081	4.029	4.180	3.702	4.023	4.175	4.111	4.134	3.939	3.942	4.083	4.216
405.0	371.1	545.9	702.5	782.3	837.9	837.9	838.5	824.6	806.6	804.2	778.9	755.6	712.0	656.3	611.1	567.1	540.7	524.9	517.7	497.9	479.5	461.4	440.0	408.3	379.4	344.4	340.5	330.7	238.9	177.2	140.9	109.0	84.10	70.07	71.60	193.0	746.6	917.2	34.37	4.112	1.760	1.389	1.210	1.332	1.435	1.653	1.796	2.228	2.264	2.260	2.593	3.149	3.200	3.387	3.609	3.554	4.026	3.938	4.071	3.894	4.212	4.197	4.226	4.136	4.069	4.042	4.048	4.166	3.774	3.879	4.039	3.751	3.928	3.884	3.970	3.911	4.024
410.0	363.3	535.4	679.0	768.6	821.8	828.7	833.7	815.6	797.0	778.9	757.4	723.1	684.6	635.1	586.4	544.4	524.8	509.3	499.0	486.7	468.4	454.3	436.5	406.7	380.9	345.9	321.8	319.4	294.7	220.0	164.3	127.5	99.14	77.41	63.60	79.90	215.4	571.4	713.2	141.4	11.64	1.823	1.485	1.391	1.466	1.605	1.772	2.263	2.350	2.316	2.482	3.124	3.286	3.486	3.513	3.403	3.878	3.968	4.125	4.012	4.101	4.259	4.107	4.095	4.054	3.887	3.931	3.976	3.765	3.758	3.974	3.803	3.705	3.702	3.714	3.862	3.924
415.0	348.9	502.3	658.9	738.2	801.2	801.8	817.7	794.5	784.7	751.5	734.4	697.9	658.1	602.6	551.0	521.6	498.3	488.8	479.5	465.1	451.9	436.6	424.7	400.9	376.1	347.1	317.7	294.6	293.6	271.6	189.2	140.6	109.8	85.19	65.76	57.54	76.69	148.1	325.4	753.8	226.3	13.61	1.829	1.467	1.506	1.570	1.630	2.118	2.207	2.449	2.364	3.093	3.347	3.494	3.470	3.449	3.755	4.074	3.830	3.928	4.117	4.238	3.998	3.792	3.962	3.842	3.838	3.538	3.661	3.649	3.740	3.699	3.507	3.556	3.781	3.724	3.941
420.0	337.7	489.5	641.8	722.9	762.6	795.4	787.7	778.5	761.8	730.7	705.0	676.5	628.1	579.2	528.7	498.2	478.3	464.1	460.9	448.5	436.1	422.9	411.1	392.4	368.0	342.5	313.1	284.5	270.6	278.0	222.3	151.8	116.0	91.56	69.63	55.92	48.35	53.71	90.99	414.6	748.8	183.2	6.757	1.820	1.559	1.611	1.637	2.036	2.155	2.252	2.459	2.922	3.262	3.251	3.486	3.329	3.740	3.887	3.779	3.808	4.054	3.684	4.038	3.731	3.720	3.586	3.618	3.345	3.611	3.583	3.569	3.641	3.409	3.399	3.522	3.574	3.563
425.0	335.7	485.5	618.0	698.3	733.2	769.0	776.1	759.4	736.5	714.7	681.7	650.7	597.4	556.8	510.8	474.4	457.0	445.9	438.8	429.4	418.9	405.1	396.4	380.9	359.2	335.7	308.4	284.1	262.1	257.4	244.8	174.9	123.9	97.22	74.84	58.85	45.20	36.16	35.70	113.6	489.7	674.1	32.58	3.222	1.755	1.715	1.815	1.897	2.156	2.192	2.309	2.654	3.136	3.042	3.280	3.219	3.814	3.915	3.672	3.697	3.896	3.632	3.597	3.682	3.639	3.603	3.536	3.326	3.570	3.356	3.222	3.398	3.452	3.357	3.325	3.586	3.544
430.0	345.3	460.7	599.5	672.7	708.4	733.5	756.8	737.7	722.9	690.1	659.5	625.5	573.7	529.5	484.0	446.7	431.9	419.8	414.8	406.1	397.5	386.0	376.8	362.0	346.2	325.1	302.2	280.2	260.1	239.1	230.2	206.1	145.0	106.4	82.44	65.45	50.05	36.55	27.04	38.83	132.4	393.9	526.8	131.5	11.18	2.104	1.958	1.930	2.118	2.117	2.309	2.646	2.944	2.970	3.216	3.264	3.575	3.585	3.618	3.688	3.678	3.715	3.592	3.605	3.779	3.501	3.357	3.179	3.457	3.361	3.131	3.380	3.324	3.160	3.318	3.329	3.465
435.0	399.9	440.2	553.6	636.9	678.4	701.8	736.2	716.5	704.8	673.9	640.7	599.5	550.6	504.0	459.6	423.3	406.3	398.7	392.7	382.9	376.6	368.8	359.6	346.8	334.4	315.4	294.3	275.7	258.7	231.9	212.6	201.1	177.8	122.3	90.12	70.65	56.14	41.69	30.32	26.15	42.14	97.99	237.0	601.7	210.7	13.55	2.142	1.980	2.144	2.237	2.216	2.772	2.866	3.053	3.122	3.230	3.485	3.505	3.735	3.507	3.574	3.565	3.653	3.583	3.528	3.432	3.385	3.158	3.255	3.329	3.117	3.101	3.120	3.080	3.166	3.037	3.215
440.0	467.9	466.6	535.0	624.3	661.7	686.3	715.1	698.9	689.8	653.4	615.4	584.4	533.9	483.8	443.2	404.4	387.6	381.4	370.2	365.8	357.6	351.2	344.1	334.3	319.6	304.2	288.2	270.7	253.7	230.2	204.6	185.3	181.5	142.2	96.27	75.31	59.65	45.27	33.74	25.49	24.05	33.04	64.41	328.3	633.0	172.3	6.983	2.317	2.141	2.052	2.166	2.530	2.673	3.020	3.129	3.056	3.388	3.440	3.416	3.404	3.416	3.471	3.456	3.481	3.315	3.428	3.304	3.243	3.149	3.063	3.106	2.957	3.168	2.939	2.989	2.936	2.975
445.0	476.0	517.9	522.8	584.2	641.4	664.4	680.1	675.3	661.9	631.0	599.6	563.7	508.7	468.0	424.3	387.7	368.5	355.2	353.7	346.8	339.3	331.4	325.9	319.2	306.1	292.9	279.6	262.0	246.9	226.8	202.7	176.4	166.2	154.6	109.8	80.42	62.71	49.04	36.92	28.11	22.36	20.38	24.34	89.30	410.0	591.6	27.75	3.990	2.476	2.145	2.140	2.459	2.556	2.737	2.878	2.899	3.290	3.486	3.460	3.380	3.461	3.456	3.490	3.403	3.242	3.007	2.928	3.123	3.073	2.994	3.089	2.956	2.984	3.018	2.845	2.743	2.883
450.0	376.5	657.4	549.6	554.6	588.8	621.1	639.2	647.0	628.0	600.1	570.3	531.0	481.2	432.0	396.4	358.1	342.2	328.9	328.8	318.0	310.4	307.1	299.4	297.0	284.9	274.2	261.4	250.3	234.4	218.8	198.7	170.9	149.8	143.7	126.6	91.74	67.15	52.05	41.27	33.04	25.34	20.36	17.68	29.07	109.3	335.0	463.2	118.0	10.48	2.349	2.126	2.407	2.486	2.601	2.856	2.818	3.245	3.212	3.418	3.304	3.277	3.281	3.305	3.251	3.057	2.979	2.819	3.055	2.830	2.852	2.897	2.832	2.681	2.765	2.663	2.714	2.859
455.0	261.7	650.4	764.5	518.4	539.9	577.2	589.1	593.2	585.3	559.2	536.3	499.5	451.5	406.6	362.5	327.5	313.3	301.7	297.7	288.2	284.5	280.1	275.7	269.3	260.3	253.4	241.9	231.8	221.6	206.7	189.5	162.2	141.7	124.7	119.8	107.3	75.20	55.74	45.23	36.02	28.77	23.57	18.66	17.50	32.88	81.99	184.9	476.6	177.8	11.78	2.487	2.693	2.616	2.553	2.576	2.636	2.944	3.049	3.254	3.027	3.323	3.202	3.051	3.302	2.925	2.906	2.851	2.854	2.668	2.657	2.579	2.622	2.379	2.490	2.614	2.449	2.657
460.0	234.2	502.5	949.4	570.8	505.3	542.2	560.1	555.0	549.3	527.2	499.7	467.8	418.2	376.6	335.1	306.6	292.3	275.7	270.2	266.7	260.5	256.9	253.7	248.4	241.9	237.5	227.9	217.7	209.7	196.5	180.5	158.1	137.4	117.8	106.3	107.2	86.33	60.32	47.60	38.53	31.17	25.72	20.20	16.49	17.22	26.13	49.10	236.3	486.8	138.7	7.426	2.631	2.461	2.367	2.556	2.589	2.724	2.735	2.918	2.949	2.971	3.014	3.000	3.116	2.906	2.668	2.640	2.723	2.668	2.441	2.463	2.510	2.403	2.320	2.320	2.450	2.475
465.0	221.9	365.4	948.8	738.8	476.8	497.8	521.8	523.5	509.2	491.0	473.9	443.1	396.0	355.6	314.7	287.3	266.2	257.1	250.8	248.1	239.4	235.1	233.5	230.1	226.1	217.9	211.7	204.0	196.2	187.3	170.5	151.5	132.4	112.7	98.40	95.77	91.75	67.94	49.73	40.49	33.09	27.52	21.59	17.56	14.44	14.30	17.84	62.92	301.2	435.4	103.9	4.504	2.627	2.517	2.359	2.124	2.734	2.667	2.644	2.922	2.778	3.021	2.846	2.845	2.774	2.530	2.519	2.657	2.673	2.322	2.256	2.432	2.460	2.360	2.168	2.196	2.382
470.0	227.9	289.3	633.7	1043	542.8	451.8	467.4	473.0	470.0	454.6	432.7	400.3	357.8	321.6	284.6	257.4	239.8	230.7	223.5	218.4	214.7	210.3	209.4	205.3	201.3	195.9	190.7	182.1	181.0	170.9	158.2	140.9	122.3	106.9	91.79	83.14	82.39	74.40	55.67	41.44	33.70	28.54	23.10	18.64	15.14	12.61	11.55	20.34	79.03	232.4	330.1	107.3	10.19	2.566	2.373	2.100	2.535	2.506	2.558	2.638	2.599	2.641	2.612	2.609	2.505	2.438	2.598	2.306	2.351	2.140	2.196	2.209	2.208	2.136	2.027	2.127	2.124
475.0	219.3	257.7	385.8	939.5	879.3	418.3	422.9	430.8	422.0	410.8	390.6	366.0	328.0	291.7	254.8	229.2	213.6	202.6	197.5	191.1	190.0	184.3	183.4	180.1	178.5	172.3	169.6	164.4	161.9	154.0	144.1	130.7	112.4	98.62	86.24	75.25	69.49	68.75	63.47	45.29	34.50	29.00	23.68	20.01	16.20	13.73	11.15	11.68	23.02	56.68	118.4	306.7	164.8	11.86	2.429	1.939	2.402	2.407	2.418	2.580	2.389	2.435	2.303	2.347	2.390	2.325	2.252	2.096	2.138	2.033	2.054	2.006	1.918	1.999	1.930	2.162	1.951
480.0	201.8	241.6	303.8	655.8	1133	486.4	399.2	390.7	393.3	385.3	365.4	338.8	304.0	270.0	237.3	213.0	197.9	187.3	179.7	174.1	174.6	168.8	167.0	163.8	161.7	158.0	156.6	150.8	148.6	144.9	134.1	121.8	107.4	95.20	82.24	71.93	63.63	60.57	62.57	51.47	37.00	29.22	24.55	20.70	17.35	14.69	11.51	10.20	11.31	17.66	31.47	140.4	341.3	134.2	6.088	2.246	2.426	2.220	2.180	2.408	2.193	2.321	2.159	2.292	2.245	2.203	2.019	1.885	1.997	1.923	1.915	1.799	1.759	1.634	1.779	1.905	1.734
485.0	196.4	255.4	283.3	415.7	1121	707.5	381.3	371.9	368.9	363.2	342.1	317.6	280.2	252.5	223.6	196.2	182.1	173.6	168.2	163.4	161.9	156.6	153.1	150.6	149.1	146.5	145.2	140.9	137.6	133.2	126.6	114.7	102.1	90.31	78.87	68.93	61.54	55.67	56.31	55.31	40.30	30.71	25.37	21.05	18.00	15.22	12.39	10.18	9.168	9.382	11.34	37.83	201.1	331.5	26.61	3.460	2.450	2.336	2.196	2.131	2.106	2.247	2.176	2.059	2.237	1.934	1.913	1.953	1.984	1.903	1.796	1.781	1.741	1.922	1.844	1.882	1.706
490.0	165.3	256.2	270.0	305.5	714.1	1068	448.6	342.2	342.3	329.6	319.4	294.3	261.8	230.7	204.6	180.1	165.7	157.8	153.1	148.3	145.0	141.2	138.9	136.2	136.0	133.6	130.6	128.3	127.5	123.2	116.2	105.4	94.87	84.78	75.36	65.62	58.56	52.21	48.32	48.84	45.74	34.52	26.53	21.79	18.97	15.49	13.63	11.36	9.126	7.941	7.542	12.98	52.48	163.7	220.4	110.2	10.84	2.370	2.185	2.047	2.013	2.061	2.096	2.030	2.076	1.934	1.852	1.932	1.766	1.723	1.670	1.749	1.721	1.724	1.620	1.685	1.710
495.0	151.8	226.5	275.8	267.9	379.9	970.2	789.6	320.2	304.3	300.8	287.7	265.6	240.0	207.7	184.6	161.7	149.8	141.7	134.4	132.6	127.2	126.0	123.6	120.2	121.3	118.8	115.7	114.6	115.5	111.2	105.4	95.31	86.16	76.33	69.44	61.94	55.57	49.20	44.89	41.60	42.54	40.02	29.17	22.59	18.75	16.01	13.98	12.13	9.942	8.298	7.090	7.414	15.79	40.13	89.28	285.7	177.1	12.70	2.401	2.242	1.996	1.836	1.953	1.858	1.843	1.798	1.635	1.739	1.662	1.573	1.476	1.716	1.578	1.673	1.642	1.495	1.688
500.0	134.0	189.3	282.7	248.7	280.4	628.0	1090	359.9	278.3	275.1	263.1	246.9	223.9	193.8	167.4	150.2	137.7	129.5	122.9	120.3	115.4	113.4	112.6	109.7	109.0	107.4	105.4	105.4	104.4	101.5	98.55	90.01	80.16	72.33	64.99	58.67	52.77	46.88	41.93	38.32	37.34	39.25	32.58	23.33	18.72	16.39	13.79	12.62	10.53	8.895	7.313	6.652	7.581	12.92	24.01	124.1	316.4	139.9	6.757	2.111	1.972	1.876	1.873	1.798	1.677	1.693	1.656	1.594	1.654	1.559	1.457	1.640	1.603	1.458	1.328	1.408	1.462
505.0	124.4	161.0	268.9	242.7	249.5	373.2	1113	596.4	256.1	254.0	241.6	225.4	203.3	178.5	155.0	137.1	124.0	118.1	113.1	110.0	106.1	102.7	102.3	99.61	99.66	95.93	96.34	95.43	94.03	92.49	90.23	83.59	74.42	66.96	60.44	54.48	48.90	43.22	39.33	35.63	32.97	34.32	34.25	25.49	19.16	16.08	13.74	12.34	10.59	9.050	7.818	6.657	6.252	6.963	9.019	32.50	165.0	303.9	29.37	3.391	1.900	1.760	1.770	1.804	1.633	1.619	1.477	1.532	1.612	1.531	1.437	1.460	1.509	1.466	1.438	1.334	1.338
510.0	109.2	141.2	213.4	260.9	220.2	249.3	665.8	1004	331.9	227.7	214.6	203.2	180.6	158.2	139.9	122.3	111.0	103.3	99.65	96.10	91.07	90.18	89.07	87.80	86.63	84.11	83.41	84.10	82.96	81.97	79.04	72.90	66.35	59.50	54.31	48.71	44.40	40.29	36.22	32.85	29.73	28.28	29.73	28.03	21.63	16.55	13.83	12.03	10.33	9.253	8.200	7.120	6.036	5.622	5.842	10.57	42.23	137.7	196.0	108.3	10.18	1.804	1.627	1.673	1.538	1.539	1.424	1.464	1.451	1.396	1.340	1.329	1.388	1.371	1.331	1.265	1.328
515.0	105.7	120.2	158.6	250.6	218.0	199.1	309.2	980.8	691.5	207.5	194.2	179.1	160.8	135.9	124.1	107.7	96.73	90.57	85.55	82.96	79.99	77.38	76.42	76.15	75.12	73.53	73.31	72.17	72.12	71.34	68.80	64.07	58.52	52.14	48.33	43.54	39.67	36.37	32.79	29.85	26.63	24.78	24.46	25.34	24.03	17.71	13.44	11.47	10.64	8.844	8.233	7.600	6.337	5.556	5.042	5.810	12.43	33.80	67.21	207.2	148.1	11.48	1.649	1.511	1.408	1.401	1.327	1.386	1.405	1.278	1.215	1.207	1.335	1.267	1.165	1.224	1.181
520.0	96.92	112.0	134.3	210.6	232.6	173.4	202.6	600.8	1068	254.2	172.0	160.6	145.8	125.2	110.1	96.43	85.55	80.76	77.94	73.78	71.95	69.72	68.12	66.82	66.48	65.55	64.63	63.21	63.40	63.56	61.33	57.45	53.85	46.71	43.84	39.37	35.99	33.25	30.57	27.75	24.43	22.67	21.28	21.18	23.58	19.58	13.47	11.01	10.13	8.691	7.752	7.563	6.629	5.516	4.979	4.822	5.929	10.27	17.89	83.20	225.0	107.7	6.143	1.683	1.474	1.277	1.318	1.321	1.286	1.222	1.120	1.161	1.339	1.232	1.203	1.097	1.195
525.0	82.72	104.6	129.5	166.1	234.0	173.1	159.5	310.0	1138	490.1	160.3	147.8	129.7	113.5	99.10	87.38	79.25	72.57	69.57	67.61	64.79	61.98	60.50	60.51	60.32	58.32	58.13	57.51	58.59	57.47	54.74	51.40	47.75	43.47	39.87	36.00	32.99	30.78	28.14	25.87	23.21	21.01	19.12	17.85	20.57	20.62	14.47	10.85	9.790	8.663	7.613	7.002	6.655	5.948	5.077	4.625	4.635	5.175	6.392	21.56	106.7	210.2	29.59	3.110	1.427	1.348	1.308	1.230	1.286	1.095	1.107	1.082	1.037	1.189	1.006	1.130	1.111
530.0	79.82	93.02	107.5	130.4	206.7	185.5	143.2	180.9	649.8	983.6	203.8	127.5	115.1	99.66	86.44	76.75	68.84	63.78	60.67	58.32	55.63	53.68	52.76	52.06	51.60	51.03	50.14	49.70	49.92	49.84	48.36	44.47	42.17	38.10	35.38	32.14	29.52	27.26	24.80	22.80	21.01	18.85	17.22	15.63	15.93	17.47	16.59	12.24	9.397	8.184	7.210	6.625	6.173	5.946	5.214	4.638	4.176	4.102	3.962	7.122	27.17	90.07	142.5	83.60	9.393	1.384	1.216	1.071	1.169	1.076	1.038	1.186	0.976	1.118	1.046	1.153	1.038
535.0	69.68	85.53	96.12	105.7	143.3	195.7	135.5	130.7	255.6	963.4	612.7	117.7	99.45	85.77	75.66	66.45	60.04	54.14	52.18	49.75	47.79	46.25	45.50	43.87	43.85	43.12	41.51	42.27	42.87	43.02	40.73	38.78	35.85	32.59	29.95	27.60	25.46	24.09	21.95	20.29	18.08	16.50	15.39	13.60	12.88	13.11	15.09	13.96	9.834	7.900	6.851	6.301	5.865	5.568	5.056	4.993	4.309	3.765	3.429	3.892	8.255	21.97	44.45	138.8	112.6	10.30	1.237	1.167	1.133	1.030	1.056	1.021	1.028	1.004	0.930	1.032	0.897
540.0	72.67	71.75	83.40	91.02	110.7	183.3	144.6	116.2	144.0	539.3	1039	160.0	87.41	76.94	65.81	59.08	52.70	48.20	44.94	43.88	41.88	41.10	40.04	38.75	37.56	37.94	36.39	37.64	37.26	37.93	36.01	33.66	31.40	29.02	26.52	24.42	22.69	21.12	19.95	18.20	16.66	15.28	13.81	13.04	11.65	11.17	12.27	12.97	10.66	7.864	6.326	5.900	5.485	4.833	4.763	5.156	4.352	3.509	3.275	3.224	3.998	6.740	11.74	51.50	153.6	83.12	4.982	1.198	1.091	1.014	0.989	1.060	0.924	0.928	0.887	1.069	0.936
545.0	71.19	67.28	78.40	79.94	91.06	143.9	159.0	110.2	109.1	234.6	1094	373.9	80.04	67.15	58.95	52.98	46.74	43.27	40.09	38.45	36.71	35.88	35.57	33.46	33.65	32.84	32.50	33.42	33.09	33.63	32.21	29.42	27.99	25.94	23.51	21.62	20.58	18.66	17.55	15.92	15.00	13.84	12.50	11.42	10.93	9.952	9.611	11.19	10.71	8.378	6.262	5.276	5.185	4.760	4.518	4.579	4.332	3.494	3.123	2.916	2.874	3.362	4.239	13.35	66.48	145.8	29.26	2.625	1.112	1.054	0.933	0.924	0.895	0.867	0.916	0.878	0.832
550.0	63.85	64.59	69.03	71.98	76.13	98.68	158.2	109.1	86.92	118.2	546.3	872.1	120.6	57.95	50.74	43.91	39.19	36.28	34.14	32.30	31.46	29.81	29.33	28.22	28.22	27.51	26.98	27.90	27.69	27.22	26.62	24.93	23.46	21.76	19.75	18.14	17.19	15.83	14.98	13.46	12.78	11.77	10.69	10.00	9.253	8.547	7.844	8.372	9.376	8.583	6.387	5.037	4.646	4.253	4.103	4.056	4.024	3.503	3.130	2.771	2.452	2.509	2.429	4.368	16.66	55.96	92.88	61.25	9.414	1.093	0.951	0.919	0.890	0.855	0.804	0.800	0.877
555.0	55.19	56.91	58.56	58.40	64.21	69.19	117.7	127.8	76.04	81.36	184.4	829.2	454.6	54.03	41.29	35.89	32.29	30.87	27.62	26.00	25.50	24.57	23.46	23.44	23.29	22.13	21.74	21.42	22.52	21.97	21.32	20.07	18.97	17.06	16.24	14.81	14.19	13.35	12.51	11.31	10.45	9.664	8.682	8.526	7.766	7.290	6.846	6.565	6.681	7.647	6.676	4.992	3.986	3.563	3.391	3.467	3.342	3.440	3.266	2.600	2.077	2.042	2.024	2.390	4.948	13.53	26.72	80.25	79.31	9.725	0.994	0.875	0.777	0.828	0.755	0.784	0.800
560.0	51.38	53.18	51.37	53.47	55.18	56.33	81.94	134.9	72.73	66.98	89.45	418.7	826.9	81.72	36.19	30.70	27.53	25.63	23.41	22.53	20.89	20.73	20.02	19.54	19.12	19.03	18.49	18.15	19.29	18.70	17.85	16.69	15.72	14.65	13.81	12.66	11.57	11.23	10.06	9.658	8.941	8.668	7.405	7.209	6.691	6.115	5.905	5.488	5.405	5.948	6.285	5.347	4.049	3.229	3.278	3.193	3.079	2.853	3.053	2.763	2.099	1.867	1.671	1.758	2.413	4.057	6.955	27.09	91.43	32.81	4.682	0.872	0.768	0.818	0.711	0.782	0.784
565.0	60.19	51.34	50.15	51.75	50.91	47.89	58.76	126.1	89.93	61.41	65.52	162.9	894.1	146.3	32.54	26.78	23.84	22.65	20.11	18.69	18.39	16.89	16.97	16.66	16.20	15.78	16.01	15.55	16.02	16.21	15.05	14.40	13.46	12.69	11.58	11.13	10.05	9.366	9.001	8.414	7.899	7.214	6.433	6.256	5.681	5.721	5.220	4.764	4.374	4.509	5.318	5.306	3.967	3.162	2.922	2.667	2.640	2.557	2.622	2.598	2.085	1.678	1.600	1.492	1.663	1.968	2.516	7.042	34.91	80.61	28.77	2.339	0.860	0.815	0.668	0.764	0.700
570.0	56.55	54.66	49.68	47.14	43.38	41.69	45.59	84.68	113.4	64.34	59.99	80.80	433.9	631.1	66.00	22.27	19.26	18.71	16.62	15.91	14.79	14.23	13.74	13.19	13.24	12.76	13.35	12.90	13.04	12.83	12.36	11.52	10.94	10.29	9.732	8.905	8.316	8.121	7.199	6.954	6.458	6.125	5.612	5.200	4.732	4.675	4.343	3.990	3.701	3.464	3.871	4.314	3.899	3.113	2.602	2.313	2.254	2.198	2.087	2.201	2.160	1.863	1.527	1.444	1.415	1.427	1.492	2.445	8.824	29.07	54.70	41.57	7.989	0.838	0.755	0.738	0.695
575.0	52.81	60.41	52.43	44.12	36.06	39.03	37.76	53.27	112.3	83.75	62.59	68.51	144.8	616.5	313.8	21.11	16.17	15.11	13.33	13.07	12.20	11.89	11.04	10.59	10.63	10.64	10.97	10.63	10.49	10.69	10.39	9.501	8.724	8.116	7.605	6.925	6.899	6.435	5.921	5.481	5.302	5.082	4.589	4.453	4.088	3.837	3.652	3.488	3.206	2.784	2.837	3.077	3.360	3.191	2.474	2.133	2.043	1.879	1.819	1.894	1.771	2.047	1.565	1.307	1.232	1.279	1.259	1.493	2.772	7.325	14.66	44.40	51.61	7.931	0.787	0.723	0.657
580.0	57.23	64.86	58.91	45.25	37.88	36.32	36.67	44.68	89.66	109.2	69.78	69.23	77.93	307.7	600.1	37.98	13.96	12.97	11.36	10.86	10.14	10.38	9.589	9.533	9.230	8.952	8.822	9.157	9.026	8.913	8.908	8.207	7.286	7.085	6.540	6.118	6.012	5.420	5.025	4.658	4.686	4.358	4.090	3.723	3.767	3.470	3.106	2.866	2.802	2.490	2.413	2.403	2.955	3.308	2.665	2.097	1.813	1.845	1.643	1.698	1.613	1.750	1.768	1.420	1.329	1.307	1.152	1.227	1.449	2.598	4.093	14.01	51.12	31.82	4.242	0.758	0.731
585.0	60.20	66.60	59.45	41.56	37.59	33.68	36.10	41.09	69.62	125.1	78.86	74.12	66.52	118.9	638.7	97.10	12.65	11.08	10.19	9.721	8.923	8.682	8.446	8.039	7.913	7.684	7.522	7.368	7.742	7.777	7.617	7.240	6.470	6.313	5.807	5.358	5.300	4.602	4.470	4.151	4.086	3.693	3.515	3.193	3.370	3.085	2.934	2.586	2.479	2.333	2.042	2.074	2.309	2.883	2.687	2.197	1.739	1.685	1.559	1.553	1.499	1.400	1.834	1.785	1.332	1.247	1.188	1.187	1.142	1.396	1.620	3.860	18.27	49.60	26.12	2.114	0.745
590.0	68.52	66.19	59.61	41.62	33.30	32.81	35.09	38.82	56.56	113.0	106.3	78.02	67.14	59.33	302.3	400.2	29.35	9.340	8.477	8.500	7.514	7.453	7.026	6.611	6.521	6.432	5.937	6.330	6.211	6.313	6.224	5.741	5.447	5.157	4.818	4.544	4.368	3.971	3.685	3.524	3.467	3.180	2.906	2.829	2.633	2.540	2.450	2.206	2.196	1.964	1.760	1.812	1.880	2.148	2.676	2.230	1.851	1.534	1.511	1.349	1.371	1.315	1.438	1.653	1.559	1.193	1.192	1.148	1.111	1.152	1.205	1.604	4.832	16.71	34.59	28.08	5.790
595.0	63.77	68.31	56.22	43.08	31.67	29.42	31.34	38.61	49.51	85.71	130.0	85.54	68.77	44.65	88.17	410.6	160.8	8.516	7.037	6.630	6.560	5.936	5.609	5.349	5.517	5.192	5.106	5.241	5.366	4.992	4.934	4.969	4.386	4.222	3.803	3.761	3.447	3.391	3.321	2.792	2.904	2.577	2.475	2.332	2.397	2.079	2.242	1.857	1.774	1.661	1.594	1.595	1.527	1.467	1.966	2.063	1.889	1.519	1.271	1.200	1.229	1.313	1.246	1.262	1.558	1.335	1.200	1.044	1.169	1.043	1.001	1.079	1.772	4.336	9.237	25.80	31.84
600.0	64.00	70.36	58.51	42.58	32.96	29.25	28.97	38.98	47.97	69.32	130.3	97.71	69.95	42.62	34.63	211.0	341.5	16.33	5.967	6.056	5.484	5.149	4.921	4.724	4.891	4.622	4.296	4.545	4.628	4.527	4.324	4.199	3.938	3.725	3.408	3.318	3.065	2.984	2.773	2.601	2.393	2.325	2.195	2.203	2.015	1.941	1.981	1.749	1.664	1.475	1.508	1.443	1.419	1.377	1.557	1.859	1.923	1.541	1.217	1.186	1.172	1.136	1.167	1.203	1.319	1.440	1.170	1.050	1.104	0.875	1.048	0.983	1.037	1.637	2.701	8.150	30.39
605.0	63.65	66.19	52.17	41.43	29.99	27.79	29.53	35.36	46.06	62.85	111.8	112.1	72.15	42.25	23.00	72.03	401.9	59.08	5.786	5.956	4.777	4.648	4.762	4.335	4.136	4.122	3.717	4.049	3.851	3.801	3.894	3.517	3.334	3.384	3.147	2.721	2.672	2.614	2.544	2.213	2.129	2.003	1.971	1.851	1.871	1.752	1.653	1.634	1.525	1.467	1.324	1.333	1.225	1.183	1.203	1.533	1.809	1.504	1.265	1.112	1.106	1.061	1.188	1.129	1.227	1.362	1.333	1.153	1.011	0.880	1.009	0.886	0.806	1.006	1.196	2.413	10.54
610.0	64.23	59.96	53.09	39.98	28.18	26.33	30.26	34.58	44.36	59.61	88.46	122.0	76.79	40.89	20.62	26.15	210.0	239.2	13.46	4.915	4.142	4.068	3.927	3.727	3.637	3.435	3.118	3.294	3.326	3.136	3.207	3.010	2.736	2.783	2.528	2.325	2.352	2.162	2.167	1.881	1.896	1.714	1.818	1.676	1.579	1.521	1.446	1.484	1.299	1.291	1.082	1.087	1.113	1.080	1.093	1.162	1.508	1.509	1.237	1.167	1.055	0.966	1.012	1.089	1.099	1.109	1.370	1.245	1.096	0.897	0.927	0.846	0.857	0.821	0.780	1.060	2.930
615.0	60.38	60.21	51.51	35.03	27.15	27.81	28.76	33.16	42.09	56.44	72.43	106.9	89.66	41.25	19.42	14.46	58.47	278.8	65.90	4.533	3.880	3.482	3.258	3.233	3.025	2.830	2.672	2.821	2.860	2.579	2.542	2.349	2.347	2.517	2.149	1.898	1.897	1.818	1.775	1.542	1.697	1.506	1.417	1.478	1.469	1.414	1.162	1.306	1.092	1.081	0.957	1.013	1.051	0.849	0.870	1.019	1.166	1.269	1.213	1.138	0.981	0.893	0.916	1.065	0.979	0.983	1.173	1.247	1.245	1.035	0.875	0.832	0.748	0.738	0.672	0.791	1.198
620.0	55.93	64.57	49.05	33.32	28.88	23.80	28.13	32.22	38.96	51.08	65.53	87.43	96.22	41.61	18.63	11.72	19.63	161.0	204.4	7.305	3.150	3.076	2.902	2.953	2.686	2.523	2.439	2.528	2.370	2.342	2.349	2.147	2.039	2.004	1.711	1.795	1.694	1.774	1.703	1.413	1.450	1.249	1.276	1.425	1.270	1.384	1.159	1.069	1.111	0.975	0.890	0.894	0.849	0.878	0.828	0.845	0.978	1.111	1.061	1.107	1.030	0.889	0.936	0.955	0.815	0.944	1.088	1.040	1.157	1.193	0.950	0.754	0.743	0.766	0.664	0.779	0.785
625.0	52.77	61.32	46.15	35.17	26.98	23.38	27.80	28.42	36.49	47.24	61.57	70.54	92.91	44.53	19.08	11.28	11.19	56.88	271.1	30.30	3.057	3.044	2.471	2.363	2.328	2.360	2.291	2.190	2.212	2.156	2.040	1.834	1.681	1.697	1.812	1.647	1.594	1.417	1.351	1.274	1.291	1.114	1.169	1.246	0.977	1.154	0.983	0.951	1.003	0.850	0.787	0.902	0.799	0.885	0.788	0.778	0.876	0.899	1.063	1.131	1.119	0.875	0.857	0.808	0.797	1.020	0.913	0.920	0.997	1.192	0.927	0.795	0.777	0.791	0.745	0.678	0.705
630.0	56.02	54.14	48.09	33.83	25.41	23.23	24.43	27.73	34.65	43.92	55.98	61.59	75.58	54.58	19.32	11.96	9.316	18.59	158.9	131.0	6.236	2.629	2.338	2.207	2.120	1.974	1.845	1.954	2.076	1.945	1.835	1.703	1.559	1.549	1.532	1.372	1.424	1.209	1.150	1.169	1.175	1.019	1.041	1.071	0.956	1.036	0.947	0.938	0.856	0.832	0.730	0.840	0.771	0.813	0.763	0.697	0.826	0.806	0.922	1.010	1.010	0.871	0.891	0.853	0.796	0.867	0.962	0.853	0.849	0.970	1.025	0.803	0.776	0.746	0.697	0.691	0.677
635.0	53.12	54.60	41.54	32.04	23.92	22.11	23.10	27.01	33.04	39.89	51.41	55.32	57.06	59.24	23.51	12.23	8.920	9.699	44.52	204.7	43.56	2.363	2.086	1.923	1.804	1.844	1.757	1.637	1.766	1.547	1.592	1.574	1.453	1.353	1.313	1.256	1.175	1.087	0.980	1.088	1.002	0.891	0.868	1.010	0.883	0.804	0.802	0.831	0.747	0.707	0.712	0.669	0.820	0.761	0.723	0.629	0.721	0.694	0.750	0.826	0.931	0.910	0.797	0.792	0.792	0.840	0.845	0.797	0.822	0.852	0.902	0.920	0.805	0.706	0.643	0.697	0.714
640.0	55.31	55.04	40.42	28.46	21.51	20.97	22.63	25.03	29.84	37.32	48.16	53.22	49.38	53.47	30.19	12.48	9.333	8.059	14.23	138.7	123.6	3.532	1.943	1.766	1.599	1.606	1.776	1.503	1.444	1.295	1.576	1.299	1.421	1.153	1.087	1.140	1.189	0.987	1.057	0.952	0.869	0.891	0.812	0.874	0.770	0.864	0.727	0.794	0.731	0.695	0.631	0.625	0.718	0.603	0.712	0.616	0.678	0.633	0.722	0.754	0.887	0.845	0.853	0.791	0.796	0.754	0.783	0.820	0.821	0.868	0.863	0.916	0.899	0.749	0.638	0.787	0.721
645.0	50.33	52.43	42.32	29.11	20.80	20.23	21.43	24.24	27.31	35.96	45.93	50.75	44.63	43.13	37.62	14.02	9.975	7.511	7.252	53.57	189.8	13.93	1.996	1.803	1.536	1.536	1.416	1.611	1.364	1.427	1.480	1.271	1.184	1.118	0.962	1.026	1.076	0.944	0.928	0.924	0.850	0.858	0.764	0.873	0.789	0.845	0.773	0.774	0.683	0.647	0.572	0.657	0.629	0.640	0.627	0.636	0.633	0.605	0.716	0.716	0.817	0.773	0.796	0.772	0.831	0.757	0.701	0.752	0.731	0.811	0.800	0.848	0.854	0.777	0.636	0.718	0.698
650.0	51.64	48.92	43.14	29.74	23.05	20.07	20.46	23.42	27.32	33.59	40.94	47.21	39.23	34.63	40.13	15.64	10.16	7.551	5.589	16.69	168.5	52.18	1.900	1.623	1.462	1.442	1.200	1.387	1.291	1.312	1.317	1.208	1.067	1.151	1.090	0.755	0.922	0.913	0.844	0.864	0.788	0.723	0.797	0.776	0.797	0.795	0.789	0.683	0.641	0.622	0.571	0.626	0.623	0.573	0.597	0.601	0.627	0.679	0.706	0.718	0.749	0.751	0.789	0.805	0.697	0.745	0.673	0.769	0.739	0.770	0.731	0.765	0.713	0.913	0.658	0.582	0.671
