Sample:	'1
File name:	G2025090912月河六路东003雨水井.FD3
Run date:	'15:36:46, 09/10/2025
Operator:	Administrator
Comment:	'

Instrument
Model:	F-2700 FL Spectrophotometer
Serial number:	24D1-003
ROM Version:	4J14000 07

Instrument parameters
Measurement type:	3-D scan
Data mode:	Fluorescence
EX  Start WL:	220.0 nm
EX  End WL:	600.0 nm
EX Sampling interval:	5.0 nm
EM  Start WL:	230.0 nm
EM  End WL:	650.0 nm
EM Sampling interval:	5.0 nm
Scan speed:	12000 nm/min
EX Slit:	5.0 nm
EM Slit:	5.0 nm
PMT Voltage:	700 V
Response:	Auto 
Corrected spectra:	Off
Contour interval:	50.000

Peak integration
Integration method:	Rectangular
Sensitivity:	1
Threshold:	1.000

Peaks
No.	ApexEX/EM(nm)	Height(Data)
1	230.0/340.0	846.9
2	230.0/620.0	21.97
3	235.0/515.0	158.7
4	240.0/265.0	372.0
5	240.0/525.0	176.9
6	245.0/270.0	374.8
7	245.0/535.0	159.4
8	250.0/275.0	475.1
9	250.0/550.0	143.7
10	255.0/280.0	608.9
11	255.0/560.0	134.6
12	260.0/285.0	612.1
13	260.0/575.0	114.4
14	265.0/290.0	658.9
15	265.0/585.0	109.1
16	270.0/300.0	976.9
17	270.0/600.0	99.56
18	275.0/305.0	1134
19	275.0/610.0	88.01
20	280.0/310.0	1005
21	280.0/340.0	1094
22	280.0/620.0	76.95
23	285.0/315.0	980.2
24	285.0/635.0	60.10
25	290.0/325.0	977.5
26	315.0/355.0	433.1
27	320.0/360.0	455.7
28	325.0/365.0	427.7
29	335.0/380.0	393.0
30	340.0/385.0	374.1
31	350.0/400.0	318.9
32	355.0/405.0	315.2
33	360.0/410.0	286.8
34	365.0/420.0	277.1
35	370.0/425.0	263.5
36	430.0/505.0	41.95
37	440.0/520.0	29.18
38	455.0/540.0	16.96
39	470.0/560.0	9.248
40	475.0/340.0	3.055
41	515.0/280.0	3.580
42	520.0/285.0	3.869
43	530.0/290.0	3.656
44	540.0/295.0	4.948
45	545.0/300.0	5.036
46	555.0/305.0	5.061
47	560.0/310.0	4.647
48	570.0/340.0	5.026
49	575.0/320.0	5.125
50	585.0/325.0	5.411

Data points
	220.0	225.0	230.0	235.0	240.0	245.0	250.0	255.0	260.0	265.0	270.0	275.0	280.0	285.0	290.0	295.0	300.0	305.0	310.0	315.0	320.0	325.0	330.0	335.0	340.0	345.0	350.0	355.0	360.0	365.0	370.0	375.0	380.0	385.0	390.0	395.0	400.0	405.0	410.0	415.0	420.0	425.0	430.0	435.0	440.0	445.0	450.0	455.0	460.0	465.0	470.0	475.0	480.0	485.0	490.0	495.0	500.0	505.0	510.0	515.0	520.0	525.0	530.0	535.0	540.0	545.0	550.0	555.0	560.0	565.0	570.0	575.0	580.0	585.0	590.0	595.0	600.0
230.0	27.90	195.4	778.5	278.6	17.65	9.264	7.014	6.579	5.794	5.406	4.883	4.441	4.100	3.655	3.023	2.695	2.290	2.057	1.775	1.658	1.547	1.461	1.307	1.243	1.249	1.069	1.018	1.007	1.042	0.958	0.947	0.911	0.839	0.814	0.745	0.742	0.723	0.691	0.684	0.635	0.583	0.602	0.595	0.626	0.557	0.509	0.533	0.993	2.430	2.842	1.533	0.686	0.509	0.488	0.489	0.528	0.488	0.480	0.505	0.471	0.496	0.455	0.516	0.553	0.442	0.487	0.445	0.499	0.500	0.479	0.502	0.548	0.537	0.462	0.524	0.477	0.530
235.0	31.48	73.48	695.9	2079	439.4	36.00	9.600	6.932	7.255	6.421	5.156	4.924	4.353	3.723	3.192	2.748	2.336	2.119	1.583	1.612	1.547	1.688	1.306	1.301	1.327	1.130	1.139	1.145	1.094	0.966	1.009	1.093	0.901	0.846	0.776	0.731	0.648	0.703	0.657	0.625	0.686	0.649	0.584	0.578	0.499	0.480	0.538	0.594	1.270	2.825	5.799	8.617	5.477	1.643	0.534	0.463	0.590	0.536	0.480	0.421	0.428	0.491	0.414	0.524	0.502	0.481	0.478	0.436	0.531	0.487	0.509	0.499	0.500	0.463	0.576	0.482	0.467
240.0	42.85	45.29	233.3	2105	3441	382.0	21.66	8.958	7.505	8.010	5.407	4.751	4.409	3.930	3.082	2.975	1.997	2.256	1.839	1.681	1.582	1.513	1.429	1.554	1.471	1.168	1.135	1.158	1.124	1.029	1.006	1.046	0.946	0.896	0.725	0.769	0.743	0.786	0.721	0.724	0.658	0.522	0.542	0.521	0.601	0.768	0.554	0.595	0.639	1.132	3.083	9.954	15.67	12.52	4.889	0.951	0.571	0.486	0.578	0.578	0.505	0.524	0.560	0.467	0.470	0.555	0.482	0.531	0.480	0.545	0.523	0.502	0.492	0.435	0.607	0.486	0.433
245.0	44.94	59.28	85.47	738.3	3851	3349	307.0	13.70	8.722	7.680	6.013	5.013	4.135	4.176	2.885	2.876	2.555	2.223	2.231	1.925	1.811	1.602	1.507	1.577	1.448	1.182	1.119	0.992	1.138	0.892	1.130	0.930	1.008	0.755	0.705	0.618	0.776	0.797	0.751	0.682	0.637	0.674	0.613	0.602	0.713	0.724	0.652	0.634	0.550	0.578	0.984	3.555	9.274	17.87	20.89	12.01	3.405	0.753	0.516	0.553	0.588	0.503	0.582	0.585	0.422	0.502	0.341	0.558	0.481	0.574	0.508	0.416	0.524	0.628	0.584	0.544	0.527
250.0	36.62	60.30	132.4	230.4	1195	3757	4448	1246	76.24	9.351	7.333	5.650	4.778	4.163	3.838	3.109	2.547	2.364	2.121	1.994	1.895	1.528	1.528	1.433	1.396	1.162	1.372	1.030	1.131	1.026	1.048	0.928	0.959	0.761	0.789	0.691	0.692	0.677	0.569	0.616	0.620	0.683	0.625	0.561	0.664	0.639	0.599	0.673	0.788	0.800	0.789	1.316	2.536	5.427	10.75	16.51	22.11	18.77	11.70	3.772	0.835	0.562	0.591	0.587	0.569	0.516	0.439	0.588	0.553	0.502	0.457	0.472	0.501	0.561	0.522	0.489	0.557
255.0	25.89	35.44	108.8	268.0	345.8	926.4	3238	7233	1829	84.61	9.293	7.224	6.018	5.215	4.192	3.479	2.733	2.327	2.169	1.650	1.887	1.489	1.596	1.387	1.447	1.247	1.131	1.324	1.112	1.189	1.085	0.976	0.861	0.966	0.783	0.706	0.661	0.666	0.616	0.549	0.588	0.691	0.605	0.579	0.659	0.572	0.624	0.534	0.600	0.755	1.245	1.584	1.315	1.656	2.802	4.140	7.252	15.86	30.20	28.53	17.64	4.231	0.683	0.600	0.580	0.425	0.562	0.490	0.541	0.466	0.482	0.513	0.495	0.526	0.466	0.528	0.572
260.0	37.10	22.29	48.61	246.3	318.7	256.6	920.9	5334	8004	1384	39.22	9.270	6.869	5.203	4.453	3.504	3.028	2.673	2.130	1.780	1.949	1.606	1.457	1.430	1.326	1.444	1.187	1.277	1.065	1.115	1.194	1.025	0.924	1.129	0.838	0.641	0.713	0.619	0.564	0.597	0.629	0.626	0.626	0.715	0.621	0.531	0.504	0.539	0.484	0.497	0.940	1.639	2.093	1.484	1.263	1.438	2.099	4.348	12.04	25.94	40.91	27.38	12.47	1.743	0.601	0.499	0.563	0.516	0.661	0.538	0.497	0.517	0.557	0.477	0.509	0.544	0.533
265.0	35.58	21.40	24.73	116.5	372.0	262.9	242.4	1610	7093	8286	233.1	18.00	8.397	7.162	4.569	4.367	3.467	2.767	2.358	2.087	1.842	1.478	1.808	1.712	1.247	1.296	1.271	1.295	1.219	1.033	1.051	1.002	0.863	1.135	0.686	0.668	0.726	0.783	0.679	0.620	0.669	0.543	0.575	0.682	0.825	0.714	0.534	0.506	0.430	0.434	0.519	0.921	1.698	2.125	2.094	1.113	0.934	1.495	3.168	7.312	19.36	36.81	46.98	23.57	7.341	0.920	0.589	0.566	0.607	0.599	0.536	0.485	0.625	0.511	0.683	0.508	0.435
270.0	28.69	25.51	23.58	40.77	168.9	374.8	293.8	410.7	2017	6380	8891	3473	75.95	9.854	6.719	4.914	3.862	3.201	2.677	2.378	2.260	1.888	1.777	1.559	1.470	1.455	1.254	1.262	1.252	1.203	1.053	0.998	0.961	0.919	0.802	0.749	0.632	0.688	0.679	0.730	0.709	0.551	0.655	0.650	0.648	0.670	0.512	0.555	0.479	0.406	0.468	0.550	0.854	1.175	1.963	2.270	2.140	1.480	1.287	2.061	4.858	10.35	19.74	30.56	31.98	35.17	15.67	6.690	0.980	0.597	0.540	0.568	0.564	0.513	0.539	0.560	0.577
275.0	32.11	35.32	35.44	29.04	55.50	151.6	475.1	360.1	501.5	1522	4545	9999.9	5821	93.59	9.599	6.423	4.981	4.153	3.402	2.740	2.045	2.148	2.002	1.589	1.485	1.238	1.290	1.347	1.279	1.155	1.102	0.834	1.102	0.914	0.912	0.790	0.714	0.685	0.614	0.729	0.613	0.622	0.648	0.623	0.827	0.737	0.515	0.590	0.564	0.440	0.494	0.542	0.633	0.710	0.869	1.153	1.927	2.788	2.830	1.595	1.689	2.811	4.911	7.393	9.714	22.76	47.23	59.07	24.52	6.675	0.830	0.536	0.755	0.502	0.492	0.568	0.561
280.0	41.40	44.14	48.48	33.86	32.03	56.98	257.1	608.9	298.7	401.6	1211	6647	9999.9	1168	60.01	8.567	5.470	4.405	3.588	3.131	2.207	2.306	2.198	1.760	1.736	1.450	1.337	1.251	1.281	1.232	1.146	1.121	1.032	0.911	0.795	0.724	0.699	0.642	0.634	0.623	0.612	0.594	0.694	0.587	0.719	0.732	0.507	0.591	0.580	0.547	0.480	0.603	0.667	0.573	0.625	0.638	0.993	1.781	3.405	3.580	2.038	1.452	1.612	2.348	2.822	6.026	15.88	40.24	62.03	32.82	17.99	2.147	0.604	0.569	0.618	0.644	0.557
285.0	43.99	57.95	67.07	49.66	34.66	36.25	100.3	450.0	612.1	233.8	367.2	1867	7702	9999.9	916.9	30.40	7.468	4.763	4.497	3.532	2.885	2.323	2.065	1.748	1.573	1.531	1.537	1.326	1.447	1.404	1.280	1.197	1.034	1.023	0.908	0.789	0.770	0.776	0.651	0.731	0.649	0.656	0.684	0.597	0.615	0.687	0.572	0.651	0.607	0.540	0.618	0.619	0.609	0.679	0.578	0.566	0.715	0.987	1.790	2.913	3.869	2.712	1.501	1.265	1.315	2.164	4.489	10.65	24.41	48.15	69.90	28.39	10.40	1.013	0.703	0.605	0.540
290.0	46.26	68.70	94.26	69.09	49.03	42.36	67.81	188.0	525.9	658.9	350.8	585.1	2063	6430	9233	3592	50.99	7.759	5.832	4.230	3.306	2.788	2.326	2.019	2.117	1.640	1.646	1.319	1.382	1.415	1.319	1.151	1.046	1.077	0.989	0.871	0.867	0.788	0.730	0.707	0.671	0.665	0.737	0.686	0.696	0.683	0.607	0.643	0.722	0.669	0.650	0.666	0.652	0.636	0.662	0.649	0.724	0.781	0.945	1.431	2.336	3.204	3.656	3.073	1.949	1.565	2.101	3.376	6.549	12.88	25.84	38.59	53.39	46.36	17.70	7.922	1.039
295.0	48.77	91.06	116.1	92.98	63.50	58.48	76.78	128.0	253.6	623.7	885.2	444.7	675.0	1591	3451	9999.9	5084	66.41	8.341	5.934	3.985	3.342	2.624	2.142	2.171	1.955	1.622	1.369	1.458	1.176	1.443	1.112	1.061	1.059	1.090	0.916	0.799	0.790	0.723	0.736	0.769	0.760	0.793	0.643	0.732	0.679	0.597	0.769	0.829	0.842	0.719	0.724	0.563	0.613	0.766	0.689	0.702	0.835	1.034	1.123	1.491	1.631	2.358	3.637	4.948	3.401	2.240	1.989	2.732	3.975	6.870	9.598	14.47	27.49	57.57	74.96	28.27
300.0	47.28	89.93	136.4	114.2	76.65	76.84	96.00	129.5	200.1	399.5	976.9	795.8	440.9	537.6	911.6	4680	9999.9	3628	43.31	7.300	4.639	3.736	3.117	2.638	2.121	2.112	1.878	1.458	1.543	1.332	1.418	1.189	1.099	1.237	1.025	0.900	0.833	0.804	0.787	0.690	0.639	0.703	0.753	0.689	0.653	0.677	0.712	0.805	0.910	0.875	0.859	0.764	0.821	0.704	0.791	0.693	0.812	0.887	1.022	1.043	1.324	1.351	1.787	2.213	3.953	5.036	4.390	2.705	2.087	2.278	2.807	3.216	4.212	7.266	18.52	46.88	76.98
305.0	48.18	98.33	140.1	129.0	97.92	89.62	118.2	153.6	215.1	328.3	672.7	1134	644.6	348.4	344.4	1209	6243	9999.9	615.2	25.11	6.359	4.448	3.215	2.868	2.495	2.364	1.899	1.528	1.594	1.499	1.292	1.211	1.216	1.095	1.149	0.940	0.757	0.867	0.842	0.712	0.699	0.701	0.731	0.800	0.705	0.689	0.703	0.894	0.914	0.835	0.853	0.824	0.878	0.925	0.935	0.917	0.969	0.868	1.198	1.178	1.386	1.473	1.621	1.921	2.624	3.607	4.982	5.061	3.328	2.114	1.921	1.883	2.168	2.714	5.073	12.06	29.43
310.0	51.83	103.4	145.9	150.4	117.0	110.5	141.6	187.3	250.5	350.9	504.7	828.3	1005	583.6	276.0	382.4	1557	5457	9228	2544	38.38	6.972	4.319	3.343	2.820	2.489	2.082	1.720	1.826	1.434	1.364	1.235	1.240	1.099	1.121	0.931	0.887	0.778	0.790	0.742	0.767	0.674	0.683	0.734	0.698	0.695	0.656	0.820	0.885	0.882	0.893	0.901	0.952	0.896	0.900	0.975	0.985	1.142	1.262	1.358	1.574	1.601	1.859	1.940	2.211	2.468	3.263	4.077	4.647	4.417	3.283	2.121	1.772	1.740	2.136	3.632	7.407
315.0	67.83	128.4	196.1	170.5	145.2	137.7	170.5	228.1	306.6	409.7	520.3	635.7	776.5	980.2	518.2	247.3	440.6	1289	3075	9764	3888	49.98	6.835	4.737	3.244	2.678	2.416	1.792	1.775	1.533	1.519	1.245	1.101	1.107	1.097	0.913	1.036	0.824	1.013	0.895	1.019	0.741	0.721	0.757	0.668	0.777	0.705	0.730	0.995	0.923	0.924	0.970	1.151	0.967	1.055	0.972	1.301	1.372	1.411	1.573	1.470	1.804	1.998	2.153	2.357	2.499	2.785	3.005	3.522	3.853	4.660	4.548	2.858	2.053	1.689	1.801	2.477
320.0	78.80	174.8	313.8	244.7	179.6	176.6	211.9	286.0	378.4	492.1	601.7	695.5	728.1	907.5	891.0	357.8	238.9	372.4	769.1	4164	9999.9	2950	35.23	6.248	4.596	3.220	2.628	2.105	2.046	1.937	1.566	1.295	1.333	1.160	1.050	0.967	0.990	0.835	0.934	0.771	0.734	0.675	0.761	0.653	0.762	0.718	0.848	1.135	1.273	1.327	1.191	1.121	1.231	1.136	1.171	1.088	1.227	1.355	1.530	1.752	1.695	2.141	2.386	2.477	2.754	3.019	2.848	3.253	3.361	3.294	3.917	5.125	4.965	3.732	2.154	1.678	1.811
325.0	91.35	258.3	533.9	420.7	265.4	227.6	264.5	346.1	463.7	606.3	747.0	845.0	850.8	824.3	977.5	677.2	273.3	215.9	265.5	1052	5574	9999.9	480.1	22.24	5.494	4.336	2.889	2.295	1.951	2.021	1.699	1.391	1.351	1.485	1.153	1.022	0.994	0.879	0.903	0.912	0.828	0.796	0.771	0.604	0.696	0.913	0.973	1.388	1.692	1.971	1.727	1.558	1.557	1.208	1.441	1.402	1.383	1.489	1.785	1.959	2.119	2.441	2.833	3.091	3.020	3.625	3.662	3.511	3.702	3.681	3.892	4.140	5.085	5.411	4.198	2.545	2.135
330.0	97.72	329.1	701.5	610.6	387.3	300.6	320.7	413.9	539.0	699.9	863.2	963.7	979.0	886.8	835.6	832.4	549.9	259.0	189.3	328.8	1392	4993	7745	3673	32.02	6.338	4.097	2.927	2.379	2.283	1.884	1.522	1.414	1.328	1.065	1.115	1.041	0.904	0.975	0.825	0.774	0.792	0.788	0.711	0.889	0.922	1.117	1.741	2.124	2.669	2.373	2.330	2.217	1.631	1.557	1.692	1.725	1.751	1.910	2.258	2.261	2.696	3.115	3.383	3.441	3.803	4.211	4.072	4.343	4.416	4.132	4.166	4.038	4.636	4.627	4.482	3.840
335.0	127.3	391.0	799.6	726.0	472.7	356.2	368.4	462.3	599.1	780.5	930.7	1049	1060	958.3	824.6	675.2	693.9	484.7	219.1	193.4	401.7	1187	2668	8875	3232	43.77	5.775	4.357	3.018	2.381	2.102	1.802	1.771	1.343	1.135	1.279	1.154	0.869	0.853	0.870	0.814	0.800	0.781	0.781	0.912	0.951	1.087	1.773	2.568	2.884	2.646	2.815	2.478	2.180	1.796	1.939	1.910	2.106	2.352	2.284	2.667	3.055	3.426	3.506	3.774	4.174	4.390	4.860	4.874	4.823	4.609	4.569	4.231	3.919	3.935	3.865	4.248
340.0	120.7	399.7	846.9	797.5	538.3	398.6	393.2	495.3	631.6	810.1	973.3	1071	1094	998.2	841.4	642.4	577.7	634.5	333.2	186.4	197.5	350.4	663.8	3895	9292	2567	31.46	5.514	3.559	2.834	2.267	1.984	1.694	1.364	1.294	1.176	0.900	0.896	0.810	0.889	0.932	0.885	0.766	0.709	0.861	0.943	1.159	1.958	2.688	3.051	2.674	3.055	2.688	2.366	2.075	1.839	2.014	2.231	2.411	2.563	2.900	3.127	3.420	3.639	4.058	4.151	4.397	4.613	4.947	4.651	5.026	4.448	4.205	3.903	3.750	3.593	3.526
345.0	113.3	390.8	822.6	800.6	558.1	419.3	413.9	490.5	634.9	798.2	955.6	1052	1064	982.3	833.1	631.4	491.9	546.9	503.2	235.2	165.5	176.3	213.9	972.8	5152	8630	409.5	20.03	4.473	3.222	2.544	2.051	1.787	1.470	1.492	1.362	1.146	0.926	1.000	0.817	0.915	0.936	0.757	0.696	0.812	0.864	1.178	1.788	2.637	2.874	2.850	3.040	2.716	2.310	2.242	1.975	2.036	2.363	2.242	2.607	2.708	3.004	3.333	3.444	3.782	4.072	4.274	4.496	4.770	4.490	4.702	4.650	4.285	3.926	3.487	3.466	3.214
350.0	98.53	333.4	728.4	751.2	563.2	437.1	433.5	492.9	617.5	757.2	900.3	985.3	996.8	921.9	793.6	607.2	461.7	413.5	474.2	411.1	222.7	160.8	137.3	278.0	1277	4363	6451	1752	28.39	4.762	3.375	2.502	1.988	1.627	1.513	1.134	1.127	0.996	0.979	0.956	0.783	0.853	0.807	0.718	0.855	0.892	1.107	1.617	2.457	2.784	2.565	2.812	2.642	2.416	2.207	1.877	1.994	2.171	2.419	2.450	2.794	2.856	3.262	3.326	3.661	3.895	4.059	4.284	4.360	4.229	4.306	4.041	4.165	3.693	3.367	3.274	3.107
355.0	97.63	305.5	632.4	685.4	544.9	445.8	449.7	506.0	601.2	724.7	849.1	917.5	921.6	854.5	748.2	587.7	456.3	384.7	361.5	433.1	391.5	208.9	144.7	146.9	345.0	1020	2300	7039	2878	35.25	5.040	3.194	2.312	2.005	1.583	1.119	1.168	1.051	1.005	1.001	0.883	0.880	0.808	0.779	0.899	0.948	0.930	1.476	2.153	2.391	2.212	2.566	2.540	2.284	2.235	2.037	1.951	2.305	2.338	2.261	2.810	2.836	3.109	3.198	3.547	3.504	3.685	4.097	4.113	4.028	4.124	3.961	4.066	3.649	3.331	3.079	3.189
360.0	85.04	260.6	568.6	653.9	535.3	465.7	462.3	491.3	597.8	694.7	798.0	857.8	857.6	799.0	706.9	567.3	451.5	383.1	338.8	357.1	455.7	314.8	175.2	134.2	152.4	282.0	567.1	3197	7900	2056	25.77	4.622	2.910	2.046	1.511	1.378	1.270	1.080	1.030	1.016	0.987	0.777	0.718	0.857	0.887	0.937	0.857	1.299	1.959	2.128	2.207	2.511	2.297	2.291	2.322	1.902	2.175	2.432	2.467	2.455	2.769	3.000	3.077	3.192	3.499	3.495	3.542	3.951	3.757	3.727	3.837	3.715	3.749	3.662	3.111	2.874	3.036
365.0	83.59	232.6	513.0	594.4	511.5	475.4	455.5	498.9	578.3	670.8	752.0	791.5	806.6	741.9	668.3	545.3	448.3	387.6	344.2	327.2	388.8	427.7	242.3	153.6	127.7	130.3	173.4	799.5	4449	7504	367.1	9.549	3.733	2.631	2.095	1.651	1.311	1.064	1.291	1.022	0.987	0.830	0.872	0.918	0.905	0.856	0.764	1.354	1.659	1.996	2.075	2.440	2.204	2.256	2.210	2.094	2.132	2.302	2.220	2.481	2.624	2.755	2.993	2.911	3.076	3.463	3.587	3.686	3.358	3.471	3.427	3.407	3.474	3.399	3.057	3.019	2.877
370.0	77.32	205.8	435.0	533.1	503.1	460.6	457.8	482.7	555.1	633.1	703.9	734.8	729.8	683.0	616.4	520.2	437.6	388.8	357.1	335.2	331.3	393.9	378.5	228.4	150.7	119.9	105.0	223.9	1103	4311	5898	1352	21.06	3.866	2.681	1.773	1.534	1.246	1.225	1.085	1.016	0.919	0.868	0.797	0.920	0.823	0.853	1.220	1.536	1.848	1.852	2.222	2.273	2.215	2.198	1.993	2.185	2.237	2.428	2.489	2.491	2.868	2.941	2.986	3.097	3.139	3.180	3.281	3.203	3.326	3.374	3.141	3.224	3.063	2.884	2.933	2.785
375.0	64.28	185.7	365.3	482.8	479.1	457.1	459.7	486.3	541.0	599.7	656.3	679.2	670.4	618.8	569.3	486.0	424.6	388.2	371.1	348.6	337.5	334.2	372.1	368.2	213.9	144.1	111.8	113.4	290.0	997.4	2300	6578	2144	26.53	3.798	2.460	2.032	1.335	1.369	1.113	0.919	0.868	0.863	0.773	1.096	0.885	0.877	1.185	1.546	1.581	1.626	2.040	2.199	2.072	1.972	2.363	2.252	2.061	2.433	2.402	2.470	2.575	2.771	2.738	2.774	3.004	2.940	3.158	2.980	2.928	3.012	3.086	3.084	2.817	2.769	2.779	2.571
380.0	62.68	168.3	328.3	451.1	470.6	469.2	460.7	479.9	524.6	577.7	619.9	637.0	627.3	579.6	536.9	468.3	418.7	388.7	374.6	358.8	345.4	327.6	329.7	393.0	305.8	174.3	129.6	102.8	120.6	260.6	563.5	3649	6431	1472	16.74	3.157	2.410	1.708	1.428	1.297	1.022	0.970	1.019	0.782	0.938	0.936	0.964	1.111	1.329	1.582	1.664	2.059	2.161	2.022	2.095	2.146	2.296	2.169	2.494	2.309	2.386	2.440	2.379	2.782	2.658	2.834	2.580	3.066	2.957	3.030	2.865	2.805	2.891	2.799	2.787	2.865	2.495
385.0	60.98	154.6	312.1	425.8	459.3	465.5	463.2	472.6	517.0	553.2	592.2	597.6	588.2	549.7	512.0	449.3	408.1	385.4	375.9	364.0	353.2	337.4	318.5	346.7	374.1	238.4	155.2	115.4	97.24	105.3	162.5	958.1	4353	5436	280.7	8.181	2.951	2.200	1.541	1.395	0.958	0.896	1.057	0.874	0.883	0.960	0.840	0.916	1.387	1.576	1.509	2.049	2.072	2.119	2.165	2.071	2.279	2.106	2.368	2.134	2.352	2.413	2.308	2.562	2.457	2.642	2.545	2.800	2.839	2.834	2.774	2.817	2.931	2.695	2.663	2.535	2.795
390.0	59.28	135.1	283.6	406.2	453.6	456.7	457.3	469.5	496.3	529.1	555.7	565.9	556.0	521.5	485.6	433.7	400.8	385.4	374.2	368.1	361.4	344.6	328.0	316.0	338.1	326.3	222.2	145.6	114.4	93.92	88.83	251.0	1129	3351	3389	1067	17.18	3.043	2.137	1.553	1.344	1.037	1.060	0.839	1.033	0.891	0.869	1.037	1.188	1.421	1.492	1.882	2.212	2.093	2.064	2.142	2.343	2.238	2.305	2.202	2.382	2.363	2.366	2.571	2.521	2.583	2.529	2.610	2.483	2.564	2.643	2.628	2.703	2.660	2.485	2.529	2.579
395.0	59.17	126.6	260.9	395.5	431.5	453.0	457.3	460.5	489.6	514.5	535.2	530.2	521.4	489.6	459.5	416.4	390.4	379.1	371.8	373.8	363.5	357.0	337.6	320.1	302.1	312.0	316.8	204.5	142.6	112.2	91.22	107.1	288.3	781.2	1697	4737	1708	22.47	2.916	2.139	1.523	1.282	1.154	0.948	1.089	0.906	0.874	1.105	1.199	1.341	1.424	1.885	2.130	2.181	1.951	2.003	2.209	2.117	2.323	2.133	2.337	2.273	2.397	2.398	2.499	2.460	2.382	2.446	2.553	2.468	2.517	2.665	2.562	2.614	2.559	2.554	2.373
400.0	53.42	116.7	246.4	363.8	422.9	445.1	447.0	455.7	476.1	508.5	517.3	515.9	498.2	474.5	443.9	406.8	378.3	367.4	366.3	365.1	361.9	355.3	341.7	324.3	301.5	284.9	318.9	277.2	173.6	131.9	106.0	84.83	108.3	206.3	427.4	2568	4698	1146	14.07	2.605	1.914	1.423	1.143	0.956	0.986	0.912	0.966	1.014	1.127	1.290	1.425	1.721	1.945	2.083	1.978	2.024	2.201	2.151	2.220	2.265	2.366	2.334	2.357	2.564	2.376	2.301	2.292	2.514	2.231	2.418	2.283	2.546	2.531	2.436	2.604	2.616	2.493
405.0	51.00	113.7	228.4	362.5	419.4	448.6	443.3	448.5	462.8	483.4	506.1	503.6	480.8	463.8	427.6	393.0	368.1	362.7	357.4	355.8	357.6	355.2	345.7	329.0	305.8	281.7	283.1	315.2	228.4	152.1	120.5	91.59	78.05	84.60	122.9	666.8	3102	4038	248.1	6.611	2.438	1.756	1.444	1.086	0.982	0.988	0.827	0.962	1.176	1.195	1.232	1.648	2.128	2.032	1.964	1.976	2.105	2.194	2.272	2.209	2.380	2.383	2.249	2.386	2.361	2.128	2.351	2.423	2.202	2.394	2.441	2.615	2.613	2.278	2.295	2.441	2.646
410.0	54.71	115.9	221.9	340.7	407.0	436.4	439.1	447.7	457.8	468.3	489.2	480.2	456.7	434.2	409.5	375.5	354.0	347.8	344.6	344.3	349.1	349.1	341.4	328.2	309.5	285.2	269.7	282.5	286.8	205.5	146.0	108.8	86.52	70.58	64.19	175.0	801.0	2448	2670	935.0	15.37	2.453	1.820	1.275	1.140	1.003	0.941	0.975	1.171	1.229	1.414	1.699	2.026	1.955	2.021	2.082	2.224	2.179	2.265	2.180	2.240	2.261	2.110	2.479	2.438	2.038	2.131	2.249	2.233	2.239	2.379	2.472	2.331	2.222	2.277	2.469	2.602
415.0	57.42	104.9	212.5	331.7	396.4	442.4	443.5	447.3	451.5	465.1	468.7	457.8	440.3	413.0	389.5	357.0	339.5	332.2	329.9	329.9	333.8	336.1	333.1	321.8	308.5	290.8	271.2	257.6	268.0	271.5	188.9	128.9	102.9	78.64	60.88	73.23	203.6	568.5	1293	3460	1404	19.16	2.220	1.595	1.408	1.132	0.989	0.925	1.178	1.210	1.289	1.651	1.914	2.106	2.055	2.089	2.250	2.023	2.387	2.258	2.165	2.201	2.134	2.192	2.077	2.096	2.045	2.093	2.374	2.094	2.313	2.101	2.243	2.102	2.539	2.296	2.436
420.0	44.47	104.2	207.4	329.4	398.7	427.4	432.8	446.2	453.9	445.4	456.5	447.3	423.7	396.1	369.9	342.6	324.1	313.9	312.2	314.3	320.7	321.7	323.2	316.5	304.5	290.8	271.5	254.1	248.1	277.1	238.3	149.4	114.5	89.34	67.29	57.31	74.38	148.1	322.2	1877	3477	261.0	12.28	2.158	1.652	1.219	1.006	1.111	1.268	1.130	1.284	1.684	1.854	1.897	2.115	1.920	2.161	2.113	2.364	2.295	2.184	2.190	2.110	2.132	2.004	2.197	2.193	1.921	2.128	2.140	2.133	2.029	2.382	2.000	2.276	2.074	2.038
425.0	47.91	98.15	201.6	325.5	397.5	425.6	431.1	441.5	442.2	436.4	446.1	437.2	411.5	383.2	352.1	326.8	307.7	303.6	301.4	297.9	308.7	307.4	308.8	308.5	296.2	287.5	272.4	254.2	239.1	249.3	263.5	183.7	125.8	102.2	77.24	59.71	50.40	57.60	90.75	485.9	2238	2848	228.7	5.783	2.085	1.612	1.156	1.197	1.262	1.192	1.290	1.830	1.988	1.848	1.965	2.126	2.202	2.032	2.112	2.121	2.180	2.142	2.181	2.277	2.136	1.813	2.002	2.014	2.128	1.852	2.129	1.879	2.197	2.137	2.132	2.048	2.218
430.0	55.19	94.02	197.0	315.7	383.8	404.8	427.9	427.4	431.9	435.9	434.5	420.4	399.4	366.7	337.7	309.7	291.2	285.7	283.1	284.3	288.0	291.6	294.1	296.1	290.0	281.2	271.8	256.5	242.0	233.5	237.5	224.2	160.1	115.7	89.76	70.04	54.55	44.93	43.99	125.3	571.7	1767	2197	828.0	14.98	2.385	1.495	1.428	1.268	1.189	1.363	1.738	1.925	1.908	1.979	1.969	2.225	2.152	2.109	2.086	2.171	2.163	2.151	2.105	2.058	1.922	2.061	2.077	2.136	1.893	1.909	1.792	2.080	2.176	1.942	2.053	1.968
435.0	71.01	95.50	187.9	305.1	360.1	395.8	424.8	419.2	433.6	432.6	434.8	411.6	380.3	347.2	325.3	291.6	274.7	266.6	263.8	266.5	269.6	275.0	276.7	283.0	279.0	268.6	266.5	254.2	245.2	237.4	219.1	216.2	204.0	143.2	103.8	80.91	63.52	48.70	40.85	49.68	143.1	409.8	1001	2798	1529	19.82	2.174	1.685	1.533	1.243	1.458	1.858	1.807	1.847	1.916	1.962	2.338	2.052	2.218	2.142	2.054	2.009	2.098	2.040	2.129	1.951	1.897	2.018	2.001	1.998	1.952	1.791	1.811	1.982	2.067	1.701	2.136
440.0	95.73	84.29	182.1	292.5	357.5	397.7	413.7	418.0	421.4	425.8	421.2	401.3	368.6	342.6	314.1	283.2	264.7	255.1	252.1	253.9	256.9	260.4	265.7	267.9	270.0	265.3	258.6	251.2	245.7	233.2	216.2	202.1	209.0	172.9	116.8	90.04	70.86	54.81	43.17	35.89	50.47	105.3	246.8	1516	3885	952.5	11.59	2.098	1.536	1.470	1.398	1.745	1.772	1.652	1.870	1.966	2.211	2.253	1.987	2.300	2.108	2.089	1.953	2.126	2.098	1.831	2.003	1.963	1.874	2.118	1.895	1.801	1.829	1.847	1.877	1.823	2.026
445.0	96.18	100.7	178.7	280.4	345.5	393.1	407.6	415.6	417.1	415.2	416.9	393.4	362.0	333.1	301.4	273.1	255.5	243.1	240.0	241.4	243.9	248.2	254.1	257.4	261.6	258.1	252.0	247.9	242.0	233.7	214.8	194.4	190.0	186.9	138.7	97.89	77.71	60.39	46.20	36.98	33.29	39.51	68.15	394.1	2462	3109	196.1	6.635	1.888	1.654	1.526	1.763	1.868	1.663	1.801	2.052	2.051	2.210	2.027	2.254	2.219	2.248	1.844	2.136	1.908	1.875	1.971	1.847	1.916	1.918	1.859	1.800	1.811	1.972	1.865	1.816	1.991
450.0	76.12	139.4	180.2	270.4	340.4	373.4	387.9	397.1	404.3	404.0	394.0	379.4	347.6	318.0	286.8	253.2	238.4	228.0	223.4	222.8	226.4	228.7	237.0	237.5	241.2	241.7	238.4	235.5	235.4	226.7	212.7	190.6	175.0	170.3	160.2	116.9	86.14	67.37	53.09	42.35	34.34	29.36	31.08	99.94	622.3	1861	1900	809.8	12.62	1.946	1.731	1.640	1.949	1.803	1.847	1.965	1.903	2.076	2.051	2.072	2.049	2.093	2.061	2.062	1.854	1.883	1.825	1.844	1.860	1.882	1.859	1.883	1.651	1.790	1.803	1.774	1.848
455.0	55.16	185.0	266.6	264.4	318.8	348.3	374.1	376.1	387.8	384.4	373.0	354.5	328.3	301.0	265.7	235.5	218.6	210.1	203.3	202.5	207.0	208.4	214.9	217.5	222.1	222.7	223.3	221.3	220.8	215.0	205.2	186.4	168.3	149.6	149.6	138.7	101.2	74.28	58.70	47.88	39.60	30.58	25.67	35.87	149.5	427.5	844.6	2275	1060	15.16	2.104	1.843	1.998	2.029	1.852	1.928	2.064	1.926	1.939	2.027	1.971	1.992	1.972	1.856	1.810	1.833	1.800	1.661	1.875	1.820	1.693	1.650	1.724	1.681	1.750	1.715	1.807
460.0	46.91	185.6	444.6	276.5	304.6	333.0	347.3	364.5	371.4	363.5	360.2	339.3	314.2	284.0	251.0	222.5	200.3	192.8	188.3	191.3	191.9	194.3	198.9	202.9	206.4	208.8	209.3	208.5	210.4	203.5	198.8	178.7	160.7	144.2	131.4	137.1	114.8	80.41	62.57	51.24	41.39	32.28	26.19	24.21	45.04	103.9	205.5	1195	2291	185.3	10.39	2.156	2.267	1.911	1.928	1.869	1.911	1.880	1.968	1.894	2.003	1.794	1.706	1.938	1.763	1.731	1.789	1.758	1.827	1.722	1.797	1.641	1.706	1.552	1.746	1.722	1.625
465.0	39.11	120.6	637.6	442.2	280.2	314.6	331.8	341.0	347.4	347.8	342.0	326.9	298.1	266.6	236.7	208.5	187.9	179.3	177.6	177.0	174.7	179.9	184.1	189.7	190.9	192.6	193.1	195.8	196.0	193.2	187.2	170.0	154.6	138.7	122.9	122.1	122.4	89.70	65.43	52.18	43.68	34.99	27.41	21.72	22.69	33.29	53.49	304.8	1462	1486	162.1	6.268	2.505	2.029	1.990	1.885	1.934	1.924	1.773	1.902	1.946	1.681	1.743	1.975	1.783	1.649	1.679	1.651	1.781	1.552	1.515	1.685	1.666	1.548	1.625	1.531	1.559
470.0	43.71	82.23	507.3	1002	375.4	288.7	302.5	310.4	320.9	321.0	319.5	300.2	269.1	244.6	212.9	188.6	169.3	162.2	156.6	157.2	157.3	160.1	162.7	169.0	172.0	172.5	173.5	175.5	176.8	178.0	171.2	158.7	144.2	130.4	115.4	104.9	105.9	98.70	73.52	54.01	44.77	36.81	28.87	22.73	18.78	17.78	19.94	74.39	369.6	1043	1347	673.8	14.57	2.266	1.990	1.824	1.986	1.817	1.751	1.790	1.892	1.813	1.732	1.694	1.711	1.706	1.622	1.625	1.522	1.428	1.433	1.513	1.606	1.457	1.525	1.467	1.456
475.0	39.78	71.20	224.9	1338	1037	269.9	275.7	283.9	288.2	296.4	289.1	272.3	242.4	217.5	191.6	167.1	151.9	143.5	138.9	137.1	139.0	142.0	145.0	148.5	150.9	150.6	154.0	155.6	157.5	158.6	153.1	143.4	130.4	119.5	106.2	94.87	87.68	89.18	82.42	58.81	44.02	36.99	29.76	24.06	18.36	15.23	12.41	22.82	87.59	239.1	549.8	1533	905.4	19.37	2.170	1.805	1.900	2.002	1.770	1.688	1.711	1.666	1.673	1.582	1.626	1.558	1.498	1.473	1.675	1.336	1.530	1.347	1.489	1.367	1.374	1.353	1.349
480.0	41.74	68.64	134.8	940.9	1826	374.1	253.8	260.1	267.8	267.9	269.5	250.3	225.1	200.3	177.5	154.6	139.7	131.5	128.7	126.2	125.5	126.8	131.0	134.5	138.2	137.0	138.1	141.9	145.4	144.8	141.3	133.2	122.7	112.8	100.0	89.66	79.84	76.18	79.55	65.81	46.42	36.33	30.57	23.97	18.80	14.73	12.00	12.59	25.32	58.00	132.2	744.9	1629	655.3	14.11	2.157	2.023	1.994	1.758	1.756	1.544	1.714	1.605	1.494	1.644	1.276	1.458	1.613	1.445	1.380	1.357	1.210	1.261	1.177	1.243	1.281	1.308
485.0	37.11	62.35	107.5	435.4	2124	908.0	234.6	244.9	251.1	255.8	248.6	234.9	212.3	184.6	163.1	143.7	128.3	122.4	117.4	116.0	115.4	115.9	119.6	122.8	126.2	127.0	127.4	130.2	134.1	134.4	131.9	123.4	115.6	104.7	94.68	84.94	75.56	68.85	69.38	68.96	51.05	36.96	29.97	24.06	20.18	15.58	12.36	10.69	11.87	17.86	33.91	187.6	904.3	1571	200.9	8.009	2.148	2.048	1.820	1.625	1.394	1.429	1.395	1.489	1.366	1.371	1.472	1.356	1.238	1.320	1.288	1.343	1.210	1.214	1.220	1.228	1.083
490.0	43.01	61.58	102.0	214.2	1270	2061	340.4	224.2	230.0	230.6	232.2	216.7	195.8	172.2	151.5	130.6	118.2	109.0	106.2	104.4	103.4	102.6	107.1	110.2	113.1	113.9	115.1	116.6	121.8	121.4	119.8	113.6	104.9	96.75	86.89	79.38	70.11	64.02	59.40	61.44	57.36	41.63	30.96	25.16	20.77	16.65	13.50	10.88	9.610	9.942	12.67	46.62	221.7	756.0	1236	671.5	14.80	2.399	1.882	1.715	1.347	1.345	1.383	1.411	1.483	1.331	1.526	1.346	1.442	1.214	1.299	1.229	1.196	1.197	1.142	1.119	1.059
495.0	40.94	63.11	103.6	142.7	442.5	2130	1352	213.4	212.1	209.2	211.2	193.0	176.5	153.9	134.4	117.8	106.9	96.75	91.53	94.10	91.96	93.10	96.23	97.02	98.87	99.92	100.5	104.5	107.2	108.6	106.1	99.97	95.10	87.36	79.26	72.72	65.05	58.07	54.66	49.72	51.87	47.90	34.31	25.41	21.10	17.54	14.57	11.82	10.16	8.929	8.549	15.56	54.03	173.5	455.1	1365	890.4	20.01	2.243	1.653	1.481	1.462	1.414	1.379	1.321	1.121	1.228	1.244	1.297	1.144	1.148	1.217	1.051	1.275	1.067	1.037	1.162
500.0	44.50	56.78	115.8	125.8	214.6	1301	2372	304.3	196.5	195.4	191.8	176.1	166.3	142.8	125.9	106.0	96.42	88.80	83.92	84.70	85.15	83.19	87.54	87.87	88.54	90.50	90.63	94.43	98.39	98.38	97.00	92.40	88.52	80.68	72.87	66.78	60.37	54.80	49.56	45.46	44.31	47.41	39.50	26.59	21.04	17.91	15.81	12.44	10.55	9.228	8.267	9.204	17.31	43.54	108.9	609.2	1566	230.1	13.32	2.042	1.648	1.348	1.328	1.379	1.211	1.181	1.173	1.277	1.261	1.078	1.090	1.138	0.949	1.237	1.007	0.980	1.192
505.0	43.20	44.12	118.2	128.3	155.0	542.4	2639	888.5	177.5	181.9	175.3	163.8	152.5	133.2	114.0	96.49	87.32	80.45	75.97	78.02	76.61	77.89	77.94	79.85	81.00	82.88	82.96	86.43	88.23	88.56	89.55	83.46	81.13	74.31	67.78	61.82	55.75	51.51	46.47	41.73	39.00	41.66	41.95	29.68	21.54	18.19	15.83	13.21	11.26	10.04	8.804	7.820	9.139	14.80	29.25	149.6	864.5	1302	196.9	5.670	1.633	1.419	1.396	1.415	1.251	1.244	1.181	1.165	1.197	1.124	1.009	1.012	1.037	1.119	0.950	1.058	1.113
510.0	36.36	38.39	99.15	152.0	129.1	231.0	1435	2231	257.4	163.8	161.9	147.0	136.5	117.6	99.93	84.79	76.92	71.73	67.30	67.91	66.29	66.85	68.73	69.96	70.67	71.46	73.67	75.92	77.66	78.66	79.91	74.47	70.91	66.16	60.04	55.66	50.61	46.98	42.02	38.24	35.08	33.74	36.16	34.37	24.83	18.68	15.94	13.82	11.86	10.39	9.381	8.339	7.976	8.480	11.39	37.69	212.4	674.3	1002	426.7	13.33	1.550	1.535	1.300	1.260	1.155	1.163	1.062	1.142	1.019	1.028	0.971	1.003	0.980	0.975	0.971	0.954
515.0	35.26	36.36	68.87	158.7	132.2	141.2	453.4	2290	1326	153.4	142.7	132.5	121.4	104.1	87.97	72.96	66.57	61.84	60.41	58.81	57.65	58.82	57.19	60.37	59.88	61.09	62.86	65.48	65.64	67.21	69.05	65.37	60.70	58.20	52.37	49.07	44.93	40.79	37.84	34.06	31.19	28.47	28.01	31.99	28.78	20.51	15.97	13.42	11.81	10.45	9.697	9.001	7.871	7.334	7.427	12.65	51.00	154.2	366.4	1030	579.7	17.11	1.654	1.456	1.328	1.189	1.260	1.076	1.027	0.907	0.985	0.981	0.972	0.998	0.775	0.766	0.961
520.0	38.43	35.06	55.69	131.0	154.0	114.0	189.7	1318	2416	233.5	127.5	121.2	108.7	93.82	79.78	65.87	58.99	57.01	53.61	51.32	51.78	52.45	52.74	52.76	53.26	54.57	56.38	57.57	60.81	60.53	60.37	57.21	55.51	50.96	46.94	43.33	40.40	37.12	34.74	31.10	28.61	26.53	24.76	26.36	29.18	23.45	16.09	13.13	11.77	10.60	9.595	9.029	8.169	6.716	6.593	6.912	15.03	37.53	87.23	488.8	1069	214.0	9.007	1.575	1.290	1.156	1.190	0.956	0.846	0.904	0.834	0.928	1.064	0.858	0.729	0.801	0.856
525.0	35.06	31.95	50.55	101.8	176.9	109.6	123.0	507.7	2814	824.8	119.2	112.1	98.03	85.27	72.26	59.46	54.19	50.12	48.62	46.75	46.99	46.54	47.31	49.20	48.33	49.51	49.43	52.39	52.33	54.23	54.06	51.29	50.28	45.23	42.58	39.03	36.79	33.60	31.20	28.72	26.24	23.93	22.34	21.84	25.90	24.66	18.02	12.92	11.85	10.16	9.336	9.017	8.007	6.724	6.624	5.434	6.968	11.49	22.14	121.5	614.6	919.1	165.6	3.153	1.327	1.127	1.006	0.928	0.958	0.806	0.959	0.888	0.905	0.879	0.741	0.829	0.869
530.0	31.76	33.64	45.44	72.34	151.5	130.9	97.99	191.4	1512	2303	192.9	97.31	87.31	74.49	62.61	52.26	46.77	44.11	42.42	40.86	40.18	40.55	40.82	41.72	41.89	42.78	43.02	43.40	45.02	47.13	46.46	45.38	42.90	39.74	36.94	34.52	32.43	29.77	28.33	25.62	23.89	21.65	20.30	18.77	19.78	22.51	19.97	14.58	11.34	9.562	8.897	8.152	7.364	6.903	6.199	4.968	4.776	5.224	7.341	29.28	151.7	493.8	719.4	285.0	11.15	1.222	0.959	1.001	0.999	0.824	0.910	0.806	0.882	0.830	0.783	0.798	0.788
535.0	31.54	31.22	40.10	57.72	102.1	159.4	94.20	108.7	440.9	2424	1335	90.29	79.08	63.67	54.58	45.60	40.75	38.38	36.05	33.60	35.23	33.91	34.53	35.15	34.80	36.35	36.57	37.84	39.44	40.41	41.00	38.96	37.31	34.63	32.03	29.62	27.86	25.12	25.01	22.31	20.65	19.75	17.56	16.81	16.47	16.73	19.12	16.65	11.49	9.071	8.385	7.358	6.973	6.111	5.675	4.962	4.176	3.599	3.942	8.831	35.70	112.4	276.6	739.4	228.7	11.50	1.129	1.062	0.873	0.827	0.799	0.820	0.858	0.779	0.735	0.713	0.807
540.0	31.54	27.96	36.13	46.81	74.21	158.1	104.6	81.58	164.1	1332	2614	165.5	70.56	58.21	50.32	40.69	36.74	34.43	31.68	30.17	31.17	31.07	30.74	31.85	31.75	32.11	32.91	33.51	35.29	36.50	35.47	34.87	32.76	31.01	28.72	26.96	24.64	23.47	22.20	20.41	18.70	17.76	16.61	15.75	14.66	14.16	15.86	16.96	12.87	9.301	7.610	6.801	6.587	5.864	5.381	5.236	4.122	3.311	2.984	3.919	9.504	26.81	65.97	369.7	718.8	177.0	4.416	0.936	0.875	0.805	0.823	0.807	0.779	0.717	0.685	0.647	0.855
545.0	30.72	32.49	35.67	42.14	58.78	127.5	130.7	74.50	94.57	482.5	2958	745.4	62.53	52.15	45.60	36.34	33.84	30.59	28.64	27.74	27.63	27.86	27.39	28.38	29.55	28.94	29.54	30.71	31.48	31.58	31.46	30.50	29.58	27.80	26.09	24.06	22.65	21.76	19.55	18.40	16.98	16.05	15.03	14.10	13.43	12.35	12.72	15.05	14.12	9.509	7.499	6.602	6.009	5.597	5.062	4.821	4.305	3.323	2.933	2.740	3.825	7.503	16.43	93.06	459.7	636.3	30.71	1.639	1.028	0.829	0.894	0.714	0.776	0.770	0.739	0.678	0.731
550.0	28.66	25.27	32.34	40.67	48.92	81.64	143.7	81.76	71.81	164.2	1489	2144	138.1	45.67	38.96	32.58	28.58	26.85	25.42	24.14	23.45	23.92	24.71	24.14	25.15	24.74	25.32	26.35	26.78	27.04	27.29	26.78	24.87	24.00	22.04	20.71	19.73	18.31	17.28	15.90	15.16	14.26	13.52	12.61	11.81	10.79	10.58	11.00	12.59	10.97	8.101	6.413	5.441	5.111	4.768	4.289	4.039	3.474	2.790	2.549	2.388	3.121	5.081	22.19	115.8	367.4	486.2	131.4	8.527	0.875	0.812	0.787	0.719	0.630	0.738	0.763	0.658
555.0	29.59	24.78	28.20	36.73	38.73	53.11	117.8	112.7	59.75	83.17	409.6	2308	1223	46.82	33.86	28.72	25.65	22.30	21.38	20.38	20.47	20.84	20.63	19.86	21.80	21.20	21.35	21.35	21.95	22.98	22.47	22.16	21.35	20.20	18.36	16.81	16.34	15.18	14.66	13.89	12.79	12.39	11.51	10.90	10.17	9.360	9.056	8.838	9.754	10.65	9.200	6.273	5.003	4.770	4.357	4.022	3.398	3.384	2.914	2.459	2.150	2.108	2.516	6.081	26.87	83.88	207.0	526.8	199.8	6.702	0.819	0.746	0.645	0.816	0.787	0.752	0.672
560.0	34.83	25.15	26.31	33.47	38.85	43.30	76.40	134.6	62.69	58.56	136.5	1217	2420	119.9	29.85	25.87	22.34	20.39	19.24	17.96	18.07	18.08	17.83	17.80	18.10	18.77	19.48	18.17	19.43	20.06	20.71	19.64	18.24	17.23	16.22	14.67	14.33	13.41	13.03	11.76	11.95	11.28	10.63	9.726	9.371	8.487	8.127	7.571	7.120	8.796	9.248	6.580	5.062	4.253	3.888	3.516	3.222	2.894	2.913	2.521	2.005	1.831	1.888	2.463	7.127	19.80	50.15	284.6	510.1	33.12	2.245	0.756	0.802	0.767	0.717	0.692	0.719
565.0	33.37	25.28	30.50	29.62	31.61	34.60	54.56	128.9	75.13	51.64	68.74	416.6	2538	681.8	28.37	23.04	19.92	18.83	16.26	16.42	16.52	15.02	15.65	15.61	16.08	17.31	16.89	16.73	16.76	17.22	17.50	17.34	16.06	15.27	14.03	13.09	12.41	11.96	11.24	10.38	10.24	9.824	9.424	8.591	8.518	7.739	7.080	6.514	6.039	6.640	8.273	7.315	5.289	3.921	3.451	2.990	2.875	2.485	2.530	2.545	2.036	1.565	1.658	1.735	2.791	5.468	12.42	73.78	336.4	397.5	27.23	1.063	0.832	0.683	0.651	0.620	0.679
570.0	26.76	25.14	26.91	27.05	28.89	31.46	37.38	88.42	107.2	49.20	50.42	130.8	1147	1978	92.75	19.43	16.37	15.36	14.44	13.22	13.36	13.31	12.89	12.65	13.19	13.27	13.30	13.73	13.95	14.52	14.17	14.14	13.09	12.46	11.50	10.96	10.22	9.877	9.401	9.024	8.430	7.935	7.607	7.125	6.966	6.596	5.767	5.514	5.210	4.962	5.553	6.314	5.576	3.944	3.137	2.787	2.481	2.187	2.198	2.272	2.205	1.639	1.503	1.521	1.634	2.124	3.864	17.55	86.52	252.1	279.6	98.29	3.340	0.718	0.690	0.570	0.699
575.0	28.51	27.55	22.65	25.89	25.71	27.26	29.26	50.51	114.4	63.26	42.13	61.72	297.6	1782	962.6	19.88	13.98	13.14	11.69	11.11	11.23	10.72	10.40	10.22	9.988	10.59	10.01	10.90	11.06	11.11	10.81	10.85	10.76	9.945	9.299	8.456	8.088	7.980	7.401	7.381	6.200	6.219	5.967	5.891	5.310	5.324	4.923	4.452	3.973	3.782	3.674	4.645	5.268	4.279	2.771	2.360	2.136	1.914	1.815	1.712	1.810	1.859	1.544	1.367	1.390	1.453	1.931	4.715	20.29	57.88	132.4	321.3	32.61	1.620	0.752	0.679	0.627
580.0	29.22	27.12	24.70	22.43	22.18	24.92	25.52	34.66	97.62	87.78	42.21	44.57	93.40	826.8	1955	73.94	12.16	11.48	9.875	9.286	9.365	8.830	8.808	8.743	8.331	8.501	8.673	9.049	9.178	9.288	9.442	8.634	8.706	8.224	7.721	7.501	7.004	6.633	6.324	6.019	5.393	5.179	5.188	4.781	4.739	4.452	4.030	3.803	3.362	3.328	3.009	3.278	4.230	4.193	2.964	2.176	1.896	1.918	1.576	1.486	1.766	1.764	1.713	1.365	1.214	1.102	1.249	1.850	5.409	13.71	32.76	188.2	251.1	24.22	0.968	0.928	0.562
585.0	27.92	23.55	25.78	21.85	20.39	23.64	22.70	27.91	62.82	109.1	44.86	38.43	47.32	256.1	1954	524.4	10.70	10.04	8.304	8.041	7.811	7.728	7.394	7.194	7.690	7.525	7.229	7.497	8.111	7.923	7.816	7.106	7.374	6.515	6.705	6.138	5.966	5.351	5.546	5.258	4.702	4.447	4.389	4.048	3.643	3.574	3.655	3.143	2.944	2.749	2.585	2.435	3.047	3.503	3.410	2.221	1.882	1.606	1.329	1.300	1.453	1.565	1.908	1.527	1.204	1.005	1.206	1.237	2.124	3.856	8.169	50.85	211.9	184.1	16.78	0.747	0.586
590.0	29.81	25.76	24.24	20.78	19.50	20.89	19.55	23.06	37.12	99.73	68.21	36.31	35.39	78.28	828.4	1459	56.37	8.384	6.736	6.698	6.726	5.998	6.553	6.256	6.267	5.861	6.039	5.986	6.249	6.584	6.149	5.902	5.680	5.304	5.292	4.849	4.772	4.357	4.295	4.152	3.699	3.531	3.458	3.248	3.102	3.145	2.942	2.575	2.476	2.261	2.153	2.117	2.176	2.567	2.997	2.342	1.725	1.398	1.306	1.120	1.304	1.212	1.371	1.560	1.188	1.074	1.131	1.020	1.242	1.551	2.498	12.05	58.03	152.2	154.7	19.57	1.506
595.0	29.31	27.93	25.11	22.83	17.51	16.93	19.43	21.50	28.93	60.75	98.28	40.65	33.08	36.19	205.8	1279	644.8	9.072	6.666	5.619	5.482	5.364	5.095	5.020	5.252	4.498	4.713	4.784	5.269	4.994	4.944	4.917	4.566	4.064	3.973	4.185	3.515	3.600	3.233	3.349	3.158	2.903	2.818	2.871	2.545	2.494	2.338	2.145	1.945	1.829	1.754	1.800	1.657	1.787	2.193	2.238	1.920	1.436	1.132	0.986	1.087	0.986	1.011	1.275	1.325	1.258	1.036	1.000	0.880	0.987	1.144	3.465	13.47	35.86	92.49	158.7	27.98
600.0	29.23	27.05	20.60	22.50	18.05	14.67	19.88	22.65	24.17	42.42	99.56	51.53	29.16	25.55	58.95	569.6	1315	42.15	5.623	5.016	4.808	5.009	4.602	4.467	4.509	4.165	4.240	3.823	4.394	4.308	4.241	3.849	3.798	3.485	3.539	3.414	2.870	2.990	3.039	2.637	2.530	2.356	2.246	2.331	2.203	2.037	2.131	1.886	1.746	1.650	1.471	1.472	1.391	1.502	1.771	1.934	1.936	1.421	1.008	0.987	1.013	0.945	0.991	1.085	1.163	1.349	1.081	0.827	0.820	0.759	0.908	1.323	3.680	8.664	24.35	114.7	132.6
605.0	31.43	21.46	20.96	21.40	16.90	17.14	17.33	20.35	22.42	32.36	82.36	69.85	31.41	23.09	26.10	166.5	1370	308.5	5.565	4.385	4.007	4.201	3.892	4.090	3.720	3.359	3.938	3.640	3.866	3.719	3.647	3.374	3.399	3.150	2.895	3.014	2.486	2.602	2.514	2.243	2.246	2.224	1.941	2.045	1.801	1.737	1.817	1.678	1.692	1.539	1.242	1.387	1.355	1.252	1.349	1.471	1.887	1.525	1.096	1.002	0.907	0.970	0.971	0.857	0.942	1.111	1.117	0.764	0.729	0.720	0.793	0.879	1.329	2.483	6.021	33.36	120.2
610.0	26.67	22.19	20.55	18.57	17.27	15.06	15.82	19.74	20.39	28.72	53.85	88.01	40.51	22.51	18.57	46.12	607.5	919.1	38.14	4.239	3.815	3.483	3.338	3.320	3.482	3.181	3.102	3.020	3.032	3.205	3.133	2.974	3.006	2.720	2.591	2.492	2.155	2.265	1.969	2.043	1.800	1.775	1.741	1.751	1.532	1.578	1.482	1.362	1.358	1.292	1.143	1.088	1.154	0.980	1.227	1.166	1.517	1.622	1.418	0.922	0.860	0.849	0.904	0.792	0.881	0.985	1.029	1.025	0.707	0.750	0.761	0.734	0.786	1.075	1.873	8.008	34.08
615.0	24.83	22.58	21.82	17.57	15.55	16.20	15.36	19.15	21.16	27.69	35.83	74.25	61.00	23.10	16.06	18.53	148.6	918.6	448.2	5.030	3.565	3.204	3.076	3.043	2.959	2.720	2.622	2.536	2.739	2.675	2.715	2.441	2.476	2.423	2.280	1.991	1.970	1.852	1.654	1.577	1.628	1.534	1.634	1.552	1.399	1.406	1.132	1.337	1.163	1.054	1.027	0.888	0.919	0.871	0.898	0.926	1.083	1.189	1.437	1.026	0.863	0.792	0.867	0.700	0.782	0.866	0.838	1.050	1.060	0.793	0.758	0.656	0.724	0.726	0.933	2.281	8.102
620.0	26.80	18.98	21.97	18.05	16.80	16.41	16.90	17.22	20.38	24.20	30.49	54.57	76.95	25.16	15.28	11.62	40.19	443.3	925.8	23.73	3.410	2.723	2.777	2.679	2.595	2.626	2.338	2.426	2.543	2.266	2.388	2.217	2.203	2.256	2.212	1.777	1.775	1.661	1.553	1.482	1.447	1.285	1.483	1.319	1.380	1.318	1.263	1.155	0.968	0.948	0.848	0.865	0.747	0.878	0.858	0.785	0.917	0.997	1.247	1.158	0.955	0.676	0.793	0.693	0.713	0.755	0.730	0.886	1.130	0.930	0.799	0.657	0.725	0.641	0.720	1.102	2.244
625.0	26.51	19.48	20.18	19.68	17.32	15.31	13.78	17.88	20.66	24.15	29.81	41.13	76.72	33.09	14.94	10.45	15.74	132.0	1027	77.44	3.322	3.091	2.958	2.411	2.321	2.439	2.031	1.992	2.400	2.099	2.299	2.120	1.972	2.059	2.009	1.622	1.594	1.565	1.376	1.328	1.271	1.148	1.175	1.239	1.142	1.086	1.090	1.051	0.945	0.894	0.810	0.945	0.697	0.790	0.787	0.772	0.787	0.928	1.068	1.047	0.813	0.904	0.801	0.748	0.819	0.719	0.698	0.738	0.943	0.982	0.742	0.726	0.658	0.658	0.678	0.656	0.996
630.0	27.77	22.94	19.16	18.95	16.48	14.47	15.18	17.92	20.84	24.03	28.69	34.90	56.77	52.22	18.29	11.01	9.663	34.95	484.7	666.9	24.72	2.934	2.565	2.433	2.191	1.964	2.157	1.650	1.862	2.035	2.014	2.000	1.849	1.708	1.777	1.383	1.423	1.470	1.220	1.321	1.185	1.063	1.113	1.014	1.066	0.991	0.961	0.959	0.837	0.749	0.681	0.779	0.766	0.757	0.792	0.714	0.708	0.795	0.887	0.954	0.882	0.814	0.654	0.708	0.802	0.634	0.665	0.664	0.744	0.833	0.885	0.753	0.646	0.658	0.596	0.588	0.732
635.0	27.12	20.25	20.09	16.65	14.86	14.27	14.70	16.98	20.36	23.53	27.69	31.28	38.77	60.10	26.69	11.74	8.350	12.84	118.1	748.8	278.8	3.248	2.295	2.204	2.045	1.629	1.751	1.759	1.949	1.858	1.726	1.619	1.702	1.485	1.616	1.298	1.293	1.209	1.132	1.143	1.006	1.000	1.024	1.062	0.913	0.887	0.825	0.809	0.705	0.598	0.562	0.689	0.632	0.618	0.774	0.698	0.642	0.786	0.768	0.910	0.910	0.767	0.658	0.803	0.841	0.598	0.601	0.613	0.681	0.717	0.781	0.861	0.570	0.598	0.676	0.557	0.663
640.0	28.51	26.36	18.25	18.96	13.54	14.76	13.36	17.33	18.95	20.54	27.11	29.92	33.07	53.28	37.43	13.82	8.669	8.109	31.05	391.0	591.2	11.25	1.870	2.369	1.929	1.565	1.806	1.696	1.954	1.731	1.698	1.678	1.409	1.576	1.450	1.259	1.142	1.054	1.054	1.150	0.845	1.010	0.919	0.806	0.854	0.748	0.773	0.855	0.718	0.602	0.521	0.602	0.670	0.571	0.709	0.639	0.658	0.728	0.800	0.778	0.824	0.801	0.764	0.693	0.719	0.627	0.563	0.582	0.648	0.668	0.665	0.873	0.613	0.596	0.602	0.609	0.658
645.0	26.49	24.41	22.92	19.91	14.38	12.71	13.91	17.17	21.20	23.68	29.97	32.33	35.36	42.63	46.52	16.13	9.673	6.974	10.97	118.9	784.5	59.97	2.394	1.930	1.891	1.714	1.488	1.704	1.610	1.426	1.601	1.584	1.434	1.356	1.461	1.216	0.913	1.074	1.011	0.900	0.782	0.857	0.874	0.781	0.862	0.663	0.771	0.764	0.626	0.611	0.515	0.668	0.667	0.610	0.674	0.675	0.628	0.711	0.708	0.724	0.846	0.727	0.744	0.678	0.720	0.670	0.645	0.589	0.620	0.700	0.624	0.853	0.729	0.660	0.612	0.607	0.620
650.0	29.08	23.60	29.73	22.71	16.98	15.09	16.75	17.74	21.31	26.93	33.05	35.27	36.46	36.16	49.67	22.12	10.26	7.671	7.035	32.55	559.3	365.7	3.620	1.911	1.774	1.695	1.459	1.598	1.348	1.363	1.639	1.497	1.403	1.299	1.271	1.184	0.933	0.965	1.061	0.906	0.773	0.892	0.882	0.712	0.765	0.664	0.805	0.821	0.643	0.718	0.599	0.595	0.691	0.569	0.773	0.504	0.597	0.698	0.654	0.676	0.834	0.743	0.741	0.716	0.765	0.759	0.560	0.664	0.678	0.595	0.618	0.665	0.752	0.709	0.622	0.631	0.609
