Sample:	'1
File name:	t2025032807.FD3
Run date:	'14:35:04, 03/28/2025
Operator:	Administrator
Comment:	'

Instrument
Model:	F-2700 FL Spectrophotometer
Serial number:	23B8-004
ROM Version:	4J14000 07

Instrument parameters
Measurement type:	3-D scan
Data mode:	Fluorescence
EX  Start WL:	220.0 nm
EX  End WL:	600.0 nm
EX Sampling interval:	5.0 nm
EM  Start WL:	230.0 nm
EM  End WL:	650.0 nm
EM Sampling interval:	5.0 nm
Scan speed:	12000 nm/min
EX Slit:	5.0 nm
EM Slit:	5.0 nm
PMT Voltage:	700 V
Response:	Auto 
Corrected spectra:	Off
Contour interval:	50.000

Peak integration
Integration method:	Rectangular
Sensitivity:	1
Threshold:	1.000

Peaks
No.	ApexEX/EM(nm)	Height(Data)
1	225.0/540.0	47.61
2	230.0/500.0	232.1
3	230.0/545.0	37.23
4	235.0/515.0	194.8
5	240.0/265.0	443.0
6	240.0/525.0	169.0
7	245.0/270.0	428.6
8	245.0/535.0	142.6
9	250.0/275.0	574.3
10	250.0/550.0	128.3
11	255.0/565.0	152.9
12	270.0/300.0	6284
13	270.0/595.0	452.1
14	275.0/305.0	6300
15	300.0/335.0	460.0
16	305.0/345.0	397.9
17	310.0/350.0	333.6
18	315.0/355.0	322.2
19	320.0/360.0	313.9
20	325.0/370.0	285.2
21	330.0/375.0	279.6
22	335.0/380.0	277.6
23	345.0/395.0	214.1
24	350.0/400.0	208.5
25	360.0/415.0	151.3
26	365.0/420.0	148.5
27	370.0/425.0	129.1
28	380.0/440.0	96.63
29	395.0/460.0	56.43
30	400.0/305.0	7.681
31	400.0/465.0	47.95
32	415.0/485.0	28.17
33	430.0/505.0	17.70
34	435.0/510.0	14.46
35	440.0/520.0	12.79
36	445.0/305.0	9.858
37	445.0/525.0	10.91
38	455.0/540.0	7.220
39	460.0/545.0	6.055
40	470.0/560.0	3.805
41	480.0/575.0	2.171
42	485.0/265.0	2.165
43	495.0/270.0	1.995
44	505.0/275.0	3.438
45	545.0/300.0	26.21
46	550.0/305.0	26.38

Data points
	220.0	225.0	230.0	235.0	240.0	245.0	250.0	255.0	260.0	265.0	270.0	275.0	280.0	285.0	290.0	295.0	300.0	305.0	310.0	315.0	320.0	325.0	330.0	335.0	340.0	345.0	350.0	355.0	360.0	365.0	370.0	375.0	380.0	385.0	390.0	395.0	400.0	405.0	410.0	415.0	420.0	425.0	430.0	435.0	440.0	445.0	450.0	455.0	460.0	465.0	470.0	475.0	480.0	485.0	490.0	495.0	500.0	505.0	510.0	515.0	520.0	525.0	530.0	535.0	540.0	545.0	550.0	555.0	560.0	565.0	570.0	575.0	580.0	585.0	590.0	595.0	600.0
230.0	69.81	1358	2728	629.7	20.05	4.817	2.912	2.436	2.947	2.761	2.859	2.675	2.223	1.702	1.077	0.914	0.842	0.692	0.705	0.593	0.529	0.444	0.413	0.521	0.290	0.349	0.338	0.325	0.272	0.250	0.260	0.243	0.216	0.190	0.162	0.192	0.207	0.193	0.162	0.185	0.337	0.585	0.506	0.271	0.150	0.168	1.669	6.812	10.09	6.133	1.898	0.304	0.104	0.106	0.084	0.070	0.071	0.053	0.063	0.063	0.044	0.068	0.053	0.060	0.069	0.055	0.049	0.047	0.038	0.042	0.051	0.057	0.041	0.037	0.045	0.039	0.041
235.0	153.1	389.1	1820	2664	528.7	31.01	3.728	3.189	3.686	2.995	3.820	2.900	2.275	1.686	1.268	0.942	0.883	0.737	0.673	0.569	0.475	0.519	0.378	0.506	0.323	0.301	0.338	0.299	0.264	0.261	0.252	0.261	0.207	0.214	0.171	0.201	0.227	0.182	0.165	0.172	0.130	0.303	0.431	0.588	0.421	0.301	0.490	1.787	4.102	6.761	9.473	9.028	3.568	0.605	0.163	0.071	0.071	0.098	0.057	0.081	0.073	0.055	0.056	0.059	0.064	0.072	0.068	0.038	0.031	0.038	0.048	0.066	0.049	0.038	0.045	0.023	0.043
240.0	223.8	196.2	556.6	2462	2785	402.1	14.61	5.244	4.248	3.450	3.656	3.693	2.466	1.642	1.473	1.051	0.809	0.715	0.660	0.711	0.624	0.432	0.413	0.511	0.437	0.392	0.338	0.276	0.308	0.333	0.265	0.283	0.241	0.221	0.223	0.217	0.221	0.157	0.198	0.160	0.134	0.181	0.245	0.444	0.690	0.740	0.502	0.532	1.039	2.113	5.671	12.48	15.02	8.929	2.872	0.329	0.084	0.096	0.062	0.086	0.063	0.082	0.080	0.044	0.058	0.124	0.093	0.069	0.058	0.048	0.049	0.057	0.070	0.046	0.046	0.050	0.040
245.0	169.8	280.0	197.4	879.4	3313	2763	284.8	8.952	5.852	4.202	4.047	3.942	2.441	1.769	1.572	1.216	1.133	0.710	0.568	0.744	0.587	0.584	0.425	0.523	0.449	0.382	0.390	0.389	0.290	0.299	0.209	0.282	0.231	0.178	0.229	0.206	0.178	0.194	0.215	0.197	0.097	0.155	0.200	0.229	0.358	0.729	0.789	0.688	0.455	0.602	1.410	4.388	11.35	17.33	16.30	8.208	1.845	0.208	0.116	0.101	0.097	0.076	0.040	0.056	0.069	0.092	0.081	0.093	0.068	0.083	0.054	0.043	0.074	0.065	0.039	0.033	0.034
250.0	62.53	207.1	297.5	295.8	1102	3046	3568	1080	53.21	7.071	5.418	5.064	3.210	2.338	1.628	1.068	1.075	0.858	0.849	0.685	0.614	0.522	0.515	0.542	0.494	0.391	0.361	0.449	0.305	0.308	0.247	0.322	0.210	0.201	0.218	0.179	0.219	0.162	0.167	0.204	0.144	0.154	0.157	0.214	0.188	0.316	0.480	0.880	0.938	0.824	0.684	1.168	2.849	5.670	10.79	16.33	19.62	16.87	8.593	2.053	0.225	0.122	0.081	0.067	0.091	0.089	0.070	0.072	0.086	0.084	0.068	0.067	0.073	0.054	0.052	0.064	0.061
255.0	28.21	68.85	213.0	387.1	341.5	784.8	3003	5510	1478	47.62	7.656	6.388	4.352	2.867	2.168	1.377	1.486	1.301	1.114	0.829	0.694	0.767	0.644	0.512	0.587	0.467	0.474	0.397	0.370	0.377	0.240	0.280	0.278	0.272	0.269	0.236	0.209	0.206	0.213	0.217	0.191	0.156	0.157	0.217	0.155	0.166	0.201	0.323	0.505	0.909	1.383	1.349	1.048	1.410	2.594	3.986	7.357	17.55	30.93	26.94	13.24	2.182	0.187	0.137	0.128	0.125	0.060	0.057	0.087	0.066	0.077	0.070	0.057	0.074	0.066	0.082	0.107
260.0	18.82	27.75	81.51	342.0	369.4	229.6	923.0	4733	5903	270.6	22.39	8.057	4.766	3.539	2.460	1.665	1.617	1.415	1.000	0.839	0.772	0.796	0.666	0.533	0.479	0.614	0.431	0.417	0.377	0.350	0.268	0.297	0.277	0.272	0.268	0.320	0.201	0.227	0.270	0.185	0.166	0.197	0.242	0.173	0.131	0.189	0.159	0.174	0.176	0.377	0.869	1.876	1.817	1.029	0.827	1.049	1.843	4.694	13.57	29.32	39.87	24.83	9.440	1.011	0.173	0.150	0.129	0.101	0.097	0.137	0.092	0.101	0.096	0.050	0.071	0.055	0.106
265.0	21.45	19.38	27.88	163.5	443.0	255.3	244.2	1612	6468	5465	211.3	13.66	6.911	4.833	3.028	2.100	1.782	1.548	1.232	0.955	0.800	0.852	0.680	0.704	0.635	0.601	0.428	0.416	0.449	0.337	0.335	0.338	0.248	0.295	0.289	0.350	0.232	0.204	0.261	0.250	0.177	0.169	0.228	0.176	0.173	0.163	0.165	0.175	0.171	0.215	0.362	0.928	1.717	2.165	1.406	0.586	0.579	1.243	3.313	8.714	21.94	39.83	32.51	21.05	5.240	0.393	0.189	0.120	0.111	0.109	0.101	0.111	0.064	0.061	0.087	0.063	0.087
270.0	38.31	29.40	22.13	52.60	211.9	428.6	297.0	415.3	2073	5763	6718	847.2	48.87	7.163	4.365	2.855	2.054	1.881	1.408	1.269	0.979	0.830	0.854	0.683	0.742	0.681	0.520	0.428	0.431	0.429	0.379	0.439	0.311	0.363	0.336	0.370	0.248	0.288	0.242	0.270	0.223	0.226	0.199	0.227	0.236	0.224	0.186	0.201	0.177	0.156	0.197	0.363	0.650	1.072	1.825	1.995	1.786	0.962	1.043	2.207	5.353	11.51	19.49	33.51	34.18	35.07	14.42	5.069	0.495	0.168	0.137	0.102	0.083	0.103	0.090	0.121	0.088
275.0	156.9	114.0	68.58	50.54	80.73	210.4	574.3	390.3	609.4	1578	5093	9639	1182	52.29	7.532	4.179	3.009	2.387	1.835	1.558	1.122	0.931	0.874	0.603	0.611	0.675	0.624	0.573	0.537	0.591	0.387	0.492	0.405	0.506	0.424	0.504	0.483	0.471	0.414	0.477	0.434	0.443	0.511	0.438	0.550	0.543	0.417	0.415	0.325	0.241	0.222	0.263	0.309	0.428	0.664	1.042	2.142	3.438	2.322	1.349	1.757	3.259	5.125	8.643	11.41	26.63	51.67	58.16	22.94	5.586	0.445	0.195	0.157	0.119	0.137	0.162	0.127
280.0	534.6	393.8	250.0	158.8	118.9	152.8	459.2	857.7	444.3	954.3	2069	7883	9066	849.4	26.64	7.023	4.430	2.892	1.956	1.908	1.650	1.061	1.007	0.931	0.657	0.826	0.687	0.583	0.590	0.496	0.546	0.487	0.509	0.767	0.889	0.999	0.928	0.976	0.859	1.007	1.151	1.075	1.284	1.248	1.222	1.253	0.918	1.021	0.787	0.646	0.585	0.456	0.484	0.446	0.476	0.730	1.251	2.589	4.197	4.151	2.892	2.778	3.433	4.425	5.341	9.454	20.15	43.85	63.66	32.51	18.17	2.453	0.288	0.184	0.160	0.200	0.146
285.0	1268	980.9	642.8	401.3	258.1	228.7	403.9	1059	1424	1539	1939	3608	9467	7424	126.2	13.04	5.701	3.570	2.896	2.129	1.764	1.470	1.253	1.280	0.883	1.036	0.749	0.758	0.667	0.624	0.618	0.605	0.800	1.073	1.631	2.073	2.018	1.923	1.676	1.916	2.074	2.177	2.343	2.756	2.613	2.610	2.160	2.130	1.877	1.284	1.267	1.229	1.178	0.967	0.704	0.921	1.330	1.996	3.318	5.381	7.169	6.128	5.997	6.437	7.238	8.180	10.45	16.40	29.24	49.79	67.73	29.31	12.36	1.164	0.312	0.267	0.268
290.0	2520	2126	1430	870.1	524.8	417.0	605.9	1225	2329	3077	3485	3555	4268	7182	7004	1731	32.27	6.090	4.319	3.105	2.352	1.943	1.762	1.297	1.144	1.083	0.793	0.854	0.825	0.765	0.762	0.766	0.966	1.967	3.128	3.792	4.157	4.039	3.425	3.430	3.729	4.040	4.736	4.934	5.140	5.477	4.827	4.659	3.966	2.848	2.595	2.240	2.111	1.767	1.430	1.476	2.035	2.832	3.788	5.458	8.229	10.49	12.76	13.91	14.24	13.94	13.97	14.73	15.69	18.80	29.32	38.33	50.18	43.82	19.65	9.206	1.355
295.0	3617	3245	2302	1331	750.4	589.4	844.5	1528	2747	4420	5421	4796	3475	2621	4610	8784	710.2	30.78	6.622	4.312	3.343	2.510	1.900	1.510	1.489	1.208	0.987	0.924	1.028	0.895	0.854	0.820	1.584	2.855	4.691	5.816	6.426	5.466	4.837	4.654	5.154	5.912	6.202	7.316	7.420	7.937	7.273	7.148	6.468	4.729	3.815	3.795	3.080	2.257	2.052	2.230	2.893	3.669	5.230	6.627	9.084	11.75	15.15	20.06	23.32	21.38	20.36	19.85	17.33	14.14	13.43	12.67	14.31	22.83	47.71	67.96	30.90
300.0	4197	3831	2753	1523	860.3	678.6	937.4	1681	2944	4651	6284	5726	3670	1717	1451	6159	6005	540.6	14.41	6.053	4.338	2.916	2.765	1.652	1.709	1.342	1.052	0.889	0.916	0.981	0.813	0.925	1.421	3.109	5.407	6.714	7.432	6.267	5.428	5.085	5.722	6.698	7.328	8.301	8.402	9.123	8.368	8.804	7.137	5.695	4.302	4.143	3.313	2.761	2.290	2.504	3.069	4.091	5.518	7.205	9.411	12.59	15.84	20.29	23.70	26.21	24.86	22.76	18.75	14.89	11.19	7.681	5.490	6.564	14.65	36.37	62.33
305.0	4321	4009	2986	1631	897.7	687.7	945.8	1721	2942	4579	6158	6300	3936	1622	621.0	1830	6796	5063	77.91	8.946	5.247	3.874	3.001	2.023	2.082	1.484	1.471	1.152	1.059	0.993	0.913	0.947	1.582	2.940	5.374	7.199	7.681	6.969	5.849	5.227	5.710	6.796	7.230	8.716	8.947	9.858	9.057	9.260	7.904	5.845	4.582	4.311	3.405	2.682	2.350	2.498	3.351	4.083	5.499	7.646	9.792	12.90	15.49	20.14	22.49	25.23	26.38	26.12	20.42	16.09	11.18	6.580	3.820	2.866	4.242	9.360	21.60
310.0	4006	3764	2782	1505	836.6	637.3	875.7	1548	2655	4083	5370	5626	4112	1695	455.5	505.2	1937	5004	5468	1479	23.51	5.178	3.790	2.794	2.273	1.609	1.404	1.300	1.272	1.155	0.942	1.092	1.460	2.817	5.119	7.186	7.421	6.492	5.311	5.089	5.451	6.029	6.744	7.694	8.010	8.724	8.314	8.789	7.453	5.505	4.288	4.038	3.147	2.510	2.358	2.382	2.968	3.728	4.955	6.982	9.022	11.38	13.93	17.52	20.45	21.71	22.74	22.98	20.64	17.15	11.79	6.625	3.556	2.044	1.887	2.878	5.520
315.0	3394	3309	2383	1307	733.5	551.0	741.8	1287	2193	3376	4398	4518	3456	1883	499.7	224.6	489.0	1193	3388	7110	521.6	22.97	5.461	3.872	2.514	1.864	1.679	1.515	1.342	1.357	0.993	1.100	1.524	2.444	4.355	5.827	6.794	5.544	4.656	4.548	4.823	5.018	5.555	6.628	6.901	7.623	7.357	7.583	6.548	4.901	3.813	3.628	2.738	2.286	2.064	2.180	2.490	3.214	4.213	5.681	7.201	9.328	11.97	14.41	16.78	17.49	19.07	18.41	16.10	14.17	11.57	8.641	4.435	2.092	1.428	1.414	1.929
320.0	3021	2897	2094	1147	634.3	492.6	640.0	1102	1843	2826	3683	3782	2842	1686	723.7	202.8	182.0	312.7	893.3	4752	6213	425.3	11.48	4.722	3.107	2.374	2.135	1.587	1.362	1.409	1.009	0.915	1.495	2.321	3.730	5.335	5.702	4.709	3.885	4.047	4.112	4.367	4.833	5.440	6.267	6.539	6.638	6.814	5.777	4.395	3.397	3.052	2.481	2.221	1.744	1.830	2.207	2.984	3.785	4.877	6.201	7.943	10.08	12.14	14.65	14.82	15.71	15.58	13.47	11.41	8.944	7.493	5.818	3.601	1.803	1.134	1.108
325.0	2643	2612	1935	1058	582.7	436.9	554.6	921.9	1538	2350	3069	3166	2395	1328	823.6	346.9	129.8	125.6	239.7	1361	5633	3923	61.24	7.404	4.335	3.028	2.321	1.714	1.457	1.399	1.200	0.952	1.254	2.057	3.420	4.497	4.718	4.017	3.696	3.409	3.518	4.036	4.216	4.649	5.726	5.863	6.281	6.071	5.719	3.992	3.232	2.631	2.357	1.793	1.578	1.710	2.136	2.476	3.273	4.077	5.349	6.537	8.510	9.641	11.73	12.33	13.09	12.46	11.61	10.12	7.769	5.332	4.678	4.354	3.134	1.720	1.228
330.0	2158	2237	1707	974.4	520.2	384.7	468.1	754.4	1227	1839	2401	2485	1918	1047	592.3	518.6	273.8	103.9	104.6	343.2	1593	4038	4456	1197	18.76	4.162	3.012	2.276	1.588	1.537	1.360	1.078	1.214	1.821	2.871	3.718	3.980	3.333	2.918	2.803	2.951	3.164	3.516	3.930	4.436	4.938	5.216	5.419	4.863	3.554	2.852	2.496	2.204	1.593	1.423	1.535	1.778	2.136	2.660	3.183	4.241	5.257	6.610	7.779	9.518	9.687	10.19	9.883	9.386	7.994	6.307	4.203	3.327	2.896	2.990	3.153	2.719
335.0	1768	1878	1512	900.2	474.8	358.6	401.9	610.3	964.1	1413	1833	1920	1526	868.1	456.2	384.4	460.0	225.5	93.86	127.9	394.0	965.6	2972	5975	432.7	18.75	4.179	3.063	2.015	1.723	1.490	1.329	1.291	1.595	2.513	3.066	3.365	2.669	2.310	2.367	2.331	2.557	2.957	3.305	3.800	4.180	4.469	4.586	3.989	3.465	2.590	2.389	2.037	1.485	1.255	1.400	1.591	1.850	2.207	2.784	3.335	4.063	5.164	5.882	7.230	7.274	8.030	7.759	6.981	6.453	5.481	3.783	2.676	2.214	2.016	2.045	2.669
340.0	1509	1669	1361	832.9	478.1	346.9	373.0	530.7	808.5	1146	1491	1582	1272	773.0	425.1	307.8	379.7	392.1	142.4	90.77	136.0	252.4	798.1	4211	5106	357.2	8.783	3.693	2.488	2.030	1.888	1.376	1.155	1.497	2.338	2.640	2.934	2.308	1.911	1.883	1.982	2.324	2.392	2.731	3.105	3.771	3.874	4.149	3.975	3.211	2.384	2.263	1.917	1.496	1.368	1.263	1.485	1.914	2.025	2.499	2.774	3.585	4.167	4.872	5.713	6.068	6.291	6.381	5.875	5.395	4.553	3.433	2.437	2.020	1.812	1.555	1.883
345.0	1315	1442	1227	799.9	468.9	346.7	357.2	485.2	695.2	956.7	1240	1311	1083	687.4	405.5	293.4	273.2	397.9	273.5	105.8	88.70	102.1	213.4	1236	4875	3285	52.55	5.182	3.278	2.407	1.750	1.467	1.136	1.486	1.881	2.166	2.497	2.069	1.932	1.734	1.935	2.093	2.086	2.459	2.823	3.327	3.271	3.601	3.612	2.899	2.301	2.163	1.911	1.470	1.315	1.353	1.617	1.695	1.746	2.181	2.601	3.143	3.779	4.092	4.654	5.072	5.414	5.269	5.150	4.558	4.117	3.209	2.455	1.884	1.891	1.674	1.741
350.0	1078	1228	1079	743.0	481.0	357.3	343.0	421.7	576.6	779.4	971.3	1033	886.4	605.4	387.3	292.4	239.0	269.3	333.6	233.4	107.8	83.46	95.26	311.2	1417	3438	3618	947.5	16.13	3.262	2.306	1.661	1.396	1.289	1.575	1.861	1.988	1.838	1.585	1.556	1.519	1.738	1.877	2.021	2.205	2.717	2.808	2.962	3.069	2.575	2.088	1.972	1.873	1.438	1.413	1.344	1.479	1.542	1.650	1.916	2.171	2.571	2.920	3.218	3.766	3.967	4.343	4.413	4.304	3.954	3.470	2.737	2.244	1.866	1.717	1.636	1.576
355.0	867.2	1007	953.6	693.3	493.7	370.4	338.7	387.0	485.2	633.7	779.3	820.9	727.6	521.7	370.3	292.9	243.3	222.0	238.6	322.2	217.4	104.1	83.96	117.0	350.9	827.2	2541	4732	393.6	15.26	3.077	2.049	1.823	1.647	1.525	1.730	1.787	1.578	1.551	1.374	1.481	1.533	1.740	1.838	1.976	2.226	2.410	2.614	2.761	2.313	2.003	2.037	1.851	1.551	1.459	1.385	1.446	1.448	1.648	1.783	1.925	2.212	2.506	2.783	3.112	3.207	3.449	3.574	3.356	3.113	3.040	2.404	1.941	1.711	1.637	1.658	1.558
360.0	760.6	900.6	843.6	654.5	488.7	385.8	341.8	369.6	433.3	547.8	664.8	688.9	633.2	478.1	358.7	294.9	250.6	222.0	207.3	265.8	313.9	160.4	97.68	83.80	122.8	217.1	697.8	3613	3301	313.2	6.701	2.847	2.022	1.707	1.595	1.611	1.689	1.389	1.446	1.403	1.347	1.285	1.443	1.674	1.767	1.998	2.124	2.291	2.509	2.099	1.801	1.955	1.699	1.635	1.610	1.427	1.453	1.416	1.462	1.594	1.686	2.101	2.101	2.332	2.722	2.759	2.886	2.862	2.952	2.718	2.696	2.109	1.970	1.814	1.653	1.723	1.671
365.0	683.2	771.1	760.3	640.0	487.9	398.1	353.7	357.0	403.2	494.8	580.0	609.3	558.0	443.4	350.9	296.7	260.3	230.7	211.8	217.0	301.0	261.0	129.1	89.80	81.95	89.07	184.3	1098	4096	2955	47.77	4.323	2.536	2.016	1.786	1.634	1.626	1.520	1.387	1.209	1.157	1.246	1.359	1.412	1.487	1.811	1.837	2.065	2.181	1.974	1.782	1.915	1.764	1.690	1.623	1.580	1.530	1.500	1.461	1.533	1.563	1.983	1.966	2.180	2.269	2.338	2.563	2.378	2.604	2.380	2.391	1.931	1.889	1.841	1.513	1.671	1.467
370.0	599.9	685.0	696.3	592.6	494.6	413.6	360.8	353.3	382.1	437.9	501.9	529.2	488.6	403.3	335.1	292.9	267.3	244.5	226.4	211.3	232.2	285.2	231.8	124.9	89.94	73.17	78.51	272.3	1243	3244	3253	758.7	12.60	2.572	2.118	1.583	1.586	1.456	1.253	1.129	1.168	1.235	1.332	1.335	1.401	1.632	1.654	1.877	1.889	1.778	1.631	1.978	1.664	1.710	1.616	1.443	1.474	1.526	1.497	1.431	1.528	1.645	1.768	2.002	2.133	2.184	2.164	2.095	2.338	2.208	2.005	1.956	1.765	1.734	1.737	1.670	1.580
375.0	533.5	619.5	629.9	552.5	480.7	430.7	366.9	347.1	372.3	395.8	438.1	458.3	432.3	373.6	321.7	293.7	273.2	258.0	240.4	226.0	213.5	227.4	279.6	218.7	112.6	83.75	66.59	95.27	300.6	785.5	2471	3972	326.8	10.97	2.869	2.080	1.617	1.414	1.295	1.309	1.188	1.300	1.237	1.228	1.420	1.481	1.586	1.656	1.753	1.690	1.479	1.750	1.679	1.718	1.533	1.416	1.536	1.488	1.479	1.578	1.548	1.648	1.693	1.894	1.811	1.983	1.899	1.766	2.043	1.955	1.734	1.725	1.741	1.665	1.637	1.666	1.645
380.0	483.4	591.1	598.4	541.2	483.1	422.3	370.7	350.0	345.5	374.6	402.8	419.3	396.2	352.9	311.9	289.6	276.8	265.1	251.2	235.8	221.9	211.4	238.7	277.6	163.5	97.50	73.26	62.75	94.64	196.5	688.2	3179	2774	246.4	4.896	2.478	1.739	1.596	1.397	1.299	1.187	1.268	1.163	1.222	1.183	1.393	1.384	1.618	1.654	1.585	1.485	1.661	1.580	1.680	1.674	1.407	1.495	1.554	1.383	1.518	1.530	1.446	1.592	1.564	1.754	1.784	1.794	1.649	1.776	1.779	1.672	1.599	1.637	1.723	1.500	1.553	1.557
385.0	507.3	539.4	557.5	528.6	479.3	427.3	371.1	349.2	341.6	356.7	385.2	384.3	372.5	334.1	302.1	287.2	276.8	267.5	261.9	245.0	231.1	215.5	207.6	255.3	234.5	125.8	81.38	62.10	55.23	67.84	172.2	985.0	3320	2316	37.83	3.399	2.115	1.951	1.436	1.318	1.211	1.301	1.051	1.142	1.232	1.403	1.404	1.504	1.556	1.625	1.520	1.729	1.853	1.699	1.441	1.471	1.494	1.656	1.519	1.443	1.474	1.550	1.547	1.555	1.599	1.806	1.658	1.546	1.693	1.649	1.723	1.623	1.562	1.588	1.619	1.534	1.748
390.0	474.9	503.0	530.1	498.6	467.7	420.5	370.3	343.7	335.5	342.6	357.7	355.2	342.0	315.8	293.7	280.3	274.2	269.4	265.3	252.6	238.5	222.1	205.1	204.4	233.4	197.6	111.8	72.12	55.26	46.85	61.75	237.4	1004	2409	2297	161.3	10.44	2.294	1.684	1.372	1.350	1.225	1.148	1.043	1.290	1.264	1.314	1.460	1.596	1.542	1.428	1.649	1.740	1.761	1.551	1.653	1.534	1.482	1.513	1.405	1.427	1.378	1.492	1.372	1.476	1.604	1.447	1.548	1.514	1.544	1.641	1.490	1.536	1.479	1.508	1.674	1.665
395.0	453.7	468.4	502.7	479.5	446.3	408.5	362.0	340.8	327.6	328.4	334.6	328.1	321.0	300.6	280.7	270.0	268.1	266.1	264.1	253.7	241.0	230.5	210.4	190.8	186.9	214.1	178.7	95.30	64.81	50.34	42.66	73.50	238.7	582.7	1759	2369	267.2	9.202	2.235	1.721	1.514	1.352	1.174	1.161	1.288	1.402	1.267	1.404	1.398	1.408	1.471	1.676	1.740	1.568	1.677	1.526	1.479	1.629	1.549	1.290	1.454	1.571	1.489	1.295	1.437	1.585	1.514	1.372	1.372	1.472	1.460	1.454	1.440	1.449	1.562	1.751	1.551
400.0	429.8	454.1	490.6	478.1	435.3	398.2	363.2	337.2	325.4	316.0	322.6	321.0	305.1	292.0	271.9	265.8	264.2	263.9	261.1	254.0	241.2	229.6	212.5	188.8	173.1	180.1	208.5	132.5	73.69	56.41	43.70	41.30	70.32	142.9	490.0	2141	2219	203.5	4.221	1.957	1.602	1.395	1.196	1.217	1.260	1.279	1.246	1.442	1.354	1.359	1.424	1.527	1.614	1.636	1.466	1.588	1.372	1.457	1.459	1.386	1.411	1.403	1.517	1.351	1.447	1.498	1.270	1.367	1.378	1.367	1.331	1.407	1.451	1.456	1.544	1.404	1.437
405.0	402.9	459.5	462.6	446.4	431.1	405.1	366.9	338.2	320.4	311.0	321.1	307.8	294.1	278.0	263.0	260.0	257.7	258.0	258.9	253.0	242.4	230.3	214.1	190.2	170.9	159.7	183.7	177.8	97.16	62.10	47.86	36.38	35.07	45.37	120.4	663.5	2402	1809	33.44	2.603	1.628	1.496	1.289	1.296	1.257	1.214	1.244	1.395	1.339	1.319	1.406	1.534	1.585	1.782	1.467	1.368	1.527	1.478	1.408	1.411	1.425	1.499	1.432	1.372	1.324	1.299	1.432	1.165	1.285	1.426	1.540	1.300	1.293	1.469	1.498	1.425	1.483
410.0	405.1	438.7	452.1	441.3	423.9	390.2	364.3	333.8	314.1	303.5	299.6	296.9	282.5	264.4	251.4	249.1	250.4	249.0	249.9	245.3	234.9	224.8	211.0	189.3	172.1	153.5	149.2	166.0	148.4	86.02	54.76	41.61	32.14	27.93	39.00	158.1	711.5	1738	1727	150.7	9.064	1.830	1.499	1.370	1.347	1.290	1.183	1.314	1.417	1.332	1.258	1.596	1.576	1.570	1.522	1.469	1.467	1.465	1.359	1.334	1.327	1.307	1.326	1.366	1.260	1.302	1.321	1.243	1.328	1.334	1.280	1.334	1.298	1.356	1.384	1.398	1.431
415.0	373.5	413.7	437.8	422.7	406.6	374.4	344.0	326.8	305.6	291.2	287.8	280.1	267.7	250.6	241.9	238.6	236.5	237.3	239.8	233.2	226.0	215.2	204.2	188.0	167.9	150.0	137.7	130.7	151.3	135.0	72.08	47.58	35.42	26.82	23.63	45.93	166.2	417.7	1243	1974	236.6	7.869	1.894	1.471	1.415	1.261	1.184	1.322	1.372	1.316	1.232	1.541	1.668	1.541	1.489	1.375	1.402	1.334	1.283	1.270	1.429	1.343	1.364	1.236	1.289	1.237	1.239	1.315	1.262	1.140	1.101	1.212	1.171	1.196	1.158	1.271	1.434
420.0	365.2	381.3	410.9	410.9	406.5	368.5	341.7	321.6	300.5	292.6	286.0	275.3	254.7	238.7	227.5	228.1	226.5	225.8	227.6	223.6	215.7	208.4	196.8	181.4	162.7	150.4	133.9	119.2	125.4	148.5	101.7	55.45	38.90	28.91	22.30	22.66	46.12	100.2	340.6	1546	1723	182.8	3.595	1.822	1.414	1.401	1.276	1.379	1.296	1.270	1.145	1.340	1.490	1.459	1.385	1.420	1.377	1.273	1.282	1.246	1.493	1.324	1.274	1.136	1.427	1.266	1.121	1.211	1.183	1.211	1.045	1.292	1.209	1.182	1.257	1.296	1.312
425.0	348.1	370.4	389.8	398.5	392.6	351.3	339.4	313.0	287.7	283.0	284.0	267.9	246.7	231.3	221.5	220.3	219.8	218.3	220.0	215.1	209.6	200.4	190.8	177.8	160.9	148.7	132.4	115.1	108.3	128.6	129.1	71.37	42.49	31.14	23.30	18.96	19.95	30.02	82.64	466.2	1698	1370	31.09	2.467	1.524	1.515	1.321	1.312	1.323	1.088	1.228	1.372	1.430	1.419	1.444	1.422	1.372	1.236	1.518	1.344	1.298	1.272	1.311	1.124	1.255	1.203	1.017	1.151	1.067	1.191	1.047	1.264	1.102	1.457	1.180	1.211	1.289
430.0	455.0	355.9	378.1	393.1	377.5	351.4	333.7	304.2	290.2	275.3	268.0	255.1	238.7	226.4	210.5	209.3	207.9	205.1	206.3	202.7	194.8	187.3	180.5	167.2	156.3	144.2	130.2	115.8	103.5	102.1	115.0	102.9	59.23	36.07	26.47	20.68	16.60	15.82	25.33	110.1	489.4	1228	1291	139.7	9.110	1.778	1.383	1.429	1.253	1.143	1.169	1.394	1.385	1.525	1.331	1.407	1.446	1.178	1.380	1.319	1.284	1.276	1.254	1.087	1.195	1.206	1.013	1.062	1.072	1.085	0.989	1.075	1.051	1.203	1.088	1.119	1.186
435.0	1011	382.6	370.8	374.5	363.9	344.7	326.6	300.2	283.8	271.7	255.0	244.3	229.4	216.8	199.2	197.8	194.7	191.4	190.8	189.4	182.7	175.4	168.8	159.8	150.1	139.1	128.0	113.6	103.3	94.28	90.34	100.7	88.42	47.42	30.55	23.27	17.79	14.90	13.79	30.37	114.1	291.4	870.4	1604	230.2	9.948	1.626	1.602	1.397	1.134	1.133	1.316	1.338	1.385	1.331	1.216	1.412	1.247	1.489	1.422	1.337	1.277	1.207	1.159	1.192	1.125	1.101	1.124	1.214	1.077	1.072	1.073	1.035	0.944	0.893	1.269	1.193
440.0	1562	505.3	353.8	365.7	349.6	327.0	322.8	288.1	275.5	255.4	255.4	236.9	220.3	207.4	192.4	188.9	185.7	183.8	184.5	178.9	171.1	166.9	159.3	152.2	143.4	134.2	122.8	111.9	102.8	91.93	82.04	81.88	96.63	66.52	35.35	25.16	19.22	15.64	12.52	13.58	31.08	69.68	233.6	1189	1540	187.2	4.491	1.637	1.309	1.347	1.152	1.426	1.410	1.281	1.430	1.223	1.285	1.278	1.429	1.238	1.171	1.307	1.232	1.155	1.198	1.180	1.047	1.161	1.094	1.067	1.099	1.038	1.002	0.995	1.113	1.217	1.236
445.0	1775	897.5	345.7	339.8	323.5	322.3	306.0	294.1	269.8	254.8	243.5	230.4	211.2	198.6	181.4	180.6	178.3	174.3	174.0	170.4	162.9	159.5	153.1	143.6	137.3	129.5	118.8	109.1	100.4	90.88	79.54	70.94	81.83	81.80	44.91	26.84	20.68	16.15	12.66	10.85	12.88	20.45	56.89	346.2	1398	1334	28.27	2.615	1.475	1.246	1.233	1.375	1.479	1.340	1.381	1.328	1.352	1.194	1.259	1.154	1.181	1.151	1.110	1.209	1.170	1.162	0.997	1.029	1.081	0.993	0.966	1.037	1.043	0.965	1.006	1.027	1.160
450.0	1122	1761	526.8	312.6	311.4	298.5	280.3	271.7	253.9	239.8	233.0	217.8	198.9	185.3	170.8	166.2	164.4	160.1	158.9	153.1	148.1	144.2	140.2	133.2	126.8	119.4	111.5	103.7	95.32	87.68	76.10	66.22	63.24	69.62	64.04	36.87	22.83	17.23	13.92	11.38	10.07	9.688	17.22	81.39	388.8	1055	1217	385.6	8.900	1.488	1.269	1.302	1.306	1.291	1.277	1.264	1.281	1.191	1.256	1.122	1.126	1.107	1.058	1.044	1.184	1.008	0.915	0.938	0.979	0.875	0.913	0.923	0.844	1.004	0.917	0.938	0.998
455.0	468.9	1733	1192	304.5	282.4	268.9	266.6	250.8	238.9	226.8	214.6	202.8	184.4	169.9	155.1	152.4	147.0	146.1	143.2	139.6	135.0	129.7	125.5	119.4	114.5	107.9	103.6	94.88	88.60	82.46	72.29	62.80	54.97	52.10	58.69	54.89	29.56	18.58	15.08	12.07	9.481	8.024	8.461	22.10	90.20	245.4	647.7	1421	202.1	10.65	1.534	1.352	1.316	1.286	1.315	1.158	1.349	1.067	1.112	1.008	1.104	0.934	0.999	1.007	0.999	0.775	0.890	0.868	0.902	0.952	0.966	0.867	0.876	0.876	0.887	0.886	0.934
460.0	274.9	1100	1939	439.1	257.3	259.2	246.4	233.4	223.5	218.5	199.4	195.1	175.0	159.2	145.2	141.6	136.1	135.8	132.2	125.3	122.3	118.5	114.7	107.9	106.3	99.51	94.34	90.22	82.43	76.78	71.16	60.74	51.17	45.81	45.83	56.43	39.93	21.15	15.31	12.36	9.869	8.481	7.215	9.345	23.90	58.14	163.0	864.5	1236	161.3	6.124	1.718	1.397	1.237	1.283	1.105	1.250	0.948	1.061	1.128	1.097	0.967	0.945	0.953	0.814	0.807	0.849	0.785	0.829	0.750	0.836	0.813	0.824	0.708	0.754	0.937	0.829
465.0	228.2	516.6	2163	840.6	247.7	239.5	225.2	224.4	212.5	201.4	187.0	178.5	162.0	146.2	135.9	128.7	124.8	123.8	121.0	116.1	110.4	107.6	105.1	98.98	97.53	92.39	86.70	84.00	78.83	72.30	66.92	57.22	49.00	42.33	38.41	45.58	47.95	28.51	16.39	12.59	10.61	8.444	7.241	6.579	8.936	16.34	39.62	232.8	976.2	1065	129.8	3.483	1.513	1.254	1.196	1.142	1.117	0.996	1.031	0.971	1.018	0.995	0.889	0.937	0.879	0.818	0.821	0.829	0.810	0.706	0.737	0.741	0.800	0.822	0.739	0.841	0.798
470.0	236.9	273.6	1240	1817	423.2	211.3	205.0	198.2	188.8	182.7	174.4	162.0	145.6	131.6	122.9	115.1	111.2	109.0	105.9	101.4	97.76	95.30	91.08	87.79	85.63	81.91	78.34	74.67	70.39	66.25	60.79	52.61	46.21	39.34	33.98	32.50	39.52	37.39	22.43	13.54	10.68	8.703	7.259	6.293	6.086	7.099	11.85	54.81	258.1	703.4	880.6	354.0	10.92	1.381	1.229	1.023	1.107	0.935	0.993	0.947	0.882	0.979	0.873	0.897	0.807	0.786	0.758	0.725	0.737	0.673	0.675	0.619	0.641	0.751	0.723	0.641	0.807
475.0	271.4	202.9	460.0	1828	1233	201.1	188.5	173.0	172.2	161.6	157.6	146.3	128.2	117.7	107.9	100.6	98.05	96.01	94.04	88.60	83.74	81.50	80.06	75.29	73.28	71.39	69.07	65.18	62.65	59.68	54.98	47.93	41.44	35.85	30.54	27.18	26.57	33.11	31.75	17.69	11.04	9.125	7.224	6.652	5.967	5.220	5.660	14.93	59.69	160.5	360.6	928.8	210.5	14.66	1.316	1.042	0.925	0.983	0.860	0.866	0.799	0.859	0.742	0.696	0.694	0.770	0.749	0.732	0.623	0.647	0.624	0.604	0.586	0.680	0.665	0.522	0.732
480.0	270.7	201.9	235.0	1113	2014	357.7	167.2	162.8	158.1	147.0	144.8	133.3	119.9	107.7	99.41	94.10	90.48	86.90	85.27	80.87	76.71	75.10	71.52	68.86	66.60	65.23	61.38	60.38	57.15	53.76	49.26	44.68	39.54	34.00	28.39	24.64	23.05	25.12	31.53	23.89	12.86	9.093	7.495	6.285	5.829	5.188	4.421	5.976	15.54	37.77	86.48	446.4	929.6	199.2	9.012	1.327	0.965	0.928	0.928	0.746	0.834	0.911	0.674	0.756	0.693	0.674	0.782	0.721	0.580	0.582	0.508	0.595	0.627	0.579	0.618	0.555	0.571
485.0	239.5	233.5	179.4	500.4	2141	605.5	157.2	152.6	144.2	138.9	133.3	125.5	110.4	102.6	91.46	87.61	83.86	80.91	77.79	74.26	69.79	67.82	66.46	62.95	61.43	60.95	56.54	55.22	53.27	49.84	46.20	42.28	37.45	32.81	27.35	24.68	21.32	20.23	24.97	28.17	17.07	9.358	7.572	6.601	5.811	5.111	4.501	4.035	5.561	10.37	21.29	112.1	599.9	903.3	159.6	4.106	1.071	1.006	0.943	0.708	0.770	0.782	0.696	0.713	0.676	0.560	0.663	0.620	0.590	0.571	0.513	0.627	0.528	0.581	0.568	0.629	0.547
490.0	156.4	263.1	181.3	222.6	1224	1802	311.9	137.8	133.0	129.7	120.4	115.8	103.4	92.02	82.54	78.89	75.36	72.44	70.22	65.61	62.38	60.94	59.05	55.70	54.54	52.93	51.35	49.90	49.03	46.33	43.37	39.71	34.33	29.82	26.17	22.96	19.49	17.57	18.07	22.89	22.81	13.61	7.871	6.560	5.653	4.870	4.627	3.747	3.694	4.296	6.524	26.75	149.8	474.7	765.3	371.7	13.41	1.275	0.977	0.786	0.816	0.755	0.743	0.639	0.686	0.605	0.641	0.610	0.537	0.529	0.463	0.511	0.498	0.575	0.460	0.503	0.517
495.0	123.1	211.2	216.1	152.8	414.9	1836	1176	132.9	122.3	114.4	110.4	106.6	90.94	84.20	77.00	70.60	68.42	63.43	63.75	58.35	55.03	53.72	52.09	50.68	47.67	48.01	45.70	44.02	42.89	41.34	39.08	35.73	30.86	27.58	23.72	21.65	18.70	16.38	15.00	15.19	20.03	19.83	11.10	6.829	5.923	4.921	4.396	4.057	3.649	2.925	3.259	7.722	35.05	107.9	294.2	855.1	556.4	18.85	1.228	0.879	0.760	0.773	0.715	0.578	0.584	0.489	0.531	0.561	0.473	0.566	0.439	0.365	0.503	0.573	0.490	0.482	0.416
500.0	104.4	160.9	232.1	141.3	182.4	1093	2005	257.3	115.1	103.7	98.88	94.31	83.45	77.07	67.80	64.77	59.94	57.60	56.44	53.46	49.19	47.95	47.59	44.38	42.59	41.74	40.30	39.61	38.69	37.83	35.18	32.32	28.59	25.48	21.75	19.69	17.43	15.25	13.21	12.64	14.77	19.49	14.99	7.673	5.736	4.718	4.408	3.880	3.812	2.935	2.598	3.347	9.352	25.54	69.42	369.9	960.5	226.6	12.31	1.025	0.829	0.632	0.675	0.624	0.625	0.528	0.579	0.451	0.377	0.595	0.389	0.411	0.444	0.405	0.423	0.418	0.487
505.0	87.41	106.0	217.0	156.3	121.2	452.8	2170	753.0	103.4	96.70	90.93	85.20	76.16	69.27	60.67	58.77	55.19	51.55	50.79	47.58	44.24	42.77	42.18	40.21	38.72	37.70	36.92	36.33	34.59	33.79	31.79	30.11	26.26	23.45	20.42	18.59	15.75	14.08	12.12	11.09	11.02	15.80	17.70	10.54	6.091	4.607	4.123	3.602	3.419	3.408	2.631	2.446	3.634	7.183	16.93	89.58	495.5	886.3	188.9	5.735	0.797	0.654	0.633	0.679	0.538	0.467	0.520	0.410	0.382	0.445	0.431	0.399	0.387	0.444	0.381	0.355	0.415
510.0	77.54	83.07	154.2	189.2	108.7	177.7	1209	1808	214.1	87.29	81.33	73.69	65.05	59.87	53.61	51.54	48.11	45.73	43.88	41.32	38.77	36.29	36.07	35.04	33.07	32.57	32.10	31.25	30.63	29.52	27.54	26.52	23.92	21.11	18.59	16.79	14.49	12.72	11.06	9.990	9.039	10.19	13.88	14.46	8.618	4.860	4.141	3.533	3.153	3.158	2.841	2.303	2.359	2.967	5.199	21.55	119.5	409.5	649.6	315.1	13.76	0.919	0.641	0.648	0.520	0.518	0.460	0.471	0.406	0.417	0.343	0.351	0.331	0.345	0.365	0.351	0.387
515.0	68.30	72.58	94.85	194.8	126.8	97.31	375.5	1902	992.5	87.59	68.61	65.89	58.89	52.31	45.81	43.48	40.96	39.75	38.07	35.04	32.62	31.25	30.99	29.48	28.41	27.63	27.77	26.37	25.66	25.64	24.25	23.05	20.67	18.24	16.77	14.61	13.27	11.46	9.946	8.998	7.539	7.437	8.617	12.79	12.65	6.637	4.077	3.437	2.980	2.780	2.730	2.701	2.124	2.100	2.607	6.193	27.89	92.88	212.8	636.3	241.1	18.88	0.946	0.574	0.514	0.443	0.414	0.386	0.374	0.360	0.318	0.338	0.295	0.343	0.313	0.282	0.296
520.0	61.73	65.84	73.41	153.9	152.3	81.16	140.8	1139	1896	184.6	63.39	58.60	52.03	48.20	40.82	37.82	36.94	35.22	32.84	31.27	29.40	28.41	26.34	25.69	25.96	24.93	24.43	24.00	22.53	23.09	22.03	20.81	18.19	16.68	14.77	13.15	11.62	10.79	9.629	8.294	7.226	6.677	6.343	8.703	12.79	9.401	4.793	3.074	2.861	2.484	2.292	2.438	2.386	1.803	1.909	2.672	7.249	21.93	49.45	256.3	654.0	220.8	11.93	0.694	0.617	0.485	0.413	0.324	0.319	0.352	0.330	0.268	0.349	0.300	0.297	0.251	0.309
525.0	53.23	52.20	58.76	109.7	169.0	77.66	81.26	451.5	2213	618.7	60.00	52.73	49.08	43.55	39.25	35.40	33.38	31.49	29.97	27.91	25.57	25.51	24.31	22.78	22.81	22.51	21.56	21.75	20.73	20.99	19.96	18.45	16.58	14.71	13.52	12.36	10.70	9.258	8.616	7.918	6.587	5.744	5.529	6.347	9.949	10.91	6.063	3.404	2.768	2.368	2.250	2.108	2.407	2.023	1.696	1.599	2.646	5.989	12.08	61.19	326.5	632.3	177.1	4.417	0.541	0.410	0.397	0.422	0.315	0.348	0.271	0.235	0.284	0.263	0.244	0.252	0.325
530.0	48.26	49.44	51.15	65.95	151.3	110.5	61.64	152.8	1277	1702	154.4	49.04	44.01	37.23	32.33	30.72	28.70	27.63	25.89	24.45	22.54	21.26	21.11	19.70	19.21	18.95	18.44	18.29	17.99	17.92	16.87	15.74	14.80	13.16	11.80	10.72	9.207	8.556	7.638	6.980	6.135	5.459	4.976	4.765	6.398	9.081	8.523	4.808	2.798	2.299	1.986	1.879	1.923	2.172	1.823	1.430	1.661	2.322	3.510	14.48	78.06	280.2	476.8	235.4	13.22	0.682	0.389	0.403	0.302	0.283	0.266	0.271	0.204	0.243	0.252	0.226	0.271
535.0	39.26	44.91	38.88	46.34	91.13	142.6	62.74	72.08	377.9	1913	862.8	47.36	37.76	32.61	28.68	26.09	24.25	23.79	21.93	20.36	18.55	18.33	17.42	16.17	16.37	15.65	15.67	15.07	15.17	15.14	14.25	13.54	12.61	10.84	10.15	8.877	8.233	7.597	6.603	5.776	5.323	4.967	4.274	4.182	4.360	5.557	7.755	6.990	3.513	2.060	1.819	1.687	1.567	1.701	1.995	1.653	1.414	1.308	1.612	3.908	18.09	63.31	149.8	453.8	235.6	17.14	0.600	0.434	0.319	0.283	0.262	0.258	0.215	0.261	0.248	0.246	0.218
540.0	31.88	47.61	29.56	38.79	56.75	142.3	80.33	52.72	122.5	1147	1739	107.1	33.34	28.98	24.18	23.06	22.71	21.16	19.32	17.91	16.12	15.50	15.34	14.53	14.19	13.68	13.79	13.89	13.37	12.98	12.78	11.77	10.75	10.08	9.085	7.708	7.219	6.493	5.814	5.349	4.919	4.120	3.732	3.604	3.501	3.564	5.696	7.220	4.756	2.303	1.729	1.504	1.406	1.503	1.642	1.967	1.234	1.015	1.028	1.511	4.591	14.76	34.72	178.5	478.4	203.9	9.810	0.479	0.381	0.334	0.281	0.256	0.198	0.283	0.242	0.182	0.189
545.0	34.85	35.96	37.23	35.88	41.36	112.6	108.9	46.60	59.64	436.9	2083	226.7	29.90	23.98	22.17	20.67	18.96	18.60	17.11	15.85	14.85	13.82	13.93	12.32	12.59	12.22	11.85	11.79	11.41	11.49	11.05	10.62	9.285	8.636	8.067	6.900	6.483	5.502	5.278	4.881	4.343	3.609	3.552	3.301	2.873	2.942	3.630	5.904	6.055	3.145	1.606	1.372	1.309	1.516	1.294	1.708	1.592	1.070	0.786	0.911	1.491	3.820	8.302	42.37	227.8	464.0	144.3	3.274	0.364	0.291	0.253	0.216	0.195	0.232	0.193	0.171	0.171
550.0	39.14	33.56	36.43	31.16	31.63	63.03	128.3	57.96	43.90	137.2	1186	1342	89.07	21.60	18.65	17.26	16.44	15.09	13.94	13.10	12.03	11.36	11.12	10.51	10.72	9.767	9.773	9.702	9.279	9.280	9.019	8.682	7.452	7.217	6.797	5.772	5.593	4.665	4.435	3.973	3.715	3.092	2.929	2.767	2.585	2.393	2.456	3.368	5.091	4.396	2.308	1.291	1.188	1.145	1.082	1.101	1.376	1.424	0.914	0.787	0.816	1.291	2.324	10.02	53.89	196.2	328.4	136.5	12.29	0.481	0.277	0.202	0.219	0.197	0.174	0.195	0.188
555.0	44.82	41.09	36.18	30.60	27.60	38.77	109.8	102.2	49.79	83.22	369.5	1671	563.3	21.71	15.23	15.06	13.32	12.05	11.97	10.45	9.782	9.598	8.622	8.116	8.145	8.100	8.118	7.547	7.806	7.684	7.312	6.803	5.996	5.662	5.326	4.828	4.468	4.131	3.652	3.312	3.059	2.596	2.456	2.504	2.115	1.969	1.910	2.004	3.075	4.160	3.402	1.679	1.032	1.011	0.825	0.855	0.860	1.107	1.313	0.765	0.636	0.674	1.058	2.766	12.48	44.34	100.4	286.4	208.9	15.48	0.391	0.243	0.214	0.165	0.158	0.144	0.192
560.0	66.90	56.06	46.95	35.58	28.52	32.44	79.03	137.6	75.88	93.24	169.5	1058	1283	58.77	15.05	12.54	10.79	10.17	10.28	9.448	8.508	8.016	7.182	7.081	6.857	6.838	6.795	6.646	6.528	6.629	6.260	6.066	5.633	4.988	4.499	4.240	3.687	3.516	3.281	2.831	2.760	2.259	2.283	2.150	1.824	1.636	1.630	1.628	1.806	3.071	3.805	2.387	1.077	0.839	0.767	0.737	0.699	0.838	1.325	0.964	0.648	0.631	0.650	1.238	3.457	10.50	23.27	109.1	313.6	156.6	7.111	0.257	0.254	0.146	0.143	0.168	0.147
565.0	99.10	82.51	58.65	40.55	34.97	33.25	56.73	152.9	118.1	122.5	152.9	463.6	1686	155.4	13.83	10.85	8.924	9.141	9.029	7.442	7.267	7.020	6.678	6.211	5.850	5.944	5.674	5.852	5.478	5.485	5.404	4.912	4.479	4.177	3.975	3.448	3.386	2.960	2.872	2.407	2.483	2.210	1.949	1.955	1.641	1.647	1.493	1.422	1.198	1.917	3.132	2.799	1.569	0.871	0.672	0.686	0.634	0.724	1.027	1.145	0.887	0.680	0.780	0.968	1.388	2.994	5.861	26.01	140.1	293.0	33.93	2.463	0.242	0.151	0.205	0.155	0.089
570.0	153.8	122.6	88.94	60.87	41.68	33.98	50.30	134.5	188.8	179.6	204.9	262.7	1050	955.8	48.87	9.379	7.858	7.309	7.014	6.289	5.989	5.559	5.583	5.254	4.717	4.741	4.830	4.823	4.549	4.527	4.342	3.827	3.591	3.484	3.342	3.024	2.808	2.472	2.348	2.157	2.139	1.939	1.801	1.728	1.495	1.523	1.337	1.251	1.150	1.227	1.809	2.586	2.155	1.115	0.635	0.643	0.646	0.684	0.772	1.057	1.262	0.982	0.857	1.004	1.175	1.493	2.239	6.643	33.41	119.9	188.6	105.0	10.31	0.261	0.193	0.145	0.110
575.0	209.7	173.9	127.7	76.82	52.49	42.48	56.68	113.6	239.8	253.9	273.5	266.0	393.6	1299	337.5	10.18	6.431	6.110	5.717	5.229	4.850	4.242	4.482	4.118	3.729	3.558	3.436	3.725	3.557	3.482	3.675	3.111	2.911	2.866	2.644	2.661	2.343	2.178	2.184	2.078	1.737	1.673	1.604	1.621	1.272	1.329	1.210	1.101	1.068	1.006	1.009	1.726	2.171	1.545	0.785	0.686	0.545	0.608	0.715	0.882	0.962	1.517	1.200	1.293	1.520	1.443	1.588	2.451	8.318	27.42	58.08	178.5	136.5	10.70	0.213	0.164	0.122
580.0	241.4	203.6	151.1	81.54	56.06	48.39	67.16	113.9	248.1	315.9	324.1	302.9	231.0	841.7	841.4	23.83	6.207	5.800	4.774	4.236	4.358	3.692	3.669	3.546	3.052	3.067	2.910	3.080	2.934	3.054	2.982	2.723	2.270	2.673	2.322	2.181	2.091	2.191	1.831	1.775	1.578	1.525	1.371	1.409	1.286	1.246	1.163	1.120	1.029	0.823	0.829	1.223	1.933	1.810	1.138	0.664	0.556	0.524	0.662	0.755	0.907	1.593	1.584	1.413	1.575	1.480	1.501	1.701	2.837	6.843	13.68	67.78	193.2	94.17	4.308	0.228	0.159
585.0	268.4	236.0	166.4	98.07	61.65	50.11	65.88	120.9	240.1	369.3	367.1	336.2	214.1	356.1	1162	93.63	5.990	4.751	4.509	3.948	3.594	3.176	3.176	3.087	2.780	2.802	2.620	2.550	2.535	2.455	2.804	2.280	2.017	2.127	2.060	1.930	1.826	1.806	1.661	1.508	1.406	1.416	1.318	1.310	1.348	1.294	1.021	1.198	1.055	0.842	0.761	0.849	1.291	1.731	1.520	0.729	0.527	0.549	0.647	0.761	0.894	1.346	1.750	1.716	1.625	1.546	1.506	1.574	1.669	2.244	3.605	16.17	87.05	179.2	31.65	1.453	0.229
590.0	296.3	261.8	183.5	108.7	65.22	54.84	71.25	126.8	227.7	384.7	414.9	366.6	231.2	155.3	705.0	577.3	21.07	4.123	3.786	3.271	2.936	2.772	2.668	2.478	2.272	2.228	2.196	2.078	2.105	2.007	2.165	1.999	1.794	1.671	1.871	1.719	1.720	1.651	1.455	1.371	1.223	1.177	1.299	1.206	1.184	1.269	1.027	1.135	0.957	0.787	0.680	0.682	0.828	1.101	1.456	1.153	0.736	0.610	0.656	0.734	0.818	1.179	1.516	1.898	1.925	1.754	1.657	1.680	1.409	1.245	1.390	3.970	20.55	73.41	117.6	68.93	8.142
595.0	294.0	282.1	198.4	111.3	67.79	51.36	70.09	129.8	218.8	353.8	452.1	382.9	242.5	110.6	207.5	809.8	97.00	3.914	3.052	2.746	2.537	2.345	2.196	2.227	1.989	1.717	1.724	1.694	1.783	1.724	1.652	1.643	1.582	1.477	1.444	1.498	1.656	1.355	1.235	1.190	1.152	1.128	1.245	1.112	1.113	1.027	1.061	1.092	0.829	0.675	0.555	0.548	0.642	0.660	1.154	1.351	1.054	0.543	0.590	0.623	0.917	1.012	1.203	1.621	2.088	1.961	1.878	1.566	1.317	1.040	0.987	1.267	4.780	16.57	35.47	108.7	86.93
600.0	283.7	267.7	191.9	110.9	66.70	48.15	66.00	121.2	207.5	327.9	450.9	387.1	245.2	100.7	66.83	528.5	465.8	9.883	2.844	2.602	2.169	1.847	1.617	1.768	1.633	1.664	1.556	1.582	1.418	1.419	1.461	1.225	1.268	1.209	1.362	1.413	1.373	1.200	1.018	1.088	0.880	1.106	0.982	1.165	1.063	1.098	1.009	0.992	0.888	0.732	0.608	0.514	0.491	0.468	0.785	1.045	1.123	0.612	0.583	0.616	0.882	0.873	1.193	1.560	1.851	2.061	1.833	1.493	1.159	0.985	0.854	0.659	1.263	3.880	8.261	40.22	117.0
605.0	283.1	264.7	185.6	111.0	61.73	48.39	63.63	113.2	197.0	303.0	425.6	388.3	243.5	99.70	34.15	201.9	699.7	57.62	2.651	2.262	1.879	1.611	1.579	1.685	1.634	1.459	1.279	1.315	1.189	1.190	1.314	1.082	1.066	1.079	1.092	1.179	1.238	1.093	1.017	0.881	0.789	0.971	0.834	1.095	0.972	0.948	0.901	0.844	0.770	0.564	0.566	0.541	0.453	0.409	0.508	0.836	1.100	0.875	0.681	0.666	0.809	0.975	1.115	1.410	1.721	1.981	1.944	1.471	1.224	1.087	0.765	0.552	0.472	1.021	1.999	9.418	50.10
610.0	257.8	242.4	167.2	99.19	57.96	45.90	60.41	101.3	176.0	276.1	367.7	380.8	235.6	94.96	27.00	55.57	453.5	358.2	10.29	2.223	1.572	1.581	1.352	1.469	1.341	1.107	1.212	0.969	1.041	0.958	0.943	0.916	0.873	0.937	1.016	1.107	1.048	1.003	0.925	0.777	0.748	0.882	0.753	0.899	0.850	0.788	0.832	0.835	0.715	0.611	0.480	0.444	0.400	0.359	0.375	0.457	0.822	0.958	0.783	0.632	0.740	0.858	0.998	1.286	1.571	1.685	1.787	1.616	1.387	1.039	0.678	0.459	0.293	0.396	0.585	2.238	11.71
615.0	256.3	219.6	156.2	89.10	49.35	40.45	52.10	90.25	153.7	248.1	315.6	348.1	229.5	90.44	23.85	18.20	130.0	544.8	69.53	2.171	1.544	1.466	1.329	1.025	1.151	1.017	1.154	0.920	0.927	0.847	0.806	0.691	0.781	0.840	0.772	0.998	0.900	0.796	0.803	0.624	0.605	0.879	0.690	0.749	0.738	0.763	0.731	0.751	0.662	0.515	0.451	0.398	0.360	0.283	0.310	0.350	0.465	0.714	0.819	0.763	0.625	0.750	0.895	1.191	1.259	1.451	1.372	1.622	1.331	0.927	0.613	0.396	0.218	0.227	0.228	0.596	2.707
620.0	241.0	205.2	139.7	82.12	44.95	38.09	48.35	81.32	140.7	221.1	284.5	303.9	228.3	85.66	22.07	9.844	34.57	376.1	300.4	4.451	1.431	1.278	1.114	0.920	0.924	0.844	0.877	0.825	0.691	0.641	0.732	0.651	0.619	0.772	0.738	0.967	0.722	0.733	0.643	0.576	0.592	0.732	0.671	0.618	0.718	0.697	0.622	0.653	0.545	0.508	0.374	0.355	0.344	0.207	0.290	0.317	0.359	0.512	0.687	0.883	0.626	0.670	0.865	1.187	1.248	1.324	1.247	1.363	1.376	1.021	0.631	0.423	0.203	0.234	0.146	0.236	0.696
625.0	201.9	180.8	131.1	74.02	44.93	31.03	40.58	71.47	133.4	199.6	259.6	266.5	221.8	84.40	22.06	8.283	11.81	151.1	480.0	31.48	1.617	1.204	0.956	0.954	0.805	0.834	0.754	0.701	0.654	0.653	0.661	0.536	0.619	0.585	0.698	0.813	0.687	0.758	0.655	0.513	0.606	0.544	0.581	0.589	0.594	0.583	0.558	0.496	0.457	0.437	0.335	0.336	0.275	0.207	0.259	0.258	0.263	0.377	0.597	0.795	0.652	0.600	0.828	1.020	1.149	1.171	1.305	1.245	1.151	1.105	0.645	0.409	0.246	0.186	0.148	0.145	0.251
630.0	161.4	165.4	113.8	66.70	39.05	27.73	37.12	64.39	112.7	173.6	224.8	223.8	188.1	88.51	20.78	7.547	6.220	39.82	341.9	236.3	4.739	1.129	0.900	0.767	0.663	0.623	0.707	0.672	0.596	0.529	0.544	0.477	0.522	0.542	0.600	0.619	0.671	0.576	0.630	0.530	0.502	0.439	0.486	0.469	0.484	0.583	0.547	0.506	0.436	0.331	0.317	0.297	0.277	0.185	0.192	0.201	0.226	0.309	0.408	0.618	0.607	0.618	0.690	0.912	0.939	0.956	0.946	0.931	0.904	0.948	0.641	0.457	0.209	0.151	0.109	0.114	0.161
635.0	147.3	142.3	100.2	58.01	29.98	25.10	33.63	55.08	90.90	148.2	186.2	185.6	151.7	91.63	23.49	7.773	4.660	11.34	101.3	402.6	49.78	1.141	0.791	0.743	0.693	0.468	0.652	0.546	0.562	0.416	0.400	0.374	0.389	0.508	0.499	0.585	0.543	0.449	0.493	0.374	0.487	0.461	0.351	0.388	0.452	0.478	0.458	0.456	0.364	0.244	0.272	0.230	0.214	0.166	0.213	0.187	0.192	0.250	0.280	0.417	0.522	0.644	0.650	0.722	0.820	0.915	0.853	0.793	0.860	0.682	0.564	0.481	0.243	0.133	0.116	0.112	0.126
640.0	132.9	121.6	86.34	52.01	30.22	21.53	26.67	47.96	80.95	126.6	163.4	167.9	125.2	82.18	28.80	7.851	4.377	4.939	25.94	300.5	201.9	2.312	0.868	0.658	0.576	0.552	0.471	0.420	0.508	0.402	0.390	0.431	0.357	0.424	0.451	0.504	0.437	0.527	0.343	0.291	0.408	0.510	0.368	0.351	0.369	0.402	0.452	0.446	0.282	0.232	0.220	0.189	0.165	0.147	0.235	0.139	0.221	0.199	0.220	0.321	0.468	0.612	0.622	0.711	0.678	0.735	0.787	0.707	0.706	0.527	0.511	0.455	0.369	0.145	0.068	0.071	0.106
645.0	118.4	108.3	80.57	46.81	25.81	19.31	25.28	42.63	71.67	108.2	145.5	147.3	107.2	68.56	35.22	7.924	4.264	3.658	7.936	130.5	344.5	17.40	0.981	0.780	0.505	0.495	0.483	0.373	0.350	0.458	0.322	0.339	0.340	0.442	0.394	0.446	0.498	0.372	0.314	0.332	0.317	0.445	0.378	0.379	0.314	0.323	0.427	0.368	0.331	0.221	0.167	0.183	0.183	0.134	0.159	0.139	0.147	0.169	0.198	0.282	0.329	0.542	0.599	0.613	0.619	0.598	0.732	0.776	0.619	0.497	0.458	0.339	0.337	0.225	0.094	0.047	0.104
650.0	107.5	100.3	74.56	43.43	24.37	18.82	20.53	36.25	60.61	95.69	125.0	129.3	97.04	54.61	39.00	10.31	4.681	3.673	3.546	37.52	340.2	65.55	1.104	0.665	0.511	0.466	0.539	0.359	0.362	0.306	0.316	0.352	0.279	0.368	0.353	0.340	0.465	0.376	0.342	0.262	0.294	0.363	0.424	0.354	0.288	0.397	0.293	0.359	0.283	0.220	0.189	0.164	0.154	0.131	0.158	0.100	0.113	0.204	0.286	0.260	0.284	0.357	0.534	0.641	0.528	0.484	0.532	0.523	0.591	0.431	0.374	0.233	0.290	0.246	0.148	0.102	0.111
