Sample:	'1
File name:	G2025091116会仙三路南021雨水井.FD3
Run date:	'14:51:24, 09/11/2025
Operator:	Administrator
Comment:	'

Instrument
Model:	F-2700 FL Spectrophotometer
Serial number:	23B8-004
ROM Version:	4J14000 07

Instrument parameters
Measurement type:	3-D scan
Data mode:	Fluorescence
EX  Start WL:	220.0 nm
EX  End WL:	600.0 nm
EX Sampling interval:	5.0 nm
EM  Start WL:	230.0 nm
EM  End WL:	650.0 nm
EM Sampling interval:	5.0 nm
Scan speed:	12000 nm/min
EX Slit:	5.0 nm
EM Slit:	5.0 nm
PMT Voltage:	700 V
Response:	Auto 
Corrected spectra:	Off
Contour interval:	50.000

Peak integration
Integration method:	Rectangular
Sensitivity:	1
Threshold:	1.000

Peaks
No.	ApexEX/EM(nm)	Height(Data)
1	225.0/305.0	1189
2	230.0/350.0	3492
3	235.0/365.0	3461
4	245.0/385.0	3553
5	260.0/570.0	201.9
6	265.0/585.0	165.8
7	270.0/300.0	1167
8	270.0/595.0	136.0
9	275.0/305.0	1305
10	275.0/610.0	108.8
11	280.0/625.0	87.96
12	285.0/640.0	73.31
13	490.0/370.0	12.18
14	500.0/385.0	13.25
15	515.0/280.0	3.321
16	520.0/285.0	3.675
17	530.0/290.0	4.193
18	535.0/380.0	12.63
19	540.0/295.0	5.726
20	545.0/300.0	5.827

Data points
	220.0	225.0	230.0	235.0	240.0	245.0	250.0	255.0	260.0	265.0	270.0	275.0	280.0	285.0	290.0	295.0	300.0	305.0	310.0	315.0	320.0	325.0	330.0	335.0	340.0	345.0	350.0	355.0	360.0	365.0	370.0	375.0	380.0	385.0	390.0	395.0	400.0	405.0	410.0	415.0	420.0	425.0	430.0	435.0	440.0	445.0	450.0	455.0	460.0	465.0	470.0	475.0	480.0	485.0	490.0	495.0	500.0	505.0	510.0	515.0	520.0	525.0	530.0	535.0	540.0	545.0	550.0	555.0	560.0	565.0	570.0	575.0	580.0	585.0	590.0	595.0	600.0
230.0	89.26	1718	5177	1913	89.88	15.16	12.24	9.700	8.722	8.077	7.973	6.838	6.263	5.616	4.807	4.239	3.857	3.390	3.261	2.820	2.663	2.368	2.116	2.076	1.994	1.764	1.705	1.614	1.631	1.544	1.422	1.309	1.306	1.170	1.138	1.040	0.998	0.883	0.886	0.792	0.840	0.897	0.934	0.778	0.706	0.690	1.616	8.379	16.50	13.71	5.994	1.392	0.604	0.509	0.475	0.501	0.492	0.507	0.512	0.522	0.508	0.510	0.463	0.491	0.529	0.471	0.489	0.486	0.472	0.502	0.481	0.501	0.528	0.504	0.514	0.507	0.527
235.0	126.8	470.8	2773	5236	2225	138.5	14.45	11.60	9.890	9.311	8.636	7.729	6.268	5.340	5.056	4.165	3.927	3.515	3.148	2.696	2.663	2.443	2.063	2.047	2.026	1.936	1.728	1.591	1.785	1.322	1.470	1.310	1.183	1.292	1.117	0.946	1.025	0.940	0.805	0.813	0.776	0.780	0.824	0.917	0.857	0.818	0.892	2.399	5.578	10.14	16.56	19.73	10.36	2.756	0.611	0.556	0.544	0.516	0.492	0.542	0.498	0.493	0.471	0.517	0.454	0.532	0.629	0.499	0.555	0.578	0.475	0.462	0.575	0.489	0.529	0.516	0.541
240.0	179.9	212.5	781.1	3889	5473	556.1	77.76	14.80	10.66	9.518	9.648	7.985	7.200	5.821	5.181	4.452	4.052	3.690	3.369	2.908	2.828	2.613	2.331	2.092	1.875	1.906	1.902	1.760	1.645	1.449	1.540	1.467	1.187	1.252	1.132	1.014	0.870	0.878	0.834	0.922	0.730	0.724	0.837	0.782	0.899	1.048	0.818	1.063	1.694	2.991	7.204	19.29	27.05	21.45	9.830	2.119	0.561	0.519	0.590	0.560	0.457	0.531	0.468	0.562	0.504	0.481	0.619	0.483	0.508	0.506	0.494	0.508	0.559	0.516	0.492	0.525	0.515
245.0	128.8	227.1	264.6	1222	5502	6408	446.0	36.48	13.52	11.33	10.20	8.764	7.988	7.151	5.454	4.675	4.568	3.918	3.424	2.997	2.951	2.604	2.414	2.301	2.032	2.083	2.106	1.758	1.796	1.635	1.490	1.428	1.225	1.276	1.059	1.090	0.939	1.000	0.825	0.941	0.727	0.743	0.798	0.734	0.673	0.885	1.019	1.094	0.931	1.101	2.052	5.806	15.00	28.76	29.15	20.69	7.674	1.207	0.637	0.567	0.491	0.554	0.466	0.517	0.457	0.515	0.543	0.484	0.505	0.514	0.447	0.502	0.478	0.447	0.530	0.555	0.569
250.0	81.17	149.8	239.1	372.2	1667	5486	7803	1607	126.4	16.41	13.87	11.59	8.798	7.289	6.399	5.034	4.534	4.133	3.486	3.256	3.094	2.622	2.469	2.367	2.142	2.075	2.020	1.829	1.700	1.765	1.569	1.430	1.372	1.267	1.147	1.030	1.019	1.024	0.920	0.928	0.742	0.788	0.766	0.751	0.718	0.782	0.784	1.083	1.133	1.069	1.072	1.842	3.918	8.447	15.39	26.88	31.56	37.09	16.71	8.149	1.620	0.579	0.568	0.553	0.575	0.559	0.505	0.475	0.554	0.493	0.497	0.502	0.530	0.499	0.549	0.564	0.570
255.0	78.17	70.38	150.2	308.3	475.2	1338	5101	9999.9	2392	164.1	20.03	14.51	10.34	9.568	7.567	5.848	5.119	4.413	3.968	3.471	3.002	2.768	2.190	2.419	2.289	2.155	2.046	1.723	1.736	1.723	1.701	1.457	1.568	1.136	1.193	0.887	0.983	1.022	0.945	0.897	0.838	0.828	0.873	0.754	0.758	0.744	0.670	0.725	0.809	0.856	1.273	1.668	1.653	2.385	3.991	6.626	9.814	25.74	54.80	69.74	26.82	11.89	1.356	0.647	0.639	0.555	0.565	0.612	0.598	0.483	0.575	0.504	0.534	0.533	0.491	0.529	0.546
260.0	70.16	56.00	77.41	242.1	332.0	362.9	1445	8203	9999.9	1944	107.1	19.22	13.43	10.95	8.429	6.827	6.027	5.193	3.985	3.719	3.120	2.829	2.564	2.513	2.393	2.346	2.356	1.800	1.836	1.680	1.866	1.492	1.500	1.242	1.303	0.978	1.031	0.985	0.892	0.966	0.757	0.859	0.728	0.900	0.757	0.765	0.672	0.647	0.658	0.613	0.903	1.434	1.794	1.640	1.489	1.984	2.785	6.747	19.37	48.14	75.00	79.91	24.10	7.661	0.915	0.617	0.646	0.607	0.596	0.542	0.586	0.591	0.611	0.577	0.582	0.522	0.586
265.0	74.94	59.97	47.96	118.6	309.5	267.9	369.7	2578	9999.9	9999.9	1497	51.84	18.24	12.45	9.489	7.755	6.451	5.581	4.411	4.000	3.544	3.133	2.738	2.592	2.461	2.393	2.238	1.985	1.873	1.692	1.988	1.681	1.480	1.368	1.393	1.093	1.073	1.024	0.966	1.026	0.956	0.979	0.879	0.887	0.858	0.817	0.685	0.707	0.649	0.585	0.655	0.925	1.526	2.115	1.760	1.228	1.211	2.097	4.922	12.93	31.62	73.26	99.66	82.17	19.58	3.449	0.778	0.670	0.650	0.663	0.592	0.612	0.640	0.580	0.609	0.625	0.619
270.0	143.7	122.2	86.34	70.24	147.9	309.1	303.9	649.6	3182	9999.9	9999.9	5231	93.53	20.57	13.87	10.16	7.894	6.496	4.826	4.580	4.136	3.628	3.118	2.763	2.817	2.463	2.322	2.072	2.081	1.968	1.867	1.841	1.614	1.582	1.450	1.248	1.199	1.120	1.101	1.015	1.006	1.011	0.939	0.933	0.995	0.945	0.841	0.817	0.746	0.681	0.588	0.717	0.852	1.179	1.697	1.974	1.984	1.680	1.823	3.548	7.799	19.32	38.37	68.29	90.05	74.51	65.91	13.16	3.950	0.886	0.672	0.721	0.682	0.668	0.617	0.619	0.618
275.0	349.9	303.6	209.4	100.9	76.86	147.5	409.4	417.0	820.1	2492	8832	9999.9	7425	108.1	22.58	13.89	9.873	7.621	6.501	5.122	4.329	4.178	4.032	3.221	3.137	2.732	2.626	2.568	2.536	1.962	2.052	1.831	1.645	1.746	1.776	1.559	1.668	1.507	1.391	1.154	1.127	1.137	1.098	1.224	1.226	1.317	1.392	1.286	1.036	0.822	0.731	0.775	0.711	0.884	0.946	1.264	1.922	2.590	2.719	1.936	2.478	5.078	9.480	16.26	23.10	39.27	100.1	147.9	109.0	19.79	2.767	0.926	0.822	0.717	0.730	0.742	0.700
280.0	611.4	554.2	377.7	158.2	81.67	95.63	261.9	549.4	424.0	734.4	2550	9999.9	9999.9	1169	73.21	18.94	13.05	10.05	7.763	5.975	5.245	4.493	4.469	3.751	3.179	3.047	2.821	2.553	2.331	2.206	2.091	2.026	1.813	1.805	2.240	2.066	1.948	1.806	1.659	1.530	1.554	1.469	1.594	1.712	1.749	1.771	1.656	1.766	1.416	1.133	0.834	0.900	0.823	0.824	0.833	0.956	1.198	1.833	3.071	3.321	2.381	2.315	3.211	4.785	6.343	10.52	28.97	73.62	141.9	156.9	31.11	14.18	1.365	0.833	0.748	0.819	0.773
285.0	858.7	798.3	525.5	220.3	107.6	97.23	167.4	470.4	609.3	410.5	832.5	3451	9999.9	9999.9	865.0	41.83	17.89	12.85	9.307	6.921	6.074	5.141	4.562	3.959	3.613	3.353	2.741	2.525	2.593	2.290	2.114	2.112	2.129	1.901	2.402	2.346	2.340	2.270	1.950	1.783	1.809	1.815	1.964	2.123	2.156	2.198	2.105	2.287	1.906	1.467	1.028	1.038	0.861	0.876	0.843	0.879	1.072	1.357	1.910	3.147	3.675	3.052	2.441	2.595	2.808	3.908	8.087	18.75	45.46	102.7	154.9	147.4	25.78	7.965	1.102	0.862	0.878
290.0	1058	1005	688.6	313.0	157.6	126.9	167.3	306.5	622.1	734.1	609.3	1124	3567	9999.9	9999.9	3432	57.25	18.70	13.26	9.492	7.403	6.178	5.299	4.506	4.148	3.583	3.405	2.987	2.845	2.566	2.449	2.204	2.247	2.117	2.539	2.736	2.766	2.540	2.286	2.192	2.050	2.109	2.274	2.482	2.578	2.800	2.680	2.812	2.270	1.721	1.365	1.230	1.044	1.001	1.017	1.005	1.217	1.303	1.489	1.967	2.579	3.547	4.193	3.915	3.245	3.030	3.908	5.995	11.95	25.66	49.04	88.78	114.7	134.2	94.35	17.04	7.269
295.0	1164	1123	806.2	388.8	210.6	177.5	214.8	293.6	449.9	822.4	965.5	752.4	1147	2573	9482	9999.9	4785	66.03	19.49	13.26	9.612	7.803	6.590	5.570	4.900	4.227	3.813	3.569	3.217	2.924	2.471	2.455	2.372	2.315	2.737	2.860	3.025	2.828	2.469	2.401	2.243	2.332	2.418	2.527	2.946	3.066	2.916	3.033	2.683	2.072	1.563	1.689	1.323	1.231	1.157	1.275	1.460	1.438	1.602	1.771	1.948	2.479	2.944	4.140	5.726	4.730	3.783	3.627	4.908	7.579	12.54	21.22	27.80	46.04	102.3	175.5	159.9
300.0	1198	1171	866.4	471.2	267.0	241.2	281.9	350.6	457.9	715.6	1167	947.1	707.4	854.3	2629	9999.9	9999.9	664.5	48.29	18.07	12.15	9.406	7.299	6.087	5.442	4.508	4.016	3.505	3.392	2.905	2.833	2.688	2.594	2.290	2.745	3.086	3.049	3.120	2.842	2.418	2.422	2.462	2.398	2.443	2.969	3.080	2.948	3.268	2.679	2.184	1.776	1.795	1.419	1.414	1.402	1.577	1.639	1.726	1.788	1.898	2.111	2.472	2.851	3.611	4.754	5.827	5.778	4.208	3.714	4.154	4.866	6.392	7.709	11.75	27.05	72.87	159.5
305.0	1164	1189	909.9	533.5	328.6	313.3	349.9	429.4	534.1	722.5	1072	1305	799.6	566.0	823.0	3266	9999.9	9999.9	535.5	31.81	17.29	11.49	8.561	6.974	6.036	4.731	4.628	3.935	3.458	3.061	3.011	2.663	2.806	2.522	2.719	2.895	2.868	2.905	2.888	2.358	2.529	2.651	2.538	2.640	2.811	3.038	3.167	3.277	2.889	2.208	2.046	1.903	1.627	1.504	1.581	1.742	2.037	2.152	2.209	2.396	2.535	2.856	3.458	3.642	3.984	4.946	6.169	6.484	5.132	3.897	3.686	3.502	3.619	4.361	7.736	18.12	45.35
310.0	1148	1171	942.1	601.7	412.1	399.5	449.2	537.7	641.5	803.3	998.8	1249	1211	738.6	533.7	959.3	3484	9999.9	9999.9	2185	43.52	17.71	12.09	9.043	7.219	5.975	5.365	4.618	4.086	3.618	3.249	2.905	2.783	2.752	2.849	2.891	2.790	3.055	2.661	2.572	2.526	2.575	2.450	2.503	2.784	2.971	3.027	3.363	3.112	2.399	2.171	2.243	1.975	1.959	2.038	2.115	2.398	2.479	2.603	2.920	3.003	3.228	3.689	3.873	4.373	4.761	5.102	5.780	6.180	5.786	5.130	4.026	3.333	3.322	3.692	5.759	11.85
315.0	1171	1244	1060	738.2	559.8	522.2	579.2	654.2	748.5	915.8	1088	1208	1291	1216	719.2	609.3	1083	2576	9774	9999.9	3478	50.63	19.15	12.62	9.395	7.313	6.549	5.140	4.600	4.036	3.597	3.383	2.919	2.915	2.794	2.878	3.015	2.881	2.605	2.576	2.531	2.567	2.576	2.761	2.963	3.065	3.337	3.519	3.340	2.626	2.536	2.837	2.492	2.512	2.513	2.444	2.801	2.807	3.325	3.361	3.512	3.747	3.993	4.390	4.894	4.914	5.624	5.640	5.949	6.014	6.857	6.853	5.349	4.563	3.996	4.192	5.561
320.0	1323	1536	1357	949.6	727.1	676.9	682.8	762.9	874.7	1060	1241	1356	1387	1454	1091	758.5	735.6	964.7	2810	9999.9	9999.9	490.6	38.43	17.09	11.92	8.907	7.211	6.012	5.103	4.442	3.985	3.560	3.332	3.054	3.039	2.981	3.077	2.895	2.996	2.688	2.579	2.668	2.905	2.993	3.311	3.579	3.880	4.278	4.010	3.604	3.232	3.588	3.111	3.254	3.169	3.266	3.406	3.413	3.756	3.951	4.078	4.504	4.793	5.298	5.446	5.938	6.340	6.321	6.468	6.759	6.990	7.695	7.952	7.089	5.591	5.377	5.443
325.0	1612	1935	1966	1415	972.9	816.5	796.7	862.0	988.0	1189	1419	1547	1560	1527	1501	987.7	823.1	726.5	999.8	3415	9999.9	9999.9	409.3	27.30	15.57	10.50	8.843	6.862	5.938	4.870	4.506	3.844	3.644	3.287	3.085	3.147	3.395	3.026	2.932	3.080	2.896	2.880	3.066	3.311	3.972	4.405	4.804	5.432	5.515	4.838	4.519	4.692	4.158	3.711	3.857	3.664	3.739	3.672	4.128	4.311	4.429	4.923	5.189	5.894	6.016	6.508	7.282	7.371	7.577	7.471	7.565	7.826	8.455	9.037	8.259	7.251	6.730
330.0	1809	2444	2642	2084	1366	1030	930.6	965.5	1126	1341	1580	1761	1790	1705	1629	1452	1121	822.2	712.7	1128	3521	9999.9	9999.9	1758	36.25	16.19	11.65	8.758	6.845	5.876	4.785	4.380	3.888	3.388	3.164	3.223	3.296	3.181	2.996	3.086	3.056	3.185	3.477	3.743	4.291	4.947	5.659	6.834	7.062	6.470	6.303	6.301	5.527	5.072	4.491	4.382	4.341	4.469	4.375	4.519	5.225	5.569	5.920	6.443	6.857	7.366	7.680	8.095	8.376	8.516	8.868	8.897	8.972	9.297	9.430	9.578	9.134
335.0	1994	2789	3069	2531	1789	1328	1152	1118	1265	1489	1734	1960	2032	1961	1808	1633	1528	1099	795.7	730.5	1050	2498	9968	9999.9	2905	42.30	16.74	11.54	9.290	7.163	5.726	5.077	4.527	3.987	3.298	3.433	3.328	3.332	3.302	3.302	3.301	3.443	3.614	3.711	4.649	5.242	6.304	7.511	8.248	7.800	7.493	7.722	6.675	6.573	5.793	5.406	5.339	5.328	4.913	5.273	5.738	6.155	6.577	7.186	7.484	8.414	9.037	9.141	9.281	9.610	9.898	9.804	10.44	10.63	10.52	10.52	10.75
340.0	2129	2935	3372	2877	2128	1611	1332	1242	1376	1594	1859	2074	2152	2114	1943	1708	1600	1336	906.3	695.2	548.9	735.1	2732	9999.9	9999.9	413.6	32.77	15.08	11.04	8.457	6.872	5.539	4.846	4.176	3.435	3.406	3.492	3.258	3.309	3.200	3.356	3.546	3.553	4.049	4.997	5.744	6.900	8.297	8.658	8.391	8.177	8.918	7.980	7.511	6.808	5.969	6.176	5.737	5.412	5.688	6.100	6.548	6.957	7.234	7.894	8.474	8.869	9.280	9.799	9.982	10.55	10.70	10.89	10.80	11.22	10.60	10.93
345.0	2099	2998	3487	3134	2402	1862	1535	1373	1476	1684	1923	2119	2209	2194	2016	1762	1570	1417	1052	731.9	476.6	382.7	761.9	3313	9999.9	9999.9	360.3	22.67	12.97	10.52	7.543	5.876	5.088	4.120	3.683	3.362	3.618	3.424	3.398	3.254	3.469	3.591	3.685	4.202	4.810	5.821	6.745	8.267	8.855	8.695	8.838	9.860	8.559	8.158	7.514	6.822	6.983	6.230	5.980	6.092	6.713	6.699	7.393	7.853	8.027	8.557	8.857	9.689	9.840	10.54	10.66	11.35	11.46	11.22	11.10	10.91	11.05
350.0	2147	2943	3492	3319	2710	2244	1843	1632	1665	1811	2023	2177	2263	2249	2081	1831	1602	1372	1189	896.6	544.2	377.2	388.7	902.9	3478	9999.9	9999.9	1568	31.97	14.33	10.00	7.368	5.759	4.694	4.142	3.850	3.583	3.565	3.454	3.359	3.355	3.525	3.772	4.159	4.772	5.764	6.617	8.141	9.054	8.634	9.205	10.22	9.691	9.521	8.465	8.133	8.132	7.420	7.015	7.042	7.388	7.624	8.034	8.286	8.599	9.086	9.299	9.624	10.18	10.50	10.74	11.27	11.26	11.51	11.39	11.38	11.08
355.0	2200	2888	3427	3406	3026	2652	2287	2012	1989	2064	2189	2315	2362	2317	2174	1925	1693	1416	1193	1065	716.1	468.3	386.0	430.9	943.2	2467	9064	9999.9	2646	37.32	14.12	9.562	6.784	5.385	4.589	4.121	3.614	3.735	3.529	3.379	3.454	3.516	3.746	4.293	4.791	5.910	6.391	7.754	8.724	8.622	9.328	10.80	10.88	10.39	9.903	9.327	9.173	8.621	8.337	8.395	8.639	8.993	9.401	9.322	9.181	9.842	9.682	10.56	10.83	10.82	11.29	11.45	11.45	11.70	11.86	11.67	11.70
360.0	2180	2806	3346	3439	3217	2976	2551	2305	2270	2292	2352	2408	2426	2370	2214	1997	1745	1469	1222	1087	880.7	569.6	445.3	380.2	421.7	698.8	2481	9999.9	9999.9	390.1	28.89	12.09	8.582	6.579	5.051	4.036	3.830	3.638	3.635	3.660	3.447	3.520	3.988	4.027	4.956	5.631	6.402	7.602	8.683	8.526	9.174	11.14	10.96	11.57	10.55	10.06	10.52	9.757	9.593	9.593	9.341	9.737	10.06	9.855	9.753	10.05	10.05	10.57	10.92	11.12	11.48	11.39	11.53	11.70	11.82	11.94	11.38
365.0	2072	2768	3256	3461	3379	3166	2781	2513	2473	2488	2499	2500	2468	2395	2242	2013	1779	1511	1267	1084	942.4	738.5	529.1	423.9	354.5	344.6	685.2	3247	9999.9	9999.9	335.0	19.12	11.58	8.167	5.524	4.905	4.496	3.991	3.722	3.717	3.840	3.649	4.025	4.342	4.829	5.615	6.110	7.634	8.361	8.286	9.161	11.27	11.18	11.46	11.66	11.09	11.55	10.74	10.39	10.50	10.27	10.29	10.24	10.54	10.49	10.43	10.54	10.60	11.31	11.37	11.46	11.37	11.57	11.55	12.10	11.71	11.63
370.0	2040	2686	3198	3438	3445	3358	3031	2748	2669	2673	2639	2587	2515	2423	2261	2039	1821	1571	1330	1141	967.0	863.8	718.7	536.9	421.5	334.2	336.7	855.2	3381	9999.9	9999.9	1427	27.37	11.56	7.792	5.808	5.143	4.543	3.933	3.992	3.700	3.867	4.116	4.420	4.801	5.631	6.012	7.516	8.336	8.292	8.887	10.94	11.68	11.95	12.18	11.79	12.13	11.79	11.11	10.96	11.38	11.28	11.26	11.50	11.12	11.46	10.77	10.83	11.36	11.28	11.38	11.87	11.79	11.64	12.12	11.80	11.91
375.0	2040	2579	3094	3406	3526	3483	3224	2933	2828	2799	2744	2683	2551	2420	2271	2061	1851	1626	1405	1224	1045	920.7	872.9	726.9	544.9	421.2	329.8	371.4	875.6	2447	8846	9999.9	2300	31.86	11.35	8.308	6.408	5.177	4.300	4.313	4.101	3.972	4.045	4.664	4.897	5.242	5.770	7.189	7.926	8.140	8.859	10.69	11.67	12.03	12.14	12.15	12.99	12.22	11.90	11.76	11.78	11.99	11.93	11.75	11.61	11.52	11.73	11.38	11.60	10.99	11.32	11.22	11.80	11.52	11.51	11.54	11.47
380.0	2091	2581	3026	3338	3532	3548	3310	3055	2922	2893	2819	2714	2580	2431	2250	2046	1855	1652	1451	1286	1115	984.7	925.9	868.6	681.5	512.3	390.0	313.2	358.4	656.7	2408	9999.9	9999.9	330.6	23.77	10.58	7.348	6.020	5.088	4.472	4.252	4.288	4.111	4.687	4.852	5.436	5.793	6.905	7.712	7.733	8.375	10.66	11.19	12.01	12.16	12.15	13.10	12.65	11.81	12.09	11.62	11.99	12.41	12.63	12.30	11.95	11.77	11.60	11.63	11.59	11.88	11.52	11.55	11.52	11.43	11.34	11.27
385.0	2032	2520	2955	3283	3496	3553	3346	3088	2953	2904	2831	2717	2579	2416	2222	2014	1854	1660	1480	1330	1174	1056	966.4	922.0	811.6	611.1	465.6	354.6	285.3	289.5	636.6	3112	9999.9	9999.9	277.2	16.06	9.052	6.846	5.885	4.929	4.237	4.438	4.194	4.824	4.813	5.679	5.799	6.851	7.665	7.726	8.280	10.95	11.15	11.99	11.96	12.64	13.25	12.87	12.18	12.45	12.01	12.40	12.24	12.51	12.18	11.78	11.48	11.20	11.30	11.74	11.38	11.72	10.97	11.38	11.00	11.18	11.41
390.0	1994	2489	2849	3164	3367	3503	3333	3078	2931	2865	2788	2674	2535	2350	2169	1980	1822	1660	1500	1366	1229	1128	1028	953.6	895.5	763.6	577.0	435.1	330.2	259.8	277.4	790.9	3095	9999.9	9999.9	1147	22.93	9.668	7.195	5.688	4.748	4.797	4.459	4.828	4.925	5.688	5.750	6.980	7.224	7.066	8.065	10.38	10.93	11.45	11.91	12.09	13.04	12.69	12.62	12.32	12.05	11.89	12.02	11.97	12.16	11.77	11.45	11.12	10.89	10.97	10.91	10.97	11.01	10.98	11.05	10.75	11.19
395.0	1998	2357	2747	2967	3261	3378	3263	3067	2881	2813	2710	2595	2458	2283	2099	1927	1785	1649	1513	1392	1273	1187	1090	1010	921.8	847.1	713.9	524.9	404.2	310.1	243.1	303.2	776.1	2373	6687	9999.9	1946	27.38	9.759	6.807	5.501	5.355	4.763	5.216	4.843	5.720	5.637	6.758	6.982	6.841	7.911	9.982	10.45	11.36	11.77	11.75	12.44	12.36	11.97	11.76	12.01	11.77	12.16	11.52	11.87	11.63	11.05	10.80	10.44	10.58	10.56	10.16	10.90	10.84	10.71	10.48	10.68
400.0	2013	2315	2639	2903	3155	3316	3213	2982	2836	2769	2645	2544	2397	2232	2054	1882	1756	1633	1506	1400	1290	1211	1126	1042	954.4	869.4	787.7	618.8	461.7	357.9	272.4	222.6	279.2	604.7	1764	8275	9999.9	286.7	20.93	8.568	6.856	5.654	5.292	4.962	4.993	5.554	5.654	6.515	7.079	6.791	7.566	9.390	9.942	11.31	11.06	11.37	12.19	12.33	12.10	11.64	11.86	11.79	11.67	11.40	11.22	10.92	10.99	10.42	10.44	10.20	9.953	9.645	10.71	10.32	10.33	10.18	10.38
405.0	1906	2262	2599	2775	3033	3197	3136	2928	2772	2697	2584	2466	2325	2168	1987	1829	1711	1601	1487	1388	1301	1220	1139	1066	981.3	889.1	806.3	703.7	533.0	407.0	312.5	231.6	192.9	225.8	458.9	2360	9668	8994	250.7	13.94	7.708	6.451	5.476	5.388	5.209	5.536	5.693	6.409	6.925	6.718	7.121	9.192	9.504	10.58	10.41	11.19	11.67	12.10	11.91	11.73	11.35	11.75	11.05	11.33	11.07	10.49	10.48	10.28	10.12	10.25	9.724	9.808	10.17	9.983	9.830	10.16	10.08
410.0	1818	2146	2480	2638	2866	3015	2992	2834	2696	2587	2498	2367	2222	2053	1899	1755	1646	1546	1444	1356	1282	1207	1142	1074	1000	909.7	807.1	732.6	629.4	487.1	369.6	279.2	208.9	172.0	188.5	588.6	2667	7202	7997	1074	20.51	8.111	6.265	5.757	5.520	5.580	5.568	6.279	6.544	6.533	6.853	8.784	8.989	9.925	10.30	10.68	11.22	11.62	11.56	10.98	11.33	11.32	10.64	10.81	10.71	10.17	9.824	9.965	9.631	9.819	9.681	9.451	9.677	9.664	9.413	9.849	9.799
415.0	1715	2049	2310	2481	2673	2810	2850	2736	2595	2490	2378	2242	2105	1937	1783	1655	1566	1482	1392	1312	1245	1189	1132	1071	1004	923.0	818.2	734.2	671.9	581.7	433.9	326.6	247.8	189.3	151.7	209.6	650.5	1689	4486	8944	1773	25.29	8.041	6.120	5.775	5.817	5.555	6.220	6.237	6.122	6.586	8.104	8.768	9.438	9.286	10.18	10.50	11.10	11.10	10.77	11.01	10.91	10.49	10.30	10.59	9.620	9.402	9.282	9.294	9.141	8.989	9.123	9.358	8.978	9.041	8.984	9.594
420.0	1724	1993	2218	2406	2529	2708	2738	2654	2509	2431	2299	2155	2023	1858	1712	1592	1504	1424	1340	1281	1208	1160	1106	1057	995.0	917.0	827.2	744.5	671.2	617.9	493.8	365.1	278.2	212.4	162.0	140.0	213.1	425.4	1148	5686	8211	269.6	19.06	7.684	6.576	5.938	5.895	6.040	6.173	5.902	6.241	7.821	8.252	8.853	9.166	9.823	10.20	10.79	10.54	10.54	10.58	10.71	10.33	10.00	9.981	9.416	9.358	8.511	8.819	8.883	8.495	8.446	9.044	8.579	8.498	8.744	9.069
425.0	1611	1927	2116	2261	2394	2586	2626	2563	2452	2345	2228	2081	1930	1778	1645	1528	1445	1366	1298	1231	1174	1129	1081	1033	980.1	911.2	832.6	752.1	673.7	615.8	543.4	410.6	306.4	237.7	180.4	139.9	126.9	153.1	297.3	1546	6399	6708	241.6	13.06	7.638	6.615	6.145	6.054	6.249	5.876	6.039	7.524	8.014	8.653	9.005	8.963	9.708	10.20	10.23	10.01	9.936	10.22	10.13	9.572	9.342	9.179	9.197	8.266	8.557	8.391	8.292	8.261	8.045	8.409	8.258	8.186	8.164
430.0	1870	1829	2017	2125	2261	2434	2490	2463	2376	2274	2159	1999	1844	1696	1562	1446	1367	1295	1238	1181	1126	1085	1044	1002	955.2	898.3	827.9	756.4	687.8	620.5	559.8	471.5	356.9	270.9	209.3	162.4	127.2	107.8	120.7	384.6	1694	4728	5870	1088	20.26	8.388	6.667	6.421	6.078	5.745	6.071	7.159	7.695	8.162	8.561	8.778	9.394	9.788	9.869	9.677	9.888	10.02	9.834	9.528	9.273	8.771	8.935	8.160	8.280	8.221	7.815	7.779	7.810	7.947	7.675	7.567	7.858
435.0	2611	1771	1874	2007	2133	2274	2401	2369	2307	2201	2090	1913	1768	1609	1475	1377	1290	1228	1176	1119	1071	1035	1005	967.1	926.7	881.5	817.9	760.2	699.5	634.9	562.0	496.0	416.1	312.9	242.4	189.7	148.6	116.9	97.41	138.1	416.6	1099	2876	7007	1774	26.82	8.852	6.983	6.297	5.624	6.124	7.006	7.207	7.883	8.103	8.369	8.955	9.372	9.336	9.521	9.332	9.362	9.413	9.587	8.918	8.814	8.448	8.092	7.983	7.964	7.625	7.130	7.448	7.721	7.414	7.461	7.357
440.0	3240	1957	1795	1871	2070	2187	2318	2299	2241	2142	2023	1864	1705	1555	1424	1315	1238	1180	1123	1076	1031	996.8	966.6	938.6	897.6	856.8	809.5	756.7	703.8	638.5	571.2	495.8	435.6	353.9	266.9	207.2	167.7	130.6	103.7	92.61	139.6	282.5	721.6	3995	7028	1448	20.78	8.503	6.962	5.751	6.193	6.953	6.931	7.496	7.848	8.253	8.899	8.820	9.585	8.739	9.377	9.334	9.137	9.305	8.662	8.586	8.122	7.734	7.822	7.432	7.260	7.185	7.158	7.471	7.308	7.171	7.299
445.0	3464	2684	1759	1813	1956	2095	2215	2224	2171	2085	1963	1802	1646	1489	1362	1260	1182	1124	1073	1030	987.2	958.7	930.1	898.5	875.7	830.1	789.1	744.6	695.7	640.5	573.9	498.7	431.6	378.3	294.8	226.6	183.5	145.4	115.5	92.79	87.63	108.7	196.5	1049	4867	6384	221.3	16.60	7.910	6.268	6.066	6.849	6.801	7.238	7.470	7.986	8.734	8.683	9.065	8.684	9.001	8.773	8.895	8.654	8.441	8.427	7.710	7.577	7.524	7.357	7.292	7.015	6.743	7.208	6.723	6.614	6.641
450.0	2372	3889	2084	1690	1814	1979	2054	2100	2060	1980	1866	1720	1547	1400	1281	1177	1103	1049	999.1	955.1	919.9	893.1	871.1	846.2	821.3	786.2	753.5	714.6	678.0	630.0	569.3	497.2	425.4	374.2	324.7	254.0	201.6	162.6	133.8	108.7	90.86	81.94	88.86	269.2	1256	3872	5173	2014	18.95	7.768	6.391	7.039	6.845	6.931	7.157	7.558	8.210	8.167	8.755	8.426	8.709	8.551	8.459	8.274	8.050	7.862	7.466	7.267	6.823	6.799	7.007	6.642	6.548	6.486	6.533	6.283	6.572
455.0	1438	3591	3509	1643	1686	1802	1901	1938	1911	1859	1755	1591	1449	1295	1180	1089	1020	962.3	915.2	876.4	844.9	812.9	798.8	773.6	757.6	732.4	699.9	674.7	646.2	604.0	554.5	489.3	419.1	364.4	320.9	280.5	224.0	177.6	150.5	125.9	104.9	88.28	75.28	103.0	311.0	894.1	2079	5548	1529	22.14	7.406	7.195	6.920	6.812	7.026	6.972	7.600	7.580	8.031	8.104	8.139	8.435	8.305	7.798	7.684	7.278	7.503	6.844	6.466	6.333	6.404	6.289	6.136	6.191	6.055	6.006	6.016
460.0	1176	2437	4618	1895	1565	1700	1781	1836	1813	1759	1662	1499	1359	1219	1113	1010	948.2	896.5	852.7	813.8	781.1	761.3	743.4	720.7	708.2	684.1	660.3	640.6	618.3	582.9	533.0	476.7	411.4	354.7	310.2	282.9	240.1	189.5	159.8	131.7	113.5	92.93	75.97	68.87	105.1	226.9	505.5	2695	5276	1213	18.65	8.245	7.083	6.559	6.666	6.961	7.086	7.290	7.708	8.047	8.070	8.026	7.839	7.502	6.946	6.588	6.756	6.403	6.315	6.155	6.145	6.092	5.904	5.927	5.742	5.717	5.751
465.0	1058	1603	4589	2872	1471	1582	1676	1722	1708	1667	1554	1420	1280	1151	1042	949.2	877.7	837.7	789.8	751.6	727.3	707.6	692.1	675.7	658.3	639.2	622.9	604.2	585.2	551.5	512.9	457.2	402.0	347.4	301.4	270.4	245.8	199.8	165.1	139.4	119.5	99.08	80.78	66.54	62.65	80.76	136.1	679.2	3295	4642	978.1	17.10	7.861	7.180	6.570	6.838	6.923	6.974	7.135	7.418	7.372	7.321	7.491	6.995	6.951	6.690	6.245	5.950	5.951	5.772	5.783	5.584	5.524	5.332	5.472	5.083	5.378
470.0	963.8	1157	2870	4439	1838	1426	1509	1567	1559	1521	1434	1303	1176	1047	945.8	861.0	795.4	752.8	715.1	681.2	654.6	636.4	620.1	608.3	594.0	580.9	565.0	549.6	536.2	511.5	480.1	429.0	378.7	329.8	289.1	254.2	230.1	205.7	171.4	141.7	120.2	102.4	83.84	68.57	55.56	50.73	55.97	171.4	824.7	2493	3496	1539	19.77	8.073	6.775	6.641	6.576	6.557	6.796	6.735	6.897	6.912	6.896	6.613	6.520	6.271	5.760	5.528	5.625	5.378	5.400	5.049	4.914	5.062	5.037	4.927	4.968
475.0	881.6	978.1	1471	4091	3390	1333	1364	1422	1423	1375	1305	1188	1070	949.4	849.8	778.4	718.8	674.5	639.6	611.2	580.7	569.0	552.7	545.2	530.6	522.1	511.1	499.3	487.9	468.1	441.0	397.9	355.1	312.2	272.4	239.1	212.5	197.0	177.7	144.5	121.4	104.2	87.01	71.95	57.84	46.36	41.17	60.78	201.2	571.9	1244	3340	1470	25.76	7.364	6.776	6.551	6.058	6.422	6.162	6.204	6.281	6.091	6.194	5.967	6.126	5.303	5.287	5.126	4.709	4.861	4.600	4.545	4.773	4.509	4.681	4.536
480.0	824.5	904.1	1052	2666	4758	1632	1267	1312	1321	1280	1236	1111	1004	893.0	803.5	729.6	665.5	625.6	589.4	559.8	536.4	519.3	510.3	505.4	491.3	482.4	473.7	463.1	456.0	439.6	414.2	379.5	337.4	297.9	261.9	230.6	205.6	186.6	176.5	149.5	123.2	104.4	88.19	74.38	59.17	48.24	39.32	36.85	63.57	142.9	298.1	1475	3593	1303	21.15	7.245	6.725	6.108	5.991	5.844	5.923	5.749	5.750	5.999	5.747	5.510	5.090	4.873	4.764	4.569	4.651	4.382	4.540	4.070	4.298	4.179	4.363
485.0	761.3	879.5	925.3	1534	4883	2644	1197	1227	1233	1208	1165	1050	949.7	845.3	749.5	680.0	623.9	590.0	552.2	522.5	502.3	490.1	477.6	469.0	461.6	450.5	444.5	433.9	429.4	417.4	392.8	363.5	322.4	286.5	251.1	224.1	199.6	179.7	166.8	153.0	127.2	105.6	89.20	74.45	62.02	51.09	40.56	34.25	34.51	49.04	81.41	368.1	2035	3477	217.9	16.61	7.164	6.027	6.055	5.583	5.800	5.560	5.638	5.401	5.474	5.112	4.951	4.964	4.581	4.634	4.532	3.948	4.281	4.032	3.790	3.928	4.172
490.0	679.1	834.7	837.0	1004	3020	4582	1555	1134	1145	1123	1073	975.5	868.0	775.6	689.5	622.8	575.3	538.3	502.6	479.1	458.7	444.6	433.5	426.4	422.4	409.9	407.3	401.8	393.8	385.2	365.6	338.4	300.3	270.4	240.0	214.8	190.8	171.5	156.4	146.7	132.8	110.5	90.95	76.91	64.33	53.67	43.98	36.88	30.93	29.99	34.04	95.91	502.2	1686	2701	965.3	88.49	7.232	6.282	5.774	5.366	5.300	5.389	5.029	5.030	4.815	4.645	4.603	4.390	4.202	4.194	3.894	4.028	3.627	3.623	3.626	3.750
495.0	610.8	741.9	784.5	831.6	1394	4456	3243	1065	1034	1035	977.1	889.7	795.7	711.4	633.2	564.2	521.3	485.1	455.1	433.0	415.4	397.8	392.0	381.9	376.4	370.3	367.0	360.5	355.2	347.6	334.8	307.5	277.0	251.1	222.9	200.5	181.7	163.7	147.9	134.2	126.4	114.6	93.30	76.66	65.74	55.49	46.89	38.44	33.12	27.63	25.02	37.26	125.7	388.8	975.6	2846	1657	28.61	7.277	5.937	5.278	5.506	4.736	4.676	4.614	4.722	4.204	4.286	3.793	3.950	3.900	3.669	3.676	3.690	3.418	3.586	3.481
500.0	521.8	637.8	725.9	738.1	907.0	2908	4960	1293	953.1	936.7	897.7	828.4	735.9	656.0	585.1	518.2	481.4	444.9	417.6	395.7	379.1	364.0	356.8	349.3	343.1	337.3	336.0	329.7	326.8	320.9	310.5	284.6	256.8	235.4	210.5	190.4	172.5	155.7	141.0	127.1	117.5	111.1	95.39	78.80	66.62	56.02	47.71	40.53	34.35	28.92	24.36	24.39	41.63	98.65	233.5	1210	3232	1367	23.67	6.378	5.437	5.138	4.710	4.472	4.394	3.956	4.028	3.918	3.609	3.896	3.577	3.511	3.550	3.349	3.146	3.067	3.290
505.0	518.9	563.3	694.5	720.0	741.9	1535	5431	2286	893.8	866.9	833.2	761.9	681.0	603.5	535.4	480.6	438.8	406.1	384.0	363.6	347.2	332.2	326.8	319.7	312.9	312.0	307.4	304.4	300.8	297.9	285.2	264.4	240.5	218.7	195.9	177.1	161.4	147.8	134.5	121.6	109.4	103.3	93.83	79.14	66.32	56.33	47.74	41.06	35.55	29.99	25.26	22.49	24.09	35.10	63.57	296.4	1649	3089	937.2	17.79	5.770	5.052	4.680	3.974	4.283	4.118	3.967	3.544	3.608	3.467	3.252	3.366	3.271	3.106	2.802	2.952	3.168
510.0	452.5	500.8	607.6	653.6	642.9	859.7	3332	4663	1174	774.3	743.2	682.6	613.4	539.7	477.3	430.0	387.1	363.6	340.6	322.0	308.1	294.3	288.6	283.8	278.4	275.1	270.3	270.1	269.3	268.0	254.9	237.8	215.9	195.7	177.7	162.4	148.0	135.9	123.0	111.7	101.4	92.80	87.65	79.01	66.00	55.51	48.15	41.21	35.38	30.55	26.65	22.90	20.45	21.59	25.93	76.93	400.3	1373	2258	990.6	87.75	5.996	4.702	4.107	4.101	3.801	3.684	3.107	3.192	2.998	2.985	2.911	2.812	2.977	2.633	2.712	2.790
515.0	399.1	452.6	505.6	585.2	571.2	641.0	1339	5105	2556	715.7	662.0	604.6	540.0	473.8	422.9	377.0	343.1	319.2	297.9	278.7	269.8	258.0	251.2	246.3	243.2	240.0	235.7	238.7	236.1	235.5	225.1	210.4	190.6	171.9	159.5	144.2	132.8	121.9	111.6	101.2	93.90	84.95	77.32	74.69	67.26	56.00	46.76	41.57	34.92	30.53	26.62	23.70	20.42	18.88	18.15	27.97	98.91	314.5	722.9	2071	1487	28.48	5.212	4.009	3.714	3.383	3.391	3.154	2.950	2.855	2.699	2.705	2.505	2.761	2.415	2.447	2.599
520.0	361.4	418.1	459.9	516.9	543.6	551.3	741.0	3346	4964	914.8	601.9	554.9	493.4	431.6	380.7	339.3	311.0	290.9	268.6	253.2	245.0	231.3	227.2	223.3	220.0	216.8	213.6	214.0	213.4	210.6	202.9	190.1	173.9	157.5	144.3	132.3	121.4	112.5	102.5	93.77	85.93	78.82	70.75	67.69	64.68	56.37	45.93	40.17	34.34	30.23	26.38	23.46	20.39	18.50	16.56	17.27	32.04	78.62	171.5	836.9	2254	1063	22.57	4.357	3.782	3.260	3.265	2.856	2.755	2.745	2.487	2.568	2.499	2.272	2.361	2.331	2.335
525.0	327.5	374.8	413.2	450.1	519.6	508.6	563.9	1577	6048	1861	556.2	504.7	447.1	400.1	344.9	309.4	283.0	260.2	247.7	230.5	220.2	208.5	204.3	201.7	197.4	194.8	193.6	193.7	192.6	190.3	185.1	174.7	158.9	143.7	132.4	122.2	112.8	104.4	95.30	86.28	80.58	73.81	65.44	62.42	59.67	55.98	46.49	38.89	33.82	29.15	25.85	22.99	20.94	18.35	16.31	14.55	16.88	26.10	45.96	201.9	1069	2118	242.3	14.95	3.784	3.165	2.962	2.861	2.796	2.178	2.330	2.470	2.397	2.043	1.979	2.196	2.060
530.0	285.7	324.5	353.3	383.7	459.2	461.5	469.9	733.8	3820	4770	807.2	445.3	396.8	352.3	304.5	273.8	248.4	228.8	214.1	202.2	193.1	185.5	179.1	175.9	172.0	170.8	169.6	168.8	168.6	166.8	162.0	152.2	139.6	128.0	117.7	107.8	100.0	92.13	85.41	78.23	72.13	66.26	60.26	55.42	52.36	50.37	45.76	38.23	32.39	28.15	24.92	22.17	20.14	17.96	16.30	14.17	13.35	14.09	17.40	51.57	257.6	907.7	1412	796.5	19.48	3.835	2.740	2.662	2.541	2.180	2.264	2.189	2.185	2.007	1.951	1.996	1.935
535.0	241.4	275.6	303.6	329.7	375.4	437.7	401.5	470.9	1358	5666	1975	404.5	346.1	306.4	269.6	237.8	215.3	199.1	183.1	173.9	163.3	158.5	152.9	150.8	148.1	146.1	146.8	144.3	145.8	144.4	139.5	129.6	120.0	111.0	102.1	94.13	86.33	81.19	74.94	69.20	63.87	58.37	54.84	48.33	46.15	44.02	42.13	38.21	31.03	26.36	23.88	21.42	19.21	17.35	15.63	13.82	12.45	11.19	11.37	17.88	62.82	207.4	443.4	1375	1052	26.87	3.261	2.623	2.470	2.013	2.041	2.047	2.051	1.811	1.822	1.733	1.747
540.0	234.4	265.9	268.4	297.9	314.8	394.9	376.0	389.6	600.1	3628	4911	533.6	303.4	268.9	238.2	209.7	191.6	176.9	163.0	152.5	145.7	141.5	137.0	133.5	130.6	129.1	129.0	124.9	127.9	126.5	122.7	114.8	106.1	99.10	89.75	83.97	78.13	72.33	65.83	62.41	57.59	53.03	49.40	45.31	41.99	39.45	37.00	36.02	30.34	25.32	22.50	20.13	18.19	16.57	14.53	13.61	12.10	10.79	9.562	9.870	19.17	51.01	104.4	526.2	1502	744.2	19.96	2.885	2.403	1.964	2.014	1.969	1.812	1.623	1.813	1.560	1.531
545.0	205.5	230.9	251.8	259.0	276.0	343.0	355.5	326.8	384.6	1561	6311	1287	275.6	238.3	209.1	187.4	172.1	158.3	146.0	136.3	129.1	124.4	122.2	117.6	116.3	114.5	111.4	112.4	113.2	112.2	107.9	101.9	95.33	87.04	80.95	73.66	69.50	64.66	59.69	55.93	51.78	48.42	44.24	40.80	37.83	35.11	33.15	32.48	29.92	24.45	21.04	18.91	17.17	15.28	14.14	12.89	11.85	10.05	9.158	8.159	9.620	15.88	27.62	125.8	672.9	1396	235.2	12.59	2.553	2.013	2.047	1.760	1.692	1.553	1.631	1.593	1.492
550.0	207.5	222.1	218.1	224.8	225.8	270.4	325.1	285.7	300.4	587.1	3849	4246	425.6	203.2	178.5	160.1	144.6	132.9	122.1	114.2	108.9	104.5	101.6	98.31	97.26	95.51	95.13	93.66	93.96	93.76	91.02	85.85	79.14	73.12	68.78	62.80	57.76	54.91	50.18	47.45	44.25	40.92	37.97	35.33	32.29	30.60	28.28	27.17	26.20	23.18	19.46	16.96	15.15	13.82	12.69	11.58	10.93	9.585	8.317	7.130	6.877	7.798	9.928	31.48	159.9	564.0	903.8	542.9	18.41	2.484	1.969	1.737	1.484	1.454	1.474	1.455	1.441
555.0	202.2	218.8	186.6	189.6	192.4	211.5	267.4	267.8	249.3	310.3	1229	5531	1349	178.8	149.6	133.0	119.3	108.8	101.1	93.12	90.51	85.14	82.09	80.49	80.90	77.10	76.41	76.90	77.06	76.03	75.84	69.80	64.81	59.60	56.29	51.67	47.79	45.13	41.36	40.23	36.76	33.38	31.94	29.76	27.18	25.84	23.73	21.91	20.91	20.43	18.26	15.06	13.21	12.38	11.13	10.58	9.456	8.970	7.935	6.166	5.795	5.583	5.885	10.13	38.49	128.4	269.5	826.9	687.3	24.92	2.149	1.753	1.493	1.333	1.383	1.343	1.292
560.0	194.8	204.1	174.8	161.0	161.6	175.8	211.5	255.0	210.7	233.6	444.5	3580	3926	250.4	129.9	113.7	103.1	91.85	86.10	78.92	75.31	72.45	69.69	67.79	67.07	65.76	64.82	65.07	65.24	63.95	64.02	58.95	54.49	50.92	46.78	43.11	41.06	38.27	35.37	33.61	31.69	28.37	27.42	24.95	24.45	22.31	20.92	19.14	17.86	17.39	16.82	14.20	12.01	10.81	10.26	9.359	8.288	7.705	7.129	6.266	5.414	4.789	4.601	5.026	11.33	31.04	63.01	299.9	900.4	252.5	17.86	1.727	1.517	1.434	1.208	1.318	1.117
565.0	186.1	195.4	164.6	150.9	139.8	151.2	170.2	233.4	196.6	192.2	243.6	1449	5516	781.3	111.2	97.43	87.31	81.10	73.59	68.16	64.20	63.56	59.93	58.02	57.96	56.92	55.04	55.14	55.56	55.13	54.39	50.58	46.37	43.22	39.86	37.06	35.39	33.20	30.73	28.61	27.53	25.66	23.78	22.27	20.95	19.48	18.39	16.59	15.38	14.78	14.56	13.19	10.68	9.302	9.214	8.060	7.463	6.875	6.431	6.285	4.984	4.411	3.890	3.957	4.976	9.301	16.24	70.84	376.8	761.6	218.2	9.339	1.543	1.379	1.162	1.285	1.149
570.0	191.4	193.6	157.7	133.1	117.7	124.0	132.4	182.7	201.9	164.7	180.6	465.6	3506	3306	207.0	80.27	71.73	66.00	60.40	55.16	52.95	51.80	49.05	47.80	47.15	46.04	45.25	44.81	45.06	44.36	43.34	40.92	38.20	35.37	32.83	30.01	28.32	26.80	25.50	23.59	22.42	20.67	19.77	18.32	17.66	16.24	15.26	13.80	12.56	11.83	11.57	11.51	10.06	8.730	7.588	7.080	6.460	6.145	5.576	5.456	4.679	4.227	3.580	3.259	3.344	4.049	5.697	17.53	88.52	296.1	520.2	342.7	16.67	1.585	1.264	1.168	1.064
575.0	192.6	171.8	154.1	110.6	97.13	101.4	111.1	131.2	193.8	153.4	148.0	204.5	1053	4623	909.4	69.26	58.78	53.48	48.91	45.12	42.39	40.86	39.14	39.51	36.82	37.13	36.57	36.20	35.46	35.53	34.70	32.56	29.96	28.50	26.05	24.21	23.47	21.75	20.47	19.05	17.44	16.91	16.22	15.18	14.31	13.41	12.68	11.40	10.39	9.631	9.049	9.012	9.048	7.981	6.660	6.485	5.832	5.334	4.729	4.534	4.064	3.839	3.298	2.927	2.840	2.761	3.189	5.466	21.23	67.45	146.1	448.2	257.2	22.67	1.363	1.051	0.937
580.0	172.5	170.9	136.7	104.2	89.33	86.24	95.92	108.4	168.7	163.7	132.7	137.7	326.6	3070	2946	102.1	50.92	45.09	40.96	38.04	36.46	34.19	33.33	32.26	32.08	31.52	30.69	29.95	31.06	30.00	29.14	27.46	25.26	24.10	22.42	20.52	19.77	18.38	17.27	16.38	15.32	14.18	13.15	12.53	12.38	11.66	10.43	9.986	9.103	8.310	7.635	7.657	7.868	7.188	6.243	5.453	5.172	4.697	4.411	4.033	3.590	3.652	3.270	2.811	2.403	2.254	2.478	2.872	6.418	16.43	34.05	155.0	464.6	230.8	15.13	1.162	1.002
585.0	175.0	164.5	134.4	93.68	82.16	81.29	83.05	98.14	128.8	165.8	118.3	117.2	146.1	1201	4244	427.6	45.61	39.44	36.01	33.03	31.77	29.28	28.77	27.75	27.33	26.27	25.45	26.91	26.03	26.21	24.86	23.85	22.75	20.86	18.59	18.06	16.92	15.67	14.55	13.98	13.09	12.68	11.62	10.94	10.86	10.26	9.214	8.716	8.337	7.212	6.552	6.458	6.422	6.762	5.793	5.075	4.576	4.177	3.798	3.761	3.218	3.122	3.040	2.944	2.345	2.103	2.182	2.174	3.026	5.074	8.982	36.65	192.1	457.2	177.4	6.401	1.030
590.0	160.8	142.4	118.5	85.12	72.81	66.17	72.89	79.22	101.2	147.6	124.1	103.2	95.44	344.4	2704	2191	71.83	33.64	30.77	27.35	26.12	24.53	23.21	22.98	22.26	21.81	21.68	21.32	21.37	21.13	20.69	19.46	18.05	16.94	15.57	14.79	13.96	12.91	11.89	11.73	10.75	9.973	9.686	9.183	8.881	8.323	7.609	7.363	6.856	6.113	5.561	5.281	5.148	5.328	5.352	4.733	4.179	3.910	3.460	3.091	2.930	2.592	2.683	2.714	2.261	1.998	1.962	1.808	1.949	2.352	3.114	9.352	45.17	170.3	309.3	147.2	15.42
595.0	133.3	128.1	108.0	78.03	60.02	55.23	62.54	68.42	82.56	114.8	136.0	93.61	77.11	122.5	778.7	3240	574.6	30.42	26.06	23.06	21.74	19.97	19.55	19.64	17.68	18.11	17.83	17.11	16.74	16.70	16.29	15.95	14.61	13.50	12.56	12.31	11.46	10.28	9.603	9.318	8.861	8.250	8.065	7.760	7.418	6.767	6.353	5.970	5.428	4.979	4.596	4.459	3.725	3.934	4.334	4.339	3.997	3.419	2.775	2.588	2.594	2.382	2.313	2.187	2.197	2.028	1.771	1.703	1.603	1.526	1.875	3.088	11.01	38.93	83.69	235.4	232.8
600.0	121.6	121.6	96.40	69.97	53.60	53.39	53.97	63.22	72.69	92.34	135.1	93.88	72.68	69.65	217.6	2197	1878	50.74	22.33	20.31	18.72	17.24	16.70	16.19	15.41	15.29	14.62	14.14	14.46	14.42	14.17	12.97	12.20	11.19	10.34	10.26	9.549	8.399	8.219	7.664	7.459	6.800	6.702	6.296	5.900	5.685	5.382	5.231	4.688	4.437	4.046	3.750	3.430	3.430	3.555	3.627	3.626	3.032	2.523	2.256	2.316	2.208	1.948	1.962	1.929	1.917	1.627	1.596	1.512	1.290	1.380	1.791	3.369	9.585	19.55	78.42	273.5
605.0	122.1	120.0	95.49	62.96	52.29	48.75	53.80	59.61	64.04	78.41	117.5	98.21	69.35	55.43	78.96	854.1	2869	250.3	19.92	18.00	15.68	15.53	14.18	13.49	12.64	12.90	13.14	12.42	12.41	12.37	11.98	11.58	10.70	9.552	9.273	8.828	8.127	7.609	7.268	6.481	6.433	6.030	5.719	5.549	5.390	4.925	4.512	4.449	3.966	3.778	3.533	3.443	2.891	2.984	2.979	3.076	3.434	2.932	2.480	2.168	2.086	1.929	1.818	1.755	1.798	1.711	1.863	1.568	1.456	1.291	1.168	1.277	1.584	2.968	5.093	18.64	104.1
610.0	122.7	106.9	88.67	60.91	46.01	48.08	50.96	55.85	60.91	71.72	92.93	108.8	70.62	51.79	45.76	232.0	1918	1335	43.37	15.16	13.36	12.50	11.90	11.26	10.67	10.62	10.53	10.15	10.29	10.09	9.788	9.301	8.707	8.011	7.480	6.980	6.498	6.311	6.014	5.402	5.278	5.053	4.624	4.691	4.310	4.033	3.812	3.494	3.326	3.138	2.912	2.758	2.580	2.445	2.424	2.534	2.829	2.610	2.355	2.047	1.811	1.704	1.690	1.583	1.522	1.523	1.612	1.564	1.323	1.279	1.206	1.137	1.143	1.419	1.850	4.844	24.41
615.0	104.5	96.79	77.97	57.45	43.10	46.56	48.36	51.23	57.07	67.28	79.67	106.3	79.31	48.54	37.69	73.84	550.1	2287	414.0	14.03	11.72	10.65	9.885	9.923	8.777	8.790	8.743	8.020	8.227	8.079	7.951	7.313	7.071	6.757	5.958	5.728	5.335	4.807	4.813	4.487	4.312	3.994	3.904	3.510	3.546	3.336	3.164	2.797	2.875	2.525	2.353	2.153	2.053	2.017	1.964	1.992	2.323	2.135	2.027	1.976	1.661	1.562	1.476	1.399	1.371	1.413	1.264	1.479	1.341	1.348	1.172	1.066	0.996	1.023	1.065	1.775	6.144
620.0	97.26	95.79	80.02	53.76	42.51	44.96	43.63	48.36	55.29	60.97	68.93	92.69	87.13	49.38	34.76	36.66	145.1	1603	1366	27.34	10.46	8.479	8.603	8.429	7.491	7.104	7.296	7.200	7.014	6.708	6.479	6.350	5.954	5.760	4.806	4.635	4.471	4.205	4.166	3.750	3.481	3.506	3.094	2.879	3.122	2.840	2.700	2.643	2.347	2.220	2.099	1.909	1.915	1.778	1.781	1.802	1.883	1.805	1.777	1.836	1.630	1.486	1.309	1.250	1.343	1.230	1.125	1.167	1.384	1.183	1.031	0.979	0.970	0.906	0.965	1.046	2.024
625.0	89.91	89.43	70.92	54.07	43.95	42.05	40.27	46.93	53.58	58.42	65.67	76.98	87.96	51.94	33.89	26.84	48.72	626.1	2153	73.61	9.325	7.965	7.737	7.329	6.573	6.288	6.164	6.066	6.248	5.794	5.536	5.410	4.997	4.852	4.430	3.964	4.019	3.563	3.448	3.273	3.098	2.804	2.780	2.634	2.574	2.612	2.328	2.320	2.136	2.001	1.958	1.760	1.803	1.532	1.517	1.567	1.645	1.415	1.569	1.771	1.541	1.378	1.148	1.160	1.203	1.117	1.219	1.114	1.243	1.137	1.115	0.815	0.937	0.879	0.914	0.989	1.116
630.0	84.27	84.41	72.35	51.23	41.23	38.62	39.47	44.28	52.21	56.39	61.76	67.96	81.19	60.73	35.93	26.58	26.93	167.0	1476	980.5	26.82	7.545	6.551	6.292	5.914	5.191	5.228	5.029	4.868	4.946	4.700	4.445	4.218	3.994	3.619	3.351	3.247	2.853	2.835	2.788	2.517	2.465	2.291	2.130	2.217	2.086	1.886	1.908	1.804	1.635	1.478	1.450	1.363	1.415	1.299	1.281	1.329	1.228	1.356	1.435	1.382	1.235	1.166	1.069	1.054	1.062	1.049	0.989	1.109	1.009	1.035	0.958	0.848	0.886	0.810	0.798	0.804
635.0	90.71	76.00	65.32	48.04	41.98	41.59	39.11	41.20	49.05	57.89	62.55	64.01	69.12	70.17	40.78	30.18	25.80	52.90	424.4	1754	297.2	7.595	5.842	5.644	4.882	4.486	4.036	4.281	4.211	4.352	3.944	3.684	3.381	3.321	3.050	2.822	2.682	2.465	2.539	2.147	2.183	1.992	1.819	1.739	1.822	1.810	1.517	1.646	1.403	1.271	1.300	1.307	1.212	1.182	1.055	1.154	1.047	1.058	1.186	1.177	1.163	1.212	1.026	1.105	1.021	1.154	1.002	0.861	0.960	0.893	0.935	0.923	0.888	0.859	0.779	0.787	0.861
640.0	93.26	77.67	68.75	51.00	45.64	40.70	41.98	44.30	48.19	53.90	61.67	63.33	63.95	73.31	50.61	34.63	27.78	30.79	116.0	1280	992.9	15.64	5.424	5.045	4.174	4.217	3.717	3.732	3.518	3.731	3.479	3.250	2.855	2.783	2.821	2.496	2.406	2.136	2.161	1.789	1.817	1.720	1.677	1.608	1.456	1.599	1.422	1.500	1.321	1.197	1.106	1.246	1.004	1.137	0.949	1.017	1.044	1.137	1.017	1.033	0.996	1.209	1.000	1.003	1.036	0.958	0.954	0.851	0.972	1.087	0.911	0.873	0.923	0.779	0.860	0.735	0.861
645.0	102.3	91.27	76.35	57.87	44.32	43.13	43.12	44.88	49.12	55.35	61.23	65.13	65.09	70.28	59.70	38.48	32.28	27.41	42.15	516.6	1618	58.69	4.907	4.614	3.829	3.641	3.479	3.379	3.249	3.311	3.012	2.804	2.517	2.521	2.358	2.237	2.196	1.939	1.820	1.502	1.539	1.539	1.550	1.445	1.374	1.378	1.274	1.355	1.210	1.077	1.062	1.142	0.991	1.095	0.911	0.950	0.919	0.896	1.001	0.919	1.024	1.048	0.942	1.004	0.923	0.953	0.900	0.893	0.940	1.011	0.843	0.898	0.958	0.861	0.801	0.783	0.750
650.0	105.9	94.03	77.21	62.93	45.20	43.23	41.92	43.72	46.22	55.98	58.72	66.62	65.14	65.31	68.16	41.78	34.88	28.52	27.01	150.8	1491	427.6	6.553	4.189	3.782	3.479	3.194	3.224	3.075	2.813	2.601	2.500	2.320	2.135	2.045	2.013	1.805	1.628	1.713	1.531	1.528	1.440	1.500	1.387	1.373	1.212	1.170	1.251	1.128	1.024	0.833	1.010	0.989	1.026	0.892	0.892	0.942	0.932	0.950	0.882	0.862	1.032	0.906	0.970	0.944	0.821	0.823	0.879	0.939	0.966	0.965	0.741	0.950	0.981	0.839	0.755	0.748
