Sample:	'1
File name:	ÍÞ¹þ¹þ ÏÂÓÎ 4±¶.FD3
Run date:	'13:47:31, 09/08/2025
Operator:	Administrator
Comment:	'

Instrument
Model:	F-2700 FL Spectrophotometer
Serial number:	24D1-003
ROM Version:	4J14000 07

Instrument parameters
Measurement type:	3-D scan
Data mode:	Fluorescence
EX  Start WL:	220.0 nm
EX  End WL:	600.0 nm
EX Sampling interval:	5.0 nm
EM  Start WL:	230.0 nm
EM  End WL:	650.0 nm
EM Sampling interval:	5.0 nm
Scan speed:	12000 nm/min
EX Slit:	5.0 nm
EM Slit:	5.0 nm
PMT Voltage:	700 V
Response:	Auto 
Corrected spectra:	Off
Contour interval:	50.000

Peak integration
Integration method:	Rectangular
Sensitivity:	1
Threshold:	1.000

Peaks
No.	ApexEX/EM(nm)	Height(Data)
1	225.0/350.0	223.2
2	225.0/365.0	204.9
3	225.0/395.0	185.6
4	225.0/555.0	30.29
5	245.0/540.0	106.3
6	250.0/550.0	125.8
7	255.0/280.0	598.2
8	255.0/560.0	140.3
9	260.0/285.0	698.0
10	260.0/575.0	131.6
11	265.0/585.0	136.7
12	270.0/300.0	1406
13	270.0/380.0	765.8
14	270.0/600.0	136.0
15	275.0/305.0	1592
16	275.0/610.0	118.9
17	280.0/310.0	1323
18	280.0/620.0	92.86
19	285.0/315.0	1106
20	285.0/635.0	64.21
21	290.0/325.0	872.7
22	295.0/330.0	702.5
23	300.0/335.0	620.5
24	305.0/340.0	588.2
25	315.0/355.0	453.5
26	320.0/360.0	502.8
27	325.0/365.0	487.4
28	330.0/375.0	460.0
29	335.0/380.0	484.9
30	340.0/385.0	450.8
31	350.0/400.0	360.2
32	355.0/405.0	340.2
33	365.0/420.0	265.4
34	370.0/425.0	250.0
35	380.0/440.0	181.2
36	400.0/465.0	106.1
37	415.0/485.0	67.66
38	440.0/520.0	31.19
39	455.0/540.0	17.21
40	470.0/560.0	9.393
41	505.0/275.0	2.474
42	520.0/285.0	3.948
43	530.0/290.0	4.364
44	540.0/295.0	5.854
45	545.0/300.0	6.579
46	550.0/305.0	6.643
47	560.0/310.0	6.178
48	570.0/315.0	5.100
49	580.0/320.0	5.065
50	585.0/325.0	5.016

Data points
	220.0	225.0	230.0	235.0	240.0	245.0	250.0	255.0	260.0	265.0	270.0	275.0	280.0	285.0	290.0	295.0	300.0	305.0	310.0	315.0	320.0	325.0	330.0	335.0	340.0	345.0	350.0	355.0	360.0	365.0	370.0	375.0	380.0	385.0	390.0	395.0	400.0	405.0	410.0	415.0	420.0	425.0	430.0	435.0	440.0	445.0	450.0	455.0	460.0	465.0	470.0	475.0	480.0	485.0	490.0	495.0	500.0	505.0	510.0	515.0	520.0	525.0	530.0	535.0	540.0	545.0	550.0	555.0	560.0	565.0	570.0	575.0	580.0	585.0	590.0	595.0	600.0
230.0	21.43	233.3	419.1	97.24	7.173	5.112	4.388	4.621	5.251	4.711	4.540	4.092	3.496	2.860	2.643	2.109	1.946	1.644	2.061	1.889	1.599	1.518	1.256	1.228	1.097	1.078	0.939	0.864	0.848	0.795	0.767	0.694	0.719	0.682	0.748	0.573	0.602	0.585	0.548	0.588	0.492	0.539	0.500	0.467	0.391	0.428	0.592	1.077	1.334	0.911	0.505	0.350	0.344	0.343	0.355	0.334	0.350	0.325	0.340	0.333	0.331	0.331	0.342	0.360	0.316	0.316	0.306	0.320	0.315	0.321	0.325	0.341	0.311	0.375	0.314	0.290	0.260
235.0	22.16	65.07	259.4	461.2	170.7	11.92	4.726	5.135	5.170	4.682	4.195	4.664	3.664	3.557	3.055	2.425	2.043	1.679	2.009	2.079	1.599	1.429	1.147	1.330	1.145	1.095	0.930	0.862	0.918	0.728	0.855	0.645	0.649	0.736	0.856	0.564	0.627	0.580	0.570	0.463	0.450	0.573	0.548	0.540	0.447	0.496	0.448	0.629	0.733	0.828	1.219	1.517	1.090	0.495	0.313	0.304	0.329	0.391	0.330	0.329	0.340	0.295	0.321	0.362	0.342	0.322	0.251	0.268	0.356	0.274	0.322	0.304	0.292	0.351	0.315	0.293	0.318
240.0	33.01	31.85	79.78	432.6	532.4	207.5	10.11	6.424	6.395	5.153	4.177	4.605	4.213	3.024	2.247	2.408	2.042	1.909	2.359	1.945	1.614	1.290	1.074	1.425	1.166	0.936	0.867	0.813	0.788	0.921	0.891	0.671	0.683	0.708	0.761	0.678	0.552	0.493	0.494	0.601	0.476	0.517	0.572	0.481	0.362	0.478	0.451	0.414	0.378	0.484	0.644	1.684	2.740	2.650	1.441	0.490	0.288	0.372	0.363	0.388	0.296	0.270	0.355	0.421	0.270	0.280	0.360	0.294	0.367	0.210	0.297	0.242	0.326	0.300	0.382	0.328	0.302
245.0	25.67	39.24	29.85	148.6	843.7	1399	228.8	10.79	6.324	5.927	5.256	5.107	4.001	3.345	2.492	2.711	2.116	2.126	2.433	1.789	2.025	1.260	1.314	1.196	1.124	1.186	1.139	1.012	0.715	0.809	0.956	0.757	0.727	0.774	0.650	0.646	0.552	0.575	0.438	0.632	0.530	0.536	0.538	0.473	0.398	0.462	0.457	0.483	0.354	0.358	0.318	0.726	1.699	4.012	6.232	5.042	1.593	0.480	0.336	0.356	0.382	0.266	0.325	0.353	0.279	0.323	0.305	0.263	0.314	0.247	0.304	0.248	0.332	0.403	0.355	0.282	0.235
250.0	21.04	34.23	51.80	54.68	282.7	1616	3399	1184	78.96	8.208	7.257	6.545	4.450	3.711	3.110	2.759	2.338	2.215	2.297	2.180	1.883	1.378	1.340	1.405	1.280	1.105	1.025	0.942	0.798	0.818	0.863	0.783	0.721	0.700	0.620	0.620	0.611	0.543	0.514	0.571	0.534	0.580	0.448	0.479	0.493	0.402	0.492	0.463	0.474	0.439	0.379	0.489	0.692	1.468	3.384	6.955	11.23	13.35	8.965	3.041	0.534	0.330	0.298	0.333	0.361	0.338	0.329	0.384	0.363	0.346	0.324	0.324	0.319	0.327	0.319	0.273	0.367
255.0	22.84	23.74	42.47	90.09	98.98	415.6	2697	8243	1930	95.24	10.67	9.537	6.173	5.155	3.405	3.218	2.929	2.293	2.484	2.161	2.177	1.538	1.524	1.432	1.312	1.201	1.232	0.930	0.949	1.005	0.894	0.736	0.755	0.655	0.646	0.683	0.535	0.626	0.609	0.505	0.606	0.545	0.520	0.567	0.455	0.441	0.422	0.459	0.375	0.424	0.487	0.732	0.601	0.590	1.043	1.884	3.950	12.03	24.89	26.90	17.30	3.880	0.544	0.380	0.290	0.350	0.390	0.368	0.355	0.311	0.347	0.414	0.240	0.301	0.383	0.311	0.317
260.0	20.61	19.69	22.65	84.14	122.8	118.7	796.4	6527	9999.9	1532	54.63	12.94	7.939	5.929	4.487	3.682	3.109	2.682	2.745	2.357	2.042	1.689	1.643	1.424	1.345	1.223	1.264	1.078	1.128	1.009	0.790	0.854	0.866	0.704	0.646	0.764	0.509	0.586	0.548	0.571	0.597	0.518	0.569	0.560	0.440	0.534	0.455	0.485	0.329	0.384	0.421	0.783	0.743	0.676	0.607	0.678	1.252	3.358	10.02	24.65	44.01	27.21	14.53	1.804	0.450	0.386	0.298	0.427	0.295	0.273	0.437	0.422	0.334	0.331	0.406	0.311	0.372
265.0	28.11	19.47	15.94	45.70	161.0	133.6	209.3	2026	9999.9	9999.9	1250	30.78	10.90	7.702	5.369	4.246	3.750	3.185	2.990	2.527	1.787	2.070	1.566	1.593	1.448	1.240	1.229	1.014	1.132	1.018	0.829	0.814	0.862	0.815	0.817	0.647	0.484	0.599	0.567	0.485	0.561	0.523	0.585	0.560	0.417	0.452	0.421	0.499	0.370	0.345	0.285	0.382	0.699	1.043	1.062	0.710	0.596	1.101	2.667	6.977	20.83	41.26	58.87	25.97	9.210	0.870	0.489	0.415	0.453	0.318	0.355	0.374	0.342	0.395	0.381	0.335	0.501
270.0	37.77	24.80	20.56	22.46	79.07	220.0	240.4	519.3	2960	9271	9999.9	5432	84.06	11.86	7.244	5.517	4.373	3.479	3.787	3.052	2.390	2.096	1.749	1.675	1.662	1.515	1.199	1.226	1.116	1.013	0.987	0.971	0.900	0.879	0.793	0.686	0.681	0.699	0.633	0.719	0.616	0.739	0.590	0.622	0.497	0.544	0.455	0.425	0.395	0.351	0.314	0.417	0.558	0.673	1.063	1.424	1.381	1.194	1.081	1.992	5.199	11.49	25.53	42.23	58.33	54.92	16.78	7.847	0.911	0.424	0.376	0.314	0.366	0.363	0.340	0.408	0.421
275.0	65.14	36.93	28.49	21.38	33.38	105.7	384.2	384.7	760.0	2259	6696	9999.9	7727	101.7	12.61	8.076	5.837	4.402	3.994	3.568	2.854	2.341	1.840	1.850	1.618	1.480	1.183	1.202	1.241	1.164	1.005	0.732	0.901	0.914	0.951	0.839	0.842	0.889	0.762	0.790	0.743	0.727	0.722	0.669	0.572	0.651	0.509	0.485	0.457	0.329	0.331	0.452	0.477	0.492	0.475	0.937	1.453	2.474	2.435	1.392	1.773	3.212	6.377	10.23	16.84	37.88	68.24	84.43	26.11	9.035	0.591	0.349	0.461	0.367	0.455	0.426	0.379
280.0	92.74	62.48	38.01	26.10	24.16	53.46	241.8	598.2	393.5	653.5	1911	9999.9	9999.9	1198	67.58	10.59	7.717	5.061	5.355	4.219	3.320	2.419	2.361	1.901	1.678	1.735	1.278	1.050	1.244	1.153	1.140	0.792	0.977	1.024	1.011	0.991	0.955	1.043	0.835	0.876	0.900	0.863	0.784	0.774	0.600	0.752	0.611	0.529	0.533	0.360	0.396	0.449	0.387	0.568	0.396	0.679	0.833	1.690	2.942	3.215	2.116	1.609	2.393	3.177	4.721	9.798	23.13	57.53	96.71	87.52	18.70	2.602	0.419	0.415	0.421	0.337	0.358
285.0	123.8	79.55	56.85	31.31	28.15	44.19	123.6	483.0	698.0	377.9	670.0	2991	9999.9	9999.9	953.2	37.39	10.08	6.751	7.135	5.030	3.590	2.764	2.547	2.014	1.992	1.899	1.405	1.296	1.287	1.152	1.176	0.964	0.982	1.078	1.087	1.037	1.169	1.191	1.086	0.846	0.986	1.020	0.861	0.844	0.743	0.709	0.622	0.617	0.639	0.464	0.462	0.456	0.447	0.562	0.468	0.540	0.827	0.910	1.661	3.310	3.948	3.074	1.893	1.939	2.282	3.474	6.420	15.30	38.61	83.60	84.02	29.61	12.36	0.851	0.582	0.498	0.415
290.0	162.7	107.6	75.06	46.90	39.55	52.86	103.1	272.4	678.2	882.4	654.3	1079	2867	9017	9999.9	3744	55.01	10.41	10.08	6.381	4.363	3.134	2.825	2.422	2.035	1.985	1.640	1.392	1.343	1.340	1.236	0.940	1.072	1.031	1.053	1.136	1.282	1.421	1.320	1.158	1.058	1.140	1.013	0.975	0.857	0.804	0.760	0.728	0.708	0.607	0.454	0.529	0.482	0.554	0.571	0.611	0.826	0.791	1.154	1.681	2.645	3.570	4.364	3.868	2.843	2.624	3.289	5.098	10.45	21.75	30.82	51.43	74.81	62.32	18.87	8.680	1.050
295.0	193.7	141.3	93.31	58.18	54.05	70.04	118.7	219.5	438.2	918.8	1267	877.3	1104	2299	4430	9999.9	5514	68.37	16.17	8.713	5.508	3.953	3.535	3.012	2.366	1.894	1.732	1.439	1.462	1.392	1.162	0.881	1.075	1.200	1.233	1.541	1.323	1.330	1.332	1.390	1.293	1.089	1.178	0.928	1.025	0.915	0.848	0.902	0.750	0.704	0.541	0.628	0.633	0.589	0.621	0.733	0.779	0.840	1.129	1.479	1.872	2.366	3.367	4.775	5.854	4.793	3.273	3.579	4.744	6.708	8.386	12.71	20.22	40.08	80.16	103.2	30.21
300.0	207.1	146.9	103.5	68.54	66.75	85.63	135.3	232.7	395.0	702.7	1406	1229	801.5	831.3	1201	6206	9999.9	4068	54.97	12.82	7.650	5.225	4.231	3.269	2.923	2.052	2.049	1.571	1.417	1.380	1.420	0.960	1.099	1.288	1.359	1.444	1.534	1.319	1.323	1.385	1.071	1.218	1.151	0.953	0.888	1.038	0.892	0.841	0.711	0.660	0.669	0.613	0.608	0.698	0.581	0.714	0.897	1.037	1.207	1.482	1.588	2.181	2.722	3.344	5.090	6.579	5.849	4.304	3.540	3.637	3.475	4.083	5.573	10.39	25.45	68.18	104.0
305.0	202.1	162.2	105.8	72.22	70.86	97.16	151.6	258.1	401.3	627.5	1081	1592	990.9	562.8	457.7	1621	8616	9999.9	3637	35.81	9.916	6.449	4.939	3.670	3.169	2.376	1.919	1.859	1.496	1.376	1.470	1.167	1.240	1.218	1.400	1.435	1.404	1.497	1.361	1.395	1.199	1.112	1.229	1.129	0.929	0.997	1.020	0.840	0.753	0.599	0.619	0.567	0.663	0.658	0.699	0.712	0.989	1.118	1.117	1.552	1.742	1.977	2.632	3.023	3.688	4.894	6.643	6.618	4.950	3.524	2.806	2.259	2.408	3.197	6.599	17.33	39.95
310.0	195.9	157.1	107.5	78.79	79.75	115.3	177.4	277.5	416.1	593.0	855.0	1203	1323	763.5	347.1	491.8	2166	7470	9999.9	8431	41.84	9.471	6.732	4.948	3.836	2.978	2.167	2.123	1.803	1.567	1.507	1.338	1.218	1.326	1.389	1.404	1.528	1.551	1.398	1.341	1.203	1.192	1.069	1.024	0.909	1.014	0.980	0.811	0.743	0.630	0.604	0.643	0.710	0.745	0.771	0.862	1.089	1.278	1.432	1.578	1.812	2.166	2.707	2.869	3.269	4.010	4.449	5.532	6.178	5.549	4.023	2.373	2.117	1.744	2.466	4.697	9.726
315.0	195.0	152.1	110.9	86.90	85.55	134.4	194.8	293.6	412.9	571.9	754.1	905.5	1005	1106	554.9	279.4	593.3	1754	5259	9999.9	4181	52.60	10.08	6.787	5.080	3.701	2.446	2.471	1.674	1.800	1.606	1.160	1.296	1.439	1.309	1.252	1.524	1.530	1.372	1.264	1.078	1.149	1.102	1.042	0.960	0.909	0.884	0.790	0.816	0.564	0.547	0.752	0.733	0.827	0.966	0.905	1.239	1.492	1.380	1.641	1.883	2.231	2.726	2.892	3.218	3.553	3.797	4.027	4.212	4.587	5.100	4.679	2.907	1.910	1.639	2.057	3.081
320.0	200.6	163.6	121.8	98.39	99.01	139.2	214.0	319.4	429.6	568.2	732.1	832.1	832.1	948.2	867.1	341.8	272.2	489.4	1320	6798	9999.9	3292	39.10	9.259	6.307	4.586	2.846	3.000	1.854	1.816	1.862	1.503	1.396	1.396	1.493	1.342	1.305	1.436	1.322	1.092	1.183	1.156	1.143	1.014	0.904	0.924	0.963	0.914	0.863	0.723	0.556	0.807	0.716	0.777	0.880	0.921	1.256	1.347	1.668	1.765	1.989	2.291	2.558	2.790	3.015	3.185	3.677	3.445	3.700	3.652	3.824	4.862	5.065	3.252	1.974	1.672	1.644
325.0	216.3	168.4	149.5	110.6	114.7	147.8	227.9	330.6	443.9	578.4	719.3	806.1	774.5	742.5	872.7	598.9	252.8	229.3	388.5	1709	8391	9999.9	2583	28.58	8.406	5.946	3.730	3.210	2.381	2.201	2.009	1.655	1.557	1.363	1.509	1.395	1.279	1.403	1.292	1.207	1.280	1.093	1.114	1.198	0.948	1.016	0.939	1.036	0.895	0.781	0.605	0.711	0.788	0.844	0.997	0.992	1.270	1.335	1.575	1.984	2.158	2.226	2.641	2.897	2.948	3.348	3.464	3.711	3.627	3.245	3.384	3.435	4.785	5.016	3.739	2.129	1.705
330.0	205.5	191.9	168.0	137.3	132.7	164.5	232.7	338.7	447.9	573.3	704.0	785.7	761.9	674.3	637.4	702.5	491.5	227.5	200.7	465.5	2075	6764	9999.9	6445	35.70	8.854	5.108	3.858	2.804	2.617	2.106	1.741	1.737	1.499	1.517	1.350	1.354	1.537	1.223	1.262	1.207	1.143	1.136	1.067	1.006	1.107	1.092	0.986	0.942	0.841	0.734	0.764	0.896	0.920	1.052	1.086	1.237	1.477	1.645	1.993	2.080	2.257	2.594	2.859	3.036	3.147	3.274	3.566	3.499	3.208	3.249	3.088	3.477	3.602	3.816	4.169	3.447
335.0	211.1	202.5	178.1	170.3	160.3	182.6	249.9	345.9	450.8	570.9	689.1	766.5	752.1	664.6	563.0	508.5	620.5	438.5	198.4	210.7	542.8	1575	3812	9999.9	3412	47.15	7.684	5.522	3.481	3.185	2.670	1.959	1.946	1.669	1.558	1.451	1.412	1.464	1.356	1.088	1.226	1.117	1.173	1.083	1.226	1.140	1.088	1.077	0.853	0.920	0.833	0.869	0.966	0.929	0.959	1.141	1.294	1.472	1.570	1.834	2.145	2.358	2.690	2.904	3.095	3.054	3.390	3.241	3.282	3.260	3.172	3.170	3.296	3.283	2.847	3.056	4.057
340.0	214.6	223.0	192.8	180.7	172.4	214.4	270.9	360.6	461.0	577.5	683.8	748.5	743.7	670.9	565.4	451.4	479.4	588.2	304.2	172.5	216.2	424.7	938.4	5725	9999.9	2900	33.58	7.333	4.895	3.941	3.184	2.064	1.996	1.772	1.587	1.404	1.475	1.331	1.207	1.200	1.281	1.229	1.232	1.158	1.161	1.227	1.097	0.972	1.184	1.023	0.830	1.124	1.017	1.126	1.094	1.148	1.401	1.580	1.707	1.820	2.134	2.189	2.548	2.866	2.883	3.030	3.282	3.208	3.434	3.260	3.352	3.129	3.027	2.990	2.583	2.643	2.786
345.0	228.5	221.7	202.1	189.7	195.6	234.8	296.0	381.1	471.6	572.2	673.9	731.0	733.6	665.8	569.5	450.5	390.3	513.3	480.1	218.0	162.4	188.3	282.2	1449	7853	9999.9	2166	24.21	6.392	4.422	3.374	2.321	2.296	1.798	1.574	1.534	1.492	1.331	1.297	1.298	1.438	1.239	1.199	1.098	1.227	1.123	1.202	1.105	1.115	1.050	0.860	1.055	0.988	1.052	1.299	1.283	1.387	1.609	1.887	2.066	2.273	2.224	2.617	2.775	2.825	2.968	2.964	3.150	3.337	3.009	3.205	3.190	2.937	2.813	2.365	2.460	2.343
350.0	216.1	223.2	194.7	196.5	223.8	267.3	334.9	417.0	499.5	586.2	667.6	719.9	707.5	670.1	579.1	472.4	389.5	384.0	470.3	412.7	224.6	168.0	168.2	403.9	1981	6524	9999.9	4352	29.96	6.687	4.517	3.021	2.520	2.072	1.955	1.524	1.697	1.455	1.335	1.283	1.289	1.230	1.171	1.057	1.179	1.112	1.029	1.178	1.095	1.070	0.916	1.100	1.141	1.156	1.340	1.367	1.593	1.695	1.962	2.200	2.342	2.543	2.611	2.580	2.894	2.997	3.123	3.104	3.189	3.322	3.230	3.236	2.898	3.017	2.639	2.566	2.573
355.0	202.0	210.0	197.0	208.3	241.6	305.8	388.5	462.5	552.0	627.5	685.8	720.3	710.2	670.9	598.5	496.2	417.1	377.3	372.4	453.5	415.9	228.5	181.1	204.7	524.9	1519	3604	9999.9	2998	38.45	6.914	4.579	3.087	2.585	2.286	1.811	1.778	1.653	1.503	1.150	1.287	1.267	1.193	1.179	1.238	1.145	1.049	1.210	1.094	0.963	0.946	1.192	1.315	1.186	1.402	1.645	1.809	1.983	1.957	2.286	2.595	2.576	2.839	2.776	2.852	3.084	3.027	3.001	3.133	3.486	3.049	3.270	3.129	3.333	2.703	2.790	2.695
360.0	214.1	195.6	203.0	217.0	252.0	339.1	425.3	507.0	602.2	671.6	713.7	730.3	711.6	669.1	610.4	517.5	444.8	396.1	365.3	389.5	502.8	353.6	218.1	185.3	222.5	411.7	879.3	4825	9999.9	2504	28.34	5.817	4.182	3.019	2.560	2.023	1.867	1.778	1.625	1.540	1.300	1.188	1.170	1.153	1.297	1.244	1.017	1.177	1.110	0.953	0.927	1.079	1.234	1.368	1.633	1.504	1.920	2.182	2.130	2.645	2.755	2.757	2.831	3.080	2.959	2.940	2.811	2.898	3.186	3.171	2.948	3.371	3.154	3.087	2.830	2.938	2.660
365.0	201.2	204.9	197.4	221.1	272.8	351.5	447.3	544.2	625.8	681.9	722.8	735.2	708.7	675.5	617.9	532.8	469.1	421.8	384.8	369.7	446.4	487.4	297.1	208.1	175.8	182.1	257.4	1213	6211	9999.9	373.7	13.21	6.042	3.906	2.895	2.252	1.852	1.902	1.664	1.689	1.436	1.284	1.271	1.122	1.129	1.195	1.100	1.106	1.156	0.963	1.053	1.304	1.290	1.517	1.449	1.854	2.024	2.271	2.460	2.535	2.705	2.845	2.997	3.082	2.840	2.901	3.001	3.059	3.030	3.401	3.123	3.196	3.239	3.163	3.302	3.014	3.053
370.0	190.2	200.0	195.2	215.0	282.6	366.3	474.7	572.0	651.6	705.9	740.4	739.1	719.3	680.0	624.5	549.3	497.7	454.0	429.4	404.1	405.8	468.0	449.7	294.2	201.2	160.0	143.5	330.6	1552	6655	9306	1512	24.00	5.815	4.004	2.598	2.220	2.015	1.800	1.625	1.488	1.392	1.329	1.201	1.192	1.179	1.045	1.041	1.074	1.060	1.026	1.250	1.319	1.473	1.538	1.817	2.213	2.297	2.585	2.888	3.058	2.856	3.135	3.104	3.116	3.093	3.010	3.025	3.118	3.320	3.202	3.101	3.283	3.027	3.164	3.060	3.054
375.0	194.8	193.0	193.2	218.7	293.9	388.6	502.8	593.4	677.3	732.1	756.7	748.3	733.6	685.7	630.9	568.0	523.2	488.9	464.8	441.5	426.1	421.7	460.0	446.1	271.9	189.8	149.5	162.8	405.7	1541	3751	9999.9	2504	30.57	5.843	3.625	2.724	2.378	2.143	1.549	1.495	1.252	1.366	1.234	1.180	1.219	1.171	1.025	0.965	0.979	1.045	1.086	1.427	1.423	1.733	1.764	2.236	2.497	2.590	2.662	3.006	3.302	3.040	3.401	3.360	3.181	3.166	3.208	3.116	3.210	3.284	3.320	3.328	3.256	3.012	3.090	3.209
380.0	192.2	179.7	188.8	209.7	300.1	405.2	527.9	611.6	686.5	741.3	765.8	757.6	739.3	693.5	632.5	576.1	539.7	506.3	488.6	464.1	443.9	424.5	423.1	484.9	375.6	229.3	170.3	142.6	166.3	397.9	922.6	5812	9999.9	2008	21.22	4.849	3.388	2.626	2.510	2.118	1.700	1.502	1.514	1.240	1.257	1.253	1.272	1.141	1.033	0.913	0.928	1.213	1.299	1.479	1.874	1.810	2.211	2.510	2.640	2.810	3.061	3.166	3.096	3.305	3.365	3.074	3.096	3.407	3.317	3.419	3.157	3.299	3.289	3.237	3.101	3.211	3.336
385.0	191.6	171.2	185.6	215.5	309.2	413.2	532.7	612.4	686.9	745.0	760.5	756.7	731.6	692.7	628.4	577.7	543.3	518.0	499.5	475.2	460.7	432.7	415.9	429.2	450.8	293.1	199.5	156.9	129.0	155.4	262.4	1551	7847	9999.9	293.9	12.05	4.423	3.163	2.680	2.047	1.845	1.800	1.379	1.416	1.280	1.230	1.093	1.043	1.075	0.985	1.010	1.160	1.387	1.440	1.874	1.884	2.194	2.644	2.643	2.806	2.906	2.914	3.236	3.259	3.056	3.198	3.069	3.183	3.131	3.298	3.253	3.274	3.269	3.377	3.257	3.194	3.325
390.0	186.3	172.6	179.6	219.4	301.2	417.3	527.6	610.3	684.0	728.7	745.7	740.0	713.4	671.7	624.0	572.3	546.0	522.0	508.8	488.4	470.5	446.6	419.7	397.0	408.6	382.1	262.2	178.8	139.1	116.9	123.8	397.3	2046	6722	8852	2764	19.61	4.582	3.471	2.580	1.966	1.859	1.528	1.399	1.423	1.368	1.212	1.238	1.154	1.002	1.067	1.239	1.475	1.402	1.928	1.917	2.400	2.481	2.670	2.714	3.000	3.050	3.305	3.171	3.150	3.151	2.970	3.113	3.255	3.024	3.118	3.185	3.139	3.209	3.114	3.220	3.428
395.0	184.7	185.6	172.3	213.9	291.3	408.2	527.3	615.9	675.3	724.6	728.1	715.3	700.0	655.5	604.4	568.8	543.8	526.3	507.9	491.1	470.8	454.7	423.6	393.6	360.9	363.1	353.6	234.7	162.1	123.8	108.4	148.9	495.0	1545	3981	8842	2075	26.18	4.946	3.706	2.338	1.991	1.758	1.436	1.451	1.420	1.163	1.179	1.240	0.949	0.976	1.263	1.360	1.533	1.808	1.876	2.364	2.314	2.778	2.878	2.958	3.066	3.301	3.017	3.103	2.861	3.032	3.000	2.938	2.976	3.273	3.261	3.018	3.342	3.328	3.016	3.538
400.0	187.1	168.4	177.7	206.4	299.4	414.1	523.7	599.0	677.4	693.9	706.5	692.2	683.9	645.9	598.0	560.8	531.8	521.4	504.6	492.6	470.7	453.8	423.2	394.2	356.3	327.8	360.2	304.9	187.8	139.4	115.3	104.5	157.5	378.6	969.1	4773	8724	1687	18.59	4.264	3.110	2.243	1.906	1.577	1.492	1.474	1.238	1.175	1.096	1.041	0.979	1.217	1.405	1.508	1.806	1.886	2.502	2.661	2.627	2.918	2.690	2.834	2.900	3.024	3.265	2.814	2.968	2.703	2.855	2.821	3.125	3.181	3.023	2.960	3.192	3.240	3.379
405.0	186.8	167.6	175.0	213.1	289.8	407.2	516.7	602.7	659.4	676.0	698.4	685.2	662.7	625.2	581.2	551.3	525.7	513.4	495.7	484.2	466.3	446.9	421.2	392.7	358.6	316.2	317.5	340.2	240.4	155.8	129.2	103.2	90.89	123.3	246.1	1228	5800	8196	263.8	11.78	3.638	2.772	2.319	1.848	1.477	1.529	1.246	1.187	1.009	1.031	1.034	1.247	1.467	1.529	1.712	1.986	2.332	2.446	2.647	2.883	2.818	2.775	3.085	2.941	3.321	3.028	2.841	2.736	2.865	2.841	2.831	2.950	2.833	3.059	2.759	2.974	3.270
410.0	180.7	159.4	165.9	197.9	278.1	394.5	499.2	595.2	636.7	662.7	665.9	656.1	632.5	598.1	556.6	525.5	504.4	493.2	481.1	464.7	451.8	436.0	414.7	385.2	351.7	314.5	291.2	299.6	293.6	203.0	146.0	112.0	85.47	74.50	89.68	299.9	1482	5066	6219	2479	17.65	4.096	2.867	2.193	1.748	1.549	1.377	1.375	1.109	1.079	1.060	1.191	1.383	1.454	1.694	1.912	2.367	2.385	2.549	2.931	2.752	2.900	2.963	2.867	3.178	2.823	2.675	2.658	2.697	2.764	2.772	2.783	2.802	2.916	2.831	2.957	3.105
415.0	164.8	157.1	166.4	193.6	269.0	378.1	481.6	578.7	613.1	634.5	637.0	628.0	596.9	556.9	524.0	495.6	473.5	464.8	458.0	445.4	431.7	415.3	395.9	371.3	343.8	311.8	281.5	262.8	267.7	265.3	181.1	122.0	92.56	71.44	61.67	97.05	352.8	1161	2721	7397	1831	23.57	3.893	2.588	2.117	1.817	1.520	1.377	1.192	1.016	0.990	1.139	1.323	1.472	1.771	1.801	2.180	2.367	2.457	2.919	2.886	2.755	2.795	2.961	2.765	2.653	2.566	2.615	2.665	2.706	2.702	2.545	2.837	2.802	2.793	3.016	3.027
420.0	165.9	149.7	158.3	187.9	255.5	359.9	466.4	561.1	595.8	615.3	619.6	592.0	575.3	531.4	500.1	472.4	456.6	445.6	437.2	422.2	411.4	400.5	380.0	360.8	336.9	305.0	275.9	256.0	241.6	265.4	224.1	138.5	100.2	77.22	59.65	56.71	104.7	278.8	660.2	3976	6897	1453	16.09	3.301	2.557	2.261	1.619	1.414	1.298	1.169	1.014	1.222	1.387	1.529	1.594	1.625	2.128	2.419	2.571	2.664	2.764	2.696	2.765	2.738	2.786	2.599	2.447	2.642	2.715	2.478	2.523	2.528	2.600	2.614	2.723	2.797	2.900
425.0	157.0	149.8	150.5	169.3	249.1	346.4	460.9	547.2	589.5	602.5	600.2	573.3	552.4	514.1	481.6	456.1	440.9	426.6	418.7	407.2	395.0	383.4	366.4	348.0	325.9	301.1	274.4	251.9	231.6	235.1	250.0	167.2	108.4	82.59	63.16	51.63	53.48	83.92	165.2	1023	4557	6165	249.2	9.890	3.336	2.298	1.897	1.489	1.221	1.147	0.975	1.176	1.480	1.443	1.692	1.826	1.882	2.348	2.644	2.550	2.777	2.674	2.630	2.285	2.462	2.627	2.304	2.352	2.713	2.290	2.358	2.337	2.481	2.559	2.474	2.527	2.787
430.0	195.8	135.6	142.7	163.9	234.5	337.8	437.2	524.1	568.2	579.3	570.4	549.3	517.6	484.3	453.6	429.0	409.0	400.7	390.0	380.7	370.7	363.7	348.9	333.7	311.8	292.9	270.5	249.5	230.9	213.6	219.5	204.9	137.4	93.81	72.46	56.05	46.65	45.76	56.97	244.5	1159	3755	5142	1065	16.68	3.366	2.372	1.726	1.454	1.177	1.073	1.145	1.398	1.496	1.646	1.712	2.087	2.207	2.356	2.377	2.640	2.616	2.647	2.510	2.315	2.542	2.222	2.377	2.335	2.326	2.465	2.350	2.385	2.513	2.426	2.576	2.610
435.0	352.7	134.1	141.2	161.2	222.8	320.7	413.3	504.0	549.6	558.7	553.7	525.2	491.8	461.0	430.0	397.8	380.7	371.9	363.6	358.0	348.2	339.6	327.6	316.4	297.5	281.5	263.2	247.9	229.2	208.3	195.3	191.9	179.0	117.9	81.81	64.06	51.25	42.11	37.90	74.28	273.9	859.1	2277	5709	1753	23.66	3.375	2.310	1.819	1.359	1.139	1.323	1.374	1.486	1.615	1.618	2.057	2.197	2.216	2.394	2.420	2.389	2.699	2.653	2.180	2.564	2.300	2.158	2.261	2.152	2.210	2.054	2.155	2.388	2.381	2.477	2.325
440.0	475.4	147.3	128.6	149.2	218.2	305.9	405.0	496.6	534.0	549.0	540.9	509.2	470.9	432.0	408.7	382.2	363.6	353.3	348.0	339.8	331.5	321.6	314.3	301.9	289.5	274.4	255.2	241.8	227.6	210.0	188.4	170.4	181.2	144.8	92.81	69.74	56.25	44.51	37.26	39.25	78.96	206.7	551.7	3156	6279	1450	15.03	2.719	2.227	1.480	1.400	1.301	1.305	1.379	1.577	1.642	2.146	2.124	2.371	2.328	2.517	2.493	2.505	2.438	2.281	2.248	2.241	2.254	2.258	2.047	2.375	1.996	2.061	2.224	2.044	2.342	2.470
445.0	487.6	222.2	121.8	151.1	205.0	302.1	396.1	476.9	520.6	528.7	523.8	494.0	452.7	416.7	386.4	360.5	349.6	335.6	327.6	322.6	310.6	304.6	300.9	284.9	277.1	265.0	247.5	235.0	222.7	206.6	189.1	160.9	161.0	161.4	113.1	76.35	60.91	49.11	40.46	34.26	38.32	62.73	137.5	816.5	4121	5848	214.7	9.718	2.674	1.837	1.385	1.237	1.306	1.249	1.488	1.674	2.116	2.034	2.375	2.334	2.540	2.278	2.421	2.550	2.203	2.144	2.120	2.162	2.127	1.955	2.043	2.155	2.204	2.281	2.042	2.209	2.278
450.0	291.8	365.9	137.7	134.6	196.8	280.5	373.7	453.9	493.2	508.7	498.1	467.2	428.1	393.0	363.6	339.1	323.6	313.9	303.0	297.8	287.4	282.2	277.7	269.4	259.1	249.7	236.0	227.1	215.8	203.2	183.1	158.5	144.1	143.7	133.8	95.63	68.50	55.12	45.44	37.21	33.34	34.90	47.01	195.8	1047	3451	4626	956.1	14.13	2.639	1.811	1.566	1.672	1.428	1.521	1.692	1.980	2.046	2.246	2.292	2.391	2.248	2.461	2.472	2.028	2.161	2.018	2.116	2.129	1.953	1.985	2.047	2.086	2.077	1.951	1.992	2.099
455.0	160.9	340.2	249.2	136.1	185.9	264.3	356.4	426.6	471.3	476.1	470.8	430.7	396.9	369.0	334.6	311.6	294.8	283.2	275.5	273.1	263.4	255.7	253.4	247.1	239.1	230.1	219.5	213.9	204.7	195.3	180.4	156.1	137.6	123.1	124.2	119.9	82.50	60.91	50.71	42.45	36.02	31.72	29.90	58.36	245.8	787.3	1920	4537	1433	17.39	2.533	1.999	1.751	1.652	1.486	1.729	1.790	2.042	1.997	2.204	2.293	2.165	2.247	2.260	2.171	2.010	2.082	2.107	1.866	1.958	1.814	1.963	1.717	1.983	1.735	1.871	1.973
460.0	121.5	241.1	335.5	138.5	166.4	243.0	336.5	411.2	447.6	453.5	440.3	417.6	376.6	343.2	309.9	289.1	273.2	263.5	258.3	254.6	245.6	239.1	233.5	232.6	224.6	215.4	208.9	202.4	195.3	188.3	174.5	151.4	134.0	116.9	110.8	118.3	99.23	67.33	54.10	45.52	38.80	32.85	28.05	29.98	68.25	186.1	460.4	2447	4391	1061	12.41	2.685	1.947	1.835	1.836	1.697	1.742	1.899	2.115	2.249	2.271	2.343	2.093	2.105	1.975	2.039	1.922	2.100	1.828	1.628	1.761	1.815	1.536	1.807	1.755	1.849	1.981
465.0	105.8	140.4	360.0	190.8	162.5	232.4	319.1	383.7	423.8	430.0	417.9	392.3	355.0	324.1	290.7	272.3	252.9	245.9	239.4	231.3	227.5	222.2	217.8	214.1	209.6	203.1	195.5	192.9	184.5	180.0	164.8	145.1	127.3	112.1	101.7	101.3	106.1	78.06	56.90	47.75	41.28	34.82	28.67	24.95	28.92	52.68	112.2	622.7	2870	4229	812.7	8.716	2.497	2.200	1.972	1.869	1.718	1.776	2.081	2.211	2.307	2.141	2.124	2.270	1.939	1.933	1.889	1.827	1.870	1.475	1.678	1.702	1.708	1.608	1.685	1.750	1.789
470.0	99.44	101.2	223.9	323.0	170.0	210.1	289.4	348.2	393.7	406.7	384.8	358.9	327.4	295.6	269.3	248.9	232.3	223.9	214.2	207.8	204.0	199.3	196.7	193.0	189.5	183.9	178.7	175.5	169.2	165.6	154.4	138.4	121.2	107.5	95.10	87.33	90.05	87.57	65.70	50.16	43.06	36.24	30.50	25.08	21.91	23.82	34.53	147.0	725.3	2541	3203	862.9	15.89	2.878	2.165	2.021	2.027	2.054	1.970	2.143	2.155	1.997	2.116	1.972	1.858	1.825	1.745	1.623	1.820	1.596	1.505	1.488	1.421	1.624	1.569	1.541	1.614
475.0	93.41	82.32	111.0	347.5	300.5	190.8	262.8	319.7	357.9	367.1	352.3	335.1	293.0	263.4	241.2	221.5	207.7	198.3	190.1	186.3	181.6	175.0	173.2	172.6	167.6	162.6	159.6	157.5	154.1	150.1	140.5	127.8	113.8	100.7	89.17	79.98	75.78	79.08	75.94	56.58	42.92	37.38	30.99	25.93	20.81	17.80	18.04	40.95	168.3	577.9	1260	3168	1473	21.67	2.788	2.127	2.001	1.990	2.047	1.922	2.105	1.777	1.853	1.729	1.860	1.876	1.659	1.574	1.604	1.614	1.445	1.568	1.557	1.412	1.388	1.484	1.584
480.0	84.72	76.52	80.39	244.1	473.4	212.1	240.3	299.4	336.7	347.8	331.5	306.1	273.5	247.0	227.6	204.8	193.7	180.8	174.4	167.5	166.3	162.3	160.9	158.5	154.1	148.4	148.8	145.1	143.1	139.5	131.6	120.4	107.6	96.88	85.49	76.72	68.46	67.90	74.41	64.54	45.41	37.25	31.74	26.01	21.07	16.83	15.19	17.59	44.54	135.0	300.2	1598	3312	1234	17.14	2.726	2.335	2.037	1.941	1.989	1.920	1.836	1.897	1.684	1.790	1.803	1.712	1.563	1.459	1.399	1.333	1.463	1.393	1.548	1.269	1.409	1.519
485.0	90.36	80.90	73.22	136.1	575.6	344.3	229.3	281.2	319.4	324.2	313.9	291.0	257.8	232.8	207.3	193.0	175.5	169.7	163.0	158.0	153.4	150.4	147.7	144.7	142.7	138.6	139.2	136.8	133.5	129.8	125.0	113.4	102.0	91.75	81.81	74.03	66.27	60.88	64.29	67.66	51.61	37.76	32.24	26.30	22.39	17.38	14.67	12.75	17.19	36.58	72.68	402.8	1875	3534	1007	11.53	2.747	2.244	2.047	1.799	1.979	1.802	1.755	1.789	1.591	1.673	1.750	1.604	1.408	1.272	1.262	1.255	1.274	1.405	1.197	1.338	1.397
490.0	74.65	79.04	65.07	90.08	400.8	830.0	286.6	258.4	289.2	297.5	291.3	268.0	242.5	218.6	190.6	175.1	162.0	153.2	146.7	142.4	139.1	134.6	133.0	132.0	128.8	127.5	123.0	123.3	122.8	120.6	115.4	105.7	95.76	85.83	77.91	70.55	63.01	56.93	55.22	59.94	57.50	43.60	32.31	26.54	22.73	18.70	15.45	12.88	11.98	14.99	22.13	95.13	456.8	1720	3266	931.7	16.81	2.765	2.439	2.149	2.022	1.725	1.822	1.706	1.613	1.646	1.484	1.333	1.389	1.288	1.263	1.219	1.216	1.265	1.118	1.299	1.195
495.0	70.03	67.09	63.83	72.39	177.1	1017	813.3	243.0	261.5	270.6	268.2	245.8	223.3	198.9	175.6	161.2	149.2	136.6	132.3	127.7	123.2	121.4	120.9	117.4	115.4	114.2	110.8	111.8	111.6	110.9	105.5	96.02	89.06	78.91	72.39	66.35	59.47	53.97	50.69	49.22	54.06	50.55	36.53	27.07	23.39	19.74	16.14	13.85	11.81	10.87	11.38	26.96	106.6	389.6	1210	3330	1601	22.95	2.943	2.332	2.081	1.935	1.831	1.615	1.524	1.556	1.403	1.273	1.413	1.209	1.223	1.121	1.195	1.130	1.396	1.053	1.128
500.0	63.39	59.85	73.51	68.41	105.4	710.7	1562	307.6	247.0	249.7	251.1	229.6	206.5	181.2	162.6	146.5	136.1	127.5	120.9	117.2	113.4	109.4	107.9	106.6	106.1	103.8	101.3	101.6	102.9	102.2	98.71	89.95	81.96	73.77	67.40	61.36	56.32	52.15	48.05	44.48	45.50	50.13	41.07	29.50	24.06	19.94	16.70	14.09	11.93	10.28	9.173	11.95	29.01	91.70	284.2	1576	3675	1220	16.08	2.560	2.086	1.942	1.766	1.561	1.552	1.350	1.318	1.198	1.251	1.130	1.224	1.245	0.969	1.052	1.357	1.174	1.106
505.0	65.09	48.02	66.62	66.00	85.32	341.1	2005	830.4	228.1	231.5	232.8	215.1	189.6	172.1	150.5	136.8	126.1	116.1	109.7	105.1	103.8	99.39	97.80	97.41	96.36	95.12	93.25	93.61	94.00	92.73	90.96	82.90	76.25	68.18	62.68	58.54	52.89	48.62	45.16	42.01	39.92	43.43	43.24	32.63	24.07	19.39	16.82	14.45	12.05	10.53	8.996	8.856	12.13	25.08	68.44	386.0	2118	3425	229.0	9.290	2.197	2.002	1.858	1.572	1.408	1.272	1.303	1.109	1.257	1.210	1.254	1.102	1.027	1.093	1.211	1.181	1.149
510.0	57.54	45.62	58.41	67.25	74.60	155.2	1242	2440	411.8	212.7	206.6	191.1	170.4	153.1	134.0	122.9	110.6	103.6	98.43	93.37	91.19	89.41	86.50	86.06	85.42	83.84	83.08	83.68	83.57	83.37	80.70	74.42	68.51	61.43	56.55	52.78	47.70	45.00	41.21	39.09	35.64	35.08	38.18	36.27	26.80	19.98	17.00	14.67	12.41	10.97	9.285	8.480	8.181	10.42	19.91	90.51	520.0	1763	2481	928.0	15.67	2.313	1.982	1.639	1.385	1.282	1.235	1.023	1.139	1.134	1.132	0.959	0.956	1.013	1.064	0.887	1.029
515.0	48.69	47.63	46.23	67.98	70.13	106.4	409.1	2867	1682	196.8	183.1	167.1	154.7	134.1	121.5	107.2	97.99	91.60	87.48	81.30	80.08	76.82	75.24	74.51	74.60	74.38	71.40	72.35	71.96	73.11	70.55	65.54	60.72	55.66	50.78	46.55	43.16	40.80	36.86	35.24	32.48	30.51	30.15	32.74	31.18	21.62	16.72	14.17	12.20	10.72	9.246	8.437	7.489	7.320	8.953	24.34	119.7	398.2	940.6	2516	1390	21.56	2.262	1.747	1.634	1.336	1.205	1.173	1.087	1.069	1.040	0.986	0.865	1.064	0.847	0.942	1.020
520.0	54.00	37.90	45.23	62.41	76.83	88.92	188.2	1770	3267	264.4	169.7	159.3	137.3	121.9	109.5	97.01	87.59	81.07	76.81	76.10	72.47	69.90	68.03	66.33	66.41	65.25	65.60	64.38	65.18	65.16	63.26	59.78	55.07	50.45	47.23	42.71	39.50	36.76	33.76	31.60	30.12	27.75	26.14	27.19	31.19	24.30	16.72	14.16	11.97	10.57	8.986	8.448	7.287	6.808	6.310	9.194	30.32	92.16	221.5	1224	2797	893.9	13.21	1.985	1.716	1.390	1.160	1.038	0.929	1.035	1.074	0.991	0.794	0.943	0.807	0.754	0.915
525.0	47.94	37.34	39.44	51.97	86.47	80.10	126.3	673.4	3980	1090	160.8	145.4	125.7	112.5	101.1	88.96	78.17	74.47	71.27	67.40	64.32	62.42	61.21	60.33	59.69	58.52	58.60	58.43	60.01	59.40	57.89	54.28	50.49	46.19	44.04	39.26	37.57	33.57	31.30	28.85	27.44	25.67	23.48	22.72	26.89	26.15	18.05	13.80	11.53	10.31	9.110	8.322	7.196	6.536	6.094	6.217	10.38	24.06	52.75	302.5	1651	2438	210.8	5.227	1.693	1.411	1.270	1.122	0.924	0.882	0.928	0.956	0.828	0.797	0.888	0.838	0.915
530.0	41.56	33.56	32.23	39.28	81.36	90.20	100.4	246.9	2214	3297	391.2	128.8	112.3	99.34	87.95	76.55	69.97	64.39	61.79	58.83	56.10	54.82	53.66	52.63	51.84	52.30	50.65	51.65	51.74	51.57	49.70	47.19	44.28	40.51	38.09	34.61	32.79	30.31	28.20	26.61	24.29	22.72	20.86	19.65	20.40	22.99	20.84	15.03	11.11	9.825	8.690	7.765	6.882	6.521	5.731	5.156	5.626	8.401	14.47	70.23	409.3	1318	1702	693.1	13.38	1.656	1.268	1.069	1.004	0.824	0.899	0.839	0.865	0.762	0.742	0.764	0.866
535.0	28.60	31.35	31.44	31.67	57.40	100.5	89.18	133.0	636.5	3588	1703	126.5	97.40	89.61	75.88	69.49	61.07	56.13	53.64	50.59	48.88	46.72	45.88	45.49	44.34	44.91	44.18	44.18	46.10	44.47	43.11	40.25	38.38	34.93	32.08	31.18	27.77	26.63	24.55	23.63	22.10	20.06	18.50	17.64	16.68	17.95	20.05	16.87	11.88	9.335	8.435	7.178	6.527	6.070	5.736	4.982	4.730	4.795	5.999	18.06	93.71	298.1	690.2	2010	942.2	16.71	1.581	1.234	1.120	0.984	0.896	0.669	0.789	0.696	0.777	0.633	0.700
540.0	39.60	28.95	27.44	29.05	45.21	106.3	94.99	102.3	225.4	2023	3843	209.4	88.77	79.28	69.54	61.24	55.90	50.28	48.94	46.84	43.14	42.59	42.57	40.58	40.13	39.90	39.18	39.34	40.04	40.06	38.98	35.54	33.36	32.31	29.22	27.32	25.59	24.16	21.71	21.43	19.77	18.48	17.44	16.42	15.07	14.95	16.69	17.21	13.09	9.133	7.861	6.676	6.242	6.029	5.563	4.683	4.449	3.811	4.101	6.477	23.16	68.81	163.9	1054	2013	231.9	9.029	1.278	1.136	0.957	0.830	0.783	0.722	0.702	0.697	0.604	0.838
545.0	33.22	24.77	25.97	27.77	37.77	92.92	109.9	92.12	129.7	720.6	4449	1250	82.60	74.64	63.25	57.88	51.34	46.10	44.47	42.03	38.70	38.13	37.60	36.28	35.78	35.52	35.09	35.80	35.48	36.45	35.22	32.25	29.66	28.62	26.57	24.71	23.29	21.36	20.23	19.69	18.14	17.10	15.69	14.77	14.34	12.92	13.22	15.68	14.21	9.733	7.473	6.408	6.039	5.603	5.375	4.666	4.302	3.690	3.436	3.713	7.368	17.42	38.67	267.6	1289	1688	184.3	3.476	1.101	0.935	0.915	0.746	0.648	0.787	0.529	0.752	0.777
550.0	33.27	26.53	23.32	25.06	30.70	64.19	125.8	91.13	99.37	243.5	2282	4334	317.7	65.58	56.65	48.98	45.14	40.36	39.43	35.93	34.15	33.33	31.86	32.08	31.16	30.65	30.80	31.31	31.08	31.47	30.30	28.01	26.22	24.72	23.21	21.65	20.19	18.84	17.79	17.13	15.92	14.98	14.30	13.56	12.44	11.68	11.00	11.87	13.23	11.23	7.898	6.318	5.714	5.312	4.850	4.330	4.383	3.744	3.218	2.825	3.775	5.807	10.58	61.70	324.3	1044	1278	498.8	11.14	1.092	0.838	0.773	0.703	0.750	0.565	0.706	0.663
555.0	29.87	30.29	22.65	21.63	26.59	44.65	103.5	116.0	84.57	122.9	632.4	4454	1377	66.68	48.92	44.72	37.80	33.32	33.09	31.30	30.02	28.14	27.77	27.47	26.96	26.18	26.37	26.40	26.48	26.68	26.05	25.01	22.44	20.67	19.18	18.26	17.21	15.86	15.35	14.58	13.81	13.24	12.54	11.72	10.94	9.801	9.375	8.889	9.616	10.73	9.281	6.417	5.238	4.861	4.483	3.897	3.373	3.497	3.112	2.698	2.582	2.955	3.766	15.36	73.67	237.0	556.9	1486	245.5	11.69	1.153	0.792	0.737	0.730	0.678	0.662	0.579
560.0	31.46	25.92	20.68	18.02	25.03	35.44	75.32	140.3	84.85	87.85	207.2	2279	3174	142.2	43.26	39.09	34.39	29.78	28.39	27.80	25.77	24.87	24.30	23.90	23.61	23.40	23.48	23.13	22.49	23.23	22.18	22.15	19.58	18.84	17.06	16.18	15.42	14.31	13.93	12.92	12.18	11.10	10.64	9.823	9.750	8.946	8.423	7.263	7.768	9.169	9.393	7.052	4.933	4.200	3.879	3.643	3.238	3.191	3.175	2.773	2.306	2.069	2.292	4.942	17.87	54.30	134.3	813.6	1360	198.1	4.248	1.012	0.740	0.695	0.653	0.547	0.577
565.0	29.29	25.86	19.83	19.56	21.79	32.76	52.24	135.3	93.47	76.65	104.0	750.0	3455	914.4	40.26	33.36	30.73	26.94	24.71	24.52	23.16	21.86	21.59	20.89	20.35	20.48	20.43	19.87	19.86	20.90	19.40	19.07	17.45	16.67	14.63	14.61	13.56	12.90	12.19	11.82	10.85	10.10	9.259	8.843	8.404	8.099	7.546	6.619	6.496	7.026	8.077	7.681	5.026	4.047	3.865	3.518	3.047	2.801	2.824	2.785	2.053	1.996	1.733	2.461	5.351	13.49	31.47	211.3	981.2	1036	31.32	1.422	0.881	0.704	0.588	0.522	0.533
570.0	33.85	22.31	19.60	16.68	20.08	27.88	42.12	94.99	123.2	73.90	79.91	228.5	1608	2870	243.8	28.51	25.13	22.42	21.95	19.87	18.81	17.70	17.49	17.18	16.94	16.52	16.44	16.34	16.40	17.01	16.08	15.37	14.76	13.70	12.62	11.74	10.81	10.37	9.865	9.853	8.730	8.230	8.062	7.902	7.170	6.607	6.347	5.595	5.238	5.112	5.881	6.740	5.579	4.101	3.291	2.916	2.743	2.478	2.481	2.288	2.273	2.071	1.692	1.755	2.254	4.174	8.163	48.42	253.7	676.8	790.6	136.1	6.563	0.793	0.655	0.571	0.537
575.0	34.06	22.26	17.42	15.79	16.97	22.29	33.39	60.02	131.6	90.70	72.57	105.0	424.9	2683	1052	28.70	20.57	19.21	18.68	16.33	15.05	13.79	13.92	13.00	13.84	12.85	13.29	13.16	12.75	12.96	12.93	11.76	11.71	10.80	9.818	9.064	8.788	7.868	7.843	7.392	6.774	7.009	6.283	6.142	5.603	5.348	5.069	4.584	4.434	3.945	3.735	4.764	5.227	4.571	3.031	2.493	2.352	2.089	2.142	1.782	1.946	2.086	1.537	1.557	1.541	1.915	2.909	11.73	57.28	154.0	376.1	817.9	197.6	3.359	0.678	0.594	0.562
580.0	30.11	22.44	18.41	16.96	14.21	21.54	29.68	43.76	113.4	114.0	69.89	77.15	139.2	1270	2781	87.08	17.13	16.18	14.99	13.73	12.47	12.04	11.28	10.80	10.94	10.52	10.66	10.74	10.52	11.30	10.19	9.803	9.080	8.427	8.271	7.664	7.335	6.630	6.752	5.996	5.832	5.845	5.141	5.153	4.576	4.393	4.144	3.850	3.734	3.123	3.076	3.339	4.007	4.320	3.088	2.310	2.132	1.867	1.831	1.600	1.737	1.808	1.727	1.412	1.181	1.242	1.665	3.453	13.65	35.32	92.27	495.7	694.6	30.72	1.053	0.559	0.585
585.0	33.08	24.79	17.03	15.57	14.52	17.18	26.62	37.57	80.63	136.7	76.41	71.07	78.19	398.7	2930	653.7	15.56	13.36	12.53	11.38	10.19	9.972	9.631	9.773	9.548	8.808	8.793	8.869	8.839	9.113	8.624	8.712	7.867	7.084	6.776	6.251	6.254	5.726	5.680	5.110	5.032	4.917	4.310	4.281	4.042	3.959	3.446	3.292	3.240	2.663	2.457	2.487	3.104	3.796	3.483	2.247	1.889	1.705	1.710	1.622	1.380	1.404	1.786	1.441	1.067	1.145	1.213	1.573	4.013	8.712	21.58	134.6	570.3	478.0	23.30	0.809	0.571
590.0	32.81	23.76	15.11	13.89	14.62	16.07	22.64	31.88	52.26	126.4	99.75	69.62	63.34	121.4	1269	2069	61.39	11.40	10.78	9.255	8.916	8.474	7.861	7.869	7.561	7.361	7.083	7.157	7.237	7.218	7.130	6.698	6.012	6.240	5.321	5.183	4.889	4.353	4.781	4.153	3.952	3.785	3.589	3.504	3.277	3.172	2.958	2.611	2.519	2.305	2.101	2.078	2.218	2.864	3.282	2.454	1.804	1.567	1.432	1.310	1.252	1.312	1.422	1.521	1.239	1.079	0.957	1.101	1.586	2.754	5.527	30.83	155.9	400.3	347.0	90.74	2.663
595.0	27.25	21.52	11.30	13.34	13.09	14.32	18.36	29.68	40.86	89.09	131.7	70.08	56.26	56.20	313.8	1884	708.2	12.03	9.023	7.662	7.947	6.430	6.270	6.251	6.347	6.059	5.670	5.782	5.717	5.774	5.516	5.404	4.684	5.149	4.366	4.063	3.668	3.599	3.518	3.396	3.328	3.193	2.904	2.797	2.625	2.709	2.151	2.220	1.993	1.951	1.665	1.631	1.646	1.789	2.521	2.508	1.817	1.484	1.330	1.076	1.263	0.956	1.091	1.323	1.464	1.224	0.993	1.118	1.055	1.261	1.914	7.440	35.23	93.31	225.6	425.5	33.62
600.0	26.22	17.21	14.48	11.49	10.77	16.26	18.22	27.31	38.51	64.20	136.0	82.76	56.58	39.95	87.81	872.1	1624	51.08	8.840	6.646	6.550	5.818	5.825	5.541	5.253	4.960	4.823	4.958	4.859	4.693	4.887	4.460	4.393	4.094	3.902	3.705	3.352	3.057	2.914	2.701	2.591	2.670	2.420	2.162	2.225	2.096	1.894	1.921	1.698	1.529	1.477	1.293	1.321	1.458	1.848	2.072	2.032	1.653	1.101	1.107	1.136	0.977	0.982	0.960	1.296	1.251	1.077	0.964	0.898	0.875	1.005	2.209	8.371	21.47	58.70	307.3	277.0
605.0	25.41	20.44	12.67	11.65	12.77	12.72	17.02	25.36	36.91	52.06	117.8	99.17	54.14	35.15	36.49	257.1	1747	412.9	8.912	6.433	6.058	4.980	5.249	4.718	4.533	4.563	4.303	4.385	4.257	4.060	3.950	3.644	3.387	3.750	3.156	3.229	2.788	2.721	2.525	2.475	2.585	2.293	2.104	1.965	1.950	1.822	1.734	1.733	1.533	1.497	1.336	1.192	1.255	1.190	1.361	1.588	2.011	1.640	0.971	1.114	1.122	0.801	0.875	0.889	0.979	1.159	1.164	0.908	0.815	0.697	0.793	0.936	2.351	5.380	13.77	89.91	289.8
610.0	29.97	18.45	13.10	10.78	10.55	11.36	16.10	23.19	33.99	44.76	81.06	118.9	61.62	33.77	23.56	69.17	802.4	1377	49.32	5.890	5.191	4.602	4.281	4.215	3.799	4.037	3.671	3.419	3.686	3.522	3.521	3.059	3.232	2.898	2.793	2.487	2.452	2.239	2.051	1.952	2.019	1.730	1.729	1.630	1.709	1.543	1.477	1.398	1.426	1.216	1.123	1.102	1.063	1.016	1.084	1.033	1.552	1.556	1.171	0.966	0.875	0.759	0.882	0.832	0.796	0.956	1.046	1.060	0.857	0.647	0.731	0.614	0.937	1.659	3.512	20.61	82.96
615.0	23.11	20.88	13.30	8.859	9.703	10.66	15.97	22.44	31.14	42.84	56.58	102.5	78.96	34.33	20.66	25.16	195.5	1368	1205	6.527	4.380	4.064	3.901	3.398	3.401	3.276	3.031	3.094	3.025	2.765	2.774	2.822	2.772	2.525	2.387	2.370	2.086	1.981	1.763	1.705	1.635	1.483	1.589	1.472	1.495	1.262	1.218	1.225	1.095	0.983	0.860	0.914	0.763	0.924	0.918	0.854	1.095	1.285	1.255	0.982	0.870	0.830	0.768	0.712	0.807	0.736	0.780	1.035	0.883	0.571	0.711	0.583	0.698	0.836	1.244	5.008	18.96
620.0	27.18	18.84	13.79	11.03	9.268	11.94	17.01	22.08	27.67	38.88	50.88	78.56	92.86	36.63	19.75	15.31	51.43	682.3	2571	31.03	4.143	3.237	3.229	3.218	3.063	2.615	2.736	2.847	2.757	2.545	2.532	2.333	2.350	2.268	2.105	1.887	1.773	1.663	1.524	1.499	1.408	1.465	1.388	1.343	1.211	1.099	1.127	1.008	0.995	0.942	0.784	0.773	0.694	0.891	0.757	0.734	0.914	1.170	1.431	1.015	0.888	0.671	0.814	0.726	0.665	0.640	0.698	0.847	0.944	0.650	0.636	0.550	0.577	0.660	0.720	1.535	4.552
625.0	25.87	17.88	12.46	10.44	9.925	10.66	14.91	20.98	27.33	37.13	48.46	60.39	91.08	42.90	19.44	13.59	18.02	206.4	2889	303.4	3.859	3.137	3.074	2.751	2.720	2.425	2.628	2.448	2.285	2.272	2.214	2.378	2.091	2.032	1.947	1.610	1.609	1.544	1.336	1.459	1.246	1.410	1.245	1.119	1.100	1.093	1.064	0.823	0.910	0.761	0.773	0.667	0.767	0.745	0.745	0.653	0.772	0.872	0.995	1.172	0.934	0.663	0.767	0.758	0.616	0.693	0.644	0.704	0.756	0.631	0.638	0.575	0.443	0.526	0.509	0.694	1.366
630.0	26.08	16.44	12.81	9.686	9.622	9.398	13.28	19.15	25.88	34.66	43.27	48.22	69.15	59.29	21.15	12.40	11.36	53.39	1346	1207	29.92	2.757	3.035	2.649	2.218	2.177	2.091	1.899	2.079	2.072	1.874	1.933	1.777	1.633	1.522	1.575	1.325	1.214	1.119	1.179	1.228	1.146	1.019	1.036	0.979	0.915	0.890	0.814	0.769	0.748	0.595	0.622	0.694	0.583	0.638	0.638	0.642	0.673	0.797	1.000	0.909	0.679	0.596	0.681	0.614	0.618	0.618	0.614	0.683	0.769	0.676	0.590	0.542	0.481	0.466	0.532	0.619
635.0	22.95	15.82	11.83	9.219	10.73	10.51	12.79	17.77	25.39	32.65	39.32	41.96	48.91	64.21	28.29	12.49	9.542	17.37	322.1	1351	434.9	3.384	2.959	2.400	2.037	1.830	1.702	1.567	1.788	1.770	1.480	1.448	1.460	1.417	1.349	1.238	1.080	1.025	0.948	1.065	1.020	0.924	0.839	0.959	0.844	0.745	0.740	0.722	0.629	0.589	0.575	0.583	0.535	0.680	0.639	0.566	0.695	0.671	0.605	0.709	0.906	0.813	0.565	0.637	0.588	0.502	0.669	0.525	0.454	0.597	0.760	0.595	0.623	0.497	0.496	0.391	0.378
640.0	24.72	14.84	12.23	9.046	9.058	10.39	14.12	16.62	24.83	28.32	36.44	40.54	40.25	56.52	38.30	13.89	8.788	9.285	78.49	727.3	1133	14.44	2.780	2.168	1.984	1.714	1.594	1.538	1.491	1.548	1.387	1.297	1.243	1.157	1.105	1.195	1.092	1.105	0.839	0.998	1.041	0.900	0.698	0.801	0.828	0.784	0.695	0.604	0.655	0.546	0.511	0.463	0.524	0.524	0.634	0.478	0.576	0.639	0.572	0.596	0.745	0.704	0.693	0.566	0.563	0.543	0.531	0.409	0.487	0.466	0.693	0.629	0.621	0.376	0.542	0.464	0.413
645.0	20.25	12.95	12.90	9.437	8.287	9.971	16.01	19.25	24.03	28.57	32.14	37.34	37.04	44.88	45.98	14.51	9.582	7.375	22.75	219.5	1423	63.56	2.832	2.037	1.856	1.726	1.525	1.375	1.364	1.418	1.334	1.272	1.337	1.146	1.136	1.091	0.814	0.916	0.724	0.790	0.827	0.883	0.622	0.722	0.611	0.600	0.673	0.609	0.564	0.518	0.465	0.488	0.446	0.500	0.496	0.468	0.459	0.535	0.418	0.541	0.700	0.817	0.640	0.695	0.482	0.573	0.523	0.474	0.557	0.381	0.542	0.595	0.642	0.488	0.452	0.425	0.414
650.0	23.82	18.95	10.14	10.32	7.517	8.508	13.54	16.59	20.50	26.67	33.23	36.49	34.88	35.04	48.27	19.57	9.367	7.657	10.14	56.01	1016	462.7	4.390	2.177	1.818	1.726	1.424	1.294	1.220	1.341	1.218	1.284	1.210	1.140	1.045	1.036	0.891	0.797	0.794	0.746	0.766	0.737	0.746	0.665	0.643	0.583	0.580	0.538	0.488	0.500	0.416	0.463	0.545	0.436	0.446	0.496	0.498	0.444	0.443	0.427	0.612	0.687	0.699	0.590	0.561	0.549	0.506	0.498	0.543	0.552	0.525	0.503	0.622	0.572	0.360	0.599	0.385
