Sample:	'1
File name:	Default_20230725_161738.FD3
Run date:	'16:11:17, 07/25/2023
Operator:	dsjg
Comment:	'

Instrument
Model:	F-2700 FL Spectrophotometer
Serial number:	2198-001
ROM Version:	4J14000 07

Instrument parameters
Measurement type:	3-D scan
Data mode:	Fluorescence
EX  Start WL:	220.0 nm
EX  End WL:	600.0 nm
EX Sampling interval:	5.0 nm
EM  Start WL:	230.0 nm
EM  End WL:	650.0 nm
EM Sampling interval:	5.0 nm
Scan speed:	12000 nm/min
EX Slit:	5.0 nm
EM Slit:	5.0 nm
PMT Voltage:	700 V
Response:	Auto 
Corrected spectra:	Off
Contour interval:	50.000

Peak integration
Integration method:	Rectangular
Sensitivity:	1
Threshold:	1.000

Peaks
No.	ApexEX/EM(nm)	Height(Data)
1	225.0/600.0	23.92
2	230.0/345.0	721.3
3	240.0/265.0	130.5
4	240.0/385.0	552.8
5	245.0/270.0	122.1
6	245.0/405.0	519.2
7	250.0/545.0	79.26
8	255.0/280.0	153.4
9	255.0/425.0	468.4
10	265.0/585.0	36.18
11	270.0/300.0	290.7
12	270.0/385.0	504.1
13	270.0/595.0	30.60
14	275.0/305.0	361.5
15	275.0/610.0	29.30
16	280.0/310.0	365.1
17	280.0/345.0	478.1
18	280.0/615.0	25.59
19	285.0/320.0	396.4
20	285.0/630.0	20.90
21	290.0/325.0	403.2
22	290.0/645.0	18.83
23	315.0/355.0	245.4
24	320.0/360.0	248.7
25	325.0/370.0	247.7
26	330.0/375.0	249.9
27	335.0/380.0	254.1
28	350.0/400.0	217.8
29	430.0/505.0	21.81
30	445.0/525.0	13.14
31	460.0/340.0	3.077
32	460.0/545.0	7.496

Data points
	220.0	225.0	230.0	235.0	240.0	245.0	250.0	255.0	260.0	265.0	270.0	275.0	280.0	285.0	290.0	295.0	300.0	305.0	310.0	315.0	320.0	325.0	330.0	335.0	340.0	345.0	350.0	355.0	360.0	365.0	370.0	375.0	380.0	385.0	390.0	395.0	400.0	405.0	410.0	415.0	420.0	425.0	430.0	435.0	440.0	445.0	450.0	455.0	460.0	465.0	470.0	475.0	480.0	485.0	490.0	495.0	500.0	505.0	510.0	515.0	520.0	525.0	530.0	535.0	540.0	545.0	550.0	555.0	560.0	565.0	570.0	575.0	580.0	585.0	590.0	595.0	600.0
230.0	57.96	599.3	 1064	267.0	13.53	6.780	6.253	5.129	4.567	4.204	3.522	3.357	2.866	2.434	2.006	1.795	1.558	1.343	1.441	1.281	1.172	1.165	1.114	1.038	1.001	0.993	0.909	0.936	0.993	0.982	1.015	0.957	0.934	0.925	0.943	1.041	1.119	1.119	1.081	1.032	1.063	1.078	1.047	0.957	0.931	0.829	0.994	2.058	3.933	3.745	2.120	0.922	0.676	0.672	0.647	0.678	0.688	0.693	0.655	0.618	0.600	0.592	0.616	0.558	0.574	0.520	0.525	0.512	0.543	0.540	0.540	0.453	0.473	0.483	0.457	0.467	0.476
235.0	45.86	183.8	797.5	 1119	335.1	17.99	6.555	5.529	5.034	4.273	3.940	3.106	2.859	2.354	1.949	2.162	1.651	1.408	1.525	1.290	1.352	1.160	0.966	0.965	1.077	1.048	0.926	0.883	0.887	0.872	0.914	0.884	0.936	0.866	0.938	0.919	1.077	1.159	1.137	1.029	1.005	1.087	1.013	1.033	0.890	0.943	0.878	1.112	1.743	2.551	3.858	4.800	2.870	1.212	0.711	0.617	0.779	0.701	0.641	0.609	0.628	0.557	0.559	0.560	0.603	0.601	0.523	0.535	0.568	0.517	0.508	0.522	0.481	0.452	0.379	0.502	0.503
240.0	61.11	69.97	289.3	 1119	 1227	248.5	9.993	6.182	5.327	4.026	4.125	3.255	3.526	2.572	2.315	1.952	2.030	1.839	1.502	1.354	1.217	0.982	1.054	1.193	1.159	1.039	0.993	0.818	0.930	0.941	0.896	0.901	0.987	0.950	0.951	0.892	0.940	1.023	1.079	1.024	1.066	0.971	0.930	1.003	1.043	1.101	0.966	0.961	1.035	1.148	1.979	4.561	6.341	5.366	2.410	0.852	0.675	0.627	0.562	0.611	0.627	0.552	0.561	0.592	0.621	0.548	0.489	0.504	0.511	0.472	0.469	0.508	0.502	0.416	0.452	0.440	0.456
245.0	59.30	80.50	88.65	468.2	 1460	 1136	151.2	7.341	5.553	4.609	4.716	3.604	3.116	2.891	2.128	1.897	1.883	1.730	1.524	1.495	1.219	1.120	1.151	1.151	1.043	0.953	0.983	0.909	0.981	1.138	0.942	0.932	0.831	0.830	0.903	1.043	0.967	0.921	1.191	1.026	1.106	1.020	0.991	0.980	0.976	1.073	1.121	1.084	0.972	0.828	1.079	1.827	3.759	6.785	7.445	4.672	1.646	0.722	0.627	0.630	0.613	0.584	0.563	0.591	0.625	0.578	0.529	0.501	0.519	0.485	0.539	0.567	0.508	0.524	0.441	0.434	0.482
250.0	39.08	75.06	89.91	138.1	556.7	 1347	 1387	223.6	26.26	5.173	4.540	3.958	3.380	3.019	2.345	2.021	2.007	1.739	1.500	1.572	1.195	1.156	1.140	1.133	1.110	0.993	1.113	0.961	1.022	1.095	1.057	0.987	0.837	0.936	0.932	1.063	0.904	0.915	1.035	1.123	1.131	1.075	1.033	1.011	1.009	1.009	1.002	1.029	0.916	0.942	0.904	1.005	1.405	2.553	4.297	6.278	7.652	6.571	4.070	1.494	0.680	0.648	0.588	0.610	0.563	0.532	0.535	0.511	0.491	0.474	0.522	0.462	0.469	0.511	0.477	0.513	0.496
255.0	26.25	34.58	91.31	121.1	148.7	383.2	 1305	 1974	301.0	27.55	5.292	4.718	3.713	3.163	2.559	2.270	1.843	1.746	1.692	1.284	1.351	1.227	1.182	1.108	1.205	0.921	1.107	1.016	0.868	0.993	1.184	1.084	0.991	0.968	0.918	0.993	0.913	0.885	0.979	1.028	1.072	1.171	1.035	1.170	0.930	0.935	0.953	0.906	0.866	0.960	0.988	1.163	0.963	1.131	1.540	1.966	3.132	6.322	10.78	10.72	5.536	1.546	0.605	0.511	0.614	0.581	0.529	0.513	0.569	0.550	0.495	0.497	0.460	0.472	0.508	0.442	0.470
260.0	19.18	20.82	47.73	112.6	104.4	104.2	461.1	 1832	 2147	246.0	12.61	6.113	4.223	3.804	2.682	2.296	1.997	1.803	1.873	1.330	1.354	1.213	1.151	1.239	1.248	0.896	1.057	1.055	0.864	0.865	1.055	1.042	1.089	0.924	1.001	0.983	0.921	0.900	0.957	0.839	0.930	1.097	1.059	1.033	0.969	0.908	0.930	0.840	0.828	0.820	0.862	1.152	1.282	1.056	0.937	0.983	1.292	2.222	5.273	9.816	12.91	9.912	4.033	0.840	0.607	0.584	0.576	0.493	0.537	0.529	0.449	0.521	0.454	0.446	0.512	0.462	0.442
265.0	21.11	16.33	23.91	72.50	130.5	74.83	119.7	709.3	 2502	 1911	185.9	8.706	4.661	3.861	3.577	2.758	2.124	2.098	1.536	1.385	1.380	1.310	1.114	1.247	1.166	0.985	0.941	0.963	1.091	1.065	1.057	1.134	0.982	1.053	1.022	1.005	0.840	0.834	0.890	0.883	0.913	1.052	1.079	1.057	0.980	0.934	0.947	0.888	0.791	0.814	0.781	0.884	1.143	1.175	1.049	0.918	0.901	1.109	1.828	3.530	8.148	13.12	13.88	8.193	2.307	0.614	0.520	0.541	0.596	0.590	0.475	0.519	0.431	0.489	0.547	0.481	0.497
270.0	22.39	21.44	16.55	29.46	78.59	122.1	89.73	183.1	875.0	 1968	 2139	767.6	46.64	5.044	3.685	2.991	2.408	1.993	1.659	1.652	1.533	1.465	1.241	1.196	1.159	1.090	1.047	0.991	1.066	1.069	1.083	1.070	1.038	1.048	0.986	0.995	0.957	0.892	0.901	0.861	0.917	0.918	0.982	1.048	1.040	1.047	0.855	0.890	0.804	0.802	0.718	0.778	0.948	0.907	1.100	1.140	1.161	0.976	1.001	1.358	2.448	4.477	7.774	10.83	12.60	10.65	6.026	2.010	0.653	0.517	0.494	0.492	0.458	0.498	0.497	0.483	0.533
275.0	31.63	28.34	19.67	18.23	29.87	72.39	142.7	117.7	214.4	527.4	 1633	 2923	 1115	53.39	5.049	3.580	2.766	2.434	1.964	2.032	1.627	1.510	1.566	1.239	1.215	1.159	1.120	1.063	1.068	1.241	1.083	0.958	0.982	0.901	0.982	0.987	0.866	0.989	0.910	0.960	0.964	0.822	0.976	1.028	1.169	1.035	1.101	0.980	0.838	0.799	0.863	0.755	0.796	0.765	0.821	0.898	1.172	1.319	1.347	1.126	1.091	1.581	2.208	2.986	4.848	9.320	15.29	15.63	8.408	1.890	0.583	0.572	0.512	0.476	0.529	0.521	0.576
280.0	42.32	38.41	26.41	20.33	19.42	32.52	109.5	153.4	109.3	141.4	531.2	 2162	 3051	853.5	22.51	4.117	2.986	2.550	2.136	1.915	1.687	1.498	1.666	1.450	1.216	1.161	1.082	1.128	1.182	1.264	1.007	1.036	1.114	1.009	0.965	0.910	1.008	1.075	0.953	1.014	0.898	0.994	0.937	0.927	1.120	1.146	1.181	1.028	0.845	0.842	0.876	0.787	0.797	0.756	0.755	0.767	0.904	1.257	1.500	1.374	1.016	1.011	1.034	1.153	1.639	2.940	6.980	13.26	18.38	14.10	4.825	0.872	0.564	0.492	0.469	0.578	0.563
285.0	56.83	47.77	34.81	24.57	20.09	21.84	54.61	145.5	153.1	78.78	154.2	750.4	 2552	 2920	135.2	8.333	3.940	2.905	2.529	2.380	1.947	1.829	1.592	1.430	1.423	1.134	1.058	1.229	1.081	1.151	1.126	1.068	1.078	0.908	0.988	1.011	1.118	1.053	1.037	1.050	0.868	0.922	1.029	0.902	1.002	1.059	1.248	1.136	0.900	0.936	0.954	0.811	0.819	0.801	0.714	0.771	0.782	0.919	1.109	1.340	1.632	1.267	1.003	0.924	0.988	1.218	2.152	4.499	9.724	16.67	17.99	11.04	2.604	0.618	0.528	0.535	0.478
290.0	72.21	68.41	50.29	38.92	29.77	27.71	37.34	78.77	158.4	168.3	117.1	223.8	826.7	 2041	 2402	 1078	35.28	4.000	3.025	2.739	2.229	1.835	1.715	1.423	1.517	1.241	1.182	1.251	1.204	1.156	1.119	1.107	1.145	1.044	1.007	1.104	1.059	1.003	1.076	1.100	0.936	0.950	1.012	0.914	1.003	1.005	1.153	1.084	1.058	1.018	0.993	0.862	0.859	0.800	0.819	0.844	0.886	0.848	0.852	0.959	1.188	1.476	1.536	1.353	1.030	0.926	1.169	1.634	2.927	5.363	8.878	12.72	14.58	12.38	6.964	2.179	0.560
295.0	83.51	83.15	72.12	53.15	41.79	41.52	47.61	60.48	101.8	193.6	237.2	157.8	253.9	547.4	 1373	 2940	782.1	41.04	3.970	3.127	2.400	2.189	1.996	1.717	1.480	1.489	1.274	1.282	1.390	1.130	1.169	1.148	1.133	1.022	1.034	1.155	1.070	1.170	1.152	1.050	1.012	1.129	1.012	0.946	1.006	1.003	1.060	1.176	1.186	1.019	0.977	0.917	0.874	0.862	0.917	0.911	0.992	0.848	0.932	0.943	0.942	1.168	1.251	1.634	1.782	1.463	1.148	1.145	1.383	1.884	2.585	3.563	5.288	9.644	17.70	18.80	9.009
300.0	94.78	98.55	91.27	66.98	57.80	58.96	63.81	73.77	101.6	171.3	290.7	233.8	169.7	204.3	446.9	 1834	 3132	626.9	20.72	4.171	2.859	2.537	2.135	1.840	1.652	1.423	1.418	1.286	1.262	1.202	1.269	1.075	1.125	1.163	1.244	1.112	1.176	1.053	1.052	1.032	1.054	1.097	1.136	1.083	0.917	1.070	1.066	1.129	1.125	1.042	0.985	1.092	0.905	0.963	0.952	1.044	1.032	0.996	1.004	0.987	0.930	1.178	1.066	1.317	1.724	2.135	1.773	1.387	1.269	1.221	1.273	1.515	1.863	3.078	7.379	15.03	22.06
305.0	109.5	114.2	107.3	84.23	71.61	78.83	90.39	101.4	129.9	173.4	280.4	361.5	216.2	172.0	192.5	630.4	 2288	 3114	459.5	8.780	3.291	2.744	2.207	1.972	1.690	1.713	1.410	1.375	1.358	1.233	1.230	1.208	1.150	1.204	1.071	1.069	1.120	1.168	1.146	1.079	1.117	1.183	1.083	1.066	0.985	1.156	1.163	1.108	1.050	1.098	1.019	1.182	0.980	1.031	0.997	1.052	1.075	1.131	1.152	1.108	1.079	1.199	1.193	1.345	1.478	1.827	2.011	2.304	1.646	1.267	1.179	1.165	1.214	1.403	2.448	5.078	11.45
310.0	118.4	132.0	130.5	107.4	91.41	100.2	112.6	127.7	160.1	194.9	252.6	336.2	365.1	246.5	170.3	230.1	725.6	 1982	 2699	 1150	26.20	3.823	2.905	2.372	2.021	1.716	1.610	1.608	1.489	1.388	1.336	1.233	1.223	1.134	1.169	1.134	1.209	1.315	1.151	1.239	1.054	1.090	1.133	1.045	1.101	1.146	1.209	1.153	1.105	1.040	1.031	1.217	1.228	1.179	1.108	1.162	1.050	1.258	1.208	1.254	1.246	1.341	1.375	1.474	1.596	1.646	1.755	2.266	2.286	2.009	1.645	1.270	1.233	1.198	1.409	1.858	3.391
315.0	151.3	170.4	157.8	126.6	112.0	117.6	130.3	150.6	183.7	221.8	268.0	310.2	354.9	381.6	242.0	161.5	247.8	527.8	 1303	 3115	555.2	31.32	3.657	3.185	2.726	2.163	1.832	1.898	1.565	1.451	1.497	1.296	1.231	1.296	1.188	1.147	1.267	1.261	1.189	1.217	1.148	1.197	1.121	1.056	1.113	1.193	1.283	1.199	1.222	1.085	1.102	1.108	1.226	1.264	1.228	1.323	1.183	1.341	1.326	1.324	1.380	1.364	1.683	1.593	1.793	1.778	1.767	1.951	1.855	2.147	2.204	2.100	1.641	1.360	1.261	1.300	1.611
320.0	215.4	243.9	220.7	164.1	134.5	133.5	146.3	172.6	210.6	247.4	301.7	330.7	351.7	396.4	357.3	194.4	159.1	188.9	384.5	 1730	 3195	475.2	16.89	3.522	2.874	2.158	2.134	1.834	1.631	1.555	1.483	1.460	1.390	1.431	1.273	1.124	1.227	1.386	1.233	1.257	1.183	1.201	1.198	1.181	1.273	1.384	1.550	1.579	1.438	1.276	1.167	1.248	1.364	1.287	1.331	1.186	1.407	1.356	1.382	1.419	1.437	1.542	1.609	1.661	1.961	1.907	1.943	2.056	1.995	2.189	2.031	2.447	2.226	1.831	1.317	1.276	1.239
325.0	285.5	360.8	351.7	240.7	173.8	159.6	167.6	192.3	227.3	274.1	328.3	366.2	373.9	380.1	403.2	283.4	162.0	127.0	133.0	529.1	 2234	 3112	365.1	7.813	3.561	2.586	2.194	1.964	1.837	1.688	1.528	1.371	1.504	1.307	1.344	1.249	1.137	1.245	1.363	1.310	1.324	1.221	1.232	1.339	1.566	1.585	1.746	1.849	1.804	1.631	1.483	1.461	1.326	1.289	1.388	1.317	1.502	1.548	1.517	1.474	1.462	1.640	1.731	1.787	2.053	2.164	2.053	2.057	2.217	2.127	2.064	2.207	2.418	2.431	1.989	1.440	1.156
330.0	359.2	503.6	516.3	370.3	243.4	193.4	194.0	216.7	253.3	307.9	363.1	409.3	416.4	396.8	377.2	354.0	252.7	141.8	96.69	164.7	650.0	 1942	 2704	 1122	23.16	3.586	2.767	2.320	1.949	1.736	1.685	1.592	1.560	1.483	1.459	1.323	1.354	1.394	1.316	1.325	1.290	1.320	1.400	1.410	1.763	1.907	2.019	2.212	2.339	2.068	1.914	1.857	1.710	1.515	1.565	1.558	1.573	1.578	1.643	1.599	1.561	1.747	1.857	1.920	2.009	2.263	2.265	2.326	2.388	2.251	2.274	2.198	2.193	2.258	2.151	2.131	1.774
335.0	426.9	591.0	633.3	475.4	322.9	231.4	219.4	238.4	274.3	332.0	396.5	438.2	454.9	426.9	378.3	325.4	327.7	222.7	114.1	100.9	191.6	488.4	 1288	 3302	 1614	28.18	3.578	2.815	2.300	2.179	1.913	1.875	1.751	1.525	1.448	1.363	1.448	1.422	1.425	1.399	1.411	1.387	1.473	1.574	1.856	2.087	2.159	2.535	2.657	2.442	2.224	2.269	2.019	1.771	1.565	1.528	1.721	1.618	1.736	1.675	1.936	1.996	2.066	2.028	2.362	2.305	2.312	2.378	2.468	2.391	2.392	2.261	2.019	2.291	1.933	2.121	2.148
340.0	443.8	652.2	700.2	542.4	359.8	272.1	238.1	249.0	295.7	346.6	411.5	453.7	474.5	443.0	391.1	320.2	304.6	293.3	156.5	100.7	101.8	154.0	365.3	 1838	 3720	402.2	14.79	3.481	2.689	2.504	1.846	1.812	1.663	1.718	1.438	1.470	1.413	1.531	1.447	1.330	1.404	1.487	1.431	1.577	1.822	2.014	2.265	2.747	3.077	2.545	2.381	2.533	2.221	1.982	1.767	1.538	1.688	1.613	1.990	1.847	2.010	1.991	1.984	2.180	2.250	2.341	2.363	2.508	2.544	2.535	2.309	2.372	2.149	2.186	2.005	1.977	1.945
345.0	447.6	649.4	721.3	594.5	404.9	294.2	265.1	271.5	302.3	354.7	413.1	460.0	478.1	454.0	402.4	328.6	279.4	287.1	229.2	120.3	89.98	91.14	123.0	545.3	 2591	 3112	311.2	6.780	3.177	2.711	2.118	1.914	1.590	1.549	1.634	1.494	1.578	1.720	1.571	1.412	1.414	1.558	1.536	1.647	1.845	2.082	2.262	2.814	2.879	2.615	2.431	2.616	2.313	2.069	1.775	1.655	1.715	1.852	2.024	1.891	1.877	1.940	2.067	2.201	2.145	2.387	2.363	2.557	2.540	2.566	2.470	2.315	2.252	2.077	1.961	2.055	1.763
350.0	409.0	624.6	706.1	606.3	446.6	337.6	297.1	302.9	321.4	365.5	410.1	456.5	466.2	450.2	406.5	337.6	281.7	249.7	250.7	201.5	122.4	95.28	84.86	161.4	724.5	 2057	 2721	 1056	21.10	3.623	2.815	2.327	2.005	1.682	1.783	1.527	1.589	1.620	1.563	1.405	1.471	1.492	1.519	1.573	1.831	2.102	2.297	2.636	2.788	2.645	2.460	2.588	2.432	2.151	1.969	1.853	1.830	1.909	1.975	2.018	2.012	2.037	2.164	2.249	2.316	2.367	2.494	2.519	2.592	2.459	2.431	2.324	2.420	2.246	2.053	1.980	1.871
355.0	381.6	578.9	680.8	606.5	476.0	389.6	343.2	335.0	357.6	394.9	424.7	455.3	460.7	450.5	404.4	349.3	297.8	251.8	227.8	245.4	198.7	121.8	96.19	92.63	202.3	502.7	 1323	 3313	 1468	27.19	3.672	2.871	2.366	2.021	1.866	1.574	1.548	1.594	1.436	1.581	1.416	1.542	1.648	1.484	1.796	2.038	2.250	2.582	2.604	2.642	2.537	2.767	2.431	2.355	2.162	2.047	2.086	1.916	2.012	2.034	2.185	2.260	2.435	2.357	2.412	2.427	2.593	2.419	2.594	2.557	2.477	2.381	2.617	2.227	2.076	2.036	1.941
360.0	361.9	530.3	659.1	599.8	493.3	413.9	379.2	374.9	389.0	413.3	430.0	455.8	461.3	451.8	407.8	361.8	311.6	263.6	232.4	231.3	248.7	168.8	114.5	92.03	96.84	148.7	363.0	 1895	 3464	376.5	15.40	3.879	2.902	2.404	2.058	1.899	1.710	1.647	1.702	1.671	1.565	1.527	1.496	1.556	1.734	1.914	1.981	2.271	2.534	2.585	2.446	2.779	2.511	2.437	2.312	2.194	2.221	2.150	2.090	2.213	2.286	2.429	2.243	2.487	2.415	2.468	2.530	2.462	2.532	2.480	2.443	2.463	2.436	2.155	2.278	1.997	2.071
365.0	337.1	504.5	621.0	573.7	511.8	438.0	401.5	395.4	412.9	423.7	437.6	463.2	465.9	446.6	412.0	368.3	321.8	280.9	245.2	226.1	247.1	230.7	144.6	107.2	85.95	79.06	114.1	552.2	 2588	 2993	292.5	7.199	3.151	2.548	2.186	1.946	1.810	1.620	1.701	1.600	1.572	1.507	1.505	1.556	1.699	1.920	2.072	2.388	2.448	2.354	2.256	2.644	2.658	2.494	2.418	2.203	2.252	2.387	2.325	2.277	2.318	2.533	2.322	2.619	2.383	2.504	2.364	2.391	2.519	2.310	2.546	2.350	2.438	2.228	2.126	2.132	2.177
370.0	316.0	466.5	576.7	569.2	532.0	474.7	432.5	429.4	434.2	447.3	458.5	471.1	468.6	449.8	414.4	377.5	335.5	297.7	266.1	242.2	233.6	247.7	217.9	144.9	106.1	83.88	72.34	160.3	732.1	 2190	 2859	 1030	19.64	3.982	2.832	2.270	1.962	1.764	1.762	1.730	1.712	1.515	1.572	1.563	1.721	1.848	2.047	2.261	2.369	2.247	2.259	2.638	2.557	2.541	2.342	2.348	2.356	2.391	2.398	2.359	2.289	2.433	2.537	2.689	2.533	2.550	2.577	2.454	2.532	2.366	2.434	2.400	2.349	2.324	2.140	2.182	2.205
375.0	308.5	441.7	538.2	564.2	546.3	501.9	465.3	456.9	462.8	468.9	479.0	486.4	481.2	464.5	418.8	377.1	346.4	316.7	289.1	265.5	246.4	238.0	249.9	218.4	143.8	109.8	89.37	94.40	204.0	537.3	 1533	 3549	 1465	25.83	3.913	2.894	2.297	1.998	2.021	1.879	1.887	1.647	1.636	1.777	1.841	1.850	1.985	2.363	2.269	2.228	2.074	2.560	2.642	2.710	2.583	2.510	2.579	2.556	2.421	2.465	2.310	2.454	2.682	2.579	2.702	2.570	2.768	2.590	2.542	2.411	2.461	2.256	2.280	2.433	2.248	2.379	2.241
380.0	284.2	412.6	511.2	555.0	549.6	525.5	480.4	469.4	475.5	480.4	498.5	494.3	493.2	466.5	419.5	383.0	355.4	328.9	303.0	278.8	260.9	242.9	238.8	254.1	190.4	133.0	106.7	93.18	95.28	159.0	430.8	 2159	 3688	323.3	14.40	3.420	2.687	2.337	1.930	1.916	1.897	1.608	1.637	1.794	1.714	1.794	1.845	2.161	2.285	2.200	2.058	2.473	2.623	2.783	2.531	2.406	2.627	2.400	2.426	2.424	2.491	2.657	2.589	2.530	2.752	2.742	2.735	2.518	2.718	2.458	2.532	2.436	2.427	2.382	2.248	2.138	2.276
385.0	285.4	398.4	507.4	551.0	552.8	528.8	485.4	474.4	488.9	490.9	504.1	496.9	490.8	464.4	420.4	385.3	359.6	332.6	312.0	293.1	270.9	254.2	235.0	246.5	233.4	160.1	124.3	105.4	84.63	83.17	140.3	654.2	 2842	 2615	245.5	6.146	3.293	2.673	2.209	1.993	1.901	1.862	1.630	1.775	1.805	1.864	1.874	2.144	2.289	2.081	2.167	2.455	2.652	2.434	2.594	2.481	2.546	2.540	2.497	2.573	2.671	2.615	2.660	2.796	2.603	2.783	2.639	2.549	2.679	2.698	2.618	2.570	2.427	2.380	2.273	2.086	2.274
390.0	274.1	377.6	482.9	533.4	550.0	532.6	496.2	487.7	485.4	489.9	496.5	485.9	482.2	451.7	410.8	384.4	360.1	339.9	317.1	300.2	282.1	263.9	244.6	232.5	235.3	209.4	151.1	118.6	90.46	74.68	78.63	187.3	807.8	 2154	 2592	879.5	16.76	3.602	2.643	2.415	2.066	1.883	1.757	1.939	1.797	1.899	1.880	2.036	2.097	2.083	2.059	2.448	2.600	2.476	2.491	2.610	2.712	2.540	2.543	2.557	2.472	2.472	2.649	2.668	2.746	2.561	2.601	2.638	2.569	2.606	2.558	2.431	2.371	2.372	2.285	2.221	2.523
395.0	270.6	360.0	456.0	501.7	532.8	519.1	491.8	491.0	482.2	485.5	489.4	476.5	469.3	440.4	406.9	379.0	360.0	338.9	322.0	303.8	291.1	272.5	254.3	237.0	219.1	221.1	198.8	141.8	104.0	83.03	74.16	89.22	208.3	516.2	 1470	 3330	 1347	21.35	3.590	2.955	2.255	2.205	2.008	1.691	1.778	1.896	1.886	2.154	1.995	2.044	1.933	2.456	2.459	2.558	2.633	2.602	2.579	2.808	2.689	2.524	2.422	2.705	2.519	2.571	2.675	2.456	2.490	2.708	2.609	2.591	2.527	2.409	2.395	2.465	2.283	2.258	2.350
400.0	257.4	355.2	449.2	491.6	528.6	515.7	497.6	483.9	469.9	482.3	484.8	470.3	464.8	431.3	394.6	374.1	353.2	339.4	320.4	306.7	291.7	276.5	258.9	244.6	220.9	207.6	217.8	177.3	121.1	93.86	81.82	75.49	80.39	135.2	394.1	 2069	 3428	277.6	13.48	3.606	2.603	2.418	2.058	1.887	1.989	1.965	1.886	2.203	2.049	2.031	2.000	2.623	2.338	2.542	2.619	2.542	2.710	2.641	2.541	2.498	2.518	2.609	2.604	2.650	2.574	2.517	2.421	2.479	2.642	2.680	2.518	2.480	2.536	2.369	2.368	2.318	2.532
405.0	261.6	347.9	432.3	480.8	513.6	519.2	503.3	482.3	474.4	480.9	483.3	462.7	453.5	421.5	385.1	364.3	348.1	334.6	319.5	306.8	292.9	276.0	258.9	246.4	223.1	206.5	206.1	205.0	143.3	105.7	92.20	79.08	56.58	53.62	103.5	595.4	 2585	 2267	222.2	6.960	2.937	2.708	2.337	2.000	1.963	2.052	1.930	2.136	2.098	1.965	1.980	2.400	2.495	2.439	2.616	2.531	2.682	2.728	2.607	2.631	2.482	2.538	2.526	2.472	2.535	2.475	2.422	2.411	2.515	2.643	2.351	2.411	2.183	2.366	2.234	2.246	2.300
410.0	256.3	343.0	413.0	467.5	494.3	506.2	494.6	483.6	470.8	470.7	464.7	446.0	434.5	406.9	373.7	350.1	333.6	324.1	313.9	301.6	287.4	272.9	259.5	244.5	224.8	204.9	191.6	194.6	176.6	126.2	100.5	82.97	56.88	40.59	42.95	147.7	721.0	 1975	 2370	833.6	15.13	3.242	2.650	2.365	2.132	2.028	1.943	2.031	2.099	1.974	1.998	2.333	2.418	2.454	2.530	2.553	2.710	2.517	2.542	2.479	2.412	2.588	2.508	2.596	2.503	2.416	2.449	2.291	2.414	2.396	2.328	2.316	2.168	2.249	2.134	2.172	2.242
415.0	240.4	319.4	394.8	437.8	468.6	489.9	484.2	465.8	463.9	458.5	450.3	428.6	411.4	385.1	358.0	336.5	317.9	310.4	301.7	289.2	275.7	266.0	251.2	242.1	223.5	206.0	189.5	177.5	174.6	159.3	117.0	88.06	62.52	44.10	35.23	50.85	173.5	468.7	 1351	 3016	 1164	20.64	3.194	2.711	2.301	2.173	2.140	1.973	2.028	1.981	1.963	2.221	2.239	2.345	2.446	2.520	2.510	2.425	2.542	2.506	2.349	2.635	2.345	2.539	2.457	2.267	2.388	2.153	2.293	2.404	2.287	2.202	2.019	2.113	2.153	2.164	2.154
420.0	233.7	302.7	370.4	420.4	462.5	471.4	475.4	465.4	458.3	453.8	438.9	416.3	397.4	367.1	347.1	327.9	308.0	297.2	289.6	280.0	268.6	257.9	248.2	238.2	220.9	205.8	189.2	176.2	163.2	167.5	139.5	96.36	67.49	48.85	36.31	32.19	53.60	115.7	354.6	 1837	 2995	258.3	13.16	3.140	2.617	2.348	2.340	2.080	2.151	1.978	1.938	2.322	2.175	2.370	2.392	2.621	2.472	2.552	2.575	2.425	2.394	2.594	2.466	2.486	2.326	2.164	2.268	2.161	2.245	2.209	2.216	2.051	2.142	2.125	2.207	2.028	2.171
425.0	223.9	298.0	366.2	411.3	447.9	460.8	462.4	468.4	451.0	447.4	433.1	406.9	390.7	359.9	331.4	315.7	300.3	287.2	279.7	271.8	262.4	252.8	242.8	233.9	218.5	204.0	191.9	175.9	160.6	157.8	154.9	113.0	73.66	54.48	40.25	31.13	29.83	38.49	89.21	526.6	 2301	 2078	214.5	5.848	3.002	2.528	2.389	2.207	2.193	2.028	1.954	2.291	2.248	2.494	2.438	2.453	2.676	2.527	2.385	2.485	2.500	2.461	2.440	2.531	2.394	2.168	2.208	2.132	2.129	2.174	2.107	1.946	2.094	2.085	2.139	2.001	2.088
430.0	219.9	284.4	344.7	395.2	427.3	455.0	462.8	462.7	455.6	438.1	422.9	401.3	376.0	344.7	320.3	300.6	287.8	276.9	266.5	261.7	250.9	241.0	233.1	226.9	215.2	203.2	191.3	178.5	162.9	151.1	151.3	136.5	92.98	62.17	46.53	35.92	28.34	24.24	31.43	126.8	644.4	 1717	 2115	739.6	14.38	3.133	2.768	2.373	2.301	2.011	1.910	2.178	2.291	2.291	2.376	2.462	2.551	2.531	2.486	2.454	2.530	2.483	2.429	2.435	2.260	2.244	2.231	2.196	2.112	2.176	2.038	2.069	1.942	1.988	2.052	2.024	2.085
435.0	254.5	266.5	333.1	375.9	413.9	452.0	455.7	462.1	449.0	443.4	419.7	390.8	362.0	330.2	304.4	285.3	272.8	260.4	254.9	247.5	239.1	229.9	224.9	218.6	210.4	199.7	190.3	178.6	166.1	152.3	140.3	134.3	117.0	77.28	54.48	42.01	32.15	24.39	21.04	39.04	151.3	404.1	 1176	 2704	 1096	18.87	3.158	2.511	2.325	2.099	1.979	2.195	2.299	2.395	2.325	2.257	2.551	2.543	2.591	2.521	2.372	2.492	2.341	2.337	2.254	2.248	2.212	2.098	2.036	2.105	2.050	1.964	2.036	1.893	1.978	1.877	1.980
440.0	355.8	262.1	319.1	360.9	402.1	427.8	442.9	451.9	441.5	429.9	416.6	381.6	352.9	322.5	296.4	276.3	262.1	253.1	245.9	235.8	230.3	223.8	217.5	213.0	204.2	195.1	188.1	179.4	165.6	152.6	138.1	128.0	121.0	93.21	61.29	45.49	35.49	26.68	21.48	20.92	42.91	97.78	310.9	 1735	 2790	233.5	10.00	2.972	2.536	2.081	2.091	2.325	2.254	2.282	2.350	2.245	2.562	2.510	2.638	2.475	2.545	2.541	2.457	2.385	2.181	2.245	2.141	2.051	2.057	1.824	1.842	1.721	1.881	1.769	1.855	2.003	1.892
445.0	494.1	292.5	307.1	347.7	384.9	423.4	438.1	441.8	439.4	422.1	405.6	371.3	341.0	313.6	283.3	265.1	249.1	243.1	235.8	227.6	218.6	212.5	207.3	204.7	197.7	189.8	183.6	177.0	165.6	155.6	138.6	123.6	114.6	105.4	72.22	49.50	38.16	29.09	22.63	17.97	19.24	29.60	76.67	510.8	 2242	 1881	166.7	5.005	2.771	2.266	2.208	2.331	2.261	2.248	2.380	2.281	2.518	2.669	2.440	2.495	2.318	2.441	2.324	2.231	2.256	2.106	2.099	2.118	1.850	1.865	1.913	1.823	1.842	1.836	1.923	1.789	1.743
450.0	507.3	457.2	301.9	321.3	362.9	406.1	427.0	426.3	426.7	407.9	389.3	359.0	324.2	295.2	265.5	247.6	237.1	225.9	219.8	211.7	203.0	197.5	194.1	191.2	188.0	183.1	176.1	169.9	162.0	152.6	138.7	122.3	104.5	97.80	85.46	60.22	41.63	31.65	24.58	19.18	16.01	15.87	24.45	120.7	624.4	 1657	 1945	667.0	11.86	2.608	2.349	2.452	2.304	2.273	2.176	2.333	2.445	2.520	2.389	2.502	2.341	2.402	2.362	2.214	2.161	2.212	1.997	1.903	1.975	1.834	1.859	1.659	1.762	1.773	1.759	1.699	1.731
455.0	331.5	687.8	388.8	306.8	338.2	384.2	405.5	407.3	400.7	392.0	368.6	336.1	302.5	272.7	246.7	229.7	221.2	208.3	201.4	194.2	185.3	183.3	177.0	176.9	175.2	170.2	165.6	161.6	156.1	146.5	136.1	120.6	102.4	87.06	80.78	73.64	49.50	34.70	26.75	21.32	16.56	14.26	13.92	33.79	144.9	390.9	 1084	 2397	933.3	13.62	2.664	2.647	2.234	2.342	2.235	2.343	2.452	2.212	2.376	2.396	2.490	2.362	2.235	2.226	2.139	2.136	1.953	1.873	1.891	1.772	1.786	1.595	1.776	1.594	1.684	1.564	1.705
460.0	211.2	668.1	567.4	306.3	330.6	358.7	384.2	393.6	388.1	378.6	351.7	318.8	288.0	258.2	229.6	219.8	205.6	195.0	188.7	177.4	172.9	170.2	166.5	166.5	162.8	158.9	156.8	152.5	148.4	142.6	131.8	115.5	99.96	83.89	73.77	73.37	57.85	38.19	28.28	22.50	17.76	14.34	12.50	15.10	38.40	92.83	279.2	 1477	 2386	170.7	8.943	2.800	2.447	2.447	2.273	2.273	2.430	2.301	2.266	2.372	2.411	2.386	2.248	2.086	2.079	1.963	2.018	1.918	1.787	1.668	1.598	1.610	1.581	1.532	1.516	1.626	1.569
465.0	160.8	489.7	757.9	344.9	308.3	343.7	362.3	377.3	365.0	354.4	330.1	305.8	270.7	245.5	218.0	204.5	190.2	182.5	176.5	168.9	160.8	158.0	155.2	154.4	153.0	148.3	147.4	143.7	142.5	134.7	126.2	113.6	96.93	82.70	70.04	65.99	62.06	42.43	29.67	23.85	18.86	15.36	12.51	11.53	15.18	26.47	67.53	422.2	 1923	 1397	136.0	4.809	2.747	2.467	2.457	2.368	2.300	2.312	2.283	2.459	2.303	2.275	2.173	2.023	2.129	1.861	1.822	1.960	1.612	1.576	1.649	1.583	1.452	1.475	1.536	1.613	1.470
470.0	143.5	268.1	700.4	615.4	298.6	311.1	335.7	344.4	337.7	321.6	302.7	280.9	249.3	222.7	199.9	184.7	174.3	165.0	160.0	153.3	145.9	142.3	140.6	138.8	138.7	135.1	133.8	133.0	129.6	124.4	117.8	106.6	91.28	78.53	66.19	57.66	55.24	49.12	34.68	25.06	19.69	16.19	13.29	11.23	10.86	12.34	20.43	99.31	535.9	 1295	 1461	580.1	11.62	2.778	2.613	2.476	2.234	2.290	2.252	2.305	2.045	2.129	2.101	1.930	1.899	1.819	1.823	1.774	1.689	1.589	1.536	1.513	1.468	1.390	1.376	1.432	1.430
475.0	136.5	180.5	397.5	851.6	420.5	287.1	306.7	316.4	307.6	294.8	277.7	253.5	225.4	199.6	182.1	166.6	153.4	146.6	142.8	135.6	129.6	127.4	123.8	125.0	123.4	120.8	119.9	118.5	118.9	115.8	107.1	97.51	85.54	74.33	62.37	53.19	46.47	44.90	41.60	28.93	20.49	16.78	14.27	11.90	10.50	9.335	9.860	26.95	123.6	301.9	750.8	 1813	671.1	14.42	2.704	2.490	2.327	2.048	2.110	2.255	1.859	2.068	1.878	1.793	1.873	1.781	1.668	1.598	1.605	1.486	1.388	1.248	1.384	1.386	1.346	1.274	1.268
480.0	135.1	158.0	237.4	758.0	644.5	278.6	277.9	295.0	290.2	277.2	257.2	237.3	213.3	184.3	166.7	152.8	143.5	136.7	131.0	126.8	119.7	115.8	113.7	113.1	114.0	111.5	110.9	111.2	110.3	107.2	101.7	92.76	80.60	69.56	60.11	51.16	43.15	39.94	41.30	33.79	22.22	17.41	14.82	12.18	10.61	8.951	7.930	11.13	31.82	70.99	191.2	 1025	 1700	190.5	9.208	2.467	2.407	2.268	2.122	2.057	1.858	2.042	1.878	1.796	1.659	1.655	1.523	1.436	1.558	1.528	1.373	1.204	1.317	1.266	1.142	1.227	1.183
485.0	128.9	151.0	186.7	492.1	880.5	345.1	259.5	274.1	268.8	262.7	240.5	220.1	195.5	175.6	158.0	143.2	135.2	126.2	118.9	116.3	110.0	107.8	104.3	104.9	103.8	102.6	104.7	102.9	103.2	99.87	93.64	86.55	77.25	66.16	57.74	49.37	41.87	37.25	36.36	36.10	25.94	18.17	15.03	12.78	10.89	9.451	7.933	7.936	11.53	19.55	46.49	279.9	 1358	 1511	155.0	4.185	2.636	2.368	2.160	1.978	1.846	1.875	1.824	1.706	1.588	1.581	1.490	1.498	1.441	1.535	1.284	1.196	1.245	1.204	1.234	1.247	1.249
490.0	117.6	149.7	161.4	262.0	760.6	653.2	264.0	248.7	248.0	238.1	223.3	203.0	178.3	159.7	142.0	129.7	120.7	112.8	108.2	103.9	98.53	95.82	94.19	94.64	94.09	93.46	94.85	93.75	93.33	91.21	86.80	79.34	71.09	61.66	53.84	46.29	39.94	34.34	31.29	31.20	29.12	21.62	15.75	12.89	10.99	9.598	8.285	7.277	7.156	8.181	13.90	65.79	367.2	 1048	 1391	531.0	11.88	2.612	2.229	2.038	1.866	1.801	1.671	1.647	1.552	1.413	1.441	1.406	1.361	1.343	1.196	1.179	1.183	1.204	1.144	1.167	1.119
495.0	99.78	135.8	140.0	182.6	389.2	889.0	414.4	221.4	221.5	214.8	197.0	184.8	160.9	143.8	129.5	116.6	106.8	100.1	96.32	93.13	88.14	84.82	83.10	83.84	83.78	84.76	83.61	82.27	82.83	81.44	78.09	71.53	64.71	55.93	49.36	42.04	37.05	32.21	28.14	26.06	26.53	25.33	17.76	13.67	11.48	9.828	8.483	7.463	6.592	5.866	6.516	17.92	84.71	244.3	758.4	 1698	222.2	14.81	2.361	2.089	1.855	1.755	1.700	1.565	1.384	1.482	1.340	1.321	1.381	1.229	1.155	1.118	1.196	1.079	1.078	1.089	1.002
500.0	90.35	121.6	142.9	152.6	217.0	741.5	682.1	224.7	202.8	187.5	182.9	171.0	147.4	129.1	118.7	103.7	96.10	90.59	85.42	83.57	78.54	75.25	75.75	74.95	75.32	75.14	74.32	74.14	74.68	74.01	71.85	65.84	58.87	52.32	45.92	40.05	35.35	31.05	26.24	23.46	22.45	24.73	21.06	14.15	11.43	9.793	8.348	7.501	6.548	5.458	5.074	7.232	21.67	57.19	192.7	972.7	 1600	202.8	8.795	2.182	1.888	1.745	1.614	1.519	1.338	1.300	1.297	1.235	1.139	1.264	1.207	1.073	1.103	1.118	0.979	1.088	1.034
505.0	79.90	102.4	133.1	138.8	162.9	452.3	879.6	314.5	181.4	170.2	164.9	152.5	136.3	120.3	107.0	93.43	87.93	82.79	77.45	75.86	72.31	69.18	68.62	68.63	68.61	67.66	67.24	67.98	67.35	67.03	64.52	60.21	54.10	48.16	42.71	36.64	32.90	28.85	24.39	21.90	19.46	21.25	21.81	15.80	11.31	9.698	8.339	7.312	6.241	5.448	4.714	4.890	7.620	15.28	45.64	266.4	 1251	 1426	159.7	3.627	1.935	1.889	1.689	1.420	1.355	1.280	1.258	1.283	1.113	1.132	1.114	1.067	0.968	1.118	1.010	1.056	0.952
510.0	76.89	88.67	120.1	133.3	132.4	223.8	679.5	638.3	199.5	154.7	147.2	136.7	119.3	105.1	92.99	83.50	76.44	71.49	67.04	65.56	62.68	60.28	60.27	59.88	58.62	58.78	58.80	58.89	58.46	58.60	56.54	53.07	47.41	42.33	38.25	32.94	29.36	25.72	22.95	20.21	17.97	17.14	18.45	17.62	13.49	9.793	8.212	7.161	6.090	5.320	4.693	4.337	4.550	6.124	12.61	61.92	338.6	960.4	 1193	423.6	11.30	1.961	1.667	1.497	1.303	1.338	1.213	1.180	1.095	1.047	1.045	0.943	0.969	0.962	0.899	0.876	0.942
515.0	61.26	78.08	99.62	125.6	124.0	139.3	318.6	814.4	344.4	135.4	130.0	116.4	106.8	92.61	79.74	72.90	66.84	61.89	59.44	56.13	52.60	51.85	51.73	51.07	50.19	50.43	50.31	50.52	49.78	50.38	49.02	45.86	41.41	37.27	33.41	29.35	25.49	23.41	20.45	18.31	16.50	14.64	14.32	15.69	15.61	11.21	7.850	6.797	5.973	5.247	4.570	4.377	3.823	4.023	5.098	16.03	77.70	221.7	586.6	 1330	221.3	13.70	1.797	1.497	1.224	1.242	1.206	1.069	1.112	1.004	1.015	0.893	0.884	0.783	0.833	0.867	0.912
520.0	55.98	68.08	82.12	116.2	114.5	113.3	168.6	616.9	645.5	150.5	116.2	104.6	93.26	82.57	71.38	64.55	59.10	55.97	52.82	51.72	47.13	46.34	46.32	44.49	44.89	44.62	44.95	45.22	45.29	44.65	43.49	40.55	36.97	33.27	29.92	26.69	23.03	21.30	18.85	17.05	14.91	13.75	12.84	12.67	14.77	12.71	8.460	6.688	5.809	5.170	4.395	4.087	3.706	3.367	3.438	5.803	19.46	51.59	148.8	776.9	 1221	191.2	5.841	1.649	1.372	1.196	1.248	0.992	1.068	1.026	0.972	0.901	0.926	0.755	0.796	0.819	0.870
525.0	51.02	60.40	69.27	104.0	114.6	100.3	118.2	341.2	806.5	262.0	106.0	94.46	84.28	75.01	66.35	57.04	53.34	50.41	47.56	44.60	42.93	41.66	40.88	40.93	39.84	39.82	40.40	40.22	40.29	40.75	37.77	36.78	33.57	30.56	27.29	24.20	22.29	19.71	17.28	15.91	14.20	12.93	11.47	10.64	12.59	13.14	9.658	6.981	5.627	4.885	4.243	4.044	3.622	3.172	2.972	3.345	6.417	13.59	35.35	213.8	931.8	 1060	29.50	2.699	1.387	1.219	1.217	1.007	1.032	0.922	0.804	0.823	0.816	0.734	0.758	0.784	0.845
530.0	45.58	54.32	60.72	76.18	100.5	93.65	94.22	156.9	557.5	599.8	144.5	83.00	72.40	65.79	56.73	49.81	46.41	43.49	40.56	38.51	37.18	35.89	35.12	34.62	34.82	34.90	34.86	34.94	34.69	35.18	34.26	31.67	28.98	26.57	23.74	21.38	19.68	17.25	15.74	14.26	13.02	11.57	10.32	9.602	9.646	11.34	10.88	7.925	5.540	4.700	4.204	3.846	3.589	3.230	2.992	2.954	3.517	4.955	9.767	49.65	251.9	720.4	858.8	304.0	9.981	1.364	1.211	1.189	0.956	0.919	0.843	0.816	0.782	0.748	0.751	0.746	0.790
535.0	45.65	52.40	54.42	61.20	79.78	95.31	81.02	96.52	230.4	658.1	391.8	74.77	64.56	56.01	49.66	43.36	39.96	38.09	34.40	32.53	31.39	30.24	30.24	28.93	29.42	28.93	29.78	28.95	29.95	29.96	29.12	27.29	24.92	22.86	20.80	18.82	16.92	14.91	14.17	12.38	11.55	10.10	9.366	8.739	8.035	8.370	9.375	9.138	6.305	4.491	4.082	3.607	3.240	2.961	2.873	2.781	2.835	2.880	3.984	12.75	57.67	166.5	430.9	985.3	214.9	12.32	1.294	1.114	1.034	0.886	0.788	0.740	0.751	0.731	0.681	0.699	0.728
540.0	41.47	46.29	47.81	55.94	68.99	87.69	76.27	77.59	111.3	454.0	631.5	111.7	57.97	52.75	44.91	40.19	35.26	33.63	30.24	29.53	28.48	26.67	26.66	26.14	26.29	26.29	26.47	26.29	26.25	26.60	26.28	24.78	22.19	20.31	18.02	16.73	15.15	14.01	12.69	11.63	10.29	9.089	8.802	8.225	7.477	7.252	7.424	9.020	7.333	4.812	3.972	3.302	3.111	2.825	2.866	2.755	2.778	2.473	2.521	4.474	14.25	38.70	109.7	580.7	924.8	177.4	4.834	1.127	1.146	0.936	0.811	0.820	0.789	0.730	0.732	0.730	0.687
545.0	38.09	44.20	49.20	48.97	54.13	75.98	79.26	66.67	75.57	233.2	672.0	223.3	53.22	46.20	40.49	36.19	32.07	29.68	27.97	27.06	26.20	24.52	24.29	23.85	23.18	23.54	23.87	23.09	23.21	23.54	23.27	21.88	19.56	18.47	16.52	15.34	13.91	12.48	11.52	10.71	9.652	8.425	7.921	7.513	7.426	6.549	6.262	7.294	7.496	5.278	3.915	3.219	2.975	2.694	2.761	2.550	2.474	2.264	2.244	2.744	4.730	10.07	26.04	162.4	711.1	797.3	29.32	2.082	1.179	0.945	0.782	0.799	0.801	0.696	0.673	0.644	0.674
550.0	36.86	37.54	41.34	42.44	46.87	59.05	72.60	59.72	61.12	100.8	404.0	526.5	103.8	40.20	35.63	30.68	28.85	25.62	24.16	23.34	22.09	21.28	20.76	20.49	19.98	19.72	20.11	19.44	20.06	20.30	19.52	18.73	17.14	16.03	14.22	13.27	12.26	11.30	9.961	9.401	8.497	7.449	7.056	6.720	6.305	5.682	5.120	5.461	6.329	5.785	4.307	3.181	2.821	2.537	2.556	2.507	2.340	2.404	2.092	2.109	2.523	3.654	7.154	37.66	194.2	546.1	644.1	127.4	9.125	1.126	0.887	0.853	0.774	0.693	0.660	0.596	0.666
555.0	31.05	31.96	39.47	38.80	40.27	45.40	63.93	60.20	51.28	60.28	148.7	498.0	345.3	38.21	30.13	25.65	23.53	21.64	20.19	20.17	18.84	17.26	17.79	17.40	17.00	16.40	16.61	16.43	17.00	17.30	16.43	15.74	13.94	13.41	12.10	11.03	10.33	9.423	8.586	7.835	7.471	6.591	6.204	5.936	5.158	4.983	4.652	4.330	4.620	5.140	5.168	3.490	2.564	2.453	2.210	2.345	2.268	2.166	2.163	1.947	1.919	2.118	2.926	9.736	44.60	126.7	325.7	701.5	204.2	9.977	1.051	0.870	0.681	0.731	0.583	0.725	0.615
560.0	31.34	34.98	32.78	36.45	34.92	39.03	50.58	58.25	47.63	48.58	67.41	312.2	522.4	83.10	26.49	21.97	21.11	18.67	17.79	17.39	16.05	14.96	14.74	15.17	14.73	14.35	14.04	14.54	14.13	14.91	13.87	13.33	12.49	11.64	10.71	9.598	8.753	8.016	7.792	7.325	6.685	6.349	5.515	5.091	4.528	4.624	4.050	4.043	3.664	4.061	4.966	3.759	2.703	2.275	2.161	2.053	2.047	2.146	2.120	1.961	1.827	1.788	1.910	3.532	11.31	29.63	83.81	418.7	665.6	151.3	3.831	0.958	0.829	0.727	0.619	0.682	0.622
565.0	26.60	33.43	29.78	30.50	32.72	33.93	40.75	53.66	45.09	39.96	41.80	146.2	486.0	170.5	23.21	19.96	18.73	16.52	15.62	14.37	13.24	12.90	13.16	12.69	12.88	12.19	12.34	12.04	12.67	12.50	11.97	11.83	10.99	9.815	9.249	8.687	7.859	7.490	6.754	6.520	5.727	5.341	4.949	4.713	4.225	4.086	3.832	3.546	3.178	3.278	4.054	4.020	2.837	2.219	2.021	1.786	1.886	2.075	2.033	1.994	1.846	1.737	1.776	2.170	3.885	7.926	20.07	117.3	497.3	543.3	28.93	1.578	0.836	0.679	0.637	0.671	0.700
570.0	28.29	29.90	27.17	26.37	28.18	27.84	30.35	41.70	45.46	34.70	32.36	57.95	263.6	394.7	77.42	16.21	14.91	13.98	12.52	11.95	10.95	10.70	10.48	10.16	9.925	9.936	10.14	9.830	10.37	10.14	9.596	9.561	8.951	8.038	7.505	7.078	6.529	5.977	5.368	5.352	4.751	4.526	4.018	3.909	3.673	3.410	3.222	3.010	2.726	2.493	2.766	3.356	3.055	2.438	1.886	1.773	1.703	1.879	1.830	1.822	1.888	1.721	1.703	1.774	2.201	3.096	5.819	27.59	135.4	362.6	333.0	116.6	7.459	0.887	0.635	0.668	0.668
575.0	27.78	24.26	24.87	23.43	24.27	24.25	23.65	28.79	41.65	34.55	26.53	32.02	87.81	319.3	284.8	18.22	11.69	11.22	10.32	9.495	8.927	8.881	8.105	7.660	8.090	7.737	7.917	8.078	8.206	7.444	7.474	7.431	6.782	6.292	5.759	5.401	5.224	4.708	4.528	4.510	3.770	3.589	3.449	3.324	3.067	2.784	2.760	2.515	2.282	2.066	2.024	2.365	2.684	2.795	2.144	1.564	1.541	1.594	1.651	1.565	1.513	1.696	1.669	1.586	1.787	2.061	2.548	7.385	31.29	84.38	187.2	417.2	161.3	6.259	0.680	0.649	0.638
580.0	31.64	25.70	20.38	20.89	19.95	20.32	21.32	23.78	34.53	36.01	23.88	22.98	35.93	180.1	397.9	64.65	9.942	9.191	8.495	8.101	7.449	7.619	6.624	6.548	6.786	6.471	6.507	6.421	6.712	6.444	6.512	5.959	5.791	5.356	4.803	4.612	4.366	4.159	3.875	3.610	3.278	3.094	3.046	2.926	2.560	2.585	2.293	2.168	1.968	1.868	1.799	1.898	2.279	2.505	2.083	1.581	1.515	1.519	1.488	1.446	1.500	1.663	1.683	1.555	1.580	1.651	1.767	2.719	7.966	19.86	49.33	246.7	383.3	31.03	2.477	0.703	0.599
585.0	26.82	24.43	21.66	20.10	19.29	18.83	20.40	21.25	27.97	36.18	24.36	19.64	21.59	78.01	339.1	193.5	9.648	7.678	7.359	7.094	6.711	6.091	5.901	5.883	5.778	5.465	5.811	5.330	5.947	5.404	5.661	5.029	4.734	4.387	4.031	3.991	3.898	3.728	3.205	3.397	3.111	2.739	2.558	2.535	2.364	2.260	1.975	1.918	1.767	1.593	1.600	1.676	1.744	2.060	2.115	1.628	1.463	1.483	1.457	1.393	1.460	1.477	1.477	1.512	1.497	1.461	1.494	1.691	2.699	5.440	12.01	70.03	280.6	241.9	25.85	1.172	0.574
590.0	25.04	22.75	18.96	17.73	18.17	16.28	17.27	17.63	21.13	31.46	27.25	19.57	17.03	29.47	164.7	316.8	56.02	6.819	6.097	5.814	5.667	5.010	4.993	4.844	4.853	4.652	4.688	4.509	4.665	4.725	4.550	4.371	3.958	3.813	3.562	3.328	3.286	3.084	2.892	2.696	2.581	2.319	2.205	2.171	2.040	1.854	1.695	1.643	1.570	1.416	1.320	1.348	1.284	1.574	1.842	1.764	1.498	1.283	1.254	1.234	1.338	1.239	1.309	1.312	1.261	1.299	1.276	1.302	1.394	2.020	3.461	16.37	77.11	185.9	223.0	85.30	5.418
595.0	24.73	22.03	19.08	17.16	14.90	14.73	14.36	15.39	17.41	22.79	30.60	21.21	14.50	16.36	51.44	227.6	227.2	9.465	4.909	4.602	4.198	4.058	4.232	3.727	4.182	3.865	3.796	3.627	3.843	3.739	3.796	3.314	3.172	3.200	2.968	2.817	2.970	2.360	2.464	2.189	2.237	2.014	1.811	1.804	1.846	1.783	1.530	1.438	1.262	1.287	1.111	1.168	1.126	1.238	1.498	1.746	1.616	1.100	1.110	1.086	1.026	1.104	1.176	1.115	1.159	1.293	1.124	1.143	1.078	1.094	1.356	4.227	17.68	43.50	112.2	238.2	99.26
600.0	21.72	23.92	17.65	17.51	13.04	14.96	13.85	13.64	14.70	19.82	27.95	23.36	14.41	13.12	19.81	118.8	307.5	50.27	4.803	4.351	3.967	3.698	3.567	3.407	3.509	3.392	2.965	3.176	3.330	3.472	3.277	3.064	2.865	2.479	2.504	2.444	2.557	2.102	2.092	2.024	2.063	1.884	1.744	1.767	1.515	1.551	1.462	1.356	1.105	1.125	1.010	1.044	1.075	1.022	1.121	1.528	1.564	1.237	1.160	1.027	1.099	1.107	1.047	1.062	1.016	1.142	1.000	0.963	0.961	0.869	0.901	1.576	4.457	10.21	29.12	138.7	223.8
605.0	23.64	22.26	16.04	16.44	14.07	13.83	14.19	13.92	13.91	18.95	25.66	28.91	16.56	13.23	12.35	48.23	254.6	159.9	5.057	4.131	3.628	2.994	3.082	2.649	3.035	3.063	2.719	2.740	3.025	2.892	2.857	2.731	2.612	2.366	2.478	2.178	2.133	1.905	1.892	2.011	1.750	1.657	1.562	1.618	1.409	1.481	1.367	1.334	1.140	1.024	0.962	1.004	0.877	0.977	1.067	1.254	1.495	1.286	1.045	0.995	0.920	0.993	0.916	0.996	0.969	0.995	0.979	0.876	0.849	0.852	0.796	0.883	1.496	2.812	7.001	39.88	160.7
610.0	22.45	19.37	16.80	14.40	14.74	12.01	13.01	14.20	15.72	17.76	20.85	29.30	21.23	13.87	11.51	17.84	119.5	254.2	44.64	3.561	3.051	2.724	2.785	2.701	2.586	2.536	2.469	2.524	2.542	2.538	2.373	2.352	2.292	1.924	2.083	1.824	1.814	1.756	1.775	1.668	1.565	1.537	1.484	1.427	1.271	1.290	1.230	1.176	1.041	0.963	0.850	0.893	0.846	0.898	0.883	0.991	1.243	1.250	1.084	0.999	0.837	0.831	0.915	0.854	0.919	0.874	0.936	0.884	0.804	0.817	0.735	0.748	0.813	1.073	1.981	9.411	44.21
615.0	23.73	18.23	18.26	14.26	14.59	12.63	12.59	13.18	14.59	16.06	17.57	24.10	25.59	13.56	11.12	10.47	36.33	173.5	186.8	6.778	2.487	2.491	2.411	2.272	2.070	2.088	2.153	2.111	1.955	2.203	2.045	2.044	1.928	1.935	1.828	1.614	1.640	1.534	1.685	1.335	1.292	1.360	1.433	1.305	1.178	1.073	1.089	1.084	0.976	0.855	0.891	0.875	0.759	0.859	0.664	0.747	0.884	1.109	1.187	1.185	0.801	0.882	0.842	0.730	0.772	0.723	0.835	0.826	0.793	0.808	0.745	0.560	0.646	0.669	0.941	2.583	10.32
620.0	24.10	19.13	19.49	14.78	13.40	12.45	12.10	13.82	13.90	15.54	16.00	19.43	24.84	16.21	11.06	8.839	13.35	84.46	249.3	42.26	2.480	2.223	2.078	2.060	1.842	1.905	1.719	1.841	1.710	1.873	1.791	1.732	1.835	1.657	1.662	1.347	1.459	1.389	1.513	1.402	1.254	1.190	1.281	1.199	1.068	1.100	1.036	1.030	0.949	0.801	0.774	0.815	0.812	0.792	0.687	0.752	0.779	0.924	1.029	1.003	0.848	0.869	0.815	0.722	0.747	0.680	0.740	0.824	0.739	0.764	0.783	0.649	0.627	0.574	0.702	1.037	2.703
625.0	27.74	18.78	18.12	13.36	12.16	12.04	11.49	12.88	13.05	14.94	14.94	16.58	23.97	18.95	10.17	8.415	8.129	33.00	198.9	135.5	3.140	2.236	1.784	1.967	1.869	1.658	1.639	1.699	1.613	1.647	1.624	1.603	1.720	1.580	1.469	1.392	1.439	1.388	1.361	1.303	1.235	1.164	1.060	1.129	1.095	1.144	1.096	1.081	0.850	0.849	0.781	0.786	0.787	0.723	0.734	0.676	0.704	0.766	0.906	0.929	0.925	0.818	0.825	0.720	0.721	0.652	0.721	0.776	0.708	0.788	0.777	0.604	0.590	0.569	0.589	0.766	1.034
630.0	23.04	20.26	16.96	14.42	12.11	11.97	12.07	12.64	12.87	14.42	14.42	16.88	19.77	20.90	12.70	7.944	7.234	11.72	86.05	207.1	37.79	2.114	1.833	1.808	1.694	1.546	1.528	1.479	1.480	1.454	1.413	1.522	1.467	1.395	1.275	1.203	1.322	1.293	1.264	1.205	1.068	1.113	0.987	1.076	1.023	1.035	0.967	0.955	0.866	0.754	0.730	0.744	0.722	0.690	0.712	0.675	0.690	0.799	0.782	0.877	0.886	0.735	0.802	0.677	0.729	0.704	0.733	0.699	0.715	0.668	0.767	0.625	0.579	0.594	0.523	0.680	0.770
635.0	23.50	20.09	17.86	14.84	11.00	12.19	13.05	12.16	13.03	13.80	15.16	16.61	16.72	20.71	15.31	8.541	7.422	6.858	24.15	131.2	162.0	4.808	1.764	1.449	1.467	1.493	1.347	1.367	1.230	1.333	1.316	1.353	1.318	1.249	1.263	1.197	1.228	1.196	1.192	1.191	1.038	0.958	0.994	0.910	1.012	1.023	0.940	0.912	0.817	0.720	0.778	0.709	0.646	0.736	0.769	0.678	0.690	0.665	0.679	0.655	0.842	0.900	0.727	0.688	0.743	0.669	0.699	0.668	0.607	0.613	0.661	0.633	0.573	0.546	0.529	0.550	0.592
640.0	22.62	24.33	18.85	14.87	12.26	12.20	10.91	12.77	12.47	13.08	15.92	17.31	17.13	19.57	18.24	9.499	6.827	5.503	8.053	59.53	208.7	34.31	1.549	1.415	1.415	1.312	1.225	1.330	1.182	1.355	1.235	1.229	1.194	1.301	1.199	1.094	1.209	1.160	1.195	1.047	1.052	0.988	0.967	0.846	0.950	0.874	0.890	0.858	0.768	0.727	0.750	0.699	0.575	0.669	0.652	0.614	0.664	0.621	0.635	0.628	0.767	0.868	0.687	0.681	0.682	0.633	0.629	0.662	0.615	0.661	0.577	0.632	0.665	0.511	0.517	0.516	0.555
645.0	26.00	26.05	19.97	15.54	10.86	12.18	10.95	11.91	12.19	12.68	15.83	16.66	15.95	16.75	18.83	10.71	6.846	5.496	4.544	21.39	164.1	110.6	2.159	1.501	1.425	1.211	1.231	1.274	1.260	1.416	1.243	1.035	0.994	1.229	1.070	1.105	0.992	1.055	1.179	0.970	0.862	1.063	1.027	0.887	0.900	0.804	0.787	0.836	0.791	0.667	0.706	0.672	0.662	0.657	0.761	0.686	0.672	0.588	0.608	0.663	0.776	0.755	0.759	0.717	0.633	0.615	0.605	0.697	0.594	0.498	0.511	0.612	0.647	0.560	0.485	0.495	0.522
650.0	27.68	26.09	22.02	16.56	11.62	11.27	11.33	11.30	11.86	13.72	14.65	15.77	15.77	14.80	17.44	13.35	7.219	5.053	3.808	7.397	84.86	175.0	12.03	1.418	1.481	1.251	1.096	1.281	1.130	1.338	1.369	1.051	0.981	1.125	1.025	1.015	1.021	1.138	1.006	1.070	0.878	0.953	0.953	0.897	0.866	0.861	0.807	0.770	0.769	0.738	0.676	0.680	0.674	0.623	0.658	0.707	0.621	0.660	0.641	0.595	0.678	0.655	0.737	0.741	0.669	0.653	0.589	0.652	0.622	0.614	0.501	0.619	0.582	0.493	0.575	0.511	0.501
