Sample:	'1
File name:	t2025042101ÑÕ¼¯´åÎ÷ÇÅ.FD3
Run date:	'10:42:21, 04/22/2025
Operator:	Administrator
Comment:	'

Instrument
Model:	F-2700 FL Spectrophotometer
Serial number:	23B8-004
ROM Version:	4J14000 07

Instrument parameters
Measurement type:	3-D scan
Data mode:	Fluorescence
EX  Start WL:	220.0 nm
EX  End WL:	600.0 nm
EX Sampling interval:	5.0 nm
EM  Start WL:	230.0 nm
EM  End WL:	650.0 nm
EM Sampling interval:	5.0 nm
Scan speed:	12000 nm/min
EX Slit:	5.0 nm
EM Slit:	5.0 nm
PMT Voltage:	700 V
Response:	Auto 
Corrected spectra:	Off
Contour interval:	50.000

Peak integration
Integration method:	Rectangular
Sensitivity:	1
Threshold:	1.000

Peaks
No.	ApexEX/EM(nm)	Height(Data)
1	225.0/570.0	70.39
2	225.0/595.0	82.92
3	225.0/635.0	171.6
4	230.0/340.0	6250
5	235.0/510.0	318.4
6	240.0/520.0	266.5
7	245.0/535.0	217.6
8	250.0/545.0	177.5
9	255.0/280.0	602.3
10	255.0/560.0	148.3
11	260.0/285.0	636.9
12	260.0/570.0	117.9
13	265.0/585.0	119.7
14	275.0/615.0	301.7
15	280.0/320.0	5915
16	280.0/620.0	287.0
17	430.0/505.0	35.55
18	445.0/525.0	21.30
19	460.0/335.0	17.13
20	475.0/340.0	15.40
21	505.0/275.0	3.232
22	515.0/280.0	3.635
23	520.0/285.0	4.152
24	565.0/320.0	27.50

Data points
	220.0	225.0	230.0	235.0	240.0	245.0	250.0	255.0	260.0	265.0	270.0	275.0	280.0	285.0	290.0	295.0	300.0	305.0	310.0	315.0	320.0	325.0	330.0	335.0	340.0	345.0	350.0	355.0	360.0	365.0	370.0	375.0	380.0	385.0	390.0	395.0	400.0	405.0	410.0	415.0	420.0	425.0	430.0	435.0	440.0	445.0	450.0	455.0	460.0	465.0	470.0	475.0	480.0	485.0	490.0	495.0	500.0	505.0	510.0	515.0	520.0	525.0	530.0	535.0	540.0	545.0	550.0	555.0	560.0	565.0	570.0	575.0	580.0	585.0	590.0	595.0	600.0
230.0	55.05	1500	6601	3221	168.0	10.46	8.409	7.191	5.783	6.175	6.001	5.665	5.524	5.553	4.184	3.218	3.329	2.727	2.486	2.114	1.968	1.816	1.559	1.754	1.396	1.425	1.245	1.093	1.118	1.131	0.898	0.949	0.916	0.921	0.850	0.775	0.752	0.673	0.549	0.552	0.564	0.667	0.673	0.579	0.483	0.449	1.187	8.541	21.89	21.41	10.19	2.434	0.580	0.321	0.291	0.297	0.271	0.276	0.232	0.230	0.211	0.196	0.189	0.176	0.221	0.168	0.176	0.165	0.142	0.131	0.134	0.129	0.112	0.113	0.097	0.106	0.079
235.0	139.0	412.9	3176	7611	3743	271.2	12.82	8.862	6.965	7.603	7.105	6.759	6.238	5.114	4.675	3.518	3.890	3.137	2.660	2.413	1.899	1.792	1.659	1.729	1.430	1.345	1.334	1.129	1.043	1.192	1.052	1.017	0.881	0.897	0.739	0.831	0.665	0.655	0.596	0.643	0.537	0.549	0.677	0.657	0.726	0.550	0.716	2.283	6.678	13.35	23.00	25.07	17.93	5.181	0.612	0.318	0.306	0.350	0.291	0.270	0.209	0.283	0.241	0.138	0.182	0.176	0.208	0.215	0.137	0.115	0.153	0.176	0.121	0.099	0.084	0.108	0.129
240.0	162.8	223.8	843.2	4921	9677	3168	176.9	14.31	9.151	9.930	8.042	7.232	7.647	5.849	4.818	3.988	3.858	3.047	2.743	2.404	2.119	1.989	1.609	2.009	1.588	1.476	1.471	1.167	1.066	1.093	1.017	1.077	1.004	0.788	0.766	0.899	0.724	0.679	0.665	0.598	0.594	0.527	0.559	0.583	0.730	0.862	0.911	0.952	1.796	3.577	9.235	25.56	45.96	26.19	16.18	3.480	0.403	0.326	0.273	0.319	0.248	0.254	0.272	0.180	0.190	0.171	0.224	0.305	0.154	0.160	0.132	0.144	0.125	0.095	0.076	0.139	0.134
245.0	103.0	248.4	288.3	1420	7752	9999.9	2416	84.43	14.10	11.47	9.523	9.080	7.876	6.486	4.992	4.635	3.661	3.205	3.376	2.581	2.296	2.152	1.717	1.917	1.678	1.505	1.477	1.089	1.205	1.185	1.233	0.972	0.810	0.729	0.937	0.930	0.805	0.710	0.675	0.661	0.567	0.564	0.552	0.530	0.547	0.733	0.987	1.091	0.950	1.145	2.444	7.062	22.63	42.64	59.70	25.47	13.55	1.640	0.275	0.292	0.323	0.319	0.253	0.182	0.213	0.244	0.220	0.270	0.169	0.141	0.157	0.148	0.160	0.142	0.133	0.108	0.156
250.0	55.81	149.9	271.2	451.5	2165	7465	9999.9	5660	160.2	19.88	14.68	10.70	9.975	7.965	5.918	5.394	4.295	3.720	3.432	2.722	2.475	2.225	2.008	2.051	1.701	1.600	1.428	1.416	1.308	1.313	1.237	1.084	0.955	0.909	0.864	0.914	0.830	0.772	0.661	0.668	0.639	0.628	0.519	0.504	0.519	0.618	0.688	0.881	1.140	1.144	1.202	2.108	5.508	11.63	26.41	40.19	63.29	54.88	42.81	10.10	1.858	0.370	0.321	0.235	0.213	0.240	0.251	0.232	0.215	0.157	0.210	0.171	0.182	0.189	0.152	0.132	0.176
255.0	45.80	67.24	155.5	374.3	619.0	1765	6030	9999.9	9999.9	209.0	24.06	17.29	13.88	9.962	8.025	6.797	4.933	4.480	3.951	3.435	2.864	2.418	2.137	2.088	1.851	1.901	1.623	1.671	1.474	1.514	1.382	1.175	1.028	1.035	0.920	0.788	0.814	0.767	0.807	0.777	0.728	0.715	0.536	0.628	0.581	0.532	0.574	0.573	0.738	0.875	1.432	1.835	2.032	3.047	6.313	9.488	17.57	36.92	86.33	107.2	29.34	14.60	1.536	0.407	0.291	0.312	0.308	0.282	0.243	0.236	0.211	0.198	0.178	0.191	0.175	0.193	0.252
260.0	45.20	41.82	65.60	250.2	431.6	491.9	1598	9176	9999.9	8047	151.5	24.69	17.21	13.46	9.283	6.833	5.912	4.654	4.150	3.592	2.629	2.563	2.087	2.365	2.123	1.950	1.755	1.839	1.592	1.688	1.420	1.212	1.130	1.053	0.970	0.838	0.781	0.814	0.810	0.827	0.701	0.759	0.598	0.646	0.629	0.560	0.544	0.556	0.522	0.562	0.890	1.537	2.156	1.923	2.023	2.582	4.399	9.222	28.21	71.49	116.2	129.2	26.56	9.288	0.662	0.428	0.322	0.309	0.332	0.230	0.326	0.264	0.194	0.246	0.193	0.220	0.207
265.0	47.62	45.96	46.36	110.9	358.6	369.1	425.6	2699	9999.9	9999.9	1731	95.45	25.12	17.50	11.24	8.679	7.066	5.110	4.628	4.209	3.301	2.947	2.417	2.480	1.983	2.155	1.934	1.879	1.710	1.678	1.435	1.366	1.368	1.174	0.972	0.986	0.964	0.879	0.840	0.976	0.876	0.686	0.798	0.780	0.644	0.649	0.591	0.474	0.530	0.483	0.564	0.817	1.622	2.085	2.045	1.315	1.518	2.405	6.893	18.38	48.14	116.7	153.4	122.3	21.32	4.205	0.530	0.451	0.449	0.299	0.302	0.294	0.254	0.299	0.222	0.326	0.247
270.0	77.67	64.55	61.77	62.83	153.7	367.9	391.9	692.4	3060	9999.9	9999.9	6744	113.4	30.06	17.96	12.37	9.286	7.235	6.126	4.596	3.875	3.654	2.847	2.872	2.308	2.401	2.100	1.978	1.871	1.883	1.637	1.644	1.499	1.333	1.188	1.131	1.032	0.980	0.850	0.876	0.886	0.746	0.828	0.788	0.742	0.778	0.744	0.631	0.573	0.595	0.520	0.641	0.843	1.104	1.776	2.129	2.215	1.698	2.193	4.717	11.34	29.49	57.74	102.4	138.3	111.0	100.3	14.20	4.624	0.539	0.483	0.411	0.357	0.296	0.334	0.396	0.263
275.0	151.9	144.4	125.6	82.00	77.17	152.6	447.4	467.7	777.1	2391	8312	9999.9	9702	136.0	30.30	18.69	13.23	9.972	7.495	6.067	4.798	4.186	3.758	3.352	2.825	2.643	2.598	2.169	2.045	2.262	1.859	1.776	1.619	1.577	1.524	1.275	1.042	1.169	0.937	0.964	0.890	0.915	1.047	0.977	1.014	0.864	0.819	0.972	0.852	0.789	0.653	0.658	0.702	0.741	0.852	1.092	2.003	3.232	3.218	2.182	3.216	7.165	13.55	23.61	34.64	58.63	159.0	224.9	155.9	21.43	3.009	0.651	0.546	0.386	0.352	0.418	0.339
280.0	220.7	234.7	195.8	126.4	74.57	88.00	245.1	602.3	414.3	646.4	2206	9999.9	9999.9	7225	96.51	26.94	17.60	12.69	9.561	6.940	5.829	5.165	4.075	3.751	3.078	3.018	2.809	2.709	2.446	2.271	1.976	2.003	1.843	1.788	1.678	1.682	1.437	1.305	1.017	1.091	0.936	0.969	1.023	1.158	1.122	1.164	1.089	1.256	1.089	1.017	0.805	0.760	0.660	0.717	0.647	0.833	1.153	1.807	3.291	3.635	2.613	2.479	3.724	6.087	8.582	14.26	44.54	113.5	213.1	235.9	32.40	15.12	1.143	0.662	0.456	0.537	0.421
285.0	317.4	339.2	304.5	193.8	101.1	88.24	135.2	428.3	636.9	342.8	660.2	2986	9999.9	9999.9	964.9	65.33	25.90	15.94	11.78	8.267	6.909	5.859	5.136	4.155	3.844	3.273	2.855	2.642	2.485	2.792	2.374	2.299	2.112	1.926	2.041	1.767	1.785	1.460	1.369	1.332	1.131	1.183	0.977	1.209	1.125	1.441	1.285	1.338	1.294	1.223	0.906	0.909	0.840	0.772	0.723	0.862	0.916	1.116	1.809	2.980	4.152	3.244	2.210	2.312	2.980	4.205	11.07	27.59	67.63	157.2	235.3	209.9	27.78	9.897	0.949	0.607	0.639
290.0	473.0	529.3	488.9	314.7	174.1	135.2	156.7	260.0	569.2	739.9	527.0	982.5	3230	9999.9	9999.9	9999.9	263.3	29.06	17.52	12.29	9.147	7.612	5.883	5.188	4.740	3.824	3.385	3.134	2.832	3.013	2.432	2.319	2.295	2.260	2.102	1.969	2.036	1.832	1.591	1.563	1.352	1.386	1.257	1.432	1.598	2.003	1.734	2.061	1.847	1.642	1.259	1.288	1.145	1.060	0.945	1.068	1.098	1.150	1.286	1.695	2.622	3.449	4.169	3.952	2.966	2.672	4.115	7.923	16.87	38.32	74.01	131.1	171.0	205.9	134.8	18.57	8.183
295.0	669.1	812.0	773.7	515.8	324.5	267.0	308.3	358.4	530.6	889.8	1202	917.2	1303	2745	8587	9999.9	5734	83.63	30.54	18.20	13.03	9.926	7.523	6.323	5.408	4.723	4.087	3.791	3.281	3.771	2.771	2.454	2.516	2.421	2.490	2.454	2.222	2.265	1.808	1.784	1.564	1.644	1.660	1.831	1.807	2.561	2.553	2.871	2.787	2.392	1.905	1.961	1.681	1.581	1.398	1.517	1.586	1.873	1.917	2.021	2.475	2.999	3.642	5.135	6.902	5.539	4.512	5.184	6.939	11.59	19.06	31.65	41.72	69.97	159.1	272.8	232.1
300.0	965.7	1217	1185	832.7	593.4	516.3	492.6	834.3	1098	1491	1951	1665	1507	1611	2971	9999.9	9999.9	4572	72.12	28.11	18.26	12.07	9.537	7.375	6.439	5.894	4.395	4.245	3.727	4.388	3.089	2.937	2.784	2.735	2.755	2.741	2.656	2.594	2.275	2.149	1.985	2.095	2.310	2.433	2.521	3.400	3.414	3.748	4.001	3.225	2.810	2.928	2.791	2.676	2.545	2.813	3.106	3.339	3.912	4.158	4.522	5.302	6.285	7.929	9.329	10.65	10.81	9.368	8.968	9.534	10.96	13.13	14.62	20.82	44.40	113.6	242.5
305.0	1523	1873	1839	1333	1006	997.1	1259	1684	2211	2912	3585	4180	3590	2833	2597	4164	9999.9	9999.9	610.7	51.77	25.45	16.59	11.58	9.681	7.520	6.936	5.093	4.637	4.320	4.334	3.163	3.085	3.099	3.146	3.010	3.104	3.191	3.261	2.979	2.882	2.717	2.680	3.037	3.076	3.432	4.212	4.819	5.606	5.668	4.825	4.022	4.455	4.104	3.949	4.440	4.418	5.754	6.328	7.048	8.134	9.256	10.79	12.05	14.16	15.32	17.22	18.69	19.47	19.22	16.49	15.57	14.21	14.05	15.57	19.72	33.75	73.93
310.0	1997	2557	2602	1909	1439	1434	1818	2316	2890	3704	4434	5139	5116	4057	3169	2746	4653	9999.9	9999.9	9999.9	53.75	24.96	16.33	12.51	9.709	7.741	6.635	5.569	5.002	5.076	3.793	3.845	3.477	3.353	3.595	3.397	3.594	3.686	3.707	3.430	3.294	3.467	3.608	4.055	4.569	5.921	6.288	7.325	7.741	6.480	5.626	5.730	5.762	5.321	5.924	6.249	7.391	8.805	9.744	10.78	11.88	13.49	15.36	17.35	19.13	20.63	22.02	23.15	24.95	24.05	21.67	18.87	17.72	17.62	16.87	17.74	25.06
315.0	2552	3372	3433	2519	1871	1821	2247	2707	3238	4091	4927	5587	5697	5149	3841	2718	2791	3341	9999.9	9999.9	4091	61.43	24.77	17.58	12.45	9.535	7.574	6.667	5.615	6.045	4.306	3.924	3.737	3.450	3.616	3.820	3.654	3.980	3.987	4.013	3.982	4.184	4.443	4.606	5.581	7.272	7.919	9.613	10.09	8.070	6.960	7.337	7.464	6.481	7.095	7.574	8.653	10.48	11.68	12.33	13.28	15.13	17.77	19.75	21.19	23.02	24.20	24.79	26.54	25.98	25.34	24.80	21.56	20.82	17.93	15.30	15.72
320.0	2988	4052	4184	2887	2066	1952	2390	2900	3380	4228	5135	5791	5915	5400	4359	2852	2434	1831	2760	9999.9	9999.9	3293	49.43	23.89	16.34	11.69	9.444	7.704	6.184	6.426	4.634	4.384	4.078	3.661	4.012	4.105	4.049	4.185	3.977	4.213	4.140	4.419	4.721	5.575	6.463	8.557	9.427	12.04	12.23	9.548	7.960	8.332	7.924	7.414	7.747	8.044	9.795	11.04	12.61	12.85	13.66	15.46	17.99	19.96	21.79	23.05	25.85	26.73	27.35	27.50	26.29	25.28	24.57	24.20	19.31	15.37	14.28
325.0	3281	4658	4751	3253	2215	1973	2367	2844	3257	4056	4907	5602	5744	5210	4399	2952	2257	1440	919.5	3155	9999.9	9999.9	464.2	40.12	21.51	14.19	11.16	8.375	7.080	7.199	5.306	4.848	4.184	4.010	4.403	4.051	4.174	4.366	4.057	4.322	4.165	4.525	5.210	5.977	7.150	9.443	10.66	13.19	13.80	11.77	8.712	9.286	8.466	7.877	7.575	8.305	9.368	10.92	12.86	12.88	13.44	14.39	16.60	19.48	21.57	22.62	24.25	26.07	26.13	26.03	25.29	24.64	23.23	24.10	20.26	15.52	13.86
330.0	3484	5083	5487	4115	2779	2128	2227	2604	2975	3673	4459	5113	5283	4861	3978	2922	2214	1304	573.0	904.9	3475	9999.9	9999.9	8465	43.69	20.90	15.14	10.89	8.676	8.603	6.080	5.435	4.746	4.077	4.380	4.219	4.075	4.257	4.088	4.243	4.150	4.583	4.992	5.990	7.196	10.18	11.72	14.63	15.58	13.62	11.46	11.81	10.79	8.880	8.377	8.018	9.101	10.19	11.97	11.87	12.57	13.54	15.10	17.57	19.23	20.52	22.26	23.47	23.88	24.72	23.66	22.66	21.36	21.50	19.16	16.16	14.72
335.0	3632	5466	6131	5031	3647	2502	2186	2437	2713	3304	4034	4642	4848	4553	3702	2696	2245	1391	605.2	491.0	983.7	2509	9999.9	9999.9	3320	49.36	21.91	15.69	10.97	10.54	7.065	6.393	5.517	4.838	4.884	4.382	4.254	4.257	4.161	4.383	4.312	4.928	5.173	6.268	7.462	10.50	12.10	15.93	17.13	15.28	13.68	14.53	14.10	12.15	10.69	8.598	8.634	9.870	10.60	11.37	11.41	12.46	13.50	15.72	17.08	18.49	19.87	21.57	21.98	22.37	22.53	21.14	20.45	19.30	17.25	14.78	13.97
340.0	3548	5339	6250	5148	3775	2539	2039	2216	2462	2956	3605	4140	4350	4145	3385	2439	1987	1440	657.0	416.3	448.0	735.8	2716	9999.9	9999.9	2765	40.81	19.89	14.05	12.69	8.401	7.048	6.092	5.214	4.683	4.432	4.369	4.056	4.049	4.162	4.191	4.547	5.028	6.318	7.537	10.14	11.93	15.69	16.48	15.46	14.05	15.40	14.55	12.51	10.26	8.475	8.595	9.094	9.822	10.37	10.65	11.42	12.71	13.90	15.63	16.21	17.52	19.02	19.91	19.82	20.75	19.61	18.53	17.34	15.60	13.62	12.19
345.0	3124	4966	5758	4919	3570	2319	1836	1977	2176	2588	3138	3616	3796	3648	2984	2151	1678	1293	753.1	417.7	329.7	347.0	749.9	3382	9999.9	9999.9	403.6	31.05	17.29	15.09	9.338	7.420	6.582	5.548	4.899	4.315	4.108	3.891	3.675	3.741	3.841	4.353	4.698	5.701	6.878	9.337	11.03	14.78	15.75	14.62	13.55	14.71	13.69	11.83	9.846	7.705	7.803	7.899	8.606	9.264	9.260	9.973	11.01	12.01	13.63	14.37	15.75	16.18	17.30	17.19	18.35	17.56	16.37	15.67	13.97	12.11	11.15
350.0	2797	4254	5136	4572	3469	2227	1650	1697	1854	2183	2633	3007	3177	3064	2544	1881	1445	1070	772.2	545.2	350.7	281.9	335.2	876.3	3642	9999.9	9999.9	7335	37.20	21.25	12.77	9.616	7.393	6.176	5.315	4.483	4.286	3.893	3.961	3.631	3.589	3.809	4.359	5.081	6.082	8.303	9.899	12.73	13.86	13.09	12.78	13.80	13.10	11.46	9.426	7.211	7.018	7.134	7.498	7.934	7.703	8.564	9.582	10.33	11.17	12.22	13.19	13.55	14.46	14.74	15.40	14.83	14.13	13.63	12.04	10.74	9.664
355.0	2419	3675	4398	4032	3222	2082	1487	1487	1588	1821	2170	2459	2611	2558	2136	1617	1272	938.4	668.3	607.7	458.0	298.9	262.5	333.1	892.6	2407	9999.9	9999.9	3074	47.52	18.13	12.84	8.923	6.802	6.325	4.806	4.302	4.059	3.702	3.850	3.386	3.823	4.188	4.736	5.634	7.193	8.194	11.02	11.69	11.56	11.52	12.37	11.83	11.12	9.059	6.526	6.367	6.465	6.860	6.844	7.065	7.224	8.319	8.509	9.665	10.27	10.60	11.95	12.14	12.13	12.47	12.33	12.03	11.76	10.32	9.213	8.724
360.0	2055	3096	3751	3555	2810	1871	1336	1321	1406	1583	1864	2106	2226	2172	1831	1417	1125	852.0	614.7	543.2	529.5	354.1	255.5	219.3	292.7	603.2	2661	9999.9	9999.9	2754	36.77	16.68	11.78	8.264	6.569	5.162	4.479	4.232	3.882	3.575	3.211	3.399	3.798	4.251	5.162	6.234	7.160	8.854	10.37	10.17	9.701	10.84	10.66	9.713	8.064	6.209	6.195	5.751	5.931	6.023	6.314	6.635	7.074	7.583	8.426	8.952	9.272	9.706	10.37	10.54	10.62	10.36	10.40	10.24	9.253	8.255	7.779
365.0	1734	2610	3201	3101	2516	1697	1238	1193	1264	1413	1626	1816	1911	1881	1600	1258	1010	797.1	595.1	497.0	506.5	444.7	285.5	208.1	172.4	213.6	655.4	3355	9999.9	9999.9	379.0	29.49	14.85	10.38	8.256	6.274	4.859	4.515	3.961	3.632	3.582	3.572	3.720	3.969	4.731	5.692	6.337	7.871	9.101	8.927	8.648	9.597	9.656	8.887	7.499	5.579	5.647	5.070	5.334	5.465	5.669	6.085	6.510	6.625	7.441	7.721	7.990	8.433	9.089	9.085	9.290	9.296	8.984	8.822	8.053	7.501	7.026
370.0	1521	2181	2650	2663	2229	1549	1129	1087	1131	1241	1408	1541	1612	1597	1372	1106	919.3	749.6	589.6	497.3	453.3	456.0	387.8	252.1	171.5	145.4	221.1	811.4	3648	9999.9	9999.9	7036	33.12	15.75	10.61	7.623	5.927	4.880	4.311	3.933	3.720	3.450	3.445	3.775	4.267	4.962	5.528	6.844	7.952	7.480	7.346	8.657	8.670	7.729	6.649	4.992	4.989	4.740	4.979	5.125	5.138	5.509	5.826	6.022	6.373	6.686	7.056	6.865	7.649	8.002	8.006	7.864	7.525	7.632	6.941	6.589	6.127
375.0	1271	1793	2204	2190	1913	1393	1044	987.9	1022	1101	1210	1299	1353	1339	1161	968.0	828.8	702.4	584.8	502.6	446.1	411.3	424.7	349.1	209.3	155.7	143.1	253.5	869.4	2450	9999.9	9999.9	2659	38.23	15.07	10.18	7.572	5.894	4.863	4.267	3.726	3.611	3.633	3.735	3.936	4.319	4.934	5.638	6.641	6.356	6.363	7.229	7.534	6.990	5.940	4.810	4.672	4.335	4.466	4.714	4.435	4.962	5.177	5.301	5.549	5.866	6.033	5.930	6.613	6.771	6.681	6.327	6.430	6.690	5.996	5.771	5.554
380.0	1104	1557	1872	1891	1686	1293	967.3	935.3	950.7	993.8	1087	1152	1196	1177	1042	883.4	766.8	669.4	569.2	505.8	454.0	405.3	394.6	398.6	272.5	179.0	141.1	141.5	258.6	604.6	2718	9999.9	9999.9	2218	30.29	13.11	9.407	6.948	5.345	4.653	3.963	3.597	3.764	3.581	3.771	4.012	4.397	5.193	5.726	5.548	5.519	6.369	6.488	6.283	5.468	4.541	4.317	4.260	4.208	4.357	4.142	4.528	4.750	4.909	5.191	5.278	5.396	5.271	5.803	5.765	6.136	5.632	5.800	5.815	5.481	5.305	5.059
385.0	982.8	1395	1673	1667	1538	1185	924.2	876.0	878.1	928.1	1007	1040	1079	1051	947.2	813.3	719.9	647.1	562.0	508.7	461.2	410.4	377.6	381.6	346.3	218.5	158.3	131.6	135.6	196.4	659.4	3371	9999.9	9999.9	312.0	22.69	11.59	8.814	6.127	5.111	4.218	3.763	3.675	3.571	3.664	3.850	4.200	4.694	5.189	4.931	5.014	5.909	6.104	5.764	5.000	4.389	4.110	4.227	4.263	4.125	4.250	4.080	4.330	4.463	4.756	4.825	4.990	4.783	5.123	5.120	5.437	5.162	5.512	5.367	4.802	5.019	4.748
390.0	886.8	1203	1443	1462	1352	1095	883.1	834.2	830.9	860.9	905.6	937.7	958.9	938.2	851.6	743.0	673.8	617.7	554.1	513.7	462.2	424.2	387.2	357.5	350.0	305.0	207.6	154.1	128.2	122.6	205.7	802.2	3425	9999.9	9999.9	5846	27.09	12.28	8.276	6.366	5.059	4.249	3.716	3.554	3.649	3.760	3.910	4.480	4.678	4.406	4.376	5.234	5.703	5.166	4.800	3.977	3.972	4.058	4.045	4.006	4.071	3.962	4.051	4.168	4.329	4.461	4.393	4.299	4.536	4.744	4.861	4.708	4.850	4.907	4.738	4.629	4.567
395.0	787.9	1058	1271	1280	1215	1016	843.6	803.4	794.8	804.7	842.5	858.9	856.1	838.9	770.4	689.2	630.0	588.3	542.6	503.0	471.5	434.1	398.8	361.7	327.7	327.4	287.4	197.0	147.9	126.1	120.4	234.3	805.6	2369	9202	9999.9	2254	32.92	12.02	8.378	6.163	4.917	4.254	4.060	3.824	3.815	3.713	4.175	4.425	4.152	3.958	4.756	5.122	4.918	4.574	4.067	4.140	4.086	3.878	3.849	3.750	3.606	3.847	4.118	3.905	4.078	3.981	3.824	4.055	4.239	4.368	4.119	4.267	4.499	4.323	4.205	4.247
400.0	737.1	950.1	1139	1173	1128	967.0	823.5	793.1	774.7	766.9	789.4	816.3	799.7	784.1	721.4	653.5	606.8	567.0	529.1	492.4	470.1	437.7	406.6	368.1	331.8	312.4	318.7	250.8	173.9	142.1	113.3	117.0	228.2	566.3	2386	9999.9	9999.9	1988	28.13	10.89	7.263	5.892	4.533	4.480	4.025	4.036	3.852	3.949	4.081	3.829	3.886	4.561	4.750	4.440	4.561	3.826	3.931	3.990	3.721	3.742	3.721	3.708	3.615	3.939	3.842	3.887	3.632	3.890	3.857	3.875	3.996	3.984	4.137	4.232	4.264	4.216	4.006
405.0	669.1	896.2	1080	1080	1061	922.0	804.7	769.8	752.9	743.4	767.8	786.3	760.6	736.6	683.2	617.0	582.8	546.1	516.6	489.5	465.2	439.4	412.9	376.5	342.2	309.0	310.8	299.1	213.1	159.7	124.0	101.8	106.2	167.5	566.7	2911	9999.9	9999.9	1550	21.39	8.887	6.727	5.446	4.662	3.875	4.010	3.908	3.969	4.033	3.739	3.562	4.435	4.371	4.383	4.175	3.876	3.862	4.004	3.399	3.836	3.625	3.756	3.655	3.668	3.703	3.621	3.633	3.694	3.534	3.744	3.835	3.988	4.014	3.857	3.801	3.867	3.981
410.0	649.0	817.9	986.9	1000	968.2	880.8	792.0	755.3	734.2	722.0	735.0	734.9	712.8	690.5	640.4	586.1	548.7	519.6	494.7	470.0	452.7	430.2	410.7	380.8	351.1	318.9	296.3	295.4	271.1	200.3	144.8	112.1	90.26	87.07	163.5	680.5	2903	9999.9	9999.9	5285	24.53	9.846	7.114	5.674	4.486	4.342	4.030	3.974	3.949	3.612	3.395	4.234	4.285	4.176	3.999	3.693	3.969	3.733	3.694	3.758	3.572	3.520	3.655	3.408	3.494	3.641	3.509	3.454	3.482	3.654	3.635	3.707	3.923	3.655	3.671	3.598	3.737
415.0	608.3	782.0	883.7	943.5	905.6	841.3	771.5	736.7	720.9	697.9	703.5	690.8	669.3	643.8	597.6	546.7	514.8	493.6	472.6	451.2	439.4	420.0	403.6	379.7	356.5	325.7	300.4	279.0	279.3	256.5	175.6	128.9	97.96	77.56	80.53	185.5	673.3	2300	6251	9999.9	2091	31.80	9.659	6.870	5.428	4.697	4.239	4.206	4.070	3.403	3.452	3.868	4.320	3.920	3.792	3.355	3.782	3.651	3.541	3.652	3.447	3.659	3.522	3.512	3.461	3.469	3.288	3.154	3.400	3.352	3.298	3.378	3.562	3.517	3.293	3.367	3.511
420.0	566.1	756.2	852.6	846.4	867.1	805.0	764.4	722.3	714.4	694.3	682.2	660.9	646.3	611.7	569.2	521.4	490.9	470.6	452.9	435.0	423.8	402.7	390.0	373.9	354.9	326.5	302.2	278.2	265.7	269.8	214.6	144.9	107.6	81.15	67.91	79.13	178.8	535.7	1545	7984	9999.9	1960	26.45	9.303	6.446	5.530	4.541	4.040	3.991	3.473	3.415	3.820	4.137	3.850	3.559	3.558	3.801	3.654	3.631	3.569	3.482	3.734	3.450	3.402	3.318	3.293	3.134	3.205	3.261	3.371	3.336	3.215	3.454	3.297	3.116	3.358	3.239
425.0	574.8	707.9	814.7	834.5	811.1	786.8	738.2	720.2	703.5	682.8	686.1	648.7	620.3	589.5	541.4	502.2	469.8	452.9	435.1	419.6	407.2	393.3	381.6	367.6	351.8	329.3	308.4	282.9	261.8	255.4	240.5	170.1	119.1	90.49	69.40	59.52	71.59	144.3	365.7	2106	9689	9999.9	1605	22.11	8.450	6.422	5.032	4.453	3.949	3.392	3.487	3.809	4.107	3.661	3.843	3.714	3.656	3.526	3.490	3.627	3.562	3.524	3.340	3.247	3.386	3.223	2.993	3.261	3.161	3.310	3.126	3.293	3.181	3.253	3.319	3.186	3.217
430.0	722.4	662.1	772.7	780.1	787.3	766.1	709.3	711.2	693.2	675.2	669.8	635.7	599.0	565.0	514.0	473.9	442.5	427.2	413.6	397.6	387.4	374.9	368.5	357.7	343.6	325.8	307.3	287.2	264.6	244.7	233.4	206.0	146.3	103.2	79.46	62.41	53.64	61.33	104.0	489.3	2480	7817	9999.9	5441	112.8	9.900	6.282	5.487	4.521	3.715	3.444	3.849	3.959	3.665	3.807	3.512	3.806	3.602	3.619	3.568	3.538	3.607	3.657	3.493	3.365	3.212	3.148	3.159	2.822	3.100	2.903	3.049	2.988	3.069	3.212	3.013	3.113
435.0	1454	687.8	705.9	743.0	750.5	742.2	701.7	702.8	687.1	668.8	656.5	630.3	581.5	538.1	488.9	446.9	417.4	405.9	390.4	379.1	366.7	360.8	357.2	347.4	331.2	323.4	302.7	287.4	268.0	248.0	221.3	204.5	181.0	125.4	92.60	70.14	55.46	47.39	49.16	130.6	569.7	1772	4537	9999.9	8134	32.81	9.947	7.119	5.280	4.327	3.994	4.197	4.173	3.783	3.980	3.610	3.711	3.896	3.582	3.573	3.630	3.480	3.414	3.278	3.473	2.984	3.210	3.009	2.896	2.939	2.960	2.844	2.927	2.861	2.728	2.880	3.089
440.0	2092	989.3	690.4	725.0	710.3	710.4	677.9	687.1	677.9	656.7	646.1	618.9	569.8	521.4	471.3	427.6	401.5	386.0	371.3	363.5	351.5	346.6	343.5	336.0	326.7	315.0	298.0	285.5	269.7	250.4	220.7	193.7	186.9	148.5	102.0	77.61	60.36	48.55	40.31	52.52	145.9	412.5	1080	6050	9999.9	1953	26.69	9.790	6.210	4.803	4.362	4.129	4.103	3.766	4.165	3.672	3.873	3.778	3.492	3.749	3.665	3.434	3.448	3.183	3.273	3.091	3.152	2.972	2.810	2.812	2.815	2.563	2.732	2.611	2.846	2.847	2.900
445.0	2103	1710	689.5	692.0	684.7	691.0	678.6	677.8	664.7	652.2	639.6	597.4	545.9	505.5	448.1	409.4	383.8	367.4	354.6	343.3	334.7	332.2	326.6	323.1	315.3	306.9	291.2	279.9	266.5	249.8	222.5	190.1	174.2	163.5	118.1	83.37	65.50	52.08	41.63	37.45	53.08	109.1	257.1	1505	7743	9999.9	1592	24.04	7.951	5.637	4.592	4.370	4.374	3.962	3.946	3.530	3.742	3.828	3.784	3.723	3.745	3.308	3.372	3.365	3.161	3.004	2.700	2.825	2.870	2.827	2.858	2.687	2.955	2.672	2.870	2.660	2.619
450.0	1297	3087	1097	657.5	653.7	647.1	645.1	651.7	641.4	619.7	608.6	573.9	518.4	470.8	420.8	384.0	358.1	341.8	327.7	318.6	308.2	306.1	304.9	301.4	294.7	287.8	277.7	269.6	258.4	244.3	218.9	190.8	165.0	151.4	134.4	98.95	71.34	56.08	45.59	37.20	34.99	43.14	73.41	350.3	1908	6451	9999.9	6277	107.2	9.680	5.832	5.194	4.669	4.063	4.084	3.731	3.782	3.700	3.621	3.628	3.507	3.436	3.431	3.306	3.145	3.154	2.775	2.953	2.792	2.804	2.668	2.819	2.722	2.582	2.593	2.496	2.418
455.0	612.8	2853	3211	739.0	613.6	604.9	608.4	612.2	601.3	588.2	574.0	537.6	490.5	433.4	394.9	353.0	327.7	310.6	300.7	293.3	280.9	282.2	277.6	277.9	273.3	268.9	258.0	254.7	244.5	232.5	213.2	185.4	157.9	139.2	126.1	115.6	83.66	60.10	48.18	39.79	33.01	31.24	34.01	92.64	437.2	1457	3658	9999.9	7944	153.0	9.499	6.007	5.272	4.147	4.217	3.764	3.846	3.630	3.594	3.230	3.432	3.132	3.301	3.163	2.925	2.971	2.908	2.963	2.525	2.668	2.610	2.581	2.409	2.369	2.436	2.342	2.222
460.0	431.8	1708	4749	991.1	576.8	563.1	575.4	582.9	567.6	566.7	544.4	502.7	464.9	409.7	367.7	327.2	302.2	289.0	278.5	267.1	261.8	259.5	258.8	257.1	254.4	250.2	244.3	240.2	230.8	220.1	202.1	178.9	154.6	134.1	117.8	113.5	94.25	66.04	50.53	41.55	33.89	29.05	25.62	35.91	110.7	337.1	848.2	4623	9999.9	5843	23.14	8.561	6.252	4.983	4.448	4.158	3.924	3.656	3.596	3.253	3.344	3.451	3.281	3.129	2.979	2.969	2.766	2.780	2.538	2.468	2.316	2.467	2.149	2.196	2.238	2.265	2.188
465.0	368.1	834.7	4591	2965	592.0	535.6	527.4	554.8	541.0	537.1	515.0	486.0	433.3	382.8	341.3	306.2	280.9	268.8	257.6	248.6	245.5	242.2	239.8	236.7	235.9	233.1	231.4	229.6	218.7	210.1	193.3	172.1	149.5	130.2	111.0	103.3	97.67	74.29	54.35	42.95	35.68	29.06	24.94	23.99	38.15	88.00	201.4	1104	5904	9999.9	1358	23.96	8.395	5.860	4.942	4.170	4.060	3.975	3.520	3.305	3.156	3.373	3.137	3.116	2.865	2.887	2.708	2.638	2.471	2.320	2.457	2.252	2.281	2.471	2.192	2.155	2.072
470.0	363.3	493.6	2371	5292	1469	488.6	492.2	502.6	492.2	491.0	474.3	446.7	397.2	353.9	310.1	276.4	256.5	242.9	232.1	224.4	217.3	214.9	214.3	214.1	212.7	209.5	208.2	205.1	200.9	193.5	178.1	162.0	140.4	121.7	104.6	91.76	86.15	79.13	61.67	45.14	36.32	30.10	25.19	21.94	22.80	32.13	55.98	257.6	1410	4813	8460	5164	115.8	10.15	5.767	4.574	4.195	3.770	3.322	3.350	3.103	3.087	3.041	2.918	2.731	2.623	2.597	2.621	2.320	2.169	2.148	2.057	2.054	2.214	2.109	1.831	2.042
475.0	323.0	369.3	855.9	4387	4434	576.8	448.5	451.6	451.4	448.9	431.1	407.3	359.0	318.8	278.9	246.0	227.7	214.9	206.5	198.8	193.1	193.5	188.9	190.4	187.9	185.1	184.0	181.5	180.7	175.0	163.3	146.8	129.4	113.2	97.88	85.02	75.28	71.99	67.83	50.14	37.29	30.58	25.13	21.50	19.59	19.83	23.14	67.30	322.6	1082	2529	7863	6551	179.5	8.831	5.178	4.279	3.872	3.549	3.107	3.007	2.859	2.579	2.778	2.461	2.422	2.397	2.286	2.157	2.041	2.076	1.894	1.906	1.973	1.773	1.643	1.823
480.0	337.0	370.4	453.6	2348	6399	1488	419.6	424.3	420.7	419.5	404.1	379.4	338.2	300.3	263.0	229.3	211.2	199.3	189.4	181.8	180.5	174.8	173.7	174.9	173.1	170.9	171.1	170.3	165.9	163.6	152.2	138.1	122.5	108.7	93.94	82.10	72.31	64.83	65.61	55.36	39.46	31.10	25.57	21.80	19.27	17.72	16.38	24.79	80.36	248.6	578.7	2827	9746	5230	28.68	7.283	4.965	4.247	3.671	3.151	3.055	2.864	2.853	2.655	2.523	2.352	2.415	2.057	1.990	2.074	1.872	1.635	1.708	2.028	1.659	1.713	1.541
485.0	287.2	380.2	367.9	960.2	5937	3609	440.6	399.1	397.0	396.6	382.6	353.9	316.0	281.9	246.0	212.5	197.7	185.6	176.0	168.2	164.3	164.9	161.6	162.4	161.8	157.4	158.4	156.3	157.3	154.7	144.7	132.1	118.1	103.3	89.49	78.91	69.37	60.69	57.78	58.02	44.74	32.05	26.07	22.73	19.77	17.44	15.36	15.45	26.60	63.41	136.6	659.5	4466	9494	1662	23.88	6.626	5.005	3.991	3.432	3.192	3.021	2.831	2.545	2.433	2.507	2.356	2.173	2.191	1.941	1.831	1.649	1.730	1.919	1.629	1.602	1.509
490.0	239.2	371.8	361.8	471.9	2961	6352	1544	377.5	371.5	366.4	353.7	326.9	293.2	256.9	225.1	197.3	181.4	169.6	162.3	154.1	151.0	147.9	146.5	148.2	146.0	145.6	143.8	142.6	143.2	141.0	132.8	122.5	110.1	96.33	85.17	74.82	65.79	57.96	51.58	50.68	48.14	37.30	27.36	23.20	20.06	17.57	15.75	13.90	15.12	21.86	37.59	154.0	1045	3777	7352	4900	125.0	10.02	4.647	3.777	3.417	3.089	2.896	2.542	2.483	2.314	2.224	2.009	2.111	1.884	1.750	1.615	1.706	1.683	1.488	1.652	1.566
495.0	197.2	307.3	373.1	339.8	942.0	5207	4934	424.6	334.8	334.3	323.2	297.7	272.8	230.0	204.1	177.4	160.9	153.9	145.4	140.6	135.1	131.5	130.5	129.7	129.3	128.0	128.2	127.6	128.6	126.2	119.3	110.3	101.7	89.30	80.25	70.41	62.71	54.37	48.48	43.41	42.77	41.84	31.56	24.25	20.01	17.79	15.27	13.96	12.50	12.40	14.97	40.47	239.2	848.4	2238	7459	6668	201.2	7.890	4.379	3.798	3.348	2.942	2.666	2.446	2.187	2.129	2.088	1.994	1.793	1.677	1.593	1.548	1.587	1.313	1.417	1.493
500.0	202.0	245.4	364.8	311.1	423.4	2697	7379	1236	315.6	309.7	301.9	280.6	246.9	216.1	190.7	167.7	149.4	138.2	133.0	126.7	124.5	120.2	118.8	119.0	118.0	119.2	115.8	116.6	118.3	115.8	111.0	102.0	92.36	83.08	75.05	66.09	58.51	52.51	45.01	39.76	38.23	38.92	35.02	25.19	20.57	17.47	15.32	13.78	12.24	10.53	10.15	15.25	59.27	194.9	511.3	2645	8800	5231	30.72	6.412	4.532	3.483	2.804	2.536	2.411	2.121	2.123	1.992	1.798	1.633	1.635	1.447	1.504	1.530	1.264	1.272	1.459
505.0	165.9	215.4	322.8	311.1	299.4	1015	7100	2887	319.7	286.3	279.1	257.8	228.9	199.6	171.8	154.5	137.7	127.6	118.7	115.8	111.9	108.6	109.9	107.9	108.5	107.0	107.9	107.0	106.7	107.5	102.1	94.69	85.50	76.29	68.57	62.64	54.36	49.42	43.09	37.60	34.42	33.66	35.55	27.94	20.92	17.49	14.93	13.25	11.76	10.47	9.126	9.389	19.06	48.76	120.2	613.5	3735	9027	1774	25.37	5.482	4.041	3.021	2.663	2.335	2.035	1.986	1.835	1.675	1.712	1.566	1.432	1.291	1.245	1.188	1.313	1.256
510.0	155.5	177.3	253.1	318.4	258.5	407.3	3463	6748	1239	258.8	246.3	230.5	205.2	176.4	155.0	134.4	122.5	113.4	106.6	101.6	97.30	95.70	96.60	96.16	95.73	93.86	93.16	94.69	95.12	94.02	90.43	82.84	76.64	69.18	61.96	55.71	49.81	45.31	40.08	34.89	31.65	29.35	30.20	29.87	23.08	17.74	14.98	13.08	11.19	10.10	9.077	8.062	9.558	15.89	32.04	142.2	866.3	3459	5983	3938	126.5	8.470	3.564	2.869	2.422	2.042	1.943	1.796	1.555	1.542	1.516	1.283	1.209	1.199	1.218	1.136	1.148
515.0	127.7	161.2	189.3	277.5	258.2	250.7	1000	6017	4871	300.3	219.7	204.3	181.0	157.2	135.6	119.2	107.1	99.73	95.09	90.28	85.30	83.53	83.22	82.99	82.37	82.18	81.24	82.02	82.53	81.37	79.08	73.60	66.55	61.67	54.49	50.78	44.75	40.81	36.08	31.96	28.89	26.16	24.29	26.76	24.80	19.88	14.60	12.78	10.75	9.594	8.950	7.627	7.224	8.282	11.84	36.29	197.2	775.9	1704	5604	5266	198.0	6.480	3.618	2.731	2.244	2.024	1.706	1.427	1.411	1.272	1.239	1.248	1.179	1.068	1.052	0.949
520.0	127.2	144.2	162.6	224.8	266.5	204.4	373.7	3126	8113	1047	200.7	188.0	163.3	142.4	125.5	109.5	99.95	87.97	83.99	81.54	76.14	73.73	75.05	73.69	74.03	73.34	73.63	72.85	73.61	74.46	70.07	65.57	59.42	54.69	50.33	45.91	41.21	37.22	33.50	30.19	27.44	24.57	22.84	22.58	23.92	21.19	14.93	12.10	10.61	9.310	8.574	7.486	7.137	6.486	6.954	12.23	48.19	177.2	388.3	1977	6766	1947	30.45	4.793	3.254	2.427	2.033	1.698	1.605	1.327	1.245	1.164	1.126	1.124	0.884	1.036	0.829
525.0	119.2	130.9	146.0	188.5	257.2	192.8	217.6	1109	8446	2256	209.5	170.6	150.6	130.9	113.7	97.98	89.31	80.99	76.40	72.59	70.94	67.85	66.02	66.45	66.82	66.41	65.61	65.36	66.81	67.20	63.95	58.44	54.56	50.79	46.00	41.55	38.02	34.10	31.01	27.99	24.49	22.86	21.17	19.76	20.79	21.30	16.84	12.39	10.43	8.901	8.200	7.299	6.711	6.111	5.644	6.739	14.77	43.72	91.25	457.0	2820	6320	1730	23.98	3.732	2.469	2.071	1.799	1.594	1.450	1.221	1.192	1.099	1.069	0.873	0.954	0.944
530.0	97.14	115.5	126.8	147.3	216.0	205.9	167.2	379.0	4172	7455	975.9	155.2	134.2	115.6	99.76	87.21	78.79	71.16	66.74	63.43	61.88	58.92	58.54	57.85	58.12	57.32	56.94	57.23	58.63	57.25	56.62	52.22	48.06	44.49	39.82	36.60	33.05	30.90	28.13	25.11	22.26	20.83	18.72	17.46	16.82	18.47	17.81	13.28	9.963	8.458	7.687	6.825	5.912	5.743	5.493	5.197	6.905	13.21	23.72	105.7	654.7	2515	4515	3048	120.6	5.711	2.612	1.919	1.657	1.426	1.201	1.128	1.081	1.032	0.949	0.840	0.853
535.0	81.40	99.27	112.2	117.9	151.1	217.6	153.8	190.6	1127	7035	4860	190.1	118.6	98.91	87.15	75.84	68.82	63.13	57.57	53.45	52.35	51.30	51.61	49.20	49.27	49.81	48.65	48.66	49.90	48.82	47.02	45.01	41.39	38.42	35.08	31.83	29.29	26.59	24.81	22.30	20.23	18.62	16.67	15.02	13.95	14.57	15.43	14.29	10.54	7.911	7.008	6.348	5.473	5.184	5.182	4.845	4.871	5.866	8.569	26.56	148.8	563.9	1282	4333	3668	32.31	4.572	2.498	1.808	1.619	1.265	1.032	0.977	0.962	0.858	0.750	0.814
540.0	78.68	88.76	99.64	101.3	118.3	193.5	168.3	139.4	354.5	3539	8647	680.0	106.7	92.28	78.22	68.67	60.88	56.40	49.91	48.53	46.36	44.61	45.84	44.22	43.17	42.97	42.28	42.62	43.62	43.30	41.91	40.31	36.69	34.10	31.29	28.23	26.32	23.90	22.13	20.50	18.07	16.49	15.26	13.21	12.72	12.31	13.13	13.86	11.33	8.014	6.771	6.213	5.132	4.884	4.782	4.697	4.222	4.318	4.891	8.710	35.75	128.6	291.6	1525	4768	1836	28.31	3.245	2.014	1.534	1.301	1.138	0.969	0.814	0.819	0.776	0.802
545.0	65.15	85.94	96.53	97.43	97.35	156.3	177.5	119.9	169.4	1159	9071	1672	108.0	84.96	70.77	62.32	53.70	49.96	45.92	44.20	41.50	39.87	40.66	39.55	37.82	38.48	37.30	37.00	37.78	38.72	38.27	36.16	33.00	29.90	28.60	26.31	23.21	22.20	19.85	18.17	16.46	15.02	13.46	12.72	11.93	10.92	10.85	11.81	11.28	8.553	6.384	5.642	4.925	4.552	4.378	4.145	4.359	3.766	3.503	4.551	10.34	31.28	68.07	352.4	1989	4326	1511	21.53	2.504	1.662	1.419	1.168	1.047	0.963	0.784	0.726	0.710
550.0	68.47	76.34	80.74	81.88	81.99	106.1	165.2	121.3	111.9	344.7	4220	6913	568.4	72.89	61.15	51.90	46.30	42.89	38.28	37.15	34.69	33.72	33.48	32.56	31.76	32.01	31.72	31.50	31.67	32.15	30.98	29.36	27.67	25.08	23.89	21.76	19.68	18.20	17.25	15.31	14.15	12.76	11.75	11.19	10.16	9.412	8.877	8.955	9.930	8.874	6.683	5.084	4.399	4.048	3.794	3.812	3.871	3.826	3.190	3.213	4.449	9.043	17.50	81.13	460.5	1677	3124	1586	114.1	4.082	1.730	1.210	0.979	0.951	0.824	0.692	0.675
555.0	58.16	72.09	71.37	68.59	66.64	71.08	125.4	144.5	89.60	142.2	1083	6750	3635	90.63	52.55	41.88	38.75	35.59	31.60	30.75	27.97	28.18	27.41	26.09	26.29	26.02	25.56	25.19	26.19	26.32	25.31	24.28	22.17	20.78	18.98	17.94	16.48	15.20	14.32	12.99	11.88	11.04	9.978	8.924	8.705	8.152	7.181	7.266	7.165	7.888	6.897	5.170	4.085	3.520	3.269	3.214	3.234	3.140	3.090	2.705	2.818	3.921	5.750	20.04	104.5	375.7	877.2	2481	1904	32.76	2.815	1.422	1.079	0.990	0.780	0.719	0.675
560.0	62.35	67.85	61.42	65.72	59.05	59.02	86.05	148.3	85.75	90.43	303.7	3275	7136	163.3	47.74	37.07	34.06	29.33	27.41	24.90	24.19	23.26	22.75	22.69	22.64	21.81	22.30	20.87	21.72	21.75	21.60	20.70	18.55	17.95	16.65	14.95	13.99	12.67	12.41	11.00	10.17	9.836	8.758	7.880	8.068	6.964	6.432	5.858	5.496	6.243	6.664	5.137	3.899	3.167	2.989	2.971	2.856	2.844	2.745	2.770	2.419	2.640	2.978	6.026	25.15	85.45	199.2	861.6	2765	1566	27.09	2.092	1.375	1.032	0.756	0.738	0.621
565.0	61.75	69.78	66.47	60.01	53.23	52.33	61.78	132.1	92.83	75.03	125.3	1029	7798	1127	47.25	33.80	29.93	26.75	23.30	22.48	21.25	20.35	20.11	19.03	18.93	18.44	19.22	18.59	18.61	18.98	18.08	16.54	16.25	15.15	13.95	13.02	11.72	10.94	10.32	9.624	8.508	8.186	7.461	6.652	6.555	5.979	5.821	5.260	4.770	4.863	5.477	5.100	3.915	2.991	2.715	2.707	2.466	2.370	2.565	2.819	2.481	2.170	2.212	3.091	7.142	20.66	46.33	198.5	1125	2636	1048	18.99	1.875	1.150	0.727	0.753	0.621
570.0	58.07	70.39	64.92	58.65	46.87	45.34	49.04	90.37	117.9	69.83	74.96	285.5	3665	5629	364.7	30.62	25.32	23.03	19.99	18.89	17.65	16.79	16.51	15.78	15.80	15.27	15.34	15.54	15.51	15.33	14.64	13.85	13.29	12.51	11.25	10.77	9.971	9.351	8.430	7.769	7.235	6.774	6.299	5.928	5.348	5.357	4.724	4.434	3.854	3.722	3.936	4.533	4.013	3.112	2.487	2.323	2.178	2.218	2.083	2.070	2.357	2.170	1.850	2.089	2.975	6.032	11.87	45.96	259.4	963.2	1742	1005	107.1	2.867	1.003	0.781	0.640
575.0	54.02	66.30	65.60	53.01	42.81	41.37	40.20	55.03	114.3	84.84	62.48	110.1	927.5	5690	2697	40.12	21.88	20.19	16.70	16.51	14.22	13.72	13.31	13.32	12.72	12.58	12.12	12.23	12.29	11.96	12.30	11.10	10.78	10.11	9.281	8.808	7.921	7.372	6.906	6.524	5.938	5.666	4.872	4.850	4.489	4.311	4.096	3.816	3.257	3.009	2.972	3.409	3.752	3.088	2.377	2.144	1.968	1.828	1.958	1.792	1.860	2.135	1.865	1.715	1.729	2.504	4.006	11.59	59.27	216.0	472.9	1397	1467	32.69	2.076	0.886	0.780
580.0	56.78	72.49	70.52	53.94	41.59	36.26	32.71	43.14	91.09	104.1	62.51	67.34	252.5	2784	5646	106.3	20.93	17.29	14.97	14.17	12.12	11.97	11.52	11.37	10.63	10.54	10.43	10.57	10.34	10.59	10.39	9.694	9.016	8.497	8.285	7.431	7.121	6.436	5.759	5.596	5.311	4.830	4.519	4.238	4.093	3.844	3.684	3.461	3.052	2.734	2.463	2.444	3.049	3.004	2.360	2.010	1.812	1.625	1.521	1.417	1.546	1.793	2.157	1.785	1.557	1.699	2.143	3.881	14.47	49.54	107.7	464.8	1678	1196	26.35	1.572	0.867
585.0	56.75	72.42	71.31	48.49	38.64	34.52	35.89	41.43	67.96	119.7	70.83	59.62	98.01	856.9	6310	770.6	22.48	16.61	13.79	12.21	10.97	10.32	10.06	9.634	9.509	8.725	9.107	9.053	9.478	9.178	8.779	8.761	7.511	7.632	6.902	6.248	5.795	5.568	5.406	4.739	4.507	4.132	3.929	3.878	3.620	3.401	3.276	2.962	2.723	2.444	2.250	2.346	2.329	2.792	2.601	1.983	1.594	1.575	1.415	1.333	1.542	1.668	2.116	1.979	1.580	1.405	1.725	2.043	4.458	12.27	25.33	106.7	634.8	1827	732.3	18.73	1.260
590.0	64.15	77.90	75.75	53.22	41.30	33.40	36.09	40.11	53.38	107.8	96.08	65.90	69.24	233.5	2983	3984	201.8	15.53	12.13	10.72	9.449	9.035	8.567	8.262	7.832	7.983	7.515	7.271	7.405	7.724	7.224	6.999	6.504	6.269	5.676	5.325	4.776	4.595	4.375	3.953	3.780	3.499	3.353	3.214	2.938	2.887	2.844	2.456	2.317	2.045	1.900	1.826	1.827	2.099	2.405	2.211	1.663	1.431	1.258	1.307	1.297	1.369	1.775	1.927	1.691	1.325	1.486	1.557	2.225	3.893	6.730	24.90	145.3	633.0	1084	678.8	100.6
595.0	62.79	82.92	73.73	55.90	39.22	35.35	37.75	42.58	53.40	81.80	122.3	80.34	71.40	95.12	750.0	4223	1649	20.76	11.09	9.811	7.923	7.475	7.066	7.215	6.648	6.342	6.177	6.293	6.429	6.198	6.246	5.814	5.486	5.145	4.736	4.324	3.965	3.624	3.424	3.547	3.243	2.954	2.794	2.482	2.579	2.411	2.345	2.273	1.948	1.771	1.651	1.568	1.446	1.477	1.848	2.137	1.864	1.314	1.284	1.274	1.228	1.185	1.741	1.722	1.710	1.628	1.426	1.394	1.458	1.937	2.475	6.629	33.44	142.0	277.9	791.4	926.8
600.0	63.64	79.06	88.50	63.76	43.39	36.54	47.76	53.27	61.58	80.32	141.2	108.4	86.02	73.94	210.5	2178	3690	70.10	10.90	8.577	7.480	6.470	6.020	6.343	5.540	5.604	5.219	5.279	5.584	5.453	4.949	4.796	4.510	4.512	4.072	3.612	3.387	3.281	2.933	3.170	2.673	2.423	2.494	2.231	2.184	2.205	2.007	1.917	1.749	1.535	1.523	1.360	1.364	1.345	1.377	1.782	1.874	1.701	1.239	1.164	1.176	1.221	1.653	1.883	1.619	1.793	1.664	1.493	1.409	1.636	1.664	2.465	8.427	32.62	63.20	244.2	943.3
605.0	75.72	88.33	91.98	73.29	51.94	47.87	59.29	70.48	84.74	113.0	164.2	170.1	127.1	101.2	113.3	706.4	4357	542.4	12.53	8.085	6.636	6.875	5.543	5.412	4.930	4.865	4.618	4.593	4.629	4.713	4.247	4.214	4.009	3.771	3.632	3.552	3.277	3.008	2.661	2.490	2.211	2.183	2.145	2.129	1.845	2.066	1.824	1.712	1.729	1.478	1.281	1.244	1.169	1.168	1.203	1.381	1.810	1.821	1.569	1.319	1.333	1.546	1.779	1.867	1.577	1.791	1.949	1.759	1.645	1.816	1.817	1.588	2.928	8.305	15.06	56.14	328.0
610.0	94.42	119.0	121.3	90.72	66.00	70.08	87.05	110.1	144.3	185.5	230.1	277.8	218.8	168.3	147.8	250.8	2269	2755	53.12	8.495	6.290	5.634	4.934	4.727	4.340	4.252	4.042	4.101	3.847	4.128	3.745	3.958	3.455	3.295	3.394	2.897	2.893	2.579	2.276	2.092	2.036	1.889	1.958	1.886	1.669	1.767	1.637	1.619	1.506	1.345	1.287	1.275	1.090	1.093	1.076	1.102	1.637	1.700	1.590	1.472	1.499	1.667	2.122	2.208	1.762	2.023	2.271	2.343	2.223	2.013	1.779	1.714	2.125	3.222	4.601	13.75	75.02
615.0	99.47	124.2	136.1	100.9	73.09	79.01	99.91	123.5	165.1	215.5	250.8	301.7	282.8	201.1	165.4	151.8	643.7	3182	598.1	10.88	6.077	5.370	4.276	4.260	3.832	3.555	3.403	3.439	3.174	3.484	3.403	3.090	2.921	3.080	3.034	2.608	2.605	2.121	1.954	1.806	1.931	1.739	1.603	1.681	1.541	1.552	1.506	1.416	1.369	1.291	1.155	1.106	1.018	0.981	1.082	1.103	1.190	1.606	1.720	1.709	1.640	1.631	2.175	2.183	1.776	2.036	2.137	2.476	2.388	2.301	1.959	1.917	1.805	2.020	2.190	4.114	17.63
620.0	101.5	133.4	142.9	100.4	79.89	75.07	103.3	129.1	159.4	203.5	245.3	283.8	287.0	206.5	168.6	129.3	228.8	1779	2414	43.92	6.074	5.015	3.996	4.002	3.250	3.381	3.111	3.220	3.000	3.190	2.935	2.774	2.643	2.603	2.695	2.261	2.322	1.955	2.069	1.668	1.750	1.423	1.418	1.249	1.271	1.581	1.466	1.335	1.272	1.096	1.048	1.053	0.922	0.898	0.903	1.005	1.046	1.342	1.532	1.605	1.487	1.723	2.174	2.210	1.943	1.854	2.132	2.251	2.388	2.153	1.841	1.917	1.661	1.684	1.598	2.003	4.926
625.0	114.8	135.3	139.8	99.77	83.76	77.14	102.3	127.4	158.0	193.3	235.6	270.2	283.1	217.4	168.8	122.1	131.6	610.0	3153	358.9	7.085	5.262	4.042	3.815	3.055	2.922	2.866	2.858	2.656	2.764	2.327	2.549	2.380	2.282	2.314	1.971	1.931	1.811	1.659	1.574	1.413	1.286	1.322	1.262	1.195	1.337	1.320	1.356	1.236	1.150	1.099	0.931	0.985	0.910	0.939	0.934	0.952	1.281	1.405	1.588	1.494	1.530	1.955	2.264	1.737	1.855	2.022	2.085	2.100	2.420	1.963	1.710	1.556	1.589	1.380	1.571	2.004
630.0	118.6	156.7	154.4	111.9	82.15	84.17	107.2	125.2	155.0	192.3	232.8	258.3	268.9	234.4	173.4	121.1	109.2	191.3	1745	1863	35.62	5.192	4.046	3.331	3.078	2.559	2.434	2.614	2.362	2.360	2.245	2.173	1.994	2.200	1.974	1.806	1.649	1.511	1.343	1.415	1.282	1.185	1.145	1.008	1.121	1.193	1.259	1.213	1.099	1.050	0.939	0.893	0.830	0.829	0.882	0.906	0.883	1.055	1.194	1.396	1.473	1.358	1.812	1.954	1.666	1.676	1.791	1.849	1.896	2.074	1.903	1.748	1.615	1.491	1.273	1.287	1.334
635.0	115.2	171.6	171.4	123.6	84.83	93.03	106.8	126.8	154.2	186.1	233.5	259.7	263.1	244.5	182.1	122.8	104.2	90.65	447.8	2388	463.6	6.611	3.741	3.156	2.689	2.350	2.206	2.219	2.078	2.235	1.981	1.961	1.785	1.829	1.817	1.479	1.503	1.479	1.146	1.269	1.187	0.946	0.999	0.997	0.992	1.066	1.097	1.107	1.207	0.921	0.864	0.921	0.723	0.819	0.918	0.839	0.883	0.918	0.971	1.054	1.203	1.298	1.603	1.694	1.482	1.463	1.614	1.596	1.705	1.806	1.637	1.808	1.488	1.389	1.236	1.036	1.018
640.0	118.8	164.1	170.6	125.3	86.40	89.88	106.5	124.3	151.2	183.9	230.4	250.6	257.2	239.1	189.1	122.4	101.7	69.24	116.5	1461	1638	26.28	3.705	3.097	2.763	2.340	1.877	2.007	1.778	1.889	1.838	1.708	1.661	1.727	1.597	1.374	1.508	1.374	1.173	1.111	1.091	1.006	1.078	1.120	0.929	1.009	0.962	1.012	1.143	0.840	0.898	0.830	0.804	0.721	0.736	0.879	0.862	0.870	0.949	0.916	1.222	1.200	1.445	1.730	1.505	1.475	1.756	1.507	1.564	1.635	1.499	1.706	1.542	1.321	1.096	0.872	0.878
645.0	124.1	172.5	175.4	128.5	88.22	83.06	99.72	119.9	140.5	174.2	222.9	244.1	245.0	224.5	193.0	122.2	97.63	61.35	40.55	514.6	2319	221.3	4.243	3.281	2.385	2.166	2.063	2.051	1.810	1.937	1.641	1.707	1.439	1.673	1.464	1.381	1.431	1.302	1.166	1.155	0.970	0.843	0.960	0.851	0.827	1.047	1.018	1.049	1.126	0.911	0.772	0.801	0.796	0.685	0.744	0.659	0.842	0.928	0.864	0.872	1.057	1.201	1.389	1.477	1.270	1.298	1.392	1.568	1.500	1.469	1.585	1.405	1.436	1.264	1.036	0.919	0.828
650.0	136.8	185.6	184.1	122.7	84.81	76.65	94.92	111.6	130.2	161.9	203.8	227.7	225.5	202.7	183.4	118.5	91.75	54.26	22.59	135.5	1896	925.9	7.296	3.187	2.692	2.350	1.930	1.874	1.913	1.697	1.403	1.955	1.478	1.484	1.337	1.368	1.413	1.384	1.077	1.040	0.878	0.824	0.811	0.878	0.778	1.038	0.893	1.016	1.086	0.936	0.808	0.763	0.703	0.787	0.670	0.717	0.824	0.917	0.785	0.784	0.907	1.074	1.115	1.503	1.211	1.213	1.348	1.378	1.443	1.578	1.324	1.331	1.243	1.237	1.179	0.857	0.743
