Sample:	'1
File name:	c2025052608¿˚√Ò’¢.FD3
Run date:	'11:14:22, 05/27/2025
Operator:	Administrator
Comment:	'

Instrument
Model:	F-2700 FL Spectrophotometer
Serial number:	23B8-004
ROM Version:	4J14000 07

Instrument parameters
Measurement type:	3-D scan
Data mode:	Fluorescence
EX  Start WL:	220.0 nm
EX  End WL:	600.0 nm
EX Sampling interval:	5.0 nm
EM  Start WL:	230.0 nm
EM  End WL:	650.0 nm
EM Sampling interval:	5.0 nm
Scan speed:	12000 nm/min
EX Slit:	5.0 nm
EM Slit:	5.0 nm
PMT Voltage:	700 V
Response:	Auto 
Corrected spectra:	Off
Contour interval:	50.000

Peak integration
Integration method:	Rectangular
Sensitivity:	1
Threshold:	1.000

Peaks
No.	ApexEX/EM(nm)	Height(Data)
1	225.0/575.0	127.4
2	225.0/620.0	101.7
3	225.0/630.0	98.42
4	230.0/345.0	4586
5	235.0/405.0	2294
6	255.0/280.0	572.9
7	260.0/570.0	160.3
8	265.0/585.0	141.5
9	270.0/595.0	129.0
10	275.0/420.0	3088
11	275.0/430.0	3090
12	275.0/610.0	137.7
13	280.0/340.0	3040
14	280.0/625.0	137.0
15	330.0/415.0	1775
16	460.0/340.0	12.70
17	475.0/345.0	11.76
18	505.0/450.0	10.71
19	510.0/445.0	10.95
20	520.0/285.0	3.589
21	555.0/430.0	10.09
22	565.0/340.0	14.26
23	570.0/335.0	14.13
24	585.0/415.0	10.53

Data points
	220.0	225.0	230.0	235.0	240.0	245.0	250.0	255.0	260.0	265.0	270.0	275.0	280.0	285.0	290.0	295.0	300.0	305.0	310.0	315.0	320.0	325.0	330.0	335.0	340.0	345.0	350.0	355.0	360.0	365.0	370.0	375.0	380.0	385.0	390.0	395.0	400.0	405.0	410.0	415.0	420.0	425.0	430.0	435.0	440.0	445.0	450.0	455.0	460.0	465.0	470.0	475.0	480.0	485.0	490.0	495.0	500.0	505.0	510.0	515.0	520.0	525.0	530.0	535.0	540.0	545.0	550.0	555.0	560.0	565.0	570.0	575.0	580.0	585.0	590.0	595.0	600.0
230.0	77.57	1995	5096	1684	71.43	10.26	7.384	6.933	5.886	5.638	6.197	6.554	5.687	5.103	4.608	4.151	3.621	3.425	3.344	2.936	2.500	2.508	2.408	2.247	2.123	1.941	1.916	1.740	1.552	1.563	1.447	1.428	1.406	1.262	1.188	1.044	1.072	0.894	0.883	0.819	0.813	0.912	0.828	0.711	0.652	0.654	2.277	9.528	16.81	12.27	4.443	1.023	0.524	0.507	0.445	0.443	0.458	0.430	0.400	0.358	0.389	0.357	0.389	0.356	0.353	0.280	0.354	0.309	0.313	0.297	0.294	0.255	0.252	0.272	0.233	0.216	0.245
235.0	105.9	542.0	3360	5854	692.4	136.6	10.98	9.178	7.319	6.256	7.531	6.660	5.644	5.145	4.937	4.582	3.727	3.445	3.825	3.048	2.671	2.564	2.437	2.570	2.109	2.213	1.845	1.797	1.753	1.524	1.554	1.556	1.471	1.250	1.170	1.110	1.007	0.907	0.957	0.749	0.746	0.740	0.824	0.808	0.763	0.778	1.006	2.825	6.908	12.34	18.32	19.01	9.369	2.278	0.503	0.500	0.403	0.468	0.415	0.360	0.391	0.402	0.380	0.328	0.377	0.307	0.334	0.351	0.332	0.260	0.273	0.247	0.237	0.291	0.242	0.222	0.283
240.0	145.2	204.5	999.4	5113	5446	578.6	72.17	11.64	9.263	8.284	6.882	7.715	6.577	5.798	5.119	4.959	4.215	3.598	3.741	3.333	2.627	2.785	2.515	2.534	2.039	2.152	2.110	1.826	1.739	1.536	1.427	1.449	1.433	1.276	1.257	1.105	1.120	0.872	0.873	0.911	0.836	0.751	0.747	0.808	0.973	0.922	0.859	1.152	2.002	3.948	9.833	23.74	29.34	20.17	7.530	1.270	0.535	0.429	0.489	0.518	0.460	0.399	0.373	0.349	0.367	0.335	0.335	0.305	0.307	0.294	0.235	0.271	0.245	0.293	0.270	0.256	0.264
245.0	117.4	199.1	284.7	1742	7373	7700	457.3	31.74	11.34	8.934	9.084	8.603	8.299	5.690	6.403	5.562	4.261	4.008	4.048	3.534	2.846	2.796	2.348	2.185	2.039	2.284	2.244	1.953	1.800	1.686	1.531	1.577	1.336	1.164	1.149	1.086	1.025	1.021	0.891	0.869	0.797	0.814	0.748	0.749	0.757	0.898	1.059	0.956	1.095	1.335	2.662	8.108	21.97	37.57	29.26	18.73	5.737	0.698	0.564	0.547	0.505	0.355	0.363	0.383	0.352	0.354	0.294	0.368	0.322	0.303	0.323	0.267	0.323	0.264	0.253	0.238	0.319
250.0	63.07	140.9	235.1	475.8	2344	7298	9688	1676	124.9	14.90	12.97	10.23	8.671	7.312	6.470	6.093	4.766	4.384	4.348	3.434	2.991	3.018	2.574	2.752	2.295	2.248	2.232	2.022	2.082	1.860	1.612	1.408	1.395	1.288	1.252	1.177	1.060	1.038	0.975	0.944	0.860	0.789	0.687	0.769	0.713	0.726	0.959	1.001	1.282	1.110	1.207	2.357	5.627	12.03	20.94	35.36	39.88	40.58	15.38	6.206	0.820	0.447	0.422	0.422	0.415	0.358	0.305	0.359	0.357	0.336	0.280	0.287	0.371	0.336	0.330	0.267	0.296
255.0	49.54	58.26	149.9	326.4	614.2	1815	7052	9999.9	2448	163.1	20.31	14.52	12.36	8.626	8.075	6.687	5.553	4.477	4.360	3.758	3.363	2.990	2.771	2.801	2.841	2.557	2.490	2.233	2.112	1.899	1.887	1.519	1.586	1.290	1.164	1.229	1.120	1.108	1.043	1.009	0.916	0.842	0.832	0.929	0.790	0.782	0.782	0.733	0.842	1.152	1.315	1.579	1.893	3.132	5.117	8.648	15.39	40.37	74.06	76.62	23.30	6.714	0.712	0.478	0.435	0.458	0.390	0.424	0.408	0.372	0.300	0.298	0.333	0.317	0.339	0.230	0.309
260.0	45.87	47.07	72.73	244.4	349.9	482.2	2041	9917	9999.9	2017	106.3	21.14	14.92	10.59	9.194	7.572	6.436	5.204	4.854	4.213	3.416	3.138	3.024	2.757	2.750	2.849	2.240	2.258	2.206	2.121	1.980	1.884	1.655	1.258	1.112	1.239	1.176	1.140	0.997	0.975	0.969	0.900	0.869	0.771	0.734	0.693	0.756	0.696	0.603	0.825	0.981	1.627	1.828	1.702	1.732	2.433	4.021	10.87	31.03	71.59	95.24	32.54	19.30	3.787	0.603	0.510	0.444	0.557	0.458	0.374	0.407	0.324	0.313	0.306	0.276	0.324	0.317
265.0	54.95	44.13	48.63	120.7	330.3	307.7	531.3	3223	9999.9	9999.9	1555	53.36	21.18	13.73	11.40	9.215	7.319	6.157	5.626	4.376	3.896	3.396	3.420	2.945	3.012	2.906	2.363	2.372	2.319	2.403	1.955	1.966	1.660	1.587	1.283	1.380	1.122	1.039	0.964	1.065	0.898	0.868	0.913	0.784	0.737	0.818	0.772	0.838	0.631	0.677	0.746	1.096	1.680	1.974	1.711	1.237	1.455	3.026	7.639	20.58	51.84	90.57	116.1	30.96	14.13	1.481	0.571	0.547	0.422	0.400	0.427	0.405	0.402	0.367	0.310	0.407	0.377
270.0	86.06	70.56	59.98	70.98	178.4	362.5	371.8	813.5	3429	9999.9	9999.9	5809	99.10	23.68	16.31	12.45	9.653	7.100	6.463	5.025	4.454	3.986	3.577	3.607	3.071	3.130	2.826	2.549	2.414	2.413	2.154	2.236	1.902	1.650	1.535	1.459	1.279	1.081	1.147	1.030	0.995	1.060	1.079	0.995	0.913	0.949	0.808	0.790	0.776	0.734	0.754	0.811	1.018	1.440	1.702	2.145	1.910	1.851	2.452	5.229	12.59	25.85	54.97	84.08	112.4	93.28	64.11	10.71	1.742	0.654	0.537	0.454	0.485	0.440	0.460	0.424	0.415
275.0	200.0	197.1	138.6	94.96	116.6	216.7	470.5	473.2	859.0	2507	9999.9	9999.9	8607	118.6	25.76	19.31	13.57	10.42	8.756	6.840	5.467	4.266	3.961	3.931	3.533	3.595	3.015	2.609	2.657	2.623	2.465	2.302	2.287	1.833	1.898	1.688	1.402	1.309	1.315	1.169	1.139	1.268	1.322	1.130	1.227	1.310	1.177	1.156	0.951	0.974	0.851	0.738	0.858	0.992	1.144	1.442	2.062	3.142	2.769	2.244	3.476	6.505	13.08	20.03	31.97	69.01	152.4	177.7	32.19	16.20	1.541	0.633	0.649	0.579	0.491	0.516	0.452
280.0	356.6	366.2	255.6	151.8	131.9	169.6	332.5	572.9	421.4	693.6	2890	9999.9	9999.9	1224	81.20	26.84	17.38	13.17	10.73	7.743	6.257	5.340	4.418	4.523	4.069	4.017	3.358	2.895	2.867	2.600	2.440	2.568	2.370	2.061	2.065	2.023	1.884	1.647	1.427	1.438	1.246	1.368	1.483	1.281	1.668	1.577	1.543	1.508	1.185	1.255	0.979	0.921	1.011	0.966	1.050	1.181	1.500	2.261	3.129	3.197	2.385	2.455	3.721	5.504	8.238	17.44	49.84	118.0	186.5	196.2	29.28	10.67	1.063	0.751	0.733	0.591	0.531
285.0	523.0	545.9	381.4	232.6	161.4	172.9	232.5	485.5	586.8	384.3	870.4	3625	9999.9	9999.9	951.5	57.15	24.39	17.65	13.48	9.353	7.386	6.428	5.413	5.013	4.455	3.942	3.739	3.288	3.053	3.009	2.923	2.750	2.236	2.115	2.340	2.394	2.397	1.931	1.807	1.572	1.656	1.585	1.427	1.668	2.046	2.031	1.868	2.056	1.713	1.405	1.230	1.300	1.105	1.046	1.155	1.256	1.264	1.551	2.107	3.124	3.589	2.953	2.319	2.433	3.179	5.293	12.54	29.91	72.04	173.1	227.3	178.9	24.10	5.219	0.836	0.613	0.706
290.0	782.0	828.8	636.7	373.7	233.1	218.7	245.3	337.8	594.8	725.7	650.5	1213	3952	9999.9	9999.9	3812	67.82	28.40	19.78	13.00	9.495	8.194	6.795	6.115	5.263	4.604	4.242	3.816	3.406	3.360	2.941	2.699	2.792	2.543	2.906	2.908	2.689	2.359	2.190	1.932	1.893	2.009	1.853	2.097	2.356	2.512	2.740	2.645	2.380	1.969	1.613	1.668	1.450	1.453	1.417	1.432	1.498	1.656	1.663	2.162	2.716	3.702	4.166	3.717	3.195	3.422	4.880	8.775	18.40	43.67	82.26	141.4	177.0	134.8	127.1	16.86	6.482
295.0	950.1	1030	858.9	537.9	341.0	290.4	305.5	370.4	490.7	850.7	1138	957.4	1451	2726	9999.9	9999.9	5677	81.64	32.02	19.81	13.43	10.84	8.341	7.324	6.229	5.109	4.729	4.186	4.230	3.877	3.543	3.315	2.918	2.759	3.111	3.076	3.142	2.600	2.617	2.353	2.196	2.292	2.257	2.291	2.538	2.845	3.121	3.447	2.876	2.554	2.296	2.009	1.982	1.742	1.690	1.781	2.009	1.913	2.037	2.168	2.331	3.174	3.565	4.935	6.020	5.248	4.672	5.121	7.219	12.55	20.69	33.87	43.98	63.19	172.3	257.2	216.5
300.0	1068	1257	1039	663.1	428.9	363.0	393.2	457.7	580.0	860.4	1415	1357	1151	1189	2921	9999.9	9999.9	4389	67.49	28.87	17.81	13.43	10.35	9.450	7.276	6.611	5.892	4.947	4.473	3.968	3.606	3.692	3.296	3.076	3.353	3.220	3.168	3.155	3.025	2.674	2.581	2.556	2.483	2.662	2.840	3.405	3.582	3.934	3.540	3.058	2.541	2.495	2.189	2.196	2.134	2.036	2.094	2.339	2.436	2.643	2.941	3.164	3.698	4.622	5.998	6.988	6.997	5.844	5.784	6.940	7.968	10.83	12.90	16.76	47.10	118.7	256.2
305.0	1239	1427	1236	806.9	529.4	466.3	513.7	611.7	770.2	1046	1534	1916	1521	1124	1235	3566	9999.9	9999.9	609.4	48.86	24.46	17.21	12.55	10.78	8.489	7.655	6.554	5.602	4.849	4.705	4.139	3.901	3.702	3.355	3.385	3.527	3.459	3.486	3.055	3.097	2.898	2.846	3.023	2.922	3.013	3.626	3.905	4.264	3.911	3.553	2.949	2.905	2.556	2.384	2.629	2.342	2.729	2.900	3.128	3.498	3.612	4.131	4.691	5.433	6.211	7.052	8.983	8.717	7.967	7.202	7.016	6.696	6.963	7.055	13.50	29.51	76.89
310.0	1340	1582	1425	943.5	650.4	573.8	646.5	788.7	973.5	1302	1700	2057	2161	1516	1103	1304	3748	9999.9	9999.9	9999.9	53.47	28.03	18.17	14.40	10.41	8.937	7.624	6.168	5.612	5.502	4.507	4.314	4.031	3.802	3.427	3.560	3.814	3.614	3.253	3.023	3.112	3.042	3.171	3.127	3.439	4.095	4.177	4.922	4.617	4.138	3.393	3.334	2.926	2.765	2.980	2.957	3.165	3.564	3.810	4.383	4.457	5.001	5.664	6.481	7.180	7.709	8.906	9.386	10.29	10.26	9.172	7.799	6.565	6.313	6.808	9.814	19.91
315.0	1512	1826	1644	1118	780.5	687.7	769.5	935.4	1145	1533	1934	2180	2340	2086	1403	964.9	1273	2596	9999.9	9999.9	4120	63.31	28.24	20.91	13.75	11.53	9.383	7.446	6.531	5.690	4.846	4.866	4.707	3.677	3.762	3.963	3.960	3.524	3.435	3.402	3.380	3.302	3.482	3.617	3.874	4.750	4.830	5.357	5.378	4.587	3.708	3.996	3.790	3.226	3.378	3.497	3.652	4.432	4.344	4.973	5.248	5.647	6.666	7.138	7.765	8.577	9.596	9.866	10.51	11.58	11.27	10.81	8.751	7.585	6.620	6.066	7.877
320.0	1709	2122	1963	1319	922.6	777.8	855.8	1046	1256	1697	2105	2354	2476	2257	1826	1039	824.2	909.4	2748	9999.9	9999.9	3357	52.84	28.47	18.38	14.11	11.00	8.923	7.437	6.695	5.550	5.371	4.786	3.960	4.143	4.064	3.978	3.822	3.773	3.639	3.311	3.543	3.798	3.995	4.559	5.386	5.718	5.934	6.398	5.232	4.318	4.182	4.114	3.777	3.557	3.760	4.039	4.559	4.896	5.412	5.710	6.346	7.130	7.993	8.850	9.442	10.14	10.66	11.04	11.87	11.44	11.64	11.18	9.839	7.548	6.030	5.797
325.0	2095	2640	2616	1790	1181	900.2	956.8	1147	1375	1837	2279	2538	2655	2341	2085	1332	818.4	591.0	834.4	3366	9999.9	9999.9	469.6	45.72	23.76	18.07	13.16	9.820	8.387	7.467	6.054	6.083	4.866	4.230	4.196	4.152	4.276	3.953	3.721	3.971	3.709	3.683	4.056	4.318	5.262	6.332	6.785	7.686	7.904	6.976	5.851	5.632	5.166	4.246	4.253	4.209	4.485	4.878	5.360	5.847	6.328	6.963	7.571	8.520	9.385	10.19	10.30	11.63	11.99	12.45	12.06	11.80	11.61	11.29	9.558	7.680	6.353
330.0	2454	3405	3601	2669	1691	1165	1102	1267	1523	2004	2462	2735	2881	2527	2158	1659	1063	642.5	500.4	978.5	3623	9999.9	9999.9	9614	47.55	26.41	18.28	12.95	10.08	9.410	7.468	6.515	5.691	4.663	4.507	4.452	4.217	3.989	4.059	4.085	3.975	4.083	4.523	5.055	5.890	7.500	8.107	9.896	10.20	9.294	8.188	8.103	6.807	5.570	5.150	4.693	5.061	5.547	5.840	6.738	6.633	7.622	8.148	9.216	10.21	10.77	11.84	12.30	13.11	13.55	12.96	12.70	12.13	11.67	10.66	9.386	8.545
335.0	2767	3889	4234	3394	2264	1506	1275	1383	1627	2104	2581	2880	3030	2701	2291	1751	1396	892.5	556.4	548.1	1053	2542	9999.9	9999.9	3400	54.22	26.07	18.20	13.89	11.22	9.063	7.954	6.506	5.833	4.959	4.761	4.377	4.424	4.288	4.496	4.137	4.314	4.950	5.520	6.396	8.361	8.955	11.40	11.69	11.02	9.990	10.68	9.230	7.323	6.394	5.606	6.048	6.072	6.392	6.733	7.194	8.347	8.351	9.629	10.53	11.12	12.05	12.68	13.53	13.89	14.13	13.73	12.67	12.60	10.69	9.683	9.782
340.0	2879	4100	4528	3752	2537	1667	1383	1455	1691	2133	2598	2887	3040	2753	2358	1800	1422	1113	679.5	511.1	529.9	796.0	2818	9999.9	9999.9	2879	46.34	22.35	17.07	12.61	10.21	8.588	7.211	6.078	5.531	4.902	4.860	4.608	4.603	4.586	4.514	4.541	5.015	5.768	6.540	8.965	9.806	11.89	12.70	11.93	10.68	11.60	10.10	8.358	7.074	6.125	6.337	6.345	6.717	7.212	7.595	8.154	8.825	9.748	10.76	11.48	12.09	13.18	13.37	14.26	13.56	14.03	12.94	12.60	11.17	9.491	9.252
345.0	2886	4147	4586	3880	2678	1782	1416	1492	1708	2132	2545	2826	2980	2741	2355	1816	1391	1160	855.6	568.7	461.2	447.5	839.2	3728	9999.9	9999.9	408.8	36.16	20.85	15.68	11.74	9.561	8.056	6.457	5.952	5.166	5.068	4.542	4.374	4.422	4.223	4.705	5.062	5.618	6.901	8.630	9.410	12.02	12.64	12.53	10.71	11.76	9.991	8.403	7.410	6.240	6.380	6.347	6.977	7.193	7.488	8.609	8.928	9.409	10.85	11.49	11.93	12.43	13.37	13.67	13.49	13.83	12.99	12.44	11.57	9.865	9.373
350.0	2732	3896	4377	3827	2719	1851	1500	1519	1705	2071	2437	2676	2812	2619	2296	1826	1424	1143	984.1	757.2	545.4	447.7	459.5	1033	4029	9999.9	9999.9	7778	41.65	22.98	15.45	11.79	9.166	7.058	6.379	5.292	5.161	4.822	4.513	4.253	4.456	4.593	5.000	5.680	6.593	8.165	9.151	11.49	12.05	11.69	10.64	11.62	10.39	8.582	7.841	6.508	6.731	6.341	6.874	7.358	7.467	8.202	8.841	9.402	10.33	11.09	11.45	11.91	12.48	13.12	12.94	12.98	12.55	12.01	10.97	10.00	9.663
355.0	2541	3582	4066	3597	2694	1881	1586	1573	1693	1989	2298	2494	2623	2478	2214	1814	1473	1181	1008	932.2	736.3	548.8	451.3	492.5	1077	2529	9999.9	9999.9	3121	48.43	22.23	15.98	11.80	8.599	7.105	5.933	5.444	5.246	4.509	4.559	4.262	4.627	4.746	5.235	6.398	7.452	8.439	10.36	11.17	10.79	9.832	10.56	10.19	8.952	8.063	6.848	6.644	6.971	7.137	7.558	7.889	7.720	8.625	9.374	9.815	10.40	10.58	11.27	11.69	12.48	12.70	12.20	12.00	11.27	11.08	10.34	9.576
360.0	2319	3374	3751	3397	2633	1912	1600	1583	1681	1961	2213	2362	2498	2360	2128	1785	1494	1238	1055	964.1	888.3	671.2	513.3	425.7	467.0	726.7	2945	9999.9	9999.9	2607	40.93	22.10	14.99	10.02	8.439	6.629	5.975	5.474	5.000	4.922	4.466	4.917	4.878	5.214	5.954	7.091	8.116	9.707	10.18	10.35	9.238	10.53	10.11	8.724	8.037	7.273	7.143	6.808	6.939	7.599	7.662	8.081	8.401	9.142	9.553	9.941	10.28	10.78	11.04	11.72	11.16	11.88	11.55	11.09	10.81	10.27	9.539
365.0	2179	3041	3448	3235	2541	1914	1637	1591	1691	1943	2137	2254	2366	2244	2059	1754	1512	1289	1116	998.4	958.3	828.8	611.3	476.6	388.9	367.2	805.7	3969	9999.9	9999.9	374.2	34.36	19.21	12.49	9.532	7.454	6.652	5.762	5.252	5.091	4.413	4.780	5.031	5.177	5.680	7.056	7.569	9.354	9.683	9.433	9.023	10.18	9.372	8.798	7.832	6.968	7.063	7.306	7.127	7.494	7.237	7.793	8.224	8.825	9.383	9.698	9.884	9.857	10.81	10.84	10.88	11.25	11.15	10.91	10.46	9.896	9.500
370.0	2010	2750	3147	2967	2461	1938	1674	1643	1707	1897	2044	2148	2219	2119	1965	1725	1529	1348	1212	1104	1009	957.6	810.7	603.7	464.6	369.5	385.6	1041	4367	9999.9	9999.9	7458	37.64	18.72	13.08	9.559	7.865	6.553	5.967	5.251	4.811	4.813	5.103	5.083	5.676	6.640	6.964	8.493	8.973	8.878	8.157	9.742	9.405	8.434	7.858	7.150	7.374	7.385	7.529	7.615	7.745	8.105	8.245	8.690	9.092	9.483	9.445	9.432	10.16	10.33	10.32	10.54	10.27	10.55	9.890	9.522	9.572
375.0	1810	2535	2841	2771	2361	1948	1717	1650	1722	1856	1962	2042	2073	2001	1867	1687	1533	1396	1297	1205	1104	1018	961.6	797.5	594.4	461.3	367.7	441.8	1125	2593	9999.9	9999.9	2714	40.81	19.73	12.67	9.570	8.026	6.924	5.317	5.338	5.050	5.250	4.885	5.624	6.063	6.565	7.977	8.077	8.287	7.660	8.959	8.672	8.196	8.223	7.200	7.801	7.570	7.629	7.692	7.974	7.949	7.993	8.710	8.748	8.892	9.035	9.022	9.627	9.722	9.544	9.983	10.28	9.717	9.356	9.260	9.504
380.0	1755	2336	2639	2588	2263	1956	1737	1666	1726	1835	1920	1960	2013	1916	1821	1653	1537	1418	1331	1266	1164	1083	1004	933.9	719.3	546.3	425.9	361.6	446.3	727.4	3101	9999.9	9999.9	2164	35.05	17.71	12.43	9.244	7.348	6.190	5.934	5.350	5.343	5.156	5.423	6.039	6.300	7.388	7.633	7.714	7.472	8.360	8.569	8.068	7.772	7.447	7.596	7.817	7.408	7.642	7.893	7.506	8.060	8.313	8.694	8.617	8.686	8.593	9.051	9.198	9.324	9.813	9.401	9.719	8.905	9.444	9.150
385.0	1688	2224	2504	2455	2237	1948	1746	1693	1741	1814	1903	1923	1974	1871	1782	1639	1529	1437	1366	1307	1227	1142	1048	985.5	854.6	647.8	499.0	401.0	345.4	345.3	831.2	4150	9999.9	9999.9	307.7	27.48	15.88	11.28	8.722	6.957	6.293	5.722	5.494	5.177	5.660	5.887	6.235	7.149	7.324	7.256	7.113	8.109	8.460	8.075	8.051	7.478	7.412	7.367	7.547	8.094	7.766	7.473	8.081	8.275	8.220	8.233	8.441	8.611	8.599	9.182	9.080	9.495	9.049	9.709	9.511	9.498	9.319
390.0	1672	2120	2366	2369	2187	1973	1798	1753	1786	1857	1930	1951	1977	1895	1792	1654	1544	1471	1412	1370	1308	1240	1160	1066	985.3	842.3	655.1	519.0	420.1	345.2	381.1	1074	4321	9999.9	9999.9	5920	30.43	15.82	11.54	8.651	7.117	6.179	5.804	5.400	5.578	6.045	6.042	7.078	7.249	6.988	6.923	8.017	8.281	7.993	7.959	7.512	7.852	7.713	7.876	7.927	7.462	7.802	7.961	8.203	8.129	8.467	8.439	8.418	8.567	8.946	9.070	9.137	8.894	9.565	9.163	9.431	9.640
395.0	1618	1992	2254	2284	2193	2028	1880	1865	1900	2007	2078	2117	2124	2050	1907	1737	1600	1519	1475	1460	1416	1370	1307	1226	1114	1025	878.5	692.5	565.9	447.4	366.3	440.7	1100	2541	9999.9	9999.9	2262	34.59	17.01	11.34	9.033	7.375	6.913	5.991	5.774	6.238	6.211	7.270	7.075	6.541	6.737	7.851	8.197	7.846	8.229	8.051	8.239	7.963	8.432	8.012	7.771	8.260	7.868	8.297	8.743	8.463	8.446	8.766	9.270	9.161	9.473	9.163	9.507	9.504	9.517	9.690	9.403
400.0	1606	1998	2215	2290	2214	2071	1978	1963	2038	2169	2289	2362	2352	2250	2073	1836	1668	1581	1546	1537	1520	1492	1439	1371	1259	1154	1053	864.4	698.3	563.9	436.9	356.1	425.5	695.5	2936	9999.9	9999.9	1889	30.20	14.91	10.45	8.667	7.288	6.232	6.279	6.178	5.942	7.178	7.033	6.742	6.598	7.894	8.294	8.126	8.203	7.906	8.354	8.220	8.144	8.277	8.114	8.350	8.239	8.646	8.798	8.958	8.574	8.901	8.961	9.406	9.357	9.748	10.12	9.401	9.240	9.336	9.969
405.0	1564	1960	2153	2294	2235	2133	2068	2091	2187	2371	2556	2634	2630	2489	2271	1980	1750	1645	1602	1616	1620	1611	1588	1519	1416	1285	1166	1037	839.7	674.1	525.7	397.7	319.9	316.9	775.3	3672	9999.9	9999.9	280.0	23.59	12.69	9.980	8.042	6.822	6.837	6.644	5.959	7.018	7.018	6.597	6.563	7.952	8.401	8.178	8.599	8.030	8.607	8.719	8.754	8.888	8.427	8.443	8.705	9.101	9.099	9.150	9.119	9.627	9.647	9.526	9.463	9.903	10.18	9.708	9.728	9.413	9.949
410.0	1539	1908	2129	2248	2247	2207	2170	2227	2374	2590	2836	2928	2935	2751	2463	2115	1833	1699	1668	1691	1711	1726	1722	1674	1572	1440	1300	1174	1015	821.4	639.6	484.8	359.1	280.1	322.1	929.6	3598	9999.9	9999.9	5159	26.26	13.88	9.952	7.767	7.326	6.821	6.465	6.975	7.057	6.801	6.653	7.702	8.405	8.339	8.425	8.357	9.260	9.149	9.004	9.012	8.931	9.231	9.144	9.315	9.808	9.637	9.775	9.922	10.13	10.44	10.13	10.26	10.24	10.21	9.875	9.653	9.618
415.0	1530	1864	2082	2182	2220	2220	2235	2306	2478	2724	2981	3083	3055	2877	2561	2162	1854	1705	1671	1706	1733	1767	1775	1739	1651	1529	1388	1239	1114	949.3	737.0	559.9	418.9	311.8	251.6	331.9	885.3	2437	9993	9999.9	2077	31.76	13.60	9.603	8.278	7.639	6.897	7.298	7.190	6.701	6.676	7.895	8.359	8.408	8.438	8.714	9.100	9.333	9.368	9.153	9.377	9.447	9.605	9.714	10.18	9.861	9.495	9.809	10.17	9.865	10.43	10.34	10.43	10.53	9.455	9.488	9.214
420.0	1467	1820	2025	2120	2198	2235	2273	2341	2478	2732	2976	3088	3062	2866	2547	2129	1817	1675	1649	1675	1710	1755	1767	1741	1668	1548	1407	1263	1130	1005	797.7	602.9	451.3	337.2	252.1	213.7	290.2	606.7	2666	9999.9	9999.9	1790	26.49	12.37	9.510	8.183	7.456	7.322	7.173	6.995	6.540	7.711	8.343	8.613	8.681	8.447	9.342	9.518	9.232	9.379	9.085	9.467	9.412	10.02	9.806	9.859	9.953	10.01	9.740	9.841	10.00	10.14	10.26	10.25	9.533	9.354	9.608
425.0	1488	1798	1973	2073	2177	2221	2287	2379	2524	2718	2968	3074	3048	2868	2527	2104	1782	1641	1611	1638	1676	1718	1741	1726	1659	1551	1415	1273	1137	1007	852.7	644.4	480.0	362.9	269.5	198.8	168.2	203.9	644.6	3126	9999.9	9999.9	271.4	20.45	11.28	9.360	8.462	7.631	7.595	6.823	6.838	8.106	8.050	8.433	8.751	8.558	9.261	9.427	9.539	9.315	9.398	9.556	9.312	9.662	9.510	10.05	9.363	9.990	10.00	9.805	10.31	9.679	9.763	10.37	9.584	9.160	9.429
430.0	1526	1725	1909	2019	2168	2253	2329	2427	2550	2723	2967	3090	3022	2840	2501	2072	1741	1598	1570	1586	1628	1671	1704	1704	1627	1538	1414	1280	1148	1012	872.3	707.1	528.9	400.2	299.2	219.4	159.5	127.4	201.4	742.4	3041	9999.9	9999.9	4862	24.73	12.37	9.862	8.619	7.785	7.121	6.766	8.139	8.423	8.408	8.866	8.546	9.541	9.576	9.766	9.559	9.700	9.286	9.096	9.757	9.491	9.588	9.592	10.09	9.698	9.706	9.719	10.04	9.724	9.954	9.410	8.912	9.089
435.0	2048	1684	1878	2004	2131	2297	2391	2481	2561	2740	2922	3044	2960	2778	2458	2030	1705	1558	1523	1545	1574	1625	1649	1647	1591	1516	1396	1273	1153	1023	869.3	730.1	587.1	441.0	328.1	247.2	177.0	126.6	115.5	216.2	715.7	2329	7411	9999.9	2016	31.16	13.14	10.52	8.990	7.790	7.150	8.027	8.821	8.796	9.122	8.750	9.882	9.847	10.43	9.685	9.750	9.618	9.359	9.430	9.849	9.445	9.505	9.672	9.605	9.412	9.658	9.608	9.617	9.475	9.230	8.777	8.452
440.0	2808	1813	1808	1977	2121	2322	2420	2523	2577	2698	2852	2973	2895	2693	2377	1975	1651	1517	1474	1492	1510	1553	1576	1588	1538	1463	1361	1245	1136	1015	868.0	728.6	602.4	471.6	351.8	266.2	191.0	137.7	104.3	106.6	201.9	553.1	1900	9709	9999.9	1843	25.66	12.95	10.26	8.825	7.761	8.307	8.960	8.903	9.089	9.223	10.17	10.40	10.68	10.26	9.851	9.977	9.348	9.567	9.400	9.482	9.106	8.844	9.307	9.360	9.191	9.585	9.278	9.309	8.919	8.792	8.390
445.0	2828	2231	1772	1927	2089	2283	2428	2494	2538	2606	2747	2842	2752	2573	2267	1886	1590	1453	1422	1418	1431	1472	1498	1502	1465	1394	1306	1199	1105	994.3	854.7	717.9	598.3	491.5	370.5	278.2	204.2	148.3	109.7	89.16	93.31	160.9	455.8	2684	9999.9	9999.9	1391	23.03	11.68	9.869	8.300	8.622	9.130	8.762	9.026	9.439	10.02	10.30	10.95	10.62	9.820	9.600	9.271	9.394	9.131	9.363	8.892	8.462	8.918	9.258	8.713	9.099	8.711	8.818	8.534	8.287	7.831
450.0	2086	3503	2092	1841	2024	2221	2385	2436	2431	2441	2522	2604	2513	2349	2071	1731	1471	1340	1313	1308	1307	1325	1356	1364	1334	1276	1196	1116	1033	942.3	822.0	689.1	573.5	480.7	390.4	295.0	217.7	161.9	120.7	93.57	76.80	79.23	135.9	628.2	2761	9162	9999.9	5573	92.99	12.97	9.515	9.454	9.467	9.179	9.432	9.367	10.16	10.71	10.65	10.31	9.541	9.496	8.966	8.659	9.010	8.541	8.342	8.264	8.445	8.404	8.374	8.511	8.402	8.199	8.159	7.807	7.588
455.0	1342	3444	3387	1772	1900	2115	2267	2309	2260	2252	2275	2326	2258	2095	1859	1547	1330	1223	1191	1174	1164	1175	1201	1211	1188	1144	1079	1011	947.3	866.1	770.7	656.5	543.5	454.8	380.5	310.9	228.7	170.1	128.6	101.4	79.65	66.70	68.11	170.7	640.4	2095	5761	9999.9	7444	25.90	12.61	10.61	10.01	9.325	9.680	9.031	10.12	10.61	9.937	9.867	8.904	8.664	8.399	7.637	8.338	7.987	7.876	7.862	7.946	7.755	7.785	7.646	7.626	7.919	7.355	7.519	7.108
460.0	1134	2546	4751	2089	1765	2019	2153	2195	2117	2072	2104	2131	2055	1914	1693	1436	1229	1127	1093	1079	1057	1066	1087	1098	1078	1036	987.0	931.2	871.9	810.0	724.8	621.1	518.8	435.4	362.2	307.9	238.0	176.3	134.0	105.2	82.65	66.95	56.23	71.04	169.6	490.5	1400	7193	9999.9	1495	22.96	12.95	10.88	9.981	9.557	9.540	10.15	10.38	9.935	9.605	8.810	8.745	8.116	7.865	7.569	7.677	7.564	7.165	7.367	7.147	7.207	7.333	7.160	7.123	7.006	6.528	6.528
465.0	1026	1610	4816	3244	1687	1906	2028	2061	1993	1907	1936	1949	1892	1740	1553	1319	1130	1036	1005	989.8	963.7	964.7	986.5	995.1	983.0	946.5	903.0	850.5	805.6	753.4	674.5	584.8	496.6	418.3	342.8	290.8	241.2	182.3	138.7	111.0	86.49	70.28	56.11	50.90	65.74	133.4	335.7	1841	9415	9999.9	1302	24.02	13.26	10.87	9.972	9.768	9.779	9.909	9.653	9.184	8.325	8.375	7.645	7.135	7.358	7.278	7.330	6.783	6.678	6.577	6.936	6.775	6.563	6.556	6.148	6.412	6.462
470.0	894.9	1157	3030	5080	2277	1709	1843	1874	1791	1701	1707	1711	1646	1520	1346	1155	994.0	911.1	884.5	866.1	835.9	832.4	854.6	859.4	850.1	821.1	790.2	749.5	711.2	672.6	603.0	530.5	452.9	383.4	320.6	266.2	225.8	188.1	143.7	112.1	89.28	72.00	59.05	48.62	45.81	56.00	97.68	431.7	2382	7254	9999.9	5930	113.3	14.00	10.89	9.708	9.928	9.690	9.387	8.601	7.982	7.717	7.360	6.811	6.795	6.541	6.367	6.032	6.179	6.073	6.169	5.893	5.782	6.015	5.844	5.819	5.632
475.0	823.1	957.0	1512	4527	4518	1612	1650	1655	1569	1493	1482	1469	1407	1310	1158	992.3	853.2	793.2	763.0	744.0	714.9	711.0	723.5	728.1	723.3	702.1	676.6	645.3	617.4	582.7	531.0	472.0	406.5	346.2	294.1	245.4	205.0	174.5	148.6	115.6	90.20	72.46	59.34	48.61	42.60	39.63	44.52	116.1	546.7	1640	3751	9999.9	7530	165.3	13.01	9.958	9.983	9.238	9.050	7.839	7.433	6.998	6.763	6.205	5.768	5.848	5.549	5.476	5.533	5.346	5.356	5.165	5.233	5.064	5.215	5.015	5.001
480.0	733.0	881.2	1062	2833	6257	2099	1491	1506	1422	1331	1314	1322	1254	1169	1026	885.7	768.6	714.9	685.5	662.9	636.6	631.3	640.8	643.2	640.9	620.0	602.7	576.7	557.2	523.7	484.4	429.9	378.9	323.4	275.4	232.8	194.2	162.1	146.5	119.6	92.38	74.36	61.30	50.41	42.48	37.47	33.24	46.27	138.6	381.1	875.4	4357	9999.9	6172	29.18	11.76	10.35	9.429	9.030	7.709	7.197	6.927	6.446	5.631	5.428	5.492	5.204	5.219	5.052	4.979	5.155	5.150	5.003	4.568	4.600	4.396	4.569
485.0	661.1	863.2	912.2	1569	6204	3626	1420	1400	1317	1206	1200	1194	1134	1047	931.9	801.6	699.8	651.2	622.9	602.5	575.1	569.6	574.5	582.6	573.5	560.3	544.7	526.8	507.0	480.4	446.8	399.4	348.9	304.0	259.2	221.1	184.5	153.2	135.2	121.3	96.09	75.24	62.55	51.63	43.59	37.45	31.80	31.56	49.66	100.7	210.2	1047	6258	9999.9	1656	25.02	11.66	9.618	9.418	7.782	6.936	6.688	5.535	5.319	5.166	5.123	5.025	4.945	4.795	4.573	4.717	4.633	4.590	4.409	4.138	4.384	4.296
490.0	571.1	793.3	817.1	1012	3473	5858	2042	1245	1169	1081	1062	1050	1004	914.3	820.2	700.9	617.6	571.6	548.2	528.3	503.3	495.7	500.7	504.9	500.4	491.1	478.1	464.1	447.6	427.9	399.3	359.0	315.8	276.2	237.4	204.6	174.3	146.3	126.2	112.7	98.76	79.65	63.69	54.05	45.26	39.35	33.33	29.77	30.03	38.76	61.14	246.9	1504	5133	9673	5948	129.3	13.99	9.740	7.941	6.986	6.233	5.535	5.356	5.119	4.745	4.673	4.605	4.303	4.318	4.275	4.075	4.194	4.036	3.625	3.856	3.913
495.0	496.4	663.6	763.6	820.3	1514	5077	3965	1195	1021	942.2	917.2	909.3	864.7	796.1	705.4	610.4	530.2	491.2	475.1	456.3	434.0	425.7	432.7	431.9	429.9	420.7	410.7	402.8	389.2	372.4	350.8	317.2	280.4	248.1	214.5	185.8	159.7	136.5	117.4	101.9	93.46	82.27	66.01	53.54	47.02	41.00	34.09	29.92	26.91	25.24	27.92	68.31	346.8	1158	3126	9999.9	8641	207.4	12.92	8.330	6.975	6.172	5.601	5.036	4.535	4.485	4.173	4.220	3.858	3.914	3.975	3.688	3.768	3.660	3.497	3.308	3.283
500.0	460.3	579.8	702.9	727.5	941.2	3020	6159	1681	907.1	836.3	820.7	816.3	768.0	700.4	628.3	540.8	472.4	440.4	421.2	406.2	387.8	375.2	381.6	382.7	377.8	374.0	366.3	354.9	346.5	334.9	314.7	286.4	254.4	225.1	199.5	171.9	149.8	128.2	110.8	96.50	86.72	79.99	69.50	55.28	46.90	40.84	34.70	30.76	25.72	22.85	21.18	28.59	89.42	269.9	719.5	3797	9999.9	6641	32.50	10.41	7.079	6.443	5.750	4.832	4.578	4.269	3.938	3.892	3.533	3.786	3.585	3.449	3.551	3.164	3.126	3.087	3.238
505.0	395.9	527.6	650.0	676.5	750.4	1491	6120	3074	835.4	760.3	734.1	723.7	682.0	629.8	557.7	481.5	426.5	395.6	375.5	360.8	339.6	331.1	338.4	338.9	337.6	331.8	324.1	315.4	310.3	299.7	284.7	259.0	231.3	204.2	181.6	159.3	139.1	121.1	104.5	92.18	80.04	73.71	68.27	57.24	47.25	41.11	34.12	30.81	25.48	22.71	19.65	19.62	31.67	70.96	172.1	891.2	5169	9999.9	1882	27.23	8.429	6.775	5.808	4.899	4.301	3.932	3.848	3.617	3.562	3.455	3.235	3.215	3.087	2.985	2.892	2.860	2.894
510.0	349.2	437.4	541.9	616.5	636.6	842.3	3334	5812	1448	659.7	633.7	623.6	589.7	540.9	477.7	409.2	365.7	335.6	321.0	305.9	289.9	284.5	286.2	287.1	284.5	283.9	275.6	271.1	267.2	259.4	244.7	224.0	201.9	179.4	160.4	140.4	123.8	107.9	94.43	83.94	73.16	65.85	61.50	56.94	47.26	39.75	33.84	30.41	25.49	22.72	19.54	17.46	18.52	26.69	48.55	208.8	1219	4577	8911	5118	130.0	10.67	6.181	5.077	4.333	3.887	3.631	3.386	3.263	3.181	3.122	2.926	2.758	2.814	2.600	2.546	2.612
515.0	294.5	354.9	436.1	544.4	557.7	610.5	1266	5307	3966	655.5	545.6	528.0	497.9	455.6	403.7	344.0	308.0	282.1	270.1	261.6	243.9	237.2	239.6	240.6	240.0	239.8	231.6	227.5	225.9	217.9	206.5	191.7	174.5	154.9	139.9	121.5	109.3	95.98	84.54	74.90	66.62	59.64	54.39	52.59	48.70	39.81	33.12	29.14	24.90	21.96	18.92	17.48	15.57	16.80	20.70	55.65	280.7	1030	2691	8277	6587	201.7	8.663	5.790	4.660	3.777	3.512	3.312	2.968	2.775	2.780	2.631	2.457	2.508	2.319	2.201	2.233
520.0	264.8	298.8	377.7	459.3	507.8	516.8	694.0	2973	6380	1144	476.9	470.0	436.5	403.4	348.5	299.8	269.4	247.8	239.6	229.2	213.7	206.4	208.2	209.6	207.2	206.9	201.6	199.5	198.1	192.8	184.1	170.0	154.1	139.2	125.1	111.3	97.39	87.29	77.32	69.92	61.63	53.91	49.53	46.86	46.60	40.61	32.79	28.26	24.11	21.71	18.63	17.12	14.99	14.23	14.01	21.12	71.10	238.0	615.8	3040	9252	5029	31.80	7.124	4.882	3.771	3.376	3.171	2.922	2.766	2.284	2.460	2.398	2.287	2.234	2.156	2.102
525.0	239.4	283.0	327.2	386.7	469.0	467.7	522.6	1283	6574	2360	442.7	422.9	386.9	352.0	311.7	266.4	238.8	220.2	211.0	200.0	191.3	184.6	184.1	186.0	182.8	181.6	175.8	174.3	174.5	169.5	165.4	153.3	136.5	125.0	113.5	99.42	87.99	78.75	71.40	63.13	56.74	49.24	46.00	42.76	42.65	40.49	32.92	27.53	23.91	20.76	18.29	16.13	14.69	13.22	12.19	13.12	23.96	60.79	145.5	708.3	4081	9249	1864	25.63	5.920	4.134	3.494	3.067	2.932	2.596	2.338	2.293	2.263	2.204	2.027	1.861	2.025
530.0	206.0	243.6	281.3	324.3	400.8	427.3	422.2	600.0	3464	6221	1054	362.5	330.5	300.2	266.7	228.1	201.3	188.4	179.7	169.5	160.8	155.4	156.3	156.1	155.6	154.1	150.9	148.2	147.7	145.0	138.5	130.2	117.8	107.8	97.74	86.86	77.83	69.87	63.22	56.93	50.51	45.61	41.78	38.29	36.00	35.27	33.58	26.71	22.36	20.00	17.36	15.42	13.48	12.33	11.61	10.61	12.86	20.43	39.16	164.3	952.7	3699	6418	4143	130.0	7.601	4.045	3.272	2.909	2.551	2.310	2.198	2.086	1.956	1.819	1.637	1.899
535.0	189.8	214.9	234.3	261.3	315.6	377.1	363.8	390.1	1098	5935	4063	360.7	281.0	253.3	221.5	191.0	171.2	156.9	150.6	143.1	134.5	129.6	129.0	129.5	127.6	127.2	125.2	123.9	122.4	121.1	115.6	110.0	99.57	90.67	83.40	74.71	67.96	61.33	54.49	49.46	44.92	41.02	37.00	33.42	31.35	29.56	29.74	26.96	21.53	18.59	15.89	13.93	12.68	11.51	10.89	9.583	9.808	10.70	14.47	41.89	217.5	830.1	1884	6364	5328	193.2	6.089	3.886	3.097	2.545	2.308	2.203	1.831	1.720	1.701	1.550	1.510
540.0	155.6	203.6	213.2	227.4	264.7	340.7	327.9	309.1	460.5	3168	7126	747.8	245.7	222.0	195.1	164.0	149.2	135.1	129.1	122.0	115.8	111.7	110.0	111.5	111.0	111.1	108.8	106.3	107.2	104.9	101.2	97.03	87.21	78.78	72.37	66.14	59.99	53.20	48.75	44.96	39.51	37.35	32.91	30.40	28.35	26.81	25.43	24.82	21.55	17.51	15.01	13.05	12.13	10.75	9.855	9.465	8.907	8.114	8.614	14.22	53.02	190.0	429.2	2288	7381	2051	30.87	4.981	3.407	2.518	2.206	1.965	1.786	1.600	1.757	1.369	1.508
545.0	157.0	169.1	190.1	210.3	215.4	278.7	315.8	264.9	296.4	1180	7598	1764	225.1	191.9	168.3	146.7	127.7	118.7	113.0	105.5	99.76	96.63	96.12	96.04	96.02	95.98	93.06	92.93	92.53	89.89	88.45	82.28	75.58	69.22	64.17	57.60	52.24	47.93	43.71	39.71	35.61	32.66	29.96	28.10	25.39	24.31	22.15	22.57	20.92	17.48	14.26	12.34	10.75	9.799	9.451	8.817	8.215	6.960	7.017	7.607	16.32	46.55	100.8	531.0	3210	6238	1742	23.75	4.183	2.843	2.343	2.002	1.825	1.565	1.420	1.405	1.493
550.0	127.9	150.6	168.8	166.0	181.4	214.5	275.6	238.3	224.5	428.0	3774	6194	675.7	162.2	139.1	122.3	107.7	97.31	91.90	86.96	82.20	80.73	79.07	78.45	78.37	78.50	75.93	75.81	75.29	74.48	72.59	67.75	61.97	57.68	52.95	48.11	43.59	39.88	36.81	33.33	29.87	28.05	25.58	23.91	21.82	20.79	18.93	18.41	18.19	16.68	13.42	11.20	9.708	8.956	8.262	7.820	7.292	6.744	6.028	5.643	7.401	13.94	26.24	122.3	746.7	2494	4510	2925	128.0	5.454	2.586	2.101	1.870	1.740	1.444	1.247	1.296
555.0	127.8	143.0	143.8	138.7	142.1	167.3	216.8	223.2	176.5	222.6	1054	6330	3420	158.6	112.4	96.93	87.20	79.54	72.78	69.22	67.11	63.76	63.58	61.32	64.43	62.53	62.13	60.20	60.06	59.10	58.40	53.70	50.30	46.23	42.64	38.70	35.03	32.45	30.57	27.19	25.46	23.21	21.32	20.04	18.54	17.05	16.35	15.02	14.38	14.64	12.68	10.35	8.496	7.869	6.665	6.785	6.167	6.223	5.614	4.717	4.941	6.152	8.920	30.32	169.6	559.2	1292	4173	2140	34.68	4.203	2.382	1.823	1.750	1.430	1.335	1.261
560.0	134.1	134.9	133.1	119.5	127.6	140.7	163.8	213.1	151.9	159.2	350.1	3317	6788	395.4	95.15	84.17	72.08	67.05	62.08	58.48	56.36	53.82	52.94	51.69	53.26	52.01	51.18	49.45	50.33	48.81	49.06	45.78	42.10	38.47	36.09	32.45	30.13	28.20	25.42	23.42	22.07	19.37	18.61	17.32	15.93	15.19	13.95	13.03	11.65	12.16	11.69	9.608	7.738	7.091	6.048	5.780	5.579	5.357	5.068	4.592	4.025	4.055	4.555	9.379	40.66	127.5	294.2	1478	4492	1913	28.84	2.878	2.093	1.844	1.411	1.290	1.020
565.0	118.3	125.9	125.9	113.2	109.9	116.0	132.3	188.3	152.5	132.6	183.4	1133	7805	1196	85.50	72.07	62.93	58.28	53.52	49.73	47.94	45.26	44.69	44.20	44.48	43.52	41.43	42.69	43.24	41.23	41.01	38.47	35.74	32.89	30.44	27.91	25.95	23.76	21.71	20.00	18.69	17.19	16.33	14.79	14.09	13.66	12.39	11.19	10.30	9.870	10.06	9.272	7.339	6.322	5.781	5.372	4.921	4.722	4.585	4.215	3.671	3.391	3.542	4.407	11.65	30.95	68.56	341.2	1932	4100	1456	21.66	2.762	2.032	1.395	1.309	1.159
570.0	111.1	125.4	108.0	99.51	91.27	94.12	105.6	137.4	160.3	118.1	127.9	350.6	4070	5079	351.8	61.69	50.82	46.26	43.23	40.37	37.99	35.91	36.09	35.57	35.44	34.84	33.94	34.73	33.95	33.68	33.08	30.79	28.79	26.16	24.67	22.14	21.38	19.63	17.97	16.72	15.25	14.00	13.29	12.30	11.92	11.14	9.966	9.480	8.669	7.888	7.713	7.718	6.749	5.925	5.101	4.672	4.408	4.019	3.779	3.404	3.309	3.240	2.992	3.145	4.676	8.930	17.62	78.69	449.0	1592	2850	1205	116.0	3.677	1.550	1.330	1.021
575.0	111.8	127.4	110.0	87.95	77.85	79.51	84.19	99.73	145.0	124.0	108.9	155.0	1090	5669	2287	62.61	42.12	38.20	34.95	32.92	30.10	29.29	28.29	28.68	28.30	27.19	27.07	27.00	26.56	27.12	26.05	23.70	23.10	20.87	19.53	18.21	17.20	15.61	14.37	13.53	12.77	11.82	10.67	10.66	9.732	9.152	8.601	7.799	7.700	6.377	6.243	6.066	5.769	5.591	4.494	4.294	3.803	3.468	3.153	2.896	2.917	3.000	2.619	2.505	2.752	3.661	5.813	19.58	101.9	357.0	809.1	2364	1951	33.99	2.509	1.524	1.093
580.0	117.9	123.9	107.9	91.80	70.98	70.27	75.75	82.91	124.6	133.9	99.35	108.7	316.8	3098	5047	118.3	37.66	32.70	29.59	27.04	26.47	24.66	24.18	24.16	23.42	23.17	22.30	22.46	22.91	22.27	22.12	20.00	19.43	17.38	16.96	15.23	14.57	13.29	12.24	11.47	10.51	10.02	9.532	9.394	8.334	7.556	7.674	6.583	6.482	5.617	5.392	5.104	5.143	5.168	4.537	3.712	3.320	3.218	2.711	2.667	2.507	2.541	2.506	2.306	2.283	2.509	3.169	6.068	24.57	81.38	183.9	846.5	2743	1562	27.14	1.969	1.289
585.0	113.2	121.1	101.3	79.58	66.29	67.94	68.46	74.10	96.03	141.5	98.67	94.89	136.5	1043	6133	764.8	35.21	29.04	25.94	24.60	22.33	21.04	20.85	20.82	19.91	19.87	19.37	19.22	19.22	18.97	18.86	17.59	15.87	15.21	14.04	12.97	12.29	10.90	10.20	9.898	9.100	9.177	8.185	7.717	7.213	6.615	6.312	6.168	5.596	4.851	4.637	4.123	4.097	4.619	4.257	3.476	3.126	2.991	2.667	2.471	2.414	2.411	2.574	2.405	2.026	2.012	2.212	2.942	7.005	19.85	43.04	195.7	1140	2694	988.3	18.82	1.547
590.0	106.6	111.2	101.3	78.04	60.89	56.93	60.56	64.32	75.99	124.2	112.3	92.00	94.80	294.0	3253	4075	80.63	25.76	21.23	20.31	18.18	17.47	17.20	17.15	16.06	16.28	16.13	15.91	15.71	15.68	15.55	14.42	13.45	12.45	11.42	10.85	9.917	9.336	8.652	8.080	7.394	7.212	6.982	6.335	5.851	5.539	5.240	5.175	4.687	4.179	3.846	3.420	3.392	3.579	3.646	3.375	2.890	2.464	2.286	2.105	2.096	2.139	2.140	2.319	2.067	1.826	1.797	2.077	2.930	5.800	10.99	45.23	263.4	1008	1751	967.3	107.4
595.0	99.59	111.6	97.40	71.78	53.16	53.36	52.23	59.39	69.33	94.72	129.0	93.05	88.63	114.6	854.5	4983	767.5	26.37	18.18	17.07	14.84	14.91	13.47	13.95	13.59	12.88	12.75	12.34	12.90	12.84	12.36	12.00	10.89	9.836	9.224	8.902	7.827	7.981	6.957	6.549	6.308	6.082	5.619	5.024	4.957	4.492	4.366	4.300	3.858	3.652	3.278	2.864	2.683	2.875	3.085	3.012	2.733	2.252	1.992	1.918	1.886	1.700	1.718	1.966	1.904	1.838	1.585	1.653	1.826	2.447	3.554	11.22	59.79	225.9	480.3	1363	1350
600.0	97.57	104.8	101.0	74.82	54.33	50.53	50.12	56.24	62.72	82.30	127.8	101.9	86.10	74.62	229.5	2875	3311	70.58	17.28	14.42	13.28	12.36	12.08	11.59	11.44	11.10	10.72	10.33	11.01	11.01	9.750	9.711	9.186	8.387	8.142	7.238	7.057	6.532	5.832	5.534	5.734	4.928	4.627	4.256	4.265	3.886	3.929	3.604	3.323	3.139	2.879	2.696	2.509	2.461	2.348	2.727	2.567	2.176	1.765	1.635	1.603	1.647	1.703	1.594	1.805	1.786	1.567	1.537	1.612	1.543	1.653	3.689	14.41	51.39	109.0	459.9	1611
605.0	92.58	97.78	98.14	65.09	53.17	42.97	50.44	52.76	60.56	80.51	120.0	122.7	89.11	67.25	88.49	974.2	4501	498.7	17.22	13.86	11.91	10.87	10.06	9.829	9.938	9.936	9.566	9.280	9.289	9.236	8.668	8.646	7.809	7.027	6.666	6.150	5.946	5.590	5.007	4.909	4.721	4.274	4.482	3.769	3.765	3.544	3.463	3.278	3.201	2.793	2.535	2.489	2.236	2.156	1.967	2.214	2.493	2.100	1.768	1.621	1.490	1.461	1.430	1.503	1.460	1.596	1.747	1.526	1.424	1.300	1.279	1.825	4.109	12.34	25.41	105.6	627.7
610.0	90.53	96.26	94.99	67.09	48.61	43.06	49.93	55.28	65.38	84.58	109.6	137.7	103.6	74.45	62.76	261.0	2614	2845	52.01	12.05	10.63	9.686	8.880	8.153	8.227	8.150	7.939	7.559	7.514	7.484	7.262	7.150	6.648	5.873	5.644	5.216	4.757	4.563	4.320	3.868	3.785	3.594	3.659	3.299	3.231	3.009	2.837	2.649	2.616	2.404	2.140	2.037	1.903	1.790	1.691	1.721	1.978	1.941	1.681	1.435	1.421	1.306	1.265	1.332	1.353	1.331	1.527	1.484	1.338	1.234	1.189	1.285	1.720	3.558	6.521	24.39	144.0
615.0	93.48	97.70	83.76	62.98	47.07	45.73	46.55	55.76	64.55	82.40	102.1	132.3	123.5	80.17	61.38	90.18	699.4	3781	573.4	13.42	9.591	8.477	7.607	7.393	7.009	6.813	6.145	6.365	5.984	6.577	5.779	5.570	5.345	4.991	4.493	4.337	4.061	3.732	3.515	3.218	3.082	2.923	2.973	2.855	2.619	2.629	2.374	2.502	2.088	2.071	1.909	1.716	1.622	1.450	1.356	1.427	1.675	1.656	1.567	1.418	1.292	1.165	1.185	1.321	1.202	1.078	1.240	1.353	1.372	1.195	1.288	1.155	1.191	1.595	2.187	6.313	32.88
620.0	79.03	101.7	86.17	64.42	44.86	41.97	46.07	54.82	65.98	80.15	92.77	121.2	135.1	84.69	60.37	51.12	184.8	2359	2296	37.50	8.863	7.611	6.887	6.254	6.076	5.887	5.565	5.455	5.210	5.757	5.205	5.152	4.397	4.167	3.827	3.735	3.562	3.170	3.042	2.846	2.745	2.503	2.492	2.423	2.297	2.375	2.027	2.013	1.975	1.774	1.633	1.513	1.406	1.355	1.311	1.253	1.349	1.427	1.537	1.430	1.157	1.198	1.113	1.168	1.130	1.070	1.120	1.246	1.372	1.252	1.171	1.035	0.942	1.218	1.039	2.157	7.915
625.0	82.11	94.26	83.97	65.08	42.14	40.30	43.60	53.69	61.12	80.55	93.86	112.9	137.0	89.27	62.39	43.17	64.53	839.3	3399	293.1	8.689	7.092	6.269	5.553	5.656	4.962	4.971	4.856	4.880	4.792	4.472	4.533	3.947	3.678	3.571	3.290	3.182	2.816	2.725	2.646	2.322	2.173	2.227	2.049	2.127	2.091	1.916	1.777	1.684	1.598	1.351	1.406	1.254	1.238	1.345	1.155	1.205	1.225	1.340	1.265	1.211	1.205	1.110	1.085	1.016	1.199	1.075	1.161	1.241	1.180	1.127	0.810	1.092	1.063	0.940	1.103	2.325
630.0	80.48	98.42	83.98	60.55	43.63	39.21	40.80	51.10	59.43	79.59	92.74	102.4	127.0	101.5	64.80	41.25	36.21	216.1	2176	1904	32.80	6.769	6.152	5.275	4.995	4.348	4.243	4.087	4.026	3.972	3.713	3.565	3.488	3.014	3.042	2.830	2.573	2.437	2.253	2.318	2.142	1.963	1.825	1.840	1.813	1.777	1.820	1.720	1.540	1.445	1.247	1.259	1.121	1.155	1.112	0.984	1.058	1.193	1.168	1.184	1.177	1.079	1.074	0.994	1.042	1.075	0.958	1.015	1.092	1.148	1.179	0.999	0.978	0.896	0.874	0.761	1.106
635.0	71.98	94.03	84.72	63.90	47.02	37.33	42.81	51.84	59.70	76.56	92.47	100.2	115.1	110.5	70.26	42.85	31.70	64.29	592.2	2917	418.5	7.450	5.441	4.601	4.389	4.198	3.870	3.414	3.534	3.370	3.078	3.188	2.915	2.789	2.577	2.568	2.089	2.217	2.108	1.963	1.859	1.622	1.609	1.624	1.570	1.526	1.496	1.486	1.440	1.278	1.129	1.092	1.062	1.032	1.018	0.972	0.953	1.037	0.999	1.035	1.097	1.159	0.937	0.999	0.908	1.069	1.032	0.923	1.035	1.069	1.085	1.113	0.972	0.803	0.842	0.672	0.810
640.0	80.82	97.22	82.71	59.32	49.33	42.16	44.59	50.71	57.85	80.32	91.30	98.76	108.5	107.1	79.66	44.39	31.06	30.82	148.1	2022	1591	19.40	5.645	4.768	4.390	3.942	3.378	3.103	2.970	3.089	2.855	2.933	2.557	2.462	2.196	2.258	1.967	1.948	1.781	1.758	1.632	1.544	1.657	1.530	1.544	1.460	1.342	1.261	1.312	1.202	1.171	0.962	1.004	0.928	0.913	0.938	0.961	0.900	1.083	0.986	1.049	0.965	1.017	1.004	0.879	0.927	1.045	1.009	1.009	1.007	1.046	1.044	0.972	0.831	0.695	0.647	0.709
645.0	81.20	106.1	84.04	63.78	48.59	36.28	44.21	50.94	60.39	76.28	90.22	99.00	107.2	101.7	84.17	46.78	30.35	23.29	43.55	783.7	2548	66.21	6.249	4.438	4.183	3.719	3.111	3.019	2.714	2.557	2.548	2.889	2.415	2.244	2.136	2.099	1.938	1.822	1.720	1.535	1.266	1.500	1.518	1.247	1.369	1.422	1.206	1.320	1.321	1.132	1.074	0.877	0.880	0.855	0.879	0.799	0.904	0.930	0.959	0.784	0.893	0.914	1.019	0.972	0.943	0.962	0.911	0.946	0.954	0.934	0.825	0.908	0.898	0.853	0.757	0.649	0.738
650.0	84.53	105.0	93.62	71.12	47.49	38.61	42.46	48.22	57.47	77.29	87.75	99.67	104.5	94.67	87.85	50.15	31.96	22.27	20.45	213.6	2311	507.3	7.917	4.429	3.679	3.547	3.107	2.861	2.499	2.499	2.554	2.639	2.257	2.050	1.961	1.861	1.722	1.675	1.688	1.398	1.336	1.501	1.367	1.247	1.246	1.223	1.187	1.325	1.097	1.075	0.895	1.013	0.911	0.874	0.742	0.840	0.898	0.789	0.878	0.725	0.880	0.924	0.901	1.004	0.920	0.981	0.826	0.885	1.039	0.934	0.783	0.760	0.879	0.761	0.733	0.743	0.726
