Sample:	'1
File name:	w111308东王公募西闸口.FD3
Run date:	'10:34:58, 11/15/2024
Operator:	Administrator
Comment:	'

Instrument
Model:	F-2700 FL Spectrophotometer
Serial number:	23B8-004
ROM Version:	4J14000 07

Instrument parameters
Measurement type:	3-D scan
Data mode:	Fluorescence
EX  Start WL:	220.0 nm
EX  End WL:	600.0 nm
EX Sampling interval:	5.0 nm
EM  Start WL:	230.0 nm
EM  End WL:	650.0 nm
EM Sampling interval:	5.0 nm
Scan speed:	12000 nm/min
EX Slit:	5.0 nm
EM Slit:	5.0 nm
PMT Voltage:	700 V
Response:	Auto 
Corrected spectra:	Off
Contour interval:	50.000

Peak integration
Integration method:	Rectangular
Sensitivity:	1
Threshold:	1.000

Peaks
No.	ApexEX/EM(nm)	Height(Data)
1	230.0/345.0	6846
2	230.0/605.0	91.07
3	230.0/620.0	77.96
4	255.0/285.0	474.8
5	270.0/600.0	162.0
6	275.0/430.0	7379
7	275.0/615.0	190.3
8	280.0/340.0	4614
9	280.0/425.0	7364
10	280.0/625.0	174.6
11	335.0/415.0	5357
12	340.0/420.0	5348
13	475.0/345.0	18.86
14	510.0/445.0	19.80
15	530.0/440.0	19.58
16	570.0/415.0	22.58
17	575.0/340.0	20.64
18	575.0/420.0	22.71
19	580.0/410.0	22.44

Data points
	220.0	225.0	230.0	235.0	240.0	245.0	250.0	255.0	260.0	265.0	270.0	275.0	280.0	285.0	290.0	295.0	300.0	305.0	310.0	315.0	320.0	325.0	330.0	335.0	340.0	345.0	350.0	355.0	360.0	365.0	370.0	375.0	380.0	385.0	390.0	395.0	400.0	405.0	410.0	415.0	420.0	425.0	430.0	435.0	440.0	445.0	450.0	455.0	460.0	465.0	470.0	475.0	480.0	485.0	490.0	495.0	500.0	505.0	510.0	515.0	520.0	525.0	530.0	535.0	540.0	545.0	550.0	555.0	560.0	565.0	570.0	575.0	580.0	585.0	590.0	595.0	600.0
230.0	33.55	907.6	2976	895.7	49.06	8.137	7.606	6.561	5.966	5.941	6.219	5.744	5.607	5.270	4.471	3.587	3.429	2.794	2.814	2.753	2.392	2.454	2.366	2.323	2.194	1.988	1.833	1.718	1.777	1.665	1.468	1.282	1.197	1.077	0.988	0.778	0.714	0.554	0.573	0.520	0.424	0.417	0.446	0.412	0.420	0.381	0.912	3.956	7.708	6.087	2.393	0.592	0.277	0.270	0.245	0.211	0.262	0.223	0.230	0.205	0.215	0.186	0.212	0.217	0.197	0.193	0.175	0.180	0.164	0.167	0.181	0.159	0.168	0.159	0.136	0.147	0.193
235.0	51.34	246.8	2007	4077	633.8	80.37	8.991	7.098	6.922	7.061	6.225	6.157	5.674	5.210	4.531	3.893	3.489	3.100	2.728	2.676	2.259	2.704	2.496	2.262	2.499	1.953	1.868	1.969	1.847	1.466	1.475	1.431	1.118	1.120	1.045	0.778	0.667	0.635	0.633	0.519	0.444	0.441	0.451	0.566	0.455	0.471	0.437	1.226	3.251	6.777	10.65	11.62	5.499	1.068	0.296	0.266	0.240	0.199	0.210	0.210	0.188	0.273	0.214	0.183	0.216	0.171	0.193	0.212	0.148	0.143	0.180	0.155	0.152	0.153	0.172	0.180	0.169
240.0	74.91	104.4	614.6	3807	4840	509.3	35.50	9.776	8.316	6.880	6.725	6.733	6.441	5.389	4.866	4.257	3.146	3.168	3.196	2.523	2.167	2.686	2.641	2.249	2.559	2.044	1.860	1.859	1.699	1.760	1.574	1.354	1.283	1.091	0.998	0.752	0.682	0.699	0.653	0.566	0.505	0.454	0.492	0.457	0.441	0.491	0.362	0.605	0.948	2.183	6.346	16.07	20.75	13.39	4.357	0.652	0.257	0.183	0.220	0.237	0.202	0.255	0.178	0.272	0.179	0.199	0.180	0.179	0.146	0.203	0.201	0.182	0.162	0.161	0.159	0.160	0.192
245.0	71.82	109.5	193.4	1323	6516	4009	371.4	18.64	9.600	8.478	8.053	6.993	6.350	5.198	5.338	4.067	3.336	3.124	3.004	2.972	2.631	2.844	2.307	2.542	2.411	2.098	1.927	1.809	1.896	1.811	1.388	1.359	1.325	1.243	1.000	0.843	0.707	0.629	0.654	0.613	0.496	0.468	0.449	0.378	0.406	0.505	0.503	0.468	0.496	0.731	1.753	5.788	15.52	26.15	23.42	11.59	2.820	0.373	0.315	0.289	0.291	0.256	0.219	0.242	0.224	0.229	0.216	0.238	0.174	0.220	0.162	0.216	0.162	0.188	0.150	0.169	0.148
250.0	39.91	92.06	172.1	360.9	2169	5035	5774	1379	82.90	12.83	10.46	8.978	7.370	6.606	5.574	4.657	3.780	3.662	3.152	3.231	2.912	2.617	2.680	2.664	2.537	2.199	2.099	2.002	2.079	1.846	1.577	1.477	1.196	1.129	1.008	0.887	0.702	0.727	0.584	0.607	0.530	0.516	0.454	0.427	0.449	0.462	0.446	0.614	0.678	0.688	0.726	1.604	3.928	8.824	16.48	25.50	30.03	28.45	11.20	3.276	0.415	0.306	0.257	0.279	0.241	0.214	0.243	0.227	0.203	0.214	0.193	0.184	0.165	0.167	0.196	0.180	0.210
255.0	36.64	52.08	126.0	264.8	548.1	1308	5413	9999.9	1895	93.15	15.25	10.96	9.559	8.618	6.425	5.119	4.187	4.145	3.499	3.433	2.779	2.768	2.656	2.400	2.613	2.377	2.171	2.385	2.137	1.848	1.724	1.354	1.345	1.124	0.986	0.863	0.663	0.755	0.707	0.549	0.631	0.575	0.463	0.424	0.459	0.423	0.390	0.432	0.446	0.808	0.939	1.101	1.230	2.221	4.010	6.437	12.99	34.66	53.93	29.31	18.01	3.380	0.396	0.389	0.248	0.241	0.246	0.268	0.230	0.285	0.196	0.218	0.173	0.197	0.224	0.232	0.227
260.0	42.90	36.46	67.31	211.5	288.3	337.4	1708	9194	9999.9	1447	41.36	14.48	11.11	8.510	8.153	5.859	4.570	4.416	3.868	3.478	2.967	2.818	2.585	2.614	2.806	2.300	2.477	2.390	2.209	2.034	1.774	1.574	1.303	1.179	1.114	0.934	0.706	0.691	0.701	0.679	0.619	0.602	0.549	0.450	0.474	0.449	0.361	0.423	0.437	0.438	0.740	1.238	1.182	1.075	1.199	1.707	3.253	9.656	26.52	56.67	73.35	27.89	13.78	1.605	0.347	0.353	0.295	0.238	0.271	0.249	0.234	0.262	0.239	0.183	0.253	0.269	0.218
265.0	41.53	35.12	44.43	108.0	281.3	207.9	423.9	3284	9999.9	9999.9	225.1	24.63	14.60	11.55	8.894	6.439	5.183	4.727	3.944	3.478	3.508	3.120	2.974	3.014	2.841	2.523	2.263	2.177	2.154	2.258	1.887	1.555	1.505	1.221	1.000	0.879	0.728	0.670	0.697	0.577	0.620	0.580	0.572	0.521	0.495	0.519	0.437	0.428	0.409	0.354	0.448	0.756	1.252	1.433	1.087	0.776	1.049	2.468	6.560	18.22	45.57	77.27	83.17	24.83	8.143	0.778	0.372	0.248	0.340	0.285	0.288	0.288	0.273	0.238	0.290	0.238	0.283
270.0	53.78	53.25	52.31	54.09	149.1	278.0	255.0	798.2	3706	9999.9	9999.9	3105	60.01	15.99	11.90	8.812	6.893	5.556	4.732	4.106	3.911	3.477	3.272	3.265	2.849	2.701	2.536	2.435	2.259	2.340	1.923	1.645	1.617	1.468	1.153	0.986	0.874	0.776	0.770	0.628	0.624	0.572	0.588	0.571	0.519	0.561	0.464	0.481	0.460	0.389	0.378	0.485	0.677	0.999	1.372	1.462	1.395	1.095	1.835	4.533	10.97	23.95	45.90	68.64	83.40	65.79	16.28	7.231	0.854	0.398	0.381	0.350	0.291	0.278	0.283	0.260	0.264
275.0	98.78	113.2	105.7	70.91	77.00	152.1	380.0	365.6	905.3	2720	9999.9	9999.9	1207	62.59	17.79	11.98	8.948	6.985	6.027	5.262	4.394	3.931	3.633	3.477	3.352	2.966	2.574	2.688	2.727	2.196	2.135	1.906	1.850	1.540	1.320	1.074	1.042	0.882	0.820	0.737	0.648	0.682	0.629	0.675	0.601	0.664	0.676	0.602	0.576	0.442	0.461	0.476	0.458	0.544	0.697	1.127	1.686	2.242	1.642	1.607	2.934	5.891	10.76	16.43	27.20	58.87	109.7	114.4	26.08	8.457	0.840	0.408	0.404	0.333	0.272	0.373	0.334
280.0	168.3	184.8	181.2	122.4	95.77	111.5	291.8	434.1	376.3	752.4	3377	9999.9	9999.9	871.9	32.50	15.23	11.69	8.800	6.470	6.336	4.822	4.477	4.402	3.658	3.480	3.111	2.889	2.915	2.854	2.056	2.204	2.022	1.695	1.716	1.267	1.152	1.082	0.932	1.085	0.835	0.672	0.681	0.713	0.721	0.715	0.711	0.744	0.736	0.719	0.618	0.621	0.637	0.559	0.579	0.544	0.823	1.117	1.836	2.599	2.391	1.730	2.086	3.143	4.487	7.079	15.40	41.91	93.59	132.3	105.7	21.44	3.624	0.489	0.517	0.387	0.440	0.379
285.0	226.3	285.2	288.1	197.7	145.2	140.7	209.9	474.8	378.9	399.3	1023	4517	9999.9	8624	119.1	23.37	14.89	10.33	7.658	7.089	5.620	4.589	4.422	3.798	3.583	3.241	3.039	2.927	2.816	2.395	2.260	1.933	1.763	1.655	1.607	1.231	1.203	1.029	1.115	0.984	0.767	0.882	0.831	0.763	0.739	0.860	0.934	0.939	0.945	0.920	0.846	0.732	0.705	0.691	0.747	0.749	0.879	1.257	1.933	2.921	3.051	2.093	1.937	2.177	2.851	4.751	10.73	25.68	61.81	120.5	144.4	31.68	15.85	1.551	0.560	0.501	0.521
290.0	315.6	436.2	464.7	333.0	240.6	220.8	252.9	356.0	619.5	699.8	694.0	1456	4671	9999.9	9999.9	2170	40.21	15.78	10.31	8.536	6.941	5.738	5.045	4.275	4.314	3.735	3.331	3.138	2.985	2.543	2.457	2.272	1.843	1.902	1.714	1.446	1.382	1.186	1.113	1.002	0.918	0.869	0.902	0.957	0.936	1.165	1.205	1.439	1.341	1.279	1.165	1.193	1.145	1.045	1.069	1.130	1.119	1.275	1.545	1.989	2.719	3.445	3.703	3.316	2.913	3.261	4.394	7.706	16.13	32.60	61.21	81.09	113.9	88.14	64.08	11.46	2.211
295.0	402.5	585.4	652.3	479.7	366.8	320.2	349.6	407.6	575.2	984.8	1080	1013	1594	2957	9999.9	9999.9	670.1	43.42	14.79	11.88	8.714	7.059	5.974	5.269	4.758	4.216	3.544	3.413	3.214	2.940	2.744	2.403	2.329	1.951	2.040	1.546	1.385	1.470	1.249	1.149	0.940	0.968	0.965	0.976	1.239	1.354	1.466	1.790	1.826	1.782	1.511	1.540	1.585	1.338	1.385	1.628	1.782	1.483	1.661	2.059	2.383	2.751	3.804	5.078	5.662	4.457	4.067	4.581	6.807	9.980	15.90	20.22	30.94	54.92	125.7	160.2	33.76
300.0	499.7	717.0	834.2	639.2	460.0	440.3	476.1	572.4	736.7	1073	1576	1367	1206	1242	3488	9999.9	9999.9	517.2	29.24	15.29	10.94	9.039	6.897	6.085	5.489	4.716	4.076	3.719	3.617	3.130	3.054	2.683	2.285	2.018	1.902	1.669	1.539	1.464	1.547	1.256	1.069	1.137	1.080	1.209	1.297	1.442	1.800	2.115	2.280	2.043	1.836	1.969	1.805	1.649	1.775	1.959	2.347	2.325	2.610	2.751	3.057	3.396	3.972	5.076	6.409	7.504	6.885	5.633	5.779	6.180	6.928	7.665	9.479	15.01	38.94	95.70	157.9
305.0	606.8	875.4	1002	794.2	614.5	597.5	724.9	892.2	1155	1536	2060	2307	1532	1277	1538	4698	9999.9	9999.9	77.30	23.81	14.32	10.32	8.714	6.716	6.376	5.320	4.817	4.232	3.825	3.489	3.217	2.609	2.508	2.266	1.984	1.875	1.627	1.668	1.716	1.563	1.165	1.256	1.170	1.428	1.544	1.682	2.122	2.624	2.791	2.455	2.275	2.396	2.347	2.360	2.385	2.731	3.014	3.486	3.714	4.468	4.763	5.193	6.303	6.796	7.595	9.531	10.28	10.08	9.096	7.915	7.363	6.815	6.628	7.877	12.37	25.82	59.86
310.0	708.5	1078	1192	972.3	790.1	798.7	968.1	1215	1521	1974	2423	2843	2577	1855	1477	1805	5029	9999.9	9999.9	1752	33.56	15.51	11.13	8.673	7.442	6.114	5.333	4.884	4.414	3.851	3.332	2.998	2.839	2.563	2.213	1.886	1.860	1.685	1.626	1.513	1.322	1.280	1.404	1.438	1.663	2.121	2.470	3.140	3.374	2.831	2.678	3.002	2.900	2.996	3.058	3.302	3.977	4.441	4.971	5.338	6.069	6.726	7.848	8.960	9.395	10.60	11.40	12.19	13.01	12.13	10.75	8.906	8.060	8.277	8.087	10.09	17.40
315.0	871.3	1329	1427	1162	958.3	957.2	1169	1438	1760	2262	2708	3052	3062	2566	1803	1366	1905	2924	9999.9	9999.9	494.5	37.08	16.03	11.40	9.366	7.506	6.196	5.685	4.922	4.446	3.635	3.250	3.200	2.546	2.329	1.818	1.790	1.819	1.671	1.748	1.306	1.530	1.677	1.786	2.053	2.531	2.941	3.897	3.916	3.500	3.219	3.723	3.466	3.367	3.471	3.973	4.641	5.416	5.698	6.031	7.068	7.844	8.556	10.10	10.99	11.77	12.45	12.82	14.08	13.87	13.67	12.92	10.92	9.615	8.154	7.950	9.056
320.0	1134	1860	1881	1473	1135	1101	1316	1610	1983	2529	3049	3421	3349	3058	2325	1518	1370	1151	3118	9999.9	9999.9	420.3	27.84	15.24	11.66	8.536	7.342	6.239	5.755	4.646	4.142	3.371	3.170	2.930	2.323	2.128	1.985	1.880	1.863	1.980	1.364	1.641	1.770	1.976	2.522	3.143	3.929	5.186	5.148	4.437	4.099	4.418	4.010	3.901	4.171	4.291	5.346	5.883	6.618	7.172	7.499	8.640	9.615	11.07	12.10	12.79	13.79	14.20	14.82	14.80	14.63	15.22	14.30	12.61	10.01	8.736	8.308
325.0	1497	2671	2956	2221	1492	1270	1459	1781	2166	2774	3356	3750	3681	3314	2800	1844	1368	849.2	973.5	3953	9999.9	9999.9	62.47	24.01	15.04	10.46	8.378	6.790	6.403	5.690	4.494	3.660	3.287	3.112	2.704	2.424	2.132	1.979	2.065	1.772	1.656	1.864	1.831	2.246	2.991	4.148	5.270	7.463	7.729	6.428	5.934	6.042	5.443	4.757	4.527	4.805	5.850	6.287	6.933	7.872	8.208	9.575	10.81	11.94	13.00	13.78	15.31	16.00	16.10	16.16	16.24	15.62	16.03	14.65	12.92	10.56	9.262
330.0	2006	3726	4704	3887	2459	1748	1706	2018	2430	3064	3682	4117	4095	3689	3131	2386	1677	994.2	678.9	1227	4117	9999.9	9999.9	1564	34.16	15.82	11.05	8.626	7.598	6.402	5.417	4.444	3.738	3.177	2.822	2.486	2.316	2.149	2.188	1.954	1.914	2.062	2.221	2.722	3.680	5.442	7.538	10.18	11.67	10.66	10.30	10.55	8.687	7.219	6.410	6.230	6.831	7.157	7.759	8.908	9.383	10.29	12.01	13.02	14.39	15.59	16.70	17.60	18.03	18.17	18.48	16.86	17.29	16.35	15.19	13.45	12.46
335.0	2383	4464	5969	5354	3724	2410	2035	2236	2651	3315	3933	4429	4481	4084	3448	2722	2179	1376	908.5	869.3	1385	2827	9999.9	9999.9	2452	39.18	16.65	11.57	9.378	7.904	6.189	5.237	4.438	3.791	3.248	2.775	2.549	2.398	2.240	2.165	2.056	2.244	2.668	3.221	4.303	6.473	8.598	12.66	14.14	13.81	14.12	15.06	12.96	10.93	8.996	7.337	8.038	8.337	8.886	9.661	10.53	11.51	12.62	14.38	15.49	16.71	17.80	18.64	19.77	19.20	19.47	19.80	19.17	18.54	16.56	15.74	14.76
340.0	2558	4839	6607	6165	4321	2775	2247	2387	2769	3388	4046	4530	4614	4256	3625	2869	2339	1701	1125	934.3	920.3	1131	3184	9999.9	9999.9	388.1	31.77	15.58	11.65	8.756	6.874	5.743	4.982	3.980	3.432	2.744	2.655	2.475	2.389	2.415	1.999	2.359	2.629	3.337	4.776	6.917	9.289	13.35	15.72	15.62	15.98	17.52	14.68	12.63	10.46	8.707	8.864	8.796	9.318	10.30	11.12	11.76	12.50	14.45	15.67	17.16	18.53	18.93	19.94	20.17	20.01	20.64	20.03	19.11	16.95	16.17	14.71
345.0	2649	4886	6846	6525	4574	2903	2334	2436	2816	3373	4020	4467	4560	4268	3678	2944	2363	1874	1378	1068	929.0	859.5	1208	3776	9999.9	9999.9	323.3	24.44	14.55	10.71	7.446	6.202	5.198	4.314	3.522	2.977	2.531	2.452	2.364	2.294	2.167	2.468	2.835	3.414	4.780	7.055	9.274	13.65	16.03	16.37	16.50	18.86	15.36	13.25	11.19	9.263	8.838	9.048	9.844	9.949	11.21	11.67	12.93	14.58	15.51	16.63	17.80	19.17	19.44	19.85	20.14	20.41	19.88	19.28	17.83	16.56	14.99
350.0	2425	4609	6510	6451	4722	3095	2457	2538	2823	3325	3869	4274	4376	4124	3625	3000	2444	1978	1684	1389	1141	987.2	924.4	1322	3911	9999.9	9999.9	1496	32.99	15.56	9.837	7.487	6.004	4.936	3.915	3.207	2.797	2.477	2.533	2.487	2.258	2.307	2.719	3.175	4.500	6.467	8.959	12.55	15.29	15.77	16.13	18.55	15.87	13.54	11.53	9.782	9.719	9.678	10.12	10.55	11.34	12.01	13.08	14.28	15.12	15.88	17.01	17.58	18.43	18.92	19.14	20.08	19.48	18.58	17.86	17.12	15.98
355.0	2239	4158	6047	6101	4714	3212	2598	2643	2849	3270	3716	4067	4158	3963	3546	3041	2578	2154	1885	1748	1485	1235	1053	931.7	1305	2619	8385	9999.9	2574	40.64	15.30	10.37	6.961	5.535	4.390	3.527	3.099	2.721	2.402	2.379	2.347	2.565	2.481	3.242	4.239	6.276	7.976	11.49	14.12	14.51	15.23	17.54	15.66	14.04	11.70	10.35	9.775	10.21	9.893	10.86	11.23	12.05	13.23	13.71	14.53	15.09	16.07	16.99	17.66	18.21	18.31	18.22	18.80	17.88	17.85	17.27	16.32
360.0	2033	3847	5504	5732	4543	3277	2675	2719	2923	3247	3619	3904	3978	3820	3464	3052	2671	2323	2062	1936	1795	1505	1244	996.5	874.0	956.5	2385	9999.9	9999.9	2112	34.39	14.53	9.300	6.473	4.825	3.912	3.062	2.989	2.725	2.537	2.454	2.321	2.514	2.829	4.331	5.773	7.349	10.65	13.02	13.92	14.38	16.78	15.40	13.75	11.93	10.33	10.15	10.37	10.49	11.34	11.66	11.81	13.18	13.74	13.98	14.65	15.49	16.23	16.97	17.72	17.37	17.92	17.72	17.37	17.67	16.81	15.94
365.0	1917	3639	5110	5413	4410	3293	2801	2800	2999	3277	3577	3776	3820	3690	3420	3079	2762	2475	2271	2132	2038	1823	1487	1191	945.9	738.1	867.4	3183	9999.9	9999.9	348.6	27.10	12.78	8.569	5.792	4.458	3.420	3.356	2.911	2.684	2.183	2.392	2.735	2.877	4.035	5.377	6.880	9.804	11.98	12.93	13.39	15.60	14.92	13.64	11.84	10.59	10.38	10.59	11.30	11.48	11.72	12.04	13.17	13.82	13.92	14.28	14.94	15.75	16.04	16.91	17.27	17.50	17.56	17.43	17.37	17.25	16.64
370.0	1778	3264	4669	5062	4318	3406	2989	3007	3157	3385	3551	3628	3677	3567	3362	3099	2889	2696	2560	2450	2321	2202	1925	1562	1233	937.9	736.7	1089	3332	9999.9	9999.9	4427	32.80	15.43	8.938	5.789	4.420	3.832	3.307	2.971	2.465	2.558	2.671	2.955	3.811	4.963	6.659	9.007	10.97	11.84	12.32	14.91	14.52	13.50	12.03	10.97	11.11	11.44	11.75	12.06	12.21	12.75	13.38	14.04	14.48	14.51	14.50	14.99	15.48	15.84	16.32	17.08	17.19	16.93	16.95	17.28	16.75
375.0	1626	2988	4269	4706	4190	3445	3099	3145	3261	3451	3508	3530	3549	3470	3288	3096	2962	2853	2792	2717	2609	2480	2311	1994	1612	1266	972.4	851.3	1180	2609	7264	9999.9	2432	39.06	16.09	8.985	6.148	4.704	4.008	3.218	2.861	2.704	2.708	3.046	3.669	4.671	6.109	8.181	9.845	10.57	11.17	14.22	13.89	13.00	12.10	11.21	11.66	11.54	11.56	12.16	12.68	13.64	13.97	13.78	14.36	14.68	14.19	14.30	15.05	15.53	15.85	16.11	16.27	16.74	16.42	17.09	17.50
380.0	1622	2747	3971	4421	4098	3491	3202	3222	3292	3455	3486	3485	3499	3416	3252	3091	3001	2935	2921	2888	2808	2699	2530	2311	1934	1567	1252	996.6	879.3	1034	2137	9999.9	9999.9	1938	33.70	13.91	8.757	5.833	4.469	3.715	3.042	2.893	2.872	2.836	3.821	4.491	5.993	7.687	9.289	10.08	10.86	13.63	13.53	13.40	12.44	11.61	12.19	12.11	12.45	12.31	12.88	13.54	13.70	14.27	13.92	14.22	14.41	13.94	15.02	14.72	15.55	15.96	16.41	16.59	16.26	16.71	18.04
385.0	1554	2626	3769	4275	4029	3541	3310	3305	3372	3525	3518	3504	3488	3427	3288	3101	3046	3005	3029	3034	2987	2913	2761	2582	2295	1901	1561	1266	1031	862.7	937.8	3077	9999.9	9999.9	294.1	28.06	13.70	8.309	5.641	4.167	3.576	3.217	3.214	3.157	3.748	4.615	6.082	7.543	8.949	9.627	10.40	12.60	12.86	13.10	12.22	11.81	12.67	12.52	12.48	13.06	13.24	13.97	14.08	14.45	14.62	13.90	14.19	13.88	14.57	14.71	15.47	15.91	16.54	16.40	16.42	17.02	17.90
390.0	1500	2549	3607	4134	4085	3704	3529	3530	3605	3766	3764	3727	3724	3647	3469	3247	3146	3123	3192	3260	3279	3257	3171	3019	2793	2497	2116	1787	1499	1211	979.4	1220	3073	8822	9999.9	3511	106.0	16.69	9.191	5.699	4.193	3.786	3.449	3.495	3.999	4.755	5.840	7.331	8.619	9.071	10.28	12.70	13.22	13.24	12.71	12.57	13.30	13.31	13.60	13.64	14.12	14.82	14.95	15.28	15.44	14.53	14.61	14.35	15.19	15.64	15.80	16.72	16.76	17.14	16.92	16.97	17.88
395.0	1596	2582	3586	4164	4167	3938	3824	3883	4012	4251	4360	4377	4371	4232	3937	3550	3336	3307	3399	3542	3651	3718	3714	3612	3424	3204	2880	2503	2162	1802	1431	1149	1270	2375	5921	9999.9	2112	37.12	17.82	8.939	5.622	4.739	4.206	3.692	4.319	4.839	5.579	7.348	8.372	9.252	10.27	13.05	13.35	13.55	12.92	13.32	14.17	14.33	14.49	14.68	15.49	15.47	15.69	16.39	15.99	15.62	15.59	16.26	15.99	16.53	16.96	17.90	17.81	18.14	18.15	17.92	18.10
400.0	1597	2521	3613	4160	4261	4137	4060	4169	4413	4790	5052	5134	5158	4934	4491	3898	3542	3475	3594	3776	3972	4115	4185	4172	4009	3762	3516	3155	2757	2351	1901	1440	1102	1080	1811	6985	9999.9	1774	33.31	14.26	7.537	5.479	4.592	4.319	4.376	5.142	5.949	8.028	8.641	9.349	10.15	13.24	13.41	14.07	13.90	13.90	14.99	15.44	15.34	15.52	15.98	16.30	16.68	17.35	17.59	16.89	16.70	17.83	17.45	17.88	18.54	19.17	19.38	19.02	19.09	19.55	19.19
405.0	1587	2603	3577	4183	4366	4336	4322	4517	4844	5363	5813	6005	6017	5703	5106	4271	3774	3662	3779	4008	4285	4500	4656	4685	4574	4353	4079	3773	3338	2880	2369	1815	1317	986.3	906.4	2144	8442	9999.9	269.6	25.83	10.87	6.997	5.374	4.756	4.965	5.419	6.147	7.871	8.982	9.307	10.26	13.41	13.70	14.83	14.59	14.28	15.25	16.08	16.41	16.55	16.63	17.43	17.76	17.92	18.96	18.46	18.45	18.90	19.08	19.81	19.90	20.64	21.10	20.27	20.22	19.86	19.04
410.0	1675	2576	3613	4211	4452	4516	4608	4815	5276	5967	6581	6895	6868	6489	5711	4654	3971	3794	3941	4216	4544	4829	5073	5164	5099	4903	4625	4335	3956	3463	2882	2249	1658	1206	889.9	927.2	2456	6887	9507	3167	26.54	11.19	7.258	5.633	5.478	5.891	6.189	7.801	8.917	9.119	10.41	13.33	13.91	14.79	14.94	15.27	16.27	16.67	17.26	17.21	17.89	18.15	19.02	19.54	19.99	19.83	20.04	19.83	20.73	21.76	21.52	21.95	22.44	22.02	20.91	20.70	19.97
415.0	1605	2576	3551	4157	4447	4640	4755	4997	5482	6219	6929	7299	7260	6862	5975	4805	4018	3800	3946	4221	4578	4923	5199	5357	5329	5166	4912	4609	4295	3851	3225	2554	1931	1416	1011	756.2	884.0	1744	4998	9999.9	1935	30.41	11.26	7.116	6.078	6.264	6.246	8.060	9.179	9.254	10.02	13.37	14.10	15.05	15.54	15.21	17.04	17.67	17.50	17.58	18.12	18.46	19.41	20.48	19.99	20.28	20.48	20.30	21.20	21.32	22.58	22.19	22.26	22.43	20.75	20.65	19.76
420.0	1616	2444	3472	4110	4455	4622	4808	5068	5543	6261	6989	7352	7315	6902	5983	4806	3953	3744	3866	4155	4500	4866	5156	5338	5348	5202	4992	4693	4387	3976	3392	2708	2064	1537	1109	777.4	580.7	609.6	1346	5885	9392	1510	24.63	9.384	7.422	6.497	6.655	7.972	8.962	8.922	10.21	13.45	13.79	14.91	15.46	15.68	17.08	17.39	17.66	17.96	18.42	19.06	19.27	20.06	19.76	19.93	20.53	21.05	21.25	21.77	22.36	22.71	22.24	22.06	21.07	20.00	19.01
425.0	1510	2370	3391	4076	4402	4657	4853	5135	5568	6283	6990	7359	7364	6896	5953	4746	3911	3673	3793	4059	4401	4761	5077	5254	5290	5180	4973	4719	4404	4020	3489	2806	2156	1633	1197	838.3	563.9	395.6	458.3	1614	6553	7726	250.4	17.90	9.703	7.500	6.884	7.799	8.767	8.915	9.963	12.73	13.87	15.27	15.41	16.32	17.05	17.77	17.86	18.59	18.92	18.80	19.22	19.67	19.72	20.19	20.23	20.73	21.58	21.83	22.14	22.64	21.98	22.06	20.86	19.63	18.92
430.0	1593	2344	3346	4005	4432	4755	5002	5275	5654	6271	6977	7379	7345	6893	5957	4723	3875	3607	3686	3957	4270	4620	4941	5130	5186	5085	4909	4678	4385	4010	3524	2909	2272	1741	1306	940.0	635.8	416.8	314.3	497.7	1760	5243	6704	1057	22.90	10.61	8.217	8.568	9.040	8.725	10.02	13.06	13.94	15.30	15.87	16.21	17.94	18.35	18.94	18.77	19.12	19.40	19.14	19.37	19.44	19.86	19.98	20.50	21.10	21.33	21.66	21.87	21.85	21.54	20.62	19.85	18.61
435.0	1758	2427	3262	3965	4448	4887	5180	5415	5673	6212	6913	7273	7228	6769	5865	4656	3813	3531	3594	3816	4091	4434	4725	4934	4982	4912	4764	4566	4307	3967	3498	2931	2360	1833	1392	1033	723.5	488.9	339.0	290.6	510.0	1266	3510	7234	1746	26.79	10.92	9.560	9.306	8.929	10.12	13.12	14.58	15.50	16.29	17.08	19.07	19.24	19.40	19.20	19.40	19.04	19.20	19.21	18.98	19.07	19.47	20.41	20.27	21.02	20.87	21.76	21.44	21.11	20.27	19.31	18.26
440.0	1945	2425	3152	3936	4437	4908	5246	5469	5650	6113	6683	7059	6997	6547	5668	4529	3711	3427	3488	3664	3893	4221	4508	4702	4766	4701	4578	4394	4169	3854	3427	2883	2362	1879	1442	1082	770.9	537.3	379.1	274.9	255.9	375.5	926.5	4527	8498	1331	21.20	11.17	9.995	9.246	10.40	12.91	14.17	15.63	16.43	17.29	19.24	19.28	19.24	19.17	18.85	19.31	19.58	18.56	18.78	19.08	19.34	19.19	19.70	20.20	20.19	20.92	20.99	20.78	19.67	18.25	18.42
445.0	1913	2510	3130	3764	4441	4888	5286	5446	5559	5854	6372	6691	6643	6229	5381	4313	3563	3292	3332	3470	3667	3937	4217	4417	4488	4431	4330	4157	3963	3695	3294	2796	2302	1879	1466	1110	812.8	583.8	415.8	298.2	221.5	195.1	282.9	1248	6536	6655	207.4	17.91	11.65	9.890	10.34	13.50	14.35	15.07	16.43	17.58	19.22	19.31	19.80	19.55	18.79	19.51	18.70	17.60	18.15	18.34	18.32	18.61	18.77	19.10	19.71	20.07	19.63	19.80	18.66	17.48	17.76
450.0	1576	2898	3086	3612	4301	4816	5195	5302	5249	5421	5808	6105	6035	5651	4909	3964	3293	3050	3068	3166	3311	3534	3768	3958	4025	3988	3909	3781	3620	3397	3064	2621	2177	1804	1457	1118	837.8	617.6	457.9	335.8	244.0	179.5	158.0	344.4	1746	4621	5656	940.0	20.84	11.51	10.97	13.16	13.86	15.29	16.05	17.30	18.69	19.48	19.77	18.89	18.61	18.04	17.44	17.27	16.34	16.56	16.94	16.66	17.80	17.93	17.96	18.66	18.18	18.16	16.93	16.42	16.80
455.0	1273	2950	3570	3398	4040	4566	4995	5053	4869	4912	5226	5462	5368	5035	4376	3572	2997	2776	2768	2833	2928	3111	3294	3469	3524	3514	3445	3348	3223	3058	2774	2404	2023	1685	1388	1110	850.4	641.5	492.1	368.2	274.2	198.2	147.9	157.7	447.4	1091	2806	6348	1377	21.69	12.65	13.45	14.05	14.96	15.41	16.70	18.46	19.06	19.26	17.90	17.75	16.85	16.11	16.07	15.54	15.28	15.28	15.70	15.87	15.58	16.56	16.50	16.28	16.23	15.70	15.19	15.30
460.0	1092	2448	4266	3371	3868	4382	4762	4803	4597	4530	4773	4960	4891	4555	4001	3270	2759	2564	2553	2584	2649	2791	2960	3117	3172	3162	3115	3026	2934	2788	2552	2231	1890	1587	1318	1081	850.1	650.7	505.8	388.2	291.8	216.4	159.2	128.7	166.8	294.6	717.6	3840	6006	973.1	19.43	14.10	13.86	14.71	15.20	16.43	17.74	18.50	18.51	17.65	17.36	16.22	15.22	14.88	14.34	14.26	14.47	14.37	14.94	14.98	15.61	14.89	15.21	15.35	14.54	14.41	14.38
465.0	1011	1940	4508	3797	3620	4110	4518	4548	4288	4202	4375	4516	4437	4157	3651	3006	2547	2365	2341	2364	2400	2521	2670	2800	2849	2853	2805	2741	2666	2543	2343	2067	1766	1496	1248	1028	836.0	648.1	513.2	395.9	305.8	229.2	172.0	131.9	114.5	124.5	205.9	1046	4726	4514	168.4	19.81	14.91	14.64	14.61	15.37	16.52	17.44	17.73	16.59	16.13	15.25	14.32	13.57	13.69	13.46	13.41	13.31	13.80	14.25	14.20	13.60	13.97	13.98	13.17	13.37	12.58
470.0	901.0	1560	3343	4944	3606	3720	4112	4116	3837	3690	3814	3934	3865	3617	3176	2636	2246	2081	2058	2058	2070	2165	2295	2402	2443	2447	2416	2361	2308	2217	2048	1822	1578	1348	1138	945.1	781.6	633.4	507.4	397.2	312.8	240.8	185.9	142.6	114.2	96.53	99.71	276.2	1273	3126	3916	861.1	22.43	15.17	14.69	14.64	15.82	16.26	15.90	15.34	14.72	13.81	13.05	12.41	11.96	11.93	11.85	12.02	12.23	12.14	12.25	12.28	12.28	12.60	11.73	11.59	11.92
475.0	784.9	1334	2180	4819	4475	3355	3644	3638	3363	3191	3278	3372	3288	3092	2701	2265	1949	1802	1767	1766	1757	1818	1923	2020	2050	2052	2027	1985	1949	1882	1757	1575	1381	1192	1021	856.4	713.7	592.0	495.0	394.0	310.5	247.1	193.4	152.5	123.8	97.82	83.55	110.5	321.1	734.9	1827	3927	1286	25.57	14.76	13.83	14.75	14.52	13.87	13.68	13.36	12.20	11.11	11.02	10.72	10.37	10.10	10.11	10.65	10.34	11.00	10.77	10.53	10.77	10.40	10.14	10.18
480.0	726.1	1208	1765	3605	5493	3331	3371	3305	3045	2871	2924	2998	2924	2731	2399	2017	1750	1616	1583	1561	1555	1595	1691	1769	1801	1803	1781	1747	1730	1671	1576	1417	1252	1088	935.5	793.8	665.7	560.0	476.3	388.9	309.3	247.9	198.0	159.7	129.8	104.7	85.61	78.05	114.3	196.7	462.0	2189	4413	1071	21.89	14.43	14.06	13.88	13.22	12.40	11.96	10.95	10.14	10.25	9.649	9.502	9.237	9.209	9.565	9.693	9.791	9.564	9.789	9.593	9.479	9.344	9.322
485.0	646.7	1109	1569	2525	5680	3887	3086	3051	2775	2641	2666	2710	2630	2450	2154	1833	1582	1468	1432	1411	1391	1428	1512	1578	1608	1608	1590	1566	1546	1509	1426	1283	1139	998.1	865.4	745.5	632.1	529.6	452.1	381.7	308.9	248.9	201.8	165.9	136.5	111.9	92.75	76.81	72.95	80.99	132.9	593.2	3328	4090	193.5	18.69	14.24	13.62	12.75	11.97	11.04	10.48	9.590	9.401	9.231	8.829	9.036	8.706	8.538	8.958	8.746	8.981	8.712	8.895	8.521	8.339	8.536
490.0	582.3	1020	1411	1921	4032	5280	3059	2709	2481	2325	2340	2366	2301	2136	1888	1604	1397	1298	1258	1231	1209	1241	1303	1359	1387	1389	1372	1360	1346	1314	1242	1136	1011	890.3	781.2	679.9	579.2	494.2	424.7	363.6	307.3	250.7	204.6	170.6	144.6	120.9	100.9	84.69	70.92	62.58	65.81	162.6	885.9	2601	2513	883.5	23.79	14.09	12.73	11.18	10.45	9.518	8.707	8.545	8.211	7.945	7.925	7.796	8.139	7.953	7.993	7.914	7.946	7.670	7.577	7.466	7.577
495.0	513.0	871.6	1251	1603	2402	5340	3942	2383	2179	2029	2032	2054	1993	1846	1613	1389	1207	1121	1083	1061	1033	1056	1107	1153	1184	1185	1168	1162	1145	1123	1069	987.9	883.9	784.0	696.2	608.3	525.3	453.6	391.7	337.9	293.1	250.2	204.2	171.2	149.4	128.1	109.4	93.12	77.32	65.80	57.42	71.22	226.9	611.6	1435	3773	1417	27.07	12.53	10.64	9.431	8.663	8.352	7.524	7.193	6.965	6.957	6.857	7.141	7.055	7.068	7.233	7.066	6.878	6.763	6.704	6.582
500.0	439.1	780.9	1168	1447	1827	3931	5371	2321	1935	1824	1820	1827	1772	1632	1437	1229	1081	989.3	961.9	932.3	910.5	927.1	972.7	1012	1038	1033	1032	1021	1006	989.5	945.5	872.4	788.4	707.6	630.3	554.5	481.4	418.2	366.6	315.6	275.8	243.0	204.6	172.3	149.3	130.5	111.5	97.74	81.44	69.32	59.22	55.38	82.59	163.9	370.7	2097	4033	1036	22.33	11.01	9.261	8.238	7.551	7.340	6.702	6.724	6.479	6.230	6.225	6.299	6.604	6.149	6.272	6.294	6.198	6.183	5.587
505.0	418.6	685.5	1073	1327	1562	2550	5809	2853	1736	1640	1639	1638	1567	1452	1269	1093	960.5	884.3	854.3	827.1	807.8	820.4	858.9	891.6	911.4	912.8	901.2	892.4	889.3	876.8	836.2	773.3	703.9	635.5	568.5	500.7	441.2	387.5	338.5	296.6	259.5	228.4	201.8	170.8	148.8	129.9	113.5	100.2	84.19	71.79	61.51	53.59	53.79	65.72	107.9	561.0	2821	3484	218.2	16.06	9.625	7.978	7.108	6.762	6.524	5.991	5.879	5.743	5.641	5.579	5.801	5.722	5.608	5.738	5.548	5.297	5.403
510.0	364.2	596.1	902.8	1147	1320	1716	3983	4672	1727	1415	1401	1400	1338	1234	1075	929.5	817.0	755.6	731.9	701.5	684.4	693.9	717.3	748.9	764.9	768.5	758.5	749.2	747.2	738.6	706.4	659.0	603.5	545.9	488.4	435.0	387.6	341.8	304.9	268.7	234.6	206.7	186.3	167.3	146.1	127.3	112.2	99.70	84.96	74.37	64.63	55.53	49.48	46.17	51.43	148.1	740.5	2098	2360	903.7	20.73	8.219	6.919	6.195	5.766	5.462	5.234	4.949	4.905	5.164	5.211	5.126	4.824	4.875	4.683	4.690	4.662
515.0	314.7	517.8	755.2	992.6	1146	1311	2013	5149	2618	1219	1202	1182	1133	1030	891.3	771.1	683.9	637.3	613.5	586.6	567.8	572.4	593.6	618.9	631.5	632.3	623.4	622.6	616.0	611.9	588.6	547.3	507.1	459.2	412.3	370.9	335.2	297.2	266.8	237.4	211.6	187.4	167.8	155.4	140.7	123.9	109.0	96.46	84.60	75.15	65.01	57.25	49.58	43.34	39.56	56.75	184.3	487.7	1119	3017	1456	24.16	7.187	6.005	5.216	4.808	4.558	4.426	4.431	4.562	4.584	4.082	4.354	4.352	4.098	4.093	3.941
520.0	278.3	444.8	661.1	867.5	1016	1127	1345	3632	4492	1231	1050	1046	989.9	896.7	782.0	672.5	597.5	548.9	529.5	508.1	490.2	493.2	514.8	533.5	544.3	544.0	536.3	533.0	529.7	532.1	510.4	478.7	439.5	400.1	365.1	328.8	298.9	267.0	240.3	216.2	193.3	171.4	155.3	143.3	133.7	118.9	105.0	93.37	82.99	72.61	63.77	56.43	48.38	42.67	36.59	36.30	61.02	124.7	276.8	1520	3407	912.7	19.00	6.023	4.846	4.286	4.321	4.010	4.079	3.887	4.001	3.698	3.689	3.659	3.787	3.534	3.484
525.0	239.4	403.8	581.3	742.4	917.7	986.9	1096	2025	5451	1855	935.3	920.5	878.0	788.4	686.4	590.6	524.2	482.2	465.6	444.2	429.7	432.6	449.8	467.0	475.3	474.9	471.4	463.9	462.0	461.5	447.3	415.7	386.4	353.7	324.1	295.1	265.9	241.5	216.6	197.4	177.2	158.1	142.4	133.2	124.0	115.4	101.7	89.38	79.88	69.83	62.18	55.13	47.92	41.72	35.19	31.27	33.42	44.20	75.06	385.6	2024	2542	227.2	13.01	5.004	4.196	4.062	3.631	3.659	3.268	3.443	3.530	3.363	3.355	3.273	2.944	3.061
530.0	210.5	338.8	497.7	627.1	785.0	846.7	899.0	1132	3643	4258	1003	783.2	739.2	663.2	577.0	499.3	446.5	407.1	390.1	375.8	360.3	362.9	373.3	387.9	396.3	398.1	390.8	385.1	386.2	382.5	372.4	350.5	324.4	300.0	273.9	250.8	229.0	207.9	189.3	171.5	155.0	140.4	128.2	118.5	111.1	104.5	96.30	82.90	74.10	65.88	58.95	51.85	45.17	39.77	34.24	29.48	26.68	25.60	29.49	96.26	505.0	1326	1794	905.1	18.60	4.807	3.880	3.543	3.496	3.190	3.205	3.121	2.990	2.977	2.803	2.856	2.657
535.0	171.6	288.5	411.3	509.1	632.1	732.7	739.1	793.4	1483	5237	1901	662.1	608.7	550.1	477.8	412.6	367.7	336.8	324.0	307.2	297.7	299.9	308.0	315.0	322.5	325.2	320.2	313.2	316.9	313.4	305.4	290.0	267.3	248.8	227.6	211.6	190.1	173.9	161.6	146.4	132.0	122.7	110.7	103.7	97.42	91.14	86.01	77.23	68.04	60.27	54.43	48.24	41.21	37.16	32.33	27.53	24.00	20.75	18.84	31.74	120.8	303.6	665.7	2119	1306	25.45	4.073	3.471	3.103	2.918	2.856	2.635	2.441	2.637	2.306	2.339	2.296
540.0	147.7	249.8	354.5	441.1	529.3	633.7	643.0	646.1	788.0	3498	4194	683.6	523.1	474.6	411.0	352.6	321.1	290.5	277.3	262.2	253.4	254.6	261.6	271.7	275.8	277.4	272.2	265.1	267.0	269.7	260.7	247.4	228.5	214.2	195.6	182.3	166.4	152.9	140.5	129.5	117.5	107.9	100.3	93.18	88.58	80.52	76.94	72.28	63.57	56.03	49.00	44.56	38.97	34.98	30.19	26.39	22.47	18.70	15.90	16.89	35.18	74.69	158.4	901.4	2202	882.0	19.32	3.426	2.980	2.584	2.502	2.507	2.296	2.161	2.087	2.138	2.038
545.0	128.1	215.6	308.9	383.6	448.5	536.5	584.1	536.5	557.6	1615	5339	1227	458.0	409.9	351.4	303.8	273.9	249.8	237.5	226.1	221.0	219.4	223.1	231.6	236.1	237.6	233.9	229.2	229.0	230.0	224.0	212.0	198.2	184.4	167.1	158.0	143.6	133.5	123.8	114.3	103.7	96.33	89.72	84.02	79.00	72.91	68.57	64.62	59.30	52.04	45.38	40.18	36.04	32.44	27.99	24.83	21.34	17.73	14.90	12.98	15.60	23.03	41.01	217.0	1078	1839	237.0	13.08	3.144	2.522	2.307	2.192	2.178	1.969	1.983	1.747	1.829
550.0	105.1	184.7	256.0	311.6	361.6	420.4	484.5	447.9	437.3	689.1	3303	3602	531.1	330.9	289.0	247.6	220.6	201.9	192.6	182.5	177.2	175.5	180.5	185.1	190.0	192.0	187.7	183.8	184.6	184.9	179.5	171.7	158.9	148.8	136.6	128.1	119.2	109.7	102.6	95.33	86.96	80.16	74.77	70.69	67.00	61.96	57.78	54.38	50.94	46.18	39.97	35.34	31.52	28.05	25.16	21.87	19.21	16.07	13.45	11.25	10.49	11.12	14.18	53.11	257.2	776.3	1298	676.6	19.57	3.089	2.166	2.020	1.854	1.660	1.658	1.565	1.594
555.0	92.15	161.9	225.0	252.5	292.7	328.2	383.3	385.0	339.0	398.5	1121	4625	1314	268.3	229.0	195.1	175.4	160.8	153.3	144.3	139.2	139.2	142.5	148.2	148.0	149.6	146.8	143.0	142.6	144.9	141.1	134.3	127.4	117.5	107.4	100.0	93.70	86.49	82.09	76.18	70.07	64.32	60.41	58.98	54.20	51.58	47.98	43.58	41.43	38.83	35.16	30.09	26.04	23.48	21.09	18.87	16.43	14.25	11.46	10.02	8.727	7.862	7.972	15.82	61.00	176.1	398.1	1076	1062	27.14	2.548	1.865	1.742	1.372	1.396	1.381	1.189
560.0	102.1	140.9	184.3	219.1	248.5	266.6	305.7	343.1	285.8	299.8	473.0	3009	3729	295.4	188.5	163.5	143.9	133.9	126.0	118.8	113.1	114.7	117.7	118.4	122.2	120.8	121.7	117.0	117.4	118.7	114.1	110.5	103.3	96.08	88.69	83.86	76.89	71.91	68.60	63.28	59.53	54.82	51.53	49.48	46.63	44.07	40.58	37.25	34.33	32.92	30.25	27.05	23.43	20.58	18.41	16.65	14.16	12.06	10.47	9.289	7.285	6.272	5.966	7.187	16.97	42.26	92.56	388.4	1419	676.7	21.50	1.938	1.667	1.398	1.192	1.171	1.092
565.0	88.24	118.7	169.1	185.8	207.2	226.8	243.0	310.7	261.9	247.0	292.0	1260	5193	726.0	161.1	136.5	119.5	109.7	105.4	98.33	95.49	94.61	96.81	98.18	100.6	99.57	100.5	97.61	98.26	96.89	95.75	91.53	85.83	80.15	74.72	70.03	65.17	61.33	57.82	53.89	49.41	46.70	44.01	41.85	40.42	38.42	35.07	32.29	29.93	27.82	25.82	24.44	20.66	17.77	16.54	14.39	13.09	10.68	9.145	8.223	6.767	5.733	5.051	4.961	7.027	12.11	23.13	91.36	597.8	1141	245.3	13.55	1.512	1.317	1.191	1.008	1.006
570.0	80.20	110.4	143.9	151.1	166.5	180.3	198.7	241.2	241.3	207.7	215.2	451.5	3284	2887	213.0	110.2	96.62	88.55	83.50	78.52	75.35	75.80	77.36	78.00	80.74	80.08	78.31	77.61	78.03	76.38	76.63	72.25	68.23	63.31	58.45	54.87	52.11	48.39	45.89	43.41	40.96	37.84	35.45	33.76	32.37	30.96	28.44	26.39	23.93	22.12	20.86	19.95	17.93	15.25	13.71	12.18	10.62	9.605	7.845	7.002	6.083	5.315	4.545	3.885	4.225	5.249	7.340	22.32	139.3	424.2	724.7	477.4	19.32	1.924	1.056	0.901	0.887
575.0	71.51	101.9	126.5	133.5	139.4	152.4	161.5	176.6	218.4	192.0	183.1	230.2	994.0	3934	809.3	91.75	77.75	69.67	64.63	61.82	58.45	58.27	59.76	60.60	61.76	61.47	61.26	59.35	59.10	59.73	58.22	55.22	53.14	48.56	46.27	43.02	39.68	37.79	35.74	34.02	32.01	29.88	28.09	26.72	26.16	25.03	22.86	21.37	19.41	17.80	16.44	15.85	15.05	13.22	11.58	9.970	8.709	7.988	6.942	5.735	5.098	4.702	4.114	3.630	3.168	3.302	3.604	6.746	32.97	96.39	196.4	597.8	591.5	27.21	1.515	0.944	0.930
580.0	68.08	92.34	121.6	124.5	123.9	124.4	137.5	145.8	180.6	185.6	164.3	172.4	335.2	2533	2402	105.9	64.11	57.90	54.51	52.25	48.98	49.20	49.34	49.76	51.47	51.52	49.17	48.05	48.96	49.12	47.64	46.14	43.32	40.28	38.80	34.93	32.75	31.57	30.10	28.43	26.44	24.48	23.78	23.17	21.81	20.69	19.54	17.87	16.45	15.36	13.59	12.98	12.06	11.78	9.951	8.822	7.943	6.925	5.701	5.126	4.466	4.252	3.886	3.406	3.107	2.701	2.753	3.307	8.879	22.90	45.53	192.1	637.8	263.1	21.77	1.115	0.908
585.0	64.93	85.00	108.5	110.8	108.0	113.0	121.2	123.2	147.5	183.4	157.4	152.6	175.1	979.4	3430	362.2	54.96	49.67	45.90	43.62	40.79	41.97	41.49	41.47	43.68	41.86	40.92	41.01	40.75	42.00	40.01	38.61	36.76	33.76	32.14	29.03	28.28	26.49	25.06	23.83	22.27	21.00	20.19	19.29	18.34	17.70	16.65	15.52	14.00	12.79	12.15	11.10	10.38	10.27	8.918	7.741	6.766	6.016	5.092	4.852	4.105	3.594	3.522	3.204	2.878	2.498	2.386	2.354	3.329	6.412	11.34	44.69	231.6	616.0	237.0	13.58	1.027
590.0	57.67	80.73	99.17	102.4	93.53	94.12	102.5	105.8	119.5	168.5	155.9	135.3	130.6	303.3	2172	1593	75.06	40.99	37.93	34.40	33.13	33.26	33.31	33.97	34.57	33.49	32.71	32.88	32.18	33.23	32.05	31.17	29.29	27.25	25.64	23.26	22.59	21.29	20.58	18.88	17.64	16.73	16.46	15.59	15.04	14.36	13.38	12.81	11.63	10.73	9.569	9.003	8.139	7.988	7.517	6.952	5.789	5.139	4.346	3.947	3.532	3.037	2.763	2.774	2.737	2.263	2.064	1.904	2.015	2.729	3.583	11.06	53.54	214.1	423.4	309.7	19.52
595.0	56.75	77.31	92.75	91.58	74.92	74.30	89.65	89.18	107.9	136.9	161.5	130.4	110.9	131.9	628.2	2637	554.5	35.29	29.78	27.35	25.52	26.52	26.21	26.63	27.36	26.49	25.80	25.19	25.85	25.49	24.57	24.53	22.93	21.11	19.75	18.41	17.37	16.74	16.10	14.83	14.17	13.32	12.92	12.20	11.84	11.66	10.55	10.09	9.383	8.295	7.762	7.187	6.625	6.225	6.008	5.942	4.851	4.420	3.638	3.418	2.822	2.476	2.390	2.370	2.381	2.157	1.832	1.731	1.678	1.634	1.715	3.301	12.77	48.43	108.9	306.7	447.9
600.0	47.65	71.56	85.89	85.68	67.45	69.09	80.75	84.60	95.55	115.8	162.0	133.7	105.8	93.43	191.2	1816	1889	49.99	25.40	23.62	21.49	21.36	22.74	22.43	22.68	21.58	21.54	21.07	21.62	21.36	20.38	20.76	17.99	17.86	16.56	15.63	14.62	13.97	13.04	12.05	11.76	10.78	10.37	10.21	9.755	9.455	8.697	8.464	7.934	6.895	6.573	6.050	5.491	5.058	4.739	4.983	4.644	3.814	3.064	2.888	2.587	2.250	1.938	1.972	2.053	1.956	1.737	1.632	1.421	1.311	1.470	1.692	3.702	11.50	25.00	93.72	473.6
605.0	48.06	71.20	91.07	75.55	68.48	68.19	79.86	84.24	96.48	117.8	160.2	153.8	114.3	91.59	93.26	727.0	2917	206.8	22.34	20.40	18.76	18.38	18.41	18.75	19.08	18.61	18.40	17.97	18.27	17.48	17.27	16.97	15.28	15.20	13.50	13.04	12.10	11.15	10.88	10.10	9.536	8.998	9.028	8.572	8.624	7.814	7.450	7.058	6.653	6.260	5.707	4.930	4.546	4.188	3.933	4.037	4.046	3.579	2.913	2.626	2.477	2.058	1.931	1.899	1.953	1.832	1.898	1.590	1.447	1.186	1.398	1.211	1.465	3.206	6.274	21.71	172.5
610.0	52.70	70.00	83.37	75.84	66.99	68.65	79.55	90.45	107.3	131.8	168.8	188.6	144.5	106.8	88.29	225.0	2061	1217	38.21	16.81	16.03	15.42	14.67	15.33	15.49	15.08	14.51	14.76	14.42	14.33	13.91	13.20	12.24	11.71	10.54	10.22	9.829	9.048	8.582	8.202	7.794	7.502	7.048	6.725	6.833	6.300	5.890	5.869	5.393	4.841	4.549	4.073	3.784	3.420	3.325	3.267	3.414	3.180	2.730	2.329	2.082	1.813	1.838	1.802	1.764	1.690	1.796	1.696	1.483	1.314	1.328	1.135	1.100	1.492	2.077	5.410	39.76
615.0	53.05	67.15	76.09	73.35	64.30	66.72	75.01	94.92	104.7	136.7	161.0	190.3	164.3	114.9	89.36	98.97	643.8	2200	300.9	15.05	12.50	12.22	12.44	12.52	12.28	11.85	11.25	11.57	10.86	11.10	10.56	9.962	9.519	9.028	8.258	8.210	7.306	7.470	6.906	6.658	6.198	5.541	5.496	5.440	5.387	5.209	4.843	4.533	4.176	3.978	3.570	3.356	3.046	2.710	2.805	2.595	2.625	2.429	2.394	2.142	1.714	1.606	1.660	1.566	1.531	1.475	1.475	1.662	1.467	1.367	1.278	1.126	0.984	1.105	1.046	1.796	9.502
620.0	54.17	68.31	77.96	75.89	60.69	62.37	72.74	88.80	102.7	129.3	152.2	178.9	170.0	115.8	87.18	70.31	196.7	1670	993.8	19.28	11.21	10.25	10.36	10.29	10.22	9.443	9.270	9.770	9.029	9.302	8.752	8.321	8.074	7.541	6.964	6.520	6.310	5.947	5.850	5.312	5.126	4.948	4.325	4.433	4.249	4.192	3.793	3.843	3.664	3.185	3.085	2.912	2.533	2.426	2.242	2.061	2.085	2.202	2.082	1.953	1.694	1.545	1.511	1.379	1.386	1.437	1.264	1.294	1.466	1.327	1.161	1.077	0.861	0.968	0.856	0.905	2.678
625.0	56.20	63.20	76.82	69.61	60.04	56.79	68.25	85.03	101.2	119.2	143.6	162.4	174.6	121.0	87.09	62.99	84.21	711.8	1666	60.79	10.54	9.490	9.380	8.439	8.642	8.011	8.151	8.146	8.227	7.886	7.524	7.136	6.799	6.531	5.906	5.750	5.182	4.876	4.734	4.559	4.406	4.214	3.758	3.781	3.618	3.567	3.182	3.187	3.018	2.716	2.706	2.263	2.131	2.182	1.910	1.932	1.735	1.827	1.667	1.789	1.479	1.327	1.398	1.326	1.414	1.275	1.176	1.154	1.256	1.334	1.111	1.032	1.089	0.876	0.805	0.757	1.157
630.0	52.64	64.20	80.09	66.18	57.75	57.59	63.94	83.51	96.69	116.8	141.8	154.4	163.6	128.2	88.73	61.81	60.20	198.9	1267	742.5	19.57	7.729	7.660	7.331	7.361	6.879	6.974	6.706	6.487	6.272	6.242	5.958	5.476	5.025	4.834	4.310	4.242	3.891	3.691	3.589	3.471	3.268	2.920	3.029	2.822	2.753	2.669	2.634	2.409	2.194	2.086	1.936	1.753	1.709	1.630	1.683	1.509	1.497	1.415	1.507	1.375	1.241	1.168	1.262	1.152	1.120	1.074	1.112	1.147	1.185	1.026	0.981	0.929	0.768	0.786	0.680	0.708
635.0	54.19	77.28	80.26	65.88	56.62	56.74	65.11	80.06	91.43	117.3	136.6	154.7	156.7	141.1	94.05	64.51	56.10	68.87	395.7	1418	67.00	7.475	6.570	6.327	6.076	5.531	5.352	5.675	5.215	5.546	4.916	4.584	4.492	4.079	3.928	3.568	3.234	2.995	2.820	2.899	2.659	2.528	2.558	2.497	2.160	2.295	2.097	2.128	1.906	1.692	1.524	1.520	1.520	1.271	1.301	1.239	1.236	1.213	1.149	1.120	1.232	1.187	1.113	1.174	1.128	0.975	1.079	0.967	1.024	1.030	0.958	0.977	0.963	0.720	0.743	0.664	0.624
640.0	58.20	84.40	81.14	65.65	56.58	54.79	65.16	80.87	88.28	119.0	140.4	154.7	153.2	144.6	106.3	66.89	55.96	39.88	108.1	1161	493.3	10.28	6.139	5.939	5.149	4.982	4.667	4.979	4.602	4.568	4.317	4.183	3.898	3.202	3.199	3.124	2.556	2.431	2.507	2.352	2.187	2.186	2.093	1.898	1.790	1.906	1.914	1.765	1.702	1.406	1.347	1.291	1.362	1.093	1.134	1.140	1.016	1.077	0.937	0.985	0.993	1.115	1.071	1.127	1.007	0.992	1.004	1.064	1.054	1.029	0.956	1.084	0.993	0.719	0.743	0.674	0.586
645.0	62.96	90.81	89.42	69.72	57.49	51.70	58.06	77.07	91.80	112.6	139.5	153.0	150.3	141.7	114.2	70.06	56.54	33.69	37.36	542.4	1251	42.60	5.616	4.879	4.571	4.342	4.357	4.332	3.788	3.951	3.759	3.773	3.219	3.186	2.797	2.474	2.306	2.175	1.871	1.955	1.841	1.813	1.687	1.604	1.608	1.656	1.596	1.450	1.453	1.258	1.188	1.194	1.090	1.046	0.995	0.995	0.904	0.877	0.948	0.840	0.878	1.013	1.004	1.035	0.955	0.957	0.880	1.099	0.958	1.130	0.994	0.949	1.005	0.766	0.781	0.624	0.614
650.0	71.23	95.09	106.0	79.45	63.21	51.83	64.32	78.33	85.68	109.3	134.5	150.8	149.8	136.0	117.1	72.69	54.56	32.07	20.80	163.9	1368	282.2	6.102	4.731	4.214	3.860	3.983	3.709	3.639	3.450	3.169	3.249	2.872	2.551	2.346	2.037	2.150	1.848	1.775	1.830	1.660	1.463	1.563	1.409	1.449	1.255	1.374	1.339	1.240	1.172	0.980	1.047	1.005	0.974	0.945	0.897	0.773	0.804	0.886	0.805	0.866	0.916	0.964	0.937	0.920	0.962	0.902	0.964	1.052	0.995	0.816	0.911	0.926	0.904	0.760	0.673	0.662
