Sample:	'1
File name:	w091907Œ‘¿«πµ«≈.FD3
Run date:	'09:24:01, 09/20/2024
Operator:	horiz
Comment:	'

Instrument
Model:	F-2700 FL Spectrophotometer
Serial number:	23B8-004
ROM Version:	4J14000 07

Instrument parameters
Measurement type:	3-D scan
Data mode:	Fluorescence
EX  Start WL:	220.0 nm
EX  End WL:	600.0 nm
EX Sampling interval:	5.0 nm
EM  Start WL:	230.0 nm
EM  End WL:	650.0 nm
EM Sampling interval:	5.0 nm
Scan speed:	12000 nm/min
EX Slit:	5.0 nm
EM Slit:	5.0 nm
PMT Voltage:	700 V
Response:	Auto 
Corrected spectra:	Off
Contour interval:	50.000

Peak integration
Integration method:	Rectangular
Sensitivity:	1
Threshold:	1.000

Peaks
No.	ApexEX/EM(nm)	Height(Data)
1	230.0/340.0	3039
2	235.0/590.0	63.46
3	235.0/625.0	49.46
4	240.0/375.0	2792
5	255.0/560.0	208.5
6	260.0/575.0	181.8
7	265.0/585.0	179.7
8	270.0/300.0	2036
9	270.0/600.0	173.1
10	275.0/310.0	2282
11	275.0/610.0	159.9
12	280.0/340.0	3043
13	280.0/625.0	133.8
14	475.0/350.0	10.95
15	505.0/275.0	3.449
16	550.0/305.0	11.67
17	565.0/340.0	15.61

Wavelength data
No.	EX/EM(nm)	Height(Data)	

Data points
	220.0	225.0	230.0	235.0	240.0	245.0	250.0	255.0	260.0	265.0	270.0	275.0	280.0	285.0	290.0	295.0	300.0	305.0	310.0	315.0	320.0	325.0	330.0	335.0	340.0	345.0	350.0	355.0	360.0	365.0	370.0	375.0	380.0	385.0	390.0	395.0	400.0	405.0	410.0	415.0	420.0	425.0	430.0	435.0	440.0	445.0	450.0	455.0	460.0	465.0	470.0	475.0	480.0	485.0	490.0	495.0	500.0	505.0	510.0	515.0	520.0	525.0	530.0	535.0	540.0	545.0	550.0	555.0	560.0	565.0	570.0	575.0	580.0	585.0	590.0	595.0	600.0
230.0	12.70	358.8	1110	456.9	27.18	6.622	5.876	5.149	4.798	4.407	4.737	4.631	4.385	4.148	3.426	2.957	2.843	2.600	2.462	2.203	2.008	1.848	1.753	1.811	1.524	1.487	1.273	1.264	1.230	1.153	1.021	0.890	0.925	0.801	0.760	0.763	0.720	0.599	0.611	0.548	0.515	0.458	0.476	0.448	0.442	0.379	0.591	1.923	4.144	4.160	1.980	0.627	0.307	0.294	0.254	0.267	0.240	0.265	0.203	0.218	0.197	0.204	0.194	0.188	0.197	0.151	0.156	0.144	0.140	0.111	0.132	0.140	0.144	0.140	0.102	0.156	0.106
235.0	19.44	117.2	1099	2897	526.3	69.62	8.391	6.594	5.442	5.044	5.077	5.081	4.828	4.414	3.365	3.109	3.139	2.768	2.683	2.415	1.928	1.820	1.843	1.851	1.519	1.491	1.463	1.509	1.271	1.053	0.998	1.019	0.896	0.883	0.771	0.659	0.765	0.635	0.742	0.477	0.460	0.500	0.560	0.409	0.517	0.407	0.446	0.764	2.067	4.865	9.796	13.10	7.187	1.464	0.332	0.281	0.263	0.267	0.228	0.257	0.197	0.171	0.223	0.227	0.179	0.170	0.153	0.166	0.145	0.163	0.178	0.136	0.118	0.099	0.087	0.134	0.140
240.0	37.51	46.78	394.2	3194	4117	454.4	45.56	9.788	7.217	6.488	6.199	5.476	4.885	5.104	3.938	3.631	3.000	2.766	2.747	2.361	2.235	1.740	1.756	1.786	1.548	1.444	1.379	1.532	1.269	1.093	1.015	0.977	0.934	0.811	0.930	0.734	0.729	0.658	0.641	0.491	0.533	0.486	0.495	0.442	0.446	0.493	0.408	0.511	0.792	1.746	5.971	18.24	25.80	18.66	7.226	1.116	0.323	0.388	0.267	0.266	0.242	0.204	0.248	0.186	0.217	0.218	0.204	0.178	0.128	0.169	0.139	0.154	0.144	0.134	0.144	0.155	0.118
245.0	33.47	57.09	119.7	1243	5873	3703	363.6	23.03	9.969	8.119	7.878	6.342	5.906	4.546	4.355	3.721	3.314	2.980	2.809	2.547	2.290	2.055	2.022	1.819	1.907	1.507	1.421	1.581	1.303	1.134	0.991	1.064	0.961	0.856	0.896	0.863	0.666	0.642	0.677	0.565	0.484	0.504	0.621	0.511	0.495	0.549	0.495	0.524	0.489	0.736	1.715	6.298	18.76	35.38	28.33	18.36	5.426	0.593	0.358	0.338	0.284	0.209	0.258	0.230	0.200	0.213	0.257	0.186	0.203	0.179	0.158	0.126	0.225	0.141	0.131	0.171	0.116
250.0	26.97	59.22	124.8	340.2	2000	5994	6903	1379	99.90	13.82	11.26	10.00	7.194	5.946	4.856	4.022	3.715	3.168	3.148	2.633	2.187	2.285	2.196	1.866	1.957	1.638	1.527	1.527	1.451	1.244	1.103	1.138	0.983	0.879	0.824	0.771	0.732	0.661	0.704	0.610	0.550	0.585	0.590	0.507	0.499	0.521	0.534	0.511	0.737	0.768	0.834	1.716	4.715	11.54	21.61	36.54	41.33	43.95	15.17	5.987	0.706	0.292	0.258	0.254	0.221	0.285	0.205	0.197	0.253	0.221	0.200	0.182	0.204	0.154	0.142	0.131	0.156
255.0	29.55	32.70	108.4	238.6	515.2	1559	6688	9999.9	2001	122.8	18.12	12.14	8.981	7.997	5.881	5.041	4.350	3.897	3.644	2.718	2.525	2.485	2.253	2.267	2.228	2.150	1.724	1.732	1.570	1.400	1.317	1.141	1.221	0.928	0.867	0.772	0.722	0.747	0.680	0.665	0.704	0.625	0.637	0.511	0.594	0.541	0.530	0.421	0.611	0.748	1.157	1.338	1.464	2.952	5.212	8.892	16.43	45.18	79.85	81.04	23.78	6.837	0.619	0.395	0.344	0.256	0.248	0.246	0.244	0.190	0.245	0.227	0.266	0.169	0.161	0.155	0.207
260.0	32.61	30.25	51.25	200.5	297.5	402.5	2053	9999.9	9999.9	1597	81.08	17.40	12.32	9.295	7.713	5.749	4.878	4.266	3.758	3.225	2.995	2.601	2.510	2.570	2.033	2.153	1.792	1.948	1.663	1.428	1.348	1.235	1.277	1.075	0.906	0.881	0.732	0.687	0.785	0.719	0.656	0.529	0.663	0.619	0.592	0.527	0.558	0.427	0.493	0.542	0.792	1.376	1.631	1.352	1.622	2.405	4.066	12.00	34.27	76.93	108.3	31.88	19.76	3.521	0.484	0.335	0.275	0.339	0.287	0.221	0.245	0.265	0.264	0.221	0.153	0.180	0.223
265.0	37.07	32.42	35.95	107.6	299.7	242.7	508.9	3559	9999.9	9999.9	1198	46.00	17.10	12.30	9.430	7.011	5.889	4.778	3.982	3.320	3.252	2.976	2.781	2.156	2.238	2.213	1.830	2.241	1.790	1.574	1.617	1.425	1.253	1.036	0.911	0.933	0.853	0.771	0.836	0.763	0.608	0.656	0.725	0.618	0.568	0.646	0.640	0.461	0.539	0.478	0.452	0.921	1.584	2.070	1.661	1.057	1.475	3.090	8.320	22.02	58.27	101.7	128.9	30.09	14.45	1.491	0.435	0.344	0.336	0.271	0.249	0.350	0.306	0.260	0.214	0.174	0.207
270.0	48.86	48.45	44.72	53.12	158.2	330.2	318.8	876.9	3804	9999.9	9999.9	4510	84.46	21.07	13.93	10.25	7.523	5.975	4.931	4.178	3.972	3.425	2.838	2.720	2.698	2.279	2.000	2.249	1.936	1.712	1.716	1.474	1.448	1.204	1.037	0.918	0.897	0.854	0.857	0.792	0.713	0.717	0.679	0.678	0.728	0.654	0.629	0.548	0.544	0.522	0.471	0.597	0.743	1.221	1.840	2.011	1.938	1.643	2.435	5.454	13.97	29.24	62.41	92.02	124.6	97.32	65.67	10.36	1.870	0.465	0.459	0.381	0.396	0.335	0.316	0.328	0.250
275.0	92.24	96.96	91.92	70.95	91.08	199.2	471.5	454.4	994.2	2676	9999.9	9999.9	6286	102.5	23.57	14.07	11.00	8.462	6.423	5.464	4.359	3.768	3.436	3.093	2.950	2.464	2.170	2.619	2.043	1.921	1.827	1.614	1.505	1.487	1.328	1.096	1.016	0.946	1.007	0.868	0.824	0.744	0.816	0.741	0.771	0.704	0.774	0.782	0.755	0.649	0.631	0.695	0.611	0.768	0.984	1.312	2.167	3.449	2.738	2.273	4.070	7.431	14.93	21.84	36.18	75.57	162.2	191.1	30.92	15.25	1.376	0.494	0.534	0.427	0.370	0.385	0.303
280.0	132.8	171.4	162.1	136.0	129.9	180.3	395.4	653.7	479.2	896.5	3238	9999.9	9999.9	1044	76.34	20.84	14.84	9.562	7.803	6.198	5.149	4.694	3.906	3.319	3.066	2.689	2.432	2.704	2.129	2.017	2.065	1.939	1.613	1.410	1.464	1.405	1.261	1.143	1.096	0.877	0.779	0.851	0.901	0.783	0.867	0.945	0.969	0.940	0.992	0.858	0.872	0.976	0.834	0.902	1.043	1.140	1.610	2.573	3.872	3.742	2.975	3.309	4.906	6.617	9.927	19.91	54.17	132.5	198.2	186.9	27.12	9.107	0.804	0.627	0.530	0.453	0.404
285.0	171.8	245.3	265.3	223.6	204.1	234.9	327.7	672.7	764.6	667.1	1238	4215	9999.9	9999.9	797.9	51.05	20.36	12.72	9.668	7.833	6.187	5.124	4.130	3.977	3.348	3.052	2.647	2.883	2.335	2.230	2.117	2.001	1.841	1.715	1.549	1.481	1.347	1.288	1.097	1.080	0.873	0.887	0.948	1.013	1.077	1.138	1.067	1.175	1.351	1.197	1.038	1.264	1.166	1.284	1.353	1.357	1.586	1.874	2.792	4.123	4.556	3.960	3.463	3.758	4.920	7.402	14.71	34.74	79.64	175.3	223.0	160.0	22.33	4.263	0.744	0.663	0.573
290.0	237.5	385.7	429.9	363.7	324.8	344.7	397.3	569.5	952.7	1133	1115	1702	4328	9999.9	9999.9	3272	61.71	21.87	14.29	10.45	7.857	6.238	5.333	4.574	4.135	3.618	3.293	3.214	2.723	2.453	2.240	2.152	1.960	2.032	1.716	1.509	1.426	1.490	1.285	1.114	0.993	1.058	1.023	1.098	1.197	1.419	1.378	1.679	1.810	1.645	1.465	1.794	1.674	1.667	1.776	1.850	2.029	2.252	2.604	3.152	4.235	5.335	6.219	6.267	5.341	6.034	7.150	11.60	21.48	45.66	82.37	135.2	175.4	132.9	113.6	15.25	5.139
295.0	276.1	477.5	575.7	502.4	451.1	463.2	521.3	628.3	892.9	1431	1655	1447	1756	2827	9999.9	9999.9	4590	72.33	24.09	15.45	11.61	8.314	6.820	5.641	4.720	4.479	3.825	3.392	2.934	2.850	2.697	2.164	2.139	2.062	1.928	1.691	1.429	1.488	1.364	1.397	1.088	1.043	1.120	1.150	1.212	1.490	1.750	1.879	2.261	2.218	1.941	2.252	2.147	2.144	2.230	2.357	2.732	2.773	3.062	3.385	3.979	4.808	6.059	8.163	9.015	8.579	7.171	7.733	9.743	14.17	21.67	32.63	44.23	68.96	176.6	252.3	185.4
300.0	316.6	531.5	666.2	613.3	558.1	545.2	633.9	758.0	973.2	1393	2036	1700	1381	1218	2980	9999.9	9999.9	3458	58.55	22.02	15.48	10.81	8.440	6.545	5.663	5.022	4.186	3.961	3.387	3.339	2.975	2.404	2.422	2.188	1.886	1.845	1.569	1.552	1.599	1.271	1.327	1.062	1.266	1.180	1.375	1.598	1.835	2.336	2.552	2.617	2.446	2.576	2.617	2.604	2.802	2.876	3.307	3.282	3.671	4.002	4.656	5.260	6.082	7.312	9.296	10.63	10.29	8.400	8.283	8.181	8.919	10.52	12.60	17.81	48.69	123.8	241.7
305.0	335.7	576.7	752.8	698.0	635.1	656.3	743.9	890.3	1120	1487	2028	2268	1518	1057	1121	3620	9999.9	9999.9	554.1	44.83	19.96	13.35	9.834	8.381	6.517	5.613	4.537	4.689	3.863	3.599	3.041	2.672	2.382	2.439	2.046	1.795	1.670	1.697	1.516	1.262	1.359	1.231	1.242	1.260	1.404	1.683	2.008	2.422	2.804	2.661	2.545	2.816	2.886	2.887	3.054	3.084	3.735	3.911	4.322	4.680	5.471	6.301	6.730	7.692	9.177	10.26	11.67	11.67	10.15	8.183	6.920	6.775	6.571	6.871	13.11	30.48	74.47
310.0	332.9	612.7	803.0	776.7	721.7	749.6	863.0	1031	1257	1606	1978	2282	2111	1340	893.5	1187	3791	9999.9	9999.9	2368	49.40	21.61	13.82	10.77	7.983	6.792	5.756	5.443	4.435	4.086	3.296	2.815	2.569	2.509	2.336	1.997	1.901	1.791	1.639	1.430	1.402	1.287	1.332	1.349	1.447	1.692	2.010	2.724	3.012	2.833	2.770	3.230	3.259	3.373	3.384	3.642	4.080	4.492	4.772	5.272	5.892	6.546	7.360	8.382	9.016	10.18	10.54	11.60	11.88	11.15	9.347	7.210	6.307	5.503	6.025	9.263	18.82
315.0	378.2	683.2	920.5	849.1	813.7	821.6	954.3	1135	1369	1719	2052	2242	2222	1891	1070	783.3	1179	2566	9999.9	9999.9	3661	58.79	22.44	14.73	11.10	8.489	6.882	6.041	5.114	4.526	3.792	3.682	2.945	2.660	2.538	2.158	2.075	1.911	1.655	1.467	1.499	1.460	1.469	1.457	1.469	1.782	2.317	2.978	3.378	3.269	3.023	3.548	3.614	3.787	3.752	4.182	4.665	4.886	5.282	5.687	6.413	6.932	8.183	8.894	9.458	10.71	10.54	11.43	11.29	11.36	11.86	10.60	8.420	6.310	5.401	5.363	7.026
320.0	456.5	973.4	1196	1080	913.0	889.8	1054	1258	1513	1870	2237	2425	2344	2146	1556	878.9	702.9	848.2	2783	9999.9	9999.9	2856	49.25	20.48	14.25	9.969	8.299	7.467	5.764	5.059	4.222	3.951	3.263	2.949	2.617	2.220	2.225	1.960	1.973	1.475	1.652	1.634	1.566	1.547	1.801	2.267	2.792	3.959	4.516	4.230	3.734	3.967	3.983	3.989	4.072	4.438	5.206	5.696	5.846	6.477	7.132	7.702	8.850	9.629	10.49	11.14	11.75	12.27	12.09	11.82	11.64	11.90	11.89	9.342	6.874	5.734	5.195
325.0	579.9	1328	1879	1530	1109	1009	1154	1400	1671	2072	2458	2694	2597	2294	1947	1202	725.9	555.0	857.3	3516	9999.9	9999.9	439.4	38.66	18.95	12.95	9.805	8.602	6.493	5.499	4.765	4.389	3.401	3.154	2.891	2.277	2.294	2.096	2.199	1.648	1.649	1.600	1.669	1.851	2.084	2.613	3.734	5.397	6.572	6.064	5.088	5.105	4.731	4.629	4.653	4.878	5.549	5.963	6.425	6.864	7.951	8.713	9.573	10.49	11.52	12.02	12.86	13.33	13.79	13.09	13.13	12.67	12.92	12.03	9.529	7.508	5.811
330.0	668.3	1591	2417	2122	1508	1194	1273	1502	1792	2198	2616	2864	2821	2476	2035	1578	988.2	635.8	543.7	1048	3756	9999.9	9999.9	6622	43.31	20.49	13.52	11.45	7.911	6.983	5.417	4.924	3.871	3.421	3.112	2.634	2.362	2.234	2.257	1.817	1.774	1.739	1.797	1.891	2.237	3.038	4.141	6.254	7.818	7.758	7.195	7.330	6.402	5.817	5.445	5.495	6.010	6.436	7.196	7.346	8.376	9.282	10.08	11.14	12.08	12.68	13.63	13.95	14.46	14.47	14.21	13.21	12.98	11.73	10.62	10.03	8.689
335.0	748.3	1757	2777	2549	1866	1442	1424	1614	1903	2313	2718	3000	2971	2663	2172	1657	1349	880.6	607.6	603.2	1132	2604	9999.9	9999.9	3119	51.13	20.69	15.85	10.36	8.620	6.430	5.867	4.559	3.960	3.435	2.882	2.658	2.467	2.233	1.908	1.825	1.712	1.924	1.915	2.441	3.202	4.695	6.948	9.015	8.950	8.450	9.038	7.690	7.439	6.405	5.924	6.651	7.210	7.575	8.116	8.884	9.500	10.70	11.48	12.58	13.26	14.26	14.78	14.64	14.81	14.71	14.21	14.28	12.49	11.36	10.36	9.968
340.0	769.1	1821	3039	2816	2083	1609	1534	1712	1977	2372	2762	3039	3043	2763	2265	1726	1410	1142	749.8	591.3	622.2	865.9	2909	9999.9	9999.9	2449	43.04	20.28	13.69	9.611	7.930	6.287	4.910	4.436	3.793	3.133	2.803	2.410	2.501	2.101	1.996	2.091	1.878	2.155	2.457	3.179	4.861	7.496	9.521	9.521	9.194	10.15	8.788	7.823	6.991	6.687	7.268	7.676	7.957	8.445	9.019	9.911	11.10	11.52	13.03	13.68	14.16	14.69	14.65	15.61	14.72	14.73	14.68	13.07	11.59	10.70	9.439
345.0	750.1	1782	2991	2961	2323	1783	1660	1776	2024	2363	2720	2979	2987	2757	2302	1802	1409	1253	960.4	681.2	578.1	542.3	890.2	3686	9999.9	9999.9	383.3	36.13	17.16	11.93	8.812	7.035	5.384	4.748	3.734	3.192	3.012	2.690	2.556	2.076	1.971	1.868	1.971	2.129	2.424	3.239	4.606	7.170	9.172	9.630	9.601	10.75	9.694	8.917	7.930	7.292	7.976	8.043	8.109	8.820	9.182	10.33	11.36	12.04	12.39	12.98	13.73	13.83	14.25	15.28	15.09	14.45	14.45	12.99	12.58	11.19	9.605
350.0	664.5	1625	2772	2954	2504	2026	1853	1916	2104	2357	2653	2867	2872	2689	2312	1868	1488	1267	1144	913.3	690.3	567.8	520.2	1035	4002	9999.9	9999.9	6070	37.97	18.20	11.58	8.665	6.577	5.290	4.277	3.637	3.036	2.869	2.649	2.262	1.989	1.905	1.963	1.996	2.445	3.145	4.260	6.593	8.514	8.990	9.299	10.95	10.25	9.763	9.017	8.350	8.690	8.841	8.852	9.422	9.826	10.76	10.62	11.76	12.15	12.85	13.22	14.00	14.53	14.50	14.25	13.99	14.28	13.55	12.40	11.14	10.49
355.0	611.2	1451	2525	2894	2637	2263	2095	2108	2226	2422	2622	2763	2778	2621	2308	1923	1594	1350	1196	1128	896.8	676.1	525.7	509.7	1074	2541	9999.9	9999.9	2809	45.66	17.47	12.23	8.560	6.249	5.150	3.989	3.290	2.977	2.948	2.493	2.101	1.939	2.025	2.123	2.511	2.889	3.981	5.930	7.594	8.442	9.063	10.84	10.67	10.48	10.21	9.474	9.732	9.677	9.805	10.12	10.98	10.90	11.33	12.01	12.35	12.44	12.88	13.26	13.80	14.05	13.79	13.56	14.05	13.08	12.75	11.61	11.46
360.0	572.8	1330	2309	2794	2704	2398	2213	2246	2333	2448	2594	2694	2693	2554	2291	1967	1670	1437	1260	1166	1068	800.4	590.4	451.6	465.4	719.8	2930	9999.9	9999.9	2180	37.44	16.08	10.66	7.500	5.714	4.525	3.864	3.489	3.187	2.599	2.130	1.881	2.058	2.000	2.294	2.913	4.097	5.470	7.317	8.187	8.938	10.47	10.85	10.68	10.63	9.942	10.36	10.26	10.12	10.29	11.03	11.45	11.88	12.19	12.02	12.50	13.09	12.68	13.18	13.19	13.45	13.86	14.02	13.15	12.22	12.14	11.30
365.0	523.3	1211	2188	2691	2762	2503	2330	2303	2381	2482	2583	2628	2616	2505	2257	1980	1716	1501	1336	1196	1146	967.7	691.1	501.0	384.8	354.5	791.2	4159	9999.9	9999.9	349.9	30.20	14.33	9.566	6.684	5.433	4.437	3.682	3.489	2.951	2.239	2.264	1.987	2.097	2.296	2.715	3.722	5.346	6.727	7.594	8.649	10.56	10.62	10.69	10.81	10.42	10.63	10.56	10.50	10.73	11.38	11.50	12.09	11.87	12.37	12.46	12.66	12.84	12.48	12.80	13.53	13.18	13.59	12.88	12.75	12.00	11.86
370.0	481.5	1110	1992	2578	2744	2619	2420	2382	2436	2516	2567	2591	2537	2414	2210	1983	1758	1578	1427	1284	1182	1094	894.9	639.8	461.8	359.8	373.8	1077	4266	9999.9	9999.9	1544	33.27	15.04	9.509	6.953	5.413	4.317	4.071	3.103	2.450	2.347	2.117	2.276	2.320	2.704	3.499	4.910	6.304	7.076	8.040	10.43	10.98	11.15	11.27	10.93	11.39	11.07	10.95	11.21	11.83	11.89	12.11	12.31	12.41	12.45	12.13	12.27	12.57	12.77	12.77	12.59	12.99	12.59	12.57	12.04	11.79
375.0	434.9	958.4	1821	2461	2792	2681	2501	2442	2473	2524	2558	2561	2449	2318	2154	1957	1783	1643	1501	1375	1258	1155	1065	845.3	619.9	475.6	369.8	440.8	1088	2614	9999.9	9999.9	2385	38.18	14.60	9.904	7.203	5.030	4.614	3.533	2.727	2.790	2.391	2.393	2.534	2.452	3.463	4.452	5.787	6.650	7.598	10.07	11.37	11.26	11.54	11.35	11.60	11.18	11.54	11.57	11.77	12.04	12.22	12.20	12.19	12.11	12.74	12.40	11.90	12.77	12.25	12.24	12.59	11.99	11.81	11.80	11.74
380.0	409.7	917.3	1714	2395	2733	2683	2525	2466	2448	2492	2492	2492	2386	2246	2097	1922	1771	1656	1539	1421	1302	1187	1084	976.5	737.4	560.7	422.6	344.6	418.4	708.2	3089	9999.9	9999.9	1783	30.86	12.78	8.837	6.218	5.368	4.091	3.172	2.750	2.560	2.359	2.438	2.524	3.221	4.289	5.422	6.371	7.376	9.530	10.86	11.12	11.32	11.42	11.45	11.17	11.60	11.55	11.72	12.11	12.13	12.03	12.41	11.59	11.81	11.97	11.92	12.07	11.92	12.06	11.86	12.19	11.97	11.73	11.62
385.0	372.0	854.1	1610	2299	2664	2663	2513	2409	2402	2419	2420	2411	2324	2185	2044	1882	1752	1647	1547	1441	1338	1220	1096	1014	859.8	640.2	480.4	375.8	312.2	315.3	811.6	4124	9999.9	9999.9	281.0	23.15	11.35	7.895	6.263	4.354	3.482	2.893	2.527	2.476	2.562	2.610	3.285	4.066	5.402	5.868	7.020	9.414	10.48	11.37	11.45	11.08	11.22	10.91	11.54	10.84	11.15	11.43	11.43	11.72	11.98	11.43	11.41	11.78	11.63	11.48	11.56	11.20	11.63	11.59	11.75	11.50	11.36
390.0	349.2	780.6	1479	2177	2556	2598	2456	2345	2324	2327	2313	2296	2218	2094	1968	1828	1722	1640	1549	1463	1377	1277	1171	1061	967.4	825.2	626.2	483.7	379.7	305.9	350.4	1048	4093	9999.9	9999.9	1224	26.86	11.42	8.356	5.551	4.218	3.451	2.985	2.743	2.745	2.697	3.122	3.948	5.098	5.545	6.706	8.773	9.833	10.65	11.00	10.69	11.19	11.02	11.31	11.10	11.21	11.14	11.21	11.32	11.27	10.85	10.86	11.14	11.11	11.27	11.04	11.07	11.22	11.07	11.38	11.31	11.39
395.0	338.7	735.9	1386	2048	2433	2505	2402	2307	2260	2248	2235	2192	2113	2012	1888	1772	1685	1618	1552	1483	1416	1350	1262	1161	1065	986.3	830.7	640.4	508.6	396.4	321.5	403.9	1026	2569	9999.9	9999.9	1960	31.72	12.24	7.339	5.397	4.248	3.605	3.209	2.907	2.988	3.209	3.703	4.978	5.480	6.415	8.914	9.599	10.34	10.82	10.35	11.23	10.98	11.23	10.98	10.98	10.78	11.06	10.81	10.71	10.66	10.48	10.98	10.77	10.60	10.56	10.40	10.96	10.93	10.77	10.92	10.80
400.0	323.3	692.6	1335	1967	2319	2458	2377	2262	2199	2170	2149	2120	2048	1946	1829	1712	1645	1583	1530	1482	1433	1382	1316	1229	1136	1050	960.6	779.2	611.4	479.7	365.8	297.8	368.3	667.2	2965	9999.9	9999.9	1497	25.77	9.439	6.541	5.144	4.051	3.493	3.035	3.124	3.237	3.895	4.899	5.414	6.095	8.565	9.556	9.825	10.60	10.36	11.14	10.48	10.69	10.65	10.77	10.41	10.67	10.47	10.48	10.45	10.08	9.935	10.25	10.42	10.46	10.38	10.48	10.13	10.12	10.41	10.52
405.0	287.0	681.4	1252	1881	2260	2410	2327	2216	2133	2089	2068	2048	1976	1880	1771	1661	1596	1547	1508	1468	1430	1394	1344	1269	1186	1095	1011	898.2	706.7	556.7	424.5	309.5	248.3	257.7	738.1	3698	9999.9	9999.9	254.8	17.60	8.637	5.705	4.631	3.646	3.439	3.285	3.237	3.860	4.827	5.114	5.690	7.993	9.047	9.371	10.19	10.20	10.82	10.59	10.52	10.26	10.30	9.955	9.942	10.21	10.00	9.629	9.405	9.818	9.848	9.797	9.703	9.862	9.698	9.918	9.992	10.27	10.64
410.0	288.6	613.0	1164	1741	2137	2293	2255	2153	2067	2020	1983	1948	1872	1791	1687	1580	1522	1481	1449	1427	1398	1381	1346	1297	1224	1144	1046	958.6	826.8	648.2	493.7	359.5	257.2	193.3	254.2	892.0	3633	9999.9	9999.9	1140	22.56	8.597	5.911	4.627	3.739	3.452	3.337	3.960	4.725	4.865	5.668	7.529	8.659	9.118	9.678	9.710	10.15	10.29	9.964	9.807	9.803	10.06	9.962	9.789	9.496	9.432	9.159	9.498	9.439	9.463	9.413	9.541	9.874	9.445	9.589	9.780	10.06
415.0	283.8	575.8	1095	1644	2046	2188	2172	2089	2001	1935	1900	1843	1776	1690	1591	1486	1426	1398	1380	1366	1356	1345	1335	1307	1250	1179	1086	985.6	896.4	758.7	565.0	410.9	293.4	204.9	165.8	271.0	859.9	2475	9535	9999.9	1755	27.31	8.808	5.778	4.847	3.776	3.787	4.090	4.598	4.689	5.493	7.161	8.261	9.065	9.211	9.362	9.840	10.06	9.701	9.592	9.578	9.479	9.483	9.718	9.471	8.838	9.026	8.905	9.139	8.645	8.873	9.268	9.341	9.137	9.160	9.239	9.497
420.0	261.8	567.3	1044	1556	1919	2097	2097	2036	1948	1892	1842	1782	1706	1619	1508	1415	1367	1333	1321	1311	1310	1312	1315	1298	1261	1195	1109	1007	912.6	814.8	632.6	450.1	322.9	223.7	160.8	142.9	247.6	594.5	2652	9999.9	9999.9	268.0	21.64	7.524	5.645	4.343	3.793	4.184	4.724	4.624	5.365	6.915	7.905	8.801	8.711	8.975	9.906	9.925	9.515	9.327	9.384	9.692	9.300	9.347	9.259	8.761	8.884	8.261	8.624	8.311	8.378	8.491	8.624	8.791	8.682	8.656	8.663
425.0	249.3	529.1	1009	1477	1841	2006	2029	1977	1902	1835	1789	1722	1637	1551	1443	1355	1301	1266	1265	1261	1260	1281	1288	1279	1249	1204	1117	1022	923.2	825.2	687.5	494.3	350.4	246.1	171.2	125.0	118.5	178.4	629.7	3233	9999.9	9999.9	237.9	15.26	7.257	5.171	4.371	4.163	4.557	4.550	5.234	6.831	7.837	8.512	8.553	8.754	9.294	9.264	9.282	9.178	9.020	9.042	8.942	8.865	8.811	8.414	8.584	8.210	8.108	8.275	8.357	8.371	8.361	8.345	8.091	8.382	8.330
430.0	251.5	488.1	938.9	1403	1733	1929	1956	1922	1849	1789	1731	1661	1569	1466	1365	1275	1228	1201	1191	1188	1196	1223	1239	1240	1226	1183	1116	1033	936.2	820.5	703.0	553.8	391.0	273.4	193.4	135.6	103.5	94.63	180.7	755.1	3133	9884	9999.9	1087	21.06	8.155	5.495	5.082	4.849	4.664	5.084	6.810	7.716	7.918	8.368	8.520	9.118	9.296	9.379	9.321	8.986	8.900	8.708	8.551	8.381	8.195	8.102	8.092	8.033	7.710	7.970	7.930	7.722	7.810	7.794	7.552	7.871
435.0	271.9	446.0	869.4	1284	1654	1816	1897	1882	1809	1742	1678	1593	1493	1393	1290	1197	1145	1118	1111	1112	1128	1147	1177	1189	1182	1150	1093	1024	935.8	824.6	697.7	572.1	440.1	302.5	216.2	154.0	113.5	86.88	89.20	202.4	724.4	2334	7207	9999.9	1777	26.75	7.988	6.149	5.347	5.209	5.278	6.817	7.174	7.713	7.999	8.540	8.983	9.211	9.208	9.079	8.580	8.898	8.452	8.110	8.397	7.862	7.594	7.603	7.567	7.552	7.459	7.558	7.751	7.472	7.081	7.172	7.562
440.0	310.1	419.8	818.0	1231	1571	1741	1829	1829	1794	1717	1645	1562	1431	1348	1235	1141	1094	1065	1056	1051	1069	1096	1122	1145	1142	1116	1065	1003	924.7	823.0	694.5	561.5	457.0	335.0	232.9	166.9	124.5	91.60	73.61	84.53	191.4	544.7	1933	9367	9999.9	1458	21.31	8.024	6.156	5.469	5.268	6.711	6.798	7.664	7.979	8.214	8.854	8.848	8.762	8.830	9.135	8.862	8.458	8.205	8.099	7.569	7.309	7.367	7.131	7.182	7.153	6.779	7.066	7.407	6.616	7.343	7.482
445.0	303.1	440.9	767.8	1159	1500	1655	1760	1774	1743	1667	1602	1498	1383	1286	1178	1087	1037	1016	999.2	999.8	1018	1036	1072	1095	1093	1077	1031	973.8	901.7	805.2	689.6	554.4	452.4	359.4	251.3	176.6	133.8	99.26	75.80	62.33	76.23	147.3	454.1	2777	9999.9	9999.9	215.5	17.92	7.433	5.907	5.570	6.884	6.905	7.861	7.536	7.917	8.411	8.369	8.847	8.615	8.660	8.717	8.125	8.066	7.748	7.524	7.438	7.482	6.947	7.321	7.111	6.567	6.916	6.739	6.715	6.787	7.110
450.0	254.4	552.9	739.1	1080	1381	1564	1640	1681	1638	1571	1511	1412	1292	1191	1088	1002	943.8	924.5	915.5	916.2	929.8	953.4	988.9	1008	1013	1006	970.5	921.7	858.8	775.9	665.3	540.1	433.2	352.7	274.9	194.3	145.0	110.1	83.67	64.91	55.68	62.69	125.4	641.6	2889	8728	9999.9	3193	20.13	8.367	6.466	7.027	7.055	7.275	7.333	7.444	8.082	8.199	8.462	8.122	8.330	8.140	8.064	7.857	7.770	7.401	7.111	7.016	6.643	6.501	6.714	6.503	6.226	6.363	6.250	6.140	6.205
455.0	188.9	638.6	891.1	1002	1252	1419	1528	1559	1532	1458	1406	1308	1197	1095	989.4	900.4	856.4	829.1	821.0	820.8	835.3	863.3	891.8	917.0	920.1	919.0	887.7	850.1	799.7	731.0	630.6	515.5	416.2	329.7	272.8	216.1	156.0	118.1	91.71	70.61	56.82	48.32	54.45	164.5	661.3	2023	5473	9999.9	1575	23.13	8.490	7.411	6.997	7.165	6.993	7.049	7.651	7.675	7.678	7.713	7.521	8.018	7.582	7.272	7.561	6.907	6.440	6.563	6.160	6.132	5.934	6.037	5.756	5.958	5.803	5.853	5.859
460.0	163.0	549.6	1163	987.1	1173	1333	1425	1461	1446	1376	1309	1220	1117	1012	909.9	826.5	782.8	760.5	751.2	752.7	767.7	792.2	811.7	839.6	847.9	845.1	823.8	794.9	748.9	686.0	596.9	493.1	397.8	318.5	258.7	219.9	169.5	123.2	95.57	75.66	58.82	47.04	41.07	60.01	166.1	467.5	1366	6900	9999.9	1277	20.23	9.021	7.467	7.246	7.034	7.133	7.119	7.542	7.245	7.332	7.299	7.251	7.026	6.786	7.057	6.716	6.152	6.059	5.793	5.693	5.414	5.410	5.346	5.526	5.231	5.341	5.333
465.0	148.8	394.4	1538	1279	1075	1224	1325	1369	1354	1297	1230	1150	1049	945.2	842.6	765.0	720.2	694.7	692.3	686.7	699.4	725.3	746.8	766.6	781.8	779.5	756.9	734.8	698.6	637.0	565.2	463.6	379.3	303.7	243.6	208.2	176.0	131.1	98.91	77.82	61.83	48.55	39.46	38.00	57.20	121.5	320.9	1861	8494	9399	1050	20.34	8.774	7.639	7.072	6.725	7.110	6.954	7.176	6.803	6.933	6.952	6.905	6.604	6.524	6.070	5.816	5.848	5.643	5.403	5.352	5.270	5.148	4.921	5.035	4.752	5.015
470.0	141.9	280.2	1205	2362	1235	1098	1190	1224	1226	1173	1119	1038	945.3	848.4	755.2	677.5	638.8	616.8	607.3	604.6	615.9	631.9	654.5	675.6	690.0	683.7	672.2	652.3	624.3	577.4	507.7	425.3	350.8	284.5	229.6	188.3	165.9	139.4	104.5	80.28	64.37	51.79	42.19	35.59	34.84	45.19	87.01	430.0	2228	6155	7462	2989	89.44	9.878	7.542	6.722	6.998	6.693	6.545	6.495	6.511	6.392	6.228	6.081	5.911	5.488	5.541	5.272	5.268	5.072	4.829	4.859	4.524	4.525	4.290	4.367	4.368
475.0	113.6	230.2	637.2	2773	2415	1013	1056	1082	1090	1042	1004	933.8	840.4	759.1	670.0	603.6	561.0	538.4	526.7	527.6	532.3	547.4	566.5	585.3	598.6	595.3	584.9	570.1	547.7	511.0	453.9	385.1	321.5	264.8	212.4	176.2	148.2	132.7	112.1	84.76	66.08	54.54	44.37	36.34	31.33	29.76	35.92	109.9	508.0	1395	3004	7721	1676	28.06	9.733	6.843	6.708	6.524	6.111	6.067	5.862	5.985	5.594	5.478	5.543	5.116	4.984	4.602	4.581	4.444	4.118	4.326	4.157	4.139	3.805	3.941	3.921
480.0	114.6	202.0	434.2	1969	3857	1236	956.1	998.0	1010	975.9	922.2	867.1	777.9	694.2	609.1	548.6	510.8	491.0	477.5	472.7	484.8	495.3	509.6	528.1	538.2	534.8	529.0	519.2	492.3	463.1	413.8	355.0	300.5	247.5	202.5	167.7	139.5	122.8	112.0	90.10	68.49	54.92	45.40	37.82	31.44	27.41	25.71	39.06	126.1	322.1	710.8	3642	7843	1584	25.45	8.805	6.984	6.566	6.091	5.876	5.359	5.459	5.165	5.142	5.260	4.905	4.457	4.204	4.097	4.174	3.978	3.744	3.819	3.845	3.459	3.652	3.849
485.0	107.5	196.0	356.9	1076	4439	2204	919.8	935.1	942.3	913.6	858.1	805.1	726.3	644.0	566.3	506.0	471.0	449.6	439.1	436.3	444.6	450.6	469.3	484.3	491.4	492.1	490.9	478.5	457.6	431.3	388.3	332.0	279.5	234.4	194.4	161.9	134.5	115.9	106.6	94.50	73.92	56.84	46.70	38.82	32.96	28.46	24.20	24.46	40.96	83.22	169.2	907.8	4981	7778	1292	21.44	8.135	6.801	6.097	5.804	5.338	5.160	5.043	4.946	4.823	4.487	4.392	4.190	4.114	4.025	3.661	3.688	3.727	3.536	3.455	3.291	3.542
490.0	95.65	194.6	331.3	630.6	2838	4391	1298	856.3	862.7	834.5	792.5	730.0	656.9	581.8	514.8	458.4	424.0	404.3	395.1	391.2	395.1	402.8	418.4	428.7	436.2	438.9	436.1	426.1	413.7	388.4	351.1	303.7	257.9	217.4	182.1	153.2	129.0	110.7	97.73	90.00	79.55	61.91	48.75	41.25	35.22	29.90	25.54	22.13	23.02	30.39	48.29	212.4	1234	4079	6386	3109	110.5	10.68	6.558	5.628	5.529	5.058	4.788	4.779	4.561	4.578	4.305	3.903	3.949	3.589	3.410	3.353	3.351	3.013	3.247	3.057	3.175
495.0	81.04	177.1	300.0	470.8	1161	4678	3033	827.5	774.4	747.5	701.7	653.2	585.4	523.2	460.3	408.8	373.3	358.2	349.0	343.9	341.6	352.8	364.6	374.8	382.1	383.3	379.3	374.1	362.3	344.3	314.1	272.8	233.0	196.5	166.6	140.6	121.4	104.9	91.12	80.90	75.85	67.10	52.75	42.50	36.63	30.96	26.81	22.30	20.02	19.51	21.54	57.20	284.2	922.0	2355	6992	4909	166.5	9.873	6.170	5.304	5.325	4.918	4.442	4.210	4.066	3.894	3.649	3.495	3.286	3.206	3.149	2.933	2.906	2.842	2.649	2.821
500.0	72.54	152.2	306.4	414.3	659.4	2967	5226	1117	716.8	681.6	654.4	604.5	532.5	472.1	416.9	370.2	338.2	322.7	311.6	310.0	309.0	313.9	324.9	335.1	345.2	342.0	339.7	334.7	324.4	307.3	286.0	247.8	214.5	182.6	153.5	132.2	114.7	100.5	87.11	75.54	68.84	66.45	55.38	43.12	36.57	31.78	27.24	22.75	20.57	17.45	16.28	22.54	72.76	214.5	548.6	2916	8142	1847	29.95	7.657	5.713	4.889	4.859	4.232	3.983	3.749	3.704	3.364	3.163	3.076	2.945	3.022	2.888	2.591	2.655	2.515	2.595
505.0	71.81	131.5	279.4	376.9	508.8	1421	5860	2199	656.3	630.8	601.3	551.1	477.8	432.2	376.2	337.0	308.5	292.8	282.5	276.4	277.1	286.1	293.1	297.2	307.3	305.5	305.1	302.2	290.6	280.6	256.4	226.5	196.5	166.4	142.3	124.4	107.1	93.38	82.67	72.22	62.89	61.22	58.09	44.60	36.38	31.81	28.02	22.93	20.55	17.53	15.13	15.38	25.52	56.51	131.2	699.0	4073	7248	1560	24.17	6.704	5.047	4.638	4.245	3.863	3.506	3.247	3.112	2.953	2.854	2.812	2.714	2.407	2.533	2.535	2.460	2.151
510.0	63.31	112.8	235.0	366.4	431.5	691.0	3531	4967	1039	559.4	534.3	486.8	430.3	379.1	333.4	296.1	268.4	254.6	245.3	242.5	242.7	246.4	252.3	258.5	264.1	263.2	260.9	260.1	251.2	243.5	223.1	198.1	171.7	148.1	127.5	111.2	97.59	85.10	76.01	66.33	59.02	53.77	52.53	47.52	38.74	31.80	27.14	23.50	19.74	17.31	15.65	13.81	14.98	21.18	37.47	164.0	973.2	3269	5406	3085	115.8	8.539	4.747	4.239	3.607	3.329	2.971	2.974	2.674	2.676	2.415	2.400	2.158	2.357	2.269	2.185	2.036
515.0	50.76	100.3	195.8	325.8	380.1	464.7	1258	5502	2340	527.8	461.5	430.8	371.9	330.3	287.0	258.2	231.7	219.0	211.7	206.8	205.6	210.6	213.1	217.7	221.1	222.7	223.0	218.6	213.4	206.2	191.3	169.9	148.9	128.1	111.7	98.75	86.47	77.20	68.56	60.08	54.62	47.69	44.37	44.96	40.62	32.28	26.55	22.79	19.69	17.42	15.40	13.97	12.89	13.64	16.56	44.17	224.4	736.8	1732	5297	3795	32.17	7.092	4.355	3.653	3.307	2.832	2.653	2.530	2.354	2.254	2.310	2.042	2.142	2.037	1.869	1.834
520.0	46.01	76.57	159.2	288.9	350.1	382.8	589.9	3530	5461	799.3	415.2	386.5	339.1	295.2	261.5	229.2	206.8	194.1	189.4	183.0	181.2	186.7	188.4	194.0	195.2	195.8	193.2	193.9	189.6	182.8	170.4	151.3	134.0	117.1	101.6	89.84	78.70	70.14	63.60	56.67	50.32	44.51	40.65	39.16	39.87	33.94	27.30	22.01	19.55	17.35	15.03	13.84	12.62	11.34	11.94	17.72	57.26	171.4	399.8	2075	5685	1777	28.49	5.417	3.712	3.413	2.749	2.710	2.291	2.180	2.152	1.910	1.881	1.791	1.663	1.852	1.563
525.0	42.61	71.02	146.9	237.3	346.9	353.2	408.0	1535	6762	1786	392.4	342.5	310.1	266.7	234.6	202.9	186.9	173.2	167.9	164.5	162.5	164.5	171.0	170.5	172.2	174.8	172.0	173.1	170.5	165.3	152.6	136.8	119.8	105.1	92.47	83.03	72.41	64.67	58.51	52.64	46.57	42.06	38.05	35.27	35.74	35.01	26.84	21.94	18.63	16.44	14.82	13.23	12.17	11.00	10.49	11.66	19.96	44.99	95.98	491.5	2673	5144	1430	22.02	4.685	3.504	2.696	2.489	2.273	2.006	1.936	1.771	1.775	1.734	1.566	1.588	1.499
530.0	46.14	61.42	122.7	186.9	305.0	330.0	322.2	611.5	4131	5321	748.7	305.0	264.8	233.8	202.2	176.5	162.3	150.7	144.0	141.8	139.9	140.6	145.2	145.2	149.2	148.0	147.4	146.6	145.1	142.1	129.9	117.8	103.4	91.37	81.02	71.72	63.79	57.17	52.05	47.27	42.19	38.16	34.11	31.55	30.62	30.59	27.71	21.88	17.93	15.55	14.01	12.75	11.52	10.93	10.28	9.704	11.19	16.49	27.34	115.6	632.6	2228	3776	1946	108.8	5.893	3.161	2.533	2.265	1.963	1.943	1.709	1.639	1.508	1.354	1.294	1.320
535.0	37.48	54.77	100.7	151.1	237.4	309.4	276.1	345.6	1323	6391	2816	288.8	228.1	201.7	173.6	153.3	137.9	129.4	122.6	121.8	118.4	120.2	120.4	121.7	123.4	122.6	124.0	120.9	121.5	118.9	108.6	98.98	87.60	76.90	70.42	61.82	55.33	50.31	45.13	40.63	37.34	33.19	30.34	28.13	25.57	25.28	25.18	22.78	17.88	14.83	12.82	11.41	10.75	10.30	9.696	9.335	8.887	9.582	11.70	30.73	145.6	501.4	1161	3633	1914	31.48	5.118	2.686	2.443	2.111	1.752	1.652	1.518	1.317	1.251	1.290	1.218
540.0	33.97	55.73	89.73	134.6	191.3	278.2	262.7	261.9	506.6	3952	5749	485.7	204.8	177.3	154.2	133.6	121.4	113.3	108.2	105.9	104.3	103.6	104.7	105.0	107.9	107.2	108.7	106.5	104.3	102.2	95.44	85.83	77.88	67.89	61.58	54.18	49.35	45.24	40.98	37.10	33.64	30.34	27.66	26.18	23.47	22.49	22.10	21.85	17.97	13.94	12.18	11.14	10.08	9.776	9.111	8.622	8.251	7.244	7.715	11.51	37.02	116.2	266.7	1390	3733	1641	26.95	3.531	2.566	2.032	1.598	1.471	1.505	1.278	1.292	1.076	1.097
545.0	36.13	51.72	86.22	124.2	168.4	240.2	253.7	230.3	290.1	1549	7126	1286	188.4	158.5	138.3	115.7	106.9	99.92	95.31	92.09	90.89	91.86	92.42	92.69	92.46	93.14	92.26	92.71	91.93	89.59	84.28	75.60	68.85	60.16	54.76	48.05	43.25	39.96	35.85	33.01	30.10	27.30	25.09	23.61	21.25	20.09	19.10	18.84	17.42	13.97	11.15	10.50	9.634	8.964	8.345	8.419	8.041	6.649	6.256	7.202	12.40	30.15	63.71	327.0	1735	3661	1199	19.88	2.990	2.108	1.580	1.410	1.538	1.260	1.242	1.028	1.095
550.0	31.81	45.86	73.05	104.9	136.1	182.8	244.4	201.0	213.4	517.5	4162	4816	424.0	135.9	115.8	97.62	90.29	84.23	78.36	77.00	75.83	74.25	75.25	76.75	77.37	75.85	76.32	76.54	74.50	73.96	69.30	63.02	55.37	49.94	45.05	40.37	36.56	33.81	30.64	28.27	25.79	23.15	21.58	20.08	18.13	16.80	15.88	15.09	15.56	13.93	10.94	9.286	8.481	7.844	7.554	7.254	7.169	6.435	5.630	5.688	6.536	10.28	17.60	76.28	408.0	1513	2582	1102	102.2	3.884	1.818	1.671	1.216	1.141	1.099	0.984	0.880
555.0	31.36	40.82	67.48	89.33	110.5	138.0	201.7	203.0	177.3	248.7	1206	6144	1306	129.9	94.08	81.93	73.12	68.38	64.44	61.44	61.68	58.81	60.25	60.96	62.22	61.13	61.37	59.88	60.55	58.95	54.70	50.68	45.10	40.62	36.64	32.80	30.19	27.85	25.63	23.35	21.49	19.77	17.75	16.84	15.22	14.56	13.13	12.65	12.14	12.40	10.70	8.461	7.213	6.743	6.624	6.283	5.779	5.765	5.929	4.910	4.474	5.370	6.863	19.94	93.61	340.1	769.2	2246	1694	31.19	3.539	1.621	1.178	1.158	0.932	0.899	0.827
560.0	35.30	40.29	61.34	83.41	96.99	114.7	153.8	208.5	165.6	181.6	402.8	3814	4704	161.0	81.56	69.93	61.31	57.67	53.30	52.05	52.31	50.00	50.16	51.57	51.67	51.13	50.66	49.82	51.08	49.11	44.97	41.38	38.70	34.30	31.42	27.73	25.57	23.34	21.77	19.99	18.42	17.06	15.57	14.70	13.07	12.61	11.38	10.69	9.965	10.39	9.880	8.517	6.754	5.868	5.814	5.871	5.157	5.378	5.380	4.637	3.997	4.072	4.535	7.077	23.61	78.27	176.5	846.7	2465	1201	24.42	2.299	1.340	1.200	0.855	0.863	0.773
565.0	38.61	45.69	59.64	74.36	90.75	106.5	130.0	202.7	164.1	157.3	216.6	1416	6536	858.7	76.46	60.47	52.85	49.69	45.39	44.24	43.74	42.61	42.16	43.61	43.82	43.07	42.45	42.94	43.10	41.13	38.44	35.16	32.79	29.59	26.61	24.28	21.85	20.25	18.67	17.11	15.78	14.12	13.66	12.75	11.47	10.73	10.39	9.642	8.219	8.128	8.613	8.231	6.325	5.424	5.187	5.251	4.922	4.710	4.562	4.542	3.906	3.609	3.634	4.014	7.705	19.81	41.94	197.7	1090	2267	262.3	16.37	1.672	1.256	0.917	0.920	0.748
570.0	36.63	47.77	61.24	72.56	79.14	91.79	109.7	159.4	174.5	145.0	164.1	438.3	4012	3982	219.4	52.38	44.75	41.13	38.37	36.48	36.15	35.25	34.55	34.77	34.79	34.58	34.13	34.20	33.77	33.18	31.13	28.27	26.02	23.55	21.39	19.42	17.82	16.86	15.11	13.97	12.98	11.80	11.21	10.54	9.638	9.036	8.463	7.843	6.982	6.618	6.723	6.962	6.296	5.157	4.516	4.513	4.111	3.953	3.957	3.965	3.691	3.403	3.287	3.081	3.899	6.709	11.60	46.43	256.0	930.5	1450	839.1	19.83	2.478	1.121	0.841	0.783
575.0	32.71	44.75	63.11	67.96	73.87	83.26	93.38	119.9	181.8	149.9	147.9	201.1	1129	5467	915.1	52.04	37.03	34.23	30.83	30.54	29.09	28.33	27.62	27.81	27.38	27.16	26.95	26.87	26.61	26.47	25.05	22.74	20.41	19.12	16.65	15.53	14.59	13.34	12.04	11.44	10.33	9.092	8.833	8.504	8.178	7.236	6.821	6.444	5.858	5.413	5.037	5.286	5.642	5.157	3.988	3.846	3.591	3.312	3.549	3.229	3.035	3.274	3.093	2.745	2.880	3.566	4.695	12.33	58.98	209.4	443.5	1418	1027	28.40	1.633	0.974	0.807
580.0	30.89	47.18	62.26	59.98	69.52	73.08	87.76	102.3	168.3	166.4	146.7	149.8	340.5	3470	3592	95.87	33.39	29.11	26.03	25.31	25.01	23.43	23.17	23.17	23.34	22.92	22.52	22.29	22.38	21.77	20.95	18.89	17.43	15.88	14.27	12.74	12.36	11.55	10.50	9.827	8.896	7.971	7.527	7.101	7.177	6.428	5.850	5.601	5.092	4.790	4.393	4.113	4.656	4.749	3.848	3.399	3.461	2.882	2.973	2.749	2.972	2.893	2.948	2.571	2.474	2.650	3.019	4.673	14.80	48.62	101.7	536.0	1480	728.8	19.51	1.356	0.824
585.0	30.22	49.37	61.57	61.85	64.96	71.43	78.92	91.79	138.7	179.7	145.3	138.9	159.1	1268	5207	524.2	32.81	26.20	23.44	22.06	19.98	20.02	20.17	19.86	19.73	19.59	19.10	19.14	18.55	18.41	18.01	15.68	14.61	13.54	11.96	11.47	10.64	9.896	8.924	8.204	7.879	7.334	6.861	6.289	6.137	5.529	5.080	4.702	4.575	4.046	3.944	3.804	3.856	4.419	3.875	3.379	3.068	2.876	2.605	2.435	2.679	2.498	2.871	2.703	2.407	2.245	2.524	2.606	4.930	12.58	24.20	125.3	665.4	1394	247.0	11.18	1.086
590.0	30.07	49.70	61.45	63.46	58.51	66.05	76.00	84.56	110.2	170.7	155.8	133.2	113.6	352.9	3215	2796	68.42	23.10	20.24	18.41	16.98	16.71	16.84	16.38	16.12	15.59	15.93	15.52	14.98	14.73	14.01	13.40	12.07	10.87	9.702	9.225	8.526	7.902	7.162	7.075	6.508	5.923	5.630	5.363	5.016	4.628	4.362	4.043	3.831	3.446	3.187	3.097	3.076	3.354	3.548	3.289	2.733	2.586	2.339	2.156	2.134	2.194	2.330	2.376	2.260	2.006	1.998	1.916	2.577	4.216	6.717	29.09	155.9	569.9	879.7	529.6	18.37
595.0	31.09	53.50	55.69	59.66	55.92	60.45	70.99	78.82	93.36	137.1	170.1	130.1	103.9	127.3	874.7	4065	621.4	24.47	17.20	15.22	13.58	14.03	12.86	12.97	13.08	12.60	13.18	12.52	11.93	11.69	11.53	10.17	9.504	8.624	8.006	7.246	6.925	6.332	6.088	6.185	5.128	4.646	4.461	4.175	4.014	3.896	3.915	3.273	3.333	2.757	2.663	2.559	2.545	2.489	2.838	3.075	2.666	2.272	2.017	1.824	1.910	1.893	1.833	1.992	2.189	2.061	1.811	1.654	1.769	2.120	2.537	7.437	35.57	127.8	260.4	835.3	616.2
600.0	27.97	49.64	56.07	55.39	54.27	58.54	65.52	70.66	88.42	120.9	173.1	132.2	101.2	78.97	234.4	2697	2310	54.64	14.61	13.51	12.25	11.75	11.51	11.24	11.29	10.84	10.70	10.72	9.965	10.10	9.540	9.194	8.019	7.231	6.993	6.380	5.659	5.246	4.879	4.867	4.319	3.852	3.954	3.574	3.468	3.371	3.216	2.896	2.692	2.433	2.238	2.169	2.067	2.079	2.290	2.588	2.532	2.138	1.857	1.702	1.654	1.727	1.605	1.832	1.849	2.044	1.761	1.570	1.583	1.614	1.564	2.527	8.717	29.21	59.38	307.9	845.4
605.0	26.05	41.90	53.43	55.15	51.45	56.46	64.52	72.00	86.17	109.7	164.2	144.6	101.2	69.87	84.56	1009	3524	294.7	14.88	11.86	11.29	10.17	10.52	9.660	9.442	9.429	8.994	8.969	8.405	8.787	7.802	7.979	6.901	6.081	5.674	5.455	5.131	4.696	4.226	4.140	3.552	3.187	3.310	3.173	3.040	2.840	2.669	2.667	2.230	2.198	2.134	1.877	1.651	1.619	1.868	1.996	2.356	2.116	1.874	1.601	1.541	1.496	1.613	1.550	1.537	1.715	1.594	1.515	1.536	1.426	1.094	1.573	2.621	7.194	13.99	71.63	365.1
610.0	23.99	39.52	52.33	52.51	49.40	55.68	62.08	70.52	85.87	103.6	140.7	159.9	109.4	72.44	53.71	265.7	2336	1546	44.12	10.64	9.414	8.518	8.520	8.068	7.510	7.557	7.066	7.197	7.170	6.767	6.558	6.044	5.478	5.192	4.697	4.439	4.173	3.881	3.674	3.315	3.001	2.767	2.674	2.686	2.550	2.324	2.250	2.224	1.895	1.778	1.760	1.625	1.478	1.547	1.477	1.547	1.931	1.920	1.723	1.401	1.396	1.351	1.412	1.291	1.305	1.478	1.555	1.562	1.383	1.253	1.012	1.149	1.261	2.264	3.717	16.58	85.00
615.0	25.44	39.13	47.46	47.08	49.21	47.85	55.46	68.24	82.86	101.3	119.6	153.2	118.5	73.70	47.81	82.50	658.5	2813	446.5	12.64	8.474	7.724	6.757	6.304	6.367	6.477	6.074	5.812	5.567	6.021	5.406	4.816	4.601	3.986	3.722	3.634	3.164	3.261	2.657	2.747	2.377	2.263	2.214	2.190	1.849	1.821	1.892	1.809	1.586	1.369	1.479	1.295	1.270	1.118	1.125	1.302	1.465	1.456	1.575	1.280	1.238	1.255	1.278	1.176	1.182	1.251	1.284	1.376	1.493	1.233	0.896	0.873	0.793	1.137	1.278	4.184	19.39
620.0	19.01	34.13	46.83	45.27	44.76	48.65	55.93	63.44	79.36	94.59	112.6	137.6	128.1	73.66	47.51	41.95	171.7	2043	1627	29.02	8.042	6.431	6.114	5.552	5.408	5.516	5.074	5.169	4.958	4.605	4.609	4.172	3.763	3.429	3.361	3.144	2.865	2.672	2.324	2.340	2.136	1.993	1.883	1.862	1.790	1.589	1.628	1.587	1.469	1.295	1.238	1.268	1.150	1.049	1.160	1.104	1.155	1.433	1.488	1.381	1.362	1.068	1.146	1.132	1.051	1.170	1.139	1.230	1.364	1.069	0.818	0.933	0.692	0.798	0.764	1.339	4.781
625.0	21.88	37.87	46.64	49.46	41.54	49.62	53.94	60.53	75.31	89.35	108.1	124.1	133.8	76.11	47.81	33.50	54.98	818.1	2683	73.45	8.141	6.282	5.846	5.195	4.703	4.837	4.423	4.262	4.397	4.122	3.807	3.714	3.398	3.146	2.776	2.741	2.439	2.274	2.151	1.992	1.855	1.805	1.642	1.562	1.470	1.558	1.430	1.425	1.221	1.103	1.094	1.069	0.966	1.056	0.992	0.991	1.141	1.100	1.228	1.318	1.312	0.941	1.011	1.005	1.021	1.090	0.962	1.137	1.143	1.121	0.931	0.942	0.657	0.768	0.600	0.763	1.422
630.0	22.37	32.87	47.51	46.36	42.25	47.00	51.52	58.92	71.21	86.06	100.9	110.6	122.9	90.62	51.50	33.10	30.39	211.8	1963	1135	27.35	6.337	5.135	4.939	4.165	4.038	3.943	3.461	3.575	3.545	3.305	3.157	2.754	2.607	2.274	2.229	1.925	1.892	1.822	1.679	1.562	1.421	1.486	1.357	1.355	1.280	1.244	1.167	1.067	0.980	0.972	0.968	0.828	0.883	0.834	0.890	0.901	0.848	0.994	1.031	1.091	0.850	0.893	0.932	0.926	0.890	0.992	0.964	0.922	1.070	0.949	0.755	0.695	0.656	0.501	0.548	0.669
635.0	20.35	33.90	48.56	41.69	39.29	42.89	53.51	56.71	69.03	83.62	98.78	103.4	107.4	101.4	54.88	34.45	25.14	59.49	575.8	2262	298.5	7.340	4.625	4.104	3.418	3.300	3.311	3.064	2.874	2.829	2.818	2.617	2.236	2.009	2.083	1.718	1.674	1.517	1.639	1.441	1.317	1.195	1.306	1.208	1.098	1.053	0.972	0.967	0.924	0.879	0.782	0.868	0.635	0.820	0.771	0.755	0.856	0.856	0.849	0.714	0.880	0.865	0.901	0.779	0.921	0.816	0.872	0.963	0.897	0.915	0.902	0.822	0.649	0.724	0.509	0.519	0.451
640.0	23.47	35.95	47.95	43.52	39.67	38.49	49.00	57.35	67.69	81.53	96.92	101.0	104.8	98.72	61.95	35.14	25.30	26.02	145.3	1778	1093	16.33	4.876	3.771	3.136	3.141	2.847	2.654	2.815	2.671	2.310	2.302	1.937	1.917	1.824	1.535	1.451	1.408	1.294	1.157	1.154	1.030	1.024	1.054	0.927	0.900	0.863	0.905	0.942	0.769	0.763	0.762	0.569	0.746	0.764	0.639	0.841	0.844	0.746	0.706	0.834	0.834	0.805	0.725	0.816	0.846	0.856	0.857	0.822	0.799	0.774	0.889	0.781	0.623	0.487	0.629	0.373
645.0	27.96	45.33	55.78	49.08	38.15	38.53	49.04	56.46	66.12	80.16	95.59	104.6	100.6	95.54	73.60	39.05	25.34	20.37	42.78	772.4	1948	58.43	5.251	3.819	2.872	2.765	2.608	2.278	2.397	2.293	2.237	2.049	1.731	1.691	1.451	1.485	1.234	1.281	1.171	1.046	0.946	0.960	1.012	0.900	0.914	0.850	0.889	0.920	0.857	0.833	0.803	0.647	0.596	0.655	0.623	0.584	0.673	0.746	0.612	0.634	0.818	0.844	0.845	0.896	0.895	0.879	0.791	0.815	0.839	0.876	0.664	0.726	0.865	0.664	0.516	0.510	0.463
650.0	27.24	51.89	70.31	52.86	38.86	39.99	45.66	56.10	65.95	81.07	99.10	105.7	103.9	89.45	80.82	43.73	27.09	19.00	19.86	216.8	1968	430.4	7.241	3.895	3.002	2.726	2.597	2.162	2.221	2.052	1.904	1.649	1.569	1.340	1.409	1.316	1.167	1.137	1.061	1.079	0.899	0.785	0.835	0.748	0.859	0.687	0.791	0.908	0.808	0.867	0.705	0.685	0.592	0.637	0.599	0.570	0.588	0.605	0.698	0.525	0.707	0.701	0.784	0.840	0.834	0.805	0.747	0.846	0.813	0.764	0.713	0.810	0.850	0.819	0.614	0.538	0.467
