Sample:	'1
File name:	c2025031916À¼Ñã·ÄÖ¯Æø¸¡³Ø  10±¶.FD3
Run date:	'21:03:44, 03/19/2025
Operator:	Administrator
Comment:	'

Instrument
Model:	F-2700 FL Spectrophotometer
Serial number:	23B8-004
ROM Version:	4J14000 07

Instrument parameters
Measurement type:	3-D scan
Data mode:	Fluorescence
EX  Start WL:	220.0 nm
EX  End WL:	600.0 nm
EX Sampling interval:	5.0 nm
EM  Start WL:	230.0 nm
EM  End WL:	650.0 nm
EM Sampling interval:	5.0 nm
Scan speed:	12000 nm/min
EX Slit:	5.0 nm
EM Slit:	5.0 nm
PMT Voltage:	700 V
Response:	Auto 
Corrected spectra:	Off
Contour interval:	50.000

Peak integration
Integration method:	Rectangular
Sensitivity:	1
Threshold:	1.000

Peaks
No.	ApexEX/EM(nm)	Height(Data)
1	230.0/340.0	7015
2	240.0/265.0	356.6
3	245.0/270.0	335.1
4	245.0/535.0	254.7
5	250.0/275.0	413.2
6	255.0/280.0	485.2
7	255.0/560.0	149.6
8	260.0/575.0	120.3
9	265.0/585.0	99.66
10	275.0/615.0	176.5
11	280.0/320.0	3026
12	280.0/335.0	3160
13	280.0/625.0	162.7
14	455.0/540.0	12.99
15	460.0/340.0	20.23
16	475.0/345.0	21.06
17	505.0/275.0	3.186
18	510.0/280.0	3.097
19	520.0/285.0	3.443
20	565.0/335.0	16.00
21	580.0/340.0	15.79

Data points
	220.0	225.0	230.0	235.0	240.0	245.0	250.0	255.0	260.0	265.0	270.0	275.0	280.0	285.0	290.0	295.0	300.0	305.0	310.0	315.0	320.0	325.0	330.0	335.0	340.0	345.0	350.0	355.0	360.0	365.0	370.0	375.0	380.0	385.0	390.0	395.0	400.0	405.0	410.0	415.0	420.0	425.0	430.0	435.0	440.0	445.0	450.0	455.0	460.0	465.0	470.0	475.0	480.0	485.0	490.0	495.0	500.0	505.0	510.0	515.0	520.0	525.0	530.0	535.0	540.0	545.0	550.0	555.0	560.0	565.0	570.0	575.0	580.0	585.0	590.0	595.0	600.0
230.0	99.63	1336	2962	595.0	25.68	9.747	8.499	6.861	5.809	5.335	5.041	4.756	4.567	3.619	3.290	2.614	2.406	2.180	1.906	1.765	1.620	1.503	1.409	1.324	1.249	1.216	1.092	1.129	1.051	0.993	0.957	0.935	0.929	0.799	0.799	0.719	0.735	0.673	0.665	0.683	0.822	1.101	0.960	0.674	0.615	0.588	2.200	6.987	10.69	6.380	2.165	0.668	0.443	0.445	0.455	0.464	0.470	0.510	0.474	0.479	0.499	0.469	0.460	0.491	0.475	0.497	0.506	0.475	0.484	0.504	0.464	0.480	0.509	0.474	0.492	0.473	0.477
235.0	157.6	406.2	2176	2480	498.3	37.29	8.621	7.671	6.345	5.751	5.572	4.929	4.352	3.932	3.845	2.629	2.593	2.155	2.007	1.517	1.553	1.643	1.484	1.312	1.184	1.065	1.200	0.944	1.135	0.917	0.941	1.020	0.768	0.765	0.819	0.796	0.770	0.753	0.670	0.668	0.644	0.846	1.010	1.053	0.821	0.600	0.948	2.120	4.594	6.752	9.072	8.833	4.035	0.905	0.455	0.470	0.524	0.503	0.453	0.510	0.484	0.516	0.529	0.518	0.519	0.469	0.490	0.448	0.476	0.431	0.484	0.470	0.496	0.478	0.486	0.541	0.486
240.0	235.9	196.9	711.3	2354	2697	383.4	20.56	8.504	6.665	5.786	5.233	5.472	4.649	4.379	3.491	2.756	2.724	2.255	2.200	1.660	1.640	1.594	1.474	1.344	1.286	1.055	1.229	1.074	1.072	0.985	0.945	0.955	0.924	0.779	0.741	0.738	0.728	0.686	0.625	0.726	0.627	0.712	0.702	0.878	1.035	0.978	0.859	0.922	1.488	2.330	5.478	11.97	14.15	9.104	3.099	0.752	0.550	0.584	0.429	0.528	0.496	0.476	0.514	0.554	0.480	0.490	0.469	0.471	0.484	0.496	0.481	0.468	0.526	0.451	0.530	0.484	0.502
245.0	204.4	253.9	236.1	881.0	3225	2642	278.1	11.89	8.538	6.825	5.863	5.743	4.759	4.522	3.766	3.357	2.840	2.155	2.178	1.670	1.659	1.522	1.480	1.356	1.170	1.084	1.292	1.273	0.999	1.055	1.085	0.888	0.816	0.841	0.758	0.745	0.601	0.679	0.779	0.673	0.602	0.658	0.598	0.665	0.866	1.083	1.157	0.982	0.788	0.822	1.619	4.450	10.63	16.95	16.68	8.306	2.314	0.606	0.535	0.532	0.536	0.508	0.562	0.560	0.519	0.476	0.534	0.523	0.521	0.428	0.462	0.535	0.439	0.494	0.564	0.502	0.514
250.0	89.82	202.3	272.8	285.6	1099	2925	3434	1035	58.05	8.516	7.142	6.425	5.545	4.900	3.748	3.396	2.911	2.456	2.145	1.807	1.775	1.689	1.664	1.317	1.239	1.167	1.298	1.139	1.118	1.065	1.003	0.987	0.887	0.799	0.752	0.692	0.718	0.677	0.709	0.674	0.659	0.710	0.692	0.646	0.597	0.690	0.841	1.148	1.322	1.030	0.909	1.439	2.945	5.889	10.74	15.53	19.38	16.40	9.172	2.532	0.603	0.463	0.554	0.508	0.487	0.490	0.493	0.490	0.479	0.483	0.490	0.540	0.457	0.489	0.495	0.515	0.520
255.0	54.04	81.49	203.4	316.5	325.4	778.1	2991	5248	1453	54.15	10.01	7.783	6.818	5.333	4.167	3.511	3.172	2.405	2.214	2.143	1.850	1.718	1.674	1.376	1.461	1.335	1.279	1.119	1.217	1.132	0.982	1.017	0.945	0.864	0.766	0.721	0.754	0.746	0.731	0.642	0.641	0.668	0.677	0.624	0.590	0.613	0.590	0.689	0.823	1.107	1.531	1.513	1.205	1.756	2.810	4.069	7.579	17.37	31.19	26.84	13.38	2.815	0.574	0.487	0.502	0.480	0.571	0.453	0.479	0.538	0.552	0.516	0.556	0.530	0.544	0.480	0.522
260.0	50.27	44.69	85.69	281.9	294.9	226.0	951.1	4587	5958	254.5	29.09	9.756	7.452	6.384	4.889	3.956	3.485	3.104	2.397	2.105	1.832	1.830	1.638	1.596	1.379	1.383	1.336	1.151	1.092	1.103	1.018	0.977	0.956	0.777	0.717	0.749	0.698	0.721	0.724	0.709	0.736	0.643	0.724	0.610	0.583	0.559	0.558	0.558	0.565	0.678	1.072	1.876	1.837	1.324	1.105	1.395	2.186	5.052	13.92	28.88	37.95	25.59	10.39	1.556	0.541	0.543	0.564	0.516	0.537	0.547	0.557	0.565	0.524	0.488	0.607	0.484	0.571
265.0	50.75	37.98	38.04	137.8	356.6	216.2	250.0	1609	6577	5669	204.4	16.27	9.294	6.845	5.592	4.284	3.621	3.273	2.670	2.178	2.009	1.849	1.637	1.678	1.422	1.302	1.285	1.385	1.217	1.106	1.153	1.129	0.845	0.830	0.733	0.827	0.737	0.762	0.719	0.653	0.730	0.693	0.684	0.671	0.584	0.519	0.563	0.594	0.479	0.521	0.609	1.130	1.810	2.054	1.561	0.979	0.975	1.600	3.685	8.893	20.85	38.42	33.07	22.15	6.247	0.926	0.506	0.548	0.566	0.568	0.603	0.599	0.537	0.528	0.605	0.479	0.653
270.0	51.32	41.90	33.78	52.66	180.0	335.1	254.7	411.0	2107	5793	6966	806.4	53.18	9.533	6.992	5.047	3.988	3.494	2.856	2.592	2.318	2.043	1.816	1.649	1.546	1.353	1.465	1.288	1.298	1.193	1.188	1.084	0.990	0.901	0.869	0.829	0.799	0.747	0.790	0.694	0.695	0.615	0.695	0.676	0.651	0.584	0.565	0.587	0.480	0.498	0.496	0.662	0.916	1.265	1.894	2.173	1.886	1.317	1.430	2.506	5.272	11.33	18.97	32.38	33.87	37.34	15.46	6.088	0.948	0.624	0.591	0.589	0.597	0.528	0.554	0.504	0.554
275.0	71.45	59.57	43.14	36.37	64.36	166.2	413.2	307.1	511.1	1436	4842	9999.9	1185	54.02	9.454	7.130	5.368	4.382	3.419	2.952	2.357	2.105	1.948	1.761	1.573	1.538	1.381	1.483	1.347	1.255	1.184	1.070	0.999	0.981	1.015	0.883	0.890	0.861	0.823	0.808	0.738	0.810	0.744	0.666	0.699	0.726	0.616	0.604	0.562	0.548	0.445	0.626	0.645	0.673	0.900	1.313	2.226	3.186	2.379	1.462	1.700	3.027	4.878	7.947	10.51	25.74	50.06	59.06	24.92	7.074	0.764	0.621	0.661	0.594	0.539	0.488	0.535
280.0	94.89	79.98	62.55	42.47	37.89	69.49	267.2	485.2	246.6	365.4	1362	7312	9664	877.5	29.78	9.309	6.370	4.846	3.947	3.090	2.999	2.513	2.227	1.893	1.796	1.629	1.477	1.424	1.497	1.381	1.248	1.276	1.035	1.103	1.091	1.023	0.917	0.940	0.819	0.837	0.828	0.819	0.752	0.761	0.764	0.802	0.688	0.705	0.602	0.583	0.519	0.622	0.628	0.562	0.688	0.786	1.121	2.072	3.097	3.011	1.808	1.326	1.655	2.384	3.001	6.756	16.90	39.55	63.17	33.34	20.35	3.815	0.725	0.696	0.618	0.636	0.556
285.0	130.3	106.1	83.32	54.43	42.29	42.75	110.7	411.1	331.1	163.8	365.0	2169	9283	7804	125.5	15.63	7.828	5.965	4.120	3.601	3.161	2.721	2.345	1.984	1.910	1.643	1.574	1.591	1.340	1.399	1.304	1.140	1.187	1.149	1.119	1.185	1.019	1.114	0.960	0.915	0.816	0.873	0.781	0.818	0.824	0.853	0.788	0.761	0.695	0.624	0.570	0.591	0.652	0.677	0.591	0.691	0.757	1.019	1.760	3.096	3.443	2.221	1.296	1.212	1.350	2.120	4.498	10.31	24.40	46.05	71.24	31.40	14.58	1.723	0.770	0.691	0.609
290.0	190.1	162.8	132.7	82.80	61.73	56.70	79.87	185.9	423.7	425.4	221.3	594.6	2653	6805	7896	2114	37.95	9.061	5.887	4.339	3.681	2.975	2.569	2.270	2.104	1.997	1.629	1.613	1.411	1.342	1.338	1.320	1.274	1.224	1.211	1.289	1.282	1.199	1.094	1.014	0.942	1.000	1.035	0.947	0.938	0.936	0.896	0.951	0.891	0.769	0.679	0.703	0.700	0.702	0.686	0.714	0.790	0.890	1.015	1.468	2.221	3.086	3.394	2.829	1.769	1.347	1.904	3.182	6.418	12.23	25.77	35.78	51.47	46.23	36.49	10.88	2.336
295.0	285.2	290.3	237.5	159.6	121.9	114.9	138.1	174.8	276.0	583.7	663.6	318.2	810.4	1733	4501	9999.9	730.9	49.38	9.311	5.569	4.353	3.456	3.186	2.448	2.250	2.177	1.819	1.885	1.693	1.456	1.482	1.430	1.249	1.409	1.423	1.388	1.416	1.344	1.324	1.295	1.165	1.129	1.102	1.161	1.249	1.084	1.046	1.255	1.138	0.987	0.862	0.926	0.950	0.959	0.917	0.905	1.108	1.087	1.345	1.455	1.653	1.849	2.512	3.644	5.019	3.676	2.422	2.314	2.931	4.374	7.187	9.269	13.49	21.78	50.69	74.11	33.71
300.0	498.1	535.2	468.5	314.9	252.0	258.0	316.7	337.9	337.6	753.0	1229	1013	822.2	883.0	1526	6622	9950	611.0	33.63	8.182	5.711	4.415	3.328	2.918	2.544	2.309	1.992	1.776	1.820	1.450	1.705	1.462	1.312	1.487	1.707	1.662	1.659	1.595	1.795	1.630	1.632	1.564	1.641	1.579	1.621	1.670	1.672	1.807	1.837	1.513	1.370	1.399	1.420	1.302	1.395	1.549	1.731	1.882	2.220	2.346	2.688	3.052	3.482	4.113	5.609	7.081	6.306	5.068	4.807	4.554	4.888	5.154	5.779	7.980	15.93	37.08	64.63
305.0	891.6	917.5	818.8	579.9	477.8	485.4	653.2	836.2	1050	1435	1877	2271	1443	1241	1237	2488	8725	5403	454.6	16.68	7.944	5.290	4.307	3.570	2.945	2.550	2.462	2.185	1.913	1.719	1.656	1.651	1.426	1.698	1.884	2.073	2.274	2.242	2.457	2.385	2.329	2.266	2.025	2.344	2.419	2.657	2.659	3.046	3.065	2.364	2.161	2.317	2.149	2.285	2.438	2.657	3.073	3.653	4.176	4.600	4.982	5.736	6.471	7.676	8.297	9.910	11.23	11.80	10.49	8.512	7.962	7.637	7.385	7.793	9.143	13.39	23.82
310.0	1300	1453	1301	911.4	731.1	749.8	965.5	1217	1456	1867	2253	2711	2614	1980	1625	1527	3198	6178	6605	1763	30.08	7.907	5.797	4.410	3.586	3.100	2.677	2.438	2.050	1.865	1.821	1.863	1.597	1.816	1.995	2.187	2.489	2.854	2.998	2.997	2.926	2.936	2.898	3.071	3.296	3.809	4.023	4.552	4.418	3.440	3.121	3.348	3.186	3.126	3.253	3.645	4.430	5.122	5.963	6.272	6.745	7.657	8.663	9.539	10.56	11.16	12.32	13.39	14.45	13.26	12.05	11.12	9.672	9.851	9.196	9.286	10.84
315.0	1785	2078	1838	1291	992.4	966.8	1187	1443	1655	2055	2485	2857	2927	2677	2019	1472	1721	1969	3890	9105	2430	33.62	8.349	5.830	4.657	3.640	3.046	2.589	2.409	2.039	1.942	1.889	1.795	1.815	2.070	2.510	3.002	3.144	3.354	3.440	3.190	3.566	3.498	3.727	4.155	5.234	5.458	6.251	5.901	4.664	4.139	4.419	4.217	4.326	4.324	4.430	5.110	5.941	6.818	6.844	7.639	8.478	9.552	10.59	11.44	12.77	13.11	14.13	14.87	14.51	15.16	14.53	12.85	11.87	10.20	9.105	8.313
320.0	2290	2630	2295	1593	1151	1084	1311	1543	1738	2136	2596	2975	3026	2865	2422	1596	1452	1042	1122	5680	8778	469.0	20.80	7.442	5.817	4.393	3.457	2.726	2.690	2.224	2.236	1.818	1.829	1.841	2.221	2.512	3.103	3.277	3.645	3.841	3.811	4.141	4.304	4.749	5.371	6.348	6.851	7.743	7.009	5.738	4.856	5.430	4.712	4.696	4.652	4.759	5.582	6.836	7.134	7.535	8.187	8.803	9.820	11.14	12.35	12.76	13.24	14.58	15.14	15.12	15.22	15.34	15.19	14.08	11.49	10.07	8.444
325.0	2610	3377	3057	2101	1412	1156	1330	1577	1750	2107	2551	2952	2986	2764	2567	1766	1382	844.2	452.5	1626	7181	6998	356.5	13.51	6.983	4.899	3.710	3.270	2.734	2.459	2.486	1.992	1.978	1.988	2.343	2.510	3.358	3.510	3.805	4.159	4.173	4.818	4.913	5.548	6.446	7.874	8.844	9.455	9.419	7.709	6.652	6.956	5.719	5.372	5.116	5.192	6.078	6.863	7.165	7.935	8.175	8.190	9.778	10.90	11.96	12.54	13.82	14.82	14.84	14.66	15.39	14.43	14.93	15.26	13.55	10.88	8.800
330.0	3545	4687	4698	3734	2566	1649	1448	1633	1755	2081	2542	2928	3029	2803	2516	2029	1563	911.8	439.3	572.7	2076	5561	5907	1469	26.50	7.372	5.249	4.014	3.218	2.721	2.744	2.255	1.970	2.127	2.368	2.721	3.274	3.567	3.979	4.326	4.834	5.452	5.968	6.944	8.355	10.20	11.98	13.59	13.78	12.40	11.56	12.13	10.57	8.908	7.354	6.118	6.533	7.200	7.626	8.096	7.972	8.479	9.820	10.73	11.60	12.63	13.34	14.50	15.15	15.21	15.22	14.94	14.38	14.82	13.63	12.83	11.50
335.0	4433	5951	6461	5727	4297	2463	1704	1751	1843	2164	2606	3005	3160	2996	2645	2152	1908	1212	634.9	496.3	741.6	1494	3959	8297	2084	28.95	7.447	5.118	4.136	3.302	3.053	2.397	2.315	2.304	2.325	3.009	3.422	3.745	4.185	4.629	5.644	5.932	7.002	8.014	10.18	12.39	14.83	17.49	18.55	17.48	16.94	19.51	17.60	15.15	11.16	8.181	7.721	7.953	8.149	8.273	8.491	9.455	10.01	11.03	11.84	13.33	13.95	14.50	15.40	16.00	15.86	15.91	15.75	15.38	14.23	13.58	12.73
340.0	4723	6202	7015	6314	4789	2712	1759	1756	1812	2094	2492	2889	3047	2927	2585	2089	1838	1373	750.3	516.1	475.1	577.1	1199	5624	7796	395.1	16.14	6.265	4.679	3.540	3.284	2.497	2.535	2.426	2.527	2.960	3.492	3.810	4.153	4.841	5.392	6.472	7.455	8.419	10.43	13.05	15.05	18.13	20.23	19.35	18.92	21.00	19.56	16.82	12.56	8.891	7.911	8.179	8.105	8.433	8.449	9.137	9.639	10.53	11.30	12.81	13.45	13.95	15.01	15.79	15.79	15.49	15.79	15.57	13.69	13.28	11.77
345.0	4590	6060	6862	6269	4735	2680	1695	1646	1726	1949	2312	2660	2815	2704	2410	1953	1633	1321	858.8	536.6	422.6	385.4	471.0	1677	6866	6247	55.35	9.540	6.059	4.342	3.629	2.658	2.613	2.335	2.720	2.940	3.356	3.925	4.124	4.849	5.656	6.111	7.167	8.088	10.40	12.91	15.04	17.84	19.80	18.79	19.06	21.06	19.13	16.95	12.44	9.023	7.768	7.573	7.718	8.010	8.368	8.756	9.172	10.15	10.67	12.11	12.12	13.06	13.82	14.20	14.42	14.76	14.37	14.37	12.92	12.21	11.33
350.0	4245	5743	6556	6177	4769	2710	1660	1547	1597	1795	2099	2389	2533	2453	2215	1826	1520	1188	925.5	676.1	471.5	389.0	351.5	532.7	1984	5256	4892	1222	21.36	6.270	4.921	3.321	2.748	2.515	2.708	2.777	3.320	3.850	4.215	4.562	5.127	5.822	6.736	7.875	9.514	12.15	13.67	16.92	18.77	18.01	18.28	21.02	19.27	17.20	12.94	8.731	7.655	7.339	7.629	7.711	7.491	8.094	8.726	9.254	9.936	10.92	11.14	11.78	12.30	13.13	13.07	13.42	13.14	13.23	12.28	11.36	10.94
355.0	3880	5100	6029	5784	4597	2613	1583	1450	1484	1632	1885	2113	2250	2184	1986	1685	1426	1110	854.9	780.9	595.9	439.6	372.3	325.2	554.8	1285	3527	7031	404.9	21.92	6.747	4.352	3.457	2.825	2.774	2.957	3.093	3.535	3.851	4.151	4.757	5.240	6.353	6.989	8.767	10.63	12.36	15.79	16.93	16.36	16.76	19.39	18.42	16.49	12.43	9.167	7.133	7.058	6.776	7.018	7.105	7.573	7.950	8.436	9.465	10.10	10.08	10.77	10.84	11.78	11.71	11.96	12.06	11.96	11.54	10.39	10.12
360.0	3538	4586	5335	5143	4113	2404	1474	1356	1381	1495	1708	1892	1985	1946	1793	1538	1311	1043	816.4	741.8	702.2	513.0	408.2	314.0	285.7	399.3	1003	5251	6263	344.8	14.12	5.122	3.735	3.075	2.837	2.921	3.072	3.662	3.783	4.248	4.565	5.090	5.865	6.753	8.099	9.908	11.19	13.81	15.06	14.94	15.00	17.28	16.38	14.82	11.32	8.429	6.822	6.634	6.395	6.675	6.686	6.695	7.109	8.197	8.325	9.000	9.279	9.637	9.966	10.62	10.88	10.74	10.64	10.63	9.864	9.585	9.404
365.0	3172	4121	4706	4555	3712	2218	1361	1267	1283	1384	1557	1716	1780	1745	1626	1408	1215	997.0	800.5	698.8	699.2	604.9	459.3	350.6	262.7	233.5	332.8	1612	6332	3173	51.68	8.046	4.452	3.660	3.337	2.996	3.083	3.394	3.702	3.895	4.204	4.770	5.295	6.069	7.545	8.868	9.912	12.44	13.57	13.16	13.47	15.87	14.77	13.81	10.36	7.279	6.608	6.079	6.089	6.165	6.141	6.563	6.718	7.391	7.992	8.081	8.094	8.639	8.939	9.706	9.708	9.895	9.535	9.812	9.157	8.766	9.019
370.0	2703	3518	4031	3944	3270	2007	1290	1195	1189	1265	1398	1518	1574	1550	1453	1276	1123	952.2	794.7	696.6	653.3	656.0	567.9	402.1	290.6	227.4	205.8	460.6	1899	4375	5509	1046	16.36	4.845	3.671	3.222	3.161	3.363	3.366	3.768	3.743	4.508	4.909	5.618	6.374	7.764	8.580	10.59	11.53	11.49	11.58	13.71	13.32	12.22	9.606	7.002	6.124	5.773	5.799	5.827	5.842	6.192	6.022	6.545	6.992	7.407	7.232	7.726	8.110	8.389	8.640	8.793	8.558	8.765	8.300	7.914	8.355
375.0	2356	2971	3398	3335	2812	1844	1209	1132	1112	1160	1268	1352	1396	1377	1290	1156	1034	905.3	785.9	705.0	650.3	625.0	630.7	511.0	349.1	266.8	216.1	231.9	512.6	1082	4235	6275	340.7	16.69	4.751	3.814	3.514	3.423	3.554	3.594	3.819	4.064	4.459	5.088	5.793	6.633	7.334	8.680	9.809	9.333	10.07	12.04	11.35	10.34	8.372	6.752	5.833	5.534	5.741	5.636	5.448	5.610	5.748	6.152	6.497	6.556	6.774	6.985	6.935	7.760	7.836	7.789	7.769	7.920	7.629	7.388	7.388
380.0	2070	2623	2978	2904	2500	1685	1162	1076	1062	1102	1181	1248	1280	1252	1185	1069	970.7	880.4	783.2	718.8	666.9	629.9	611.2	593.2	426.4	312.4	245.8	209.8	224.6	308.4	1162	4990	5126	277.1	8.431	4.501	3.855	3.569	3.424	3.482	3.664	3.881	4.343	4.829	5.630	5.989	6.476	7.787	8.206	8.352	8.560	10.20	9.954	9.070	7.596	6.022	5.530	5.390	5.293	5.411	5.346	5.448	5.868	5.847	5.905	5.985	6.219	6.380	6.514	6.697	7.189	6.888	6.867	7.459	6.989	6.744	6.859
385.0	1900	2358	2651	2624	2238	1569	1137	1044	1037	1052	1115	1166	1192	1173	1102	1006	925.5	853.6	780.1	725.3	682.0	649.3	608.2	599.0	513.3	362.8	280.9	227.5	180.7	150.1	314.6	1539	5406	2635	39.59	6.390	4.602	3.612	3.584	3.507	3.664	3.663	4.048	4.466	5.112	5.718	6.040	7.184	7.634	7.390	7.791	9.086	8.947	8.563	7.088	5.977	5.219	5.161	5.046	5.036	5.217	5.022	5.501	5.502	5.464	5.973	5.649	6.057	6.056	6.245	6.508	6.608	6.688	6.885	6.416	6.492	6.619
390.0	1745	2089	2316	2278	2002	1459	1112	1020	994.2	1002	1051	1087	1099	1086	1016	940.7	870.7	819.7	763.5	721.1	686.2	655.0	607.1	568.3	536.6	451.8	329.5	255.9	192.9	139.0	142.3	392.0	1614	3611	3444	779.3	14.05	4.527	4.005	3.724	3.654	3.722	3.890	4.092	4.525	5.144	5.306	6.351	6.743	6.530	6.695	8.063	7.843	7.724	6.751	5.640	5.278	5.249	4.787	4.834	5.014	4.937	5.258	5.206	5.220	5.497	5.421	5.630	5.600	6.018	5.996	6.071	6.195	6.327	5.839	6.081	6.114
395.0	1583	1909	2027	2027	1812	1374	1097	1016	977.3	970.0	1003	1017	1030	997.0	947.8	885.0	834.5	791.2	752.5	720.7	687.5	660.5	621.9	570.4	512.2	489.2	408.5	299.8	222.1	159.8	125.8	149.0	398.5	881.9	2780	4528	282.4	13.32	4.792	4.052	3.830	3.994	3.743	4.106	4.346	4.631	5.006	5.861	5.983	5.924	5.829	7.663	6.897	6.967	6.073	5.127	5.259	5.151	4.784	4.660	4.888	4.966	5.025	5.159	5.048	5.259	5.025	5.172	5.456	5.499	5.580	5.529	5.734	6.027	5.939	5.679	5.898
400.0	1524	1778	1875	1852	1683	1331	1106	1005	954.0	954.2	973.8	991.4	983.0	958.4	914.5	850.8	804.2	771.1	742.5	714.3	685.6	661.8	628.3	583.5	517.1	481.5	456.3	351.0	250.1	183.4	137.0	108.4	136.8	228.4	781.9	3689	3843	228.0	7.067	4.837	4.040	3.966	3.837	4.016	4.034	4.443	4.831	5.779	5.728	5.386	5.337	6.844	6.898	6.214	5.772	5.073	5.351	5.039	4.924	4.632	4.758	4.951	4.831	4.891	5.052	4.949	4.772	5.294	5.184	5.171	5.212	5.275	5.665	5.521	5.572	5.595	5.827
405.0	1494	1696	1787	1750	1598	1309	1076	1005	959.4	952.8	955.9	967.9	961.1	926.2	879.7	816.1	775.0	747.4	727.9	703.1	684.9	660.8	636.4	594.9	530.0	476.8	450.4	403.2	286.5	209.0	155.1	111.7	88.76	89.49	201.7	1140	4150	2219	34.89	5.868	4.306	4.029	4.129	3.953	3.974	4.342	4.603	5.413	5.287	5.248	5.139	6.382	6.458	6.116	5.730	4.979	5.292	4.953	4.969	4.837	4.885	4.726	5.056	4.935	4.726	4.977	4.892	4.982	5.165	5.318	4.930	5.065	5.308	5.260	5.303	5.399	5.541
410.0	1400	1553	1680	1626	1488	1251	1083	999.3	952.0	930.7	941.5	940.6	919.4	884.2	836.0	776.8	747.4	718.2	704.7	685.0	668.2	651.2	629.4	592.0	535.8	483.4	436.5	412.6	349.0	245.7	179.7	130.5	93.33	70.07	78.01	278.2	1244	2847	2770	683.3	12.54	4.560	4.515	3.977	4.272	4.288	4.428	5.081	5.139	4.987	4.917	5.779	5.777	5.868	5.473	4.908	5.133	5.015	4.812	4.943	4.597	4.666	4.925	4.756	4.715	4.823	4.768	4.679	4.970	4.949	4.690	4.933	5.036	5.441	5.044	5.264	5.348
415.0	1344	1442	1551	1521	1393	1193	1075	998.5	939.8	927.6	914.7	912.2	878.8	843.2	786.1	734.0	705.8	688.3	678.5	662.4	646.9	632.4	609.7	581.2	534.6	485.2	432.2	393.6	366.5	303.5	209.9	149.6	108.1	75.84	60.05	91.75	297.9	692.4	2158	3581	257.4	13.36	4.829	4.400	4.070	4.251	4.310	4.623	4.737	4.670	4.604	5.682	5.570	5.511	5.117	4.823	4.976	4.837	4.893	4.687	4.619	4.533	4.750	4.636	4.544	4.751	4.350	4.593	5.061	4.584	4.783	4.718	4.799	4.780	4.810	4.811	5.259
420.0	1279	1386	1475	1421	1307	1162	1039	982.4	925.1	908.2	897.7	896.0	861.3	809.6	759.3	706.9	678.5	657.3	653.6	640.7	620.1	613.5	592.5	565.3	528.7	478.2	432.6	388.7	350.3	328.3	245.9	165.4	119.4	85.85	62.33	54.95	90.80	172.3	594.8	2790	2183	216.4	7.445	4.709	4.250	4.267	4.182	4.458	4.655	4.426	4.445	5.333	5.480	5.207	4.683	4.730	4.970	4.767	4.881	4.648	4.802	4.626	4.450	4.785	4.338	4.571	4.316	4.591	4.679	4.449	4.643	4.575	4.657	4.672	4.493	4.569	4.557
425.0	1205	1320	1394	1344	1272	1133	1042	973.0	914.6	890.0	881.1	872.7	833.3	787.4	721.3	685.0	652.4	636.9	625.5	613.2	599.6	595.7	575.2	552.1	521.7	478.6	430.8	385.0	341.8	319.9	280.8	189.5	128.9	93.98	67.65	52.31	48.02	58.57	148.5	841.8	2824	2037	33.84	6.126	4.788	4.224	4.230	4.537	4.493	4.296	4.313	5.093	5.272	5.180	4.903	4.643	4.953	4.758	4.794	4.639	4.720	4.607	4.477	4.607	4.387	4.551	4.684	4.352	4.496	4.397	4.564	4.388	4.462	4.695	4.552	4.545	4.651
430.0	1308	1271	1308	1294	1194	1091	1025	962.3	904.3	876.1	863.9	840.6	798.3	758.0	694.3	653.1	618.7	604.1	592.1	585.7	574.3	568.0	557.8	535.7	511.8	470.3	427.7	387.8	343.5	305.4	280.6	226.7	155.2	109.6	79.83	59.95	45.45	37.90	51.63	202.2	823.9	2181	2338	679.4	13.05	4.931	4.448	4.601	4.481	4.138	4.049	4.737	4.969	4.986	4.660	4.608	4.711	4.775	4.665	4.707	4.569	4.476	4.472	4.460	4.335	4.355	4.454	4.416	4.420	4.268	4.386	4.611	4.452	4.209	4.220	4.284	4.593
435.0	1852	1233	1251	1218	1150	1052	992.8	944.1	894.7	853.8	850.7	819.5	776.2	720.1	660.6	618.3	591.9	574.6	565.9	560.4	547.5	541.9	535.5	518.6	492.8	461.5	425.2	388.5	347.7	304.0	267.1	238.2	194.7	129.2	92.67	70.04	51.86	39.79	33.62	62.11	196.5	518.7	1627	3214	247.0	15.57	4.723	4.785	4.434	4.104	3.823	4.832	4.722	4.665	4.611	4.558	4.597	4.697	4.618	4.444	4.141	4.280	4.508	4.316	4.380	4.376	4.086	4.296	4.038	4.284	4.192	4.306	4.208	4.048	4.061	4.059	4.203
440.0	2386	1309	1208	1179	1106	1034	966.2	932.6	874.7	835.7	829.6	812.9	757.5	700.5	640.8	595.8	568.1	553.0	540.9	534.6	524.3	521.3	514.0	502.1	479.1	450.8	418.6	384.0	347.0	310.4	266.2	228.8	208.6	152.1	104.9	77.69	57.74	44.35	33.81	33.41	57.97	127.2	435.4	2284	2864	218.9	9.290	5.036	4.433	4.100	3.854	4.777	4.564	4.417	4.576	4.435	4.558	4.562	4.497	4.388	4.349	4.257	4.360	4.460	4.172	4.229	4.138	4.213	3.962	4.157	4.038	4.314	4.134	3.895	3.903	4.162	4.028
445.0	2539	1669	1172	1121	1071	982.8	942.6	920.5	862.7	829.4	812.7	791.2	735.9	671.6	611.8	567.1	548.3	533.5	518.3	510.3	500.8	502.3	493.0	480.1	465.2	437.0	407.8	380.0	344.9	310.5	269.7	223.9	200.9	172.8	118.7	83.85	64.35	47.36	36.76	29.69	30.34	41.21	107.7	657.8	2636	1933	161.4	6.578	4.622	4.065	3.855	4.517	4.630	4.425	4.485	4.375	4.530	4.191	4.650	4.349	4.386	4.362	4.199	4.518	4.120	3.904	4.071	3.795	3.935	3.994	3.738	3.869	3.908	3.721	3.780	3.935	3.976
450.0	1815	2443	1223	1042	1006	941.9	903.0	880.7	828.8	805.1	772.4	752.3	694.7	632.6	578.2	530.6	505.2	492.8	484.3	475.6	469.2	464.6	460.3	452.6	437.8	414.3	393.0	366.8	339.4	304.3	267.3	222.8	188.7	168.4	140.4	97.43	70.68	53.17	41.36	32.21	26.17	23.91	35.73	156.7	732.9	1883	2209	693.9	12.90	4.319	3.832	4.341	4.396	4.225	4.097	4.198	4.329	4.261	4.526	4.445	4.194	4.137	3.995	4.228	4.061	4.064	4.045	3.816	3.898	3.853	3.672	3.810	3.733	3.588	3.574	3.480	3.624
455.0	1083	2424	2064	973.7	927.4	862.6	846.8	818.8	787.1	756.6	733.8	694.2	654.8	587.8	533.4	490.1	467.7	453.0	442.8	434.1	431.6	421.7	424.5	417.7	404.3	386.2	369.1	349.9	324.7	293.9	258.9	220.9	185.5	156.8	141.1	117.5	80.04	58.65	45.63	36.27	28.43	22.85	21.41	45.55	172.1	439.7	1240	2862	922.5	15.02	4.242	4.425	4.281	4.121	3.956	3.812	4.255	4.114	4.187	4.073	4.056	3.897	4.039	4.092	3.821	4.056	3.924	3.787	3.671	3.641	3.646	3.368	3.614	3.371	3.351	3.352	3.406
460.0	889.0	1783	2852	1050	860.4	835.0	795.1	779.5	747.6	717.9	699.6	666.6	617.0	556.8	498.5	459.3	433.8	421.4	414.2	404.7	396.1	393.1	394.6	389.9	377.4	362.8	349.1	328.3	310.4	283.0	254.7	217.4	182.7	152.2	129.9	122.4	92.97	63.68	49.05	38.37	30.04	24.02	19.24	21.67	47.51	106.2	310.4	1723	2616	182.3	10.91	4.637	4.290	4.102	3.785	3.920	3.900	3.911	3.978	3.929	4.199	3.651	4.000	3.708	3.755	3.891	3.522	3.553	3.596	3.541	3.508	3.167	3.232	3.067	3.165	3.215	3.248
465.0	782.5	1153	2983	1469	820.0	776.3	746.9	736.6	711.8	687.0	668.1	624.9	576.9	520.0	466.5	431.4	406.9	390.1	383.1	373.2	369.5	367.2	363.2	362.4	350.4	343.1	326.0	312.8	296.7	275.5	246.3	210.5	178.4	148.5	125.1	113.7	102.0	71.51	51.46	40.74	32.35	25.55	20.77	17.89	20.39	32.19	77.02	454.6	1957	2127	159.9	8.485	4.358	4.053	3.815	3.650	3.972	3.892	3.817	3.829	3.959	3.780	3.994	3.362	3.655	3.511	3.374	3.263	3.224	3.315	3.380	3.017	3.009	3.185	2.998	3.151	2.980
470.0	741.2	841.2	1892	2288	948.3	707.1	690.9	669.2	653.3	625.6	613.5	580.1	530.6	475.2	423.3	388.0	367.3	354.6	341.2	334.6	330.5	329.1	327.7	324.6	318.0	309.8	299.9	287.7	274.3	257.2	231.3	202.1	172.9	144.5	119.7	102.8	94.78	81.05	57.46	42.72	33.94	27.35	22.63	18.72	16.10	16.76	24.91	108.4	507.4	1362	1539	696.2	15.01	4.126	3.789	3.677	3.689	3.673	3.705	3.595	3.430	3.550	3.626	3.399	3.357	3.205	3.290	3.084	3.227	3.126	3.125	2.868	2.827	2.915	2.668	2.880	2.865
475.0	701.2	690.5	965.3	2269	1641	664.1	624.6	613.9	595.3	570.5	554.4	532.0	480.8	432.6	382.6	346.6	327.7	314.1	307.3	298.9	293.6	288.7	292.1	287.0	283.9	277.2	268.0	258.5	249.5	235.9	215.4	189.3	162.6	137.2	116.0	97.59	83.06	77.22	68.70	48.21	35.55	28.38	23.57	20.23	16.25	13.91	13.84	31.19	118.9	310.8	648.3	1834	943.8	20.48	3.993	3.610	3.576	3.412	3.594	3.354	3.336	3.084	3.315	3.200	3.085	3.074	3.005	2.905	2.784	2.820	2.839	2.581	2.469	2.712	2.604	2.405	2.683
480.0	660.2	651.7	699.4	1581	2344	775.4	591.2	572.2	556.4	539.6	523.9	495.6	448.6	403.7	356.1	320.0	304.5	289.2	281.8	273.5	268.7	266.5	268.2	264.9	260.8	254.9	248.4	241.3	233.8	223.2	203.6	180.1	156.9	133.4	112.5	95.90	79.41	71.46	68.50	53.89	38.22	29.65	24.63	20.74	17.30	13.99	11.66	14.36	32.45	74.32	155.1	853.1	1990	221.2	15.04	3.583	3.481	3.295	3.340	3.333	3.182	3.228	3.032	3.037	2.983	2.802	3.061	2.643	2.572	2.711	2.580	2.688	2.606	2.678	2.397	2.368	2.542
485.0	590.1	632.0	607.2	931.4	2477	1254	541.9	538.2	522.1	507.3	498.3	465.3	424.2	374.6	334.6	302.0	283.1	269.8	263.0	257.3	252.0	248.3	247.3	245.3	243.4	239.5	234.9	227.3	219.6	212.7	194.5	173.5	151.3	129.3	109.3	92.53	79.22	66.44	62.83	58.61	42.06	31.27	25.46	21.04	17.52	14.44	12.16	10.90	13.65	21.78	39.17	212.4	1190	1721	199.8	9.962	3.624	3.257	3.193	3.163	2.947	3.045	2.909	2.911	2.966	2.660	2.652	2.730	2.396	2.500	2.439	2.654	2.340	2.312	2.227	2.329	2.290
490.0	498.1	618.2	563.3	618.5	1585	2195	711.5	494.4	485.5	467.6	459.4	430.9	391.3	347.9	306.9	276.9	259.6	246.7	238.4	235.2	228.6	224.5	224.1	223.4	220.7	217.8	213.4	210.1	203.2	198.8	181.3	163.2	143.9	123.8	105.1	89.90	77.54	65.07	57.61	55.53	48.16	35.78	26.88	21.84	17.98	15.18	12.82	10.83	9.915	10.26	13.52	51.55	293.5	908.2	1443	804.6	17.43	3.904	3.335	3.158	2.831	2.912	2.713	2.710	2.655	2.592	2.591	2.422	2.419	2.295	2.427	2.370	2.106	2.105	2.100	2.263	2.282
495.0	429.6	539.4	547.2	502.3	757.3	2221	1488	474.7	442.7	424.4	418.7	394.2	353.9	314.2	276.2	248.3	232.4	219.2	214.5	209.1	202.7	202.1	201.0	196.7	197.1	195.3	192.4	188.7	184.7	178.5	168.8	152.1	133.3	115.5	100.8	86.23	74.68	63.41	54.58	48.71	46.62	41.06	29.36	22.12	18.72	15.69	12.90	11.46	9.652	8.382	7.754	15.86	69.28	206.8	516.3	1630	1227	25.84	3.536	3.023	2.968	2.806	2.542	2.612	2.384	2.626	2.608	2.261	2.395	2.099	2.288	2.060	2.022	1.982	1.897	2.092	1.994
500.0	384.8	471.4	530.8	456.8	493.4	1465	2245	586.4	409.7	397.0	388.1	361.5	331.2	292.0	251.4	228.3	212.4	202.3	193.8	190.9	184.0	183.0	180.8	180.7	179.8	177.2	175.5	172.6	168.9	166.2	156.5	140.6	124.9	107.3	95.70	82.06	70.63	60.50	52.77	45.67	40.76	41.66	33.08	23.90	19.36	15.58	13.34	11.45	9.538	7.993	6.663	8.117	19.40	49.48	121.1	658.3	1947	911.3	20.57	3.283	2.712	2.649	2.555	2.581	2.369	2.448	2.284	2.145	2.227	2.099	2.083	1.947	2.065	1.971	2.010	1.916	1.814
505.0	336.0	406.1	490.0	445.6	403.8	772.2	2418	1039	381.0	365.8	362.9	333.9	306.3	275.0	234.7	208.0	195.3	186.4	177.4	171.8	170.5	166.7	163.7	164.2	162.4	161.8	161.6	159.7	153.6	153.0	143.9	131.6	115.1	101.4	88.31	77.83	66.82	58.25	50.44	43.13	38.20	36.86	35.58	25.74	19.66	15.70	13.19	11.46	9.469	7.921	6.779	6.065	7.983	14.55	30.46	157.7	951.2	1874	234.8	12.91	2.884	2.642	2.428	2.342	2.346	2.472	1.961	2.054	2.086	1.989	1.997	1.917	1.953	1.921	1.838	1.909	1.774
510.0	314.1	351.4	413.9	424.8	350.0	433.9	1480	2022	517.3	330.2	323.2	298.3	271.8	240.7	210.9	188.0	175.7	163.6	159.0	151.6	148.3	144.4	143.4	144.9	143.7	141.4	141.6	141.5	137.8	135.2	129.0	118.5	105.2	92.71	81.91	72.25	62.86	54.58	47.22	40.31	35.54	31.43	31.81	28.60	21.50	16.30	13.40	11.11	9.150	7.825	6.872	5.879	5.440	6.687	9.883	38.18	226.6	808.2	1341	751.9	18.50	3.068	2.531	2.328	2.245	2.159	2.021	1.934	1.839	1.923	1.863	1.752	1.828	1.703	1.594	1.605	1.723
515.0	281.6	298.8	330.1	397.0	330.8	310.3	610.5	2155	1262	307.7	285.2	266.7	241.9	213.4	182.9	166.4	152.5	144.1	138.6	133.5	127.7	125.0	123.0	124.6	122.7	122.5	123.4	121.9	120.5	118.9	113.4	105.9	92.89	83.45	73.97	65.93	57.33	50.59	44.16	37.62	32.38	28.27	26.02	26.95	24.14	17.25	12.71	10.70	8.976	7.692	6.683	6.005	4.928	4.829	5.228	11.46	53.29	183.0	422.2	1334	1021	26.00	2.916	2.197	2.107	2.070	1.816	1.834	1.911	1.792	1.613	1.761	1.634	1.515	1.457	1.542	1.525
520.0	252.9	272.4	287.3	337.3	327.2	271.8	340.0	1394	2157	403.3	256.3	236.7	220.8	190.0	165.4	150.1	136.9	129.6	123.1	119.3	115.1	113.1	111.2	111.1	109.7	108.9	109.2	109.1	110.1	107.1	103.2	95.11	84.74	76.77	69.16	60.32	53.98	47.05	40.72	35.75	30.74	26.52	23.54	23.24	23.94	18.91	13.06	10.78	8.609	7.341	6.385	5.988	5.003	4.619	3.985	5.267	14.40	43.38	98.09	515.1	1494	757.2	20.25	2.300	2.130	1.916	1.777	1.860	1.658	1.621	1.458	1.466	1.526	1.477	1.478	1.581	1.395
525.0	244.2	246.3	254.6	281.3	319.3	253.8	256.7	669.3	2490	841.6	234.9	220.1	198.4	172.9	154.3	137.3	125.2	117.8	110.1	107.1	103.0	101.4	101.6	99.89	100.4	98.89	98.21	96.79	99.34	97.44	94.45	86.13	78.25	70.25	63.35	55.74	49.67	43.52	38.09	33.07	28.96	25.10	21.63	20.14	20.93	20.13	14.40	10.81	8.500	7.208	6.082	5.354	5.048	4.390	3.685	3.966	5.706	12.12	24.38	121.9	683.9	1472	238.6	11.80	2.176	1.967	1.704	1.848	1.640	1.538	1.514	1.379	1.455	1.328	1.410	1.374	1.338
530.0	210.4	229.7	224.8	224.8	286.8	253.1	217.6	315.8	1531	1970	357.4	197.5	175.7	153.1	137.0	119.4	111.7	102.6	96.93	92.80	90.44	86.98	87.07	85.94	86.98	84.36	84.53	84.21	86.24	85.47	83.20	75.38	69.35	62.52	55.52	50.19	44.38	39.37	35.07	29.91	26.31	23.02	20.32	17.90	17.32	18.09	16.31	11.65	8.299	6.772	5.631	5.157	4.720	4.348	3.688	3.545	3.567	4.902	7.586	29.26	161.7	613.3	1046	598.4	17.53	2.354	1.815	1.733	1.473	1.560	1.425	1.352	1.372	1.288	1.262	1.243	1.311
535.0	185.5	197.1	196.8	190.4	215.4	254.7	192.1	205.4	541.7	2193	1094	177.8	154.6	133.4	117.3	102.6	95.30	90.00	84.80	79.96	78.36	74.42	74.80	73.83	73.24	71.25	71.85	72.30	72.50	74.02	70.00	66.51	59.67	53.68	48.78	44.73	40.05	34.48	31.62	27.69	23.74	21.28	18.58	16.28	14.28	14.08	15.10	12.84	8.599	6.455	5.283	4.750	4.250	3.895	3.984	3.460	2.922	3.204	3.704	8.312	37.75	138.8	315.6	971.9	746.3	25.16	2.006	1.645	1.480	1.526	1.348	1.341	1.192	1.295	1.189	1.123	1.090
540.0	163.0	173.6	183.1	166.4	172.6	240.4	188.3	166.2	245.3	1343	1901	217.4	137.9	117.0	104.3	90.84	85.40	80.39	73.71	70.24	70.00	66.84	65.36	63.05	64.66	63.27	62.96	63.94	64.08	64.51	62.47	58.44	53.53	48.25	43.97	38.82	36.09	31.58	28.35	25.42	21.73	18.97	16.27	14.73	13.03	11.98	12.48	12.99	9.399	6.411	5.216	4.792	3.863	3.778	3.561	3.532	2.920	2.782	2.668	3.659	10.28	32.64	72.87	359.1	1042	580.2	17.70	1.745	1.409	1.415	1.342	1.156	1.136	1.072	1.081	1.072	1.036
545.0	149.3	147.9	151.3	148.2	147.7	203.9	196.2	147.7	165.4	571.6	2362	585.9	125.2	106.2	92.18	80.89	76.93	71.07	66.47	62.48	60.99	59.35	57.80	57.14	56.34	56.03	55.59	56.37	57.77	56.96	55.17	52.56	47.83	43.22	39.47	35.11	32.18	28.39	25.99	22.56	19.29	17.37	14.97	13.78	12.21	10.69	9.941	11.59	10.28	6.955	5.006	4.482	3.755	3.434	3.132	3.131	3.231	2.630	2.214	2.409	3.976	8.793	17.92	84.44	460.6	1070	223.7	10.22	1.490	1.427	1.292	1.128	1.084	1.153	1.089	1.031	1.114
550.0	135.7	128.9	127.9	125.0	118.6	146.5	190.7	133.8	131.2	226.1	1364	1687	158.0	90.40	78.83	70.67	64.57	59.60	56.87	53.19	50.82	49.29	48.43	47.31	47.33	46.74	45.77	46.81	48.01	47.56	46.43	43.75	40.13	36.35	33.10	30.23	27.47	24.10	22.59	19.70	16.85	15.17	13.14	12.02	10.50	9.290	8.368	8.778	9.211	7.796	5.278	4.109	3.488	3.066	2.894	2.799	2.976	2.836	2.198	1.999	2.304	3.415	5.376	20.32	108.1	427.9	673.1	441.1	17.05	1.692	1.176	1.143	1.015	1.039	0.954	0.930	0.969
555.0	116.6	112.0	112.2	103.9	100.4	104.8	151.1	142.2	105.6	125.3	431.5	1988	749.7	79.05	65.94	58.57	53.21	48.77	47.56	43.72	41.63	40.81	39.09	38.17	37.56	37.32	37.83	37.92	38.78	38.90	37.12	37.22	32.41	30.65	27.29	25.03	22.40	20.14	18.30	16.37	14.63	12.85	11.67	9.908	8.924	8.152	7.025	6.367	6.691	7.371	5.997	4.309	3.252	2.768	2.658	2.372	2.301	2.585	2.543	1.859	1.673	1.964	2.443	5.789	25.23	96.62	198.3	659.5	512.1	23.16	1.423	1.165	0.997	1.007	0.950	0.928	0.916
560.0	109.8	100.9	95.60	87.52	82.83	83.36	114.3	149.6	96.27	96.57	166.5	1195	1425	114.9	56.53	50.19	45.72	42.11	40.10	37.55	35.45	33.73	32.97	31.65	31.71	31.77	31.68	32.43	32.53	32.95	31.75	30.44	27.44	26.10	23.56	21.13	19.89	17.47	15.74	14.51	12.71	11.05	9.990	8.854	7.798	7.081	5.997	5.729	5.402	5.812	5.749	4.477	3.097	2.515	2.338	2.183	1.973	2.146	2.464	2.096	1.655	1.615	1.727	2.386	6.594	22.68	45.84	240.3	692.9	244.5	14.72	1.228	0.924	0.987	0.888	0.858	0.835
565.0	93.01	93.59	85.71	77.04	76.23	71.26	85.62	144.6	98.41	79.73	93.07	467.3	2017	362.6	50.28	43.72	40.53	36.00	34.28	30.60	30.24	28.49	28.89	26.63	27.24	26.96	27.26	27.27	27.57	27.78	27.44	26.04	23.62	22.54	20.27	18.53	16.69	15.28	13.76	12.30	10.75	9.913	8.764	7.889	6.973	6.187	5.640	4.853	4.297	4.600	4.835	4.928	3.151	2.302	2.152	1.978	1.730	1.826	1.925	2.082	1.618	1.419	1.379	1.556	2.458	6.133	11.26	56.20	298.7	613.5	194.8	5.693	1.020	0.879	0.786	0.800	0.797
570.0	89.29	75.49	74.05	65.07	64.06	60.41	63.19	105.9	111.0	70.27	68.62	156.6	1204	1310	80.53	35.76	33.09	29.72	28.53	25.85	24.48	23.48	23.26	22.32	22.40	22.10	21.70	22.41	23.02	22.81	22.05	21.53	19.54	18.24	16.64	15.27	13.83	12.46	11.43	10.17	9.365	8.260	7.411	6.606	6.073	5.221	4.859	3.987	3.702	3.495	3.575	4.261	3.390	2.348	2.040	1.817	1.666	1.645	1.565	1.800	1.746	1.408	1.298	1.204	1.398	2.293	3.420	13.49	70.35	250.0	427.1	208.0	14.38	1.127	0.829	0.801	0.773
575.0	81.42	61.95	60.47	59.98	53.02	53.01	50.02	69.44	120.3	73.01	57.47	75.56	355.2	1668	463.9	30.88	27.62	24.35	22.72	21.25	20.07	18.41	19.28	18.22	17.47	17.73	17.00	17.41	17.85	18.35	18.20	16.68	15.84	14.32	13.83	12.61	10.69	10.19	9.242	8.214	7.629	6.882	6.063	5.467	4.962	4.645	3.954	3.289	3.044	2.731	2.536	3.147	3.074	2.712	2.008	1.715	1.566	1.545	1.321	1.392	1.536	1.543	1.393	1.133	1.183	1.282	1.625	3.804	16.48	56.65	126.4	363.4	239.1	18.54	0.995	0.771	0.662
580.0	74.82	69.23	60.69	54.44	48.53	43.01	46.00	50.45	100.2	83.21	50.89	54.28	115.5	1022	1022	46.96	23.28	20.89	19.41	18.58	17.38	15.92	16.02	15.75	14.99	15.44	14.89	14.38	14.66	15.58	15.38	14.40	13.60	12.48	11.65	11.11	9.600	8.667	8.103	7.504	6.470	5.953	5.552	4.819	4.279	4.125	3.357	3.025	2.867	2.409	2.225	2.400	2.681	2.812	2.123	1.661	1.484	1.418	1.214	1.302	1.292	1.346	1.565	1.192	1.163	0.965	1.075	1.715	4.411	13.39	29.35	135.7	377.0	189.3	9.907	0.860	0.798
585.0	73.55	69.11	54.03	46.55	42.80	42.71	40.34	43.04	72.61	99.66	51.01	47.51	58.74	386.7	1494	110.3	20.99	18.00	17.48	15.96	14.61	14.63	14.05	13.19	12.96	12.73	12.62	13.03	12.89	13.00	13.11	11.89	11.22	10.34	9.801	9.570	8.425	7.559	6.862	6.159	5.230	5.126	4.702	4.257	3.760	3.505	2.948	2.592	2.585	2.078	1.890	1.950	2.081	2.611	2.247	1.712	1.363	1.449	1.198	1.329	1.251	1.161	1.503	1.439	1.042	0.948	1.048	1.212	1.732	3.771	7.352	32.08	169.3	363.0	124.4	3.508	0.836
590.0	65.51	62.46	51.84	43.46	39.60	37.74	35.69	39.65	48.99	95.62	65.69	42.32	41.81	118.5	892.9	797.6	40.19	15.88	14.30	13.70	12.01	11.85	11.58	10.87	10.45	10.79	10.30	10.61	10.63	10.76	11.04	9.721	9.070	8.375	8.166	7.631	6.932	6.265	5.946	5.211	4.644	4.369	3.942	3.607	3.274	3.096	2.658	2.372	2.112	1.843	1.608	1.639	1.646	1.993	2.183	1.868	1.460	1.258	1.103	1.176	0.990	1.053	1.215	1.452	1.231	0.980	0.917	1.101	1.138	1.574	2.401	7.900	39.94	145.7	237.7	126.8	12.63
595.0	62.36	59.38	53.58	41.41	34.55	33.56	32.51	36.05	40.23	71.65	87.36	45.33	38.82	53.79	256.7	1093	258.6	14.93	12.14	11.15	10.21	9.672	9.218	8.994	8.484	8.401	8.395	8.912	8.924	8.733	8.605	8.209	7.576	7.363	6.277	6.248	5.438	5.398	4.887	4.567	4.015	3.834	3.462	2.991	2.594	2.578	2.207	2.110	1.686	1.546	1.406	1.413	1.375	1.415	1.770	1.967	1.663	1.207	1.155	1.057	1.188	1.057	0.979	1.207	1.347	1.087	1.053	0.907	0.990	1.075	1.348	2.405	9.580	33.09	70.34	202.3	173.3
600.0	62.08	60.55	58.43	42.67	36.77	35.53	33.36	38.68	41.49	56.29	98.14	58.98	43.94	42.02	82.66	705.1	684.2	24.87	10.92	9.744	8.931	8.556	7.781	7.892	7.578	7.270	7.166	7.449	7.662	7.484	7.530	6.758	6.370	6.404	5.747	5.497	4.744	4.331	4.053	3.897	3.539	3.119	2.929	2.601	2.652	2.248	2.021	1.817	1.639	1.436	1.316	1.214	1.245	1.149	1.333	1.794	1.698	1.328	1.013	1.063	1.005	0.967	0.945	1.101	1.140	1.306	1.176	0.841	0.984	1.006	1.026	1.216	2.808	8.156	16.49	74.45	232.0
605.0	69.73	71.86	58.82	43.95	38.60	38.36	39.53	45.24	51.05	60.11	106.0	90.74	61.67	52.16	52.22	281.7	999.8	78.06	9.765	8.711	7.444	7.703	6.980	6.950	6.414	6.062	6.140	6.380	6.366	6.621	6.188	5.832	5.429	5.393	4.840	4.709	4.419	3.873	3.590	3.359	3.071	2.812	2.576	2.394	2.226	2.071	1.861	1.720	1.479	1.330	1.235	1.143	1.044	1.123	1.104	1.491	1.670	1.471	1.111	1.027	0.964	0.936	1.035	1.049	1.073	1.225	1.326	1.074	1.138	1.096	1.044	1.052	1.377	2.546	4.403	17.76	98.52
610.0	93.58	86.26	69.06	52.77	45.44	45.05	53.38	65.57	79.35	98.41	133.6	152.6	110.3	84.18	74.18	115.0	676.2	541.3	21.54	7.615	6.586	6.677	5.952	5.761	5.247	5.201	5.453	4.961	5.349	5.284	5.123	5.088	4.639	4.451	4.004	3.997	3.403	3.425	3.159	2.929	2.675	2.396	2.351	1.997	1.839	1.924	1.643	1.508	1.355	1.157	1.088	1.093	1.046	1.019	1.003	1.168	1.441	1.442	1.316	1.137	1.029	1.141	1.141	1.211	1.191	1.292	1.524	1.431	1.378	1.176	1.139	1.157	1.245	1.441	1.821	4.737	23.57
615.0	90.24	93.31	82.13	62.46	52.15	49.84	60.19	74.52	92.05	114.1	138.8	176.5	145.8	103.1	91.52	79.86	239.1	876.8	79.41	7.124	5.729	5.027	4.734	4.758	4.360	4.412	4.507	4.255	4.483	3.994	4.400	3.928	3.782	3.702	3.525	3.286	2.761	2.913	2.790	2.414	2.262	1.967	1.850	1.696	1.635	1.624	1.477	1.360	1.291	1.122	1.027	1.051	0.950	1.049	0.980	1.160	1.177	1.480	1.428	1.295	1.115	1.175	1.172	1.219	1.325	1.369	1.442	1.567	1.538	1.348	1.264	1.148	1.273	1.131	1.217	1.906	5.995
620.0	98.76	98.50	79.29	64.35	48.84	51.94	64.71	76.78	89.07	113.3	129.9	163.7	160.9	110.2	91.31	70.28	105.2	613.7	446.8	10.19	5.119	5.024	4.428	4.027	3.970	3.583	3.776	4.074	3.824	3.292	3.752	3.208	3.536	3.078	2.978	2.821	2.532	2.575	2.275	2.127	2.110	1.686	1.697	1.436	1.378	1.453	1.333	1.254	1.242	1.019	0.985	0.985	0.873	0.856	0.843	0.940	0.980	1.128	1.384	1.319	1.197	1.033	1.144	1.241	1.334	1.223	1.246	1.330	1.571	1.304	1.237	1.247	1.155	1.185	1.159	1.239	2.032
625.0	94.54	97.02	89.04	64.42	54.06	51.59	66.76	76.83	89.20	108.0	121.9	150.0	162.7	113.8	91.25	68.28	72.48	259.9	718.4	47.02	4.967	4.260	3.907	4.010	3.507	3.314	3.167	3.424	3.280	3.100	3.320	3.158	2.778	2.856	2.606	2.389	2.363	2.115	1.964	1.969	1.740	1.590	1.401	1.427	1.286	1.389	1.285	1.210	1.138	1.038	0.947	0.857	0.858	0.884	0.826	0.867	0.873	0.971	1.192	1.260	1.109	1.045	1.105	1.179	1.136	1.233	1.236	1.306	1.383	1.341	1.278	1.137	1.121	1.218	1.116	1.158	1.142
630.0	97.21	106.7	93.93	67.40	53.37	54.42	65.39	74.34	84.79	103.8	120.3	136.6	152.9	124.0	92.92	68.19	64.02	91.32	505.6	357.1	9.605	3.927	3.679	3.255	3.150	2.912	2.674	2.704	2.620	2.670	2.851	2.706	2.261	2.324	2.303	2.012	1.928	1.709	1.718	1.767	1.602	1.442	1.311	1.281	1.185	1.282	1.125	1.074	1.040	0.889	0.809	0.880	0.875	0.863	0.845	0.826	0.833	0.936	1.040	1.228	1.177	1.074	1.101	1.093	1.123	1.163	1.261	1.306	1.255	1.353	1.302	1.247	1.248	1.157	1.002	0.956	0.966
635.0	102.0	116.0	106.9	73.12	56.93	56.44	61.58	73.79	80.86	101.8	118.6	134.2	140.2	136.8	98.42	69.14	62.62	48.70	153.8	602.5	60.02	3.517	3.169	2.838	2.576	2.819	2.386	2.547	2.270	2.462	2.230	2.088	1.979	2.033	1.784	1.766	1.632	1.565	1.455	1.525	1.536	1.255	1.192	1.187	0.977	1.145	1.040	0.978	0.905	0.843	0.823	0.848	0.842	0.866	0.765	0.833	0.835	0.817	1.023	1.080	1.103	1.074	1.119	1.097	1.014	1.075	1.180	1.248	1.306	1.326	1.276	1.326	1.183	1.049	0.991	1.052	0.932
640.0	121.3	122.2	98.58	69.53	56.57	54.26	61.01	72.97	84.09	99.96	115.5	133.8	136.2	133.2	103.2	69.89	61.87	39.54	45.40	451.7	305.7	5.287	3.000	2.533	2.458	2.379	1.931	2.156	2.232	1.906	2.124	1.922	1.821	1.728	1.665	1.605	1.523	1.348	1.414	1.355	1.424	1.283	1.186	1.101	1.083	1.100	1.062	1.061	0.956	0.855	0.745	0.809	0.767	0.779	0.685	0.793	0.881	0.899	0.954	0.954	0.966	1.055	1.043	1.130	1.011	1.084	1.085	1.127	1.267	1.152	1.058	1.411	1.300	1.177	0.934	1.028	1.030
645.0	124.0	136.5	111.0	73.67	56.37	52.86	62.51	72.47	74.92	97.68	112.7	128.6	127.3	125.4	110.1	69.63	60.20	36.04	18.70	193.5	530.2	28.57	2.957	2.355	2.008	2.190	1.902	1.959	1.904	1.684	1.954	1.666	1.584	1.389	1.263	1.369	1.294	1.318	1.238	1.194	1.247	1.258	1.174	0.976	0.969	1.104	0.963	1.046	0.917	0.795	0.729	0.809	0.786	0.730	0.648	0.781	0.822	0.884	0.838	0.822	0.969	1.085	1.191	1.033	1.058	1.048	1.097	1.154	1.142	1.181	1.127	1.295	1.293	1.187	1.044	0.952	0.869
650.0	130.3	130.7	119.1	80.59	55.11	47.95	61.05	70.05	72.73	87.12	108.5	118.8	120.2	114.7	107.4	67.63	56.80	33.72	12.75	57.32	511.9	144.4	3.073	2.268	2.095	1.820	1.637	1.700	1.609	1.710	1.669	1.533	1.358	1.363	1.378	1.326	1.186	1.198	1.179	1.178	1.171	1.279	1.138	0.909	0.974	1.009	0.965	0.895	0.959	0.833	0.654	0.789	0.723	0.620	0.573	0.697	0.767	0.887	0.832	0.734	0.875	0.963	1.163	1.002	1.023	0.930	1.109	1.031	1.124	1.125	1.158	1.139	1.336	1.150	1.184	0.834	0.889
