Sample:	'1
File name:	w090301¶«Õ¢´åÇÅ.FD3
Run date:	'16:37:36, 09/03/2024
Operator:	horiz
Comment:	'

Instrument
Model:	F-2700 FL Spectrophotometer
Serial number:	23B8-004
ROM Version:	4J14000 07

Instrument parameters
Measurement type:	3-D scan
Data mode:	Fluorescence
EX  Start WL:	220.0 nm
EX  End WL:	600.0 nm
EX Sampling interval:	5.0 nm
EM  Start WL:	230.0 nm
EM  End WL:	650.0 nm
EM Sampling interval:	5.0 nm
Scan speed:	12000 nm/min
EX Slit:	5.0 nm
EM Slit:	5.0 nm
PMT Voltage:	700 V
Response:	Auto 
Corrected spectra:	Off
Contour interval:	50.000

Peak integration
Integration method:	Rectangular
Sensitivity:	1
Threshold:	1.000

Peaks
No.	ApexEX/EM(nm)	Height(Data)
1	230.0/345.0	895.1
2	230.0/500.0	260.5
3	235.0/515.0	223.5
4	240.0/525.0	200.8
5	245.0/535.0	171.1
6	250.0/550.0	144.0
7	255.0/280.0	575.4
8	255.0/560.0	120.0
9	260.0/285.0	502.5
10	260.0/575.0	103.8
11	265.0/585.0	91.68
12	270.0/300.0	778.0
13	270.0/600.0	79.56
14	275.0/305.0	836.3
15	275.0/340.0	507.3
16	275.0/610.0	65.57
17	280.0/310.0	730.2
18	280.0/625.0	59.14
19	285.0/315.0	705.9
20	285.0/635.0	44.69
21	290.0/325.0	644.8
22	295.0/330.0	498.7
23	300.0/335.0	457.3
24	305.0/345.0	392.2
25	310.0/350.0	333.0
26	315.0/355.0	321.6
27	320.0/360.0	310.1
28	325.0/370.0	287.8
29	330.0/375.0	283.2
30	335.0/380.0	281.5
31	340.0/390.0	245.9
32	345.0/395.0	234.4
33	350.0/400.0	232.3
34	360.0/415.0	188.4
35	365.0/420.0	182.6
36	395.0/460.0	78.04
37	415.0/485.0	41.36
38	430.0/505.0	27.07
39	440.0/520.0	20.06
40	445.0/525.0	17.31
41	455.0/540.0	12.17
42	520.0/285.0	5.049
43	530.0/290.0	5.084
44	540.0/295.0	5.953
45	545.0/300.0	6.538
46	555.0/305.0	6.722
47	565.0/310.0	5.878
48	575.0/315.0	6.338
49	580.0/320.0	6.147
50	585.0/325.0	6.418

Wavelength data
No.	EX/EM(nm)	Height(Data)	

Data points
	220.0	225.0	230.0	235.0	240.0	245.0	250.0	255.0	260.0	265.0	270.0	275.0	280.0	285.0	290.0	295.0	300.0	305.0	310.0	315.0	320.0	325.0	330.0	335.0	340.0	345.0	350.0	355.0	360.0	365.0	370.0	375.0	380.0	385.0	390.0	395.0	400.0	405.0	410.0	415.0	420.0	425.0	430.0	435.0	440.0	445.0	450.0	455.0	460.0	465.0	470.0	475.0	480.0	485.0	490.0	495.0	500.0	505.0	510.0	515.0	520.0	525.0	530.0	535.0	540.0	545.0	550.0	555.0	560.0	565.0	570.0	575.0	580.0	585.0	590.0	595.0	600.0
230.0	129.7	2649	5634	1689	66.77	18.30	16.09	13.25	11.46	10.36	9.987	9.499	8.381	7.533	6.360	5.736	5.181	5.242	4.894	4.539	4.362	3.887	3.557	3.720	3.392	3.399	3.025	3.013	2.763	2.690	2.618	2.594	2.549	2.392	2.275	2.056	2.051	1.998	1.732	1.721	1.653	1.820	1.708	1.512	1.549	1.553	4.087	15.05	26.46	18.50	6.992	1.969	1.199	1.158	1.117	1.168	1.135	1.094	1.115	1.098	1.042	1.072	1.079	0.974	1.078	1.037	1.018	0.980	0.975	0.951	0.942	0.969	0.939	0.963	0.941	0.947	0.984
235.0	148.2	749.4	4237	5389	2373	111.9	18.50	15.23	12.53	11.27	11.01	9.875	8.941	7.687	6.991	6.277	5.511	5.157	5.308	4.418	4.376	3.781	3.809	3.787	3.689	3.324	3.169	3.166	2.719	2.616	2.664	2.547	2.581	2.261	2.321	2.089	2.017	1.897	1.932	1.793	1.656	1.681	1.828	1.665	1.700	1.524	2.016	4.917	11.31	20.13	29.47	24.19	14.01	3.582	1.226	1.220	1.186	1.178	1.067	1.054	1.055	1.018	1.115	1.001	1.127	1.027	1.029	1.023	0.882	0.970	0.924	0.988	0.985	0.968	0.892	1.184	0.999
240.0	187.8	268.8	1359	6343	9329	1908	64.42	19.44	15.71	13.11	11.43	10.33	9.660	7.597	7.313	6.522	5.505	5.435	5.048	4.975	4.478	4.109	3.969	3.659	3.529	3.526	3.128	3.087	2.857	2.787	2.594	2.624	2.616	2.252	2.434	1.989	2.009	2.028	1.968	1.860	1.580	1.632	1.529	1.683	1.844	1.902	1.787	2.242	3.578	6.597	17.06	41.40	51.49	25.00	11.98	2.289	1.234	1.131	1.171	1.161	1.158	1.167	1.128	1.093	1.065	1.099	1.077	1.050	0.994	0.988	0.992	1.104	1.064	0.962	0.966	1.012	1.018
245.0	162.3	234.9	383.9	2375	9999.9	8817	351.6	37.78	19.82	15.44	13.79	12.31	10.64	9.094	7.822	6.793	5.830	5.672	5.139	5.065	4.332	4.239	4.185	4.166	3.626	3.646	3.311	3.312	3.060	2.881	2.619	2.658	2.457	2.414	2.459	1.987	2.117	2.145	1.885	1.897	1.589	1.671	1.586	1.651	1.585	2.004	1.910	1.939	1.984	2.484	4.957	14.96	37.13	60.91	60.81	22.46	9.245	1.630	1.321	1.117	1.190	1.114	1.121	1.092	1.010	1.111	1.049	0.983	0.993	1.074	1.032	1.069	1.006	0.877	0.973	1.011	0.964
250.0	101.2	183.1	300.7	637.4	3626	9617	9999.9	4494	109.0	22.13	18.44	15.29	13.18	10.42	8.799	7.661	6.739	6.224	5.806	5.342	4.651	4.280	4.267	4.377	4.129	3.606	3.710	3.466	3.306	3.311	2.817	2.702	2.582	2.507	2.311	2.190	2.197	2.123	2.042	1.894	1.771	1.761	1.695	1.563	1.616	1.658	1.738	2.036	2.096	2.040	2.233	4.433	9.709	20.47	37.40	55.63	76.42	64.64	17.58	8.788	1.897	1.261	1.151	1.147	1.124	1.120	1.027	1.001	0.978	1.083	1.071	1.000	0.945	1.059	1.039	1.023	0.997
255.0	88.96	98.69	203.6	405.0	907.4	2465	9999.9	9999.9	1960	131.0	26.04	21.29	17.56	12.68	10.21	8.622	7.924	6.633	6.790	5.704	4.907	5.066	4.457	4.325	3.926	4.111	3.817	3.784	3.689	3.084	3.176	2.803	2.649	2.381	2.253	2.275	2.258	2.146	2.114	1.862	1.854	1.758	1.772	1.665	1.686	1.478	1.542	1.544	1.695	2.086	2.446	3.021	3.517	5.573	9.455	14.18	27.87	68.15	127.4	123.8	27.63	11.61	1.599	1.288	1.188	1.239	1.083	1.132	1.121	1.114	1.111	1.046	1.020	1.098	1.129	1.170	0.998
260.0	90.40	78.77	107.0	313.8	449.8	624.5	3153	9999.9	9999.9	1626	97.52	28.88	20.15	16.91	12.37	9.765	8.173	8.071	6.998	6.150	5.464	5.070	4.697	4.472	4.000	4.236	3.978	3.755	3.324	3.534	3.217	2.994	2.663	2.553	2.375	2.284	2.262	2.306	2.004	1.943	2.021	1.913	1.769	1.672	1.782	1.703	1.548	1.503	1.513	1.562	1.937	3.110	3.094	2.972	3.280	4.252	7.610	18.56	54.98	116.8	166.8	135.4	23.96	6.765	1.405	1.313	1.067	1.131	1.134	1.210	1.058	1.139	1.126	1.009	1.054	1.044	1.066
265.0	96.48	73.36	67.66	165.3	413.6	338.8	777.2	4316	9999.9	9999.9	1292	58.84	29.01	21.52	14.96	11.52	10.12	8.535	7.638	6.730	6.089	5.427	4.998	4.746	4.668	4.247	3.854	4.318	3.254	3.451	3.574	3.222	2.983	2.600	2.557	2.380	2.257	2.245	2.080	2.017	2.040	1.979	1.820	1.879	1.829	1.736	1.541	1.636	1.444	1.306	1.390	2.180	2.786	3.340	2.929	2.369	2.875	5.463	13.81	33.90	90.49	175.0	204.2	32.73	18.36	3.345	1.327	1.270	1.358	1.187	1.255	1.145	1.126	1.068	1.209	1.134	1.128
270.0	107.7	85.66	63.43	82.89	214.2	391.1	397.3	1061	4522	9999.9	9999.9	5447	92.76	33.16	21.62	15.98	13.13	10.53	9.415	8.002	7.105	6.211	5.924	5.323	4.938	4.758	4.395	4.250	3.719	3.716	3.797	3.461	3.049	2.866	2.757	2.338	2.369	2.370	2.223	2.229	1.995	2.062	1.979	1.938	1.832	1.909	1.681	1.624	1.463	1.367	1.294	1.538	1.846	2.313	3.060	3.498	3.397	3.121	4.456	8.841	21.99	49.03	96.06	135.3	192.3	158.1	101.9	13.29	3.986	1.488	1.367	1.292	1.266	1.170	1.145	1.195	1.217
275.0	125.7	105.5	73.34	61.98	94.64	194.6	509.5	471.5	1083	2646	9999.9	9999.9	7726	110.8	36.29	24.16	16.86	13.55	11.51	9.996	8.366	7.067	6.758	5.994	5.482	5.169	4.483	4.464	4.253	3.963	3.953	3.634	3.577	3.173	3.104	2.658	2.609	2.328	2.250	2.303	2.182	2.170	1.984	2.125	1.852	1.791	1.878	1.854	1.631	1.542	1.324	1.442	1.653	1.691	2.008	2.199	3.437	4.541	4.334	3.652	6.084	12.28	22.80	32.03	54.49	116.4	251.6	251.9	168.7	19.62	3.096	1.607	1.400	1.382	1.332	1.399	1.397
280.0	138.8	129.0	91.65	68.28	69.35	96.16	322.1	575.4	404.2	676.7	3181	9999.9	9999.9	5623	83.54	33.75	22.16	18.01	13.70	11.82	9.140	8.116	7.452	6.643	6.007	5.665	4.765	4.978	4.468	4.347	4.194	3.763	3.589	3.411	3.205	2.710	2.850	2.420	2.367	2.504	2.374	2.382	2.106	2.068	2.105	1.919	1.981	1.892	1.786	1.479	1.461	1.494	1.575	1.696	1.649	1.803	2.128	3.282	4.842	4.623	3.530	4.301	6.397	8.622	13.63	29.09	81.66	192.2	336.4	247.0	31.41	14.39	2.040	1.791	1.468	1.515	1.372
285.0	174.7	146.4	112.2	81.54	71.42	79.01	150.5	478.3	502.5	270.9	820.1	4411	9999.9	9999.9	849.0	60.25	30.81	22.91	17.27	13.73	11.02	9.626	7.824	7.138	6.018	5.910	5.218	5.229	4.724	4.461	4.518	3.986	3.926	3.414	3.464	3.023	3.159	2.579	2.543	2.467	2.172	2.328	2.126	2.239	2.269	2.037	2.077	2.089	1.808	1.700	1.587	1.580	1.685	1.713	1.589	1.620	1.797	2.138	3.000	4.637	5.049	4.085	3.165	3.314	4.439	8.167	19.91	48.15	124.2	266.0	377.5	224.4	25.99	8.630	1.966	1.716	1.793
290.0	218.0	202.9	155.4	115.9	88.30	79.33	99.90	212.1	486.8	453.5	336.5	1132	4577	9999.9	9999.9	9999.9	69.26	36.12	24.76	18.12	13.73	11.13	9.583	8.225	7.217	6.895	6.197	5.826	5.272	4.781	4.806	4.486	3.950	3.790	3.739	3.445	3.261	2.954	2.682	2.616	2.462	2.300	2.377	2.278	2.297	2.252	2.293	2.290	2.054	1.876	1.771	1.853	1.785	1.695	1.714	1.657	1.867	1.786	2.203	2.648	3.500	4.481	5.084	4.383	3.323	3.564	6.122	12.41	29.60	66.36	133.4	214.1	279.4	291.9	141.8	18.34	8.584
295.0	250.8	243.7	213.8	148.1	108.8	96.77	99.93	133.8	226.4	533.7	627.9	419.9	1178	2573	9999.9	9999.9	5190	80.63	38.21	25.90	19.12	14.67	12.31	10.46	8.223	7.979	6.877	6.562	5.661	5.421	5.153	4.699	4.347	3.987	4.135	3.414	3.359	3.138	2.891	2.678	2.629	2.380	2.530	2.407	2.519	2.520	2.295	2.406	2.237	1.982	1.988	2.144	1.980	1.854	1.799	1.759	1.804	1.988	1.902	2.185	2.355	2.607	3.314	4.975	5.953	4.648	3.634	4.494	8.519	16.48	31.62	49.83	67.63	119.7	270.6	449.8	258.0
300.0	284.8	285.2	260.3	178.6	126.2	116.5	115.3	130.9	174.0	322.1	778.0	532.5	453.8	732.7	2931	9999.9	9999.9	4045	67.76	35.47	24.57	18.61	14.23	11.78	9.843	9.013	7.889	7.006	6.141	5.665	5.279	4.898	4.528	4.220	4.233	3.529	3.474	3.297	3.214	2.998	2.819	2.630	2.527	2.552	2.596	2.551	2.493	2.509	2.351	2.179	2.006	2.199	2.015	1.960	1.954	1.910	2.234	2.072	2.116	2.253	2.218	2.463	2.758	3.147	4.925	6.538	5.483	4.086	3.950	5.746	9.081	13.06	17.10	29.11	73.31	207.5	405.6
305.0	323.5	325.0	284.0	204.2	153.9	129.0	134.6	152.9	188.6	259.2	544.5	836.3	425.6	345.8	799.6	3829	9999.9	9999.9	567.5	57.46	32.28	23.46	17.31	14.87	11.70	10.76	8.570	7.892	6.620	6.015	5.753	5.219	5.022	4.266	4.325	3.698	3.746	3.338	3.290	3.344	3.097	2.640	2.692	2.596	2.537	2.810	2.576	2.518	2.595	2.317	2.130	2.296	2.198	2.056	1.968	1.962	2.363	2.277	2.212	2.447	2.552	2.621	2.706	2.688	3.591	4.665	6.148	6.722	4.597	3.758	4.231	5.279	5.870	8.608	18.31	49.61	121.2
310.0	334.7	352.8	327.4	232.9	171.4	153.5	158.3	184.6	214.6	267.9	388.2	647.9	730.2	401.4	343.0	984.5	4257	9999.9	9999.9	9999.9	179.8	34.42	24.78	18.98	14.17	12.71	10.24	9.057	7.699	7.078	6.529	5.686	5.702	4.698	4.695	3.941	3.966	3.718	3.541	3.307	3.219	3.036	2.953	2.899	2.715	2.976	2.714	2.752	2.754	2.469	2.298	2.524	2.364	2.307	2.145	2.179	2.430	2.476	2.489	2.592	2.682	2.779	2.922	2.896	3.215	3.605	4.083	5.142	5.626	5.878	4.741	3.965	3.693	4.028	6.188	13.00	28.98
315.0	372.0	396.7	367.5	251.8	184.4	173.6	182.6	208.6	239.2	292.5	370.6	460.7	607.8	705.9	334.6	350.2	1055	2519	9999.9	9999.9	3905	64.36	37.00	26.20	18.49	15.43	12.04	10.92	9.079	8.110	7.027	6.001	6.164	5.112	5.135	4.325	4.070	3.915	3.736	3.557	3.385	3.403	3.202	2.986	3.081	3.271	3.011	3.075	2.923	2.584	2.332	2.635	2.473	2.523	2.479	2.534	2.621	2.513	2.639	2.648	2.900	2.913	2.953	3.082	3.374	3.596	3.603	4.093	4.174	4.629	5.925	6.338	4.856	3.633	3.618	4.909	8.435
320.0	400.4	473.5	461.2	307.8	214.2	186.2	207.2	231.5	272.7	324.0	389.0	441.1	489.7	678.8	534.8	245.9	347.8	660.4	2932	9999.9	9999.9	3247	58.30	34.61	24.55	18.93	14.33	12.56	10.18	8.730	8.178	7.021	6.906	5.666	5.383	4.634	4.507	4.028	3.846	3.665	3.448	3.345	3.278	3.150	3.341	3.427	3.247	3.369	3.358	2.842	2.767	2.839	2.571	2.570	2.611	2.522	2.615	2.591	3.039	2.815	2.949	3.150	3.200	3.371	3.608	3.703	3.755	3.652	3.792	3.868	4.583	5.643	6.147	5.092	3.406	3.305	3.964
325.0	455.1	591.5	596.9	388.6	247.2	218.3	229.3	258.9	296.6	343.6	423.7	464.2	467.5	513.3	644.8	355.4	206.3	246.0	745.4	4082	9999.9	9999.9	447.7	52.08	31.18	24.00	17.05	13.97	11.43	10.16	8.767	7.832	6.885	6.039	5.518	5.112	4.866	4.352	4.061	3.963	3.502	3.451	3.533	3.441	3.582	3.506	3.607	3.985	3.808	3.451	3.191	3.072	2.682	2.692	2.707	2.639	2.771	2.948	3.183	3.038	3.077	3.363	3.523	3.514	3.483	3.678	3.770	3.682	3.990	3.820	4.131	4.391	5.150	6.418	5.271	3.859	3.170
330.0	519.7	696.6	741.2	508.0	330.5	272.1	270.7	289.1	327.4	375.7	448.8	486.2	481.3	449.2	482.2	498.7	299.5	170.7	254.2	998.3	4576	9999.9	9999.9	9999.9	150.1	34.49	23.22	18.23	14.28	11.95	10.18	9.038	7.840	6.759	6.027	5.505	4.982	4.635	4.321	4.071	3.795	3.511	3.469	3.469	3.752	3.867	3.882	4.438	4.436	3.851	3.496	3.363	3.264	3.195	2.966	2.837	3.068	3.136	3.154	3.238	3.336	3.561	3.732	3.726	3.800	3.878	3.950	3.899	3.959	4.071	3.978	4.012	4.180	4.460	4.844	5.043	4.698
335.0	554.5	787.5	828.9	606.9	424.2	336.5	319.9	331.0	362.7	409.0	471.0	499.8	497.2	450.2	397.9	380.9	457.3	252.3	156.9	305.0	1097	2534	9999.9	9999.9	3280	56.92	34.64	25.60	18.52	14.29	12.51	10.21	8.941	7.652	6.556	5.660	5.373	4.724	4.519	4.310	4.134	3.880	3.586	3.738	4.109	3.991	4.356	4.872	4.871	4.384	3.952	3.920	3.639	3.659	3.262	3.322	3.537	3.493	3.558	3.285	3.429	3.667	3.818	3.881	3.879	3.814	4.105	3.926	4.344	4.058	4.295	4.072	4.118	3.821	4.008	3.954	4.317
340.0	587.0	810.3	884.6	685.8	490.7	398.5	373.8	366.2	383.8	424.4	474.4	507.3	504.6	461.0	387.6	319.7	383.9	385.9	173.5	156.7	323.6	643.4	3137	9999.9	9999.9	2812	51.39	32.64	23.15	17.90	14.41	11.46	9.224	8.117	7.011	5.972	5.746	4.902	4.642	4.417	4.223	4.049	3.808	3.979	4.268	4.220	4.211	4.912	5.008	4.526	4.149	4.389	4.099	3.888	3.493	3.509	3.817	3.568	3.586	3.421	3.858	3.494	3.916	4.072	3.826	3.848	4.389	4.205	4.411	4.267	4.383	4.072	4.012	3.648	3.643	3.560	3.743
345.0	572.9	812.1	895.1	728.7	536.2	456.6	414.7	393.7	397.3	428.9	476.2	492.5	501.1	452.5	385.5	307.4	291.1	392.2	282.7	141.6	155.2	221.5	781.9	4581	9999.9	9999.9	388.4	45.74	28.82	21.70	16.49	12.91	10.22	8.451	7.285	6.392	5.714	5.519	4.786	4.531	4.348	4.052	3.771	3.969	4.012	4.178	4.351	4.835	5.185	4.511	4.253	4.589	4.017	3.965	3.815	3.591	3.769	3.648	3.719	3.649	3.695	3.735	3.929	4.018	3.930	4.005	4.022	4.053	4.268	4.279	4.368	3.990	3.902	3.770	3.630	3.526	3.533
350.0	558.1	770.2	874.6	744.1	593.5	513.8	462.4	435.4	424.1	442.3	464.9	479.5	482.3	444.0	382.9	311.2	268.4	283.2	333.0	243.9	143.8	134.8	252.0	1102	5139	9999.9	9999.9	8876	46.10	29.18	21.38	15.84	12.26	10.05	8.453	7.076	6.432	5.664	5.326	4.742	4.430	4.110	4.057	3.975	4.054	4.082	4.306	4.627	4.962	4.587	4.253	4.598	4.299	4.289	4.309	3.972	4.092	3.937	4.136	3.952	3.823	3.971	3.991	4.041	4.033	4.127	4.063	3.883	4.126	4.149	4.050	3.917	3.888	3.626	3.550	3.422	3.405
355.0	532.2	733.3	826.0	751.1	640.9	574.9	519.2	483.0	466.5	457.8	464.1	469.7	467.8	431.3	386.3	323.4	276.5	246.8	253.4	321.6	227.1	134.1	141.6	321.3	1210	2624	9999.9	9999.9	2989	50.41	29.11	20.27	15.99	12.13	9.881	7.701	7.029	6.047	5.661	4.999	4.601	4.181	4.189	4.031	4.219	4.262	3.982	4.503	4.999	4.349	4.271	4.764	4.582	4.581	4.320	4.379	4.356	4.334	4.140	4.216	3.947	4.237	4.363	4.006	4.170	3.774	4.207	3.812	4.211	4.090	4.007	4.162	3.888	3.762	3.571	3.524	3.423
360.0	523.4	712.9	771.1	741.0	666.5	603.4	549.3	517.2	484.4	476.2	468.9	466.1	458.6	430.0	385.6	329.4	285.0	253.0	232.8	274.8	310.1	176.5	126.6	152.5	338.9	653.8	3363	9999.9	9999.9	2477	45.49	27.45	20.03	14.17	10.83	8.448	7.641	6.511	5.946	5.039	4.841	4.393	4.195	4.152	4.186	4.257	4.033	4.756	4.980	4.401	4.225	4.766	4.914	4.621	4.269	4.342	4.564	4.727	4.310	4.147	4.274	4.367	4.302	4.050	4.202	3.929	3.779	3.879	4.024	3.817	3.921	3.688	4.046	3.778	3.615	3.593	3.725
365.0	499.6	686.6	753.3	722.6	675.8	620.1	581.1	539.5	496.9	489.7	466.8	459.2	447.8	420.8	383.0	337.8	292.4	264.0	237.1	233.0	306.5	261.2	146.5	122.5	149.3	214.2	822.0	5343	9999.9	9999.9	355.2	39.77	25.35	17.69	12.83	9.874	8.392	7.229	6.021	5.445	4.792	4.375	4.400	4.100	4.108	4.004	4.182	4.742	4.883	4.654	4.181	4.708	4.760	4.548	4.588	4.540	4.795	4.781	4.489	4.420	4.240	4.171	4.356	4.091	4.023	4.037	3.997	3.847	4.001	3.817	3.821	3.507	4.190	3.726	3.932	3.493	3.762
370.0	467.6	635.5	735.0	714.2	677.6	631.2	595.2	550.9	521.5	502.7	478.1	460.3	441.1	414.1	381.8	339.6	307.3	276.6	250.0	232.5	246.0	287.8	238.4	144.6	120.9	121.6	247.9	1268	6035	9999.9	9999.9	7867	40.67	25.25	17.40	12.27	10.06	8.352	7.005	6.246	5.349	4.748	4.515	4.326	4.245	4.185	4.269	4.713	4.741	4.335	4.088	4.851	4.679	4.712	4.764	4.602	4.848	4.630	4.524	4.489	4.415	4.401	4.289	4.252	4.104	4.052	4.028	3.607	3.771	3.885	3.973	3.630	3.871	3.884	3.799	3.709	3.636
375.0	471.6	586.2	700.2	696.2	665.1	646.6	605.3	555.5	528.4	512.8	486.6	457.3	437.1	407.6	380.2	344.0	317.1	292.5	266.9	247.8	233.1	239.2	283.2	224.8	136.1	112.9	125.7	342.9	1402	2758	9999.9	9999.9	2592	42.55	24.17	16.63	12.80	9.965	7.852	6.863	5.758	5.121	4.889	4.908	4.392	4.282	4.198	4.478	4.485	4.333	4.179	5.004	4.579	4.671	4.836	4.785	4.716	4.745	4.629	4.462	4.298	4.563	4.382	4.084	4.338	4.117	3.819	3.861	3.818	3.711	3.844	3.841	3.927	3.795	3.748	3.712	3.624
380.0	425.3	586.8	666.2	667.5	659.7	646.7	610.8	561.9	523.2	506.4	489.5	456.0	435.8	403.4	376.1	341.8	321.3	298.0	280.3	258.6	242.4	226.1	246.6	281.5	180.5	121.8	106.7	142.4	370.3	675.3	3679	9999.9	9999.9	2070	36.61	20.69	15.94	11.75	9.252	7.703	6.283	5.452	5.311	4.844	4.476	4.650	4.353	4.624	4.636	4.236	4.138	4.998	4.887	4.817	4.918	4.461	4.882	4.906	4.702	4.537	4.525	4.631	4.371	4.368	4.149	4.064	4.003	3.943	3.809	4.148	3.899	3.966	3.849	3.829	3.586	3.621	3.708
385.0	425.2	551.8	633.1	654.7	653.0	646.4	602.5	557.7	525.9	498.4	484.8	450.9	433.3	398.1	372.6	339.7	323.2	299.6	286.3	267.2	250.6	228.9	224.3	266.5	241.6	145.6	111.7	104.5	146.9	205.9	886.1	5642	9999.9	9999.9	289.3	29.51	19.37	13.81	11.16	8.537	7.351	6.070	5.666	5.070	4.683	4.569	4.306	4.795	4.551	4.144	4.086	4.655	4.965	4.648	4.648	4.589	4.651	4.715	4.559	4.640	4.390	4.478	4.395	4.322	4.251	4.205	4.062	3.816	3.735	3.947	3.704	3.632	3.607	3.711	3.392	3.500	3.727
390.0	417.6	521.4	606.2	630.6	641.1	635.1	591.1	551.2	519.0	495.8	470.8	449.0	419.2	390.0	364.3	337.5	319.6	304.0	290.2	273.8	256.3	236.6	223.7	224.3	245.9	214.0	137.7	106.4	102.3	106.5	250.2	1324	5859	9999.9	9999.9	6237	31.95	18.79	14.17	10.47	8.620	7.128	6.009	5.497	5.212	4.981	4.690	4.864	4.567	4.131	4.200	4.687	4.874	4.763	4.785	4.676	4.959	4.640	4.647	4.542	4.230	4.539	4.311	4.313	4.174	4.051	4.111	3.932	3.586	3.801	3.811	3.814	3.723	3.847	3.550	3.585	3.730
395.0	391.4	505.9	580.5	607.8	614.1	615.6	570.7	542.3	511.5	484.6	467.8	436.2	409.2	388.2	357.7	330.8	313.6	300.7	292.0	276.5	260.1	246.2	231.2	216.7	210.5	234.4	201.7	127.4	101.8	90.77	112.7	342.6	1350	2743	9999.9	9999.9	2164	34.79	20.19	14.22	10.29	8.411	7.041	6.171	5.958	5.290	4.770	5.040	4.441	4.325	4.113	4.732	4.827	4.709	4.623	4.490	4.897	4.674	4.703	4.578	4.152	4.572	4.225	4.041	3.915	3.897	3.971	3.763	3.746	3.716	3.654	3.720	3.578	3.745	3.685	3.465	3.745
400.0	401.3	491.4	564.9	590.1	598.3	590.9	558.4	526.5	503.8	474.1	451.4	427.4	397.6	373.8	351.1	327.1	308.8	299.6	286.9	273.7	260.2	249.1	235.0	218.0	201.1	211.1	232.3	163.5	112.0	93.36	85.83	126.4	343.6	657.5	3610	9999.9	9999.9	1740	30.52	17.39	12.18	9.346	7.807	6.344	6.164	5.316	4.935	4.924	4.868	4.317	4.075	4.597	4.766	4.768	4.575	4.671	4.746	4.757	4.601	4.455	3.993	4.176	4.330	4.170	3.802	3.931	3.905	3.817	3.818	3.667	3.855	3.775	3.569	3.527	3.617	3.660	3.654
405.0	391.5	484.8	544.0	577.5	577.7	583.7	557.2	517.7	494.5	465.3	441.1	418.5	394.2	364.8	342.0	320.6	305.9	295.5	284.0	270.9	257.7	249.3	236.3	220.7	202.4	194.6	213.7	206.1	134.5	99.76	83.79	80.37	120.7	185.4	852.6	5070	9999.9	9999.9	259.1	24.91	14.94	11.21	8.793	7.420	6.390	5.802	5.304	4.947	4.943	4.260	4.038	4.502	4.442	4.850	4.620	4.414	4.623	4.739	4.332	4.448	4.279	4.076	4.117	4.064	3.904	3.852	3.798	3.756	3.632	3.781	3.624	3.729	3.898	3.707	3.505	3.441	3.541
410.0	371.9	454.0	521.5	537.3	554.3	554.3	527.2	504.6	478.8	452.9	429.6	406.7	381.4	358.4	333.6	308.4	294.8	285.2	275.0	264.2	256.5	245.4	235.8	222.0	205.6	189.8	185.2	202.5	180.4	121.8	90.99	75.03	73.86	80.45	223.6	1179	5119	9999.9	9999.9	5735	27.28	14.71	11.21	8.437	7.541	6.441	5.511	5.274	5.026	4.486	4.134	4.547	4.513	4.583	4.592	4.472	4.596	4.731	4.378	4.217	4.218	4.210	4.188	4.010	3.821	3.851	3.781	3.629	3.534	3.638	3.385	3.449	3.646	3.446	3.411	3.411	3.401
415.0	362.1	443.2	488.4	519.0	530.8	526.5	506.6	489.4	466.2	439.3	420.8	395.5	366.6	344.7	319.3	293.8	278.8	274.4	266.2	255.9	248.1	240.4	230.1	224.0	205.7	188.1	177.2	172.3	188.4	166.6	107.2	81.13	66.79	59.94	84.73	292.2	1170	2664	9999.9	9999.9	1978	30.21	15.35	10.72	9.060	7.514	5.803	5.752	5.202	4.581	4.170	4.782	4.608	4.686	4.535	4.524	4.454	4.438	4.261	4.356	4.185	4.277	4.072	4.056	3.512	3.964	3.615	3.548	3.544	3.623	3.397	3.413	3.249	3.539	3.251	3.298	3.272
420.0	353.3	414.7	454.2	503.6	508.0	500.1	498.2	476.9	458.6	430.2	410.5	379.6	354.3	335.1	304.9	282.2	272.0	263.1	256.2	248.9	241.3	235.8	224.6	215.4	203.1	192.1	174.3	162.3	167.7	182.6	132.9	86.09	69.16	56.89	54.29	94.78	287.6	624.6	3233	9999.9	9999.9	1642	26.30	13.77	11.08	8.630	7.194	5.874	5.318	4.820	4.439	4.966	4.370	4.642	4.650	4.460	4.411	4.334	4.204	4.235	4.105	4.144	4.101	3.780	3.704	3.768	3.763	3.493	3.531	3.496	3.327	3.424	3.201	3.617	3.211	3.174	3.224
425.0	329.6	390.3	444.3	489.1	476.9	496.7	485.0	464.0	442.6	418.6	398.4	370.1	345.1	324.9	294.6	273.8	260.8	253.7	247.3	238.2	232.7	227.6	220.0	210.9	201.9	190.4	173.7	162.1	152.4	167.5	160.2	100.6	73.18	58.93	47.90	52.17	91.30	164.5	754.5	4299	9999.9	9999.9	250.0	21.39	13.10	9.687	7.588	6.653	5.566	4.875	4.463	4.824	4.768	4.548	4.581	4.316	4.291	4.399	4.316	4.328	4.054	4.172	3.891	3.882	3.803	3.503	3.629	3.474	3.379	3.300	3.329	3.247	3.275	3.084	3.238	3.030	3.039
430.0	380.4	378.1	433.4	459.9	466.0	471.7	463.4	451.8	428.4	411.9	387.9	363.6	337.0	311.0	284.8	260.2	248.2	242.3	234.8	228.4	222.6	216.7	212.8	205.3	196.8	187.8	172.3	159.8	148.2	144.9	150.9	131.7	87.43	62.85	50.88	44.31	48.58	61.16	191.1	991.3	4073	9999.9	9999.9	5512	25.36	13.66	9.545	7.930	6.415	5.367	4.785	4.955	4.864	4.720	4.505	4.442	4.479	4.365	4.268	4.173	4.066	4.064	4.107	3.996	3.933	3.616	3.535	3.289	3.314	3.398	3.312	3.262	3.095	3.179	3.200	3.077	3.247
435.0	721.6	367.8	411.2	438.6	442.1	445.3	449.8	441.1	420.0	403.3	380.6	358.8	324.5	300.2	270.2	252.3	239.0	231.4	224.0	216.6	210.7	209.0	200.1	197.9	191.5	181.1	171.1	159.8	149.1	138.3	129.8	134.0	116.7	73.27	55.82	45.79	40.34	38.66	64.95	241.2	927.8	2452	9999.9	9999.9	1938	29.77	14.14	9.993	7.778	6.086	5.258	5.473	5.198	5.075	4.839	4.693	4.688	4.466	4.314	4.171	4.055	4.076	4.035	3.938	3.828	3.585	3.420	3.312	3.212	3.214	3.351	3.147	3.225	3.126	3.257	3.040	3.165
440.0	1270	454.2	409.3	417.6	426.1	438.3	429.3	420.1	414.0	390.2	373.2	345.8	317.0	286.0	262.7	243.5	229.9	223.7	212.3	208.9	203.0	197.9	195.2	191.0	185.7	177.7	168.3	159.3	149.0	136.2	124.1	117.4	123.3	91.46	60.17	48.15	40.74	34.77	36.94	74.39	226.2	569.0	2833	9999.9	9999.9	1723	25.00	13.35	9.736	7.597	5.746	5.951	5.547	5.201	4.895	4.784	4.860	4.489	4.532	4.145	4.248	4.135	4.116	3.828	3.888	3.601	3.445	3.217	3.361	3.159	3.275	3.137	2.978	3.086	3.043	3.142	3.345
445.0	1721	910.9	394.2	409.9	415.5	420.3	416.9	412.4	405.5	394.0	368.5	335.1	308.0	276.8	253.3	234.6	219.0	214.1	203.7	197.9	191.1	190.9	188.2	184.3	181.4	171.8	164.5	155.3	145.5	134.6	122.7	108.4	112.1	107.2	70.52	50.45	41.26	35.19	32.36	37.04	69.43	145.8	656.6	3546	9999.9	9999.9	1274	21.66	11.70	8.420	6.826	6.564	5.865	5.398	5.000	4.877	4.989	4.513	4.426	4.532	4.231	4.040	4.032	4.060	3.892	3.519	3.504	3.194	3.258	3.316	3.418	3.244	3.014	2.914	2.958	3.008	3.062
450.0	1264	2134	628.8	390.8	390.3	400.8	403.1	398.8	386.1	370.1	348.2	322.0	295.7	262.0	238.3	218.9	206.0	198.7	190.3	185.6	180.5	178.3	176.1	172.7	168.8	162.7	156.5	148.1	141.6	131.3	121.1	105.5	96.52	98.46	87.90	60.17	44.04	36.55	32.47	29.78	34.35	50.13	164.0	814.8	3551	9999.9	9999.9	5762	83.25	12.21	8.488	7.712	6.507	5.765	5.295	4.976	5.016	4.815	4.607	4.459	4.333	4.031	4.024	3.981	3.672	3.519	3.523	3.287	3.345	3.084	3.122	3.031	2.968	2.889	2.847	3.109	2.956
455.0	550.7	2898	2035	395.3	363.6	375.5	382.6	374.8	364.5	349.5	327.3	305.2	276.2	245.7	222.4	202.7	188.5	182.3	176.8	170.4	165.2	162.5	160.8	158.3	154.5	151.8	147.5	139.7	134.6	126.8	116.2	101.4	89.52	81.64	86.21	75.96	50.75	39.17	32.75	28.72	27.00	28.14	52.89	197.2	808.6	2357	8925	9999.9	8208	24.77	11.84	9.166	7.756	6.633	5.834	5.170	5.265	4.810	4.533	4.481	4.121	4.198	4.133	3.695	3.494	3.627	3.310	3.119	3.052	2.906	3.173	2.920	2.901	3.063	2.667	2.864	2.788
460.0	313.4	2051	3743	638.8	350.3	353.7	360.3	352.6	345.8	334.7	315.2	285.1	257.6	234.6	209.5	191.0	178.3	171.1	163.6	158.6	154.1	150.9	149.2	147.8	146.3	141.7	137.4	131.7	127.5	121.6	110.9	98.48	85.86	74.59	73.05	78.04	60.19	41.50	33.80	29.07	25.82	23.45	28.25	59.00	196.1	543.6	2244	9999.9	9999.9	1436	22.19	11.93	8.749	7.366	6.685	5.592	5.421	5.064	4.677	4.586	4.081	4.274	4.145	3.731	3.649	3.584	3.311	2.873	3.025	3.003	3.102	2.922	2.758	2.789	2.764	2.657	2.915
465.0	264.4	942.5	4516	1852	339.8	332.0	330.7	328.2	337.0	317.9	299.3	271.5	245.8	221.6	196.4	178.5	166.2	157.1	153.5	145.7	142.6	141.6	139.3	137.8	136.9	133.1	128.7	124.6	119.8	115.9	107.5	93.99	82.87	72.50	66.06	69.13	67.12	46.15	34.67	29.25	25.53	22.63	22.22	28.46	58.48	137.3	519.3	2786	9999.9	9999.9	1283	22.75	11.27	8.488	6.955	6.221	5.621	5.305	4.878	4.380	4.345	4.082	4.030	3.860	3.529	3.381	3.367	3.061	3.122	3.027	2.812	3.034	2.666	2.797	2.789	2.727	2.858
470.0	260.8	411.9	2749	4363	893.4	299.8	306.6	303.4	304.8	293.5	278.8	253.9	225.0	202.2	179.7	162.5	150.1	140.8	138.0	132.3	129.0	125.9	125.3	123.7	121.8	119.7	115.8	113.6	111.1	105.8	99.56	89.10	77.73	68.41	60.72	57.01	59.10	54.93	39.77	29.90	25.49	22.06	20.61	20.68	26.63	44.12	129.5	637.3	2844	8712	9999.9	5994	103.3	12.28	8.523	6.991	6.338	5.580	4.976	4.655	4.290	4.276	4.124	3.700	3.526	3.334	3.190	3.137	3.144	2.944	2.702	2.856	2.715	2.908	2.548	2.579	2.547
475.0	261.6	269.9	911.3	4676	3219	348.2	274.2	283.3	281.0	265.5	254.6	231.5	208.8	184.2	163.0	145.5	136.5	127.0	122.4	119.0	114.6	113.0	110.2	109.7	109.4	106.7	102.7	102.5	100.8	96.78	90.56	82.88	71.89	63.88	57.32	49.67	46.99	50.09	46.99	32.39	25.59	21.79	19.83	18.05	18.46	21.58	40.04	153.3	644.9	1976	5117	9999.9	8873	29.59	11.29	7.864	7.178	5.923	5.112	4.575	4.273	4.078	3.856	3.618	3.306	3.308	3.254	2.989	2.975	2.751	2.742	2.663	2.486	2.688	2.480	2.258	2.373
480.0	273.5	252.9	388.8	2842	5642	824.8	261.6	264.4	261.5	251.9	239.3	221.2	193.9	173.2	152.6	136.4	124.8	117.7	113.2	107.7	105.0	103.6	102.3	101.0	98.50	97.84	95.24	94.64	92.34	89.75	84.99	78.32	68.97	60.38	53.71	47.08	42.54	43.02	46.98	38.76	26.55	21.61	19.55	17.71	16.67	16.01	19.99	44.55	154.2	451.8	1211	6383	9999.9	7071	26.96	10.60	8.006	6.576	5.679	4.914	4.149	4.183	3.799	3.824	3.459	3.139	3.047	2.831	2.847	2.739	2.855	2.657	2.500	2.524	2.354	2.336	2.516
485.0	237.5	258.1	264.5	1203	6301	2387	263.5	243.0	247.3	240.7	217.2	206.8	184.0	166.8	145.7	129.1	117.0	112.0	106.6	102.6	96.71	97.18	96.06	93.55	93.68	90.58	88.84	87.82	87.02	86.20	80.62	74.19	67.07	58.92	51.95	45.43	41.21	37.71	41.23	41.36	30.40	22.71	19.35	17.24	16.37	14.87	14.93	20.08	43.82	110.5	281.3	1597	9254	9999.9	1608	23.62	9.866	7.329	6.270	5.069	4.305	4.250	4.091	3.750	3.501	3.156	3.131	2.718	2.751	2.573	2.814	2.603	2.494	2.403	2.285	2.181	2.323
490.0	202.6	266.8	226.3	447.5	3563	5681	937.0	234.1	225.0	223.2	209.7	187.9	170.1	151.8	134.3	119.1	108.2	102.5	97.43	93.74	88.49	87.63	87.65	85.33	84.92	83.96	81.91	80.90	80.08	77.40	73.70	68.30	61.90	55.26	48.82	43.75	39.23	35.90	34.17	36.73	35.43	25.99	19.97	17.33	16.04	14.91	13.57	14.12	18.63	33.16	71.13	366.3	2284	7041	9999.9	7162	125.1	12.24	7.646	5.792	4.978	4.598	4.201	3.746	3.438	3.270	3.248	2.798	2.827	2.550	2.697	2.562	2.446	2.423	2.347	2.176	2.251
495.0	174.8	231.8	237.5	254.8	1082	5943	2891	279.3	208.7	204.9	191.1	175.2	155.4	138.7	120.6	107.9	101.0	92.95	90.71	84.07	80.35	79.41	78.37	76.13	76.76	75.11	73.08	73.47	73.28	71.54	67.16	62.14	57.62	51.40	45.42	41.33	36.99	34.01	30.78	29.58	33.13	30.33	22.25	17.09	16.46	14.66	12.89	12.75	12.91	15.19	23.42	89.66	516.9	1585	3993	9999.9	9999.9	195.5	11.48	7.181	5.950	5.141	4.679	3.989	3.531	3.320	3.171	2.798	2.589	2.496	2.671	2.471	2.421	2.369	2.407	2.296	2.140
500.0	151.5	201.1	260.5	208.7	388.6	3578	6663	808.7	197.7	192.4	175.5	162.2	147.5	130.2	111.4	101.9	94.94	85.42	81.64	76.10	73.77	72.46	71.75	70.06	69.64	68.67	68.06	66.26	65.33	65.90	62.08	57.84	52.71	47.56	43.16	39.14	35.92	31.91	29.59	26.90	27.59	30.18	25.28	18.00	15.61	14.29	12.60	12.05	11.56	10.99	12.24	27.10	122.8	362.0	924.5	5157	9999.9	8138	31.12	9.633	6.617	5.345	5.028	4.165	3.568	3.302	2.974	2.721	2.728	2.642	2.515	2.246	2.232	2.293	2.255	2.132	2.212
505.0	137.2	166.2	239.3	209.9	221.7	1433	7786	2197	194.8	176.6	164.0	152.5	135.0	119.4	105.5	93.82	85.86	79.83	76.08	69.92	67.07	65.81	65.85	63.74	63.23	63.36	61.02	61.19	61.63	59.84	57.70	53.55	48.85	44.53	39.84	36.53	33.72	30.07	28.57	25.18	23.76	26.29	27.07	20.11	15.47	13.54	12.23	11.43	10.71	9.715	9.835	12.73	34.01	87.63	215.4	1234	6916	9999.9	1855	26.13	8.187	5.948	5.285	4.470	3.721	3.150	3.094	2.911	2.728	2.514	2.532	2.332	2.274	2.209	2.134	2.048	2.202
510.0	129.4	138.1	196.3	223.2	175.7	456.5	4509	6620	779.8	160.9	150.8	137.9	122.0	109.0	95.56	83.76	76.41	71.30	66.36	62.94	60.05	58.94	57.53	57.24	56.58	55.20	54.70	53.79	54.90	53.37	52.20	47.97	44.31	40.28	36.54	33.17	30.24	27.53	25.40	22.62	20.81	20.83	23.62	23.00	17.33	13.69	11.85	10.79	10.03	9.158	8.686	9.093	13.58	25.81	54.82	283.3	1655	5738	9999.9	6443	127.7	10.71	6.196	4.881	4.097	3.395	3.108	2.826	2.613	2.446	2.405	2.215	2.248	2.027	2.061	1.970	1.910
515.0	118.6	129.0	150.5	223.5	173.1	206.5	1314	7596	3877	196.4	138.5	121.9	109.7	100.6	84.67	75.71	69.12	62.55	59.09	56.62	53.74	50.82	50.57	50.06	49.36	48.58	47.64	47.15	48.17	47.22	45.73	41.83	38.47	35.49	32.35	29.72	26.85	25.01	22.98	21.54	18.88	17.89	18.09	21.28	19.79	14.82	11.26	10.38	9.108	8.538	7.948	8.012	8.695	11.19	17.75	69.42	375.2	1289	3267	9999.9	8849	197.6	9.426	5.942	4.650	3.980	3.471	2.788	2.682	2.448	2.449	2.183	2.097	1.934	2.097	1.826	1.919
520.0	114.0	117.6	126.1	193.1	186.9	142.7	403.7	4656	7714	669.0	126.7	119.3	101.6	90.53	77.07	69.21	61.45	56.22	52.86	51.13	49.19	46.32	45.51	45.78	44.19	42.45	43.94	42.34	43.59	42.90	40.67	37.62	35.84	32.56	29.66	27.84	24.84	23.38	21.45	19.72	17.88	16.21	15.86	17.36	20.06	16.52	11.87	9.868	8.978	8.164	7.527	7.541	7.739	7.464	9.337	21.14	89.72	294.2	747.4	4049	9999.9	6647	31.42	7.899	5.315	4.322	3.507	2.798	2.844	2.586	2.446	1.980	2.140	1.921	2.011	2.032	1.898
525.0	111.2	106.0	105.0	154.3	200.8	130.2	184.8	1780	9496	1782	128.0	109.3	95.41	84.76	71.80	64.49	56.79	51.70	49.11	45.83	44.76	41.80	42.33	41.62	40.89	39.55	39.95	39.05	38.40	39.11	37.45	35.01	32.93	29.62	27.20	25.26	22.81	21.37	19.52	18.20	16.56	15.21	14.51	14.41	17.19	17.31	12.85	9.616	8.569	7.608	6.861	6.898	7.098	6.905	6.680	9.804	25.72	71.30	173.9	948.1	5252	9999.9	1879	25.52	6.435	4.601	3.701	3.096	2.981	2.420	2.330	2.196	2.171	1.946	1.762	1.963	1.713
530.0	104.1	98.27	99.46	111.5	178.6	148.7	127.1	508.0	5537	7388	648.7	100.4	86.77	74.59	65.05	56.02	50.67	46.32	43.56	40.80	39.45	37.71	37.23	36.13	35.51	35.06	34.47	35.14	34.19	34.13	33.44	31.09	29.05	26.86	24.60	22.69	20.61	19.69	17.66	16.61	15.04	13.73	13.22	12.40	13.30	15.63	14.32	10.55	8.006	7.207	6.492	6.466	6.373	6.548	6.265	6.663	10.45	20.80	44.01	217.2	1236	4714	8898	5302	128.9	8.594	4.453	3.511	3.076	2.473	2.411	2.233	2.166	2.021	1.988	1.852	1.928
535.0	98.82	90.42	95.34	90.32	130.8	171.1	108.0	190.5	1536	8881	3947	124.5	80.78	66.18	57.90	49.98	45.10	40.60	38.00	35.91	33.91	33.12	32.19	31.22	30.79	29.54	29.79	29.71	29.37	29.99	29.28	27.21	24.87	23.47	21.29	19.54	18.48	17.36	15.67	14.88	14.01	12.18	12.02	10.75	10.82	11.48	12.99	11.93	8.279	6.760	6.079	5.627	5.734	5.690	5.915	5.902	6.369	8.749	14.03	52.82	279.9	1057	2675	8926	6766	193.0	7.315	4.080	3.326	2.687	2.513	2.238	2.273	1.896	1.868	1.867	1.811
540.0	96.52	81.80	83.36	78.20	94.94	165.2	117.4	112.2	419.5	5260	8499	474.6	73.82	63.04	53.32	45.22	40.62	37.16	34.86	32.85	30.79	29.63	28.76	27.93	27.72	26.68	27.00	26.83	25.90	26.44	25.44	24.32	22.35	21.23	18.86	17.59	16.85	15.62	13.99	13.64	12.74	11.61	11.09	10.23	9.739	9.665	10.83	12.17	8.812	6.781	5.752	5.485	5.177	5.282	5.231	5.696	5.353	5.614	7.027	15.58	66.48	240.5	608.8	3302	9592	4931	30.55	5.192	3.844	2.950	2.753	2.337	2.059	1.962	2.094	1.809	1.783
545.0	95.61	82.59	72.58	72.56	76.00	138.8	131.0	88.35	157.6	1857	9999.9	1387	70.78	57.87	48.95	40.98	37.55	32.52	30.25	30.46	27.28	26.70	26.05	24.66	24.36	24.05	23.66	23.45	24.05	23.42	22.91	21.98	19.88	18.98	16.71	16.35	15.32	13.98	13.22	12.05	11.18	10.50	9.772	9.200	8.994	8.249	8.396	10.60	10.13	6.971	5.517	5.225	4.909	4.620	4.979	5.218	5.384	4.628	5.072	7.092	18.56	57.86	141.1	766.2	4220	9403	1796	23.71	4.469	3.499	3.005	2.551	2.198	2.111	2.025	1.835	1.845
550.0	89.00	73.61	69.64	64.69	67.10	94.45	144.0	85.82	89.93	493.8	5698	7619	449.3	51.99	43.40	36.12	32.79	28.70	26.89	26.01	23.51	23.08	22.30	21.67	21.22	20.71	20.04	20.45	19.88	20.46	19.58	18.67	17.18	16.51	14.80	13.93	12.86	12.09	11.39	10.63	9.951	9.293	8.728	8.092	8.012	7.310	7.170	7.836	8.924	7.654	5.676	4.840	4.401	4.293	4.326	4.483	4.716	4.591	4.487	4.785	7.374	16.48	35.23	175.2	981.1	3759	6088	3537	125.6	6.421	3.420	2.660	2.334	2.045	1.956	1.881	1.768
555.0	79.80	79.45	62.27	55.72	56.35	62.18	119.2	103.9	67.43	160.1	1501	9552	3250	64.49	38.20	30.92	28.80	24.43	23.24	21.90	21.03	19.50	18.62	18.88	17.26	17.33	16.44	17.06	16.60	17.41	16.55	15.39	14.66	13.50	12.54	11.92	11.46	10.40	10.18	8.920	8.630	7.875	7.515	7.165	6.922	6.416	6.021	5.951	6.764	7.345	6.046	4.720	4.123	4.056	3.756	3.789	4.052	4.202	4.517	3.989	4.222	6.496	10.72	42.28	221.8	841.9	1790	5384	4371	34.13	5.309	3.077	2.577	2.085	1.981	1.768	1.830
560.0	79.71	68.17	57.83	55.67	49.52	50.84	88.02	120.0	64.99	79.75	390.3	5616	7889	139.8	36.91	28.83	25.16	22.19	20.81	19.70	18.11	17.24	16.49	16.14	15.03	15.70	14.41	15.01	14.78	14.10	14.14	13.74	12.22	11.99	10.94	10.31	10.12	8.740	8.856	8.105	7.508	7.100	6.968	6.304	6.229	5.774	5.339	5.267	5.115	5.767	6.142	4.867	3.761	3.613	3.303	3.322	3.567	3.783	4.060	3.707	3.379	3.996	5.010	12.40	52.37	191.3	406.8	1952	6013	1952	29.26	3.717	2.784	2.222	2.007	1.818	1.866
565.0	73.49	61.97	52.80	50.80	45.19	45.38	60.95	119.4	69.68	57.49	127.7	1920	9999.9	968.0	35.39	26.89	23.61	20.00	17.99	17.44	15.95	15.65	15.37	13.92	13.47	13.32	12.92	12.80	13.01	12.87	12.30	11.60	11.21	10.14	9.516	8.973	8.267	8.249	7.549	7.218	6.755	6.468	5.836	5.785	5.373	5.062	4.801	4.597	4.360	4.635	5.631	5.183	3.792	3.446	3.076	3.189	3.183	3.329	3.451	3.718	3.244	3.234	3.504	5.274	14.45	45.26	94.30	451.2	2575	5351	1626	20.71	3.345	2.520	2.204	1.808	1.828
570.0	73.46	62.93	50.41	46.36	40.41	39.41	43.54	89.34	92.77	49.67	63.28	492.1	5996	6352	272.7	25.09	21.02	18.08	16.13	14.35	14.17	13.60	12.60	12.09	11.81	11.60	11.27	11.07	11.22	11.32	10.77	10.07	9.545	8.700	8.122	7.732	7.452	6.984	6.527	6.197	5.869	5.735	5.232	4.842	4.757	4.636	4.227	4.076	3.860	3.618	4.119	4.778	4.121	3.307	2.916	2.927	2.927	2.918	3.001	3.241	3.271	3.109	2.913	3.264	5.380	12.44	23.59	103.4	599.1	2183	3946	1930	110.8	3.922	2.443	1.905	1.748
575.0	77.08	63.63	49.19	40.84	35.47	35.02	36.24	51.54	103.8	58.36	44.74	143.5	1590	8603	2326	30.92	19.84	17.03	14.37	13.47	12.43	11.80	11.25	10.55	10.09	9.658	9.559	9.573	9.780	9.787	9.441	8.783	7.833	7.737	6.979	6.623	6.276	5.888	5.445	5.356	5.015	4.727	4.377	4.241	4.256	4.105	3.864	3.494	3.425	3.016	3.040	3.701	4.190	3.424	2.737	2.772	2.678	2.414	2.674	2.591	2.951	3.208	2.788	2.458	3.119	4.816	7.483	25.13	135.8	489.5	1161	3414	1999	32.49	3.665	2.150	1.938
580.0	73.11	63.01	48.16	38.01	33.21	31.99	33.78	38.16	91.36	74.51	38.71	61.81	395.8	5337	6210	88.20	18.78	15.75	13.33	11.92	11.59	11.09	9.621	9.664	8.761	8.672	8.521	8.498	8.494	8.001	8.073	7.691	7.258	6.981	6.253	5.853	5.704	5.214	5.126	4.708	4.420	4.037	4.041	3.812	3.777	3.921	3.330	3.176	3.140	2.804	2.712	3.030	3.649	3.616	2.763	2.580	2.481	2.270	2.378	2.328	2.630	2.869	2.798	2.405	2.608	2.902	3.500	7.513	32.29	111.3	263.9	1261	3526	1646	25.83	2.799	2.210
585.0	67.95	60.57	46.81	37.00	32.00	29.10	28.44	32.87	64.93	91.68	40.17	42.88	116.3	1873	8628	635.6	19.16	14.19	12.28	11.34	10.49	9.688	8.869	8.569	7.756	7.803	7.852	7.239	7.764	6.835	7.486	7.288	6.705	5.931	5.799	5.446	5.107	4.516	4.650	4.450	3.923	3.937	3.787	3.443	3.304	3.510	3.202	2.996	2.809	2.654	2.436	2.438	2.894	3.318	3.049	2.519	2.315	2.161	2.137	1.990	2.199	2.336	2.936	2.676	2.416	2.508	2.516	3.357	8.974	26.77	61.08	291.9	1571	3477	1171	17.33	2.478
590.0	69.98	59.88	47.19	36.13	30.82	28.31	27.51	28.30	39.72	88.61	54.93	35.33	51.06	471.1	5196	4340	63.95	14.72	12.02	10.67	9.439	8.456	8.092	7.614	7.086	6.852	6.810	6.381	6.571	6.394	6.138	5.780	5.655	5.123	5.014	4.836	4.391	4.229	4.064	4.070	3.645	3.498	3.362	3.217	3.102	3.107	2.869	2.820	2.592	2.332	2.219	2.158	2.414	2.709	2.957	2.662	2.337	1.993	2.125	1.910	2.090	1.995	2.205	2.623	2.396	2.230	2.098	2.318	3.626	7.630	15.56	67.27	365.7	1402	2450	1131	22.42
595.0	65.65	58.72	43.77	35.58	28.67	25.55	25.07	23.82	30.18	58.22	75.51	35.08	34.67	125.5	1381	6279	678.9	17.66	11.13	10.26	8.567	7.727	7.490	6.801	6.339	5.984	5.905	5.891	5.963	5.593	5.461	5.013	5.063	4.796	4.395	4.233	4.091	3.591	3.650	3.512	3.322	3.206	2.989	2.816	2.949	2.655	2.623	2.623	2.416	1.983	2.021	1.973	2.016	2.105	2.529	2.655	2.391	1.960	1.941	1.765	1.812	1.782	2.001	2.295	2.424	2.311	1.880	1.924	2.265	3.105	5.117	16.60	83.16	314.0	708.5	1944	1616
600.0	68.11	54.83	44.02	34.92	27.38	23.79	22.79	24.21	25.26	39.18	79.56	39.44	28.96	48.50	338.1	4096	3850	56.48	11.30	9.220	7.881	7.611	6.858	6.361	6.095	6.161	5.190	5.492	5.832	5.074	4.856	4.649	4.651	4.230	3.949	3.683	3.395	3.298	3.327	3.182	2.880	2.809	2.810	2.794	2.637	2.487	2.491	2.317	2.283	1.934	1.768	1.810	1.863	1.919	2.223	2.569	2.362	2.048	1.828	1.838	1.730	1.796	1.865	1.822	2.035	2.303	1.850	1.871	1.779	2.085	2.521	5.127	19.90	71.49	161.3	700.1	2227
605.0	73.46	54.11	43.45	32.86	26.68	22.38	23.14	22.78	23.14	30.09	70.05	50.95	27.91	29.62	92.78	1491	5999	411.0	11.70	9.168	7.954	7.274	6.522	5.777	5.963	5.677	5.064	5.051	4.972	4.625	4.801	4.298	4.252	3.962	3.687	3.526	3.413	3.242	3.145	2.893	2.766	2.664	2.772	2.615	2.361	2.388	2.312	2.201	2.086	1.893	1.772	1.664	1.698	1.724	1.936	2.243	2.336	2.182	1.917	1.826	1.807	1.754	1.781	1.588	1.793	2.101	2.039	1.807	1.638	1.789	1.894	2.440	5.829	17.34	37.75	161.8	948.2
610.0	67.32	55.83	44.21	32.21	25.91	22.35	21.46	22.49	23.84	25.61	46.75	65.57	31.52	24.23	36.06	371.6	3956	3008	44.12	9.292	7.405	6.978	6.195	5.515	5.252	4.934	4.849	4.421	4.560	4.357	4.215	3.961	3.704	3.723	3.372	3.145	3.188	3.021	2.716	2.572	2.527	2.385	2.570	2.268	2.325	2.255	2.251	2.021	1.881	1.741	1.578	1.579	1.572	1.642	1.673	1.843	2.111	2.143	1.958	1.647	1.694	1.609	1.635	1.614	1.717	1.761	1.870	1.805	1.717	1.577	1.661	1.757	2.682	5.036	9.744	37.63	219.6
615.0	64.89	50.00	39.55	31.78	26.55	22.15	20.71	21.94	23.43	24.53	31.42	61.26	41.97	22.62	22.56	95.86	1083	4799	517.8	11.16	7.838	6.936	5.973	5.373	4.921	4.370	4.443	4.214	4.025	3.859	3.749	3.590	3.629	3.218	3.020	2.942	2.778	2.822	2.613	2.427	2.475	2.169	2.286	2.196	2.036	1.987	2.013	1.839	1.636	1.647	1.561	1.645	1.513	1.502	1.558	1.692	1.799	1.869	1.971	1.716	1.560	1.501	1.688	1.519	1.530	1.568	1.498	1.835	1.690	1.487	1.631	1.472	1.659	2.233	3.462	9.598	50.20
620.0	65.92	56.08	38.50	30.89	24.95	22.03	18.84	20.09	20.70	24.58	27.25	48.94	51.79	23.63	18.91	33.55	264.4	3403	2634	34.52	8.202	6.785	6.014	5.037	4.443	4.147	4.235	4.005	3.631	3.744	3.710	3.577	3.155	3.114	2.958	2.824	2.468	2.533	2.358	2.263	2.253	2.016	2.046	1.960	1.969	1.865	1.971	1.812	1.712	1.579	1.487	1.480	1.457	1.458	1.424	1.498	1.618	1.628	1.804	1.735	1.653	1.571	1.536	1.432	1.445	1.547	1.496	1.560	1.785	1.445	1.547	1.393	1.317	1.587	1.998	3.183	12.34
625.0	63.01	52.11	42.77	28.88	24.52	21.76	20.19	19.57	20.50	23.45	26.24	37.46	59.14	25.86	17.23	18.11	70.48	1323	4443	266.4	8.905	6.745	6.098	4.883	4.610	4.169	3.915	3.840	3.727	3.559	3.588	3.295	2.995	2.842	2.702	2.459	2.408	2.422	2.284	2.224	2.019	2.075	1.927	1.856	1.964	1.821	1.836	1.680	1.582	1.457	1.422	1.430	1.416	1.426	1.357	1.401	1.500	1.485	1.707	1.701	1.605	1.497	1.455	1.337	1.434	1.515	1.368	1.400	1.591	1.548	1.371	1.365	1.345	1.352	1.495	1.786	3.979
630.0	64.53	51.20	41.18	28.65	22.95	20.81	19.69	18.80	20.09	21.36	23.58	28.54	48.83	35.96	17.64	14.55	25.48	330.3	3220	2248	31.55	7.256	5.978	5.101	4.353	4.047	3.677	3.559	3.378	3.307	3.262	3.194	3.040	2.900	2.591	2.343	2.215	2.325	2.142	2.143	1.971	1.911	1.805	1.816	1.747	1.782	1.679	1.539	1.612	1.416	1.299	1.315	1.356	1.377	1.348	1.299	1.398	1.411	1.453	1.562	1.497	1.453	1.378	1.292	1.366	1.413	1.316	1.297	1.324	1.521	1.496	1.436	1.322	1.304	1.347	1.360	1.890
635.0	68.59	49.42	38.00	25.90	23.06	19.49	19.81	19.84	19.67	20.75	22.49	25.52	35.39	44.69	19.77	12.98	14.53	82.02	925.9	4025	398.3	8.334	5.920	5.112	4.513	4.073	3.638	3.432	3.386	3.040	3.070	2.906	2.954	2.882	2.436	2.200	2.350	2.146	1.955	1.992	1.900	1.971	1.838	1.715	1.749	1.717	1.663	1.558	1.534	1.356	1.363	1.370	1.349	1.266	1.277	1.294	1.337	1.437	1.273	1.380	1.433	1.475	1.272	1.312	1.251	1.358	1.250	1.186	1.420	1.334	1.425	1.610	1.296	1.384	1.242	1.240	1.426
640.0	62.67	52.34	40.87	27.42	21.96	19.16	18.45	19.31	19.19	21.47	23.24	24.93	27.65	43.55	24.61	12.95	11.64	25.84	226.2	3102	1874	20.20	6.294	5.507	4.635	3.876	3.469	3.422	3.421	3.139	3.104	2.815	2.669	2.699	2.372	2.238	2.081	2.132	2.077	1.795	1.767	1.901	1.833	1.610	1.804	1.677	1.631	1.509	1.463	1.247	1.316	1.241	1.322	1.342	1.360	1.335	1.325	1.277	1.327	1.261	1.371	1.342	1.453	1.315	1.383	1.355	1.287	1.211	1.393	1.270	1.274	1.552	1.384	1.366	1.178	1.287	1.209
645.0	66.32	54.45	42.96	27.25	21.73	20.53	18.04	19.11	19.16	20.73	23.17	24.36	24.38	36.42	31.03	13.58	10.87	13.04	59.05	1303	3374	62.25	7.192	4.910	4.677	3.921	3.426	3.230	3.361	3.270	2.760	2.851	2.539	2.636	2.322	2.328	2.088	2.052	1.942	1.747	1.744	1.778	1.944	1.649	1.779	1.616	1.543	1.547	1.473	1.263	1.240	1.141	1.226	1.249	1.284	1.252	1.269	1.201	1.268	1.237	1.302	1.281	1.392	1.305	1.377	1.214	1.228	1.225	1.349	1.318	1.209	1.402	1.413	1.234	1.216	1.217	1.158
650.0	66.67	56.05	39.77	28.91	23.22	20.02	17.93	18.23	19.72	19.55	23.64	23.58	23.54	28.61	35.46	14.81	10.67	9.988	20.53	352.9	3376	477.1	9.516	5.059	4.330	4.122	3.544	3.142	3.284	3.226	2.926	2.847	2.689	2.561	2.267	2.254	2.094	1.942	1.829	1.811	1.776	1.795	1.793	1.639	1.830	1.601	1.534	1.551	1.453	1.323	1.186	1.277	1.280	1.290	1.183	1.257	1.321	1.233	1.250	1.245	1.323	1.290	1.376	1.308	1.372	1.237	1.136	1.115	1.175	1.186	1.127	1.213	1.337	1.315	1.202	1.194	1.230
