Sample:	'1
File name:	g2025091007月河三路东086雨水井.FD3
Run date:	'16:44:46, 09/10/2025
Operator:	Administrator
Comment:	'

Instrument
Model:	F-2700 FL Spectrophotometer
Serial number:	23B8-004
ROM Version:	4J14000 07

Instrument parameters
Measurement type:	3-D scan
Data mode:	Fluorescence
EX  Start WL:	220.0 nm
EX  End WL:	600.0 nm
EX Sampling interval:	5.0 nm
EM  Start WL:	230.0 nm
EM  End WL:	650.0 nm
EM Sampling interval:	5.0 nm
Scan speed:	12000 nm/min
EX Slit:	5.0 nm
EM Slit:	5.0 nm
PMT Voltage:	700 V
Response:	Auto 
Corrected spectra:	Off
Contour interval:	50.000

Peak integration
Integration method:	Rectangular
Sensitivity:	1
Threshold:	1.000

Peaks
No.	ApexEX/EM(nm)	Height(Data)
1	225.0/305.0	3285
2	225.0/345.0	4312
3	225.0/570.0	285.4
4	225.0/590.0	284.6
5	255.0/560.0	255.9
6	260.0/575.0	226.4
7	265.0/585.0	251.5
8	270.0/600.0	272.6
9	275.0/305.0	3861
10	275.0/340.0	4112
11	275.0/610.0	258.5
12	455.0/340.0	12.35
13	550.0/305.0	17.08
14	555.0/345.0	17.52
15	560.0/310.0	16.02
16	560.0/355.0	17.42

Data points
	220.0	225.0	230.0	235.0	240.0	245.0	250.0	255.0	260.0	265.0	270.0	275.0	280.0	285.0	290.0	295.0	300.0	305.0	310.0	315.0	320.0	325.0	330.0	335.0	340.0	345.0	350.0	355.0	360.0	365.0	370.0	375.0	380.0	385.0	390.0	395.0	400.0	405.0	410.0	415.0	420.0	425.0	430.0	435.0	440.0	445.0	450.0	455.0	460.0	465.0	470.0	475.0	480.0	485.0	490.0	495.0	500.0	505.0	510.0	515.0	520.0	525.0	530.0	535.0	540.0	545.0	550.0	555.0	560.0	565.0	570.0	575.0	580.0	585.0	590.0	595.0	600.0
230.0	102.5	3643	9999.9	3991	151.9	15.58	13.53	10.66	9.874	9.877	9.859	9.477	8.189	7.128	6.099	5.435	4.793	4.408	4.303	3.885	3.674	3.457	3.357	3.276	3.166	3.045	2.881	2.747	2.759	2.812	2.789	2.906	2.910	2.773	2.580	2.391	2.122	2.050	1.740	1.603	1.645	1.622	1.705	1.415	1.234	1.195	3.395	18.08	36.61	30.21	12.30	2.808	0.919	0.680	0.711	0.647	0.649	0.603	0.547	0.502	0.455	0.452	0.439	0.382	0.359	0.356	0.363	0.365	0.323	0.339	0.310	0.284	0.284	0.218	0.266	0.251	0.286
235.0	151.0	952.4	5761	9999.9	4044	248.3	19.13	13.83	11.92	10.64	11.83	10.17	9.681	7.276	6.343	5.368	5.216	4.893	4.481	4.227	3.536	3.665	3.255	3.325	3.318	3.392	3.064	2.937	2.751	2.853	2.849	2.782	2.734	2.862	2.774	2.651	2.114	2.063	1.812	1.623	1.644	1.413	1.553	1.594	1.416	1.217	1.537	4.993	12.13	21.84	36.13	26.47	19.16	5.868	0.904	0.743	0.597	0.531	0.574	0.499	0.580	0.452	0.439	0.436	0.419	0.322	0.416	0.358	0.372	0.367	0.356	0.325	0.330	0.265	0.298	0.265	0.271
240.0	178.3	338.5	1601	8318	9999.9	3201	148.5	19.85	15.58	12.87	13.40	11.50	10.50	8.329	7.379	5.991	5.379	5.119	4.640	4.188	3.739	3.978	3.444	3.605	3.268	3.506	3.206	2.958	3.090	3.035	2.849	2.716	2.729	2.782	2.814	2.611	2.236	1.897	1.885	1.554	1.621	1.476	1.418	1.458	1.609	1.624	1.359	2.048	3.532	6.275	16.19	39.50	60.38	27.54	16.82	3.973	0.826	0.624	0.559	0.589	0.535	0.595	0.630	0.451	0.438	0.329	0.380	0.317	0.329	0.337	0.344	0.300	0.348	0.312	0.264	0.269	0.270
245.0	130.0	264.5	444.5	2637	9999.9	9999.9	2369	74.29	21.10	17.71	15.04	12.96	11.93	10.12	7.418	6.586	5.380	5.167	4.637	4.283	3.847	3.885	3.361	3.503	3.664	3.549	3.360	3.353	3.567	3.152	2.921	2.909	2.873	2.663	2.801	2.652	2.516	2.250	2.205	1.813	1.676	1.641	1.413	1.380	1.384	1.548	1.408	1.573	1.648	2.235	4.424	11.99	33.19	62.52	79.29	26.05	14.44	2.192	0.695	0.704	0.464	0.566	0.643	0.404	0.434	0.443	0.371	0.366	0.349	0.341	0.316	0.335	0.308	0.302	0.317	0.307	0.261
250.0	84.65	168.3	292.8	699.6	3208	9999.9	9999.9	7171	157.6	27.57	20.03	17.25	14.64	11.64	9.370	7.316	6.304	5.643	5.244	4.673	4.358	3.957	3.774	3.668	3.786	3.879	3.467	3.413	3.594	3.272	2.978	3.107	2.991	2.985	2.761	2.569	2.518	2.285	2.150	1.855	1.713	1.612	1.512	1.404	1.418	1.323	1.302	1.463	1.578	1.641	1.919	3.455	8.285	18.38	38.25	56.66	87.23	74.76	55.42	11.25	2.684	0.718	0.664	0.552	0.449	0.506	0.444	0.410	0.409	0.413	0.337	0.360	0.351	0.348	0.331	0.322	0.373
255.0	69.46	83.86	180.6	405.7	836.9	2474	9999.9	9999.9	9999.9	206.2	36.34	24.87	18.69	15.08	11.59	9.267	7.770	6.369	6.070	5.162	4.987	4.403	4.281	4.048	3.744	4.111	3.939	3.765	3.783	3.737	3.048	3.507	3.241	2.992	2.882	2.674	2.651	2.402	2.191	1.845	1.837	1.845	1.523	1.416	1.457	1.396	1.214	1.323	1.153	1.457	1.902	2.314	2.913	4.818	9.127	13.68	25.76	57.73	126.2	155.6	29.72	16.92	2.385	0.761	0.673	0.589	0.501	0.505	0.371	0.454	0.416	0.399	0.422	0.337	0.378	0.342	0.461
260.0	74.63	69.82	91.79	269.4	439.9	638.5	2943	9999.9	9999.9	2136	153.4	35.89	25.41	18.50	14.26	10.02	8.342	7.932	6.654	5.490	5.263	4.487	4.681	4.237	3.963	4.049	4.020	3.906	4.031	3.986	3.481	3.714	3.380	3.137	3.011	2.745	2.556	2.440	2.208	2.099	1.764	1.957	1.638	1.479	1.524	1.495	1.300	1.247	1.034	1.088	1.432	1.937	2.398	2.360	2.780	3.876	6.505	14.85	43.64	108.7	168.3	175.2	27.65	12.44	1.204	0.777	0.855	0.642	0.498	0.503	0.452	0.397	0.420	0.403	0.446	0.397	0.459
265.0	96.58	91.07	69.72	137.5	366.0	354.4	738.6	4017	9999.9	9999.9	1778	101.7	35.57	23.16	17.05	13.44	10.07	8.538	7.450	6.278	6.067	4.997	5.097	4.605	4.469	4.093	4.203	4.188	4.158	4.089	3.840	3.681	3.833	3.247	3.090	2.942	2.517	2.398	2.175	2.292	2.066	1.961	1.782	1.668	1.682	1.596	1.259	1.328	1.026	1.062	1.069	1.308	2.066	2.342	2.454	1.980	2.363	4.150	10.61	28.54	71.91	162.6	219.5	171.7	23.28	6.199	0.957	0.759	0.686	0.667	0.509	0.459	0.541	0.460	0.473	0.328	0.407
270.0	331.3	280.3	193.9	116.4	194.8	386.7	437.7	1037	4489	9999.9	9999.9	6864	119.6	40.21	26.33	18.33	13.20	11.16	9.001	7.687	6.624	6.090	5.493	5.222	5.018	4.543	4.552	4.209	4.222	4.288	4.127	3.992	4.114	3.961	3.659	3.223	2.905	2.890	2.551	2.649	2.471	2.454	2.244	2.060	2.114	2.068	1.803	1.865	1.673	1.352	1.109	1.230	1.341	1.566	2.251	2.465	2.472	2.545	3.466	7.331	17.34	42.44	85.29	148.3	180.7	147.4	117.6	15.05	5.903	0.973	0.722	0.654	0.708	0.583	0.545	0.527	0.474
275.0	860.4	788.5	548.2	218.5	132.2	221.1	551.8	566.3	1240	2810	9999.9	9999.9	9694	139.3	43.10	27.75	19.63	15.17	11.33	9.917	8.076	7.231	6.323	6.052	5.785	5.349	4.833	4.939	4.567	4.508	4.568	4.360	4.516	4.822	4.606	4.274	4.145	3.245	3.441	3.162	3.062	3.176	3.144	2.872	3.075	3.312	2.745	2.846	2.335	1.990	1.405	1.358	1.333	1.304	1.312	1.616	2.291	3.621	3.598	3.318	5.266	10.97	20.61	34.75	46.63	83.00	214.9	315.0	195.9	23.96	4.482	1.091	0.904	0.798	0.778	0.656	0.667
280.0	1355	1282	915.4	344.7	159.5	180.0	417.9	772.5	739.2	1039	3570	9999.9	9999.9	6878	104.3	38.50	25.96	18.86	13.31	11.69	9.549	7.876	7.438	6.673	6.629	5.990	5.684	5.363	5.003	4.826	4.772	4.664	5.043	5.672	5.676	5.291	4.929	4.219	4.123	3.893	3.717	3.842	3.807	3.901	4.137	4.391	4.015	4.012	3.274	2.578	1.886	1.452	1.447	1.468	1.475	1.473	1.811	2.630	4.326	4.581	3.798	4.726	6.864	9.946	12.69	21.22	62.12	160.3	299.1	249.4	32.35	18.08	2.117	1.070	0.912	0.953	0.750
285.0	1937	1787	1242	499.0	204.2	207.8	346.6	781.6	1053	934.5	1544	5239	9999.9	9999.9	966.0	77.36	36.16	23.53	16.48	14.04	11.04	9.524	7.659	7.698	7.213	6.364	5.913	5.776	5.334	5.136	5.238	4.935	5.185	6.057	6.212	6.267	5.624	4.983	4.825	4.628	4.467	4.330	4.597	4.779	5.068	5.446	5.088	5.177	4.351	3.238	2.355	1.809	1.577	1.591	1.556	1.538	1.952	2.292	3.176	4.486	5.512	5.304	4.738	5.757	6.561	8.142	17.51	40.92	98.42	207.0	328.4	236.1	28.44	11.95	1.436	1.189	0.984
290.0	2555	2461	1687	744.5	323.2	287.7	431.0	764.0	1367	1745	1816	2536	5878	9999.9	9999.9	9999.9	260.8	38.73	25.82	18.63	14.51	11.86	9.906	9.040	8.071	7.163	6.482	6.070	5.871	5.577	5.600	5.495	5.832	6.768	7.500	7.184	6.802	5.934	5.598	5.450	5.098	5.260	5.423	6.004	6.426	6.794	6.626	6.703	5.714	4.236	3.073	2.499	2.057	1.955	1.852	1.938	2.330	2.700	3.285	4.054	5.351	6.672	8.006	8.441	8.145	8.260	10.16	15.31	27.69	53.38	106.7	177.0	247.2	262.8	138.7	19.18	9.558
295.0	3045	2966	2089	965.7	449.6	399.3	554.8	906.9	1488	2328	2866	2722	2896	3420	9999.9	9999.9	5618	85.58	40.40	27.08	19.41	16.19	12.76	10.24	9.251	8.493	7.493	6.991	6.651	6.562	5.802	6.169	6.511	7.491	8.498	8.027	7.799	6.958	6.309	6.186	5.574	5.899	6.004	6.825	7.465	8.226	7.895	7.419	6.559	4.939	3.705	3.326	2.465	2.427	2.254	2.391	2.964	3.154	3.773	4.501	5.467	7.055	8.618	11.02	12.57	12.59	11.80	12.71	14.60	19.13	29.73	43.99	60.25	94.82	214.5	382.2	250.7
300.0	3229	3237	2286	1116	536.2	467.1	654.7	1046	1641	2444	3471	3311	2578	1807	3502	9999.9	9999.9	4294	72.63	38.15	26.52	20.05	15.81	12.35	11.41	9.586	8.777	7.752	7.825	7.074	6.503	6.333	6.673	7.807	9.348	8.691	8.168	7.142	6.333	6.552	5.831	6.035	6.263	7.060	7.865	8.520	8.471	8.272	7.129	5.278	4.187	3.636	2.862	2.668	2.627	2.855	3.311	3.783	4.552	5.267	5.976	7.698	9.192	11.06	13.10	15.23	15.51	14.11	13.08	12.72	13.99	15.33	17.22	23.99	56.87	159.6	331.1
305.0	3241	3285	2341	1212	613.5	551.4	747.1	1141	1771	2542	3485	3861	2808	1615	1281	4653	9999.9	9999.9	598.4	62.24	36.16	25.12	19.34	15.49	12.70	10.66	9.261	8.655	8.045	8.104	7.355	6.715	7.046	8.216	8.792	8.630	8.444	7.614	6.678	6.603	6.261	6.357	6.622	7.236	7.822	8.568	8.337	8.811	7.455	5.686	4.402	4.184	3.349	3.007	3.154	3.278	3.685	4.026	4.988	5.976	6.682	8.321	10.07	11.70	12.72	14.97	17.08	16.86	14.64	12.89	10.85	9.706	8.089	8.604	15.07	38.58	95.60
310.0	3115	3133	2303	1222	701.9	618.2	846.3	1247	1882	2602	3373	3808	3273	1847	925.2	1365	5151	9999.9	9999.9	9999.9	193.2	39.43	27.30	20.34	16.47	13.36	11.51	10.14	9.551	9.149	8.076	7.683	7.564	8.399	9.234	8.713	8.751	7.718	7.127	6.597	6.562	6.475	6.691	7.082	7.923	8.709	8.079	8.592	7.414	5.752	4.540	4.415	3.630	3.499	3.295	3.481	4.276	4.414	5.567	6.171	7.348	8.748	10.13	11.85	13.05	14.43	15.38	15.86	16.02	15.00	12.34	9.227	6.777	5.812	6.331	11.03	23.45
315.0	3007	3051	2297	1278	785.8	740.1	952.8	1352	1959	2624	3337	3592	3276	2344	1090	741.3	1424	2753	9999.9	9999.9	4041	67.86	41.45	28.89	22.26	16.82	14.14	12.17	11.36	9.962	9.019	8.949	8.207	8.591	9.223	8.754	8.533	7.703	7.005	6.921	6.555	6.890	6.700	7.422	7.787	8.605	8.255	8.225	7.829	5.999	4.798	4.537	3.932	3.741	3.853	3.951	4.471	4.979	5.960	6.737	7.668	8.981	10.47	12.29	13.08	14.13	15.09	15.02	15.05	14.50	13.81	11.48	8.785	6.119	5.136	5.400	7.956
320.0	3067	3141	2418	1383	881.3	832.2	1043	1459	2054	2692	3347	3595	3231	2546	1484	752.8	676.1	871.7	3409	9999.9	9999.9	3306	62.20	39.33	28.98	21.25	16.69	13.84	12.64	11.52	9.764	9.463	9.394	9.274	8.966	8.685	8.727	7.942	7.196	7.176	6.756	6.719	6.995	7.229	7.988	8.536	8.668	8.946	8.016	6.377	5.147	5.107	4.507	4.201	4.312	4.253	4.599	5.483	6.281	7.049	8.264	9.146	10.83	12.15	13.41	14.25	15.28	14.94	14.54	13.84	12.76	12.20	10.67	8.723	6.020	5.023	5.423
325.0	3242	3430	2753	1671	1029	932.9	1163	1571	2162	2791	3431	3701	3357	2606	1856	955.8	623.5	513.6	1000	5030	9999.9	9999.9	464.3	57.81	38.65	26.65	20.74	15.99	15.00	13.27	11.13	10.59	9.590	9.518	9.408	8.916	9.039	8.007	7.517	7.373	7.275	7.138	7.068	7.983	8.328	9.294	9.309	9.584	8.974	7.410	6.015	6.056	4.942	4.872	4.613	5.008	5.331	5.615	6.751	7.622	9.050	9.990	11.10	12.41	13.85	14.98	15.85	15.59	15.37	14.53	13.55	11.87	10.52	10.22	8.243	6.526	4.987
330.0	3459	3835	3251	2119	1305	1126	1318	1751	2334	2945	3569	3849	3579	2837	2017	1383	859.9	541.9	523.4	1356	5534	9999.9	9999.9	9999.9	167.6	41.72	29.44	22.23	18.01	15.73	13.51	11.43	10.94	10.09	9.730	9.280	8.983	8.350	7.935	7.542	7.324	7.534	7.754	8.360	9.095	9.965	10.26	10.66	10.13	8.654	7.252	7.186	5.933	5.427	5.233	5.717	6.107	6.400	7.386	8.413	9.580	10.70	11.82	13.20	14.57	15.11	16.07	15.92	15.87	15.43	14.56	13.09	11.83	10.59	9.062	8.666	7.280
335.0	3690	4095	3592	2443	1576	1353	1514	1933	2525	3131	3728	4014	3800	3110	2220	1514	1192	726.5	502.9	571.0	1428	2800	9999.9	9999.9	3343	192.4	44.48	32.25	23.70	19.33	17.43	14.07	12.70	11.69	10.83	10.17	9.453	8.879	8.287	8.015	7.680	8.037	8.289	8.880	10.02	10.72	11.13	11.96	11.16	9.259	8.046	8.203	7.045	6.565	6.098	6.238	6.724	7.404	8.245	8.722	10.08	11.12	12.46	14.30	15.13	16.34	16.11	17.15	16.83	16.22	15.55	14.69	13.06	11.54	9.862	8.699	8.330
340.0	3816	4269	3769	2638	1771	1511	1670	2082	2644	3234	3809	4112	3893	3277	2384	1588	1254	958.5	585.2	446.0	544.4	805.4	3635	9999.9	9999.9	2974	58.95	41.80	30.65	24.09	19.63	16.63	13.80	12.58	11.75	10.50	9.786	9.782	8.325	8.118	7.919	8.063	8.850	9.335	10.20	11.17	11.54	12.35	11.56	9.882	8.838	8.925	7.482	6.908	6.790	6.742	7.342	8.028	8.681	9.358	10.14	12.13	13.14	14.28	15.84	16.40	16.81	17.10	17.23	16.86	15.98	15.28	13.92	12.60	10.48	9.247	8.246
345.0	3808	4312	3800	2763	1929	1654	1791	2175	2712	3287	3819	4106	3951	3367	2491	1669	1238	1055	705.2	478.5	389.1	388.6	988.3	5700	9999.9	9999.9	404.4	56.62	38.81	30.40	23.28	18.85	15.19	13.29	11.66	10.57	10.06	9.414	8.909	8.235	8.208	8.485	8.783	9.621	10.12	11.17	11.45	12.09	11.47	10.47	9.177	9.166	8.048	7.617	7.462	7.180	7.956	8.746	8.916	9.755	10.92	12.29	13.16	14.56	16.06	16.34	16.83	17.52	17.26	16.74	16.65	15.59	14.55	12.78	10.95	9.548	8.559
350.0	3761	4181	3718	2799	2110	1875	1981	2337	2830	3319	3802	4041	3917	3386	2567	1760	1286	1031	884.0	651.1	434.7	357.6	431.9	1463	6416	9999.9	9999.9	9999.9	161.6	43.01	31.25	23.50	18.40	15.26	13.39	11.54	10.75	9.951	9.403	8.783	8.230	8.351	8.684	9.406	10.06	11.04	11.42	11.90	11.41	9.946	9.108	9.671	8.822	8.353	8.050	8.123	8.673	9.401	9.721	10.15	11.39	12.60	13.33	14.60	15.40	16.16	16.71	16.86	17.26	17.04	16.22	15.65	14.75	13.38	11.45	10.18	9.193
355.0	3698	4041	3577	2810	2290	2142	2223	2563	2992	3398	3800	3978	3872	3375	2628	1853	1378	1088	916.7	832.7	583.5	435.4	375.8	547.9	1608	2865	9999.9	9999.9	9999.9	192.9	45.31	31.83	23.83	18.15	15.33	12.98	11.65	10.56	9.969	9.318	8.129	8.281	9.071	9.568	10.05	10.67	11.34	11.78	10.84	9.643	9.211	10.01	9.326	8.916	8.869	8.806	9.654	10.10	10.54	11.40	11.95	13.03	13.53	14.67	15.96	15.89	16.40	16.66	17.42	16.69	16.58	15.67	14.94	13.63	11.63	10.50	9.725
360.0	3615	3890	3476	2815	2394	2310	2401	2724	3142	3485	3792	3941	3831	3355	2647	1922	1468	1168	970.5	868.0	768.4	540.1	419.0	391.1	567.5	812.6	3801	9999.9	9999.9	2906	115.4	42.82	30.50	22.06	17.57	14.76	13.07	12.15	10.28	9.634	9.001	8.863	9.127	9.538	10.13	10.49	11.05	11.45	10.70	9.455	9.259	10.24	9.656	9.348	9.635	9.696	10.15	10.68	11.54	11.91	12.71	13.70	14.25	15.12	16.01	16.07	16.23	16.13	16.64	16.57	15.91	15.42	15.30	13.54	12.02	10.98	10.30
365.0	3419	3787	3340	2808	2480	2429	2529	2827	3237	3527	3793	3893	3744	3319	2650	1954	1518	1241	1042	891.2	844.0	698.7	500.5	410.0	378.9	376.9	1020	6292	9999.9	9999.9	2294	70.49	39.53	28.91	21.14	16.92	14.21	12.53	11.08	10.49	9.381	9.112	9.545	9.714	9.975	10.70	10.83	11.61	10.58	9.790	8.986	10.35	10.12	10.12	10.04	10.15	10.99	11.33	11.70	12.34	13.39	13.77	14.83	15.49	15.75	15.86	15.84	16.02	15.89	15.75	15.48	15.29	15.26	13.85	12.12	11.13	10.39
370.0	3293	3587	3235	2785	2552	2552	2646	2915	3276	3528	3751	3777	3618	3219	2623	1985	1598	1339	1148	984.6	881.0	830.4	687.9	515.3	415.8	338.6	420.9	1586	7256	9999.9	9999.9	9999.9	151.8	41.90	30.86	22.08	17.57	14.72	12.90	11.45	10.48	9.999	9.839	9.866	10.17	10.74	10.55	11.25	10.43	9.476	9.146	10.68	10.27	10.37	10.39	10.58	11.41	12.07	12.29	12.69	14.00	14.13	15.05	15.42	15.68	15.54	15.74	15.73	16.20	15.82	15.49	15.00	14.44	13.60	11.89	11.23	10.98
375.0	3218	3354	3103	2774	2649	2634	2747	2969	3286	3474	3658	3665	3498	3120	2581	2004	1671	1439	1257	1107	979.9	898.0	847.5	701.5	529.0	412.1	346.8	544.5	1770	3073	9999.9	9999.9	9999.9	183.2	43.12	31.62	24.16	18.48	15.10	13.13	11.31	11.00	10.74	10.18	10.54	10.83	10.59	11.28	9.927	9.176	9.233	10.51	10.72	11.13	10.88	11.21	11.78	12.19	12.49	12.93	13.96	14.32	14.60	15.18	15.35	15.41	15.49	15.51	15.18	15.51	14.75	14.40	14.28	13.37	12.26	11.64	10.84
380.0	2967	3253	3042	2753	2705	2711	2802	2960	3253	3408	3539	3567	3388	3038	2529	2028	1709	1501	1345	1192	1069	971.9	902.0	847.7	660.0	501.4	389.2	353.6	573.6	841.5	4335	9999.9	9999.9	2514	121.0	40.59	30.34	23.07	17.05	14.97	12.87	11.67	10.99	10.37	11.09	10.89	10.51	10.98	10.09	9.327	9.293	11.14	10.97	11.64	11.13	11.43	11.92	12.58	13.04	12.95	13.77	14.26	15.28	15.19	16.06	15.30	15.40	14.64	14.78	14.88	14.56	14.48	13.61	13.33	11.79	11.59	11.26
385.0	2920	3124	2884	2747	2705	2740	2787	2939	3144	3320	3446	3448	3273	2939	2479	2028	1739	1543	1399	1258	1139	1035	945.6	900.5	794.5	596.8	449.6	354.6	339.8	352.3	1127	7109	9999.9	9999.9	1992	68.77	38.50	29.11	20.89	17.10	14.23	12.67	11.96	10.95	11.03	11.27	10.26	10.83	10.23	9.262	9.087	10.93	11.35	11.33	11.53	11.34	11.92	12.62	12.60	13.04	13.28	14.49	14.57	14.83	15.30	15.16	15.08	14.40	14.77	14.57	13.75	14.11	13.64	13.03	12.03	11.51	11.50
390.0	2751	2964	2770	2643	2669	2695	2760	2882	3037	3154	3249	3243	3092	2789	2395	2002	1744	1582	1447	1317	1209	1110	1009	930.4	868.2	740.1	546.5	418.4	339.8	284.4	414.1	1748	7138	9999.9	9999.9	8586	142.5	41.32	28.47	21.70	16.79	14.44	12.94	11.81	11.67	11.51	10.53	10.85	10.20	8.908	9.137	11.05	11.33	11.55	11.64	11.57	12.16	12.45	12.55	12.63	13.02	13.50	13.89	14.16	14.15	14.22	14.20	13.95	13.96	13.93	13.36	13.30	13.24	12.58	11.87	11.61	11.27
395.0	2559	2770	2669	2567	2581	2642	2696	2790	2896	2971	3037	3029	2908	2639	2302	1962	1743	1586	1472	1353	1263	1159	1074	984.5	901.4	818.0	682.0	500.1	399.1	318.5	291.8	546.2	1718	2959	9999.9	9999.9	9999.9	175.0	38.99	28.82	21.43	17.16	14.12	12.81	11.95	11.83	10.68	10.66	10.28	9.060	9.221	10.93	11.00	11.29	11.46	11.60	11.92	11.77	12.19	12.65	12.43	13.27	13.22	12.99	13.63	13.48	13.60	13.21	13.11	13.32	12.48	12.73	12.52	12.13	11.75	11.20	11.06
400.0	2443	2644	2588	2482	2547	2591	2606	2720	2789	2836	2899	2868	2751	2528	2217	1918	1727	1592	1477	1375	1282	1194	1110	1022	927.2	837.6	756.4	593.1	452.7	362.5	293.1	300.6	522.3	782.7	3918	9999.9	9999.9	2240	117.7	35.77	25.62	19.78	16.56	13.71	12.50	11.91	10.92	10.81	10.53	9.190	9.288	10.63	10.82	11.18	10.93	11.08	11.76	12.03	11.96	12.53	12.04	12.58	12.77	12.96	12.62	12.86	13.00	12.61	12.71	13.18	11.99	12.25	12.25	11.79	11.20	10.78	10.82
405.0	2329	2545	2485	2429	2440	2540	2522	2618	2671	2706	2748	2717	2615	2411	2134	1859	1690	1562	1466	1365	1279	1202	1121	1040	957.6	851.0	773.9	675.2	521.1	412.1	324.9	268.6	273.8	300.8	992.9	5721	9999.9	9999.9	1871	63.14	31.56	23.62	18.98	14.86	13.17	12.52	11.29	11.26	10.43	9.008	9.187	10.45	10.59	11.05	10.85	11.10	11.83	11.82	11.79	11.52	11.99	11.98	12.18	12.27	12.17	12.00	11.83	11.91	11.99	12.31	11.57	11.30	11.89	10.84	10.59	10.00	10.51
410.0	2210	2383	2400	2332	2352	2432	2440	2511	2533	2538	2572	2537	2430	2244	2017	1779	1623	1525	1426	1340	1266	1193	1122	1050	970.3	869.3	776.4	704.7	620.1	485.6	380.7	302.0	250.8	215.3	338.7	1390	5761	9999.9	9999.9	8123	127.4	30.58	22.66	17.40	14.44	12.91	11.29	11.22	10.49	9.066	8.946	10.33	10.37	10.51	10.66	10.66	11.29	11.13	11.56	10.92	11.58	11.45	11.56	11.50	11.51	11.37	11.18	11.01	11.27	11.19	10.90	10.87	11.25	10.61	10.10	10.17	10.28
415.0	2045	2227	2232	2204	2203	2276	2331	2370	2394	2374	2373	2348	2237	2072	1877	1677	1544	1449	1367	1296	1224	1163	1097	1039	969.2	886.5	790.7	703.1	656.7	573.1	442.1	347.1	275.7	219.4	209.4	416.1	1372	2671	9999.9	9999.9	9999.9	164.3	29.95	21.41	17.06	14.08	12.08	11.23	10.26	8.837	8.964	9.924	10.18	10.27	10.35	10.31	11.13	10.89	11.09	11.18	11.08	10.94	10.94	11.10	10.88	10.56	10.83	10.66	10.74	10.40	10.48	9.923	10.12	10.12	9.639	9.781	9.815
420.0	1926	2104	2126	2106	2141	2162	2240	2263	2270	2252	2237	2208	2110	1946	1767	1592	1477	1394	1322	1242	1180	1130	1077	1020	955.5	881.2	794.6	710.8	653.9	614.5	502.9	382.0	301.8	238.0	193.9	207.7	398.5	678.4	3165	9999.9	9999.9	2111	39.07	26.45	19.87	15.91	12.65	12.12	10.46	9.065	8.284	9.878	10.19	10.18	10.04	9.967	10.60	10.67	10.56	11.13	10.59	10.80	10.83	10.85	10.42	10.01	9.780	9.840	10.07	9.526	9.728	9.847	9.178	10.27	9.406	8.908	8.996
425.0	1807	1971	2019	2013	2062	2080	2161	2199	2198	2173	2131	2080	1991	1851	1679	1522	1414	1345	1271	1207	1143	1096	1051	1002	944.3	875.6	798.9	722.7	656.3	613.9	550.1	426.0	324.2	260.1	205.0	174.8	190.1	233.6	783.1	4135	9999.9	9999.9	1800	36.10	23.55	18.62	14.02	12.28	11.15	9.373	8.489	10.10	10.02	9.929	9.925	9.984	10.34	10.16	10.32	10.53	10.43	10.19	10.46	10.07	9.808	9.806	9.664	8.928	9.228	9.111	8.929	9.306	9.041	9.270	8.994	8.820	9.035
430.0	2341	1837	1909	1894	1951	1989	2051	2095	2092	2067	2025	1953	1860	1726	1573	1432	1336	1272	1205	1150	1097	1048	1013	970.2	920.4	866.4	797.0	731.1	673.4	614.0	563.3	485.3	374.7	290.6	230.9	186.7	159.4	144.0	248.4	993.1	4042	9999.9	9999.9	7630	123.5	25.50	17.54	14.71	11.87	9.738	8.917	10.05	9.808	9.857	9.636	9.636	10.10	10.18	9.941	9.904	10.09	9.855	10.02	9.712	9.810	9.192	9.109	8.727	8.689	8.619	8.627	8.715	8.534	8.608	8.562	8.333	8.374
435.0	4463	1858	1763	1788	1846	1885	1950	2031	1999	1952	1912	1831	1744	1598	1466	1342	1259	1197	1138	1088	1040	999.9	966.3	934.7	894.4	848.8	791.8	738.1	685.3	632.7	560.8	505.2	436.4	331.2	259.6	210.0	170.1	136.5	138.8	288.3	957.6	2420	9999.9	9999.9	9999.9	171.0	25.30	18.87	14.36	10.75	9.744	10.51	9.882	9.798	9.854	9.535	10.25	10.16	9.612	9.858	9.999	9.257	9.501	9.420	9.351	8.866	8.604	8.574	8.501	8.346	7.928	8.365	8.198	8.045	7.974	8.133	7.953
440.0	6192	2158	1680	1712	1753	1809	1887	1956	1943	1870	1831	1741	1656	1516	1393	1283	1200	1143	1085	1037	993.1	963.2	933.1	902.7	868.9	824.7	778.8	735.2	687.0	637.4	572.0	501.2	455.0	369.9	285.2	225.0	183.0	145.2	123.4	138.9	273.2	596.8	2689	9999.9	9999.9	9999.9	117.9	23.58	16.78	12.37	10.84	10.85	10.03	10.12	9.854	9.846	10.04	9.843	9.780	9.811	9.853	9.058	9.099	8.869	9.023	8.540	8.677	8.521	8.025	8.021	7.649	7.970	7.928	7.797	7.739	7.626	7.649
445.0	6114	3979	1641	1626	1699	1737	1812	1861	1857	1794	1751	1674	1579	1440	1327	1209	1137	1081	1036	989.5	947.4	917.0	894.0	870.3	841.6	799.4	759.5	721.2	683.5	631.9	572.2	502.0	445.3	393.9	310.6	238.8	196.2	156.9	125.6	109.7	125.8	190.2	656.9	3267	9999.9	9999.9	1677	31.90	20.28	14.26	12.07	11.72	10.07	10.34	9.573	9.438	9.979	9.660	9.958	9.562	9.664	8.793	9.234	8.589	8.741	8.390	8.200	8.066	8.032	7.503	7.569	7.648	7.537	7.499	7.114	7.416	7.254
450.0	3742	6624	2492	1521	1581	1634	1689	1755	1748	1692	1646	1554	1453	1330	1224	1123	1045	999.3	959.2	913.5	876.5	852.1	831.8	812.8	790.1	754.6	721.5	687.7	660.9	616.9	563.7	494.5	429.8	385.0	332.4	262.2	209.8	168.8	135.9	112.6	102.2	103.0	200.2	781.8	3337	9999.9	9999.9	7612	111.2	20.40	14.72	13.75	11.12	10.46	9.999	9.650	9.777	9.400	9.249	9.112	8.975	8.766	8.989	8.502	8.574	8.051	7.681	7.788	7.631	7.178	7.054	6.933	7.089	6.827	6.653	6.730	6.961
455.0	1774	6169	5648	1554	1456	1490	1574	1641	1623	1563	1524	1416	1334	1215	1109	1015	950.1	914.3	871.3	829.5	800.0	773.9	760.7	744.8	724.4	699.7	672.2	649.8	625.9	592.9	545.0	483.9	421.2	369.1	325.8	285.7	225.3	180.2	148.0	122.2	103.1	90.36	99.71	221.8	786.9	2343	8624	9999.9	9999.9	149.8	20.60	16.74	13.20	11.62	10.65	9.409	10.09	9.350	9.044	8.556	8.634	8.350	7.797	8.118	7.899	7.933	7.383	7.256	7.060	6.833	6.556	6.483	6.469	6.507	6.038	5.876	6.182
460.0	1234	3819	8200	2361	1374	1391	1476	1539	1532	1474	1420	1327	1238	1124	1031	941.2	873.9	838.3	804.2	771.4	736.5	714.9	703.1	690.9	674.2	658.3	631.7	613.4	593.4	568.4	525.7	469.2	410.4	355.7	312.8	285.4	240.5	187.0	155.8	129.0	107.1	90.36	81.68	98.80	218.4	563.5	2129	9999.9	9999.9	8684	116.3	20.93	15.29	13.00	11.16	9.721	9.564	9.453	8.725	8.672	8.714	8.317	7.893	7.848	7.088	7.232	6.978	6.531	6.317	6.462	6.401	5.974	6.094	5.762	5.759	5.653	6.029
465.0	1007	2026	8169	4565	1314	1317	1388	1435	1441	1386	1324	1244	1153	1042	957.7	872.6	816.2	781.2	740.7	713.3	686.3	661.4	655.1	642.6	629.5	611.4	595.3	579.3	557.7	541.7	502.7	451.9	395.8	346.0	301.2	271.7	243.3	198.6	159.2	133.3	112.0	93.09	80.20	73.83	92.23	164.0	513.8	2738	9999.9	9999.9	1419	29.89	18.60	14.53	12.29	10.34	10.23	9.384	8.846	8.636	8.307	8.319	7.862	7.645	6.847	6.860	6.709	6.127	6.147	5.961	5.910	5.798	5.714	5.370	5.484	5.247	5.701
470.0	912.6	1222	4708	8003	2312	1183	1247	1308	1301	1259	1211	1135	1039	945.7	860.5	784.9	727.0	696.0	663.8	635.5	608.6	595.3	584.2	574.8	563.7	551.4	535.4	524.0	511.4	497.2	463.5	418.9	372.8	326.9	286.1	251.8	227.7	202.3	165.8	134.8	114.3	96.08	81.28	68.56	64.90	75.20	147.6	644.6	2834	8788	9999.9	7200	116.5	19.84	13.85	11.84	10.77	9.516	8.893	8.341	7.819	7.759	7.225	7.067	6.643	6.455	6.281	5.715	5.938	5.517	5.413	5.258	5.094	5.159	5.134	5.066	4.886
475.0	862.1	954.1	1873	7580	5367	1218	1103	1179	1183	1135	1079	1034	941.4	846.4	767.4	697.5	646.0	612.6	589.7	563.2	537.1	522.4	518.1	511.5	502.2	491.4	477.0	471.3	462.5	450.4	420.0	386.6	343.4	304.7	267.8	237.0	208.7	191.3	172.0	139.1	114.7	97.26	81.43	69.35	58.99	55.15	65.47	171.5	657.7	2011	5565	9999.9	9999.9	178.0	18.14	12.88	11.45	9.738	8.787	7.647	7.426	7.347	6.968	6.446	6.027	5.740	5.620	5.394	5.166	4.803	4.749	4.676	4.842	4.652	4.561	4.528	4.287
480.0	799.2	838.2	1074	4585	9142	1995	1035	1094	1088	1049	1015	943.3	868.0	780.8	708.6	641.2	595.9	563.3	542.4	518.1	493.2	480.5	474.9	469.9	457.4	454.2	443.6	434.3	428.8	417.4	394.0	361.2	325.8	288.0	255.1	226.7	200.9	179.2	167.9	144.5	116.7	99.23	82.89	71.20	59.58	51.48	47.78	67.06	172.7	472.1	1333	7295	9999.9	8993	30.64	16.46	12.64	10.70	9.364	7.999	7.316	6.949	6.937	6.180	5.942	5.570	5.484	4.932	5.054	4.635	4.785	4.566	4.452	4.592	4.206	4.108	4.132
485.0	744.6	799.4	850.9	2158	9558	4166	1012	1010	1022	993.9	951.6	880.6	816.0	736.8	664.0	599.7	558.4	526.5	503.3	480.3	460.8	449.0	440.5	436.5	424.7	422.4	411.9	406.6	403.1	392.9	372.3	340.6	309.3	275.5	244.6	219.0	193.4	173.8	159.5	145.6	121.3	99.54	84.06	72.07	60.54	52.34	45.78	45.08	64.41	127.9	321.4	1858	9999.9	9999.9	1665	28.54	15.43	11.58	9.547	8.514	7.720	6.676	6.653	6.321	5.832	5.808	5.366	4.850	4.887	4.639	4.489	4.290	4.361	4.275	4.140	4.056	4.142
490.0	631.0	756.0	784.9	1074	5444	8888	1992	947.2	932.3	916.2	875.4	818.3	751.7	672.1	605.5	545.7	508.7	480.3	458.0	436.3	417.1	404.7	398.0	396.5	387.5	382.5	373.5	371.0	370.4	361.9	343.9	317.4	290.0	257.9	231.2	206.9	185.9	166.8	150.2	139.2	125.8	104.4	85.84	74.15	63.32	54.27	47.10	41.54	41.80	52.38	93.85	437.5	2527	7896	9999.9	7326	128.4	18.02	11.57	9.393	8.264	7.166	6.497	6.358	5.679	5.461	5.157	4.771	4.431	4.657	4.091	3.996	4.080	3.969	3.899	3.688	3.704
495.0	531.1	660.0	732.0	760.7	1962	8919	6066	955.1	843.1	828.8	803.2	733.6	678.8	606.8	544.2	495.5	457.8	429.1	407.4	390.2	371.8	361.5	353.9	351.3	346.3	341.4	335.9	334.0	332.9	329.1	313.2	289.4	265.3	237.3	212.4	193.8	176.3	156.0	142.2	128.6	119.7	108.8	88.79	74.42	65.13	56.39	48.65	42.62	36.97	36.65	43.45	118.4	584.0	1795	4796	9999.9	9999.9	199.6	16.98	10.75	8.777	7.699	7.061	6.023	5.711	5.414	5.063	4.655	4.470	4.208	3.804	3.980	3.635	3.867	3.779	3.385	3.236
500.0	502.8	583.5	671.6	657.4	939.6	5395	9999.9	1620	794.1	762.2	738.9	678.2	618.7	558.4	498.1	453.9	419.6	394.4	372.6	354.8	340.9	331.7	322.4	321.6	317.9	309.0	308.6	306.7	302.8	300.8	286.7	268.7	245.3	220.1	199.9	182.7	165.2	149.0	135.1	122.9	111.3	108.3	92.39	74.59	65.77	56.17	49.05	42.94	37.46	33.28	32.49	47.86	150.7	421.1	1139	6145	9999.9	9236	32.78	13.23	9.494	8.053	6.913	6.112	5.411	4.918	4.753	4.263	4.120	4.172	3.554	3.629	3.487	3.449	3.363	3.405	2.934
505.0	464.6	515.5	613.7	609.2	662.1	2342	9999.9	3117	756.7	701.4	680.7	631.1	572.8	511.0	462.5	414.9	384.8	362.2	341.9	321.9	312.0	301.8	294.2	290.4	287.5	284.1	280.1	281.0	279.1	275.4	262.5	249.7	226.5	203.1	187.5	170.8	155.9	142.4	128.5	116.0	104.9	99.82	92.02	76.30	64.48	56.70	48.88	43.34	38.47	33.33	30.04	32.27	53.57	113.7	275.7	1521	8513	9999.9	1835	28.81	11.82	8.850	6.830	6.260	5.457	4.675	4.454	4.301	4.096	3.839	3.466	3.514	3.132	3.196	3.293	3.016	3.002
510.0	408.1	455.3	524.7	583.3	561.0	979.4	6323	9677	1510	634.2	605.7	564.1	512.1	460.8	408.3	368.9	342.9	318.4	303.7	286.4	275.5	264.4	260.2	255.6	252.9	249.0	249.2	247.0	247.0	243.3	234.5	220.4	202.2	186.0	167.8	154.8	141.6	128.8	116.9	107.4	96.82	88.72	84.66	77.16	64.17	55.27	48.05	42.11	37.72	32.95	29.92	28.20	31.64	44.19	80.01	357.8	2092	6832	9999.9	7144	129.0	13.59	8.032	6.374	5.552	4.758	4.247	3.977	3.739	3.509	3.211	3.188	3.098	2.904	2.811	2.684	2.714
515.0	363.2	404.7	437.3	515.9	496.8	596.7	2095	9999.9	5652	632.1	529.8	501.6	457.7	404.2	361.3	326.4	296.5	278.6	264.9	250.3	241.1	228.3	225.2	221.4	220.2	216.7	217.8	215.2	214.9	214.2	204.7	194.2	177.3	163.0	150.4	137.1	127.5	115.5	106.8	97.07	89.16	79.56	73.78	72.71	65.92	54.37	46.61	41.32	36.21	32.45	29.67	26.93	25.86	27.55	35.42	96.43	481.1	1543	3714	9999.9	9710	202.5	11.69	7.402	6.156	4.976	4.197	3.957	3.281	3.193	2.920	2.952	2.930	2.775	2.510	2.519	2.451
520.0	326.7	353.4	366.5	458.7	472.4	471.2	843.1	6680	9999.9	1182	486.8	453.8	409.2	364.1	327.4	291.5	267.7	253.7	240.3	225.5	217.3	209.0	204.5	199.5	197.0	195.5	192.3	191.1	194.4	193.0	182.7	175.6	160.3	147.0	136.3	126.4	116.5	107.3	98.01	90.17	81.79	74.22	68.05	65.12	62.89	55.12	45.44	39.64	35.64	32.08	28.36	26.39	23.91	23.56	23.94	36.80	121.1	357.7	867.2	4722	9999.9	6746	31.73	9.406	6.594	5.414	4.114	3.969	3.061	2.861	2.645	2.822	2.503	2.356	2.495	2.405	2.512
525.0	299.0	339.4	336.0	396.0	458.6	411.3	510.0	2828	9999.9	2337	460.7	411.3	378.4	333.1	299.3	264.4	243.5	230.6	216.2	207.0	195.6	187.7	186.8	183.1	178.7	176.5	172.8	172.8	174.4	174.0	165.4	158.1	145.9	134.6	124.5	115.0	106.1	99.04	90.75	83.59	76.76	69.39	63.78	59.59	58.08	54.07	45.54	38.27	34.21	30.95	27.23	25.47	23.41	22.33	20.66	22.70	40.75	92.31	206.7	1132	5979	9999.9	1836	26.94	7.726	5.817	4.766	3.866	3.300	2.904	2.767	2.687	2.348	2.341	2.239	2.171	2.105
530.0	256.2	291.0	310.1	328.9	405.9	387.2	398.4	987.9	7398	9864	1068	371.7	332.0	299.2	262.5	234.4	214.2	201.2	190.5	180.5	171.1	164.2	162.3	158.1	156.2	153.5	151.0	151.2	152.6	152.1	145.9	137.6	128.4	117.1	109.8	102.0	94.48	87.61	81.71	74.36	69.44	63.48	57.45	53.51	50.86	49.39	45.16	37.66	32.41	29.02	26.13	24.20	22.09	21.01	19.24	18.36	21.39	31.92	56.77	263.6	1441	5104	9211	5171	127.0	10.10	5.327	4.030	3.552	3.095	2.776	2.563	2.258	2.262	2.254	2.135	1.918
535.0	232.3	251.0	272.8	272.4	318.2	371.7	338.2	472.3	2345	9999.9	5093	363.7	292.6	258.8	226.5	203.8	186.7	174.1	166.1	153.5	147.1	141.2	139.1	135.4	133.8	132.0	129.7	130.7	130.2	130.1	125.0	119.8	112.0	102.3	94.38	89.28	82.11	76.76	70.91	66.15	61.90	55.50	51.36	48.17	44.55	42.46	42.04	37.50	31.06	26.84	24.28	22.44	20.14	19.08	17.98	16.60	16.10	17.47	22.51	67.78	329.5	1149	2900	8982	6624	190.9	8.008	4.883	3.618	3.183	2.732	2.550	2.237	2.071	2.082	1.778	1.659
540.0	212.5	232.1	250.5	250.2	269.0	343.3	313.8	344.7	791.8	7112	9999.9	708.9	260.8	232.6	203.2	182.3	165.9	155.5	145.5	137.1	131.9	124.5	123.9	120.4	117.9	116.6	113.2	115.9	116.1	115.5	109.0	105.6	98.08	91.73	84.59	79.17	74.04	68.85	63.73	58.87	55.44	50.62	46.56	43.72	40.21	37.80	36.87	35.59	29.98	25.68	22.96	20.73	18.65	17.88	17.09	15.79	14.77	13.84	13.51	23.47	81.32	264.3	666.5	3453	9658	1953	30.05	6.295	4.380	3.359	2.776	2.672	2.093	1.766	2.030	1.743	1.574
545.0	239.5	234.8	239.3	227.3	227.4	290.2	313.8	291.5	406.2	2876	9999.9	1684	240.1	207.7	179.7	160.2	145.2	136.0	129.5	121.3	115.5	110.3	107.5	107.4	105.5	103.0	103.3	101.7	102.2	100.6	97.43	92.57	87.01	81.24	75.48	70.39	66.29	61.92	56.65	53.72	49.06	46.22	42.37	39.89	35.97	34.06	32.13	32.27	29.42	24.30	21.47	19.74	17.86	16.41	15.64	14.90	13.86	12.37	11.35	13.08	25.22	66.05	156.7	811.3	4385	8360	1745	24.04	5.264	3.590	3.001	2.548	2.081	1.771	1.742	1.632	1.651
550.0	243.3	244.8	229.5	194.3	193.3	223.7	288.8	262.4	283.5	891.3	7378	8888	622.9	177.1	156.0	137.0	123.4	115.0	109.2	101.8	97.68	92.40	90.64	89.79	87.35	86.43	85.98	84.96	84.72	84.24	81.29	77.23	73.07	67.52	63.34	59.78	55.53	52.21	48.32	45.43	41.69	39.30	36.55	34.29	31.42	29.90	27.76	26.67	26.05	23.31	19.74	17.42	15.97	14.96	13.96	12.91	12.75	11.01	9.989	9.759	12.00	20.89	41.20	187.1	1031	3521	5850	3470	122.9	6.714	3.471	2.581	2.173	1.838	1.638	1.639	1.522
555.0	246.6	265.5	221.7	168.2	162.3	169.5	241.4	246.2	230.8	363.5	2208	9999.9	3575	169.3	130.2	113.4	101.0	95.37	90.08	84.73	79.74	75.17	74.69	73.44	72.55	70.29	70.31	68.89	68.50	69.26	66.74	63.70	59.15	55.95	51.86	48.44	46.20	42.99	41.41	37.93	34.76	31.97	31.01	29.22	26.65	25.06	23.03	21.89	21.34	20.83	18.17	15.57	13.78	12.70	12.24	11.28	10.92	10.26	8.917	8.131	8.363	9.800	14.53	46.55	234.4	790.6	1760	5300	4162	177.6	5.501	2.889	2.235	1.836	1.605	1.607	1.220
560.0	236.0	263.4	213.2	159.0	138.7	151.8	195.5	255.9	208.1	230.1	677.0	7221	8748	360.0	115.1	99.15	88.21	82.93	76.14	71.79	67.96	64.24	62.20	61.77	60.74	59.39	59.30	57.41	59.37	58.54	56.02	53.95	50.26	47.43	44.66	41.62	39.40	36.53	35.07	32.63	30.30	28.01	26.66	25.62	23.30	21.82	20.74	18.79	17.94	17.55	16.85	14.54	12.35	11.46	10.97	10.22	9.484	9.087	8.694	7.787	7.011	6.899	7.902	14.77	56.55	181.0	402.7	1941	5578	1904	28.74	3.703	2.336	2.010	1.617	1.420	1.212
565.0	258.1	274.0	217.9	142.9	126.2	132.6	157.4	238.5	206.9	200.3	300.8	2855	9999.9	1112	106.3	86.62	78.24	71.07	65.03	62.48	58.07	56.37	53.48	53.60	52.03	52.28	51.14	49.35	50.76	48.92	48.27	47.09	42.51	40.16	38.48	35.84	33.66	31.62	29.74	28.40	26.10	24.28	23.24	22.37	20.61	18.88	18.34	16.77	15.78	14.96	15.02	13.48	11.81	10.35	9.842	9.517	8.323	7.989	7.698	6.993	6.586	5.946	5.913	7.086	16.46	43.98	94.42	451.7	2371	4870	1528	21.23	2.983	2.105	1.787	1.326	1.166
570.0	282.3	285.4	208.8	137.7	106.8	111.6	131.6	194.5	222.9	193.3	214.8	841.7	7209	6892	340.3	74.44	65.72	58.68	55.17	51.60	47.60	45.84	44.66	43.02	42.86	42.39	41.94	40.82	41.15	40.96	39.85	38.32	35.07	33.29	31.17	29.75	27.98	26.48	24.63	23.47	21.77	20.20	19.09	18.42	17.37	15.93	15.33	14.14	13.02	12.29	12.05	11.80	10.97	9.253	8.403	8.068	7.520	7.084	6.604	6.188	5.882	5.459	4.957	4.987	7.090	13.22	24.51	104.4	551.1	1908	3309	1729	115.6	4.446	2.002	1.492	1.231
575.0	292.8	267.1	206.0	134.5	97.75	94.17	115.3	154.1	226.4	210.5	209.2	341.0	2141	9854	2466	70.82	53.60	48.11	46.11	42.40	38.80	36.88	35.52	35.02	33.86	33.21	33.79	33.04	34.27	32.70	31.68	30.28	28.26	26.55	25.37	24.48	22.90	21.45	20.36	19.28	17.82	16.68	15.90	14.93	14.15	13.37	12.75	11.62	10.76	9.679	9.970	9.579	9.462	8.378	7.370	6.883	6.615	6.337	5.907	5.304	5.041	4.915	4.745	4.498	4.787	5.996	8.543	26.16	125.7	428.5	935.3	2726	1928	32.49	3.112	1.845	1.308
580.0	285.9	282.7	214.4	122.9	86.28	83.35	102.6	137.7	206.8	228.6	215.8	243.0	635.5	6520	6546	113.8	49.70	43.30	39.64	35.41	33.06	31.15	30.15	29.62	29.27	28.05	28.27	27.78	29.06	27.38	27.45	26.23	23.64	22.85	21.91	20.80	19.79	18.63	17.28	16.04	14.90	14.14	13.81	13.26	12.50	11.73	11.00	10.11	9.510	8.486	8.047	7.944	8.158	7.736	6.766	6.303	5.777	5.846	5.109	4.764	4.484	4.590	4.500	4.261	4.067	4.052	4.728	8.531	30.69	98.46	213.3	959.9	2922	1581	26.83	2.203	1.558
585.0	298.0	280.1	208.6	121.5	78.46	78.37	97.23	128.0	185.5	251.5	227.2	230.8	282.4	2517	9366	686.9	46.12	38.23	35.18	30.73	28.48	28.35	26.81	25.40	25.01	25.27	24.39	23.51	24.83	24.29	23.53	22.91	20.87	19.79	18.36	18.04	17.26	15.79	15.20	14.27	13.46	12.45	12.16	11.08	11.01	10.20	9.544	8.990	8.496	7.637	7.187	6.696	6.813	7.155	6.630	5.869	5.352	5.052	4.746	4.058	4.338	4.234	4.150	4.221	3.629	3.703	3.702	4.250	9.390	24.44	50.47	222.1	1204	2810	1095	19.32	1.882
590.0	283.4	284.6	206.5	115.5	73.10	68.43	86.85	115.3	162.6	250.8	249.1	232.2	205.8	705.5	5946	4660	164.0	33.11	29.55	26.61	24.95	23.48	22.38	21.98	20.73	20.16	20.51	20.24	20.00	20.19	19.04	18.60	17.77	16.54	15.41	15.01	14.05	13.04	12.52	11.90	11.00	10.54	10.17	9.438	9.336	8.668	8.256	7.672	7.207	6.546	5.996	5.548	5.471	5.752	5.905	5.515	4.806	4.324	4.019	3.830	3.655	3.553	3.551	3.707	3.506	3.239	3.111	3.447	4.394	7.676	13.28	51.59	278.3	1044	1886	1059	106.4
595.0	272.8	275.3	196.0	103.3	63.74	65.56	82.17	109.1	154.6	222.6	272.3	231.6	192.3	245.7	1684	7022	738.3	34.14	26.14	22.42	20.12	19.63	18.50	17.95	17.45	16.77	16.43	17.29	16.09	16.57	15.23	15.16	14.25	12.98	12.66	12.72	11.91	10.93	10.15	9.860	9.213	8.862	8.394	7.951	7.271	7.250	6.729	6.503	6.219	5.548	4.938	4.857	4.356	4.696	4.474	4.859	4.365	3.770	3.488	3.516	3.304	3.199	2.928	3.082	3.262	2.962	2.880	2.957	2.882	3.585	4.901	13.45	63.58	234.3	511.8	1490	1440
600.0	268.2	249.0	180.2	100.6	65.13	61.99	74.62	100.4	140.7	200.0	272.6	242.5	185.1	140.4	441.0	4777	3931	72.68	23.10	20.50	18.57	17.15	16.16	15.57	15.14	14.80	14.36	14.62	14.41	13.95	13.80	13.06	11.88	11.71	11.41	10.92	10.36	9.439	9.337	8.339	7.953	7.510	7.121	6.923	6.466	6.571	5.916	5.907	5.285	4.900	4.335	4.317	3.969	3.915	3.699	4.377	4.173	3.505	3.189	2.992	2.889	2.744	2.794	2.680	2.972	2.878	2.964	2.595	2.604	2.474	2.728	4.401	15.51	53.59	116.4	496.9	1667
605.0	254.0	233.9	171.2	102.7	59.88	57.09	71.96	99.92	134.8	186.7	264.1	251.8	187.6	119.4	142.0	1844	6202	460.3	22.87	18.14	15.80	14.94	14.32	13.67	13.57	12.49	11.79	12.07	12.73	12.68	11.94	12.10	10.86	10.65	10.21	9.884	9.101	8.644	7.845	7.514	7.121	6.421	6.243	5.901	5.621	5.645	5.322	5.050	4.731	4.206	3.884	3.691	3.528	3.315	3.284	3.781	3.763	3.421	2.996	2.822	2.548	2.606	2.445	2.457	2.505	2.736	2.870	2.510	2.470	2.189	1.875	2.312	4.707	13.14	27.36	114.4	635.1
610.0	224.9	224.2	162.3	91.77	57.31	54.47	67.15	89.03	126.3	173.5	234.4	258.5	184.6	109.6	73.19	478.5	4184	3270	54.38	16.93	14.07	12.75	12.36	11.76	11.53	11.11	10.50	10.33	10.74	11.01	10.33	10.24	9.323	9.636	9.300	8.832	7.932	7.539	6.729	6.151	5.857	5.505	5.332	5.004	4.989	4.950	4.578	4.239	4.135	3.505	3.441	3.023	2.953	2.797	2.748	2.964	3.249	3.218	2.740	2.554	2.400	2.179	2.323	2.255	2.278	2.468	2.521	2.523	2.102	1.992	1.647	1.773	2.117	4.001	6.989	26.61	145.5
615.0	189.4	201.1	148.0	83.14	54.84	51.26	62.32	83.16	115.5	163.9	209.9	239.0	189.2	104.1	57.48	131.0	1181	5137	561.9	18.00	12.91	11.23	10.37	9.420	9.768	8.928	9.062	8.102	9.014	9.109	8.885	8.824	8.050	8.091	8.303	7.733	6.905	6.395	6.159	5.415	4.914	4.645	4.566	4.264	4.286	4.110	3.963	3.563	3.314	2.918	2.837	2.678	2.605	2.274	2.192	2.317	2.541	2.602	2.319	2.396	2.180	1.883	2.019	2.136	1.939	2.111	2.051	2.231	2.213	1.739	1.699	1.449	1.354	1.696	2.308	6.734	33.22
620.0	191.4	182.5	136.5	77.50	51.39	48.41	58.39	79.99	112.7	154.4	187.0	219.8	190.5	102.8	52.99	51.82	298.8	3566	2952	46.45	12.05	11.03	9.378	8.933	8.746	7.849	7.803	7.488	7.495	7.811	7.668	7.585	7.192	7.292	6.768	6.942	5.900	5.456	5.404	4.560	4.520	4.342	3.905	3.761	3.690	3.417	3.218	3.167	2.969	2.713	2.524	2.333	2.286	2.126	2.011	2.062	2.045	2.292	2.040	2.324	1.959	1.882	1.815	2.013	1.803	1.891	1.837	1.955	1.944	1.726	1.537	1.187	1.071	1.231	1.178	2.165	8.109
625.0	164.6	172.9	126.1	74.48	47.63	45.25	56.45	79.83	108.7	146.6	176.3	200.5	191.7	105.2	52.43	35.25	86.57	1393	4799	326.5	12.51	10.59	8.900	8.222	7.914	7.181	6.888	6.849	6.646	6.731	6.223	6.306	6.278	6.375	5.931	5.628	4.902	4.996	4.543	4.130	3.895	3.673	3.756	3.240	3.187	2.990	2.994	2.939	2.677	2.372	2.289	2.008	1.943	2.076	1.808	1.879	1.823	1.848	1.909	1.997	1.738	1.753	1.771	1.575	1.747	1.610	1.714	1.697	1.673	1.642	1.342	1.154	1.026	1.042	0.831	1.087	2.385
630.0	154.3	151.4	121.7	65.77	46.97	40.80	54.42	74.26	101.7	136.7	165.4	178.5	173.5	113.2	52.89	31.63	36.92	357.7	3326	2446	39.54	9.869	8.384	7.042	6.664	6.262	6.004	5.714	5.547	5.636	5.579	5.490	5.310	5.332	5.154	4.806	4.385	4.047	3.777	3.650	3.489	3.244	2.998	2.899	2.807	2.667	2.700	2.420	2.328	2.097	2.038	1.730	1.669	1.671	1.576	1.601	1.558	1.600	1.602	1.753	1.709	1.580	1.526	1.631	1.482	1.461	1.469	1.432	1.449	1.421	1.325	1.245	1.032	0.915	0.775	0.784	1.126
635.0	142.5	144.9	109.2	66.31	44.00	40.99	51.15	72.69	94.22	125.6	156.4	164.6	153.1	118.9	56.39	32.22	26.04	95.12	946.8	4086	450.6	11.18	7.454	6.737	6.032	5.620	5.149	5.130	4.856	5.490	5.089	5.264	4.872	4.632	4.576	4.085	4.034	3.770	3.359	3.075	3.203	2.836	2.575	2.536	2.327	2.411	2.313	2.229	2.049	1.676	1.544	1.382	1.518	1.458	1.405	1.436	1.439	1.393	1.467	1.383	1.620	1.516	1.413	1.551	1.391	1.329	1.339	1.332	1.363	1.247	1.232	1.262	0.961	0.803	0.722	0.792	0.798
640.0	147.0	139.1	108.4	67.60	40.95	44.75	51.79	69.21	90.27	118.0	148.4	158.1	141.6	118.2	65.42	34.33	24.91	35.45	237.4	2964	2171	31.08	7.600	6.233	6.180	5.131	4.922	4.723	4.200	4.937	4.745	4.235	4.533	4.409	4.175	3.944	3.620	3.452	2.906	2.898	2.841	2.563	2.392	2.173	2.283	2.053	2.042	1.978	1.949	1.739	1.462	1.243	1.366	1.318	1.277	1.279	1.266	1.258	1.234	1.384	1.323	1.344	1.316	1.374	1.324	1.308	1.366	1.294	1.272	1.146	1.061	1.112	0.956	0.851	0.701	0.617	0.684
645.0	153.5	135.5	108.2	62.46	42.11	47.05	47.80	70.33	86.57	115.5	140.0	150.0	138.1	110.2	71.17	36.70	24.64	22.07	66.94	1206	3682	239.0	8.455	6.170	5.779	4.702	4.545	4.352	4.253	4.467	4.324	3.844	4.091	3.960	3.751	3.734	3.346	3.123	2.789	2.411	2.365	2.574	2.266	2.006	1.921	1.900	1.906	1.857	1.805	1.566	1.390	1.232	1.176	1.257	1.261	1.169	1.265	1.066	1.111	1.282	1.150	1.149	1.368	1.273	1.235	1.217	1.320	1.102	1.186	1.017	1.071	0.876	0.980	0.792	0.625	0.553	0.696
650.0	151.3	146.8	108.9	65.34	42.63	42.45	52.63	64.60	86.76	117.3	138.0	147.1	131.0	103.2	77.90	41.26	26.11	19.78	27.21	333.8	3453	1194	11.79	6.386	5.632	4.775	4.385	4.059	4.052	4.088	3.750	3.705	3.605	3.862	3.511	3.351	3.092	2.916	2.784	2.449	2.111	2.207	2.263	1.987	1.825	1.815	1.856	1.918	1.594	1.393	1.324	1.229	1.095	1.138	1.062	1.142	1.238	1.077	1.147	1.058	1.086	1.180	1.199	1.215	1.109	1.283	1.297	1.086	1.002	0.932	1.059	0.815	0.986	0.744	0.654	0.661	0.530
