Sample:	'1
File name:	²ý´ï.FD3
Run date:	'13:11:49, 09/10/2025
Operator:	Administrator
Comment:	'

Instrument
Model:	F-2700 FL Spectrophotometer
Serial number:	24D1-003
ROM Version:	4J14000 07

Instrument parameters
Measurement type:	3-D scan
Data mode:	Fluorescence
EX  Start WL:	220.0 nm
EX  End WL:	600.0 nm
EX Sampling interval:	5.0 nm
EM  Start WL:	230.0 nm
EM  End WL:	650.0 nm
EM Sampling interval:	5.0 nm
Scan speed:	12000 nm/min
EX Slit:	5.0 nm
EM Slit:	5.0 nm
PMT Voltage:	700 V
Response:	Auto 
Corrected spectra:	Off
Contour interval:	50.000

Peak integration
Integration method:	Rectangular
Sensitivity:	1
Threshold:	1.000

Peaks
No.	ApexEX/EM(nm)	Height(Data)
1	225.0/305.0	810.3
2	225.0/580.0	87.19
3	225.0/590.0	87.19
4	225.0/635.0	51.14
5	230.0/345.0	1503
6	230.0/600.0	81.75
7	245.0/385.0	1803
8	245.0/405.0	1765
9	250.0/545.0	252.2
10	255.0/280.0	798.9
11	255.0/560.0	238.8
12	260.0/570.0	207.0
13	265.0/585.0	196.6
14	270.0/300.0	1979
15	270.0/595.0	184.4
16	275.0/305.0	2300
17	275.0/325.0	1820
18	275.0/610.0	165.4
19	280.0/310.0	2084
20	280.0/385.0	1992
21	280.0/625.0	137.0
22	285.0/635.0	96.34
23	460.0/340.0	5.063
24	520.0/285.0	4.843
25	540.0/295.0	8.068
26	545.0/300.0	8.911
27	555.0/305.0	9.698
28	565.0/385.0	8.937
29	570.0/315.0	8.079

Data points
	220.0	225.0	230.0	235.0	240.0	245.0	250.0	255.0	260.0	265.0	270.0	275.0	280.0	285.0	290.0	295.0	300.0	305.0	310.0	315.0	320.0	325.0	330.0	335.0	340.0	345.0	350.0	355.0	360.0	365.0	370.0	375.0	380.0	385.0	390.0	395.0	400.0	405.0	410.0	415.0	420.0	425.0	430.0	435.0	440.0	445.0	450.0	455.0	460.0	465.0	470.0	475.0	480.0	485.0	490.0	495.0	500.0	505.0	510.0	515.0	520.0	525.0	530.0	535.0	540.0	545.0	550.0	555.0	560.0	565.0	570.0	575.0	580.0	585.0	590.0	595.0	600.0
230.0	42.56	927.0	2277	491.8	22.83	8.845	7.525	6.994	6.682	5.705	5.858	5.290	5.013	4.216	4.012	3.152	2.917	2.557	2.378	2.330	2.254	1.970	2.003	1.814	1.745	1.685	1.613	1.431	1.401	1.320	1.377	1.318	1.245	1.180	1.024	1.011	0.831	0.864	0.797	0.814	0.780	0.701	0.693	0.702	0.618	0.643	1.044	4.197	8.288	6.988	2.713	0.847	0.558	0.484	0.490	0.442	0.481	0.503	0.489	0.433	0.495	0.486	0.401	0.448	0.464	0.403	0.434	0.456	0.484	0.503	0.435	0.403	0.397	0.489	0.486	0.425	0.527
235.0	53.57	257.0	1613	3141	465.2	39.05	8.153	7.304	7.102	5.546	5.838	5.721	4.425	5.019	3.958	3.233	2.878	2.818	2.468	2.440	2.388	2.290	1.941	1.809	1.651	1.570	1.705	1.460	1.319	1.610	1.310	1.385	1.163	1.161	1.015	0.892	0.873	0.872	0.907	0.810	0.713	0.755	0.746	0.734	0.735	0.615	0.639	1.424	3.289	6.327	10.62	12.24	6.714	1.696	0.546	0.603	0.543	0.529	0.576	0.492	0.494	0.509	0.434	0.395	0.462	0.494	0.455	0.456	0.552	0.533	0.500	0.501	0.433	0.453	0.467	0.483	0.505
240.0	78.68	96.77	499.3	2881	3677	378.1	19.52	7.804	6.642	7.051	6.483	5.971	5.062	4.631	3.810	3.406	3.216	2.759	2.433	2.578	2.149	2.197	2.119	1.927	1.765	1.569	1.713	1.505	1.622	1.536	1.395	1.364	1.262	1.251	0.936	0.881	1.020	0.940	0.830	0.940	0.854	0.709	0.712	0.671	0.685	0.780	0.720	0.804	1.205	2.041	5.313	14.89	19.62	14.28	5.705	0.984	0.487	0.423	0.629	0.380	0.517	0.446	0.517	0.450	0.496	0.422	0.423	0.456	0.475	0.474	0.464	0.446	0.379	0.468	0.481	0.563	0.488
245.0	63.92	118.5	152.7	951.4	4079	3327	306.2	12.31	8.804	8.032	7.131	5.460	5.648	4.697	3.886	3.729	3.371	2.783	2.846	3.071	2.296	2.105	1.962	1.794	1.809	1.779	1.908	1.659	1.528	1.407	1.261	1.314	1.214	1.102	1.000	0.917	1.050	0.936	0.737	0.866	0.801	0.758	0.753	0.618	0.550	0.679	0.859	0.824	0.795	0.886	1.556	4.860	11.17	20.92	24.66	14.30	3.874	0.685	0.571	0.398	0.501	0.465	0.569	0.488	0.424	0.395	0.442	0.471	0.413	0.509	0.399	0.489	0.394	0.477	0.472	0.496	0.540
250.0	39.29	102.2	165.5	271.1	1261	3836	4647	1267	80.93	9.667	9.049	7.196	7.245	5.349	4.330	3.904	3.920	3.070	3.045	2.866	2.575	2.333	2.075	1.771	1.860	1.859	1.793	1.763	1.542	1.411	1.528	1.219	1.270	1.136	1.031	0.972	0.984	1.016	0.907	0.895	0.733	0.703	0.796	0.679	0.669	0.676	0.656	0.958	0.853	0.936	0.917	1.635	3.077	6.360	12.24	19.03	24.50	23.70	12.49	4.424	0.736	0.420	0.562	0.482	0.397	0.480	0.431	0.441	0.564	0.461	0.470	0.445	0.416	0.468	0.423	0.558	0.480
255.0	36.50	51.68	122.9	253.5	345.7	948.5	3518	8191	1899	88.79	12.85	9.170	8.717	6.465	4.887	3.698	3.877	3.243	3.202	2.810	2.556	2.410	2.288	2.251	2.258	1.883	1.886	1.852	1.738	1.518	1.571	1.527	1.157	1.131	0.997	0.963	0.867	0.990	0.792	0.720	0.757	0.727	0.708	0.806	0.623	0.729	0.644	0.679	0.794	0.842	1.093	1.431	1.436	1.890	3.134	4.798	8.165	19.99	37.84	30.04	20.43	4.838	0.664	0.538	0.560	0.536	0.562	0.453	0.438	0.435	0.434	0.469	0.416	0.404	0.535	0.480	0.486
260.0	33.66	35.03	53.73	216.2	258.9	253.4	1006	6154	9685	1482	52.13	11.71	10.20	7.078	5.737	4.589	3.992	3.952	3.554	3.065	2.890	2.510	2.439	2.186	2.178	1.922	1.818	1.771	1.556	1.474	1.647	1.474	1.292	1.150	1.089	0.947	1.010	0.878	0.678	0.680	0.860	0.818	0.688	0.705	0.703	0.693	0.683	0.616	0.650	0.586	0.906	1.404	1.689	1.463	1.174	1.427	2.288	5.294	14.94	33.49	54.41	29.15	15.48	2.321	0.576	0.502	0.555	0.484	0.478	0.453	0.464	0.474	0.447	0.458	0.467	0.533	0.485
265.0	38.06	29.96	32.47	104.8	296.3	221.5	269.9	1885	8843	9999.9	1164	23.50	13.45	8.267	6.777	5.994	4.338	3.908	3.355	3.139	2.852	2.641	2.515	2.376	2.135	1.787	1.665	1.608	1.643	1.494	1.434	1.560	1.463	1.124	1.150	1.121	0.952	0.965	0.962	0.800	0.873	0.863	0.735	0.677	0.707	0.811	0.659	0.597	0.637	0.464	0.548	0.880	1.389	1.922	1.721	1.044	1.143	1.706	3.938	9.623	25.81	49.79	67.13	26.66	10.26	1.020	0.578	0.508	0.636	0.488	0.468	0.484	0.479	0.586	0.385	0.506	0.496
270.0	73.43	61.11	47.01	58.36	160.7	339.3	314.1	581.2	2656	8567	9999.9	4634	84.87	13.24	9.556	6.732	5.666	4.539	4.157	3.735	3.353	2.784	2.540	2.388	1.995	2.171	1.740	1.832	1.798	1.775	1.523	1.520	1.455	1.330	1.136	1.118	0.997	0.952	1.079	0.983	1.000	0.991	0.921	0.892	0.782	0.736	0.728	0.705	0.747	0.571	0.516	0.684	0.844	1.164	1.560	1.961	2.058	1.755	1.769	3.161	6.753	14.36	29.48	44.11	60.35	52.98	17.10	8.298	1.138	0.560	0.529	0.534	0.506	0.605	0.464	0.535	0.531
275.0	153.5	151.6	111.9	82.02	108.6	222.0	525.6	581.3	863.7	2271	6187	9999.9	7770	104.0	15.10	9.251	7.008	5.888	4.829	3.994	3.696	2.966	2.886	2.564	2.592	2.123	2.073	2.204	1.879	1.664	1.598	1.520	1.491	1.449	1.176	1.197	1.051	1.257	1.292	1.166	1.182	1.087	1.227	1.028	0.889	0.808	0.873	0.938	0.860	0.693	0.629	0.652	0.794	0.866	1.033	1.344	2.085	3.206	3.067	2.604	2.832	4.885	7.973	11.31	17.53	35.11	74.36	97.67	27.57	10.15	0.792	0.521	0.648	0.687	0.596	0.532	0.721
280.0	225.2	251.4	209.9	128.8	114.2	182.3	425.5	798.9	681.3	884.0	1868	9357	9999.9	1209	71.49	13.69	8.925	6.677	6.194	4.503	3.583	2.980	3.145	2.825	2.719	2.009	2.088	2.122	1.920	1.947	1.638	1.789	1.414	1.639	1.212	1.285	1.196	1.443	1.383	1.255	1.446	1.321	1.394	1.202	1.141	1.137	1.078	1.220	1.112	0.952	0.729	0.867	0.802	0.944	1.108	1.189	1.518	2.411	3.872	4.095	3.115	3.198	3.621	4.611	5.377	9.884	25.62	67.35	106.5	96.46	21.34	3.853	0.751	0.536	0.603	0.605	0.599
285.0	328.8	380.3	324.7	202.3	144.9	188.1	330.6	736.9	969.2	743.1	863.4	2883	9999.9	9999.9	981.1	43.67	13.38	8.565	6.986	4.962	4.060	3.505	3.495	2.826	2.826	2.444	2.348	2.191	2.114	2.171	1.601	1.779	1.788	1.466	1.280	1.325	1.373	1.549	1.496	1.460	1.290	1.513	1.507	1.428	1.333	1.382	1.425	1.571	1.461	1.315	1.132	1.022	0.982	1.001	1.091	1.374	1.358	1.744	2.795	4.071	4.843	4.280	3.345	3.483	3.316	4.297	7.523	18.13	42.19	93.70	123.5	31.82	14.18	1.102	0.603	0.561	0.732
290.0	434.9	556.3	510.2	310.8	203.5	229.9	339.5	588.5	1020	1238	1034	1357	3130	9658	9999.9	8284	59.37	14.19	9.203	6.412	5.179	4.414	3.830	3.616	2.957	2.674	2.481	2.271	2.349	2.155	1.929	1.851	1.823	1.588	1.396	1.371	1.557	1.457	1.591	1.495	1.400	1.409	1.458	1.578	1.530	1.652	1.784	2.153	2.075	1.745	1.420	1.357	1.216	1.154	1.212	1.514	1.590	1.792	2.556	3.149	3.900	5.271	5.570	5.311	4.658	4.311	5.052	7.111	12.25	25.38	46.97	67.85	101.2	81.56	59.15	10.24	1.723
295.0	516.9	722.6	664.3	423.7	279.3	277.6	378.0	580.3	875.6	1385	1736	1434	1604	2712	4800	9999.9	5797	72.72	14.45	9.693	6.674	5.221	4.568	3.884	3.463	2.690	2.777	2.734	2.305	2.397	2.208	2.002	1.845	1.570	1.514	1.272	1.584	1.625	1.553	1.543	1.683	1.308	1.448	1.614	1.714	1.878	2.169	2.627	2.440	2.212	1.893	1.732	1.507	1.311	1.551	1.597	1.770	2.058	2.447	2.916	3.637	4.456	4.719	6.926	8.068	7.099	5.680	6.038	6.846	9.293	13.39	17.31	27.55	50.49	119.7	151.8	32.72
300.0	524.8	782.5	718.7	477.3	316.9	312.0	418.4	615.0	880.8	1290	1979	1834	1465	1289	1459	7077	9999.9	4413	53.54	13.52	8.979	6.492	5.264	4.576	3.882	3.382	2.907	2.542	2.587	2.225	2.115	2.060	1.876	1.439	1.546	1.494	1.690	1.629	1.548	1.622	1.576	1.264	1.453	1.572	1.722	2.114	2.336	2.771	2.700	2.424	2.133	2.013	1.854	1.571	1.715	1.876	1.990	2.306	2.634	3.132	3.540	4.376	4.857	6.152	7.691	8.911	8.454	6.783	6.489	6.043	6.571	6.630	8.100	13.36	37.70	96.84	156.5
305.0	548.4	810.3	763.1	531.8	363.8	359.1	453.6	635.6	906.1	1269	1814	2300	1680	1104	744.9	1934	9999.9	9999.9	3298	38.32	12.34	8.616	6.021	4.846	4.149	3.608	3.282	3.141	2.701	2.445	2.125	2.052	2.014	1.685	1.561	1.787	1.596	1.679	1.630	1.504	1.589	1.512	1.526	1.443	1.836	2.054	2.378	3.017	3.003	2.477	2.151	2.064	1.934	1.650	1.703	1.985	2.116	2.493	2.688	3.161	3.700	4.448	5.008	5.896	6.599	7.693	9.418	9.698	7.918	6.342	5.414	4.434	4.182	4.823	9.793	24.73	59.80
310.0	515.1	769.6	776.8	556.6	400.3	390.6	480.5	651.4	910.4	1251	1668	2077	2084	1365	707.8	703.4	2581	9094	9999.9	8556	45.06	13.02	8.876	6.475	5.081	4.207	3.775	3.452	3.122	2.753	2.603	2.212	2.197	1.791	1.610	1.666	1.629	1.590	1.692	1.503	1.495	1.510	1.658	1.715	1.805	2.075	2.246	2.894	2.778	2.529	2.224	2.218	2.050	1.802	1.881	2.089	2.294	2.525	2.983	3.151	3.658	4.330	5.000	5.655	6.165	7.035	7.751	8.903	8.876	8.450	6.567	4.923	3.885	3.349	3.923	7.021	14.87
315.0	495.8	737.5	766.7	570.9	427.4	419.2	518.8	676.9	902.5	1236	1591	1847	1888	1754	970.4	528.9	788.3	2173	4505	9999.9	4311	58.08	13.63	9.534	6.664	5.311	4.365	3.597	3.389	3.007	2.849	2.417	2.256	2.067	1.699	1.747	1.641	1.761	1.624	1.353	1.416	1.367	1.623	1.440	1.703	1.889	2.406	2.857	2.975	2.767	2.205	2.154	2.098	1.942	2.054	2.235	2.371	2.768	2.996	3.371	3.641	4.587	4.732	5.620	6.081	6.574	7.074	7.885	7.688	7.570	8.079	7.308	5.016	3.515	3.253	3.468	5.073
320.0	513.6	860.1	897.2	636.3	456.3	440.0	535.4	697.8	927.9	1243	1592	1804	1790	1683	1334	632.3	451.6	665.0	1167	6889	9999.9	3653	45.35	12.35	8.861	6.502	5.000	4.042	3.828	3.310	3.075	2.736	2.296	2.185	1.835	1.704	1.726	1.651	1.619	1.526	1.456	1.472	1.620	1.634	1.934	2.098	2.453	3.094	3.312	3.042	2.404	2.298	2.218	2.196	2.302	2.244	2.441	2.882	3.062	3.662	3.899	4.675	5.063	6.024	6.209	6.627	7.090	7.249	7.555	7.333	7.299	7.492	7.067	4.837	3.520	3.027	3.007
325.0	576.8	1020	1147	752.2	516.7	480.4	568.5	733.9	957.3	1278	1618	1820	1799	1578	1446	933.2	470.4	387.6	416.5	1783	9946	9999.9	2915	33.30	11.46	8.095	5.998	4.719	4.351	3.484	3.138	2.855	2.533	2.119	1.876	1.725	1.502	1.690	1.549	1.489	1.425	1.455	1.519	1.530	1.882	2.278	2.683	3.438	3.923	3.624	2.931	2.792	2.751	2.266	2.466	2.418	2.583	2.971	2.962	3.721	3.972	4.786	5.334	6.061	6.308	6.584	7.041	7.401	7.511	7.467	6.745	6.690	6.680	7.083	5.450	3.738	3.269
330.0	598.0	1099	1308	950.4	615.4	548.9	612.8	761.2	973.2	1281	1592	1806	1802	1581	1330	1118	748.7	426.8	315.6	553.5	2522	8754	9999.9	8246	179.9	12.43	8.157	6.142	4.750	3.932	3.613	3.110	2.575	2.245	1.991	1.692	1.743	1.876	1.587	1.596	1.586	1.483	1.548	1.649	1.965	2.509	2.922	4.050	4.270	4.167	3.506	3.424	3.117	2.537	2.560	2.496	2.543	3.180	3.357	3.686	4.083	4.308	5.128	5.821	6.272	6.625	6.913	7.297	7.687	7.274	7.117	6.608	6.339	6.301	6.125	5.749	4.873
335.0	634.5	1155	1441	1075	735.8	635.5	686.2	805.5	998.2	1294	1586	1786	1792	1604	1327	1039	946.7	676.9	380.6	338.9	722.1	2078	4595	9999.9	9999.9	50.76	12.90	8.461	6.439	4.964	4.475	3.525	2.668	2.360	2.230	1.944	1.924	1.880	1.620	1.818	1.537	1.434	1.686	1.688	2.023	2.690	2.963	4.209	4.638	4.724	3.649	3.692	3.442	2.921	2.825	2.686	3.063	3.141	3.730	3.867	4.223	4.751	5.177	5.879	6.209	6.827	6.734	7.166	7.054	7.400	7.000	6.996	6.502	6.269	5.363	5.343	5.397
340.0	627.0	1185	1501	1179	829.7	734.7	740.5	846.0	1037	1292	1575	1779	1789	1632	1360	1050	889.6	868.6	527.9	345.3	364.9	618.9	1181	7050	9999.9	3166	41.32	11.37	8.085	5.688	4.648	3.941	2.705	2.813	2.317	2.061	2.081	1.777	1.782	1.779	1.690	1.505	1.600	1.674	2.184	2.589	3.203	4.274	5.063	4.975	3.899	4.065	3.579	3.276	3.196	3.005	3.485	3.571	3.811	4.065	4.375	4.832	5.321	6.086	5.907	7.016	6.680	6.790	7.122	7.716	7.259	6.621	6.778	6.301	5.401	5.309	5.162
345.0	613.1	1139	1503	1238	931.2	818.0	805.4	905.9	1054	1292	1543	1723	1742	1628	1384	1076	856.4	854.2	725.9	436.5	340.3	340.1	414.0	1844	9999.9	9999.9	2578	31.46	10.91	7.354	5.525	4.447	2.926	3.009	2.427	2.314	2.108	1.892	1.864	2.087	1.643	1.750	1.671	1.627	2.109	2.423	3.119	4.144	4.628	4.888	4.541	4.364	4.104	3.501	3.292	3.484	3.657	3.693	4.020	4.040	4.465	4.893	5.276	5.651	6.004	6.690	6.586	6.819	6.963	7.614	7.314	6.838	6.917	6.382	5.850	5.233	5.423
350.0	570.4	1080	1444	1286	1058	961.6	947.3	988.0	1126	1313	1523	1674	1697	1598	1401	1133	923.5	816.9	812.8	689.0	466.9	365.1	318.3	578.5	2591	8753	9999.9	7408	165.0	11.68	7.874	5.442	3.885	3.416	2.782	2.334	2.062	2.007	2.027	1.853	1.743	1.573	1.723	1.786	2.147	2.467	3.044	4.001	4.520	4.587	4.278	4.519	4.502	4.111	4.030	3.870	4.078	4.118	4.356	4.521	4.578	5.037	5.327	5.662	5.941	6.305	6.491	6.865	7.063	7.067	6.964	7.042	7.001	6.332	6.167	5.673	5.524
355.0	542.3	1039	1392	1319	1188	1134	1109	1144	1254	1400	1544	1673	1679	1600	1421	1197	1015	886.9	813.0	822.8	723.8	497.1	395.2	378.4	761.0	2090	4632	9999.9	9999.9	43.65	12.45	7.997	5.501	4.252	3.377	2.715	2.451	2.276	2.031	1.789	1.780	1.682	1.822	1.950	2.006	2.399	2.864	3.671	4.410	4.364	4.164	4.876	4.803	4.906	4.531	4.518	4.616	4.676	5.010	5.007	5.215	5.543	5.535	5.735	6.126	6.439	6.321	6.368	6.956	7.144	6.867	6.985	6.964	6.444	6.395	6.070	5.813
360.0	545.6	999.4	1338	1365	1288	1251	1222	1260	1347	1479	1582	1683	1678	1591	1447	1255	1089	972.5	878.5	837.3	866.0	667.9	487.4	398.7	405.7	632.3	1196	6931	9999.9	2790	36.61	10.64	7.383	5.009	3.641	2.907	2.494	2.310	2.190	1.864	2.026	1.665	1.760	1.802	2.249	2.382	2.751	3.788	4.286	4.392	4.340	5.117	5.072	5.151	5.153	4.721	5.221	5.176	5.643	5.322	5.562	5.817	5.925	6.142	6.328	6.484	6.683	6.783	6.757	7.386	6.870	7.126	7.241	6.841	6.643	6.421	6.288
365.0	532.1	940.4	1298	1373	1372	1338	1328	1346	1422	1531	1639	1693	1672	1591	1467	1293	1159	1054	954.1	878.9	888.4	858.2	622.5	470.8	387.1	356.5	417.1	1819	9942	9999.9	2339	24.68	10.52	6.677	4.397	3.242	2.639	2.691	2.401	2.101	1.838	1.893	1.654	1.709	2.102	2.530	2.797	3.687	4.054	4.218	4.324	5.078	5.357	5.388	5.562	5.224	5.204	5.657	5.730	5.896	6.137	6.197	6.236	6.325	6.620	6.686	6.759	6.591	6.692	7.180	6.834	7.206	7.413	6.982	7.067	6.783	6.256
370.0	517.6	915.0	1283	1442	1477	1463	1450	1443	1510	1605	1691	1726	1706	1627	1492	1342	1222	1136	1058	985.0	934.0	926.3	847.9	632.1	495.0	391.8	332.2	589.3	2596	9801	9999.9	5823	32.73	13.78	6.959	4.393	3.504	2.964	2.632	2.329	2.053	1.978	1.804	1.988	2.037	2.303	2.565	3.614	4.089	4.195	4.363	5.115	5.709	5.660	6.052	5.818	5.785	5.977	6.070	6.031	6.402	6.357	6.355	6.433	6.632	6.571	6.701	6.832	6.880	7.219	7.166	7.105	6.980	6.874	7.023	6.998	7.060
375.0	509.4	892.6	1305	1504	1629	1653	1559	1540	1581	1687	1794	1803	1843	1752	1523	1385	1288	1223	1170	1098	1037	986.0	967.7	917.8	694.6	540.2	461.1	491.3	841.1	2400	5384	9999.9	2674	40.84	12.77	6.434	4.554	3.695	3.061	2.522	2.243	2.210	1.985	2.005	2.108	2.468	2.745	3.707	4.019	4.268	4.711	5.434	5.966	6.475	6.756	6.350	6.787	6.357	6.624	6.352	6.792	6.835	6.816	6.663	6.933	7.221	7.199	7.263	7.552	7.944	8.082	7.187	7.581	7.000	7.154	7.669	7.434
380.0	513.1	910.6	1327	1560	1711	1732	1632	1594	1637	1739	1859	1861	1949	1841	1545	1408	1322	1274	1224	1169	1120	1060	1011	1050	891.6	677.5	613.0	591.6	541.8	804.4	1583	9070	9999.9	2270	29.11	8.868	5.669	4.585	3.430	2.526	2.460	2.288	2.110	1.971	2.266	2.489	2.883	3.503	4.093	4.297	4.721	5.843	6.498	7.020	7.191	6.324	6.786	6.258	6.952	6.628	6.829	6.650	6.951	6.949	7.175	7.572	7.655	7.424	7.823	8.730	8.365	7.444	7.353	6.978	7.202	7.585	7.496
385.0	486.0	899.9	1317	1588	1770	1803	1674	1610	1668	1759	1892	1881	1992	1886	1561	1412	1348	1305	1259	1223	1182	1124	1064	1068	1032	814.7	724.6	686.1	539.5	506.5	721.9	2781	9999.9	9999.9	1719	19.19	7.562	4.988	4.135	3.132	2.668	2.520	2.328	2.337	2.335	2.747	2.965	3.742	4.139	4.421	4.732	6.176	6.295	6.907	7.247	6.413	6.824	6.704	6.655	6.749	6.618	7.055	7.119	7.186	7.256	7.618	7.413	7.787	7.755	8.937	8.176	7.647	7.297	7.197	7.027	7.469	7.586
390.0	495.5	873.8	1303	1585	1731	1786	1687	1621	1671	1721	1823	1826	1893	1803	1537	1408	1350	1324	1286	1254	1218	1168	1102	1070	1032	933.7	805.1	712.6	552.5	449.7	502.9	943.9	2810	8843	9999.9	4619	23.12	7.661	5.608	4.145	3.155	2.536	2.475	2.322	2.327	2.684	2.906	3.746	4.155	4.433	4.633	6.079	6.396	6.780	7.041	6.661	6.954	6.604	6.489	6.744	6.822	6.656	6.745	6.925	7.305	7.166	7.240	7.107	7.352	8.176	8.025	7.278	7.185	7.077	7.358	7.713	7.661
395.0	492.8	865.9	1280	1570	1702	1761	1688	1626	1654	1686	1772	1769	1834	1744	1502	1393	1343	1323	1299	1267	1242	1202	1148	1105	1031	958.9	928.5	799.8	612.0	485.2	488.2	553.4	802.2	2083	5188	9999.9	2205	29.28	7.886	5.271	4.193	3.219	2.516	2.552	2.518	2.720	2.987	3.679	4.172	4.406	4.492	6.080	6.550	6.661	6.947	6.703	7.206	6.468	6.316	6.627	6.634	6.947	6.716	6.502	7.126	6.517	6.926	6.774	7.505	7.578	7.792	7.231	6.993	7.189	7.281	7.646	7.647
400.0	484.3	872.4	1261	1545	1695	1764	1686	1615	1644	1680	1758	1740	1814	1727	1473	1365	1326	1313	1291	1272	1248	1216	1174	1136	1057	967.5	984.6	917.4	687.3	541.3	537.6	518.3	385.9	567.0	1303	6990	9999.9	1903	22.18	7.088	5.088	3.605	2.844	2.728	2.688	2.854	2.771	3.771	4.088	4.491	4.746	5.913	6.325	6.761	6.893	6.747	6.894	6.867	6.667	6.525	6.720	6.793	6.870	6.731	6.711	6.567	6.965	6.848	7.237	7.817	7.790	7.309	6.778	7.093	6.772	7.449	7.524
405.0	495.8	859.5	1217	1507	1662	1765	1652	1605	1629	1644	1742	1726	1779	1697	1444	1349	1310	1295	1283	1265	1239	1215	1180	1151	1070	982.1	974.5	982.1	766.2	590.8	583.9	534.2	315.6	248.1	364.9	1857	8662	9999.9	1482	15.69	6.258	4.057	3.209	2.658	2.606	2.715	3.020	3.731	4.106	4.219	4.771	5.697	6.128	6.917	6.662	6.562	6.694	6.720	6.638	6.768	6.900	6.663	6.385	6.485	6.777	6.658	6.719	6.980	6.908	7.457	7.596	6.982	6.943	6.690	7.220	6.957	7.510
410.0	474.6	822.2	1185	1428	1606	1672	1628	1565	1584	1589	1656	1622	1652	1586	1388	1300	1266	1250	1242	1229	1207	1184	1157	1126	1057	974.8	933.7	921.4	816.2	638.1	575.9	503.1	302.2	197.7	175.3	479.4	2264	7153	9999.9	3568	20.58	5.964	4.471	3.433	2.983	2.985	2.952	3.769	3.987	4.241	4.655	5.569	5.878	6.294	6.650	6.121	6.569	6.221	6.512	6.607	6.718	6.505	6.512	6.439	6.317	6.600	6.233	6.557	6.518	7.109	6.933	6.678	6.416	6.494	6.822	6.933	7.027
415.0	449.7	783.8	1129	1356	1515	1584	1566	1540	1532	1532	1559	1539	1534	1471	1306	1239	1210	1194	1181	1166	1158	1135	1108	1079	1024	952.6	895.3	854.8	778.3	695.4	584.8	478.1	310.4	207.8	154.1	186.9	561.8	1654	4427	9999.9	1991	25.84	6.380	4.460	3.770	3.188	3.082	3.613	3.960	4.060	4.188	5.067	5.819	5.958	6.243	6.075	6.383	6.174	6.334	6.121	6.468	6.364	6.471	5.912	6.090	6.187	6.245	6.121	6.324	6.722	6.416	6.251	6.242	6.260	6.295	6.528	7.395
420.0	429.4	756.8	1073	1298	1439	1526	1506	1489	1485	1501	1497	1467	1461	1396	1260	1187	1152	1147	1132	1125	1107	1092	1071	1044	998.6	934.6	883.6	833.9	748.7	701.1	624.8	486.8	328.1	225.8	163.3	134.8	191.9	416.5	1084	5776	9999.9	1689	19.85	5.960	4.382	3.711	3.206	3.777	3.910	3.828	4.318	4.858	5.656	5.800	6.179	6.113	6.204	6.242	6.372	6.180	6.256	5.749	6.218	5.963	5.885	5.861	5.977	5.847	5.845	6.461	6.328	6.114	6.230	6.088	6.159	6.278	6.661
425.0	422.0	720.3	1021	1257	1388	1472	1462	1468	1460	1449	1452	1433	1415	1330	1195	1137	1096	1092	1091	1082	1065	1051	1037	1010	975.2	912.6	868.2	824.5	739.6	675.1	652.1	524.6	348.3	245.1	178.7	134.6	120.2	146.9	282.2	1504	6987	9166	1322	13.87	5.284	4.332	3.789	3.905	3.915	3.874	4.107	4.749	5.488	5.369	6.250	5.950	6.049	6.129	6.096	6.115	6.026	5.790	6.142	5.798	5.676	5.650	5.697	5.365	5.834	5.977	5.872	5.891	5.889	6.072	5.867	6.209	6.561
430.0	416.9	700.2	983.1	1196	1318	1401	1412	1417	1421	1402	1416	1361	1330	1248	1133	1067	1035	1032	1029	1017	1010	996.0	986.8	967.5	931.7	880.5	841.6	797.5	729.8	655.7	622.6	553.8	383.6	269.6	203.1	154.6	120.3	100.4	112.8	371.8	1795	5696	7798	2920	18.86	5.889	4.575	4.537	4.102	3.979	4.019	4.773	5.394	5.246	5.850	5.616	5.608	5.736	6.000	5.892	5.751	5.721	5.850	5.724	5.523	5.740	5.506	4.993	5.514	5.697	5.468	5.416	5.525	5.703	5.425	5.910	5.907
435.0	490.6	651.1	926.6	1114	1230	1327	1358	1366	1388	1365	1357	1297	1245	1168	1062	1004	973.1	969.5	961.0	946.9	947.3	932.6	929.3	911.5	881.5	839.1	802.9	769.2	707.5	639.3	589.5	524.8	429.4	307.6	228.6	176.7	135.8	104.3	88.06	128.8	434.7	1311	3371	8983	1864	25.55	5.937	5.380	4.647	4.148	4.152	4.761	5.234	5.091	5.382	5.464	5.602	5.496	5.809	5.838	5.740	5.905	5.623	5.512	5.458	5.484	5.447	5.234	4.946	5.578	5.390	5.345	5.142	5.482	5.376	5.759	5.644
440.0	566.7	634.4	885.3	1050	1198	1274	1317	1329	1354	1338	1308	1252	1195	1105	1024	964.5	927.3	920.4	910.3	905.5	895.8	893.1	883.0	869.6	840.5	805.0	770.2	741.8	692.8	629.8	575.0	499.1	433.4	342.3	247.8	191.5	149.9	116.7	90.66	83.48	136.8	323.9	821.0	4890	9051	1610	18.44	6.048	5.089	4.365	4.158	4.461	4.871	5.120	5.227	5.175	5.352	5.601	5.356	5.439	5.781	5.312	5.517	5.430	5.290	5.494	5.403	4.920	4.767	5.113	4.999	4.990	4.918	5.008	5.279	5.283	5.450
445.0	636.1	703.4	849.2	1015	1156	1226	1266	1297	1305	1293	1275	1201	1147	1070	978.2	920.8	878.3	876.6	868.8	859.1	849.6	843.9	837.2	834.5	804.4	777.9	739.6	718.4	679.0	617.5	565.8	487.7	417.1	360.1	275.0	206.4	162.6	128.9	99.74	81.94	80.62	108.9	214.2	1272	6149	8192	1156	14.18	5.889	4.786	4.359	4.352	4.944	4.979	5.133	4.970	5.241	5.435	5.285	5.705	5.557	5.452	5.480	5.196	5.374	5.189	4.793	4.911	4.837	4.854	4.945	4.515	4.794	4.812	4.663	5.042	5.081
450.0	545.7	987.4	849.5	963.2	1075	1144	1195	1234	1246	1226	1215	1145	1078	995.6	912.3	854.5	821.4	813.4	804.7	792.7	786.8	785.9	781.2	771.5	749.4	729.6	696.2	678.8	645.3	596.0	549.1	476.9	397.7	349.0	303.3	233.1	179.3	142.8	115.6	92.96	77.34	70.97	85.07	313.4	1571	4903	6770	2560	17.44	5.779	4.644	4.741	5.035	4.823	4.804	4.689	5.290	5.247	5.222	5.175	5.282	5.242	5.281	5.022	4.976	4.751	4.497	4.566	4.638	4.336	4.603	4.462	4.426	4.588	4.512	4.788	4.869
455.0	370.8	1194	1035	906.1	995.4	1066	1116	1162	1180	1166	1140	1072	1003	920.6	842.9	792.3	755.8	746.4	738.3	726.3	717.8	717.3	711.5	709.9	694.0	672.6	647.4	630.7	603.3	564.9	524.6	460.5	386.0	331.5	296.8	258.9	198.7	156.5	129.0	105.4	87.71	72.57	63.89	104.2	377.3	1126	2792	7173	1582	19.71	5.767	5.146	5.036	4.723	4.721	4.577	4.959	5.074	4.864	5.247	4.956	4.877	4.950	4.643	4.742	4.436	4.471	4.257	4.414	4.300	4.487	4.102	4.091	4.244	4.216	4.313	4.380
460.0	314.2	1012	1703	927.7	939.8	1001	1065	1106	1117	1110	1085	1017	939.0	862.7	792.5	734.0	708.8	695.0	682.4	675.0	667.1	664.3	659.9	659.9	645.4	623.8	607.0	591.6	571.4	539.6	503.9	443.2	375.0	322.6	282.8	261.5	218.5	166.7	136.6	113.9	96.04	78.28	63.98	61.74	114.0	275.1	673.5	3803	6796	1206	15.09	5.851	5.556	4.875	4.778	4.273	4.741	5.107	4.539	5.078	4.860	4.844	4.809	4.417	4.449	4.479	4.247	4.339	4.347	3.947	4.205	3.767	3.972	4.052	4.341	4.543	4.225
465.0	277.3	649.7	2004	1246	860.9	945.0	1002	1043	1069	1058	1025	961.4	878.0	812.8	744.5	690.8	664.2	643.8	629.5	621.1	619.9	614.8	615.6	609.3	603.8	584.0	569.6	558.3	540.1	511.8	477.6	422.1	359.8	314.6	272.7	246.3	227.8	179.2	144.0	119.6	100.4	84.30	68.03	55.90	58.22	87.04	170.9	973.1	4542	5827	950.9	13.08	6.190	5.006	4.971	4.397	4.794	4.696	4.285	4.498	4.455	4.576	4.479	4.208	4.165	4.134	4.082	4.109	4.085	3.696	4.034	3.802	3.729	3.581	3.937	4.136	4.011
470.0	263.0	450.5	1430	2158	953.2	857.8	920.8	948.1	980.2	966.6	951.2	888.9	807.4	744.0	676.8	623.7	596.4	577.0	569.2	555.3	551.2	551.5	551.1	546.4	538.7	525.2	513.8	506.4	492.8	468.5	440.9	391.7	340.6	297.5	258.8	226.8	211.2	188.3	153.5	123.9	104.1	88.18	72.80	58.49	48.88	47.89	60.26	234.5	1152	3553	4590	1843	84.56	5.994	5.227	4.690	4.744	4.362	4.418	4.393	4.309	4.298	4.146	4.164	3.914	4.002	3.853	3.686	3.673	3.588	3.651	3.493	3.514	3.337	3.501	3.638	3.701
475.0	254.0	388.9	746.5	2325	1693	783.7	820.8	856.5	885.7	886.0	860.7	801.6	725.3	679.1	610.5	559.5	530.1	510.9	500.7	494.1	489.8	487.7	486.6	482.6	478.2	466.9	455.9	450.3	442.0	424.6	400.1	360.6	316.0	279.8	241.5	213.5	191.4	179.8	162.2	128.7	106.2	90.50	75.98	61.78	51.12	41.92	38.06	71.19	272.0	812.4	1830	4624	1610	24.17	5.755	4.833	4.599	4.203	4.317	4.079	4.022	3.988	3.901	4.070	3.786	3.649	3.569	3.393	3.254	3.287	3.262	3.192	3.034	3.474	3.246	3.474	3.184
480.0	241.8	351.7	536.3	1634	2592	847.4	767.5	804.3	815.4	820.7	801.5	748.1	692.9	627.9	565.6	524.4	487.9	473.5	460.6	452.5	453.2	442.5	440.5	441.4	437.2	429.0	421.0	416.5	406.1	392.5	374.2	336.6	298.8	264.3	232.8	205.7	181.9	165.4	159.2	137.3	108.5	91.32	77.97	62.84	52.19	42.28	33.76	36.72	76.97	194.3	439.2	2303	4639	1372	19.49	4.942	5.124	4.274	3.999	4.149	3.724	3.542	3.662	3.701	3.532	3.449	3.145	3.142	3.077	3.213	3.151	2.866	2.799	3.163	2.794	3.218	3.175
485.0	221.0	330.3	481.4	928.9	2862	1371	730.2	765.5	769.9	773.3	753.9	699.5	631.4	582.3	529.4	482.3	457.8	436.4	426.1	418.0	418.4	408.5	407.3	409.7	406.1	396.3	387.5	386.9	376.8	365.7	351.0	317.8	283.9	251.0	222.6	200.1	176.7	158.4	148.9	141.4	115.2	91.94	78.68	65.43	53.48	43.75	34.67	30.34	35.18	57.91	110.4	584.5	2727	4577	1090	13.83	5.310	4.635	4.064	3.999	3.819	3.597	3.797	3.583	3.478	3.064	3.074	3.035	3.076	3.045	2.994	3.023	2.714	2.977	2.810	3.058	3.064
490.0	193.6	317.2	424.7	596.8	1808	2591	869.2	689.5	714.5	710.6	693.4	644.8	588.4	529.2	484.2	441.7	416.7	398.0	386.2	378.3	373.6	371.8	370.0	366.2	364.2	356.3	349.3	348.6	344.4	337.1	322.1	293.2	265.3	236.3	212.2	190.5	170.1	152.2	138.7	132.9	120.9	97.39	79.48	66.20	56.31	46.01	37.92	30.98	27.66	28.85	38.08	142.2	670.1	2271	3795	1836	19.02	5.235	4.332	4.060	3.765	3.547	3.462	3.161	3.321	3.040	3.065	3.010	2.834	2.887	2.849	2.867	2.596	2.652	2.629	2.570	2.638
495.0	163.4	298.2	411.1	477.0	826.8	2693	1860	626.0	651.5	655.9	630.3	587.3	534.7	484.0	440.7	397.6	374.6	356.7	343.7	337.8	334.3	330.8	328.2	325.7	320.7	317.7	313.2	313.1	308.8	304.9	291.6	265.4	241.6	219.1	198.4	178.2	161.0	143.6	131.8	120.4	117.0	105.0	83.75	68.33	58.11	48.73	40.13	33.24	28.29	24.31	23.48	43.85	160.2	518.1	1404	4085	1698	25.35	5.106	4.259	3.890	3.363	2.953	2.928	2.915	2.883	3.098	2.743	2.623	2.695	2.534	2.486	2.585	2.489	2.455	2.487	2.680
500.0	153.6	269.0	390.4	435.1	537.7	1791	2970	718.7	605.6	606.1	585.3	545.2	503.4	446.3	403.8	365.6	342.4	327.0	317.2	311.2	300.9	300.4	299.3	293.0	293.3	292.1	286.8	284.7	283.3	279.4	271.8	247.1	225.3	203.6	184.8	168.4	154.2	138.2	125.0	114.4	106.3	103.1	88.24	69.78	58.57	49.88	41.96	35.00	28.97	24.45	20.38	23.00	46.85	125.5	332.9	1853	4327	1338	18.58	4.574	3.829	3.400	3.285	2.896	2.630	2.662	2.741	2.357	2.495	2.555	2.301	2.456	2.352	2.404	2.325	2.307	2.417
505.0	136.4	237.1	373.9	387.2	450.7	925.2	3288	1306	555.2	554.1	542.3	498.0	462.1	417.3	375.9	337.3	314.8	300.2	290.9	281.4	273.2	274.5	272.8	269.4	269.5	266.1	260.9	262.0	261.6	259.5	249.4	230.1	208.6	190.0	174.3	157.2	143.5	130.9	119.5	107.5	98.64	94.95	89.52	70.91	59.49	49.08	42.29	35.64	30.25	25.66	20.97	19.33	22.40	38.17	83.80	454.1	2474	3995	235.9	12.07	3.956	3.487	3.347	2.770	2.382	2.520	2.356	2.320	2.404	2.253	2.307	2.301	2.127	2.097	2.273	2.110	2.076
510.0	129.8	196.0	308.7	366.9	389.2	522.6	1953	2852	692.7	500.1	488.2	450.4	414.6	371.5	329.6	297.3	282.1	267.4	256.3	246.7	242.8	240.3	238.4	235.9	235.0	232.8	230.8	229.2	230.5	229.3	220.8	204.2	186.5	170.3	156.6	142.5	129.9	119.9	110.6	99.52	90.39	83.90	81.57	74.55	60.01	49.49	41.53	35.78	30.54	26.05	21.82	18.96	17.75	19.23	27.93	109.5	607.1	2052	2878	988.6	17.10	3.766	3.303	2.712	2.586	2.518	2.294	2.154	2.221	2.065	2.064	1.926	2.021	1.958	1.865	2.129	2.175
515.0	118.5	175.9	244.4	348.8	348.0	385.5	769.9	3024	1847	450.4	433.0	397.1	367.3	324.6	289.6	261.2	242.2	228.9	222.1	211.4	209.4	206.4	204.7	203.1	201.5	200.4	197.7	198.9	199.5	197.9	193.5	179.7	164.3	150.3	138.3	128.8	116.3	107.9	100.5	90.13	82.32	75.49	71.83	69.57	63.08	49.19	39.99	35.32	29.80	25.89	22.19	19.43	16.93	15.24	15.44	32.77	142.2	466.1	1083	2982	1487	22.70	3.550	2.839	2.613	2.308	2.098	2.172	2.047	1.983	2.079	1.669	1.727	1.843	1.592	1.869	2.003
520.0	106.7	162.4	215.1	302.3	334.6	333.8	442.3	1858	3295	537.9	389.0	361.2	331.6	292.6	261.3	236.5	218.5	205.9	198.4	191.0	186.3	184.0	183.6	182.0	180.2	178.8	177.8	177.5	179.0	179.1	172.9	162.8	149.5	138.0	124.5	116.6	107.3	98.90	91.17	83.61	76.01	69.84	63.44	61.14	60.26	50.56	39.78	34.11	29.65	25.38	21.35	18.83	16.51	14.44	12.85	15.60	38.78	110.2	256.9	1453	3114	992.7	15.18	3.132	2.710	2.328	2.215	1.812	1.845	1.785	1.792	1.790	1.736	1.677	1.702	1.660	1.852
525.0	93.98	148.0	190.0	259.3	317.7	297.9	350.5	842.6	3788	1235	355.1	328.4	302.5	265.9	240.1	211.7	194.8	189.8	178.9	172.9	167.9	163.6	164.3	163.7	161.4	159.8	159.2	162.9	160.1	160.8	155.0	147.2	134.9	125.9	114.0	107.4	98.12	90.70	83.43	76.47	70.15	64.64	58.96	54.56	56.03	51.10	40.85	33.08	28.97	24.38	21.25	18.23	16.14	14.68	12.03	11.99	15.64	30.62	62.72	362.1	1831	2716	222.7	7.368	2.542	2.174	2.078	2.012	1.946	1.657	1.730	1.674	1.446	1.664	1.617	1.599	1.855
530.0	83.75	124.2	172.8	214.1	290.5	286.9	291.2	416.7	2159	2994	537.4	288.6	267.0	235.1	210.1	188.7	172.1	162.8	154.8	151.1	145.2	143.8	142.4	140.5	140.7	138.2	138.2	138.7	140.0	140.5	136.3	127.2	118.4	109.2	100.1	94.16	87.28	80.73	75.04	69.34	63.33	58.22	53.36	49.16	47.26	46.21	41.66	33.13	27.21	23.42	20.35	17.95	15.60	14.14	12.34	10.62	10.25	12.84	19.14	85.58	452.3	1467	1865	827.1	14.44	2.513	2.089	1.874	1.775	1.600	1.554	1.519	1.343	1.317	1.487	1.479	1.552
535.0	74.54	120.0	157.5	176.5	235.8	284.9	250.6	290.0	748.5	3493	1728	259.5	231.7	205.2	184.1	163.9	148.7	141.2	135.0	128.8	125.3	124.7	122.2	119.5	120.3	118.9	118.3	118.4	119.1	120.1	118.6	110.6	102.1	94.33	87.59	81.73	76.39	69.80	65.09	60.20	56.72	51.60	48.24	44.22	41.38	38.97	39.18	33.72	26.30	22.04	18.58	17.07	14.90	13.39	12.21	10.57	8.674	8.754	8.938	23.37	104.7	332.6	758.8	2156	1005	17.92	2.336	2.077	1.589	1.608	1.466	1.487	1.229	1.278	1.318	1.386	1.309
540.0	77.32	116.2	139.4	158.8	200.7	274.1	246.7	255.9	373.5	2063	3740	366.0	210.7	182.2	166.4	146.5	133.5	125.5	120.9	115.5	110.6	110.8	109.3	108.4	106.8	105.6	105.1	105.3	106.0	106.7	105.1	98.55	92.30	85.40	78.13	72.42	68.06	63.63	58.85	54.20	51.67	46.67	43.41	39.95	38.15	34.18	33.97	33.11	26.87	21.31	17.95	16.16	14.39	12.48	11.31	10.44	8.284	7.679	7.045	9.357	27.21	77.93	181.1	1091	2110	235.6	9.722	2.048	1.763	1.506	1.503	1.509	1.215	1.240	1.270	1.281	1.267
545.0	77.44	100.1	127.5	145.6	167.0	240.4	252.2	229.5	272.8	841.2	4373	1124	187.9	167.7	151.9	134.1	120.2	114.5	109.0	104.2	99.70	99.74	97.65	96.87	96.29	93.90	94.46	94.77	95.47	96.72	95.26	88.36	83.21	76.34	70.26	64.92	61.48	57.97	53.45	49.61	46.13	43.41	40.46	37.24	34.72	31.45	29.85	29.95	27.02	20.82	17.33	15.44	13.80	11.78	10.34	10.23	8.510	7.223	6.482	6.202	9.913	20.41	43.53	275.7	1361	1754	192.0	3.886	1.949	1.499	1.394	1.357	1.161	1.208	0.998	1.108	1.241
550.0	78.89	96.12	109.8	127.7	145.4	187.0	248.8	220.8	234.4	368.1	2312	3439	419.7	147.5	129.2	113.6	105.0	97.62	94.29	90.77	86.95	85.18	84.23	82.96	83.04	81.67	82.28	81.46	82.36	83.63	81.76	75.88	70.48	65.98	61.92	56.88	53.40	50.33	47.16	44.10	41.25	38.75	35.61	33.31	30.74	27.97	25.70	24.79	25.03	21.37	16.99	14.15	12.51	11.17	9.955	9.201	7.980	6.721	6.036	5.418	5.762	7.833	12.74	64.41	343.7	1057	1407	503.5	12.21	1.479	1.397	1.195	1.116	1.153	1.070	0.989	1.156
555.0	68.62	89.68	102.7	116.4	130.9	144.5	217.2	231.8	213.0	238.1	705.6	3690	1453	137.1	110.7	97.82	90.03	84.79	79.95	76.74	74.80	70.65	70.63	69.63	70.86	67.65	68.39	69.81	68.57	69.97	68.31	64.52	60.09	55.25	52.01	48.33	44.72	43.89	40.24	37.26	34.64	33.30	30.29	29.10	27.76	23.56	22.74	21.35	20.45	19.74	17.17	13.38	11.32	9.984	9.090	8.347	7.207	6.373	5.653	5.201	4.657	4.594	5.516	16.84	79.09	240.4	605.9	1532	251.9	13.41	1.568	1.310	1.060	1.081	1.082	1.048	1.069
560.0	68.99	85.16	102.8	108.0	115.9	129.3	180.4	238.8	198.1	198.7	296.2	2006	3716	175.6	99.37	87.51	78.21	73.91	68.66	67.13	65.47	62.28	62.26	61.50	62.38	59.26	60.50	59.16	60.85	61.15	59.22	57.16	52.46	48.86	44.91	42.42	40.14	37.47	35.08	33.79	31.04	29.54	27.74	25.28	24.57	21.43	20.15	17.96	16.70	17.40	16.67	13.41	10.69	9.502	8.527	7.619	6.605	5.983	5.557	5.287	4.196	3.802	3.650	6.136	19.83	55.67	146.7	836.9	1383	209.2	5.128	1.350	1.143	1.017	1.100	1.128	1.028
565.0	61.58	89.03	94.01	92.10	100.6	113.1	144.8	226.4	196.7	176.9	188.9	724.9	4123	972.9	89.44	77.37	68.64	63.61	59.99	57.93	57.22	56.08	54.87	54.17	53.55	52.28	51.72	52.04	53.02	52.07	51.64	48.78	45.78	43.43	39.19	37.27	34.82	33.06	30.35	29.65	27.51	26.12	23.91	22.28	21.75	19.82	18.26	15.83	15.19	14.71	14.51	13.38	10.61	8.687	7.856	7.050	6.240	5.298	4.921	4.885	4.210	3.487	3.346	3.488	6.498	14.55	34.77	217.3	968.1	1141	32.29	1.951	1.288	1.029	1.149	0.934	0.829
570.0	72.16	85.20	87.10	87.65	87.36	100.0	118.9	176.3	207.0	160.1	157.7	271.7	1937	3179	307.2	64.34	57.38	52.50	49.30	47.90	46.06	45.01	44.06	44.26	43.17	41.80	42.35	41.98	42.91	43.38	42.31	39.87	36.98	34.78	32.10	30.63	28.52	27.16	25.18	24.34	22.36	21.01	19.88	18.69	17.51	16.52	14.99	13.34	12.66	11.51	11.37	11.57	10.18	7.972	6.717	5.888	5.469	4.887	4.206	4.086	3.797	3.439	2.986	2.770	3.371	5.045	9.341	50.32	249.6	731.7	851.7	138.3	7.148	1.051	0.997	0.880	0.851
575.0	71.34	83.51	88.18	81.53	73.06	82.66	102.0	129.4	198.7	162.5	147.4	162.5	544.4	3028	1784	56.98	46.07	41.65	39.19	37.06	36.94	35.87	34.48	34.87	32.97	32.68	33.46	33.20	33.00	34.23	32.70	30.61	29.43	27.50	25.93	23.65	22.54	21.69	19.49	18.80	17.39	16.23	15.71	15.70	14.44	13.02	11.89	11.16	9.819	8.962	8.414	8.654	8.608	7.454	5.929	4.878	4.800	4.060	3.490	3.632	3.231	3.236	2.646	2.440	2.523	2.707	3.496	12.75	57.03	166.7	395.2	873.1	198.5	3.422	1.017	0.901	0.818
580.0	68.89	87.19	85.30	67.58	69.12	71.71	87.04	110.7	171.7	182.0	140.4	138.1	208.3	1447	3342	106.4	38.49	34.74	32.90	30.45	30.20	29.85	28.75	27.93	27.72	27.12	27.66	26.99	26.98	28.54	26.53	26.61	24.09	22.37	21.25	19.57	18.97	18.10	16.62	15.68	14.36	13.70	13.19	12.66	12.00	10.95	10.04	8.905	8.372	7.278	6.740	6.754	7.323	7.260	5.724	4.450	3.886	3.439	3.310	3.168	2.771	2.972	2.650	2.359	2.082	2.048	2.315	4.328	13.93	38.45	96.91	526.9	732.8	31.08	1.456	0.933	0.790
585.0	72.34	82.63	85.12	63.22	60.45	64.82	79.11	95.92	139.4	196.6	147.5	132.0	131.7	475.4	3464	724.8	33.90	29.77	27.79	25.61	25.10	25.29	23.95	23.43	22.73	22.63	21.71	22.89	22.80	23.38	22.32	20.90	20.26	18.80	17.46	16.59	15.28	14.87	14.12	12.97	12.40	11.74	11.30	10.43	9.974	9.201	8.416	7.658	6.892	6.263	6.007	5.383	5.820	5.944	5.262	4.232	3.604	3.373	2.848	2.845	2.560	2.307	2.555	2.330	2.064	1.821	1.892	2.222	4.408	9.661	22.94	142.7	603.6	500.9	24.19	1.152	0.787
590.0	73.12	87.19	81.21	60.94	55.35	57.60	68.62	83.14	112.4	181.0	162.4	134.2	115.4	167.0	1524	2550	74.66	23.83	21.16	20.80	19.40	19.29	18.79	19.16	18.16	17.77	17.74	18.68	17.77	18.24	17.56	16.43	15.97	14.63	13.73	12.85	12.43	11.73	11.38	10.19	9.661	9.615	9.041	8.470	7.989	7.529	6.864	6.283	5.834	5.224	4.752	4.200	4.123	4.575	4.783	4.132	3.283	2.892	2.457	2.429	2.274	2.086	2.123	2.242	1.977	1.745	1.593	1.677	2.149	3.298	6.240	32.90	165.5	422.6	370.8	96.42	3.034
595.0	61.41	75.32	74.93	57.39	50.09	48.92	59.82	70.91	92.25	138.8	184.4	136.9	112.3	96.24	390.5	2391	772.9	22.63	17.37	16.97	15.40	15.82	15.90	15.12	14.30	14.06	14.18	14.27	13.89	13.94	14.01	13.25	12.46	11.68	10.59	10.18	9.360	9.259	8.435	7.914	7.306	6.960	7.005	6.830	6.492	6.083	5.350	4.990	4.537	4.059	3.955	3.578	3.330	3.450	3.613	3.749	3.125	2.322	2.210	2.018	2.007	1.842	1.834	1.712	2.059	1.774	1.527	1.461	1.632	1.817	2.411	8.323	37.70	98.79	243.9	454.9	34.22
600.0	55.29	75.52	81.75	51.43	43.09	45.59	56.53	67.22	87.81	119.4	178.0	143.6	108.7	80.81	121.9	1103	2319	63.46	15.00	14.50	13.71	13.74	13.17	12.67	12.11	11.99	11.39	12.04	11.56	11.97	11.62	11.23	9.887	9.357	9.130	8.708	8.114	7.960	7.180	6.524	6.435	5.950	5.899	5.749	5.119	5.108	4.724	4.317	3.981	3.404	3.198	2.937	2.884	2.701	2.858	3.135	3.144	2.305	1.947	1.776	1.716	1.796	1.602	1.518	1.753	1.937	1.576	1.420	1.361	1.315	1.324	2.621	9.139	23.05	64.19	325.7	282.1
605.0	55.12	72.51	73.06	55.80	38.42	44.29	48.66	64.75	79.07	105.4	162.7	155.2	109.7	77.79	61.81	331.9	2563	492.0	13.33	12.24	11.83	11.65	11.57	10.75	10.94	10.00	10.05	9.964	10.58	10.43	9.652	9.553	8.422	8.137	7.838	7.241	6.832	6.602	6.383	5.574	5.410	5.145	5.116	4.888	4.176	4.381	3.926	3.710	3.467	3.084	2.934	2.660	2.656	2.324	2.283	2.595	2.884	2.307	1.978	1.732	1.531	1.620	1.470	1.542	1.471	1.778	1.465	1.363	1.341	1.274	1.119	1.361	2.774	6.007	15.21	95.73	316.1
610.0	56.28	67.84	66.26	47.70	37.67	39.74	45.26	57.71	73.75	95.94	133.1	165.4	115.1	76.90	47.53	95.55	1182	1825	49.92	10.98	10.40	9.539	9.654	8.992	8.754	8.641	8.247	8.261	8.449	8.332	7.834	7.716	7.086	6.773	6.268	5.915	5.406	5.271	5.068	4.604	4.463	4.240	4.242	3.767	3.607	3.560	3.435	3.112	2.891	2.433	2.367	2.252	2.041	2.079	1.949	2.088	2.343	2.239	1.973	1.613	1.416	1.384	1.416	1.358	1.373	1.454	1.580	1.494	1.373	1.197	1.067	1.104	1.270	2.036	4.035	22.07	91.36
615.0	59.68	66.48	61.20	45.58	40.24	34.37	41.97	50.56	66.52	86.98	111.2	151.6	128.6	73.21	44.17	41.30	291.0	1857	612.0	10.84	8.891	8.142	7.415	7.393	7.049	6.999	6.649	6.712	7.038	6.444	6.237	6.035	6.160	5.433	5.051	4.530	4.335	4.299	3.976	3.808	3.605	3.374	3.366	3.197	2.991	2.992	2.861	2.399	2.437	2.072	2.076	1.767	1.746	1.756	1.583	1.598	1.754	1.786	1.957	1.569	1.219	1.299	1.124	1.204	1.223	1.325	1.392	1.395	1.311	1.109	1.167	1.013	0.929	1.103	1.507	5.464	20.97
620.0	53.28	59.55	54.25	45.46	34.31	33.81	38.16	48.70	61.21	82.26	100.0	129.7	136.2	72.66	43.29	28.16	78.62	927.8	1771	38.97	7.960	7.439	6.945	6.392	6.186	6.249	5.900	5.828	5.856	5.453	5.574	5.285	4.959	4.436	4.428	3.899	3.879	3.584	3.547	3.370	2.986	2.954	3.084	2.831	2.648	2.550	2.463	2.204	2.158	2.022	1.881	1.602	1.680	1.525	1.338	1.490	1.451	1.642	1.776	1.540	1.207	1.093	1.023	1.127	1.164	1.249	1.094	1.192	1.376	1.061	1.129	0.928	0.841	0.930	0.860	1.819	5.194
625.0	57.52	48.31	53.59	43.82	35.01	33.52	38.06	46.03	56.48	75.75	97.77	113.1	137.0	78.87	42.38	27.05	30.73	283.0	2092	349.0	7.962	6.467	6.146	6.136	5.590	5.573	5.223	5.257	5.033	5.371	4.934	4.808	4.166	4.104	3.804	3.681	3.489	3.216	3.336	2.969	2.653	2.643	2.652	2.394	2.316	2.165	1.992	2.066	1.734	1.761	1.517	1.290	1.300	1.267	1.215	1.144	1.383	1.233	1.437	1.627	1.255	1.110	1.060	1.139	1.116	1.119	1.094	1.063	1.308	1.200	1.201	1.081	0.793	0.839	0.753	0.956	1.802
630.0	52.16	49.52	50.86	39.91	30.48	30.26	35.20	42.39	54.19	69.05	88.80	97.43	113.3	91.49	42.60	26.73	20.37	74.89	1028	1421	34.60	6.382	5.091	5.124	4.830	4.549	4.514	4.468	4.326	4.410	4.160	3.939	3.541	3.494	3.121	3.079	2.938	2.869	2.723	2.550	2.295	2.257	2.070	2.075	2.045	1.922	1.666	1.763	1.492	1.484	1.269	1.325	1.122	1.121	1.160	1.020	1.093	1.037	1.166	1.451	1.264	1.120	0.972	1.004	0.945	0.972	1.047	1.035	0.960	1.086	1.011	0.976	0.841	0.793	0.619	0.754	1.029
635.0	41.95	51.14	45.73	38.23	28.87	29.61	31.81	41.36	48.85	63.52	77.85	87.93	93.33	96.34	51.33	26.08	18.55	26.91	251.0	1607	466.5	6.415	4.645	4.661	4.349	3.689	3.696	3.790	3.834	3.572	3.667	3.116	3.083	2.956	2.827	2.567	2.503	2.439	2.169	2.051	2.035	1.878	1.641	1.594	1.473	1.656	1.506	1.407	1.296	1.265	1.160	1.165	1.076	0.924	1.074	1.048	0.896	1.029	1.071	1.059	1.190	1.167	1.040	0.877	1.022	0.968	0.957	0.897	0.898	1.016	1.001	1.022	0.912	0.716	0.577	0.789	0.879
640.0	42.39	46.81	47.79	35.44	29.05	29.54	31.77	38.35	44.93	61.03	72.36	83.76	84.82	88.14	60.00	27.11	17.73	15.87	64.59	866.7	1314	20.38	4.835	4.214	3.950	3.527	3.480	3.377	3.175	3.347	3.394	3.027	2.582	2.606	2.479	2.325	2.273	2.052	2.020	1.828	1.766	1.614	1.526	1.337	1.548	1.464	1.392	1.358	1.132	0.996	0.885	1.093	0.925	0.938	0.860	0.977	0.879	0.908	0.911	0.892	0.922	1.005	1.000	0.863	0.975	0.919	1.009	0.906	0.824	0.908	0.950	0.924	0.871	0.696	0.592	0.718	0.720
645.0	41.20	51.65	50.46	38.74	29.02	27.71	28.48	37.02	45.12	55.96	70.13	80.58	77.09	76.80	66.75	30.02	18.15	13.79	22.39	269.0	1701	67.64	4.528	3.949	3.395	3.275	3.167	3.068	2.866	2.992	3.155	2.624	2.487	2.410	2.305	2.029	1.950	1.980	1.826	1.604	1.527	1.464	1.381	1.219	1.429	1.394	1.159	1.181	1.024	0.894	0.924	0.943	0.889	0.868	0.795	0.964	0.798	0.890	0.872	0.779	0.793	0.963	0.968	0.850	0.813	0.751	1.017	0.766	0.946	0.844	0.816	1.007	1.050	0.892	0.584	0.697	0.688
650.0	44.09	55.76	53.04	37.72	26.03	27.54	30.04	35.65	42.34	54.06	69.05	78.52	73.81	68.36	70.80	33.89	19.26	13.89	13.16	70.13	1241	513.2	6.536	3.790	3.542	3.137	2.916	2.805	2.514	2.632	2.727	2.304	2.199	1.957	1.829	2.117	1.810	1.718	1.710	1.364	1.355	1.281	1.296	1.096	1.169	1.301	1.105	1.041	0.884	0.834	0.833	0.865	0.943	0.762	0.757	0.853	0.821	0.770	0.914	0.689	0.788	0.891	0.782	0.878	0.868	0.855	0.771	0.836	0.893	0.902	0.759	0.839	0.935	0.848	0.762	0.589	0.712
