Sample:	'1
File name:	Default_20230428_140247.FD3
Run date:	'13:56:26, 04/28/2023
Operator:	user
Comment:	'

Instrument
Model:	F-2700 FL Spectrophotometer
Serial number:	2190-003
ROM Version:	4J14000 07

Instrument parameters
Measurement type:	3-D scan
Data mode:	Fluorescence
EX  Start WL:	220.0 nm
EX  End WL:	600.0 nm
EX Sampling interval:	5.0 nm
EM  Start WL:	230.0 nm
EM  End WL:	650.0 nm
EM Sampling interval:	5.0 nm
Scan speed:	12000 nm/min
EX Slit:	5.0 nm
EM Slit:	5.0 nm
PMT Voltage:	700 V
Response:	Auto 
Corrected spectra:	Off
Contour interval:	50.000

Peak integration
Integration method:	Rectangular
Sensitivity:	1
Threshold:	1.000

Peaks
No.	ApexEX/EM(nm)	Height(Data)
1	225.0/580.0	50.56
2	225.0/590.0	48.69
3	230.0/340.0	253.5
4	230.0/540.0	58.68
5	230.0/555.0	44.01
6	230.0/625.0	40.52
7	235.0/370.0	211.5
8	235.0/505.0	119.1
9	235.0/570.0	42.93
10	235.0/595.0	37.13
11	235.0/620.0	46.39
12	240.0/355.0	206.3
13	240.0/520.0	124.9
14	240.0/585.0	37.72
15	245.0/530.0	122.5
16	245.0/640.0	28.93
17	250.0/540.0	123.8
18	255.0/555.0	104.4
19	255.0/640.0	21.98
20	260.0/285.0	464.0
21	260.0/565.0	102.6
22	265.0/290.0	478.7
23	265.0/435.0	331.5
24	265.0/450.0	327.6
25	265.0/580.0	92.20
26	270.0/295.0	670.0
27	270.0/400.0	347.3
28	270.0/415.0	342.0
29	270.0/425.0	335.7
30	270.0/445.0	333.4
31	270.0/590.0	88.63
32	275.0/305.0	817.6
33	275.0/600.0	83.81
34	280.0/310.0	835.5
35	280.0/330.0	532.6
36	280.0/340.0	532.3
37	280.0/395.0	362.0
38	280.0/615.0	71.71
39	285.0/315.0	848.6
40	285.0/625.0	64.60
41	290.0/320.0	807.3
42	290.0/640.0	52.67
43	300.0/335.0	453.6
44	305.0/340.0	462.3
45	310.0/345.0	416.0
46	315.0/350.0	331.4
47	320.0/360.0	338.2
48	325.0/365.0	340.7
49	325.0/415.0	266.7
50	330.0/370.0	299.8
51	335.0/380.0	302.0
52	340.0/385.0	309.8
53	345.0/390.0	267.3
54	350.0/395.0	268.2
55	355.0/405.0	263.7
56	360.0/410.0	236.9
57	365.0/415.0	226.6
58	370.0/425.0	212.9
59	370.0/640.0	4.458
60	375.0/430.0	182.4
61	380.0/435.0	165.0
62	385.0/445.0	150.9
63	390.0/450.0	129.1
64	400.0/465.0	100.0
65	405.0/470.0	80.29
66	410.0/475.0	69.97
67	415.0/485.0	59.69
68	420.0/490.0	50.19
69	425.0/495.0	44.36
70	430.0/505.0	36.38
71	435.0/510.0	30.70
72	440.0/515.0	26.64
73	445.0/525.0	23.37
74	450.0/530.0	19.76
75	455.0/540.0	16.39
76	460.0/545.0	13.75
77	465.0/550.0	11.24
78	505.0/275.0	2.807
79	510.0/280.0	2.884
80	515.0/285.0	2.562
81	530.0/290.0	2.986
82	540.0/295.0	3.886
83	545.0/300.0	4.338
84	550.0/305.0	4.119
85	560.0/310.0	4.005
86	570.0/315.0	3.742
87	580.0/325.0	3.912

Data points
	220.0	225.0	230.0	235.0	240.0	245.0	250.0	255.0	260.0	265.0	270.0	275.0	280.0	285.0	290.0	295.0	300.0	305.0	310.0	315.0	320.0	325.0	330.0	335.0	340.0	345.0	350.0	355.0	360.0	365.0	370.0	375.0	380.0	385.0	390.0	395.0	400.0	405.0	410.0	415.0	420.0	425.0	430.0	435.0	440.0	445.0	450.0	455.0	460.0	465.0	470.0	475.0	480.0	485.0	490.0	495.0	500.0	505.0	510.0	515.0	520.0	525.0	530.0	535.0	540.0	545.0	550.0	555.0	560.0	565.0	570.0	575.0	580.0	585.0	590.0	595.0	600.0
230.0	40.67	166.7	 1490	 1258	94.27	18.66	18.53	13.07	13.65	11.57	10.46	10.88	9.206	6.961	6.856	6.462	5.246	4.375	4.387	3.913	3.679	3.262	2.950	2.143	2.911	2.475	2.429	2.566	2.078	2.182	1.802	2.019	2.079	1.879	1.940	1.977	1.683	1.760	1.679	1.543	1.705	1.461	1.524	1.324	1.302	1.164	1.328	3.062	6.050	5.984	3.052	1.133	1.016	1.004	0.919	1.006	1.109	1.103	0.933	1.050	0.962	0.955	0.921	0.850	0.837	0.980	0.932	0.943	0.891	0.999	0.864	0.894	0.867	0.822	0.826	0.894	0.883
235.0	54.40	64.53	554.7	 1845	 1355	142.3	14.40	11.96	14.87	10.59	9.940	9.463	9.729	7.102	5.461	7.410	5.275	4.190	3.718	4.235	2.439	2.779	3.137	2.429	2.269	2.524	2.832	1.881	2.700	2.245	2.078	1.780	2.235	1.977	1.721	2.011	1.650	1.945	1.379	1.547	1.312	1.513	1.537	1.351	1.848	1.071	1.092	1.447	2.751	4.667	7.159	8.241	4.350	1.550	0.990	1.060	0.981	1.037	1.196	1.268	0.962	1.117	1.203	0.921	0.967	0.976	0.905	0.896	0.858	0.778	0.949	0.786	1.068	1.010	1.092	1.149	0.938
240.0	60.71	58.83	160.6	894.8	 2519	 1285	92.85	17.67	15.67	11.16	12.33	10.88	8.255	7.512	7.109	6.768	5.450	4.444	4.139	3.926	3.942	2.641	3.339	2.825	2.683	3.164	2.494	2.160	2.533	2.208	2.196	1.996	1.884	2.319	1.343	1.702	1.814	1.839	1.416	1.093	1.450	1.624	1.551	0.869	1.788	1.235	1.083	1.301	1.560	1.754	4.098	8.979	11.62	8.693	3.222	1.142	0.809	1.061	1.231	1.009	0.968	0.878	1.009	0.994	0.850	1.048	0.900	0.796	0.794	0.789	0.967	0.933	1.276	0.882	0.923	1.098	0.932
245.0	46.22	56.10	86.07	253.7	 1508	 3224	 1114	47.13	15.32	12.78	14.86	10.65	7.991	7.342	6.951	5.471	5.900	4.747	4.956	3.905	3.724	2.857	2.374	2.575	2.621	2.616	2.719	2.544	2.192	1.835	1.914	2.464	1.470	1.671	1.760	1.666	1.707	1.608	1.829	1.402	1.337	1.725	1.626	1.021	1.128	1.079	1.120	1.200	1.385	0.974	1.818	3.516	7.521	13.39	12.97	7.937	2.327	1.077	1.254	0.926	0.876	1.261	1.042	0.982	1.017	0.995	1.005	1.034	0.849	1.162	1.093	0.641	0.931	0.845	1.071	1.120	0.914
250.0	39.46	43.36	98.08	134.5	399.7	 1694	 3609	 2692	367.3	16.63	15.41	11.20	9.873	7.878	6.733	7.530	5.148	5.720	4.586	3.815	3.112	3.347	2.927	2.633	3.139	2.492	2.732	2.155	2.123	2.033	1.952	2.458	1.763	1.695	1.764	1.844	1.431	1.880	1.588	1.489	1.406	1.706	1.624	1.459	1.275	1.323	1.279	1.179	1.159	1.206	1.270	1.492	2.524	4.958	8.283	12.65	17.28	14.03	7.870	2.407	1.040	1.068	0.941	1.026	0.852	1.021	0.967	1.111	0.908	1.038	0.956	0.796	0.998	0.879	0.986	0.945	0.946
255.0	38.04	38.40	60.19	140.7	180.7	407.4	 1344	 5421	 4887	448.2	20.06	11.20	11.02	8.333	7.968	7.088	7.038	4.710	4.400	4.302	4.384	3.906	2.830	2.843	3.091	2.109	2.632	2.229	2.672	1.982	2.584	2.284	1.798	1.631	1.897	1.501	1.332	1.374	1.560	1.366	1.854	1.783	1.702	1.237	1.218	1.768	1.240	1.348	1.178	1.097	1.370	1.701	1.503	2.063	2.808	3.843	7.313	14.49	26.88	23.84	10.65	2.000	0.745	0.852	1.121	0.910	0.664	1.053	1.169	1.080	0.959	0.929	1.054	0.838	1.040	0.750	1.035
260.0	42.28	40.55	40.44	81.57	193.1	169.7	331.9	 2430	 7582	 4549	250.8	16.44	13.76	12.76	7.937	8.811	6.649	6.428	5.369	4.728	3.599	3.744	2.868	2.873	3.195	2.818	2.963	3.348	2.594	1.981	2.386	2.232	1.935	1.959	1.655	1.693	1.191	1.358	1.623	1.724	1.627	1.794	1.350	1.378	1.372	1.526	1.228	1.383	1.042	1.165	1.026	1.534	1.816	1.730	1.543	1.775	2.399	4.733	12.80	26.13	34.02	21.91	6.608	1.271	0.993	0.994	0.748	0.977	0.998	1.026	0.943	1.170	0.912	0.715	1.294	1.109	0.868
265.0	44.48	35.89	41.46	47.91	138.0	215.0	129.2	617.6	 3816	 9215	 1106	115.6	16.29	11.56	7.580	7.008	7.798	5.737	5.399	4.516	4.070	3.118	3.560	3.351	2.681	2.713	2.489	2.838	2.458	2.777	2.233	2.133	1.907	2.014	1.712	1.934	1.688	1.449	1.882	1.713	1.712	1.396	1.212	1.510	1.904	1.459	1.553	1.518	1.214	1.091	0.923	1.125	1.448	2.023	1.721	1.674	1.427	1.975	3.892	8.821	20.37	37.41	36.90	16.28	3.213	1.146	0.824	0.873	0.925	0.853	1.109	0.899	1.040	0.971	1.234	0.954	0.962
270.0	45.06	32.22	38.50	39.03	58.40	168.9	237.4	209.9	941.0	 4083	 7404	 4155	369.2	16.78	12.42	8.992	8.532	7.197	5.458	4.918	4.248	3.945	3.114	3.128	2.806	2.565	3.217	2.652	2.728	2.920	2.398	2.309	2.181	2.105	1.593	1.479	1.281	1.708	1.700	1.523	1.425	1.313	1.719	1.581	1.547	1.673	1.425	1.255	1.131	1.117	0.993	1.121	1.261	1.569	1.853	2.309	2.071	1.589	1.718	2.718	5.542	12.09	21.82	31.56	34.63	28.46	11.83	2.291	0.937	1.050	0.994	1.029	0.857	0.825	0.871	0.946	1.001
275.0	36.03	49.85	35.79	39.04	32.98	64.40	199.4	339.8	284.5	948.0	 2445	 9706	 6477	466.2	18.15	12.56	8.871	6.907	6.505	5.382	4.482	4.041	4.147	3.466	3.368	2.800	2.860	2.638	2.624	3.050	2.678	2.119	2.147	1.935	1.884	1.854	1.381	1.574	1.486	1.493	1.332	1.310	1.756	1.363	1.498	1.685	0.960	1.328	1.191	0.957	0.968	1.162	0.982	1.532	1.428	1.454	2.252	2.807	2.100	1.501	2.244	3.577	5.528	8.161	13.13	33.25	53.38	41.39	13.14	1.607	0.924	0.970	1.171	0.654	0.777	1.023	0.892
280.0	44.05	49.93	40.32	39.59	31.29	36.55	86.94	338.2	341.3	266.3	606.7	 3693	9999.9	 5343	292.9	18.25	10.17	8.461	6.253	6.198	5.086	4.063	4.310	3.968	3.393	3.122	3.176	2.302	2.672	2.528	2.148	1.933	2.498	1.720	2.014	1.619	1.667	1.385	1.632	1.381	1.593	1.504	1.318	1.702	1.490	1.317	1.153	1.615	1.277	0.950	1.051	1.077	0.949	1.138	1.069	1.364	1.544	2.044	2.884	2.211	1.409	1.697	2.327	2.523	3.849	9.312	24.11	50.49	58.03	30.75	5.361	1.210	0.863	1.004	1.051	1.272	0.771
285.0	60.57	50.35	66.75	39.35	41.02	35.05	53.08	171.8	464.0	251.5	201.2	933.7	 5120	9999.9	 4000	125.6	12.50	10.78	8.327	6.545	5.587	5.313	3.990	4.987	3.491	3.556	2.898	2.411	3.430	2.612	2.533	2.161	2.892	1.809	1.875	1.682	1.605	1.613	1.858	1.420	1.765	1.413	1.503	1.426	1.329	1.412	1.642	1.598	1.636	1.005	1.111	1.070	1.300	1.120	0.955	1.516	1.346	1.745	1.883	2.562	2.554	1.989	1.521	1.489	1.834	2.879	6.695	16.45	38.53	58.31	48.69	17.60	2.147	1.171	0.890	0.978	0.801
290.0	69.86	77.60	75.57	59.95	43.33	41.24	49.23	90.48	245.2	478.7	338.6	341.5	 1336	 4954	9999.9	 7827	235.1	16.97	11.38	7.422	6.216	5.812	4.746	4.209	4.192	3.463	3.515	3.127	2.900	2.747	2.937	2.760	2.032	1.916	1.979	1.971	1.801	1.743	1.619	1.497	1.706	1.234	1.544	1.476	1.548	1.436	1.607	1.684	1.523	1.059	1.107	1.241	1.197	1.256	1.162	1.259	1.388	1.322	1.165	1.610	2.478	2.876	2.986	2.138	1.993	1.934	2.801	4.767	10.20	19.81	33.10	42.39	43.27	30.65	11.89	2.526	0.944
295.0	73.25	111.0	117.1	82.21	60.29	53.35	63.69	77.50	124.0	298.7	670.0	450.5	502.6	 1261	 3074	9999.9	9999.9	314.6	15.66	10.68	7.071	6.824	5.613	4.238	4.275	3.571	2.959	3.569	2.738	2.307	2.969	2.493	1.854	2.005	2.005	2.038	1.903	1.814	1.809	1.284	1.831	1.646	1.493	1.422	1.373	1.439	1.346	1.507	1.403	1.264	1.331	1.325	1.218	1.352	1.283	1.279	1.266	1.493	1.459	1.486	1.528	1.784	2.336	3.316	3.886	2.443	1.845	2.604	3.454	5.674	8.696	11.06	18.25	40.25	61.30	44.89	13.11
300.0	77.07	119.0	133.9	95.50	72.01	64.11	74.97	83.96	116.6	208.1	548.9	776.6	429.2	485.9	833.2	 3907	9999.9	 3277	207.2	14.07	10.27	7.233	5.613	5.196	4.252	4.159	3.827	3.195	2.789	2.903	2.484	2.878	2.207	2.264	2.193	2.092	1.901	1.837	1.962	1.385	1.762	1.587	1.748	1.452	1.277	1.453	1.372	1.388	1.434	1.369	1.145	1.289	1.177	1.274	1.298	1.341	1.421	1.557	1.386	1.378	1.640	1.655	1.940	2.651	3.509	4.338	2.590	2.176	2.326	2.703	3.381	3.401	5.278	11.94	31.61	64.83	63.94
305.0	106.9	126.9	155.2	113.0	81.93	83.11	83.86	106.2	134.4	211.1	368.0	817.6	724.6	373.0	347.6	990.0	 5408	9999.9	 2729	107.3	12.47	8.462	7.123	5.710	5.158	4.033	3.777	3.866	3.242	3.123	3.038	2.567	2.333	2.242	2.670	1.880	1.801	2.230	2.078	1.799	1.844	1.460	1.326	1.307	1.611	1.534	1.453	1.795	1.477	1.751	1.489	1.449	1.310	1.335	1.303	1.299	1.437	1.536	1.271	1.451	1.511	1.462	1.858	2.308	2.576	4.071	4.119	3.254	2.738	1.822	2.194	2.116	2.327	3.620	8.122	23.20	45.64
310.0	94.32	132.8	163.6	145.0	90.81	84.40	95.91	119.7	155.0	222.6	335.9	547.9	835.5	654.0	316.1	339.1	 1331	 5101	9999.9	 6930	173.2	14.24	9.096	6.926	5.054	4.846	4.101	3.772	3.916	3.472	3.345	2.880	2.675	2.786	2.387	2.067	2.262	2.022	1.609	1.942	1.483	1.544	1.598	1.574	1.610	1.860	1.558	1.702	1.479	1.455	1.433	1.674	1.595	1.491	1.560	1.571	1.682	1.597	1.357	1.759	1.749	1.795	1.959	2.144	2.123	2.858	3.040	3.753	4.005	3.087	2.120	2.051	1.881	1.831	2.952	6.146	11.91
315.0	103.2	142.3	187.1	156.4	115.5	89.77	103.8	141.5	180.7	247.3	341.4	462.2	597.1	848.6	589.9	243.1	379.4	 1188	 3032	9999.9	 9658	237.3	13.34	8.685	7.118	5.255	5.085	4.693	3.559	3.605	3.581	3.313	2.907	2.807	2.146	1.871	2.005	1.945	1.877	1.499	2.078	1.867	1.580	1.745	1.756	1.554	1.662	1.624	1.131	1.464	1.499	1.663	1.669	1.545	1.525	1.552	1.839	1.885	1.581	1.506	1.987	1.714	1.967	2.240	2.003	2.543	2.471	2.499	2.781	3.724	3.742	3.125	1.964	1.620	1.978	2.491	3.794
320.0	100.3	149.7	193.1	173.4	117.6	94.66	107.6	147.1	196.7	274.2	372.4	448.3	528.6	637.1	807.3	350.0	182.5	320.4	726.6	 3950	9999.9	 7016	159.3	9.582	7.581	5.643	5.015	5.180	4.924	3.596	3.505	3.030	3.545	2.480	1.863	2.338	1.881	1.889	1.991	1.716	1.610	1.675	1.577	1.838	1.642	1.619	1.580	1.648	1.374	1.605	1.188	1.700	1.667	1.235	1.703	1.436	1.695	1.654	1.549	1.707	2.159	1.600	2.352	1.881	2.404	2.280	2.487	2.307	2.732	2.921	3.078	3.421	3.455	1.973	1.874	1.868	1.940
325.0	104.9	138.4	213.3	196.1	131.6	103.0	118.1	158.0	210.4	286.5	387.8	458.3	514.7	529.9	681.5	576.5	204.8	139.4	211.4	946.1	 5361	9999.9	 2043	89.03	9.434	7.552	5.385	5.215	5.349	3.447	3.240	3.129	3.195	3.033	2.371	2.533	2.427	1.803	2.034	1.957	1.771	1.649	1.662	1.811	1.485	1.584	1.811	1.499	1.391	1.480	1.313	1.590	1.613	1.087	1.645	1.571	1.663	1.495	1.908	1.909	1.811	1.781	2.283	2.276	2.083	2.095	2.460	2.689	2.566	2.608	2.783	3.022	3.912	3.025	2.669	1.446	1.524
330.0	127.8	170.0	228.1	197.2	157.2	123.3	135.6	168.0	223.4	307.5	398.0	473.8	532.6	507.4	504.9	543.4	444.0	170.9	105.5	255.3	 1291	 4956	 9954	 6051	136.0	12.34	7.689	6.522	5.688	4.162	3.640	3.220	3.304	2.828	2.555	2.524	2.440	2.011	2.005	2.017	1.708	1.924	1.820	1.625	1.627	1.898	1.563	1.577	1.497	1.675	1.379	1.665	1.649	1.282	1.576	1.576	1.492	1.713	1.804	1.932	1.779	1.945	2.248	2.310	2.224	2.795	2.537	2.881	2.427	2.769	2.547	2.551	2.690	2.713	3.026	3.044	2.153
335.0	117.6	163.7	242.8	229.0	143.8	126.0	143.9	195.1	234.9	303.2	408.2	474.9	527.4	523.9	442.8	372.8	453.6	395.2	130.4	112.4	329.9	 1140	 3084	9999.9	 8663	191.5	11.44	7.896	7.474	4.309	3.057	3.857	3.824	2.694	2.614	2.222	2.454	2.103	1.824	1.905	1.620	1.688	1.836	2.045	1.624	1.837	1.713	1.708	1.587	1.573	1.486	1.787	1.730	1.351	1.428	1.899	1.669	1.851	2.122	2.227	1.888	2.303	1.880	2.205	2.412	2.446	2.672	2.938	2.420	2.588	2.390	2.467	2.204	2.166	2.094	2.467	2.868
340.0	129.5	180.7	253.5	222.0	154.8	157.2	154.1	206.8	234.4	302.0	392.3	470.8	532.3	515.9	433.2	323.1	304.5	462.3	269.8	96.27	125.0	293.4	726.9	 4093	9999.9	 6432	138.8	9.376	7.292	5.657	4.400	4.595	3.976	2.924	3.150	2.323	2.268	1.957	1.565	1.727	1.735	1.683	1.987	1.743	1.688	1.917	1.827	2.208	1.948	1.582	1.679	2.079	1.578	1.527	1.361	1.578	1.666	1.854	2.066	2.132	1.923	2.447	2.529	2.172	2.820	2.595	2.280	2.543	2.218	2.834	2.401	2.662	2.563	2.193	2.099	1.937	2.587
345.0	123.8	185.8	231.1	226.7	173.2	156.5	172.5	211.1	253.9	324.0	390.6	460.7	521.8	503.3	437.0	328.5	251.0	332.2	416.0	169.7	87.09	112.7	201.0	983.5	 5566	9999.9	 1671	80.63	8.339	6.626	5.247	4.231	4.440	3.030	3.111	2.616	2.409	2.378	2.037	1.834	2.241	2.020	1.499	1.540	1.756	1.987	1.671	2.070	1.794	1.801	1.467	1.771	1.610	1.476	1.532	1.778	1.798	1.794	2.111	2.052	2.223	2.450	2.341	2.076	2.404	2.208	2.747	2.485	2.564	2.807	2.228	2.401	2.435	2.268	1.907	1.637	1.902
350.0	131.5	159.9	239.6	229.5	189.5	178.2	184.6	207.5	254.2	315.4	376.9	436.9	486.6	478.9	417.8	326.6	249.5	230.3	320.3	331.4	164.4	93.85	99.23	260.3	 1356	 5283	 9610	 5511	118.9	11.35	7.480	5.143	4.805	3.759	3.188	2.970	2.929	2.597	2.225	2.290	2.060	2.146	1.587	1.716	1.808	1.664	1.445	1.883	1.672	1.787	1.603	1.874	1.576	1.662	1.780	1.752	1.609	1.746	2.161	2.068	2.007	2.359	2.307	2.377	2.359	2.420	2.554	2.714	2.477	2.503	2.317	2.342	2.427	1.911	2.129	1.800	1.666
355.0	135.7	166.2	215.7	197.4	206.3	189.9	205.0	206.3	260.4	319.6	374.5	410.3	464.3	450.7	410.8	328.0	258.9	218.2	213.3	290.7	332.3	141.2	91.31	111.3	345.1	 1211	 3222	9999.9	 7882	159.1	9.974	7.283	4.850	4.255	3.158	2.991	2.709	2.608	2.476	1.833	2.180	2.164	1.923	1.836	2.283	1.818	1.833	1.687	1.803	1.777	1.778	1.697	1.640	1.582	1.791	2.020	1.842	1.691	1.850	1.949	2.223	2.625	2.127	2.219	2.437	2.482	2.275	2.557	2.453	2.516	2.509	2.132	2.220	1.831	1.919	1.886	1.836
360.0	118.7	172.2	198.5	192.2	200.3	196.8	207.6	227.1	258.0	331.2	369.0	396.5	442.7	424.0	399.9	332.3	258.1	229.0	207.8	216.5	338.2	260.7	109.7	92.24	130.1	307.7	765.1	 4384	9999.9	 5471	110.9	8.968	6.706	4.504	3.903	3.439	2.648	2.550	2.423	2.289	2.424	2.143	1.948	1.848	1.906	1.617	1.643	1.756	1.747	1.671	1.772	2.371	1.782	2.014	1.725	1.782	2.173	1.763	2.051	2.060	2.284	2.663	2.300	2.143	2.248	2.477	2.300	2.336	2.486	2.577	2.085	2.118	2.333	2.205	1.957	2.003	1.845
365.0	102.5	145.1	201.6	210.8	188.9	208.2	222.6	238.0	260.5	319.5	356.5	383.2	423.4	411.2	395.1	327.4	274.5	234.2	216.6	201.0	262.6	340.7	187.5	101.1	92.00	117.6	210.6	 1065	 5959	9999.9	 1477	57.45	8.390	6.082	4.191	3.561	2.736	2.521	2.779	2.202	2.119	2.296	2.020	1.892	1.889	1.975	1.718	1.815	1.657	1.576	1.544	2.033	1.575	1.925	1.900	1.633	2.215	2.308	2.209	2.054	2.365	2.387	2.162	2.701	2.489	2.744	2.045	2.237	2.577	2.363	2.005	2.199	1.752	2.301	2.603	1.695	2.062
370.0	107.8	134.7	196.9	211.5	206.0	211.6	233.5	252.8	274.9	302.8	350.5	371.9	399.1	394.7	384.0	326.7	288.6	261.7	237.0	219.2	220.3	273.5	299.8	183.7	106.8	92.95	97.70	277.4	 1459	 5477	 9658	 4941	91.92	8.763	5.911	4.008	3.119	3.304	2.801	2.501	2.191	2.716	1.873	2.030	1.789	1.924	1.818	1.950	1.738	1.491	1.661	1.707	1.828	2.128	1.924	1.926	2.259	1.947	1.972	2.126	2.015	2.190	2.253	2.628	2.546	2.375	2.272	2.292	2.302	2.158	2.285	2.048	1.800	2.162	2.113	1.918	1.816
375.0	90.25	140.5	189.0	206.9	227.8	221.7	237.4	253.2	278.8	307.2	333.2	361.9	392.7	392.1	386.7	331.8	303.8	278.7	253.4	240.9	222.0	221.8	269.4	296.1	167.3	103.6	89.34	111.0	364.6	 1256	 3483	9999.9	 6611	121.5	7.190	5.746	4.498	3.226	3.200	2.632	2.491	2.381	2.140	2.159	1.957	1.680	2.063	1.993	1.833	1.387	1.913	1.633	1.958	1.824	1.756	1.914	1.781	1.876	2.256	1.892	1.863	2.214	2.343	2.671	2.250	2.342	1.944	2.216	2.178	2.173	2.394	1.782	2.119	2.494	1.850	2.275	1.878
380.0	86.93	147.9	178.3	206.6	218.9	239.6	240.8	271.4	293.7	310.3	339.9	352.7	384.1	385.7	363.7	324.8	294.0	289.1	266.6	252.7	236.9	219.7	223.1	302.0	257.5	137.1	99.24	83.00	126.9	315.4	825.3	 4833	9999.9	 4366	76.01	7.001	5.113	4.084	3.150	2.834	2.117	2.199	2.284	2.396	2.341	1.749	2.031	2.044	2.018	1.621	1.839	2.212	1.535	1.989	2.058	1.899	2.004	2.339	2.647	2.116	1.982	2.201	2.151	2.475	2.637	2.234	2.139	2.342	2.340	2.139	2.233	2.016	2.317	2.108	2.218	2.023	2.189
385.0	109.1	124.5	196.5	211.5	216.9	250.6	263.4	271.9	308.2	321.8	330.8	354.7	370.7	384.2	366.9	329.4	298.3	293.7	283.2	262.5	246.3	231.6	212.1	242.8	309.8	203.1	114.7	91.46	80.45	111.8	216.4	 1195	 6604	9999.9	 1121	28.58	5.795	5.310	3.692	2.735	3.090	2.628	2.615	2.257	1.864	1.946	1.709	1.846	1.932	1.811	1.917	1.863	1.750	2.150	2.419	2.124	2.037	2.226	1.950	2.361	1.986	2.063	2.132	2.445	2.646	1.820	2.344	2.254	1.972	2.342	1.999	2.195	1.820	2.555	2.506	1.885	1.862
390.0	96.74	125.0	185.5	207.5	238.8	258.0	266.4	285.8	312.2	324.1	326.5	343.3	355.8	364.1	356.3	335.4	305.1	302.5	288.8	272.7	261.5	244.5	224.7	214.0	250.4	267.3	183.8	110.2	88.65	81.47	90.45	296.4	 1653	 5663	 8216	 3299	66.99	6.480	4.818	3.721	3.650	2.717	2.551	2.189	2.030	1.853	1.846	1.808	1.578	1.802	1.877	1.890	1.911	2.067	1.984	1.955	2.144	1.972	1.905	2.265	2.018	2.045	1.933	2.067	2.319	2.272	2.475	2.280	2.184	2.276	2.262	2.039	1.999	2.114	2.402	2.317	2.062
395.0	96.76	140.0	174.7	206.0	238.3	246.5	271.3	296.0	313.4	326.5	333.0	342.2	362.0	347.6	348.7	325.5	303.7	301.7	299.0	277.9	264.2	263.4	235.7	225.6	212.8	238.4	268.2	164.7	106.2	84.95	73.48	106.6	395.1	 1290	 3426	 9247	 4589	85.91	5.926	5.114	4.373	2.687	2.561	2.560	2.679	2.233	2.003	1.946	1.682	1.724	1.957	1.950	2.000	2.070	2.316	2.400	2.150	2.087	2.109	2.513	2.372	2.416	2.103	2.395	2.258	2.513	2.160	2.066	2.248	2.177	2.167	2.293	2.200	2.144	2.098	1.981	1.828
400.0	94.34	127.7	185.3	209.9	250.2	256.7	267.4	303.4	300.3	326.3	347.3	341.6	350.1	349.2	342.3	326.4	306.5	299.5	296.1	278.9	267.6	269.5	244.3	230.1	213.5	207.3	261.3	236.9	134.7	99.20	79.28	70.07	121.4	312.2	817.5	 4800	 9357	 1066	52.37	6.266	4.350	3.807	3.134	2.679	2.562	2.712	2.092	2.013	1.883	1.781	1.835	2.058	1.996	2.023	2.291	2.392	2.085	2.071	2.479	2.318	2.319	2.576	2.114	2.232	2.457	2.232	2.298	2.295	2.150	2.032	2.190	1.927	2.507	1.949	2.306	2.094	2.046
405.0	98.51	130.7	196.8	210.0	245.9	263.2	291.0	305.0	306.3	326.3	333.2	343.6	347.7	344.5	325.3	316.6	300.2	308.3	286.3	287.7	274.9	262.8	245.6	240.8	222.7	204.4	220.5	263.7	193.1	110.9	85.90	72.78	67.69	96.47	203.8	 1214	 5923	 8006	888.4	18.54	5.145	4.241	3.272	2.665	2.831	1.999	2.178	1.778	1.879	1.762	1.703	2.014	1.789	1.655	2.047	2.086	2.081	2.101	2.513	2.339	2.363	2.130	2.118	2.322	2.367	2.158	1.988	1.886	2.251	2.240	2.104	2.030	2.176	2.201	2.216	2.036	2.143
410.0	105.0	135.9	188.8	217.2	231.1	257.9	286.7	310.5	314.9	327.7	329.5	336.2	341.3	333.4	321.5	312.8	300.4	292.2	296.0	283.3	268.9	264.0	254.4	240.9	227.3	211.0	198.4	220.4	236.9	170.9	104.4	82.47	62.75	56.36	71.79	290.6	 1504	 4793	 6534	 2579	55.73	5.022	3.743	3.134	2.837	2.329	2.162	2.151	2.062	1.823	1.859	2.133	1.992	1.755	1.990	2.083	2.299	2.119	2.296	2.253	2.440	2.183	2.197	2.291	2.115	2.405	1.991	1.992	2.065	2.189	2.248	2.050	2.277	2.303	2.225	2.085	2.088
415.0	97.02	125.9	171.9	202.5	221.1	259.3	284.5	313.8	317.0	338.9	342.0	337.1	335.9	317.2	321.4	303.6	285.4	278.1	282.7	271.1	258.6	266.7	253.0	237.5	229.7	214.0	200.3	193.9	206.6	226.6	151.0	95.81	74.27	52.83	48.10	89.07	353.1	 1090	 2867	 7457	 3523	73.32	4.965	3.339	3.235	2.583	2.452	2.277	1.984	2.151	1.878	1.767	1.909	1.947	2.349	2.215	2.341	2.304	2.374	2.225	2.166	1.883	2.012	2.432	2.068	2.443	1.667	2.056	1.917	1.696	1.988	2.173	2.160	2.255	1.703	2.377	1.956
420.0	102.4	123.7	172.7	192.3	223.0	262.0	277.2	294.9	322.0	323.4	325.5	327.0	325.5	320.6	320.6	288.4	285.0	277.6	272.3	264.7	254.2	256.6	236.2	237.4	222.6	215.6	200.5	187.5	187.3	219.2	201.4	112.9	78.87	59.39	47.18	47.54	98.39	258.8	688.6	 4052	 7544	953.7	36.56	4.076	3.523	2.676	2.374	2.291	1.986	1.809	1.775	2.026	2.093	1.917	2.427	2.128	2.333	2.559	2.383	2.431	2.233	2.235	1.976	2.159	2.107	2.429	1.603	2.182	2.162	1.843	2.325	1.961	1.972	2.103	1.991	2.101	2.010
425.0	94.46	130.7	177.7	202.8	240.9	236.9	269.3	291.2	302.1	330.9	335.7	333.1	322.4	314.1	306.9	281.5	278.3	275.7	263.1	261.3	254.1	246.1	242.3	235.4	221.9	217.3	205.0	190.6	179.8	182.4	212.9	148.6	90.26	64.05	49.34	41.83	44.68	74.58	168.3	 1047	 4950	 6234	742.2	11.21	4.321	3.610	2.888	2.521	1.960	2.079	1.872	1.903	2.080	1.865	2.173	2.589	2.325	2.385	2.281	2.485	2.334	2.187	2.702	2.212	2.391	2.307	1.560	2.173	2.069	2.353	2.151	2.264	2.087	2.092	1.548	2.144	2.083
430.0	125.3	109.5	153.7	183.1	226.2	252.8	269.9	307.0	317.5	328.0	319.8	325.6	316.3	310.5	301.9	279.3	265.6	255.9	256.4	251.9	244.6	240.1	234.3	227.9	223.4	218.7	207.1	193.2	180.0	168.6	178.5	182.4	127.2	78.10	56.89	45.68	37.63	40.38	55.21	246.6	 1268	 3766	 5183	 1942	46.50	4.577	3.046	2.905	2.668	2.075	1.686	2.187	2.113	2.260	2.290	2.206	2.232	2.306	2.348	2.566	2.107	2.518	2.224	2.095	2.246	2.430	1.965	2.326	1.856	1.926	2.047	2.111	1.999	2.131	1.753	2.001	1.862
435.0	229.2	132.5	160.8	187.8	213.6	257.3	274.0	288.7	321.9	331.5	324.0	323.4	311.4	299.6	294.4	265.6	257.9	249.9	242.7	247.7	237.3	231.5	230.7	218.0	219.0	212.4	202.8	190.0	183.8	170.3	159.6	161.2	165.0	109.5	69.26	53.22	41.61	36.16	32.61	70.87	295.9	857.7	 2442	 6082	 2798	59.23	4.225	3.310	2.934	2.251	1.955	1.925	2.237	1.914	2.374	2.653	1.993	2.361	2.267	2.380	2.444	2.286	2.440	2.105	2.436	2.064	2.073	2.177	2.068	1.783	2.002	1.990	1.867	2.019	1.580	1.878	1.992
440.0	323.2	226.9	149.2	185.1	211.4	234.0	265.2	275.3	314.2	320.1	333.2	316.0	311.7	285.9	292.0	258.2	248.0	247.8	239.0	237.1	230.2	226.2	225.1	212.5	214.4	204.6	201.4	194.3	184.3	169.1	158.7	144.5	159.6	140.8	84.14	61.09	47.93	38.09	31.12	34.88	81.53	203.3	593.6	 3484	 6414	828.8	29.18	4.381	3.039	2.552	2.101	2.385	2.348	2.140	2.145	2.329	2.324	1.866	2.226	2.602	2.439	2.410	1.822	2.165	2.133	2.100	1.935	1.948	1.919	2.024	2.123	1.703	1.740	1.547	2.271	1.799	1.817
445.0	277.4	363.1	157.3	173.7	211.7	232.2	278.0	290.9	312.3	321.1	333.4	322.6	302.3	289.4	265.9	256.0	233.9	235.3	232.6	230.1	218.3	217.5	215.2	204.9	209.2	199.6	195.0	190.2	183.6	173.2	158.3	141.8	137.4	150.9	111.5	67.79	52.66	41.87	34.29	28.69	35.38	58.79	144.3	909.3	 4451	 5636	609.2	12.20	3.778	2.876	2.420	2.803	1.988	2.455	2.224	2.047	2.202	2.196	2.594	2.353	2.623	2.586	2.161	2.244	1.807	1.690	2.034	2.128	2.269	1.679	2.021	1.851	1.841	1.774	1.735	1.721	1.785
450.0	164.4	517.2	313.8	180.0	201.6	232.0	258.9	282.1	306.5	327.6	321.9	306.7	294.3	281.5	259.7	243.0	226.8	223.4	216.7	212.0	212.8	204.3	199.1	200.6	198.2	195.7	189.4	185.1	177.5	168.0	156.9	141.4	126.9	128.1	129.1	91.56	59.24	47.36	37.30	30.94	26.56	27.93	44.78	213.2	 1153	 3677	 5044	 1840	38.66	3.842	3.040	2.784	2.557	2.715	2.378	2.058	2.175	2.330	2.536	2.361	2.352	2.323	2.089	2.100	2.077	2.049	2.087	2.064	2.016	1.690	2.048	1.833	2.018	1.913	1.810	2.178	1.674
455.0	105.4	407.3	798.8	227.2	192.0	246.9	239.5	265.0	274.9	313.4	300.0	295.7	281.0	263.4	237.2	235.7	211.4	209.2	204.1	195.2	190.6	186.0	187.5	186.1	183.6	181.6	179.5	171.4	173.6	161.2	153.4	139.5	118.9	110.9	111.6	110.6	78.34	51.62	41.82	31.83	27.38	24.30	24.02	58.55	266.7	838.7	 2377	 5781	 2451	42.72	3.760	3.080	2.792	2.784	2.469	2.364	2.359	2.465	2.305	2.344	2.127	2.283	2.431	2.305	2.061	2.091	2.031	1.986	2.075	2.092	2.177	1.860	1.831	1.965	1.613	1.822	1.537
460.0	86.52	207.6	986.5	465.2	187.5	216.2	247.0	266.2	265.3	285.2	283.4	285.7	262.4	247.4	236.4	218.7	204.0	196.6	190.6	184.7	172.9	179.2	171.6	177.3	172.0	172.6	171.8	167.0	160.7	160.3	151.8	134.2	121.2	101.9	96.12	106.1	93.86	58.67	43.05	34.59	29.43	24.40	20.41	25.41	69.41	196.5	576.9	 3345	 5783	605.0	23.28	3.884	2.798	2.984	2.511	2.300	2.135	2.243	2.342	2.344	2.487	2.293	2.324	2.199	2.184	2.008	2.264	2.394	2.226	1.852	2.246	1.772	1.587	1.762	1.465	1.499	1.643
465.0	79.86	127.7	782.0	912.1	193.0	202.2	231.0	243.2	261.2	276.6	288.2	262.7	256.0	240.9	219.7	200.9	186.6	192.4	176.2	173.7	167.3	167.3	163.7	161.6	170.4	164.0	157.5	155.1	154.1	149.9	146.2	132.7	118.8	100.0	90.45	89.33	100.0	71.16	46.09	36.87	29.20	24.71	20.45	18.89	26.34	53.37	137.2	871.5	 4148	 4594	496.7	8.268	4.054	3.078	2.802	2.213	2.638	2.579	2.134	2.408	2.340	2.377	2.215	2.010	1.868	2.004	2.118	2.210	1.941	1.695	1.963	2.161	1.613	1.628	1.764	1.866	1.587
470.0	93.27	108.2	340.9	 1155	571.0	186.8	208.0	221.2	242.1	254.4	265.6	260.1	243.9	226.0	208.3	185.4	169.3	169.8	165.4	154.1	152.0	150.7	148.9	149.5	150.9	146.1	147.9	145.2	142.5	137.6	132.3	124.4	112.2	96.38	84.11	75.81	78.98	80.29	58.38	39.09	31.60	26.53	21.26	18.05	17.29	21.90	39.06	202.4	 1072	 3123	 3830	 1373	34.75	3.970	3.298	2.522	2.882	2.515	2.081	2.278	2.418	2.015	2.021	1.996	2.396	1.999	1.840	1.867	1.831	1.738	1.872	1.671	1.705	1.702	1.788	1.727	1.808
475.0	77.71	99.95	157.8	692.5	 1317	259.5	194.7	198.6	222.6	242.9	242.5	232.2	226.9	209.9	187.5	168.6	152.9	154.1	147.2	143.4	137.0	130.6	131.5	136.4	137.1	132.9	133.5	127.0	128.4	126.6	123.2	110.0	104.6	92.00	80.95	69.81	66.36	69.31	69.97	47.36	33.31	28.16	21.15	18.81	15.76	16.24	17.56	52.62	245.9	710.3	 1840	 4065	710.3	43.61	3.862	2.937	2.934	2.407	2.138	2.015	2.348	2.436	1.778	1.893	1.615	2.068	1.725	1.933	1.514	1.779	1.842	1.867	1.751	1.915	1.791	1.423	2.246
480.0	77.72	94.53	110.8	313.0	 1494	598.4	189.0	180.5	220.9	227.9	230.2	226.5	214.8	196.2	176.2	157.5	151.7	137.3	137.0	130.0	127.3	125.6	122.6	120.3	118.7	121.7	123.6	117.3	122.0	119.9	117.4	107.7	100.3	87.78	75.47	67.95	60.22	58.45	66.25	57.28	37.50	27.53	22.02	18.96	16.23	14.89	13.18	19.66	62.09	164.5	446.5	 2310	 3871	644.9	18.33	3.506	3.377	2.118	2.018	2.130	2.185	2.178	1.894	1.422	1.839	2.169	2.032	1.794	1.762	1.426	1.566	1.529	1.476	1.708	1.688	1.665	1.488
485.0	77.36	121.1	94.71	165.7	 1054	 1230	200.4	194.0	209.3	219.9	213.8	216.9	206.3	178.5	168.1	153.7	142.7	135.5	128.6	122.5	119.9	116.9	114.7	113.7	110.7	117.9	113.8	115.5	109.0	113.1	108.7	101.7	93.65	84.51	75.36	66.44	56.94	53.18	57.71	59.69	44.33	29.25	23.17	20.09	17.16	15.26	13.31	12.58	21.68	43.51	105.7	603.0	 2852	 3528	97.72	6.558	3.236	2.704	2.367	2.166	2.213	1.969	2.187	1.689	2.122	1.776	1.799	1.946	1.933	1.591	1.498	1.277	1.666	1.501	1.731	1.945	1.452
490.0	69.59	87.70	103.7	124.8	409.7	 1559	744.4	185.7	196.8	197.7	202.9	200.8	191.3	170.5	157.8	138.5	130.9	123.6	119.8	111.4	110.4	107.3	105.5	105.7	104.6	107.4	102.2	105.0	103.8	105.6	99.66	94.66	87.54	78.87	70.24	61.59	55.96	51.03	47.90	49.93	50.19	37.47	25.07	20.29	17.66	15.42	13.40	12.03	12.66	16.20	29.37	140.2	737.4	 2212	 3020	 1211	35.81	3.530	2.666	2.606	2.523	2.063	2.111	2.062	1.868	1.556	1.646	1.922	1.781	1.364	1.747	1.400	1.683	1.491	1.533	1.535	1.525
495.0	71.98	81.11	112.5	98.43	175.6	845.1	 1732	314.2	178.8	186.7	186.2	186.4	170.1	160.2	144.9	129.4	124.1	113.2	108.3	103.4	98.58	96.76	96.44	95.30	93.47	92.75	94.38	95.94	96.61	93.14	90.44	86.31	77.61	72.00	66.44	57.65	51.70	47.79	43.25	39.07	44.07	44.36	30.64	21.32	17.95	16.15	14.28	12.51	10.96	10.03	12.41	36.26	169.0	502.5	 1442	 3731	764.9	43.76	3.765	2.852	2.519	2.371	2.166	1.959	1.935	2.035	1.969	1.702	1.627	1.552	1.616	1.837	1.621	1.576	1.477	1.573	1.603
500.0	55.60	72.73	111.6	105.8	103.2	335.3	 1851	861.5	155.8	166.7	179.0	168.3	157.3	147.1	131.1	117.4	114.3	103.1	95.03	94.05	92.96	84.20	87.37	88.87	84.23	85.70	86.29	85.16	87.46	84.35	83.79	82.48	73.22	70.39	62.53	54.95	49.93	43.69	40.68	36.21	35.51	43.86	36.03	23.85	18.78	16.12	14.27	12.36	10.47	9.024	8.351	12.81	42.39	116.2	346.6	 2079	 3778	657.8	18.83	3.222	2.579	2.425	2.301	1.907	1.573	1.893	1.971	1.581	1.681	1.457	1.656	1.711	1.479	1.624	1.900	1.503	1.343
505.0	57.18	65.70	100.2	119.1	98.79	169.1	 1248	 1602	222.3	162.0	168.6	160.4	151.2	142.9	126.5	110.9	103.6	93.13	90.13	90.06	88.01	79.26	78.64	78.67	79.19	79.78	78.83	80.51	79.33	77.65	79.08	76.26	68.24	64.52	57.91	53.04	48.58	41.45	38.43	34.83	29.88	33.80	36.38	28.19	18.78	16.53	13.79	12.33	10.34	8.825	7.957	7.945	14.36	30.09	81.64	530.7	 2706	 3462	102.9	6.401	2.792	2.124	2.076	2.179	1.765	1.814	1.793	1.335	1.493	1.482	1.414	1.378	1.458	1.537	1.571	1.305	1.748
510.0	46.28	59.95	85.57	113.5	98.15	114.4	447.5	 2011	952.1	149.7	147.2	148.5	132.6	125.2	109.2	98.95	91.00	84.53	80.73	81.65	74.62	69.67	67.60	67.00	71.62	70.09	68.94	71.84	70.35	67.09	68.45	66.58	61.84	55.31	52.27	47.01	42.76	39.71	34.63	31.13	27.84	27.50	29.36	30.70	22.83	16.57	13.71	12.20	11.09	8.673	7.721	7.439	7.969	10.77	22.19	122.3	694.4	 2124	 2709	 1047	33.81	2.703	2.183	2.073	2.028	1.965	1.537	1.733	1.421	1.393	1.289	1.511	1.215	1.517	1.381	1.446	1.576
515.0	48.28	55.89	78.65	105.0	122.7	92.64	180.3	963.1	 2345	362.9	135.7	126.5	124.2	111.3	99.97	89.85	83.20	73.45	69.50	68.19	62.82	60.48	60.04	59.12	62.77	59.92	57.38	61.56	62.88	61.95	60.25	57.66	55.98	50.30	44.40	43.04	38.66	35.83	31.05	27.89	24.67	22.39	22.53	25.48	26.64	19.89	13.52	12.83	10.95	8.395	7.806	7.298	6.809	6.347	8.425	30.61	158.4	480.8	 1225	 3132	733.6	36.59	2.702	2.033	1.967	1.780	1.523	1.864	1.929	1.630	1.395	1.554	1.071	1.288	1.184	1.555	1.442
520.0	58.95	53.78	67.88	88.00	124.9	97.58	114.3	350.4	 2332	 1070	122.8	117.0	107.1	102.1	89.29	80.92	77.38	67.76	65.49	62.59	59.32	57.38	53.31	54.48	54.25	53.27	54.74	55.59	58.68	58.55	55.27	53.74	49.78	46.99	41.57	38.38	35.62	32.25	28.56	25.34	22.89	21.38	19.61	21.30	25.00	22.61	14.24	11.89	10.03	8.035	7.695	7.552	6.059	5.403	5.566	10.01	39.36	111.1	293.6	 1697	 2836	595.2	13.92	2.324	2.072	1.633	1.685	1.600	1.761	1.710	1.146	1.425	1.135	1.418	1.328	1.349	1.746
525.0	50.53	49.73	66.01	67.65	103.2	97.66	92.70	157.1	 1363	 2319	198.3	112.0	104.4	90.74	85.32	74.19	64.86	67.11	63.26	60.02	54.28	54.49	49.64	50.20	50.63	47.59	48.67	48.19	51.77	51.89	50.46	49.53	43.73	44.03	37.44	33.88	33.45	27.66	26.89	24.48	21.19	19.27	18.15	18.13	21.59	23.37	17.20	11.27	9.034	8.518	6.821	7.046	5.946	5.326	4.799	5.821	12.23	28.00	69.24	430.8	 1929	 2484	99.61	4.301	2.325	1.614	1.927	1.407	1.487	1.381	1.431	1.088	1.305	1.229	1.181	1.434	1.575
530.0	42.34	45.61	55.28	62.57	84.88	122.5	88.54	105.6	444.8	 2327	 1306	109.3	90.14	86.53	79.69	67.84	60.75	58.28	54.88	48.41	47.67	45.68	43.80	45.54	44.64	43.65	42.42	43.45	44.98	44.17	44.19	42.43	39.08	37.38	33.44	30.37	29.62	26.18	23.36	21.73	20.83	18.27	16.62	15.48	15.72	19.29	19.76	14.73	9.631	8.231	7.485	6.556	5.393	5.713	4.839	5.105	6.001	9.217	18.35	99.17	488.6	 1478	 1910	426.2	28.71	2.174	2.064	1.365	1.368	1.372	1.310	1.171	1.345	1.164	1.287	1.214	1.343
535.0	56.80	46.67	54.04	59.97	60.31	107.1	105.4	83.32	167.8	909.9	 2784	412.8	86.85	74.63	68.29	63.59	54.26	45.70	46.84	45.12	42.26	39.88	39.72	38.59	37.66	39.48	36.51	37.29	38.25	37.77	36.49	37.53	33.99	31.45	30.05	26.87	25.22	23.42	21.45	18.85	18.33	16.83	15.43	13.86	14.33	14.13	16.95	16.02	11.12	7.463	6.670	5.722	5.090	5.457	4.636	4.306	4.192	5.050	7.034	24.63	111.2	333.9	833.6	 2098	673.4	27.10	2.409	1.429	1.633	1.367	1.474	1.146	1.398	1.089	1.158	1.346	1.222
540.0	46.71	51.24	58.68	48.15	56.29	81.68	123.8	78.21	98.69	294.9	 2481	 1018	82.65	65.18	60.82	49.67	44.73	41.98	40.81	39.68	38.35	36.12	35.53	35.11	34.47	32.45	32.47	32.94	34.11	32.76	34.49	32.04	29.66	28.51	26.98	25.34	23.46	21.65	19.34	17.71	16.35	14.88	14.48	13.26	12.08	11.82	12.82	16.39	13.16	8.684	6.322	6.050	4.891	4.553	4.179	4.548	4.407	4.181	4.122	8.147	26.95	77.04	197.8	 1130	 2077	492.6	8.423	1.862	1.599	1.593	1.227	1.378	1.276	1.301	1.241	1.214	1.086
545.0	46.17	50.59	47.88	50.88	47.27	51.56	109.1	73.59	68.78	127.4	 1291	 2499	192.6	61.85	56.36	47.82	41.88	39.70	40.81	34.81	33.73	31.73	32.73	29.66	29.45	29.13	27.38	29.75	30.00	30.21	30.41	28.23	28.78	24.62	24.21	22.89	21.40	18.16	18.06	16.87	15.80	13.98	12.83	10.56	11.14	10.34	10.51	13.18	13.75	9.693	6.310	5.659	4.476	4.181	4.117	3.679	3.912	3.779	3.317	4.377	8.465	19.36	46.50	285.6	 1426	 1746	92.62	2.815	1.645	1.633	1.331	1.348	1.521	1.207	1.277	1.072	1.112
550.0	40.44	42.66	41.24	45.32	49.37	45.90	88.79	94.57	60.70	82.67	387.7	 2260	 1315	69.29	48.42	42.91	36.96	35.51	31.63	30.26	30.48	27.16	27.93	25.27	25.43	24.16	25.35	26.23	25.71	25.68	25.75	24.85	23.14	21.07	19.91	18.85	17.80	16.14	15.74	14.06	13.18	12.25	10.20	9.796	9.153	8.996	8.908	9.403	11.15	11.24	7.263	5.306	4.459	4.159	4.095	3.380	3.639	3.933	3.273	3.216	4.033	6.278	12.46	65.88	362.5	 1083	 1069	377.2	19.89	1.518	1.467	1.283	1.257	1.138	1.197	1.170	1.146
555.0	43.72	37.77	44.01	40.39	42.98	44.37	60.00	104.4	63.30	60.59	129.3	782.1	 2662	393.8	41.15	36.62	31.94	29.59	28.34	25.49	26.04	23.36	22.08	21.30	20.96	20.90	21.72	20.68	22.37	20.72	20.66	20.66	19.51	17.53	17.54	16.20	14.73	14.45	13.05	11.53	12.14	9.913	9.437	9.389	8.186	7.697	7.227	6.821	7.815	9.885	8.354	5.090	4.317	3.569	3.498	2.743	3.313	3.419	3.436	2.759	2.728	3.156	4.671	16.23	82.32	245.8	551.0	 1391	506.8	12.51	1.879	1.398	1.222	1.207	1.080	1.293	1.240
560.0	47.27	39.52	42.96	33.78	43.52	39.63	47.39	88.38	86.07	56.95	67.30	225.8	 2218	 1342	41.17	32.62	29.02	23.49	23.24	21.74	21.89	21.55	20.85	18.84	18.00	17.31	19.29	17.73	17.89	18.16	16.94	18.82	16.98	16.02	15.06	13.84	12.63	11.98	10.95	10.42	8.991	8.693	8.377	7.316	7.233	7.157	6.071	5.972	5.943	7.587	8.211	6.333	4.266	3.213	3.283	2.940	3.454	3.363	2.983	3.287	2.451	2.598	2.957	5.466	19.99	56.45	134.3	796.5	 1278	99.75	3.477	1.546	1.264	1.330	1.139	0.987	1.060
565.0	44.34	36.47	43.23	35.79	41.56	33.14	38.96	67.75	102.6	51.25	49.64	87.20	 1049	 2405	148.2	30.28	26.27	22.66	22.13	19.16	19.26	18.08	18.12	17.26	15.73	15.59	16.21	16.55	16.21	14.84	15.60	16.06	14.00	13.63	12.63	12.13	11.67	10.78	10.05	9.246	8.868	7.006	7.637	6.414	6.383	6.082	5.355	5.371	4.794	5.221	6.735	6.612	4.274	3.318	3.058	2.877	2.967	3.069	2.588	2.944	2.571	2.434	2.295	2.695	6.454	14.00	31.47	210.4	922.4	800.9	73.97	2.098	1.236	1.312	1.221	1.191	1.119
570.0	40.04	40.45	41.42	42.93	34.33	31.51	33.51	43.75	84.42	68.05	45.00	49.72	292.1	 2025	 1134	36.15	22.15	19.69	18.71	16.87	15.79	15.27	14.81	14.17	14.20	13.52	12.52	13.81	12.60	13.02	12.88	12.89	12.38	10.97	9.943	10.42	9.413	8.760	7.679	7.619	7.270	5.908	6.241	5.755	5.425	4.908	5.012	4.409	3.982	3.630	4.895	5.352	4.918	3.616	2.833	2.975	2.659	2.602	2.499	2.415	2.657	2.246	1.884	2.072	3.019	4.756	8.588	48.71	241.0	618.5	733.3	244.5	10.12	1.155	1.214	1.291	1.363
575.0	35.35	42.74	34.89	38.71	31.79	33.76	28.45	34.01	56.05	85.14	48.74	39.84	99.60	654.6	 2337	293.3	18.74	16.92	15.71	14.22	13.99	12.76	12.62	13.41	11.33	10.37	10.84	10.26	11.20	10.90	10.82	9.731	10.49	9.205	8.164	7.752	7.465	7.422	6.897	6.474	6.149	5.780	4.918	4.611	4.482	4.239	4.130	4.190	3.319	3.089	3.369	3.571	4.520	4.203	2.843	2.498	2.131	2.314	2.062	2.220	2.083	2.466	2.039	1.895	1.923	2.778	3.151	12.20	54.95	141.0	377.7	816.9	101.7	6.036	1.395	1.404	1.101
580.0	45.14	50.56	40.08	36.63	35.14	24.87	30.90	33.10	44.60	92.20	57.85	39.12	51.74	182.0	 1981	 1057	18.82	15.40	12.68	13.10	12.07	11.22	9.930	10.49	9.902	9.139	9.144	10.02	9.089	8.874	8.382	7.985	8.844	7.565	7.125	7.101	6.963	6.169	6.734	5.549	5.134	4.805	4.109	5.103	4.096	3.443	3.441	3.371	3.262	2.778	2.770	2.595	3.478	4.183	3.376	2.537	2.136	2.462	2.068	2.306	1.775	2.240	2.326	1.706	1.540	2.063	2.040	4.214	13.28	32.88	94.06	496.7	690.7	84.23	2.682	1.180	1.176
585.0	51.85	44.89	40.48	33.45	37.72	23.81	25.20	29.04	36.27	75.50	79.79	38.46	42.64	64.60	896.2	 1899	90.71	12.78	12.72	11.79	10.02	10.05	9.462	8.320	8.969	8.480	7.972	8.218	8.608	7.727	7.285	6.967	7.665	6.666	6.538	6.714	5.535	6.143	5.732	5.036	4.588	4.100	4.046	4.301	3.816	3.190	3.212	2.890	2.732	2.738	2.563	2.369	3.132	3.443	3.437	2.584	2.248	1.931	1.898	2.154	2.004	1.798	2.209	2.104	1.737	2.029	1.950	2.283	4.102	8.814	22.31	134.2	559.1	552.3	57.66	1.655	1.297
590.0	47.22	48.69	38.68	28.99	31.94	19.35	23.50	27.12	29.44	48.70	88.63	45.94	38.83	41.21	242.7	 1572	799.9	19.29	11.66	9.963	9.036	9.210	8.657	7.624	8.403	7.476	7.047	6.663	7.551	7.372	6.719	6.008	6.237	5.514	5.179	5.202	4.804	4.988	4.530	4.405	3.803	3.929	3.663	3.535	3.273	3.044	2.968	2.838	2.615	2.178	2.236	2.032	2.142	2.410	3.344	2.915	2.061	2.118	1.542	1.514	1.836	1.617	1.919	2.002	1.642	1.857	1.604	1.674	2.223	3.082	6.088	31.03	149.8	396.3	454.5	66.27	5.847
595.0	53.28	33.07	32.09	37.13	26.77	23.92	23.39	25.67	28.45	35.25	69.41	71.07	39.75	34.46	72.37	506.1	 1621	190.5	9.745	9.631	8.617	7.294	7.161	7.350	6.570	6.050	6.355	6.232	6.699	5.368	6.079	5.234	5.939	5.253	4.777	4.537	3.893	4.097	3.779	3.462	3.220	3.906	3.645	2.997	2.911	2.962	2.803	2.614	2.404	1.678	1.827	1.976	1.818	1.850	2.669	2.940	2.769	1.831	1.713	1.686	1.718	1.336	1.477	1.795	1.923	1.379	1.498	1.662	1.553	1.697	2.330	8.177	34.42	91.02	243.9	492.7	94.27
600.0	47.30	30.02	33.82	34.14	22.19	22.73	22.04	22.69	22.86	28.15	54.51	83.81	42.11	35.06	33.69	133.2	 1333	451.3	12.18	9.386	7.713	6.926	6.339	6.742	5.793	5.821	5.509	5.258	4.982	5.158	5.432	5.579	4.939	5.177	4.052	4.283	3.877	3.408	3.192	3.056	3.183	3.035	3.161	2.526	2.711	2.328	2.609	2.345	2.056	1.685	1.951	1.923	1.654	1.732	1.895	2.336	2.742	1.855	1.681	1.982	1.674	1.156	1.353	1.495	1.527	1.961	1.283	1.812	1.496	1.565	1.597	2.716	8.818	21.28	61.54	323.7	418.6
605.0	59.77	41.17	44.25	32.36	24.57	23.58	22.14	23.74	22.34	26.95	41.74	81.04	51.89	32.33	27.16	42.91	618.4	 1265	64.25	7.590	7.623	6.895	6.462	6.109	4.681	4.744	5.105	5.882	5.250	4.965	5.373	4.943	4.476	4.365	3.549	3.688	3.203	2.888	3.501	2.873	2.844	3.041	2.629	2.438	2.465	2.602	2.270	2.136	1.954	1.628	1.693	1.879	1.279	1.698	1.474	1.912	2.809	2.154	1.725	1.272	1.374	1.090	1.478	1.550	1.179	1.758	1.595	1.779	1.304	1.556	1.281	1.961	2.961	5.629	14.67	91.31	351.5
610.0	39.45	39.35	39.24	29.73	24.50	20.82	21.09	24.73	24.00	26.74	31.19	61.46	65.05	33.24	25.73	23.67	164.1	 1116	576.9	11.07	7.048	6.542	6.223	5.805	5.023	4.523	4.365	4.421	4.568	4.074	4.338	4.150	3.902	3.774	3.486	3.728	3.314	2.953	3.341	2.714	2.662	2.703	2.220	2.086	2.177	2.255	2.074	2.018	1.635	1.529	1.337	1.670	1.393	1.421	1.458	1.346	2.120	2.241	1.918	1.590	1.462	1.436	1.317	1.836	1.408	1.449	1.447	1.655	1.287	1.166	1.273	1.510	1.503	2.147	4.130	21.60	96.57
615.0	36.93	36.98	40.15	33.60	25.57	19.41	23.21	23.62	19.10	24.37	33.69	44.15	71.71	40.57	20.67	16.79	46.26	371.1	 1222	124.9	6.947	5.665	5.340	4.679	4.475	4.141	3.825	3.883	4.095	4.628	3.830	4.259	3.880	3.935	3.447	2.969	3.340	2.836	2.564	2.362	2.277	2.201	2.164	1.979	2.003	2.363	1.829	1.612	1.416	1.482	1.079	1.540	1.380	1.266	1.340	1.224	1.562	2.122	1.751	1.681	1.110	1.287	1.519	1.345	1.119	0.998	1.199	1.631	1.480	1.365	1.315	1.430	1.288	1.445	1.756	5.854	22.42
620.0	41.17	32.73	34.49	46.39	25.01	22.80	23.12	22.26	18.91	29.72	27.33	34.48	57.74	52.36	21.82	16.87	19.84	96.42	 1037	358.1	8.545	7.018	4.417	3.627	3.459	4.466	3.847	3.449	3.709	3.624	3.516	3.832	3.521	3.239	3.231	2.850	3.330	2.887	2.125	2.032	2.145	2.100	1.909	1.715	1.872	1.653	1.371	1.732	1.313	1.210	1.253	1.441	1.268	1.392	1.221	1.341	1.597	1.507	1.937	1.825	1.191	1.374	1.240	1.365	1.278	1.262	1.251	1.774	1.581	1.154	1.064	1.211	1.303	1.278	1.232	2.130	6.068
625.0	39.22	35.65	40.52	40.10	26.91	18.74	21.36	19.67	21.11	26.22	26.23	36.16	50.17	64.60	23.26	15.39	12.88	29.53	508.4	986.0	42.80	6.090	4.026	3.502	2.648	4.022	3.524	3.157	3.260	3.402	3.703	3.161	3.638	2.753	3.422	2.855	2.658	2.312	2.135	2.115	1.952	1.913	1.587	1.392	1.554	1.457	1.531	1.619	1.336	1.323	1.086	1.430	1.268	1.125	1.019	1.461	1.376	1.193	1.525	1.741	1.536	1.397	1.034	1.064	1.346	1.259	1.163	1.412	1.586	1.344	1.037	1.106	1.311	1.069	0.913	1.073	2.076
630.0	38.18	35.31	39.97	29.91	25.89	19.47	19.82	20.80	20.82	23.51	26.16	29.77	38.39	56.44	35.90	16.27	11.07	14.22	138.0	909.5	457.8	7.536	4.498	4.171	2.907	3.522	3.268	3.704	3.616	3.091	3.431	2.949	3.238	3.022	2.931	2.674	2.681	2.537	1.984	2.114	2.075	1.638	1.756	1.503	1.607	1.464	1.392	1.510	1.069	1.233	1.157	1.093	0.978	1.077	1.152	1.413	1.089	1.250	1.232	1.635	1.317	1.370	1.425	0.895	1.219	1.278	1.098	1.409	1.322	1.217	1.471	1.109	1.022	1.180	0.893	1.115	1.261
635.0	45.29	44.90	27.24	30.90	21.64	20.71	18.18	16.94	20.40	23.29	28.77	29.64	35.20	45.45	49.49	19.30	10.04	8.803	35.91	320.4	 1009	87.52	3.980	3.067	3.171	3.303	3.904	3.636	3.296	3.461	3.362	2.558	2.859	2.572	2.757	2.685	3.038	2.580	2.393	1.797	2.149	1.693	1.279	1.658	1.648	1.506	1.421	1.407	1.245	1.036	0.993	1.090	0.919	0.987	1.182	1.298	1.086	1.131	1.054	1.198	1.292	1.266	1.587	1.044	1.054	1.094	1.274	1.209	1.288	1.210	1.334	1.521	1.057	1.096	0.976	0.671	1.096
640.0	36.62	44.38	34.87	31.30	19.32	28.93	19.29	21.98	20.35	25.23	28.11	27.10	31.19	31.55	52.67	22.77	10.78	7.751	13.37	83.14	899.5	291.3	5.207	3.625	3.631	3.687	3.699	3.360	3.270	2.989	4.458	3.247	3.057	2.999	3.431	2.932	2.983	2.791	2.618	1.910	1.922	2.065	1.183	2.087	1.446	1.326	1.213	1.036	1.204	1.029	0.991	1.079	1.104	1.185	1.143	1.206	1.015	1.252	1.152	1.132	1.218	1.149	1.363	1.210	1.084	1.020	1.053	1.354	1.086	1.342	1.087	1.321	1.125	1.134	0.857	1.041	1.187
645.0	41.14	47.61	33.13	26.53	16.65	22.43	18.36	18.89	17.17	25.23	26.48	27.10	30.36	26.25	45.31	28.73	11.52	7.630	8.435	24.25	463.7	745.5	24.97	4.636	3.011	3.937	3.066	2.477	3.334	3.066	3.325	3.643	3.013	2.947	3.658	3.523	3.667	3.209	2.551	2.357	1.979	1.730	1.464	1.870	1.447	1.238	1.391	1.099	0.985	0.972	0.838	1.066	1.311	1.337	1.187	1.470	1.023	0.928	1.220	1.218	1.310	1.306	1.237	1.260	1.141	1.184	1.069	0.986	0.978	1.008	1.300	1.101	1.201	0.832	1.081	1.246	1.302
650.0	41.32	51.31	38.00	34.58	22.70	22.58	19.18	17.70	23.79	28.85	26.31	28.53	30.45	27.31	34.23	38.56	12.45	7.514	7.035	9.920	141.7	875.1	165.9	4.828	3.405	3.488	3.005	3.354	3.419	3.700	3.317	3.459	3.509	3.264	3.492	4.472	3.858	3.330	2.520	2.077	1.874	1.852	1.776	1.304	1.137	1.151	1.306	1.127	1.183	1.169	0.843	1.074	1.016	1.234	1.211	1.258	1.289	1.037	1.365	1.219	1.045	1.068	1.414	1.203	0.931	0.959	1.289	0.987	0.821	1.013	1.312	1.133	1.087	1.164	0.992	1.147	1.165
