Sample:	'1
File name:	Default_20230105_143009.FD3
Run date:	'14:23:49, 01/05/2023
Operator:	dsjg
Comment:	'

Instrument
Model:	F-2700 FL Spectrophotometer
Serial number:	2198-001
ROM Version:	4J14000 07

Instrument parameters
Measurement type:	3-D scan
Data mode:	Fluorescence
EX  Start WL:	220.0 nm
EX  End WL:	600.0 nm
EX Sampling interval:	5.0 nm
EM  Start WL:	230.0 nm
EM  End WL:	650.0 nm
EM Sampling interval:	5.0 nm
Scan speed:	12000 nm/min
EX Slit:	5.0 nm
EM Slit:	5.0 nm
PMT Voltage:	700 V
Response:	Auto 
Corrected spectra:	Off
Contour interval:	50.000

Peak integration
Integration method:	Rectangular
Sensitivity:	1
Threshold:	1.000

Peaks
No.	ApexEX/EM(nm)	Height(Data)
1	225.0/615.0	25.15
2	230.0/345.0	 1529
3	230.0/590.0	23.91
4	230.0/635.0	22.44
5	240.0/265.0	158.8
6	245.0/270.0	145.8
7	250.0/420.0	672.7
8	250.0/435.0	673.9
9	255.0/280.0	196.5
10	255.0/440.0	680.6
11	260.0/570.0	62.23
12	265.0/410.0	677.6
13	265.0/585.0	50.54
14	270.0/405.0	690.7
15	275.0/320.0	 1201
16	275.0/610.0	68.54
17	280.0/620.0	60.88
18	475.0/345.0	5.349
19	555.0/320.0	5.995
20	560.0/325.0	6.027
21	565.0/315.0	6.025

Data points
	220.0	225.0	230.0	235.0	240.0	245.0	250.0	255.0	260.0	265.0	270.0	275.0	280.0	285.0	290.0	295.0	300.0	305.0	310.0	315.0	320.0	325.0	330.0	335.0	340.0	345.0	350.0	355.0	360.0	365.0	370.0	375.0	380.0	385.0	390.0	395.0	400.0	405.0	410.0	415.0	420.0	425.0	430.0	435.0	440.0	445.0	450.0	455.0	460.0	465.0	470.0	475.0	480.0	485.0	490.0	495.0	500.0	505.0	510.0	515.0	520.0	525.0	530.0	535.0	540.0	545.0	550.0	555.0	560.0	565.0	570.0	575.0	580.0	585.0	590.0	595.0	600.0
230.0	29.73	620.7	911.1	162.7	4.604	2.479	2.051	1.811	1.446	1.316	1.369	1.116	1.131	0.880	0.855	0.712	0.626	0.654	0.459	0.502	0.380	0.412	0.411	0.358	0.310	0.304	0.307	0.278	0.261	0.251	0.284	0.235	0.207	0.188	0.206	0.289	0.282	0.267	0.268	0.245	0.223	0.230	0.212	0.201	0.150	0.171	0.323	1.606	3.786	3.541	1.391	0.257	0.102	0.106	0.112	0.080	0.061	0.094	0.073	0.052	0.051	0.045	0.054	0.057	0.039	0.041	0.048	0.021	0.020	0.008	0.012	0.018	0.010	0.008	0.007	0.015	0.001
235.0	22.82	197.6	845.5	 1076	231.0	5.437	2.593	2.139	1.723	1.741	2.166	1.120	1.369	0.956	1.043	0.786	0.610	0.645	0.540	0.426	0.450	0.347	0.368	0.310	0.324	0.306	0.284	0.240	0.230	0.297	0.250	0.259	0.208	0.198	0.154	0.219	0.274	0.260	0.278	0.228	0.161	0.201	0.214	0.229	0.247	0.207	0.185	0.465	1.340	2.707	4.362	4.923	2.509	0.451	0.124	0.105	0.079	0.098	0.049	0.061	0.033	0.085	0.045	0.055	0.061	0.031	0.022	0.021	0.019	0.022	0.001	0.006	0.032	-0.001	0.015	0.001	-0.002
240.0	36.18	60.25	330.2	 1243	 1127	157.3	3.567	2.625	2.239	2.321	2.021	1.431	1.329	1.069	0.969	0.751	0.810	0.654	0.455	0.442	0.437	0.406	0.356	0.279	0.362	0.333	0.364	0.288	0.205	0.250	0.309	0.276	0.186	0.200	0.157	0.221	0.218	0.283	0.277	0.273	0.203	0.204	0.260	0.181	0.272	0.229	0.290	0.264	0.453	0.828	2.186	5.357	7.141	5.297	1.664	0.251	0.093	0.064	0.073	0.097	0.066	0.060	0.045	0.055	0.074	0.040	0.059	0.051	0.021	0.016	0.010	0.023	0.036	-0.007	0.001	0.001	0.008
245.0	46.49	64.03	93.05	564.1	 1594	989.7	94.58	2.863	2.583	2.050	2.037	1.465	1.412	1.001	0.999	0.799	0.702	0.654	0.505	0.518	0.390	0.519	0.342	0.332	0.378	0.330	0.285	0.270	0.288	0.291	0.302	0.247	0.186	0.184	0.166	0.185	0.193	0.211	0.234	0.238	0.230	0.238	0.194	0.209	0.197	0.265	0.415	0.338	0.316	0.297	0.612	1.893	4.686	8.515	8.140	4.490	1.032	0.113	0.046	0.080	0.053	0.042	0.049	0.053	0.056	0.052	0.039	0.033	0.023	0.018	0.024	0.020	0.013	-0.007	0.002	-0.002	-0.010
250.0	20.61	74.84	97.23	157.0	656.8	 1456	 1120	162.2	12.02	2.956	2.538	1.864	1.816	1.213	1.017	0.972	0.759	0.637	0.529	0.508	0.514	0.491	0.435	0.406	0.364	0.285	0.290	0.268	0.267	0.276	0.293	0.234	0.180	0.177	0.193	0.155	0.166	0.172	0.241	0.223	0.225	0.233	0.190	0.224	0.187	0.195	0.263	0.381	0.493	0.423	0.388	0.563	1.239	2.801	4.766	7.128	9.022	7.585	3.774	1.040	0.127	0.059	0.065	0.062	0.036	0.056	0.037	0.049	0.013	0.023	0.012	0.006	0.032	-0.001	0.009	0.005	0.008
255.0	6.764	26.93	102.5	143.5	170.3	441.1	 1499	 2084	220.9	9.512	3.404	2.505	2.115	1.543	1.282	1.024	0.752	0.760	0.646	0.457	0.518	0.483	0.453	0.389	0.365	0.353	0.364	0.318	0.256	0.253	0.251	0.301	0.210	0.179	0.206	0.163	0.160	0.173	0.205	0.166	0.190	0.204	0.221	0.235	0.150	0.179	0.230	0.221	0.296	0.424	0.662	0.660	0.537	0.739	1.201	1.790	3.567	7.657	12.79	12.71	5.936	1.170	0.096	0.078	0.059	0.087	0.080	0.047	0.039	0.042	0.032	0.003	0.021	-0.003	0.014	0.007	0.016
260.0	3.235	9.531	46.40	144.7	122.6	113.4	564.5	 2203	 1810	174.1	6.504	3.636	2.002	2.346	1.362	1.018	0.959	0.912	0.654	0.583	0.533	0.547	0.463	0.456	0.401	0.373	0.234	0.316	0.288	0.303	0.243	0.317	0.211	0.235	0.179	0.240	0.129	0.154	0.155	0.142	0.176	0.167	0.276	0.241	0.194	0.197	0.155	0.188	0.189	0.249	0.418	0.767	0.906	0.609	0.455	0.532	0.885	2.203	5.870	12.54	16.36	12.06	4.447	0.460	0.090	0.077	0.062	0.080	0.043	0.022	0.034	0.023	0.007	0.003	0.025	0.021	0.000
265.0	2.995	4.363	15.21	88.46	158.8	83.05	142.0	906.5	 2489	 1555	130.2	4.386	2.905	2.300	1.607	1.489	1.081	1.032	0.664	0.836	0.580	0.621	0.496	0.428	0.335	0.357	0.355	0.309	0.372	0.317	0.266	0.315	0.187	0.197	0.197	0.195	0.200	0.158	0.165	0.125	0.142	0.181	0.259	0.210	0.210	0.184	0.161	0.194	0.140	0.221	0.201	0.391	0.748	1.031	0.716	0.390	0.343	0.582	1.483	4.111	9.763	16.88	17.64	9.883	2.134	0.146	0.077	0.064	0.023	0.041	0.036	0.027	0.018	0.008	0.009	0.018	0.026
270.0	7.017	9.543	10.10	29.70	92.26	145.8	105.9	228.9	915.8	 2104	 2077	600.8	29.29	3.029	2.150	1.688	1.275	1.330	0.857	0.770	0.717	0.588	0.575	0.520	0.527	0.437	0.445	0.359	0.377	0.255	0.331	0.256	0.266	0.249	0.193	0.200	0.199	0.151	0.194	0.129	0.150	0.155	0.204	0.206	0.249	0.238	0.192	0.213	0.170	0.167	0.149	0.206	0.300	0.521	0.713	0.927	0.760	0.498	0.485	1.049	2.445	5.284	9.310	13.81	15.94	13.71	7.373	1.921	0.141	0.071	0.045	0.053	0.024	0.020	0.023	0.034	0.018
275.0	16.49	25.12	22.48	19.78	29.32	91.90	177.6	138.2	224.0	583.7	 1831	 3092	832.3	24.66	2.953	2.344	1.488	1.572	1.131	0.913	0.652	0.760	0.533	0.579	0.550	0.407	0.394	0.332	0.385	0.318	0.359	0.240	0.188	0.283	0.215	0.220	0.214	0.223	0.218	0.166	0.194	0.157	0.129	0.156	0.250	0.312	0.283	0.265	0.248	0.240	0.219	0.185	0.244	0.216	0.296	0.477	0.842	1.135	0.996	0.573	0.733	1.339	2.252	3.399	5.676	11.48	19.81	20.51	10.28	1.658	0.079	0.029	0.033	0.029	0.004	0.016	0.040
280.0	34.40	49.10	42.15	24.67	16.89	38.69	137.6	196.5	114.7	166.2	616.4	 2422	 3060	124.7	9.506	2.730	2.069	1.916	1.269	0.915	0.940	0.837	0.593	0.597	0.622	0.460	0.397	0.264	0.377	0.343	0.304	0.249	0.273	0.302	0.295	0.192	0.228	0.244	0.218	0.196	0.182	0.154	0.132	0.189	0.233	0.320	0.387	0.366	0.378	0.284	0.261	0.216	0.214	0.204	0.177	0.236	0.404	0.711	1.280	1.165	0.751	0.542	0.659	0.948	1.535	3.201	8.300	16.98	23.19	17.58	6.003	0.480	0.099	0.041	0.014	0.020	0.037
285.0	56.90	74.14	65.44	37.28	20.45	23.33	71.41	192.0	191.7	108.5	206.3	894.4	 2726	 2651	95.95	4.753	2.468	1.836	1.432	0.967	1.074	0.728	0.804	0.673	0.624	0.511	0.387	0.432	0.314	0.396	0.344	0.259	0.262	0.300	0.242	0.275	0.214	0.289	0.218	0.181	0.185	0.163	0.205	0.211	0.234	0.364	0.459	0.434	0.494	0.324	0.339	0.301	0.253	0.215	0.212	0.198	0.260	0.352	0.715	1.170	1.369	1.088	0.618	0.532	0.655	1.161	2.340	5.246	11.85	21.23	23.64	12.97	2.522	0.117	0.046	0.035	0.034
290.0	91.72	122.4	110.3	67.72	41.35	39.06	57.83	124.7	242.7	260.1	193.7	341.8	964.3	 2087	 2417	931.4	23.27	2.910	1.930	1.363	1.279	0.999	0.881	0.802	0.659	0.508	0.540	0.483	0.414	0.429	0.409	0.360	0.315	0.307	0.279	0.310	0.274	0.256	0.241	0.230	0.217	0.175	0.265	0.268	0.271	0.459	0.532	0.625	0.644	0.502	0.455	0.377	0.339	0.282	0.278	0.297	0.272	0.319	0.475	0.703	0.983	1.460	1.551	1.354	1.132	1.020	1.338	1.951	3.430	6.739	11.20	15.72	18.22	15.83	8.139	1.695	0.076
295.0	129.8	182.2	177.8	112.0	77.22	72.10	93.01	134.8	223.3	389.3	453.5	368.4	441.2	647.3	 1420	 3019	586.4	24.53	3.118	1.895	1.585	1.245	1.042	0.912	0.816	0.671	0.673	0.548	0.517	0.443	0.423	0.491	0.367	0.377	0.303	0.331	0.286	0.333	0.268	0.281	0.226	0.236	0.259	0.325	0.471	0.569	0.574	0.798	0.758	0.718	0.604	0.627	0.517	0.412	0.406	0.481	0.442	0.500	0.643	0.730	0.868	1.108	1.530	2.117	2.603	2.280	1.858	1.727	1.952	2.614	3.337	4.267	6.185	12.14	21.66	22.47	9.680
300.0	161.9	239.7	233.4	162.6	125.9	123.4	158.8	214.3	285.6	483.0	683.3	630.3	484.5	398.5	558.0	 1927	 3098	457.0	11.76	2.715	1.950	1.450	1.070	1.109	0.913	0.832	0.698	0.690	0.576	0.486	0.468	0.478	0.383	0.341	0.322	0.361	0.347	0.273	0.319	0.301	0.289	0.259	0.388	0.349	0.454	0.618	0.752	0.859	0.857	0.884	0.822	0.785	0.686	0.649	0.591	0.661	0.677	0.850	0.948	1.131	1.284	1.538	1.907	2.457	3.121	3.809	3.473	2.791	2.565	2.501	2.250	2.151	2.356	3.967	8.977	19.38	26.44
305.0	205.1	315.4	304.3	226.0	184.9	201.8	261.7	333.7	490.8	684.8	898.7	 1034	790.1	535.5	451.9	803.1	 2432	 2979	66.77	5.611	2.447	1.918	1.346	1.072	1.052	0.837	0.730	0.782	0.649	0.567	0.561	0.495	0.379	0.405	0.398	0.479	0.379	0.375	0.375	0.305	0.327	0.376	0.401	0.394	0.563	0.791	0.861	1.102	1.109	1.112	1.017	0.976	1.004	0.952	0.906	0.982	1.167	1.495	1.501	1.804	2.110	2.673	3.087	3.451	3.695	4.532	5.348	5.101	4.183	3.618	3.059	2.587	2.453	2.724	3.368	6.727	14.37
310.0	242.8	385.9	388.0	300.3	255.5	281.5	357.6	468.0	612.9	798.9	984.0	 1149	 1086	745.9	530.8	479.5	951.3	 2068	 2436	902.2	17.70	2.478	1.823	1.351	1.185	1.011	0.852	0.751	0.701	0.686	0.611	0.480	0.428	0.444	0.458	0.491	0.464	0.414	0.354	0.390	0.376	0.377	0.437	0.499	0.609	0.836	0.956	1.301	1.366	1.279	1.168	1.272	1.181	1.176	1.266	1.252	1.532	1.779	2.086	2.472	2.565	3.185	3.695	3.951	4.283	4.918	5.332	5.634	5.745	5.315	4.344	3.399	3.122	2.862	2.545	2.932	4.932
315.0	292.7	450.5	448.7	371.5	321.5	351.7	442.0	548.2	688.2	877.7	 1054	 1163	 1161	995.3	674.2	473.7	528.7	682.0	 1235	 2934	439.3	17.35	2.500	1.857	1.314	1.247	0.970	0.851	0.789	0.715	0.588	0.548	0.421	0.407	0.418	0.523	0.357	0.434	0.391	0.334	0.377	0.429	0.450	0.597	0.718	0.937	1.161	1.484	1.704	1.497	1.333	1.540	1.379	1.436	1.439	1.571	1.821	2.053	2.521	2.871	3.000	3.452	3.862	4.306	4.705	5.169	5.580	5.748	5.758	6.025	5.690	4.799	4.014	3.329	2.794	2.543	2.739
320.0	320.1	515.9	537.6	426.6	369.5	392.3	485.0	590.7	728.4	913.1	 1086	 1201	 1160	 1053	839.4	523.5	467.5	373.0	392.0	 1660	 2842	348.7	7.680	2.160	1.793	1.422	1.091	0.827	0.892	0.778	0.760	0.638	0.502	0.473	0.464	0.525	0.420	0.486	0.421	0.375	0.448	0.468	0.405	0.634	0.709	1.015	1.314	1.807	1.900	1.716	1.628	1.729	1.660	1.446	1.651	1.719	2.026	2.293	2.611	3.241	3.121	3.509	4.111	4.656	4.984	5.076	5.663	5.995	5.848	5.948	5.482	5.524	4.903	3.948	3.171	2.492	2.682
325.0	390.9	649.8	702.8	542.9	416.7	410.4	510.1	619.6	735.8	910.2	 1077	 1186	 1149	 1015	930.6	627.5	464.1	311.4	177.2	505.3	 2098	 2620	51.63	4.257	2.088	1.733	1.189	1.011	0.912	0.729	0.817	0.672	0.527	0.590	0.465	0.461	0.532	0.481	0.458	0.434	0.502	0.483	0.548	0.633	0.819	1.195	1.578	2.139	2.404	2.295	2.083	2.184	1.891	1.557	1.792	1.881	2.228	2.313	2.864	3.195	3.265	3.577	4.017	4.518	4.862	5.090	5.558	5.968	6.027	5.853	5.248	5.025	5.394	4.929	3.802	2.889	2.791
330.0	503.7	884.8	 1048	819.1	575.0	476.0	534.0	632.4	736.8	903.6	 1070	 1185	 1162	 1017	896.4	736.1	555.9	329.7	168.9	190.8	618.1	 1812	 2306	814.3	15.61	2.521	1.514	1.359	1.136	0.867	0.896	0.754	0.587	0.597	0.490	0.591	0.526	0.479	0.440	0.449	0.472	0.463	0.570	0.731	1.059	1.567	1.913	2.885	3.519	3.467	3.193	3.366	2.857	2.308	2.055	1.993	2.242	2.448	2.904	3.111	3.191	3.530	4.187	4.441	4.772	5.140	5.519	5.717	5.880	5.581	5.571	5.108	5.081	4.653	4.255	3.839	3.397
335.0	569.7	 1066	 1370	 1193	824.1	574.9	567.7	654.4	737.3	894.4	 1051	 1174	 1171	 1046	901.0	733.1	680.6	431.1	219.3	164.9	227.3	487.3	 1183	 2880	371.3	16.03	2.474	1.720	1.352	1.170	0.969	0.824	0.732	0.627	0.462	0.514	0.529	0.451	0.518	0.369	0.561	0.522	0.620	0.735	1.155	1.841	2.518	3.289	4.257	4.331	4.169	4.691	4.077	3.396	2.798	2.416	2.398	2.569	3.079	3.181	3.275	3.613	4.219	4.352	4.822	5.017	5.623	5.889	5.763	5.750	5.720	5.493	5.213	4.523	4.178	3.885	4.080
340.0	612.8	 1179	 1485	 1327	923.4	610.1	580.6	646.5	735.1	868.8	 1020	 1135	 1147	 1048	905.1	719.1	649.7	522.5	272.9	182.7	158.7	194.1	362.9	 1702	 2750	301.8	6.425	2.187	1.511	1.374	1.038	0.947	0.716	0.608	0.640	0.595	0.508	0.568	0.451	0.484	0.535	0.553	0.622	0.772	1.099	1.700	2.461	3.506	4.260	4.725	4.753	5.214	4.363	3.758	3.097	2.710	2.653	2.695	3.099	3.264	3.317	3.642	3.920	4.450	4.587	4.746	5.449	5.404	5.681	5.749	5.517	5.604	5.101	4.537	4.048	4.004	3.809
345.0	607.2	 1194	 1529	 1383	943.6	627.3	576.5	636.8	718.1	840.0	974.4	 1080	 1096	 1012	883.4	703.9	592.9	529.3	359.4	210.9	160.1	145.4	155.6	519.6	 2208	 2362	44.97	3.608	2.027	1.455	1.243	0.996	0.889	0.619	0.570	0.544	0.562	0.519	0.475	0.571	0.513	0.573	0.691	0.854	1.081	1.589	2.398	3.575	4.329	4.791	5.020	5.349	4.519	3.799	3.074	2.384	2.443	2.778	2.916	3.144	3.294	3.675	3.878	4.407	4.443	4.640	5.073	5.046	5.266	5.620	5.452	5.179	5.104	4.527	3.940	3.816	3.668
350.0	581.4	 1126	 1490	 1382	986.7	641.4	577.9	623.9	682.3	789.0	911.7	 1002	 1023	954.0	841.7	680.3	568.7	474.7	413.8	309.2	201.9	161.3	133.6	185.4	633.8	 1758	 2064	690.4	13.65	2.058	1.542	1.294	0.917	0.755	0.656	0.686	0.581	0.546	0.503	0.487	0.579	0.519	0.700	0.851	1.052	1.650	2.385	3.473	4.272	4.628	4.918	5.322	4.550	4.033	3.337	2.664	2.588	2.807	2.910	2.868	3.246	3.409	3.722	3.895	4.153	4.415	4.577	4.640	5.049	5.219	5.100	4.984	4.849	4.344	3.866	3.592	3.405
355.0	542.6	 1020	 1389	 1328	994.5	666.1	590.4	613.4	652.0	743.2	845.3	926.3	946.0	895.9	800.2	669.6	563.6	465.2	391.2	385.0	298.0	204.9	163.0	138.6	201.3	441.4	 1106	 2586	339.5	14.75	2.358	1.601	1.124	0.844	0.769	0.764	0.529	0.498	0.543	0.513	0.556	0.525	0.632	0.835	0.970	1.595	2.100	3.221	3.922	4.245	4.574	5.223	4.716	4.135	3.362	2.824	2.611	2.651	3.022	2.928	3.177	3.359	3.508	3.601	3.842	4.069	4.166	4.480	4.606	4.539	4.738	4.627	4.435	4.089	3.688	3.582	3.474
360.0	491.2	938.9	 1284	 1244	944.4	655.7	589.0	603.2	637.6	715.2	805.0	863.0	883.9	849.0	765.0	650.8	557.7	470.8	393.5	379.2	375.0	260.2	193.3	149.0	125.7	150.8	313.7	 1581	 2511	275.0	5.562	2.026	1.468	1.087	0.795	0.706	0.673	0.575	0.542	0.508	0.523	0.600	0.612	0.820	0.994	1.472	1.994	3.048	3.590	4.112	4.173	4.929	4.328	3.895	3.377	2.848	2.677	2.655	2.879	2.886	3.172	3.286	3.319	3.639	3.720	3.922	3.961	4.282	4.414	4.456	4.431	4.515	4.306	4.008	3.982	3.523	3.430
365.0	452.8	861.4	 1178	 1176	905.5	654.5	589.4	605.6	630.0	693.1	765.9	828.5	847.7	810.6	732.0	639.5	554.5	476.3	408.6	375.8	386.3	341.3	231.4	174.4	129.9	103.7	119.4	469.8	 2119	 2144	41.62	3.592	1.921	1.051	0.878	0.813	0.708	0.556	0.550	0.481	0.525	0.504	0.521	0.737	1.026	1.312	1.885	2.631	3.520	3.762	3.890	4.541	4.071	3.904	3.125	2.938	2.686	2.664	2.743	2.724	3.026	3.088	3.267	3.598	3.537	3.871	4.035	3.814	4.074	4.054	4.226	4.103	4.309	3.658	3.937	3.484	3.450
370.0	401.9	756.6	 1051	 1069	876.3	653.6	594.2	605.0	621.5	679.2	740.4	787.1	800.7	760.8	704.1	624.6	558.8	495.7	439.4	399.2	378.7	383.1	323.7	228.7	165.6	122.7	98.06	155.6	613.7	 1666	 1947	638.3	11.82	1.770	1.172	0.922	0.718	0.639	0.636	0.534	0.584	0.609	0.596	0.736	0.947	1.307	1.741	2.566	3.070	3.320	3.593	4.141	3.846	3.668	3.077	2.792	2.678	2.711	2.765	2.837	2.858	2.922	3.151	3.379	3.490	3.648	3.697	3.696	3.860	3.858	3.920	3.931	3.951	3.766	3.718	3.409	3.409
375.0	372.2	676.1	922.7	977.3	844.6	669.5	609.3	613.6	632.1	672.6	714.2	748.2	759.7	731.6	677.6	608.9	564.1	518.5	474.7	435.9	403.8	384.1	379.2	322.1	218.9	161.0	124.9	110.3	189.2	416.9	 1095	 2554	288.5	12.20	1.843	1.298	0.837	0.714	0.623	0.517	0.543	0.516	0.628	0.702	0.801	1.157	1.570	2.203	2.581	2.858	3.003	3.710	3.599	3.576	3.123	2.770	2.724	2.694	2.887	2.821	2.822	3.099	3.072	3.316	3.507	3.561	3.453	3.670	3.708	3.675	3.696	3.640	3.833	3.500	3.792	3.356	3.461
380.0	355.9	630.0	858.0	909.8	823.0	671.9	615.3	623.7	636.3	672.6	711.2	725.6	733.2	710.7	658.7	601.1	571.1	531.2	491.1	461.5	430.6	398.1	382.6	375.3	280.1	196.5	153.2	118.8	111.6	138.8	305.4	 1654	 2109	226.4	4.338	1.512	1.124	0.879	0.730	0.553	0.597	0.536	0.662	0.715	0.857	1.194	1.574	2.066	2.520	2.674	2.845	3.471	3.383	3.414	2.944	2.860	2.822	2.752	3.053	2.935	2.746	3.115	3.246	3.231	3.324	3.590	3.576	3.520	3.616	3.538	3.603	3.682	3.733	3.459	3.451	3.514	3.495
385.0	334.6	598.4	800.4	859.2	784.1	674.5	621.2	626.3	642.7	666.8	705.7	719.5	709.0	695.8	649.2	598.1	571.5	537.7	509.5	477.0	451.4	418.1	387.6	378.9	342.9	236.4	180.6	140.2	109.1	88.76	107.8	490.4	 1807	 1677	33.35	2.480	1.350	0.984	0.789	0.638	0.565	0.548	0.609	0.678	0.798	1.133	1.355	1.973	2.239	2.463	2.632	3.466	3.262	3.292	3.142	2.753	2.968	2.618	3.083	2.906	2.967	3.057	3.202	3.294	3.254	3.499	3.397	3.428	3.459	3.423	3.660	3.643	3.585	3.442	3.316	3.492	3.475
390.0	312.2	558.2	744.7	804.8	764.4	674.4	634.4	638.4	643.6	671.7	693.7	698.6	696.0	670.5	635.9	588.4	564.1	543.7	522.0	498.6	472.9	442.5	407.9	376.1	361.3	309.1	227.5	171.1	134.1	99.46	79.64	149.0	521.7	 1335	 1433	138.8	9.293	1.379	1.005	0.801	0.633	0.612	0.669	0.744	0.837	1.092	1.349	1.826	2.162	2.371	2.513	3.192	3.191	3.261	3.068	2.844	2.842	2.872	2.953	2.980	3.144	3.136	3.268	3.279	3.425	3.356	3.307	3.394	3.494	3.501	3.510	3.540	3.500	3.408	3.361	3.340	3.490
395.0	302.5	532.3	692.1	752.8	748.2	670.9	651.4	649.1	652.0	672.9	692.5	686.8	671.5	651.1	622.3	580.6	567.4	548.6	525.2	514.5	490.0	459.4	431.3	394.2	361.1	341.1	301.8	216.4	167.9	125.9	94.19	86.68	150.4	327.6	824.6	 1672	235.0	9.389	1.378	1.082	0.718	0.699	0.708	0.671	0.908	1.085	1.425	1.657	2.190	2.293	2.506	2.922	3.023	3.089	3.022	2.837	3.072	2.895	3.211	3.038	3.032	3.199	3.433	3.182	3.236	3.353	3.168	3.153	3.550	3.482	3.422	3.330	3.509	3.551	3.231	3.282	3.473
400.0	302.4	503.0	681.4	727.9	733.0	680.8	667.6	654.1	659.0	674.5	686.6	676.2	660.3	633.5	608.1	574.3	560.9	545.9	527.6	518.5	494.9	470.5	445.5	410.7	372.2	339.3	331.7	266.8	195.4	150.0	114.0	86.89	77.74	100.4	224.6	 1109	 1568	185.3	3.486	1.401	0.875	0.742	0.773	0.794	0.831	1.064	1.274	1.674	2.091	2.155	2.308	2.815	3.044	3.045	3.089	2.917	3.113	2.910	3.023	3.137	3.120	3.071	3.344	3.265	3.156	3.407	3.171	3.402	3.398	3.373	3.368	3.432	3.478	3.489	3.231	3.329	3.344
405.0	289.3	497.8	654.5	713.0	716.5	686.6	681.1	656.4	670.4	674.7	690.7	662.6	655.4	622.4	593.5	566.3	549.6	536.6	530.2	519.1	498.4	478.1	453.3	420.5	383.0	344.4	329.3	308.2	231.8	172.8	134.4	98.88	71.21	57.05	72.72	321.9	 1308	 1256	29.15	2.055	1.076	0.886	0.775	0.845	0.944	1.054	1.243	1.746	1.932	1.999	2.229	2.726	2.877	3.010	3.215	2.850	3.304	2.938	2.932	2.980	3.214	3.230	3.362	3.246	3.292	3.238	3.075	3.268	3.255	3.220	3.285	3.198	3.484	3.289	3.271	3.201	3.146
410.0	279.7	475.7	625.6	691.2	703.4	673.8	677.2	670.7	669.2	677.6	675.1	644.5	632.4	605.6	578.7	551.9	534.9	526.9	519.6	508.8	493.1	475.1	454.9	426.5	393.9	355.4	329.5	311.3	282.7	211.4	157.9	119.1	84.29	59.50	46.71	92.49	365.6	985.1	 1139	129.6	8.063	1.229	0.899	0.891	0.996	1.147	1.322	1.637	1.909	1.956	2.184	2.904	2.818	3.083	2.843	2.922	3.195	3.034	3.117	3.216	3.191	3.124	3.459	3.134	3.243	3.232	3.102	3.102	3.048	3.290	3.209	3.260	3.299	3.229	3.118	3.245	3.328
415.0	259.9	453.2	604.6	666.5	682.7	674.6	665.3	669.2	670.5	671.5	657.3	632.0	611.4	589.6	557.8	526.7	516.1	503.2	499.4	491.4	479.0	461.0	444.2	421.2	398.6	363.4	335.3	304.3	290.8	260.9	189.4	137.6	101.0	71.85	50.75	48.55	99.56	237.9	651.6	 1344	210.1	7.527	1.272	1.018	1.107	1.106	1.280	1.642	2.000	2.038	2.145	2.719	2.892	3.029	2.912	2.761	3.082	3.114	3.146	3.246	3.178	3.078	3.370	3.212	3.190	3.066	3.152	2.834	3.008	3.007	2.928	2.999	3.020	3.048	3.130	3.374	3.082
420.0	262.5	445.0	578.5	647.9	668.6	664.6	672.7	662.9	661.8	661.3	650.1	620.4	595.4	567.0	539.1	512.2	498.1	496.0	483.2	475.4	464.3	450.7	437.8	417.9	394.8	366.8	334.7	307.0	282.8	273.4	223.0	155.9	113.4	81.77	58.67	44.24	44.31	67.85	172.8	884.4	 1245	166.9	3.031	1.286	1.211	1.315	1.401	1.753	1.895	1.797	2.028	2.705	2.756	2.996	2.929	2.806	3.138	3.037	3.042	3.023	3.051	3.111	3.289	3.263	3.236	2.949	2.985	2.949	2.846	3.112	2.810	2.788	2.905	3.079	2.946	2.971	3.115
425.0	257.4	420.2	550.2	627.5	663.4	653.8	668.0	667.2	655.0	653.4	642.2	608.1	574.4	549.7	520.1	494.7	480.3	475.9	470.5	460.8	449.5	436.0	426.9	413.2	391.1	364.4	338.0	311.2	283.0	265.5	246.4	179.3	126.0	91.67	66.73	48.74	36.83	32.49	50.52	253.5	 1045	 1017	27.03	1.850	1.206	1.283	1.385	1.621	1.800	1.774	1.976	2.684	2.753	2.902	2.795	2.903	3.150	3.180	3.183	2.995	3.206	3.118	2.972	2.885	3.381	2.896	2.855	2.793	2.826	2.917	2.784	2.821	2.832	2.898	2.913	2.843	2.977
430.0	254.9	409.9	540.4	613.2	657.9	651.2	667.4	667.1	658.9	644.5	625.2	597.8	564.1	532.0	500.6	473.9	462.6	452.8	449.9	439.5	430.9	419.4	409.8	400.3	383.1	358.8	338.0	315.3	289.2	262.1	242.8	211.4	150.9	106.4	79.26	57.64	42.28	31.15	27.45	68.06	294.4	798.7	875.1	120.5	7.306	1.438	1.384	1.630	1.799	1.803	1.965	2.483	2.734	2.754	2.828	2.767	3.153	3.175	3.167	3.095	3.150	3.140	3.039	3.126	3.065	2.773	2.898	2.741	2.927	2.807	2.793	2.886	2.758	2.709	2.904	2.746	2.929
435.0	260.5	401.6	511.4	591.3	648.7	651.9	673.9	669.1	653.3	633.0	613.0	583.8	544.4	518.8	482.1	452.3	441.2	433.2	426.9	421.9	409.4	397.6	390.3	384.8	371.4	354.1	333.6	314.9	294.3	266.3	237.9	213.4	183.7	128.6	91.55	67.84	51.03	37.00	27.50	30.10	76.43	190.5	504.6	 1071	189.5	6.162	1.734	1.749	1.735	1.769	1.972	2.295	2.646	2.716	2.703	2.751	3.172	3.300	3.268	3.201	3.201	3.068	2.990	2.970	2.915	2.808	2.815	2.711	2.834	2.630	2.722	2.846	2.725	2.701	2.627	2.722	2.832
440.0	298.8	393.1	507.3	572.7	634.7	658.1	673.4	680.6	644.1	622.7	605.6	571.3	527.4	499.8	467.4	433.3	423.9	421.6	409.6	402.9	391.8	381.0	376.6	371.2	361.6	344.1	328.2	312.7	292.0	267.5	239.4	207.5	190.1	149.6	103.8	75.54	58.12	41.96	30.90	24.35	29.78	51.69	134.9	758.6	 1025	28.26	2.830	1.866	1.805	1.782	1.959	2.365	2.376	2.803	2.804	2.753	3.166	3.119	3.285	3.353	3.210	3.046	3.110	2.900	2.782	2.807	2.808	2.672	2.659	2.616	2.662	2.542	2.756	2.456	2.480	2.475	2.823
445.0	343.9	382.2	497.1	563.0	636.8	652.3	673.0	670.8	643.5	612.1	589.7	560.5	514.2	485.6	451.2	422.4	411.0	403.0	393.9	386.8	375.2	366.5	362.9	357.4	348.5	334.8	319.4	309.6	290.3	268.5	238.1	207.1	182.6	161.7	117.5	82.64	63.53	47.68	35.06	26.69	21.53	22.51	38.12	228.9	951.2	769.9	21.67	2.270	1.840	1.880	1.978	2.344	2.455	2.715	2.685	2.604	3.039	3.210	3.180	3.347	3.198	2.869	3.111	3.021	2.809	2.798	2.862	2.567	2.582	2.574	2.548	2.363	2.514	2.356	2.640	2.451	2.453
450.0	381.0	478.3	471.6	544.7	605.0	634.8	662.4	660.8	629.4	595.3	567.1	535.8	487.3	462.5	425.2	396.8	387.7	376.0	370.4	358.3	348.4	340.8	337.0	333.3	326.1	317.1	306.5	294.9	284.0	263.9	237.2	206.4	176.1	155.7	133.5	96.45	69.99	53.15	40.40	30.86	23.10	18.35	18.39	58.58	273.8	698.3	758.1	105.0	6.085	1.941	1.866	2.322	2.348	2.581	2.633	2.659	3.070	3.116	3.099	3.053	3.069	3.006	2.938	2.789	2.732	2.627	2.634	2.354	2.450	2.523	2.460	2.411	2.304	2.313	2.372	2.387	2.390
455.0	302.9	640.9	498.8	513.3	577.4	613.1	629.7	635.5	594.9	565.5	539.2	504.9	462.7	426.8	395.7	366.6	359.7	345.9	340.7	328.6	315.9	311.3	304.8	304.5	299.5	294.4	286.4	275.9	269.1	255.7	231.3	201.8	173.1	146.2	130.1	112.6	81.30	58.34	45.57	35.37	27.00	20.41	16.31	22.22	67.70	167.2	452.1	891.3	156.0	5.212	1.961	2.289	2.239	2.517	2.684	2.595	2.920	2.962	2.969	3.109	2.955	2.941	2.738	2.618	2.589	2.343	2.442	2.393	2.305	2.452	2.240	2.395	2.109	2.075	2.269	2.239	2.117
460.0	224.4	694.7	613.6	495.4	541.2	585.0	617.1	609.2	578.7	535.9	512.2	477.7	437.9	407.9	369.5	350.0	334.1	323.8	318.0	307.6	293.1	289.8	282.7	283.0	280.1	276.9	270.7	262.5	256.0	243.3	223.9	197.0	169.4	142.4	121.7	113.1	90.96	63.13	47.63	37.35	29.35	22.32	17.02	15.13	22.49	43.49	119.0	624.4	793.6	21.16	2.966	2.331	2.288	2.401	2.490	2.614	2.863	2.830	2.784	2.866	2.699	2.762	2.606	2.457	2.564	2.308	2.446	2.347	2.144	2.313	1.997	2.209	2.010	2.026	2.082	2.032	1.992
465.0	183.4	586.8	826.0	504.1	516.8	556.9	587.4	581.8	544.5	516.6	482.0	448.6	415.3	384.4	353.3	327.0	312.2	303.1	296.4	285.8	276.4	269.2	263.4	266.3	260.5	259.6	254.8	247.9	243.2	233.6	213.9	191.6	163.4	139.3	117.1	105.4	96.49	70.38	51.13	39.21	31.55	23.96	18.91	14.92	13.82	16.44	31.96	185.5	756.3	593.1	17.73	2.632	2.384	2.379	2.262	2.533	2.787	2.726	2.689	2.859	2.734	2.593	2.476	2.462	2.508	2.304	2.118	2.118	2.202	2.128	1.813	1.998	2.008	1.995	2.010	1.853	2.191
470.0	170.1	377.3	877.8	711.6	485.9	520.9	538.2	535.5	502.8	479.8	445.8	417.6	382.8	348.6	319.9	298.4	284.1	276.5	268.5	257.6	248.4	239.6	238.1	238.0	236.0	233.4	230.2	227.0	222.7	215.9	199.7	178.6	155.0	132.5	112.8	96.02	88.11	76.38	57.52	41.93	32.95	26.01	20.65	16.28	13.31	11.60	13.32	46.73	219.4	540.3	561.7	94.13	6.275	2.410	2.307	2.277	2.440	2.595	2.493	2.663	2.474	2.440	2.348	2.259	2.193	2.114	1.932	1.951	1.926	1.897	1.826	1.790	1.793	1.884	1.792	1.784	1.919
475.0	163.3	265.3	564.5	999.8	547.2	465.7	489.4	480.7	461.5	431.5	408.5	377.9	348.1	316.8	288.2	267.4	253.1	245.2	238.8	230.7	219.6	214.5	210.8	208.8	209.9	207.7	205.3	203.0	202.1	196.5	183.8	165.2	143.9	125.8	107.2	90.18	78.91	71.98	63.53	46.29	34.87	28.05	22.31	17.88	14.56	11.60	9.985	16.11	53.11	128.3	308.3	634.9	138.3	5.509	2.244	2.258	2.489	2.431	2.341	2.275	2.247	2.419	2.168	2.095	2.028	2.003	1.684	1.720	1.709	1.761	1.694	1.729	1.606	1.729	1.587	1.663	1.533
480.0	155.0	230.6	364.0	973.9	762.7	432.6	455.5	449.3	423.5	402.3	384.5	353.7	324.2	293.2	265.0	247.0	234.2	226.9	217.2	209.7	202.3	193.5	190.7	192.4	193.6	192.3	187.6	188.1	187.4	182.2	170.0	154.5	137.2	119.6	103.4	87.19	74.52	65.79	62.75	51.75	36.17	28.81	23.45	18.98	15.13	12.01	9.811	9.613	16.65	32.29	80.39	403.7	584.6	24.98	3.079	2.304	2.451	2.183	2.318	2.119	2.181	2.117	1.989	1.903	1.888	1.820	1.672	1.672	1.824	1.703	1.649	1.556	1.540	1.464	1.575	1.553	1.474
485.0	145.0	211.0	289.3	717.7	 1029	456.1	425.0	419.8	395.6	376.6	357.5	332.2	307.0	274.7	248.2	229.4	218.8	210.0	202.1	194.4	185.3	180.5	176.8	177.1	178.3	176.7	175.1	174.3	174.2	170.4	159.6	146.4	129.9	114.2	98.25	83.79	71.97	61.87	57.69	53.60	40.29	29.51	23.90	19.12	16.07	12.90	10.08	8.868	8.816	11.30	21.50	113.7	520.2	556.8	20.98	2.549	2.344	2.021	1.992	2.193	1.936	1.935	1.957	1.891	1.769	1.770	1.608	1.463	1.640	1.531	1.433	1.470	1.460	1.447	1.530	1.441	1.424
490.0	131.8	200.9	251.6	419.0	982.7	715.8	396.7	382.9	365.3	348.0	326.5	300.0	277.1	250.0	226.7	207.8	197.7	187.6	182.2	174.9	165.6	159.8	158.6	158.4	159.1	158.6	158.0	157.0	158.2	154.4	146.7	134.6	119.7	106.4	91.92	79.41	68.99	58.17	52.13	48.83	44.26	33.15	24.89	19.91	16.63	13.64	11.14	9.386	7.659	7.156	8.657	28.69	145.7	441.6	375.0	98.07	6.275	2.092	1.928	1.964	1.893	1.872	1.812	1.706	1.635	1.644	1.548	1.427	1.429	1.362	1.342	1.276	1.287	1.313	1.262	1.291	1.305
495.0	102.4	194.1	221.8	290.3	588.2	 1024	478.4	343.8	326.9	308.9	293.5	275.0	246.2	224.7	200.7	183.5	173.4	165.3	159.4	152.5	145.8	140.7	139.9	138.3	140.6	139.1	140.0	138.4	140.7	136.3	132.5	120.3	108.4	96.27	85.48	73.75	64.47	55.32	48.06	42.36	40.71	36.76	27.23	20.17	17.00	14.20	11.33	9.793	7.944	6.585	5.978	9.962	35.48	104.6	273.6	587.2	146.6	4.686	1.996	1.809	1.733	1.648	1.783	1.564	1.411	1.332	1.382	1.325	1.169	1.259	1.146	1.075	1.139	1.197	1.101	1.134	1.161
500.0	85.53	169.9	220.1	241.4	354.9	963.3	709.8	319.0	302.1	288.5	270.4	250.6	225.3	203.7	182.2	167.4	157.3	151.0	142.0	137.5	131.6	127.2	125.6	125.0	126.0	124.6	125.4	126.5	127.5	124.4	119.8	110.6	98.95	88.79	78.50	69.00	60.26	52.52	45.96	39.66	35.95	36.05	30.02	21.11	16.57	13.91	11.62	9.753	8.279	6.700	5.736	5.915	11.01	26.00	72.67	379.9	559.0	26.42	2.551	1.856	1.669	1.656	1.492	1.464	1.281	1.243	1.233	1.224	1.104	1.124	1.087	1.043	1.090	1.083	0.935	1.041	0.961
505.0	76.73	153.4	214.6	217.2	267.7	664.1	964.2	327.6	270.5	255.6	249.0	227.7	207.9	188.2	168.4	153.5	140.5	135.0	128.6	124.8	117.6	115.2	113.9	113.4	113.9	114.3	114.7	114.8	116.1	114.0	109.9	100.0	90.84	81.07	72.59	64.83	57.05	49.36	43.02	37.42	32.44	32.38	30.85	23.19	17.03	14.15	11.65	10.21	8.520	6.930	5.934	5.281	5.540	8.689	18.79	108.2	479.2	435.2	21.71	1.870	1.577	1.618	1.404	1.526	1.238	1.167	1.253	1.058	1.053	1.042	0.956	0.941	0.959	0.966	0.979	0.923	1.004
510.0	75.37	124.0	191.5	202.0	216.4	352.3	867.6	652.1	249.7	226.3	215.0	204.3	181.9	163.5	147.4	132.9	123.1	118.0	113.2	107.0	102.7	99.61	97.30	98.08	98.42	98.80	98.65	99.97	100.7	98.49	95.59	88.83	80.40	71.78	64.22	57.08	51.27	44.73	38.89	33.98	29.42	26.91	27.11	24.89	18.90	14.24	11.57	10.15	8.302	7.191	6.113	5.121	4.493	4.823	6.708	26.44	132.9	338.2	318.2	98.44	5.356	1.414	1.258	1.188	1.150	1.087	1.001	0.986	0.985	0.942	0.837	0.858	0.882	0.826	0.818	0.826	0.803
515.0	59.62	96.72	151.9	198.6	183.2	228.3	457.7	921.1	288.1	200.6	188.9	174.7	158.0	140.2	125.6	114.9	106.4	101.7	96.73	93.40	86.63	84.58	83.50	83.90	83.72	84.45	84.48	84.01	85.60	84.33	82.00	76.68	70.35	62.65	55.39	50.62	45.54	39.94	34.86	31.21	27.24	23.64	22.35	22.44	21.18	15.46	11.39	9.830	8.284	7.057	6.002	5.079	4.457	4.269	4.048	8.273	31.54	79.21	192.0	439.8	131.4	3.499	1.130	0.972	1.027	0.919	0.893	0.849	0.893	0.723	0.711	0.691	0.815	0.701	0.586	0.773	0.681
520.0	54.34	82.74	120.5	178.2	174.1	182.5	250.9	792.7	600.8	184.3	171.2	155.7	140.7	126.5	113.2	102.5	94.05	89.58	85.45	81.32	77.02	75.20	73.37	75.18	74.97	74.00	75.22	75.46	73.96	76.92	72.67	68.84	62.97	55.74	50.47	46.28	41.09	35.96	32.41	28.20	25.10	21.92	19.19	18.99	20.14	16.83	11.47	9.685	8.075	6.790	5.893	4.952	4.330	3.873	3.325	4.139	9.130	19.61	49.80	277.5	408.5	25.67	1.667	1.142	0.987	0.804	0.813	0.780	0.765	0.679	0.670	0.676	0.659	0.584	0.633	0.687	0.599
525.0	48.66	77.39	103.8	157.4	168.2	160.6	184.2	497.2	846.4	225.3	154.2	140.0	129.5	113.8	103.3	92.81	84.58	79.38	76.88	73.11	69.49	67.27	65.33	66.70	67.59	65.87	66.29	67.07	67.02	68.38	64.91	61.90	56.02	50.48	45.56	41.85	37.44	33.12	29.83	26.07	23.55	20.84	18.00	17.08	17.59	17.17	12.57	9.416	7.861	6.537	5.639	4.855	4.342	3.890	3.253	3.063	3.963	6.198	12.67	77.23	329.2	215.1	19.69	1.150	0.909	0.866	0.802	0.791	0.635	0.610	0.570	0.616	0.585	0.593	0.582	0.560	0.613
530.0	43.90	66.01	88.23	118.9	156.7	144.6	148.0	236.7	688.0	571.1	154.2	123.3	113.9	99.16	89.14	80.42	74.04	68.60	65.87	62.69	59.58	58.30	55.92	57.64	56.88	57.67	58.10	57.82	57.45	57.77	56.43	53.14	48.80	44.70	40.34	36.53	33.27	29.11	26.05	23.20	20.93	18.43	16.30	14.75	14.57	14.92	13.77	10.18	7.533	6.216	5.391	4.708	4.067	3.853	3.178	2.896	2.830	3.265	4.393	18.69	89.42	217.5	250.6	82.78	3.607	0.874	0.728	0.681	0.623	0.572	0.618	0.566	0.569	0.514	0.492	0.450	0.493
535.0	34.93	55.36	80.40	94.50	125.1	141.9	125.1	145.1	316.5	775.9	332.1	106.2	96.44	84.38	75.66	68.75	63.73	59.13	56.05	54.07	52.13	50.45	47.72	48.28	48.11	48.31	48.58	49.51	49.62	48.43	47.80	45.87	42.21	37.68	34.80	31.56	28.60	24.95	23.47	20.70	18.58	16.43	14.66	13.42	12.35	11.50	12.27	11.32	7.972	5.876	5.188	4.561	4.024	3.597	3.232	2.819	2.564	2.400	2.412	5.429	21.22	50.76	138.1	313.9	28.13	2.503	0.793	0.582	0.543	0.544	0.473	0.521	0.544	0.404	0.450	0.454	0.451
540.0	33.77	50.71	70.31	82.98	102.1	132.7	112.1	111.8	161.7	598.8	613.4	108.2	86.67	75.79	68.13	60.97	55.19	52.69	49.39	48.41	45.74	43.45	42.42	43.10	42.50	43.12	43.01	43.05	44.75	44.05	41.97	40.65	37.79	33.61	30.88	28.18	25.68	22.47	21.11	18.77	16.95	14.76	13.58	11.97	11.28	10.01	10.18	10.77	8.720	5.894	5.069	4.440	3.758	3.328	3.005	2.965	2.445	2.241	1.941	2.632	5.927	12.41	34.96	191.3	283.1	24.81	1.040	0.682	0.580	0.525	0.424	0.423	0.446	0.369	0.349	0.404	0.388
545.0	32.08	47.40	60.92	70.53	85.64	116.2	109.8	98.27	111.1	337.4	765.7	175.4	78.05	70.13	60.16	54.74	50.78	47.84	44.05	42.48	40.79	38.59	38.11	37.94	39.05	38.66	37.95	39.35	38.83	39.24	37.14	35.81	32.85	30.21	28.13	25.68	23.45	21.03	19.52	17.15	15.45	13.78	12.74	10.87	9.956	9.144	8.587	9.472	9.260	6.709	5.025	4.004	3.616	3.226	2.897	2.908	2.570	2.066	1.875	1.996	2.451	3.761	8.957	52.87	233.1	204.5	18.97	0.745	0.603	0.482	0.470	0.406	0.333	0.311	0.325	0.374	0.383
550.0	24.34	41.02	52.42	65.10	70.63	90.65	105.2	85.94	85.53	148.6	517.1	508.4	91.22	59.61	53.06	47.83	43.19	39.47	37.51	36.66	34.50	32.88	32.30	31.80	32.52	32.31	32.18	32.86	33.07	33.49	32.46	30.36	27.92	25.43	23.65	21.81	19.94	17.86	16.51	14.67	13.39	12.06	10.76	10.09	8.748	8.221	7.321	7.231	7.934	7.206	5.134	3.834	3.312	2.895	2.770	2.648	2.328	2.244	1.839	1.646	1.729	1.844	2.895	12.75	63.01	166.1	201.7	72.08	2.729	0.529	0.484	0.415	0.333	0.313	0.290	0.335	0.353
555.0	21.43	36.38	44.28	50.42	57.39	66.61	89.38	81.79	74.18	84.85	205.8	582.2	282.9	50.66	44.80	39.49	36.44	32.99	31.08	29.97	28.79	27.51	27.09	26.95	26.95	26.88	27.01	26.29	27.73	27.27	26.39	24.71	23.01	20.82	20.19	18.27	16.40	14.89	13.63	12.48	11.30	10.12	9.116	8.523	7.923	6.961	6.239	5.720	5.995	6.640	5.588	3.855	2.952	2.565	2.615	2.264	2.054	2.166	1.979	1.558	1.573	1.336	1.542	3.756	14.91	38.63	101.4	242.4	28.27	1.844	0.448	0.398	0.326	0.272	0.295	0.268	0.209
560.0	24.04	30.76	38.73	44.91	50.64	54.04	74.01	79.76	63.75	63.49	93.73	383.7	497.9	59.62	38.29	34.16	31.62	29.13	26.89	26.12	24.75	23.49	23.46	23.14	22.90	22.67	23.35	22.57	23.42	23.30	22.52	21.41	19.51	18.22	16.85	15.42	14.25	13.19	11.93	10.93	10.02	8.771	8.016	7.784	6.947	6.051	5.498	5.110	4.793	5.283	5.346	4.254	2.835	2.425	2.249	2.085	1.925	1.918	1.936	1.633	1.337	1.316	1.379	1.790	4.341	9.581	25.59	140.3	198.1	23.51	0.740	0.343	0.337	0.670	0.227	0.220	0.183
565.0	19.88	29.28	34.24	36.74	38.83	44.39	56.46	74.78	58.46	52.61	60.78	193.5	557.0	125.1	33.26	28.18	26.77	25.12	23.12	22.50	21.29	20.01	19.92	19.10	20.15	19.05	19.32	19.03	20.31	19.74	19.52	18.07	16.87	15.50	14.38	13.25	12.31	11.20	10.33	9.411	8.496	7.919	6.910	6.582	5.941	5.279	4.961	4.533	3.987	3.997	4.630	4.281	3.091	2.154	2.005	2.001	1.861	1.776	1.683	1.537	1.381	1.268	1.279	1.311	1.851	3.008	6.767	37.64	154.2	158.6	15.80	0.476	0.334	0.343	0.179	0.214	0.141
570.0	17.09	24.02	28.51	30.52	31.77	35.77	39.78	58.39	62.23	46.00	46.28	78.52	327.4	388.4	54.82	22.37	21.61	20.02	18.81	17.25	16.41	15.90	15.78	15.23	15.75	14.77	15.21	15.22	15.79	15.41	15.48	13.97	13.33	12.24	11.41	10.62	9.719	8.879	8.085	7.445	6.885	6.253	5.606	5.104	4.678	4.322	4.008	3.655	3.209	3.069	3.298	3.686	3.210	2.326	1.761	1.741	1.568	1.485	1.524	1.338	1.274	1.205	1.109	1.138	1.273	1.612	2.430	9.329	41.21	108.7	120.1	18.28	1.386	0.291	0.204	0.163	0.147
575.0	15.02	21.76	27.61	25.38	25.66	27.33	29.73	38.92	55.41	45.42	38.76	46.61	116.5	374.2	234.9	17.74	16.19	15.05	14.78	13.54	12.18	12.13	12.19	11.63	11.79	11.38	11.63	11.55	11.91	12.26	11.31	10.88	9.958	9.223	8.782	7.956	7.679	6.777	6.090	5.611	5.209	4.852	4.249	3.916	3.686	3.359	3.120	2.745	2.513	2.360	2.328	2.356	2.865	2.298	1.653	1.351	1.316	1.130	1.132	1.080	1.100	1.241	1.057	0.989	1.058	1.151	1.444	2.939	9.959	25.26	57.48	119.0	25.62	0.984	0.159	0.130	0.135
580.0	15.94	20.44	24.41	23.70	23.37	24.24	25.80	30.19	47.09	48.09	36.25	37.82	50.46	218.2	385.1	35.32	13.35	12.51	11.73	10.42	10.10	10.08	9.626	9.452	9.697	9.279	9.314	9.456	9.697	9.084	9.123	9.024	7.868	7.803	7.025	6.703	6.117	5.806	5.097	4.607	4.235	3.906	3.494	3.250	3.036	2.760	2.704	2.379	2.073	1.984	1.814	1.670	2.164	2.225	1.812	1.288	1.167	1.036	1.043	0.946	0.912	1.065	1.021	0.824	0.943	0.938	1.033	1.387	2.848	6.201	14.22	69.58	106.9	18.97	0.271	0.116	0.056
585.0	15.52	20.21	22.52	22.14	19.41	20.50	22.41	25.74	41.85	50.54	38.60	35.65	34.75	101.6	379.6	93.36	11.61	10.58	9.748	8.909	8.535	8.318	8.045	8.140	7.699	7.843	7.489	7.729	7.860	7.727	7.495	7.212	6.936	6.526	5.626	5.520	5.077	4.441	4.294	3.575	3.411	3.307	3.183	2.738	2.598	2.474	2.201	2.087	1.878	1.670	1.508	1.373	1.552	1.996	1.802	1.370	1.098	0.928	0.884	0.948	0.726	0.880	0.948	0.851	0.761	0.727	0.913	0.933	1.238	1.829	3.518	18.60	80.24	85.92	10.06	0.172	0.091
590.0	13.63	20.81	23.91	18.83	17.19	17.97	19.97	22.56	31.75	46.92	44.73	35.25	31.67	40.98	189.2	292.5	36.88	8.497	7.525	7.063	6.646	6.645	6.098	6.661	6.107	6.312	6.044	6.141	5.945	6.113	6.018	5.586	5.454	5.028	4.508	4.187	3.913	3.601	3.302	3.137	2.886	2.666	2.419	2.222	2.099	1.927	1.728	1.682	1.531	1.405	1.224	1.166	1.086	1.378	1.534	1.412	0.944	0.821	0.730	0.759	0.600	0.667	0.650	0.778	0.776	0.719	0.716	0.740	0.759	0.834	1.073	4.390	21.06	57.07	50.76	15.70	0.844
595.0	11.29	20.81	20.50	19.56	15.09	16.38	18.73	20.26	26.04	38.97	51.65	37.78	31.91	25.86	61.14	237.3	193.5	7.744	6.156	5.713	5.429	5.193	4.760	4.787	4.900	4.625	4.767	4.760	4.599	4.658	4.524	4.203	3.975	3.999	3.682	3.186	2.880	2.658	2.496	2.373	2.270	2.059	1.933	1.713	1.499	1.529	1.438	1.305	1.245	1.128	1.001	0.946	0.825	0.823	1.137	1.276	1.072	0.708	0.599	0.541	0.527	0.516	0.514	0.558	0.594	0.762	0.617	0.578	0.612	0.553	0.533	1.168	4.879	12.98	27.31	69.48	21.88
600.0	11.81	19.16	21.57	17.46	16.15	15.71	17.84	20.95	26.45	35.94	54.81	45.33	34.50	25.66	26.44	123.6	304.9	27.33	5.459	4.983	4.429	4.292	4.099	3.991	3.903	3.539	3.775	4.095	3.700	3.582	3.713	3.719	3.661	3.158	2.896	2.631	2.514	2.361	2.120	2.051	1.884	1.762	1.475	1.362	1.319	1.321	1.189	1.134	0.918	0.870	0.888	0.709	0.682	0.739	0.776	1.063	1.079	0.872	0.578	0.416	0.497	0.521	0.439	0.491	0.564	0.740	0.610	0.487	0.508	0.425	0.347	0.466	1.244	3.022	6.753	39.07	63.10
605.0	12.45	18.36	18.81	17.86	15.09	15.42	19.82	24.35	30.61	40.43	57.21	59.44	42.45	30.61	23.45	55.11	275.8	75.98	5.143	4.314	3.844	3.746	3.506	3.552	3.516	3.168	3.164	3.516	3.366	3.032	3.362	3.070	2.974	2.542	2.349	2.375	2.229	1.952	1.836	1.650	1.476	1.428	1.314	1.231	1.280	1.170	1.024	0.947	0.837	0.788	0.714	0.639	0.637	0.619	0.633	0.765	0.903	0.904	0.616	0.419	0.512	0.540	0.457	0.450	0.545	0.582	0.593	0.585	0.463	0.419	0.301	0.377	0.446	0.778	1.657	10.19	45.30
610.0	14.91	21.18	20.68	17.71	15.16	17.17	22.13	28.88	34.93	46.91	59.76	68.54	53.12	36.75	27.77	29.66	132.6	228.6	30.88	3.680	2.978	3.008	2.896	2.886	2.807	2.563	2.624	2.674	2.582	2.568	2.516	2.392	2.289	2.098	2.043	1.868	1.730	1.546	1.519	1.396	1.269	1.176	1.045	1.029	1.050	1.003	0.891	0.741	0.696	0.689	0.566	0.540	0.528	0.502	0.510	0.563	0.675	0.841	0.654	0.479	0.493	0.488	0.416	0.464	0.489	0.446	0.555	0.552	0.461	0.382	0.330	0.345	0.295	0.316	0.491	2.393	11.84
615.0	14.80	25.15	20.74	15.68	15.34	17.64	22.20	27.17	34.93	46.20	54.62	63.05	58.57	37.36	28.73	22.84	47.94	172.6	161.1	4.021	2.431	2.340	2.367	2.164	2.147	2.045	2.142	1.925	2.197	2.089	2.043	1.836	1.760	1.568	1.494	1.465	1.363	1.215	1.146	1.154	1.038	0.928	0.838	0.856	0.794	0.700	0.644	0.637	0.542	0.540	0.424	0.475	0.436	0.362	0.449	0.371	0.374	0.603	0.637	0.611	0.386	0.450	0.414	0.430	0.415	0.354	0.424	0.536	0.482	0.343	0.293	0.231	0.251	0.236	0.242	0.640	2.777
620.0	14.74	22.15	22.13	19.00	17.55	17.54	22.80	27.15	33.26	40.68	49.76	57.83	60.88	38.76	28.31	20.34	25.17	83.66	231.3	25.50	2.059	2.008	1.803	1.848	1.869	1.735	1.802	1.574	1.578	1.591	1.534	1.613	1.399	1.483	1.241	1.190	1.010	1.080	0.898	0.906	0.871	0.796	0.687	0.774	0.632	0.615	0.540	0.605	0.466	0.437	0.407	0.386	0.308	0.355	0.349	0.345	0.348	0.350	0.631	0.599	0.361	0.373	0.337	0.402	0.365	0.301	0.374	0.472	0.435	0.371	0.310	0.262	0.256	0.242	0.184	0.264	0.768
625.0	14.71	21.70	21.38	18.19	15.03	17.56	21.48	27.26	33.51	40.39	47.99	55.02	58.74	42.89	28.80	20.67	20.04	35.56	190.1	65.80	2.132	1.733	1.610	1.726	1.645	1.558	1.558	1.453	1.366	1.320	1.374	1.331	1.197	1.175	1.114	1.090	0.863	0.752	0.870	0.839	0.660	0.700	0.572	0.625	0.542	0.608	0.434	0.520	0.396	0.397	0.390	0.337	0.290	0.310	0.280	0.297	0.308	0.289	0.397	0.539	0.372	0.337	0.326	0.363	0.298	0.353	0.400	0.373	0.330	0.432	0.313	0.222	0.255	0.176	0.137	0.139	0.288
630.0	11.59	20.89	20.34	17.97	16.59	17.04	21.45	26.05	31.06	40.59	45.86	52.78	53.34	46.09	30.08	20.58	18.52	17.33	76.08	176.5	27.43	1.592	1.419	1.418	1.258	1.312	1.229	1.181	1.134	1.119	1.114	1.092	0.989	0.912	0.888	0.815	0.755	0.674	0.701	0.652	0.572	0.568	0.453	0.468	0.432	0.469	0.407	0.431	0.322	0.338	0.323	0.317	0.290	0.270	0.239	0.273	0.268	0.242	0.300	0.385	0.430	0.326	0.331	0.310	0.310	0.334	0.372	0.364	0.324	0.373	0.326	0.274	0.224	0.149	0.137	0.113	0.167
635.0	12.45	21.71	22.44	18.13	16.62	17.79	22.38	24.96	30.57	37.89	46.04	50.41	47.40	46.67	33.02	21.34	18.05	13.39	21.74	114.4	140.1	2.807	1.225	1.211	0.988	1.040	1.000	0.981	0.936	0.853	0.933	0.846	0.754	0.810	0.627	0.710	0.550	0.586	0.542	0.545	0.493	0.499	0.460	0.394	0.363	0.390	0.377	0.393	0.279	0.292	0.237	0.244	0.246	0.229	0.178	0.180	0.196	0.204	0.253	0.294	0.393	0.350	0.278	0.353	0.300	0.334	0.284	0.279	0.276	0.301	0.251	0.310	0.247	0.222	0.174	0.153	0.148
640.0	13.10	24.25	19.26	18.13	14.29	16.85	20.83	24.33	28.85	35.24	44.08	46.13	44.29	43.31	36.90	22.30	18.08	12.48	8.602	47.65	190.8	22.74	1.103	1.015	0.873	0.796	0.791	0.791	0.861	0.860	0.712	0.724	0.592	0.642	0.629	0.591	0.504	0.450	0.447	0.466	0.388	0.405	0.399	0.396	0.320	0.303	0.319	0.326	0.271	0.237	0.250	0.191	0.212	0.214	0.136	0.177	0.236	0.188	0.215	0.301	0.345	0.400	0.336	0.332	0.324	0.330	0.281	0.311	0.244	0.252	0.244	0.212	0.295	0.179	0.118	0.147	0.098
645.0	13.27	24.44	22.36	19.90	15.27	16.67	19.08	22.90	28.56	32.81	41.94	46.11	42.37	37.76	36.95	23.09	17.98	11.85	5.427	15.48	146.8	90.96	1.232	0.863	0.818	0.725	0.683	0.776	0.687	0.664	0.637	0.630	0.572	0.544	0.498	0.439	0.447	0.374	0.364	0.324	0.345	0.370	0.327	0.338	0.282	0.355	0.310	0.314	0.287	0.218	0.230	0.192	0.200	0.220	0.160	0.223	0.183	0.162	0.183	0.233	0.231	0.322	0.305	0.333	0.264	0.284	0.274	0.297	0.219	0.254	0.237	0.282	0.276	0.176	0.119	0.133	0.085
650.0	12.63	27.27	24.76	21.24	15.23	16.84	19.30	22.84	25.12	31.97	40.24	41.98	39.65	35.46	34.83	24.17	17.03	11.19	5.069	5.741	69.31	156.9	8.141	0.753	0.862	0.630	0.685	0.576	0.631	0.572	0.578	0.564	0.554	0.470	0.413	0.360	0.346	0.352	0.368	0.302	0.317	0.335	0.292	0.262	0.239	0.227	0.214	0.263	0.242	0.200	0.222	0.191	0.172	0.151	0.132	0.203	0.174	0.197	0.176	0.183	0.193	0.227	0.305	0.291	0.244	0.241	0.241	0.274	0.244	0.259	0.252	0.200	0.195	0.221	0.110	0.102	0.125
