Sample:	'1
File name:	H2025090901ÅË×¯¶þ´åÇÅ.FD3
Run date:	'17:00:55, 09/10/2025
Operator:	Administrator
Comment:	'

Instrument
Model:	F-2700 FL Spectrophotometer
Serial number:	23C7-003
ROM Version:	4J14000 07

Instrument parameters
Measurement type:	3-D scan
Data mode:	Fluorescence
EX  Start WL:	220.0 nm
EX  End WL:	600.0 nm
EX Sampling interval:	5.0 nm
EM  Start WL:	230.0 nm
EM  End WL:	650.0 nm
EM Sampling interval:	5.0 nm
Scan speed:	12000 nm/min
EX Slit:	5.0 nm
EM Slit:	5.0 nm
PMT Voltage:	700 V
Response:	Auto 
Corrected spectra:	Off
Contour interval:	50.000

Peak integration
Integration method:	Rectangular
Sensitivity:	1
Threshold:	1.000

Peaks
No.	ApexEX/EM(nm)	Height(Data)
1	225.0/310.0	674.5
2	225.0/600.0	56.20
3	225.0/625.0	49.30
4	230.0/595.0	55.75
5	240.0/260.0	216.1
6	245.0/270.0	215.5
7	245.0/405.0	618.5
8	245.0/535.0	157.6
9	250.0/275.0	268.9
10	250.0/400.0	624.6
11	250.0/545.0	125.8
12	255.0/280.0	367.6
13	255.0/560.0	115.4
14	260.0/570.0	96.96
15	265.0/405.0	604.0
16	265.0/585.0	110.9
17	270.0/300.0	1556
18	270.0/390.0	613.2
19	270.0/595.0	126.2
20	275.0/305.0	1934
21	275.0/380.0	623.2
22	275.0/610.0	135.0
23	280.0/620.0	107.1
24	300.0/335.0	464.5
25	305.0/345.0	423.3
26	310.0/350.0	391.9
27	315.0/355.0	401.8
28	320.0/360.0	418.2
29	325.0/370.0	404.1
30	440.0/515.0	23.40
31	505.0/275.0	2.108
32	510.0/280.0	2.472
33	545.0/300.0	7.438
34	550.0/305.0	8.581
35	560.0/310.0	8.490
36	575.0/290.0	40.40

Data points
	220.0	225.0	230.0	235.0	240.0	245.0	250.0	255.0	260.0	265.0	270.0	275.0	280.0	285.0	290.0	295.0	300.0	305.0	310.0	315.0	320.0	325.0	330.0	335.0	340.0	345.0	350.0	355.0	360.0	365.0	370.0	375.0	380.0	385.0	390.0	395.0	400.0	405.0	410.0	415.0	420.0	425.0	430.0	435.0	440.0	445.0	450.0	455.0	460.0	465.0	470.0	475.0	480.0	485.0	490.0	495.0	500.0	505.0	510.0	515.0	520.0	525.0	530.0	535.0	540.0	545.0	550.0	555.0	560.0	565.0	570.0	575.0	580.0	585.0	590.0	595.0	600.0
230.0	24.07	396.3	1577	622.9	36.91	5.749	4.683	4.003	3.926	3.377	3.158	3.301	3.018	2.668	1.929	1.700	1.372	1.344	1.201	1.110	1.000	0.978	0.905	0.841	0.797	0.792	0.665	0.565	0.648	0.615	0.559	0.511	0.511	0.518	0.430	0.446	0.391	0.414	0.397	0.341	0.350	0.343	0.384	0.332	0.309	0.333	0.587	2.615	5.868	5.382	2.280	0.587	0.253	0.239	0.242	0.249	0.269	0.273	0.252	0.225	0.242	0.244	0.247	0.254	0.289	0.276	0.249	0.249	0.262	0.252	0.272	0.254	0.252	0.260	0.270	0.292	0.238
235.0	46.60	117.1	806.3	1916	455.3	66.05	6.910	5.026	4.325	3.780	3.261	3.527	3.097	2.444	2.272	1.716	1.456	1.405	1.071	1.179	1.000	0.873	1.004	0.964	0.830	0.729	0.615	0.658	0.610	0.580	0.531	0.489	0.524	0.544	0.496	0.404	0.397	0.427	0.405	0.315	0.326	0.334	0.355	0.418	0.448	0.452	0.314	0.901	2.027	4.458	6.579	7.335	4.208	1.010	0.252	0.286	0.286	0.249	0.237	0.230	0.314	0.267	0.309	0.260	0.243	0.240	0.247	0.292	0.247	0.244	0.228	0.217	0.283	0.247	0.284	0.249	0.253
240.0	66.83	81.02	220.6	1291	2355	383.4	31.37	5.490	5.132	4.202	3.675	3.299	2.884	2.903	2.330	1.916	1.415	1.476	1.117	1.190	1.087	1.009	0.968	1.116	0.894	0.684	0.599	0.716	0.556	0.656	0.550	0.542	0.508	0.501	0.471	0.434	0.378	0.399	0.341	0.339	0.345	0.353	0.269	0.345	0.439	0.577	0.385	0.468	0.685	1.343	3.272	8.164	11.43	8.482	3.301	0.556	0.268	0.253	0.228	0.225	0.361	0.256	0.253	0.264	0.259	0.264	0.286	0.260	0.261	0.296	0.210	0.228	0.313	0.277	0.296	0.334	0.258
245.0	47.38	118.2	95.74	376.8	1919	2561	295.3	13.79	5.393	4.704	3.964	3.557	3.081	2.683	1.932	1.907	1.320	1.521	1.281	1.187	1.071	0.937	1.078	0.955	0.888	0.597	0.661	0.630	0.628	0.597	0.590	0.547	0.488	0.470	0.481	0.408	0.410	0.351	0.400	0.351	0.358	0.343	0.319	0.321	0.341	0.462	0.560	0.745	0.471	0.478	0.954	2.730	7.311	12.56	13.36	7.384	2.124	0.314	0.282	0.259	0.289	0.251	0.234	0.260	0.302	0.259	0.249	0.201	0.259	0.314	0.223	0.212	0.263	0.317	0.269	0.305	0.252
250.0	27.14	75.59	137.1	152.4	542.0	1843	2653	1076	79.01	6.596	4.997	4.476	3.684	3.211	1.966	2.169	1.594	1.552	1.306	1.242	1.155	1.016	1.016	0.925	0.840	0.807	0.763	0.628	0.680	0.655	0.608	0.555	0.564	0.492	0.446	0.480	0.394	0.389	0.365	0.331	0.375	0.369	0.307	0.362	0.326	0.381	0.369	0.615	0.622	0.687	0.594	0.892	1.954	4.133	7.862	11.44	14.07	12.26	6.907	2.244	0.435	0.276	0.276	0.287	0.295	0.255	0.232	0.265	0.259	0.319	0.273	0.273	0.232	0.310	0.318	0.256	0.266
255.0	22.32	29.88	78.10	193.1	197.2	441.9	1505	3955	1563	92.16	6.562	5.717	3.912	3.592	2.724	2.233	1.722	1.791	1.406	1.311	1.239	1.119	1.044	0.859	1.003	0.834	0.784	0.699	0.547	0.690	0.565	0.576	0.507	0.457	0.495	0.435	0.448	0.392	0.395	0.346	0.405	0.378	0.306	0.324	0.351	0.301	0.358	0.356	0.406	0.622	0.840	0.951	0.941	1.182	1.981	2.912	5.239	12.96	21.26	20.56	10.88	2.329	0.355	0.322	0.347	0.259	0.276	0.274	0.297	0.261	0.245	0.242	0.263	0.293	0.290	0.316	0.258
260.0	22.99	18.79	33.14	141.5	216.1	146.6	397.5	2473	4634	1241	53.36	7.253	5.837	3.753	3.545	2.387	1.974	1.920	1.599	1.350	1.263	1.139	1.071	0.929	1.099	0.902	0.866	0.870	0.631	0.738	0.599	0.510	0.495	0.418	0.530	0.396	0.427	0.390	0.371	0.349	0.396	0.339	0.314	0.400	0.322	0.260	0.302	0.260	0.334	0.353	0.609	1.014	1.322	1.012	0.807	0.898	1.428	3.621	9.817	20.17	27.13	20.40	7.684	1.097	0.350	0.328	0.301	0.269	0.294	0.318	0.227	0.245	0.257	0.283	0.243	0.304	0.365
265.0	19.35	15.29	16.91	55.63	202.0	185.3	115.2	699.9	3545	5035	922.0	20.80	6.294	4.706	3.541	2.536	2.161	1.961	1.527	1.454	1.286	1.340	1.116	1.080	0.968	0.948	0.756	0.912	0.801	0.716	0.784	0.543	0.548	0.500	0.549	0.507	0.368	0.411	0.389	0.370	0.392	0.393	0.352	0.366	0.290	0.379	0.308	0.299	0.267	0.278	0.383	0.565	1.046	1.511	1.111	0.673	0.545	1.067	2.524	6.221	15.93	29.92	27.46	17.57	4.289	0.435	0.304	0.301	0.261	0.346	0.312	0.260	0.307	0.342	0.276	0.287	0.350
270.0	19.98	21.30	17.92	22.41	79.51	215.5	201.6	198.7	988.6	3542	5472	2166	59.10	6.923	4.696	3.607	2.689	2.312	1.753	1.623	1.467	1.290	1.263	1.100	0.966	0.928	0.825	0.890	0.860	0.819	0.725	0.619	0.611	0.537	0.492	0.572	0.413	0.443	0.365	0.358	0.367	0.386	0.366	0.373	0.328	0.292	0.322	0.318	0.281	0.278	0.272	0.337	0.532	0.780	1.220	1.357	1.257	0.837	0.885	1.719	4.009	9.218	15.96	26.14	28.14	26.61	11.50	3.724	0.524	0.364	0.308	0.278	0.304	0.332	0.278	0.340	0.309
275.0	36.53	33.61	25.93	19.89	29.23	81.21	268.9	246.5	268.1	861.8	2902	7664	1085	67.35	7.068	4.597	3.540	2.383	2.040	1.905	1.583	1.553	1.454	1.217	1.088	0.858	0.988	0.843	0.920	0.854	0.656	0.792	0.614	0.532	0.563	0.532	0.391	0.424	0.449	0.379	0.346	0.391	0.422	0.450	0.326	0.368	0.326	0.348	0.298	0.273	0.261	0.310	0.326	0.395	0.558	0.759	1.501	2.108	1.499	0.871	1.211	2.398	3.945	6.456	10.11	24.19	42.73	27.73	17.41	3.433	0.488	0.275	0.333	0.350	0.415	0.286	0.319
280.0	55.21	58.20	47.31	32.17	26.63	38.85	149.5	367.6	215.2	260.0	811.2	4719	8009	843.2	35.04	6.556	3.985	3.144	2.598	2.135	1.789	1.514	1.357	1.238	1.057	0.962	0.975	0.808	0.863	0.785	0.673	0.658	0.736	0.600	0.547	0.554	0.427	0.379	0.482	0.415	0.398	0.384	0.478	0.486	0.391	0.480	0.379	0.411	0.327	0.306	0.297	0.386	0.340	0.425	0.363	0.425	0.793	1.544	2.472	2.058	1.031	0.998	1.454	1.944	2.895	6.730	17.98	36.65	54.93	25.98	11.04	1.326	0.398	0.343	0.401	0.315	0.272
285.0	87.62	117.1	102.1	64.25	39.41	37.64	80.84	285.5	421.1	213.6	337.5	1461	6402	6850	567.3	14.40	4.945	3.652	3.049	2.315	1.918	1.647	1.495	1.545	1.124	1.070	0.913	0.866	0.990	0.793	0.632	0.674	0.707	0.586	0.668	0.610	0.530	0.614	0.461	0.504	0.393	0.399	0.488	0.428	0.401	0.598	0.471	0.495	0.532	0.394	0.416	0.425	0.393	0.398	0.389	0.431	0.492	0.826	1.516	2.479	2.771	1.541	1.180	1.231	1.380	2.360	5.033	11.23	28.20	50.35	56.88	21.22	5.148	0.637	0.368	0.333	0.355
290.0	183.6	283.1	257.2	148.2	77.86	67.15	95.66	196.8	463.9	637.6	588.5	839.9	2123	5430	6505	1895	33.85	5.529	3.687	2.754	2.487	1.869	1.639	1.609	1.256	1.174	1.013	1.014	0.942	0.867	0.835	0.782	0.731	0.659	0.703	0.624	0.661	0.575	0.464	0.474	0.450	0.534	0.559	0.564	0.580	0.791	0.871	0.946	0.935	0.769	0.576	0.563	0.515	0.516	0.466	0.557	0.560	0.749	1.027	1.528	2.333	3.151	3.460	2.787	2.397	2.624	3.413	4.714	8.571	15.89	29.13	40.40	36.23	38.23	13.14	4.832	0.725
295.0	297.7	464.3	432.9	250.6	128.2	105.1	141.5	235.7	426.7	849.7	1231	1117	1271	1677	3441	8501	601.6	40.00	5.905	3.734	3.125	2.473	1.867	1.799	1.408	1.329	1.246	1.070	1.018	0.935	0.837	0.840	0.878	0.666	0.712	0.593	0.744	0.657	0.616	0.579	0.591	0.592	0.647	0.810	0.812	1.065	1.142	1.462	1.402	1.124	0.824	0.824	0.740	0.667	0.557	0.681	0.739	1.009	1.087	1.460	1.862	2.800	3.616	5.164	5.892	4.590	4.247	4.590	5.415	6.525	8.800	10.78	12.51	31.09	58.24	61.20	20.89
300.0	357.7	585.5	567.7	320.1	161.5	132.9	177.7	280.6	474.7	857.8	1556	1474	1277	920.9	1010	4994	8106	496.0	21.62	4.996	3.602	2.807	2.182	1.877	1.615	1.354	1.211	1.198	1.196	1.067	0.806	0.922	0.897	0.753	0.716	0.737	0.751	0.705	0.677	0.562	0.625	0.589	0.713	0.919	0.934	1.274	1.441	1.653	1.747	1.389	0.948	1.043	0.834	0.767	0.671	0.824	1.011	1.088	1.293	1.686	2.032	2.751	3.369	4.671	6.763	7.438	6.666	5.461	5.635	5.250	4.933	4.211	4.133	8.360	20.86	50.17	71.04
305.0	399.4	633.5	640.8	359.6	187.1	154.5	209.5	323.1	535.2	896.8	1491	1934	1500	834.2	434.1	1363	6307	4385	349.8	9.397	4.799	3.436	2.660	2.129	1.708	1.567	1.440	1.313	1.189	1.029	1.016	0.867	0.881	0.748	0.800	0.837	0.834	0.702	0.705	0.609	0.652	0.652	0.758	0.934	0.932	1.356	1.696	1.822	1.854	1.456	1.115	1.132	0.982	0.852	0.886	0.957	1.067	1.242	1.431	1.773	2.373	2.862	3.610	4.405	5.756	7.408	8.581	7.684	6.707	5.568	4.299	2.995	2.484	2.818	5.538	13.45	31.73
310.0	415.9	674.5	654.9	379.7	206.0	170.0	228.4	352.5	559.2	906.1	1372	1791	1787	946.7	346.6	405.6	1660	4375	5273	1443	24.67	4.733	3.291	2.598	2.117	1.560	1.479	1.447	1.308	1.096	1.060	0.837	0.868	0.777	0.862	0.880	0.767	0.766	0.642	0.668	0.699	0.642	0.785	0.977	1.021	1.398	1.609	1.999	1.990	1.559	1.192	1.122	0.956	0.914	0.892	0.906	1.084	1.332	1.470	1.979	2.450	3.163	3.793	4.522	5.375	6.308	7.392	7.878	8.490	7.290	5.009	3.128	2.269	1.779	2.156	3.767	7.927
315.0	396.5	648.2	635.8	370.9	203.3	181.8	236.9	355.3	542.5	849.2	1258	1527	1554	1189	409.2	220.6	446.9	1042	2830	7172	433.0	26.58	4.676	3.099	2.428	2.063	1.802	1.604	1.407	1.157	1.022	0.913	0.911	0.888	0.785	0.816	0.810	0.914	0.604	0.589	0.640	0.712	0.680	0.970	1.128	1.242	1.595	1.934	1.932	1.635	1.293	1.009	0.975	0.947	0.860	1.008	1.011	1.288	1.558	1.875	2.301	3.044	3.665	4.394	5.155	5.643	6.200	6.246	6.759	7.068	6.681	4.638	2.667	1.653	1.555	1.749	2.498
320.0	378.4	620.5	608.0	360.8	206.6	185.2	232.1	342.1	520.3	800.6	1152	1362	1318	1093	606.0	218.9	194.6	293.0	719.9	4157	6548	368.3	15.25	4.484	3.148	2.371	2.191	1.679	1.431	1.333	1.073	0.929	0.888	0.816	0.835	0.797	0.800	0.790	0.684	0.568	0.645	0.685	0.794	0.871	1.065	1.238	1.582	1.725	1.738	1.518	1.252	1.071	1.054	0.982	0.949	0.945	1.119	1.332	1.670	1.819	2.432	2.803	3.292	4.039	4.627	5.377	5.591	5.688	5.763	5.731	5.509	5.391	4.388	2.514	1.605	1.292	1.431
325.0	379.7	573.5	585.6	382.5	221.1	191.7	236.4	329.9	491.0	742.0	1055	1234	1170	880.3	708.3	344.9	162.5	143.0	209.4	1090	5096	5501	275.3	8.132	3.578	2.755	2.299	1.750	1.532	1.299	1.241	0.919	1.115	0.880	0.856	0.851	0.825	0.834	0.716	0.637	0.602	0.704	0.715	0.910	1.092	1.352	1.439	1.775	1.723	1.422	1.251	1.217	1.050	1.063	0.964	1.045	1.061	1.413	1.647	1.696	2.207	2.722	3.215	3.812	4.457	4.733	4.971	5.145	5.467	5.159	4.433	4.151	4.513	4.210	2.708	1.489	1.501
330.0	335.1	544.6	571.6	391.0	252.0	212.6	243.3	325.4	450.2	659.0	921.1	1072	1025	748.8	543.0	496.6	297.8	143.0	117.0	292.0	1325	3958	4274	1231	20.22	4.002	2.760	2.094	1.766	1.527	1.338	1.159	1.069	0.919	0.827	0.838	0.813	0.744	0.720	0.647	0.638	0.614	0.747	0.867	0.995	1.250	1.392	1.805	1.941	1.519	1.284	1.333	1.128	1.048	1.026	1.056	1.208	1.375	1.478	1.805	2.083	2.526	2.918	3.292	3.932	4.231	4.500	4.726	4.805	4.599	3.845	3.370	3.097	3.335	3.262	3.238	2.468
335.0	304.6	504.0	552.2	419.5	285.0	240.3	257.4	319.7	424.9	601.6	798.6	924.9	909.8	685.6	467.1	400.3	464.5	266.1	132.0	139.5	347.0	935.8	2299	6247	1845	25.40	3.807	2.803	2.119	1.851	1.565	1.277	1.074	0.887	0.956	0.823	0.735	0.855	0.719	0.785	0.656	0.706	0.630	0.753	0.964	1.161	1.405	1.752	1.896	1.704	1.344	1.486	1.282	1.232	1.227	1.116	1.334	1.413	1.579	1.813	2.058	2.418	2.752	3.116	3.348	3.768	3.972	3.991	4.182	3.997	3.386	2.922	2.654	2.600	2.354	2.629	3.165
340.0	291.8	470.4	542.7	441.2	320.8	269.6	273.3	327.3	409.8	561.1	723.8	832.2	824.9	652.2	462.9	364.8	403.1	416.7	192.7	129.6	153.7	265.5	593.8	3600	5879	334.2	15.56	3.949	2.781	2.146	1.581	1.496	1.127	0.934	0.957	0.897	0.756	0.812	0.652	0.767	0.607	0.673	0.723	0.881	0.892	1.225	1.262	1.731	1.842	1.707	1.475	1.570	1.452	1.381	1.168	1.163	1.453	1.462	1.504	1.775	2.005	2.154	2.525	2.826	3.153	3.371	3.707	3.662	3.951	3.699	3.372	2.993	2.812	2.640	2.285	2.485	2.474
345.0	266.7	462.5	529.1	451.8	352.4	289.5	291.9	330.7	400.6	531.9	666.9	766.7	765.1	629.6	469.9	374.2	342.7	423.3	326.0	167.2	134.7	137.7	188.3	951.3	4209	4795	270.5	7.844	3.292	2.467	1.776	1.620	1.175	1.092	1.019	0.995	0.750	0.828	0.663	0.703	0.611	0.671	0.676	0.827	0.788	1.077	1.352	1.759	1.819	1.705	1.592	1.588	1.523	1.461	1.404	1.295	1.355	1.537	1.608	1.665	2.067	2.012	2.474	2.712	3.074	3.199	3.466	3.397	3.700	3.483	3.226	3.103	2.827	2.649	2.452	2.434	2.322
350.0	260.0	426.8	506.4	462.1	386.9	342.5	331.4	347.6	397.9	501.5	613.2	699.7	701.4	603.9	485.1	405.1	355.7	352.5	391.9	310.0	187.0	145.2	129.9	273.7	1095	3164	3480	1162	19.32	3.569	2.404	1.823	1.288	1.201	1.076	0.889	0.779	0.786	0.724	0.684	0.658	0.640	0.715	0.816	0.856	1.058	1.320	1.514	1.741	1.630	1.565	1.709	1.733	1.633	1.468	1.433	1.598	1.584	1.686	1.782	1.958	2.018	2.259	2.500	2.727	2.887	3.059	3.194	3.434	3.467	3.253	2.896	2.938	2.772	2.527	2.678	2.520
355.0	254.1	400.6	502.3	466.7	435.3	392.6	375.6	386.8	429.0	497.8	586.7	649.9	657.1	592.9	503.2	439.5	395.7	362.3	351.5	401.8	324.5	195.0	153.0	151.4	305.1	751.3	1692	5042	1786	24.82	3.614	2.412	1.930	1.245	1.108	1.072	0.847	0.870	0.698	0.776	0.736	0.655	0.701	0.857	0.865	1.062	1.207	1.556	1.730	1.768	1.616	1.761	1.856	1.817	1.781	1.635	1.713	1.820	1.785	1.954	2.068	2.026	2.294	2.326	2.661	2.792	2.763	2.938	3.225	3.254	3.145	2.979	3.005	2.784	2.751	2.860	2.701
360.0	251.0	394.9	486.7	481.1	463.7	443.9	421.0	416.6	453.9	504.0	580.2	629.9	640.9	589.6	521.0	469.8	426.4	392.4	363.1	377.8	418.2	278.6	188.0	148.4	149.2	220.4	435.2	2672	4928	325.1	16.25	3.267	2.002	1.663	1.225	1.017	0.877	0.870	0.765	0.701	0.694	0.754	0.771	0.822	0.879	1.042	1.240	1.556	1.785	1.649	1.775	1.912	1.967	1.909	1.791	1.859	1.981	1.911	1.925	1.939	2.045	2.267	2.246	2.450	2.734	2.797	2.846	3.045	3.043	3.323	3.108	3.062	3.143	3.077	3.124	3.181	2.882
365.0	251.1	398.7	488.2	496.1	495.4	474.7	455.9	449.1	481.2	517.4	578.6	619.5	629.7	583.7	539.2	491.9	453.5	419.6	394.3	370.3	410.2	383.3	237.6	171.9	134.5	118.7	144.1	691.5	3213	4269	273.6	7.862	2.936	1.860	1.554	1.234	1.043	0.966	0.857	0.749	0.761	0.718	0.737	0.810	0.947	0.942	1.373	1.450	1.689	1.644	1.726	2.010	2.163	1.969	1.984	1.942	2.020	2.037	2.164	2.066	2.201	2.320	2.382	2.609	2.637	2.700	2.822	2.938	3.085	3.066	3.235	3.018	3.000	3.052	3.062	3.266	3.208
370.0	239.6	388.1	489.3	515.2	521.5	512.4	495.7	492.2	509.3	542.5	590.2	617.1	627.9	591.3	549.6	514.4	487.0	460.2	431.5	402.3	389.8	404.1	357.2	234.3	164.1	123.6	101.7	202.2	820.8	2571	3067	1102	18.70	2.880	1.831	1.342	1.245	0.970	0.889	0.826	0.799	0.670	0.779	0.831	0.977	1.003	1.225	1.473	1.753	1.705	1.737	2.013	2.130	2.201	2.088	2.117	2.252	2.260	2.317	2.278	2.469	2.422	2.454	2.652	2.599	2.798	2.841	2.936	3.036	3.184	3.250	3.013	3.048	3.222	3.083	3.258	3.320
375.0	238.0	379.8	479.9	541.7	547.3	545.2	543.1	532.4	533.1	562.3	601.3	622.2	621.9	593.4	564.2	534.5	512.2	489.8	467.9	438.5	408.4	381.9	389.4	344.8	215.5	152.3	117.7	113.9	229.9	609.0	1305	3948	1728	23.55	2.709	1.942	1.439	1.174	0.945	0.860	0.767	0.751	0.800	0.775	0.955	1.163	1.210	1.415	1.867	1.794	1.769	2.002	2.192	2.180	2.351	2.263	2.428	2.290	2.320	2.445	2.596	2.445	2.482	2.804	2.860	2.628	2.989	2.691	2.982	3.126	3.151	3.297	3.368	3.285	3.378	3.207	3.442
380.0	236.2	385.6	482.3	549.3	565.5	567.8	559.1	554.2	554.4	582.3	606.2	623.2	620.0	589.6	566.8	543.9	525.8	506.5	485.7	465.6	428.3	393.0	369.0	386.1	284.3	184.4	140.0	110.8	113.3	178.3	331.5	1864	4020	285.2	15.65	2.298	1.724	1.293	1.059	0.909	0.906	0.735	0.975	0.896	0.988	1.299	1.223	1.500	1.693	1.821	1.816	2.251	2.254	2.343	2.415	2.210	2.522	2.423	2.329	2.564	2.666	2.760	2.660	2.771	2.668	2.717	2.848	2.750	3.001	2.873	3.081	3.125	3.376	3.006	3.144	3.254	3.591
385.0	236.4	380.1	487.3	558.2	582.8	588.8	584.6	572.3	568.9	587.6	604.9	618.9	613.5	592.7	565.5	542.5	527.2	513.2	499.6	475.4	446.4	407.3	371.9	367.9	348.8	231.6	163.5	125.5	100.7	94.62	111.2	472.9	2278	3326	241.9	8.789	2.559	1.657	1.252	1.019	0.807	0.799	0.955	0.870	1.027	1.125	1.309	1.455	1.723	1.738	1.765	2.138	2.183	2.460	2.484	2.197	2.730	2.665	2.477	2.564	2.646	2.739	2.588	2.737	2.730	2.781	2.869	2.797	2.968	2.857	2.826	3.189	3.232	3.089	3.194	3.312	3.595
390.0	246.2	382.1	503.7	565.9	587.5	603.7	600.5	588.1	576.8	588.6	613.2	610.8	605.6	585.9	561.8	540.0	532.4	517.1	505.4	480.9	456.5	421.7	386.7	352.8	342.2	309.3	218.2	157.2	123.3	96.58	79.67	142.5	566.7	1744	2200	995.8	16.46	2.377	1.573	1.184	0.954	0.911	0.945	0.945	1.044	1.176	1.295	1.439	1.723	1.891	1.744	2.163	2.235	2.424	2.592	2.375	2.748	2.740	2.511	2.707	2.661	2.741	2.726	2.727	2.633	2.743	2.825	2.787	2.870	3.040	2.927	3.203	3.168	3.177	3.399	3.255	3.683
395.0	247.0	383.7	506.4	559.6	597.8	613.5	614.4	599.0	596.8	600.6	607.2	610.8	596.1	579.2	552.2	531.1	522.3	512.4	502.7	482.5	459.8	430.8	402.1	362.1	328.3	313.6	293.8	204.7	154.1	119.7	90.98	83.69	160.5	412.4	798.0	2675	1486	22.31	2.426	1.621	1.172	1.108	0.980	0.904	1.032	1.161	1.409	1.528	1.719	1.918	1.561	2.257	2.319	2.418	2.470	2.402	2.725	2.657	2.662	2.795	2.884	2.749	2.666	2.687	2.740	2.638	2.894	2.827	2.969	2.754	2.940	3.039	3.084	3.302	3.146	3.452	3.561
400.0	245.8	377.9	505.9	572.1	596.7	615.6	624.6	608.0	595.8	597.9	607.3	603.8	590.0	566.0	542.4	525.7	518.2	507.3	493.4	479.6	460.5	435.2	408.0	371.9	336.0	302.8	308.4	260.1	182.3	139.9	108.0	81.21	80.49	121.4	202.2	1105	2832	1038	15.28	2.304	1.544	1.288	1.017	1.097	0.914	1.293	1.456	1.615	1.674	1.877	1.776	2.155	2.431	2.434	2.686	2.644	2.590	2.675	2.736	2.932	2.788	2.695	2.697	2.692	2.647	2.659	2.812	2.768	2.839	2.799	3.056	3.013	3.024	3.019	3.121	3.371	3.566
405.0	249.1	378.9	509.0	565.7	603.6	618.5	615.0	611.5	598.0	604.0	598.1	593.6	584.3	557.9	535.1	520.0	506.2	497.4	484.4	477.3	455.4	436.7	405.9	378.3	343.2	305.7	290.8	294.5	225.5	159.8	124.4	92.92	70.73	62.82	69.85	274.1	1384	2614	223.3	9.943	1.880	1.358	1.187	1.211	0.985	1.329	1.342	1.700	1.758	1.930	1.744	2.117	2.206	2.323	2.546	2.470	2.628	2.799	2.711	2.913	2.889	2.844	2.730	2.606	2.691	2.765	2.729	2.775	2.649	2.885	2.803	2.970	2.929	3.092	3.165	3.263	3.522
410.0	240.2	371.0	494.4	555.8	590.1	607.7	617.6	610.1	596.4	599.7	587.0	582.9	565.7	544.7	519.6	497.7	489.3	480.2	473.0	459.1	442.1	426.1	402.8	378.5	347.7	313.4	285.5	278.7	267.0	205.0	146.7	109.4	81.18	60.88	47.96	83.52	337.7	1173	1675	928.4	15.94	2.060	1.500	1.321	1.127	1.276	1.340	1.680	1.881	1.807	1.818	2.153	2.498	2.408	2.541	2.532	2.520	2.670	2.725	2.730	2.715	2.824	2.675	2.741	2.676	2.703	2.632	2.746	2.720	2.764	2.940	2.898	2.812	2.940	2.996	3.209	3.316
415.0	231.1	371.9	481.9	547.8	587.3	600.2	609.4	604.9	591.3	588.0	582.9	564.8	545.7	523.4	501.2	477.0	469.1	456.3	447.1	437.2	424.2	410.6	393.5	372.1	349.3	318.0	290.7	266.6	258.7	252.7	183.1	128.2	95.81	70.49	51.15	47.42	95.04	275.1	539.2	1932	1315	22.43	2.110	1.562	1.373	1.499	1.405	1.483	1.779	1.704	1.780	2.131	2.312	2.423	2.550	2.515	2.599	2.570	2.509	2.781	2.711	2.772	2.613	2.734	2.315	2.790	2.600	2.718	2.698	2.563	2.798	2.754	2.757	2.900	2.870	2.816	3.387
420.0	230.7	351.6	457.8	535.7	565.6	587.3	600.7	601.3	592.2	575.3	566.0	552.0	527.7	504.5	484.0	459.1	446.7	436.9	426.8	419.8	410.8	397.5	383.3	366.4	344.9	319.6	291.8	266.6	249.1	249.1	218.4	146.0	105.8	79.16	57.28	43.77	45.23	77.40	133.6	720.3	2106	900.0	15.82	1.948	1.497	1.460	1.515	1.579	1.697	1.721	1.659	2.065	2.396	2.231	2.509	2.335	2.528	2.695	2.480	2.786	2.847	2.750	2.721	2.634	2.611	2.700	2.475	2.761	2.629	2.545	2.654	2.584	2.741	2.799	2.671	2.958	3.079
425.0	227.9	345.8	443.4	524.2	549.3	580.0	598.1	593.6	578.4	577.4	563.1	542.2	519.2	489.8	467.2	440.3	430.6	417.7	415.4	402.5	392.1	384.3	372.6	358.4	338.7	314.5	289.5	265.9	248.0	230.8	227.5	174.0	117.4	86.08	65.70	48.21	37.57	36.65	43.47	175.4	921.6	1928	218.5	9.921	1.971	1.640	1.598	1.658	1.686	1.680	1.653	1.997	2.244	2.208	2.486	2.317	2.450	2.662	2.615	2.768	2.655	2.585	2.650	2.526	2.409	2.642	2.538	2.625	2.562	2.555	2.602	2.449	2.537	2.726	2.606	2.732	2.913
430.0	237.4	338.8	434.2	505.1	538.7	558.1	578.4	584.7	570.1	563.2	550.3	526.3	501.9	470.5	449.1	419.5	406.8	396.4	390.2	381.3	374.4	364.0	355.4	344.1	327.1	306.9	288.4	267.7	249.2	224.6	212.2	194.2	144.5	98.65	74.41	56.07	42.36	32.89	27.60	52.31	221.2	796.3	1373	816.7	15.21	2.359	1.689	1.679	1.804	1.685	1.627	2.045	2.249	2.200	2.448	2.374	2.538	2.480	2.607	2.571	2.607	2.662	2.523	2.519	2.592	2.614	2.450	2.417	2.520	2.503	2.555	2.460	2.608	2.595	2.550	2.741	2.746
435.0	343.8	330.4	418.5	492.7	527.8	538.0	564.4	573.0	567.5	560.2	536.8	515.7	481.7	456.4	429.8	394.9	387.9	374.9	369.6	360.8	354.7	346.3	337.8	328.7	317.3	297.0	281.1	266.4	249.3	226.0	203.8	181.6	169.2	123.0	84.14	63.56	50.19	38.12	28.91	28.44	61.23	186.8	407.0	1463	1205	21.65	2.461	1.972	1.860	1.702	1.631	2.006	2.238	2.144	2.387	2.411	2.528	2.389	2.557	2.542	2.583	2.407	2.728	2.469	2.430	2.335	2.429	2.371	2.293	2.422	2.479	2.459	2.527	2.497	2.284	2.592	2.677
440.0	449.2	371.4	416.4	480.2	506.1	528.5	547.1	560.1	551.7	553.0	529.7	500.8	469.7	437.9	413.5	382.9	364.5	358.9	352.4	343.1	338.0	327.2	321.5	318.4	302.8	289.9	277.0	261.0	248.6	226.0	201.6	177.2	162.1	142.4	96.90	70.90	54.91	42.10	32.61	25.83	27.94	52.29	99.97	534.3	1768	853.6	14.16	2.495	1.958	1.875	1.587	1.974	2.257	2.131	2.354	2.285	2.315	2.541	2.451	2.406	2.434	2.730	2.657	2.591	2.452	2.432	2.292	2.312	2.417	2.235	2.419	2.239	2.314	2.351	2.202	2.405	2.615
445.0	469.8	508.3	394.1	462.3	490.6	513.5	533.0	555.0	543.2	540.6	525.5	490.2	459.0	425.2	393.2	366.4	347.6	342.2	334.3	326.8	321.7	315.0	308.2	304.8	292.0	280.3	267.4	253.5	243.4	223.7	200.5	174.6	151.3	146.5	114.7	78.40	60.80	46.85	36.37	27.73	22.95	24.50	32.05	129.7	758.9	1776	186.7	9.120	2.368	2.004	1.659	1.937	2.080	2.199	2.112	2.268	2.262	2.438	2.422	2.362	2.463	2.616	2.349	2.621	2.163	2.252	2.164	2.355	2.454	2.215	2.282	2.341	2.324	2.323	2.267	2.422	2.402
450.0	305.5	822.4	515.3	430.9	460.6	485.6	505.6	528.3	525.3	508.8	503.8	467.5	433.9	404.1	368.3	342.8	325.4	317.0	310.4	302.9	294.6	290.1	286.4	284.0	271.6	263.2	252.2	242.8	231.9	215.8	195.7	170.3	146.4	130.7	121.8	95.08	66.90	51.16	41.00	31.87	25.11	20.71	18.97	38.09	181.5	725.1	1202	672.7	12.98	2.326	1.828	1.976	2.013	2.071	2.094	2.116	2.326	2.250	2.359	2.448	2.359	2.372	2.411	2.365	2.209	2.212	2.342	2.092	2.202	2.130	2.172	2.219	2.344	2.191	2.232	2.301	2.378
455.0	196.9	715.4	880.8	432.0	427.7	451.8	471.7	494.0	496.0	482.7	472.4	441.8	409.0	374.8	343.2	316.0	300.0	290.2	284.1	276.6	269.5	263.9	258.5	257.1	251.2	244.3	232.3	226.3	218.4	205.3	188.4	164.6	142.3	120.8	109.1	104.8	79.10	56.00	44.31	35.55	28.31	22.53	18.04	19.58	49.09	168.6	359.7	1183	859.1	15.45	2.168	2.070	1.953	1.941	1.949	1.927	2.112	2.233	2.226	2.222	2.190	2.304	2.429	2.228	2.252	2.216	2.147	1.973	1.993	1.966	1.993	1.996	1.984	1.994	2.061	2.138	2.095
460.0	169.9	430.4	1303	582.5	404.1	427.3	450.0	463.5	468.5	455.5	450.1	419.1	383.3	357.8	322.7	298.2	280.0	273.0	260.1	254.3	249.2	246.8	243.3	240.8	234.8	225.9	219.2	212.7	205.5	196.7	181.2	159.4	138.4	117.1	101.1	97.98	88.33	62.77	45.74	38.13	30.11	23.98	19.47	16.55	20.59	45.28	86.89	438.1	1337	565.2	9.986	2.234	1.967	1.891	1.893	1.874	2.120	1.966	2.133	2.135	2.117	2.258	2.205	1.958	2.154	2.182	2.140	1.923	1.991	2.016	1.928	1.932	1.923	1.925	1.929	1.916	1.967
465.0	159.4	272.4	1220	1045	386.8	406.3	418.8	434.0	437.0	433.0	428.7	398.1	368.7	336.6	302.2	276.6	263.2	252.0	241.9	235.6	231.9	228.2	226.2	223.4	217.9	211.3	207.1	201.0	195.5	185.2	171.6	152.3	133.6	114.2	97.51	89.09	87.40	70.85	49.01	39.85	32.35	25.23	21.15	17.26	15.18	18.41	26.21	105.8	609.6	1279	142.8	6.359	2.373	2.095	1.869	1.937	2.134	1.979	2.170	2.091	1.976	2.096	2.037	1.968	2.144	1.894	2.085	1.866	1.906	1.848	1.727	1.799	1.829	1.733	1.768	1.847	2.007
470.0	155.2	224.0	644.0	1517	663.4	363.4	385.7	397.5	405.8	407.4	398.3	373.8	338.9	305.8	275.0	252.4	238.5	226.4	219.1	213.1	207.3	205.4	202.2	200.9	196.0	190.5	186.3	182.5	177.9	171.0	159.0	142.3	124.0	108.6	93.03	82.12	76.04	72.58	56.92	41.93	33.45	27.32	22.39	18.71	15.63	13.52	13.24	29.61	145.6	560.6	824.4	460.6	11.67	2.297	2.010	1.948	1.953	1.909	1.919	1.864	1.853	1.956	1.952	1.841	1.825	1.802	1.826	1.808	1.849	1.750	1.715	1.806	1.668	1.652	1.641	1.661	1.821
475.0	151.9	195.1	329.9	1115	1394	372.4	353.3	371.8	370.3	370.9	363.0	344.2	308.3	277.8	246.7	229.0	212.3	201.8	198.6	190.6	185.7	183.2	182.1	178.6	174.2	170.1	166.1	165.4	161.0	155.1	146.0	132.5	115.8	101.9	88.34	78.47	67.77	63.40	61.57	48.94	35.82	28.38	24.02	19.79	16.24	13.80	11.05	13.30	37.84	129.4	255.7	823.5	548.6	15.17	2.263	1.972	1.812	1.756	1.813	1.866	1.878	1.779	1.864	1.608	1.792	1.737	1.712	1.635	1.559	1.599	1.612	1.730	1.548	1.489	1.510	1.479	1.647
480.0	147.2	196.3	255.1	589.9	1782	589.6	337.8	344.3	348.2	348.0	337.8	320.7	292.9	262.0	233.6	214.0	198.3	187.5	182.1	173.5	169.9	168.3	166.8	163.8	159.1	157.9	152.6	152.4	149.5	144.6	137.0	124.5	109.6	97.58	85.08	74.81	65.46	57.22	57.71	52.68	39.17	29.29	24.42	20.76	17.65	14.50	11.64	10.31	14.12	33.66	61.64	319.2	980.8	180.9	8.974	1.963	1.836	1.673	1.873	1.710	1.763	1.793	1.733	1.566	1.775	1.678	1.656	1.585	1.575	1.640	1.463	1.578	1.528	1.361	1.521	1.520	1.617
485.0	131.5	201.9	227.2	336.1	1501	1122	319.9	325.0	331.3	329.4	322.0	308.3	271.6	247.0	223.6	201.9	185.2	175.7	171.1	160.8	159.9	156.8	154.7	152.5	148.5	147.4	143.5	142.6	139.7	137.5	129.8	118.9	104.8	93.35	81.80	72.21	63.43	55.58	51.76	52.27	43.27	30.46	25.03	21.34	18.40	15.15	12.48	10.34	9.442	12.56	17.99	77.51	505.0	962.6	143.1	3.857	1.939	1.826	1.753	1.659	1.841	1.751	1.619	1.626	1.622	1.540	1.445	1.546	1.396	1.432	1.409	1.484	1.404	1.317	1.366	1.478	1.417
490.0	111.7	198.9	218.1	251.6	729.6	1655	552.9	299.2	305.1	303.8	301.4	282.6	255.4	230.4	205.2	185.0	171.6	161.2	153.4	148.2	145.0	141.2	140.3	137.6	136.9	134.5	130.4	130.1	128.9	126.7	119.4	109.6	99.30	88.00	77.66	68.19	59.87	53.78	47.33	45.45	44.61	35.72	26.62	22.58	19.10	15.86	13.41	11.24	9.341	8.388	8.627	21.32	122.1	473.6	790.4	344.0	11.13	1.946	1.705	1.679	1.607	1.660	1.575	1.536	1.466	1.489	1.398	1.412	1.453	1.408	1.335	1.390	1.331	1.282	1.330	1.413	1.272
495.0	99.21	167.0	228.9	223.1	341.0	1213	1301	303.3	276.5	282.4	274.9	258.3	234.2	212.2	184.4	165.9	156.6	147.1	137.9	132.1	128.9	124.8	124.6	124.0	121.0	120.4	116.5	115.9	117.2	115.5	108.2	100.9	91.57	81.54	72.89	65.12	57.57	50.19	45.47	40.70	39.43	39.08	30.78	23.61	19.73	16.31	13.99	11.60	9.798	7.830	6.898	8.953	30.91	108.9	288.7	832.3	201.4	12.47	1.867	1.750	1.475	1.515	1.475	1.452	1.464	1.455	1.350	1.301	1.427	1.312	1.261	1.241	1.264	1.223	1.178	1.195	1.182
500.0	88.34	136.8	223.4	216.2	236.4	631.5	1762	470.1	257.5	260.6	256.2	239.0	215.0	194.1	171.8	152.6	143.3	132.3	125.6	121.9	117.2	113.9	113.3	111.3	111.6	108.8	105.8	105.4	106.0	103.5	99.96	92.51	84.16	76.16	67.75	61.01	54.84	47.85	42.31	38.22	35.35	36.13	33.45	24.90	19.96	16.77	14.15	11.93	10.21	8.099	6.568	6.389	10.84	27.71	68.85	370.5	847.0	174.0	5.422	1.730	1.551	1.359	1.431	1.248	1.358	1.353	1.446	1.263	1.216	1.056	1.275	1.099	1.159	1.155	1.114	1.230	1.094
505.0	82.26	117.4	201.3	215.1	199.3	324.8	1580	936.1	245.8	234.4	236.2	222.4	198.9	177.0	158.8	141.4	131.4	123.4	115.0	111.6	107.3	103.4	101.8	101.7	100.5	99.35	97.04	96.76	97.22	95.43	92.48	84.76	77.36	69.34	62.57	57.07	50.25	46.18	40.05	35.32	31.94	32.07	33.05	27.06	19.75	16.74	14.24	12.02	9.986	8.319	6.792	5.900	6.213	9.644	18.34	90.63	497.7	767.1	26.79	2.293	1.673	1.245	1.315	1.290	1.283	1.298	1.126	1.167	1.152	1.112	1.201	1.026	1.160	0.942	1.026	1.099	1.200
510.0	77.83	106.4	153.9	209.3	183.9	211.7	767.8	1585	427.0	212.7	209.2	196.4	177.1	157.8	143.1	125.6	116.0	108.8	101.9	98.36	93.80	92.27	90.06	89.01	87.82	86.82	84.98	85.14	85.31	83.03	80.72	75.24	68.07	62.22	56.42	51.26	45.73	41.66	36.94	32.69	29.35	27.34	27.73	27.54	21.74	16.72	13.81	11.69	9.755	8.264	7.219	5.985	5.464	5.611	7.147	22.96	122.3	416.4	557.1	113.1	8.325	1.414	1.275	1.272	1.184	1.144	1.137	1.122	1.091	1.111	1.024	1.039	0.971	0.955	0.990	0.938	0.951
515.0	70.59	93.19	120.9	187.6	181.0	165.1	304.6	1284	1153	207.9	187.2	173.1	159.1	136.8	122.7	110.0	99.69	93.56	86.87	84.67	81.19	78.67	77.84	75.85	76.93	73.81	73.26	72.85	73.00	73.34	70.36	64.87	60.43	54.45	50.10	44.77	40.96	36.75	33.23	29.74	26.50	24.18	22.33	23.37	23.40	17.92	13.43	11.33	9.717	7.954	7.067	6.061	5.171	4.738	4.699	7.795	29.63	95.31	228.5	583.1	178.9	7.691	1.317	1.207	1.078	0.963	0.946	1.041	0.951	0.995	0.883	0.870	0.970	0.892	1.079	0.886	1.026
520.0	63.47	78.74	108.5	158.3	182.2	147.2	179.8	665.4	1719	338.7	172.0	154.8	142.7	126.0	110.8	99.08	90.86	83.65	78.58	73.99	72.24	70.75	68.74	66.77	67.10	65.10	65.32	64.15	65.22	64.33	61.72	58.41	53.48	49.52	45.09	41.05	37.12	33.82	29.63	27.55	24.50	22.26	20.40	20.16	21.86	19.53	13.52	10.50	9.091	7.732	6.728	6.003	5.440	4.585	4.207	4.393	9.129	23.43	54.82	300.0	579.0	129.1	2.820	1.140	1.159	1.030	0.933	0.993	0.945	0.919	0.901	0.857	0.915	0.789	0.851	0.984	0.821
525.0	53.75	73.60	96.11	125.5	177.1	144.7	141.2	291.7	1656	776.5	156.9	140.9	131.0	114.1	100.3	90.29	80.73	76.66	72.92	68.58	64.83	62.08	61.39	60.77	58.97	58.73	58.73	58.88	58.84	57.87	56.15	52.61	49.06	45.08	40.32	36.76	34.18	30.62	27.30	24.83	22.71	20.97	19.00	18.02	18.14	19.10	14.74	10.62	8.745	7.520	6.498	5.723	5.446	4.656	3.986	3.582	4.448	7.306	14.17	75.25	374.3	485.0	24.31	1.444	1.084	0.913	0.980	0.873	0.906	0.835	0.876	0.830	0.779	0.779	0.707	0.777	0.824
530.0	52.62	69.33	85.61	99.87	146.3	148.3	121.2	161.5	809.3	1569	311.4	123.9	114.7	100.1	88.52	79.48	70.74	67.13	62.45	59.90	56.20	55.02	52.79	52.47	51.00	51.37	50.56	50.92	50.74	50.18	48.78	46.01	42.35	39.19	35.37	32.67	30.14	27.24	24.57	22.78	20.53	19.16	17.02	15.79	14.98	16.29	15.46	11.38	8.671	7.193	6.146	5.530	5.115	4.695	4.059	3.551	3.152	3.694	4.967	18.47	94.03	292.0	297.7	101.6	5.853	0.915	0.980	0.870	0.801	0.791	0.755	0.817	0.675	0.715	0.709	0.720	0.721
535.0	46.10	57.96	77.77	84.29	101.5	157.6	114.4	119.8	277.4	1386	1022	124.0	97.40	86.79	77.18	70.78	60.18	57.46	54.46	50.18	48.14	48.06	45.73	46.45	44.51	45.05	43.66	43.37	42.51	43.10	41.37	39.03	36.09	33.21	30.37	28.61	26.10	24.03	21.34	20.42	18.72	16.93	15.06	14.16	12.97	12.44	14.04	12.51	9.087	7.050	6.055	5.160	4.609	4.210	4.094	3.445	3.036	2.702	2.852	5.641	22.46	66.81	149.8	407.1	143.2	4.071	0.874	0.822	0.752	0.710	0.699	0.709	0.666	0.724	0.647	0.622	0.743
540.0	50.75	59.23	71.53	77.28	88.15	138.6	120.8	105.0	139.6	725.4	1700	176.2	87.47	78.43	68.84	60.93	55.12	50.77	48.54	45.95	42.97	42.63	41.02	39.65	39.62	38.99	38.46	37.91	37.90	38.15	37.32	34.42	32.21	29.88	27.46	25.35	23.20	21.23	19.88	18.30	16.57	15.11	13.98	13.11	11.86	10.83	11.43	12.07	9.665	6.812	5.685	5.054	4.301	4.026	3.869	3.475	2.932	2.336	2.343	2.883	6.373	16.27	36.49	222.5	392.9	27.00	1.559	0.894	0.756	0.727	0.661	0.725	0.636	0.685	0.703	0.603	0.633
545.0	42.38	57.81	63.66	66.74	78.40	106.2	125.8	94.25	104.1	285.6	1748	600.2	83.26	70.75	62.12	54.83	50.09	46.22	44.02	41.16	39.13	38.68	37.62	35.77	35.40	34.01	34.84	34.07	34.04	34.35	33.19	31.67	28.93	26.98	24.98	22.96	21.29	19.45	18.47	16.70	15.18	13.51	12.74	11.73	11.20	10.14	9.734	10.29	9.977	7.517	5.582	4.747	4.280	3.743	3.387	3.479	3.064	2.413	2.111	2.151	2.900	4.818	9.259	56.91	272.2	312.9	20.79	1.154	0.805	0.730	0.612	0.617	0.618	0.593	0.616	0.586	0.562
550.0	35.71	48.58	53.13	59.42	66.54	78.81	123.4	96.75	85.36	128.8	857.1	1432	196.1	63.43	54.14	49.10	43.88	40.82	36.92	36.02	33.83	33.03	31.87	30.73	30.22	29.34	29.73	29.91	29.20	29.14	28.69	27.19	24.96	23.60	21.87	19.63	18.52	17.05	16.18	14.77	13.29	12.11	11.46	10.54	9.818	8.948	8.158	8.125	8.879	7.933	5.726	4.533	3.992	3.612	3.303	3.129	2.935	2.551	2.089	1.860	1.947	2.244	3.170	13.69	69.34	207.1	238.0	85.43	3.882	0.702	0.631	0.598	0.600	0.594	0.544	0.552	0.542
555.0	36.45	44.14	47.10	52.71	54.14	62.05	96.10	111.7	76.46	84.03	259.5	1408	799.5	59.57	46.06	40.96	37.39	34.53	31.37	30.84	28.71	27.53	26.83	25.96	26.17	24.91	24.83	24.83	24.38	24.97	24.66	23.12	21.63	20.05	18.73	16.78	16.11	14.75	13.97	12.49	11.46	11.03	10.06	8.948	8.732	7.922	7.130	6.531	6.772	7.165	6.218	4.626	3.697	3.305	3.074	2.764	2.673	2.500	2.212	1.748	1.611	1.669	1.692	4.075	16.29	47.61	117.4	296.5	105.1	2.549	0.676	0.560	0.500	0.557	0.545	0.538	0.519
560.0	34.30	36.12	41.54	49.60	49.57	56.27	68.63	115.4	73.41	72.27	110.0	737.3	1468	105.3	42.19	36.49	32.14	30.92	28.27	27.68	25.16	24.41	23.97	22.68	22.32	21.54	21.50	22.00	21.65	21.82	21.17	20.10	18.86	17.99	15.98	15.25	14.31	13.01	12.62	11.00	10.24	9.603	9.060	8.475	7.895	7.059	6.366	5.522	5.519	6.036	6.034	4.946	3.609	2.966	2.711	2.634	2.398	2.339	2.251	1.904	1.409	1.430	1.296	1.885	4.521	11.38	28.84	165.1	278.0	25.44	1.130	0.542	0.604	0.530	0.499	0.439	0.587
565.0	35.66	37.80	42.77	42.45	43.94	50.51	54.18	99.72	81.83	64.80	73.18	266.8	1604	395.9	38.14	33.42	29.80	27.52	24.68	24.28	21.85	21.46	21.62	20.58	20.54	19.09	19.35	19.64	19.16	18.80	18.76	17.71	17.06	15.61	14.61	13.41	12.36	11.68	10.89	9.767	9.303	8.537	8.069	7.642	7.270	6.234	5.904	5.230	4.696	4.642	5.202	4.996	3.465	2.687	2.656	2.421	2.169	2.128	2.043	1.995	1.428	1.316	1.141	1.235	1.799	3.276	7.200	42.52	194.6	207.9	18.44	0.760	0.628	0.542	0.452	0.524	0.535
570.0	34.90	39.27	37.50	39.75	39.46	41.19	45.63	69.47	96.96	64.49	66.23	111.4	795.5	1143	75.72	27.91	24.67	22.08	20.60	20.02	18.74	17.53	17.04	16.86	16.76	15.94	15.64	15.58	15.43	15.77	15.44	14.76	13.93	12.75	11.86	10.77	10.69	9.503	9.163	8.027	7.844	7.041	6.791	6.200	5.979	5.490	4.827	4.369	3.977	3.714	3.889	4.306	3.821	2.809	2.240	2.151	1.990	1.793	1.625	1.752	1.627	1.341	1.120	1.115	1.190	1.478	2.281	10.20	49.57	141.8	169.1	56.27	2.528	0.574	0.451	0.443	0.473
575.0	38.79	42.91	44.15	35.54	34.86	32.21	36.16	48.74	94.25	78.34	70.75	80.38	240.0	1221	540.0	25.47	20.17	18.13	16.87	16.25	14.99	13.64	13.86	13.42	12.95	12.55	12.24	12.11	11.91	12.04	11.98	11.64	10.46	9.746	9.476	8.674	7.953	7.521	7.064	6.431	6.398	5.822	5.422	5.229	4.785	4.670	3.999	3.708	3.371	2.969	2.826	3.048	3.391	2.976	2.163	1.757	1.632	1.447	1.398	1.404	1.458	1.459	1.117	1.027	1.039	0.961	1.214	2.893	11.73	32.55	77.91	180.8	27.53	1.626	0.455	0.486	0.408
580.0	47.51	52.29	46.44	34.36	29.69	30.56	34.75	41.50	77.64	98.25	77.87	82.88	110.7	635.8	1126	55.09	16.94	15.17	14.31	13.19	12.42	11.52	10.93	10.91	10.77	10.20	10.24	10.01	9.803	9.983	10.10	9.420	8.412	8.105	7.807	6.991	6.686	6.503	6.112	5.713	5.221	4.608	4.527	4.279	3.946	3.749	3.350	3.026	2.805	2.398	2.306	2.304	2.762	2.819	2.175	1.524	1.490	1.347	1.198	1.279	1.272	1.345	1.247	0.965	0.953	0.998	0.961	1.350	3.245	7.938	18.93	98.91	159.7	21.44	0.772	0.425	0.402
585.0	46.53	53.03	46.68	33.93	27.81	29.00	31.79	37.91	58.92	110.9	85.63	85.11	87.13	224.6	1303	244.8	15.08	12.56	11.71	10.95	10.54	9.368	9.297	8.589	8.401	8.695	8.332	8.079	8.178	8.207	8.382	7.918	7.257	6.727	6.511	5.829	5.531	5.191	5.003	4.568	4.167	3.885	3.794	3.575	3.257	3.132	2.866	2.708	2.496	2.074	2.033	1.829	2.016	2.495	2.337	1.712	1.303	1.222	1.158	1.099	1.072	1.174	1.270	0.989	0.902	0.876	0.796	0.947	1.383	2.503	4.720	25.51	113.2	119.0	13.90	0.515	0.397
590.0	47.19	52.67	51.48	33.14	26.72	26.08	27.69	34.20	48.52	99.21	107.6	94.42	88.08	92.87	639.7	808.9	44.37	10.23	9.227	8.525	8.151	7.513	7.308	6.792	6.583	6.721	6.498	6.374	6.560	6.407	6.446	6.064	5.496	5.470	4.914	4.719	4.237	4.015	3.895	3.419	3.429	3.133	3.071	2.775	2.652	2.400	2.360	2.168	2.050	1.687	1.585	1.482	1.409	1.850	2.029	1.625	1.180	1.056	0.983	0.941	0.920	0.940	1.050	1.247	1.033	0.881	0.778	0.845	0.911	1.216	1.635	6.138	28.80	74.78	87.95	17.47	1.343
595.0	43.31	55.28	55.75	32.34	21.99	23.00	26.13	34.23	44.23	78.54	126.2	105.0	90.03	63.10	168.7	865.6	360.7	10.35	7.501	6.886	6.095	5.892	5.629	5.578	5.362	5.398	5.002	4.990	5.085	4.606	4.836	4.637	4.250	4.030	3.858	3.559	3.491	3.208	2.990	2.616	2.545	2.472	2.379	2.146	2.067	2.023	1.782	1.752	1.557	1.409	1.254	1.179	1.114	1.221	1.435	1.523	1.326	0.960	0.875	0.780	0.883	0.814	0.841	1.023	1.212	0.963	0.789	0.819	0.781	0.837	0.886	1.935	6.783	17.21	38.21	88.27	24.31
600.0	41.38	56.20	52.70	32.46	21.41	21.00	23.24	29.68	43.83	69.09	125.8	113.7	91.24	58.75	54.99	428.8	670.8	27.71	6.418	5.968	5.467	5.348	4.911	4.626	4.452	4.270	4.216	4.465	4.315	3.895	4.128	3.849	3.546	3.547	3.130	2.999	2.919	2.907	2.440	2.187	2.007	2.076	1.913	1.820	1.882	1.701	1.546	1.442	1.416	1.191	1.014	1.058	0.926	1.025	1.112	1.443	1.301	0.995	0.897	0.822	0.779	0.763	0.808	0.872	1.032	1.097	0.863	0.792	0.841	0.746	0.708	0.861	1.891	4.128	9.237	46.92	80.03
605.0	42.13	52.64	48.13	33.74	18.77	18.75	21.03	31.27	42.27	65.59	114.3	129.7	93.32	54.97	29.67	134.1	839.0	72.70	5.811	5.146	4.738	4.173	4.183	3.838	3.929	3.524	3.748	3.664	3.468	3.672	3.330	3.356	3.013	2.932	2.648	2.275	2.492	2.365	2.176	1.970	1.742	1.668	1.719	1.558	1.502	1.434	1.407	1.254	1.101	1.063	0.973	0.920	0.937	0.874	0.844	1.115	1.148	1.026	0.707	0.754	0.718	0.704	0.747	0.850	0.784	0.988	0.929	0.906	0.780	0.660	0.597	0.562	0.792	1.248	2.322	12.07	53.75
610.0	41.01	51.01	46.86	32.18	21.27	18.17	20.55	29.82	40.69	62.22	97.59	135.0	96.39	54.26	23.77	39.02	409.0	543.1	26.05	4.275	3.954	3.643	3.215	3.218	3.205	3.054	2.955	2.815	2.885	2.773	2.754	2.634	2.520	2.277	2.093	1.987	1.989	1.973	1.799	1.597	1.529	1.399	1.435	1.319	1.172	1.235	1.218	1.011	1.011	0.843	0.794	0.759	0.764	0.691	0.674	0.834	0.935	0.945	0.771	0.689	0.638	0.629	0.655	0.726	0.747	0.894	1.026	0.898	0.752	0.615	0.530	0.524	0.546	0.571	0.833	3.010	13.65
615.0	36.75	50.97	45.64	27.16	19.58	17.65	19.91	26.57	37.98	56.65	84.12	117.8	104.9	52.43	21.40	16.51	101.9	586.0	230.0	4.419	3.517	3.068	2.864	2.814	2.483	2.306	2.397	2.217	2.211	2.116	2.281	2.012	1.894	1.947	1.766	1.867	1.516	1.551	1.498	1.303	1.265	1.207	1.248	1.071	1.035	0.987	0.940	0.900	0.806	0.748	0.711	0.633	0.621	0.671	0.598	0.587	0.704	0.830	0.764	0.652	0.619	0.575	0.551	0.655	0.670	0.704	0.821	0.918	0.861	0.603	0.576	0.538	0.459	0.379	0.444	0.978	3.388
620.0	35.62	47.52	43.79	27.26	18.73	17.63	18.10	26.88	35.72	54.78	77.26	100.3	107.1	51.53	20.15	11.51	28.95	295.5	507.1	15.74	2.886	2.853	2.346	2.266	2.390	2.085	2.095	1.774	1.880	1.743	1.950	1.722	1.711	1.660	1.605	1.472	1.296	1.356	1.225	1.181	1.017	1.035	0.958	0.952	0.892	0.952	0.874	0.841	0.798	0.673	0.651	0.512	0.506	0.589	0.611	0.508	0.527	0.709	0.671	0.664	0.666	0.544	0.578	0.576	0.714	0.725	0.730	0.783	0.834	0.706	0.578	0.479	0.397	0.295	0.375	0.434	1.060
625.0	35.94	49.30	40.92	26.92	18.04	15.51	18.31	24.63	33.09	50.42	72.59	86.85	104.8	54.86	19.20	9.832	11.55	91.08	617.2	57.03	2.856	2.472	2.130	2.211	2.067	1.773	1.910	1.791	1.687	1.687	1.653	1.519	1.404	1.398	1.303	1.224	1.052	1.161	0.972	1.024	0.951	0.835	0.862	0.879	0.837	0.794	0.738	0.718	0.722	0.579	0.548	0.460	0.480	0.524	0.563	0.578	0.471	0.568	0.632	0.656	0.526	0.540	0.508	0.515	0.725	0.662	0.716	0.656	0.777	0.840	0.525	0.441	0.382	0.338	0.333	0.346	0.475
630.0	37.72	41.78	37.99	25.75	16.98	13.71	15.94	22.39	31.85	46.82	64.76	76.20	85.55	60.76	19.76	9.879	7.882	25.11	314.1	396.8	18.71	2.335	2.011	1.769	1.837	1.562	1.553	1.543	1.435	1.535	1.452	1.185	1.190	1.171	1.008	1.057	0.938	0.954	0.866	0.856	0.785	0.746	0.690	0.744	0.741	0.649	0.601	0.695	0.650	0.534	0.440	0.427	0.443	0.461	0.454	0.454	0.431	0.472	0.506	0.580	0.555	0.579	0.495	0.465	0.622	0.551	0.626	0.587	0.627	0.739	0.693	0.478	0.356	0.337	0.426	0.341	0.353
635.0	37.84	39.59	34.08	22.26	14.75	15.13	15.51	21.18	27.81	43.29	59.55	68.03	68.96	60.28	22.47	9.650	7.366	9.697	77.91	450.0	166.0	2.583	1.692	1.695	1.604	1.437	1.269	1.433	1.144	1.098	1.418	1.241	0.952	0.914	0.943	0.914	0.924	0.926	0.742	0.707	0.610	0.652	0.623	0.583	0.613	0.601	0.503	0.531	0.525	0.494	0.425	0.455	0.437	0.400	0.384	0.393	0.375	0.389	0.398	0.454	0.512	0.530	0.484	0.454	0.519	0.428	0.513	0.555	0.584	0.654	0.642	0.585	0.358	0.319	0.412	0.319	0.324
640.0	32.31	35.42	34.50	21.60	15.46	13.46	14.49	18.61	26.43	38.99	53.24	61.38	60.04	53.52	28.97	9.905	7.426	5.978	20.64	239.8	388.1	8.751	1.655	1.440	1.328	1.348	1.067	1.127	1.038	1.117	1.281	0.994	0.915	0.846	0.901	0.880	0.773	0.710	0.721	0.569	0.626	0.618	0.591	0.493	0.542	0.536	0.481	0.450	0.516	0.450	0.424	0.367	0.392	0.369	0.405	0.389	0.329	0.373	0.403	0.394	0.416	0.539	0.449	0.477	0.510	0.447	0.533	0.498	0.527	0.501	0.554	0.522	0.477	0.329	0.325	0.321	0.328
645.0	30.27	40.19	31.01	20.63	12.38	13.37	14.29	18.01	24.39	35.55	48.48	55.95	53.62	43.68	33.96	10.78	6.754	5.540	7.518	75.64	468.1	44.98	1.861	1.437	1.332	1.184	0.967	1.032	1.010	1.090	1.029	1.006	0.933	0.731	0.777	0.771	0.675	0.617	0.590	0.638	0.612	0.554	0.714	0.424	0.512	0.573	0.472	0.421	0.459	0.405	0.299	0.347	0.350	0.338	0.361	0.323	0.343	0.339	0.383	0.315	0.389	0.512	0.425	0.524	0.494	0.408	0.429	0.452	0.503	0.457	0.457	0.537	0.458	0.443	0.372	0.306	0.304
650.0	31.21	35.03	32.56	19.20	14.16	12.11	14.15	18.25	24.04	31.94	44.06	51.76	49.53	36.34	35.05	13.06	7.149	5.338	4.575	20.52	329.7	214.8	2.877	1.419	1.114	1.010	1.026	1.050	0.894	0.839	0.945	0.872	0.789	0.731	0.810	0.685	0.614	0.595	0.557	0.622	0.538	0.542	0.611	0.444	0.471	0.498	0.452	0.400	0.362	0.401	0.388	0.369	0.338	0.277	0.351	0.310	0.336	0.333	0.387	0.302	0.397	0.458	0.439	0.501	0.440	0.387	0.426	0.440	0.429	0.417	0.417	0.475	0.431	0.512	0.384	0.281	0.319
