Sample:	'1
File name:	W2025090901-共青团水库.FD3
Run date:	'09:37:58, 09/11/2025
Operator:	Administrator
Comment:	'

Instrument
Model:	F-2700 FL Spectrophotometer
Serial number:	23C7-004
ROM Version:	4J14000 07

Instrument parameters
Measurement type:	3-D scan
Data mode:	Fluorescence
EX  Start WL:	220.0 nm
EX  End WL:	600.0 nm
EX Sampling interval:	5.0 nm
EM  Start WL:	230.0 nm
EM  End WL:	650.0 nm
EM Sampling interval:	5.0 nm
Scan speed:	12000 nm/min
EX Slit:	5.0 nm
EM Slit:	5.0 nm
PMT Voltage:	700 V
Response:	Auto 
Corrected spectra:	Off
Contour interval:	50.000

Peak integration
Integration method:	Rectangular
Sensitivity:	1
Threshold:	1.000

Peaks
No.	ApexEX/EM(nm)	Height(Data)
1	225.0/335.0	677.2
2	225.0/355.0	685.6
3	225.0/375.0	676.0
4	225.0/395.0	679.7
5	225.0/405.0	669.0
6	225.0/600.0	43.79
7	230.0/500.0	328.9
8	240.0/265.0	393.9
9	240.0/525.0	202.2
10	245.0/270.0	359.7
11	245.0/445.0	531.7
12	245.0/540.0	177.3
13	250.0/275.0	487.5
14	250.0/550.0	152.2
15	255.0/285.0	550.7
16	255.0/415.0	574.6
17	255.0/435.0	564.3
18	255.0/565.0	129.6
19	260.0/290.0	553.1
20	260.0/575.0	113.0
21	265.0/295.0	773.2
22	265.0/590.0	99.11
23	270.0/300.0	1092
24	270.0/600.0	98.67
25	275.0/305.0	1140
26	275.0/615.0	80.61
27	280.0/625.0	69.22
28	285.0/320.0	928.6
29	285.0/635.0	50.09
30	290.0/325.0	781.4
31	300.0/335.0	520.3
32	305.0/345.0	476.6
33	310.0/350.0	415.2
34	315.0/355.0	417.8
35	320.0/360.0	417.5
36	325.0/370.0	394.7
37	330.0/375.0	386.6
38	335.0/380.0	384.9
39	345.0/395.0	304.9
40	350.0/400.0	299.0
41	360.0/415.0	249.4
42	365.0/420.0	249.2
43	440.0/520.0	23.78
44	455.0/540.0	13.05
45	465.0/555.0	7.594
46	505.0/275.0	2.509
47	510.0/280.0	2.748
48	515.0/285.0	3.050
49	525.0/290.0	3.217
50	535.0/295.0	4.444
51	545.0/300.0	4.927
52	550.0/305.0	6.068
53	560.0/310.0	5.280
54	570.0/315.0	5.379
55	575.0/320.0	5.009
56	580.0/325.0	4.832
57	590.0/330.0	3.729

Data points
	220.0	225.0	230.0	235.0	240.0	245.0	250.0	255.0	260.0	265.0	270.0	275.0	280.0	285.0	290.0	295.0	300.0	305.0	310.0	315.0	320.0	325.0	330.0	335.0	340.0	345.0	350.0	355.0	360.0	365.0	370.0	375.0	380.0	385.0	390.0	395.0	400.0	405.0	410.0	415.0	420.0	425.0	430.0	435.0	440.0	445.0	450.0	455.0	460.0	465.0	470.0	475.0	480.0	485.0	490.0	495.0	500.0	505.0	510.0	515.0	520.0	525.0	530.0	535.0	540.0	545.0	550.0	555.0	560.0	565.0	570.0	575.0	580.0	585.0	590.0	595.0	600.0
230.0	245.9	3676	3903	429.5	10.78	4.239	3.704	2.827	2.036	2.274	2.459	2.246	2.072	1.642	1.637	1.464	1.168	1.168	0.973	0.917	0.776	0.814	0.703	0.602	0.521	0.465	0.478	0.383	0.401	0.418	0.343	0.352	0.329	0.274	0.254	0.210	0.191	0.195	0.174	0.240	0.434	0.659	0.470	0.243	0.150	0.458	4.473	13.88	15.50	7.184	1.375	0.190	0.112	0.084	0.092	0.075	0.067	0.062	0.074	0.064	0.053	0.048	0.055	0.064	0.053	0.080	0.050	0.072	0.033	0.057	0.044	0.036	0.042	0.050	0.023	0.057	0.040
235.0	149.1	1061	3634	3674	410.5	11.83	5.515	4.208	3.563	2.650	2.599	2.906	2.704	1.993	1.615	1.477	1.320	1.189	1.010	1.009	0.900	0.851	0.758	0.617	0.520	0.575	0.481	0.451	0.382	0.462	0.254	0.366	0.295	0.307	0.288	0.183	0.221	0.167	0.214	0.172	0.202	0.379	0.395	0.536	0.463	0.282	1.093	3.808	7.941	11.81	13.42	10.70	3.013	0.462	0.084	0.117	0.078	0.100	0.066	0.085	0.049	0.090	0.103	0.074	0.037	0.068	0.047	0.069	0.044	0.052	0.024	0.011	0.077	0.048	0.106	0.045	0.029
240.0	250.6	300.4	1267	4472	3432	316.7	6.530	4.649	4.495	3.234	3.241	2.976	2.648	2.023	1.793	1.569	1.273	1.184	1.131	1.036	0.921	0.776	0.788	0.662	0.539	0.565	0.393	0.430	0.362	0.403	0.378	0.332	0.288	0.213	0.269	0.208	0.277	0.183	0.164	0.142	0.216	0.221	0.236	0.412	0.663	0.784	0.526	0.974	1.983	4.061	9.833	19.87	18.52	8.974	2.060	0.144	0.150	0.103	0.092	0.066	0.079	0.046	0.104	0.053	0.029	0.057	0.040	0.072	0.069	0.054	0.048	0.039	0.067	0.047	0.054	0.066	0.119
245.0	233.2	252.1	327.6	1854	5280	2936	209.5	6.669	4.417	5.200	3.813	3.050	2.730	2.114	1.815	1.442	1.475	1.369	1.115	1.040	0.917	0.822	0.802	0.609	0.692	0.494	0.464	0.444	0.415	0.443	0.424	0.459	0.255	0.286	0.241	0.242	0.340	0.202	0.145	0.172	0.178	0.146	0.169	0.230	0.385	0.775	0.876	0.650	0.604	1.020	2.561	8.248	17.79	24.40	18.42	7.084	1.040	0.140	0.067	0.086	0.068	0.073	0.104	0.066	0.067	0.083	0.108	0.043	0.060	0.076	0.001	0.054	0.083	0.030	0.034	0.052	0.137
250.0	86.81	235.4	287.5	481.1	2002	4701	4415	926.0	35.85	6.497	5.125	3.948	3.735	2.847	2.470	1.938	1.706	1.462	1.386	1.020	0.954	0.904	0.796	0.676	0.707	0.597	0.487	0.503	0.478	0.428	0.411	0.328	0.292	0.267	0.221	0.243	0.287	0.144	0.186	0.193	0.220	0.184	0.157	0.181	0.219	0.321	0.565	0.781	0.868	0.733	0.813	2.014	4.634	9.846	16.63	21.36	24.63	14.72	6.852	1.291	0.145	0.101	0.141	0.084	0.084	0.073	0.054	0.055	0.108	0.062	0.047	0.060	0.073	0.069	0.062	0.059	0.078
255.0	31.70	79.08	257.0	353.5	498.1	1265	5149	7440	1301	29.52	7.933	5.756	4.900	3.607	3.045	2.271	2.296	1.392	1.412	1.106	1.038	1.073	0.880	0.873	0.741	0.764	0.562	0.575	0.477	0.484	0.465	0.370	0.349	0.263	0.276	0.288	0.245	0.211	0.216	0.205	0.193	0.185	0.096	0.130	0.178	0.162	0.230	0.332	0.548	0.837	1.255	1.173	1.318	2.405	3.855	5.522	13.48	30.16	43.24	23.79	9.312	0.976	0.175	0.078	0.104	0.117	0.085	0.080	0.071	0.088	0.095	0.044	0.072	0.051	0.066	0.048	0.033
260.0	21.03	27.89	101.7	352.2	304.0	318.0	1679	8031	7636	230.2	14.98	7.990	5.455	4.504	3.441	2.657	2.300	1.582	1.599	1.357	1.088	1.029	0.707	1.050	0.815	0.691	0.606	0.612	0.569	0.411	0.399	0.501	0.363	0.263	0.333	0.328	0.373	0.216	0.192	0.262	0.153	0.183	0.184	0.113	0.174	0.152	0.195	0.211	0.223	0.414	0.944	1.611	1.459	0.864	1.006	1.377	3.296	9.131	25.39	47.69	51.68	20.76	5.145	0.273	0.153	0.092	0.146	0.099	0.058	0.093	0.056	0.105	0.050	0.062	0.048	0.040	0.046
265.0	16.78	15.74	34.55	185.2	393.9	190.8	407.2	3041	9999.9	7085	174.1	11.24	8.900	5.526	4.205	2.783	2.478	2.073	1.717	1.492	1.354	1.061	0.902	0.960	0.848	0.783	0.570	0.666	0.648	0.457	0.480	0.511	0.466	0.358	0.288	0.298	0.247	0.241	0.178	0.249	0.181	0.135	0.177	0.126	0.187	0.158	0.148	0.124	0.133	0.199	0.350	0.992	1.823	1.636	0.880	0.499	0.962	2.309	6.233	17.25	42.78	64.04	28.64	15.45	1.936	0.271	0.181	0.143	0.133	0.090	0.085	0.141	0.083	0.061	0.043	0.102	0.058
270.0	30.06	26.76	24.26	58.78	218.1	359.7	247.6	730.7	3542	9887	9424	740.2	43.08	8.841	6.038	4.323	3.636	2.487	1.969	1.719	1.470	1.263	1.132	1.148	0.903	0.748	0.689	0.671	0.605	0.514	0.440	0.585	0.496	0.403	0.331	0.325	0.321	0.289	0.247	0.271	0.243	0.188	0.224	0.198	0.228	0.250	0.190	0.191	0.158	0.171	0.201	0.374	0.664	1.089	1.548	1.606	1.177	0.894	1.618	4.099	10.64	22.87	36.63	56.04	49.18	41.29	10.05	1.931	0.208	0.160	0.137	0.124	0.115	0.086	0.085	0.100	0.084
275.0	69.15	47.78	40.45	35.41	63.42	199.4	487.5	326.5	831.4	2516	9629	9999.9	1052	38.60	10.01	6.375	4.909	3.937	2.604	2.232	1.847	1.664	1.148	1.244	0.899	0.844	0.757	0.755	0.614	0.650	0.557	0.576	0.606	0.444	0.487	0.440	0.438	0.368	0.258	0.243	0.347	0.300	0.212	0.297	0.263	0.353	0.293	0.287	0.175	0.201	0.148	0.206	0.310	0.393	0.564	1.104	2.124	2.509	1.448	1.192	2.532	5.370	8.491	13.84	24.42	64.52	91.21	28.82	14.04	1.526	0.194	0.214	0.140	0.108	0.149	0.161	0.175
280.0	115.5	85.10	63.36	32.59	30.18	73.54	361.0	503.7	283.2	611.7	2809	9999.9	9686	743.5	18.74	8.349	6.086	4.594	3.408	2.492	2.455	1.754	1.452	1.354	1.219	1.098	0.974	0.706	0.687	0.645	0.695	0.630	0.529	0.551	0.625	0.514	0.450	0.443	0.341	0.302	0.336	0.277	0.321	0.388	0.319	0.355	0.384	0.339	0.357	0.234	0.172	0.192	0.222	0.243	0.286	0.448	0.952	2.311	2.748	1.699	1.064	1.430	2.138	3.373	5.947	17.76	47.74	88.51	98.29	25.60	7.754	0.529	0.256	0.230	0.138	0.198	0.136
285.0	170.9	149.5	91.49	44.23	30.90	42.05	150.9	550.7	316.1	226.0	715.0	3766	9999.9	7688	107.4	12.09	7.927	5.810	4.213	2.949	2.579	2.055	1.737	1.619	1.384	1.175	0.997	0.820	0.822	0.887	0.611	0.634	0.540	0.692	0.673	0.716	0.598	0.507	0.423	0.378	0.363	0.473	0.367	0.489	0.461	0.456	0.500	0.407	0.413	0.334	0.286	0.223	0.205	0.203	0.272	0.344	0.425	0.992	1.833	3.050	2.526	1.232	0.848	1.109	1.795	4.337	11.63	28.96	73.08	109.8	89.32	19.32	2.600	0.271	0.191	0.171	0.180
290.0	294.3	248.6	169.6	83.15	52.47	57.05	94.01	260.1	553.1	481.2	332.2	1045	3870	9999.9	9999.9	1922	30.29	8.316	5.717	4.109	3.053	2.566	2.284	1.714	1.377	1.179	1.170	0.911	0.877	0.881	0.741	0.714	0.637	0.753	0.935	0.931	0.818	0.800	0.610	0.554	0.505	0.531	0.590	0.647	0.638	0.705	0.672	0.727	0.658	0.443	0.376	0.316	0.303	0.267	0.325	0.352	0.353	0.549	0.808	1.489	2.401	3.217	2.894	1.784	1.393	1.757	3.435	7.351	18.17	36.15	63.25	82.75	67.45	60.57	12.65	3.385	0.323
295.0	424.2	388.4	277.0	133.2	84.34	87.52	105.0	175.1	321.2	773.2	714.2	573.2	1150	2578	9734	9999.9	628.2	31.68	8.679	5.665	4.081	3.218	2.729	1.959	1.757	1.483	1.391	1.203	1.047	0.882	0.722	0.726	0.795	0.922	1.133	1.335	1.113	0.978	0.835	0.761	0.563	0.762	0.715	0.880	0.848	1.100	0.855	0.928	0.825	0.685	0.475	0.517	0.400	0.347	0.485	0.414	0.470	0.628	0.601	0.910	1.200	1.613	2.594	4.444	3.750	2.448	2.121	3.002	5.491	9.394	15.16	20.16	29.38	80.38	119.7	33.46	18.99
300.0	509.1	479.7	350.6	182.6	110.8	109.2	130.5	183.2	265.5	569.9	1092	708.6	619.2	811.1	2679	9999.9	9999.9	483.1	16.51	8.159	5.227	3.896	2.831	2.415	2.221	1.589	1.457	1.185	1.206	1.072	0.836	0.913	0.663	0.961	1.084	1.446	1.356	1.019	1.015	0.877	0.868	0.904	0.813	0.850	1.066	1.133	1.143	1.194	1.087	0.745	0.594	0.611	0.468	0.543	0.526	0.447	0.589	0.695	0.718	0.818	1.018	1.350	1.713	3.208	4.867	4.927	3.129	2.536	2.836	3.599	4.659	5.589	7.396	20.88	54.40	101.1	127.6
305.0	582.7	541.5	400.4	207.3	133.8	132.2	152.2	206.4	282.3	449.1	948.9	1140	625.5	461.9	750.3	3269	9999.9	9999.9	68.24	11.34	7.099	5.060	3.402	3.104	2.451	1.875	1.629	1.411	1.131	1.109	0.983	0.961	0.878	1.190	1.322	1.444	1.454	1.308	1.043	1.113	0.855	0.875	0.898	0.913	1.001	1.158	1.167	1.163	1.168	0.825	0.655	0.673	0.544	0.608	0.553	0.522	0.756	0.722	0.792	0.843	1.137	1.387	1.524	2.151	2.909	4.845	6.068	4.408	3.003	2.566	2.556	2.527	2.665	5.408	13.01	30.23	78.85
310.0	615.3	569.3	428.5	243.9	155.2	149.5	175.6	232.2	310.4	432.0	674.9	1050	1020	519.5	359.8	832.3	3265	9999.9	9410	1587	23.91	7.126	4.968	3.605	2.792	2.269	1.825	1.604	1.327	1.342	1.086	1.062	1.073	1.228	1.355	1.445	1.497	1.397	1.120	1.131	0.933	0.999	0.995	1.042	1.136	1.351	1.241	1.354	1.227	0.948	0.724	0.755	0.646	0.688	0.623	0.596	0.749	0.838	0.917	1.086	1.242	1.420	1.521	2.009	2.488	3.049	4.139	4.812	5.280	4.510	3.024	2.113	1.846	2.195	3.625	7.359	18.72
315.0	596.6	587.3	425.7	250.9	174.8	159.5	191.5	247.8	323.8	439.9	597.4	760.7	961.6	893.3	360.1	309.5	797.2	2350	7158	9999.9	458.1	26.22	7.170	4.898	3.744	2.818	2.120	1.984	1.519	1.342	1.253	1.234	1.069	1.211	1.316	1.447	1.597	1.356	1.124	1.023	0.959	1.197	1.053	1.184	1.229	1.375	1.246	1.410	1.214	0.989	0.749	0.875	0.712	0.740	0.706	0.674	0.893	0.863	0.847	1.262	1.179	1.638	1.719	2.033	2.249	2.540	3.064	3.394	3.883	5.180	5.379	3.813	2.093	1.509	1.616	2.324	4.746
320.0	632.7	612.2	449.7	257.3	183.0	175.4	205.4	259.8	334.0	446.3	579.6	675.6	738.0	928.6	589.0	222.9	262.6	577.3	1847	9444	9999.9	393.8	15.08	6.227	4.819	3.194	2.435	2.170	1.793	1.528	1.347	1.405	0.936	1.121	1.275	1.375	1.353	1.209	1.110	1.130	1.084	1.111	1.123	1.198	1.355	1.386	1.265	1.325	1.413	0.920	0.817	0.871	0.847	0.726	0.645	0.738	0.833	0.901	0.994	1.133	1.204	1.571	1.893	1.926	2.406	2.608	2.626	2.871	3.048	3.590	4.437	5.009	4.125	2.305	1.479	1.281	1.751
325.0	643.7	651.1	464.4	277.2	190.2	184.3	211.8	268.1	337.5	451.3	574.9	653.9	657.8	694.9	781.4	335.0	160.5	194.9	457.9	2683	9999.9	9999.9	53.96	9.696	6.096	3.945	3.290	2.663	2.201	1.741	1.470	1.353	1.034	1.259	1.380	1.328	1.403	1.343	1.129	1.158	1.016	1.006	1.109	1.130	1.322	1.454	1.355	1.497	1.515	1.094	0.940	0.889	0.820	0.758	0.769	0.782	0.858	0.987	0.970	1.303	1.341	1.511	1.845	2.139	2.233	2.481	2.593	2.812	2.776	2.934	3.312	3.634	4.832	4.361	2.385	1.473	1.112
330.0	639.4	656.6	513.1	337.0	247.4	226.6	239.7	286.8	359.3	456.8	567.7	630.2	629.8	566.8	592.0	563.0	289.4	139.1	162.5	647.6	2831	8563	7374	1408	20.66	6.084	4.488	3.215	2.446	1.989	1.594	1.584	1.244	1.156	1.396	1.351	1.524	1.271	1.175	1.256	1.145	1.115	1.164	1.165	1.249	1.435	1.502	1.504	1.507	1.307	1.024	1.143	0.945	0.929	0.940	0.871	0.960	0.950	1.114	1.281	1.365	1.620	1.906	1.990	2.298	2.457	2.517	2.729	2.706	2.785	2.805	2.825	3.180	3.481	3.729	3.242	2.315
335.0	671.5	677.2	557.6	391.2	309.0	279.2	269.2	310.9	367.5	460.8	558.4	616.0	623.4	546.4	471.4	445.4	520.3	251.6	125.9	209.7	678.9	1988	5154	9999.9	2198	24.40	6.485	4.339	3.093	2.362	1.875	1.860	1.556	1.382	1.396	1.235	1.484	1.295	1.256	1.231	1.046	1.054	1.097	1.188	1.252	1.524	1.658	1.615	1.603	1.387	1.285	1.250	1.181	1.070	1.159	1.098	1.154	1.069	1.220	1.483	1.584	1.640	1.874	2.075	2.236	2.517	2.479	2.726	2.831	3.007	2.710	2.578	2.622	2.536	2.486	2.940	3.509
340.0	642.8	666.7	595.9	435.7	338.1	310.9	294.2	326.4	381.8	457.1	548.2	608.9	613.6	546.9	457.6	371.0	460.3	433.6	171.2	128.5	211.0	490.3	1328	7568	9999.9	345.1	14.70	5.529	3.769	2.879	2.147	2.182	1.608	1.397	1.462	1.234	1.658	1.206	1.138	1.201	1.040	1.041	1.219	1.186	1.273	1.465	1.770	1.725	1.619	1.493	1.362	1.414	1.200	1.183	1.196	1.174	1.194	1.356	1.403	1.540	1.681	1.639	1.855	2.149	2.249	2.517	2.501	2.655	2.814	2.834	2.724	2.743	2.528	2.306	2.149	2.130	2.404
345.0	654.4	663.0	603.5	448.6	372.1	343.9	323.4	344.7	391.6	453.7	536.1	592.0	606.6	540.1	458.5	361.9	347.3	476.6	319.4	138.0	124.9	169.7	343.9	2104	9273	8621	275.8	7.778	4.839	3.741	2.578	2.252	1.766	1.466	1.523	1.308	1.435	1.221	1.278	1.162	1.174	1.078	1.219	1.184	1.232	1.599	1.646	1.678	1.623	1.525	1.343	1.354	1.307	1.341	1.210	1.264	1.386	1.206	1.454	1.395	1.746	1.684	1.780	2.300	1.971	2.466	2.398	2.550	2.810	2.711	2.734	2.657	2.545	2.354	2.093	2.001	2.336
350.0	641.5	681.1	609.1	484.9	422.1	375.0	352.1	364.3	395.8	452.5	528.5	572.7	587.8	544.3	470.2	381.5	329.1	351.8	415.2	292.5	153.1	126.6	146.0	520.4	2532	6868	7713	1260	18.44	5.366	3.381	2.728	1.909	1.753	1.572	1.447	1.381	1.265	1.152	1.095	1.181	1.182	1.196	1.293	1.491	1.540	1.564	1.739	1.676	1.458	1.356	1.503	1.426	1.427	1.351	1.304	1.338	1.307	1.604	1.416	1.559	1.712	1.817	2.036	2.061	2.128	2.300	2.464	2.627	2.659	2.647	2.626	2.621	2.582	2.303	2.227	2.240
355.0	655.5	685.6	608.9	503.1	441.8	413.5	386.8	383.2	411.1	456.6	518.0	564.9	572.6	544.2	480.6	410.4	353.2	326.5	332.0	417.8	293.2	159.0	131.8	189.8	614.1	1601	4410	9348	1995	22.46	5.034	3.855	2.237	2.176	1.783	1.669	1.538	1.417	1.139	1.187	1.164	1.227	1.300	1.109	1.398	1.580	1.425	1.739	1.744	1.517	1.468	1.720	1.554	1.496	1.464	1.349	1.486	1.489	1.537	1.864	1.611	1.820	1.820	1.911	1.954	2.233	2.131	2.409	2.466	2.642	2.412	2.579	2.472	2.420	2.476	2.465	2.349
360.0	627.1	679.3	604.4	532.1	470.4	442.6	413.8	409.4	428.6	460.6	509.1	556.6	558.3	543.8	497.4	426.7	380.3	341.6	317.4	367.7	417.5	237.7	152.7	136.0	204.4	404.3	1129	6218	8971	325.1	13.00	4.862	2.970	2.493	1.885	1.783	1.470	1.411	1.308	1.188	1.140	1.090	1.316	1.276	1.399	1.577	1.429	1.643	1.670	1.466	1.344	1.603	1.641	1.625	1.671	1.649	1.798	1.690	1.628	1.861	1.639	1.783	1.779	2.135	2.182	2.106	2.310	2.240	2.358	2.592	2.599	2.668	2.595	2.664	2.534	2.510	2.453
365.0	640.8	665.7	620.7	534.5	480.1	464.1	431.9	425.0	446.2	473.0	512.6	549.4	556.6	540.9	503.7	440.8	401.3	369.1	334.8	326.1	410.5	363.3	198.7	145.5	130.3	151.8	295.5	1723	7809	7424	259.1	7.456	4.096	2.835	2.370	1.921	1.695	1.418	1.468	1.221	1.267	1.083	1.192	1.325	1.397	1.501	1.532	1.802	1.574	1.420	1.463	1.612	1.626	1.689	1.727	1.628	1.779	1.683	1.726	1.882	1.837	1.890	1.926	2.054	2.045	2.153	2.397	2.333	2.467	2.459	2.526	2.663	2.584	2.448	2.379	2.464	2.417
370.0	659.9	666.1	612.7	554.5	519.9	491.8	463.7	460.3	459.0	482.6	518.0	547.3	549.0	538.3	508.8	462.4	428.3	398.5	371.3	347.7	353.0	394.7	332.9	196.5	141.5	117.6	125.4	428.6	2140	6008	5326	1186	15.99	4.029	2.839	2.217	1.905	1.690	1.549	1.429	1.412	1.235	1.293	1.396	1.524	1.449	1.539	1.726	1.638	1.484	1.533	1.648	1.678	1.818	1.802	1.735	1.937	1.990	1.803	1.868	1.968	1.893	2.009	1.999	2.157	2.145	2.247	2.322	2.492	2.460	2.487	2.511	2.634	2.575	2.664	2.443	2.660
375.0	661.9	676.0	615.6	564.4	546.8	522.4	488.2	478.3	472.4	487.2	519.4	540.7	546.8	533.0	511.0	474.1	445.0	421.8	402.8	377.3	355.1	345.4	386.6	321.0	184.3	133.0	107.3	154.0	518.3	1399	3567	9860	1715	18.27	3.686	2.884	2.144	1.884	1.659	1.258	1.548	1.487	1.324	1.435	1.486	1.620	1.458	1.850	1.637	1.535	1.537	1.861	1.820	1.967	1.831	1.743	1.945	1.964	2.098	2.081	1.853	1.950	1.969	1.995	2.061	2.206	1.977	2.277	2.556	2.597	2.400	2.506	2.486	2.398	2.519	2.617	2.657
380.0	630.6	669.5	608.4	583.9	545.7	543.1	516.4	493.4	488.3	493.8	525.4	534.5	544.4	529.8	513.8	478.4	457.0	441.9	421.6	394.8	368.7	343.3	347.6	384.9	255.1	156.0	118.3	103.8	166.3	348.0	924.6	6721	7152	274.1	8.525	3.794	2.616	2.248	1.692	1.502	1.539	1.409	1.299	1.373	1.444	1.582	1.544	1.749	1.694	1.530	1.641	1.831	1.893	1.927	1.847	1.822	1.880	1.842	2.092	2.052	1.902	2.197	2.165	2.088	2.097	2.207	2.054	2.282	2.452	2.510	2.324	2.654	2.385	2.549	2.599	2.586	2.612
385.0	620.3	672.2	634.1	579.7	565.1	552.3	526.5	516.0	498.4	502.8	525.6	532.5	534.8	526.5	514.9	478.6	466.2	453.0	432.7	409.1	381.6	352.2	326.9	356.9	333.4	195.5	135.3	104.5	98.23	121.5	237.8	1896	6234	5458	35.41	5.209	3.043	2.729	1.942	1.593	1.560	1.373	1.486	1.485	1.494	1.598	1.577	1.739	1.665	1.561	1.466	1.912	1.830	1.992	1.919	1.865	1.860	1.943	2.007	2.103	1.962	2.106	2.142	2.236	2.254	2.335	2.185	2.235	2.347	2.452	2.439	2.659	2.599	2.508	2.421	2.631	2.674
390.0	617.1	673.4	635.2	592.5	568.8	560.8	537.5	523.9	512.8	519.5	526.7	530.2	527.4	519.6	504.8	477.0	462.6	453.2	440.0	418.2	395.6	365.3	334.4	316.7	330.2	287.9	183.1	127.7	101.3	87.74	95.34	454.5	1710	4437	3872	870.3	12.67	3.296	2.403	1.929	1.786	1.460	1.577	1.424	1.529	1.622	1.666	1.749	1.663	1.566	1.623	1.881	1.864	2.022	2.093	1.954	2.060	2.070	2.107	2.105	2.013	2.250	2.122	2.333	2.209	2.243	2.277	2.309	2.304	2.346	2.303	2.562	2.413	2.698	2.635	2.722	2.862
395.0	621.9	679.7	639.3	609.5	571.3	575.4	556.4	545.9	529.4	528.1	530.4	528.6	528.6	517.5	495.1	475.0	462.9	450.6	445.5	425.1	405.5	378.1	347.4	315.8	292.8	304.9	268.8	166.6	122.1	97.94	78.98	142.5	408.3	1033	2621	5643	1338	14.50	3.360	2.301	1.980	1.630	1.712	1.522	1.541	1.614	1.639	1.721	1.698	1.569	1.615	1.853	1.958	2.130	2.078	2.081	2.119	2.039	2.139	2.230	2.234	2.139	2.273	2.233	2.168	2.131	2.232	2.348	2.304	2.414	2.314	2.530	2.374	2.641	2.601	2.606	2.794
400.0	644.9	661.3	634.2	604.7	579.4	577.1	560.7	555.7	531.9	537.1	539.3	540.3	529.5	510.0	489.7	468.1	454.6	446.9	443.3	424.8	406.7	382.7	353.6	324.1	288.9	276.1	299.0	223.3	144.1	113.1	86.28	80.43	124.7	254.7	682.7	3811	5084	232.8	7.036	2.916	2.289	2.058	1.680	1.628	1.567	1.664	1.669	1.859	1.637	1.491	1.433	1.939	1.837	2.025	2.057	2.001	2.078	2.267	2.223	2.205	2.236	2.103	2.182	2.308	2.288	2.218	2.139	2.397	2.408	2.505	2.354	2.325	2.677	2.362	2.430	2.736	3.065
405.0	613.7	669.0	637.5	599.8	583.7	579.0	565.6	551.8	543.1	541.4	540.9	541.5	525.9	507.6	479.1	462.1	443.3	440.3	433.4	421.1	406.1	385.1	360.4	328.4	292.7	263.7	276.9	276.2	182.4	128.0	97.68	77.53	69.47	85.94	173.5	1067	4355	3893	31.51	4.138	2.631	2.518	1.830	1.477	1.584	1.735	1.477	1.757	1.731	1.475	1.440	1.899	1.970	1.989	1.888	2.113	2.205	2.226	2.312	2.188	2.208	2.198	2.162	2.275	2.323	2.247	1.954	2.247	2.405	2.469	2.554	2.470	2.579	2.511	2.483	2.632	2.575
410.0	629.8	658.4	627.8	601.5	588.3	574.1	569.6	557.4	550.6	544.6	543.1	534.3	516.7	495.6	468.6	445.4	433.5	429.2	421.2	410.9	398.0	379.7	360.3	335.4	304.1	269.6	254.5	265.1	246.1	170.3	118.7	91.27	68.67	57.10	65.09	257.2	1193	3157	2923	768.5	11.42	2.923	2.133	1.743	1.695	1.791	1.537	1.682	1.694	1.512	1.562	1.954	1.915	2.050	1.936	2.061	2.153	2.222	2.254	2.171	2.149	2.318	2.255	2.220	2.276	2.297	2.146	2.182	2.349	2.280	2.385	2.460	2.494	2.398	2.444	2.528	2.724
415.0	608.3	653.4	607.9	593.9	583.7	570.4	574.1	574.6	552.5	551.6	549.4	529.9	508.5	483.6	453.7	427.3	418.6	409.5	405.6	397.9	382.5	371.3	354.1	332.3	306.3	277.4	255.9	238.9	249.4	235.5	151.6	108.0	79.55	60.09	48.82	81.09	283.2	732.8	1878	4029	1090	12.88	2.760	2.199	1.879	1.800	1.681	1.619	1.667	1.441	1.674	1.798	1.923	1.880	2.032	2.072	2.120	2.339	2.146	2.195	2.276	2.475	2.041	2.313	2.251	2.171	2.191	2.351	2.387	2.328	2.448	2.390	2.427	2.361	2.239	2.297	2.410
420.0	622.6	648.9	597.4	586.9	576.8	565.5	565.5	569.1	554.8	554.0	544.5	519.5	497.1	465.5	437.0	418.0	400.7	395.8	392.4	379.7	370.6	363.5	346.7	326.6	307.3	282.4	256.8	236.7	228.9	249.2	193.8	123.8	87.97	66.59	50.26	46.86	84.20	178.4	483.8	2673	3658	215.0	6.169	2.616	2.066	1.910	1.724	1.700	1.726	1.549	1.735	1.968	1.899	1.904	2.018	2.073	2.224	2.388	2.235	2.186	2.467	2.289	2.199	2.111	2.150	2.121	1.991	2.077	2.241	2.240	2.446	2.330	2.393	2.106	2.284	2.265	2.488
425.0	594.1	615.3	578.8	564.5	561.6	565.0	559.4	561.8	560.6	552.5	539.5	512.4	486.9	457.5	424.9	399.6	384.7	379.9	377.2	367.1	358.3	350.6	338.0	319.1	302.9	281.4	261.4	238.1	220.5	228.7	223.4	150.8	97.74	74.73	56.01	43.65	43.09	56.82	120.7	751.0	3032	1894	30.42	3.647	2.454	2.081	1.735	1.807	1.674	1.559	1.710	1.906	1.880	1.752	1.959	2.070	2.258	2.208	2.157	2.145	2.413	2.269	2.299	2.338	2.226	2.025	2.067	2.146	2.055	2.191	2.174	2.490	2.337	2.087	2.175	2.270	2.234
430.0	746.7	582.7	569.6	557.2	554.0	554.9	552.1	561.5	559.7	550.9	538.6	508.7	473.7	443.8	408.1	383.5	368.0	363.4	355.9	349.6	340.1	334.7	326.8	315.2	300.6	279.1	261.2	243.7	223.5	211.0	209.6	188.6	126.9	87.29	64.87	49.81	39.76	34.72	43.48	180.3	822.2	1996	2347	696.7	10.83	2.553	2.023	1.957	1.673	1.618	1.560	1.831	1.854	1.958	1.991	1.941	2.214	2.136	2.190	2.117	2.205	2.285	2.308	2.427	2.207	2.112	2.250	2.079	2.195	2.089	2.134	2.117	2.206	2.074	2.136	2.064	2.218
435.0	1734	578.0	553.2	546.9	544.1	527.0	549.9	564.3	555.4	547.0	539.5	504.2	472.2	430.3	397.7	365.7	347.4	339.2	336.0	330.9	323.9	321.2	314.3	304.0	293.4	275.9	261.7	245.3	228.2	210.8	192.8	187.6	167.4	109.7	76.19	57.89	45.57	35.75	29.88	55.41	194.8	463.0	1382	3331	1059	13.09	2.655	2.220	1.846	1.845	1.529	1.805	1.799	2.109	2.094	2.178	2.052	2.249	2.085	2.437	2.317	2.218	2.189	2.319	2.093	2.080	2.095	1.983	2.042	2.110	2.011	1.981	1.983	2.074	2.118	2.037	2.225
440.0	3009	691.1	546.3	536.2	533.7	522.7	531.3	554.7	548.9	546.8	533.6	507.5	463.9	421.7	383.1	352.2	340.5	329.4	323.3	320.6	311.1	310.2	304.4	297.5	286.1	271.8	258.4	246.2	231.5	214.4	190.7	175.0	174.3	137.8	86.86	64.80	50.94	39.46	31.33	29.91	56.92	114.1	350.4	2115	3289	207.0	6.526	2.561	2.017	1.714	1.582	1.944	1.736	2.130	1.936	1.967	2.016	2.210	2.211	2.311	2.315	2.250	2.325	2.301	2.275	2.131	1.978	2.206	1.985	2.057	2.076	1.941	1.927	2.022	1.887	1.907	2.270
445.0	3764	1249	543.3	521.5	518.8	531.7	520.9	551.8	546.2	538.3	529.4	495.9	454.7	411.1	374.1	342.2	327.5	316.7	311.5	308.2	301.4	296.5	293.7	287.5	276.7	264.8	257.5	241.9	230.0	214.9	192.7	169.5	160.6	152.2	105.1	70.44	55.64	42.47	34.02	27.75	27.94	37.58	88.03	578.7	2591	1765	148.8	3.592	2.453	1.971	1.686	1.862	1.815	2.010	2.025	1.849	1.995	2.111	2.094	2.225	2.307	2.299	2.223	2.117	2.211	2.260	1.978	2.080	1.953	1.884	1.971	1.905	1.912	1.849	1.883	1.933	2.047
450.0	2499	2963	672.3	488.6	497.6	500.9	504.4	536.5	531.5	528.5	514.6	483.5	439.1	393.1	354.6	324.4	308.2	294.5	289.6	285.8	280.8	275.9	275.1	269.8	262.5	253.4	245.8	235.5	226.5	211.2	191.3	168.4	145.8	140.7	126.6	87.49	62.62	48.41	38.45	30.68	25.31	22.41	31.02	138.4	694.6	1775	2057	635.9	9.834	2.125	1.861	1.971	1.924	1.989	1.954	1.936	2.076	2.072	2.031	2.071	2.339	2.182	2.161	2.197	2.163	2.265	2.072	2.011	1.899	1.806	1.880	1.938	1.975	1.678	1.785	1.871	1.804
455.0	988.5	3547	1721	466.1	468.3	481.4	486.1	505.7	506.1	498.8	494.5	469.9	412.0	372.4	333.1	302.8	285.1	274.3	268.4	262.7	256.3	253.8	254.6	250.0	244.2	238.8	232.3	223.1	217.5	204.9	186.8	166.2	142.4	124.4	120.0	109.1	74.60	54.66	42.37	34.61	27.49	21.74	20.32	41.35	163.3	409.9	1111	2727	856.1	10.67	2.126	2.081	1.879	1.868	1.913	1.877	1.991	2.018	2.157	2.183	2.311	2.133	2.226	2.226	2.070	2.098	1.927	1.977	1.898	1.742	1.635	1.745	1.743	1.646	1.649	1.936	1.772
460.0	519.5	2453	3116	554.6	435.9	460.8	464.9	482.1	481.9	480.2	474.1	443.1	395.4	352.7	313.6	281.4	267.8	255.6	251.5	242.2	239.9	237.1	236.7	235.0	232.7	223.5	219.6	214.0	207.2	198.9	181.3	161.2	140.0	119.3	106.6	109.9	88.38	59.23	45.13	37.02	29.38	23.81	19.10	20.70	45.22	99.27	274.8	1622	2515	154.6	6.199	2.440	2.006	1.873	1.899	1.783	2.016	1.958	2.092	2.021	2.093	2.189	1.976	2.070	2.050	2.057	1.901	1.887	1.841	1.811	1.661	1.889	1.678	1.718	1.528	1.529	1.594
465.0	415.3	1179	3707	787.9	418.7	423.5	441.1	458.6	459.1	458.3	455.8	424.3	379.5	334.6	296.5	266.6	248.8	242.0	233.0	227.7	225.7	224.0	219.5	220.3	218.3	211.5	205.8	201.3	196.6	189.6	176.3	156.5	135.4	114.8	100.3	98.72	94.85	68.25	48.40	38.33	30.95	25.05	20.46	16.90	19.90	30.45	68.25	430.6	1917	1296	130.3	3.400	2.201	2.046	1.925	1.800	2.026	1.871	1.806	2.119	2.081	2.000	2.097	1.960	1.921	2.060	1.765	1.804	1.828	1.695	1.659	1.647	1.548	1.665	1.380	1.557	1.536
470.0	405.9	570.0	2327	2658	507.4	397.9	405.6	420.9	431.2	426.4	419.8	395.7	351.9	309.3	272.9	244.9	230.8	219.4	210.5	206.1	203.5	201.1	198.2	198.1	195.2	191.5	187.2	184.6	181.3	176.2	163.8	146.2	128.2	112.4	95.58	85.39	84.76	77.69	55.78	40.48	32.39	26.37	21.99	17.86	15.88	15.72	22.57	102.4	505.6	1227	1418	549.4	9.539	2.263	2.027	2.004	1.621	1.721	1.865	1.770	1.920	1.852	1.967	1.808	1.786	1.817	1.717	1.668	1.694	1.534	1.504	1.409	1.422	1.437	1.408	1.375	1.541
475.0	452.0	397.4	850.4	3118	1523	358.2	363.0	380.7	384.7	388.3	386.1	361.5	328.7	283.0	247.9	219.9	206.3	195.8	186.9	183.5	179.0	178.6	177.7	177.8	174.0	171.3	168.7	166.3	163.4	159.7	149.8	135.2	120.1	104.7	90.65	78.30	71.42	70.58	65.44	45.46	33.76	28.46	23.36	18.84	16.22	13.68	13.08	29.28	118.0	281.0	680.4	1766	648.1	12.50	2.326	1.900	1.751	1.713	1.668	1.523	1.793	1.819	1.820	1.802	1.780	1.663	1.601	1.428	1.625	1.437	1.467	1.277	1.530	1.291	1.320	1.252	1.304
480.0	433.2	356.1	440.1	2037	2838	440.0	341.0	358.8	358.8	361.0	364.2	338.0	303.4	263.8	231.4	204.4	192.6	180.9	172.6	169.4	166.5	163.9	163.7	164.7	160.3	156.3	155.6	154.3	152.3	148.3	140.5	129.1	114.0	100.0	86.26	75.02	67.50	61.71	65.20	51.90	35.88	28.58	23.75	19.87	16.62	14.18	11.40	13.67	32.14	67.29	165.4	961.9	1627	185.2	6.550	2.228	1.810	1.637	1.712	1.461	1.645	1.646	1.641	1.599	1.631	1.467	1.566	1.363	1.502	1.400	1.383	1.271	1.341	1.322	1.194	1.242	1.197
485.0	404.7	368.8	311.0	940.4	3396	987.7	323.7	337.3	341.6	345.6	343.1	312.8	286.1	247.8	220.1	191.2	180.3	168.2	163.8	158.2	155.0	150.2	151.7	149.7	149.5	146.9	147.6	144.3	142.4	139.8	133.4	122.3	107.9	95.78	82.78	72.77	64.41	56.88	57.63	56.18	40.44	29.94	24.37	20.15	17.22	15.08	11.75	10.83	12.75	19.84	41.34	251.4	1281	1491	149.9	2.929	1.951	1.709	1.777	1.512	1.525	1.472	1.399	1.411	1.346	1.526	1.555	1.286	1.361	1.452	1.285	1.184	1.169	1.108	1.084	1.238	1.273
490.0	308.8	384.9	288.6	423.8	2120	2576	387.8	311.6	317.1	321.3	319.0	293.7	269.1	232.5	201.0	178.9	165.8	153.9	150.8	144.1	141.3	138.3	139.1	137.4	135.4	134.3	133.3	131.2	131.7	129.1	123.1	112.8	100.5	88.94	79.14	69.55	61.38	54.08	49.58	50.41	46.56	34.65	25.32	21.09	17.92	15.46	12.62	10.51	9.613	9.610	13.73	60.14	335.4	1004	1623	536.6	10.43	1.980	1.726	1.596	1.581	1.602	1.400	1.333	1.365	1.413	1.410	1.312	1.276	1.248	1.200	1.149	1.177	1.007	0.961	0.998	1.073
495.0	244.2	348.6	313.4	288.2	731.6	3013	1402	286.7	284.6	290.1	286.0	270.3	246.0	212.4	184.5	164.9	150.7	139.4	135.0	130.9	125.9	123.5	124.4	122.3	121.6	120.1	118.8	119.0	118.8	116.3	111.4	101.7	93.75	84.18	75.08	65.01	57.96	51.86	44.74	42.46	44.34	40.67	28.78	21.59	18.66	15.50	12.55	10.89	9.458	7.889	7.593	17.36	78.42	229.2	823.7	1749	697.1	12.69	1.865	1.535	1.500	1.406	1.363	1.217	1.219	1.315	1.333	1.111	1.187	1.154	1.173	1.020	1.164	0.986	0.947	0.831	0.987
500.0	224.3	279.1	328.9	243.8	339.2	1969	2752	337.8	265.2	268.4	269.2	250.1	224.7	198.1	169.2	150.3	137.0	130.7	122.4	118.9	115.4	114.3	112.8	111.8	111.5	109.6	109.1	108.2	109.2	107.9	103.0	94.95	86.82	76.33	69.80	61.56	55.11	48.64	42.70	37.90	37.69	39.80	33.56	22.90	18.57	15.36	13.01	11.40	9.836	7.680	6.412	7.802	21.20	54.22	199.4	960.8	1753	197.0	5.757	1.601	1.405	1.365	1.271	1.310	1.167	1.267	1.028	1.101	1.208	1.107	1.030	0.903	0.967	0.971	0.948	0.810	1.054
505.0	208.6	221.3	316.7	230.8	235.7	849.6	3450	828.7	247.0	248.5	240.6	231.9	208.7	183.1	158.3	137.8	128.2	120.4	113.8	107.0	105.4	103.7	102.1	100.2	100.5	99.42	98.33	98.86	99.27	99.42	93.38	87.38	79.75	70.44	64.52	57.47	51.67	46.55	40.66	36.01	32.83	35.17	34.93	24.99	18.89	15.69	13.27	11.04	9.393	7.957	6.311	5.983	8.095	15.28	47.67	248.1	1229	1444	28.48	2.371	1.531	1.506	1.237	1.369	1.216	1.140	1.004	1.023	1.147	1.000	0.950	0.907	0.972	0.886	0.941	0.803	0.805
510.0	180.5	188.9	260.5	255.7	198.8	345.9	2179	2492	284.1	226.3	216.9	207.6	188.7	164.2	139.9	123.0	113.4	105.9	100.8	95.12	91.86	89.50	89.84	87.88	86.59	86.27	86.26	85.85	86.87	86.06	81.66	76.88	70.41	63.83	56.97	51.31	46.22	41.41	36.49	32.99	29.28	28.24	30.17	28.10	20.55	15.54	12.77	10.87	9.213	7.732	6.485	5.596	5.131	6.531	13.57	57.78	317.9	916.4	1126	385.1	9.220	1.543	1.238	1.182	1.205	1.156	1.058	0.976	0.931	0.897	0.866	0.826	0.860	0.886	0.702	0.651	0.790
515.0	155.4	151.8	183.9	253.4	187.7	202.5	702.3	3272	1246	200.6	193.3	185.5	161.1	140.4	123.5	108.4	97.65	92.03	88.03	82.40	79.07	79.41	77.05	76.20	77.86	74.18	74.04	72.71	74.47	74.76	71.80	67.51	60.90	54.79	50.52	45.12	41.34	36.23	32.83	29.44	26.22	23.90	23.18	26.44	23.61	16.53	12.66	10.51	8.867	7.046	6.251	5.749	4.614	4.588	5.721	15.21	73.00	208.3	532.5	1282	211.1	9.343	1.279	1.134	1.050	0.967	0.900	0.805	0.800	0.850	0.657	0.843	0.757	0.695	0.675	0.600	0.695
520.0	129.1	131.6	144.2	225.5	194.8	158.3	278.5	2233	2362	247.5	170.4	165.2	144.9	127.3	110.7	99.76	89.27	81.59	77.30	72.72	70.92	68.78	69.04	67.38	67.66	66.04	64.58	65.65	67.27	66.53	64.08	60.44	55.38	49.42	45.87	41.46	37.23	33.43	30.26	27.07	24.34	21.26	20.48	21.96	23.78	18.62	12.54	10.39	8.621	7.080	5.972	5.549	4.536	3.928	4.023	5.856	18.36	48.53	128.6	725.6	1135	172.3	3.084	1.274	0.840	0.925	0.761	0.872	0.837	0.754	0.813	0.729	0.735	0.604	0.535	0.578	0.539
525.0	102.9	125.4	121.8	175.0	202.2	140.9	175.9	926.3	3646	717.5	158.5	146.6	134.0	115.2	99.37	88.73	77.95	73.56	69.44	66.20	63.17	63.31	61.89	60.90	60.88	59.41	58.48	59.44	59.63	59.43	57.17	53.67	48.35	44.48	41.64	37.78	34.09	31.19	27.66	25.03	22.07	19.42	18.64	17.99	20.76	20.26	13.40	10.19	8.343	6.941	5.750	5.342	4.684	4.043	3.780	3.612	6.154	12.72	30.70	189.3	845.4	958.0	27.24	1.580	0.901	0.988	0.783	0.635	0.812	0.612	0.714	0.701	0.616	0.660	0.496	0.536	0.447
530.0	97.76	111.7	105.9	131.1	195.5	151.7	136.7	319.1	2450	2489	197.3	132.0	114.0	103.1	88.42	78.51	69.67	64.52	60.24	56.61	55.95	54.30	53.12	52.55	52.01	50.48	50.78	51.33	51.24	51.66	49.27	46.70	42.19	38.57	36.30	32.95	30.16	27.26	24.65	22.60	19.98	17.71	16.79	15.34	16.01	17.75	15.46	10.81	7.790	6.598	5.501	5.023	4.384	4.214	3.745	3.217	3.399	4.668	8.521	43.90	220.6	650.8	771.2	120.5	6.715	0.976	0.735	0.674	0.754	0.656	0.630	0.579	0.582	0.571	0.506	0.483	0.513
535.0	88.40	104.1	94.98	101.3	147.0	176.4	116.7	157.4	736.9	3544	1122	116.7	100.4	91.04	75.31	67.29	59.35	56.02	52.10	48.92	49.05	47.19	45.29	44.46	42.91	42.92	43.33	43.74	43.55	44.49	42.40	41.19	36.47	33.38	31.04	28.07	25.59	23.39	22.04	19.73	17.59	16.44	14.92	13.20	12.82	13.18	14.76	12.34	8.132	6.108	5.299	4.619	4.289	3.848	4.061	3.110	2.598	2.889	3.533	11.30	50.51	148.7	404.3	849.9	183.0	4.753	0.800	0.699	0.638	0.606	0.512	0.494	0.526	0.449	0.475	0.388	0.443
540.0	80.91	87.40	82.97	86.48	99.71	177.3	115.4	111.2	247.9	2427	2717	154.0	91.59	82.98	67.93	58.63	53.08	50.28	46.74	43.88	43.43	42.71	41.51	40.44	38.54	37.84	38.31	38.73	38.46	38.18	37.00	35.67	32.79	29.79	28.35	25.67	23.12	21.15	19.99	17.87	15.62	14.81	13.13	12.32	10.94	10.63	12.00	13.05	9.184	6.009	4.851	4.441	4.114	3.692	3.706	3.279	2.431	2.427	2.388	3.994	12.72	34.58	99.44	539.2	780.9	29.74	1.415	0.782	0.625	0.556	0.546	0.462	0.518	0.417	0.415	0.326	0.319
545.0	82.61	81.13	73.15	80.13	84.53	156.4	129.0	93.74	129.7	951.3	3859	504.6	84.90	73.66	62.48	53.44	49.32	44.22	41.69	39.60	38.61	37.05	37.59	36.26	35.04	34.28	34.54	34.65	34.56	34.65	33.60	32.09	29.48	26.42	25.39	23.19	20.96	19.06	17.85	15.99	14.07	13.41	12.38	11.41	10.31	9.287	9.519	11.68	10.19	6.396	4.586	4.251	3.680	3.415	3.351	3.305	2.794	2.293	2.140	2.248	3.937	8.789	23.35	146.3	649.4	607.7	23.92	0.880	0.645	0.589	0.492	0.446	0.450	0.409	0.386	0.427	0.315
550.0	71.87	77.46	65.41	66.03	69.20	106.2	152.2	92.51	91.00	290.2	2531	2175	118.7	64.59	54.80	47.05	43.14	39.17	36.70	34.23	33.71	31.91	32.44	31.60	30.16	29.91	30.01	29.64	29.70	30.30	29.06	27.46	25.25	23.50	21.83	19.85	18.57	17.06	15.25	14.07	12.68	11.91	11.07	10.03	9.191	8.455	7.822	8.626	9.465	7.502	5.099	3.873	3.519	2.983	2.926	2.766	2.778	2.483	1.941	1.734	1.985	3.090	6.179	33.76	175.3	475.5	423.7	107.2	3.987	0.565	0.501	0.447	0.381	0.373	0.364	0.331	0.305
555.0	56.89	64.62	63.13	58.29	56.28	68.26	133.6	106.4	74.19	120.6	712.8	3434	785.8	56.77	46.53	40.60	36.93	32.17	30.68	29.18	27.70	27.16	27.11	26.20	25.60	25.07	25.35	25.18	25.74	25.65	24.66	23.06	21.45	19.79	18.71	17.24	15.89	14.28	13.26	12.24	10.91	10.36	9.557	8.737	8.316	7.569	6.488	6.347	6.992	7.594	6.116	3.866	3.119	2.737	2.687	2.379	2.438	2.392	1.970	1.607	1.497	1.586	2.338	8.244	39.80	109.3	282.6	607.6	145.9	2.264	0.575	0.437	0.391	0.335	0.296	0.297	0.235
560.0	52.79	62.02	56.91	53.64	52.38	55.78	99.76	126.3	66.78	76.66	212.9	2439	2171	77.15	41.41	36.86	32.85	28.99	27.37	26.09	24.43	24.41	23.60	23.25	21.67	21.78	21.15	21.98	22.74	22.12	22.22	20.07	18.58	17.64	16.35	14.65	13.99	12.90	11.52	10.64	9.888	9.156	8.661	7.666	7.247	6.776	5.966	5.536	5.312	6.525	6.456	4.384	3.020	2.690	2.365	2.139	1.973	2.143	2.190	1.569	1.261	1.258	1.365	2.616	9.573	25.11	72.19	422.7	533.5	27.24	0.921	0.450	0.486	0.303	0.296	0.288	0.357
565.0	57.89	57.21	49.71	47.29	42.86	49.32	72.57	129.6	73.47	65.32	94.17	944.6	3343	147.5	37.67	33.11	28.82	26.25	23.96	23.65	21.28	21.10	21.45	20.13	19.04	18.66	19.40	18.94	19.20	19.11	18.92	17.41	15.91	15.54	14.20	13.12	11.86	11.07	10.01	9.388	8.636	8.124	7.702	6.829	6.504	5.800	5.395	4.903	4.360	4.817	5.713	4.911	2.991	2.579	2.209	2.002	2.012	1.929	1.886	1.818	1.304	1.209	1.003	1.313	2.878	6.287	16.93	119.0	482.5	246.4	18.15	0.536	0.382	0.351	0.337	0.309	0.285
570.0	54.41	51.20	45.82	40.22	35.57	39.63	48.49	103.1	96.24	55.59	62.77	263.0	2312	1648	63.47	27.64	24.42	21.40	20.24	19.12	17.77	17.07	17.46	16.68	15.89	15.84	15.47	15.47	15.63	15.72	15.11	13.91	12.97	12.51	11.74	10.81	9.745	9.098	8.228	7.873	7.151	6.537	6.231	5.818	5.434	4.884	4.381	4.013	3.639	3.484	4.085	4.694	3.554	2.571	1.988	1.836	1.562	1.436	1.597	1.548	1.428	1.105	0.869	0.904	1.242	1.993	4.329	27.25	135.4	303.4	304.1	72.37	1.424	0.394	0.259	0.267	0.276
575.0	52.28	45.23	40.67	32.93	30.89	32.67	35.53	57.34	113.0	57.60	50.11	94.74	645.8	2811	507.3	22.45	18.93	17.00	16.33	14.72	14.19	13.98	13.60	12.76	12.61	11.98	12.11	11.99	12.54	12.36	11.89	11.10	10.20	9.858	9.022	8.600	7.956	7.098	6.319	6.304	5.655	5.434	4.876	4.809	4.395	3.801	3.403	3.177	2.741	2.733	2.683	3.271	3.412	2.872	1.880	1.503	1.345	1.245	1.328	1.126	1.214	1.271	0.823	0.665	0.809	0.856	1.352	6.607	30.65	70.68	210.0	355.0	28.02	0.877	0.283	0.274	0.269
580.0	47.21	46.03	36.91	28.99	27.26	26.97	29.01	39.52	99.86	70.38	46.59	55.55	179.4	2040	1578	31.74	16.13	14.75	12.86	12.08	12.38	11.54	10.82	10.61	10.01	10.12	9.661	9.557	10.15	9.510	9.764	8.991	8.492	7.880	7.420	6.851	6.517	6.162	5.204	4.875	4.633	4.453	4.001	4.069	3.620	3.195	2.804	2.697	2.284	2.103	2.099	2.288	2.889	2.884	1.936	1.374	1.181	1.050	1.106	0.882	1.020	1.323	0.942	0.680	0.653	0.568	0.746	1.912	7.285	16.21	55.15	268.1	239.8	19.88	0.394	0.266	0.244
585.0	41.64	44.25	37.81	26.62	23.79	22.71	24.72	31.40	75.52	94.96	49.28	46.16	71.17	790.8	2547	93.27	13.57	11.77	10.99	10.08	9.814	9.961	9.202	8.816	8.527	8.371	8.453	7.936	8.188	8.135	7.905	7.460	6.885	6.198	6.092	5.367	5.270	4.909	4.419	3.998	3.838	3.717	3.475	3.084	2.992	2.803	2.492	2.196	1.865	1.764	1.673	1.591	2.214	2.558	2.195	1.246	1.101	0.846	1.001	0.790	0.785	1.085	1.090	0.746	0.547	0.500	0.524	0.854	1.934	4.063	12.84	79.73	272.2	177.4	10.02	0.262	0.231
590.0	40.38	42.30	36.07	24.33	21.11	18.88	22.65	25.76	44.88	99.11	59.76	45.11	46.47	208.9	1781	1108	29.13	9.800	8.768	8.361	7.602	7.771	7.479	6.803	6.855	6.604	6.530	6.656	6.143	6.531	6.216	5.744	5.346	4.780	4.753	4.362	4.011	3.836	3.393	3.335	3.009	2.899	2.710	2.530	2.517	2.215	1.979	1.736	1.659	1.416	1.256	1.180	1.342	1.858	2.084	1.495	0.992	0.815	0.715	0.703	0.710	0.744	0.834	0.915	0.601	0.494	0.461	0.562	0.728	1.218	3.153	18.18	80.25	178.9	155.1	16.11	0.555
595.0	42.50	42.44	31.59	19.91	18.28	17.57	20.00	22.55	31.52	70.86	87.62	43.83	40.24	68.43	489.2	1959	299.4	8.304	6.875	7.056	5.642	5.878	5.324	5.310	5.019	5.053	4.838	4.730	4.958	4.782	4.383	4.152	4.074	4.101	3.676	3.601	3.130	2.858	2.673	2.471	2.232	2.301	1.987	2.021	1.781	1.638	1.526	1.336	1.252	1.040	1.065	0.878	0.965	1.210	1.489	1.610	1.152	0.786	0.610	0.553	0.499	0.510	0.512	0.715	0.764	0.524	0.452	0.443	0.451	0.532	0.960	4.254	18.09	42.42	116.6	167.0	21.82
600.0	40.15	43.79	33.22	19.28	16.37	14.67	16.80	20.11	26.30	49.09	98.67	49.87	37.51	36.63	125.8	1453	714.0	13.31	6.625	5.388	5.060	4.514	4.545	4.495	4.243	4.005	4.096	4.321	3.720	3.817	3.776	3.283	3.284	3.234	2.954	2.763	2.676	2.502	2.167	1.886	1.869	1.761	1.537	1.422	1.501	1.284	1.237	1.167	1.075	0.855	0.759	0.746	0.773	0.778	1.055	1.418	1.192	0.701	0.591	0.460	0.522	0.471	0.382	0.515	0.775	0.773	0.437	0.416	0.375	0.341	0.533	1.190	4.264	9.698	31.74	142.1	129.8
605.0	38.89	38.24	31.10	19.32	15.41	14.52	14.36	19.98	24.18	34.83	89.75	62.32	37.51	29.59	41.97	575.5	1575	62.62	5.263	4.921	4.541	3.740	3.911	3.826	3.652	3.554	3.459	3.282	3.203	3.239	3.177	2.974	2.693	2.727	2.550	2.295	2.377	1.960	1.978	1.710	1.565	1.606	1.412	1.297	1.281	1.148	1.006	1.076	0.916	0.780	0.748	0.734	0.623	0.592	0.740	1.113	1.241	0.763	0.526	0.394	0.405	0.453	0.318	0.419	0.503	0.700	0.476	0.412	0.340	0.329	0.323	0.448	1.106	2.375	7.264	45.00	146.6
610.0	37.20	34.67	27.24	18.08	12.62	14.60	15.00	18.68	21.28	29.34	63.52	79.95	38.91	26.59	21.20	145.0	1179	753.0	14.43	4.299	3.795	3.240	3.344	3.209	2.836	2.774	2.814	2.667	2.696	2.578	2.559	2.574	2.209	2.171	1.937	1.835	1.933	1.844	1.660	1.384	1.237	1.307	1.148	1.109	1.056	1.010	0.911	0.878	0.719	0.631	0.621	0.596	0.548	0.499	0.618	0.649	0.946	0.930	0.580	0.436	0.374	0.376	0.336	0.374	0.401	0.497	0.574	0.452	0.350	0.295	0.293	0.288	0.434	0.705	1.837	10.26	44.68
615.0	44.48	36.52	27.47	18.17	11.38	10.95	13.34	16.54	20.79	28.63	43.36	80.61	50.12	25.86	17.35	40.48	327.9	1324	69.82	3.783	3.115	2.923	2.937	2.578	2.237	2.127	2.164	2.297	2.333	2.132	2.031	1.986	1.804	1.504	1.675	1.467	1.479	1.532	1.528	1.080	1.060	0.963	0.856	0.831	0.805	0.777	0.759	0.674	0.572	0.537	0.469	0.501	0.433	0.442	0.431	0.434	0.597	0.797	0.671	0.446	0.262	0.333	0.413	0.319	0.294	0.359	0.417	0.601	0.464	0.308	0.325	0.183	0.293	0.314	0.547	2.360	10.07
620.0	37.45	33.66	23.12	16.61	12.75	10.02	11.84	14.11	20.79	26.73	34.74	64.93	61.94	25.00	14.74	16.01	80.54	982.2	522.9	5.691	3.057	2.747	2.541	2.332	2.081	2.047	1.907	1.895	1.994	1.873	1.867	1.544	1.512	1.312	1.526	1.399	1.146	1.147	1.299	1.048	0.873	0.779	0.779	0.718	0.745	0.633	0.630	0.579	0.518	0.429	0.398	0.390	0.346	0.432	0.370	0.293	0.395	0.601	0.706	0.538	0.327	0.331	0.282	0.265	0.295	0.254	0.358	0.475	0.509	0.351	0.311	0.203	0.275	0.198	0.229	0.577	2.352
625.0	37.25	33.16	21.66	16.77	12.27	10.76	11.83	14.77	17.86	25.95	32.08	48.47	69.22	27.34	15.24	11.28	23.15	393.7	1125	41.67	2.874	2.359	2.194	1.849	1.525	1.802	1.656	1.400	1.519	1.595	1.508	1.345	1.152	1.133	1.164	1.172	1.035	0.936	1.036	1.060	0.721	0.700	0.633	0.718	0.600	0.538	0.533	0.535	0.429	0.372	0.354	0.256	0.369	0.345	0.270	0.342	0.300	0.412	0.577	0.461	0.328	0.317	0.282	0.278	0.268	0.255	0.276	0.356	0.504	0.501	0.266	0.221	0.189	0.186	0.219	0.268	0.669
630.0	29.30	28.19	22.80	15.49	9.501	9.946	11.26	13.91	17.54	22.79	29.67	37.70	59.76	38.27	14.91	9.674	10.09	96.66	848.0	526.6	7.586	2.132	1.789	1.716	1.502	1.503	1.447	1.279	1.238	1.268	1.280	1.181	0.974	0.894	0.893	0.939	0.890	0.891	0.782	0.858	0.784	0.573	0.586	0.506	0.498	0.417	0.430	0.497	0.358	0.324	0.307	0.254	0.263	0.267	0.245	0.241	0.279	0.289	0.391	0.433	0.346	0.304	0.239	0.217	0.253	0.226	0.268	0.305	0.337	0.495	0.326	0.278	0.188	0.195	0.200	0.142	0.305
635.0	28.91	27.42	19.89	12.55	9.482	10.19	12.07	13.73	16.87	20.05	26.44	30.17	43.04	50.09	17.41	8.575	6.497	24.80	238.5	966.7	56.62	1.910	1.722	1.495	1.159	1.286	1.139	1.132	1.146	1.007	1.120	0.790	0.812	0.847	0.773	0.749	0.763	0.736	0.619	0.590	0.730	0.552	0.469	0.396	0.348	0.382	0.372	0.370	0.277	0.219	0.229	0.187	0.215	0.201	0.237	0.158	0.224	0.196	0.310	0.356	0.302	0.322	0.279	0.203	0.220	0.200	0.205	0.214	0.242	0.302	0.400	0.347	0.238	0.206	0.141	0.128	0.178
640.0	30.23	24.16	19.87	11.67	11.17	8.455	10.25	12.09	14.26	19.35	25.43	29.73	30.67	49.24	21.97	8.443	5.631	8.650	57.46	744.5	415.4	3.436	1.641	1.270	1.074	1.112	1.050	0.982	0.925	0.973	0.813	0.722	0.660	0.702	0.712	0.646	0.641	0.539	0.481	0.474	0.574	0.638	0.432	0.363	0.303	0.398	0.333	0.350	0.288	0.221	0.229	0.191	0.221	0.148	0.227	0.146	0.167	0.160	0.245	0.201	0.438	0.323	0.212	0.193	0.189	0.230	0.223	0.240	0.229	0.229	0.302	0.367	0.257	0.210	0.160	0.163	0.163
645.0	26.57	23.17	19.52	11.92	9.890	8.184	9.589	11.53	13.74	18.59	23.55	25.69	25.44	40.51	29.19	9.127	5.182	5.211	15.83	314.3	811.1	31.79	1.599	1.309	0.980	1.025	0.900	0.883	0.891	0.849	0.839	0.702	0.615	0.675	0.756	0.648	0.497	0.545	0.475	0.422	0.436	0.576	0.455	0.412	0.283	0.378	0.230	0.255	0.254	0.243	0.217	0.184	0.205	0.157	0.219	0.128	0.155	0.175	0.159	0.169	0.301	0.198	0.184	0.110	0.190	0.213	0.172	0.197	0.228	0.261	0.284	0.350	0.297	0.232	0.167	0.158	0.128
650.0	22.38	25.35	18.59	11.89	7.829	8.663	8.908	12.09	14.56	18.34	22.00	24.34	23.76	29.34	34.84	9.687	5.112	4.081	6.019	83.05	804.0	227.0	1.933	1.281	0.810	1.029	0.972	0.832	0.675	0.672	0.722	0.694	0.569	0.510	0.634	0.565	0.502	0.385	0.380	0.351	0.371	0.461	0.578	0.351	0.316	0.412	0.208	0.224	0.170	0.231	0.185	0.158	0.133	0.123	0.209	0.134	0.135	0.162	0.108	0.130	0.222	0.220	0.236	0.239	0.120	0.190	0.141	0.152	0.174	0.195	0.243	0.243	0.301	0.229	0.213	0.146	0.127
