Sample:	'1
File name:	Default_20230221_152134.FD3
Run date:	'15:15:13, 02/21/2023
Operator:	dsjg
Comment:	'

Instrument
Model:	F-2700 FL Spectrophotometer
Serial number:	2198-001
ROM Version:	4J14000 07

Instrument parameters
Measurement type:	3-D scan
Data mode:	Fluorescence
EX  Start WL:	220.0 nm
EX  End WL:	600.0 nm
EX Sampling interval:	5.0 nm
EM  Start WL:	230.0 nm
EM  End WL:	650.0 nm
EM Sampling interval:	5.0 nm
Scan speed:	12000 nm/min
EX Slit:	5.0 nm
EM Slit:	5.0 nm
PMT Voltage:	700 V
Response:	Auto 
Corrected spectra:	Off
Contour interval:	50.000

Peak integration
Integration method:	Rectangular
Sensitivity:	1
Threshold:	1.000

Peaks
No.	ApexEX/EM(nm)	Height(Data)
1	235.0/350.0	 1165
2	255.0/285.0	167.8
3	265.0/580.0	45.48
4	275.0/610.0	63.61
5	280.0/335.0	 1334
6	280.0/620.0	58.58
7	475.0/355.0	4.834
8	570.0/335.0	6.764
9	580.0/345.0	6.534

Data points
	220.0	225.0	230.0	235.0	240.0	245.0	250.0	255.0	260.0	265.0	270.0	275.0	280.0	285.0	290.0	295.0	300.0	305.0	310.0	315.0	320.0	325.0	330.0	335.0	340.0	345.0	350.0	355.0	360.0	365.0	370.0	375.0	380.0	385.0	390.0	395.0	400.0	405.0	410.0	415.0	420.0	425.0	430.0	435.0	440.0	445.0	450.0	455.0	460.0	465.0	470.0	475.0	480.0	485.0	490.0	495.0	500.0	505.0	510.0	515.0	520.0	525.0	530.0	535.0	540.0	545.0	550.0	555.0	560.0	565.0	570.0	575.0	580.0	585.0	590.0	595.0	600.0
230.0	17.67	349.7	588.8	87.48	2.525	1.901	1.723	1.602	1.391	1.267	1.146	1.200	1.140	0.895	0.736	0.709	0.669	0.579	0.509	0.470	0.443	0.403	0.386	0.361	0.338	0.343	0.260	0.268	0.272	0.257	0.210	0.229	0.172	0.151	0.183	0.255	0.279	0.258	0.234	0.207	0.210	0.172	0.163	0.142	0.144	0.134	0.137	0.366	0.744	0.954	0.457	0.162	0.076	0.087	0.068	0.069	0.069	0.074	0.058	0.053	0.043	0.047	0.035	0.047	0.042	0.041	0.042	0.041	0.029	0.020	0.032	0.026	0.029	0.026	0.031	0.030	0.022
235.0	7.357	126.0	720.3	517.2	118.7	5.854	1.940	1.881	1.406	1.319	1.259	1.051	1.080	1.036	0.776	0.767	0.731	0.648	0.536	0.374	0.479	0.424	0.410	0.375	0.329	0.322	0.235	0.270	0.270	0.282	0.240	0.192	0.192	0.157	0.138	0.159	0.269	0.273	0.201	0.194	0.176	0.142	0.148	0.141	0.135	0.125	0.136	0.147	0.334	0.801	1.488	1.825	1.062	0.250	0.084	0.050	0.083	0.130	0.069	0.044	0.027	0.043	0.054	0.042	0.044	0.056	0.063	0.031	0.015	0.020	0.029	0.028	0.046	0.057	0.022	0.017	0.006
240.0	9.141	34.90	304.6	 1065	450.3	147.5	3.265	2.164	1.505	1.539	1.464	1.245	1.254	0.953	0.818	0.837	0.785	0.639	0.530	0.456	0.455	0.436	0.404	0.359	0.316	0.324	0.278	0.365	0.215	0.333	0.274	0.243	0.181	0.185	0.181	0.135	0.220	0.244	0.228	0.215	0.228	0.190	0.175	0.216	0.172	0.165	0.139	0.131	0.181	0.275	0.782	2.159	3.313	2.349	0.982	0.128	0.079	0.081	0.062	0.024	0.029	0.042	0.065	0.039	0.032	0.038	0.063	0.051	0.020	0.037	0.081	0.029	0.040	0.037	0.020	0.023	0.016
245.0	11.36	22.50	79.98	607.4	994.8	 1237	96.12	2.650	1.992	2.048	1.246	1.653	1.244	1.065	1.048	0.951	0.859	0.648	0.519	0.585	0.436	0.545	0.468	0.304	0.371	0.333	0.271	0.313	0.243	0.294	0.204	0.208	0.213	0.177	0.181	0.166	0.149	0.202	0.253	0.217	0.210	0.203	0.197	0.192	0.141	0.143	0.168	0.185	0.181	0.140	0.286	0.814	2.276	4.043	4.456	2.526	0.548	0.089	0.048	0.056	0.065	0.059	0.073	0.047	0.051	0.039	0.051	0.031	0.025	0.018	0.049	0.026	0.031	0.016	0.014	0.020	0.028
250.0	10.98	24.25	47.14	163.6	448.8	 2411	 1700	151.9	9.496	2.559	1.465	1.740	1.318	1.189	1.090	0.938	0.813	0.705	0.582	0.530	0.498	0.519	0.445	0.448	0.355	0.345	0.283	0.332	0.315	0.283	0.218	0.205	0.192	0.165	0.160	0.167	0.138	0.149	0.222	0.243	0.219	0.202	0.213	0.192	0.191	0.145	0.170	0.208	0.207	0.202	0.216	0.285	0.639	1.436	2.660	4.331	5.613	4.747	2.446	0.685	0.093	0.057	0.099	0.045	0.049	0.037	0.043	0.051	0.043	0.044	0.043	0.026	0.031	0.019	0.029	0.013	0.025
255.0	7.780	13.80	55.44	90.09	113.6	788.6	 1885	 1963	209.7	8.930	2.437	1.833	1.529	1.397	1.404	1.034	0.892	0.752	0.663	0.472	0.444	0.439	0.434	0.362	0.418	0.356	0.303	0.346	0.364	0.342	0.234	0.216	0.186	0.195	0.158	0.196	0.143	0.123	0.123	0.190	0.230	0.193	0.205	0.225	0.213	0.161	0.157	0.141	0.146	0.256	0.345	0.347	0.317	0.401	0.692	1.112	2.420	5.423	8.779	8.265	3.988	0.756	0.101	0.076	0.070	0.043	0.060	0.062	0.045	0.040	0.043	0.020	0.020	0.016	0.040	0.036	0.017
260.0	8.190	7.856	30.60	88.16	73.39	193.1	699.2	 2316	 1725	152.2	4.268	2.638	1.703	1.572	1.622	1.137	0.998	0.920	0.670	0.625	0.584	0.512	0.592	0.410	0.439	0.357	0.335	0.399	0.343	0.243	0.290	0.179	0.214	0.184	0.202	0.179	0.173	0.093	0.139	0.151	0.178	0.212	0.194	0.247	0.188	0.170	0.175	0.142	0.120	0.188	0.292	0.473	0.470	0.342	0.305	0.345	0.680	1.622	4.252	8.839	11.07	7.952	2.724	0.268	0.062	0.043	0.058	0.049	0.048	0.067	0.046	0.019	0.031	0.021	0.040	0.027	0.019
265.0	8.551	6.987	13.47	57.65	101.5	81.09	175.6	997.6	 2452	 1443	98.71	3.379	2.228	2.042	1.792	1.108	1.035	1.129	0.718	0.615	0.560	0.512	0.519	0.379	0.431	0.360	0.373	0.310	0.405	0.286	0.302	0.221	0.212	0.218	0.166	0.116	0.145	0.123	0.096	0.132	0.126	0.181	0.236	0.219	0.206	0.169	0.186	0.143	0.132	0.148	0.157	0.297	0.503	0.607	0.469	0.227	0.222	0.468	1.119	2.957	6.983	11.93	12.28	6.505	1.449	0.069	0.068	0.050	0.051	0.045	0.041	0.047	0.032	0.029	0.047	0.020	0.029
270.0	10.19	8.841	10.59	21.38	66.74	110.8	94.47	251.6	917.3	 2374	 1604	483.3	19.01	2.705	2.067	1.451	1.387	1.135	0.843	0.720	0.610	0.655	0.509	0.447	0.456	0.421	0.372	0.395	0.395	0.307	0.310	0.248	0.189	0.212	0.188	0.182	0.122	0.164	0.108	0.121	0.116	0.127	0.160	0.209	0.203	0.188	0.224	0.195	0.178	0.137	0.152	0.174	0.219	0.337	0.476	0.643	0.565	0.408	0.381	0.736	1.779	3.847	6.614	9.510	10.81	9.174	4.991	1.257	0.113	0.066	0.040	0.045	0.034	0.031	0.042	0.035	0.023
275.0	12.21	15.81	14.88	13.15	23.93	75.38	143.1	122.9	222.6	678.5	 1550	 2261	637.6	14.59	3.084	1.713	1.725	1.380	1.017	0.802	0.755	0.548	0.545	0.487	0.530	0.394	0.368	0.494	0.363	0.385	0.341	0.230	0.221	0.195	0.153	0.198	0.140	0.150	0.147	0.104	0.140	0.141	0.105	0.213	0.213	0.176	0.252	0.186	0.147	0.213	0.198	0.131	0.165	0.190	0.245	0.372	0.704	0.857	0.741	0.448	0.522	1.008	1.642	2.418	3.781	8.184	13.75	14.16	7.072	1.175	0.083	0.091	0.029	0.052	0.036	0.022	0.033
280.0	15.86	23.20	23.96	15.75	15.86	35.12	119.5	159.8	103.9	184.8	564.6	 1930	 2185	115.1	6.804	2.716	1.957	1.563	1.133	1.007	0.678	0.637	0.669	0.564	0.588	0.479	0.455	0.480	0.407	0.331	0.276	0.261	0.235	0.210	0.171	0.200	0.197	0.137	0.130	0.142	0.145	0.102	0.126	0.155	0.207	0.222	0.298	0.260	0.221	0.216	0.217	0.161	0.164	0.172	0.182	0.240	0.350	0.675	0.822	1.020	0.591	0.466	0.550	0.718	1.039	2.338	5.855	11.80	16.27	12.76	3.911	0.339	0.078	0.053	0.045	0.038	0.033
285.0	17.75	29.86	37.75	25.71	18.69	24.47	64.15	167.8	152.0	97.52	181.2	765.7	 2151	 1971	87.69	3.785	2.354	1.782	1.336	1.002	0.906	0.841	0.800	0.600	0.716	0.559	0.503	0.505	0.400	0.408	0.345	0.253	0.268	0.289	0.170	0.208	0.207	0.148	0.147	0.153	0.114	0.151	0.125	0.135	0.177	0.170	0.266	0.339	0.289	0.255	0.257	0.198	0.182	0.178	0.201	0.186	0.254	0.320	0.522	1.107	1.194	0.846	0.463	0.414	0.504	0.775	1.649	3.656	8.353	15.15	16.12	9.065	1.628	0.112	0.057	0.051	0.040
290.0	26.95	40.96	53.67	41.28	32.10	34.73	50.23	108.9	191.5	189.4	147.5	259.1	769.3	 1663	 1879	353.5	19.70	2.824	1.715	1.236	1.058	0.895	0.838	0.651	0.698	0.626	0.523	0.584	0.496	0.381	0.379	0.292	0.275	0.310	0.256	0.241	0.231	0.173	0.165	0.134	0.133	0.115	0.109	0.138	0.143	0.160	0.236	0.304	0.335	0.326	0.284	0.278	0.257	0.256	0.235	0.255	0.264	0.291	0.362	0.564	0.910	1.077	1.181	1.038	0.691	0.635	0.833	1.217	2.417	4.770	7.794	11.28	12.55	10.41	5.454	1.200	0.083
295.0	35.98	54.70	73.79	64.02	58.91	63.71	80.72	114.3	171.9	291.5	319.9	199.5	293.9	510.8	 1201	 2371	538.7	22.80	2.905	1.714	1.302	1.160	0.896	0.713	0.754	0.618	0.624	0.520	0.567	0.438	0.461	0.301	0.266	0.304	0.271	0.227	0.213	0.174	0.220	0.148	0.115	0.121	0.158	0.140	0.165	0.171	0.197	0.296	0.388	0.378	0.388	0.391	0.382	0.310	0.418	0.410	0.406	0.451	0.450	0.647	0.763	0.805	1.140	1.572	1.911	1.452	1.018	0.987	1.350	1.742	2.326	3.039	4.539	9.137	15.87	15.39	7.292
300.0	42.46	71.55	97.06	95.04	93.32	115.2	151.6	201.7	229.6	381.1	547.8	456.1	365.3	332.4	518.5	 1700	 2537	421.4	11.69	2.840	1.786	1.403	1.119	0.826	0.808	0.760	0.717	0.590	0.612	0.556	0.418	0.347	0.308	0.373	0.325	0.235	0.248	0.193	0.251	0.150	0.151	0.195	0.161	0.132	0.132	0.174	0.232	0.356	0.427	0.526	0.499	0.547	0.466	0.486	0.562	0.667	0.746	0.834	0.791	1.020	1.178	1.185	1.488	1.906	2.488	2.771	2.369	2.025	1.904	1.861	1.699	1.778	1.962	3.371	6.926	14.22	20.00
305.0	56.52	93.55	137.1	144.2	155.7	195.0	270.6	315.5	471.6	619.6	819.8	892.8	719.8	523.1	490.4	822.3	 2166	 2609	54.97	5.961	2.527	1.754	1.374	1.026	1.005	0.901	0.753	0.711	0.626	0.606	0.398	0.421	0.345	0.384	0.309	0.286	0.237	0.210	0.220	0.149	0.156	0.203	0.174	0.155	0.167	0.241	0.272	0.347	0.524	0.622	0.646	0.687	0.817	0.818	0.767	0.884	1.252	1.481	1.534	1.683	2.096	2.274	2.653	2.923	3.060	3.972	4.396	4.206	3.828	3.146	2.814	2.620	2.608	2.837	3.256	5.619	11.39
310.0	146.9	121.4	188.9	203.7	227.4	275.5	381.4	484.8	623.3	783.2	942.5	 1079	 1058	765.8	630.2	567.8	949.6	 1917	 1931	772.9	16.90	2.426	1.774	1.361	1.162	1.002	0.909	0.767	0.687	0.646	0.533	0.438	0.447	0.373	0.345	0.287	0.265	0.289	0.270	0.212	0.223	0.200	0.192	0.184	0.214	0.252	0.315	0.480	0.666	0.666	0.750	0.975	0.961	1.006	1.138	1.404	1.656	1.842	2.197	2.384	2.699	2.903	3.331	3.698	3.907	4.556	4.805	5.100	5.535	5.105	4.514	3.639	3.440	3.161	2.990	3.220	4.655
315.0	95.83	162.1	244.3	262.0	288.4	352.7	466.5	576.7	714.4	882.3	 1046	 1167	 1181	 1038	813.5	596.4	612.1	711.6	 1083	 2536	408.3	16.37	2.666	1.884	1.513	1.098	1.017	0.838	0.755	0.690	0.653	0.509	0.425	0.432	0.255	0.286	0.310	0.307	0.265	0.202	0.180	0.226	0.229	0.203	0.248	0.263	0.382	0.689	0.757	0.833	0.911	1.269	1.200	1.298	1.284	1.773	1.923	2.189	2.634	2.752	3.054	3.349	3.702	4.291	4.477	5.026	5.225	5.390	5.915	5.938	6.086	5.467	4.563	3.984	3.528	3.111	3.471
320.0	90.49	186.8	299.2	307.4	323.8	388.6	510.5	615.8	753.3	934.3	 1111	 1260	 1239	 1142	992.4	669.7	575.2	445.0	376.5	 1485	 2512	294.0	7.456	2.400	1.695	1.349	1.317	0.848	0.690	0.756	0.726	0.657	0.615	0.464	0.331	0.299	0.388	0.306	0.324	0.223	0.251	0.260	0.236	0.239	0.255	0.337	0.435	0.728	0.952	0.983	1.072	1.360	1.421	1.493	1.578	1.748	2.178	2.467	2.831	2.976	3.337	3.571	4.040	4.781	4.779	5.463	5.744	5.716	6.263	6.092	6.179	5.876	5.988	4.979	3.889	3.362	3.485
325.0	107.6	241.8	404.0	395.6	370.1	423.2	535.4	631.6	761.4	940.9	 1115	 1284	 1265	 1154	 1084	778.2	588.3	400.3	189.3	481.8	 1920	 2149	44.46	4.740	2.068	1.669	1.333	0.995	0.916	0.893	0.699	0.658	0.677	0.488	0.371	0.369	0.371	0.334	0.330	0.260	0.229	0.217	0.233	0.223	0.284	0.384	0.489	0.794	1.256	1.265	1.400	1.662	1.651	1.724	1.861	1.905	2.343	2.371	3.036	3.118	3.168	3.730	4.090	4.945	5.098	5.383	5.766	5.910	6.279	6.008	6.101	5.949	6.048	6.145	4.661	3.693	3.471
330.0	136.4	362.3	635.1	656.8	523.2	486.8	560.0	656.3	766.3	940.4	 1128	 1306	 1302	 1187	 1087	915.3	684.4	441.7	206.1	211.2	592.7	 1512	 1887	784.3	16.67	2.621	1.790	1.331	1.113	0.984	0.764	0.711	0.644	0.552	0.372	0.438	0.387	0.379	0.301	0.260	0.301	0.230	0.211	0.239	0.338	0.464	0.646	1.139	1.727	2.038	2.324	2.723	2.433	2.293	2.205	2.157	2.503	2.482	3.186	3.395	3.386	3.894	4.202	4.809	4.999	5.673	5.714	6.413	6.340	6.433	6.360	6.006	5.953	5.792	5.446	5.036	4.391
335.0	152.5	457.7	835.7	936.7	753.2	582.9	599.9	679.0	786.9	948.4	 1139	 1313	 1334	 1252	 1130	943.9	815.6	561.9	278.9	215.0	249.3	433.4	 1006	 2631	366.0	18.49	2.464	1.817	1.323	1.211	0.984	0.782	0.658	0.605	0.465	0.495	0.407	0.366	0.374	0.329	0.318	0.233	0.273	0.290	0.367	0.545	0.760	1.391	2.067	2.676	3.367	3.969	3.500	3.407	2.720	2.408	2.717	2.815	3.085	3.467	3.359	4.066	4.381	4.874	4.915	5.620	5.974	6.446	6.446	6.546	6.764	6.497	6.271	5.890	5.687	5.132	5.244
340.0	176.3	483.8	942.1	 1056	866.0	635.6	618.9	693.9	785.6	935.1	 1106	 1297	 1332	 1266	 1130	942.2	808.4	660.3	349.1	243.7	199.7	197.6	332.8	 1526	 2588	307.4	8.626	2.175	1.590	1.372	1.177	0.814	0.683	0.643	0.477	0.567	0.413	0.395	0.322	0.324	0.335	0.270	0.300	0.294	0.346	0.508	0.879	1.437	2.292	2.978	3.491	4.263	4.003	3.761	3.147	2.531	2.824	2.791	3.103	3.244	3.560	3.909	4.366	4.972	5.118	5.426	5.943	6.218	6.362	6.520	6.699	6.351	6.469	5.785	5.333	4.844	4.907
345.0	183.5	501.3	974.5	 1103	897.4	658.8	630.9	680.8	774.5	903.8	 1083	 1254	 1293	 1266	 1104	933.2	772.4	678.5	455.6	284.6	213.8	165.6	166.4	479.3	 1964	 2300	44.77	3.957	2.080	1.714	1.241	0.948	0.745	0.737	0.566	0.514	0.426	0.437	0.311	0.314	0.328	0.292	0.287	0.312	0.376	0.457	0.906	1.599	2.409	3.252	3.739	4.628	4.211	3.939	3.234	2.658	2.817	2.844	3.285	3.355	3.489	3.618	4.215	4.650	5.178	4.984	5.807	6.086	5.885	6.491	6.461	6.424	6.534	5.932	5.164	4.956	4.643
350.0	174.6	492.1	971.7	 1165	978.4	701.4	646.9	691.3	757.2	875.1	 1028	 1175	 1228	 1212	 1066	927.5	775.1	641.1	530.7	396.4	266.9	197.1	168.1	195.6	572.6	 1595	 1990	652.2	13.50	2.394	1.530	1.184	0.846	0.804	0.651	0.499	0.468	0.476	0.376	0.387	0.325	0.301	0.302	0.318	0.400	0.539	0.908	1.571	2.442	3.254	3.765	4.653	4.616	4.285	3.495	2.989	2.853	2.808	3.243	3.206	3.457	3.826	4.188	4.457	4.826	4.887	5.386	5.804	5.662	6.127	6.040	6.289	6.078	5.631	5.224	5.107	4.810
355.0	163.9	475.3	928.0	 1156	 1002	737.2	672.7	706.7	759.3	849.7	989.1	 1104	 1157	 1155	 1022	909.5	791.1	638.9	531.0	481.0	374.3	252.4	208.2	166.7	204.1	412.9	990.6	 2261	300.5	17.07	2.484	1.584	1.075	0.893	0.685	0.539	0.536	0.503	0.412	0.384	0.418	0.303	0.334	0.329	0.451	0.577	0.857	1.525	2.300	3.028	3.586	4.834	4.597	4.508	3.472	3.075	2.842	3.017	3.353	3.392	3.532	3.825	4.018	4.263	4.634	4.544	5.030	5.444	5.238	5.581	5.930	5.884	5.833	5.591	5.172	4.917	4.777
360.0	151.2	441.3	857.4	 1098	979.4	759.7	674.1	713.7	769.6	843.0	957.6	 1052	 1104	 1105	986.8	896.4	787.1	637.8	540.9	479.6	450.8	324.7	241.9	187.2	148.8	160.2	290.2	 1331	 2240	258.2	8.711	2.302	1.366	1.105	0.657	0.594	0.512	0.476	0.474	0.406	0.345	0.299	0.304	0.371	0.372	0.576	0.834	1.337	2.052	2.849	3.419	4.625	4.370	4.482	3.576	3.148	2.943	3.159	3.510	3.168	3.407	3.816	3.939	4.028	4.467	4.434	4.892	4.975	5.225	5.186	5.703	5.629	5.575	5.283	5.045	5.001	4.885
365.0	145.0	407.8	809.3	 1022	945.9	756.6	691.3	723.3	772.7	830.7	933.0	 1030	 1056	 1067	956.9	876.1	784.0	633.9	568.7	485.4	469.8	409.8	290.4	220.6	161.8	125.5	125.4	403.6	 1778	 2044	41.97	4.300	1.981	1.151	0.855	0.551	0.559	0.526	0.438	0.434	0.336	0.321	0.373	0.380	0.433	0.461	0.777	1.329	2.007	2.669	3.180	4.298	4.169	4.215	3.630	3.202	2.917	3.174	3.601	3.336	3.236	3.714	3.927	3.943	4.420	4.279	4.824	4.582	4.948	5.100	5.294	5.115	5.422	5.228	4.992	4.731	4.619
370.0	132.4	387.3	729.0	961.7	930.4	773.0	708.7	735.0	777.2	829.7	907.0	981.2	 1005	 1012	914.2	854.2	785.3	650.5	603.3	518.8	473.9	457.4	396.0	284.3	204.8	153.2	115.0	150.9	520.8	 1503	 1944	658.8	14.16	2.104	1.171	0.822	0.645	0.587	0.484	0.462	0.360	0.374	0.373	0.335	0.429	0.536	0.716	1.261	1.775	2.461	2.906	3.928	4.009	4.102	3.649	3.175	3.052	3.294	3.600	3.259	3.320	3.753	3.946	4.087	4.260	4.300	4.565	4.556	4.773	4.936	5.190	4.900	5.129	5.169	4.891	4.689	4.618
375.0	125.4	341.8	670.8	898.3	895.0	782.3	736.7	752.7	790.7	836.2	898.5	948.8	976.8	957.5	886.7	834.6	786.8	670.4	628.1	560.1	507.6	471.1	452.4	390.2	261.0	208.0	151.0	135.5	187.3	392.2	 1007	 2372	293.2	14.61	2.020	1.098	0.908	0.767	0.490	0.476	0.359	0.378	0.381	0.357	0.366	0.504	0.668	1.125	1.608	2.135	2.608	3.674	3.977	3.878	3.845	3.217	3.217	3.368	3.606	3.410	3.486	3.753	3.827	3.975	4.261	4.460	4.410	4.444	4.686	4.638	4.864	4.746	4.899	4.803	4.626	4.379	4.555
380.0	121.5	319.0	626.1	856.9	884.5	799.6	751.1	767.8	801.8	834.0	896.5	932.6	959.6	931.1	874.3	807.2	777.2	678.2	644.0	580.9	537.7	502.5	460.5	447.1	321.4	249.5	188.2	167.2	138.0	152.6	305.1	 1450	 2177	214.1	5.764	1.544	0.971	0.872	0.592	0.539	0.475	0.468	0.397	0.391	0.429	0.598	0.698	1.100	1.601	2.029	2.545	3.505	3.764	3.790	3.754	3.426	3.289	3.553	3.419	3.484	3.570	3.641	3.681	4.069	4.277	4.330	4.466	4.417	4.402	4.673	4.776	4.736	4.734	4.643	4.678	4.524	4.492
385.0	110.5	303.6	580.1	809.9	863.2	804.5	752.4	773.3	796.1	832.9	887.7	911.8	939.9	916.2	865.1	789.3	760.9	682.9	654.9	599.2	558.4	525.2	469.4	461.1	384.3	298.5	222.2	199.9	153.6	117.0	135.8	459.5	 1779	 1656	31.68	2.781	1.218	0.978	0.732	0.531	0.378	0.495	0.470	0.426	0.463	0.519	0.652	1.074	1.474	1.823	2.383	3.268	3.617	3.741	3.636	3.353	3.400	3.467	3.572	3.308	3.567	3.857	3.975	3.975	4.086	4.233	4.377	4.109	4.419	4.538	4.742	4.566	4.741	4.659	4.674	4.564	4.415
390.0	108.1	280.7	543.5	751.7	824.8	784.9	763.9	772.4	791.3	825.7	860.9	884.5	900.0	876.2	836.7	761.5	742.3	679.4	657.8	603.0	577.6	540.3	495.6	460.6	404.5	370.6	269.3	232.7	180.6	128.2	110.4	172.8	518.5	 1262	 1425	473.0	9.692	1.404	0.971	0.683	0.502	0.485	0.474	0.433	0.470	0.502	0.632	1.042	1.410	1.811	2.231	3.114	3.388	3.491	3.428	3.264	3.539	3.520	3.530	3.539	3.600	3.851	3.895	3.911	4.002	4.103	4.274	4.077	4.255	4.300	4.504	4.527	4.462	4.460	4.439	4.302	4.376
395.0	105.4	252.4	507.6	713.8	798.2	761.0	775.1	773.9	785.9	817.8	837.5	846.8	861.7	834.9	793.8	736.0	722.7	682.1	662.2	605.5	589.6	558.1	519.7	475.4	408.2	402.5	338.0	276.0	211.2	159.6	125.1	122.5	163.6	316.0	814.7	 1854	230.0	10.55	1.524	0.874	0.625	0.610	0.483	0.469	0.511	0.505	0.607	1.093	1.345	1.727	2.065	2.944	3.275	3.298	3.529	3.302	3.510	3.537	3.525	3.985	3.699	3.731	3.825	3.878	3.843	4.036	3.812	3.927	3.981	4.101	4.089	4.285	4.187	4.296	4.332	4.169	4.342
400.0	105.2	247.3	556.3	683.3	770.8	770.3	778.4	776.1	787.8	809.5	826.5	825.1	835.8	810.5	771.4	716.9	705.6	684.6	659.0	603.9	588.5	561.4	529.4	488.3	422.0	402.7	372.5	329.0	242.1	189.3	145.3	128.1	93.18	103.4	225.6	 1178	 1679	173.2	3.952	1.184	0.865	0.631	0.484	0.490	0.514	0.516	0.580	0.989	1.263	1.729	1.925	2.694	3.126	3.379	3.251	3.208	3.573	3.500	3.563	3.851	3.780	3.748	3.861	3.849	3.853	4.026	3.941	3.923	3.979	4.056	4.043	4.063	4.164	4.150	4.126	4.219	4.406
405.0	100.3	246.5	488.8	656.8	748.0	769.5	763.9	776.8	778.7	804.8	817.8	813.0	818.0	783.3	758.7	700.3	689.4	672.8	647.3	596.4	579.8	563.9	535.0	499.4	432.0	407.5	383.4	374.9	282.3	213.0	166.1	143.0	88.68	64.47	76.32	343.8	 1394	 1272	28.08	2.114	1.025	0.753	0.519	0.531	0.522	0.565	0.586	0.914	1.372	1.522	1.856	2.659	3.075	3.235	3.381	3.106	3.523	3.516	3.700	3.754	3.833	3.898	3.799	3.871	3.846	3.735	3.896	3.606	3.913	4.244	4.139	3.996	4.021	4.157	3.986	3.942	4.124
410.0	100.5	234.0	445.8	626.7	730.7	751.2	766.2	765.9	773.4	789.2	789.3	779.5	778.0	747.4	713.2	669.4	662.2	651.0	627.0	581.5	561.1	555.4	530.2	498.3	444.8	412.2	384.2	371.4	330.6	247.1	185.3	156.1	97.56	69.03	51.61	99.58	395.0	 1017	 1135	346.8	7.172	1.046	0.739	0.603	0.522	0.554	0.607	0.919	1.289	1.445	1.786	2.555	2.870	3.295	3.198	3.068	3.465	3.482	3.588	3.586	3.712	3.833	3.745	3.688	3.735	3.613	3.612	3.639	3.769	3.975	3.949	3.725	3.870	3.964	3.912	3.797	4.050
415.0	88.41	218.7	414.2	592.1	693.1	727.0	753.8	755.6	760.6	766.8	756.4	748.9	733.0	707.6	670.8	634.0	630.7	620.5	597.5	559.7	537.6	537.3	519.9	489.7	458.2	418.0	384.2	355.2	335.8	292.6	215.5	164.9	110.3	82.29	56.65	52.17	108.3	247.0	681.2	 1422	184.7	7.076	1.036	0.746	0.666	0.593	0.677	0.880	1.151	1.406	1.817	2.417	2.685	3.124	3.143	3.097	3.266	3.660	3.488	3.658	3.649	3.762	3.655	3.665	3.619	3.405	3.438	3.557	3.793	3.677	3.580	3.513	3.771	3.730	3.725	3.731	3.971
420.0	86.61	218.9	398.4	561.9	670.7	709.6	734.0	745.0	749.6	750.5	741.5	722.4	705.7	676.1	647.2	609.6	603.8	601.9	573.6	541.7	519.8	522.0	504.5	482.1	458.2	417.2	387.4	353.7	321.4	307.7	250.6	175.2	121.5	92.40	65.79	48.03	48.38	69.74	183.1	948.3	 1180	145.8	2.849	0.908	0.723	0.660	0.730	0.873	1.250	1.394	1.659	2.479	2.680	2.945	2.999	2.971	3.444	3.583	3.353	3.551	3.480	3.625	3.767	3.556	3.418	3.392	3.305	3.232	3.327	3.576	3.644	3.311	3.545	3.552	3.382	3.753	3.593
425.0	87.07	207.7	387.0	537.3	646.5	705.0	733.5	747.3	747.1	742.1	726.0	698.5	678.0	653.0	615.7	591.3	579.5	579.9	551.3	521.7	504.2	508.5	492.7	474.6	449.9	413.2	389.2	354.7	320.4	301.7	274.7	192.0	134.2	102.0	74.89	51.89	39.00	33.48	53.09	279.0	 1059	956.4	26.67	1.564	0.857	0.687	0.762	0.851	1.192	1.278	1.652	2.259	2.544	2.806	2.920	2.880	3.462	3.398	3.376	3.263	3.416	3.593	3.565	3.637	3.408	3.310	3.110	3.314	3.229	3.637	3.551	3.257	3.448	3.487	3.264	3.602	3.656
430.0	84.81	197.3	369.5	513.4	623.2	684.5	721.6	733.0	730.1	721.1	711.8	677.5	658.0	618.1	589.6	565.4	551.4	540.7	525.3	511.0	482.7	486.2	471.5	458.3	440.2	407.9	393.5	356.6	324.5	294.4	272.8	219.7	157.8	118.1	85.68	61.57	44.49	30.74	27.99	74.18	308.5	813.5	933.5	102.0	5.751	0.923	0.867	0.953	1.248	1.279	1.625	2.104	2.505	2.692	2.948	2.873	3.374	3.459	3.220	3.363	3.577	3.475	3.430	3.366	3.236	3.189	3.144	3.239	3.239	3.457	3.252	3.092	3.269	3.166	3.174	3.330	3.541
435.0	87.09	183.5	352.8	491.6	591.5	667.0	722.7	722.2	722.1	697.9	692.9	653.3	624.5	588.1	559.2	536.8	516.6	507.4	497.5	487.4	455.7	460.6	448.6	440.0	427.7	395.8	381.6	354.2	326.2	295.2	263.6	221.3	194.3	138.0	97.78	72.78	53.68	36.55	27.02	32.37	79.59	196.0	594.0	 1082	165.9	4.737	1.151	1.077	1.177	1.279	1.470	2.030	2.419	2.631	2.891	2.878	3.289	3.286	3.222	3.464	3.433	3.403	3.254	3.260	3.137	2.983	3.077	3.034	3.056	3.043	3.113	2.935	3.173	3.088	3.054	3.246	3.281
440.0	97.81	183.4	336.4	480.5	586.9	656.7	707.4	720.1	705.9	687.1	676.2	635.2	610.4	567.9	537.5	517.3	493.7	487.7	475.8	464.2	442.1	439.4	430.7	422.9	418.2	385.4	370.3	349.7	326.9	295.5	268.2	214.7	204.7	155.5	108.6	81.09	60.08	42.86	29.66	26.01	30.45	52.35	162.5	822.7	 1014	24.61	2.160	1.269	1.292	1.325	1.533	2.056	2.184	2.455	2.883	2.849	2.993	3.358	3.148	3.253	3.401	3.126	3.232	3.219	2.987	2.850	3.011	2.943	2.922	2.869	2.879	2.802	2.960	2.896	2.939	3.083	3.107
445.0	126.3	174.4	327.3	454.7	568.5	638.6	699.5	707.8	695.6	673.8	663.7	616.8	594.2	546.9	515.3	495.0	471.1	461.8	455.0	444.6	433.0	421.8	414.6	406.8	404.5	367.2	361.2	342.6	322.3	294.5	269.5	212.6	198.4	168.6	121.6	87.80	65.11	48.75	33.35	27.52	21.64	21.66	44.31	264.2	 1042	750.9	19.74	1.657	1.387	1.429	1.531	2.032	2.223	2.295	2.681	2.838	3.037	3.131	3.175	3.306	3.354	3.411	3.075	3.047	2.950	2.864	2.842	2.792	2.561	2.783	2.914	2.921	2.960	2.801	2.866	2.762	3.024
450.0	137.5	203.9	305.0	435.3	542.5	615.1	669.8	680.7	671.5	643.8	632.6	586.6	555.8	511.7	481.3	462.2	440.4	430.5	420.3	417.3	402.8	390.5	382.9	375.3	372.5	344.1	344.6	327.7	309.9	289.1	261.2	213.3	188.5	164.1	137.3	100.2	73.05	54.58	39.91	30.98	23.13	17.53	19.16	65.97	315.6	806.1	848.6	95.36	5.463	1.546	1.469	1.916	2.171	2.343	2.447	2.747	3.018	3.069	3.135	3.323	3.236	3.083	2.889	2.943	2.742	2.701	2.733	2.590	2.621	2.713	2.637	2.711	2.762	2.613	2.656	2.641	2.850
455.0	119.6	267.7	290.7	397.6	502.6	580.0	628.4	651.3	634.2	609.1	594.8	549.9	516.8	473.9	445.7	420.3	402.8	397.1	382.5	380.4	368.0	355.1	344.9	339.9	343.6	316.2	319.3	306.9	293.6	275.3	250.4	214.2	185.0	154.6	135.7	116.2	83.43	59.35	45.77	35.41	27.22	19.73	16.03	23.09	76.48	195.5	568.9	984.0	149.0	4.180	1.558	1.834	2.002	2.187	2.333	2.608	2.819	2.984	3.036	3.164	2.994	2.871	2.673	2.733	2.755	2.613	2.601	2.518	2.563	2.374	2.318	2.626	2.454	2.388	2.405	2.477	2.590
460.0	88.27	296.1	340.0	368.4	472.5	551.2	600.9	609.0	599.1	581.4	563.7	519.3	485.6	441.0	411.7	388.8	375.2	369.6	355.3	350.1	340.5	328.5	320.7	314.7	318.3	296.7	301.6	289.9	281.7	263.7	241.9	209.4	183.0	150.2	127.9	117.2	92.95	64.68	49.12	37.89	29.82	22.40	16.55	14.75	24.16	49.46	154.0	754.7	856.3	18.09	2.312	1.989	1.967	2.197	2.263	2.466	2.662	2.808	2.901	3.083	2.863	2.697	2.652	2.577	2.496	2.494	2.403	2.437	2.404	2.384	2.347	2.478	2.376	2.200	2.414	2.293	2.328
465.0	69.47	284.5	446.0	370.7	443.7	517.6	577.5	582.9	570.8	553.3	534.3	492.4	454.2	420.0	386.8	366.6	349.9	341.7	331.2	325.0	320.9	305.0	296.3	292.7	299.4	279.0	283.7	273.8	264.8	253.0	233.5	203.4	176.8	147.2	123.6	110.7	99.03	71.32	51.59	39.39	31.57	24.08	17.58	14.12	13.50	17.75	39.51	234.9	891.3	576.8	15.65	2.137	2.007	2.079	2.292	2.550	2.632	2.821	2.819	2.851	3.024	2.555	2.569	2.358	2.387	2.550	2.199	2.276	2.256	2.272	2.152	2.273	2.189	2.255	2.175	2.039	2.308
470.0	67.99	178.0	514.9	487.4	412.6	478.6	524.2	540.2	526.6	509.9	491.0	457.3	418.6	385.1	351.9	330.6	314.3	309.0	296.8	292.7	285.1	273.8	266.5	262.0	268.9	252.5	255.9	250.4	242.8	232.0	215.8	191.8	166.5	140.3	117.5	100.6	91.04	78.49	57.65	41.84	33.27	25.84	18.89	15.49	12.86	11.57	14.64	57.59	269.5	582.3	573.6	83.73	5.261	2.182	2.100	2.385	2.395	2.533	2.547	2.536	2.648	2.403	2.438	2.218	2.243	2.226	2.092	2.113	2.001	2.060	2.031	2.008	2.068	2.007	1.914	1.932	1.975
475.0	61.40	123.9	365.7	776.2	422.4	434.6	471.1	493.3	478.1	460.9	443.2	416.2	381.5	344.2	315.3	296.2	280.1	274.5	261.3	256.3	248.9	239.5	235.8	234.3	237.6	226.3	228.7	224.1	217.8	211.8	197.7	178.7	154.2	132.5	110.7	94.45	81.19	73.71	66.36	46.56	34.86	27.51	20.56	17.23	13.92	11.09	9.974	18.23	64.32	139.4	355.3	699.4	123.1	4.362	2.043	2.185	2.212	2.342	2.359	2.267	2.560	2.254	2.235	2.193	2.201	1.997	2.091	1.880	1.804	1.850	1.775	1.707	1.887	1.810	1.788	1.660	1.774
480.0	54.84	108.1	241.4	857.9	517.4	407.7	437.0	454.2	446.2	430.4	413.9	388.5	352.8	320.5	293.8	273.1	256.0	249.6	240.8	232.3	225.4	217.3	214.9	213.1	219.3	207.6	211.5	207.0	201.5	197.4	186.0	169.8	145.8	125.2	106.6	90.79	78.00	67.76	65.94	51.21	36.25	28.94	20.88	18.31	15.07	11.60	9.425	10.10	19.15	34.62	95.58	493.6	630.4	23.36	2.674	2.099	2.207	2.042	2.252	2.141	2.250	2.143	2.051	2.079	1.993	1.924	1.934	1.875	1.734	1.805	1.732	1.640	1.669	1.541	1.621	1.631	1.540
485.0	52.71	99.26	188.6	665.4	693.0	431.4	411.8	424.1	412.0	402.7	392.1	361.5	328.6	298.9	271.6	252.4	238.0	232.7	220.0	216.5	210.2	200.1	197.5	197.0	201.8	195.7	197.0	191.5	187.9	184.8	174.4	159.5	138.8	119.7	103.3	88.18	74.04	62.76	59.46	54.36	40.14	30.03	21.92	19.40	15.95	12.68	9.981	8.259	9.233	11.67	24.71	144.4	613.7	545.2	18.63	2.207	2.308	2.066	2.149	2.135	2.124	2.033	2.155	2.123	1.777	1.960	1.691	1.745	1.577	1.610	1.516	1.499	1.480	1.624	1.530	1.607	1.468
490.0	48.80	94.02	158.9	367.4	684.9	827.9	373.9	382.8	378.1	371.5	358.1	332.5	299.2	270.7	247.6	227.6	213.3	207.7	197.2	194.7	189.5	180.0	177.8	176.7	180.7	179.6	175.3	170.3	167.8	167.3	159.0	145.1	128.1	111.6	96.83	82.64	71.31	60.84	52.78	49.84	43.94	33.13	23.21	20.28	16.90	13.41	11.03	8.780	7.478	6.797	9.138	35.45	175.5	475.7	536.1	96.62	6.508	2.016	1.999	1.934	2.046	1.914	1.864	1.884	1.783	1.792	1.655	1.639	1.585	1.449	1.464	1.353	1.462	1.427	1.318	1.390	1.351
495.0	39.09	82.55	141.7	230.8	446.6	 1264	428.3	338.8	343.8	333.8	319.8	298.9	268.5	243.9	219.2	201.1	189.1	183.7	172.4	170.6	164.8	159.2	161.3	159.2	160.1	159.8	154.3	149.0	148.1	148.9	142.2	130.0	116.3	101.1	88.78	76.51	65.89	57.82	49.21	43.50	41.44	36.88	25.76	20.70	17.11	13.90	11.27	9.273	7.505	6.345	5.994	11.24	41.80	113.9	357.2	663.4	147.0	4.117	2.033	1.680	1.770	1.713	1.690	1.661	1.609	1.530	1.490	1.482	1.427	1.319	1.260	1.349	1.176	1.320	1.183	1.253	1.339
500.0	37.25	78.79	131.0	187.8	291.5	 1158	594.8	315.2	316.5	301.3	291.6	271.8	246.1	225.8	195.5	180.4	172.1	166.1	157.6	154.3	148.0	142.6	146.5	143.5	143.0	142.0	140.0	133.7	133.1	134.3	128.2	118.5	107.2	93.55	82.65	70.46	60.55	53.63	46.54	40.55	37.01	36.40	27.91	21.25	17.40	13.86	11.74	9.493	7.608	6.374	5.506	6.026	12.27	28.01	94.85	445.8	631.8	23.24	2.658	1.773	1.552	1.621	1.503	1.497	1.462	1.367	1.367	1.355	1.218	1.331	1.285	1.320	1.193	1.062	1.073	1.121	1.102
505.0	30.66	73.26	132.1	165.9	225.0	788.3	810.6	331.1	279.6	273.5	267.7	247.4	226.2	206.9	179.2	164.9	153.7	150.4	141.8	139.2	135.7	128.5	132.0	130.6	128.9	128.1	126.1	121.0	120.7	122.7	117.7	108.3	98.27	86.06	76.05	64.77	55.74	50.39	43.87	37.19	33.12	32.75	29.21	22.71	17.43	13.84	11.69	9.560	7.664	6.605	5.373	4.997	5.694	8.721	23.64	128.8	544.3	478.9	21.85	1.771	1.616	1.483	1.384	1.371	1.260	1.278	1.210	1.261	1.064	1.202	1.068	1.138	1.122	1.019	1.093	1.106	0.967
510.0	27.92	60.83	116.0	155.8	182.5	378.6	747.4	669.5	261.6	242.0	234.5	215.9	196.7	179.3	157.1	145.0	134.8	129.9	122.7	119.8	116.0	111.3	114.2	112.0	111.7	112.5	106.9	106.3	104.7	106.7	103.0	95.49	86.89	75.91	66.56	57.40	50.18	45.68	40.05	34.26	29.99	27.50	26.43	24.77	18.77	13.84	11.39	9.684	7.617	6.334	5.608	4.782	4.246	4.538	7.625	31.02	151.8	386.4	349.6	88.18	5.387	1.480	1.342	1.233	1.186	1.150	1.050	1.014	1.031	0.967	1.052	0.922	0.898	0.900	0.873	0.890	0.850
515.0	24.17	49.11	96.18	142.2	161.2	220.8	412.3	982.8	363.8	208.4	206.5	185.5	168.6	153.6	134.3	124.8	116.8	110.6	106.1	102.6	100.4	94.98	97.04	95.83	95.03	94.85	91.10	90.12	90.40	91.08	88.28	82.09	74.91	65.43	57.91	50.80	44.00	40.70	36.17	31.18	27.44	23.82	22.31	22.63	20.63	14.68	10.85	9.453	7.542	6.742	5.612	4.687	4.014	3.612	4.008	9.009	35.70	90.32	219.7	465.1	129.1	4.725	1.231	1.070	1.097	1.069	0.926	0.956	0.935	0.844	0.911	0.862	0.777	0.796	0.778	0.759	0.752
520.0	20.44	44.23	77.08	127.5	144.4	172.2	240.1	867.3	587.7	195.8	182.4	170.0	152.7	134.0	120.7	112.0	104.2	98.11	95.63	90.89	88.42	86.47	86.58	86.25	84.53	83.38	80.86	79.83	80.58	80.05	78.81	74.89	67.49	57.92	51.25	46.12	40.52	37.28	33.34	28.96	25.66	22.07	19.70	19.36	19.94	16.20	11.18	9.139	7.395	6.806	5.451	4.881	3.985	3.469	3.194	4.037	9.777	21.87	56.75	295.0	433.0	26.21	1.944	1.029	1.010	0.997	0.890	0.796	0.892	0.781	0.799	0.708	0.678	0.678	0.703	0.703	0.636
525.0	18.62	39.41	68.14	113.0	139.4	143.9	177.2	563.4	821.3	231.1	163.4	151.6	137.8	122.3	110.1	101.1	94.14	87.81	86.42	80.89	79.32	76.85	77.49	75.99	75.84	74.54	71.84	72.53	72.02	71.16	71.43	66.54	60.02	52.35	45.70	41.30	37.64	34.38	31.17	26.55	23.74	20.73	18.45	16.58	17.53	16.55	12.18	9.073	7.274	6.622	5.444	4.827	4.057	3.628	3.185	2.985	4.054	6.518	14.23	82.04	347.3	361.7	21.56	1.221	0.891	0.894	0.779	0.779	0.836	0.765	0.679	0.699	0.659	0.676	0.618	0.675	0.517
530.0	19.21	33.24	57.99	92.57	125.5	130.8	142.3	265.1	671.8	764.8	159.0	133.4	118.9	107.7	96.53	88.23	81.74	75.62	73.62	69.52	68.58	66.38	66.05	65.51	65.03	64.04	62.05	64.24	63.29	61.64	60.99	57.50	52.13	45.70	40.31	36.43	33.17	30.57	27.06	23.51	21.40	18.67	16.68	14.73	13.88	14.67	13.49	9.878	7.002	6.018	5.277	4.571	3.872	3.499	3.101	2.802	2.645	3.238	4.814	19.76	94.26	268.7	272.3	91.60	5.077	0.887	0.819	0.718	0.710	0.670	0.623	0.524	0.523	0.583	0.573	0.538	0.522
535.0	14.44	28.03	50.14	75.69	104.0	125.2	123.6	150.9	309.2	 1006	282.7	114.7	103.8	90.85	81.94	74.39	71.79	63.85	63.44	59.61	58.26	57.41	55.50	56.54	54.19	54.88	52.36	54.89	54.50	52.61	51.37	49.05	44.87	38.14	34.87	32.00	28.87	26.69	23.74	20.69	18.71	16.52	14.94	12.94	11.85	11.34	12.09	11.20	7.475	5.950	4.856	4.227	3.709	3.205	3.089	2.963	2.359	2.499	2.657	5.680	22.31	62.40	148.3	356.6	129.5	3.600	0.890	0.679	0.658	0.579	0.545	0.518	0.461	0.504	0.483	0.479	0.524
540.0	15.70	26.26	44.13	63.35	87.23	118.4	110.5	114.3	160.0	694.6	480.1	115.3	91.91	82.15	73.93	65.47	63.28	57.25	56.93	52.16	51.62	50.27	49.32	49.21	49.10	48.03	46.50	48.16	47.51	45.55	45.99	43.08	38.93	34.32	31.23	28.48	26.40	23.80	21.38	18.57	16.87	15.20	13.36	12.17	10.47	9.870	10.20	10.95	8.322	5.876	4.736	4.249	3.826	3.163	2.876	2.785	2.293	2.324	2.196	2.672	6.347	15.22	37.42	208.4	344.6	25.81	1.450	0.724	0.605	0.569	0.505	0.529	0.472	0.441	0.414	0.319	0.428
545.0	16.47	22.26	40.13	52.57	72.89	106.4	101.9	100.7	113.4	375.9	581.9	170.3	82.01	72.96	67.29	59.60	55.93	51.26	50.80	45.84	45.69	44.20	44.67	43.35	43.05	42.57	41.14	42.86	42.75	40.05	41.20	38.41	35.07	31.13	28.89	26.39	23.90	21.61	19.28	16.68	15.24	14.35	12.30	11.20	9.627	8.837	8.565	9.603	8.723	6.182	4.662	3.906	3.373	3.212	2.853	2.665	2.602	2.340	2.123	2.117	2.796	4.864	9.626	56.80	256.6	210.3	20.64	0.968	0.613	0.502	0.500	0.488	0.490	0.431	0.336	0.311	0.343
550.0	12.78	20.70	34.42	49.24	60.34	82.20	97.07	88.24	90.39	162.5	413.5	417.2	91.42	63.72	57.11	50.70	47.12	44.37	42.25	39.02	37.75	38.12	37.50	37.25	36.76	36.51	35.57	36.61	36.74	34.66	35.17	33.12	29.75	26.66	24.41	23.03	20.98	18.55	17.10	14.40	13.16	12.36	10.89	9.947	8.900	7.935	7.330	7.386	7.819	7.001	5.064	3.947	3.144	2.924	2.708	2.528	2.488	2.436	2.087	1.964	2.012	2.611	3.508	13.99	68.44	175.0	215.3	80.15	3.631	0.528	0.433	0.394	0.383	0.405	0.313	0.301	0.309
555.0	9.524	16.40	31.71	39.98	50.82	63.87	85.13	79.95	76.42	90.42	183.1	446.7	224.0	52.81	48.34	42.29	39.15	38.76	34.74	32.36	31.50	31.14	31.09	30.49	29.97	29.52	29.52	30.23	30.14	28.56	29.09	27.60	24.37	22.05	20.68	19.39	17.55	15.53	14.54	12.26	11.13	10.21	9.463	8.476	7.793	6.765	6.395	5.513	5.969	6.355	5.644	4.110	2.895	2.646	2.447	2.170	2.304	2.254	1.970	2.075	1.897	1.938	2.038	4.364	16.36	40.72	104.3	252.7	88.54	2.214	0.464	0.389	0.310	0.355	0.264	0.308	0.285
560.0	7.138	16.09	27.01	36.16	44.59	49.27	71.53	76.18	67.18	69.68	93.78	302.6	375.3	61.40	42.06	36.90	33.45	32.38	29.75	28.43	27.53	26.72	26.31	27.08	25.87	24.98	25.10	25.67	25.63	25.25	25.30	22.86	20.81	20.03	18.22	17.48	15.29	13.18	12.39	10.52	9.642	8.862	8.435	7.760	6.711	6.280	5.599	4.690	4.717	5.141	5.226	4.456	3.005	2.623	2.332	2.028	2.095	2.033	2.047	1.829	1.719	1.702	1.690	2.168	4.825	10.13	26.15	142.1	209.4	22.33	0.857	0.450	0.342	0.338	0.250	0.298	0.268
565.0	6.874	14.07	21.98	29.72	38.45	45.49	56.05	72.15	60.11	58.78	64.06	163.8	416.0	121.2	36.26	32.30	29.30	27.87	25.76	24.61	23.13	23.28	22.50	22.39	21.72	21.28	20.84	22.10	22.30	21.28	21.18	19.67	17.61	17.26	15.48	14.54	13.45	11.10	10.39	8.824	8.531	7.565	7.168	6.383	5.882	5.366	4.811	4.168	4.073	4.154	4.584	4.293	3.041	2.392	2.192	1.845	1.877	1.839	1.743	1.848	1.627	1.493	1.496	1.549	2.215	3.270	6.832	37.72	154.0	165.7	16.70	0.483	0.309	0.245	0.249	0.210	0.201
570.0	6.364	10.62	17.39	25.48	30.01	34.77	41.96	55.90	56.63	47.65	48.73	72.56	259.1	308.2	55.95	25.37	23.60	21.95	20.61	19.77	18.22	18.44	17.71	17.71	16.88	16.75	16.99	17.18	17.32	16.71	16.32	15.25	13.80	13.49	12.43	11.39	10.52	8.812	8.185	7.426	6.760	6.218	5.798	5.221	4.773	4.138	3.850	3.436	3.354	3.008	3.140	3.630	3.136	2.285	1.953	1.577	1.671	1.572	1.453	1.634	1.470	1.403	1.363	1.383	1.461	1.671	2.396	9.309	40.60	110.9	128.1	43.63	1.796	0.274	0.191	0.194	0.208
575.0	4.365	10.75	15.72	21.29	23.31	26.96	31.70	40.48	52.92	44.29	40.27	41.77	100.1	288.1	194.1	20.44	17.88	17.37	15.99	15.19	13.83	14.08	13.84	13.33	13.26	13.05	12.65	12.80	13.31	12.76	12.05	11.82	10.27	10.09	9.514	8.591	8.095	6.937	6.073	5.901	5.197	4.608	4.502	4.148	3.832	3.368	3.020	2.648	2.625	2.284	2.228	2.357	2.724	2.366	1.710	1.423	1.455	1.326	1.254	1.237	1.337	1.238	1.137	1.154	1.092	1.095	1.204	2.852	9.627	25.61	58.96	130.9	23.53	1.430	0.196	0.163	0.160
580.0	5.092	8.515	13.41	17.30	19.26	23.32	26.41	30.44	43.33	45.48	34.78	33.68	44.95	176.6	310.0	35.58	14.72	13.90	12.64	11.80	11.19	11.01	11.92	10.51	10.74	10.34	10.20	10.55	10.62	10.27	9.945	9.619	8.631	8.198	7.644	7.061	6.589	5.540	5.147	5.082	4.194	3.763	3.737	3.225	3.071	2.559	2.485	2.246	2.145	1.908	1.751	1.763	2.116	2.190	1.780	1.247	1.256	1.098	1.001	1.038	1.104	0.993	1.071	0.919	0.864	0.979	0.916	1.295	2.698	6.228	14.58	72.06	111.0	19.99	0.452	0.179	0.149
585.0	5.090	8.107	12.67	15.43	16.10	18.88	22.02	25.25	36.40	44.15	33.29	29.13	30.02	84.05	298.0	87.40	12.89	11.24	10.70	10.02	9.427	9.450	9.666	9.050	8.829	8.600	8.410	8.720	8.812	8.860	8.274	7.907	7.144	6.839	6.405	5.632	5.271	4.827	4.375	4.236	3.508	3.265	3.086	2.787	2.520	2.183	2.113	1.928	1.805	1.632	1.484	1.346	1.581	1.854	1.808	1.296	1.093	0.880	0.919	0.947	0.951	0.791	0.938	0.910	0.804	0.743	0.746	0.820	1.173	1.795	3.586	19.39	83.02	94.02	12.42	0.221	0.117
590.0	3.836	7.808	11.08	13.73	14.69	16.48	19.35	21.87	28.97	40.95	37.96	28.24	24.49	35.67	155.3	241.4	34.97	9.333	8.756	8.303	7.541	7.529	7.238	7.259	6.811	6.869	6.685	6.777	7.064	7.095	6.538	5.911	5.725	5.419	5.101	4.386	4.173	3.749	3.422	3.307	2.925	2.629	2.511	2.342	1.984	1.877	1.684	1.641	1.443	1.350	1.259	1.151	1.174	1.265	1.565	1.410	0.988	0.822	0.783	0.763	0.791	0.736	0.726	0.730	0.713	0.652	0.624	0.630	0.658	0.775	1.056	4.525	21.95	59.55	72.09	14.43	1.073
595.0	3.865	9.831	8.896	12.12	12.76	14.14	17.89	20.65	24.66	34.84	42.05	30.33	23.22	22.24	53.33	201.2	156.4	8.649	6.732	6.659	5.768	5.798	5.480	5.492	5.059	5.365	5.095	5.088	5.555	5.210	5.001	4.659	4.524	4.138	3.842	3.302	3.364	2.956	2.730	2.572	2.297	2.154	2.082	1.894	1.552	1.523	1.336	1.185	1.209	1.085	1.016	0.876	0.879	0.801	1.138	1.376	1.089	0.730	0.664	0.642	0.633	0.557	0.552	0.585	0.561	0.578	0.510	0.453	0.530	0.424	0.493	1.170	5.061	13.66	33.45	69.91	22.77
600.0	3.228	6.897	9.421	10.63	14.99	13.85	18.41	20.06	26.19	32.36	43.62	36.25	26.56	21.24	25.45	111.6	239.5	24.89	5.889	5.370	5.023	4.600	4.731	4.590	4.401	4.371	4.485	4.214	4.513	4.534	4.186	3.903	3.470	3.395	3.169	2.923	2.725	2.421	2.260	1.973	1.919	1.701	1.612	1.624	1.286	1.233	1.166	0.989	0.990	0.905	0.796	0.737	0.641	0.644	0.837	1.022	1.066	0.851	0.548	0.562	0.530	0.473	0.515	0.511	0.523	0.495	0.505	0.476	0.439	0.407	0.326	0.447	1.338	3.220	8.181	40.24	69.04
605.0	3.352	7.318	11.03	11.53	13.99	17.12	20.24	25.12	30.16	36.11	48.53	50.52	35.95	28.24	25.29	54.24	222.8	72.55	5.913	4.681	4.366	3.980	4.154	3.787	3.759	3.719	3.888	3.645	3.668	3.535	3.390	3.164	3.103	3.007	2.657	2.488	2.297	2.080	2.024	1.809	1.640	1.419	1.410	1.357	1.191	0.996	0.990	0.908	0.889	0.749	0.756	0.576	0.623	0.583	0.667	0.877	0.953	0.906	0.598	0.499	0.516	0.449	0.523	0.498	0.433	0.510	0.491	0.481	0.453	0.422	0.299	0.273	0.486	0.909	1.978	10.92	50.78
610.0	4.171	7.555	12.11	12.24	14.10	19.13	22.93	28.23	36.65	44.65	54.96	63.61	51.05	37.01	32.39	32.22	117.3	196.3	28.79	3.895	3.677	3.212	3.248	3.074	3.024	3.016	3.031	2.881	3.071	2.864	2.825	2.566	2.407	2.402	2.271	1.924	1.776	1.760	1.514	1.489	1.370	1.249	1.139	1.030	0.883	0.870	0.855	0.771	0.697	0.623	0.562	0.490	0.493	0.493	0.508	0.597	0.735	0.831	0.714	0.527	0.497	0.462	0.454	0.461	0.459	0.459	0.497	0.501	0.489	0.428	0.352	0.300	0.305	0.393	0.623	2.559	13.61
615.0	3.581	8.143	12.29	12.17	13.95	19.25	24.17	28.20	35.45	43.47	50.68	60.98	56.86	39.24	33.02	26.53	48.21	152.7	132.2	4.077	2.889	2.748	2.522	2.446	2.417	2.128	2.473	2.305	2.198	2.350	2.218	1.949	2.050	2.012	1.622	1.535	1.346	1.398	1.243	1.202	1.129	0.958	0.890	0.907	0.730	0.688	0.683	0.642	0.572	0.569	0.481	0.426	0.426	0.411	0.382	0.439	0.552	0.650	0.652	0.541	0.467	0.382	0.416	0.388	0.463	0.448	0.414	0.461	0.527	0.400	0.365	0.272	0.256	0.249	0.320	0.683	3.179
620.0	3.791	8.472	12.47	12.66	14.31	18.83	23.35	28.21	34.21	42.18	49.06	56.71	58.58	41.84	34.79	25.95	28.34	82.48	191.1	20.92	2.685	2.088	2.130	2.081	2.179	1.798	1.977	1.926	1.771	1.887	1.861	1.666	1.635	1.537	1.470	1.392	1.133	1.082	1.037	0.940	0.830	0.851	0.745	0.734	0.617	0.574	0.516	0.539	0.483	0.441	0.376	0.381	0.411	0.305	0.335	0.332	0.450	0.490	0.647	0.577	0.482	0.325	0.373	0.382	0.410	0.436	0.379	0.451	0.442	0.464	0.306	0.292	0.238	0.269	0.235	0.277	0.880
625.0	3.250	9.038	13.33	14.32	15.64	17.32	23.61	29.22	33.11	40.37	48.96	53.07	57.53	43.64	34.32	26.00	23.34	38.85	161.2	62.25	2.488	1.887	1.918	1.781	1.814	1.560	1.728	1.554	1.486	1.543	1.502	1.328	1.462	1.262	1.097	1.135	0.906	0.935	0.839	0.762	0.732	0.633	0.620	0.639	0.570	0.576	0.506	0.441	0.388	0.385	0.397	0.354	0.297	0.289	0.293	0.257	0.366	0.386	0.489	0.547	0.437	0.388	0.349	0.369	0.364	0.403	0.369	0.392	0.433	0.415	0.363	0.239	0.222	0.202	0.187	0.174	0.298
630.0	4.445	9.535	12.46	14.21	14.41	18.13	23.17	28.28	32.19	40.98	46.82	51.73	54.52	50.34	35.41	26.02	22.33	20.92	72.05	152.2	23.86	1.634	1.467	1.348	1.456	1.270	1.309	1.252	1.191	1.249	1.293	1.157	1.089	0.992	0.887	0.885	0.757	0.718	0.679	0.651	0.547	0.554	0.492	0.482	0.467	0.484	0.418	0.357	0.302	0.351	0.316	0.301	0.267	0.296	0.230	0.238	0.289	0.291	0.353	0.433	0.479	0.390	0.328	0.318	0.332	0.324	0.353	0.380	0.345	0.389	0.352	0.299	0.238	0.192	0.186	0.202	0.192
635.0	5.780	8.601	13.37	13.27	13.40	16.66	23.42	27.70	31.03	39.53	45.79	51.95	51.35	50.22	38.33	26.45	22.84	16.96	22.27	104.6	113.6	2.225	1.269	0.988	1.260	0.980	1.015	0.875	1.049	0.973	1.043	0.884	0.925	0.690	0.722	0.711	0.655	0.575	0.481	0.478	0.434	0.466	0.402	0.330	0.356	0.408	0.290	0.342	0.240	0.236	0.226	0.288	0.246	0.238	0.228	0.242	0.214	0.191	0.255	0.304	0.342	0.356	0.344	0.342	0.342	0.345	0.361	0.319	0.284	0.351	0.292	0.317	0.304	0.219	0.182	0.179	0.205
640.0	5.255	10.29	12.63	13.72	12.55	17.82	20.74	27.37	30.73	38.67	42.78	50.35	49.32	48.63	40.26	26.89	22.59	15.92	9.040	46.66	157.5	16.28	1.196	0.934	1.003	0.878	0.909	0.752	0.840	0.883	0.758	0.818	0.777	0.659	0.562	0.588	0.534	0.522	0.408	0.379	0.371	0.407	0.402	0.312	0.357	0.341	0.257	0.254	0.230	0.220	0.183	0.237	0.203	0.214	0.199	0.248	0.265	0.190	0.258	0.219	0.321	0.313	0.361	0.311	0.357	0.313	0.345	0.343	0.293	0.342	0.344	0.308	0.366	0.259	0.186	0.186	0.198
645.0	4.294	9.229	13.09	14.74	13.24	16.70	20.79	25.42	29.09	35.72	41.05	48.72	46.56	44.16	39.69	27.18	21.81	15.50	6.087	17.00	128.7	46.74	1.182	0.918	0.891	0.910	0.800	0.610	0.799	0.769	0.595	0.676	0.593	0.613	0.479	0.569	0.461	0.407	0.365	0.355	0.310	0.280	0.274	0.260	0.252	0.275	0.236	0.213	0.214	0.215	0.208	0.221	0.192	0.222	0.173	0.225	0.247	0.170	0.209	0.175	0.242	0.273	0.340	0.308	0.319	0.312	0.364	0.369	0.282	0.290	0.264	0.295	0.333	0.258	0.197	0.188	0.182
650.0	5.435	10.71	15.50	15.82	14.21	16.12	20.84	24.06	25.08	33.74	38.84	46.20	45.90	41.20	38.36	28.82	21.42	15.07	5.454	6.842	66.11	115.9	5.944	0.832	0.744	0.708	0.750	0.664	0.726	0.728	0.518	0.483	0.562	0.478	0.492	0.407	0.383	0.378	0.358	0.332	0.274	0.215	0.305	0.238	0.211	0.246	0.244	0.191	0.206	0.188	0.190	0.195	0.187	0.172	0.140	0.162	0.194	0.190	0.176	0.181	0.172	0.210	0.327	0.282	0.305	0.252	0.218	0.290	0.295	0.289	0.261	0.239	0.310	0.250	0.211	0.177	0.152
