Sample:	'1
File name:	G2025072301–§’Ú«≈ 3±∂.FD3
Run date:	'09:44:19, 07/24/2025
Operator:	Administrator
Comment:	'

Instrument
Model:	F-2700 FL Spectrophotometer
Serial number:	23B8-004
ROM Version:	4J14000 07

Instrument parameters
Measurement type:	3-D scan
Data mode:	Fluorescence
EX  Start WL:	220.0 nm
EX  End WL:	600.0 nm
EX Sampling interval:	5.0 nm
EM  Start WL:	230.0 nm
EM  End WL:	650.0 nm
EM Sampling interval:	5.0 nm
Scan speed:	12000 nm/min
EX Slit:	5.0 nm
EM Slit:	5.0 nm
PMT Voltage:	700 V
Response:	Auto 
Corrected spectra:	Off
Contour interval:	50.000

Peak integration
Integration method:	Rectangular
Sensitivity:	1
Threshold:	1.000

Peaks
No.	ApexEX/EM(nm)	Height(Data)
1	225.0/570.0	74.54
2	225.0/605.0	53.71
3	225.0/625.0	47.11
4	230.0/340.0	3696
5	255.0/280.0	684.8
6	255.0/445.0	2702
7	255.0/560.0	218.4
8	260.0/290.0	641.8
9	260.0/575.0	151.4
10	265.0/295.0	842.0
11	265.0/585.0	132.1
12	270.0/300.0	1195
13	270.0/600.0	117.4
14	275.0/305.0	1329
15	275.0/415.0	3139
16	275.0/435.0	3030
17	275.0/610.0	102.5
18	280.0/625.0	91.69
19	285.0/640.0	95.46
20	290.0/340.0	3019
21	335.0/415.0	1411
22	340.0/435.0	1370
23	455.0/540.0	20.89
24	475.0/345.0	11.46
25	505.0/275.0	3.363
26	505.0/455.0	10.04
27	510.0/280.0	3.777
28	510.0/445.0	9.884
29	520.0/285.0	3.866
30	530.0/290.0	3.778
31	540.0/295.0	5.117
32	545.0/300.0	5.482
33	545.0/415.0	9.303
34	550.0/305.0	6.248
35	560.0/410.0	9.377

Data points
	220.0	225.0	230.0	235.0	240.0	245.0	250.0	255.0	260.0	265.0	270.0	275.0	280.0	285.0	290.0	295.0	300.0	305.0	310.0	315.0	320.0	325.0	330.0	335.0	340.0	345.0	350.0	355.0	360.0	365.0	370.0	375.0	380.0	385.0	390.0	395.0	400.0	405.0	410.0	415.0	420.0	425.0	430.0	435.0	440.0	445.0	450.0	455.0	460.0	465.0	470.0	475.0	480.0	485.0	490.0	495.0	500.0	505.0	510.0	515.0	520.0	525.0	530.0	535.0	540.0	545.0	550.0	555.0	560.0	565.0	570.0	575.0	580.0	585.0	590.0	595.0	600.0
230.0	68.01	2327	5296	1550	58.22	7.913	6.304	6.025	4.686	5.163	4.996	4.412	4.230	3.881	4.159	4.027	3.460	3.644	2.596	1.913	1.590	1.373	1.252	1.168	1.183	1.180	0.978	0.947	0.913	0.872	0.911	0.836	0.738	0.681	0.590	0.615	0.507	0.473	0.466	0.445	0.494	0.592	0.599	0.453	0.351	0.366	2.194	9.160	15.75	11.58	4.075	0.636	0.243	0.211	0.217	0.186	0.242	0.201	0.201	0.189	0.207	0.175	0.221	0.205	0.202	0.186	0.173	0.150	0.151	0.166	0.151	0.178	0.133	0.146	0.165	0.159	0.162
235.0	136.1	622.2	3212	5277	667.3	83.43	9.532	7.213	6.846	5.347	5.993	4.871	4.599	4.165	4.369	3.941	3.108	4.274	2.803	1.948	1.607	1.601	1.306	1.326	1.185	1.012	1.093	0.864	0.994	0.961	0.828	0.781	0.748	0.647	0.623	0.616	0.544	0.468	0.404	0.404	0.454	0.416	0.599	0.601	0.587	0.439	0.724	2.469	6.377	11.81	18.04	15.98	6.580	1.232	0.249	0.195	0.192	0.207	0.190	0.240	0.132	0.180	0.265	0.186	0.202	0.179	0.161	0.141	0.137	0.160	0.139	0.138	0.158	0.123	0.189	0.165	0.138
240.0	197.2	241.1	961.8	4685	5013	539.0	40.27	11.81	7.740	6.834	6.634	4.926	5.111	4.974	4.750	4.216	3.806	4.287	2.655	1.904	1.639	1.428	1.195	1.370	1.133	1.142	1.317	1.091	1.024	0.932	0.844	0.796	0.811	0.683	0.630	0.639	0.462	0.540	0.433	0.442	0.406	0.341	0.435	0.616	0.779	0.762	0.663	0.834	1.725	3.820	10.55	22.26	24.48	15.78	4.527	0.637	0.252	0.269	0.209	0.197	0.173	0.234	0.236	0.167	0.204	0.165	0.187	0.150	0.147	0.146	0.182	0.157	0.129	0.160	0.170	0.138	0.166
245.0	142.6	268.4	301.8	1637	6208	4336	412.1	19.29	9.497	8.533	6.800	6.347	5.209	5.491	4.829	4.629	4.159	4.499	2.930	1.931	1.768	1.471	1.370	1.299	1.362	1.313	1.152	1.047	0.945	0.969	0.937	0.820	0.787	0.684	0.647	0.665	0.432	0.459	0.460	0.476	0.462	0.469	0.382	0.444	0.449	0.764	0.972	0.951	0.706	1.193	2.726	8.085	19.00	31.06	24.65	12.81	3.197	0.476	0.230	0.274	0.240	0.235	0.220	0.179	0.213	0.135	0.225	0.199	0.172	0.212	0.174	0.146	0.136	0.124	0.156	0.159	0.213
250.0	65.09	198.3	309.2	473.5	2058	6168	6632	1561	92.21	12.88	9.458	7.967	6.244	6.530	6.324	5.038	4.456	4.605	3.049	2.057	1.752	1.523	1.468	1.454	1.446	1.241	1.223	1.112	1.118	0.957	1.059	0.884	0.914	0.663	0.738	0.615	0.592	0.517	0.503	0.416	0.435	0.429	0.388	0.438	0.418	0.427	0.634	1.016	1.051	1.072	1.073	2.140	4.791	10.77	17.32	26.39	32.03	20.54	11.46	3.696	0.485	0.310	0.257	0.229	0.205	0.220	0.242	0.197	0.175	0.187	0.161	0.164	0.167	0.152	0.144	0.186	0.187
255.0	47.99	73.44	224.3	423.2	561.2	1620	6414	9999.9	2193	101.0	15.33	10.78	8.867	8.105	6.315	6.070	5.082	5.770	3.445	2.338	1.927	1.780	1.475	1.640	1.474	1.488	1.376	1.158	1.149	1.160	0.981	0.839	0.924	0.744	0.697	0.716	0.543	0.591	0.501	0.492	0.497	0.429	0.435	0.381	0.436	0.427	0.405	0.510	0.718	1.105	1.578	1.653	1.654	2.661	4.145	6.548	13.94	31.54	46.90	30.81	18.82	3.533	0.375	0.295	0.274	0.251	0.185	0.205	0.249	0.199	0.208	0.193	0.180	0.218	0.179	0.195	0.124
260.0	40.87	44.52	97.92	354.8	418.8	425.9	2031	9999.9	9999.9	1663	55.16	15.90	10.85	10.47	8.768	6.610	5.166	6.232	3.638	2.623	1.977	1.847	1.683	1.579	1.486	1.547	1.358	1.416	1.151	1.135	1.200	0.866	0.868	0.870	0.722	0.622	0.605	0.528	0.560	0.480	0.473	0.436	0.498	0.354	0.411	0.349	0.346	0.433	0.476	0.649	1.097	2.203	1.899	1.287	1.283	1.811	3.580	8.924	22.84	49.71	68.36	29.16	12.93	1.610	0.329	0.265	0.285	0.233	0.224	0.177	0.211	0.230	0.219	0.204	0.201	0.178	0.147
265.0	40.07	38.37	46.15	175.8	459.2	305.5	512.1	3706	9999.9	9999.9	268.4	25.90	15.11	12.44	9.727	8.219	6.362	7.170	4.301	2.821	2.086	1.946	1.749	1.629	1.624	1.760	1.501	1.537	1.354	1.139	1.257	1.086	0.851	0.851	0.824	0.685	0.589	0.622	0.603	0.514	0.486	0.533	0.507	0.385	0.354	0.396	0.411	0.395	0.372	0.425	0.508	1.214	2.018	2.239	1.461	0.884	1.132	2.305	5.614	15.86	41.64	71.00	66.62	25.07	8.864	0.743	0.380	0.313	0.266	0.261	0.221	0.273	0.217	0.238	0.196	0.247	0.259
270.0	61.97	57.64	48.19	71.57	228.8	462.6	362.6	910.4	3944	9999.9	9999.9	3552	71.18	18.52	14.07	10.53	8.176	8.604	5.221	3.154	2.675	2.118	1.905	1.963	1.744	1.864	1.612	1.429	1.385	1.274	1.423	1.207	1.052	1.008	0.852	0.827	0.680	0.653	0.558	0.525	0.536	0.559	0.568	0.482	0.484	0.474	0.442	0.442	0.452	0.429	0.405	0.548	0.869	1.382	2.086	2.302	2.009	1.324	1.649	3.904	10.06	21.50	37.11	57.35	82.03	59.26	16.93	6.461	0.635	0.294	0.263	0.286	0.311	0.222	0.256	0.237	0.252
275.0	119.7	119.1	93.95	64.92	89.79	231.7	605.2	473.5	947.3	2764	9999.9	9999.9	1460	82.08	22.18	15.16	10.41	11.87	6.275	3.640	3.499	2.609	2.118	2.300	2.109	1.931	1.676	1.710	1.424	1.339	1.432	1.311	0.990	1.013	1.024	0.939	0.847	0.795	0.666	0.504	0.657	0.595	0.621	0.677	0.578	0.584	0.614	0.625	0.582	0.484	0.403	0.442	0.467	0.692	0.834	1.264	2.647	3.363	2.308	1.546	2.687	5.168	8.702	13.61	26.00	52.44	93.60	84.92	25.82	6.599	0.526	0.334	0.317	0.268	0.259	0.260	0.288
280.0	185.6	195.7	146.5	86.87	63.48	111.0	398.2	684.8	384.9	713.9	3363	9999.9	9999.9	1095	49.67	20.40	13.69	14.71	7.083	4.556	4.020	2.984	2.677	2.256	2.259	2.089	1.801	1.769	1.646	1.779	1.535	1.380	1.122	1.082	1.111	1.019	0.874	0.914	0.759	0.694	0.703	0.620	0.697	0.720	0.658	0.780	0.749	0.737	0.674	0.575	0.464	0.508	0.422	0.515	0.582	0.738	1.220	2.577	3.777	3.264	1.735	1.607	2.540	3.678	6.500	13.45	35.38	70.33	106.2	34.33	19.47	2.757	0.409	0.408	0.354	0.307	0.343
285.0	257.6	293.7	220.5	118.5	76.67	81.16	187.8	638.7	415.0	310.5	896.9	4551	9999.9	9999.9	151.1	30.95	18.18	18.73	9.275	5.399	4.259	3.513	2.720	2.497	2.436	2.257	2.187	1.753	1.606	1.777	1.493	1.460	1.330	1.246	1.170	1.342	1.043	1.062	0.783	0.908	0.748	0.751	0.803	0.732	0.799	0.963	0.992	0.930	0.961	0.735	0.585	0.594	0.444	0.462	0.550	0.678	0.815	1.137	2.230	3.851	3.866	2.300	1.480	1.522	2.185	3.737	8.729	19.01	48.90	82.36	101.8	31.04	12.94	1.135	0.438	0.342	0.391
290.0	342.6	402.0	322.2	179.1	109.3	94.57	127.0	303.7	641.8	606.7	420.2	1240	4558	9999.9	9999.9	3093	53.57	29.67	12.69	6.823	5.744	4.054	3.354	3.144	2.673	2.463	2.257	2.026	1.889	1.846	1.642	1.620	1.384	1.444	1.511	1.504	1.267	1.139	1.033	0.995	0.904	0.866	0.903	0.992	1.013	1.125	1.204	1.213	1.178	1.040	0.782	0.731	0.670	0.554	0.596	0.649	0.715	0.784	1.116	1.782	2.767	3.660	3.778	2.854	1.886	1.857	3.003	5.215	12.02	22.38	42.88	59.55	83.79	71.07	55.16	10.08	1.567
295.0	427.7	471.9	409.5	249.0	150.9	127.6	146.0	211.2	352.3	842.0	831.8	609.0	1265	2818	9999.9	9999.9	844.0	71.51	18.57	9.628	7.050	5.225	4.395	3.489	3.112	2.956	2.506	2.179	1.922	1.847	2.134	1.687	1.662	1.527	1.741	1.539	1.392	1.378	1.175	1.116	0.975	1.047	1.117	0.954	1.176	1.236	1.468	1.588	1.549	1.186	1.113	0.929	0.930	0.818	0.651	0.662	0.927	0.909	1.090	1.207	1.513	1.892	2.571	4.206	5.117	3.095	2.362	2.580	3.857	6.244	10.61	14.36	22.49	44.60	109.9	117.8	33.38
300.0	464.3	546.4	464.9	298.7	202.3	167.0	188.8	234.8	317.3	610.3	1195	759.4	631.0	875.0	3427	9999.9	9999.9	720.2	40.68	13.19	9.339	6.385	4.849	4.130	3.429	3.316	3.020	2.542	2.136	1.922	2.004	1.918	1.681	1.651	1.777	1.626	1.521	1.499	1.372	1.172	1.103	1.054	1.150	0.978	1.342	1.377	1.824	1.765	1.674	1.511	1.106	1.154	1.062	0.929	0.945	0.790	1.064	0.987	1.166	1.369	1.507	1.698	1.997	2.551	4.656	5.482	4.250	2.732	2.694	2.809	3.820	4.508	6.297	11.43	34.12	75.09	130.4
305.0	524.7	604.4	548.0	347.7	253.5	225.2	263.7	316.7	392.7	579.1	1072	1329	731.1	572.4	1045	5242	9999.9	9999.9	518.9	21.40	12.65	8.171	6.085	4.678	3.986	3.874	3.112	3.062	2.234	2.241	2.040	2.238	1.846	1.727	1.741	1.737	1.540	1.604	1.295	1.223	1.177	1.165	1.230	1.181	1.512	1.467	1.695	1.977	1.943	1.753	1.255	1.252	1.257	1.263	1.083	1.140	1.232	1.259	1.654	1.630	1.683	1.894	2.171	2.584	3.343	4.593	6.248	5.885	3.926	2.928	2.956	2.853	2.866	3.848	8.841	19.36	49.06
310.0	555.4	685.3	637.8	428.4	325.1	307.6	343.6	413.2	506.5	661.8	915.1	1309	1295	754.9	635.4	1480	5179	9999.9	9999.9	1959	37.72	12.70	8.225	6.353	4.932	4.566	3.525	3.523	2.734	2.461	2.334	2.222	2.079	1.940	1.805	1.838	1.683	1.629	1.477	1.415	1.290	1.368	1.352	1.358	1.561	1.806	1.845	2.201	2.077	1.955	1.630	1.606	1.551	1.427	1.348	1.555	1.652	1.720	1.975	2.040	2.219	2.395	2.681	2.988	3.331	3.955	4.579	5.657	5.992	5.574	4.537	3.351	2.895	2.998	3.720	5.817	12.53
315.0	719.4	860.8	842.9	625.6	531.3	511.7	500.3	547.5	643.3	805.1	1006	1213	1457	1385	911.3	915.1	1681	3131	9999.9	9999.9	581.8	41.93	13.09	9.003	6.159	5.397	4.251	3.837	3.438	2.854	2.757	2.477	2.167	2.201	1.875	2.115	1.784	1.717	1.643	1.680	1.656	1.476	1.592	1.555	1.839	2.010	2.260	2.822	2.628	2.308	2.261	2.434	2.317	2.203	2.055	2.168	2.218	2.328	2.334	2.527	2.772	2.943	3.214	3.509	3.830	4.277	4.600	4.937	5.501	5.887	7.000	6.556	5.078	4.246	4.134	4.435	5.648
320.0	943.9	1229	1198	938.6	775.7	827.9	753.9	738.0	841.9	1037	1287	1489	1644	1932	1671	1137	1198	1416	3426	9999.9	9999.9	486.8	26.24	12.14	8.640	6.495	4.785	4.271	3.924	3.201	3.070	2.531	2.526	2.148	2.137	2.142	1.935	1.827	1.984	1.830	2.016	1.952	1.939	2.040	2.417	2.819	3.248	3.854	3.699	3.395	3.088	3.591	3.336	3.418	3.288	3.402	3.564	3.162	3.338	3.268	3.952	3.744	3.900	4.386	4.958	5.125	5.473	5.750	6.366	6.842	7.274	8.546	8.960	7.930	6.468	5.868	6.579
325.0	1285	1725	1788	1469	1234	1115	978.6	881.2	1022	1252	1548	1790	1933	2136	2339	1801	1599	1388	1522	3973	9999.9	9999.9	69.70	19.78	11.08	8.292	6.092	5.367	4.478	3.466	3.151	3.016	2.732	2.478	2.326	2.341	2.130	2.184	2.226	1.970	2.068	2.212	2.249	2.696	3.003	3.659	4.165	4.937	5.546	5.088	4.692	5.218	4.581	4.826	4.640	4.363	4.245	3.904	4.006	4.055	4.650	4.484	5.132	5.280	5.988	6.346	6.353	7.045	7.746	7.820	8.441	9.071	10.17	10.88	10.27	8.770	8.466
330.0	1703	2377	2650	2266	1787	1449	1172	1053	1200	1451	1777	2058	2239	2352	2501	2433	2076	1614	1280	1593	3818	9999.9	9999.9	1614	30.93	12.50	8.689	6.814	5.170	4.335	3.909	3.483	3.037	2.806	2.612	2.546	2.407	2.297	2.358	2.329	2.385	2.576	2.963	2.982	3.738	4.827	5.366	6.696	7.498	6.857	6.799	7.338	6.556	6.285	5.990	5.212	5.278	4.706	4.579	4.422	4.939	5.493	5.576	6.202	6.873	7.455	7.988	8.274	8.687	9.006	9.744	10.15	10.56	11.58	11.66	11.70	11.50
335.0	2030	2905	3318	3074	2523	1967	1460	1264	1393	1690	2063	2370	2633	2787	2854	2821	2818	2141	1545	1308	1328	2588	8951	9999.9	2438	37.56	12.84	9.251	6.777	5.659	4.724	4.214	3.410	3.071	2.653	2.885	2.897	2.638	2.560	2.779	2.806	2.918	3.376	3.474	4.360	5.633	6.456	8.589	9.185	8.929	8.678	9.823	9.367	8.704	7.661	6.969	6.484	5.742	5.319	5.057	5.581	6.222	6.531	6.980	7.680	8.347	9.003	9.124	9.970	10.32	11.31	11.79	12.79	12.85	13.12	12.86	13.82
340.0	2138	3146	3696	3473	2838	2200	1611	1358	1502	1801	2171	2510	2777	2966	3019	2924	2946	2500	1715	1318	828.3	811.6	2557	9999.9	9999.9	428.2	24.96	11.65	8.445	6.540	5.728	4.615	3.753	3.090	2.814	2.901	2.906	2.767	2.751	2.935	2.984	3.089	3.555	3.913	4.689	5.766	6.895	9.298	9.917	9.910	9.995	11.03	10.57	9.687	8.190	7.617	7.019	6.217	5.173	5.645	6.161	6.417	7.201	7.509	8.164	8.418	9.394	9.882	10.20	10.91	11.61	12.24	12.88	13.51	14.07	13.78	14.20
345.0	2229	3146	3688	3494	2859	2211	1609	1357	1503	1780	2133	2452	2709	2903	2955	2842	2744	2498	1819	1300	728.1	444.4	752.6	3274	9999.9	9999.9	329.1	17.86	10.16	7.398	6.336	4.774	4.040	3.649	2.993	2.947	2.670	2.969	2.886	2.993	3.016	3.088	3.416	3.914	4.730	6.259	7.071	9.264	9.721	10.02	9.926	11.46	10.58	9.949	8.732	7.586	7.373	6.158	5.465	5.503	6.041	6.333	6.896	7.379	7.817	8.147	8.833	9.737	10.12	10.82	11.30	12.12	12.25	13.27	13.64	13.40	13.90
350.0	2053	2950	3551	3410	2830	2193	1616	1370	1473	1724	2018	2294	2549	2735	2799	2688	2552	2235	1849	1396	734.4	396.3	384.4	888.5	3393	9999.9	9450	1523	28.79	10.58	8.228	6.239	4.710	4.221	3.283	3.153	2.946	2.812	3.069	2.893	3.038	3.138	3.389	3.633	4.556	5.904	6.969	8.794	9.672	9.699	9.724	10.93	10.50	9.882	8.628	7.328	7.259	6.244	5.594	5.739	6.004	6.140	6.687	7.239	7.797	8.100	8.682	9.122	9.505	10.17	10.63	11.28	11.95	12.42	12.58	12.66	13.09
355.0	1909	2645	3198	3205	2724	2146	1609	1371	1458	1669	1901	2150	2360	2542	2605	2529	2396	2057	1671	1469	847.2	434.0	339.5	386.8	882.0	2420	7765	9999.9	2493	34.27	12.28	8.361	5.650	5.004	3.541	3.389	3.119	2.732	3.008	2.821	2.965	3.028	3.361	3.586	4.135	5.260	6.373	8.247	8.723	9.130	8.967	10.69	10.48	9.693	8.348	7.362	7.079	6.280	5.610	5.610	5.984	6.249	6.236	7.208	7.155	7.335	8.114	8.684	8.912	9.698	10.28	10.53	11.05	11.64	12.04	12.00	12.72
360.0	1669	2452	2898	2954	2542	2007	1542	1353	1416	1597	1789	1990	2183	2327	2396	2341	2218	1907	1534	1334	951.9	508.3	354.8	299.6	350.5	646.7	2081	9993	9999.9	403.3	26.51	11.00	7.521	5.979	3.983	3.504	3.114	2.894	3.072	2.979	2.935	2.940	3.047	2.945	3.852	5.010	5.564	6.998	8.326	8.272	8.204	10.03	9.570	8.850	7.852	6.973	6.606	6.278	5.699	5.416	5.958	6.241	6.167	6.851	6.521	7.384	7.501	8.247	8.536	8.742	9.056	9.693	10.13	10.79	10.80	10.71	11.65
365.0	1533	2193	2651	2719	2344	1919	1487	1303	1374	1518	1674	1841	1995	2117	2193	2122	2023	1755	1421	1196	923.3	630.0	406.4	306.5	263.0	276.7	551.0	2943	9999.9	9999.9	351.1	18.73	9.933	6.999	4.925	3.845	3.494	3.019	3.039	2.821	2.824	2.787	2.937	3.124	3.758	4.452	5.080	6.419	7.505	7.467	7.994	8.920	8.766	8.522	7.454	6.939	6.639	5.958	5.370	5.505	5.468	6.186	5.825	6.748	6.498	6.606	6.904	7.615	7.945	8.095	8.475	9.047	9.610	9.742	9.755	10.01	10.36
370.0	1385	1926	2347	2400	2169	1787	1431	1276	1319	1430	1559	1679	1793	1897	1934	1887	1811	1587	1322	1113	825.1	689.5	562.6	382.9	290.2	234.6	244.4	746.0	3078	9999.9	9999.9	1474	27.49	10.03	6.409	4.993	4.345	3.307	3.121	2.675	2.801	2.641	2.827	2.988	3.545	4.142	4.886	5.801	6.654	6.647	6.986	8.249	8.059	7.662	7.060	6.710	6.028	5.751	5.261	5.335	5.146	5.548	5.606	6.373	6.291	6.145	6.442	6.683	7.046	7.154	7.718	7.964	8.350	9.000	8.845	8.889	9.332
375.0	1251	1703	2085	2124	1939	1674	1393	1241	1278	1339	1448	1547	1612	1690	1708	1669	1608	1435	1221	1054	799.4	648.3	651.8	530.5	367.3	276.2	220.1	288.7	774.2	2378	7516	9999.9	2363	32.97	9.682	7.017	5.473	3.782	3.250	2.844	2.753	2.871	2.948	3.019	3.370	3.814	4.565	5.240	5.896	5.989	6.276	7.529	7.215	6.947	6.601	6.056	6.084	5.308	4.949	4.945	5.111	5.219	5.722	5.821	5.848	5.789	6.177	6.250	6.195	6.601	6.879	6.913	7.283	8.183	8.149	7.959	8.510
380.0	1101	1566	1891	1944	1813	1584	1335	1216	1228	1291	1375	1439	1513	1530	1554	1513	1473	1326	1154	1009	789.9	649.3	631.8	632.4	459.1	329.9	252.6	219.9	286.7	612.4	1984	9762	9999.9	1750	24.57	9.529	6.926	4.931	3.823	3.219	2.844	2.822	2.939	2.894	3.067	3.537	3.970	4.652	5.285	5.477	5.923	7.032	6.536	6.656	5.973	5.735	6.059	5.244	4.878	5.038	4.987	5.511	5.181	5.665	5.795	5.216	5.544	5.684	5.950	6.188	6.254	6.451	6.729	7.129	7.589	7.485	7.358
385.0	1027	1434	1734	1790	1714	1514	1335	1199	1194	1264	1334	1374	1423	1440	1439	1390	1353	1234	1089	976.3	789.7	671.8	627.6	635.6	580.2	400.9	303.3	243.5	210.7	245.2	523.9	2796	9999.9	9999.9	294.6	17.55	8.994	5.986	4.207	3.118	2.998	3.006	2.997	2.802	2.900	3.401	3.892	4.632	5.073	4.917	5.348	6.515	6.266	6.295	5.877	5.574	5.684	5.541	4.692	4.968	4.895	5.092	5.029	5.388	5.386	5.515	5.365	5.321	5.688	6.034	6.286	6.034	6.415	6.781	6.831	6.865	6.919
390.0	991.0	1358	1600	1693	1649	1501	1349	1259	1244	1315	1382	1418	1433	1418	1386	1316	1253	1152	1044	959.1	825.2	735.2	696.2	664.1	655.5	570.4	417.4	331.6	268.0	227.4	248.1	721.7	2893	8994	9355	1275	26.06	11.47	6.730	4.654	3.375	3.109	3.016	2.867	2.866	3.463	3.702	4.451	4.837	4.758	5.077	5.940	6.117	6.072	5.979	5.459	5.533	5.523	4.976	5.055	5.109	5.143	5.101	5.320	5.442	5.486	5.221	5.199	5.480	5.624	5.892	5.855	6.150	6.377	6.158	6.363	6.508
395.0	1006	1269	1495	1620	1639	1569	1485	1421	1444	1532	1645	1687	1685	1578	1491	1366	1245	1135	1053	994.0	915.2	858.1	843.3	806.3	765.6	758.3	670.5	483.0	420.1	349.4	295.7	341.3	778.1	2163	5507	9999.9	1965	33.04	12.05	6.597	4.469	3.678	3.293	3.044	2.973	3.537	3.507	4.235	4.702	4.679	4.954	5.892	6.161	6.201	6.035	5.625	5.716	5.840	5.349	5.684	5.466	5.201	5.720	5.817	6.168	6.210	6.291	5.826	5.695	6.275	6.643	6.210	6.333	6.686	6.472	6.144	6.353
400.0	995.2	1266	1501	1628	1695	1698	1643	1631	1727	1886	2047	2085	2058	1915	1727	1510	1327	1177	1111	1070	1033	1007	1007	990.3	952.9	917.3	899.6	745.9	610.4	476.4	419.5	357.8	385.8	647.5	1509	7512	9999.9	298.9	27.36	9.757	5.964	4.554	3.598	3.211	3.159	3.548	3.712	4.331	4.516	4.711	5.173	5.823	6.230	6.508	6.296	6.119	6.424	6.402	5.862	6.086	6.074	6.126	6.312	6.388	6.890	6.832	6.679	6.799	6.679	6.880	6.829	6.796	6.992	7.071	6.935	6.767	6.576
405.0	990.6	1302	1531	1705	1799	1857	1865	1884	2041	2291	2474	2604	2514	2322	2033	1712	1433	1247	1180	1165	1156	1159	1191	1196	1172	1123	1095	1018	836.7	691.9	589.0	478.3	390.6	381.1	531.0	2215	8450	7887	268.4	16.88	7.486	5.283	4.150	3.621	3.481	3.540	3.731	4.424	4.792	4.734	5.272	6.159	6.471	6.699	6.823	6.514	6.754	7.016	6.532	6.759	6.973	6.686	7.414	7.324	7.862	7.807	7.880	8.056	8.095	8.015	7.922	7.797	7.569	7.662	7.369	7.063	7.171
410.0	990.3	1260	1510	1722	1880	1995	2058	2147	2339	2650	2944	3058	2934	2672	2301	1874	1523	1311	1233	1239	1254	1293	1353	1380	1366	1315	1253	1199	1081	898.9	753.3	613.0	480.6	392.9	372.9	700.1	2403	6331	7290	1076	20.71	7.095	5.148	4.153	3.718	3.879	3.871	4.682	4.771	4.937	5.463	6.320	6.468	7.056	7.055	7.078	7.420	7.406	7.344	7.247	7.526	7.687	8.096	8.636	9.000	8.990	9.142	9.089	9.377	8.836	8.902	8.698	8.478	8.310	8.041	7.668	7.766
415.0	969.1	1235	1490	1693	1885	2043	2141	2240	2418	2717	3009	3139	2988	2690	2333	1866	1494	1280	1214	1221	1251	1303	1369	1411	1396	1351	1281	1202	1122	993.0	813.0	652.4	514.0	406.5	344.1	365.8	686.8	1537	4158	7726	1683	24.38	6.647	4.808	4.309	4.069	3.673	4.627	4.706	4.870	5.297	6.453	6.967	6.909	7.097	7.055	7.451	7.645	7.561	7.544	7.699	7.282	8.327	8.585	9.182	9.303	8.802	8.936	9.254	9.156	8.389	8.487	8.791	8.038	7.916	7.701	7.288
420.0	889.0	1200	1460	1638	1859	2045	2156	2252	2404	2661	2931	3035	2894	2603	2230	1807	1447	1240	1171	1182	1218	1270	1338	1369	1367	1319	1252	1160	1075	999.1	842.6	658.2	513.5	405.5	333.2	287.0	299.6	427.1	1084	5169	7215	276.6	16.43	5.720	4.556	4.368	3.912	4.579	4.675	4.723	5.097	6.116	6.592	6.720	7.002	7.043	7.594	7.636	7.499	7.529	7.488	7.763	8.166	8.327	8.730	8.844	8.976	8.908	9.055	8.800	8.672	8.451	8.359	8.137	7.561	7.257	6.946
425.0	920.0	1167	1396	1644	1873	2059	2192	2291	2398	2650	2906	2978	2849	2555	2200	1767	1418	1218	1150	1164	1188	1246	1316	1351	1348	1308	1243	1158	1051	980.0	869.8	681.7	524.0	415.8	338.3	274.5	217.6	183.8	288.2	1437	6072	6539	231.4	8.826	5.448	4.988	4.337	4.683	4.732	4.622	5.418	6.094	6.602	6.637	6.942	7.308	7.838	7.676	7.833	7.548	7.899	7.789	8.062	8.387	8.615	8.620	8.837	8.857	8.802	8.768	8.516	8.610	8.066	8.033	7.488	7.136	6.557
430.0	1108	1169	1422	1680	1935	2156	2348	2435	2526	2721	2963	3011	2888	2606	2221	1785	1423	1222	1149	1167	1188	1242	1312	1364	1364	1338	1282	1193	1091	992.1	901.9	765.0	583.6	456.0	372.7	301.8	221.9	143.1	118.5	352.2	1665	5159	5639	924.0	16.91	6.199	5.145	5.092	4.982	4.926	5.353	6.266	6.745	7.361	7.679	7.748	8.753	8.597	8.418	8.285	8.327	8.084	8.431	8.580	8.824	8.946	8.824	8.800	8.655	8.671	8.598	8.580	8.000	7.778	7.661	6.989	6.664
435.0	1861	1212	1396	1702	2008	2275	2531	2624	2654	2777	2954	3030	2882	2618	2219	1795	1429	1233	1163	1161	1178	1231	1298	1355	1370	1353	1294	1223	1120	1022	908.8	796.2	653.7	500.1	405.1	327.2	238.8	149.6	90.88	115.9	395.2	1202	3457	5765	1450	21.00	6.823	5.642	5.514	5.402	5.648	6.426	7.288	7.959	8.107	8.268	9.621	9.103	9.147	8.810	8.840	8.271	8.749	8.932	9.004	8.772	8.714	8.694	8.554	9.143	8.196	8.531	8.216	7.702	7.118	6.901	6.689
440.0	2617	1422	1425	1692	2064	2346	2628	2696	2664	2725	2865	2912	2780	2523	2147	1737	1399	1208	1140	1131	1138	1178	1243	1302	1314	1302	1253	1193	1100	1006	890.8	770.0	662.6	525.5	413.4	332.2	247.3	153.8	90.10	67.85	115.4	289.6	910.2	4057	5644	243.9	15.01	6.769	6.152	5.742	5.611	6.680	7.494	7.897	8.509	8.704	9.650	9.480	9.783	9.423	8.969	8.863	8.433	8.478	8.420	8.413	8.524	8.380	8.326	8.637	8.022	7.906	8.039	7.935	6.908	6.808	6.377
445.0	2899	1993	1407	1680	2030	2388	2621	2702	2596	2578	2650	2713	2606	2353	2022	1645	1336	1158	1095	1082	1072	1097	1163	1214	1228	1213	1174	1123	1038	950.8	846.8	723.8	618.3	529.1	412.7	326.3	241.2	154.4	92.66	60.95	57.79	88.63	223.3	1159	4983	4769	193.2	9.925	6.675	5.833	5.943	6.763	7.352	7.968	8.457	8.966	9.742	9.659	9.884	9.435	8.642	8.535	8.362	8.268	7.965	8.018	7.985	7.838	7.968	7.926	7.624	7.644	7.562	7.292	6.839	6.815	6.538
450.0	2011	3455	1673	1586	1957	2342	2583	2626	2440	2325	2356	2380	2292	2086	1800	1482	1225	1075	1019	992.8	964.1	976.9	1024	1069	1085	1077	1049	1002	934.5	861.6	773.5	661.6	554.1	479.6	408.3	317.1	229.9	152.4	96.74	64.26	50.47	47.93	71.87	276.6	1391	3996	5006	861.6	16.85	7.481	6.629	7.214	7.659	7.859	8.352	8.891	9.201	9.972	9.817	9.461	8.534	8.194	7.789	7.510	7.352	7.239	7.180	7.122	7.109	6.938	7.007	7.021	6.775	6.769	6.264	6.050	5.874
455.0	1112	3766	3105	1541	1844	2261	2486	2477	2261	2093	2079	2080	1999	1829	1585	1335	1112	986.4	933.1	899.1	856.4	860.5	903.0	940.1	950.8	947.7	929.0	888.6	838.9	777.4	699.7	605.0	506.5	425.5	377.1	316.5	227.0	149.8	99.06	68.62	53.59	43.73	41.48	80.76	326.0	936.5	2874	5847	1345	19.77	7.923	7.066	7.295	7.813	8.287	8.507	9.368	10.04	9.797	8.903	8.187	7.633	7.368	7.003	6.839	6.444	6.472	6.284	6.304	6.262	6.479	6.337	6.317	5.833	5.488	5.438	5.549
460.0	805.0	2565	4465	1752	1769	2145	2396	2398	2117	1936	1891	1908	1808	1664	1452	1225	1024	911.7	870.5	834.1	785.1	779.7	812.6	854.6	864.1	864.3	849.0	817.2	770.6	727.9	656.6	567.9	477.9	398.7	346.0	306.6	232.0	151.8	101.5	73.34	57.12	44.87	37.37	39.78	90.19	223.8	739.5	3955	5712	1002	15.68	8.224	7.585	7.702	8.334	8.408	9.249	9.745	9.381	8.741	7.924	7.250	6.847	6.223	6.355	5.774	5.960	5.816	5.872	5.766	5.903	5.369	5.535	5.698	5.274	4.926	5.027
465.0	725.9	1542	4645	2584	1697	2011	2276	2273	2011	1787	1728	1731	1664	1529	1333	1122	959.8	851.4	813.1	774.3	724.4	709.9	746.2	777.6	786.8	791.3	777.6	753.4	720.9	672.8	611.0	531.1	444.9	375.8	318.4	285.8	234.3	158.3	100.4	76.63	60.49	47.27	38.98	32.80	38.81	65.98	179.5	1114	4930	5238	173.4	12.48	8.118	8.228	8.246	8.464	8.951	9.065	9.160	8.585	7.852	7.036	6.411	5.918	5.790	5.368	5.399	5.555	5.146	5.310	5.266	5.105	4.963	5.320	4.926	4.595	4.570
470.0	652.8	979.7	2868	4243	1927	1833	2077	2069	1805	1578	1511	1503	1441	1316	1163	990.6	844.9	761.9	718.8	680.4	631.9	614.9	639.6	667.9	680.6	684.6	674.9	658.7	628.9	595.0	543.6	473.4	402.1	339.3	289.0	247.9	210.3	160.7	105.5	75.64	60.62	48.58	39.52	32.58	29.42	30.94	53.93	261.4	1358	3975	4367	822.8	18.00	8.613	8.036	8.184	8.567	8.720	8.525	7.727	6.908	6.394	5.841	5.384	4.990	4.930	4.700	4.721	4.746	4.538	4.665	4.717	4.496	4.477	4.229	4.062	4.385
475.0	629.3	804.8	1391	4136	3313	1635	1835	1819	1581	1354	1273	1253	1200	1110	982.6	834.0	728.1	656.8	626.0	579.9	537.0	516.1	534.7	561.5	570.3	576.5	568.3	556.3	529.6	506.0	463.2	408.3	351.4	297.5	254.9	214.8	179.0	147.6	113.3	77.93	60.93	49.65	40.33	33.20	27.88	24.28	26.17	70.06	312.5	914.8	2241	4018	1219	21.53	8.305	7.761	7.835	8.318	7.623	7.079	6.317	5.745	5.226	4.622	4.183	4.277	4.148	4.115	4.209	3.946	3.980	4.011	3.989	3.918	3.748	3.543	3.806
480.0	604.2	715.8	924.0	2762	4736	1803	1662	1626	1409	1200	1116	1099	1043	967.4	856.5	741.7	648.5	587.1	555.2	516.3	471.7	456.4	468.1	492.0	500.3	502.5	500.1	486.1	468.9	450.2	413.3	363.4	316.3	270.6	229.7	196.3	159.0	130.0	111.8	84.47	62.35	49.99	40.19	33.83	28.09	23.29	20.50	28.31	80.14	213.6	558.8	2384	3930	224.5	16.98	7.758	7.654	7.657	6.870	6.577	5.828	5.344	4.745	4.143	4.015	3.751	3.866	3.521	3.642	3.409	3.735	3.585	3.313	3.558	3.463	3.372	3.324
485.0	532.6	707.5	767.6	1542	5005	2656	1521	1496	1262	1080	999.0	974.0	935.2	857.4	765.8	665.0	582.8	530.0	501.4	465.1	420.9	405.9	417.0	433.1	442.7	445.3	439.7	435.0	419.5	401.9	373.3	332.6	285.2	246.5	211.6	179.7	146.8	117.8	101.6	90.13	67.03	51.35	41.76	34.00	28.76	24.57	20.59	19.37	28.73	57.09	134.5	648.4	3030	3176	197.4	11.57	7.864	7.298	6.730	5.965	5.399	4.901	4.326	4.166	3.522	3.536	3.521	3.291	3.324	3.191	3.171	3.357	3.106	3.245	2.977	2.919	2.998
490.0	436.2	659.6	668.7	941.1	3177	4659	1729	1301	1107	930.6	866.8	836.7	800.7	739.0	663.4	576.0	510.7	465.9	438.7	404.6	366.9	350.9	362.1	372.1	383.2	386.9	381.3	376.2	365.1	350.7	327.0	290.8	254.2	221.2	190.0	162.2	133.4	107.1	90.09	83.80	73.35	55.09	43.09	35.38	29.77	25.27	22.27	18.78	18.70	23.43	39.80	153.6	800.6	2160	2709	826.6	19.43	7.302	6.677	6.044	5.195	4.577	3.854	3.538	3.302	3.119	3.174	2.987	2.917	2.841	2.877	2.888	2.628	2.730	2.735	2.741	2.722
495.0	377.7	563.7	642.5	718.9	1456	4862	3161	1152	957.4	805.5	747.8	723.9	681.7	627.5	571.7	496.7	440.5	400.5	377.4	348.2	313.4	302.4	309.9	319.1	326.3	326.0	326.7	322.7	314.9	302.9	284.4	253.7	223.0	193.3	168.0	144.8	122.2	99.31	80.83	71.96	70.90	60.70	46.75	36.27	30.57	26.43	22.82	20.04	17.67	16.59	18.79	43.75	186.7	497.1	1536	3536	1406	23.83	7.106	5.963	4.825	4.027	3.556	3.251	2.815	2.898	2.758	2.634	2.532	2.568	2.466	2.560	2.440	2.590	2.304	2.476	2.407
500.0	356.0	481.5	620.0	641.6	880.8	3233	4808	1283	853.4	714.9	666.9	640.8	603.1	555.1	498.4	431.7	391.1	354.3	330.9	307.7	278.3	268.2	274.0	281.1	290.8	288.1	287.4	282.7	277.5	268.1	253.6	227.1	199.9	174.9	152.2	132.1	111.4	92.96	76.07	65.92	62.66	62.11	49.58	37.12	30.50	26.88	23.52	20.34	18.14	15.88	14.53	19.43	50.13	119.4	382.4	1975	3698	245.7	20.09	6.010	4.728	3.938	3.345	3.113	2.776	2.643	2.700	2.393	2.179	2.340	2.298	2.088	2.130	2.222	2.050	2.103	2.163
505.0	287.2	412.0	560.9	601.8	713.0	1697	5343	2143	765.2	634.2	590.6	563.7	537.3	499.7	439.5	389.2	344.3	314.9	291.7	272.4	246.0	237.7	242.1	248.9	255.5	256.3	255.6	250.5	246.3	238.6	225.8	204.4	179.7	158.1	139.1	120.5	102.3	85.49	70.89	60.86	54.75	55.42	52.74	39.85	31.36	26.90	23.74	20.48	18.53	16.36	15.00	14.15	20.16	35.13	93.71	517.9	2505	2854	231.5	11.59	4.944	3.992	3.284	3.037	2.760	2.246	2.232	2.197	2.166	2.081	1.944	1.913	1.982	1.984	1.970	1.994	1.890
510.0	260.7	333.3	458.6	563.0	590.7	900.8	3343	4313	933.9	550.1	499.4	479.0	453.0	415.3	373.3	326.9	292.6	267.3	248.3	233.5	208.7	197.6	201.4	208.6	214.8	216.9	213.3	209.7	207.2	202.2	189.9	173.7	154.9	134.8	120.7	105.1	91.29	76.04	63.67	56.00	49.57	46.31	48.09	43.00	33.59	26.70	23.11	20.79	18.53	16.53	15.10	13.43	13.68	16.62	29.14	123.0	642.7	1716	2165	940.1	18.15	4.364	3.268	2.813	2.486	2.194	2.058	2.037	1.882	1.693	1.764	1.661	1.858	1.818	1.781	1.575	1.547
515.0	214.3	266.2	353.9	500.7	501.2	618.5	1336	5116	2287	475.7	418.2	395.0	376.9	348.0	310.1	270.4	243.7	220.9	208.4	191.7	171.4	163.9	166.9	171.0	177.2	178.4	176.1	174.3	171.7	167.9	157.2	146.0	128.6	114.1	101.6	90.05	78.42	67.14	57.54	50.71	45.00	40.61	39.54	40.33	36.46	28.12	23.36	20.42	17.72	15.99	14.56	13.90	12.28	12.17	14.58	34.57	149.8	391.6	950.0	3069	1379	23.93	3.737	2.817	2.652	2.164	1.843	1.835	1.794	1.646	1.516	1.414	1.530	1.424	1.463	1.468	1.360
520.0	180.5	238.7	290.9	417.1	468.3	502.6	708.5	3367	4144	617.9	360.4	348.1	324.1	295.5	267.8	235.6	213.0	193.3	179.0	166.3	148.7	142.0	141.8	145.3	152.1	153.6	151.4	148.2	147.7	143.3	136.0	125.5	112.9	99.96	90.23	79.93	69.02	60.92	52.86	46.30	40.95	37.79	34.69	35.20	36.43	29.50	22.91	19.48	17.46	15.81	14.50	13.51	12.28	10.83	10.83	14.72	39.90	93.06	228.5	1550	2914	932.2	16.90	3.241	2.481	2.086	1.673	1.476	1.546	1.556	1.444	1.475	1.302	1.273	1.289	1.146	1.228
525.0	159.9	222.9	252.6	341.8	465.8	442.3	512.8	1533	5060	1502	323.0	308.2	287.5	263.5	231.4	205.1	183.7	166.5	158.1	147.6	131.6	124.9	125.1	127.7	132.3	132.2	133.2	129.1	129.4	126.8	119.6	111.0	99.59	88.74	80.93	71.59	62.20	54.45	47.58	42.28	37.67	34.20	31.33	30.19	32.52	31.06	23.54	19.23	16.67	15.16	13.91	12.67	12.43	11.12	9.835	9.507	14.91	25.79	56.03	389.8	1681	2167	234.7	11.71	2.418	1.978	1.828	1.469	1.382	1.388	1.441	1.206	1.173	1.137	1.220	1.347	1.103
530.0	139.7	185.0	221.9	266.9	387.2	418.9	409.2	648.7	3216	3859	552.7	256.7	242.4	221.6	195.1	172.6	152.8	140.9	133.0	121.8	110.3	103.2	104.1	107.2	110.6	111.6	111.0	108.3	108.0	106.5	101.3	92.97	84.27	76.00	68.21	61.39	54.28	46.99	41.30	37.24	33.92	30.95	28.10	25.72	26.03	28.73	25.63	19.81	15.83	14.38	13.13	11.92	11.13	10.74	9.456	8.444	8.971	10.81	16.82	91.00	414.5	1166	1886	932.0	17.81	2.658	1.847	1.528	1.357	1.327	1.264	1.021	1.109	1.084	1.067	1.013	1.008
535.0	121.7	166.0	183.0	212.2	288.0	389.9	332.7	377.3	1100	5200	1869	231.8	202.6	182.8	162.4	142.9	127.4	116.7	109.2	101.3	90.28	86.61	86.69	87.64	90.09	92.42	90.83	90.16	87.94	85.47	82.24	78.25	69.29	63.53	57.68	52.94	45.41	40.82	35.32	32.19	29.91	26.74	24.61	22.60	22.16	22.11	23.55	20.32	15.60	13.64	12.06	11.02	10.10	9.596	9.178	7.762	7.176	7.059	7.851	23.92	95.51	263.8	703.9	1987	1217	26.41	2.283	1.462	1.368	1.353	1.119	1.012	1.054	0.929	0.839	0.912	0.865
540.0	108.9	135.2	154.7	178.3	224.1	345.3	304.5	285.0	435.5	3332	4058	273.8	176.1	161.0	138.2	123.7	108.8	102.5	95.07	86.00	76.64	73.92	74.39	75.26	76.34	79.22	76.42	76.75	76.40	74.91	71.57	65.65	60.51	54.96	49.90	45.63	40.07	35.42	31.74	28.29	26.65	24.09	22.46	20.56	19.54	18.46	19.88	20.89	16.37	13.13	11.10	10.19	9.556	8.727	8.023	7.967	6.667	5.981	5.499	8.734	24.27	61.57	164.1	823.2	2077	890.0	18.13	1.775	1.383	1.253	0.966	1.067	0.837	0.878	0.789	0.798	0.751
545.0	86.20	120.1	141.6	150.0	183.3	278.6	292.2	236.5	251.4	1354	5174	989.6	155.8	136.6	123.8	106.4	94.93	87.39	81.59	73.32	65.74	63.79	64.37	64.28	65.94	67.01	65.94	66.17	65.04	65.38	62.15	56.45	52.83	47.60	42.68	40.03	35.43	31.83	28.33	25.93	24.33	21.96	19.84	18.74	17.80	16.00	16.21	18.50	17.00	12.93	10.41	9.749	8.800	7.931	7.350	7.055	6.343	5.463	4.612	4.994	8.031	16.16	39.09	196.3	1034	1848	243.3	10.91	1.484	1.178	1.038	0.942	0.814	0.864	0.823	0.708	0.725
550.0	87.73	110.0	112.3	127.0	144.4	200.7	279.2	208.1	184.2	437.0	3051	2958	299.0	116.2	100.3	86.85	76.03	71.61	64.66	60.09	53.74	51.97	51.72	53.11	54.04	55.28	54.21	52.11	52.66	52.05	49.90	45.71	42.67	38.79	34.91	32.12	29.76	26.56	24.24	21.63	19.95	18.89	17.12	16.33	15.22	13.80	13.03	14.11	14.78	13.12	9.860	8.580	7.530	7.028	6.389	5.921	5.773	5.236	4.318	3.832	4.223	5.713	10.86	45.83	246.5	782.7	1211	647.5	18.44	1.844	1.119	0.905	0.800	0.825	0.800	0.649	0.650
555.0	79.63	90.65	105.9	105.8	114.1	140.9	220.1	210.0	141.2	190.6	905.1	4047	1312	102.0	79.91	68.38	60.10	56.19	51.72	46.88	42.26	41.61	40.67	40.94	42.92	42.62	42.10	41.07	40.77	40.71	39.83	37.44	33.42	30.38	28.20	26.18	23.37	20.94	18.98	17.96	16.58	15.44	14.87	13.30	12.69	11.66	10.86	10.76	11.13	11.91	10.23	7.532	6.479	5.768	5.382	4.755	4.648	4.646	4.182	3.343	3.083	3.096	4.227	11.88	56.50	176.2	377.5	1076	809.5	25.64	1.321	0.963	0.764	0.693	0.669	0.620	0.674
560.0	77.99	83.56	90.59	91.29	96.56	111.0	163.2	218.4	123.1	123.2	283.3	2564	3273	164.7	67.23	58.39	50.23	47.14	42.52	39.35	35.09	35.35	32.96	34.17	34.82	35.49	34.69	33.52	33.32	33.27	32.76	30.40	28.01	25.26	23.90	21.60	19.51	17.81	15.92	15.07	14.04	13.10	12.19	11.19	10.78	10.02	9.246	8.778	8.548	9.831	9.669	7.558	5.823	5.040	4.818	4.366	3.969	4.029	3.719	3.200	2.843	2.533	2.672	4.112	14.04	40.64	87.09	397.5	1088	266.2	18.79	1.175	0.835	0.631	0.737	0.583	0.542
565.0	69.40	69.43	83.59	79.54	79.28	86.78	116.6	200.2	124.9	94.53	133.2	981.1	4434	787.8	60.32	50.22	42.69	38.87	35.61	33.34	29.75	29.90	27.40	28.42	28.49	29.90	28.88	27.64	28.33	27.25	27.43	25.54	23.14	21.17	19.40	18.25	16.32	15.03	13.88	13.04	11.95	11.01	10.43	10.14	9.102	8.871	8.009	7.832	6.871	7.416	8.485	7.528	5.595	4.767	4.099	3.809	3.611	3.354	3.143	3.201	2.632	2.075	2.215	2.181	4.496	10.35	20.77	93.03	454.6	1045	241.1	11.25	1.054	0.683	0.604	0.598	0.522
570.0	61.50	74.54	74.22	63.87	65.57	73.74	83.77	144.0	149.5	82.80	88.67	289.1	2728	3843	116.2	40.85	34.37	32.53	28.71	26.77	24.09	23.51	21.74	23.06	23.08	23.68	22.74	22.47	22.47	21.76	21.87	20.58	18.87	17.49	15.92	14.40	13.42	12.20	11.30	10.54	9.536	9.189	8.572	8.207	7.667	7.340	6.689	6.465	6.141	5.605	6.371	6.603	5.668	4.351	3.607	3.308	3.023	2.687	2.611	2.518	2.554	2.182	1.697	1.594	2.129	3.328	5.641	21.84	105.7	413.5	698.3	470.2	18.05	1.246	0.716	0.590	0.531
575.0	58.76	69.82	67.90	54.53	55.30	60.50	62.40	87.11	151.4	93.13	72.90	111.8	781.5	5765	1017	38.81	28.30	25.85	23.24	20.50	19.00	18.19	17.58	17.60	18.10	18.65	17.67	17.23	17.80	17.39	16.89	15.91	14.74	13.42	12.25	11.46	10.74	9.708	9.043	8.377	7.762	7.488	7.160	6.617	6.070	5.854	5.368	5.445	4.934	4.584	4.585	4.742	5.252	4.141	3.376	2.819	2.568	2.424	2.171	2.270	2.082	2.189	1.735	1.439	1.347	1.650	2.149	5.734	24.30	93.01	196.3	621.1	587.5	26.10	1.146	0.608	0.585
580.0	69.34	63.26	57.96	53.10	48.84	50.34	53.41	60.78	124.6	112.2	63.48	70.28	222.1	3878	3621	89.84	25.31	23.09	20.30	17.38	15.99	14.22	14.25	14.39	14.93	15.25	14.99	14.71	14.41	14.36	13.80	13.43	12.03	10.79	10.17	9.486	9.143	8.750	7.519	7.224	6.639	6.334	6.036	5.686	5.065	4.999	4.716	4.363	4.035	3.889	3.691	3.673	4.507	3.944	3.401	2.796	2.267	2.061	1.914	1.672	1.678	1.816	1.864	1.301	1.172	1.221	1.404	2.073	6.308	21.51	45.08	211.4	743.7	260.9	19.24	0.847	0.597
585.0	52.57	53.35	54.27	47.96	43.83	45.44	45.80	50.46	90.29	132.1	64.79	57.63	88.52	1418	5130	540.5	24.07	21.40	17.18	14.99	13.40	12.34	12.63	12.51	12.36	12.92	12.48	12.46	12.23	12.30	11.62	11.23	10.37	9.570	9.056	7.782	7.390	7.446	6.658	5.997	5.590	5.457	5.388	4.977	4.575	4.391	4.098	3.822	3.434	3.492	3.179	2.955	3.340	3.712	3.412	2.636	1.992	1.825	1.793	1.491	1.487	1.679	1.767	1.501	1.224	1.050	1.088	1.254	2.163	5.419	10.75	49.10	303.2	590.0	226.8	9.535	0.735
590.0	51.15	54.14	53.45	40.15	36.96	35.82	42.34	45.44	55.50	119.7	85.09	53.29	54.51	364.9	3111	2753	65.50	19.89	14.62	12.09	10.85	10.41	10.24	10.19	10.65	10.58	10.13	10.13	9.513	9.757	9.413	8.955	8.438	7.931	7.286	6.517	6.410	5.943	5.378	5.094	4.575	4.398	4.371	4.130	3.736	3.649	3.443	3.222	2.964	2.856	2.505	2.442	2.542	2.777	3.058	2.637	1.733	1.533	1.404	1.282	1.273	1.215	1.296	1.460	1.300	0.852	0.962	0.950	1.119	1.808	3.015	11.61	70.26	220.6	467.4	290.3	17.40
595.0	43.61	48.69	54.15	38.64	34.69	29.43	34.63	38.59	41.50	78.63	108.4	53.79	46.16	109.5	835.0	3795	682.9	20.78	12.17	9.487	8.832	8.753	8.517	7.933	8.292	8.483	8.015	7.676	7.808	7.554	7.622	7.655	6.652	5.989	5.634	5.285	5.166	4.804	4.145	4.141	3.750	3.533	3.322	3.157	3.183	2.911	2.902	2.602	2.360	2.289	2.003	2.023	1.847	1.874	2.345	2.486	1.986	1.459	1.249	1.154	0.994	1.033	0.857	1.091	1.200	1.065	0.849	0.765	0.832	0.965	1.185	3.076	16.17	49.71	128.0	358.1	277.2
600.0	42.49	53.25	48.51	39.43	30.44	31.11	32.59	34.00	38.13	55.09	117.4	60.84	41.79	52.05	212.3	2426	2368	62.04	10.76	8.824	7.480	7.289	7.364	6.790	7.125	6.886	6.706	6.624	7.015	6.175	6.263	5.800	5.396	5.108	4.753	4.502	4.275	4.025	3.584	3.607	3.551	2.933	2.911	2.789	2.650	2.558	2.446	2.259	2.095	2.029	1.700	1.674	1.596	1.449	1.743	2.134	2.011	1.561	1.207	1.078	1.002	0.818	0.916	0.904	0.948	1.051	0.835	0.692	0.738	0.643	0.715	1.180	3.981	11.53	29.18	121.8	442.7
605.0	42.82	53.71	41.74	35.63	25.35	26.32	30.61	32.16	37.39	46.07	98.02	78.37	44.76	40.15	68.89	920.0	3601	439.8	10.48	8.258	6.964	6.631	6.073	5.940	5.862	5.797	5.823	5.562	5.365	5.156	5.324	5.317	4.598	4.321	4.259	3.785	3.804	3.307	3.280	2.958	2.848	2.872	2.409	2.427	2.235	2.136	2.100	1.894	1.936	1.830	1.538	1.470	1.317	1.276	1.362	1.643	1.938	1.638	1.185	0.963	0.960	0.841	0.866	0.829	0.811	1.145	1.020	0.799	0.641	0.555	0.651	0.693	1.316	2.913	6.891	28.40	180.1
610.0	40.05	51.50	43.89	34.37	26.52	28.29	30.87	31.47	37.67	47.57	75.10	102.5	53.76	39.83	39.18	245.5	2408	2347	41.78	7.209	5.919	5.408	5.147	4.730	5.021	4.847	4.768	4.801	4.377	4.388	4.632	4.403	3.862	3.717	3.397	3.227	3.009	2.664	2.563	2.459	2.355	2.182	2.060	1.892	1.834	1.887	1.745	1.664	1.619	1.437	1.347	1.179	1.081	1.105	1.088	1.225	1.533	1.590	1.197	0.955	0.797	0.764	0.772	0.751	0.780	0.848	0.936	0.882	0.663	0.540	0.557	0.578	0.685	0.978	1.899	6.680	41.67
615.0	40.74	48.46	46.28	31.73	25.26	26.42	28.87	34.38	38.91	45.65	56.52	98.19	74.64	42.50	33.72	74.95	693.8	3461	372.7	7.314	5.240	4.479	4.493	4.328	4.058	4.071	3.855	3.595	3.582	3.975	3.703	3.364	3.270	2.844	2.800	2.430	2.341	2.261	2.064	2.023	1.779	1.660	1.720	1.533	1.655	1.527	1.325	1.457	1.296	1.118	1.061	0.972	1.033	0.911	0.939	0.885	1.088	1.289	1.172	1.024	0.774	0.642	0.699	0.601	0.632	0.657	0.677	0.859	0.686	0.631	0.506	0.512	0.493	0.542	0.688	1.845	9.762
620.0	42.75	43.43	43.50	32.18	24.44	24.17	27.01	31.88	37.01	43.20	51.69	79.23	87.88	43.65	32.14	34.89	180.2	2398	1067	17.70	5.085	3.994	3.725	3.763	3.733	3.395	3.423	3.285	3.301	3.260	3.088	2.694	2.646	2.507	2.367	2.127	2.031	1.997	1.917	1.619	1.386	1.553	1.549	1.259	1.280	1.260	1.153	1.112	0.965	1.152	0.866	0.877	0.884	0.815	0.748	0.761	0.812	0.948	1.087	1.022	0.784	0.679	0.619	0.562	0.578	0.485	0.560	0.796	0.680	0.756	0.533	0.510	0.414	0.383	0.391	0.700	2.525
625.0	39.47	47.11	40.07	33.96	24.11	22.50	26.92	31.22	34.91	40.27	50.08	65.61	91.69	49.24	31.14	27.54	58.41	964.0	1711	71.93	5.091	4.060	3.202	3.279	3.442	2.916	2.796	2.819	2.562	2.840	2.615	2.435	2.555	2.346	2.170	1.690	1.526	1.626	1.606	1.438	1.345	1.362	1.250	1.113	1.059	1.125	0.948	1.033	0.892	0.939	0.815	0.784	0.721	0.620	0.623	0.742	0.655	0.745	0.980	0.917	0.674	0.706	0.573	0.516	0.578	0.498	0.552	0.546	0.556	0.828	0.554	0.460	0.377	0.389	0.348	0.395	0.792
630.0	41.41	45.38	40.17	32.28	27.24	24.01	26.87	28.88	34.40	40.41	50.14	59.66	83.95	65.10	36.11	28.16	32.88	252.6	1258	679.9	17.62	3.847	3.097	2.955	2.925	2.384	2.553	2.358	2.329	2.299	2.290	2.109	1.884	1.867	1.811	1.462	1.357	1.384	1.262	1.233	1.159	1.098	1.069	0.925	0.996	0.976	0.880	0.880	0.840	0.707	0.743	0.639	0.674	0.547	0.580	0.635	0.628	0.592	0.701	0.817	0.729	0.668	0.542	0.504	0.469	0.444	0.497	0.486	0.494	0.614	0.617	0.514	0.429	0.355	0.407	0.394	0.471
635.0	40.40	45.22	41.95	39.64	32.59	32.17	30.40	31.84	36.36	42.84	53.02	59.53	70.56	87.10	50.13	37.65	37.04	80.44	388.2	1212	75.20	4.322	2.978	2.628	2.602	2.174	2.001	2.035	2.319	1.747	1.941	1.772	1.732	1.550	1.271	1.251	1.106	1.138	1.216	0.963	0.969	0.950	0.920	0.798	0.923	0.730	0.757	0.729	0.675	0.641	0.609	0.590	0.639	0.492	0.582	0.562	0.541	0.475	0.576	0.603	0.725	0.674	0.572	0.426	0.493	0.401	0.497	0.493	0.488	0.441	0.558	0.650	0.473	0.471	0.364	0.428	0.486
640.0	48.40	49.86	47.03	38.60	37.87	39.67	33.13	31.02	37.68	47.15	55.81	63.59	70.07	95.46	67.69	52.18	48.74	51.53	115.0	969.0	502.5	8.820	2.892	2.342	2.393	2.073	2.098	1.849	1.744	1.547	1.595	1.571	1.436	1.277	1.274	1.221	1.148	0.807	0.883	0.756	0.811	0.849	0.809	0.734	0.736	0.764	0.718	0.644	0.592	0.602	0.557	0.512	0.592	0.496	0.568	0.481	0.576	0.522	0.500	0.521	0.561	0.718	0.571	0.463	0.506	0.426	0.542	0.479	0.409	0.441	0.470	0.610	0.650	0.534	0.506	0.427	0.520
645.0	53.79	59.36	56.50	51.35	45.57	44.73	37.19	37.55	41.63	52.22	63.34	70.09	74.05	93.78	87.96	60.72	59.43	51.22	53.81	452.7	988.6	44.95	3.081	2.296	2.327	1.925	1.738	1.513	1.523	1.520	1.429	1.307	1.368	1.186	1.122	1.072	0.920	0.834	0.811	0.611	0.671	0.806	0.766	0.589	0.638	0.651	0.636	0.654	0.586	0.617	0.550	0.481	0.621	0.512	0.534	0.480	0.499	0.486	0.476	0.506	0.466	0.586	0.613	0.524	0.587	0.500	0.483	0.461	0.458	0.491	0.529	0.550	0.697	0.555	0.506	0.448	0.495
650.0	54.19	73.70	75.52	55.26	54.49	44.63	41.48	36.50	43.54	52.23	62.35	71.66	76.76	88.71	98.38	69.94	66.66	54.05	43.35	153.3	1049	248.4	3.582	2.316	2.193	1.828	1.547	1.422	1.436	1.525	1.278	1.202	1.066	1.087	0.872	0.906	0.798	0.688	0.772	0.702	0.759	0.673	0.710	0.525	0.604	0.623	0.566	0.737	0.551	0.517	0.508	0.512	0.553	0.557	0.470	0.406	0.435	0.436	0.516	0.405	0.402	0.479	0.649	0.489	0.612	0.484	0.483	0.474	0.480	0.507	0.511	0.512	0.661	0.626	0.525	0.492	0.542
