Sample:	'1
File name:	G2025062417新立河入潮河.FD3
Run date:	'09:58:22, 06/27/2025
Operator:	Administrator
Comment:	'

Instrument
Model:	F-2700 FL Spectrophotometer
Serial number:	23B8-004
ROM Version:	4J14000 07

Instrument parameters
Measurement type:	3-D scan
Data mode:	Fluorescence
EX  Start WL:	220.0 nm
EX  End WL:	600.0 nm
EX Sampling interval:	5.0 nm
EM  Start WL:	230.0 nm
EM  End WL:	650.0 nm
EM Sampling interval:	5.0 nm
Scan speed:	12000 nm/min
EX Slit:	5.0 nm
EM Slit:	5.0 nm
PMT Voltage:	700 V
Response:	Auto 
Corrected spectra:	Off
Contour interval:	50.000

Peak integration
Integration method:	Rectangular
Sensitivity:	1
Threshold:	1.000

Peaks
No.	ApexEX/EM(nm)	Height(Data)
1	225.0/340.0	1124
2	225.0/405.0	802.9
3	225.0/595.0	55.57
4	225.0/615.0	49.46
5	230.0/410.0	779.8
6	230.0/500.0	376.3
7	235.0/510.0	295.3
8	240.0/265.0	417.7
9	240.0/525.0	250.0
10	245.0/270.0	440.5
11	245.0/540.0	210.1
12	250.0/275.0	560.1
13	250.0/550.0	174.1
14	255.0/280.0	587.8
15	255.0/560.0	143.1
16	260.0/290.0	528.4
17	260.0/575.0	114.4
18	265.0/295.0	673.0
19	265.0/585.0	96.27
20	270.0/300.0	922.9
21	270.0/600.0	93.44
22	275.0/305.0	951.6
23	275.0/335.0	687.4
24	275.0/375.0	610.1
25	275.0/610.0	75.38
26	280.0/315.0	870.6
27	280.0/625.0	66.09
28	285.0/320.0	898.7
29	285.0/640.0	48.48
30	290.0/325.0	763.5
31	305.0/345.0	441.6
32	310.0/350.0	365.8
33	315.0/355.0	363.6
34	320.0/365.0	356.8
35	325.0/370.0	333.1
36	330.0/375.0	330.7
37	335.0/380.0	322.9
38	340.0/390.0	299.2
39	345.0/395.0	286.5
40	350.0/400.0	284.6
41	355.0/410.0	263.2
42	360.0/415.0	248.4
43	365.0/420.0	238.3
44	455.0/540.0	12.60
45	460.0/335.0	3.194
46	495.0/270.0	2.280
47	505.0/275.0	3.261
48	510.0/280.0	3.543
49	515.0/285.0	3.578
50	530.0/290.0	3.339
51	540.0/295.0	4.420
52	545.0/300.0	5.396
53	550.0/305.0	5.368
54	560.0/310.0	4.970
55	570.0/315.0	5.180
56	580.0/320.0	4.926
57	585.0/325.0	4.606

Data points
	220.0	225.0	230.0	235.0	240.0	245.0	250.0	255.0	260.0	265.0	270.0	275.0	280.0	285.0	290.0	295.0	300.0	305.0	310.0	315.0	320.0	325.0	330.0	335.0	340.0	345.0	350.0	355.0	360.0	365.0	370.0	375.0	380.0	385.0	390.0	395.0	400.0	405.0	410.0	415.0	420.0	425.0	430.0	435.0	440.0	445.0	450.0	455.0	460.0	465.0	470.0	475.0	480.0	485.0	490.0	495.0	500.0	505.0	510.0	515.0	520.0	525.0	530.0	535.0	540.0	545.0	550.0	555.0	560.0	565.0	570.0	575.0	580.0	585.0	590.0	595.0	600.0
230.0	74.94	1287	3424	1155	45.55	6.260	4.343	4.079	3.180	3.308	2.985	2.673	2.335	2.030	1.733	1.397	1.267	1.126	1.039	0.934	0.851	0.812	0.771	0.668	0.653	0.586	0.454	0.558	0.473	0.524	0.504	0.438	0.394	0.406	0.380	0.317	0.346	0.316	0.338	0.299	0.430	0.675	0.699	0.477	0.346	0.300	1.316	6.746	11.78	8.604	3.428	0.698	0.244	0.224	0.193	0.209	0.201	0.195	0.217	0.202	0.190	0.219	0.196	0.203	0.190	0.201	0.222	0.178	0.189	0.199	0.172	0.183	0.175	0.201	0.203	0.183	0.205
235.0	196.7	360.6	1888	3220	609.7	63.55	6.919	6.027	4.200	3.728	3.187	2.898	2.839	2.109	1.577	1.470	1.370	1.300	1.103	0.942	0.828	0.743	0.760	0.618	0.594	0.574	0.554	0.455	0.460	0.465	0.421	0.416	0.359	0.458	0.343	0.354	0.310	0.373	0.400	0.256	0.290	0.447	0.442	0.842	0.685	0.435	0.603	1.823	4.269	7.408	10.49	11.59	5.186	1.320	0.320	0.248	0.201	0.243	0.211	0.184	0.187	0.200	0.184	0.182	0.215	0.209	0.231	0.186	0.193	0.183	0.206	0.196	0.203	0.211	0.171	0.182	0.199
240.0	247.7	212.1	549.5	2494	3371	473.0	30.52	6.584	5.262	4.554	3.609	2.700	2.809	2.035	1.749	1.470	1.434	1.357	1.210	1.042	0.935	0.820	0.800	0.702	0.645	0.557	0.566	0.618	0.456	0.505	0.468	0.436	0.427	0.449	0.373	0.314	0.336	0.357	0.358	0.353	0.257	0.292	0.354	0.504	0.852	0.824	0.649	0.650	1.229	2.139	5.170	13.39	16.19	12.44	4.314	0.774	0.243	0.221	0.192	0.225	0.207	0.213	0.175	0.185	0.210	0.195	0.256	0.194	0.191	0.175	0.211	0.213	0.204	0.249	0.170	0.170	0.225
245.0	181.7	297.3	198.9	820.7	3414	3315	341.8	14.26	6.700	5.186	3.358	3.657	3.324	2.320	1.987	1.723	1.499	1.107	1.228	0.946	0.863	0.996	0.951	0.723	0.629	0.644	0.451	0.609	0.561	0.616	0.479	0.513	0.497	0.409	0.348	0.371	0.378	0.344	0.325	0.474	0.300	0.303	0.307	0.374	0.536	0.882	0.892	0.913	0.599	0.673	1.388	4.446	10.64	19.64	18.65	10.63	2.991	0.364	0.246	0.223	0.208	0.235	0.234	0.219	0.236	0.193	0.195	0.200	0.210	0.192	0.227	0.200	0.168	0.294	0.232	0.212	0.243
250.0	65.34	195.8	295.0	291.7	1077	3195	3951	1239	72.36	6.825	4.790	4.628	3.981	2.808	2.207	1.810	1.613	1.437	1.143	1.122	0.863	1.058	0.751	0.829	0.656	0.687	0.640	0.691	0.532	0.590	0.479	0.502	0.517	0.409	0.390	0.346	0.397	0.331	0.295	0.362	0.320	0.321	0.346	0.296	0.337	0.466	0.595	0.971	1.104	0.933	0.742	1.255	2.706	5.995	11.04	17.26	22.72	19.19	11.03	3.071	0.483	0.268	0.253	0.205	0.241	0.205	0.190	0.187	0.228	0.173	0.212	0.212	0.244	0.258	0.196	0.189	0.215
255.0	42.64	65.15	199.2	362.9	341.6	819.9	3178	6328	1683	64.50	8.385	6.071	4.682	3.227	2.828	2.135	1.984	1.669	1.367	1.225	1.040	1.126	0.795	0.794	0.799	0.651	0.717	0.794	0.608	0.619	0.512	0.528	0.521	0.502	0.425	0.383	0.365	0.344	0.319	0.305	0.358	0.370	0.396	0.384	0.329	0.367	0.340	0.525	0.624	0.927	1.364	1.473	1.067	1.594	2.733	4.302	8.209	19.26	35.37	29.09	17.02	3.291	0.385	0.250	0.258	0.254	0.250	0.242	0.240	0.202	0.207	0.185	0.238	0.250	0.240	0.217	0.209
260.0	36.65	31.94	81.37	307.2	342.8	254.6	998.9	5364	6942	269.9	29.97	8.048	5.943	3.911	3.462	2.698	2.045	1.879	1.601	1.271	1.108	1.113	0.952	0.867	0.935	0.667	0.686	0.640	0.614	0.588	0.469	0.518	0.480	0.453	0.378	0.373	0.409	0.402	0.343	0.391	0.372	0.360	0.350	0.364	0.298	0.299	0.358	0.320	0.379	0.478	0.916	1.726	1.758	1.182	0.987	1.322	2.243	5.317	15.71	31.77	45.97	27.55	12.32	1.693	0.295	0.255	0.253	0.239	0.262	0.241	0.244	0.228	0.245	0.217	0.206	0.225	0.239
265.0	34.58	28.28	37.56	146.3	417.7	273.9	284.7	1870	7664	6633	216.2	15.90	7.853	5.154	3.984	2.903	2.322	2.265	1.730	1.493	1.157	1.154	1.023	1.067	0.895	0.770	0.644	0.749	0.668	0.606	0.478	0.553	0.488	0.493	0.478	0.478	0.461	0.360	0.408	0.519	0.413	0.333	0.374	0.373	0.311	0.334	0.307	0.298	0.316	0.299	0.429	0.976	1.881	2.045	1.510	0.869	0.955	1.592	3.977	9.460	24.54	47.21	54.49	24.45	7.519	0.610	0.285	0.268	0.231	0.263	0.239	0.250	0.250	0.228	0.264	0.237	0.226
270.0	43.62	37.43	32.40	61.90	226.6	440.5	322.6	495.9	2541	7230	8282	822.3	47.23	8.404	5.133	3.726	2.874	2.341	1.940	1.667	1.468	1.376	1.036	1.186	1.006	0.916	0.843	0.753	0.738	0.730	0.656	0.578	0.543	0.560	0.495	0.566	0.436	0.439	0.489	0.447	0.467	0.372	0.428	0.368	0.413	0.367	0.308	0.311	0.295	0.277	0.338	0.525	0.772	1.324	1.954	2.280	2.004	1.223	1.461	2.530	6.013	13.67	27.10	40.36	39.87	44.11	16.14	6.471	0.806	0.329	0.305	0.264	0.313	0.282	0.270	0.245	0.285
275.0	80.37	66.47	48.39	51.84	104.8	256.5	560.1	360.2	618.6	1842	6880	9999.9	1110	37.31	8.322	5.254	4.233	3.250	2.361	1.877	1.528	1.698	1.466	1.290	1.179	1.044	0.937	0.875	0.984	0.726	0.691	0.717	0.556	0.637	0.545	0.680	0.585	0.531	0.511	0.578	0.461	0.407	0.522	0.442	0.422	0.424	0.399	0.466	0.422	0.329	0.352	0.414	0.487	0.671	0.951	1.511	2.536	3.261	2.297	1.280	1.729	3.415	6.466	9.646	12.98	34.15	65.14	72.09	25.32	6.542	0.492	0.309	0.365	0.369	0.277	0.305	0.302
280.0	134.6	109.8	73.03	58.63	80.92	145.6	400.7	587.8	275.7	468.2	2086	9999.9	9510	149.7	18.10	7.451	5.678	3.540	2.445	2.258	1.725	1.939	1.516	1.439	1.373	0.968	1.160	0.919	0.999	0.900	0.772	0.655	0.679	0.664	0.640	0.669	0.806	0.716	0.676	0.602	0.556	0.532	0.481	0.492	0.530	0.642	0.415	0.529	0.467	0.366	0.387	0.471	0.490	0.531	0.672	0.834	1.331	2.426	3.543	2.739	1.369	1.374	1.867	2.624	3.440	8.935	24.01	54.42	78.92	34.04	19.53	3.117	0.466	0.364	0.306	0.278	0.278
285.0	183.6	161.7	118.1	77.34	80.89	106.1	202.2	553.9	353.9	198.8	548.6	3334	9999.9	7264	112.3	11.79	6.924	5.289	3.567	3.007	2.139	2.054	1.811	1.593	1.326	1.275	1.040	1.016	0.968	0.829	0.657	0.715	0.710	0.684	0.812	0.783	0.839	0.751	0.676	0.700	0.606	0.679	0.589	0.541	0.636	0.731	0.559	0.638	0.596	0.476	0.358	0.554	0.471	0.561	0.578	0.599	0.815	1.133	2.018	3.578	3.345	1.908	1.179	1.192	1.278	2.615	5.934	14.39	33.87	61.36	84.78	31.12	12.99	1.142	0.363	0.387	0.319
290.0	292.7	270.8	199.4	114.7	92.70	101.0	127.4	256.7	528.4	461.7	277.3	883.3	3366	9199	8412	441.5	25.60	6.853	4.912	3.765	2.802	2.245	1.937	1.615	1.450	1.277	1.165	1.073	1.037	0.864	0.841	0.776	0.743	0.863	0.857	1.064	1.068	1.014	0.850	0.787	0.750	0.855	0.755	0.774	0.827	0.937	0.804	0.886	0.783	0.609	0.515	0.596	0.523	0.587	0.566	0.615	0.658	0.722	0.978	1.625	2.447	3.159	3.339	2.378	1.433	1.378	2.002	3.994	8.356	16.48	33.69	46.64	61.37	52.75	20.17	9.862	1.412
295.0	392.6	364.2	281.1	159.8	107.0	109.5	118.2	153.7	277.2	673.0	626.3	386.5	909.5	2327	6957	9999.9	624.2	20.42	7.523	4.867	3.573	2.967	2.456	1.793	1.699	1.523	1.223	1.140	1.177	0.897	0.976	0.831	0.999	1.001	0.919	1.178	1.235	1.177	1.075	0.990	1.071	0.903	1.026	0.893	1.025	1.189	1.087	1.101	1.022	0.774	0.680	0.694	0.600	0.635	0.569	0.694	0.668	0.816	0.841	1.061	1.259	1.508	2.307	4.092	4.420	2.968	1.627	1.964	2.975	4.696	8.493	11.31	16.22	28.78	58.98	81.58	32.11
300.0	458.9	449.6	343.9	199.2	135.1	122.1	131.3	162.9	226.2	465.1	922.9	540.8	434.3	675.1	2016	9242	5845	86.94	12.45	6.231	4.285	3.264	3.076	2.114	1.966	1.655	1.416	1.202	1.337	1.002	1.061	1.004	0.967	0.993	1.038	1.362	1.441	1.362	1.178	1.135	1.198	1.044	0.964	0.982	1.165	1.317	1.174	1.257	1.163	0.786	0.779	0.879	0.674	0.699	0.806	0.803	0.853	0.857	0.940	0.972	1.018	1.261	1.546	2.412	3.872	5.396	3.824	2.131	2.161	2.272	3.133	3.517	4.511	7.401	18.03	46.36	74.29
305.0	519.6	532.4	412.4	239.7	161.6	156.0	166.6	205.0	258.0	386.4	789.6	951.6	470.1	374.7	594.2	2985	9999.9	4662	67.76	8.661	5.354	4.080	3.379	2.353	2.271	1.895	1.489	1.283	1.274	1.175	0.998	0.955	0.963	1.018	1.030	1.342	1.402	1.451	1.176	1.195	1.163	1.092	1.058	1.104	1.256	1.374	1.311	1.415	1.208	0.952	0.991	0.970	0.820	0.807	0.854	0.900	0.881	1.049	1.168	1.202	1.347	1.342	1.468	1.842	2.461	4.129	5.368	4.883	3.035	2.123	2.198	2.040	2.221	2.505	4.893	11.97	26.75
310.0	585.6	579.8	475.8	297.6	190.3	184.5	204.3	249.5	308.3	403.5	586.7	912.4	866.6	446.4	328.0	787.2	3175	7268	6438	301.6	17.88	5.525	4.283	3.092	2.720	2.082	1.682	1.491	1.336	1.153	1.050	1.092	1.033	1.176	1.069	1.433	1.404	1.470	1.313	1.334	1.347	1.260	1.248	1.310	1.419	1.440	1.584	1.659	1.460	1.250	1.079	1.139	0.856	0.942	0.871	0.960	1.083	1.131	1.295	1.324	1.527	1.561	1.817	2.054	2.269	2.930	3.463	4.216	4.970	4.412	3.484	2.383	1.939	1.758	2.097	3.525	6.879
315.0	640.7	685.0	539.1	341.9	229.0	208.4	232.1	281.0	351.7	447.9	553.2	681.4	870.6	808.3	350.6	316.5	804.2	1804	5766	8362	451.6	14.51	5.779	4.341	3.399	2.478	2.085	1.650	1.623	1.414	1.209	1.092	1.103	1.181	1.276	1.504	1.570	1.529	1.278	1.423	1.388	1.379	1.443	1.430	1.606	1.638	1.768	2.042	1.578	1.394	1.154	1.220	1.031	1.040	1.014	1.152	1.163	1.352	1.450	1.555	1.583	1.694	1.890	2.288	2.428	2.666	2.827	3.072	3.630	4.367	5.180	4.808	3.061	1.997	1.666	1.840	2.437
320.0	746.2	781.9	627.3	383.6	251.2	230.6	255.3	310.1	382.6	473.0	568.9	651.0	718.4	898.7	562.8	247.6	290.1	470.3	1645	7636	4229	64.75	9.369	5.303	4.081	2.774	2.181	1.888	1.631	1.463	1.282	1.095	1.102	1.192	1.259	1.410	1.541	1.600	1.459	1.643	1.396	1.419	1.441	1.546	1.762	1.756	2.073	2.002	1.867	1.429	1.281	1.333	1.158	1.137	1.032	1.285	1.210	1.333	1.323	1.718	1.619	1.841	1.970	2.316	2.612	2.513	2.701	2.905	3.204	3.367	3.792	4.579	4.926	3.542	2.076	1.580	1.533
325.0	852.2	910.8	774.9	441.3	289.7	242.6	278.5	330.2	394.7	493.2	593.1	655.4	654.1	714.3	763.5	334.0	193.5	182.6	415.7	2482	7789	3544	52.69	7.310	4.732	3.496	2.471	2.389	1.739	1.761	1.610	1.166	1.189	1.078	1.319	1.385	1.491	1.595	1.425	1.418	1.432	1.482	1.630	1.705	1.893	2.095	2.215	2.410	2.306	1.807	1.420	1.474	1.247	1.178	1.132	1.367	1.403	1.448	1.512	1.616	1.754	1.963	2.017	2.203	2.815	2.650	2.844	2.906	3.247	3.078	3.420	3.258	4.268	4.606	3.792	2.041	1.610
330.0	915.6	996.0	890.9	563.6	353.8	276.0	297.8	347.2	414.5	512.4	609.8	675.0	661.1	609.2	622.0	544.9	282.1	140.8	155.3	603.0	2508	5720	5112	242.9	15.19	4.597	3.482	2.734	2.091	1.918	1.640	1.294	1.249	1.176	1.258	1.450	1.498	1.483	1.543	1.480	1.526	1.608	1.650	1.833	1.959	2.402	2.286	2.756	2.636	2.089	1.760	1.746	1.495	1.374	1.295	1.345	1.389	1.555	1.563	1.706	1.822	1.962	2.227	2.349	2.741	2.704	2.955	3.036	3.037	3.102	3.122	2.901	3.046	3.361	3.874	3.391	3.003
335.0	933.9	1095	1004	661.1	430.4	329.7	328.0	364.3	439.8	527.6	621.1	687.4	674.2	598.6	507.3	468.7	492.2	218.1	121.7	194.6	602.7	1418	4739	6885	386.6	12.93	4.928	3.582	2.519	2.115	1.662	1.495	1.480	1.492	1.463	1.348	1.353	1.542	1.572	1.521	1.401	1.588	1.640	1.866	2.058	2.368	2.620	3.084	3.194	2.316	1.948	2.077	1.748	1.596	1.473	1.331	1.529	1.563	1.638	1.813	2.050	2.295	2.215	2.487	2.730	2.888	3.028	3.044	3.094	3.423	3.225	3.132	2.855	2.928	2.807	2.687	2.969
340.0	946.9	1124	1047	712.7	474.0	357.2	355.5	380.2	445.0	532.9	626.4	676.4	674.9	600.4	493.9	388.4	473.6	374.1	148.1	119.6	189.4	356.8	1368	6348	3514	56.10	8.196	4.434	3.318	2.648	2.083	1.572	1.552	1.461	1.372	1.426	1.444	1.546	1.444	1.531	1.424	1.513	1.764	1.896	2.112	2.456	2.639	3.038	3.075	2.445	2.080	2.242	1.925	1.711	1.487	1.509	1.765	1.534	1.603	1.857	2.176	2.128	2.356	2.546	2.652	2.953	2.923	3.047	3.296	3.302	3.315	2.804	2.935	2.725	2.492	2.413	2.249
345.0	932.7	1117	995.7	749.0	504.1	395.7	379.5	408.0	457.2	530.7	616.9	661.9	663.1	594.0	487.8	370.4	363.3	441.6	255.9	124.1	107.5	131.7	346.5	2062	6429	3106	47.70	6.120	3.913	3.152	2.208	1.875	1.622	1.539	1.335	1.337	1.482	1.549	1.474	1.516	1.484	1.445	1.677	1.881	2.093	2.267	2.594	3.006	3.019	2.472	2.062	2.312	2.030	1.777	1.752	1.590	1.709	1.763	1.854	1.919	1.980	2.184	2.320	2.660	2.739	2.769	2.996	3.040	2.960	3.436	3.196	2.670	2.880	2.670	2.385	2.343	2.296
350.0	901.5	1040	979.6	767.2	551.2	445.6	411.5	428.8	464.7	527.5	599.3	641.6	638.4	579.9	490.9	383.4	326.7	341.1	365.8	233.7	126.3	104.0	133.5	503.6	2060	4642	4250	905.0	15.17	4.080	2.905	2.141	1.633	1.588	1.340	1.459	1.555	1.523	1.518	1.451	1.533	1.524	1.633	1.881	2.004	2.316	2.451	2.841	2.802	2.460	2.064	2.433	2.084	1.967	1.904	1.823	1.852	1.818	1.980	1.979	1.995	2.130	2.203	2.529	2.613	2.717	2.906	2.980	2.938	3.150	3.087	2.756	2.783	2.721	2.538	2.171	2.275
355.0	896.7	995.9	939.5	758.6	604.0	499.8	464.2	466.4	493.8	541.0	587.8	622.2	620.9	568.3	496.2	398.9	340.6	301.8	308.3	363.6	223.4	129.5	111.0	168.7	500.5	1139	3626	5758	369.3	15.41	4.182	2.782	1.946	1.912	1.578	1.471	1.549	1.491	1.451	1.462	1.546	1.439	1.729	1.691	1.975	2.207	2.209	2.575	2.533	2.340	2.093	2.364	2.258	2.037	2.076	1.986	2.011	1.996	2.167	2.171	2.111	2.169	2.526	2.576	2.688	2.688	2.908	2.623	2.850	2.905	2.929	2.938	2.836	2.718	2.455	2.280	2.131
360.0	782.0	964.9	912.3	763.0	627.1	532.5	498.7	498.7	509.2	544.3	595.3	613.9	604.4	560.6	497.9	416.4	362.1	313.0	282.1	336.5	337.5	181.4	123.1	112.6	163.8	293.1	1017	4834	3277	307.8	7.897	3.569	2.606	2.073	1.726	1.573	1.510	1.489	1.537	1.522	1.289	1.504	1.522	1.600	1.944	2.080	2.046	2.494	2.495	2.156	2.206	2.426	2.314	2.228	2.294	2.033	2.217	2.043	2.023	2.173	2.142	2.286	2.490	2.531	2.630	2.613	2.753	2.730	2.671	2.908	2.754	2.945	3.035	2.803	2.677	2.286	2.382
365.0	787.7	898.5	888.2	770.6	641.7	578.6	528.5	521.9	540.8	567.9	594.7	608.7	603.4	559.2	498.9	429.8	376.2	329.1	294.1	292.2	356.8	280.5	156.2	115.9	105.2	114.9	265.0	1500	5197	3067	47.28	5.320	3.211	2.524	1.854	1.766	1.629	1.532	1.451	1.453	1.459	1.618	1.579	1.691	1.907	1.985	2.002	2.463	2.385	2.277	2.104	2.683	2.342	2.381	2.330	2.149	2.485	2.354	2.148	2.399	2.476	2.497	2.514	2.816	2.744	2.545	2.808	2.545	2.693	3.035	2.925	2.744	2.800	2.712	2.579	2.382	2.416
370.0	794.6	870.2	835.1	765.7	675.3	614.2	571.5	567.9	559.0	586.0	594.8	608.3	592.4	556.7	508.9	441.7	399.8	360.9	323.1	296.4	302.4	333.1	261.2	158.0	118.1	96.05	111.2	373.2	1589	3985	3980	961.8	15.17	3.450	2.480	2.100	1.900	1.577	1.570	1.408	1.445	1.586	1.537	1.691	1.747	1.980	1.937	2.404	2.302	2.109	2.220	2.649	2.464	2.446	2.382	2.323	2.429	2.615	2.429	2.474	2.517	2.646	2.698	2.698	2.741	2.652	2.788	2.697	2.923	2.858	2.726	2.942	2.755	2.657	2.647	2.578	2.552
375.0	784.9	836.5	823.5	774.7	698.4	646.1	605.8	599.2	592.4	597.1	606.7	610.1	585.8	554.6	509.9	450.3	419.7	384.6	350.2	319.9	295.1	292.5	330.7	254.3	152.9	115.1	97.43	133.0	391.2	964.7	3033	5278	340.5	16.52	3.244	2.661	2.164	1.948	1.726	1.598	1.468	1.426	1.614	1.709	1.861	2.043	1.886	2.201	2.343	2.118	2.275	2.544	2.410	2.657	2.634	2.570	2.697	2.719	2.491	2.584	2.565	2.755	2.781	2.668	2.688	2.422	2.777	2.620	3.094	2.849	2.661	2.926	2.893	2.668	2.523	2.727	2.534
380.0	732.8	834.3	826.0	760.1	707.8	680.4	639.4	619.6	604.9	615.1	607.0	601.4	576.7	546.0	511.0	453.8	432.7	400.9	369.8	339.8	311.4	284.9	306.9	322.9	206.1	136.4	108.4	95.29	134.8	248.5	825.2	3992	4494	282.7	8.182	3.222	2.469	2.010	1.711	1.603	1.730	1.561	1.701	1.790	1.648	2.114	1.872	2.159	2.266	2.193	2.319	2.574	2.381	2.648	2.733	2.686	2.560	2.585	2.768	2.736	2.482	2.662	2.675	2.760	2.693	2.715	2.722	2.668	2.771	2.972	2.705	2.861	2.858	2.901	2.787	2.760	2.619
385.0	729.6	816.4	820.5	764.3	702.5	695.4	650.1	641.5	616.9	620.3	606.2	605.4	578.5	547.7	507.7	453.3	437.3	409.1	381.8	354.2	323.9	298.7	281.0	317.8	281.6	169.8	124.1	99.75	88.46	97.91	214.6	1169	4342	2649	40.85	5.044	3.180	2.301	1.947	1.634	1.690	1.557	1.780	1.675	1.696	1.978	1.956	1.952	2.112	2.061	2.261	2.568	2.609	2.478	2.814	2.508	2.729	2.608	2.776	2.841	2.508	2.866	2.585	2.737	2.672	2.870	2.557	2.776	2.580	2.984	2.705	2.798	2.945	2.806	2.607	2.680	2.713
390.0	743.9	804.8	796.5	759.6	725.0	703.6	671.1	652.8	631.1	625.4	612.1	608.5	572.5	541.0	501.1	459.2	440.6	417.8	392.7	367.0	342.2	314.8	290.5	284.7	299.2	254.4	166.1	121.5	97.10	81.56	89.85	291.2	1232	2879	3045	843.4	14.76	3.202	2.500	2.062	1.753	1.762	1.811	1.709	1.935	1.935	1.911	2.063	2.234	1.937	2.142	2.534	2.605	2.588	2.566	2.715	2.861	2.852	2.902	2.799	2.738	2.719	2.713	2.753	2.830	2.704	2.683	2.658	2.571	2.767	2.787	2.660	2.792	2.768	2.711	2.700	2.603
395.0	723.7	753.5	788.3	778.2	726.3	715.2	690.1	678.3	642.7	631.4	623.9	598.5	572.6	532.7	497.6	459.1	444.3	421.7	399.3	374.1	356.4	331.7	305.3	285.6	271.7	286.5	247.0	157.7	121.0	96.48	79.43	105.9	304.4	683.5	1944	3987	1230	18.02	3.338	2.629	2.027	1.956	1.870	1.879	1.976	2.042	1.947	2.332	2.169	2.003	2.253	2.647	2.553	2.849	2.772	2.727	2.815	2.775	2.873	2.937	2.902	2.843	2.660	2.819	2.907	2.880	2.681	2.695	2.623	2.738	2.769	2.576	2.881	2.573	2.819	2.920	2.910
400.0	723.0	759.5	781.1	753.1	745.4	723.7	709.7	676.6	648.3	634.5	631.2	602.5	568.0	536.9	496.9	456.1	437.1	419.8	400.4	380.9	361.3	339.4	318.7	295.0	268.6	264.9	284.6	210.7	146.2	113.9	88.48	75.85	105.3	179.1	507.0	2586	3727	265.0	11.28	3.181	2.550	2.021	2.030	1.921	1.797	2.102	1.996	2.356	2.222	1.937	2.126	2.730	2.560	2.699	2.669	2.798	2.763	2.782	2.710	3.001	3.220	2.883	2.944	2.768	3.156	2.809	2.788	2.800	2.721	2.685	2.687	2.641	2.663	2.746	2.627	2.735	2.739
405.0	750.0	802.9	773.5	755.5	740.4	721.6	704.3	684.0	659.0	643.6	630.3	600.9	565.5	529.1	491.7	451.0	435.5	414.2	397.1	382.6	362.9	347.7	325.3	303.8	275.9	256.5	273.1	263.0	181.2	131.4	105.3	80.48	70.81	73.69	137.2	707.2	2932	2311	212.2	5.354	2.781	2.190	2.247	1.952	1.922	1.937	2.026	2.425	2.132	1.982	1.975	2.646	2.675	2.788	2.750	2.700	2.806	2.831	2.884	2.909	3.005	2.807	2.821	3.003	2.694	2.977	2.697	2.614	2.736	2.691	2.668	2.620	2.598	2.549	2.648	2.804	2.502
410.0	738.1	752.7	779.8	750.9	736.5	715.3	703.9	693.1	668.5	647.0	633.5	598.7	560.1	518.4	478.8	441.7	426.5	405.6	391.1	376.9	362.4	345.3	329.6	309.3	289.4	262.5	252.1	263.2	240.4	170.4	125.5	95.36	74.52	59.35	60.97	180.5	788.3	2013	2443	816.9	14.65	2.934	2.479	2.144	2.047	1.979	1.991	2.267	2.069	2.027	2.061	2.678	2.559	2.636	2.576	2.690	3.047	2.905	2.978	3.037	2.828	2.971	2.923	2.985	2.733	2.796	2.697	2.658	2.731	2.705	2.605	2.458	2.629	2.547	2.470	2.658	2.607
415.0	705.1	758.8	752.1	713.7	717.3	703.3	699.8	690.8	663.9	654.7	626.8	593.7	548.7	506.1	469.2	423.9	410.0	394.1	379.4	366.3	350.9	337.2	324.0	311.6	288.7	267.6	247.4	235.5	248.4	225.4	151.7	110.1	83.46	64.40	52.29	66.97	195.7	471.1	1280	2988	1131	18.38	3.046	2.489	2.339	2.102	1.883	2.224	2.193	1.895	2.090	2.322	2.457	2.656	2.570	2.568	3.027	2.798	3.015	2.864	2.819	2.862	2.896	2.857	2.610	2.664	2.726	2.807	2.404	2.547	2.535	2.511	2.536	2.613	2.264	2.426	2.636
420.0	704.2	738.0	735.1	711.2	692.5	707.9	690.5	678.3	655.9	648.0	614.4	586.1	533.9	492.6	454.8	411.9	398.4	381.3	367.2	352.6	342.2	332.2	320.3	307.6	290.5	268.5	250.1	230.6	230.0	238.3	187.1	123.8	93.58	71.47	53.74	46.97	65.68	120.8	322.2	1729	2903	254.7	11.36	2.871	2.234	2.347	2.251	2.276	2.092	2.002	2.058	2.498	2.411	2.476	2.719	2.526	2.883	2.894	3.055	2.785	2.996	2.938	2.651	2.934	2.795	2.694	2.608	2.602	2.501	2.463	2.531	2.507	2.572	2.510	2.506	2.386	2.504
425.0	675.1	727.0	716.4	696.4	691.9	682.0	690.5	671.6	649.8	628.6	617.4	572.5	529.0	476.9	437.1	401.1	384.9	370.9	352.5	342.1	330.3	323.6	314.5	299.5	289.1	270.0	252.3	233.1	219.8	222.7	214.3	145.2	100.7	77.52	57.90	46.05	41.24	44.30	85.30	454.8	2029	2130	209.6	5.572	2.805	2.360	2.259	2.104	2.185	1.930	1.961	2.507	2.328	2.510	2.620	2.415	2.600	2.773	2.940	2.952	2.923	3.041	2.851	2.711	2.735	2.619	2.506	2.388	2.501	2.502	2.510	2.452	2.461	2.307	2.470	2.274	2.418
430.0	941.9	721.7	692.5	677.4	665.8	667.8	670.9	663.4	644.4	631.1	612.5	563.0	517.7	465.4	423.5	386.6	370.1	353.4	339.7	328.5	320.5	313.2	304.8	294.3	282.5	267.7	251.7	236.9	219.3	205.3	202.4	179.0	125.1	88.92	67.90	52.41	40.85	32.63	35.94	114.2	525.2	1510	2040	743.2	14.43	3.005	2.468	2.253	2.204	1.871	2.055	2.397	2.387	2.545	2.492	2.494	2.772	2.855	2.873	2.867	2.980	2.863	2.843	2.683	2.817	2.738	2.671	2.439	2.437	2.418	2.302	2.367	2.133	2.332	2.317	2.228	2.263
435.0	1720	724.7	662.4	636.4	648.9	651.8	647.8	663.7	652.8	626.5	603.3	559.9	503.5	453.0	405.2	371.8	353.8	337.8	326.2	310.5	306.8	300.2	294.4	285.2	275.1	262.6	249.2	236.9	219.5	202.7	184.0	179.1	160.9	106.4	76.87	60.16	45.96	36.18	28.89	40.68	128.8	350.2	987.4	2545	1079	18.58	2.898	2.528	2.168	2.057	2.103	2.326	2.494	2.423	2.450	2.555	2.792	2.867	2.749	2.836	2.790	2.869	2.607	2.805	2.893	2.656	2.394	2.214	2.538	2.337	2.416	2.305	2.388	2.360	2.169	2.262	2.237
440.0	2494	906.4	638.8	638.2	639.0	632.6	642.6	659.0	649.2	615.4	598.1	547.1	489.1	437.2	389.9	361.7	343.4	327.2	315.0	302.1	294.7	291.5	285.0	275.9	265.3	256.1	244.1	233.1	219.9	202.6	180.5	165.5	166.0	128.6	85.26	65.15	51.07	39.70	30.52	27.16	42.71	88.94	245.7	1452	2644	237.0	10.86	2.947	2.271	2.135	2.248	2.409	2.551	2.498	2.615	2.784	3.005	2.668	2.798	2.842	2.780	2.636	2.631	2.660	2.711	2.483	2.380	2.404	2.458	2.313	2.439	2.155	2.295	2.198	2.123	2.196	2.032
445.0	2531	1527	640.5	619.3	602.2	614.2	633.2	638.6	620.4	598.2	586.3	530.4	479.0	431.4	379.9	344.8	329.5	314.7	303.2	291.5	284.5	277.0	273.9	264.6	257.7	247.3	238.1	227.9	214.5	199.5	179.6	157.2	149.9	143.7	99.14	69.25	54.05	41.62	34.09	26.97	25.58	31.99	64.86	383.3	1857	1946	179.5	6.167	2.639	2.126	2.159	2.396	2.420	2.408	2.436	2.550	2.649	2.792	2.757	2.638	2.891	2.675	2.610	2.515	2.389	2.457	2.468	2.368	2.512	2.297	2.194	2.106	2.210	2.158	2.052	1.977	1.999
450.0	1595	2504	902.8	574.9	574.8	590.1	604.7	608.0	598.8	581.5	561.0	507.1	450.5	408.7	363.0	328.0	307.4	291.7	281.6	271.1	264.9	257.0	255.3	248.9	243.1	233.3	226.0	217.3	204.5	194.4	174.3	152.5	135.6	130.3	116.4	83.30	59.27	45.89	37.21	29.27	24.52	21.50	26.05	94.82	480.8	1384	1838	665.6	12.24	2.622	2.249	2.380	2.387	2.289	2.324	2.566	2.601	2.550	2.644	2.709	2.651	2.576	2.670	2.592	2.534	2.475	2.337	2.297	2.318	2.254	2.118	2.120	2.063	2.081	2.026	2.021	1.905
455.0	786.8	2318	1874	566.2	526.3	546.0	567.7	566.3	567.5	553.2	529.2	483.9	426.5	383.4	335.6	301.2	283.0	268.7	258.2	246.7	241.3	236.4	232.4	228.8	223.0	218.2	211.0	205.1	196.3	185.4	168.0	148.0	127.3	113.7	109.5	99.95	70.34	49.25	39.76	32.49	27.15	22.08	19.31	31.63	115.8	319.9	847.8	2147	849.6	13.99	2.591	2.534	2.507	2.265	2.212	2.307	2.455	2.404	2.365	2.665	2.437	2.483	2.442	2.355	2.449	2.452	2.303	2.253	2.347	2.013	2.089	2.027	2.014	1.706	1.884	1.934	1.868
460.0	538.1	1543	2663	750.7	512.1	510.2	532.1	541.8	538.0	521.4	501.0	461.0	406.5	354.7	315.7	284.5	267.0	248.9	241.0	230.9	225.4	218.8	215.9	212.1	208.9	202.6	196.7	191.7	186.4	176.3	163.5	144.2	124.2	107.7	96.22	99.16	81.35	53.83	41.51	34.23	28.66	23.29	18.83	18.65	35.46	79.07	207.8	1169	2086	177.6	9.413	2.748	2.352	2.284	2.205	2.190	2.469	2.282	2.438	2.476	2.308	2.458	2.431	2.470	2.285	2.292	2.317	2.085	2.130	2.030	1.884	2.002	1.954	1.773	1.901	1.828	1.782
465.0	443.1	854.4	2710	1327	496.8	480.0	512.6	507.9	506.1	492.3	474.7	446.2	390.0	339.6	299.9	265.3	248.7	234.4	223.9	215.3	207.7	203.1	200.1	199.1	195.2	188.8	184.7	178.9	174.7	168.9	154.6	137.4	119.6	104.6	90.12	88.22	85.50	61.57	44.16	36.42	30.04	24.66	20.28	17.22	17.78	26.20	53.92	304.0	1467	1446	153.4	5.619	2.570	2.401	2.345	2.142	2.224	2.307	2.330	2.488	2.327	2.389	2.370	2.323	2.121	2.174	2.051	2.112	2.006	2.123	1.867	1.726	1.852	1.571	1.651	1.595	1.580
470.0	479.4	522.3	1626	2347	630.0	447.0	464.3	464.0	467.1	459.1	440.4	409.7	356.9	311.2	272.7	244.1	227.0	213.2	204.0	197.1	186.8	184.8	181.9	179.3	176.7	171.7	168.1	164.7	159.2	155.0	142.8	128.0	111.8	98.09	85.95	76.93	75.99	69.65	50.30	37.64	31.08	25.15	21.47	18.32	15.21	15.40	19.93	74.39	378.5	1024	1319	532.8	12.12	2.726	2.430	2.204	2.313	2.144	2.231	2.116	2.284	2.251	2.186	2.067	1.989	2.088	1.990	1.900	1.810	1.777	1.675	1.636	1.654	1.556	1.563	1.554	1.523
475.0	486.2	406.1	702.3	2310	1534	421.2	409.2	427.0	425.4	421.8	403.5	366.8	324.2	284.6	246.1	222.5	204.1	192.0	183.4	177.2	169.0	163.4	161.2	158.6	156.7	152.7	148.2	149.2	144.3	141.1	129.9	118.6	104.7	90.27	79.43	70.42	63.38	63.43	58.45	41.29	32.00	26.08	22.07	18.70	16.38	13.90	12.87	23.79	90.56	235.3	567.7	1469	213.8	15.59	2.586	2.191	2.155	2.113	2.060	1.993	2.150	2.036	2.003	2.032	1.871	2.103	1.805	1.802	1.658	1.640	1.543	1.567	1.598	1.457	1.643	1.525	1.510
480.0	455.1	394.5	443.8	1487	2410	536.7	383.6	399.8	400.4	397.0	373.7	341.4	304.3	266.4	232.2	205.4	189.4	178.9	167.4	160.6	153.6	152.1	148.7	146.1	143.6	139.9	136.9	136.1	134.1	129.8	122.7	109.1	98.91	85.80	75.81	67.13	59.62	55.52	58.27	47.75	33.41	27.41	22.80	18.94	16.87	14.50	12.11	12.95	26.36	57.76	138.9	763.7	1413	204.3	9.433	2.406	2.462	1.996	2.155	2.063	1.918	1.977	1.951	1.909	1.714	1.748	1.817	1.778	1.462	1.647	1.515	1.474	1.622	1.460	1.487	1.303	1.417
485.0	401.7	418.4	348.7	769.1	2586	1076	369.4	377.8	376.6	374.9	352.7	322.4	285.1	249.1	220.7	193.3	180.9	166.6	157.0	148.2	143.4	140.4	137.3	135.2	134.0	133.2	128.6	127.5	126.1	122.5	115.9	105.0	95.28	83.16	73.59	63.87	56.99	50.19	52.11	51.23	37.05	27.23	23.45	20.12	17.47	15.17	12.94	10.70	12.27	18.17	35.89	198.2	1011	1342	164.2	4.202	2.555	1.987	1.994	2.056	1.776	1.885	1.879	1.797	1.764	1.806	1.678	1.658	1.685	1.441	1.417	1.426	1.503	1.387	1.312	1.156	1.273
490.0	327.8	425.6	343.4	412.8	1616	2170	527.5	348.6	346.6	339.5	329.6	302.5	262.1	232.1	204.5	179.5	164.3	153.9	143.3	135.8	131.9	128.6	125.3	123.8	122.4	119.5	117.1	116.6	115.8	112.1	107.1	97.14	87.52	77.90	68.81	61.07	54.25	47.94	44.28	45.75	42.80	32.06	24.22	20.55	18.45	15.44	13.75	11.51	9.907	9.866	13.08	48.44	261.5	815.8	1196	495.2	13.00	2.339	2.049	1.957	1.768	1.779	1.786	1.772	1.684	1.584	1.655	1.610	1.475	1.505	1.464	1.342	1.388	1.306	1.222	1.203	1.158
495.0	268.6	370.0	370.4	304.9	643.8	2349	1324	332.9	315.0	312.1	303.0	279.6	244.6	212.7	185.3	159.8	150.0	139.6	131.2	123.4	119.1	115.5	112.7	111.2	108.7	107.5	105.3	104.1	104.7	102.1	96.21	88.18	79.13	70.68	64.31	57.38	51.59	45.62	40.84	38.76	39.94	36.96	26.43	21.42	18.51	15.95	14.15	12.01	9.946	8.713	8.238	15.53	62.36	187.0	545.1	1435	239.4	16.25	2.242	1.836	1.798	1.750	1.579	1.686	1.604	1.601	1.441	1.475	1.473	1.428	1.229	1.277	1.224	1.284	1.200	1.195	1.147
500.0	235.3	314.1	376.3	284.1	343.6	1578	2277	388.9	293.6	293.4	277.4	255.0	227.1	200.1	171.5	146.9	136.9	127.4	120.1	112.5	107.3	107.3	102.2	102.7	99.36	99.04	95.64	95.62	94.58	94.83	88.61	81.75	73.16	66.81	60.31	53.92	48.42	41.96	37.78	35.51	34.17	36.78	30.27	21.88	18.61	15.78	13.96	11.79	10.18	8.603	7.277	7.941	17.93	45.23	132.8	742.2	1353	219.6	9.672	2.173	1.655	1.659	1.494	1.606	1.610	1.320	1.254	1.241	1.327	1.245	1.094	1.186	1.168	1.181	1.020	1.122	1.027
505.0	218.9	240.1	349.9	280.3	264.6	784.7	2715	847.5	278.3	269.2	259.6	237.1	210.6	183.8	156.1	139.8	127.1	117.7	110.0	103.1	98.23	96.11	93.82	92.23	90.54	90.07	87.56	88.05	87.44	87.08	82.01	75.60	68.99	61.39	55.91	50.15	45.41	39.47	36.12	33.03	29.99	32.73	31.90	23.88	18.33	15.67	13.96	11.89	10.66	9.073	7.319	6.563	7.888	13.79	33.14	190.0	908.2	1238	175.6	4.268	1.967	1.766	1.509	1.503	1.455	1.325	1.287	1.226	1.228	1.110	0.941	1.133	1.091	1.136	0.996	0.969	0.948
510.0	188.3	201.8	277.4	295.3	231.6	355.2	1784	2076	374.9	238.8	229.7	213.7	188.0	162.4	141.6	123.6	112.6	104.1	97.90	91.45	87.47	84.04	83.46	82.77	79.88	79.26	76.81	77.61	76.20	75.95	72.73	67.65	61.58	56.00	50.13	45.99	40.45	36.94	33.83	29.63	27.55	26.55	28.12	26.53	20.14	15.65	13.54	11.90	10.17	8.841	7.584	6.490	6.118	6.701	10.84	45.37	231.8	714.2	990.0	383.6	12.72	1.842	1.596	1.381	1.382	1.228	1.140	1.101	1.167	1.065	0.958	1.024	0.943	0.974	0.982	0.892	0.927
515.0	158.0	174.1	211.0	292.1	217.6	230.5	659.5	2580	1106	215.3	202.5	187.2	166.4	143.4	124.5	108.2	98.82	90.69	83.22	79.85	76.06	74.16	73.23	70.92	70.10	68.61	66.64	67.98	67.26	65.74	63.61	58.83	52.78	49.07	43.51	40.44	36.13	33.61	30.31	27.29	24.36	22.52	22.24	25.43	22.91	16.41	13.55	11.56	9.763	8.577	7.739	6.734	5.362	5.334	5.814	12.95	54.49	162.9	409.1	1048	240.0	15.84	1.809	1.440	1.289	1.071	1.036	1.079	0.906	0.978	1.036	0.877	0.896	0.814	0.845	0.848	0.897
520.0	144.4	152.1	178.1	250.8	238.3	193.2	300.0	1808	2203	271.5	180.2	173.8	153.8	130.2	113.9	99.33	89.73	82.18	76.93	73.56	67.94	65.72	65.37	63.86	61.11	62.60	60.08	60.86	60.09	58.71	57.67	52.68	49.00	43.51	40.37	36.93	32.79	30.69	27.22	24.72	22.40	20.54	19.27	20.81	22.64	17.68	13.35	10.72	9.410	8.199	7.271	6.895	5.813	4.990	4.551	5.987	14.93	38.98	98.47	517.4	1001	214.9	8.985	1.627	1.247	1.121	1.033	1.098	1.032	0.922	0.954	0.868	0.949	0.810	0.808	0.768	0.712
525.0	139.7	138.6	152.3	195.1	250.0	179.1	191.8	865.1	2902	662.1	169.6	159.0	137.8	120.5	102.7	90.14	83.31	75.78	70.87	65.53	61.25	60.06	58.81	57.36	55.26	55.05	54.46	54.59	53.98	52.51	51.87	48.79	43.73	40.39	37.11	33.07	30.84	27.76	25.33	23.41	20.93	18.87	17.58	17.63	19.96	19.29	14.09	10.55	8.657	8.099	6.679	6.235	5.884	5.020	4.282	4.278	5.989	11.31	24.41	130.0	622.0	913.1	167.8	3.674	1.204	1.213	1.037	0.969	0.924	0.877	0.997	0.799	0.795	0.748	0.784	0.852	0.729
530.0	121.1	129.8	130.6	151.5	225.7	188.6	157.2	332.0	2012	2067	214.9	140.8	121.2	106.4	90.84	77.83	72.95	65.61	61.80	58.20	54.65	52.42	50.92	50.31	48.40	47.89	47.53	47.19	46.80	46.29	44.24	42.51	38.77	35.16	32.37	29.88	26.83	25.11	23.08	21.03	18.82	16.80	16.00	14.87	15.67	17.45	15.95	11.49	8.596	7.481	6.602	5.764	5.446	5.207	4.502	3.906	4.004	5.058	7.876	31.12	155.6	488.8	695.6	296.2	12.26	1.327	1.066	0.944	0.851	0.964	0.817	0.747	0.770	0.667	0.709	0.771	0.670
535.0	105.2	115.1	111.4	115.0	165.3	206.0	137.3	176.3	697.1	2823	925.6	121.0	105.3	92.13	80.69	68.01	61.80	57.62	52.60	48.74	46.50	45.45	42.90	43.31	41.46	40.59	40.14	40.72	40.71	38.77	38.40	36.38	32.54	30.24	27.58	25.91	23.41	21.54	19.48	18.14	16.59	14.98	13.86	12.77	12.94	13.00	15.06	12.56	9.042	7.324	6.463	5.566	4.901	4.792	4.662	4.179	3.564	3.570	4.058	9.008	36.54	111.3	259.9	726.8	242.3	15.84	1.199	1.027	0.769	0.767	0.711	0.678	0.762	0.687	0.634	0.594	0.646
540.0	100.3	102.0	104.1	104.1	130.4	210.1	148.7	130.4	255.5	1986	1915	156.7	94.06	83.02	69.42	62.13	55.61	50.57	47.65	44.14	42.40	40.01	39.61	38.27	36.78	35.80	35.88	35.87	35.76	35.29	34.44	31.99	29.80	27.22	24.76	23.23	21.21	19.66	18.10	16.38	15.42	13.53	12.76	11.90	10.88	10.49	12.06	12.60	9.832	7.247	6.035	5.036	4.781	4.393	4.237	4.078	3.338	3.018	3.006	3.914	10.10	26.58	61.50	332.8	702.6	206.6	8.337	1.089	0.807	0.747	0.744	0.732	0.743	0.610	0.664	0.544	0.588
545.0	91.81	89.08	82.84	88.34	100.1	172.2	164.3	114.7	142.5	875.2	2900	427.9	84.85	74.45	63.83	54.45	49.44	44.94	42.24	39.51	35.84	34.75	34.90	33.61	33.26	31.72	31.89	31.72	31.02	30.23	30.45	28.34	25.73	24.18	22.07	19.87	19.02	16.82	16.27	14.94	14.01	12.16	11.45	10.56	10.06	9.245	10.07	11.12	10.15	7.254	5.703	4.835	4.120	3.858	4.029	4.032	3.586	2.995	2.904	2.656	3.955	7.564	15.27	81.67	394.2	646.3	152.4	3.166	0.809	0.746	0.751	0.722	0.614	0.698	0.558	0.507	0.557
550.0	87.60	77.52	76.40	70.98	78.96	117.4	174.1	105.2	100.8	283.7	1962	1758	119.5	64.67	53.31	45.95	42.27	37.83	35.11	32.88	30.86	29.57	28.30	28.63	27.48	27.00	25.76	26.50	26.29	25.69	24.90	23.93	21.36	20.67	18.40	17.33	16.00	14.67	13.65	12.49	11.76	10.38	10.13	9.270	8.813	7.994	7.797	8.178	9.156	7.880	5.651	4.441	3.765	3.653	3.301	3.459	3.338	3.159	2.597	2.194	2.301	3.216	4.744	19.52	96.12	312.7	468.1	141.7	12.47	0.854	0.765	0.705	0.584	0.585	0.580	0.578	0.459
555.0	71.71	69.80	67.42	60.38	64.63	80.03	144.2	122.3	78.26	117.5	617.2	2598	605.0	52.83	44.30	38.16	35.41	32.23	29.04	27.41	25.54	24.94	23.72	22.61	22.39	21.91	21.46	20.87	21.85	20.82	19.57	20.41	17.19	16.49	14.69	14.48	13.24	12.22	11.30	10.14	9.507	8.391	8.255	7.824	7.276	7.076	6.478	6.078	6.759	7.254	6.267	4.288	3.475	3.366	2.927	2.945	2.971	3.078	2.642	2.173	1.921	2.069	2.141	5.518	22.55	71.06	160.0	420.9	231.5	15.49	1.035	0.669	0.502	0.525	0.486	0.492	0.462
560.0	67.02	63.02	63.89	54.56	52.36	63.67	102.5	143.1	72.42	77.21	195.0	1814	1397	74.72	38.63	32.63	29.90	27.11	24.55	22.36	21.88	21.05	20.38	20.06	18.88	18.23	17.53	17.44	18.79	17.67	16.99	16.33	14.97	14.18	12.68	12.29	11.02	10.68	9.346	8.811	8.403	7.559	7.272	6.506	6.429	5.875	5.415	5.179	5.077	5.920	6.005	4.627	3.263	2.823	2.571	2.676	2.660	2.470	2.648	2.199	1.753	1.799	1.591	2.394	6.088	16.97	37.55	174.5	435.3	188.5	9.006	0.875	0.733	0.530	0.495	0.411	0.501
565.0	56.19	56.94	53.58	49.71	50.24	51.87	69.51	136.3	75.88	63.01	88.13	751.0	2399	154.1	33.88	28.31	24.76	23.55	21.41	20.02	18.59	17.30	16.75	17.36	16.23	15.69	15.06	14.94	15.58	14.82	15.12	13.71	12.87	11.71	10.65	10.34	9.599	8.777	8.328	7.590	6.768	6.421	6.499	6.040	5.523	5.343	4.825	4.566	4.059	4.520	5.270	4.536	3.193	2.449	2.559	2.465	2.303	2.007	2.275	2.263	1.710	1.518	1.508	1.689	2.367	4.811	9.473	41.84	205.9	399.2	129.0	3.388	0.683	0.605	0.633	0.454	0.494
570.0	58.03	53.50	46.41	40.32	42.40	42.61	49.37	102.6	100.4	53.40	59.00	222.6	1658	1282	58.66	23.81	20.73	19.68	17.36	16.30	15.10	14.57	13.60	13.90	13.30	12.61	12.54	12.59	12.65	12.22	12.27	11.18	10.46	9.369	8.946	8.180	7.946	7.287	6.668	6.267	5.665	5.515	5.167	4.929	4.618	4.521	3.891	3.752	3.310	3.243	3.709	4.284	3.448	2.484	2.151	2.096	1.920	1.771	1.976	1.925	2.008	1.637	1.376	1.444	1.566	2.124	3.091	10.36	49.13	165.9	277.2	137.5	12.84	0.870	0.585	0.485	0.438
575.0	64.19	50.23	44.08	38.23	36.67	35.78	38.59	61.15	114.4	58.06	46.80	81.87	494.9	1987	388.8	20.43	16.44	15.38	14.44	12.91	13.03	12.24	10.52	10.56	10.39	10.45	9.932	9.660	9.614	9.711	9.077	9.217	8.445	7.536	7.266	6.571	6.701	5.956	5.579	5.287	4.391	4.622	4.147	4.017	3.541	3.585	3.235	3.144	2.706	2.512	2.505	3.170	3.220	2.734	2.002	1.805	1.649	1.731	1.698	1.515	1.826	1.909	1.426	1.366	1.370	1.587	1.712	3.339	11.96	38.06	81.60	228.5	196.9	16.86	0.809	0.531	0.445
580.0	59.81	52.35	42.57	36.38	31.60	29.25	34.20	39.74	98.99	79.05	43.11	49.68	145.5	1370	989.5	31.99	15.02	13.30	12.03	11.43	10.73	10.37	9.655	9.061	8.666	8.666	8.292	8.258	8.495	8.358	7.436	7.556	7.015	6.142	5.982	5.719	5.633	4.918	4.744	4.506	3.910	3.969	3.716	3.601	3.179	3.189	2.958	2.706	2.461	2.189	1.957	2.351	2.751	2.839	2.252	1.643	1.385	1.515	1.645	1.419	1.515	2.031	1.865	1.552	1.420	1.475	1.443	1.829	3.834	9.553	19.45	81.81	251.9	153.1	8.762	0.627	0.493
585.0	56.19	48.24	41.99	31.10	28.69	27.76	29.50	33.93	70.76	96.27	43.68	41.37	58.96	543.1	1716	97.97	14.33	11.60	11.18	9.970	8.695	8.806	8.630	8.424	7.558	7.379	7.169	7.266	7.121	7.417	6.708	6.775	5.821	5.621	5.198	4.768	5.020	4.437	4.139	3.836	3.246	3.493	3.035	2.872	2.966	2.581	2.521	2.388	2.118	1.778	1.668	1.893	2.273	2.661	2.190	1.614	1.275	1.467	1.511	1.383	1.456	1.584	1.895	1.597	1.396	1.455	1.460	1.421	2.132	3.298	5.595	19.69	102.2	254.1	35.98	3.876	0.497
590.0	55.92	50.16	39.67	29.65	26.78	24.54	25.32	28.24	43.32	93.37	59.40	36.83	37.69	153.5	1151	821.2	27.93	10.11	9.367	8.418	7.822	7.174	6.949	6.605	6.232	6.115	5.962	5.877	6.041	5.872	5.471	5.563	4.705	4.702	4.319	4.012	3.887	3.453	3.376	3.329	2.985	2.850	2.534	2.308	2.463	2.266	2.072	1.980	1.720	1.544	1.540	1.507	1.574	2.043	2.206	1.879	1.472	1.222	1.305	1.230	1.409	1.384	1.496	1.697	1.661	1.477	1.465	1.519	1.618	2.043	2.388	5.533	24.37	92.09	145.5	97.19	12.88
595.0	48.57	55.57	37.25	28.85	23.53	22.23	22.50	23.41	31.57	64.31	84.24	36.40	32.41	51.63	334.4	1275	97.69	9.112	7.210	7.537	6.051	5.951	5.700	5.458	5.020	4.911	5.255	4.562	4.797	5.064	4.593	4.189	4.134	3.960	3.477	3.397	3.063	2.910	2.697	2.349	2.541	2.271	2.175	2.074	1.874	1.892	1.600	1.640	1.478	1.273	1.249	1.177	1.308	1.328	1.707	1.915	1.603	1.187	1.171	1.166	1.225	1.282	1.249	1.475	1.874	1.696	1.272	1.493	1.701	1.805	1.768	2.500	6.520	21.39	39.56	121.6	131.1
600.0	44.29	50.00	38.74	29.01	19.80	19.78	22.33	23.70	26.47	43.94	93.44	44.54	29.42	29.65	91.13	886.9	633.6	14.46	6.977	6.187	5.502	5.049	4.654	4.852	4.317	4.283	4.430	4.018	4.241	4.304	3.992	3.736	3.568	3.116	2.985	2.880	2.723	2.604	2.393	2.181	2.146	1.842	1.789	1.817	1.646	1.520	1.447	1.531	1.331	1.128	1.134	1.075	1.101	1.036	1.347	1.722	1.804	1.242	1.150	0.990	1.176	1.195	1.284	1.499	1.660	1.685	1.476	1.592	1.555	1.670	1.617	1.661	2.499	5.538	9.622	39.04	137.3
605.0	51.04	47.42	36.37	24.75	21.76	17.42	19.83	21.79	25.67	35.71	80.30	59.36	28.86	24.95	34.18	353.3	1061	62.67	6.058	5.060	5.157	4.602	4.094	3.909	3.680	3.704	3.281	3.608	3.580	3.747	3.229	3.212	2.940	2.910	2.499	2.488	2.544	2.426	1.996	2.004	1.825	1.575	1.594	1.562	1.338	1.473	1.264	1.238	1.272	1.025	1.012	0.930	0.942	0.980	1.029	1.358	1.671	1.325	1.122	1.158	1.245	1.158	1.247	1.298	1.246	1.653	1.788	1.609	1.735	1.679	1.700	1.496	1.714	1.992	2.952	9.570	48.98
610.0	50.17	46.63	36.27	24.47	19.94	18.24	19.35	21.20	25.42	31.01	56.10	75.38	36.66	23.87	21.06	96.23	738.2	494.3	14.17	4.721	4.126	3.904	3.520	3.228	3.242	3.027	3.125	2.826	3.136	3.080	2.774	2.750	2.695	2.469	2.277	2.210	2.129	2.010	1.719	1.718	1.535	1.394	1.298	1.253	1.194	1.276	1.166	1.017	1.064	0.906	0.905	0.854	0.847	0.854	0.910	0.902	1.313	1.307	1.185	1.062	1.034	1.148	1.137	1.218	1.246	1.342	1.752	1.828	1.824	1.718	1.644	1.487	1.375	1.427	1.372	2.861	11.64
615.0	39.56	49.46	34.81	26.28	20.16	18.67	19.49	20.98	22.30	28.46	40.21	73.35	49.91	25.19	18.24	31.40	218.6	844.5	74.45	4.366	3.460	3.086	3.059	2.790	2.801	2.679	2.565	2.354	2.560	2.636	2.155	2.322	2.168	2.231	2.146	2.124	1.944	1.589	1.507	1.335	1.211	1.323	1.116	1.105	0.961	0.978	0.996	0.907	0.788	0.789	0.850	0.665	0.720	0.617	0.729	0.746	1.019	1.128	1.111	1.131	0.967	1.086	1.040	1.189	1.182	1.310	1.530	1.682	1.855	1.703	1.439	1.313	1.312	1.204	0.998	1.277	3.230
620.0	44.62	41.92	38.25	25.65	17.59	14.52	17.42	20.85	22.72	25.91	32.70	59.12	60.90	25.18	17.64	16.20	60.18	628.5	426.6	6.809	3.274	2.693	2.699	2.193	2.402	2.484	2.119	1.999	2.263	2.149	1.956	2.133	1.913	1.960	1.576	1.734	1.618	1.516	1.506	1.203	1.085	1.114	1.029	0.938	0.897	0.936	0.788	0.788	0.645	0.729	0.578	0.578	0.601	0.620	0.657	0.624	0.776	0.942	1.077	1.006	0.988	1.012	0.938	1.098	1.100	1.143	1.357	1.474	1.698	1.603	1.431	1.181	1.168	1.031	0.933	0.782	1.278
625.0	45.13	37.80	37.33	26.90	17.48	15.91	16.50	19.86	21.65	25.39	30.52	46.37	66.09	28.75	16.22	12.33	21.11	264.3	733.8	37.92	3.037	2.622	2.259	1.991	2.013	1.966	1.970	2.009	1.940	1.835	1.701	1.775	1.686	1.656	1.611	1.671	1.455	1.401	1.325	1.178	1.026	1.030	0.861	0.977	0.879	0.791	0.734	0.734	0.678	0.602	0.560	0.524	0.528	0.583	0.591	0.589	0.764	0.786	0.999	1.100	0.969	0.846	0.937	0.846	1.061	1.007	1.066	1.313	1.426	1.558	1.523	1.141	1.097	0.936	0.699	0.669	0.719
630.0	45.63	41.71	35.69	22.32	15.33	14.85	15.25	19.30	21.38	25.20	29.92	35.20	57.19	38.60	17.20	10.62	11.35	70.21	558.3	333.7	6.764	2.387	2.101	1.892	1.803	1.743	1.632	1.608	1.499	1.533	1.588	1.474	1.517	1.408	1.241	1.454	1.277	1.202	1.075	1.094	0.971	0.814	0.794	0.724	0.798	0.700	0.658	0.616	0.645	0.540	0.477	0.454	0.504	0.492	0.492	0.481	0.539	0.546	0.757	0.908	0.828	0.799	0.785	0.734	0.868	0.917	0.903	0.969	1.034	1.243	1.356	1.042	0.800	0.760	0.655	0.586	0.572
635.0	45.97	38.28	31.40	20.76	13.94	14.76	15.91	17.90	20.73	24.59	29.25	31.10	41.81	48.40	19.70	10.27	8.545	19.89	171.9	620.4	53.81	2.459	2.073	1.639	1.785	1.475	1.425	1.446	1.387	1.351	1.356	1.207	1.342	1.129	1.184	1.206	1.239	1.095	1.004	0.814	0.811	0.795	0.605	0.653	0.651	0.555	0.508	0.566	0.525	0.450	0.429	0.389	0.388	0.420	0.455	0.481	0.462	0.491	0.619	0.703	0.781	0.728	0.705	0.617	0.691	0.739	0.750	0.834	0.896	0.909	0.997	1.016	0.853	0.599	0.608	0.578	0.514
640.0	46.17	38.20	29.98	19.42	13.41	14.21	15.14	18.07	20.49	24.33	27.96	29.35	32.88	48.48	25.11	11.05	8.308	8.804	45.55	504.7	263.2	3.694	1.547	1.671	1.276	1.418	1.269	1.478	1.132	1.206	1.172	1.083	1.129	1.007	1.138	1.064	1.004	0.869	0.863	0.731	0.733	0.636	0.530	0.608	0.601	0.533	0.478	0.503	0.418	0.385	0.403	0.429	0.402	0.419	0.440	0.379	0.438	0.477	0.467	0.434	0.602	0.773	0.581	0.652	0.615	0.549	0.715	0.593	0.770	0.753	0.759	0.873	0.783	0.645	0.575	0.473	0.427
645.0	46.38	45.90	30.09	18.07	12.81	14.35	15.82	17.01	18.53	23.21	27.55	29.16	28.95	41.00	30.81	11.93	7.617	5.981	13.41	233.5	498.5	20.36	1.513	1.544	1.186	1.322	1.155	1.357	1.170	1.045	1.076	1.009	0.973	0.946	0.970	1.021	0.937	0.803	0.749	0.654	0.620	0.714	0.527	0.533	0.525	0.509	0.469	0.475	0.451	0.395	0.405	0.376	0.369	0.382	0.380	0.397	0.363	0.424	0.478	0.396	0.490	0.605	0.521	0.633	0.495	0.514	0.578	0.497	0.625	0.634	0.673	0.700	0.732	0.675	0.500	0.414	0.422
650.0	49.06	41.92	30.85	20.77	13.31	12.80	14.04	15.61	17.68	21.61	26.03	27.09	28.00	31.12	36.27	12.34	7.157	5.575	5.720	69.70	527.1	66.13	1.822	1.513	1.115	1.181	1.219	1.211	0.992	0.986	0.936	1.025	0.852	0.715	0.896	0.831	0.857	0.758	0.660	0.635	0.549	0.606	0.687	0.483	0.582	0.461	0.446	0.413	0.412	0.342	0.344	0.334	0.307	0.342	0.325	0.296	0.346	0.320	0.390	0.361	0.446	0.533	0.588	0.557	0.456	0.506	0.531	0.501	0.506	0.607	0.590	0.565	0.625	0.645	0.569	0.387	0.383
