Sample:	'1
File name:	H2025091102绣针河入境南岸.FD3
Run date:	'14:24:30, 09/11/2025
Operator:	Administrator
Comment:	'

Instrument
Model:	F-2700 FL Spectrophotometer
Serial number:	23C7-003
ROM Version:	4J14000 07

Instrument parameters
Measurement type:	3-D scan
Data mode:	Fluorescence
EX  Start WL:	220.0 nm
EX  End WL:	600.0 nm
EX Sampling interval:	5.0 nm
EM  Start WL:	230.0 nm
EM  End WL:	650.0 nm
EM Sampling interval:	5.0 nm
Scan speed:	12000 nm/min
EX Slit:	5.0 nm
EM Slit:	5.0 nm
PMT Voltage:	700 V
Response:	Auto 
Corrected spectra:	Off
Contour interval:	50.000

Peak integration
Integration method:	Rectangular
Sensitivity:	1
Threshold:	1.000

Peaks
No.	ApexEX/EM(nm)	Height(Data)
1	225.0/340.0	647.4
2	225.0/585.0	52.94
3	225.0/615.0	47.90
4	225.0/625.0	47.64
5	230.0/345.0	639.3
6	230.0/355.0	634.4
7	230.0/380.0	621.9
8	235.0/395.0	618.9
9	235.0/510.0	231.9
10	240.0/410.0	616.0
11	240.0/520.0	194.0
12	245.0/405.0	620.0
13	250.0/415.0	609.1
14	250.0/545.0	132.0
15	255.0/280.0	353.4
16	255.0/560.0	114.0
17	260.0/400.0	606.3
18	260.0/420.0	596.2
19	260.0/570.0	95.40
20	265.0/585.0	92.61
21	270.0/300.0	1027
22	270.0/395.0	612.3
23	270.0/595.0	92.60
24	275.0/305.0	1237
25	275.0/610.0	89.46
26	280.0/385.0	633.8
27	280.0/620.0	74.14
28	285.0/635.0	47.96
29	305.0/345.0	433.7
30	310.0/350.0	405.2
31	315.0/355.0	421.1
32	320.0/365.0	432.9
33	535.0/295.0	4.302
34	550.0/305.0	6.161
35	560.0/310.0	6.236
36	570.0/315.0	5.497
37	575.0/290.0	56.21
38	575.0/320.0	4.954
39	580.0/325.0	4.293

Data points
	220.0	225.0	230.0	235.0	240.0	245.0	250.0	255.0	260.0	265.0	270.0	275.0	280.0	285.0	290.0	295.0	300.0	305.0	310.0	315.0	320.0	325.0	330.0	335.0	340.0	345.0	350.0	355.0	360.0	365.0	370.0	375.0	380.0	385.0	390.0	395.0	400.0	405.0	410.0	415.0	420.0	425.0	430.0	435.0	440.0	445.0	450.0	455.0	460.0	465.0	470.0	475.0	480.0	485.0	490.0	495.0	500.0	505.0	510.0	515.0	520.0	525.0	530.0	535.0	540.0	545.0	550.0	555.0	560.0	565.0	570.0	575.0	580.0	585.0	590.0	595.0	600.0
230.0	37.67	822.4	2752	1216	55.64	8.266	5.833	4.951	4.164	4.039	3.585	3.395	3.355	2.892	2.223	2.077	1.794	1.715	1.585	1.324	1.377	1.199	1.104	0.945	0.954	0.907	0.793	0.814	0.788	0.754	0.691	0.651	0.572	0.597	0.554	0.491	0.425	0.495	0.415	0.392	0.444	0.519	0.625	0.436	0.380	0.402	1.092	5.281	10.69	9.334	3.926	0.862	0.348	0.326	0.258	0.249	0.324	0.298	0.261	0.318	0.283	0.308	0.259	0.308	0.263	0.301	0.266	0.273	0.324	0.281	0.329	0.275	0.313	0.274	0.300	0.276	0.301
235.0	92.96	227.1	1320	2859	1504	97.09	7.367	5.842	4.860	3.783	3.788	3.489	3.114	2.916	2.541	1.989	1.929	1.505	1.611	1.356	1.162	1.088	1.208	1.105	0.935	0.935	0.884	0.820	0.732	0.757	0.742	0.683	0.578	0.608	0.494	0.376	0.485	0.546	0.497	0.393	0.410	0.430	0.560	0.544	0.533	0.482	0.518	1.510	3.616	6.704	10.10	11.62	6.489	1.521	0.334	0.313	0.292	0.302	0.249	0.318	0.284	0.261	0.348	0.319	0.287	0.231	0.274	0.269	0.290	0.245	0.313	0.308	0.311	0.269	0.241	0.304	0.284
240.0	118.8	126.9	347.3	1824	3449	1289	43.35	7.520	6.283	4.458	4.387	3.643	3.190	2.942	2.192	2.189	1.758	1.535	1.633	1.549	1.331	1.320	1.318	1.049	0.919	0.818	0.841	0.784	0.775	0.763	0.646	0.673	0.618	0.543	0.511	0.496	0.491	0.490	0.476	0.434	0.436	0.411	0.472	0.488	0.594	0.739	0.547	0.738	1.062	1.965	4.723	12.04	16.86	12.52	4.705	0.830	0.326	0.297	0.310	0.348	0.307	0.305	0.300	0.309	0.271	0.275	0.283	0.327	0.294	0.279	0.279	0.269	0.362	0.295	0.253	0.232	0.274
245.0	70.49	151.8	135.2	524.5	2692	3292	325.0	19.40	6.520	6.082	5.090	3.778	3.610	3.341	2.533	2.409	2.087	1.965	1.708	1.524	1.446	1.314	1.100	1.118	0.956	0.807	0.859	0.817	0.917	0.941	0.691	0.674	0.618	0.565	0.436	0.533	0.483	0.535	0.511	0.396	0.438	0.474	0.425	0.365	0.525	0.642	0.781	0.793	0.597	0.679	1.288	3.909	10.45	18.43	19.97	11.08	3.086	0.396	0.346	0.380	0.335	0.327	0.271	0.277	0.331	0.314	0.274	0.215	0.302	0.251	0.301	0.286	0.314	0.258	0.314	0.312	0.293
250.0	36.94	96.64	161.3	194.3	751.4	2511	3380	1194	90.08	8.331	6.807	4.883	4.244	3.754	2.953	2.404	2.250	1.950	1.718	1.592	1.459	1.466	1.105	1.148	1.068	0.816	0.817	0.799	0.820	0.851	0.724	0.654	0.633	0.594	0.497	0.520	0.451	0.496	0.454	0.409	0.422	0.441	0.454	0.384	0.451	0.434	0.485	0.715	0.854	0.832	0.722	1.178	2.711	5.841	11.30	16.27	20.81	16.85	9.949	3.074	0.576	0.377	0.266	0.272	0.314	0.314	0.303	0.274	0.297	0.332	0.307	0.309	0.346	0.293	0.333	0.319	0.318
255.0	28.47	39.85	92.06	206.9	251.0	591.7	2032	5510	1767	114.3	8.888	6.494	5.376	4.021	2.979	2.994	2.232	2.156	1.860	1.736	1.391	1.397	1.288	1.281	1.151	1.068	0.868	1.005	0.889	0.725	0.795	0.687	0.722	0.669	0.532	0.505	0.502	0.445	0.348	0.420	0.368	0.424	0.429	0.352	0.378	0.362	0.350	0.436	0.447	0.693	0.898	1.054	1.192	1.607	2.767	4.093	7.830	18.16	31.09	25.08	14.74	3.424	0.398	0.286	0.355	0.366	0.314	0.309	0.360	0.434	0.296	0.334	0.294	0.394	0.288	0.299	0.259
260.0	28.94	23.69	35.79	145.5	229.4	177.9	531.9	3511	6593	1421	66.69	8.280	5.929	5.007	3.658	3.081	2.593	2.246	1.993	1.844	1.749	1.353	1.326	1.291	1.117	1.097	0.966	1.032	0.935	0.793	0.942	0.779	0.706	0.642	0.553	0.473	0.519	0.460	0.428	0.416	0.411	0.414	0.403	0.386	0.377	0.441	0.355	0.344	0.357	0.371	0.566	1.206	1.391	0.908	1.024	1.189	2.136	4.993	14.38	29.96	40.33	23.79	10.24	1.395	0.416	0.362	0.287	0.356	0.345	0.371	0.290	0.288	0.298	0.324	0.308	0.339	0.343
265.0	24.55	21.89	20.37	59.81	212.3	187.8	147.8	975.7	5161	7148	1072	26.91	7.808	6.106	4.141	3.329	2.505	2.336	2.137	1.920	1.722	1.535	1.316	1.435	1.266	1.042	1.004	1.045	0.961	0.847	0.936	0.740	0.660	0.648	0.532	0.555	0.531	0.490	0.418	0.391	0.402	0.457	0.341	0.405	0.360	0.447	0.356	0.360	0.315	0.315	0.342	0.625	1.163	1.435	1.204	0.724	0.790	1.447	3.695	9.314	23.61	41.72	46.07	20.35	5.228	0.605	0.354	0.392	0.380	0.360	0.303	0.325	0.296	0.375	0.320	0.322	0.330
270.0	38.69	27.43	23.93	26.38	85.50	214.0	192.0	258.8	1430	5218	7840	2847	63.58	8.940	5.748	4.208	3.030	2.613	2.206	2.129	1.859	1.664	1.512	1.263	1.163	1.125	1.075	0.916	0.931	0.837	0.907	0.733	0.665	0.663	0.559	0.524	0.527	0.546	0.479	0.468	0.445	0.477	0.450	0.462	0.399	0.452	0.387	0.373	0.403	0.291	0.303	0.377	0.576	0.870	1.232	1.371	1.231	0.925	1.201	2.405	5.848	12.96	25.39	37.86	35.90	35.04	12.32	4.411	0.662	0.362	0.354	0.345	0.327	0.412	0.326	0.373	0.317
275.0	69.45	52.72	37.43	27.90	35.50	85.43	267.7	245.8	368.2	1247	4369	9999.9	3869	74.79	8.950	5.442	4.003	3.257	2.614	2.277	1.971	1.751	1.597	1.491	1.371	1.229	1.181	1.047	0.880	0.957	0.833	0.899	0.712	0.735	0.653	0.611	0.585	0.627	0.596	0.483	0.573	0.557	0.548	0.534	0.493	0.483	0.480	0.445	0.451	0.330	0.341	0.355	0.406	0.455	0.607	0.818	1.528	2.026	1.370	1.085	1.755	3.349	6.112	9.238	13.98	37.13	61.67	56.09	18.15	3.754	0.547	0.428	0.324	0.380	0.377	0.335	0.309
280.0	98.56	82.68	59.35	39.93	30.60	42.90	152.7	353.4	220.1	345.4	1176	6975	9495	880.7	41.02	7.705	5.481	3.910	3.265	2.497	2.279	1.938	1.595	1.612	1.337	1.377	1.265	1.130	0.964	1.013	0.838	0.888	0.842	0.732	0.691	0.681	0.687	0.675	0.745	0.597	0.530	0.589	0.679	0.624	0.543	0.606	0.483	0.483	0.489	0.437	0.388	0.360	0.330	0.406	0.423	0.526	0.833	1.560	2.132	1.763	1.104	1.308	1.890	2.585	3.722	10.01	26.91	57.89	73.72	26.59	11.75	1.626	0.398	0.447	0.384	0.307	0.350
285.0	149.3	140.2	107.9	65.26	42.59	38.91	77.72	286.3	369.7	210.4	387.7	2048	9211	7327	603.0	17.35	7.064	4.434	3.856	2.724	2.218	2.167	1.779	1.483	1.621	1.350	1.325	1.135	1.072	0.928	1.028	0.948	0.886	0.822	0.827	0.728	0.764	0.688	0.753	0.705	0.624	0.696	0.702	0.742	0.644	0.877	0.643	0.761	0.700	0.558	0.468	0.416	0.365	0.459	0.381	0.521	0.591	0.940	1.373	2.361	2.382	1.512	1.122	1.226	1.677	3.064	7.016	17.03	41.55	71.32	74.92	22.02	5.447	0.719	0.469	0.403	0.451
290.0	261.6	254.1	207.8	121.0	67.74	61.23	81.41	167.5	390.3	481.3	381.1	751.3	2724	7398	8298	2015	36.43	7.271	5.098	3.603	2.894	2.469	2.130	1.805	1.669	1.364	1.343	1.290	1.161	1.174	0.941	0.919	0.883	0.859	0.876	0.888	1.001	0.963	0.919	0.850	0.798	0.823	0.875	0.830	0.903	1.089	0.936	1.062	0.994	0.777	0.602	0.557	0.532	0.518	0.514	0.622	0.599	0.763	0.973	1.361	2.188	2.687	2.703	2.228	1.950	2.165	3.166	5.363	11.08	21.74	40.91	56.21	48.04	49.92	13.61	5.107	0.770
295.0	378.5	388.3	322.6	191.7	107.3	89.87	111.0	166.9	292.8	615.3	806.0	682.5	1042	1942	5103	9999.9	2732	43.74	7.187	4.743	3.709	2.707	2.329	2.014	1.849	1.622	1.468	1.373	1.117	1.107	0.995	0.915	0.941	0.909	0.993	1.000	1.137	1.213	0.992	1.014	0.893	0.969	1.023	1.084	1.206	1.272	1.335	1.416	1.259	1.035	0.862	0.754	0.750	0.729	0.626	0.699	0.736	0.821	1.101	1.172	1.643	1.997	2.812	4.302	4.057	3.611	3.105	3.701	4.689	7.044	10.79	14.07	17.71	47.48	83.58	80.22	21.12
300.0	448.8	484.0	405.2	235.1	133.6	113.9	137.6	189.6	293.5	541.1	1027	921.8	776.6	749.9	1381	7275	9999.9	503.8	25.19	6.163	4.308	3.238	2.399	2.369	1.999	1.887	1.687	1.446	1.197	1.207	1.136	1.109	0.917	0.920	0.952	1.143	1.198	1.212	1.052	1.127	0.979	1.062	1.178	1.255	1.338	1.555	1.455	1.520	1.424	1.181	0.958	0.904	0.842	0.844	0.762	0.735	0.837	1.119	1.155	1.341	1.576	2.042	2.561	3.599	4.935	5.442	4.468	3.790	4.048	4.141	4.499	4.702	4.970	12.47	32.06	75.88	101.7
305.0	500.1	548.7	463.5	268.2	157.2	130.7	162.0	223.5	334.1	537.7	932.5	1237	853.0	540.4	464.6	1993	9212	8587	363.3	12.17	6.085	3.967	3.212	2.559	2.105	1.769	1.736	1.572	1.275	1.267	1.084	1.122	0.929	0.900	1.014	1.155	1.315	1.380	1.272	1.174	1.116	1.234	1.237	1.226	1.449	1.597	1.597	1.789	1.725	1.253	1.097	0.891	0.851	0.895	0.746	0.865	1.012	1.177	1.192	1.547	1.725	2.102	2.593	3.374	4.382	5.473	6.161	5.599	4.791	3.939	3.248	2.669	2.409	3.655	7.994	20.45	50.47
310.0	505.2	563.8	482.1	280.7	172.8	146.7	173.1	248.3	358.0	552.8	817.5	1127	1126	612.5	298.2	536.6	2452	7046	6731	1501	26.17	5.945	4.114	3.068	2.569	2.226	1.846	1.678	1.438	1.393	1.173	1.151	1.052	0.928	1.010	1.203	1.468	1.487	1.274	1.262	1.148	1.261	1.305	1.395	1.549	1.685	1.747	1.897	1.731	1.374	1.116	0.998	0.940	0.900	0.874	0.842	1.151	1.151	1.316	1.618	1.834	2.222	2.725	3.292	3.893	4.372	5.203	5.780	6.236	5.379	3.629	2.559	1.925	1.910	2.731	5.342	12.17
315.0	519.5	574.0	486.5	290.5	180.8	161.9	185.9	259.8	370.2	547.9	767.1	935.5	1018	848.6	344.8	238.1	616.4	1644	4232	9702	2132	29.45	5.689	4.109	3.239	2.464	2.060	1.832	1.432	1.467	1.358	1.354	1.101	0.963	0.988	1.183	1.266	1.288	1.424	1.230	1.322	1.327	1.360	1.518	1.613	1.710	1.720	1.868	1.778	1.421	1.075	1.045	1.060	0.913	0.868	0.906	1.153	1.236	1.456	1.716	1.889	2.208	2.670	3.253	3.609	4.054	4.543	4.712	5.100	5.405	5.497	3.997	2.263	1.596	1.762	2.098	3.445
320.0	491.6	572.6	482.7	299.7	191.1	168.3	200.1	263.5	375.3	535.2	738.2	860.6	858.1	838.5	517.0	211.1	226.6	422.7	1073	6215	8955	374.0	18.06	5.393	3.808	2.939	2.294	2.168	1.748	1.488	1.283	1.251	1.053	1.106	1.004	1.207	1.250	1.242	1.260	1.237	1.211	1.150	1.334	1.403	1.477	1.635	1.777	1.917	1.816	1.505	1.158	1.127	1.006	0.971	1.041	1.031	1.179	1.230	1.423	1.656	1.925	2.154	2.516	2.929	3.480	4.028	4.273	4.058	4.469	4.262	4.626	4.954	3.850	2.552	1.751	1.581	1.723
325.0	520.8	595.8	519.2	330.5	208.0	175.6	204.9	264.7	376.2	527.7	712.7	816.8	794.1	688.9	650.5	315.0	165.7	170.5	290.4	1654	7473	7046	285.0	9.646	5.174	3.692	2.621	2.352	2.028	1.743	1.448	1.184	1.196	1.104	1.123	1.109	1.296	1.282	1.411	1.229	1.245	1.193	1.171	1.521	1.534	1.653	1.812	2.041	1.914	1.571	1.183	1.239	1.075	1.040	1.162	1.043	1.166	1.199	1.498	1.689	1.977	2.103	2.523	2.967	3.342	3.917	3.976	4.168	3.887	4.237	3.754	4.144	4.293	3.959	2.819	1.671	1.520
330.0	518.0	626.4	574.1	390.0	245.6	196.8	217.2	274.9	373.1	512.6	675.7	777.1	761.4	622.2	529.9	481.8	281.8	148.5	140.1	424.5	1972	5620	5479	1297	22.13	5.056	3.655	2.657	2.237	1.928	1.649	1.346	1.286	1.084	1.036	1.132	1.354	1.356	1.293	1.268	1.265	1.228	1.209	1.495	1.565	1.880	2.076	2.233	2.024	1.723	1.395	1.393	1.238	1.134	1.224	1.107	1.218	1.247	1.574	1.763	2.083	2.263	2.493	2.759	3.205	3.561	3.777	3.961	4.008	3.956	3.625	3.427	3.272	3.349	3.644	3.264	2.581
335.0	535.5	632.6	595.1	439.6	291.1	236.8	242.2	291.3	375.8	502.2	644.6	736.4	739.8	617.3	482.3	414.5	453.1	256.3	143.2	178.0	503.1	1321	3336	8281	2012	27.48	5.135	3.756	2.651	2.299	2.007	1.507	1.404	1.141	1.001	1.145	1.267	1.155	1.231	1.068	1.223	1.216	1.315	1.519	1.612	1.874	1.934	2.215	2.311	1.797	1.422	1.606	1.342	1.253	1.258	1.189	1.377	1.547	1.616	1.793	1.863	2.199	2.510	2.719	3.098	3.555	3.353	3.621	3.947	3.724	3.569	3.351	3.217	2.980	2.721	2.829	3.402
340.0	531.4	647.4	638.0	479.0	337.1	267.0	269.0	303.0	378.4	496.0	625.7	714.8	721.1	619.7	492.7	390.1	418.6	403.6	200.0	149.4	199.5	361.1	858.8	5093	7858	341.7	17.73	5.075	3.346	2.612	2.241	1.718	1.447	1.159	1.194	1.121	1.329	1.266	1.417	1.100	1.234	1.283	1.412	1.444	1.575	1.908	2.008	2.179	2.342	1.907	1.669	1.874	1.618	1.366	1.338	1.361	1.347	1.479	1.581	1.820	1.909	2.282	2.520	2.847	3.021	3.382	3.289	3.792	3.909	3.742	3.486	3.402	3.281	3.072	2.818	2.702	2.877
345.0	540.0	632.6	639.3	502.9	371.4	290.3	285.8	323.4	387.5	486.8	611.2	692.0	701.3	625.0	511.7	405.6	362.2	433.7	321.2	181.9	157.0	170.0	257.9	1357	6050	6359	280.7	9.373	4.091	3.252	2.520	1.833	1.472	1.177	1.216	1.067	1.189	1.200	1.180	1.229	1.128	1.272	1.346	1.423	1.619	1.929	2.031	2.211	2.398	2.221	1.776	1.856	1.622	1.496	1.522	1.423	1.483	1.646	1.615	1.717	1.987	2.337	2.520	2.600	2.940	3.274	3.351	3.682	3.720	3.665	3.581	3.426	3.250	3.085	2.763	2.820	2.757
350.0	516.4	626.0	632.8	531.0	411.3	336.1	327.4	346.4	398.0	487.9	596.3	663.1	680.0	621.0	533.4	437.5	381.5	374.5	405.2	320.1	205.9	167.3	157.5	372.7	1586	4473	4417	1227	20.92	4.704	3.145	2.308	1.817	1.397	1.318	1.128	1.288	1.163	1.210	1.154	1.184	1.304	1.309	1.514	1.656	1.966	1.978	2.230	2.339	2.149	1.943	1.897	1.893	1.813	1.604	1.583	1.627	1.758	1.742	1.939	2.016	2.292	2.425	2.680	2.973	3.126	3.221	3.389	3.486	3.663	3.489	3.508	3.459	3.190	2.963	3.049	2.874
355.0	496.7	604.2	634.4	545.4	443.1	398.5	374.5	385.0	434.5	496.1	585.0	643.9	659.4	619.2	556.9	478.2	424.1	385.6	377.3	421.1	337.9	219.7	174.7	186.8	423.4	1053	2379	6572	1991	26.48	4.752	3.123	2.160	1.860	1.485	1.426	1.382	1.252	1.265	1.237	1.264	1.245	1.269	1.515	1.664	1.777	2.119	2.240	2.245	2.102	1.874	2.094	2.118	1.900	1.815	1.858	1.848	1.888	1.974	1.962	2.181	2.496	2.421	2.778	2.685	3.258	3.104	3.119	3.359	3.464	3.530	3.273	3.646	3.450	3.204	3.363	3.257
360.0	478.3	586.1	633.8	551.4	484.4	431.6	410.8	419.1	453.8	518.3	589.2	638.1	653.4	624.4	569.4	500.9	458.4	418.5	392.7	406.2	432.3	297.6	209.6	170.0	184.0	294.4	605.4	3635	6680	334.5	18.62	4.426	2.780	2.146	1.479	1.461	1.386	1.325	1.157	1.247	1.210	1.244	1.297	1.388	1.599	1.739	1.935	2.272	2.221	2.090	1.929	2.084	2.045	2.106	1.939	2.009	2.084	1.899	2.302	2.219	2.379	2.483	2.595	2.728	2.844	3.060	3.138	3.242	3.319	3.481	3.510	3.389	3.664	3.525	3.381	3.500	3.233
365.0	479.4	606.5	615.4	557.4	503.1	453.5	444.3	452.8	477.1	541.0	595.5	639.7	652.6	628.7	582.4	526.3	484.6	453.3	420.6	403.2	432.9	403.7	261.0	194.4	155.7	143.1	186.5	943.9	4596	5825	286.6	9.767	3.508	2.449	1.923	1.520	1.349	1.310	1.283	1.293	1.265	1.314	1.436	1.298	1.507	1.719	1.856	1.981	2.265	2.079	2.009	2.188	2.368	2.092	2.126	2.158	2.081	2.160	2.356	2.155	2.317	2.532	2.761	2.827	2.932	2.890	3.035	3.231	3.439	3.493	3.380	3.500	3.509	3.693	3.456	3.541	3.549
370.0	474.8	582.1	611.0	575.9	532.8	493.0	482.4	486.2	504.5	552.3	604.1	636.8	642.7	624.7	589.1	542.8	512.1	489.8	464.6	436.1	423.6	435.0	375.6	256.3	185.3	140.1	118.8	262.5	1174	3666	4968	1186	19.76	3.909	2.513	1.789	1.593	1.461	1.428	1.333	1.263	1.360	1.373	1.512	1.617	1.960	1.881	2.118	2.207	2.161	2.019	2.310	2.377	2.212	2.271	2.269	2.283	2.430	2.461	2.373	2.528	2.676	2.729	2.799	3.125	2.990	2.993	3.172	3.246	3.405	3.437	3.563	3.563	3.451	3.650	3.605	3.844
375.0	476.5	581.9	616.1	597.4	563.5	527.7	522.3	521.2	533.1	576.0	611.7	629.7	634.1	616.8	591.2	550.2	533.2	517.4	495.5	473.1	443.3	419.3	420.5	367.1	239.4	172.2	130.3	133.9	313.0	857.6	2045	5537	1946	25.61	3.776	2.668	2.021	1.686	1.561	1.346	1.475	1.359	1.394	1.610	1.628	1.896	1.905	2.322	2.138	2.007	2.100	2.332	2.453	2.495	2.295	2.356	2.487	2.392	2.471	2.422	2.740	2.768	2.789	2.949	2.968	2.967	2.997	3.112	3.351	3.414	3.341	3.351	3.463	3.607	3.695	3.946	4.016
380.0	493.8	570.1	621.9	606.3	568.2	551.5	544.8	541.1	545.6	578.2	613.8	623.9	630.3	613.1	590.8	560.2	542.6	529.7	513.0	497.1	468.9	429.7	409.5	409.5	308.5	203.8	152.5	122.8	137.2	237.4	505.0	2710	5551	1437	17.60	3.636	2.349	2.063	1.625	1.555	1.589	1.480	1.517	1.591	1.643	1.830	1.837	2.160	2.101	1.997	1.977	2.500	2.291	2.553	2.400	2.447	2.358	2.533	2.454	2.750	2.809	2.680	2.818	3.093	3.127	3.114	3.104	3.250	3.199	3.300	3.313	3.245	3.475	3.588	3.775	3.938	4.152
385.0	477.1	579.2	620.3	604.9	585.6	579.0	562.8	559.3	564.9	585.4	613.2	627.6	633.8	615.0	591.7	562.6	547.0	536.2	524.4	509.7	481.5	444.3	409.5	399.4	373.3	251.6	179.8	139.8	113.3	113.1	151.6	683.0	3290	4911	255.4	10.56	3.013	2.300	1.729	1.594	1.491	1.464	1.540	1.578	1.637	1.961	1.900	2.107	2.241	2.095	2.094	2.442	2.376	2.389	2.540	2.411	2.531	2.564	2.603	2.779	2.874	2.891	2.710	3.008	3.141	3.006	3.105	3.212	3.139	3.245	3.284	3.502	3.362	3.770	3.601	3.889	3.934
390.0	493.3	564.5	602.4	607.7	599.4	592.1	581.0	575.2	574.9	591.4	608.3	617.5	621.6	604.5	582.4	558.1	544.2	539.2	527.7	514.1	492.6	462.3	426.5	390.6	372.1	331.0	237.5	172.0	135.4	110.1	93.57	193.0	816.7	2578	3570	1073	17.71	3.489	2.286	1.798	1.750	1.620	1.570	1.581	1.674	1.877	1.877	2.191	2.198	2.102	2.105	2.515	2.507	2.511	2.592	2.401	2.730	2.635	2.683	2.870	2.757	2.975	2.903	2.943	3.080	2.942	2.981	3.152	3.100	3.245	3.245	3.428	3.401	3.554	3.647	3.685	3.893
395.0	480.2	580.0	600.5	618.9	608.3	609.8	598.3	586.6	589.5	590.7	612.3	607.6	603.3	596.4	569.2	549.9	535.5	536.0	526.7	512.0	492.9	473.1	440.8	403.7	366.8	343.7	316.8	225.0	170.5	135.7	103.0	101.3	221.8	602.5	1266	3751	1697	24.24	3.584	2.434	1.995	1.822	1.699	1.642	1.869	1.916	1.897	2.141	2.220	2.248	2.023	2.323	2.486	2.533	2.600	2.631	2.753	2.744	2.832	2.863	2.904	3.091	2.983	2.980	2.841	2.805	3.023	3.145	2.916	3.124	3.275	3.257	3.320	3.444	3.372	3.537	3.740
400.0	478.1	579.8	603.1	609.9	603.2	618.2	608.0	597.0	606.3	600.5	606.5	599.3	598.5	590.8	564.1	541.1	529.1	526.5	520.0	507.9	493.2	477.6	446.6	413.4	371.2	337.6	336.3	280.2	202.4	159.0	120.7	93.70	99.62	167.1	311.4	1597	3961	1315	17.99	3.273	2.334	2.075	1.943	1.723	1.940	1.835	1.903	2.228	2.430	2.176	1.993	2.492	2.382	2.593	2.750	2.636	2.875	2.846	2.784	2.873	2.936	2.973	2.886	2.890	2.827	2.749	3.051	2.988	3.038	3.036	3.284	3.250	3.346	3.289	3.354	3.575	3.690
405.0	475.3	566.6	580.9	603.5	613.4	620.0	603.8	598.3	605.2	605.4	608.6	601.2	589.4	573.9	560.2	529.5	516.0	520.7	511.9	501.5	490.4	471.1	449.0	418.2	383.1	342.2	323.7	316.8	246.7	180.9	140.2	103.9	82.07	79.46	98.39	393.4	2009	3688	234.6	11.87	2.945	2.286	1.832	1.794	1.930	2.011	1.997	2.096	2.314	2.177	2.048	2.498	2.427	2.649	2.743	2.713	2.711	2.864	2.852	2.786	2.831	2.937	2.863	2.947	2.720	2.704	2.911	3.004	3.065	3.028	3.249	3.332	3.305	3.345	3.128	3.563	3.828
410.0	450.3	547.7	581.8	595.2	616.0	614.3	603.9	596.7	595.9	592.1	601.4	589.8	583.1	562.0	540.1	515.9	502.1	496.0	493.0	486.0	475.8	464.1	447.1	421.1	391.7	353.7	321.1	310.0	294.7	229.8	167.0	125.6	93.34	71.93	60.73	114.7	488.8	1700	2576	998.6	17.58	3.233	2.307	2.124	2.095	2.131	2.051	2.114	2.234	2.128	2.044	2.499	2.520	2.497	2.703	2.661	2.816	2.829	2.888	2.838	2.918	2.890	2.912	2.818	2.861	2.760	3.016	2.900	3.000	3.091	3.097	3.209	3.207	3.198	3.243	3.386	3.485
415.0	447.3	527.3	568.4	585.0	592.4	599.1	609.1	600.8	594.9	591.3	597.6	578.3	562.4	543.6	518.4	493.4	481.7	475.6	468.7	463.6	456.1	448.8	436.5	415.7	392.8	358.8	326.7	301.9	288.1	278.1	208.2	147.7	111.6	82.15	62.51	60.10	133.6	396.3	826.0	2584	1547	23.97	3.441	2.561	2.237	2.223	1.934	2.178	2.267	1.980	2.008	2.461	2.473	2.648	2.592	2.569	2.858	2.776	2.613	2.851	2.971	2.877	2.959	2.796	2.752	2.887	2.994	2.844	3.006	2.908	2.975	2.981	2.969	3.107	3.265	3.369	3.141
420.0	448.3	513.5	568.7	562.8	579.7	594.7	591.1	595.3	596.2	581.3	584.8	568.2	545.8	524.3	497.4	469.9	460.5	453.7	444.9	447.1	440.1	430.3	425.7	405.6	385.8	359.6	329.0	303.8	281.3	279.0	240.2	167.8	123.7	93.25	69.06	54.44	58.81	108.8	200.8	990.9	2879	1213	17.97	2.903	2.311	2.487	1.979	2.052	2.240	1.972	1.997	2.229	2.385	2.568	2.659	2.502	2.994	2.913	2.763	2.782	2.898	2.789	2.853	2.860	2.674	2.892	2.784	2.776	2.817	2.826	3.035	2.991	3.030	2.855	3.083	3.169	3.205
425.0	456.4	492.4	540.2	557.4	577.9	586.1	595.3	590.5	591.9	582.0	572.5	559.7	530.5	509.6	481.5	454.6	441.4	435.1	427.7	427.5	424.4	412.4	410.1	394.1	377.2	355.4	330.2	306.1	282.7	265.7	255.1	196.6	137.3	102.9	77.31	59.42	47.79	48.22	61.93	240.2	1295	2805	227.8	11.87	2.900	2.415	2.203	2.158	2.198	2.074	1.897	2.281	2.500	2.371	2.666	2.572	2.794	2.794	2.722	2.887	2.854	2.690	2.803	2.765	2.693	2.682	2.938	2.714	2.871	2.866	2.850	2.892	2.731	2.770	3.030	3.329	3.272
430.0	636.0	484.0	531.6	539.7	571.3	572.7	574.4	583.8	581.2	571.5	560.7	544.2	523.6	494.0	460.8	432.0	420.2	411.3	407.1	403.1	401.3	394.3	390.8	381.4	365.4	347.7	327.7	307.7	284.8	262.2	241.9	218.1	165.7	118.8	90.19	68.54	52.86	41.77	36.29	69.85	310.5	1175	1983	933.5	16.67	3.477	2.429	2.373	2.191	2.080	1.962	2.337	2.420	2.394	2.543	2.480	2.645	2.640	2.818	2.785	2.740	2.776	2.670	2.837	2.642	2.724	2.653	2.755	2.705	2.684	2.709	2.750	2.840	2.751	2.836	3.065	3.042
435.0	1232	510.1	513.4	524.1	558.9	559.8	556.7	567.0	575.7	561.3	560.2	536.2	513.0	477.9	438.4	412.0	396.3	386.9	384.3	381.4	376.0	373.3	371.4	366.8	353.8	339.4	321.9	304.5	284.1	263.8	234.4	211.7	192.3	142.8	103.7	79.88	61.59	47.68	36.94	37.42	85.19	274.3	598.0	2109	1474	23.24	3.218	2.560	2.373	1.974	1.946	2.496	2.313	2.437	2.602	2.466	2.580	2.495	2.807	2.607	2.776	2.622	2.732	2.706	2.831	2.792	2.713	2.634	2.469	2.720	2.579	2.658	2.641	2.596	2.740	2.847	2.774
440.0	1574	705.7	495.7	505.7	540.7	544.9	554.3	563.8	568.3	554.5	550.6	534.3	501.1	463.2	428.9	395.2	383.6	371.7	366.3	362.2	358.0	356.8	354.3	350.2	343.7	329.6	315.3	298.5	280.7	260.4	237.2	207.3	190.0	165.0	116.1	87.68	68.47	53.30	41.38	33.13	37.99	75.58	146.0	789.1	2563	1147	15.98	3.380	2.409	2.102	1.967	2.286	2.325	2.361	2.400	2.374	2.549	2.656	2.719	2.744	2.765	2.659	2.673	2.645	2.909	2.567	2.814	2.598	2.599	2.452	2.768	2.592	2.609	2.652	2.587	2.722	2.833
445.0	1414	1185	476.6	497.1	516.5	528.5	540.1	553.5	552.8	551.5	537.9	522.5	483.2	449.3	413.0	381.8	369.1	351.4	349.1	344.8	341.6	340.5	339.5	334.2	330.3	317.8	305.1	291.8	277.0	260.5	234.9	203.8	179.2	171.1	133.3	96.27	74.20	58.78	45.74	35.88	29.81	33.52	45.78	190.8	1132	2580	194.6	10.92	2.678	2.289	2.114	2.390	2.187	2.255	2.372	2.345	2.657	2.655	2.479	2.795	2.625	2.852	2.664	2.743	2.687	2.617	2.861	2.461	2.402	2.313	2.621	2.545	2.377	2.475	2.560	2.500	2.656
450.0	761.4	1813	731.5	471.7	489.5	504.8	517.6	530.5	529.7	528.8	516.1	495.9	461.8	424.4	388.5	359.2	341.1	331.0	324.7	320.4	317.0	316.6	315.9	311.2	306.9	296.8	288.1	276.4	266.3	251.3	229.6	200.9	174.2	156.1	142.9	113.0	82.44	64.78	52.02	40.59	32.72	28.31	26.10	55.48	269.9	1070	1762	810.2	13.98	2.935	2.205	2.353	2.362	2.201	2.302	2.277	2.550	2.563	2.431	2.727	2.623	2.732	2.605	2.644	2.535	2.437	2.634	2.417	2.388	2.377	2.383	2.340	2.570	2.377	2.412	2.420	2.567
455.0	407.0	1426	1714	490.3	459.0	468.4	488.5	500.6	500.1	503.3	491.9	470.4	440.5	398.9	359.0	332.1	316.2	303.2	294.4	291.8	287.5	289.1	287.5	285.8	280.9	273.3	264.1	258.9	251.0	238.7	219.7	195.2	170.7	147.0	130.9	122.8	96.12	70.31	56.70	45.84	37.06	30.67	24.44	26.99	71.38	247.7	532.1	1701	1138	16.74	2.821	2.430	2.417	2.189	2.383	2.109	2.522	2.359	2.604	2.408	2.459	2.673	2.490	2.580	2.443	2.316	2.350	2.289	2.361	2.343	2.084	2.220	2.328	2.258	2.235	2.451	2.298
460.0	326.7	780.8	2221	670.4	438.7	444.7	469.9	472.3	481.6	471.6	467.9	449.6	411.1	379.6	341.9	312.6	292.9	281.1	273.1	269.8	267.5	266.8	265.3	264.5	261.5	255.2	250.6	243.5	238.1	225.1	211.4	187.7	164.6	142.4	123.5	117.7	104.4	76.52	59.33	49.31	40.21	33.07	26.24	22.65	28.55	65.57	127.6	642.6	1924	763.3	11.51	2.862	2.529	2.375	2.394	2.127	2.354	2.313	2.391	2.457	2.446	2.371	2.244	2.325	2.300	2.359	2.254	2.324	2.164	2.261	2.101	2.230	2.306	1.985	2.038	2.271	2.028
465.0	318.4	455.9	1947	1460	430.5	421.1	437.1	448.9	455.7	445.7	442.5	427.8	392.8	355.9	322.2	295.8	274.0	264.2	255.8	251.4	245.5	247.1	244.5	243.1	242.9	235.5	231.6	229.7	223.2	213.2	201.9	182.9	159.0	136.9	120.1	106.6	103.5	85.20	62.25	50.98	42.41	34.67	28.09	23.27	20.54	25.78	37.18	154.2	894.1	1773	151.0	7.751	2.760	2.387	2.359	1.985	2.329	2.343	2.325	2.370	2.378	2.225	2.197	2.206	2.290	2.265	2.262	2.067	2.007	2.073	2.060	1.950	2.185	2.103	2.109	2.099	1.997
470.0	304.6	328.4	953.7	2174	802.9	385.0	401.9	410.1	419.2	419.3	409.2	391.7	360.2	328.1	294.0	265.9	246.7	237.3	229.5	226.5	221.7	221.7	219.6	219.2	217.1	211.8	209.8	207.5	203.9	196.8	186.6	169.1	148.3	130.7	114.3	100.4	92.51	87.64	69.99	53.78	43.74	36.48	30.61	24.66	20.35	18.16	17.86	42.14	213.7	791.7	1075	631.0	12.58	2.764	2.482	1.990	2.381	2.129	2.028	2.161	2.184	2.271	2.230	2.025	2.204	2.025	1.981	2.008	1.929	1.998	1.974	1.901	1.959	1.882	1.929	2.067	1.967
475.0	282.4	301.9	443.7	1556	1891	412.4	364.9	370.8	387.9	385.1	383.0	357.7	326.9	296.6	266.8	240.1	224.7	212.9	205.2	201.4	198.8	195.6	193.2	194.2	193.2	189.4	187.1	184.8	181.8	177.6	170.7	155.0	138.6	122.9	108.1	94.43	82.74	77.59	74.63	59.39	46.25	36.92	31.57	26.28	21.29	18.04	14.40	18.29	54.41	181.9	348.5	1192	770.9	16.21	2.852	2.110	2.114	2.038	2.067	1.958	2.007	2.165	1.986	2.057	2.156	1.791	1.848	1.796	1.827	1.803	1.885	1.886	1.609	1.579	1.803	1.829	1.666
480.0	273.0	295.0	312.7	784.6	2399	739.6	342.1	353.6	363.6	363.7	355.1	334.0	304.5	279.6	247.6	225.3	208.3	196.1	189.6	185.5	181.7	179.5	179.5	178.3	177.4	175.5	172.7	170.6	168.4	166.5	158.3	145.5	130.6	115.8	103.0	90.68	80.29	71.00	70.07	63.79	48.88	37.62	32.50	27.14	22.55	18.89	15.04	13.24	19.55	46.56	83.80	470.8	1409	187.2	10.49	2.454	2.077	2.017	1.934	1.849	1.878	1.941	1.938	1.998	1.849	1.646	1.808	1.826	1.678	1.774	1.821	1.634	1.519	1.664	1.638	1.753	1.689
485.0	240.8	300.4	274.4	410.8	2040	1483	337.0	331.7	342.1	346.0	341.8	315.4	291.5	267.5	233.4	210.7	195.2	184.3	176.0	170.6	170.0	166.1	167.2	167.0	163.2	162.3	161.0	160.1	158.3	155.6	147.2	138.7	125.4	112.2	99.62	88.06	78.16	69.46	64.06	63.34	52.35	39.44	33.30	28.05	23.37	19.55	16.12	12.80	12.40	16.91	23.89	113.7	740.2	1305	158.1	4.646	2.326	1.913	1.930	1.986	1.897	1.755	1.834	1.853	1.733	1.661	1.722	1.701	1.489	1.587	1.611	1.480	1.444	1.683	1.484	1.498	1.527
490.0	196.3	275.5	269.5	294.9	944.4	2244	665.6	306.8	315.5	320.0	313.3	296.6	273.8	247.0	217.8	194.5	181.5	168.8	161.3	156.1	154.1	151.6	152.3	151.3	148.0	147.2	146.4	145.9	145.7	143.9	136.8	128.6	116.1	103.9	92.84	83.02	74.64	66.76	59.63	57.22	53.60	44.21	34.25	28.94	24.43	20.66	16.90	14.12	11.83	10.80	11.12	30.48	179.0	644.2	1097	487.9	11.87	2.426	2.008	1.971	1.867	1.755	1.777	1.727	1.649	1.622	1.605	1.688	1.515	1.480	1.532	1.485	1.397	1.401	1.486	1.384	1.464
495.0	167.9	242.5	261.0	249.4	397.3	1648	1743	321.7	290.6	291.1	287.5	271.7	251.2	223.7	200.4	178.3	166.3	151.6	145.5	139.6	138.7	135.6	135.8	136.0	133.0	130.8	129.3	131.0	129.9	130.4	125.4	116.8	106.0	95.55	85.48	78.84	69.84	62.54	56.30	51.04	48.66	47.23	37.97	29.82	25.26	21.59	17.45	15.12	12.71	10.25	8.953	12.06	44.65	148.1	411.1	1233	657.9	14.49	2.257	1.993	1.678	1.904	1.765	1.713	1.532	1.613	1.474	1.449	1.363	1.549	1.385	1.399	1.373	1.269	1.379	1.335	1.453
500.0	161.0	210.1	265.4	228.5	265.8	811.1	2417	580.7	267.5	270.8	269.2	252.8	228.7	206.4	183.0	164.8	148.5	140.9	134.0	127.7	126.1	122.8	121.0	123.2	121.3	119.2	119.1	119.0	119.5	118.0	114.9	106.4	98.86	88.81	79.75	74.01	65.99	59.30	53.01	47.69	44.02	44.38	40.65	31.58	25.14	21.99	17.90	15.66	13.07	10.76	8.684	8.432	15.32	37.22	97.86	553.4	1323	188.6	7.016	2.105	1.657	1.864	1.714	1.537	1.497	1.515	1.473	1.452	1.322	1.435	1.363	1.344	1.164	1.174	1.277	1.302	1.395
505.0	147.5	173.8	240.1	227.2	220.2	375.5	2183	1255	251.5	248.6	245.6	234.2	211.0	189.1	172.2	150.4	137.8	129.0	121.2	116.4	114.5	113.8	110.7	112.1	109.6	107.7	107.9	108.8	108.9	107.1	104.3	98.53	90.57	81.90	74.99	67.22	60.92	55.44	49.86	44.41	40.65	39.18	39.68	32.47	25.26	21.49	18.26	15.54	12.88	11.00	9.296	7.980	8.667	13.06	26.02	135.5	763.4	1092	137.6	3.012	1.809	1.711	1.577	1.536	1.493	1.436	1.297	1.359	1.328	1.232	1.246	1.246	1.193	1.143	1.151	1.183	1.268
510.0	127.4	153.9	188.2	231.9	194.0	228.3	1035	2172	523.4	225.0	222.5	206.0	188.9	170.6	149.7	134.1	123.4	113.5	107.0	103.9	100.9	99.59	96.69	97.87	95.65	94.07	95.19	94.53	95.19	94.80	91.91	86.89	81.09	72.99	66.84	60.41	55.47	49.93	45.41	41.04	37.22	34.80	33.73	33.30	27.16	21.19	17.45	15.16	12.81	10.98	9.468	7.917	7.368	7.840	10.08	34.04	187.6	609.6	832.9	296.3	9.392	1.720	1.585	1.472	1.320	1.228	1.263	1.241	1.178	1.160	1.148	1.060	1.078	1.071	1.113	1.147	1.051
515.0	118.0	130.9	145.5	202.9	187.0	180.6	374.6	1807	1561	227.3	194.2	182.2	165.8	149.9	130.0	115.4	107.1	100.3	94.29	88.79	87.28	85.44	84.34	83.37	82.61	81.17	81.09	81.90	80.87	82.25	78.92	76.38	69.82	63.39	57.76	53.55	49.38	44.22	41.47	36.83	33.65	31.01	28.20	28.83	27.67	22.41	17.10	14.35	12.45	10.60	9.430	8.143	7.073	6.473	6.445	11.11	44.99	139.2	343.8	885.9	193.3	9.174	1.583	1.398	1.299	1.228	1.125	1.136	1.174	1.049	1.087	0.997	0.994	0.958	1.085	1.020	1.013
520.0	98.31	114.9	128.2	167.4	194.0	159.2	207.7	921.7	2375	429.6	174.6	167.1	150.0	135.8	117.3	103.7	96.17	89.34	83.53	78.82	76.87	74.97	75.17	73.34	72.46	71.48	71.22	71.54	72.18	71.47	70.16	66.84	62.47	57.92	52.24	48.16	45.03	40.83	37.60	33.97	30.33	27.81	25.33	25.12	26.08	22.97	17.06	14.20	12.01	10.42	8.899	8.148	7.179	6.353	5.495	6.114	13.29	33.84	82.27	452.3	822.0	150.6	3.177	1.370	1.293	1.232	1.134	1.065	1.072	0.985	1.178	0.909	0.886	0.808	0.901	0.859	0.873
525.0	85.65	113.2	114.6	135.8	185.1	148.5	156.1	369.7	2314	1041	163.5	151.7	137.0	122.6	106.6	95.05	86.56	81.36	75.88	70.90	68.50	67.49	67.29	67.30	64.58	65.02	64.00	64.12	64.42	65.34	63.24	60.92	56.72	52.06	47.24	44.29	40.32	37.58	34.44	31.31	28.58	25.87	23.76	22.07	22.94	22.77	17.45	13.77	11.79	9.671	8.583	7.635	7.018	6.394	5.132	5.136	6.246	10.33	20.77	113.7	552.0	691.7	25.42	1.752	1.259	1.132	1.088	1.019	1.056	0.993	1.025	0.942	0.888	0.845	0.816	0.752	0.916
530.0	80.75	98.45	102.1	110.4	155.4	154.5	128.0	184.9	1134	2070	381.4	132.0	121.5	106.8	93.03	83.41	75.84	70.40	66.09	62.94	59.81	58.32	58.19	57.25	57.09	55.52	56.15	55.99	55.60	56.99	55.24	52.33	48.69	45.28	41.38	38.14	34.90	33.01	30.36	27.91	25.73	23.48	21.47	19.89	18.70	19.49	18.09	14.25	11.16	9.384	8.076	7.316	6.572	6.076	5.329	4.787	4.568	5.058	7.104	27.61	139.0	427.5	529.7	110.0	6.821	1.187	1.069	1.029	0.960	0.869	0.923	0.875	0.832	0.770	0.757	0.731	0.783
535.0	73.31	82.49	88.53	94.00	116.3	150.9	117.9	127.9	355.7	1975	1299	133.1	106.5	93.79	81.64	73.50	64.97	59.02	57.00	54.32	51.53	49.93	49.73	48.88	48.53	46.91	46.95	47.35	47.15	48.81	48.22	44.91	41.89	38.89	35.23	33.18	30.53	28.62	26.13	24.33	22.24	20.56	19.08	17.57	16.19	15.72	16.12	14.93	11.37	8.719	7.736	6.901	6.249	5.517	5.378	4.703	4.104	3.839	3.890	8.334	32.75	97.64	243.4	580.5	165.7	5.051	1.147	0.930	0.964	0.775	0.772	0.799	0.823	0.835	0.679	0.679	0.690
540.0	67.65	73.79	76.72	79.56	94.02	136.8	119.2	107.0	161.1	1034	2277	185.0	97.06	83.13	72.54	66.04	58.41	53.47	49.88	48.56	46.02	44.47	43.97	43.18	42.37	41.41	41.53	42.08	41.58	42.34	42.72	39.39	36.86	34.56	31.71	29.47	27.39	25.66	24.20	21.87	20.26	18.72	17.34	15.61	15.27	13.82	13.90	14.68	12.15	8.423	7.116	6.715	5.801	5.188	5.175	4.874	3.968	3.512	3.136	3.870	8.932	23.39	59.08	326.5	552.4	28.04	1.927	0.968	0.874	0.693	0.835	0.680	0.713	0.750	0.795	0.775	0.628
545.0	63.87	74.74	72.95	71.12	81.71	111.2	132.0	97.56	107.6	376.6	2436	755.7	89.15	76.69	65.24	59.10	53.26	47.86	45.92	42.96	40.30	39.45	38.87	38.33	38.28	37.16	36.24	37.03	36.98	37.81	37.74	35.78	33.55	30.69	28.42	26.31	24.60	23.08	21.40	20.02	18.56	17.09	15.89	14.52	14.07	12.48	12.08	12.71	12.30	8.454	6.719	6.468	5.276	4.925	4.722	4.696	3.845	3.201	2.938	2.689	3.808	6.765	14.82	83.64	396.1	439.2	22.66	1.294	0.782	0.766	0.749	0.639	0.637	0.666	0.672	0.686	0.584
550.0	60.20	67.31	67.35	65.02	71.19	82.45	128.8	96.63	87.98	152.9	1231	1790	233.3	66.40	56.89	50.50	46.40	41.21	40.53	38.17	35.39	33.91	34.22	33.35	33.01	31.77	31.36	31.79	31.87	32.62	32.33	30.42	28.92	26.88	24.63	23.16	21.69	20.49	18.66	17.59	16.30	14.90	14.15	13.22	12.70	11.27	10.29	10.02	10.49	9.154	7.055	5.665	5.098	4.838	4.374	4.119	3.767	3.335	2.692	2.373	2.428	2.998	4.666	19.94	101.3	299.2	307.4	99.39	5.127	0.806	0.705	0.640	0.665	0.643	0.631	0.654	0.608
555.0	49.58	59.38	56.71	57.85	59.73	63.01	101.0	106.4	78.00	93.55	352.7	1980	948.0	65.01	50.60	43.95	38.89	36.35	34.67	32.27	30.26	28.74	29.49	28.86	27.92	27.62	27.02	26.80	27.36	27.25	27.02	26.11	24.52	22.20	21.00	19.47	18.59	17.23	16.24	15.11	13.91	12.65	12.25	11.59	10.79	9.823	9.117	8.378	8.092	8.327	7.464	5.471	4.515	4.333	3.960	3.556	3.412	3.257	2.763	2.134	2.094	2.038	2.170	5.673	23.58	68.46	164.2	410.3	136.9	3.472	0.795	0.699	0.625	0.663	0.587	0.569	0.625
560.0	55.45	57.53	52.68	53.77	55.89	54.11	74.89	114.0	72.25	75.52	134.4	1090	1900	115.9	45.10	38.83	35.66	31.52	30.81	28.02	26.70	25.74	25.10	25.48	24.49	24.08	24.10	24.23	24.20	23.99	24.32	22.66	21.53	19.88	18.57	17.06	16.42	15.45	14.60	13.18	12.20	11.21	11.20	10.35	9.764	8.719	8.491	7.243	7.050	7.081	7.206	5.872	4.372	3.974	3.704	3.343	3.192	2.899	2.727	2.289	1.969	1.810	1.650	2.325	6.244	16.26	40.40	236.4	387.6	26.56	1.313	0.739	0.590	0.577	0.541	0.567	0.529
565.0	52.32	50.78	52.69	49.70	45.92	47.39	57.97	103.7	78.86	66.64	79.85	373.9	2216	474.8	40.53	34.34	30.70	28.02	26.65	25.07	24.35	23.00	22.53	21.55	21.65	21.11	21.67	21.32	20.94	21.55	20.60	20.28	18.80	17.53	16.19	15.23	14.78	13.70	13.07	11.91	11.11	10.03	9.702	9.138	8.438	7.948	7.457	6.165	6.151	5.693	6.416	5.914	4.449	3.639	3.500	3.251	3.184	2.722	2.620	2.298	1.839	1.707	1.696	1.587	2.471	4.649	9.992	61.00	280.1	224.9	19.91	0.786	0.621	0.604	0.530	0.579	0.518
570.0	51.04	52.17	45.50	44.19	39.77	42.77	45.94	72.23	95.40	62.32	64.90	132.7	1154	1406	81.82	29.67	25.78	23.57	22.13	20.89	20.08	18.99	18.67	18.34	17.68	17.53	17.57	17.28	17.30	17.60	16.58	16.50	15.49	14.33	13.45	12.60	11.81	11.34	10.82	10.04	9.107	8.596	7.956	7.815	7.186	6.676	6.352	5.478	5.218	4.651	4.783	5.202	4.466	3.553	3.111	2.834	2.516	2.316	2.288	2.141	1.950	1.634	1.507	1.370	1.530	1.935	3.089	14.44	71.98	185.3	226.7	74.30	3.070	0.592	0.510	0.581	0.506
575.0	49.80	52.43	45.59	40.36	36.24	34.11	38.00	49.21	89.30	69.54	60.66	74.12	315.6	1721	615.3	28.30	20.40	19.59	17.66	17.34	15.95	14.93	15.22	14.46	13.92	13.79	13.51	13.24	13.57	14.32	13.13	13.04	11.92	11.32	10.87	9.999	9.356	9.286	8.678	8.208	7.219	6.893	6.587	6.154	5.632	5.507	5.091	4.674	4.077	3.727	3.574	3.770	4.150	3.326	2.752	2.295	2.226	2.130	1.804	1.754	1.751	1.629	1.243	1.222	1.258	1.304	1.499	3.970	16.73	42.69	111.5	253.3	28.78	2.031	0.539	0.474	0.396
580.0	47.70	52.17	44.67	37.83	31.75	34.33	32.49	39.97	72.29	81.18	61.36	61.92	112.6	945.6	1415	62.42	17.60	16.11	14.87	13.99	13.21	12.36	11.96	11.50	11.37	11.40	10.86	10.69	11.16	11.05	10.85	10.70	9.903	9.283	8.954	8.516	7.649	7.407	6.799	7.019	5.990	5.723	5.404	5.393	4.951	4.585	4.110	3.919	3.374	3.195	2.970	2.807	3.483	3.353	2.496	1.978	1.696	1.874	1.537	1.435	1.458	1.543	1.307	1.163	1.075	1.120	1.060	1.575	4.465	10.24	27.07	141.0	207.6	23.65	0.836	0.495	0.424
585.0	45.76	52.94	42.02	35.82	29.03	28.44	31.12	34.38	52.67	92.61	62.75	59.75	66.52	311.9	1759	274.3	15.62	13.87	12.63	11.26	10.97	10.64	9.826	9.945	9.388	9.488	9.074	8.646	9.307	9.511	9.012	8.636	7.951	7.368	7.125	6.601	6.509	6.133	5.710	5.339	4.909	4.850	4.556	4.436	4.001	3.850	3.564	3.138	2.826	2.764	2.468	2.415	2.718	2.876	2.537	1.976	1.678	1.648	1.325	1.333	1.309	1.445	1.338	1.227	1.184	1.075	0.874	1.136	1.697	3.010	6.673	36.28	152.4	158.5	15.57	0.618	0.477
590.0	49.12	49.63	43.80	30.40	26.50	24.38	26.82	30.34	39.76	85.66	76.37	62.22	58.47	99.84	927.1	978.5	47.18	11.23	10.32	9.369	8.888	8.493	7.896	7.773	7.620	7.360	7.242	7.174	7.305	7.264	7.070	6.579	6.429	5.788	5.637	5.204	5.068	4.843	4.455	4.050	3.999	3.873	3.617	3.376	3.281	3.070	2.824	2.515	2.434	2.199	2.047	1.879	2.001	2.201	2.285	1.843	1.502	1.313	1.211	1.172	1.116	1.080	1.248	1.158	1.168	0.983	0.825	0.904	1.003	1.249	2.060	8.721	39.03	103.4	119.1	18.51	1.705
595.0	47.98	48.33	43.08	30.49	22.15	22.47	24.17	26.70	36.49	62.57	92.60	65.49	54.99	50.67	236.7	1206	406.4	11.25	8.004	7.487	7.184	6.495	6.277	6.040	5.991	5.617	5.661	5.448	5.315	5.839	5.559	5.196	4.943	4.576	4.380	4.023	3.723	3.793	3.166	3.178	3.055	3.056	2.767	2.769	2.680	2.293	2.267	2.095	1.886	1.622	1.660	1.520	1.505	1.639	1.840	1.719	1.418	1.098	0.920	0.975	0.935	1.040	0.986	1.044	1.138	0.953	0.819	0.828	0.906	0.914	0.999	2.417	9.209	23.65	53.56	120.5	26.53
600.0	45.88	45.39	41.52	30.19	21.60	18.97	22.91	24.12	32.32	49.89	91.07	73.40	54.89	40.13	67.86	654.8	947.9	32.18	6.953	5.913	5.997	5.270	5.221	5.353	4.870	4.777	4.904	4.294	4.610	4.868	4.390	4.294	3.969	4.002	3.674	3.491	3.145	3.086	2.877	2.689	2.579	2.525	2.314	2.191	2.156	2.126	1.970	1.739	1.684	1.517	1.456	1.243	1.250	1.187	1.472	1.417	1.468	1.164	0.925	0.879	0.838	0.945	0.860	0.890	0.982	0.980	0.796	0.786	0.760	0.936	0.738	1.011	2.587	5.676	13.08	65.93	106.8
605.0	50.49	45.96	39.84	27.89	20.32	18.95	20.92	24.39	31.98	43.66	79.36	80.82	56.03	36.10	30.04	204.4	1171	164.3	6.261	5.346	4.883	4.916	4.281	4.557	4.036	3.880	4.107	3.976	4.068	3.993	3.700	3.856	3.732	3.439	3.123	3.072	2.669	2.618	2.568	2.338	2.093	2.133	2.019	1.942	1.916	1.693	1.659	1.405	1.372	1.253	1.232	1.084	1.047	1.136	1.077	1.336	1.359	1.083	0.923	0.782	0.811	0.866	0.709	0.821	0.833	0.963	0.952	0.808	0.753	0.817	0.688	0.683	1.006	1.714	3.269	16.97	75.00
610.0	52.00	47.14	39.92	25.25	18.32	16.10	19.71	22.84	30.01	41.00	64.06	89.46	58.19	34.74	20.88	54.74	603.5	679.8	28.42	4.814	4.451	3.979	3.859	3.579	3.456	3.396	3.374	3.290	3.432	3.430	3.355	3.205	3.089	2.847	2.793	2.588	2.398	2.243	2.124	1.949	1.783	1.769	1.669	1.657	1.564	1.502	1.327	1.277	1.219	1.048	1.021	0.924	0.931	0.899	0.943	0.965	1.101	1.162	0.873	0.743	0.756	0.768	0.672	0.670	0.783	0.824	0.936	0.874	0.660	0.742	0.657	0.590	0.614	0.787	1.070	4.249	19.06
615.0	47.60	47.90	39.99	24.56	17.96	16.55	17.22	21.61	27.06	39.64	51.53	80.60	68.45	33.37	18.29	20.61	148.2	826.3	263.5	5.325	3.596	3.428	3.548	3.234	2.809	2.969	2.756	2.849	2.803	2.796	2.718	2.750	2.390	2.410	2.299	2.167	1.938	1.827	1.839	1.623	1.416	1.429	1.224	1.201	1.287	1.349	1.150	1.063	1.101	0.820	0.810	0.699	0.809	0.811	0.828	0.833	0.810	0.958	0.958	0.783	0.653	0.579	0.656	0.604	0.785	0.618	0.791	0.873	0.738	0.663	0.569	0.573	0.485	0.495	0.557	1.286	4.573
620.0	40.61	45.25	36.21	23.74	15.39	14.18	15.17	21.10	26.61	35.95	46.96	68.37	74.14	34.39	17.50	12.70	39.07	451.7	545.9	17.92	3.336	3.288	2.976	2.882	2.526	2.567	2.480	2.278	2.163	2.388	2.336	2.154	2.187	2.167	2.022	1.931	1.844	1.641	1.615	1.514	1.526	1.299	1.123	1.066	1.067	1.023	1.063	0.769	0.969	0.715	0.662	0.663	0.644	0.701	0.662	0.678	0.659	0.710	0.927	0.724	0.662	0.604	0.597	0.673	0.689	0.634	0.644	0.839	0.775	0.751	0.511	0.535	0.458	0.478	0.462	0.652	1.347
625.0	43.49	47.64	35.69	24.30	16.43	12.76	16.31	19.16	25.12	35.11	44.03	55.76	70.70	35.59	16.95	9.920	13.72	140.6	817.6	59.65	3.573	2.919	2.736	2.299	2.297	2.174	1.910	2.219	2.095	2.121	2.022	1.864	1.835	1.629	1.719	1.544	1.563	1.475	1.353	1.247	1.222	1.108	1.013	0.959	0.926	0.899	0.850	0.809	0.848	0.758	0.643	0.680	0.616	0.582	0.610	0.593	0.601	0.631	0.662	0.657	0.642	0.627	0.537	0.681	0.620	0.660	0.587	0.736	0.771	0.745	0.487	0.590	0.461	0.422	0.390	0.498	0.579
630.0	43.81	42.42	31.85	22.87	14.17	13.00	14.99	19.16	23.98	32.03	41.72	48.66	59.10	43.56	17.30	9.544	8.352	36.11	452.7	505.1	20.32	2.788	2.404	2.118	2.002	1.696	1.748	1.831	1.710	1.872	1.745	1.570	1.498	1.359	1.340	1.304	1.300	1.281	1.176	1.087	1.079	0.957	0.847	0.855	0.833	0.831	0.707	0.686	0.686	0.605	0.540	0.609	0.586	0.521	0.527	0.469	0.521	0.562	0.597	0.600	0.599	0.606	0.551	0.564	0.542	0.580	0.611	0.567	0.596	0.705	0.613	0.528	0.410	0.418	0.415	0.395	0.417
635.0	41.74	37.91	30.16	19.92	16.05	10.86	13.81	17.50	20.72	26.99	37.02	43.30	45.63	47.96	19.93	9.985	7.547	11.69	111.8	635.9	195.3	3.094	2.223	1.844	1.904	1.516	1.450	1.344	1.608	1.580	1.516	1.388	1.322	1.186	1.193	1.037	1.091	1.076	1.003	0.857	0.900	0.956	0.873	0.680	0.749	0.647	0.704	0.583	0.632	0.529	0.493	0.516	0.412	0.426	0.469	0.451	0.438	0.452	0.448	0.541	0.488	0.656	0.533	0.610	0.478	0.542	0.507	0.493	0.618	0.622	0.657	0.594	0.410	0.346	0.456	0.419	0.382
640.0	40.16	35.16	32.97	18.70	16.53	11.67	13.61	16.49	18.98	26.23	36.56	40.85	38.45	43.56	23.78	10.08	7.426	6.517	28.35	366.3	451.9	10.53	1.946	1.795	1.607	1.447	1.441	1.367	1.256	1.148	1.399	1.277	1.143	1.090	1.151	0.970	0.981	0.942	0.902	0.896	0.779	0.803	0.756	0.638	0.682	0.613	0.575	0.591	0.595	0.471	0.456	0.452	0.461	0.367	0.405	0.428	0.396	0.378	0.422	0.413	0.476	0.485	0.529	0.479	0.523	0.457	0.469	0.453	0.593	0.569	0.543	0.515	0.532	0.452	0.440	0.344	0.350
645.0	38.80	35.71	27.98	18.54	14.25	12.17	12.99	16.41	17.74	26.16	33.73	38.49	37.34	36.68	30.39	10.94	7.525	5.369	9.196	117.6	622.8	47.28	2.268	1.718	1.669	1.410	1.227	1.298	1.107	1.128	1.165	1.267	1.081	0.995	0.957	0.875	0.948	0.884	0.894	0.828	0.649	0.895	0.736	0.623	0.616	0.568	0.557	0.566	0.577	0.440	0.339	0.429	0.470	0.375	0.379	0.415	0.432	0.433	0.447	0.372	0.411	0.463	0.539	0.473	0.453	0.414	0.479	0.466	0.477	0.517	0.540	0.581	0.682	0.477	0.407	0.331	0.370
650.0	38.86	37.55	27.95	17.27	15.02	12.90	11.79	14.47	18.48	23.21	32.07	35.08	34.32	29.49	31.12	12.51	7.641	5.310	5.525	30.48	466.5	262.4	3.465	1.568	1.561	1.286	1.301	1.175	1.055	0.967	1.069	0.916	1.014	0.950	0.898	0.842	0.843	0.824	0.757	0.721	0.668	0.651	0.695	0.705	0.536	0.537	0.489	0.558	0.445	0.435	0.353	0.385	0.420	0.339	0.384	0.348	0.436	0.453	0.432	0.370	0.387	0.494	0.448	0.458	0.393	0.496	0.465	0.446	0.484	0.529	0.523	0.534	0.530	0.499	0.404	0.347	0.431
