Sample:	'1
File name:	G2025090907月六会二南路东雨水井 10倍.FD3
Run date:	'14:51:06, 09/10/2025
Operator:	Administrator
Comment:	'

Instrument
Model:	F-2700 FL Spectrophotometer
Serial number:	24D1-003
ROM Version:	4J14000 07

Instrument parameters
Measurement type:	3-D scan
Data mode:	Fluorescence
EX  Start WL:	220.0 nm
EX  End WL:	600.0 nm
EX Sampling interval:	5.0 nm
EM  Start WL:	230.0 nm
EM  End WL:	650.0 nm
EM Sampling interval:	5.0 nm
Scan speed:	12000 nm/min
EX Slit:	5.0 nm
EM Slit:	5.0 nm
PMT Voltage:	700 V
Response:	Auto 
Corrected spectra:	Off
Contour interval:	50.000

Peak integration
Integration method:	Rectangular
Sensitivity:	1
Threshold:	1.000

Peaks
No.	ApexEX/EM(nm)	Height(Data)
1	225.0/300.0	1536
2	225.0/570.0	148.2
3	225.0/585.0	150.8
4	230.0/505.0	202.8
5	235.0/515.0	171.6
6	240.0/525.0	160.4
7	245.0/540.0	144.3
8	250.0/550.0	141.3
9	255.0/280.0	720.7
10	255.0/565.0	138.2
11	260.0/575.0	140.3
12	265.0/585.0	156.5
13	270.0/300.0	2071
14	270.0/600.0	172.6
15	275.0/305.0	2437
16	275.0/335.0	1954
17	275.0/610.0	167.3
18	280.0/310.0	2221
19	280.0/620.0	135.7
20	285.0/635.0	96.58
21	315.0/355.0	340.5
22	320.0/360.0	361.9
23	325.0/365.0	332.0
24	330.0/370.0	290.5
25	335.0/380.0	311.5
26	340.0/385.0	301.7
27	345.0/390.0	261.5
28	350.0/400.0	259.3
29	355.0/405.0	264.6
30	360.0/410.0	240.6
31	365.0/420.0	230.4
32	370.0/425.0	217.0
33	385.0/445.0	139.5
34	395.0/300.0	4.361
35	400.0/465.0	85.73
36	415.0/485.0	52.39
37	425.0/500.0	39.10
38	430.0/505.0	35.55
39	440.0/520.0	27.33
40	450.0/305.0	4.704
41	455.0/295.0	4.638
42	455.0/540.0	16.85
43	505.0/275.0	3.586
44	515.0/280.0	3.725
45	520.0/285.0	4.791
46	540.0/295.0	8.082
47	545.0/300.0	9.536
48	555.0/305.0	10.33
49	560.0/310.0	9.497
50	570.0/315.0	8.409

Data points
	220.0	225.0	230.0	235.0	240.0	245.0	250.0	255.0	260.0	265.0	270.0	275.0	280.0	285.0	290.0	295.0	300.0	305.0	310.0	315.0	320.0	325.0	330.0	335.0	340.0	345.0	350.0	355.0	360.0	365.0	370.0	375.0	380.0	385.0	390.0	395.0	400.0	405.0	410.0	415.0	420.0	425.0	430.0	435.0	440.0	445.0	450.0	455.0	460.0	465.0	470.0	475.0	480.0	485.0	490.0	495.0	500.0	505.0	510.0	515.0	520.0	525.0	530.0	535.0	540.0	545.0	550.0	555.0	560.0	565.0	570.0	575.0	580.0	585.0	590.0	595.0	600.0
230.0	117.0	3228	6274	1343	38.27	12.50	9.897	7.810	7.575	6.904	5.825	5.624	5.752	4.675	3.769	3.351	3.024	2.492	2.392	2.213	2.026	1.832	1.739	1.624	1.498	1.482	1.331	1.195	1.201	1.151	1.062	1.055	1.089	1.038	0.981	0.779	0.780	0.772	0.715	0.720	0.818	1.194	1.091	0.712	0.637	0.728	3.030	13.02	22.17	15.43	5.164	1.054	0.506	0.467	0.539	0.532	0.496	0.498	0.544	0.508	0.489	0.495	0.484	0.469	0.472	0.465	0.504	0.409	0.484	0.467	0.514	0.426	0.446	0.490	0.465	0.544	0.490
235.0	151.0	852.8	3891	5311	514.9	67.83	10.59	8.958	7.397	6.986	7.123	6.151	5.865	4.631	3.399	3.674	2.899	2.599	2.459	2.243	1.984	1.971	1.765	1.517	1.555	1.577	1.157	1.211	1.296	1.161	1.134	1.072	1.199	1.107	0.916	0.916	0.783	0.810	0.780	0.816	0.725	0.828	0.959	1.000	0.998	0.849	1.170	3.540	7.904	14.01	19.71	20.14	11.36	2.582	0.525	0.477	0.522	0.528	0.554	0.460	0.538	0.478	0.486	0.503	0.440	0.533	0.505	0.473	0.496	0.473	0.509	0.444	0.558	0.484	0.460	0.506	0.505
240.0	232.1	281.1	1125	5237	6756	434.6	33.91	11.38	9.821	8.427	8.562	6.242	5.831	5.275	3.994	3.602	2.859	2.903	2.349	2.474	2.233	1.840	1.807	1.543	1.454	1.303	1.302	1.304	1.447	1.154	1.112	1.128	0.950	0.960	0.882	0.794	0.820	0.850	0.785	0.778	0.775	0.719	0.838	0.899	1.137	1.256	0.967	1.408	2.261	4.149	9.787	24.91	33.63	21.14	8.833	1.348	0.593	0.566	0.490	0.496	0.533	0.533	0.497	0.534	0.482	0.475	0.548	0.444	0.576	0.490	0.584	0.402	0.539	0.512	0.425	0.600	0.486
245.0	178.9	282.0	316.7	1733	7254	7294	349.5	17.95	11.78	11.47	8.535	6.593	6.054	5.657	4.682	3.267	3.063	3.248	2.441	2.657	2.036	1.949	1.751	1.588	1.701	1.687	1.301	1.419	1.407	1.236	1.059	1.288	1.001	0.980	0.865	0.749	0.798	0.718	0.767	0.708	0.828	0.628	0.681	0.817	0.702	1.184	1.300	1.219	1.114	1.341	2.725	7.876	19.41	33.98	29.01	19.31	5.995	0.885	0.602	0.666	0.471	0.490	0.549	0.547	0.581	0.479	0.536	0.450	0.512	0.509	0.587	0.534	0.531	0.539	0.531	0.434	0.471
250.0	78.08	201.8	293.8	481.4	2213	6874	8906	1380	95.58	13.81	10.36	7.907	7.095	5.833	5.297	4.103	3.260	3.224	2.616	2.739	2.361	1.989	1.701	1.760	1.723	1.738	1.301	1.464	1.412	1.264	1.218	1.122	1.216	1.134	0.915	0.853	0.855	0.792	0.736	0.683	0.732	0.770	0.710	0.712	0.671	0.746	0.803	1.112	1.410	1.284	1.326	2.255	4.992	9.895	17.40	29.96	32.96	35.90	14.78	6.182	1.107	0.540	0.621	0.576	0.593	0.540	0.552	0.494	0.542	0.491	0.518	0.537	0.586	0.537	0.536	0.574	0.497
255.0	48.94	74.08	191.5	388.8	584.2	1677	6046	9999.9	2106	118.6	16.80	11.54	9.300	6.885	5.652	4.571	3.673	3.445	2.699	2.619	2.537	2.195	1.793	1.644	1.889	1.871	1.401	1.583	1.498	1.343	1.145	1.127	1.156	1.209	0.829	0.840	0.914	0.880	0.875	0.691	0.703	0.684	0.731	0.748	0.651	0.755	0.585	0.661	0.859	1.138	1.774	1.827	2.036	2.663	4.377	7.354	11.57	29.14	55.37	62.29	22.99	7.389	0.742	0.615	0.510	0.573	0.654	0.548	0.478	0.512	0.548	0.493	0.473	0.520	0.467	0.583	0.577
260.0	39.68	43.02	83.09	316.7	402.6	434.3	1697	9186	9999.9	1696	67.49	14.74	11.50	8.803	6.826	5.080	4.339	3.567	3.269	2.797	2.693	2.314	1.937	1.759	1.905	1.880	1.586	1.541	1.669	1.396	1.221	1.243	1.224	1.198	1.047	0.875	0.872	0.882	0.812	0.778	0.784	0.693	0.794	0.889	0.739	0.577	0.558	0.560	0.560	0.643	1.106	1.980	2.317	1.670	1.573	2.171	3.108	7.801	22.29	53.81	77.35	31.18	17.44	2.986	0.665	0.559	0.717	0.649	0.485	0.429	0.563	0.536	0.500	0.439	0.462	0.566	0.630
265.0	49.31	46.59	44.34	146.4	413.7	313.1	423.4	2827	9999.9	9999.9	1361	31.10	15.07	10.70	8.448	5.542	5.328	3.759	3.608	2.904	2.717	2.289	2.166	1.938	1.951	1.806	1.488	1.653	1.509	1.500	1.383	1.418	1.215	1.017	1.080	0.857	0.965	0.873	0.841	0.710	0.798	0.629	0.727	0.764	0.658	0.663	0.729	0.606	0.624	0.595	0.622	1.164	1.890	2.543	2.100	1.173	1.287	2.332	5.574	15.01	37.18	67.12	90.34	28.54	12.00	1.170	0.697	0.626	0.548	0.504	0.551	0.486	0.546	0.505	0.508	0.521	0.600
270.0	179.3	179.4	130.8	87.57	190.2	411.8	344.5	712.8	3097	9999.9	9999.9	5416	89.50	17.07	10.67	7.511	6.039	4.539	4.222	3.293	3.024	2.640	2.421	2.234	2.125	1.873	1.747	1.673	1.696	1.508	1.397	1.398	1.249	1.222	1.382	1.212	1.168	1.092	1.039	1.028	0.893	0.940	0.935	0.935	1.021	1.006	0.920	0.962	0.948	0.761	0.618	0.742	0.963	1.335	2.039	2.299	2.394	1.758	1.999	4.037	9.166	18.88	39.37	57.20	79.41	64.97	18.21	9.362	1.334	0.585	0.615	0.598	0.541	0.606	0.611	0.603	0.565
275.0	524.1	539.7	374.7	153.5	86.26	192.6	532.1	452.5	815.6	2451	7568	9999.9	8704	112.9	17.15	10.67	8.154	5.827	4.926	3.751	3.774	2.896	2.798	2.540	2.011	1.887	1.720	1.730	1.740	1.516	1.498	1.454	1.519	1.555	1.960	1.886	1.599	1.540	1.238	1.306	1.262	1.337	1.429	1.673	1.596	1.889	1.645	1.783	1.628	1.351	0.909	0.766	0.849	0.776	1.004	1.233	2.320	3.586	3.195	2.152	2.902	5.042	9.675	13.89	22.71	45.64	93.48	118.3	28.36	11.16	0.962	0.739	0.611	0.667	0.582	0.580	0.747
280.0	818.2	830.5	602.6	228.8	79.91	108.4	343.3	720.7	431.8	723.0	2122	9999.9	9999.9	6054	77.50	15.26	9.941	7.361	5.691	4.673	3.764	3.193	2.844	2.464	2.104	2.079	1.869	1.666	1.981	1.741	1.697	1.519	1.686	1.947	2.312	2.359	2.158	1.765	1.636	1.713	1.425	1.760	1.930	2.202	2.338	2.632	2.244	2.393	2.340	1.805	1.136	0.984	0.892	0.702	0.804	0.840	1.350	2.384	3.676	3.725	2.730	2.174	3.190	4.485	6.266	11.85	31.53	80.49	123.5	113.9	22.34	4.255	0.820	0.865	0.519	0.748	0.640
285.0	1059	1122	823.4	299.5	96.33	98.80	200.6	604.7	804.5	406.1	778.1	3077	9999.9	9999.9	1009	49.16	14.16	9.452	6.484	5.501	4.264	3.854	3.035	2.655	2.604	2.390	1.797	1.964	1.905	1.849	1.468	1.585	1.591	2.375	3.207	2.907	2.361	2.092	1.837	2.047	1.867	2.137	2.274	2.259	2.786	3.136	2.982	3.319	3.014	2.307	1.613	1.100	0.952	0.883	0.781	0.994	1.141	1.390	2.240	3.604	4.791	3.653	2.424	2.459	2.864	4.171	8.600	21.27	48.94	108.5	139.4	32.57	14.78	1.468	0.776	0.818	0.621
290.0	1316	1393	1003	392.0	135.3	123.9	198.1	398.8	854.6	1092	923.1	1372	3220	9999.9	9999.9	9775	61.61	15.13	9.665	7.220	5.203	4.376	3.394	3.023	2.651	2.533	2.186	2.146	1.879	1.897	1.697	1.734	1.716	2.804	3.556	3.604	2.926	2.571	2.211	2.096	2.313	2.380	2.652	2.769	3.420	3.793	3.725	3.924	3.594	2.662	1.845	1.292	1.035	0.961	0.892	1.032	1.159	1.375	1.720	2.272	3.540	4.650	5.047	4.832	3.911	3.921	4.964	7.683	13.67	29.17	52.51	74.87	109.3	86.85	60.98	10.57	1.629
295.0	1441	1515	1072	456.9	165.9	156.3	232.4	392.0	694.6	1310	1780	1470	1654	2860	5156	9999.9	5981	74.91	15.89	10.58	6.607	5.186	4.685	3.573	3.256	2.613	2.502	2.124	1.923	1.959	1.788	1.858	1.832	3.276	4.020	4.268	3.439	2.739	2.535	2.236	2.491	2.585	2.840	3.462	3.899	4.282	4.345	4.638	4.003	2.964	1.997	1.554	1.064	1.181	1.135	0.988	1.227	1.525	1.780	2.384	2.969	3.664	4.567	6.641	8.082	6.902	6.243	6.385	7.513	10.39	14.92	19.45	29.58	55.02	122.3	155.2	32.59
300.0	1522	1536	1097	476.4	184.4	183.8	255.2	430.5	713.8	1195	2071	1873	1520	1372	1521	7628	9999.9	4582	55.45	13.72	8.967	6.367	5.119	4.405	3.568	3.058	2.554	2.757	2.286	1.962	1.768	1.897	2.007	3.219	4.085	4.361	3.618	2.999	2.598	2.501	2.575	2.839	2.987	3.639	4.101	4.256	4.689	4.474	4.104	2.983	1.979	1.556	1.321	1.259	1.192	1.094	1.436	1.550	1.917	2.467	2.991	3.784	4.420	5.689	7.753	9.536	9.466	7.607	6.787	6.709	7.355	7.510	8.405	14.26	38.14	99.31	155.1
305.0	1447	1500	1052	470.2	202.0	205.7	282.9	458.9	746.9	1165	1835	2437	1825	1145	692.4	2014	9999.9	9999.9	3439	37.84	12.20	8.317	5.511	4.807	4.368	3.800	2.707	2.492	2.607	2.293	2.176	1.855	2.103	3.057	3.869	4.112	3.506	3.003	2.706	2.436	2.616	2.846	2.989	3.375	3.832	4.168	4.704	4.578	3.850	2.947	2.068	1.678	1.367	1.123	1.369	1.219	1.601	1.796	2.112	2.585	3.120	3.829	4.352	5.365	6.882	8.178	9.975	10.33	8.140	6.654	5.853	4.786	3.751	4.581	9.691	25.05	58.43
310.0	1333	1409	966.2	448.8	231.0	232.2	317.8	504.7	800.5	1204	1700	2175	2221	1409	597.7	616.0	2530	9346	9999.9	8803	45.03	12.61	8.294	5.995	5.141	3.936	3.238	2.754	2.930	2.345	2.273	2.000	2.243	2.886	3.747	3.677	3.320	2.807	2.653	2.605	2.567	2.690	2.997	3.339	3.555	4.041	4.197	4.267	3.606	2.737	1.999	1.713	1.448	1.268	1.385	1.386	1.731	2.030	2.280	2.579	3.305	4.106	4.531	5.588	6.375	7.384	8.315	9.367	9.497	9.094	7.292	4.796	3.244	2.802	3.628	6.707	14.17
315.0	1270	1280	886.1	459.5	254.2	263.6	365.5	573.0	871.2	1258	1666	1936	1957	1814	860.9	368.8	681.4	2171	4467	9999.9	4314	57.50	12.62	7.984	6.186	4.545	3.773	3.017	3.104	2.409	2.346	2.189	2.154	2.808	3.399	3.206	2.983	2.900	2.577	2.454	2.527	2.783	3.008	3.140	3.365	3.586	3.977	3.747	3.402	2.541	1.979	1.693	1.520	1.440	1.474	1.477	1.792	2.115	2.565	3.006	3.536	4.148	4.953	5.453	6.523	7.095	7.489	7.920	7.710	8.337	8.409	7.166	4.588	2.675	2.554	2.836	4.497
320.0	1238	1239	842.4	464.2	285.9	303.8	420.7	625.3	931.9	1303	1699	1891	1831	1688	1195	435.0	301.2	577.1	1109	6695	9999.9	3600	44.49	10.92	7.648	5.700	4.148	3.669	3.151	2.659	2.258	2.361	2.469	2.610	2.983	2.926	2.870	2.915	2.538	2.291	2.586	2.717	2.836	3.216	3.294	3.919	3.729	3.774	3.328	2.403	1.921	1.712	1.576	1.549	1.592	1.713	2.049	2.305	2.673	3.380	3.722	4.117	5.338	5.738	6.470	6.977	7.374	8.144	7.583	7.543	7.143	7.429	6.786	4.012	2.564	2.199	2.324
325.0	1254	1264	869.5	490.9	318.1	346.7	467.1	677.9	990.1	1369	1714	1912	1803	1516	1287	716.8	271.3	245.9	328.9	1687	9519	9999.9	2833	30.13	10.01	6.934	5.250	4.029	3.296	2.883	2.632	2.295	2.479	2.444	2.904	2.806	2.685	2.628	2.427	2.549	2.550	2.643	2.742	3.048	3.351	3.973	3.620	3.802	3.176	2.597	1.960	1.916	1.748	1.575	1.727	1.920	2.219	2.426	3.045	3.311	4.039	4.493	5.347	5.789	6.613	7.211	7.251	8.083	7.664	7.175	6.694	6.426	6.500	6.026	4.415	2.589	2.230
330.0	1332	1299	921.5	562.5	368.9	394.4	532.3	760.3	1080	1456	1791	1949	1847	1516	1126	856.0	525.9	229.0	175.7	450.4	2357	8249	9999.9	7344	37.16	10.41	7.274	5.250	3.925	3.359	2.906	2.451	2.564	2.412	2.757	2.839	2.510	2.505	2.370	2.521	2.632	2.672	3.095	3.226	3.391	4.076	3.896	3.782	3.593	2.698	2.111	2.126	2.054	1.770	1.874	2.063	2.420	2.678	3.189	3.651	4.387	4.941	5.485	6.261	6.951	7.306	7.577	7.908	7.637	7.235	6.685	6.381	5.613	5.145	4.879	4.345	3.816
335.0	1385	1300	945.2	601.2	394.6	426.5	582.1	824.2	1147	1497	1810	1954	1869	1551	1099	694.1	650.1	429.9	172.5	185.8	582.7	1893	4276	9999.9	9999.9	48.70	9.950	7.400	5.017	3.846	3.379	2.771	2.500	2.570	2.674	2.865	2.506	2.286	2.380	2.561	2.611	2.885	3.185	3.051	3.696	3.967	4.076	4.003	3.483	2.806	2.221	2.260	2.093	1.861	2.102	2.082	2.503	2.779	3.435	3.657	4.262	5.185	5.587	6.585	6.926	7.158	7.605	7.332	7.677	7.223	6.494	6.445	5.164	4.772	3.901	3.419	4.183
340.0	1353	1292	952.0	602.0	420.5	441.7	594.7	836.5	1157	1493	1781	1920	1851	1549	1106	640.2	513.3	566.2	269.4	138.5	195.5	472.3	1032	6441	9999.9	3087	38.27	9.159	6.833	4.597	3.917	2.956	2.491	2.774	2.844	2.665	2.479	2.382	2.284	2.517	2.539	2.786	3.210	3.212	3.839	4.130	4.043	3.848	3.538	2.750	2.097	2.310	2.261	1.998	2.051	2.126	2.667	2.786	3.640	3.932	4.425	5.411	5.778	6.414	7.029	7.014	7.385	7.629	7.632	7.310	6.567	6.390	5.614	4.619	3.875	3.014	3.373
345.0	1340	1281	933.1	599.4	426.2	455.6	592.1	838.7	1144	1465	1744	1866	1801	1518	1100	627.9	416.2	476.8	431.5	171.5	118.8	160.9	275.3	1618	9033	9999.9	2452	27.44	8.531	5.648	4.239	3.401	3.203	2.866	2.557	2.767	2.628	2.452	2.449	2.386	2.417	2.716	3.073	3.237	3.709	3.976	3.835	3.716	3.494	2.722	2.443	2.471	2.122	2.211	2.208	2.142	2.570	2.886	3.463	3.958	4.535	5.147	5.722	6.213	6.876	6.868	7.167	7.528	7.197	7.324	6.333	6.451	5.614	4.673	3.648	3.056	2.675
350.0	1248	1220	870.4	570.3	428.6	445.6	577.0	794.1	1081	1374	1617	1734	1677	1430	1047	606.3	383.5	327.6	393.4	335.1	151.1	106.7	117.2	404.8	2250	7593	9999.9	5988	33.16	8.673	5.945	4.184	3.426	3.178	2.641	2.596	2.577	2.427	2.409	2.535	2.279	2.653	3.061	3.195	3.467	3.841	3.592	3.630	3.352	2.702	2.294	2.189	2.022	1.955	2.201	2.236	2.491	2.746	3.216	3.724	4.139	4.840	5.418	5.952	6.106	6.479	6.456	6.957	6.649	6.865	6.036	6.289	5.311	4.291	3.462	2.986	2.695
355.0	1212	1116	795.4	540.3	419.7	427.2	540.5	741.4	989.3	1262	1474	1572	1518	1309	970.3	573.5	368.6	277.1	264.2	340.5	305.4	131.2	95.61	146.2	543.6	1736	4127	9999.9	8490	40.69	8.149	5.262	4.066	3.413	3.047	2.563	2.679	2.378	2.488	2.489	2.346	2.490	2.700	2.953	3.352	3.660	3.414	3.376	3.180	2.400	2.115	2.075	2.013	1.763	2.169	2.291	2.395	2.679	3.258	3.633	3.869	4.348	5.005	5.511	5.964	6.212	5.908	6.000	6.190	6.428	5.436	5.817	5.022	3.791	3.591	2.959	2.618
360.0	1127	1027	736.9	516.6	399.0	419.0	522.6	699.1	914.8	1160	1362	1439	1396	1198	905.9	541.1	357.8	266.1	228.2	251.7	361.9	227.3	111.6	98.42	173.8	426.5	988.6	5815	9999.9	2635	30.97	7.159	5.255	4.048	3.206	2.900	2.733	2.513	2.402	2.442	2.184	2.438	2.795	2.912	3.007	3.511	3.135	3.250	2.667	2.277	1.993	2.199	1.940	1.766	1.977	1.963	2.296	2.812	3.375	3.353	3.778	4.017	4.507	5.223	5.379	5.499	5.575	5.760	5.945	5.722	5.308	5.392	4.529	3.727	3.069	2.873	2.549
365.0	1062	927.9	694.2	466.4	386.7	406.9	489.8	650.5	854.7	1081	1254	1318	1289	1104	845.7	512.3	349.4	266.8	222.3	214.7	287.7	332.0	167.4	102.2	102.1	142.6	257.6	1455	7971	9999.9	2132	16.65	6.476	4.878	3.668	3.044	2.783	2.730	2.441	2.243	2.284	2.436	2.659	2.708	3.146	3.336	3.162	3.246	2.619	2.240	1.879	2.060	1.842	1.657	2.046	2.017	2.387	2.430	3.004	3.043	3.395	3.832	4.201	4.591	4.926	5.049	5.061	4.936	5.250	5.233	4.629	4.893	4.520	3.631	3.166	2.860	2.397
370.0	912.5	857.5	626.7	445.4	371.6	379.0	449.5	593.4	765.7	944.1	1094	1164	1127	978.6	759.8	477.6	330.2	262.6	232.6	212.0	220.3	287.8	290.5	163.7	104.0	94.02	105.0	361.3	1987	7774	9999.9	4190	24.85	6.518	4.514	3.641	2.916	2.664	2.606	2.374	2.359	2.444	2.413	2.732	2.904	3.100	2.902	2.870	2.384	2.120	1.776	1.920	1.853	1.800	1.954	1.958	2.216	2.289	2.670	2.902	3.174	3.569	4.021	4.103	4.134	4.413	4.718	4.560	4.857	4.645	4.331	4.423	3.940	3.274	2.972	2.633	2.346
375.0	795.8	773.7	552.9	403.3	354.2	363.1	415.9	529.8	673.5	828.7	950.3	1003	970.4	854.0	665.9	432.9	313.6	263.4	239.7	220.5	213.2	221.1	278.8	290.5	151.5	101.5	84.39	126.3	477.1	1775	4356	9999.9	2567	31.36	6.438	4.555	3.437	2.854	2.602	2.473	2.277	2.423	2.264	2.669	2.807	2.787	2.606	2.623	2.138	2.033	1.634	1.883	1.795	1.674	1.799	1.892	2.175	2.033	2.394	2.617	2.839	3.049	3.690	3.754	3.799	3.801	3.939	3.969	4.110	4.088	4.078	3.935	3.502	2.928	2.542	2.496	2.330
380.0	738.7	703.6	519.8	381.3	334.4	351.0	395.5	496.1	611.6	740.6	845.8	899.8	866.2	761.7	609.2	408.2	304.3	262.8	243.0	229.0	220.5	212.6	227.7	311.5	236.6	122.6	90.45	83.26	149.9	427.7	1047	6897	9999.9	2049	22.08	5.834	4.147	3.397	2.791	2.499	2.294	2.140	2.423	2.502	2.455	2.803	2.428	2.445	2.021	1.833	1.651	1.708	1.817	1.761	1.812	1.802	2.036	2.081	2.252	2.368	2.604	2.976	3.033	3.290	3.407	3.669	3.620	3.589	3.693	3.547	3.647	3.493	3.165	2.980	2.302	2.223	2.195
385.0	670.3	669.0	466.2	363.8	322.3	331.7	371.9	457.5	546.6	680.5	763.3	803.5	773.4	687.9	560.2	386.4	294.6	260.7	243.6	232.9	225.7	216.0	211.7	258.0	301.7	176.9	105.0	83.83	84.97	135.6	266.2	1831	8529	9999.9	300.6	13.80	5.118	3.905	3.072	2.829	2.214	2.399	2.377	2.506	2.305	2.513	2.406	2.497	2.103	1.621	1.579	1.702	1.826	1.709	1.700	1.612	2.071	2.076	2.153	2.128	2.258	2.546	2.948	3.106	3.242	3.158	3.373	3.253	3.505	3.441	3.385	3.213	2.834	2.722	2.375	2.162	2.141
390.0	597.3	568.8	440.5	346.8	316.2	323.7	350.5	413.9	494.0	605.1	676.9	710.8	682.0	611.9	505.3	364.1	289.9	259.6	248.7	241.4	234.2	227.7	218.3	220.8	256.1	261.5	165.6	105.6	88.40	85.57	102.6	442.5	2227	6780	8768	3148	20.44	5.203	3.880	3.238	2.533	2.421	2.317	2.181	2.386	2.448	2.223	2.329	1.909	1.640	1.532	1.659	1.690	1.648	1.816	1.535	1.863	1.995	2.134	2.120	2.315	2.435	2.708	2.827	2.875	2.927	3.062	2.996	3.129	3.117	2.945	2.942	2.789	2.495	2.360	2.211	2.148
395.0	535.1	519.8	417.1	339.6	316.5	312.8	333.0	383.4	462.7	541.1	599.5	622.2	602.2	544.3	455.0	344.1	288.0	265.0	251.7	248.5	239.4	235.8	228.8	218.4	217.9	240.9	254.9	155.6	108.3	90.43	80.05	141.2	529.7	1554	3962	9999.9	2118	26.62	5.230	3.685	2.813	2.478	2.457	2.310	2.308	2.391	2.059	2.198	1.845	1.615	1.473	1.700	1.723	1.649	1.774	1.685	1.722	1.791	2.106	2.094	2.221	2.375	2.398	2.465	2.637	2.502	2.550	2.780	2.885	2.716	2.561	2.716	2.682	2.589	2.209	2.226	2.181
400.0	483.2	473.9	374.2	331.3	309.9	308.7	327.0	364.2	431.5	504.8	563.0	573.6	548.3	493.0	425.6	326.2	282.6	258.9	250.2	247.0	242.2	240.1	234.8	226.7	213.0	213.2	259.3	223.6	134.7	102.4	85.00	83.17	157.5	376.8	964.4	5395	9426	1691	19.01	4.568	3.328	2.728	2.545	2.012	2.060	2.540	2.025	2.077	1.773	1.680	1.582	1.653	1.631	1.716	1.899	1.675	1.842	1.733	2.021	1.990	2.081	2.122	2.301	2.235	2.538	2.475	2.422	2.497	2.766	2.513	2.419	2.466	2.437	2.292	2.281	2.331	2.268
405.0	443.5	437.1	369.3	319.2	305.4	298.6	323.1	358.3	409.6	471.6	524.6	535.7	513.5	459.8	395.1	315.1	281.5	256.3	246.0	244.4	243.3	242.2	238.4	231.6	220.5	208.4	222.7	264.6	184.9	118.2	95.55	77.76	81.16	118.9	242.0	1390	6404	8171	267.1	11.92	4.317	3.329	2.749	2.206	1.962	2.423	2.183	2.035	1.649	1.530	1.454	1.446	1.793	1.601	1.867	1.646	1.937	1.639	1.880	2.002	2.142	2.017	2.256	2.383	2.347	2.385	2.483	2.298	2.480	2.102	2.116	2.434	2.230	2.397	2.070	2.214	2.249
410.0	420.3	402.3	353.9	309.2	306.9	295.8	314.9	348.4	389.8	454.3	491.7	501.7	470.3	416.7	368.2	301.7	267.9	250.3	243.2	239.7	239.2	240.9	239.4	237.7	226.0	213.1	204.8	227.1	240.6	165.6	115.7	89.01	74.78	69.73	86.10	333.7	1638	5033	6435	1158	17.96	4.063	3.095	2.526	2.381	2.169	2.078	1.954	1.845	1.615	1.459	1.592	1.881	1.703	1.623	1.574	1.800	1.738	1.926	1.825	2.170	2.015	2.151	2.277	2.174	2.238	2.293	2.301	2.416	2.087	2.239	2.231	2.150	2.162	1.957	2.140	2.083
415.0	362.6	356.6	330.5	312.5	305.7	290.8	302.6	333.5	372.6	431.0	450.0	464.6	424.7	374.7	334.4	282.8	259.5	242.5	234.9	230.4	230.4	235.2	236.8	231.6	227.6	215.8	204.1	199.7	217.2	228.1	153.5	103.6	82.86	66.38	57.30	102.3	385.4	1149	2838	6951	1841	23.37	4.157	2.914	2.659	2.297	1.979	1.873	1.822	1.509	1.434	1.536	1.743	1.605	1.647	1.620	1.650	1.876	1.885	1.791	2.216	1.969	2.004	2.323	2.145	1.996	2.188	2.160	2.276	2.109	1.956	2.187	2.064	1.931	1.785	2.057	2.037
420.0	344.6	348.9	313.7	306.4	290.1	292.0	305.4	317.3	360.9	411.7	433.9	435.8	392.3	354.3	307.9	272.6	248.8	234.7	224.5	221.5	223.6	226.5	232.4	229.6	225.1	213.3	202.1	193.6	191.9	230.4	197.9	118.0	88.38	69.72	52.66	53.47	108.6	274.0	683.8	3838	6876	1434	17.05	3.742	2.925	2.495	2.172	1.925	1.640	1.579	1.548	1.512	1.731	1.611	1.765	1.577	1.851	1.817	1.780	1.909	2.058	1.842	2.202	2.023	2.041	2.000	2.078	1.986	2.195	1.967	1.939	1.926	2.119	1.964	1.820	1.979	1.859
425.0	323.0	330.5	312.0	297.4	286.6	288.5	292.5	309.8	355.7	386.6	408.8	409.0	371.8	331.1	296.3	260.9	237.9	221.0	219.1	216.5	214.6	219.9	224.9	224.3	222.9	210.0	202.0	193.3	183.1	198.6	217.0	146.4	95.47	73.85	56.70	46.29	49.16	80.10	167.7	986.5	4584	6033	251.4	10.23	3.459	3.093	2.341	2.036	1.798	1.626	1.435	1.465	1.779	1.547	1.719	1.666	1.744	1.666	1.791	1.687	1.884	1.869	1.962	1.853	2.068	2.135	1.998	2.017	1.896	2.007	1.956	1.597	1.898	1.681	1.789	1.958	1.917
430.0	498.4	303.4	302.4	286.1	281.2	284.6	293.1	307.7	343.7	372.3	396.8	382.2	346.0	307.5	273.3	241.7	228.5	215.4	208.7	204.6	204.4	208.6	215.4	217.5	215.0	207.8	200.7	192.5	182.5	177.2	186.0	181.1	122.6	82.40	61.93	48.64	40.51	39.98	54.47	233.5	1165	3684	4908	1071	16.60	3.929	2.703	2.220	1.922	1.742	1.475	1.704	1.753	1.659	1.793	1.668	1.682	1.568	1.775	1.821	1.822	1.816	1.982	1.967	1.885	1.981	1.834	1.944	1.773	1.883	1.732	1.615	1.717	1.591	1.597	1.993	1.898
435.0	1495	290.3	279.4	269.9	269.7	284.6	279.1	303.0	331.2	355.8	373.2	359.6	318.0	284.0	256.8	229.6	217.6	206.6	195.8	194.0	192.2	196.9	204.1	208.5	204.6	201.4	193.7	190.1	182.1	172.0	160.8	165.6	160.2	102.7	69.12	53.31	42.70	34.37	32.09	66.77	271.1	839.9	2128	5587	1737	22.98	3.458	2.780	2.262	1.893	1.467	1.715	1.709	1.582	1.681	1.666	1.763	1.790	1.789	1.794	1.804	2.018	1.881	1.883	1.919	1.780	1.824	1.831	1.810	1.764	1.747	1.488	1.706	1.674	1.668	1.981	1.809
440.0	2630	421.7	268.0	264.5	265.5	271.7	278.9	293.5	321.9	342.7	353.9	340.7	302.4	267.4	241.7	218.9	209.3	197.9	187.8	186.8	186.0	189.7	197.3	198.7	200.8	192.9	191.4	188.5	180.5	167.9	154.2	145.4	160.1	126.9	78.93	58.10	46.09	35.88	30.02	32.34	73.95	198.3	511.6	3096	5965	1385	15.14	3.472	2.608	2.000	1.714	1.907	1.811	1.574	1.647	1.600	1.772	1.821	1.667	1.622	1.857	1.851	1.625	2.071	1.878	1.640	1.798	1.825	1.703	1.567	1.602	1.709	1.688	1.524	1.731	1.562	1.834
445.0	3018	1040	259.3	256.1	255.2	258.9	272.5	283.7	306.5	331.6	330.8	327.3	288.7	251.3	226.1	206.7	196.2	189.6	179.4	178.0	176.0	180.5	188.6	188.4	192.4	187.3	185.2	183.0	175.0	163.0	152.2	136.2	136.7	139.5	96.32	62.08	48.93	38.08	30.60	26.37	31.71	56.83	125.2	795.9	3946	5428	216.0	10.14	3.018	2.186	1.860	1.899	1.914	1.617	1.694	1.614	1.748	1.773	1.721	1.775	1.689	1.655	1.682	1.889	1.642	1.806	1.756	1.782	1.616	1.579	1.795	1.614	1.694	1.516	1.532	1.610	1.887
450.0	1788	2645	507.3	240.8	244.7	246.4	261.1	274.5	294.4	308.6	312.5	298.4	265.7	231.3	206.6	190.6	179.6	174.8	169.2	164.6	164.5	168.3	172.8	175.3	179.5	176.7	174.1	171.2	167.7	159.6	146.8	128.8	117.1	119.0	114.1	77.40	53.10	41.89	33.14	27.66	25.09	26.79	39.33	187.4	997.5	3182	4288	963.1	14.52	2.800	2.213	2.104	1.993	1.731	1.720	1.622	1.816	1.675	1.723	1.700	1.732	1.711	1.721	1.794	1.684	1.732	1.632	1.559	1.488	1.516	1.520	1.560	1.554	1.500	1.518	1.552	1.681
455.0	616.1	2989	1757	231.6	219.3	234.0	249.7	258.7	272.9	285.6	288.7	271.9	238.6	206.8	188.2	175.0	164.9	158.3	152.1	149.8	148.9	153.2	157.0	161.1	164.1	165.0	161.8	159.7	157.3	151.6	138.8	124.2	109.2	97.94	102.5	97.27	63.93	45.45	36.64	29.23	24.79	21.62	21.36	51.93	230.4	723.7	1782	4510	1450	17.18	2.768	2.351	1.964	1.897	1.760	1.562	1.738	1.757	1.582	1.654	1.701	1.537	1.670	1.513	1.677	1.550	1.629	1.581	1.462	1.514	1.403	1.541	1.400	1.469	1.414	1.420	1.532
460.0	311.5	1907	3173	429.4	211.7	222.7	233.9	242.8	263.6	264.1	262.6	248.5	222.2	194.3	176.6	165.1	155.9	148.5	141.7	140.0	140.1	143.1	146.8	149.6	152.3	151.9	150.7	150.4	147.4	142.4	132.4	119.5	104.5	90.90	85.30	96.92	78.88	48.97	38.37	30.70	26.10	21.41	18.66	22.74	60.08	169.1	424.7	2403	4517	1026	12.06	2.654	2.138	1.955	1.868	1.631	1.689	1.821	1.371	1.747	1.585	1.567	1.632	1.561	1.681	1.380	1.492	1.461	1.493	1.439	1.222	1.393	1.152	1.392	1.356	1.409	1.363
465.0	220.3	799.5	3640	1277	208.8	209.5	225.0	232.0	250.5	246.5	243.2	229.7	204.4	181.3	160.6	151.1	145.5	138.0	133.9	131.2	129.8	132.5	136.7	137.7	140.6	141.2	140.9	140.3	137.8	132.6	125.6	113.2	98.73	86.77	77.04	81.15	85.73	59.24	40.17	32.30	26.59	21.86	18.87	17.19	22.46	45.59	101.8	609.4	2976	3892	174.6	8.740	2.654	2.283	1.934	1.828	1.685	1.638	1.562	1.523	1.638	1.549	1.444	1.681	1.360	1.453	1.360	1.424	1.385	1.319	1.402	1.339	1.258	1.302	1.420	1.379	1.317
470.0	205.6	326.8	2095	3163	395.6	199.4	203.9	216.1	224.6	227.7	221.2	211.0	185.1	161.9	146.7	136.1	128.6	125.8	118.4	116.2	117.7	117.3	121.9	124.6	125.2	126.6	127.1	125.2	126.9	122.4	114.5	103.9	91.14	80.36	71.10	66.08	71.26	69.18	48.37	34.13	27.59	23.05	19.07	16.71	15.64	18.62	29.60	142.3	750.5	2337	2951	869.8	15.54	2.782	2.311	1.915	1.921	1.605	1.759	1.523	1.553	1.478	1.455	1.494	1.397	1.348	1.400	1.361	1.326	1.227	1.326	1.311	1.093	1.346	1.197	1.270	1.289
475.0	221.0	188.0	645.9	3348	1978	195.5	182.8	197.9	206.7	203.3	200.6	184.9	164.6	140.3	129.8	119.6	113.4	109.0	105.9	101.0	104.1	104.1	107.3	110.0	110.2	112.5	112.9	110.5	112.3	109.4	103.9	93.54	83.04	74.32	65.78	58.81	56.89	60.20	58.69	40.59	28.60	23.84	19.80	17.05	15.24	13.29	14.06	37.50	172.5	530.5	1188	3026	1431	21.15	2.802	1.995	1.939	1.856	1.646	1.513	1.390	1.460	1.240	1.220	1.425	1.278	1.291	1.332	1.174	1.243	1.123	1.271	1.041	1.207	1.120	1.266	1.062
480.0	223.5	180.2	262.6	2031	3621	368.2	170.2	185.9	193.2	184.6	181.1	168.6	152.3	132.4	117.2	109.6	105.3	99.83	96.23	94.01	93.21	95.15	99.23	99.70	99.79	102.8	102.9	102.9	102.9	101.0	96.62	86.83	78.92	70.60	62.52	55.35	51.24	49.74	56.63	48.08	31.90	24.06	20.61	16.72	14.95	12.78	10.96	14.69	44.09	123.0	282.5	1534	3222	1155	16.00	2.435	1.970	1.739	1.546	1.383	1.333	1.278	1.347	1.306	1.218	1.174	1.202	1.244	1.131	1.254	0.979	1.043	0.931	0.944	1.112	1.136	1.136
485.0	208.2	197.0	170.6	790.3	4084	1417	165.9	174.1	177.8	172.6	167.8	159.5	139.8	123.1	110.9	100.0	97.23	93.89	88.73	86.52	85.75	87.42	90.62	93.93	93.39	94.34	94.47	94.03	94.60	95.59	89.78	81.01	73.66	66.65	59.71	52.30	48.01	43.50	48.92	52.39	36.91	24.59	21.57	17.54	15.26	12.99	11.32	10.43	15.58	32.49	67.77	385.9	1866	3143	218.5	10.40	2.254	2.019	1.628	1.514	1.230	1.217	1.237	1.277	1.370	1.187	1.209	1.122	1.163	1.153	1.009	1.046	0.970	1.034	1.025	1.079	1.198
490.0	153.7	217.1	160.2	281.1	2304	3660	532.3	159.4	162.9	160.7	155.8	146.2	127.7	116.2	99.98	90.78	86.85	83.64	80.16	78.43	77.38	80.11	81.09	83.96	84.33	85.19	85.99	86.58	87.55	85.85	83.28	75.16	69.04	61.80	56.20	49.78	46.30	40.83	40.18	44.79	44.14	30.50	22.80	19.10	16.19	13.91	11.97	10.48	10.15	12.87	20.08	90.74	456.4	1555	2459	916.1	16.20	2.675	1.843	1.659	1.563	1.324	1.238	1.213	1.261	1.169	1.191	1.189	1.099	1.105	1.075	0.981	0.933	0.979	0.992	1.028	1.044
495.0	111.1	185.7	178.6	154.4	674.3	3810	2342	160.7	149.1	149.8	144.8	135.3	115.0	103.2	91.42	83.19	78.43	74.85	70.69	69.78	68.25	70.60	73.31	74.83	76.51	76.01	77.34	77.30	78.16	78.67	74.63	68.24	63.93	57.27	52.75	47.58	43.30	38.32	36.41	35.52	40.27	38.06	27.07	20.20	17.19	14.80	12.57	11.80	10.19	9.393	9.931	25.29	106.4	352.2	931.0	2692	1486	22.45	2.466	1.886	1.545	1.456	1.314	1.099	1.084	1.293	1.193	1.179	1.122	1.075	0.911	0.947	1.151	1.056	1.132	0.927	0.955
500.0	105.1	153.3	202.4	129.2	241.7	2267	4323	300.9	143.4	138.7	131.4	126.2	112.8	94.52	83.25	73.82	70.60	67.96	64.91	63.31	63.85	64.70	66.05	68.70	68.24	69.72	70.32	70.54	71.07	72.09	69.00	64.33	60.66	53.59	49.59	44.14	40.99	37.14	34.40	31.97	32.58	39.10	31.71	22.14	18.51	15.58	13.48	11.97	10.95	9.156	8.244	10.83	28.80	83.19	218.9	1250	3015	1055	15.33	2.170	1.583	1.595	1.421	1.191	1.150	1.221	1.114	1.048	0.989	1.000	0.915	1.025	0.973	0.776	1.103	0.965	0.970
505.0	101.6	120.2	202.8	126.7	135.5	840.1	4814	1448	136.4	131.9	128.3	116.2	104.6	84.90	77.96	69.83	64.99	61.87	60.71	59.48	57.77	59.13	60.50	61.31	61.01	64.59	65.01	66.11	66.44	65.96	64.76	60.95	56.11	50.23	46.22	41.94	38.19	35.95	32.53	29.82	29.37	33.83	35.55	26.01	19.01	16.39	13.99	12.24	11.23	9.561	8.183	7.798	11.45	23.20	53.29	305.2	1701	2740	227.0	8.420	1.935	1.621	1.588	1.255	1.118	1.172	1.006	1.093	1.012	1.077	0.896	0.907	0.822	0.769	0.942	0.937	0.767
510.0	84.73	95.22	153.4	159.4	107.8	271.9	2577	3755	466.3	124.0	118.5	105.7	94.26	80.11	68.78	61.91	57.74	55.43	53.49	51.88	52.03	52.74	53.35	54.76	55.21	56.65	56.94	58.51	59.02	59.50	58.01	54.14	49.98	46.47	41.98	37.99	34.77	33.04	30.73	28.55	26.61	26.62	30.89	30.12	22.60	16.88	14.98	12.93	11.44	10.36	9.176	8.146	8.212	9.950	16.17	72.09	416.2	1401	1810	857.3	15.00	1.897	1.516	1.304	1.274	1.168	1.023	1.046	0.965	0.927	0.840	0.885	0.901	0.895	0.877	1.020	0.766
515.0	87.29	86.41	104.7	171.6	111.8	133.0	715.0	4236	2115	125.2	107.8	95.52	83.14	71.28	59.40	54.04	48.96	47.22	45.63	45.79	44.09	45.82	45.50	48.15	48.61	49.75	48.97	50.96	52.09	53.02	51.89	48.20	44.38	40.48	38.28	34.30	31.69	30.04	27.76	25.83	24.70	23.44	23.73	28.81	26.88	19.10	15.14	12.84	12.09	10.66	9.304	8.116	7.562	7.280	7.958	19.95	95.87	316.5	703.2	2090	1112	19.97	1.698	1.399	1.268	1.094	1.107	0.910	1.033	0.884	0.835	0.871	0.833	0.885	0.825	0.865	0.840
520.0	76.38	72.40	75.61	146.9	136.7	93.10	231.4	2445	4666	244.9	103.1	89.75	79.18	64.58	55.41	48.45	44.66	44.12	41.72	40.49	40.84	40.88	41.99	41.55	43.84	44.69	43.09	45.62	47.73	48.14	46.67	44.06	40.37	36.98	33.62	31.19	29.78	27.57	25.96	24.98	23.60	21.29	21.35	23.70	27.33	22.03	15.58	13.10	11.54	10.33	9.207	8.489	7.770	6.560	6.018	7.911	24.51	73.31	165.7	1009	2128	237.5	11.88	1.469	1.350	1.207	1.071	0.980	0.898	0.895	0.901	0.980	0.875	0.879	0.756	0.956	0.923
525.0	69.07	70.75	66.20	107.1	160.4	87.31	121.5	870.4	5427	1424	95.19	83.92	72.93	58.26	49.73	44.53	41.10	39.51	37.95	36.70	36.15	35.91	38.06	37.88	39.16	40.31	40.87	41.73	42.88	43.34	42.40	39.54	37.67	33.42	31.42	28.90	27.47	25.55	24.03	22.80	21.70	19.88	19.48	19.69	23.83	23.72	17.66	12.74	11.32	10.38	9.182	8.392	7.745	6.475	5.642	5.169	8.570	19.05	39.67	250.2	1251	1747	200.5	4.298	1.512	1.310	1.011	0.923	0.866	0.841	0.874	0.903	0.826	0.817	0.729	0.845	0.920
530.0	63.56	63.34	63.20	72.18	143.6	115.3	85.94	262.5	2884	4527	422.9	79.20	66.39	53.86	44.62	39.23	36.30	34.80	33.44	32.49	31.52	31.40	33.29	33.39	34.46	34.88	34.95	36.72	37.24	37.49	37.40	35.90	33.28	30.48	27.66	26.03	24.80	22.78	21.70	21.24	19.61	18.29	17.80	17.21	18.54	21.87	20.30	14.52	11.14	9.666	8.806	7.891	7.180	6.424	5.820	4.509	4.665	6.656	11.25	58.01	308.9	976.3	1374	534.3	12.66	1.405	1.105	0.997	0.934	0.866	0.873	0.807	0.785	0.723	0.612	0.742	0.782
535.0	61.36	62.52	57.47	56.78	93.65	142.7	78.31	114.3	774.3	4836	1837	83.49	58.80	47.92	40.54	36.39	31.51	30.36	28.96	27.57	28.01	28.65	28.95	30.23	29.47	30.12	30.50	32.40	32.64	32.71	32.89	31.20	28.72	26.19	24.60	22.67	21.69	19.85	20.01	18.57	17.57	16.41	16.08	15.41	15.22	16.84	19.25	16.76	11.80	9.218	8.439	7.692	6.489	5.819	5.545	4.612	3.755	3.886	4.513	14.87	70.71	220.9	549.1	1474	693.2	15.22	1.221	1.073	0.827	1.034	0.798	0.803	0.805	0.698	0.757	0.627	0.749
540.0	67.10	64.96	53.18	48.65	64.99	144.3	89.92	78.48	235.0	2635	5001	187.8	55.99	44.57	36.50	32.76	28.62	26.52	26.84	25.74	25.65	24.98	25.32	25.95	26.60	26.94	27.77	27.99	29.50	28.77	29.13	28.34	25.46	23.83	22.43	21.14	19.34	18.30	17.61	16.75	16.28	15.31	15.00	13.76	13.58	14.06	15.97	16.85	13.28	9.637	8.131	6.802	6.035	5.658	5.218	4.531	3.786	3.014	3.195	5.150	17.36	50.92	130.8	753.5	1477	216.1	7.330	1.146	0.998	0.891	0.872	0.824	0.730	0.805	0.713	0.690	0.765
545.0	80.38	78.09	65.52	48.11	48.21	117.6	115.4	67.36	107.9	899.5	5840	1250	55.27	41.27	33.05	29.79	26.76	23.80	23.37	23.63	23.40	23.00	23.49	23.81	24.08	23.94	25.02	25.38	26.26	26.26	26.31	25.65	23.16	21.84	20.32	19.19	18.04	16.72	16.40	15.39	15.05	14.13	13.99	13.30	12.60	12.41	13.25	15.13	14.31	10.33	7.931	6.648	6.125	5.405	5.002	4.332	3.886	2.898	2.493	2.818	5.538	13.04	30.78	189.8	941.1	1217	167.2	2.406	1.000	0.963	0.834	0.773	0.830	0.616	0.672	0.754	0.692
550.0	97.02	100.3	76.65	53.44	43.69	75.62	141.3	77.98	74.81	259.4	2943	4488	400.4	38.40	29.79	26.72	23.26	21.38	20.23	21.00	20.48	20.38	20.56	20.14	21.00	21.38	21.65	22.42	22.79	23.23	23.17	21.86	20.34	19.53	17.79	16.84	15.45	14.87	14.54	13.83	12.96	12.97	12.32	12.10	11.84	10.97	10.94	11.79	13.02	11.55	8.325	6.603	5.721	4.953	4.525	3.924	3.699	3.139	2.566	2.299	2.815	4.375	8.285	43.90	237.8	733.7	976.8	352.0	10.44	1.030	0.894	0.760	0.834	0.730	0.551	0.713	0.668
555.0	109.2	118.2	91.35	54.44	38.25	49.13	111.9	114.3	64.05	106.3	765.2	4689	2596	46.25	27.21	22.80	21.05	19.18	17.29	17.01	17.24	17.56	17.57	17.95	17.85	18.24	18.61	19.24	19.58	20.40	19.95	19.07	17.36	16.95	15.09	14.09	13.23	13.09	12.00	11.87	11.32	11.29	10.74	10.76	10.53	9.812	9.298	9.340	9.867	10.78	9.364	6.509	5.230	4.598	3.961	3.514	3.173	2.900	2.912	2.193	2.142	2.316	3.078	11.12	54.34	166.6	418.6	1052	240.2	10.23	0.981	0.902	0.779	0.716	0.615	0.678	0.711
560.0	115.4	120.3	101.3	58.72	36.29	42.22	80.72	137.8	69.50	73.47	220.2	2428	4889	139.6	25.68	20.98	18.97	17.07	15.97	15.78	15.65	15.26	15.70	15.64	16.09	16.38	16.69	16.78	16.93	18.27	17.49	16.55	15.32	14.72	13.25	12.65	11.84	12.11	10.80	10.79	10.18	9.763	10.01	9.435	9.409	9.041	8.697	8.113	7.892	9.173	9.323	7.349	5.121	4.195	3.762	3.351	2.990	2.472	2.767	2.368	1.955	1.839	1.787	3.670	13.27	38.45	101.4	570.1	966.7	183.8	3.032	1.066	0.800	0.809	0.662	0.691	0.693
565.0	136.7	134.1	107.0	55.60	36.95	35.41	54.11	138.2	85.96	64.15	93.25	794.9	5164	1053	25.95	19.46	17.10	15.44	14.43	13.56	13.94	13.53	13.56	13.93	15.09	14.50	14.90	14.82	15.46	15.84	15.96	14.52	13.07	12.83	12.15	11.37	10.32	10.38	10.10	9.868	9.034	8.872	8.912	8.289	8.645	7.640	7.814	7.424	6.531	6.963	8.282	7.488	5.336	4.050	3.187	3.017	2.772	2.261	2.528	2.369	2.048	1.570	1.584	1.993	4.017	9.624	23.92	148.1	667.6	801.7	30.64	1.401	0.761	0.727	0.743	0.632	0.626
570.0	142.1	148.2	105.9	52.64	31.41	33.83	42.08	97.69	126.4	67.41	71.79	230.1	2358	4042	322.8	17.50	14.64	13.17	12.49	11.39	12.03	12.11	11.35	11.83	12.10	12.17	12.09	12.49	12.44	13.03	12.96	12.29	11.23	10.46	10.10	9.407	8.754	8.650	8.100	8.369	7.705	7.665	7.716	7.245	7.316	6.684	6.662	6.223	5.703	5.505	5.923	6.624	5.545	4.108	3.083	2.641	2.358	2.148	2.110	2.107	2.227	1.695	1.489	1.546	1.901	3.163	6.611	34.21	172.3	509.7	593.8	129.6	5.099	0.810	0.721	0.585	0.665
575.0	143.0	145.9	107.9	53.57	30.57	27.60	34.61	60.07	140.3	93.06	74.30	107.0	605.8	3803	2222	23.94	13.31	11.26	10.15	9.828	9.625	9.564	9.686	9.232	9.351	9.748	10.06	9.829	10.21	10.38	10.47	9.371	8.909	8.050	7.801	7.616	7.085	7.207	6.510	6.575	6.492	6.396	6.199	5.920	5.867	5.820	5.245	4.720	4.471	4.174	3.908	4.802	5.465	4.192	2.926	2.351	2.012	1.839	1.656	1.612	1.857	1.959	1.508	1.385	1.413	1.693	2.451	8.578	39.39	116.1	272.1	609.9	162.4	2.349	0.871	0.757	0.766
580.0	144.3	147.5	107.6	57.01	29.01	27.43	30.75	48.27	117.3	127.4	83.86	88.48	192.8	1801	4051	96.45	11.94	10.16	8.845	8.771	7.996	7.795	8.325	8.255	8.026	8.126	8.100	8.254	8.710	8.789	8.612	7.989	7.427	7.240	6.641	6.566	6.194	6.167	5.802	5.730	5.286	5.160	5.265	5.056	5.015	4.910	4.507	4.120	3.966	3.709	3.344	3.533	4.345	4.221	2.953	2.160	1.815	1.653	1.652	1.522	1.416	1.776	1.620	1.350	1.238	1.327	1.579	2.740	9.727	26.85	66.94	366.1	511.1	28.50	1.181	0.802	0.663
585.0	147.9	150.8	110.5	53.30	24.85	26.70	30.65	44.35	89.41	156.5	97.70	91.88	105.7	559.0	4079	778.3	12.42	9.150	7.843	7.531	7.395	6.588	7.176	7.008	6.856	6.981	6.828	6.618	7.589	7.443	7.176	6.840	6.527	6.073	5.564	5.356	5.133	5.114	4.928	4.925	4.732	4.452	4.291	4.213	4.241	4.166	4.055	3.564	3.562	3.217	2.696	2.859	3.249	3.811	3.023	2.209	1.723	1.433	1.506	1.314	1.199	1.427	1.675	1.477	1.297	1.270	1.262	1.451	2.950	6.798	15.92	99.09	423.0	257.3	21.83	0.760	0.756
590.0	134.2	138.5	100.7	48.39	27.34	26.39	29.36	42.86	69.57	150.3	132.5	103.5	96.29	176.4	1744	2941	68.00	8.851	7.262	6.389	6.158	6.061	6.178	5.671	5.665	5.954	5.641	5.839	6.143	6.321	5.740	5.701	5.367	5.071	4.636	4.756	4.277	4.052	4.066	3.842	3.608	3.714	3.842	3.607	3.680	3.340	3.420	3.075	2.842	2.811	2.291	2.290	2.192	2.740	2.957	2.490	1.728	1.345	1.248	1.265	1.233	1.298	1.397	1.517	1.438	1.216	1.142	1.200	1.416	2.333	4.372	23.01	116.3	276.0	279.2	72.05	2.248
595.0	122.3	128.1	101.8	48.76	25.00	25.63	29.53	39.54	57.13	113.3	168.6	112.0	94.52	91.28	430.3	2674	1384	11.12	6.771	5.533	5.440	4.897	4.863	5.116	4.892	4.975	5.038	4.902	5.143	4.870	4.957	4.642	4.496	3.951	3.886	3.728	3.634	3.347	3.358	3.099	2.997	3.087	3.364	2.793	3.038	2.860	2.872	2.656	2.451	2.060	1.869	1.980	1.775	1.857	2.271	2.567	2.009	1.384	1.295	1.129	1.119	1.177	1.052	1.259	1.564	1.338	1.233	1.106	1.005	1.208	1.887	5.805	26.61	64.81	171.8	320.2	32.19
600.0	132.8	121.6	86.54	46.30	23.17	23.29	25.90	37.91	57.92	89.67	172.6	130.9	97.92	75.66	120.5	1207	2735	59.77	6.025	5.172	4.579	4.602	4.456	4.268	4.267	4.012	4.417	4.330	4.284	3.915	4.111	3.806	3.793	3.722	3.398	3.211	2.988	2.882	2.842	2.789	2.764	2.661	2.869	2.544	2.642	2.552	2.381	2.396	2.231	1.871	1.532	1.728	1.652	1.621	1.667	2.149	2.115	1.613	1.355	1.034	1.151	1.009	1.160	1.278	1.338	1.497	1.135	1.057	1.090	1.013	1.321	1.890	6.624	15.03	44.90	227.9	253.5
605.0	108.5	119.2	88.50	39.06	23.25	21.60	26.41	38.89	55.35	81.83	152.8	153.5	99.54	68.80	50.46	349.4	2870	525.4	6.686	4.927	4.546	4.746	4.129	3.643	4.045	3.592	3.681	3.913	3.705	3.639	3.781	3.574	3.469	3.271	2.976	2.888	2.677	2.502	2.316	2.622	2.348	2.308	2.376	2.303	2.342	2.180	2.218	1.996	2.015	1.617	1.379	1.334	1.589	1.345	1.344	1.677	1.877	1.676	1.277	1.050	1.064	0.879	0.970	1.066	1.241	1.538	1.331	1.094	1.062	0.885	1.066	0.981	2.026	4.013	10.68	66.89	235.5
610.0	108.8	105.5	78.21	35.51	23.37	20.69	25.82	37.52	53.15	76.24	120.7	167.3	108.1	67.56	35.61	90.79	1282	1984	47.60	5.165	4.412	4.049	3.748	3.291	3.481	3.269	3.143	3.252	3.403	3.436	3.290	2.983	2.746	2.646	2.604	2.485	2.526	2.482	2.098	2.029	1.841	2.013	1.935	1.974	1.857	1.821	1.887	1.818	1.613	1.420	1.221	1.208	1.197	1.147	1.104	1.332	1.626	1.605	1.313	1.007	0.837	0.929	1.012	0.969	1.125	1.245	1.365	1.214	1.046	0.954	0.963	0.877	1.049	1.530	2.934	15.67	67.40
615.0	108.7	91.15	62.97	34.52	19.74	19.88	23.34	34.86	52.05	72.07	100.1	153.1	126.8	66.20	32.20	31.64	308.6	1968	621.4	6.917	4.647	3.759	3.449	2.987	3.186	2.670	2.946	2.608	3.072	3.128	2.939	2.583	2.337	2.412	2.194	2.201	1.919	2.283	2.135	1.800	1.598	1.688	1.546	1.602	1.756	1.589	1.761	1.508	1.301	1.266	1.127	1.122	0.928	1.024	0.917	1.034	1.136	1.330	1.301	1.031	1.004	0.874	0.916	0.907	1.043	1.116	1.093	1.127	1.071	0.949	0.988	0.917	0.860	0.893	1.138	4.017	15.46
620.0	89.99	94.17	61.01	33.36	17.68	20.80	24.72	33.03	47.99	70.36	93.65	130.1	135.7	69.07	32.26	18.60	76.91	967.2	1837	35.78	4.454	3.191	2.966	2.742	2.985	2.699	2.876	2.639	2.586	2.645	2.654	2.278	2.097	2.169	2.238	2.145	1.987	2.011	2.031	1.532	1.590	1.385	1.428	1.296	1.531	1.621	1.505	1.448	1.209	1.084	0.986	1.021	0.959	0.867	0.939	0.923	0.821	1.126	1.290	1.123	0.904	0.904	0.849	0.943	0.999	1.015	1.007	1.029	1.298	0.951	0.985	0.880	0.718	0.812	0.841	1.470	4.010
625.0	99.26	80.28	60.18	33.65	19.03	21.51	23.95	32.79	45.86	66.68	89.10	111.8	134.2	75.76	33.11	16.17	24.57	285.8	2145	352.6	4.537	3.440	3.095	2.870	2.855	2.484	2.311	2.436	2.605	2.553	2.244	2.157	1.791	1.847	1.891	1.953	1.932	1.738	1.794	1.558	1.450	1.252	1.296	1.310	1.407	1.330	1.301	1.270	1.168	1.026	0.984	0.987	0.809	0.892	0.957	0.814	0.800	0.822	1.185	1.178	0.920	0.989	0.794	0.925	0.953	0.930	0.859	1.014	1.199	1.176	0.851	0.785	0.763	0.738	0.750	0.937	1.297
630.0	85.89	76.29	55.56	31.15	20.43	21.37	23.02	31.87	45.93	66.79	86.14	98.93	113.0	89.64	35.35	15.40	12.65	70.88	1043	1437	33.14	3.437	2.818	2.637	2.469	2.339	2.116	2.315	2.218	2.013	1.878	1.925	1.696	1.585	1.697	1.758	1.494	1.460	1.454	1.332	1.396	1.222	1.239	1.196	1.275	1.231	1.053	1.047	1.032	0.933	0.852	0.827	0.713	0.820	0.785	0.779	0.714	0.748	0.962	1.096	0.991	0.881	0.780	0.938	0.815	0.836	0.931	0.899	0.970	1.208	1.064	0.875	0.730	0.692	0.669	0.685	0.742
635.0	70.00	72.84	52.70	27.95	21.99	20.35	23.25	32.87	45.05	63.20	78.18	89.88	90.83	96.58	42.37	15.31	10.67	21.66	252.8	1584	467.3	3.986	2.870	2.641	2.171	2.181	1.783	2.024	1.869	1.713	1.938	1.562	1.721	1.586	1.533	1.398	1.355	1.350	1.296	1.211	1.266	1.170	1.067	1.086	1.137	1.099	1.043	0.847	0.933	0.753	0.759	0.799	0.705	0.704	0.774	0.642	0.721	0.806	0.707	0.807	0.933	0.945	0.883	0.793	0.830	0.919	0.978	0.799	0.808	0.937	0.947	0.912	0.848	0.613	0.771	0.621	0.588
640.0	69.44	72.54	48.72	24.87	22.15	20.49	24.22	33.50	44.79	61.98	73.56	81.76	80.35	88.35	53.60	16.92	10.25	10.39	62.00	845.6	1302	18.21	2.800	2.317	2.348	2.063	1.878	1.798	1.739	1.739	1.730	1.515	1.457	1.543	1.385	1.363	1.224	1.144	1.264	1.017	1.035	1.308	0.984	0.992	0.953	1.017	0.937	0.900	0.800	0.732	0.714	0.713	0.660	0.615	0.720	0.634	0.764	0.798	0.758	0.680	0.989	0.963	0.928	0.882	0.718	0.806	0.885	0.928	0.814	0.822	0.891	0.976	0.865	0.650	0.634	0.568	0.617
645.0	72.78	66.78	44.12	26.93	19.78	19.35	25.57	34.56	40.55	60.60	68.18	82.65	77.28	73.33	61.91	18.73	10.60	7.987	18.76	260.3	1650	67.14	3.073	2.417	2.017	1.800	1.807	1.885	1.494	1.666	1.584	1.600	1.473	1.419	1.349	1.101	1.319	1.096	1.156	0.988	0.943	1.147	1.123	0.928	0.905	0.941	0.888	0.927	0.706	0.781	0.641	0.689	0.653	0.601	0.626	0.572	0.666	0.818	0.733	0.723	0.827	0.900	0.897	0.847	0.767	0.845	0.826	0.829	0.762	0.822	0.815	0.885	0.855	0.663	0.702	0.586	0.598
650.0	65.77	64.28	42.70	27.93	19.77	20.04	22.69	33.32	43.48	56.37	72.14	79.67	74.00	64.34	62.44	25.79	11.34	7.963	9.105	66.37	1189	511.5	5.292	2.265	2.189	1.885	1.994	1.782	1.351	1.709	1.475	1.397	1.411	1.503	1.226	1.124	1.254	0.966	0.922	0.865	0.878	0.908	1.192	0.925	0.872	0.866	0.890	0.808	0.728	0.643	0.615	0.653	0.570	0.613	0.599	0.599	0.602	0.762	0.675	0.788	0.673	0.888	0.940	0.976	0.900	0.819	0.766	0.791	0.739	0.841	0.851	0.803	0.837	0.659	0.533	0.583	0.593
