Sample:	'1
File name:	Default_20231008_192123.FD3
Run date:	'19:15:02, 10/08/2023
Operator:	dsjg
Comment:	'

Instrument
Model:	F-2700 FL Spectrophotometer
Serial number:	2198-001
ROM Version:	4J14000 07

Instrument parameters
Measurement type:	3-D scan
Data mode:	Fluorescence
EX  Start WL:	220.0 nm
EX  End WL:	600.0 nm
EX Sampling interval:	5.0 nm
EM  Start WL:	230.0 nm
EM  End WL:	650.0 nm
EM Sampling interval:	5.0 nm
Scan speed:	12000 nm/min
EX Slit:	5.0 nm
EM Slit:	5.0 nm
PMT Voltage:	700 V
Response:	Auto 
Corrected spectra:	Off
Contour interval:	50.000

Peak integration
Integration method:	Rectangular
Sensitivity:	1
Threshold:	1.000

Peaks
No.	ApexEX/EM(nm)	Height(Data)
1	230.0/505.0	128.6
2	235.0/260.0	140.9
3	235.0/515.0	99.97
4	245.0/295.0	 4140
5	245.0/360.0	 2622
6	245.0/580.0	377.8
7	270.0/295.0	 6554
8	270.0/575.0	571.4
9	275.0/350.0	 1739
10	350.0/400.0	148.4
11	355.0/405.0	132.3
12	365.0/420.0	96.81
13	370.0/425.0	87.71
14	385.0/445.0	53.90
15	395.0/455.0	37.93
16	400.0/295.0	19.29
17	400.0/465.0	33.25
18	405.0/470.0	26.32
19	410.0/475.0	22.24
20	415.0/485.0	20.23
21	420.0/490.0	16.40
22	425.0/495.0	14.28
23	430.0/505.0	12.65
24	435.0/510.0	10.03
25	440.0/520.0	8.933
26	445.0/525.0	7.897
27	450.0/530.0	6.491
28	455.0/540.0	5.689
29	460.0/545.0	4.663
30	470.0/560.0	4.015
31	475.0/565.0	3.557
32	485.0/575.0	3.562
33	500.0/295.0	23.36
34	500.0/360.0	14.08
35	540.0/295.0	40.17
36	555.0/295.0	37.73

Data points
	220.0	225.0	230.0	235.0	240.0	245.0	250.0	255.0	260.0	265.0	270.0	275.0	280.0	285.0	290.0	295.0	300.0	305.0	310.0	315.0	320.0	325.0	330.0	335.0	340.0	345.0	350.0	355.0	360.0	365.0	370.0	375.0	380.0	385.0	390.0	395.0	400.0	405.0	410.0	415.0	420.0	425.0	430.0	435.0	440.0	445.0	450.0	455.0	460.0	465.0	470.0	475.0	480.0	485.0	490.0	495.0	500.0	505.0	510.0	515.0	520.0	525.0	530.0	535.0	540.0	545.0	550.0	555.0	560.0	565.0	570.0	575.0	580.0	585.0	590.0	595.0	600.0
230.0	98.95	931.9	 1215	211.4	14.11	9.481	7.995	7.147	6.006	6.128	5.553	4.835	3.645	2.792	2.356	2.037	1.837	1.690	1.527	1.425	1.398	1.227	1.117	1.178	1.124	1.077	1.024	1.057	1.091	1.011	0.983	0.910	0.927	0.947	0.895	0.903	0.939	0.929	0.865	0.786	0.851	0.960	0.979	0.818	0.659	0.688	1.025	3.262	5.802	4.927	2.192	0.712	0.517	0.574	0.536	0.535	0.573	0.566	0.565	0.545	0.582	0.565	0.548	0.545	0.580	0.572	0.553	0.553	0.574	0.542	0.578	0.547	0.598	0.564	0.567	0.588	0.631
235.0	80.93	297.5	963.7	 1040	227.4	12.45	8.053	7.039	6.594	5.866	5.490	4.864	3.643	2.689	2.483	1.995	2.081	1.798	1.519	1.401	1.394	1.428	1.286	1.089	1.167	1.051	1.061	0.946	1.074	1.038	0.914	1.008	0.873	0.977	0.919	0.891	0.880	0.889	0.827	0.805	0.764	0.814	0.846	0.905	0.916	0.776	0.748	1.193	2.293	3.632	5.197	5.561	3.065	0.943	0.561	0.595	0.581	0.542	0.584	0.562	0.570	0.568	0.554	0.620	0.639	0.554	0.537	0.545	0.586	0.548	0.547	0.500	0.496	0.584	0.554	0.620	0.627
240.0	113.4	103.8	360.3	 1105	935.7	144.1	9.451	7.716	6.877	6.054	6.501	5.910	3.879	3.206	2.558	2.079	1.799	1.827	1.524	1.534	1.435	1.369	1.326	1.193	1.125	1.169	1.081	1.050	1.018	1.098	0.883	0.940	0.926	0.862	0.837	0.730	0.788	0.775	0.847	0.839	0.682	0.800	0.805	0.804	0.929	0.962	0.843	0.855	1.023	1.363	2.703	5.792	7.300	5.281	2.152	0.675	0.606	0.595	0.559	0.537	0.578	0.615	0.540	0.641	0.571	0.518	0.540	0.553	0.605	0.576	0.579	0.564	0.583	0.552	0.552	0.610	0.574
245.0	113.1	107.8	107.9	495.9	 1249	783.6	79.16	9.432	7.006	6.564	6.960	5.856	4.004	3.210	2.484	2.053	1.631	1.879	1.541	1.558	1.490	1.196	1.288	1.127	1.130	1.132	1.116	1.077	1.122	1.123	0.965	0.878	0.906	0.936	0.919	0.768	0.833	0.742	0.801	0.840	0.724	0.770	0.736	0.752	0.804	0.917	0.944	0.899	0.744	0.717	1.029	2.313	4.737	7.654	7.542	4.299	1.415	0.648	0.674	0.504	0.607	0.573	0.512	0.610	0.565	0.525	0.563	0.614	0.588	0.662	0.544	0.563	0.600	0.596	0.666	0.599	0.531
250.0	63.68	108.2	104.9	146.3	510.5	 1118	844.5	144.2	15.51	7.400	7.065	6.164	4.476	3.118	2.443	2.266	1.894	1.935	1.629	1.560	1.479	1.281	1.230	1.215	1.136	1.107	1.105	1.035	1.054	1.089	1.049	0.908	0.952	0.849	0.912	0.850	0.778	0.703	0.811	0.801	0.775	0.796	0.706	0.747	0.740	0.775	0.792	0.902	0.984	0.893	0.761	1.030	1.570	2.811	4.790	6.736	8.162	6.787	3.940	1.441	0.670	0.515	0.534	0.600	0.563	0.576	0.590	0.611	0.590	0.582	0.545	0.544	0.524	0.578	0.626	0.606	0.582
255.0	36.16	51.00	106.2	124.2	137.6	352.3	 1119	 1456	193.7	15.22	8.182	7.653	5.369	3.418	2.599	2.484	2.194	2.059	1.640	1.580	1.488	1.269	1.255	1.218	1.105	1.091	1.212	1.131	1.145	1.106	1.042	0.959	0.942	0.955	0.835	0.849	0.774	0.749	0.747	0.677	0.835	0.852	0.814	0.693	0.750	0.760	0.719	0.751	0.792	0.835	0.926	1.161	0.996	1.092	1.541	2.070	3.636	7.450	11.07	11.05	5.901	1.487	0.630	0.617	0.649	0.579	0.562	0.616	0.578	0.535	0.532	0.526	0.512	0.602	0.619	0.590	0.607
260.0	34.15	24.86	63.36	140.9	99.06	98.79	443.8	 1597	 1423	145.9	11.51	8.025	5.758	3.875	2.835	2.461	2.222	1.963	1.982	1.638	1.497	1.488	1.223	1.218	1.290	1.190	1.160	1.103	1.097	1.107	1.022	0.916	0.977	0.947	0.833	0.898	0.751	0.775	0.772	0.664	0.738	0.780	0.817	0.834	0.727	0.675	0.643	0.665	0.640	0.607	0.726	1.221	1.251	0.956	0.838	0.933	1.327	2.529	5.669	11.14	14.33	9.690	3.616	0.841	0.623	0.575	0.596	0.616	0.566	0.608	0.564	0.619	0.531	0.526	0.573	0.630	0.625
265.0	31.46	25.68	30.76	91.55	137.4	67.00	121.2	703.8	 1924	 1220	110.3	11.12	6.473	4.240	3.065	2.543	2.451	2.104	1.826	1.707	1.473	1.402	1.283	1.113	1.169	1.232	1.241	1.071	1.098	1.138	1.149	0.943	0.985	0.876	0.761	0.833	0.810	0.822	0.714	0.680	0.756	0.767	0.768	0.756	0.682	0.751	0.641	0.672	0.647	0.569	0.601	0.871	1.205	1.371	0.957	0.808	0.804	1.069	1.827	3.949	8.534	14.42	14.54	8.205	2.208	0.656	0.647	0.604	0.582	0.617	0.624	0.527	0.548	0.601	0.608	0.600	0.548
270.0	56.37	52.75	63.59	100.4	171.8	202.1	147.3	250.1	827.9	 1742	 1700	502.8	45.40	7.776	3.864	2.970	2.810	2.278	1.944	1.861	1.455	1.406	1.333	1.301	1.306	1.209	1.239	1.129	1.138	1.148	1.131	1.033	1.061	1.002	1.039	1.187	1.155	1.145	1.007	0.906	0.834	0.816	0.816	0.842	0.854	0.794	0.704	0.773	0.729	0.745	0.779	0.902	1.117	1.321	1.484	1.612	1.563	1.411	1.323	1.793	2.867	5.420	8.753	12.34	13.94	11.29	6.638	2.664	1.071	0.701	0.678	0.581	0.594	0.561	0.588	0.615	0.624
275.0	299.4	420.8	576.4	540.0	 1035	 1146	 1104	 1014	 1303	 1732	 3106	 3675	855.7	56.42	7.743	4.009	3.465	2.647	2.556	2.103	1.760	1.604	1.495	1.525	1.478	1.362	1.344	1.197	1.110	1.260	1.209	1.184	1.332	2.442	3.314	4.772	4.982	5.087	4.157	3.212	2.314	1.791	1.507	1.417	1.395	1.435	1.670	1.926	2.209	2.509	3.203	4.247	4.922	5.804	6.083	6.520	7.434	6.954	6.148	6.042	6.604	8.415	9.650	11.54	15.09	18.38	23.01	24.32	12.28	2.836	0.920	0.743	0.730	0.650	0.739	0.808	0.928
280.0	679.5	943.5	 1330	 1757	 2228	 2392	 2237	 2127	 2566	 3307	 4046	 5147	 3145	524.7	18.56	5.489	4.193	3.180	2.749	2.557	2.320	1.821	1.595	1.547	1.531	1.424	1.410	1.176	1.185	1.408	1.116	1.170	1.916	3.952	6.578	9.510	10.57	10.24	8.513	6.085	4.328	3.243	2.794	2.315	2.151	2.628	2.964	3.661	4.407	5.096	6.286	8.611	10.48	12.05	12.74	13.10	13.95	13.28	12.27	12.63	13.19	15.38	17.82	19.87	23.53	21.64	23.54	33.93	28.28	15.84	6.067	1.217	0.886	0.850	0.931	0.950	1.192
285.0	971.6	 1244	 1892	 2496	 3068	 3241	 2998	 2959	 3587	 4541	 5065	 5157	 3698	 2022	92.10	8.938	4.626	3.801	3.112	2.813	2.400	1.850	1.668	1.749	1.612	1.651	1.416	1.237	1.417	1.378	1.202	1.366	2.218	5.127	9.403	13.39	14.82	14.34	11.84	8.598	5.845	4.291	3.731	3.150	3.288	3.523	3.971	4.776	5.886	6.997	8.212	12.15	14.00	16.32	17.22	17.75	18.65	17.65	16.25	16.76	18.53	21.82	23.90	26.73	31.38	27.33	25.23	32.73	23.72	20.48	20.07	11.91	2.950	1.086	0.999	1.153	1.297
290.0	 1348	 1754	 2415	 3170	 3860	 4050	 3706	 3615	 4517	 5803	 6311	 5779	 2754	 1921	 1800	352.5	24.82	4.845	3.884	3.207	2.738	2.242	1.953	1.860	1.813	1.692	1.444	1.544	1.443	1.392	1.306	1.413	2.781	6.468	12.06	16.76	18.86	18.19	14.86	10.77	7.505	5.547	4.648	4.042	4.158	4.404	5.057	6.221	7.399	8.650	10.30	14.44	17.43	20.28	21.11	22.11	23.26	21.52	19.94	20.43	22.99	26.79	30.41	33.11	38.95	33.83	29.84	37.60	20.92	10.77	11.82	14.97	15.98	13.66	8.037	2.867	1.546
295.0	 1502	 1926	 2512	 3258	 3908	 4140	 3775	 3648	 4536	 5963	 6554	 5829	 2392	816.9	 1295	 2255	541.5	26.87	4.488	3.821	3.087	2.404	2.212	2.072	2.030	1.709	1.749	1.503	1.675	1.391	1.530	1.598	2.851	6.911	12.47	17.18	19.29	18.58	15.35	11.46	7.888	5.908	5.061	4.357	4.602	5.096	5.368	6.618	7.700	8.934	10.54	14.92	17.69	20.72	21.35	22.17	23.36	21.60	20.02	20.45	22.96	26.58	30.64	34.29	40.17	34.74	30.83	37.73	20.37	8.405	5.748	5.362	6.533	11.61	19.80	20.48	10.46
300.0	 1506	 1889	 2405	 3080	 3684	 3879	 3534	 3422	 4237	 5535	 6211	 5595	 2261	575.5	513.6	 1615	 2408	434.2	12.80	4.409	3.437	2.748	2.332	2.245	2.054	1.835	1.676	1.718	1.619	1.503	1.360	1.624	2.858	6.670	12.08	16.45	18.42	17.76	14.83	10.55	7.708	5.797	5.050	4.532	4.543	5.099	5.274	6.385	7.443	8.622	9.959	13.83	16.39	19.37	20.05	20.79	21.58	20.06	18.60	19.41	21.55	24.75	28.42	31.78	37.82	33.43	29.60	35.71	19.88	7.927	4.610	3.613	3.245	4.331	9.020	17.61	23.57
305.0	 1404	 1740	 2123	 2693	 3181	 3367	 3059	 2992	 3703	 4802	 5406	 5000	 2112	548.9	274.7	590.0	 1944	 2435	63.17	7.225	3.956	3.266	2.371	2.294	2.095	1.865	1.764	1.660	1.565	1.605	1.245	1.792	2.652	6.140	10.79	14.63	16.14	15.77	12.81	9.339	6.936	5.241	4.658	4.123	4.496	4.554	4.879	5.976	7.029	7.508	8.796	12.04	14.51	16.56	17.57	17.66	18.70	17.23	16.79	16.67	18.87	21.61	24.70	27.30	32.57	29.28	26.75	32.16	18.17	7.716	4.647	3.135	2.534	2.524	3.446	6.386	12.85
310.0	 1201	 1416	 1692	 2099	 2463	 2626	 2393	 2367	 2918	 3766	 4215	 3970	 1897	619.5	267.3	236.8	634.9	 1706	 2131	934.5	21.03	4.165	3.274	2.630	2.271	2.008	1.833	1.715	1.554	1.590	1.356	1.605	2.312	5.128	8.715	11.57	12.51	11.91	10.10	7.757	5.618	4.522	4.072	3.812	3.867	4.042	4.137	4.974	5.631	6.207	6.968	9.607	11.19	13.05	13.56	14.06	14.75	13.58	13.08	13.65	15.05	17.59	19.33	21.34	25.57	23.07	21.64	25.33	15.50	7.902	5.164	3.499	2.653	2.188	2.160	2.686	4.232
315.0	 1006	 1124	 1303	 1542	 1798	 1939	 1790	 1803	 2210	 2816	 3160	 2981	 1588	745.9	357.7	208.1	239.2	475.8	 1134	 2673	 1376	24.99	3.979	3.074	2.522	2.091	1.926	1.623	1.873	1.564	1.341	1.589	2.073	3.974	6.749	8.331	9.352	8.469	7.535	5.793	4.379	3.553	3.426	3.339	3.413	3.432	3.581	4.234	4.439	4.642	5.469	7.416	8.446	9.777	10.12	10.36	10.83	10.14	9.955	10.55	11.71	13.52	14.85	16.27	19.16	17.36	16.33	18.81	11.82	7.428	5.728	4.654	3.220	2.624	2.263	2.226	2.522
320.0	901.9	969.1	 1056	 1229	 1417	 1522	 1445	 1484	 1810	 2281	 2561	 2430	 1385	770.6	488.6	263.1	194.6	208.2	378.9	 1517	 2992	372.6	15.14	3.797	2.819	2.335	2.048	1.875	1.761	1.640	1.496	1.563	1.936	3.342	5.224	6.751	7.183	6.813	5.766	4.681	3.635	3.328	3.000	3.134	2.972	3.190	3.371	3.758	3.923	3.879	4.498	5.677	6.702	7.532	7.929	8.539	8.745	8.298	8.344	8.815	9.654	10.90	12.21	13.65	15.50	14.38	13.39	15.02	10.20	6.692	5.645	5.162	4.274	3.372	2.601	2.398	2.202
325.0	863.0	912.2	930.4	 1033	 1200	 1276	 1235	 1289	 1540	 1914	 2145	 2071	 1272	767.9	585.2	379.9	233.3	186.6	186.3	499.5	 1946	 2732	299.2	6.836	3.410	2.569	2.165	1.994	1.806	1.547	1.625	1.608	1.829	3.001	4.389	5.665	5.806	5.438	4.797	3.786	3.123	2.981	2.843	2.824	2.909	3.013	3.016	3.562	3.517	3.636	3.981	4.988	5.776	6.518	7.064	7.336	7.697	7.588	7.114	7.785	8.364	9.314	10.24	11.17	12.99	12.34	11.38	12.58	9.208	6.830	5.633	4.826	4.555	4.432	3.408	2.961	2.521
330.0	867.7	907.7	935.3	 1005	 1128	 1204	 1176	 1220	 1391	 1647	 1841	 1794	 1249	837.0	634.3	522.0	379.5	257.9	198.7	219.9	589.1	 1660	 2413	 1019	19.59	3.534	2.746	2.183	1.984	1.701	1.791	1.675	1.828	2.631	3.582	4.412	4.477	4.503	4.039	3.211	2.959	2.779	2.672	2.827	2.807	3.114	3.103	3.481	3.590	3.590	3.735	4.765	5.440	6.091	6.439	6.775	7.231	7.199	6.867	7.301	7.756	8.421	9.111	9.776	10.82	10.72	9.876	10.70	8.598	6.757	6.134	5.184	4.892	4.735	4.432	4.192	3.524
335.0	926.0	 1013	 1082	 1181	 1298	 1381	 1348	 1344	 1410	 1559	 1700	 1687	 1318	987.6	757.8	613.3	552.5	401.0	271.3	208.2	234.1	443.1	 1061	 2825	 1465	24.31	3.721	2.920	2.466	1.974	1.926	1.712	1.988	2.420	3.067	3.788	4.078	3.967	3.670	3.042	2.779	2.711	2.602	2.845	3.060	3.216	3.166	3.657	4.010	4.041	4.269	5.384	6.389	6.788	7.157	7.631	8.348	8.089	7.807	7.995	8.088	8.505	8.906	9.312	9.928	9.918	9.650	9.999	8.735	7.311	6.800	6.084	5.628	5.351	5.058	4.475	4.663
340.0	976.6	 1162	 1259	 1391	 1544	 1643	 1603	 1541	 1519	 1574	 1683	 1681	 1406	 1118	873.2	695.8	609.1	535.5	354.1	241.7	187.2	180.5	312.7	 1455	 3095	338.1	14.57	3.507	2.704	2.247	2.048	2.007	1.936	2.208	2.806	3.575	3.805	3.850	3.591	3.019	2.802	2.653	2.784	2.724	3.045	3.417	3.456	4.144	4.387	4.532	4.941	6.439	7.302	7.955	8.264	8.726	9.316	9.301	8.982	9.086	9.300	8.703	9.077	9.649	9.952	9.645	9.475	9.959	8.839	7.811	7.337	6.616	6.517	6.143	5.581	5.016	4.765
345.0	 1054	 1268	 1447	 1641	 1814	 1936	 1890	 1776	 1651	 1632	 1697	 1706	 1482	 1226	983.1	779.8	647.6	587.1	462.4	292.7	204.4	142.8	130.9	426.4	 1973	 2685	273.9	7.186	3.192	2.788	2.097	2.111	2.063	2.370	2.999	3.529	3.881	3.922	3.476	3.350	2.713	2.691	2.752	2.771	3.005	3.233	3.678	4.568	4.981	5.117	5.597	7.475	8.367	9.055	9.659	9.937	10.33	10.58	10.26	10.10	10.11	9.606	9.566	9.603	9.837	9.690	9.521	9.566	9.020	8.260	7.736	7.816	7.116	6.680	6.059	5.679	5.031
350.0	 1092	 1384	 1652	 1924	 2149	 2279	 2223	 2030	 1808	 1709	 1725	 1739	 1566	 1324	 1085	868.9	707.9	596.2	523.9	399.2	252.7	161.5	111.6	146.8	541.4	 1618	 2261	978.5	18.94	3.387	2.652	2.303	2.096	2.470	3.013	3.628	4.097	3.857	3.648	3.315	2.904	2.780	2.695	2.797	3.151	3.419	3.819	4.747	5.364	5.568	6.480	8.379	9.613	10.51	11.13	11.86	12.27	12.29	11.98	11.53	10.85	10.39	9.968	9.922	9.772	9.817	9.606	9.618	9.307	8.905	8.507	8.163	7.803	7.154	6.642	6.194	5.807
355.0	 1114	 1469	 1772	 2120	 2375	 2529	 2436	 2209	 1905	 1735	 1721	 1729	 1596	 1378	 1149	925.7	757.8	621.8	515.8	456.5	339.5	195.4	126.6	100.4	163.5	396.2	944.0	 2712	 1409	24.11	3.566	2.706	2.416	2.594	3.244	3.491	4.021	3.867	3.789	3.476	2.900	2.916	2.745	2.806	3.115	3.489	3.955	4.990	5.632	6.095	6.834	9.075	10.56	11.61	12.21	12.88	13.57	13.42	12.98	12.45	11.87	10.95	10.29	10.00	10.00	9.722	9.412	9.547	9.249	9.525	8.804	8.313	8.092	7.169	6.934	6.396	6.267
360.0	 1110	 1471	 1819	 2179	 2461	 2622	 2526	 2252	 1904	 1729	 1696	 1688	 1583	 1384	 1156	947.6	783.0	634.8	516.5	443.1	390.9	242.7	145.5	101.2	87.88	121.8	250.3	 1353	 2934	325.8	14.67	3.269	2.595	2.686	3.209	3.600	4.113	3.835	3.680	3.550	2.975	2.928	2.633	2.754	2.998	3.563	4.014	4.911	5.529	6.190	7.177	9.418	10.87	11.83	12.55	13.25	14.08	13.84	13.31	12.74	11.88	10.86	10.57	9.748	10.02	9.565	9.389	9.504	9.147	9.202	9.045	8.260	8.092	7.656	7.035	6.849	6.585
365.0	 1087	 1451	 1809	 2191	 2481	 2615	 2508	 2237	 1886	 1677	 1638	 1649	 1546	 1358	 1145	936.7	774.3	641.7	527.0	431.1	382.6	300.6	171.3	111.4	79.73	67.57	82.34	368.7	 1914	 2560	263.2	6.120	3.065	3.006	3.109	3.569	4.030	3.682	3.633	3.426	3.000	2.763	2.675	2.750	2.917	3.687	3.734	4.934	5.567	6.106	7.381	9.489	10.66	12.07	12.57	13.43	14.03	13.93	13.29	12.53	11.74	10.46	10.26	9.622	9.660	9.587	9.119	9.075	9.126	9.140	8.827	8.268	8.074	7.435	7.017	6.766	6.654
370.0	 1047	 1390	 1752	 2107	 2375	 2489	 2404	 2131	 1786	 1574	 1538	 1541	 1449	 1293	 1093	905.5	757.1	634.9	530.7	435.7	359.8	306.6	235.6	143.6	93.55	68.67	55.31	107.2	507.4	 1590	 2249	876.6	16.41	3.364	3.553	3.780	3.961	3.709	3.552	3.279	2.881	2.639	2.608	2.675	3.029	3.406	3.820	4.733	5.305	5.939	7.095	9.166	10.33	11.64	12.46	12.95	13.52	13.51	12.85	11.93	11.24	10.42	9.696	9.240	8.771	8.804	8.698	8.310	8.488	8.190	8.190	8.002	7.694	7.345	6.929	6.582	6.422
375.0	959.6	 1285	 1625	 1967	 2184	 2291	 2226	 1955	 1633	 1429	 1398	 1397	 1319	 1184	 1015	849.7	718.2	613.0	518.7	435.2	355.2	282.4	251.5	206.3	117.5	80.02	58.41	57.54	136.1	376.6	975.4	 2633	 1209	20.57	3.815	3.603	3.848	3.605	3.499	3.129	2.590	2.669	2.702	2.617	2.809	3.193	3.620	4.402	5.027	5.652	6.395	8.562	9.718	10.48	11.56	12.00	12.55	12.50	12.11	11.16	10.25	9.785	8.740	8.320	8.008	8.232	7.997	7.656	7.672	7.656	7.690	7.323	7.463	6.905	6.471	6.309	6.155
380.0	902.9	 1191	 1539	 1806	 2025	 2122	 2031	 1805	 1497	 1316	 1292	 1280	 1215	 1093	947.2	796.6	683.5	591.9	505.1	429.9	356.0	276.5	234.0	230.2	155.2	91.76	65.74	50.89	57.89	103.2	248.8	 1373	 2607	275.9	12.08	4.009	3.693	3.688	3.372	3.026	2.529	2.530	2.593	2.570	2.806	3.313	3.540	4.250	4.683	5.213	5.958	7.952	9.119	9.968	10.64	11.27	11.97	11.50	11.15	10.25	9.660	8.716	8.010	7.906	7.257	7.276	7.096	7.329	7.388	7.018	6.955	7.019	6.808	6.517	6.051	5.812	6.005
385.0	833.8	 1108	 1424	 1681	 1862	 1946	 1870	 1635	 1361	 1202	 1177	 1176	 1112	 1011	877.1	746.8	646.1	565.3	488.0	420.0	351.7	279.0	224.3	210.8	191.8	114.0	73.84	55.41	44.38	45.80	71.43	368.7	 1811	 2162	205.4	5.395	3.823	3.653	3.352	2.800	2.620	2.488	2.302	2.250	2.764	2.986	3.311	4.043	4.628	4.995	5.698	7.688	8.567	9.504	9.778	10.08	10.82	10.74	10.05	9.344	8.875	7.994	7.611	7.162	6.586	6.685	6.701	6.788	6.716	6.512	6.797	6.420	6.140	6.092	5.952	5.466	5.748
390.0	789.7	 1008	 1263	 1482	 1637	 1701	 1618	 1421	 1190	 1044	 1021	 1029	986.0	891.1	781.6	676.2	593.8	522.8	458.7	404.2	346.0	279.9	225.2	190.5	182.2	156.8	98.16	64.53	48.12	38.51	35.81	95.97	476.9	 1413	 1835	667.8	14.68	3.656	3.302	2.824	2.559	2.456	2.351	2.287	2.559	2.781	3.068	3.831	4.163	4.391	5.165	6.914	7.828	8.177	8.717	8.788	9.546	9.390	8.716	8.224	7.635	7.018	6.766	6.272	5.999	5.964	5.918	6.086	6.087	5.937	5.890	5.832	5.630	5.435	5.334	5.230	5.278
395.0	710.8	905.2	 1106	 1283	 1403	 1447	 1386	 1210	 1010	894.7	866.9	883.4	848.4	775.3	683.6	597.3	534.4	479.0	426.4	384.5	332.7	276.2	226.5	186.9	162.0	154.1	141.7	83.09	54.81	42.28	32.51	38.23	117.2	328.5	842.3	 2149	 1020	16.39	3.336	2.925	2.506	2.427	2.209	2.199	2.452	2.744	2.958	3.381	3.747	4.044	4.694	6.126	6.947	7.117	7.634	7.622	8.275	8.261	7.607	7.243	6.735	6.090	5.831	5.746	5.227	5.113	5.247	5.450	5.340	5.208	5.406	5.237	5.135	5.019	4.771	4.626	4.866
400.0	635.9	836.3	 1009	 1133	 1242	 1286	 1220	 1062	890.3	792.6	776.0	778.7	745.8	694.4	615.5	543.4	487.0	442.5	401.2	365.0	320.9	266.2	223.0	185.1	155.1	138.4	148.4	111.4	63.36	46.08	35.15	27.59	39.43	82.86	210.9	 1180	 2380	228.1	7.961	2.987	2.621	2.529	2.120	2.072	2.221	2.819	2.769	3.108	3.570	3.843	4.210	5.372	6.238	6.578	6.747	7.015	7.375	7.275	6.815	6.457	6.049	5.546	5.230	4.906	4.705	4.841	4.521	4.614	4.860	4.737	4.954	4.748	4.763	4.424	4.449	4.313	4.590
405.0	596.5	743.5	909.2	 1043	 1111	 1139	 1082	947.3	800.0	709.1	689.6	696.1	668.8	617.7	554.1	495.0	451.2	411.8	375.1	343.8	311.0	260.5	220.3	182.7	152.7	129.7	129.2	132.3	80.75	50.59	37.45	28.20	23.83	29.77	56.19	316.0	 1600	 1750	31.75	4.450	2.787	2.514	2.361	2.145	2.248	2.474	2.443	3.071	3.248	3.671	3.758	4.951	5.519	5.903	5.927	6.301	6.450	6.426	6.041	5.994	5.303	5.075	4.847	4.456	4.178	4.176	4.031	4.214	4.451	4.218	4.458	4.472	4.387	4.134	4.162	4.045	4.057
410.0	537.6	665.4	802.4	910.2	959.5	983.7	922.2	803.8	678.0	607.1	597.9	597.3	583.4	536.6	486.7	436.9	401.5	371.1	340.7	316.1	288.5	245.3	210.8	179.8	150.8	126.9	113.3	116.4	108.9	69.35	42.95	31.24	23.70	20.17	22.87	78.96	419.4	 1178	 1439	486.9	11.41	2.637	2.350	2.189	2.311	2.308	2.433	2.808	2.979	3.237	3.386	4.355	4.844	5.215	5.289	5.565	5.688	5.619	5.279	5.147	4.702	4.485	4.244	3.902	3.787	3.726	3.824	3.786	3.839	3.754	3.912	3.806	3.813	3.863	3.777	3.533	3.712
415.0	493.8	597.1	692.9	781.1	807.8	839.2	780.1	673.5	576.3	518.1	506.8	509.1	495.4	455.9	417.6	376.2	350.2	327.8	306.8	283.2	262.1	228.3	199.2	171.1	146.7	125.2	107.3	96.58	100.2	96.78	55.82	35.37	25.51	20.25	17.43	26.93	101.0	274.2	718.3	 1657	228.1	12.64	2.491	2.079	2.131	2.244	2.217	2.683	2.804	2.889	3.062	3.816	4.319	4.480	4.810	4.860	4.867	4.883	4.685	4.425	3.997	3.784	3.556	3.339	3.308	3.302	3.236	3.323	3.252	3.404	3.367	3.329	3.272	3.187	3.260	3.229	3.294
420.0	452.5	541.0	637.3	692.5	720.6	741.0	680.5	583.9	508.9	454.2	447.3	447.9	436.9	407.4	371.2	338.9	315.2	299.5	281.1	262.2	244.1	214.6	188.3	164.0	141.9	123.1	104.4	91.05	84.66	96.81	76.65	40.97	27.80	21.14	16.67	16.19	30.73	67.79	180.4	960.4	 1600	198.5	5.760	2.209	2.156	2.324	2.193	2.471	2.496	2.759	2.895	3.587	3.789	4.120	4.301	4.265	4.295	4.259	4.210	3.840	3.584	3.234	3.193	3.090	3.059	2.812	2.971	2.812	3.063	2.999	2.988	3.019	2.896	3.007	3.081	3.036	3.075
425.0	413.0	499.2	581.5	623.9	657.1	655.8	617.2	527.4	452.9	409.4	397.8	406.9	392.3	364.4	335.5	304.1	290.7	270.6	255.5	245.9	228.3	201.0	179.9	158.3	137.8	119.2	102.3	88.98	76.95	81.69	87.71	53.55	30.00	22.65	17.56	14.60	15.56	21.71	46.00	261.1	 1237	 1330	29.94	3.032	2.162	2.279	2.082	2.295	2.406	2.595	2.679	3.400	3.646	3.628	3.889	3.848	4.148	3.862	3.723	3.456	3.243	3.085	3.007	2.870	2.849	2.775	2.713	2.667	2.742	2.869	2.677	2.783	2.683	2.697	2.790	2.757	2.730
430.0	392.2	460.0	503.9	551.5	574.9	573.2	540.5	460.7	396.0	358.1	353.0	356.4	341.2	320.1	294.3	271.8	255.5	241.7	229.3	220.7	206.2	185.5	166.8	147.9	130.7	114.3	99.52	87.91	75.13	69.07	73.28	70.41	43.12	25.62	19.21	15.25	13.58	12.81	16.04	63.06	335.6	954.0	 1125	369.8	9.259	2.329	2.074	2.337	2.370	2.449	2.517	3.091	3.247	3.295	3.475	3.500	3.707	3.531	3.354	3.174	2.985	2.764	2.759	2.595	2.534	2.328	2.500	2.380	2.513	2.522	2.386	2.651	2.621	2.389	2.586	2.530	2.513
435.0	458.3	403.8	446.3	485.1	501.6	501.5	470.6	393.8	345.2	309.2	307.4	312.2	299.1	277.2	257.8	237.8	224.4	214.5	202.3	195.5	186.5	169.0	153.0	137.3	121.6	107.4	94.68	85.17	73.44	63.89	58.18	62.09	61.73	34.94	20.96	16.68	13.54	11.67	10.26	19.01	78.48	220.8	597.5	 1397	209.1	9.801	2.206	2.278	2.266	2.345	2.350	2.933	2.985	3.102	2.971	3.138	3.308	3.179	2.943	2.817	2.747	2.632	2.474	2.312	2.233	2.104	2.207	2.271	2.162	2.249	2.451	2.152	2.236	2.221	2.389	2.272	2.292
440.0	646.6	363.9	398.5	441.1	451.0	459.6	421.8	364.8	318.4	286.3	282.6	284.6	270.7	252.5	231.4	215.8	204.0	198.3	186.2	181.7	172.2	157.1	143.4	128.9	116.1	103.1	92.75	81.42	72.00	62.05	52.70	50.30	61.06	46.79	25.17	17.95	14.27	11.74	9.227	9.616	21.59	52.91	152.1	904.1	 1352	162.9	3.766	2.270	2.241	2.147	2.147	2.716	2.665	2.836	2.813	3.007	3.001	2.833	2.690	2.694	2.543	2.372	2.160	2.216	2.130	2.100	2.054	2.129	2.032	2.049	2.279	2.157	2.067	2.075	2.212	2.119	2.072
445.0	871.2	387.2	371.4	397.9	412.8	411.9	385.4	333.6	286.3	264.2	256.4	257.2	245.8	231.1	209.1	196.9	186.5	178.6	171.1	166.0	159.9	146.2	133.2	121.1	110.3	98.17	88.77	78.78	69.47	61.09	51.80	45.72	49.55	53.90	32.59	18.82	14.70	11.96	9.359	7.622	9.364	15.47	37.58	260.1	 1180	 1115	23.94	2.728	2.253	2.065	2.142	2.518	2.483	2.598	2.608	2.637	2.918	2.641	2.571	2.417	2.258	2.254	2.034	2.004	1.867	2.033	2.003	1.811	2.026	2.039	2.006	1.991	2.139	1.942	1.955	1.949	1.945
450.0	861.6	622.5	344.1	356.2	366.2	361.0	340.0	294.9	253.4	232.9	227.8	228.5	216.1	200.3	183.5	172.6	163.5	156.8	150.7	148.1	143.0	130.8	120.5	110.6	101.2	90.49	82.15	73.94	65.45	57.78	49.70	42.68	39.12	44.55	43.44	26.52	16.25	12.50	10.09	8.090	7.450	7.545	12.00	61.43	326.7	916.0	 1046	316.4	7.729	2.116	1.979	2.342	2.355	2.495	2.457	2.489	2.643	2.513	2.315	2.317	2.104	1.987	1.930	1.948	1.825	1.801	1.846	1.728	1.777	1.842	1.841	1.806	1.875	1.764	1.928	1.782	1.962
455.0	518.2	922.8	420.5	308.8	319.6	315.9	296.3	258.7	229.8	206.9	195.4	196.8	189.6	171.7	159.0	149.1	143.1	136.7	130.6	129.0	124.4	115.5	106.1	98.50	90.68	82.06	74.96	67.60	60.25	53.64	46.75	40.70	34.24	32.33	36.57	37.93	21.46	12.82	10.56	8.486	7.492	6.206	6.378	16.78	75.88	213.7	584.8	 1245	173.1	7.739	2.076	2.158	2.225	2.226	2.160	2.202	2.395	2.160	2.118	1.982	1.871	1.818	1.713	1.803	1.594	1.754	1.692	1.613	1.641	1.649	1.663	1.683	1.678	1.634	1.598	1.573	1.799
460.0	293.3	893.7	598.0	284.9	273.8	286.5	265.2	231.8	203.0	185.3	181.1	179.1	168.6	156.8	141.9	133.6	127.7	121.7	117.2	114.8	112.0	104.1	97.29	90.09	82.46	76.69	69.15	64.41	56.74	50.96	45.41	39.25	33.09	29.22	28.23	36.83	30.32	14.95	10.62	8.940	7.563	6.369	5.133	7.198	19.93	50.51	148.3	800.2	 1104	128.7	3.510	2.234	2.044	2.151	2.065	2.036	2.170	2.050	1.967	1.760	1.818	1.708	1.569	1.539	1.564	1.521	1.622	1.523	1.509	1.577	1.448	1.548	1.558	1.579	1.552	1.480	1.620
465.0	210.8	632.8	821.2	308.8	256.0	253.4	243.3	214.1	183.6	173.1	167.0	162.1	156.4	141.2	128.9	121.0	115.3	109.3	105.6	104.5	101.3	95.25	87.28	82.40	76.74	69.89	64.47	59.31	53.39	48.82	43.18	37.35	31.98	27.53	24.26	28.55	33.25	20.43	11.31	9.018	7.685	6.350	5.233	5.152	7.508	13.93	35.84	225.4	971.7	872.0	20.24	2.643	2.087	2.062	2.013	1.895	2.052	1.999	1.874	1.676	1.681	1.586	1.486	1.437	1.400	1.430	1.488	1.443	1.500	1.487	1.465	1.589	1.667	1.564	1.389	1.503	1.550
470.0	177.6	326.3	788.1	515.7	234.5	224.5	211.7	187.7	160.7	150.6	146.7	144.6	135.1	123.4	111.4	105.0	98.78	95.31	92.36	90.05	88.34	82.78	77.59	72.72	67.50	62.44	57.54	54.01	48.68	44.54	39.52	35.18	30.01	25.67	21.98	21.33	25.57	26.32	16.47	9.763	7.890	6.537	5.474	5.027	4.972	5.832	10.55	52.92	270.2	707.7	781.1	101.9	7.250	2.081	1.856	1.867	2.004	1.872	1.760	1.595	1.615	1.448	1.443	1.416	1.404	1.410	1.393	1.331	1.303	1.362	1.356	1.435	1.478	1.370	1.384	1.427	1.423
475.0	169.6	198.8	448.6	779.2	302.1	190.9	184.8	160.4	140.6	132.2	130.4	121.9	116.4	106.6	96.21	90.38	84.14	82.07	78.38	76.11	76.12	71.54	66.80	62.65	59.25	54.33	51.18	48.07	43.24	39.88	35.66	31.96	27.61	23.90	20.30	18.34	18.08	21.99	22.24	12.83	8.180	6.386	5.754	4.735	4.466	3.991	4.987	14.09	62.25	163.6	405.0	862.7	164.9	7.145	1.771	1.708	1.872	1.736	1.685	1.510	1.493	1.401	1.356	1.327	1.296	1.284	1.277	1.214	1.129	1.245	1.301	1.272	1.322	1.140	1.245	1.281	1.363
480.0	165.5	163.0	239.4	717.8	468.5	178.5	163.3	146.1	127.6	119.2	117.0	110.8	105.5	95.15	88.27	78.37	75.84	74.46	69.53	68.76	67.74	63.56	60.42	57.17	53.87	49.07	46.13	43.99	39.18	37.03	33.48	30.14	26.69	22.46	19.21	17.19	15.61	15.97	21.69	17.49	9.264	6.803	5.554	4.825	4.442	3.920	3.658	5.424	15.98	38.32	101.7	520.6	804.9	135.1	3.313	1.705	1.642	1.665	1.626	1.412	1.409	1.368	1.265	1.215	1.294	1.147	1.071	1.229	1.143	1.257	1.183	1.142	1.206	1.095	1.164	1.165	1.333
485.0	166.8	148.8	165.6	476.8	682.8	212.2	148.6	136.1	118.1	109.9	106.4	102.9	96.06	86.29	78.16	72.84	69.13	67.26	62.68	62.35	61.72	57.58	55.88	51.24	48.33	44.94	41.90	40.00	36.34	34.11	31.30	28.22	24.62	21.30	18.32	16.11	14.42	13.19	16.49	20.23	12.54	7.093	5.730	4.773	4.366	3.862	3.478	3.351	5.574	10.46	24.63	141.2	668.2	716.8	23.60	2.176	1.732	1.695	1.542	1.287	1.253	1.309	1.229	1.219	1.128	1.268	1.136	1.199	1.094	1.129	1.022	1.036	1.119	1.089	1.081	1.117	1.229
490.0	140.0	147.8	136.8	236.9	634.6	419.3	141.5	116.6	106.5	98.37	96.17	92.99	85.52	76.01	68.21	63.82	59.84	57.83	55.06	55.06	53.96	50.24	48.73	45.54	42.79	39.80	37.28	35.31	33.02	30.67	28.63	25.84	22.77	19.59	17.50	15.00	13.58	11.92	11.90	15.54	16.40	10.02	6.101	4.819	4.261	3.722	3.471	3.253	3.350	4.242	7.232	33.44	179.5	512.7	638.2	109.2	7.871	1.662	1.456	1.368	1.291	1.169	1.172	1.170	1.163	1.123	1.066	1.045	1.066	1.043	1.002	1.066	0.970	1.119	1.084	1.076	1.092
495.0	109.1	138.7	124.1	137.6	339.4	648.9	222.6	105.0	93.98	87.38	86.85	81.98	73.71	66.96	58.80	55.10	51.56	49.03	47.69	46.68	46.22	43.97	41.34	39.71	37.43	34.49	33.05	31.69	29.19	27.00	25.45	22.82	20.58	17.70	15.86	14.07	12.81	10.89	10.03	10.31	14.10	14.28	8.238	5.016	4.287	3.762	3.266	3.146	2.874	2.778	3.360	9.095	41.67	119.0	352.3	779.1	181.0	7.542	1.413	1.376	1.273	1.301	1.106	1.060	1.115	1.032	1.122	0.977	0.942	1.083	1.045	1.116	0.954	0.985	1.027	1.032	1.058
500.0	96.56	132.1	123.4	109.5	170.9	600.3	349.2	103.5	84.82	77.66	74.99	73.18	67.69	60.07	52.51	49.22	46.36	44.91	42.03	41.26	41.04	38.65	36.08	35.70	32.74	30.39	29.21	28.05	26.14	24.88	22.71	21.63	18.27	16.75	14.74	13.23	11.54	10.52	9.336	8.654	10.02	13.78	11.22	5.943	4.329	3.504	3.223	2.966	2.952	2.549	2.422	3.581	10.89	28.06	88.45	459.2	766.3	146.5	3.395	1.414	1.270	1.286	1.085	1.117	1.044	0.978	1.058	0.866	0.902	1.013	0.944	0.987	0.957	0.934	0.911	1.023	1.016
505.0	84.17	110.1	128.6	100.2	110.2	382.1	586.4	141.6	76.47	71.81	69.97	65.78	60.46	54.13	48.50	44.82	41.19	39.10	38.06	36.52	37.52	34.80	33.25	31.15	29.51	27.93	26.42	25.28	23.57	22.19	20.99	19.19	16.72	15.61	13.62	12.30	10.61	9.550	8.618	7.771	7.598	10.28	12.65	7.811	4.515	3.691	3.289	2.919	2.870	2.628	2.224	2.369	3.943	7.703	21.32	123.2	585.3	668.9	26.04	1.762	1.204	1.119	1.045	1.006	0.923	0.905	0.868	0.962	0.916	0.973	0.789	0.883	0.938	0.801	0.908	0.998	0.904
510.0	77.78	82.65	117.8	97.34	85.15	169.5	529.1	373.9	80.87	63.51	61.96	56.86	52.95	46.18	41.66	37.19	35.56	33.85	31.91	31.67	31.64	29.40	28.51	26.74	25.19	23.77	22.67	21.85	20.54	19.50	18.25	16.88	14.99	13.77	12.22	10.81	9.685	8.826	7.912	7.125	6.508	6.899	9.799	10.03	6.385	3.823	3.242	2.824	2.629	2.471	2.301	2.106	2.280	3.110	6.161	28.98	154.4	439.9	532.7	115.1	7.952	1.210	1.008	0.978	0.981	0.886	0.853	0.871	0.929	0.867	0.877	0.811	0.836	0.887	0.885	0.940	0.927
515.0	66.29	73.72	87.24	99.97	75.08	91.68	252.7	584.2	185.6	56.27	53.09	49.26	44.84	38.99	34.80	31.82	30.56	27.73	27.19	26.57	26.23	24.75	23.15	22.74	21.08	19.83	18.84	18.04	17.78	17.02	15.64	14.68	13.05	12.12	11.13	9.697	8.887	7.567	7.176	6.331	5.824	5.520	6.198	8.541	8.734	5.300	3.293	2.688	2.399	2.228	2.200	2.177	1.791	1.914	2.724	7.740	35.67	100.6	244.6	593.9	183.2	7.333	1.135	0.965	0.941	0.883	0.840	0.913	0.825	0.813	0.822	0.794	0.827	0.783	0.828	0.852	0.814
520.0	57.66	60.36	66.30	89.14	72.88	69.66	112.6	511.5	390.8	57.11	47.98	44.61	39.06	35.13	30.93	27.62	26.83	24.27	23.49	23.35	23.05	21.67	20.39	19.58	19.06	17.74	16.93	16.14	15.62	15.15	14.28	13.00	11.90	10.70	9.735	8.964	8.088	6.997	6.634	5.816	5.501	5.055	4.850	6.117	8.933	7.026	3.700	2.525	2.360	2.031	1.942	2.056	1.874	1.716	1.825	2.930	9.175	23.52	59.80	329.8	581.1	132.4	2.697	0.990	0.950	0.921	0.874	0.840	0.791	0.872	0.837	0.746	0.822	0.849	0.821	0.783	0.891
525.0	58.68	55.24	55.83	75.19	73.51	60.32	69.03	294.0	566.2	117.5	43.14	41.57	36.42	30.60	28.04	24.84	23.29	21.01	21.37	20.79	20.71	19.16	18.18	17.95	16.73	16.33	15.65	14.76	14.29	13.28	12.66	11.62	10.62	9.633	8.771	8.217	7.336	6.571	6.030	5.247	4.894	4.460	4.254	4.406	6.694	7.897	5.005	2.862	2.224	2.151	1.881	1.922	1.834	1.750	1.686	1.874	3.173	6.464	14.49	86.10	399.3	500.2	25.78	1.552	0.936	0.919	0.802	0.832	0.692	0.801	0.799	0.703	0.773	0.801	0.809	0.728	0.813
530.0	52.88	48.07	47.49	58.04	73.76	58.15	51.78	115.7	452.2	327.8	59.75	37.04	30.83	27.29	23.87	21.61	19.80	18.75	18.65	17.89	17.97	16.39	15.98	15.44	14.49	13.91	13.19	12.44	11.94	11.80	10.72	10.30	9.497	8.623	7.840	7.163	6.479	5.971	5.430	4.812	4.542	4.042	3.846	3.621	4.404	6.358	6.491	3.908	2.290	1.957	1.873	1.748	1.656	1.739	1.635	1.399	1.917	2.543	4.225	20.18	102.2	308.5	304.5	112.7	7.133	0.918	0.825	0.824	0.742	0.792	0.794	0.708	0.743	0.811	0.676	0.742	0.752
535.0	50.40	44.35	45.39	46.52	62.26	64.20	46.85	57.78	188.1	505.7	171.2	34.15	27.58	25.10	21.04	18.95	17.19	16.01	16.33	15.60	15.06	14.05	13.63	12.96	12.10	11.93	11.24	10.74	9.870	9.690	9.417	9.168	8.234	7.542	6.790	6.237	5.694	5.160	5.055	4.482	4.050	3.667	3.428	3.265	3.250	3.905	5.847	5.530	3.118	1.887	1.674	1.587	1.511	1.573	1.675	1.366	1.556	1.642	1.947	5.404	23.63	70.23	146.1	427.0	171.4	6.584	0.851	0.838	0.737	0.728	0.708	0.709	0.767	0.782	0.657	0.692	0.761
540.0	51.01	43.88	41.94	42.59	49.50	66.93	47.72	43.36	75.94	398.0	400.4	48.49	25.78	21.58	18.71	16.70	15.11	14.30	13.81	14.13	12.99	12.53	11.97	11.34	10.62	10.23	10.00	9.520	9.005	8.709	8.338	8.411	7.251	6.752	6.576	5.600	5.397	4.734	4.504	4.125	3.679	3.324	3.100	3.039	2.970	2.864	4.069	5.689	4.027	2.172	1.622	1.601	1.386	1.344	1.476	1.366	1.402	1.382	1.341	2.141	6.182	16.52	35.69	222.0	428.2	29.95	2.517	0.884	0.768	0.758	0.674	0.707	0.682	0.733	0.714	0.681	0.745
545.0	50.66	42.91	39.69	41.11	46.35	67.08	52.81	43.29	48.21	221.4	539.1	129.9	25.81	19.46	16.87	14.81	13.47	13.22	12.12	12.16	11.98	11.63	10.53	10.40	9.790	8.988	8.974	8.634	8.329	8.163	7.569	7.719	6.504	6.226	5.929	5.547	5.026	4.565	3.965	4.014	3.556	3.087	2.924	2.755	2.565	2.488	2.916	4.606	4.663	2.866	1.756	1.513	1.335	1.318	1.337	1.499	1.517	1.348	1.238	1.329	2.294	4.592	8.901	57.00	277.4	355.2	26.21	1.316	0.783	0.721	0.700	0.780	0.701	0.667	0.757	0.744	0.738
550.0	58.53	59.02	64.73	77.63	87.13	107.8	105.1	85.67	94.90	157.4	462.3	432.9	67.18	19.23	14.74	12.50	11.84	10.93	10.61	10.49	10.29	9.774	9.242	8.941	8.203	7.803	7.339	7.365	7.234	6.876	6.749	6.336	6.078	5.533	5.234	5.151	4.651	4.365	3.843	3.548	3.237	2.965	2.769	2.602	2.414	2.263	2.286	3.026	4.118	3.932	2.520	1.676	1.526	1.574	1.460	1.633	1.681	1.580	1.431	1.296	1.518	2.131	3.193	13.90	70.87	214.8	246.8	105.5	6.727	0.880	0.733	0.798	0.718	0.673	0.724	0.692	0.716
555.0	99.67	120.3	159.9	199.6	243.0	252.0	248.7	227.0	233.6	336.9	468.2	707.4	281.8	22.90	13.27	11.21	10.24	9.368	8.311	8.540	8.803	8.080	7.989	7.348	6.877	6.757	6.345	6.346	5.895	5.999	5.855	5.474	5.324	4.973	4.925	4.834	4.703	4.472	3.974	3.329	3.110	2.891	2.467	2.424	2.309	2.148	2.168	2.287	2.965	3.913	3.806	2.683	2.260	2.220	2.128	2.294	2.392	2.301	2.102	2.101	2.187	2.331	2.675	5.388	18.47	50.59	106.1	297.9	144.1	6.332	0.866	0.879	0.778	0.722	0.693	0.709	0.624
560.0	117.6	150.6	198.2	248.1	301.2	315.1	298.6	288.0	318.5	416.2	475.9	668.3	464.4	40.31	12.43	10.08	8.888	8.572	7.729	7.747	8.077	6.976	6.584	7.015	6.356	5.885	5.613	5.501	5.771	5.224	5.089	5.139	4.606	4.853	4.726	4.647	4.534	4.432	4.008	3.410	3.010	2.706	2.455	2.174	2.086	2.105	1.934	2.028	2.251	3.048	4.015	3.376	2.615	2.662	2.484	2.506	2.685	2.463	2.440	2.501	2.402	2.570	2.937	3.591	7.007	13.97	27.32	148.6	299.7	31.24	2.106	0.812	0.730	0.731	0.709	0.792	0.672
565.0	112.6	148.0	200.6	248.3	294.3	309.1	289.7	286.1	325.3	416.1	458.6	523.6	519.5	107.4	11.45	8.936	8.226	7.651	6.862	6.897	6.910	6.256	5.867	5.873	5.367	5.085	4.992	4.829	4.995	4.655	4.468	4.620	4.071	4.377	4.411	4.263	4.283	4.243	3.511	3.162	2.755	2.468	2.201	2.113	1.767	1.911	1.802	1.916	1.976	2.339	3.531	3.557	2.850	2.498	2.437	2.475	2.617	2.320	2.402	2.586	2.398	2.769	2.788	3.217	4.408	5.825	8.372	39.62	183.3	235.4	25.24	1.063	0.670	0.745	0.698	0.725	0.658
570.0	127.7	159.8	211.4	270.0	331.5	343.1	313.8	310.0	371.7	464.5	514.9	480.0	393.3	288.0	38.85	7.750	6.948	6.359	5.695	5.634	5.690	5.085	4.989	4.791	4.569	4.134	4.077	3.989	4.150	3.910	3.883	3.527	3.569	3.838	3.951	4.030	4.113	3.879	3.438	2.919	2.443	2.140	2.053	1.863	1.790	1.767	1.653	1.676	1.723	1.852	2.361	3.383	3.356	2.891	2.556	2.618	2.730	2.541	2.374	2.473	2.758	3.023	3.023	3.289	4.007	3.988	4.310	11.70	47.14	136.3	193.1	78.59	4.513	0.736	0.701	0.691	0.711
575.0	139.2	185.3	235.0	295.7	359.5	377.2	349.7	332.9	414.2	528.3	571.4	515.0	256.2	296.7	167.1	7.708	5.818	5.511	4.826	4.504	4.584	4.303	4.016	3.782	3.575	3.542	3.249	3.280	3.372	3.102	3.281	2.916	3.024	3.169	3.750	3.867	4.003	3.509	3.112	2.655	2.222	1.914	1.779	1.686	1.611	1.797	1.569	1.449	1.682	1.743	1.947	2.589	3.401	3.562	3.052	2.783	3.005	2.657	2.452	2.528	2.698	3.230	3.320	3.559	3.931	3.836	3.706	5.746	12.29	31.56	75.84	193.4	31.71	3.720	0.683	0.659	0.764
580.0	156.7	176.5	237.7	300.8	353.9	377.8	348.8	327.5	412.9	530.0	562.2	505.3	205.2	198.0	277.8	28.10	5.321	4.712	4.284	3.831	4.085	3.639	3.567	3.284	3.133	2.998	2.921	2.821	2.780	2.767	3.054	2.546	2.731	2.704	3.360	3.697	3.729	3.333	3.027	2.612	2.040	1.778	1.541	1.521	1.586	1.566	1.491	1.529	1.624	1.664	1.754	2.174	2.999	3.389	3.031	2.797	2.900	2.572	2.540	2.523	2.791	3.030	3.559	3.585	4.123	3.761	3.555	4.326	4.550	7.992	18.53	94.45	171.8	29.15	1.429	0.748	0.794
585.0	148.7	173.4	217.4	278.7	326.6	341.4	314.5	306.4	378.9	497.8	528.4	476.4	183.5	103.3	286.6	83.06	4.777	4.354	4.014	3.388	3.577	3.229	3.096	3.136	2.756	2.589	2.520	2.546	2.463	2.537	2.501	2.385	2.346	2.321	2.974	3.325	3.429	3.184	2.560	2.125	1.898	1.634	1.407	1.398	1.415	1.491	1.370	1.482	1.588	1.453	1.592	1.997	2.669	3.026	3.121	2.703	2.715	2.403	2.374	2.276	2.468	2.900	3.143	3.468	3.779	3.283	3.253	3.706	2.676	2.623	4.872	24.08	110.8	145.0	19.33	0.962	0.713
590.0	135.2	163.7	198.2	256.1	296.6	315.5	288.4	274.9	339.0	447.9	487.6	429.5	169.4	51.88	157.6	224.3	31.83	3.894	3.398	3.124	3.035	2.896	2.721	2.506	2.450	2.240	2.227	2.267	2.115	2.083	2.149	2.106	2.019	2.274	2.689	2.852	3.099	2.882	2.274	1.994	1.710	1.558	1.354	1.369	1.287	1.351	1.176	1.419	1.363	1.329	1.355	1.796	2.129	2.484	2.864	2.685	2.510	2.242	2.154	2.105	2.258	2.702	2.849	3.186	3.486	3.081	2.988	3.359	2.232	1.492	1.810	5.953	28.27	80.51	93.68	21.50	2.682
595.0	123.6	150.3	183.9	222.0	265.0	279.8	256.5	245.6	296.2	389.0	440.0	377.8	156.8	38.33	53.18	198.3	153.4	4.681	3.146	2.675	2.640	2.459	2.589	2.171	2.247	1.885	2.163	2.076	1.762	1.887	1.869	1.801	1.852	2.064	2.435	2.488	2.706	2.637	2.164	1.894	1.586	1.364	1.425	1.258	1.221	1.247	1.131	1.243	1.177	1.264	1.291	1.629	1.794	2.045	2.399	2.553	2.534	2.081	1.999	1.893	2.065	2.361	2.569	2.725	3.190	3.048	2.757	2.955	1.998	1.082	1.135	1.848	6.905	18.63	37.48	90.66	29.95
600.0	129.1	143.4	159.7	195.6	235.3	246.5	229.4	213.1	263.7	347.5	394.7	347.6	144.3	34.59	22.92	112.8	234.6	24.96	2.993	2.549	2.296	2.332	2.306	1.762	2.023	1.780	1.764	1.892	1.931	1.697	1.673	1.734	1.738	1.851	2.229	2.271	2.386	2.407	2.008	1.721	1.507	1.359	1.283	1.260	1.122	1.188	1.026	1.114	1.164	1.146	1.182	1.516	1.717	1.848	1.944	2.345	2.455	2.063	1.848	1.860	1.920	2.155	2.342	2.640	2.872	2.539	2.589	2.661	1.733	1.079	0.968	0.975	2.069	4.679	9.384	46.90	86.93
605.0	116.4	128.4	143.9	174.8	205.1	217.5	200.2	190.2	233.9	300.9	344.5	305.5	130.4	34.19	15.16	47.20	218.9	70.21	2.919	2.451	2.237	2.311	2.222	1.820	1.773	1.733	1.548	1.544	1.775	1.643	1.492	1.707	1.588	1.632	2.040	2.088	2.284	2.169	1.821	1.699	1.367	1.247	1.177	1.144	1.073	1.105	0.953	1.085	1.123	1.038	1.089	1.301	1.535	1.625	1.672	1.952	2.174	2.071	1.737	1.681	1.691	2.013	2.231	2.269	2.525	2.382	2.176	2.640	1.678	0.967	0.835	0.961	1.038	1.583	2.693	12.47	56.51
610.0	105.3	112.0	124.1	150.3	173.0	180.8	164.5	158.8	192.2	248.6	280.9	260.8	115.6	33.02	14.62	17.03	107.8	195.3	29.36	2.279	2.186	2.034	1.939	1.821	1.668	1.545	1.481	1.458	1.572	1.433	1.440	1.481	1.475	1.575	1.822	1.872	1.937	1.858	1.609	1.492	1.317	1.164	1.088	1.001	0.992	0.961	0.890	0.964	0.997	0.913	0.924	1.161	1.377	1.353	1.449	1.527	1.809	1.797	1.650	1.570	1.427	1.657	1.785	1.967	2.237	2.013	2.010	2.233	1.505	0.970	0.771	0.798	0.760	0.877	1.126	3.310	14.81
615.0	94.31	95.25	110.0	118.5	138.2	148.1	134.2	129.7	155.0	204.7	227.9	214.3	100.5	31.82	14.35	9.748	32.44	153.4	140.1	3.929	2.024	1.887	1.687	1.429	1.556	1.340	1.514	1.421	1.338	1.326	1.537	1.295	1.447	1.432	1.576	1.660	1.675	1.682	1.517	1.382	1.056	1.107	1.018	0.936	0.946	0.944	0.911	0.829	0.855	0.882	0.823	1.057	1.102	1.220	1.237	1.295	1.376	1.441	1.581	1.511	1.379	1.385	1.560	1.731	1.849	1.695	1.555	1.855	1.392	0.938	0.782	0.810	0.768	0.735	0.792	1.286	3.908
620.0	79.83	80.84	90.00	106.6	117.3	123.3	114.8	110.9	136.2	174.0	194.7	181.7	90.42	32.53	14.95	8.805	12.06	80.12	201.9	28.19	1.948	1.830	1.484	1.506	1.606	1.313	1.358	1.354	1.294	1.335	1.287	1.199	1.353	1.367	1.392	1.450	1.495	1.458	1.454	1.200	0.917	0.958	0.962	0.940	0.881	0.910	0.828	0.849	0.849	0.839	0.721	0.953	1.068	1.147	1.079	1.264	1.234	1.292	1.394	1.455	1.296	1.197	1.430	1.624	1.655	1.610	1.467	1.639	1.250	1.066	0.835	0.747	0.598	0.619	0.646	0.783	1.423
625.0	73.45	73.90	77.47	93.59	100.8	108.3	97.58	96.91	118.5	150.0	168.9	157.5	84.30	34.04	14.31	9.033	7.396	31.78	171.0	103.9	2.201	1.881	1.632	1.437	1.608	1.314	1.121	1.194	1.184	1.260	1.121	1.209	1.187	1.129	1.401	1.449	1.322	1.327	1.305	1.061	0.990	0.798	0.977	0.888	0.810	0.839	0.829	0.850	0.822	0.768	0.740	0.896	1.003	1.004	1.009	1.132	1.224	1.130	1.175	1.313	1.204	1.189	1.343	1.359	1.556	1.440	1.402	1.472	1.176	0.959	0.872	0.744	0.660	0.625	0.608	0.729	0.834
630.0	67.83	65.31	66.70	75.35	85.73	88.51	82.35	79.28	97.88	123.2	138.1	129.6	72.67	35.07	16.47	9.494	6.923	11.43	77.00	175.8	27.60	1.764	1.478	1.433	1.432	1.325	1.201	1.183	1.158	1.216	1.190	1.201	1.160	1.114	1.215	1.279	1.289	1.195	1.117	1.057	0.950	0.842	0.855	0.788	0.744	0.759	0.781	0.738	0.766	0.736	0.681	0.796	0.860	0.912	0.959	0.955	1.071	0.989	0.953	1.138	1.137	1.115	1.134	1.176	1.337	1.249	1.178	1.324	1.057	0.855	0.801	0.760	0.656	0.661	0.665	0.665	0.718
635.0	64.37	61.90	59.48	62.66	66.46	69.07	67.69	70.43	79.10	99.66	111.5	104.9	60.37	34.26	19.72	11.36	7.981	7.296	22.56	115.8	132.5	3.520	1.586	1.266	1.279	1.246	1.107	1.195	1.162	1.123	1.186	1.012	1.136	1.117	1.182	1.105	1.113	1.121	0.982	0.967	0.881	0.791	0.806	0.751	0.730	0.686	0.753	0.741	0.664	0.706	0.640	0.772	0.755	0.824	0.824	0.916	0.876	0.910	0.866	0.986	1.086	1.073	1.097	1.019	1.270	1.169	1.124	1.202	0.839	0.830	0.729	0.814	0.714	0.701	0.754	0.679	0.672
640.0	62.54	60.12	51.62	55.42	56.70	61.33	59.82	59.66	70.10	85.76	97.24	93.74	53.98	32.40	22.09	11.73	8.650	6.873	8.856	53.60	177.8	26.46	1.620	1.434	1.366	1.100	1.086	1.075	1.072	1.160	1.234	1.123	1.039	1.054	1.021	1.025	1.158	1.049	0.903	0.867	0.861	0.745	0.749	0.703	0.764	0.747	0.663	0.703	0.706	0.643	0.621	0.760	0.724	0.808	0.704	0.779	0.789	0.813	0.858	0.786	0.912	1.028	0.954	1.036	1.080	1.168	0.997	1.077	0.795	0.727	0.776	0.850	0.686	0.685	0.695	0.645	0.612
645.0	63.82	52.49	48.50	47.55	50.83	54.93	52.39	51.58	62.34	75.35	86.29	81.19	48.83	31.01	23.77	13.12	9.119	7.309	6.249	19.74	140.4	94.33	1.930	1.534	1.485	1.052	1.277	1.165	1.270	1.162	1.150	1.111	0.950	1.051	1.061	0.946	0.978	1.020	0.905	0.832	0.805	0.783	0.805	0.730	0.745	0.718	0.682	0.733	0.679	0.597	0.633	0.706	0.685	0.868	0.758	0.694	0.817	0.767	0.790	0.781	0.882	0.930	1.037	0.942	1.152	0.986	1.049	1.002	0.964	0.812	0.706	0.820	0.734	0.682	0.704	0.697	0.677
650.0	59.01	49.53	45.90	42.05	46.77	48.94	46.67	48.17	56.48	66.83	76.06	70.91	45.89	28.19	23.94	14.81	9.699	7.781	6.127	8.265	72.24	158.0	9.758	1.342	1.275	1.095	1.159	1.223	1.091	1.040	1.027	1.149	1.005	1.010	0.883	0.890	0.950	0.973	0.942	0.962	0.811	0.820	0.754	0.736	0.674	0.635	0.670	0.724	0.598	0.545	0.539	0.690	0.699	0.763	0.695	0.704	0.782	0.806	0.822	0.749	0.812	0.880	0.946	0.947	0.970	1.028	1.006	0.965	0.946	0.715	0.694	0.780	0.668	0.697	0.699	0.632	0.627
