Sample:	'1
File name:	Default_20240104_195812.FD3
Run date:	'19:51:51, 01/04/2024
Operator:	dsjg
Comment:	'

Instrument
Model:	F-2700 FL Spectrophotometer
Serial number:	2198-001
ROM Version:	4J14000 07

Instrument parameters
Measurement type:	3-D scan
Data mode:	Fluorescence
EX  Start WL:	220.0 nm
EX  End WL:	600.0 nm
EX Sampling interval:	5.0 nm
EM  Start WL:	230.0 nm
EM  End WL:	650.0 nm
EM Sampling interval:	5.0 nm
Scan speed:	12000 nm/min
EX Slit:	5.0 nm
EM Slit:	5.0 nm
PMT Voltage:	700 V
Response:	Auto 
Corrected spectra:	Off
Contour interval:	50.000

Peak integration
Integration method:	Rectangular
Sensitivity:	1
Threshold:	1.000

Peaks
No.	ApexEX/EM(nm)	Height(Data)
1	230.0/340.0	 1069
2	230.0/620.0	18.59
3	240.0/635.0	14.23
4	260.0/420.0	 2775
5	275.0/305.0	452.2
6	280.0/340.0	837.8
7	290.0/420.0	 2882
8	335.0/415.0	 4879
9	460.0/340.0	4.263
10	530.0/415.0	14.47
11	535.0/420.0	14.23
12	555.0/340.0	4.368
13	560.0/335.0	4.309

Data points
	220.0	225.0	230.0	235.0	240.0	245.0	250.0	255.0	260.0	265.0	270.0	275.0	280.0	285.0	290.0	295.0	300.0	305.0	310.0	315.0	320.0	325.0	330.0	335.0	340.0	345.0	350.0	355.0	360.0	365.0	370.0	375.0	380.0	385.0	390.0	395.0	400.0	405.0	410.0	415.0	420.0	425.0	430.0	435.0	440.0	445.0	450.0	455.0	460.0	465.0	470.0	475.0	480.0	485.0	490.0	495.0	500.0	505.0	510.0	515.0	520.0	525.0	530.0	535.0	540.0	545.0	550.0	555.0	560.0	565.0	570.0	575.0	580.0	585.0	590.0	595.0	600.0
230.0	6.286	58.46	176.2	58.90	3.895	3.037	2.461	2.285	1.982	2.321	1.847	1.915	1.646	1.575	1.338	1.388	1.373	1.353	1.361	1.465	1.495	1.636	1.727	1.701	1.612	1.576	1.471	1.408	1.232	1.154	1.006	0.940	0.726	0.588	0.585	0.496	0.525	0.456	0.470	0.456	0.344	0.327	0.311	0.315	0.294	0.261	0.267	0.328	0.866	1.098	0.711	0.319	0.189	0.185	0.154	0.154	0.136	0.148	0.092	0.099	0.123	0.108	0.089	0.098	0.093	0.116	0.096	0.091	0.099	0.082	0.090	0.100	0.093	0.095	0.089	0.080	0.093
235.0	5.206	21.68	174.7	354.6	130.2	5.980	3.067	2.910	2.537	1.878	1.685	1.930	2.027	1.889	1.762	1.433	1.525	1.262	1.502	1.550	1.587	1.658	1.572	1.593	1.691	1.559	1.356	1.437	1.258	1.150	0.962	1.006	0.653	0.630	0.492	0.503	0.517	0.518	0.427	0.392	0.347	0.367	0.376	0.385	0.260	0.205	0.255	0.231	0.387	0.690	1.390	2.160	1.529	0.445	0.183	0.140	0.133	0.128	0.141	0.132	0.152	0.122	0.088	0.178	0.064	0.092	0.212	0.083	0.091	0.102	0.107	0.107	0.090	0.056	0.055	0.125	0.045
240.0	7.746	10.06	68.02	415.0	486.1	101.2	3.826	3.041	2.264	3.041	1.928	1.858	1.969	2.253	1.766	1.399	1.531	1.412	1.491	1.506	1.515	1.555	1.673	1.643	1.703	1.760	1.503	1.390	1.345	1.166	0.833	1.018	0.676	0.564	0.500	0.455	0.522	0.436	0.502	0.426	0.420	0.352	0.328	0.277	0.310	0.288	0.260	0.259	0.241	0.310	0.732	2.030	3.456	3.139	1.410	0.282	0.157	0.099	0.126	0.118	0.131	0.130	0.085	0.173	0.146	0.097	0.146	0.046	0.082	0.095	0.144	0.104	0.135	0.093	0.077	0.156	0.059
245.0	12.03	8.069	20.59	194.2	659.5	418.6	69.50	3.088	2.208	2.851	1.760	2.127	1.945	2.001	1.811	1.536	1.620	1.626	1.527	1.604	1.526	1.473	1.681	1.616	1.629	1.555	1.547	1.492	1.242	1.086	1.093	0.930	0.664	0.586	0.646	0.549	0.484	0.336	0.491	0.437	0.414	0.382	0.324	0.347	0.282	0.313	0.334	0.268	0.292	0.271	0.290	0.714	1.940	3.917	4.432	2.958	1.118	0.173	0.134	0.125	0.092	0.120	0.098	0.148	0.138	0.067	0.074	0.108	0.142	0.066	0.112	0.115	0.097	0.069	0.121	0.098	0.108
250.0	8.626	12.98	23.00	53.95	250.4	620.2	588.0	150.2	9.746	2.534	2.073	2.078	1.908	2.078	1.668	1.784	1.614	1.584	1.531	1.542	1.646	1.776	1.718	1.736	1.689	1.704	1.536	1.520	1.314	1.162	1.050	0.939	0.690	0.589	0.579	0.473	0.405	0.352	0.425	0.430	0.443	0.405	0.346	0.281	0.352	0.296	0.320	0.290	0.303	0.296	0.231	0.340	0.622	1.236	2.323	3.730	4.626	4.323	2.468	0.923	0.135	0.164	0.129	0.095	0.100	0.111	0.129	0.134	0.090	0.142	0.104	0.103	0.091	0.045	0.102	0.100	0.104
255.0	5.458	9.255	23.18	39.40	65.63	180.4	590.1	900.6	205.5	11.03	2.967	2.412	2.342	1.992	1.872	1.664	1.438	1.512	1.562	1.592	1.592	1.564	1.758	1.822	1.837	1.634	1.580	1.655	1.425	1.254	1.222	0.924	0.849	0.568	0.524	0.500	0.463	0.532	0.365	0.380	0.493	0.455	0.358	0.373	0.305	0.328	0.326	0.323	0.241	0.287	0.307	0.411	0.288	0.392	0.680	0.967	1.728	3.526	6.059	6.426	3.767	0.918	0.157	0.075	0.096	0.089	0.125	0.097	0.129	0.120	0.062	0.096	0.117	0.078	0.087	0.102	0.077
260.0	7.714	7.709	13.33	37.41	40.90	48.25	212.0	823.7	901.6	154.7	6.407	2.566	2.747	2.194	2.543	1.799	1.553	1.510	1.486	1.572	1.789	1.706	1.957	1.803	1.807	1.617	1.688	1.480	1.394	1.263	1.150	0.952	0.695	0.737	0.519	0.480	0.468	0.452	0.392	0.390	0.286	0.434	0.384	0.400	0.284	0.321	0.301	0.246	0.246	0.254	0.283	0.379	0.368	0.365	0.320	0.328	0.534	1.016	2.658	5.248	7.584	6.299	2.426	0.466	0.188	0.111	0.096	0.123	0.148	0.148	0.120	0.125	0.073	0.059	0.103	0.102	0.092
265.0	5.782	4.510	8.021	22.16	45.26	31.04	53.80	312.2	992.2	831.1	113.1	4.231	2.524	2.106	2.518	1.986	1.656	1.834	1.592	1.830	1.831	1.882	2.078	1.717	1.956	1.735	1.704	1.427	1.489	1.333	1.077	1.109	0.717	0.596	0.502	0.578	0.380	0.427	0.366	0.381	0.249	0.382	0.379	0.397	0.346	0.285	0.266	0.233	0.260	0.240	0.193	0.291	0.279	0.444	0.344	0.253	0.255	0.346	0.714	1.606	3.822	7.029	8.478	5.123	1.457	0.201	0.093	0.118	0.096	0.117	0.128	0.107	0.117	0.125	0.127	0.111	0.053
270.0	6.808	8.293	7.827	9.319	26.27	43.88	35.33	79.55	341.4	813.6	928.1	370.4	26.01	2.885	2.618	2.036	1.839	1.750	1.632	1.787	1.968	2.114	1.888	1.889	1.925	1.837	1.680	1.502	1.378	1.294	1.116	1.027	0.750	0.590	0.565	0.505	0.431	0.474	0.410	0.354	0.323	0.284	0.362	0.361	0.371	0.378	0.306	0.271	0.301	0.245	0.235	0.247	0.235	0.282	0.379	0.411	0.428	0.286	0.304	0.490	1.010	2.086	3.746	5.553	6.327	5.939	3.685	1.277	0.184	0.155	0.091	0.130	0.084	0.162	0.073	0.090	0.069
275.0	10.06	13.66	13.64	9.031	11.96	27.94	53.89	49.44	88.90	220.9	673.9	 1239	590.8	27.45	3.135	2.416	2.113	1.876	1.958	2.012	2.073	2.082	1.897	1.834	1.877	1.675	1.722	1.527	1.445	1.334	1.173	1.044	0.753	0.589	0.604	0.559	0.472	0.350	0.376	0.374	0.322	0.330	0.352	0.298	0.376	0.350	0.315	0.410	0.322	0.273	0.276	0.282	0.278	0.236	0.307	0.283	0.366	0.457	0.486	0.337	0.299	0.625	0.970	1.443	2.050	4.044	7.410	8.936	5.727	1.325	0.148	0.125	0.071	0.115	0.053	0.049	0.120
280.0	14.20	19.13	20.54	14.97	10.49	16.92	43.85	67.45	53.10	73.23	229.1	908.0	 1441	128.8	12.11	3.151	2.602	2.374	2.270	1.916	2.049	2.003	1.832	1.974	1.930	1.976	1.776	1.664	1.442	1.307	0.972	0.997	0.776	0.753	0.650	0.479	0.533	0.401	0.392	0.288	0.350	0.307	0.347	0.241	0.264	0.436	0.386	0.390	0.380	0.292	0.277	0.282	0.278	0.270	0.244	0.220	0.300	0.437	0.530	0.583	0.455	0.342	0.445	0.496	0.676	1.256	2.789	6.297	9.569	9.126	4.375	0.620	0.095	0.098	0.095	0.038	0.092
285.0	19.21	39.51	39.63	25.09	16.87	18.76	35.13	76.29	91.64	72.80	109.8	356.7	 1220	 1493	103.5	5.992	3.064	2.630	2.281	2.226	2.365	2.023	2.081	2.170	2.048	2.083	1.770	1.620	1.452	1.424	1.214	0.998	0.898	0.736	0.601	0.464	0.474	0.391	0.396	0.351	0.387	0.327	0.269	0.202	0.277	0.412	0.418	0.436	0.400	0.368	0.379	0.306	0.278	0.318	0.263	0.228	0.308	0.388	0.380	0.583	0.738	0.656	0.519	0.420	0.578	0.733	0.985	2.022	4.423	8.932	11.92	9.244	2.606	0.195	0.102	0.095	0.080
290.0	39.81	76.65	83.17	52.32	35.56	36.26	49.55	78.31	132.9	166.0	165.0	214.3	489.8	 1138	 1636	825.4	28.20	3.417	2.782	2.610	2.434	2.288	2.279	2.247	2.162	2.104	1.859	1.736	1.468	1.373	1.159	0.978	0.933	0.818	0.646	0.593	0.549	0.437	0.512	0.416	0.353	0.325	0.282	0.254	0.280	0.408	0.463	0.564	0.625	0.486	0.449	0.461	0.378	0.318	0.311	0.322	0.451	0.383	0.505	0.605	0.709	0.903	1.078	0.948	1.023	0.924	0.971	1.258	1.749	3.051	5.284	8.565	10.97	11.53	7.422	2.283	0.253
295.0	60.25	127.2	132.2	85.82	57.49	60.86	78.64	109.2	158.7	248.4	308.7	286.6	306.3	395.3	939.2	 2234	636.2	32.12	3.751	3.292	2.904	2.538	2.373	2.476	2.365	2.278	1.979	1.920	1.575	1.525	1.317	1.113	0.933	0.753	0.785	0.633	0.607	0.579	0.529	0.452	0.361	0.350	0.307	0.353	0.240	0.364	0.464	0.651	0.808	0.763	0.656	0.555	0.484	0.468	0.423	0.525	0.576	0.531	0.591	0.679	0.734	1.111	1.207	1.377	1.808	1.687	1.662	1.549	1.563	1.761	2.071	2.594	3.638	7.125	14.84	19.42	11.38
300.0	76.21	152.0	165.2	115.1	77.05	80.15	102.0	134.4	187.9	276.5	381.9	382.1	317.2	236.7	339.1	 1332	 2647	523.0	15.53	4.045	3.285	3.184	2.775	2.565	2.539	2.180	1.946	1.988	1.621	1.606	1.299	1.210	1.007	0.785	0.782	0.599	0.570	0.578	0.512	0.423	0.427	0.338	0.251	0.347	0.343	0.451	0.491	0.610	0.876	0.844	0.711	0.656	0.583	0.582	0.540	0.603	0.692	0.684	0.797	0.739	0.845	1.241	1.258	1.460	1.889	2.283	2.353	1.949	1.804	1.573	1.584	1.337	1.341	2.110	5.588	12.82	22.66
305.0	77.09	168.1	181.1	129.2	97.16	96.50	124.9	156.6	212.4	287.8	394.7	452.2	375.3	235.5	171.7	451.1	 1795	 2901	391.4	7.047	4.190	3.472	2.949	2.733	2.494	2.498	2.129	1.897	1.748	1.576	1.286	1.183	0.956	0.971	0.768	0.665	0.568	0.618	0.518	0.427	0.452	0.271	0.271	0.352	0.405	0.495	0.559	0.761	0.901	0.865	0.747	0.730	0.617	0.621	0.545	0.601	0.810	0.690	0.904	0.868	1.034	1.308	1.375	1.645	1.945	2.358	2.540	2.518	2.265	1.753	1.644	1.294	0.958	1.029	1.692	3.887	9.632
310.0	81.21	170.6	180.4	136.5	108.9	112.2	135.6	167.2	223.7	297.2	381.8	446.4	444.1	286.4	162.6	164.8	544.5	 1704	 2515	 1159	23.27	4.627	3.539	3.311	2.765	2.692	2.328	2.068	1.777	1.692	1.381	1.182	0.995	1.053	0.751	0.686	0.600	0.636	0.527	0.465	0.447	0.356	0.285	0.346	0.353	0.424	0.531	0.773	0.844	0.765	0.755	0.744	0.651	0.626	0.694	0.731	0.812	0.754	0.941	1.019	1.135	1.358	1.437	1.629	1.877	2.112	2.228	2.467	2.598	2.472	1.964	1.421	1.040	0.887	0.913	1.253	2.599
315.0	93.27	202.0	207.4	151.2	119.1	125.1	151.7	186.6	244.8	318.8	390.2	444.3	457.0	389.6	234.8	126.3	186.1	442.9	 1077	 2989	 1662	27.85	4.623	3.813	2.983	2.757	2.675	2.256	2.015	1.604	1.531	1.311	1.043	1.056	0.734	0.761	0.673	0.652	0.566	0.460	0.542	0.371	0.328	0.381	0.355	0.551	0.626	0.841	0.982	0.821	0.670	0.805	0.691	0.707	0.653	0.755	0.892	0.849	0.981	1.140	1.201	1.418	1.589	1.783	1.899	2.197	2.136	2.429	2.369	2.482	2.539	2.261	1.473	1.185	1.046	0.873	1.118
320.0	156.4	380.7	385.5	220.8	154.4	158.1	192.8	243.5	296.9	402.5	494.5	543.8	553.1	501.6	397.6	214.2	155.3	167.6	329.2	 1484	 3434	407.9	16.08	4.372	3.241	3.207	2.692	2.256	2.262	1.859	1.581	1.452	1.164	0.944	0.952	0.696	0.637	0.594	0.574	0.533	0.564	0.448	0.466	0.429	0.500	0.760	1.025	1.569	1.688	1.413	1.013	0.981	0.911	0.859	0.853	0.901	0.973	1.057	1.327	1.394	1.473	1.744	2.091	2.393	2.467	2.869	2.605	2.951	2.811	2.910	2.782	2.906	2.635	2.014	1.549	1.189	1.060
325.0	244.1	633.3	672.8	351.8	209.9	204.4	248.5	308.6	395.6	507.8	600.9	665.6	673.8	605.2	538.5	350.6	202.6	151.9	155.3	463.5	 2025	 3042	317.6	7.652	4.237	3.476	2.853	2.538	2.232	2.014	1.744	1.471	1.203	1.110	0.859	0.805	0.631	0.593	0.535	0.556	0.449	0.431	0.449	0.534	0.604	0.918	1.493	2.307	2.781	2.433	1.695	1.397	1.148	1.100	1.197	1.041	1.217	1.434	1.511	1.688	1.993	2.236	2.476	2.743	3.037	3.225	3.401	3.577	3.378	3.639	3.397	3.346	3.447	3.112	2.429	1.755	1.451
330.0	292.0	743.4	862.1	495.1	293.2	249.5	286.5	352.6	444.5	555.0	665.8	730.4	745.3	672.2	587.3	463.4	308.3	193.7	149.7	192.1	595.9	 1707	 2440	 1028	20.46	4.416	3.544	2.852	2.448	2.188	1.825	1.449	1.282	1.205	0.957	0.779	0.701	0.654	0.584	0.558	0.531	0.498	0.448	0.506	0.621	1.029	1.632	2.754	3.418	3.024	2.333	1.937	1.612	1.317	1.311	1.311	1.421	1.572	1.717	1.933	2.145	2.465	2.700	2.995	3.432	3.625	3.613	3.781	3.871	4.017	3.843	3.574	3.326	3.423	3.002	2.733	2.152
335.0	323.1	869.8	 1012	609.4	360.7	299.3	324.7	395.9	487.3	614.2	726.0	791.7	814.5	749.0	647.3	501.7	409.1	283.0	194.6	166.5	239.7	466.8	969.7	 2750	 1303	23.17	4.688	3.262	2.867	2.321	2.028	1.694	1.440	1.183	1.012	0.804	0.831	0.604	0.627	0.661	0.585	0.495	0.476	0.442	0.743	1.116	1.791	3.273	4.033	3.707	2.685	2.403	1.920	1.533	1.538	1.523	1.728	1.831	1.830	2.172	2.471	2.727	3.138	3.437	3.623	3.842	3.904	4.109	4.309	4.152	3.960	4.074	3.747	3.608	3.246	2.876	2.765
340.0	340.4	914.8	 1069	652.8	388.7	319.0	343.5	415.2	510.8	625.0	739.1	801.3	837.8	778.3	676.5	521.9	417.9	357.0	245.7	187.9	183.1	203.1	292.2	 1298	 2765	342.7	12.48	4.287	3.211	2.494	2.128	1.603	1.476	1.079	0.931	1.000	0.812	0.729	0.644	0.602	0.650	0.524	0.598	0.523	0.728	1.209	1.907	3.346	4.263	3.974	2.998	2.626	2.068	1.686	1.674	1.668	1.672	2.033	1.944	2.226	2.341	2.787	3.063	3.397	3.760	3.928	4.187	4.368	4.136	4.280	4.249	4.231	3.987	3.765	3.403	3.026	2.811
345.0	293.1	834.7	 1000	649.6	402.9	331.6	341.9	401.5	496.8	592.6	694.9	762.1	792.4	748.6	664.3	524.2	412.5	379.2	318.8	227.6	197.9	171.7	147.5	380.3	 1632	 2223	48.58	6.896	4.142	2.789	2.233	1.651	1.478	1.116	0.948	0.927	0.793	0.766	0.609	0.527	0.572	0.448	0.500	0.564	0.763	1.208	1.739	3.067	3.826	3.848	2.955	2.703	2.175	1.672	1.670	1.512	1.682	1.892	2.062	2.212	2.327	2.581	2.837	3.243	3.542	3.680	4.035	4.001	4.031	4.077	4.063	4.109	3.778	3.560	3.133	3.231	2.915
350.0	245.6	671.4	846.4	600.2	396.8	333.0	339.0	384.6	464.6	547.2	632.8	686.7	722.7	697.5	640.1	527.7	435.3	393.0	382.5	333.2	270.7	225.8	173.8	188.1	471.7	 1254	 1594	603.1	18.83	4.456	2.955	1.999	1.620	1.278	1.091	0.961	0.795	0.645	0.695	0.625	0.579	0.467	0.451	0.553	0.705	1.088	1.633	2.556	3.234	3.241	2.597	2.580	2.127	1.787	1.659	1.597	1.644	1.721	1.989	2.160	2.259	2.496	2.694	3.085	3.181	3.345	3.480	3.769	3.793	3.676	3.745	3.744	3.708	3.564	3.273	3.083	2.912
355.0	201.5	555.6	726.4	552.7	407.8	352.9	364.3	394.8	463.0	532.4	596.6	629.5	671.6	659.4	630.9	553.4	493.0	460.5	449.4	455.4	416.1	342.2	278.5	240.9	249.2	385.2	655.1	 1605	352.7	22.99	5.367	2.937	1.850	1.540	1.094	0.871	0.713	0.703	0.651	0.630	0.555	0.524	0.438	0.466	0.676	0.965	1.406	2.086	2.827	2.745	2.361	2.373	1.949	1.990	1.766	1.626	1.784	1.925	2.007	2.226	2.242	2.614	2.693	3.065	2.977	3.275	3.194	3.462	3.374	3.560	3.509	3.602	3.566	3.456	3.291	3.364	3.180
360.0	185.1	479.0	666.7	551.7	442.9	406.3	414.6	450.3	514.3	568.7	587.0	597.4	634.9	646.4	639.1	595.6	563.8	559.3	559.2	566.1	548.5	486.5	420.2	359.3	292.4	257.4	274.0	801.5	 1492	290.0	15.69	5.171	2.539	1.631	1.134	1.013	0.867	0.759	0.734	0.611	0.466	0.503	0.506	0.508	0.617	0.924	1.184	1.933	2.656	2.527	2.166	2.364	2.402	2.065	1.964	1.859	2.112	2.143	2.347	2.388	2.567	2.921	3.083	3.210	3.253	3.060	3.154	3.260	3.292	3.394	3.438	3.696	3.510	3.713	3.566	3.670	3.744
365.0	172.6	439.7	634.0	596.7	539.0	493.8	532.5	571.4	638.8	667.1	631.0	592.4	625.7	649.7	676.2	672.0	678.7	687.5	739.1	757.1	771.9	734.4	636.1	548.2	427.2	347.4	270.0	335.3	985.8	 1316	46.77	11.42	4.714	2.490	1.546	1.244	1.024	0.774	0.691	0.663	0.558	0.504	0.617	0.596	0.628	0.781	1.130	1.749	2.333	2.508	2.251	2.523	2.656	2.552	2.386	2.463	2.657	2.690	2.893	3.032	3.235	3.589	3.716	3.846	3.463	3.199	3.234	3.155	3.446	3.380	3.425	3.655	3.805	3.790	3.925	4.415	4.126
370.0	164.4	416.4	655.9	740.5	719.4	713.4	741.3	796.2	856.4	871.7	728.3	622.9	658.1	710.4	779.5	820.4	879.1	953.6	 1035	 1090	 1124	 1106	 1022	900.0	743.7	596.9	447.3	350.4	437.6	843.5	 1066	429.6	20.27	6.606	3.074	1.800	1.259	1.013	0.850	0.702	0.642	0.501	0.638	0.589	0.617	0.873	1.105	1.656	2.242	2.467	2.602	3.183	3.270	3.420	3.413	3.562	3.746	3.741	3.923	4.213	4.430	4.696	4.935	4.805	4.234	3.735	3.466	3.251	3.267	3.658	3.832	4.250	4.418	4.734	4.954	5.217	5.462
375.0	169.5	433.8	707.9	876.6	895.3	889.6	918.8	979.3	 1052	 1031	822.3	672.6	717.5	786.5	889.4	963.6	 1067	 1186	 1310	 1407	 1472	 1455	 1395	 1292	 1095	912.6	715.4	549.6	436.9	436.1	557.7	 1247	306.7	27.33	7.859	3.537	1.949	1.245	0.958	0.820	0.693	0.704	0.647	0.626	0.691	0.805	1.116	1.868	2.458	2.679	3.005	3.573	4.012	4.332	4.325	4.183	4.423	4.607	5.272	4.964	5.420	5.753	5.865	5.573	4.987	4.241	3.703	3.948	3.602	3.891	4.147	4.529	5.154	5.231	5.755	6.266	6.941
380.0	177.9	446.8	762.0	968.5	 1014	 1025	 1063	 1130	 1202	 1157	908.9	737.0	786.5	874.5	996.1	 1089	 1212	 1362	 1512	 1642	 1738	 1743	 1689	 1625	 1428	 1220	992.1	780.4	616.1	443.1	385.6	738.1	 1303	263.6	20.41	6.555	3.077	1.747	1.221	0.979	0.848	0.749	0.757	0.720	0.803	0.925	1.170	1.829	2.538	2.783	3.223	4.048	4.473	4.743	4.683	4.838	5.476	5.425	5.760	5.880	6.582	6.327	6.734	6.408	5.512	4.911	3.957	3.999	3.884	4.387	4.729	4.889	5.598	6.062	6.473	7.083	7.850
385.0	189.4	478.6	851.4	 1126	 1188	 1194	 1239	 1325	 1395	 1333	 1034	829.0	890.0	 1002	 1144	 1251	 1386	 1573	 1754	 1918	 2061	 2082	 2045	 2000	 1814	 1583	 1326	 1080	871.4	656.9	429.5	437.0	959.4	 1320	190.2	13.01	5.057	2.609	1.549	1.159	1.051	0.903	0.805	0.824	0.772	1.127	1.330	2.008	2.767	2.998	3.499	4.784	5.317	5.535	5.663	5.458	5.965	6.298	6.752	7.201	7.068	7.361	7.338	7.337	6.677	5.270	4.329	4.266	4.533	4.919	5.391	5.631	6.387	7.212	7.403	8.077	8.647
390.0	237.8	595.2	 1038	 1415	 1526	 1537	 1595	 1686	 1767	 1695	 1290	 1033	 1126	 1271	 1451	 1560	 1715	 1945	 2188	 2419	 2620	 2690	 2687	 2670	 2470	 2251	 1935	 1624	 1349	 1052	765.2	560.7	501.7	904.8	 1178	487.1	19.14	5.990	3.088	1.780	1.342	1.083	1.050	0.938	1.107	1.377	1.545	2.344	3.207	3.498	4.366	5.864	6.498	6.904	6.990	7.018	7.789	8.013	8.260	8.736	9.082	9.395	9.371	8.941	8.152	6.345	5.341	5.276	5.754	6.135	6.563	7.230	8.131	8.895	9.453	10.00	10.73
395.0	298.4	701.6	 1276	 1725	 1862	 1886	 1951	 2059	 2155	 2067	 1586	 1309	 1444	 1641	 1853	 1919	 2052	 2323	 2608	 2912	 3200	 3329	 3381	 3428	 3214	 3010	 2688	 2300	 1947	 1570	 1189	847.6	567.3	460.4	605.7	 1513	264.5	23.29	6.293	3.532	2.093	1.426	1.074	1.199	1.349	1.562	1.937	2.735	3.472	4.174	5.031	6.811	7.752	8.324	8.352	8.906	9.033	9.607	10.08	10.59	11.27	11.24	11.51	10.83	9.295	7.897	6.971	6.830	7.240	8.114	8.443	9.414	10.35	11.26	11.75	12.25	13.21
400.0	326.5	787.9	 1401	 1889	 2056	 2083	 2161	 2277	 2355	 2265	 1791	 1535	 1705	 1921	 2138	 2158	 2260	 2521	 2839	 3195	 3527	 3717	 3816	 3936	 3740	 3540	 3234	 2837	 2426	 1987	 1539	 1118	730.0	454.8	328.8	846.4	 1605	242.5	17.18	5.616	3.149	1.958	1.580	1.340	1.537	1.663	2.074	3.115	3.819	4.523	5.477	7.389	8.593	9.299	9.371	9.677	10.16	10.37	11.23	11.47	12.24	12.29	12.38	11.68	10.42	8.793	7.945	8.062	8.422	9.322	9.776	11.23	12.13	12.96	13.30	13.62	14.73
405.0	366.5	852.6	 1502	 2001	 2195	 2223	 2310	 2426	 2499	 2407	 1974	 1729	 1946	 2187	 2387	 2349	 2400	 2653	 2993	 3369	 3758	 4000	 4151	 4331	 4177	 4005	 3698	 3318	 2865	 2365	 1877	 1386	917.3	560.5	329.7	353.2	 1113	 1585	192.6	11.48	5.033	2.835	2.319	1.610	1.744	2.100	2.276	3.293	4.037	4.896	6.060	7.686	8.724	9.781	9.865	9.862	10.97	11.06	11.91	12.14	13.04	12.96	13.08	12.64	11.36	9.749	8.694	9.170	9.888	10.96	11.45	12.71	13.45	14.37	14.84	15.47	15.84
410.0	416.6	933.9	 1590	 2163	 2346	 2370	 2454	 2598	 2673	 2580	 2166	 1970	 2224	 2488	 2664	 2548	 2537	 2769	 3120	 3523	 3942	 4247	 4467	 4721	 4615	 4475	 4174	 3777	 3341	 2799	 2251	 1693	 1153	729.5	435.5	299.3	408.4	 1022	 1471	582.5	17.50	5.903	3.462	2.329	2.037	2.182	2.455	3.649	4.397	5.075	6.218	8.242	9.208	10.40	10.53	10.70	11.44	11.85	12.78	13.14	13.51	13.98	13.80	13.44	12.24	10.66	9.989	10.51	10.83	11.82	12.82	14.14	15.12	16.04	16.01	16.09	16.87
415.0	446.6	971.6	 1650	 2234	 2431	 2447	 2551	 2700	 2763	 2695	 2318	 2157	 2418	 2693	 2840	 2676	 2579	 2786	 3130	 3538	 3981	 4310	 4574	 4879	 4814	 4705	 4439	 4058	 3608	 3093	 2517	 1916	 1346	887.8	557.9	363.4	284.4	349.7	686.5	 1748	244.7	21.22	6.765	3.816	2.665	2.470	2.618	3.750	4.572	5.198	6.077	8.438	9.333	10.42	10.44	11.27	11.69	12.48	13.16	13.33	13.73	14.09	14.47	13.89	12.60	11.56	10.82	11.48	11.96	12.82	13.78	14.53	16.14	16.78	16.68	17.13	17.33
420.0	458.2	 1003	 1648	 2203	 2408	 2465	 2557	 2690	 2775	 2687	 2379	 2249	 2511	 2758	 2882	 2674	 2555	 2719	 3037	 3435	 3888	 4227	 4508	 4834	 4801	 4726	 4486	 4125	 3689	 3185	 2631	 2033	 1452	986.0	645.6	434.3	303.6	236.2	265.1	933.5	 1674	228.4	16.24	6.056	3.586	2.884	2.938	3.845	4.583	5.332	6.081	8.433	9.631	10.29	10.72	11.02	11.49	12.40	13.20	13.41	13.92	14.13	14.03	14.23	13.36	11.69	11.46	11.56	12.39	13.38	14.31	15.87	16.79	17.19	16.94	17.11	17.22
425.0	453.2	957.7	 1625	 2171	 2367	 2420	 2510	 2643	 2718	 2646	 2403	 2297	 2540	 2750	 2871	 2643	 2482	 2626	 2923	 3295	 3726	 4069	 4364	 4697	 4693	 4641	 4434	 4097	 3687	 3194	 2688	 2099	 1522	 1068	724.5	507.0	360.8	254.9	199.5	324.0	 1165	 1522	178.5	10.25	5.156	3.763	3.302	4.010	4.602	5.261	5.991	8.225	9.320	10.25	10.61	11.12	11.46	11.89	12.85	13.29	13.40	13.89	13.98	13.89	13.17	11.90	12.31	12.23	12.50	13.27	14.62	15.81	17.04	17.20	17.02	16.71	17.11
430.0	435.6	924.4	 1550	 2071	 2281	 2340	 2420	 2523	 2627	 2597	 2409	 2329	 2548	 2720	 2807	 2550	 2375	 2480	 2739	 3061	 3457	 3791	 4080	 4436	 4451	 4439	 4269	 3978	 3608	 3157	 2679	 2147	 1605	 1170	831.6	611.2	458.8	332.7	249.7	216.8	382.6	977.3	 1289	480.0	16.06	5.812	4.128	4.430	4.768	5.056	5.919	8.054	8.885	9.770	10.15	10.56	11.25	11.70	12.27	12.81	13.00	13.50	13.65	13.32	12.68	11.85	11.92	12.40	12.84	13.39	14.50	15.35	16.65	17.07	16.58	16.20	16.17
435.0	409.1	884.9	 1484	 1996	 2213	 2281	 2347	 2446	 2532	 2530	 2405	 2352	 2530	 2655	 2709	 2432	 2255	 2328	 2540	 2810	 3162	 3479	 3758	 4099	 4141	 4149	 4012	 3774	 3450	 3050	 2628	 2147	 1666	 1262	939.9	726.7	570.5	434.9	334.2	252.8	221.3	305.5	598.9	 1536	230.0	18.34	5.983	5.300	4.952	4.962	5.838	7.819	8.646	9.314	9.857	9.998	11.03	11.05	11.63	11.90	12.52	13.27	13.20	12.98	12.47	11.97	11.80	12.34	12.75	13.37	14.04	15.23	16.53	16.30	16.18	15.31	15.48
440.0	418.0	837.5	 1438	 1938	 2146	 2216	 2290	 2367	 2457	 2480	 2389	 2339	 2491	 2585	 2603	 2344	 2158	 2213	 2399	 2634	 2952	 3235	 3508	 3826	 3871	 3897	 3786	 3580	 3292	 2938	 2551	 2113	 1677	 1322	 1008	801.6	645.9	508.3	402.8	297.8	218.7	179.0	210.6	881.9	 1546	200.0	11.41	6.265	5.551	5.149	5.834	7.726	8.655	9.344	9.692	9.602	10.58	11.04	11.44	11.74	12.31	12.74	13.00	12.71	12.43	12.04	11.63	12.15	12.89	12.90	13.59	14.36	15.85	15.87	15.30	15.05	14.90
445.0	409.4	835.4	 1388	 1864	 2083	 2142	 2221	 2297	 2395	 2436	 2365	 2316	 2428	 2487	 2496	 2251	 2067	 2097	 2254	 2459	 2747	 2993	 3252	 3558	 3609	 3644	 3554	 3373	 3120	 2805	 2461	 2054	 1659	 1344	 1062	857.1	709.9	566.8	463.4	351.3	249.6	175.5	135.4	282.5	 1168	 1361	135.3	9.016	6.333	5.545	5.871	7.447	8.570	9.157	9.372	9.632	10.34	11.10	10.97	11.26	11.95	12.27	12.42	12.62	12.21	11.77	11.82	11.95	12.22	12.79	13.17	14.40	14.89	15.12	14.90	14.43	14.26
450.0	389.8	793.9	 1300	 1769	 1979	 2036	 2105	 2175	 2265	 2309	 2275	 2247	 2313	 2328	 2317	 2086	 1912	 1927	 2042	 2209	 2445	 2665	 2889	 3160	 3219	 3255	 3192	 3042	 2841	 2577	 2290	 1942	 1607	 1342	 1106	923.0	776.7	641.5	537.9	420.6	305.5	215.1	149.2	141.0	347.1	953.0	 1219	420.9	14.19	7.035	6.391	7.546	8.100	8.774	8.874	8.970	9.670	10.22	10.43	10.51	11.19	11.55	11.84	12.06	11.56	11.36	11.62	11.62	12.16	12.27	12.58	13.30	13.86	13.88	13.67	13.38	13.27
455.0	342.7	741.2	 1191	 1622	 1827	 1891	 1937	 2016	 2091	 2161	 2165	 2118	 2167	 2144	 2104	 1899	 1746	 1733	 1817	 1939	 2119	 2301	 2493	 2728	 2785	 2832	 2788	 2667	 2513	 2308	 2081	 1802	 1525	 1315	 1113	968.0	835.6	700.7	602.9	485.9	361.3	262.9	184.4	134.4	147.5	260.2	572.8	 1375	192.6	15.58	7.864	7.619	7.717	7.996	8.307	8.533	9.284	9.133	9.819	9.802	10.10	10.74	11.08	11.23	10.84	10.91	11.15	11.23	11.13	11.77	11.69	12.07	12.65	12.68	12.52	12.21	12.29
460.0	318.9	711.8	 1150	 1524	 1714	 1780	 1822	 1881	 1963	 2042	 2053	 2018	 2037	 1996	 1953	 1766	 1610	 1599	 1651	 1748	 1891	 2055	 2216	 2431	 2479	 2528	 2502	 2402	 2282	 2105	 1916	 1686	 1447	 1275	 1101	973.3	864.7	734.6	637.0	520.5	398.3	293.4	211.3	149.7	115.9	115.0	174.6	779.2	 1276	153.9	12.63	8.141	7.741	8.136	8.038	8.143	8.762	9.101	9.081	9.000	9.972	10.09	10.82	10.71	10.61	10.09	10.57	10.59	10.67	10.74	10.85	11.19	11.93	11.84	11.55	11.44	11.26
465.0	312.9	652.9	 1118	 1444	 1600	 1673	 1716	 1766	 1851	 1935	 1957	 1919	 1918	 1860	 1809	 1634	 1496	 1476	 1508	 1585	 1702	 1837	 1983	 2170	 2222	 2272	 2249	 2171	 2071	 1934	 1767	 1572	 1375	 1224	 1076	959.5	869.2	752.2	656.7	542.3	424.2	318.0	234.6	168.6	122.7	93.61	88.06	235.6	987.0	 1060	116.2	10.35	8.161	8.151	7.623	8.205	8.032	8.467	8.537	8.889	9.468	9.627	10.00	9.951	9.938	10.04	9.985	10.03	10.12	10.10	10.46	10.57	11.14	10.99	10.58	10.68	10.45
470.0	282.1	565.2	 1039	 1381	 1450	 1516	 1567	 1608	 1680	 1753	 1788	 1763	 1742	 1671	 1610	 1456	 1337	 1307	 1327	 1378	 1464	 1572	 1694	 1849	 1892	 1934	 1925	 1869	 1793	 1688	 1565	 1411	 1251	 1137	 1013	920.4	843.4	748.7	662.2	556.2	440.1	339.5	257.4	190.1	140.9	104.4	83.30	99.77	288.8	754.5	903.5	325.5	14.88	9.014	7.953	7.662	7.760	7.776	7.840	8.043	8.458	8.737	9.152	9.285	9.262	8.988	9.166	9.113	9.273	9.186	9.235	9.571	9.627	9.764	9.654	9.480	9.565
475.0	244.3	484.8	892.6	 1365	 1354	 1374	 1402	 1442	 1508	 1580	 1618	 1593	 1570	 1480	 1420	 1283	 1172	 1145	 1148	 1182	 1241	 1325	 1427	 1548	 1580	 1619	 1619	 1578	 1523	 1445	 1355	 1237	 1122	 1036	939.2	863.3	799.1	718.4	657.9	558.5	448.2	353.6	276.5	209.9	160.0	121.9	95.18	81.04	107.5	201.2	413.6	970.6	185.4	17.27	9.016	8.185	7.805	7.480	7.177	7.080	7.557	7.759	7.997	8.214	7.946	7.918	8.066	8.366	8.440	8.303	8.152	8.576	8.610	8.481	8.511	8.355	8.239
480.0	215.3	453.9	779.0	 1280	 1361	 1264	 1285	 1344	 1409	 1469	 1498	 1475	 1444	 1358	 1291	 1166	 1062	 1036	 1034	 1059	 1098	 1171	 1250	 1357	 1384	 1418	 1416	 1388	 1350	 1287	 1217	 1123	 1028	965.7	883.7	818.7	761.6	693.2	642.5	556.4	449.2	362.2	285.7	221.7	173.6	134.9	105.6	85.50	74.51	82.53	125.5	532.8	934.0	161.3	13.22	8.975	7.971	7.292	6.864	7.048	7.094	7.010	7.575	7.544	7.557	7.845	7.329	7.622	7.715	7.842	7.466	7.823	7.976	7.733	7.637	7.737	7.424
485.0	209.2	421.6	709.5	 1125	 1407	 1200	 1202	 1251	 1300	 1369	 1404	 1372	 1338	 1245	 1183	 1067	976.9	947.3	942.7	949.1	981.5	 1042	 1111	 1204	 1229	 1258	 1261	 1238	 1210	 1156	 1102	 1025	947.8	896.4	826.9	776.6	725.0	661.8	619.9	546.5	447.7	364.3	292.1	232.7	186.6	146.9	118.6	95.20	74.91	63.55	63.09	162.1	718.0	862.6	27.83	11.65	9.052	7.659	7.027	6.811	6.640	6.593	7.044	7.219	7.020	7.357	7.151	6.990	7.329	7.011	7.072	6.932	7.266	7.067	6.983	6.893	6.937
490.0	194.6	375.8	635.2	923.0	 1300	 1248	 1105	 1137	 1188	 1251	 1285	 1255	 1211	 1110	 1050	944.2	865.1	835.3	825.8	826.9	851.0	893.8	953.2	 1027	 1049	 1077	 1079	 1062	 1036	 1006	963.4	902.4	844.0	807.8	754.1	715.0	676.1	620.9	583.8	520.2	442.3	363.9	298.2	243.4	200.9	164.3	136.0	111.6	89.57	73.32	63.03	75.59	214.2	587.2	761.9	284.7	16.39	9.098	7.337	6.645	6.403	6.342	6.629	6.460	6.379	6.666	6.749	6.612	6.621	6.374	6.394	6.279	6.388	6.200	6.184	6.161	6.228
495.0	158.2	330.2	552.3	786.1	 1022	 1298	 1065	 1013	 1069	 1134	 1157	 1136	 1079	977.6	916.1	815.7	758.8	724.4	713.5	710.9	726.6	758.4	800.6	868.5	882.2	903.7	907.3	893.5	877.1	854.1	825.7	780.3	735.0	710.4	672.1	642.9	614.6	573.3	541.6	486.3	423.9	358.7	302.2	250.7	213.7	181.4	155.6	130.7	108.8	91.20	77.12	69.70	89.89	168.0	406.4	924.5	199.4	17.89	8.769	6.921	6.277	6.055	5.794	6.189	5.885	5.804	6.119	6.112	5.684	5.658	5.555	5.614	5.685	5.606	5.500	5.599	5.437
500.0	138.7	311.8	497.3	686.9	843.4	 1178	 1107	940.6	989.5	 1045	 1062	 1040	980.3	885.7	816.5	731.5	672.3	648.9	632.1	626.8	635.2	661.8	699.5	755.5	767.3	784.7	789.1	777.7	768.8	750.5	727.5	695.2	660.5	644.0	611.7	586.2	565.5	529.6	506.3	459.8	402.5	349.2	303.7	254.6	221.8	191.7	167.9	144.8	122.7	104.1	90.09	76.67	70.93	80.54	129.5	523.8	887.0	165.1	12.70	7.831	6.652	5.982	5.701	5.418	5.381	5.548	5.634	5.320	4.986	5.147	5.076	5.045	5.011	4.935	5.017	4.885	4.887
505.0	131.3	276.0	458.3	639.0	758.5	968.2	 1157	911.5	923.0	963.8	983.3	959.7	894.0	798.3	733.8	658.4	602.0	579.3	567.1	556.7	563.6	585.7	616.5	664.7	671.3	691.5	693.8	685.5	678.3	662.9	650.7	622.4	594.2	583.7	555.4	538.1	518.5	490.0	470.3	428.5	380.5	337.2	299.8	258.2	227.2	199.3	177.4	155.7	134.1	116.7	102.5	87.48	74.43	67.93	68.18	163.8	662.0	767.2	29.96	9.902	6.888	5.944	5.566	5.232	5.208	5.244	4.992	4.907	4.784	4.630	4.688	4.607	4.520	4.322	4.562	4.356	4.395
510.0	120.0	240.3	401.0	551.3	652.4	755.1	 1015	977.6	841.9	875.6	886.5	854.2	789.5	699.1	632.4	563.1	518.9	497.0	482.7	476.3	479.2	498.2	520.5	557.3	566.8	580.2	582.5	576.6	573.3	563.0	551.6	531.7	511.8	507.4	485.6	468.9	455.8	436.6	423.2	391.0	351.7	313.6	285.4	256.9	228.5	204.9	185.6	164.3	145.7	128.3	115.3	99.30	84.26	74.53	62.97	75.22	198.0	501.9	601.2	121.5	13.68	6.274	5.594	4.910	4.793	4.543	4.631	4.585	4.291	4.137	4.199	3.996	3.953	3.870	3.780	3.762	3.649
515.0	97.87	204.8	350.4	492.6	562.7	625.2	763.2	 1011	827.3	782.2	785.2	752.4	690.9	607.1	540.1	476.7	439.9	418.7	407.5	399.2	405.5	416.4	433.9	463.2	469.6	477.3	481.1	478.9	474.7	469.3	461.7	447.2	432.9	430.6	416.6	403.9	394.2	380.2	372.8	351.3	318.6	288.7	265.9	244.5	226.7	207.0	187.9	169.2	150.6	135.6	123.8	107.2	92.57	80.93	67.34	60.54	78.55	138.8	281.2	652.8	190.4	12.75	5.645	4.996	4.484	4.200	4.093	4.185	4.056	3.841	3.402	3.580	3.264	3.307	3.361	3.345	3.299
520.0	92.82	179.1	314.1	436.7	496.7	557.1	623.9	880.0	891.3	721.6	730.7	680.5	623.3	537.9	478.2	418.0	387.5	368.9	359.4	355.8	353.9	363.1	375.3	405.2	406.6	416.5	419.6	417.9	412.2	410.0	403.9	394.2	381.4	378.5	368.6	359.1	352.5	342.4	336.0	321.0	293.0	269.0	248.3	232.5	218.9	203.5	185.4	168.4	151.5	137.1	125.6	109.1	96.35	84.55	69.97	59.14	53.32	57.90	85.81	365.5	633.0	138.4	7.216	4.771	4.150	3.968	3.872	3.733	3.563	3.444	3.223	2.872	2.917	3.036	2.935	2.717	2.878
525.0	90.90	161.9	285.2	395.5	470.2	503.0	538.9	703.4	926.7	703.1	665.2	624.0	564.3	481.5	422.4	371.3	341.2	324.5	315.5	313.9	312.5	320.0	329.9	352.4	357.6	364.3	368.1	367.5	363.8	361.9	355.3	348.3	338.3	337.2	327.1	320.3	314.7	307.7	306.7	293.6	270.0	251.5	234.6	219.8	208.0	196.7	181.1	164.5	147.9	134.0	123.3	109.1	94.99	84.06	70.15	58.70	47.93	40.33	38.76	105.5	437.7	531.5	27.47	4.838	3.915	3.748	3.495	3.473	3.267	2.986	2.891	2.537	2.664	2.671	2.478	2.418	2.531
530.0	81.05	145.6	237.3	332.3	404.3	439.9	469.5	541.6	779.5	767.5	601.1	546.5	489.8	413.2	359.2	315.0	289.1	275.7	267.0	264.1	265.3	269.8	280.0	298.7	301.9	306.8	306.8	308.2	306.4	303.8	300.9	293.6	286.5	286.7	278.8	274.9	270.3	265.5	266.6	257.6	241.2	225.2	211.7	201.7	190.8	182.3	172.0	156.5	140.1	128.1	117.2	103.7	90.48	81.43	67.38	56.54	45.77	36.12	28.22	37.41	118.9	333.5	412.6	114.4	9.506	3.543	3.299	2.932	2.878	2.756	2.462	2.365	2.300	2.321	2.220	2.121	2.143
535.0	71.00	117.0	204.6	279.9	339.4	383.1	406.2	442.1	553.5	758.0	610.7	467.6	419.1	350.8	300.2	264.1	238.1	232.1	221.9	222.6	220.7	225.3	231.8	246.8	248.3	252.9	254.7	254.5	253.1	253.9	249.2	244.4	239.0	240.0	232.9	230.9	229.7	225.8	230.3	222.6	208.1	198.5	187.8	179.8	172.2	163.5	156.6	145.4	130.5	118.9	108.3	96.36	84.28	74.88	63.24	52.86	42.86	33.29	24.91	21.41	35.91	81.34	177.4	453.5	172.2	8.154	3.057	2.671	2.550	2.332	2.194	1.994	1.813	1.969	1.917	1.985	1.876
540.0	61.33	107.3	182.4	254.7	298.3	339.6	362.7	394.4	444.8	637.7	669.3	423.9	369.1	309.7	264.7	228.5	208.3	201.6	195.5	195.6	192.3	195.5	200.3	215.2	215.6	219.0	221.4	220.5	218.9	220.2	217.7	213.0	207.8	209.0	204.0	201.3	202.1	199.4	202.7	198.7	187.7	178.7	170.6	164.1	158.4	150.5	144.5	135.7	122.7	111.6	102.1	91.71	79.92	69.83	60.28	49.94	40.39	31.08	23.27	17.16	17.14	24.39	46.32	235.2	449.1	30.13	4.449	2.552	2.147	2.071	1.941	1.819	1.920	1.678	1.598	1.589	1.583
545.0	52.89	97.49	160.3	220.8	262.4	307.8	322.8	354.6	387.5	493.1	663.5	432.4	329.3	275.2	233.3	202.4	185.8	178.9	170.5	168.9	168.7	172.4	178.0	188.9	190.5	192.6	193.2	193.6	193.0	193.0	191.0	186.8	183.7	184.3	179.1	179.9	178.3	177.3	179.9	178.9	170.1	163.6	155.6	150.4	145.1	138.7	133.0	126.1	114.6	104.4	95.29	84.48	74.63	66.38	56.56	47.46	38.27	29.15	21.73	16.13	12.36	11.71	15.15	61.96	293.6	365.1	26.26	2.795	2.114	1.929	1.764	1.656	1.619	1.540	1.521	1.525	1.365
550.0	43.82	83.12	133.2	184.5	229.1	252.8	280.1	303.4	330.4	376.1	510.7	506.3	305.5	233.4	195.6	169.6	154.9	148.3	143.7	140.6	142.2	143.1	149.6	158.2	158.8	160.8	161.9	160.7	160.1	159.2	158.0	155.8	153.5	154.1	150.4	150.9	148.7	150.9	153.0	153.2	146.7	141.7	135.9	132.1	127.7	123.7	118.1	110.3	103.4	94.65	85.66	75.36	66.85	59.92	50.65	42.66	34.80	27.07	20.36	14.84	10.89	8.483	7.836	17.39	75.63	219.7	253.4	105.8	7.397	1.838	1.665	1.382	1.304	1.314	1.251	1.141	1.211
555.0	39.73	70.30	114.2	149.4	186.9	205.5	234.9	258.0	280.8	299.5	348.2	464.1	356.8	193.2	160.8	138.7	126.0	120.3	116.7	113.9	115.4	116.8	123.5	128.8	128.8	129.9	131.2	130.4	129.8	129.5	128.4	126.6	123.8	125.9	121.9	122.3	122.7	122.6	126.7	126.3	122.7	117.5	114.8	111.6	109.5	105.6	101.4	94.95	87.52	82.06	75.65	66.51	58.29	52.02	44.07	38.04	30.79	24.15	18.43	13.34	9.559	7.305	6.079	7.257	19.75	51.45	106.1	308.4	144.4	5.323	1.644	1.350	1.107	1.269	1.042	1.053	0.994
560.0	37.95	61.43	99.67	128.6	155.8	178.7	199.2	229.6	239.2	253.7	268.3	355.8	426.1	178.3	135.1	116.4	106.6	101.4	98.05	97.63	97.97	98.86	102.5	109.5	108.2	109.6	111.5	109.1	109.2	108.5	107.6	106.0	104.4	105.5	103.2	102.4	104.0	103.8	107.3	107.0	104.7	101.9	99.46	96.37	95.84	92.11	88.61	83.56	76.49	71.74	67.19	59.13	51.67	46.32	39.62	34.06	27.67	21.85	16.73	12.37	8.727	6.714	5.076	4.757	7.182	13.75	26.37	147.0	305.6	29.77	2.392	1.283	1.005	1.021	0.933	0.892	0.871
565.0	34.96	59.58	83.00	107.7	129.8	147.3	167.9	195.0	207.9	218.4	216.7	249.9	404.0	225.4	116.0	98.15	88.21	84.62	83.97	82.80	81.96	83.12	87.15	92.72	92.16	92.53	92.32	91.84	91.82	91.86	91.36	89.56	88.35	88.88	87.40	86.80	87.73	87.77	91.79	90.40	89.42	87.03	84.89	83.66	82.52	80.06	77.28	72.20	66.28	61.36	58.15	52.53	45.82	40.56	35.20	30.04	24.55	19.63	14.92	11.20	8.236	5.914	4.629	3.877	4.144	5.199	7.655	37.11	179.5	229.2	23.86	1.275	0.859	0.870	0.772	0.823	0.711
570.0	28.18	45.77	67.75	83.42	103.9	119.2	135.9	157.6	168.8	175.2	175.0	172.8	267.1	316.2	114.4	75.83	68.77	66.36	64.73	64.15	62.85	64.70	67.85	70.79	71.33	72.52	71.85	71.40	71.20	71.50	70.87	69.57	68.30	68.62	67.66	67.49	67.92	68.31	71.25	70.82	70.88	69.23	67.54	66.67	65.07	64.01	61.94	57.72	53.41	49.18	46.52	41.82	37.78	33.44	28.34	24.38	20.15	16.61	12.49	9.208	6.984	5.261	4.241	3.413	3.207	3.051	3.429	9.716	44.90	128.2	169.2	69.89	4.207	0.762	0.587	0.640	0.587
575.0	24.01	38.49	52.77	70.09	77.53	88.80	105.5	116.2	131.8	139.0	135.3	128.5	146.5	264.7	228.9	58.38	51.89	49.05	47.65	48.28	47.74	49.32	49.93	52.82	53.94	54.70	53.37	52.90	53.07	52.92	53.18	51.51	50.32	51.89	50.47	50.63	51.07	51.93	54.14	54.41	53.11	52.63	52.18	51.00	50.08	49.16	47.53	44.85	41.07	38.40	35.20	32.01	29.21	26.09	22.28	19.15	16.04	12.95	9.961	7.656	5.566	4.420	3.493	3.056	2.715	2.386	2.183	3.423	11.09	29.66	61.82	166.8	30.83	2.771	0.471	0.447	0.487
580.0	21.79	39.63	48.17	56.83	65.41	73.31	84.32	94.46	110.3	123.5	115.6	107.6	98.29	171.6	312.1	74.89	42.31	40.70	38.90	39.29	39.05	39.07	40.49	43.38	43.58	44.14	43.22	42.22	42.43	41.96	42.60	40.85	40.40	41.09	40.16	39.76	40.26	41.34	43.54	43.36	42.66	42.61	42.25	40.88	40.77	39.53	38.85	36.73	33.15	31.33	28.93	25.66	23.71	21.91	18.79	15.82	13.13	10.54	8.444	6.385	4.904	3.916	3.109	2.749	2.244	2.188	1.826	2.015	3.441	7.465	14.85	75.14	148.8	26.75	1.164	0.378	0.407
585.0	16.39	29.41	42.15	47.65	58.60	60.41	72.75	79.71	92.58	105.8	99.74	93.20	83.22	101.1	276.3	160.2	34.56	33.69	31.91	32.50	31.40	32.64	33.85	35.24	34.80	34.85	34.81	34.57	34.10	34.65	34.20	33.30	33.05	32.99	32.88	32.28	32.68	33.61	36.27	34.96	35.26	35.28	34.54	33.59	33.85	33.17	32.34	30.00	27.65	25.63	23.45	21.58	19.12	18.36	16.12	13.47	10.92	8.965	6.922	5.543	4.377	3.552	2.868	2.389	2.048	1.848	1.538	1.547	1.590	2.398	4.095	18.56	88.63	126.1	19.41	0.537	0.370
590.0	14.04	27.39	35.91	37.77	45.59	51.08	58.73	67.16	73.70	86.77	86.93	79.38	68.23	61.70	145.3	261.4	59.86	26.32	24.90	25.22	24.87	25.36	26.26	27.29	27.16	27.02	27.40	26.81	26.68	26.31	26.70	26.05	25.29	25.99	25.41	24.69	25.02	25.75	27.33	27.04	27.02	27.14	26.54	26.39	26.28	25.89	25.13	23.63	21.48	19.93	18.58	16.86	15.11	14.12	12.65	10.91	8.692	6.966	5.768	4.429	3.429	2.805	2.395	2.086	1.762	1.579	1.374	1.259	1.150	1.199	1.497	4.604	21.81	65.53	89.06	39.16	2.538
595.0	14.06	22.45	31.11	30.80	36.20	39.37	47.20	51.64	57.41	69.06	72.66	68.08	55.98	44.04	58.36	183.0	207.7	22.61	19.13	19.40	18.68	18.97	20.54	21.35	20.78	20.50	19.83	20.38	20.20	20.58	19.86	19.66	18.99	19.33	18.99	18.74	19.07	19.38	20.65	20.85	20.94	20.80	20.54	20.41	19.81	19.95	18.97	17.97	16.59	15.55	14.28	12.77	11.70	10.68	9.553	8.610	7.043	5.572	4.546	3.665	2.748	2.229	2.005	1.827	1.480	1.416	1.147	0.998	0.893	0.797	0.829	1.442	5.193	14.96	31.68	87.70	29.83
600.0	16.12	23.40	26.19	30.92	29.64	33.88	40.06	41.91	47.10	57.34	65.80	61.79	51.24	37.26	32.86	99.01	277.1	51.68	16.11	16.04	15.83	16.03	16.10	17.29	17.32	16.50	16.94	16.20	16.71	16.65	16.42	16.06	15.79	15.50	15.49	14.82	15.50	15.40	16.43	16.71	16.64	16.87	16.79	16.56	16.22	16.04	15.63	14.92	13.76	13.09	11.99	10.49	9.298	8.632	7.670	6.884	5.879	4.615	3.564	3.092	2.348	2.053	1.783	1.512	1.291	1.173	0.996	0.790	0.746	0.703	0.696	0.660	1.562	3.664	7.613	38.20	83.97
605.0	11.96	22.95	22.30	24.34	28.58	30.13	33.64	37.28	43.94	50.97	59.63	58.48	47.99	33.58	25.37	45.63	216.5	152.7	14.00	14.05	13.10	13.41	13.36	14.29	14.37	14.15	14.03	13.89	14.00	13.85	13.26	13.24	13.11	12.95	12.54	12.63	12.90	13.27	13.35	14.44	13.27	13.90	13.85	13.42	13.28	13.65	13.13	12.53	11.62	10.33	9.873	8.811	7.992	7.312	6.371	5.593	5.258	4.010	3.308	2.682	1.971	1.717	1.555	1.237	1.136	1.051	0.898	0.832	0.733	0.527	0.473	0.455	0.665	1.066	1.948	9.383	47.57
610.0	12.85	20.66	20.00	20.73	23.02	27.13	28.01	30.64	37.46	42.87	48.09	50.17	42.04	29.01	21.24	21.92	96.20	236.4	45.71	10.83	10.30	11.05	11.01	11.45	10.98	11.14	11.01	11.07	10.92	10.68	10.40	10.13	10.04	10.21	9.651	9.845	9.857	9.953	10.32	10.94	10.50	10.47	10.62	10.57	10.33	10.30	10.26	9.747	8.936	8.343	7.640	6.895	6.156	5.576	4.906	4.515	3.878	3.305	2.788	2.076	1.563	1.359	1.248	1.013	0.985	0.880	0.720	0.713	0.599	0.498	0.550	0.413	0.425	0.460	0.648	2.289	11.57
615.0	11.27	15.61	15.69	17.48	17.68	20.67	22.58	25.70	29.46	36.48	38.97	42.33	37.98	25.78	17.50	14.28	31.51	143.0	195.1	12.58	8.353	8.296	8.962	8.630	8.566	8.628	8.824	8.579	8.280	8.071	7.827	7.747	7.607	7.756	7.233	7.723	7.815	7.881	8.034	8.355	8.096	7.936	7.883	7.843	7.813	7.957	8.118	7.294	6.800	6.434	5.922	5.435	4.859	4.272	3.777	3.284	3.004	2.560	2.309	1.815	1.386	1.186	0.990	0.855	0.809	0.741	0.585	0.571	0.586	0.428	0.472	0.434	0.402	0.346	0.332	0.709	2.760
620.0	10.79	13.87	18.59	15.21	15.38	18.68	18.91	21.90	26.31	31.22	33.84	35.71	35.46	24.48	15.94	11.72	14.08	64.78	238.3	48.27	7.101	6.910	7.270	7.257	7.035	7.265	7.482	7.043	6.882	6.625	6.345	6.166	6.345	5.891	6.123	6.196	6.236	6.439	6.566	6.728	6.491	6.500	6.432	6.448	6.406	6.493	6.325	5.842	5.479	5.133	4.877	4.367	3.824	3.589	2.995	2.746	2.433	2.024	1.926	1.577	1.215	0.989	0.849	0.672	0.693	0.665	0.566	0.511	0.515	0.359	0.446	0.350	0.335	0.262	0.248	0.319	0.760
625.0	14.60	15.55	15.54	15.57	12.77	15.10	17.85	19.84	22.71	27.06	31.43	30.93	32.42	24.71	14.79	10.82	8.844	25.62	166.2	155.1	6.440	6.034	6.187	6.244	6.119	5.907	6.241	5.948	5.767	5.433	5.592	5.077	5.024	4.940	5.096	4.821	4.925	5.122	5.477	5.393	5.288	5.272	5.440	5.270	5.340	5.175	5.163	4.937	4.558	4.251	3.929	3.602	3.070	2.751	2.417	2.262	2.008	1.622	1.705	1.443	1.204	0.829	0.674	0.613	0.621	0.577	0.447	0.495	0.437	0.335	0.454	0.309	0.252	0.265	0.235	0.216	0.307
630.0	11.37	13.20	14.53	13.15	12.22	14.42	14.77	17.26	20.62	23.26	26.16	27.01	27.74	24.12	15.13	9.946	7.512	10.61	64.78	211.3	39.74	5.034	5.030	5.075	4.964	4.914	4.918	4.928	4.895	4.376	4.508	3.974	4.006	4.007	3.816	3.851	3.932	3.988	4.061	4.048	4.012	4.115	4.141	4.278	4.070	4.205	3.838	3.797	3.473	3.218	2.952	2.655	2.387	2.124	1.919	1.834	1.514	1.308	1.142	1.021	0.955	0.757	0.532	0.565	0.504	0.480	0.394	0.416	0.367	0.312	0.362	0.285	0.209	0.230	0.207	0.189	0.213
635.0	13.67	15.56	19.12	12.44	14.23	13.22	13.29	13.89	18.27	22.33	25.72	26.19	25.89	23.72	17.57	9.949	7.572	7.363	19.31	106.5	171.4	7.675	3.953	3.958	4.101	4.055	3.797	3.850	3.603	3.418	3.368	3.231	2.963	3.093	2.936	2.916	2.850	2.892	2.959	3.080	3.164	3.121	3.088	3.219	3.155	2.905	3.023	2.946	2.658	2.335	2.151	2.006	1.796	1.686	1.400	1.406	1.084	1.097	0.866	0.746	0.815	0.614	0.481	0.460	0.467	0.449	0.332	0.305	0.288	0.317	0.318	0.285	0.194	0.210	0.190	0.139	0.135
640.0	17.16	24.07	22.21	12.77	13.15	12.74	13.13	15.26	19.18	23.06	26.24	28.14	27.69	23.93	21.49	11.85	8.299	7.391	8.624	41.88	200.7	40.02	3.797	3.680	3.697	3.500	3.112	3.343	2.999	3.008	3.051	2.598	2.543	2.547	2.434	2.384	2.422	2.478	2.303	2.471	2.650	2.392	2.413	2.519	2.497	2.388	2.404	2.254	2.021	2.076	1.791	1.582	1.401	1.302	1.213	1.126	0.950	0.836	0.788	0.725	0.568	0.571	0.492	0.378	0.426	0.438	0.392	0.310	0.355	0.311	0.298	0.282	0.216	0.196	0.142	0.195	0.152
645.0	14.97	29.40	29.10	15.43	12.16	11.71	13.34	16.15	20.36	24.11	29.43	29.38	28.24	25.10	23.31	14.62	8.936	7.063	6.041	15.80	131.3	126.9	3.745	3.299	3.398	3.161	2.791	2.840	2.580	2.520	2.670	2.251	1.969	1.944	2.098	2.222	1.956	2.038	2.052	2.061	2.126	1.961	1.939	2.046	2.055	2.029	1.856	1.929	1.791	1.619	1.526	1.295	1.134	0.938	0.978	0.849	0.752	0.630	0.571	0.591	0.470	0.507	0.490	0.366	0.477	0.361	0.388	0.311	0.360	0.288	0.300	0.244	0.144	0.205	0.147	0.198	0.257
650.0	12.94	29.89	34.40	16.46	11.51	11.64	13.51	16.67	19.02	23.55	27.39	28.90	28.74	25.93	23.74	16.60	9.595	7.121	6.044	7.428	57.93	179.9	16.95	2.956	2.828	2.836	2.560	2.417	2.360	2.280	2.201	1.993	1.687	1.623	1.744	1.788	1.685	1.753	1.745	1.754	1.798	1.674	1.621	1.681	1.737	1.679	1.655	1.632	1.343	1.337	1.238	1.081	1.019	0.902	0.888	0.811	0.522	0.621	0.453	0.453	0.423	0.421	0.399	0.390	0.393	0.360	0.320	0.330	0.396	0.255	0.276	0.372	0.216	0.263	0.166	0.214	0.226
