Sample:	'1
File name:	Y2025011302–§’Ú«≈ 2 ±∂.FD3
Run date:	'12:10:38, 01/14/2025
Operator:	Administrator
Comment:	'

Instrument
Model:	F-2700 FL Spectrophotometer
Serial number:	23B8-004
ROM Version:	4J14000 07

Instrument parameters
Measurement type:	3-D scan
Data mode:	Fluorescence
EX  Start WL:	220.0 nm
EX  End WL:	600.0 nm
EX Sampling interval:	5.0 nm
EM  Start WL:	230.0 nm
EM  End WL:	650.0 nm
EM Sampling interval:	5.0 nm
Scan speed:	12000 nm/min
EX Slit:	5.0 nm
EM Slit:	5.0 nm
PMT Voltage:	700 V
Response:	Auto 
Corrected spectra:	Off
Contour interval:	50.000

Peak integration
Integration method:	Rectangular
Sensitivity:	1
Threshold:	1.000

Peaks
No.	ApexEX/EM(nm)	Height(Data)
1	225.0/600.0	87.07
2	225.0/615.0	89.52
3	230.0/345.0	4409
4	235.0/370.0	3568
5	235.0/390.0	3404
6	240.0/265.0	331.5
7	245.0/270.0	331.3
8	250.0/275.0	445.0
9	255.0/285.0	584.9
10	255.0/445.0	3683
11	260.0/570.0	198.0
12	265.0/585.0	179.3
13	270.0/600.0	159.2
14	275.0/335.0	2900
15	275.0/415.0	4031
16	275.0/435.0	3829
17	275.0/610.0	158.3
18	280.0/625.0	135.5
19	350.0/415.0	3174
20	460.0/345.0	12.61
21	475.0/360.0	12.79
22	505.0/275.0	3.056
23	510.0/280.0	3.555
24	510.0/445.0	17.49
25	520.0/285.0	4.147
26	555.0/335.0	14.93
27	560.0/415.0	16.25
28	570.0/340.0	14.94
29	570.0/410.0	15.79

Data points
	220.0	225.0	230.0	235.0	240.0	245.0	250.0	255.0	260.0	265.0	270.0	275.0	280.0	285.0	290.0	295.0	300.0	305.0	310.0	315.0	320.0	325.0	330.0	335.0	340.0	345.0	350.0	355.0	360.0	365.0	370.0	375.0	380.0	385.0	390.0	395.0	400.0	405.0	410.0	415.0	420.0	425.0	430.0	435.0	440.0	445.0	450.0	455.0	460.0	465.0	470.0	475.0	480.0	485.0	490.0	495.0	500.0	505.0	510.0	515.0	520.0	525.0	530.0	535.0	540.0	545.0	550.0	555.0	560.0	565.0	570.0	575.0	580.0	585.0	590.0	595.0	600.0
230.0	69.63	1149	2394	495.3	20.32	8.765	7.455	5.924	5.410	5.081	5.173	4.491	4.487	3.729	3.123	2.719	2.520	2.186	2.142	1.959	1.886	1.783	1.741	1.822	1.648	1.598	1.656	1.503	1.514	1.323	1.267	1.142	0.964	0.929	0.816	0.741	0.708	0.633	0.599	0.553	0.557	0.584	0.554	0.505	0.420	0.528	2.074	8.259	13.58	8.763	2.505	0.663	0.374	0.411	0.384	0.368	0.383	0.392	0.351	0.357	0.343	0.339	0.341	0.334	0.376	0.356	0.356	0.352	0.365	0.332	0.335	0.325	0.347	0.394	0.351	0.364	0.356
235.0	87.10	340.1	1748	2462	440.0	26.49	8.376	5.913	5.873	5.354	5.072	5.018	4.982	3.931	3.491	2.979	2.566	2.354	1.930	1.956	1.789	1.827	1.818	1.672	1.623	1.654	1.620	1.583	1.407	1.411	1.312	1.189	1.159	0.882	0.795	0.809	0.717	0.654	0.566	0.549	0.528	0.522	0.632	0.604	0.518	0.468	0.818	2.403	5.772	9.798	13.17	12.08	4.748	0.970	0.457	0.410	0.384	0.451	0.331	0.372	0.411	0.376	0.400	0.344	0.318	0.351	0.377	0.372	0.359	0.321	0.415	0.330	0.314	0.369	0.321	0.380	0.350
240.0	124.9	145.1	579.4	2510	2555	327.5	16.40	7.690	6.028	6.758	6.100	5.428	4.615	4.229	3.489	3.097	2.709	2.464	2.059	1.941	2.127	2.007	1.808	1.754	1.619	1.795	1.725	1.629	1.424	1.237	1.353	1.206	1.031	0.931	0.784	0.743	0.736	0.686	0.521	0.577	0.568	0.593	0.585	0.579	0.688	0.614	0.652	0.862	1.702	3.307	8.067	17.72	19.37	11.05	3.254	0.619	0.473	0.468	0.391	0.390	0.385	0.392	0.370	0.305	0.304	0.374	0.352	0.379	0.416	0.365	0.356	0.381	0.320	0.378	0.353	0.375	0.345
245.0	116.4	161.9	186.3	977.3	3327	2318	217.7	11.13	7.761	6.443	6.420	5.608	4.803	4.141	3.503	3.289	2.554	2.535	2.027	1.929	2.110	2.172	1.804	1.858	1.806	1.668	1.549	1.656	1.493	1.391	1.480	1.208	1.028	0.991	0.917	0.743	0.812	0.653	0.530	0.590	0.638	0.601	0.534	0.474	0.591	0.715	0.918	0.864	0.804	1.089	2.225	6.940	15.77	23.59	20.23	8.672	1.792	0.507	0.487	0.482	0.391	0.405	0.353	0.379	0.366	0.406	0.377	0.347	0.349	0.368	0.390	0.369	0.342	0.357	0.341	0.335	0.380
250.0	61.72	137.2	213.1	293.1	1191	2936	3064	811.8	36.32	8.585	7.918	6.722	6.480	4.335	3.988	3.419	2.781	2.764	2.201	1.937	2.115	2.079	2.023	1.928	1.909	1.822	1.730	1.648	1.674	1.516	1.401	1.221	1.095	1.023	0.851	0.858	0.804	0.606	0.565	0.581	0.580	0.602	0.523	0.502	0.568	0.573	0.704	0.967	1.042	0.954	0.974	1.968	4.213	8.486	14.65	20.05	23.54	16.75	8.531	2.112	0.589	0.386	0.444	0.433	0.411	0.384	0.394	0.351	0.417	0.397	0.427	0.350	0.391	0.387	0.375	0.347	0.385
255.0	42.87	60.08	185.5	276.5	332.2	815.0	3181	4695	262.9	31.45	12.10	8.340	6.937	5.141	4.526	3.712	3.000	3.023	2.225	2.149	2.364	2.060	2.051	2.145	2.070	1.921	1.797	1.693	1.639	1.500	1.452	1.234	1.104	1.084	0.785	0.778	0.730	0.677	0.641	0.537	0.644	0.639	0.602	0.466	0.490	0.544	0.551	0.647	0.785	1.029	1.340	1.346	1.434	2.330	3.701	5.402	10.93	23.99	36.96	25.40	11.40	1.862	0.564	0.544	0.490	0.364	0.389	0.411	0.453	0.365	0.445	0.405	0.372	0.375	0.371	0.398	0.481
260.0	38.29	34.23	80.79	275.9	252.6	226.1	1087	4769	4618	215.4	28.75	10.30	8.326	6.299	5.673	4.223	3.899	2.966	2.599	2.267	2.343	2.127	2.154	1.971	1.975	1.817	1.960	1.866	1.799	1.622	1.416	1.287	1.072	1.188	0.966	0.764	0.703	0.809	0.639	0.574	0.683	0.619	0.603	0.563	0.557	0.488	0.534	0.586	0.578	0.635	1.036	1.755	1.654	1.241	1.288	1.675	2.993	7.081	19.51	35.59	42.48	22.93	8.032	1.191	0.507	0.586	0.418	0.407	0.474	0.386	0.516	0.444	0.398	0.436	0.473	0.461	0.464
265.0	43.83	33.13	41.10	158.8	331.5	175.7	280.5	1837	6305	4386	192.9	15.83	10.78	8.586	5.498	4.829	3.948	3.122	2.774	2.702	2.438	2.240	2.165	1.929	2.294	2.030	2.010	2.219	1.565	1.803	1.583	1.375	1.191	1.325	0.943	0.842	0.834	0.809	0.599	0.616	0.679	0.700	0.644	0.568	0.602	0.587	0.595	0.567	0.491	0.485	0.622	1.139	1.875	2.123	1.336	0.917	1.075	2.071	5.093	11.84	27.84	45.91	30.85	20.12	5.344	0.870	0.515	0.515	0.658	0.507	0.473	0.446	0.434	0.489	0.429	0.452	0.395
270.0	51.84	39.46	34.25	63.56	186.7	331.3	227.7	462.8	2200	5626	7409	2238	56.01	12.23	8.102	6.121	4.714	3.802	3.176	2.903	2.741	2.451	2.269	2.156	2.435	2.079	2.097	1.980	1.689	1.864	1.621	1.493	1.265	1.245	1.060	0.875	0.835	0.730	0.680	0.710	0.632	0.681	0.681	0.654	0.660	0.637	0.650	0.563	0.574	0.501	0.477	0.702	0.861	1.440	1.995	2.138	1.782	1.356	1.674	3.232	7.080	14.42	23.04	39.68	39.13	42.60	15.32	6.249	1.072	0.640	0.513	0.497	0.469	0.499	0.473	0.461	0.430
275.0	87.75	73.17	67.33	55.37	73.41	196.2	445.0	280.7	553.6	1504	6179	9999.9	1176	59.58	12.07	8.237	6.259	4.621	4.003	3.171	2.963	2.612	2.645	2.432	2.370	2.250	2.140	2.071	1.821	1.823	1.726	1.490	1.308	1.338	1.292	1.044	1.032	0.862	0.723	0.744	0.634	0.723	0.742	0.732	0.719	0.792	0.778	0.712	0.608	0.560	0.586	0.573	0.680	0.882	0.945	1.318	2.547	3.056	2.452	1.465	2.225	3.862	5.929	9.940	13.86	35.69	66.70	72.59	24.09	6.924	0.893	0.577	0.499	0.415	0.566	0.468	0.502
280.0	153.2	160.6	127.0	84.85	70.16	115.8	356.0	512.5	291.1	488.7	1991	8398	9590	909.7	29.31	10.30	7.532	5.577	4.417	4.059	3.363	3.131	2.675	2.659	2.332	2.483	2.440	2.276	1.926	2.011	1.774	1.493	1.325	1.434	1.318	1.174	1.044	0.909	0.730	0.785	0.680	0.751	0.814	0.745	0.840	0.929	0.893	0.847	0.783	0.689	0.716	0.682	0.620	0.747	0.801	0.869	1.451	2.572	3.555	2.970	1.824	1.872	2.419	3.239	4.397	9.903	24.77	56.67	82.73	32.94	19.71	3.713	0.789	0.587	0.618	0.508	0.530
285.0	254.2	254.8	215.8	146.8	101.1	116.9	219.7	584.9	538.7	328.8	755.8	2904	9999.9	7881	118.3	15.00	9.568	7.147	4.998	4.549	3.710	3.325	3.194	2.885	2.847	2.531	2.464	2.446	1.886	2.138	1.749	1.475	1.486	1.422	1.394	1.358	1.237	1.044	0.876	0.918	0.833	0.942	0.856	0.970	0.969	1.016	1.235	1.195	1.134	0.856	0.883	0.848	0.816	0.908	0.922	0.947	1.103	1.519	2.534	3.771	4.147	2.886	2.124	2.394	2.706	4.129	7.459	16.27	37.01	66.24	93.22	30.24	14.28	1.669	0.695	0.731	0.559
290.0	399.1	447.1	380.9	256.4	179.1	171.6	223.2	416.2	782.1	832.3	755.3	1168	3440	8213	8683	2166	34.31	9.778	7.445	5.398	4.590	3.680	3.524	3.075	2.768	2.708	2.501	2.507	2.159	2.271	1.936	1.860	1.630	1.608	1.541	1.520	1.463	1.231	1.129	0.997	0.987	1.077	1.068	1.200	1.295	1.369	1.533	1.628	1.660	1.310	1.179	1.215	1.121	1.128	1.251	1.143	1.329	1.577	1.898	2.607	3.607	4.719	5.168	4.683	4.056	4.000	4.702	6.448	11.03	19.02	38.14	52.84	73.87	62.06	47.11	10.66	2.005
295.0	546.5	645.5	571.6	380.9	267.5	246.7	305.7	430.5	678.0	1203	1286	1036	1285	2203	5704	9999.9	672.8	34.53	9.932	7.307	5.574	4.537	4.030	3.346	3.134	3.007	2.662	2.570	2.358	2.358	2.106	1.963	1.710	1.557	1.721	1.702	1.405	1.329	1.195	1.111	1.173	1.171	1.141	1.239	1.570	1.758	1.890	2.167	2.078	1.892	1.674	1.701	1.496	1.459	1.405	1.454	1.673	2.026	2.134	2.466	3.118	3.861	5.031	7.327	7.800	6.768	5.677	5.495	6.239	7.478	10.69	13.67	20.49	37.68	90.00	111.8	32.65
300.0	612.7	791.6	698.3	492.4	358.3	336.0	403.8	541.0	764.1	1193	1766	1392	1032	927.4	1739	8179	9999.9	539.6	20.37	9.395	6.929	5.661	4.763	3.817	3.529	3.268	2.865	2.831	2.641	2.385	2.233	2.114	1.907	1.796	1.854	1.596	1.685	1.405	1.338	1.179	1.349	1.276	1.317	1.391	1.751	2.155	2.255	2.663	2.443	2.209	1.965	2.024	1.861	1.908	1.874	1.860	2.153	2.541	2.712	3.042	3.679	4.261	5.052	6.839	8.572	10.04	8.793	7.262	6.023	5.503	5.722	5.777	6.942	10.82	28.26	66.42	112.4
305.0	763.5	937.8	871.9	601.6	452.7	464.2	566.7	739.8	1014	1402	1962	2119	1344	938.3	878.7	2651	9999.9	5009	74.36	13.64	8.777	6.300	4.838	4.477	3.874	3.577	3.095	3.117	2.724	2.489	2.224	2.334	2.058	1.825	2.116	1.627	1.802	1.592	1.310	1.307	1.406	1.343	1.587	1.834	2.083	2.381	2.479	3.007	2.866	2.592	2.307	2.357	2.235	2.066	2.275	2.437	2.760	3.193	3.628	4.091	4.794	5.557	6.447	7.591	8.527	10.02	11.63	11.41	9.447	7.614	6.655	5.548	5.049	6.080	9.205	18.55	42.63
310.0	877.2	1099	1020	741.6	568.0	582.0	718.9	919.0	1211	1615	2010	2324	2021	1305	919.7	1064	3133	7000	7390	1568	26.31	8.974	6.996	5.680	4.642	4.441	3.563	3.482	2.999	2.660	2.485	2.282	2.051	2.028	1.952	1.872	1.703	1.562	1.444	1.456	1.362	1.535	1.571	1.984	2.159	2.744	2.897	3.491	3.296	2.825	2.706	2.766	2.658	2.648	2.658	2.753	3.409	4.031	4.439	5.009	5.548	6.687	7.700	8.550	9.401	10.20	11.14	12.05	12.36	11.49	9.701	7.719	6.347	6.014	6.175	7.577	12.57
315.0	1077	1426	1236	894.0	685.0	700.8	837.5	1053	1367	1774	2155	2340	2248	1911	1211	880.2	1177	1861	4933	9999.9	489.9	27.21	9.707	7.150	5.459	4.646	4.051	3.966	3.321	3.131	2.829	2.489	2.182	2.112	1.960	1.965	1.789	1.637	1.559	1.570	1.658	1.625	1.877	2.153	2.765	3.387	3.796	4.269	3.933	3.440	3.113	3.497	2.991	3.068	3.222	3.181	3.990	4.625	5.149	5.526	6.190	7.193	8.203	9.249	10.43	11.10	11.34	11.81	11.80	12.14	12.26	11.37	9.222	7.762	6.727	6.278	6.579
320.0	1466	1806	1710	1117	807.8	797.4	935.6	1172	1509	1931	2327	2508	2387	2220	1662	1021	848.0	730.8	1359	7082	9460	411.8	18.28	9.321	7.317	5.415	4.882	4.019	3.626	3.632	2.800	2.673	2.358	2.201	1.925	2.140	1.885	1.762	1.511	1.601	1.709	1.884	2.249	2.661	3.430	4.397	5.410	5.877	4.896	4.281	3.755	3.974	3.647	3.522	3.473	3.761	4.345	4.967	5.577	6.299	6.740	7.837	9.086	10.52	11.05	11.81	12.37	12.75	12.80	12.27	12.33	12.87	12.55	10.98	8.408	6.843	6.102
325.0	1928	2690	2462	1586	1001	891.5	1018	1271	1635	2067	2492	2697	2567	2294	2004	1299	855.8	543.6	488.4	2012	8877	7720	59.50	14.18	9.029	6.777	5.241	4.573	3.776	3.726	3.121	2.802	2.502	2.213	2.124	2.218	1.746	1.836	1.591	1.737	1.737	2.086	2.373	3.263	4.146	5.566	6.908	7.790	7.050	6.155	5.238	5.335	4.415	4.338	3.922	4.233	4.765	5.404	5.957	6.506	7.361	8.177	9.466	10.77	11.99	12.65	13.47	13.47	13.76	13.06	13.06	13.02	12.85	12.85	11.37	8.615	7.169
330.0	2236	3428	3386	2395	1477	1123	1150	1379	1720	2145	2592	2826	2720	2421	2049	1614	1069	612.3	398.8	656.4	2557	6792	6354	1361	26.47	9.824	6.469	5.782	4.448	4.135	3.409	3.030	2.626	2.409	2.188	2.037	1.921	1.903	1.721	1.764	1.847	2.211	2.607	3.505	4.741	6.485	8.135	9.803	10.28	8.631	7.722	7.903	6.277	5.692	5.123	4.893	5.369	5.914	6.587	7.056	7.949	8.877	10.15	11.02	12.59	13.08	14.11	13.99	14.53	14.22	13.79	13.70	13.32	12.55	11.94	10.72	9.673
335.0	2445	3947	4025	3131	2108	1464	1301	1472	1788	2208	2634	2900	2813	2555	2114	1667	1349	833.5	520.3	496.0	857.2	1773	4651	9929	1939	31.43	9.457	7.421	5.293	4.453	4.145	3.427	2.776	2.892	2.384	2.275	2.075	2.120	1.885	1.937	2.081	2.449	2.800	3.847	5.432	7.170	9.099	11.12	11.90	10.50	10.19	10.34	8.857	7.711	6.547	5.759	6.259	6.481	7.110	7.519	8.285	9.137	10.23	11.13	12.38	13.39	14.05	14.93	14.64	14.91	14.57	14.81	13.54	12.98	12.04	11.04	10.44
340.0	2555	4088	4375	3516	2404	1652	1389	1510	1820	2198	2618	2858	2819	2573	2142	1664	1357	1041	639.8	528.2	540.5	679.8	1394	7046	8932	375.1	21.42	9.701	6.600	4.985	4.156	3.420	2.946	2.666	2.168	2.349	1.989	1.923	1.786	1.856	2.107	2.649	2.812	3.986	5.640	7.449	9.379	12.17	12.43	11.49	11.13	11.89	10.14	8.718	7.053	6.438	6.720	6.941	7.530	7.711	8.288	9.034	10.33	11.74	12.41	13.02	13.95	14.48	14.69	14.85	14.94	14.58	13.75	13.13	12.11	11.15	9.699
345.0	2476	3947	4409	3649	2570	1765	1471	1568	1818	2161	2520	2752	2726	2508	2122	1662	1290	1095	817.4	600.6	526.6	494.4	602.9	2089	8191	7302	296.1	14.85	8.059	6.201	4.868	3.759	3.108	2.651	2.444	2.300	2.104	1.943	1.799	1.779	1.936	2.355	2.970	3.692	5.194	7.536	9.002	11.87	12.61	11.59	11.62	11.97	10.71	9.157	7.952	7.190	7.196	7.049	7.816	7.936	8.546	9.193	10.66	10.91	11.48	12.87	13.74	13.56	14.12	14.34	14.84	14.42	13.52	13.14	11.45	11.54	10.10
350.0	2280	3628	4216	3694	2802	2045	1797	1852	1954	2172	2449	2608	2578	2412	2066	1676	1341	1073	962.2	803.2	633.4	551.1	515.5	752.8	2408	6186	5366	1313	24.92	8.869	6.058	4.434	3.271	2.809	2.471	2.190	2.196	2.059	1.790	1.780	2.038	2.263	2.795	3.464	4.858	6.837	8.308	11.09	11.71	11.24	11.51	12.64	11.52	10.30	9.113	8.057	8.202	8.179	8.821	9.041	9.309	9.700	10.22	10.81	11.66	12.35	12.93	13.09	13.52	13.45	13.73	13.63	13.18	12.77	11.87	11.29	10.47
355.0	2091	3338	3931	3625	2898	2213	1964	2002	2017	2111	2338	2433	2413	2267	1976	1664	1382	1122	994.9	984.6	847.0	682.9	595.4	549.3	814.7	1588	3731	8833	1874	30.81	9.709	5.711	4.176	3.068	2.612	2.342	2.051	1.980	1.903	1.901	1.952	2.176	2.537	3.295	4.378	6.221	7.537	10.26	10.87	10.94	10.95	12.59	11.39	10.83	9.393	8.649	8.991	9.090	9.373	9.671	10.01	10.16	10.42	10.72	11.53	11.37	11.83	12.17	12.52	12.92	13.17	12.79	12.32	12.27	11.58	11.03	10.62
360.0	1918	3076	3702	3517	2887	2272	2010	2025	2031	2074	2226	2290	2251	2133	1915	1647	1409	1193	1063	1050	1036	855.7	719.3	603.8	557.2	627.3	1088	6019	7512	355.8	23.04	8.363	5.214	3.577	2.935	2.389	2.222	1.839	1.993	1.816	2.011	1.984	2.618	3.083	4.218	5.468	7.237	9.111	10.60	10.20	10.21	12.79	11.34	10.71	9.636	8.753	9.111	9.055	9.638	9.743	9.914	9.946	10.19	10.40	11.19	11.23	11.36	11.40	11.81	11.90	12.37	12.32	12.42	11.42	11.18	10.64	10.69
365.0	1791	2914	3547	3503	2951	2330	2120	2128	2085	2104	2163	2195	2163	2076	1877	1643	1464	1291	1194	1151	1173	1099	906.7	759.7	641.6	515.1	517.7	1809	6679	6074	282.3	14.99	7.023	4.347	3.343	2.667	2.344	2.138	2.047	1.842	1.958	2.030	2.467	2.936	3.997	5.099	6.664	8.784	10.19	9.792	10.18	12.66	11.41	10.95	9.828	9.251	9.683	9.564	10.21	10.15	9.928	10.65	10.36	10.41	10.85	10.81	10.96	10.88	11.45	11.13	11.77	11.89	11.89	11.06	10.79	10.66	10.68
370.0	1727	2831	3533	3568	3053	2535	2364	2332	2239	2185	2157	2122	2081	2014	1861	1689	1556	1436	1375	1353	1346	1356	1249	1046	888.7	724.0	564.5	751.8	2040	5098	4611	1137	22.43	7.435	4.736	3.358	2.796	2.411	2.025	1.889	2.021	2.106	2.502	3.011	3.783	5.134	6.462	8.470	10.05	9.755	10.28	12.69	11.99	11.41	10.45	10.09	10.93	10.50	11.03	11.13	10.94	10.97	10.83	11.11	10.88	10.83	10.66	10.67	11.21	11.01	11.31	11.33	11.38	11.41	10.84	10.99	11.03
375.0	1667	2642	3451	3556	3082	2617	2405	2384	2285	2204	2114	2058	2000	1925	1812	1680	1596	1531	1514	1519	1527	1520	1496	1366	1157	969.9	774.7	675.6	808.2	1379	3186	6523	1617	26.41	8.460	5.208	3.704	2.623	2.197	2.171	2.014	2.158	2.516	3.018	3.678	4.949	6.301	8.129	9.205	9.860	10.40	12.69	12.00	11.74	10.92	10.58	10.78	10.66	11.50	11.47	11.04	11.20	10.70	10.53	10.53	10.46	10.12	10.19	10.69	10.83	11.25	10.92	11.14	11.25	10.63	10.91	11.10
380.0	1584	2590	3299	3416	3028	2615	2402	2354	2250	2160	2074	1994	1951	1873	1764	1655	1610	1575	1582	1607	1632	1619	1595	1558	1358	1139	931.9	766.5	635.0	601.6	970.5	4567	5775	294.9	19.69	8.723	5.249	3.492	2.695	2.297	2.169	2.196	2.503	3.008	3.594	4.742	5.857	7.854	8.958	9.512	10.06	12.15	11.95	11.52	10.58	10.45	10.74	11.25	11.28	11.21	10.94	11.32	11.14	10.77	10.39	10.08	9.882	9.689	10.08	10.86	10.63	10.68	10.97	10.67	10.83	10.62	11.38
385.0	1581	2487	3261	3389	3005	2636	2433	2371	2265	2164	2048	1947	1920	1853	1758	1651	1621	1608	1630	1676	1712	1719	1682	1655	1548	1307	1088	903.8	705.0	497.3	468.6	1403	5049	4308	230.6	17.34	9.380	5.371	3.302	2.411	2.232	2.324	2.538	3.050	3.644	4.654	5.789	7.604	8.760	9.498	9.844	12.08	11.69	12.01	10.76	10.88	11.18	11.28	11.27	11.06	11.47	10.91	11.08	10.72	10.36	9.853	9.972	9.552	9.820	10.23	10.02	10.49	11.09	11.01	10.27	10.56	11.28
390.0	1525	2427	3194	3404	3060	2730	2582	2515	2391	2284	2128	2022	1992	1925	1822	1712	1662	1662	1708	1777	1837	1874	1863	1830	1776	1623	1380	1170	952.2	710.5	530.4	595.7	1569	3659	3468	878.8	27.27	14.81	6.613	3.571	2.700	2.638	2.701	3.114	3.672	4.840	5.637	7.464	8.877	9.286	10.02	11.88	11.91	11.87	11.11	10.90	11.48	11.76	11.57	11.93	11.82	11.18	11.51	11.02	10.69	10.29	10.03	9.881	9.986	10.44	10.40	10.76	10.78	11.21	10.66	11.12	11.30
395.0	1528	2364	3147	3351	3156	2865	2741	2681	2594	2535	2436	2343	2290	2191	2052	1860	1753	1733	1780	1881	1976	2062	2102	2106	2073	2011	1842	1611	1377	1122	881.0	708.5	763.2	1131	2543	4822	1291	36.16	16.89	6.966	3.749	3.263	2.982	3.193	3.634	4.844	5.677	7.868	8.942	9.000	9.761	11.71	12.22	12.20	11.61	11.83	11.94	12.61	12.57	12.19	12.57	12.07	11.77	12.09	11.60	11.05	10.81	10.63	11.15	11.07	11.60	11.64	11.47	11.90	11.52	11.56	11.84
400.0	1510	2374	3101	3359	3217	2979	2914	2879	2835	2848	2863	2830	2752	2605	2368	2078	1872	1801	1847	1966	2093	2223	2328	2391	2397	2357	2280	2091	1840	1589	1317	1053	840.7	744.7	1020	3590	4487	260.8	33.17	12.14	5.502	3.847	3.298	3.648	3.869	5.097	5.805	7.690	8.714	9.203	9.983	12.15	11.99	12.43	12.18	12.28	12.85	13.22	13.15	13.08	13.68	12.58	13.16	13.30	13.35	12.12	11.79	12.24	12.45	12.75	12.90	12.88	12.57	12.93	12.60	12.74	12.61
405.0	1530	2369	3058	3326	3262	3138	3098	3102	3149	3267	3391	3408	3339	3118	2778	2361	2022	1890	1930	2042	2227	2391	2554	2682	2743	2755	2722	2620	2381	2117	1835	1504	1165	904.7	805.3	1412	4118	2186	208.8	21.30	8.277	4.717	3.951	4.029	4.239	5.181	6.034	7.590	8.636	9.398	10.16	12.80	12.52	13.36	13.49	13.06	13.93	14.08	14.40	13.93	14.49	14.03	14.49	14.33	14.24	13.83	13.82	13.84	14.15	14.33	14.43	14.30	14.22	14.45	13.88	12.95	13.60
410.0	1564	2319	2987	3326	3323	3274	3313	3349	3427	3667	3895	3973	3861	3604	3157	2615	2152	1947	1970	2102	2303	2513	2740	2926	3047	3113	3110	3064	2915	2647	2339	1958	1538	1188	959.7	915.3	1519	2737	2832	769.1	18.82	6.810	4.940	4.537	4.831	5.334	5.964	7.715	8.852	9.240	10.24	12.63	13.04	13.86	13.82	13.82	14.95	15.21	15.63	14.99	15.53	15.51	15.35	15.68	15.70	15.22	15.53	15.36	15.40	15.65	15.79	15.73	15.67	15.37	14.56	14.00	13.83
415.0	1545	2217	2854	3197	3267	3306	3354	3413	3490	3707	3948	4031	3922	3646	3185	2617	2128	1902	1913	2043	2236	2463	2702	2913	3069	3154	3174	3125	3025	2821	2497	2106	1662	1289	1023	830.3	762.6	857.5	1940	3752	251.2	17.83	6.534	5.007	5.202	5.503	5.895	7.666	8.401	8.831	9.639	12.63	12.93	13.66	13.84	13.91	15.21	15.74	15.66	15.74	15.53	15.56	15.38	15.99	15.83	15.03	15.70	15.42	16.25	15.38	15.57	15.71	15.82	15.39	14.67	13.79	13.50
420.0	1523	2141	2751	3077	3199	3268	3355	3390	3435	3597	3824	3870	3765	3500	3064	2535	2050	1833	1839	1951	2138	2346	2586	2788	2948	3035	3073	3029	2930	2780	2476	2086	1651	1279	1013	791.5	582.3	415.9	592.6	2654	3247	217.0	10.81	5.946	5.371	5.703	5.959	7.238	8.133	8.508	9.464	12.15	12.37	13.07	12.81	13.67	14.77	15.21	15.69	15.56	15.49	15.29	15.24	15.66	15.39	15.36	14.91	14.57	15.39	15.26	15.49	15.23	14.95	14.68	14.32	13.27	12.90
425.0	1527	2065	2670	3023	3120	3221	3375	3391	3395	3523	3726	3766	3662	3418	2975	2445	1980	1770	1770	1873	2038	2241	2475	2683	2834	2945	2981	2948	2864	2721	2470	2071	1647	1281	1020	792.6	549.5	327.3	245.6	792.8	2999	1998	33.18	8.085	5.760	6.033	6.248	7.423	8.072	8.162	9.234	11.64	12.25	12.82	13.10	13.71	15.05	15.28	15.57	15.74	15.30	15.42	15.06	15.26	14.76	14.76	14.50	14.23	14.95	14.90	14.84	14.78	15.00	14.59	14.05	13.07	12.75
430.0	1508	2008	2552	2891	3113	3315	3468	3496	3463	3550	3742	3807	3701	3431	2985	2436	1969	1738	1722	1815	1964	2161	2389	2609	2787	2905	2973	2965	2893	2746	2537	2189	1740	1365	1097	861.2	595.8	346.5	192.5	249.6	864.2	2194	2371	655.9	14.62	6.917	6.606	7.516	8.042	8.204	8.934	11.46	12.27	12.94	13.47	14.34	15.34	15.66	16.18	16.38	15.52	15.91	14.95	15.26	14.91	14.86	14.35	14.69	14.94	14.61	14.81	14.37	14.57	14.28	13.86	13.02	12.98
435.0	1701	1986	2486	2832	3137	3407	3593	3661	3533	3594	3737	3829	3709	3445	2982	2445	1958	1710	1689	1761	1887	2062	2297	2533	2718	2846	2932	2958	2892	2771	2568	2251	1836	1447	1176	930.9	652.0	389.5	208.8	147.3	249.5	543.4	1601	3243	233.3	16.80	8.038	7.725	8.213	8.076	9.115	11.30	12.30	13.43	13.65	14.76	15.71	16.84	16.82	16.72	16.32	15.79	15.44	15.13	14.97	14.67	14.43	14.62	14.90	14.28	14.29	14.36	14.49	14.31	13.20	13.24	12.63
440.0	1929	1938	2407	2807	3113	3442	3656	3673	3520	3479	3617	3695	3585	3306	2894	2370	1903	1664	1632	1680	1787	1948	2177	2403	2587	2718	2807	2840	2798	2681	2501	2186	1820	1454	1173	937.5	668.8	406.1	226.3	136.2	121.7	166.6	444.8	2376	2985	201.3	11.53	8.535	8.200	8.084	8.941	11.23	12.07	13.41	13.80	14.51	16.33	16.97	17.31	17.28	16.54	15.69	14.87	14.66	14.96	14.44	14.19	14.17	13.68	14.10	14.65	14.40	14.36	13.63	13.48	13.11	12.54
445.0	2091	2111	2330	2740	3081	3412	3655	3683	3416	3306	3387	3434	3328	3076	2705	2233	1816	1592	1555	1587	1675	1806	2000	2214	2388	2514	2598	2636	2590	2499	2332	2044	1701	1393	1125	900.1	653.2	402.5	235.9	144.6	102.3	89.92	135.2	705.6	2899	1821	28.93	9.646	8.722	8.099	8.706	10.98	12.01	13.13	13.69	15.05	16.56	16.99	17.49	16.59	15.99	15.55	14.42	14.15	14.26	13.63	13.59	13.45	12.92	13.42	13.78	13.55	13.23	13.34	12.49	12.35	11.68
450.0	1785	2584	2283	2568	2977	3339	3571	3536	3210	3001	2993	3015	2918	2714	2402	2001	1657	1466	1426	1444	1488	1596	1757	1938	2081	2190	2269	2302	2270	2202	2061	1807	1505	1246	1035	826.8	600.9	389.5	240.8	155.3	108.9	80.90	73.58	188.5	835.0	2085	2287	596.6	14.35	8.695	8.553	10.72	11.60	12.65	13.55	14.49	16.33	16.50	16.91	16.10	15.50	14.30	13.65	13.14	12.51	12.08	11.97	11.94	11.98	12.00	12.33	12.02	11.92	11.86	11.46	11.28	10.67
455.0	1310	2757	2601	2380	2815	3175	3403	3347	2991	2697	2644	2644	2555	2378	2113	1772	1501	1333	1290	1300	1313	1391	1524	1678	1797	1889	1959	1989	1981	1921	1802	1593	1332	1103	931.6	764.5	562.1	374.7	244.2	167.4	118.2	89.00	66.71	79.91	213.5	505.3	1541	2976	195.7	15.27	9.152	10.31	11.00	11.91	13.15	14.01	15.41	15.64	16.00	15.57	14.35	13.65	12.68	12.16	11.42	11.05	10.72	10.63	10.43	10.59	11.03	11.18	10.59	10.84	10.34	9.998	9.828
460.0	1100	2301	3176	2336	2670	3012	3241	3168	2823	2513	2415	2402	2322	2163	1933	1637	1383	1237	1194	1186	1186	1249	1376	1508	1615	1706	1760	1793	1789	1748	1636	1452	1227	1020	860.8	720.2	545.9	365.8	244.7	172.4	126.0	95.21	70.80	60.18	79.19	137.8	411.4	2108	2595	159.0	12.64	10.93	10.67	11.32	12.22	13.12	13.99	15.11	15.25	14.99	13.36	12.81	11.49	11.46	10.69	10.40	9.890	9.817	9.582	10.25	9.987	9.911	9.920	10.30	9.539	9.083	9.333
465.0	997.0	1755	3412	2547	2508	2893	3104	3024	2659	2330	2223	2228	2129	1996	1779	1508	1282	1149	1104	1091	1083	1131	1241	1359	1465	1536	1595	1624	1632	1598	1505	1344	1133	948.2	801.9	671.9	526.4	360.3	244.2	176.1	131.2	100.7	75.97	60.19	53.90	58.70	113.9	608.0	2496	1396	132.7	12.28	10.82	11.35	11.79	12.79	13.83	14.55	14.61	14.08	12.99	12.19	11.03	9.946	9.639	9.774	8.994	9.114	8.915	9.401	9.440	8.956	9.397	9.254	9.040	8.614	8.756
470.0	914.6	1358	2649	3262	2393	2588	2830	2738	2386	2074	1954	1962	1859	1736	1553	1325	1126	1017	978.7	959.4	941.9	977.6	1066	1168	1255	1319	1366	1394	1405	1378	1302	1167	995.1	836.0	708.4	597.1	476.0	347.7	239.3	174.1	133.5	104.5	82.05	64.16	52.08	45.73	51.85	157.4	706.6	1630	1812	604.5	17.09	11.47	11.14	12.14	13.13	13.29	13.18	12.77	12.07	11.00	10.06	9.149	8.524	8.350	8.127	8.082	8.134	8.263	8.206	8.269	8.114	8.222	8.185	7.701	7.751
475.0	830.8	1156	1707	3306	2779	2317	2511	2425	2091	1793	1681	1651	1575	1474	1315	1130	973.1	883.6	846.7	823.2	799.6	820.9	887.0	972.1	1049	1091	1127	1153	1164	1147	1088	981.9	841.6	713.0	607.9	517.3	412.9	315.3	233.6	173.5	134.0	107.3	86.46	68.79	56.79	47.02	41.87	59.52	177.5	388.6	1049	2340	203.8	19.93	11.48	11.17	12.08	11.94	12.10	11.50	10.50	9.562	8.453	8.070	7.714	7.176	7.209	7.111	7.160	7.327	7.070	7.042	7.304	7.198	6.803	6.374	6.767
480.0	763.8	1061	1380	2580	3361	2218	2310	2209	1881	1604	1478	1452	1390	1292	1162	1009	868.6	793.9	756.7	728.6	705.8	722.1	775.2	841.4	906.9	950.1	978.9	999.2	1007	992.5	940.4	853.7	738.1	626.7	540.7	460.4	368.0	286.6	223.0	174.7	134.5	107.6	88.11	72.18	60.04	49.62	42.25	39.97	61.27	104.6	272.4	1399	2146	199.6	15.99	11.02	11.44	10.94	11.13	10.44	9.624	8.906	8.300	7.353	6.899	6.584	6.606	6.550	6.506	6.543	6.280	6.541	6.265	6.343	6.057	6.169	6.039
485.0	668.2	991.9	1185	1841	3538	2421	2104	2011	1719	1455	1344	1300	1243	1153	1040	904.0	781.6	716.3	689.2	657.5	633.8	640.9	687.3	748.6	797.3	837.7	862.2	876.9	884.8	874.5	830.8	756.3	657.2	561.6	488.4	416.4	337.9	263.5	211.6	173.4	136.3	108.8	90.41	74.33	62.72	53.02	45.28	38.77	37.80	43.20	78.26	384.9	1759	1655	166.9	13.43	11.65	10.95	10.28	10.06	9.074	8.467	7.861	6.630	6.333	6.063	5.582	5.972	5.986	5.838	5.563	5.852	5.484	5.935	5.708	5.579	5.449
490.0	592.5	910.2	1075	1373	2640	3113	2006	1794	1535	1288	1182	1142	1081	1005	902.4	790.2	693.7	633.3	605.0	578.9	555.5	558.1	596.2	644.6	685.6	718.4	738.5	749.4	755.2	745.9	715.2	651.1	570.5	491.9	429.7	370.5	304.1	239.8	192.9	164.1	139.3	112.4	92.46	77.92	67.46	58.78	50.48	42.84	37.62	33.88	38.35	104.4	475.0	1291	1807	677.4	19.84	11.08	10.08	9.209	8.336	7.593	6.887	6.160	5.600	5.483	5.453	5.255	5.411	5.266	5.259	5.301	5.045	5.024	5.208	5.055	4.915
495.0	496.5	802.2	972.8	1134	1639	3174	2394	1589	1352	1133	1046	1007	950.9	877.4	777.4	688.8	603.7	556.5	525.4	504.7	478.3	478.9	509.9	547.7	581.2	609.4	620.0	633.6	639.2	634.0	608.3	556.7	491.9	426.3	375.8	327.0	273.3	216.1	177.3	150.2	133.6	115.2	95.53	80.11	70.64	62.67	55.76	47.49	42.20	35.67	33.09	44.89	124.8	308.1	908.6	2305	1082	23.89	10.21	8.928	7.959	7.203	6.338	5.303	5.121	5.062	4.666	4.537	4.641	4.808	4.669	4.487	4.503	4.646	4.503	4.295	4.460
500.0	433.0	703.3	890.1	1026	1260	2418	2955	1498	1206	1032	935.5	900.5	854.3	785.7	695.6	611.2	537.8	496.9	467.5	446.7	423.9	425.4	448.3	485.9	509.0	534.6	548.0	552.6	558.2	552.6	533.3	490.4	434.7	378.8	335.9	293.6	246.4	199.6	164.8	140.0	125.5	113.3	98.40	81.82	71.87	64.71	57.85	50.44	44.85	38.54	34.29	33.86	48.87	87.54	231.4	1189	2513	229.7	19.56	9.128	7.774	6.755	6.035	5.176	4.735	4.726	4.535	4.400	4.201	4.226	4.219	4.262	4.175	3.961	3.972	3.836	3.995
505.0	398.1	603.1	836.1	927.8	1095	1636	3135	1678	1093	936.1	849.6	807.4	759.3	695.4	622.8	541.8	479.4	441.3	419.7	397.4	378.8	380.7	395.9	428.0	446.6	467.1	477.8	486.9	489.8	485.5	471.3	430.8	383.6	337.2	299.5	263.5	223.1	183.0	153.6	131.3	116.3	106.1	98.61	83.78	72.57	64.67	59.75	51.71	46.52	41.15	37.58	33.45	33.55	39.66	69.59	309.6	1566	1841	210.0	14.33	8.020	6.537	5.859	4.975	4.601	4.220	4.378	3.881	4.047	4.035	3.870	4.117	3.803	3.547	3.739	3.743	3.679
510.0	366.4	513.2	710.6	843.9	938.2	1137	2247	2456	1059	808.6	744.5	701.4	661.3	601.9	535.5	465.2	411.0	380.5	359.6	337.4	321.0	319.7	332.9	358.5	378.4	392.6	401.6	403.9	407.6	403.7	391.2	361.2	321.9	285.0	255.1	225.1	194.1	163.0	137.2	119.7	105.7	95.57	90.95	83.69	74.16	65.74	59.82	53.34	48.02	43.87	40.03	36.26	32.86	31.81	36.40	87.84	400.8	1153	1678	817.6	19.64	7.105	5.647	4.778	4.274	3.973	3.761	3.306	3.481	3.531	3.520	3.527	3.350	3.264	3.306	3.373	3.089
515.0	309.9	424.4	588.2	761.9	805.0	910.0	1266	2597	1485	695.7	626.9	605.3	563.1	506.5	449.9	393.0	347.2	320.2	301.6	283.7	269.1	264.9	277.3	294.8	310.7	321.7	326.2	329.0	332.5	331.2	321.4	298.5	265.9	236.3	213.6	189.0	165.4	142.5	121.0	108.0	95.97	88.23	80.68	79.22	74.67	66.40	58.49	54.20	49.05	46.16	41.65	38.46	33.59	31.56	30.55	40.31	107.9	275.1	636.5	1890	1168	25.04	6.279	4.925	4.187	3.460	3.514	3.117	3.066	3.014	3.202	3.051	2.879	2.853	2.900	2.698	2.735
520.0	277.9	399.1	506.0	662.3	737.1	775.7	891.7	1891	2201	704.8	567.0	540.3	498.1	452.6	396.4	344.6	307.2	280.7	262.1	247.6	235.8	233.4	243.6	254.5	270.7	277.2	280.3	282.2	282.2	284.0	275.6	255.0	230.0	206.5	186.6	167.2	147.5	126.6	109.9	97.77	88.76	81.29	75.05	72.97	72.51	65.76	59.21	52.99	49.32	45.31	42.28	39.08	35.19	32.56	30.15	30.12	44.53	78.83	161.2	821.0	2067	864.8	20.27	5.395	4.319	3.526	3.318	3.131	3.126	2.877	2.941	2.676	2.649	2.756	2.389	2.461	2.647
525.0	249.7	367.4	432.9	571.5	683.8	688.1	737.0	1131	2580	1001	509.8	482.3	447.7	406.7	355.6	304.9	275.0	245.6	234.1	219.7	207.1	208.5	214.0	223.3	235.8	242.1	246.2	244.8	245.2	245.3	239.8	223.1	199.8	180.4	163.7	148.3	131.3	114.2	100.6	89.30	81.54	74.68	69.70	66.71	67.31	65.01	57.80	51.35	48.33	44.84	41.32	39.01	35.77	33.77	30.80	29.13	30.20	36.33	52.37	207.8	1066	1957	228.5	13.32	4.837	3.519	3.301	2.871	2.896	2.804	2.619	2.535	2.488	2.414	2.322	2.342	2.401
530.0	213.8	313.1	385.4	473.0	587.5	612.8	620.6	696.0	1725	2007	597.9	420.6	392.1	347.5	305.0	263.4	236.5	213.7	199.0	186.1	175.1	174.6	179.7	188.6	197.6	202.6	203.5	203.8	205.2	205.0	198.1	185.4	168.1	151.5	138.8	125.4	111.9	99.41	88.58	79.81	73.46	67.82	63.10	59.94	59.19	59.61	56.68	50.14	45.94	43.29	40.49	38.59	35.21	33.54	30.94	28.91	27.86	27.22	28.22	60.94	265.2	886.8	1403	809.1	19.17	4.434	3.341	2.709	2.709	2.664	2.372	2.284	2.255	2.110	2.030	1.993	2.066
535.0	192.7	273.3	327.6	376.2	470.3	553.2	517.1	513.0	761.9	2249	1244	371.1	335.6	296.8	253.4	226.9	196.6	179.3	165.5	154.1	145.5	143.5	148.9	155.8	164.1	166.0	167.4	165.9	165.8	164.3	161.2	151.9	139.1	124.5	113.7	102.9	94.24	84.66	75.75	68.76	64.27	58.56	55.46	53.76	51.81	51.41	52.53	47.60	43.28	40.65	37.91	35.69	33.69	31.92	29.92	28.87	27.02	24.48	23.08	28.22	71.70	208.5	437.4	1429	1151	27.16	3.934	2.957	2.393	2.481	2.113	2.128	2.014	1.836	1.902	1.677	1.808
540.0	166.0	228.8	285.1	324.0	386.3	492.2	460.6	429.0	462.7	1461	1995	466.9	293.6	260.3	227.9	195.9	172.7	154.5	146.3	133.0	126.5	124.8	128.1	135.5	139.9	141.6	141.6	141.3	141.0	140.8	136.6	128.8	118.5	108.4	98.72	90.08	80.83	73.16	66.94	61.54	57.53	53.30	50.98	48.59	46.79	45.92	46.95	45.42	40.95	37.80	34.82	33.04	31.96	30.38	28.63	27.69	25.56	23.49	21.65	20.45	27.95	56.80	107.3	533.2	1628	865.7	21.10	2.904	2.499	2.252	2.047	1.869	1.995	1.621	1.709	1.654	1.761
545.0	137.2	200.1	239.9	294.0	328.6	414.9	437.7	373.7	358.8	719.0	2245	837.9	261.7	229.6	196.6	171.4	151.6	134.3	127.6	118.8	109.3	107.9	113.2	117.4	120.0	124.1	121.4	121.1	120.6	121.1	119.1	111.7	101.4	93.34	85.87	79.57	70.68	64.25	58.80	53.61	51.15	47.12	45.19	43.48	42.69	41.08	40.66	40.80	38.65	34.90	32.34	31.00	29.30	28.20	26.89	25.90	24.34	22.07	20.02	18.18	17.79	22.55	32.14	129.5	712.1	1613	239.4	13.80	2.691	2.047	1.939	1.949	1.757	1.631	1.557	1.637	1.341
550.0	124.0	165.1	198.7	233.5	268.6	317.2	380.5	314.2	283.1	356.9	1328	1653	400.1	189.9	164.4	142.8	124.9	110.8	102.5	96.50	90.39	88.45	92.05	95.21	96.94	100.4	98.55	98.06	96.88	98.10	94.24	89.29	82.26	75.47	69.44	65.13	59.22	53.59	49.22	45.12	42.67	39.96	38.49	36.97	36.66	35.26	34.20	33.91	34.09	31.95	29.02	26.98	25.74	24.85	23.70	22.21	21.63	20.16	18.15	16.00	14.20	13.78	14.49	34.90	169.4	638.3	1076	679.3	19.14	2.894	1.942	1.738	1.616	1.474	1.374	1.393	1.205
555.0	114.3	141.9	170.5	193.7	214.7	237.2	302.6	280.9	229.8	231.5	488.6	1771	1075	163.3	134.9	114.9	101.3	89.20	81.68	77.68	71.78	70.43	73.23	74.08	78.65	78.61	78.23	76.79	77.46	78.08	75.00	69.30	65.25	60.19	55.38	50.83	47.85	43.37	40.22	37.38	34.78	32.99	31.21	30.85	30.29	29.90	28.42	27.72	27.45	27.08	25.93	23.32	21.87	21.21	20.08	19.03	18.76	17.60	16.12	13.81	12.12	10.99	9.432	13.30	42.22	146.0	314.1	1045	904.1	26.66	2.405	1.775	1.615	1.225	1.355	1.176	1.066
560.0	98.04	131.5	143.1	163.0	179.7	196.8	239.2	263.7	198.1	189.8	248.0	1091	1959	245.5	111.6	96.92	83.67	73.66	68.13	63.87	60.74	58.72	60.63	62.66	63.70	64.98	63.39	63.04	63.37	62.61	61.23	56.71	53.40	49.10	46.55	42.75	39.20	36.51	33.45	31.14	30.34	27.92	27.26	25.84	25.78	25.42	24.66	23.51	23.26	23.40	22.88	20.54	18.70	18.46	18.19	16.75	16.19	15.45	14.19	12.52	10.78	9.396	8.231	7.816	13.41	36.08	73.54	366.6	1174	674.7	20.19	1.910	1.518	1.304	1.134	1.113	1.161
565.0	98.73	121.9	143.0	142.8	152.2	166.0	194.0	242.9	192.9	168.1	185.8	478.2	2206	551.4	97.54	81.76	70.87	63.27	57.42	53.84	50.70	49.99	50.52	53.09	53.92	54.26	53.30	51.93	53.43	52.70	50.98	48.68	43.93	41.71	37.40	35.72	32.40	30.21	28.54	26.57	25.52	23.76	23.28	22.68	22.12	21.58	21.54	20.16	19.67	19.41	20.03	18.66	16.96	16.04	15.18	14.83	14.41	13.31	12.55	11.48	10.02	8.334	7.067	5.879	6.875	11.27	19.49	86.20	479.4	1159	239.8	11.94	1.623	1.314	1.178	1.037	1.170
570.0	94.73	107.4	120.6	122.0	128.4	134.5	148.4	193.7	198.0	154.1	154.6	220.8	1260	1215	183.8	66.67	57.06	50.62	46.78	43.39	39.78	40.18	39.96	41.70	42.40	43.27	42.00	40.94	41.82	41.29	40.08	38.30	34.77	33.10	30.30	28.53	25.97	24.24	23.28	21.61	20.72	19.28	18.74	18.64	18.18	17.88	17.40	16.86	16.28	15.76	16.06	15.77	14.59	13.65	12.87	12.51	12.14	11.53	10.48	9.906	9.006	7.581	6.350	5.141	4.909	5.338	7.050	21.54	112.0	434.2	755.3	512.7	18.07	1.793	1.146	1.048	1.061
575.0	85.29	107.8	109.5	108.8	102.0	113.5	121.3	139.1	192.1	152.0	142.1	151.5	416.5	1287	601.0	55.53	44.18	39.96	36.76	34.35	31.61	31.29	30.97	32.73	32.88	34.05	33.16	31.59	32.63	31.68	31.93	29.99	27.49	25.90	23.44	22.21	20.73	19.44	18.15	17.56	16.14	15.45	14.86	14.82	14.56	14.36	14.07	13.51	12.81	12.72	12.22	12.38	12.30	11.54	10.83	10.52	10.20	9.475	8.769	8.139	7.322	6.825	5.710	4.557	4.111	3.758	3.956	6.928	26.97	98.47	210.3	713.9	649.6	25.88	1.539	0.959	0.952
580.0	80.02	104.1	107.4	98.36	92.27	95.63	102.5	114.2	174.6	160.5	135.3	128.5	172.3	784.9	1004	88.94	38.33	33.26	31.15	29.24	26.52	25.91	25.97	27.46	27.14	28.23	26.61	26.74	27.22	26.75	26.38	24.33	22.87	21.16	19.41	18.35	17.19	15.87	15.14	14.63	14.07	12.67	12.44	12.41	12.13	11.92	12.03	11.89	11.30	11.03	10.37	10.68	10.37	10.32	9.588	9.217	8.773	8.314	7.584	7.282	6.023	6.093	5.570	4.302	3.717	3.352	2.978	3.556	8.005	23.60	48.84	241.3	811.3	260.9	18.61	1.144	0.846
585.0	84.01	102.1	95.34	85.94	83.03	87.59	90.56	102.8	137.6	179.3	132.3	120.4	110.6	315.8	1196	302.5	33.97	29.01	26.13	25.22	22.31	21.44	22.29	22.98	23.31	23.27	22.71	22.71	22.71	22.63	21.85	20.82	19.28	17.73	16.69	15.60	14.49	13.52	12.72	12.30	11.80	10.81	10.59	11.06	10.62	10.44	10.22	10.33	9.653	9.224	8.910	8.980	8.769	8.924	8.613	8.030	7.294	7.384	6.715	6.321	5.717	5.467	5.116	4.172	3.587	3.023	2.786	2.726	3.557	6.795	12.36	56.40	322.0	761.9	228.7	10.37	1.019
590.0	82.44	98.64	91.30	79.00	73.87	77.01	82.87	89.11	109.7	167.2	142.4	118.2	93.90	121.5	674.0	819.7	60.73	24.07	21.59	20.07	18.12	18.14	18.20	18.05	18.90	18.75	18.34	17.99	18.10	18.18	17.63	16.46	15.29	14.30	13.58	12.48	11.55	11.16	10.27	9.809	9.485	9.280	8.862	8.998	8.630	8.507	8.572	8.148	7.848	7.440	7.353	7.168	6.918	7.093	7.446	6.948	6.175	5.984	5.732	5.117	4.766	4.432	4.170	3.715	3.340	2.675	2.431	2.289	2.358	2.836	3.928	13.71	74.64	287.1	542.7	373.4	17.81
595.0	82.60	80.06	85.31	72.72	63.55	66.09	69.79	76.86	92.04	132.0	156.4	114.3	87.85	71.78	207.3	905.9	308.2	20.71	17.28	16.10	14.65	14.85	14.36	14.52	14.66	14.77	14.32	14.62	14.00	14.72	13.45	12.91	11.74	11.45	10.57	9.734	8.957	9.085	8.484	8.196	7.551	7.434	7.097	6.962	6.993	6.978	6.887	6.418	6.351	6.188	5.758	5.511	5.753	5.449	5.845	6.028	5.379	4.995	4.764	4.104	4.023	3.510	3.297	2.940	2.985	2.503	2.136	2.109	1.978	1.807	2.075	3.927	17.74	64.82	146.9	479.6	467.1
600.0	77.68	87.07	83.52	66.13	59.61	57.02	64.46	72.08	86.30	112.8	159.2	117.2	86.30	59.47	79.38	560.9	623.3	34.11	15.46	13.63	12.60	12.23	12.26	12.42	12.14	12.68	12.13	12.36	11.26	11.96	11.33	10.93	10.05	9.532	9.048	8.131	7.410	7.491	6.962	6.572	6.333	6.476	6.063	5.854	5.932	5.805	5.645	5.354	5.294	5.177	4.993	4.598	4.867	4.624	4.799	5.036	4.655	4.338	4.157	3.753	3.451	3.195	2.855	2.406	2.607	2.504	2.081	2.015	1.721	1.559	1.471	1.695	4.791	15.14	33.81	160.3	562.9
605.0	70.67	82.12	76.53	62.96	56.31	52.97	61.89	69.75	85.29	104.3	155.2	135.2	88.12	60.56	51.17	221.8	768.1	83.82	13.38	12.21	11.02	11.02	10.95	10.16	10.77	10.92	10.52	10.64	9.752	10.42	9.899	9.371	8.424	8.141	7.789	7.056	6.494	6.404	5.649	5.634	5.546	5.274	5.056	5.133	4.756	5.017	4.710	4.735	4.520	4.310	4.211	3.981	4.021	3.966	3.938	4.131	4.294	3.864	3.393	3.212	2.985	2.682	2.303	2.399	2.223	2.274	2.101	1.720	1.639	1.269	1.272	1.246	1.854	4.119	8.249	37.05	220.1
610.0	69.75	81.25	75.19	63.92	52.70	54.55	60.17	70.45	87.04	107.0	141.9	158.3	104.6	71.14	53.67	82.54	480.2	436.4	27.79	9.903	9.338	8.699	8.494	8.461	8.528	8.571	8.626	8.518	8.316	8.375	7.975	7.586	6.819	6.639	6.326	5.627	5.215	5.024	4.746	4.672	4.243	4.175	4.068	4.170	3.799	3.987	3.970	3.724	3.687	3.549	3.374	3.375	3.273	3.215	3.104	3.161	3.330	3.511	2.863	2.775	2.587	2.464	2.221	2.045	1.958	1.869	2.020	1.756	1.562	1.298	1.249	1.168	1.247	1.654	2.606	8.982	51.03
615.0	69.46	89.52	76.29	58.06	50.95	52.38	56.47	69.37	87.94	105.5	128.8	156.1	119.8	77.05	57.82	48.21	159.9	562.1	166.4	8.575	7.807	7.165	7.173	6.985	7.266	6.933	6.558	6.554	6.814	6.562	6.217	5.824	5.707	5.064	4.918	4.504	4.165	4.020	3.877	3.578	3.547	3.308	3.107	3.283	3.223	3.224	3.211	3.007	2.837	2.866	2.529	2.694	2.600	2.488	2.456	2.547	2.619	2.803	2.781	2.361	2.241	1.903	1.877	1.890	1.833	1.571	1.632	1.598	1.485	1.282	1.222	1.031	1.063	1.124	1.172	2.599	12.13
620.0	67.71	75.17	75.68	54.88	48.35	47.58	56.34	65.32	82.65	103.0	118.4	139.5	129.5	77.60	57.83	40.28	62.49	376.2	392.1	12.87	6.338	6.065	6.327	5.913	6.028	5.849	5.516	5.598	5.194	5.519	5.369	4.808	4.661	4.380	3.928	4.077	3.636	3.301	3.349	3.074	2.983	2.617	2.718	2.636	2.733	2.584	2.620	2.489	2.541	2.375	2.159	2.345	2.122	2.054	2.002	2.245	2.062	2.279	2.326	2.174	2.126	1.595	1.820	1.605	1.644	1.564	1.417	1.355	1.693	1.237	1.224	1.021	0.991	0.872	0.806	1.288	3.248
625.0	70.65	81.89	71.15	53.92	46.80	44.94	52.74	64.50	74.86	94.08	113.6	126.2	135.5	81.46	56.44	38.75	38.20	161.7	542.6	52.44	5.754	5.117	5.627	5.083	5.001	5.147	4.877	5.234	4.738	4.533	4.560	4.316	3.949	3.548	3.472	3.360	3.096	2.724	2.776	2.624	2.474	2.456	2.254	2.272	2.269	2.240	2.218	2.148	2.060	2.028	1.981	2.099	1.823	1.705	1.778	1.860	1.872	1.780	1.968	1.885	1.752	1.428	1.597	1.530	1.385	1.534	1.236	1.239	1.490	1.430	1.158	1.029	0.922	0.954	0.801	0.850	1.256
630.0	68.55	81.32	67.08	53.85	44.23	42.28	49.48	61.27	72.71	92.63	108.4	115.8	122.1	90.13	57.81	39.48	32.45	54.49	360.6	283.2	11.46	4.604	4.638	4.441	4.270	4.304	4.046	4.080	3.908	3.724	3.758	3.434	3.151	2.880	2.791	2.589	2.485	2.285	2.197	2.150	2.056	1.890	1.964	1.808	1.863	1.885	1.898	1.830	1.827	1.641	1.647	1.623	1.494	1.510	1.545	1.524	1.529	1.507	1.513	1.577	1.639	1.431	1.441	1.344	1.409	1.293	1.169	1.198	1.283	1.294	1.191	0.953	0.920	0.846	0.763	0.744	0.806
635.0	65.30	83.74	71.65	54.03	43.70	43.04	46.81	59.13	70.77	89.60	104.6	114.1	110.7	103.4	62.83	41.62	31.76	25.99	111.4	426.2	59.99	3.972	4.073	3.669	3.799	3.373	3.604	3.404	3.180	3.399	3.113	2.884	2.873	2.438	2.135	2.185	1.886	1.738	1.737	1.664	1.712	1.586	1.572	1.560	1.394	1.447	1.564	1.515	1.450	1.358	1.308	1.293	1.268	1.287	1.335	1.235	1.338	1.310	1.240	1.366	1.406	1.291	1.293	1.163	1.167	1.149	1.052	1.169	1.131	1.096	1.187	1.058	1.065	0.848	0.740	0.801	0.779
640.0	73.24	92.84	76.13	53.36	41.87	40.62	47.19	57.99	70.88	91.78	106.3	111.4	104.2	104.7	70.82	45.49	33.42	20.29	34.26	311.2	236.4	5.872	3.472	3.194	3.200	2.919	3.276	2.971	2.783	2.769	2.776	2.656	2.403	2.041	1.865	1.834	1.634	1.495	1.385	1.515	1.372	1.371	1.363	1.251	1.352	1.323	1.337	1.380	1.205	1.167	1.140	1.063	1.073	1.069	1.162	1.153	1.124	1.239	1.099	1.316	1.159	1.305	1.191	1.083	1.076	1.080	1.087	1.174	1.008	1.002	1.041	1.028	0.949	0.836	0.731	0.759	0.683
645.0	80.71	94.55	83.34	57.89	41.77	40.67	46.21	56.82	68.69	87.68	102.7	109.8	104.2	102.3	79.85	46.17	33.87	19.71	16.46	139.5	374.3	28.54	3.224	2.884	3.251	2.668	2.754	2.518	2.616	2.529	2.432	2.264	2.087	1.763	1.592	1.605	1.436	1.283	1.408	1.317	1.043	1.196	1.161	1.192	1.212	1.083	1.237	1.315	1.106	0.996	0.957	0.888	0.923	0.951	0.937	1.075	0.919	1.043	0.943	1.016	0.950	1.237	1.136	1.040	1.027	0.957	1.037	1.071	1.052	0.948	0.980	0.974	1.120	0.800	0.760	0.704	0.767
650.0	84.75	101.7	95.34	63.12	41.57	39.23	47.88	56.13	67.95	86.58	99.02	109.0	104.0	96.48	85.35	49.40	34.39	20.51	12.38	44.56	352.8	120.8	3.277	2.832	2.764	2.526	2.645	2.385	2.251	2.330	2.271	1.870	1.852	1.745	1.517	1.377	1.249	1.219	1.164	1.088	0.992	1.048	1.075	1.012	1.054	1.100	1.057	1.035	1.029	0.989	0.943	0.861	0.885	0.943	0.912	0.898	0.939	0.918	0.912	0.943	1.007	1.066	0.985	1.038	0.938	0.988	0.939	1.012	1.000	0.973	0.955	0.941	1.099	0.971	0.734	0.637	0.734
