Sample:	'1
File name:	G2025072101Ô£ÃñÂ·ÇÅ.FD3
Run date:	'10:03:03, 07/22/2025
Operator:	Administrator
Comment:	'

Instrument
Model:	F-2700 FL Spectrophotometer
Serial number:	23B8-004
ROM Version:	4J14000 07

Instrument parameters
Measurement type:	3-D scan
Data mode:	Fluorescence
EX  Start WL:	220.0 nm
EX  End WL:	600.0 nm
EX Sampling interval:	5.0 nm
EM  Start WL:	230.0 nm
EM  End WL:	650.0 nm
EM Sampling interval:	5.0 nm
Scan speed:	12000 nm/min
EX Slit:	5.0 nm
EM Slit:	5.0 nm
PMT Voltage:	700 V
Response:	Auto 
Corrected spectra:	Off
Contour interval:	50.000

Peak integration
Integration method:	Rectangular
Sensitivity:	1
Threshold:	1.000

Peaks
No.	ApexEX/EM(nm)	Height(Data)
1	225.0/560.0	103.6
2	225.0/610.0	67.19
3	230.0/345.0	1679
4	240.0/265.0	418.6
5	240.0/525.0	352.1
6	245.0/270.0	422.4
7	245.0/385.0	1906
8	245.0/535.0	289.6
9	250.0/275.0	550.3
10	250.0/545.0	234.0
11	255.0/280.0	634.9
12	255.0/560.0	198.6
13	260.0/290.0	646.4
14	260.0/575.0	151.0
15	265.0/295.0	849.3
16	265.0/585.0	133.3
17	270.0/300.0	1167
18	270.0/600.0	116.6
19	275.0/305.0	1176
20	275.0/610.0	96.89
21	280.0/315.0	1072
22	280.0/625.0	82.99
23	285.0/320.0	1095
24	285.0/635.0	62.10
25	290.0/325.0	971.7
26	305.0/345.0	669.6
27	315.0/355.0	581.4
28	320.0/365.0	599.8
29	335.0/385.0	632.2
30	440.0/520.0	38.32
31	460.0/345.0	4.771
32	485.0/265.0	2.151
33	495.0/270.0	2.282
34	500.0/385.0	7.531
35	505.0/275.0	3.320
36	510.0/280.0	3.635
37	515.0/285.0	3.743
38	525.0/290.0	3.740
39	540.0/295.0	4.989
40	545.0/300.0	5.545
41	550.0/305.0	5.961
42	560.0/310.0	5.065
43	570.0/315.0	5.191
44	575.0/320.0	5.165
45	585.0/325.0	5.192

Data points
	220.0	225.0	230.0	235.0	240.0	245.0	250.0	255.0	260.0	265.0	270.0	275.0	280.0	285.0	290.0	295.0	300.0	305.0	310.0	315.0	320.0	325.0	330.0	335.0	340.0	345.0	350.0	355.0	360.0	365.0	370.0	375.0	380.0	385.0	390.0	395.0	400.0	405.0	410.0	415.0	420.0	425.0	430.0	435.0	440.0	445.0	450.0	455.0	460.0	465.0	470.0	475.0	480.0	485.0	490.0	495.0	500.0	505.0	510.0	515.0	520.0	525.0	530.0	535.0	540.0	545.0	550.0	555.0	560.0	565.0	570.0	575.0	580.0	585.0	590.0	595.0	600.0
230.0	61.62	1258	3230	872.1	38.27	7.607	6.275	5.779	4.754	4.304	4.272	3.420	3.265	3.149	2.412	2.073	1.892	1.720	1.476	1.374	1.174	1.089	1.056	1.055	0.939	0.904	0.768	0.873	0.747	0.668	0.705	0.691	0.588	0.529	0.579	0.509	0.449	0.455	0.405	0.406	0.436	0.539	0.547	0.412	0.372	0.370	1.424	6.260	10.95	7.719	2.785	0.622	0.293	0.293	0.275	0.254	0.288	0.300	0.289	0.287	0.272	0.273	0.279	0.266	0.256	0.278	0.273	0.274	0.253	0.273	0.266	0.262	0.268	0.262	0.301	0.257	0.272
235.0	114.2	358.7	1992	3312	609.2	57.92	7.565	7.457	4.609	4.735	5.478	4.210	4.064	3.323	2.614	2.090	1.967	1.678	1.358	1.382	1.174	1.215	1.083	0.969	0.935	0.935	0.890	0.805	0.760	0.794	0.701	0.595	0.658	0.542	0.535	0.472	0.414	0.450	0.483	0.402	0.351	0.449	0.535	0.609	0.529	0.404	0.569	1.757	4.195	8.025	11.32	11.01	4.916	1.106	0.331	0.281	0.282	0.321	0.288	0.305	0.271	0.264	0.272	0.238	0.206	0.300	0.266	0.266	0.288	0.249	0.277	0.249	0.284	0.271	0.257	0.273	0.238
240.0	161.6	162.6	598.1	2831	3462	472.7	25.96	9.346	6.322	5.112	4.971	4.009	4.239	3.124	2.804	2.224	1.695	1.909	1.691	1.313	1.238	1.199	1.376	1.074	0.965	0.814	0.864	0.792	0.780	0.681	0.626	0.744	0.725	0.549	0.536	0.453	0.494	0.423	0.426	0.410	0.465	0.420	0.435	0.527	0.700	0.788	0.626	0.689	1.225	2.634	6.666	14.98	16.97	11.65	3.727	0.669	0.297	0.335	0.315	0.315	0.281	0.248	0.298	0.319	0.232	0.316	0.253	0.239	0.262	0.245	0.268	0.205	0.259	0.295	0.310	0.274	0.263
245.0	127.0	214.9	203.1	974.0	3898	3445	345.7	14.15	7.322	6.242	5.627	4.417	4.256	2.992	3.047	2.417	2.092	1.955	1.584	1.639	1.267	1.284	1.420	1.100	1.035	0.950	0.980	0.701	0.674	0.729	0.618	0.724	0.588	0.573	0.630	0.425	0.514	0.441	0.469	0.404	0.451	0.427	0.420	0.475	0.502	0.840	0.915	0.787	0.598	0.830	1.808	5.283	12.94	21.06	19.75	9.557	2.230	0.430	0.283	0.300	0.281	0.288	0.282	0.323	0.274	0.285	0.256	0.257	0.294	0.243	0.253	0.249	0.312	0.311	0.265	0.310	0.263
250.0	62.43	168.9	267.2	311.8	1286	3672	4249	1259	67.96	8.470	7.391	5.636	4.544	3.860	3.004	2.467	2.151	2.044	1.647	1.582	1.315	1.301	1.351	1.063	1.147	1.000	0.946	0.817	0.871	0.780	0.736	0.691	0.555	0.544	0.592	0.485	0.606	0.473	0.541	0.463	0.430	0.443	0.472	0.363	0.434	0.487	0.637	0.911	1.068	0.945	0.868	1.492	3.444	7.201	12.95	18.70	22.56	17.97	9.174	2.592	0.390	0.316	0.308	0.278	0.282	0.258	0.292	0.307	0.365	0.316	0.300	0.245	0.265	0.282	0.285	0.333	0.273
255.0	39.57	62.15	197.0	351.6	378.3	953.0	3785	6621	1681	59.07	9.170	6.943	5.544	4.390	3.575	2.753	2.551	2.041	1.834	1.600	1.378	1.209	1.313	1.151	0.964	1.136	0.894	1.015	0.915	0.892	0.745	0.658	0.618	0.645	0.568	0.462	0.451	0.531	0.435	0.472	0.485	0.403	0.470	0.384	0.402	0.450	0.410	0.477	0.633	1.032	1.360	1.452	1.288	1.916	3.183	4.635	9.613	21.64	34.76	27.69	13.85	2.572	0.477	0.296	0.345	0.294	0.290	0.306	0.312	0.325	0.368	0.294	0.265	0.313	0.321	0.297	0.295
260.0	36.82	38.64	87.71	325.4	346.9	272.9	1188	6044	7039	300.6	27.94	10.05	7.764	5.458	4.264	3.209	2.801	2.565	2.246	1.824	1.555	1.571	1.416	1.335	0.948	1.063	1.073	0.798	0.926	1.016	0.721	0.688	0.594	0.600	0.588	0.543	0.513	0.507	0.429	0.497	0.373	0.557	0.518	0.455	0.353	0.419	0.353	0.396	0.421	0.523	1.087	1.768	1.795	1.101	1.074	1.458	2.482	6.257	17.00	33.18	43.05	25.73	9.375	1.170	0.444	0.308	0.297	0.348	0.292	0.359	0.304	0.327	0.328	0.277	0.293	0.300	0.383
265.0	44.05	32.19	41.06	168.6	418.6	247.6	311.9	2159	8341	6395	236.2	16.40	9.234	6.582	5.169	3.980	3.179	2.531	2.635	2.001	1.506	1.713	1.315	1.488	1.052	1.044	1.011	0.891	0.899	0.976	0.765	0.795	0.761	0.692	0.602	0.541	0.529	0.458	0.499	0.438	0.478	0.466	0.392	0.480	0.420	0.400	0.314	0.393	0.352	0.343	0.549	1.169	2.024	2.151	1.485	0.732	0.957	1.747	4.247	10.74	26.34	44.81	33.50	21.26	5.081	0.563	0.371	0.298	0.337	0.332	0.293	0.314	0.317	0.333	0.350	0.340	0.395
270.0	71.60	60.43	50.98	66.96	213.0	422.4	304.7	545.2	2799	7604	8178	929.4	51.35	9.632	7.223	4.850	3.830	3.025	2.587	2.212	1.774	1.740	1.615	1.442	1.169	1.094	1.165	0.957	0.908	0.979	0.884	0.797	0.837	0.672	0.643	0.609	0.576	0.492	0.537	0.487	0.544	0.503	0.492	0.526	0.426	0.470	0.416	0.488	0.423	0.359	0.421	0.568	0.831	1.376	1.974	2.282	1.812	1.194	1.344	2.761	6.541	13.94	23.01	37.34	38.16	36.55	14.31	4.510	0.569	0.435	0.381	0.301	0.328	0.335	0.326	0.338	0.372
275.0	151.9	166.1	128.4	66.75	79.39	220.2	550.3	376.3	695.4	1981	7279	9999.9	1253	41.90	10.10	6.450	4.504	3.694	3.174	2.709	2.165	2.090	1.727	1.522	1.443	1.188	1.222	1.074	1.180	1.019	0.944	1.014	0.926	0.954	0.816	0.653	0.743	0.659	0.701	0.598	0.592	0.594	0.596	0.668	0.629	0.647	0.651	0.766	0.567	0.488	0.397	0.537	0.484	0.596	0.764	1.488	2.548	3.320	2.026	1.325	1.894	3.607	5.680	9.104	13.56	32.22	57.56	33.64	21.40	4.125	0.533	0.389	0.419	0.375	0.376	0.411	0.358
280.0	257.8	292.2	218.7	89.29	56.58	106.4	386.1	634.9	326.1	538.7	2244	9999.9	9999.9	174.9	20.61	8.600	5.691	4.586	3.470	2.764	2.387	2.246	1.623	1.676	1.271	1.216	1.319	1.187	1.082	0.955	0.958	0.958	0.998	0.972	0.882	0.894	0.782	0.731	0.841	0.725	0.655	0.757	0.745	0.743	0.821	0.842	0.856	1.054	0.796	0.666	0.521	0.490	0.484	0.556	0.589	0.767	1.254	2.443	3.635	2.870	1.592	1.376	1.806	2.698	3.717	8.778	22.65	44.13	66.22	31.51	15.01	1.681	0.469	0.402	0.367	0.371	0.347
285.0	356.4	408.8	304.2	129.9	69.81	80.36	187.2	621.1	400.6	284.1	648.5	3508	9999.9	7484	130.5	13.03	7.419	5.456	3.962	3.215	2.812	2.357	1.907	1.805	1.491	1.511	1.466	1.091	1.274	1.066	0.943	1.012	1.046	1.112	1.074	1.095	0.952	0.961	0.827	0.761	0.708	0.823	0.841	0.970	1.019	1.149	1.174	1.168	1.114	0.860	0.606	0.519	0.555	0.532	0.557	0.617	0.748	1.261	2.353	3.743	3.671	2.184	1.266	1.350	1.631	2.883	5.788	12.56	32.10	57.76	67.68	27.00	7.934	0.760	0.517	0.416	0.367
290.0	460.2	529.5	413.2	196.3	102.7	91.00	129.4	309.6	646.4	584.8	405.2	1003	3545	9681	8489	505.4	30.43	8.151	5.291	4.286	3.213	2.617	2.080	1.911	1.840	1.554	1.509	1.381	1.321	1.161	1.034	1.042	1.052	1.184	1.183	1.182	1.119	1.055	0.899	0.947	0.890	0.895	0.920	1.156	1.239	1.567	1.467	1.514	1.433	1.140	0.814	0.694	0.704	0.623	0.618	0.645	0.780	0.884	1.161	1.829	2.860	3.740	3.658	2.782	1.797	1.839	2.249	3.887	8.224	16.30	29.93	41.94	39.61	44.08	17.72	6.980	0.972
295.0	530.2	632.3	496.6	268.3	148.0	129.2	151.4	213.6	375.4	849.3	809.2	552.4	1027	2501	7582	7671	698.9	25.60	7.392	5.895	3.854	3.193	2.768	2.275	1.973	1.720	1.582	1.326	1.391	1.123	1.190	1.027	1.159	1.159	1.252	1.227	1.143	1.102	0.978	0.959	1.011	1.043	1.028	1.264	1.378	1.630	1.703	1.711	1.579	1.277	1.012	0.938	0.777	0.755	0.731	0.755	0.947	0.940	1.045	1.442	1.687	1.968	2.767	4.476	4.989	3.037	2.076	2.372	3.131	4.629	7.780	10.38	11.80	29.07	56.20	66.45	26.95
300.0	545.6	652.5	521.1	314.5	187.3	165.2	179.4	228.7	312.1	618.4	1167	714.3	547.8	756.0	2235	9479	6457	100.1	13.98	7.411	4.935	3.831	3.088	2.234	2.117	1.953	1.652	1.432	1.318	1.372	1.320	1.222	1.179	1.341	1.340	1.341	1.190	1.248	0.988	1.011	1.071	1.091	1.044	1.209	1.395	1.589	1.779	1.974	1.534	1.366	1.114	1.062	0.839	0.841	1.034	0.840	1.022	1.067	1.201	1.285	1.440	1.678	1.898	3.056	4.786	5.545	4.401	2.770	2.358	2.489	3.014	3.333	3.643	7.638	18.75	44.30	69.94
305.0	567.0	672.2	558.7	355.2	227.5	206.4	222.6	276.2	352.6	514.0	999.5	1176	589.8	432.7	655.4	3185	9999.9	5094	78.17	9.858	6.849	4.528	3.567	2.884	2.595	2.157	1.864	1.727	1.505	1.411	1.381	1.086	1.239	1.398	1.365	1.369	1.200	1.188	1.255	1.082	1.125	1.146	1.227	1.240	1.359	1.533	1.803	2.029	1.926	1.448	1.327	1.254	1.040	0.971	1.247	1.040	1.244	1.293	1.424	1.496	1.649	1.615	1.957	2.398	3.002	4.457	5.961	5.171	2.987	2.397	2.121	2.049	2.025	2.746	5.015	11.58	27.61
310.0	546.7	671.5	603.7	402.1	276.0	257.0	282.4	344.4	417.5	544.5	767.8	1123	1067	544.3	369.6	848.1	3272	7763	6865	337.9	22.91	6.570	4.678	3.467	2.827	2.539	2.104	2.076	1.675	1.562	1.380	1.310	1.329	1.332	1.379	1.306	1.330	1.254	1.138	1.106	1.042	1.102	1.169	1.259	1.461	1.684	1.785	2.102	1.981	1.609	1.374	1.372	1.271	1.195	1.293	1.250	1.411	1.527	1.657	1.737	1.938	2.028	2.166	2.630	2.774	3.262	4.030	4.715	5.065	4.789	3.486	2.415	1.922	1.870	2.230	3.582	7.050
315.0	547.2	692.2	628.4	450.4	317.5	297.1	349.8	405.6	479.5	595.6	735.6	884.2	1072	980.3	431.2	368.6	850.5	1935	6033	8867	512.0	20.72	6.952	4.803	3.918	3.101	2.385	2.104	1.784	1.755	1.573	1.475	1.258	1.431	1.380	1.332	1.189	1.205	1.151	1.030	0.964	1.012	1.218	1.308	1.477	1.654	1.793	2.105	2.076	1.630	1.485	1.585	1.394	1.473	1.584	1.445	1.637	1.752	1.854	1.896	2.165	2.386	2.556	2.912	2.893	3.310	3.337	3.827	3.845	4.602	5.191	4.788	3.086	2.052	1.687	1.806	2.623
320.0	614.6	780.1	748.8	512.8	359.4	342.8	388.4	448.2	537.4	654.2	780.3	864.4	920.8	1095	710.7	318.3	342.0	534.7	1703	7816	4650	390.4	12.33	6.092	5.062	3.312	2.618	2.261	2.097	1.636	1.580	1.470	1.269	1.461	1.463	1.292	1.285	1.201	1.209	1.155	1.021	1.232	1.301	1.295	1.691	1.899	2.084	2.426	2.378	1.944	1.753	1.737	1.699	1.622	1.645	1.643	1.791	1.863	2.095	2.187	2.439	2.387	2.644	3.000	2.982	3.312	3.328	3.467	3.800	3.764	4.448	5.165	4.836	3.480	2.195	1.855	1.822
325.0	719.5	989.9	1050	684.4	454.3	384.5	419.8	488.1	582.9	710.7	835.0	927.7	906.9	944.0	971.7	472.5	275.5	251.8	467.4	2454	8027	4030	61.80	8.712	5.937	4.295	3.035	2.468	2.422	2.159	1.653	1.575	1.459	1.405	1.317	1.307	1.352	1.331	1.198	1.196	1.263	1.266	1.388	1.391	1.872	2.232	2.487	3.182	2.949	2.645	2.167	2.087	1.964	1.893	1.727	1.775	1.916	2.266	2.229	2.312	2.646	2.383	2.960	3.293	3.401	3.431	3.619	3.523	3.898	3.801	4.021	3.775	4.583	5.192	4.109	2.560	1.838
330.0	836.9	1204	1320	968.9	617.0	476.4	480.9	551.9	639.0	769.7	908.1	998.2	977.1	893.3	861.2	763.3	433.0	243.4	230.0	637.7	2501	5874	5587	1169	21.10	5.847	4.244	2.853	2.696	2.214	1.768	1.862	1.558	1.410	1.415	1.335	1.558	1.419	1.221	1.224	1.245	1.333	1.470	1.661	1.982	2.498	2.899	3.685	3.725	3.374	2.934	3.120	2.468	2.230	2.070	2.137	2.087	2.350	2.365	2.562	2.800	2.854	3.138	3.250	3.557	3.958	4.127	3.954	4.205	4.231	4.052	3.919	3.933	4.186	4.274	4.279	3.731
335.0	914.0	1324	1566	1189	810.9	598.0	569.8	624.5	704.9	830.5	969.5	1053	1044	939.8	788.6	705.1	710.2	372.9	225.1	266.7	646.8	1458	4680	7750	439.1	20.60	5.924	4.073	3.231	2.874	2.139	2.079	1.685	1.556	1.449	1.417	1.443	1.414	1.294	1.212	1.357	1.377	1.452	1.944	2.090	2.850	3.126	4.186	4.339	3.912	3.654	3.697	3.114	2.733	2.516	2.360	2.514	2.687	2.644	2.876	3.024	3.089	3.422	3.441	3.887	4.176	4.376	4.465	4.305	4.472	4.263	4.236	3.888	3.720	3.592	3.418	3.921
340.0	947.8	1450	1656	1311	946.1	725.8	656.3	696.2	775.5	881.1	1003	1085	1083	989.0	812.3	648.3	698.2	587.9	285.8	214.6	261.1	413.2	1322	6329	6649	356.7	11.98	5.201	4.110	2.946	2.580	2.145	1.772	1.861	1.581	1.480	1.356	1.364	1.191	1.327	1.251	1.451	1.405	1.923	2.166	2.850	3.420	4.352	4.635	4.277	4.182	4.430	3.555	3.415	2.746	2.807	2.859	3.092	2.853	3.083	3.454	3.345	3.398	3.618	4.123	4.079	4.301	4.543	4.556	4.604	4.442	4.361	3.975	3.827	3.806	3.283	3.568
345.0	954.0	1420	1679	1442	1108	850.6	764.6	763.9	842.9	926.3	1042	1109	1110	1017	850.4	669.2	600.3	669.6	446.8	244.8	205.2	205.1	379.4	1944	7225	3472	54.53	8.249	4.897	3.588	2.885	2.362	1.935	1.818	1.620	1.553	1.512	1.439	1.379	1.257	1.228	1.394	1.471	1.781	2.276	2.812	3.345	4.200	4.771	4.414	4.242	4.583	4.035	3.871	3.557	3.079	3.297	3.318	3.369	3.405	3.757	3.686	3.847	4.088	4.312	4.064	4.321	4.371	4.303	4.450	4.466	4.674	4.412	4.133	3.970	3.492	3.555
350.0	960.7	1378	1638	1519	1260	1052	952.1	932.3	979.1	1021	1107	1152	1137	1056	906.0	727.3	609.2	579.2	587.0	416.7	258.3	204.6	207.0	525.0	2164	4651	4649	1137	19.78	5.362	3.592	2.836	2.323	1.892	1.682	1.653	1.563	1.311	1.385	1.228	1.305	1.393	1.507	1.687	2.305	2.694	3.255	4.163	4.651	4.517	4.483	5.079	4.687	4.398	4.013	3.975	4.035	4.086	4.053	4.011	4.086	4.049	4.406	4.536	4.438	4.492	4.653	4.515	4.616	4.675	4.673	4.681	4.478	4.524	3.983	3.764	3.709
355.0	916.0	1343	1619	1578	1411	1294	1211	1184	1205	1200	1231	1232	1184	1120	985.5	808.8	674.9	588.2	545.8	581.4	412.4	264.7	219.5	249.8	579.9	1149	3372	6528	411.0	23.42	5.050	3.409	2.972	2.058	1.897	1.705	1.481	1.293	1.396	1.328	1.422	1.510	1.670	1.728	2.309	2.823	3.034	3.807	4.518	4.707	4.669	5.328	5.105	4.888	4.809	4.943	5.027	5.204	5.312	4.945	5.148	4.806	5.079	5.013	4.966	4.856	4.981	4.609	4.727	4.805	4.721	4.680	4.859	4.879	4.215	4.047	3.932
360.0	919.3	1289	1595	1598	1535	1474	1402	1369	1382	1362	1334	1301	1242	1155	1031	862.3	736.2	635.6	552.7	566.2	566.7	363.9	258.2	222.5	256.4	344.8	926.0	4719	5903	361.5	13.54	4.750	3.418	2.446	2.179	1.944	1.749	1.486	1.470	1.372	1.267	1.445	1.686	1.861	2.101	2.815	3.117	3.866	4.409	4.540	4.635	5.554	5.421	5.256	5.322	5.439	5.881	5.673	5.542	5.692	6.065	5.643	5.665	5.674	5.218	5.299	5.428	4.846	4.830	5.010	5.097	4.951	4.859	4.756	4.568	4.309	4.191
365.0	882.8	1287	1555	1645	1617	1577	1516	1495	1506	1495	1443	1358	1289	1189	1061	911.6	783.7	685.8	591.0	544.5	599.8	513.8	324.2	252.6	213.8	191.8	286.9	1371	5602	3302	52.76	8.484	4.475	3.358	2.505	2.200	1.761	1.524	1.687	1.243	1.297	1.623	1.676	1.944	2.367	2.650	2.976	3.795	4.239	4.318	4.739	5.604	5.807	5.840	5.600	6.050	6.201	6.396	6.211	6.139	6.047	6.175	6.324	5.982	5.865	5.635	5.231	5.222	5.033	5.054	5.205	5.145	5.245	5.015	4.833	4.626	4.406
370.0	878.6	1267	1516	1661	1696	1692	1660	1647	1631	1617	1562	1463	1340	1224	1102	957.8	849.0	747.2	659.0	590.6	565.9	589.9	489.6	340.4	262.1	207.5	179.5	386.4	1600	3973	4299	1134	19.50	4.732	3.139	2.515	2.002	1.769	1.607	1.441	1.541	1.679	1.799	1.915	2.140	2.566	3.185	3.967	4.059	4.181	4.571	5.930	5.985	6.140	6.299	6.436	6.408	6.673	6.819	6.783	6.395	6.685	6.687	6.366	6.425	6.087	5.677	5.551	5.555	5.526	5.195	5.549	5.408	5.274	5.243	4.926	4.759
375.0	891.7	1213	1481	1671	1751	1772	1758	1747	1740	1694	1644	1540	1406	1264	1139	999.2	907.1	812.4	728.2	653.8	607.2	585.9	610.3	511.0	356.9	276.4	205.9	203.7	434.4	967.5	2822	5901	1560	22.58	4.859	3.130	2.315	2.056	1.936	1.699	1.638	1.604	1.812	1.877	2.266	2.737	3.131	3.854	3.976	4.424	4.720	6.043	6.135	6.581	6.537	6.868	6.730	7.162	6.820	6.846	6.808	6.896	7.070	6.901	6.984	6.205	6.493	6.097	5.857	5.906	5.467	5.700	5.287	5.093	5.345	5.473	5.116
380.0	845.9	1194	1475	1650	1810	1847	1845	1795	1777	1752	1696	1599	1438	1286	1149	1026	935.6	849.3	775.9	708.3	657.1	614.9	613.5	628.8	471.6	345.9	255.3	196.1	199.8	285.4	758.5	3976	5343	313.0	13.35	4.117	2.910	2.392	2.083	1.939	1.728	1.585	1.770	1.921	2.228	2.745	2.849	3.565	4.049	4.177	4.911	6.030	6.243	6.869	6.909	6.808	7.128	7.033	7.420	7.227	7.242	7.002	7.176	6.995	7.045	6.810	6.354	6.333	5.979	6.183	5.306	5.534	5.444	5.424	5.143	5.282	5.187
385.0	841.8	1198	1461	1678	1802	1906	1866	1800	1785	1752	1709	1588	1454	1290	1147	1033	941.6	872.0	803.6	743.7	696.7	648.7	612.9	632.2	586.9	415.3	302.5	223.1	172.8	151.8	229.0	1116	4486	2763	240.8	7.435	4.123	3.128	2.290	1.956	1.770	1.706	1.919	1.932	2.310	2.831	3.050	3.321	4.127	4.087	4.491	6.007	6.554	6.883	6.820	7.016	7.531	7.307	7.453	7.385	7.224	7.221	7.114	7.295	6.675	6.752	6.575	6.188	6.023	5.929	5.573	5.692	5.630	5.667	5.122	5.424	4.826
390.0	829.6	1138	1408	1611	1739	1845	1839	1806	1777	1733	1676	1571	1442	1282	1135	1028	950.3	885.3	820.3	770.6	726.4	684.7	637.4	610.4	613.5	532.9	374.4	269.1	202.5	154.7	134.6	306.7	1241	2974	3383	918.3	17.02	4.114	2.789	2.291	1.916	1.809	1.881	1.936	2.253	2.766	3.084	3.708	3.850	4.066	4.505	5.597	6.380	6.698	6.695	6.871	7.444	7.069	7.330	7.249	7.168	7.141	6.829	6.960	6.885	6.383	6.181	6.109	6.161	5.762	5.501	5.442	5.478	5.462	5.196	5.193	4.994
395.0	792.1	1118	1368	1544	1714	1788	1781	1766	1732	1711	1635	1547	1415	1250	1118	1020	951.7	890.7	832.8	789.9	748.4	717.0	669.1	631.2	592.0	580.5	490.8	334.2	251.2	191.0	143.2	149.4	330.7	719.8	2097	4326	1276	19.51	4.110	2.917	2.137	1.947	2.006	2.185	2.303	2.717	2.958	3.562	3.770	3.939	4.503	5.651	5.999	6.788	6.809	6.892	6.999	7.271	7.033	6.754	6.992	6.822	6.638	6.572	6.550	6.438	6.063	6.037	5.846	5.815	5.383	5.483	5.652	5.498	5.081	5.273	5.119
400.0	797.7	1116	1320	1501	1652	1752	1751	1716	1694	1653	1589	1514	1389	1229	1108	1001	934.6	885.3	841.8	797.1	761.8	729.8	692.1	651.9	598.4	566.6	543.6	410.9	292.0	224.6	167.0	132.8	143.3	207.9	559.6	2818	3971	268.3	11.54	3.594	2.584	2.117	2.174	2.186	2.351	2.564	2.882	3.575	3.828	3.844	4.205	5.184	5.596	6.275	6.540	6.447	7.096	7.180	7.233	6.654	7.044	6.717	6.502	6.452	6.777	6.031	5.990	5.991	5.967	5.492	5.236	5.261	5.066	5.421	4.960	5.332	5.055
405.0	761.1	1053	1292	1458	1611	1683	1708	1665	1639	1619	1541	1468	1341	1202	1080	986.6	921.4	874.6	834.8	792.3	763.3	732.3	696.4	660.4	615.1	559.6	538.3	484.7	344.2	256.4	197.4	148.7	118.6	106.3	167.6	791.3	3254	2356	206.6	6.241	3.152	2.563	2.310	2.112	2.285	2.554	2.942	3.360	3.685	3.711	4.171	5.144	5.439	6.169	6.356	6.463	6.927	6.987	6.944	6.664	6.547	6.651	6.636	6.604	6.379	6.076	5.808	5.871	5.529	5.524	5.223	5.279	5.095	5.132	4.820	4.695	4.917
410.0	756.1	1029	1236	1384	1549	1610	1643	1608	1580	1548	1483	1410	1290	1156	1043	953.2	888.5	849.1	812.7	774.1	750.0	726.6	696.8	656.5	620.3	566.1	513.6	487.9	429.7	315.1	233.8	178.0	134.4	101.9	94.15	216.9	896.7	2246	2587	775.3	14.74	3.613	2.552	2.479	2.480	2.532	2.793	3.378	3.762	3.794	4.031	5.127	5.398	5.853	5.799	6.201	6.456	6.571	6.436	6.375	6.393	6.285	6.250	6.308	5.956	6.024	5.500	5.413	5.543	5.215	5.308	5.087	4.954	4.972	4.686	4.716	4.620
415.0	756.2	973.0	1168	1318	1424	1526	1536	1536	1514	1459	1408	1326	1221	1108	989.8	914.8	852.4	815.2	783.2	754.7	726.1	708.4	680.3	650.0	614.0	565.9	508.4	457.8	445.2	391.4	277.9	207.7	156.8	117.5	90.51	98.82	235.1	539.2	1523	3163	274.4	16.70	3.438	2.849	2.700	2.525	2.777	3.352	3.603	3.577	3.817	4.852	4.905	5.424	5.617	5.636	6.315	6.731	6.131	6.265	6.198	5.983	5.984	5.686	5.708	5.588	5.138	5.002	5.160	4.719	4.983	4.736	4.729	4.617	4.580	4.603	4.508
420.0	709.2	928.7	1128	1262	1372	1459	1485	1480	1459	1421	1373	1276	1173	1059	955.7	880.1	817.7	782.7	756.3	725.7	705.0	687.4	668.1	642.8	609.3	561.2	504.1	458.3	422.9	415.3	327.6	230.0	173.8	132.9	98.70	80.50	94.06	148.3	401.8	2061	2240	237.7	8.658	3.319	2.823	2.641	2.715	3.245	3.466	3.562	3.746	4.782	4.967	5.222	5.212	5.724	5.953	6.120	5.799	5.932	6.053	6.064	5.751	5.704	5.173	5.328	4.846	5.128	5.004	4.889	4.683	4.941	4.673	4.515	4.740	4.220	4.300
425.0	674.7	931.8	1079	1219	1312	1384	1423	1435	1420	1373	1326	1235	1122	1018	920.8	839.6	790.9	761.8	727.7	705.6	681.2	667.9	648.6	630.2	599.1	558.6	507.1	461.6	413.5	399.7	371.9	264.1	190.5	144.5	110.2	83.06	68.47	66.83	112.7	575.3	2224	2081	36.28	5.118	3.378	2.804	3.059	3.249	3.447	3.274	3.506	4.433	4.835	4.685	4.997	5.300	5.683	5.559	5.686	5.753	6.003	5.742	5.588	5.451	5.351	5.482	4.760	4.857	4.880	4.726	4.357	4.516	4.216	4.456	4.634	4.113	4.165
430.0	743.0	882.3	1051	1151	1244	1311	1369	1377	1369	1332	1274	1184	1078	976.6	878.2	804.3	759.3	724.8	690.9	675.7	657.7	644.4	628.7	612.5	586.0	548.9	508.9	465.1	422.4	388.7	369.3	317.7	225.4	167.2	128.5	98.76	74.26	56.77	54.61	149.6	621.2	1752	2043	614.5	13.23	3.710	3.295	3.219	3.448	3.174	3.392	4.241	4.474	4.756	4.801	4.968	5.784	5.676	5.610	5.751	5.692	5.515	5.324	5.399	5.250	4.972	4.874	4.898	4.671	4.305	4.297	4.422	4.147	4.165	4.087	3.943	4.005
435.0	1247	817.8	988.1	1084	1182	1261	1311	1338	1327	1292	1235	1150	1039	938.3	833.6	763.7	713.7	688.2	663.0	649.5	632.5	620.4	606.9	594.9	570.7	544.6	502.5	467.9	431.1	393.1	355.8	329.0	279.3	198.7	147.9	114.1	87.75	64.46	50.36	60.28	158.3	417.0	1252	2613	252.8	15.10	3.686	3.458	3.392	3.171	3.345	4.195	4.316	4.767	4.608	4.884	5.332	5.190	5.435	5.664	5.360	5.468	5.031	5.266	5.221	4.640	4.624	4.591	4.482	4.311	4.279	3.919	4.150	4.154	3.808	4.061	3.857
440.0	1676	931.6	951.0	1058	1139	1225	1267	1292	1295	1260	1201	1113	1000	898.7	808.5	737.2	690.7	661.3	639.3	623.4	609.2	600.8	587.5	578.0	557.0	535.0	502.6	468.0	436.9	399.2	356.4	316.2	300.1	230.8	163.2	126.7	98.81	73.80	55.79	46.14	59.12	110.8	335.9	1816	2061	212.3	7.966	4.066	3.743	3.507	3.365	4.067	4.187	4.679	4.687	4.910	5.169	5.386	5.327	5.334	5.456	5.260	5.134	5.185	4.796	4.523	4.463	4.445	4.138	4.147	4.254	3.933	3.886	3.784	3.858	3.782	3.843
445.0	1868	1330	907.5	1012	1082	1157	1212	1256	1253	1224	1173	1078	969.7	868.6	775.6	708.9	665.2	640.9	615.8	598.1	590.6	579.2	567.5	556.3	541.4	517.9	490.3	458.9	433.5	403.2	353.4	309.5	289.1	256.3	184.0	135.7	106.5	81.96	62.57	47.92	41.02	44.91	91.53	522.7	2080	1843	30.60	5.871	3.982	3.463	3.353	4.048	4.058	4.309	4.519	4.601	4.833	5.066	5.209	5.109	5.499	5.239	5.070	4.999	4.729	4.631	4.626	4.160	3.925	4.011	3.909	3.803	3.784	3.671	3.689	3.529	3.823
450.0	1222	2194	1064	948.0	994.6	1081	1148	1188	1181	1155	1110	1023	914.1	818.0	731.2	664.5	620.7	598.8	572.5	558.3	548.0	539.8	533.7	522.3	510.8	488.9	466.1	442.5	416.8	392.0	354.9	307.9	269.9	247.7	212.3	155.0	116.3	90.03	69.56	53.93	43.03	35.95	39.79	131.8	589.3	1604	1797	529.0	11.89	3.986	3.405	4.264	4.038	4.047	4.091	4.428	4.640	4.835	4.942	4.977	5.105	4.858	4.822	4.721	4.489	4.472	4.124	4.091	3.796	3.789	3.677	3.688	3.506	3.463	3.341	3.364	3.583
455.0	647.7	2191	1951	865.7	916.4	1005	1047	1094	1097	1063	1017	945.1	854.2	758.9	679.1	607.8	564.2	543.0	524.3	509.5	498.6	494.9	489.6	480.8	472.5	455.3	433.5	414.9	395.1	374.9	345.5	298.2	261.7	227.6	210.9	181.5	130.4	97.28	77.44	61.32	48.18	39.09	32.21	47.59	145.6	381.3	1052	2161	210.0	12.90	4.008	3.973	4.099	3.940	3.929	4.147	4.378	4.484	4.624	4.675	4.535	4.634	4.456	4.417	4.307	4.291	3.997	3.809	3.597	3.443	3.385	3.160	3.271	3.333	3.121	3.102	3.405
460.0	471.0	1434	2806	983.1	855.0	938.6	993.6	1031	1049	1015	977.8	889.5	799.2	715.1	636.7	567.3	533.2	504.6	483.9	472.1	463.6	462.7	455.5	449.2	439.4	427.1	411.1	393.6	377.6	359.9	332.2	287.9	253.1	217.2	193.7	183.6	146.3	103.3	80.63	66.10	52.13	41.51	32.98	31.00	47.88	98.29	275.5	1421	1692	168.6	8.220	4.372	4.051	3.893	3.794	3.891	4.287	4.312	4.291	4.257	4.373	4.267	4.409	4.119	4.087	4.012	3.819	3.562	3.403	3.524	3.189	3.089	2.855	3.216	2.959	3.025	2.940
465.0	419.9	843.6	2960	1550	804.1	868.9	918.3	965.2	976.7	968.5	919.8	839.1	752.2	668.6	598.9	535.6	493.3	469.8	452.4	443.0	430.3	433.3	426.7	418.3	410.6	397.7	384.4	372.3	359.2	340.4	318.5	279.4	243.6	210.5	182.6	171.6	155.7	113.2	82.44	67.91	55.74	45.12	35.18	28.98	28.40	36.20	73.01	402.4	1609	1401	132.8	6.026	4.301	3.815	3.791	3.776	4.135	4.049	4.064	4.083	4.168	4.288	4.012	3.842	3.951	3.854	3.801	3.350	3.351	3.375	3.040	2.888	2.855	3.026	2.811	2.853	2.636
470.0	407.9	578.5	1792	2739	973.9	788.0	831.2	869.5	888.2	878.9	839.4	771.4	688.6	607.8	536.5	484.4	443.8	425.2	405.9	395.2	385.2	382.2	380.2	374.0	367.8	357.9	344.7	337.1	328.1	315.5	292.1	260.8	228.7	200.0	170.2	151.2	141.9	123.3	91.54	70.50	57.67	47.20	37.80	30.99	25.80	23.56	28.41	99.83	449.6	1146	1290	423.4	11.93	4.068	3.797	3.593	3.975	3.661	3.822	3.735	3.802	3.768	3.648	3.740	3.584	3.517	3.359	2.955	3.141	3.030	2.883	2.859	2.703	2.681	2.537	2.601	2.546
475.0	393.5	476.6	860.2	2684	1916	718.8	746.7	791.5	800.0	798.6	757.1	702.0	627.5	545.7	479.1	425.5	397.2	378.7	359.1	349.2	338.0	333.7	333.7	330.6	321.9	316.6	307.0	302.7	295.8	284.9	269.1	240.0	210.8	184.8	159.5	139.1	123.4	118.5	102.1	74.88	57.65	48.42	39.21	33.44	26.83	22.26	19.61	33.11	109.3	268.5	666.8	1437	212.9	14.04	4.063	3.460	3.600	3.514	3.769	3.293	3.478	3.350	3.391	3.273	3.392	3.104	3.199	2.840	2.617	2.767	2.653	2.483	2.309	2.444	2.449	2.365	2.326
480.0	391.0	443.9	559.7	1709	2894	848.2	681.7	738.5	749.8	730.1	687.5	646.7	578.1	504.3	449.3	395.1	368.4	344.7	334.4	318.4	311.2	308.2	305.2	303.9	296.0	290.1	283.4	277.6	276.1	263.8	248.5	224.8	197.9	172.3	150.1	130.5	114.3	105.0	103.8	82.66	60.22	48.35	40.50	33.79	28.18	23.54	19.58	19.54	34.25	67.75	170.5	850.4	1332	190.7	8.165	3.879	3.635	3.495	3.240	3.163	3.307	3.479	3.098	2.990	3.148	3.107	2.736	2.638	2.681	2.511	2.465	2.477	2.283	2.236	2.183	2.050	2.171
485.0	345.2	444.8	466.5	929.5	3100	1425	647.8	691.0	697.5	683.3	660.2	606.5	538.1	473.5	420.3	369.9	337.9	323.2	308.1	299.8	288.1	285.2	282.8	279.1	277.2	269.7	261.5	260.6	254.4	247.0	233.3	210.2	188.6	164.2	144.8	126.6	109.6	96.20	95.00	86.90	65.82	49.80	41.82	34.84	29.80	24.68	20.93	16.94	18.03	23.77	45.59	235.1	1085	1214	30.20	5.313	4.033	3.482	3.145	3.131	3.351	3.188	2.791	2.960	2.830	2.893	2.765	2.429	2.566	2.215	2.348	2.273	2.257	2.079	2.069	2.005	2.223
490.0	289.9	440.9	447.6	575.2	1892	2685	809.9	629.0	641.7	628.6	606.2	556.2	498.3	436.3	384.1	337.0	311.8	291.2	280.5	268.9	261.9	258.1	255.4	250.6	249.1	242.6	238.5	235.2	232.7	225.9	214.1	194.8	175.3	154.6	136.5	119.8	105.0	91.25	83.71	81.25	73.30	54.67	43.09	36.12	31.13	26.15	22.46	17.88	16.25	14.99	18.40	59.82	293.3	833.9	1088	411.6	13.38	3.783	3.194	3.020	3.094	2.977	2.685	2.744	2.799	2.719	2.506	2.317	2.317	2.189	2.116	2.117	2.102	1.983	1.882	1.818	1.993
495.0	243.0	385.6	437.6	455.7	844.3	2721	1686	572.4	582.0	575.7	543.3	509.3	451.9	396.1	347.6	302.0	278.5	262.7	248.4	238.1	233.0	229.1	226.3	221.4	220.0	216.6	212.4	209.2	206.8	205.8	193.1	177.9	160.4	141.3	126.1	111.6	98.36	85.91	77.45	70.46	70.65	62.36	45.72	36.87	31.93	27.48	22.89	19.50	16.88	14.06	13.06	21.33	72.11	195.7	573.3	1350	238.0	16.13	3.539	2.984	2.929	2.800	2.784	2.626	2.330	2.630	2.267	2.196	2.166	2.062	2.022	1.911	2.104	1.707	1.855	1.540	1.674
500.0	204.4	327.8	436.5	410.0	523.8	1775	2706	653.2	530.2	530.2	510.4	470.4	417.4	366.8	318.8	281.8	255.3	242.2	225.6	217.5	215.7	210.7	204.8	202.9	198.3	197.0	195.0	193.3	191.3	188.9	179.4	163.4	147.3	131.3	116.9	102.4	92.61	81.75	73.64	65.85	62.99	63.48	49.49	38.25	32.38	27.87	23.54	20.57	18.05	14.17	12.80	13.08	23.16	50.18	145.4	761.1	1283	210.3	9.054	3.254	2.886	2.768	2.468	2.434	2.420	2.210	2.194	2.254	2.065	1.824	1.830	1.790	1.812	1.835	1.642	1.648	1.595
505.0	178.0	277.5	431.2	386.8	402.8	929.4	3094	1127	495.4	480.8	473.0	437.1	379.3	332.7	295.0	261.4	234.0	219.4	207.4	197.4	192.9	190.0	186.6	186.1	181.6	179.7	178.2	176.9	175.5	170.8	164.1	149.6	134.5	122.3	109.0	96.20	87.01	78.46	69.64	62.13	55.91	57.92	53.11	40.27	32.51	27.55	23.99	20.74	17.97	15.32	12.99	11.46	12.89	17.87	38.38	203.4	928.5	1147	161.5	5.051	2.736	2.714	2.527	2.292	2.270	2.010	2.115	2.132	1.772	1.699	1.787	1.616	1.735	1.718	1.734	1.539	1.408
510.0	174.1	235.0	350.1	396.5	346.9	499.0	1962	2445	585.8	437.9	413.3	387.4	340.3	294.5	259.4	227.7	207.6	194.5	183.7	176.4	170.6	166.7	164.6	162.3	158.5	158.0	154.4	154.3	152.4	149.8	144.7	134.4	121.5	109.1	98.00	87.64	78.82	71.01	64.23	57.10	51.71	48.32	48.79	44.16	33.98	27.53	24.06	20.55	17.96	15.50	13.50	11.91	10.75	11.11	15.02	51.06	243.8	705.3	936.0	345.2	13.08	2.979	2.418	2.340	2.174	2.052	1.828	1.744	1.572	1.686	1.640	1.513	1.558	1.505	1.455	1.370	1.290
515.0	163.9	207.4	265.7	376.1	328.8	348.0	783.8	2815	1376	390.9	362.7	338.7	297.6	260.9	226.7	200.6	181.0	167.4	159.1	153.6	146.4	143.2	140.8	140.0	139.1	135.3	132.4	130.9	133.1	131.2	125.3	115.9	106.2	95.74	86.41	78.06	70.92	62.85	57.26	52.50	46.55	42.28	40.92	42.24	38.07	28.37	23.98	20.01	17.79	15.46	13.51	12.52	10.44	9.647	9.922	16.93	59.37	163.3	403.6	990.6	241.7	16.16	2.591	2.269	2.033	1.931	1.601	1.608	1.567	1.415	1.352	1.329	1.355	1.376	1.407	1.198	1.123
520.0	142.1	189.1	217.8	324.5	340.1	298.7	410.7	1883	2507	462.2	332.3	300.7	270.2	235.8	205.4	179.4	164.1	150.3	142.6	136.4	131.5	128.0	127.9	123.9	123.0	120.7	120.0	118.2	119.2	116.2	112.0	104.0	94.96	86.31	78.29	70.96	64.53	57.72	52.25	48.56	43.15	39.33	37.06	36.56	38.32	31.09	23.65	19.60	17.49	15.00	12.98	12.65	11.10	9.603	8.793	9.670	18.12	41.01	98.85	495.5	939.5	212.6	9.508	2.220	2.216	1.914	1.566	1.666	1.424	1.238	1.292	1.426	1.182	1.173	1.384	1.093	1.071
525.0	126.8	174.2	201.1	264.0	352.1	281.4	303.5	897.6	3117	916.5	307.5	272.0	245.5	211.8	185.0	164.0	148.1	137.9	129.6	123.4	118.0	115.4	112.5	112.2	110.0	109.1	107.4	107.3	106.3	104.2	101.2	94.94	86.77	78.41	71.86	64.67	58.70	54.19	48.35	46.07	39.82	35.98	33.26	31.77	34.80	32.46	24.52	19.31	17.30	14.73	13.00	12.08	10.99	9.717	8.406	7.660	9.496	13.58	26.06	125.8	577.8	846.7	166.9	4.524	2.054	1.829	1.539	1.409	1.333	1.285	1.346	1.289	1.216	1.208	1.205	1.128	1.022
530.0	115.5	151.0	177.2	205.5	311.8	281.6	255.4	405.9	2000	2307	411.5	244.2	215.2	187.3	163.2	146.2	129.6	120.7	113.1	106.6	103.8	100.6	97.77	97.57	95.72	94.15	92.53	93.31	91.85	91.73	87.93	81.90	75.36	68.86	63.04	57.64	52.17	47.69	43.25	40.70	36.06	32.89	29.68	27.94	28.16	29.44	25.89	19.98	16.17	14.13	12.46	11.59	10.25	9.440	8.305	7.328	7.018	7.478	9.774	31.70	145.3	442.4	647.9	282.9	13.71	2.004	1.629	1.419	1.267	1.199	1.186	1.075	1.065	1.033	1.054	1.024	0.958
535.0	108.3	133.8	149.7	164.1	228.8	289.6	224.0	255.9	709.9	2788	1186	215.4	184.1	158.2	142.6	123.0	111.9	103.7	97.41	90.66	89.55	86.40	81.48	82.39	82.44	78.66	78.96	78.90	77.20	77.34	75.04	70.87	64.33	58.97	54.21	49.40	44.66	41.40	37.57	34.69	31.37	29.62	27.10	24.99	23.48	23.14	24.52	21.40	16.20	13.10	11.80	10.56	9.299	8.877	8.349	7.236	6.692	6.238	5.733	10.60	35.17	101.7	231.6	647.9	247.5	18.29	1.644	1.314	1.176	1.044	1.103	1.015	0.934	0.896	0.901	0.837	0.848
540.0	94.86	119.6	128.4	144.5	175.9	268.9	215.5	203.8	321.6	1808	2226	255.2	165.5	144.7	127.8	108.4	100.1	92.10	85.59	81.39	77.18	76.75	71.65	74.28	71.65	69.25	70.08	67.93	68.12	68.45	65.80	61.79	57.26	51.62	48.47	43.43	40.48	36.89	33.63	30.91	28.28	26.69	24.77	22.60	20.91	19.76	21.36	21.23	16.94	12.82	11.21	10.10	8.676	8.166	8.051	7.367	6.330	5.805	5.385	5.775	11.03	25.46	55.48	275.3	642.1	215.6	11.05	1.267	1.192	0.932	1.014	0.927	0.820	0.906	0.915	0.789	0.745
545.0	90.74	109.0	127.5	123.2	147.8	225.0	234.0	177.4	211.2	767.3	2933	631.8	148.9	128.9	112.8	96.88	88.35	82.58	76.11	71.59	67.15	66.52	65.15	63.14	62.53	61.10	60.28	60.72	59.70	61.13	58.27	54.22	49.91	45.52	41.99	38.81	35.42	32.29	30.56	28.13	25.60	23.63	21.52	20.35	19.18	17.52	17.51	18.64	17.33	12.67	10.48	9.324	8.224	7.742	7.257	7.273	6.159	5.368	4.702	4.596	5.089	8.435	14.68	66.85	327.6	596.8	165.6	4.723	1.142	1.100	1.048	0.894	0.843	0.818	0.869	0.790	0.791
550.0	86.10	105.8	110.0	109.0	117.6	157.1	231.7	170.5	163.5	299.7	1766	1930	186.9	107.7	93.21	79.95	72.43	69.04	63.86	59.36	56.37	55.26	54.06	51.32	50.91	50.61	49.71	49.58	50.29	49.77	48.24	44.59	41.83	38.58	35.48	32.63	30.52	27.49	25.72	23.41	22.04	20.52	18.67	17.64	16.20	15.07	14.44	14.40	15.48	13.11	10.05	8.602	7.565	6.805	6.330	6.234	5.785	5.371	4.404	3.877	3.590	4.249	5.462	16.92	79.18	261.4	423.5	210.7	14.24	1.290	0.990	0.873	0.806	0.764	0.730	0.801	0.755
555.0	91.18	97.37	98.15	93.15	91.40	114.2	186.7	186.1	133.3	161.4	556.3	2429	787.2	91.19	77.15	66.15	60.13	54.24	51.96	47.73	46.11	45.29	43.27	41.24	41.66	41.07	40.30	39.98	40.43	40.28	39.14	36.01	33.07	31.18	28.68	26.08	25.09	22.65	20.93	19.13	18.43	16.72	15.51	14.80	13.44	12.49	11.50	11.15	11.43	12.19	10.32	8.091	6.884	6.158	5.474	5.054	4.976	4.771	4.467	3.443	3.125	3.161	3.122	5.470	19.34	59.81	131.1	376.8	238.6	18.79	1.075	0.843	0.697	0.717	0.732	0.714	0.769
560.0	86.54	103.6	87.58	86.37	77.25	96.48	136.1	198.6	123.0	121.2	214.6	1536	1637	131.0	64.37	57.01	50.47	46.99	44.53	41.06	39.61	38.88	36.33	36.19	34.66	34.31	33.58	33.60	33.42	34.03	32.50	31.12	28.99	26.57	24.24	21.87	21.07	19.09	17.67	15.63	15.79	14.40	13.21	12.33	11.81	10.82	10.29	9.516	8.920	9.750	9.898	8.132	6.280	5.359	5.030	4.444	4.229	3.968	4.028	3.490	2.764	2.895	2.477	2.724	5.907	14.68	31.16	141.0	388.7	196.1	10.86	0.970	0.737	0.655	0.617	0.637	0.684
565.0	87.68	100.6	90.41	73.73	67.84	79.12	96.83	184.8	126.1	103.9	123.4	606.1	2361	380.9	57.80	49.63	43.96	40.02	38.33	35.27	33.13	32.55	31.24	31.00	28.86	29.59	29.77	28.33	28.69	28.92	27.75	25.36	24.08	22.16	20.80	18.83	16.88	16.17	15.10	13.84	13.56	12.41	11.46	10.91	10.06	9.359	9.127	8.180	7.461	7.747	8.554	7.698	5.915	4.760	4.613	4.044	3.787	3.551	3.502	3.472	2.671	2.588	2.183	2.094	2.729	4.623	8.293	33.86	166.3	361.6	134.7	4.603	0.799	0.708	0.654	0.587	0.519
570.0	80.69	91.91	82.59	68.05	58.43	64.92	77.10	134.7	150.7	91.28	91.58	206.3	1444	1404	95.61	40.83	36.04	33.07	30.37	28.10	27.81	26.25	25.08	25.22	24.13	23.80	23.54	23.03	22.98	23.43	22.59	21.07	19.12	17.56	16.70	15.34	13.80	13.03	12.48	11.32	10.90	10.07	9.395	8.819	8.437	7.861	7.335	6.920	6.294	5.925	6.297	6.666	5.676	4.662	3.985	3.481	3.273	3.217	2.956	2.899	2.687	2.528	1.881	1.814	1.953	2.332	2.951	8.695	39.57	139.3	231.3	135.4	13.66	0.881	0.722	0.585	0.497
575.0	75.89	85.99	73.73	59.94	49.57	52.80	62.32	85.36	151.0	97.20	76.27	102.5	429.5	1874	524.4	36.54	29.39	26.99	24.38	23.32	21.51	20.75	19.73	20.40	19.86	18.72	18.72	18.11	18.70	18.32	18.25	16.59	15.05	14.11	13.23	12.45	10.92	10.51	10.28	9.361	8.793	8.266	7.516	7.129	6.992	6.455	6.119	5.617	5.137	4.527	4.623	4.819	5.154	4.611	3.522	3.241	2.741	2.874	2.564	2.345	2.333	2.430	1.914	1.778	1.491	1.634	1.760	3.010	9.930	32.00	65.81	197.3	184.1	17.54	0.712	0.621	0.468
580.0	85.89	88.45	69.55	55.23	47.78	48.05	49.92	62.78	128.7	117.0	72.47	73.29	142.1	1183	1165	59.18	25.09	22.14	21.83	19.39	18.77	18.41	17.14	16.58	16.69	16.45	15.97	15.57	15.41	15.20	15.45	13.66	12.67	12.12	11.05	10.74	9.466	9.019	8.600	8.042	7.205	7.458	6.683	6.121	6.110	5.633	5.320	4.937	4.558	3.979	3.805	3.635	4.439	4.184	3.525	2.915	2.695	2.396	2.220	1.966	2.012	2.204	2.176	1.609	1.587	1.479	1.373	1.757	3.218	8.022	15.65	68.23	223.2	134.4	8.176	0.735	0.480
585.0	76.08	80.18	72.90	49.53	43.33	40.92	45.72	54.54	94.86	133.3	75.62	64.82	73.66	449.9	1694	129.6	21.66	20.07	18.52	16.78	16.64	15.40	14.26	13.84	14.00	13.90	13.42	13.48	13.35	13.33	13.02	11.84	11.59	10.31	9.523	9.215	7.969	7.609	7.212	7.106	6.303	6.480	5.899	5.355	5.017	4.802	4.317	4.466	4.010	3.588	3.092	3.010	3.438	4.016	3.420	2.668	2.303	2.042	1.989	1.832	1.830	1.650	1.904	1.903	1.432	1.248	1.234	1.282	1.582	2.647	4.247	16.35	88.36	213.9	35.88	3.501	0.542
590.0	75.44	74.36	64.67	50.05	38.79	38.71	40.02	46.83	63.35	126.4	90.50	60.43	56.35	137.1	1046	873.2	45.99	16.25	15.30	14.40	13.58	12.37	11.84	11.80	11.69	11.43	10.68	10.85	10.91	11.03	10.41	9.661	9.337	8.668	7.738	7.452	6.816	6.407	6.184	5.949	5.297	5.009	4.743	4.578	4.350	3.971	3.656	3.584	3.282	2.987	2.713	2.593	2.615	2.994	3.387	2.845	2.203	1.983	1.827	1.646	1.541	1.476	1.641	1.801	1.480	1.261	1.195	1.101	1.204	1.396	1.645	4.366	20.81	78.90	133.3	86.54	11.38
595.0	70.24	67.62	59.30	40.87	35.34	36.03	34.61	40.12	50.14	90.77	113.7	59.78	49.54	56.55	296.9	1239	271.2	14.22	12.70	11.58	11.17	10.36	9.647	9.785	9.583	9.065	8.395	8.659	8.639	8.401	8.385	7.634	7.267	7.072	6.363	5.839	5.665	5.163	5.024	4.432	4.309	3.902	3.716	3.641	3.587	3.289	2.989	2.820	2.740	2.461	2.173	2.227	2.136	2.231	2.593	2.848	2.384	1.860	1.460	1.397	1.335	1.204	1.334	1.347	1.483	1.327	1.127	1.002	0.966	1.047	0.912	1.566	5.145	18.03	36.88	115.0	112.2
600.0	56.23	66.53	54.84	39.27	29.62	32.96	30.96	36.23	43.09	61.29	116.6	65.60	46.19	36.84	88.08	830.0	724.2	24.14	10.77	9.624	9.396	8.689	7.841	7.999	7.582	7.437	7.262	7.212	6.946	7.162	6.817	6.568	6.018	5.724	5.241	5.202	4.815	4.233	3.837	3.978	3.830	3.172	3.005	3.044	3.018	2.806	2.754	2.476	2.282	2.252	1.992	1.764	1.758	1.679	1.926	2.565	2.274	1.897	1.323	1.307	1.157	1.217	0.988	1.090	1.221	1.243	1.149	0.947	0.907	0.967	0.777	0.851	1.719	4.479	8.777	38.64	128.6
605.0	56.57	65.79	53.49	41.81	28.58	30.29	31.43	34.41	36.29	51.61	106.1	79.45	43.86	33.01	37.71	321.3	1083	82.19	9.866	8.528	8.016	7.701	7.008	6.833	6.896	6.870	6.196	6.090	6.394	6.163	5.916	5.331	5.202	4.764	4.325	4.670	3.874	3.819	3.369	3.301	3.378	2.974	2.823	2.702	2.539	2.472	2.337	2.274	1.832	1.917	1.747	1.546	1.513	1.513	1.636	1.956	2.319	1.823	1.322	1.128	1.165	1.111	0.903	0.919	1.101	1.280	1.360	0.842	0.820	0.884	0.697	0.661	0.800	1.452	2.452	9.250	51.30
610.0	51.47	67.19	51.57	36.95	29.71	27.89	28.52	33.15	36.73	45.87	74.48	96.89	47.33	31.97	25.28	90.77	731.2	530.8	20.71	7.751	7.012	5.998	5.597	5.755	5.444	5.613	5.153	5.202	5.089	5.234	4.947	4.569	4.106	4.058	3.763	3.721	3.390	3.128	2.833	2.806	2.649	2.541	2.296	2.233	2.032	1.994	1.889	1.896	1.654	1.583	1.404	1.365	1.382	1.327	1.229	1.486	1.708	1.745	1.420	1.060	0.982	0.980	0.839	0.873	0.899	0.942	1.127	1.065	0.849	0.714	0.693	0.676	0.664	0.750	0.951	2.476	12.17
615.0	49.72	55.12	50.65	32.16	28.95	26.10	27.68	31.39	36.39	43.33	55.16	93.34	61.51	33.22	23.10	33.24	215.3	855.9	86.94	6.542	6.073	5.241	4.632	4.752	4.526	4.382	4.355	4.142	3.899	3.952	3.890	3.785	3.526	3.377	3.045	3.027	2.846	2.605	2.372	2.178	2.051	1.971	1.937	1.673	1.622	1.626	1.596	1.512	1.416	1.281	1.240	1.091	0.937	0.982	0.960	1.129	1.185	1.341	1.518	1.056	0.849	0.872	0.687	0.864	0.774	0.774	0.785	0.988	1.049	0.699	0.610	0.630	0.534	0.634	0.599	0.919	3.055
620.0	48.51	51.94	48.26	28.99	27.40	24.38	25.39	29.83	32.84	41.97	47.51	74.83	74.76	32.71	21.55	19.16	60.19	618.0	443.5	10.20	5.040	4.699	4.482	4.276	3.924	3.743	3.623	3.696	3.754	3.408	3.566	3.087	3.118	2.875	2.625	2.424	2.403	2.309	2.046	1.725	1.704	1.795	1.739	1.567	1.384	1.370	1.334	1.384	1.158	1.076	1.020	1.032	0.936	0.873	1.040	1.054	0.945	0.997	1.243	1.063	0.878	0.686	0.599	0.700	0.682	0.748	0.694	0.766	1.046	0.839	0.603	0.593	0.568	0.566	0.484	0.527	1.033
625.0	50.78	50.28	46.96	33.33	26.09	25.11	24.82	31.32	31.66	38.03	44.29	59.13	82.99	36.20	20.21	15.65	22.32	256.9	748.4	47.24	4.913	3.872	4.271	3.713	3.118	3.575	2.939	2.917	3.063	3.008	2.906	2.675	2.611	2.207	2.242	2.185	2.093	1.716	1.779	1.683	1.538	1.406	1.553	1.409	1.238	1.265	1.160	1.122	1.091	1.059	0.836	0.885	0.894	0.754	0.838	0.880	0.840	0.838	0.936	0.971	0.933	0.677	0.666	0.682	0.636	0.697	0.589	0.649	0.824	0.893	0.781	0.570	0.639	0.480	0.474	0.406	0.574
630.0	40.93	44.95	44.10	31.84	24.13	21.71	24.62	28.17	30.14	35.99	39.14	47.63	70.99	49.68	21.64	14.50	13.40	70.18	560.2	346.0	9.846	3.662	3.366	3.222	2.716	2.808	2.597	2.495	2.666	2.408	2.397	2.184	2.189	1.969	1.841	1.804	1.698	1.525	1.423	1.446	1.249	1.220	1.223	1.162	0.985	1.025	1.016	0.968	0.907	0.866	0.775	0.750	0.740	0.709	0.686	0.719	0.719	0.689	0.782	0.842	0.899	0.706	0.686	0.604	0.533	0.529	0.562	0.653	0.647	0.689	0.734	0.574	0.481	0.439	0.474	0.386	0.432
635.0	39.77	41.69	37.98	31.97	22.28	21.00	21.87	26.73	29.41	33.37	38.80	43.10	52.50	62.10	26.50	14.40	11.29	22.39	172.9	629.2	61.97	3.277	2.870	2.886	2.382	2.323	2.154	1.907	1.990	1.979	1.899	1.878	1.659	1.586	1.703	1.461	1.357	1.270	1.139	1.255	1.047	0.888	0.959	0.953	0.815	0.939	0.845	0.852	0.773	0.703	0.658	0.601	0.626	0.657	0.593	0.580	0.628	0.590	0.551	0.735	0.851	0.688	0.651	0.546	0.467	0.520	0.583	0.613	0.567	0.566	0.546	0.658	0.492	0.402	0.433	0.370	0.382
640.0	41.15	42.61	37.69	30.05	23.12	22.64	23.32	24.63	28.36	34.84	36.35	41.52	42.45	61.34	32.18	14.49	11.03	11.34	46.89	508.7	282.7	5.603	2.754	2.171	2.269	2.135	1.913	1.760	1.879	1.676	1.585	1.686	1.552	1.424	1.454	1.340	1.166	1.100	0.951	0.956	0.873	0.871	0.909	0.913	0.840	0.769	0.766	0.787	0.744	0.566	0.579	0.560	0.529	0.551	0.510	0.537	0.561	0.466	0.492	0.635	0.685	0.702	0.647	0.504	0.457	0.494	0.589	0.505	0.459	0.547	0.454	0.772	0.525	0.464	0.457	0.404	0.323
645.0	48.40	45.37	42.94	30.93	23.18	22.31	21.86	24.74	28.70	33.04	39.95	41.70	39.98	52.70	40.14	15.78	10.94	8.746	15.88	231.0	522.7	24.48	2.540	2.156	1.954	1.979	1.681	1.552	1.687	1.482	1.677	1.543	1.345	1.354	1.166	1.151	1.005	0.922	0.935	0.858	0.813	0.791	0.720	0.676	0.710	0.589	0.839	0.680	0.594	0.595	0.565	0.563	0.480	0.483	0.513	0.557	0.525	0.440	0.491	0.527	0.655	0.668	0.715	0.480	0.454	0.498	0.505	0.486	0.514	0.540	0.452	0.583	0.646	0.479	0.404	0.407	0.391
650.0	44.96	44.70	49.32	31.16	24.96	20.24	21.76	22.75	27.44	33.99	35.69	41.36	38.31	41.34	45.67	18.15	12.00	9.000	8.186	70.32	553.1	72.29	2.694	2.147	1.809	1.702	1.782	1.407	1.355	1.402	1.360	1.298	1.399	1.076	1.032	0.955	0.896	0.877	0.850	0.803	0.799	0.694	0.739	0.723	0.661	0.746	0.731	0.731	0.616	0.560	0.522	0.523	0.495	0.468	0.469	0.456	0.459	0.468	0.428	0.455	0.534	0.601	0.624	0.474	0.523	0.542	0.529	0.439	0.506	0.512	0.446	0.454	0.504	0.624	0.419	0.350	0.427
