Sample:	'1
File name:	20250311Ê®¶þµã16±¶.FD3
Run date:	'11:01:17, 03/13/2025
Operator:	Administrator
Comment:	'

Instrument
Model:	F-2700 FL Spectrophotometer
Serial number:	23B8-004
ROM Version:	4J14000 07

Instrument parameters
Measurement type:	3-D scan
Data mode:	Fluorescence
EX  Start WL:	220.0 nm
EX  End WL:	600.0 nm
EX Sampling interval:	5.0 nm
EM  Start WL:	230.0 nm
EM  End WL:	650.0 nm
EM Sampling interval:	5.0 nm
Scan speed:	12000 nm/min
EX Slit:	5.0 nm
EM Slit:	5.0 nm
PMT Voltage:	700 V
Response:	Auto 
Corrected spectra:	Off
Contour interval:	50.000

Peak integration
Integration method:	Rectangular
Sensitivity:	1
Threshold:	1.000

Peaks
No.	ApexEX/EM(nm)	Height(Data)
1	225.0/340.0	6190
2	225.0/580.0	54.86
3	225.0/615.0	90.35
4	230.0/500.0	362.6
5	235.0/510.0	288.2
6	240.0/265.0	418.3
7	240.0/525.0	256.2
8	245.0/270.0	403.6
9	245.0/535.0	214.5
10	250.0/455.0	893.0
11	250.0/550.0	166.3
12	255.0/280.0	589.7
13	255.0/565.0	130.8
14	260.0/290.0	557.8
15	260.0/575.0	107.6
16	265.0/590.0	89.57
17	275.0/325.0	2809
18	275.0/615.0	155.8
19	280.0/625.0	144.5
20	325.0/370.0	300.0
21	330.0/375.0	266.4
22	335.0/380.0	246.8
23	340.0/390.0	196.0
24	345.0/395.0	183.2
25	350.0/400.0	188.4
26	360.0/415.0	157.5
27	365.0/420.0	157.2
28	375.0/435.0	122.9
29	380.0/440.0	118.9
30	395.0/460.0	74.93
31	415.0/485.0	32.34
32	425.0/500.0	22.75
33	430.0/505.0	19.97
34	440.0/520.0	14.65
35	445.0/525.0	12.69
36	455.0/340.0	17.32
37	455.0/540.0	8.956
38	460.0/545.0	7.506
39	475.0/340.0	14.24
40	500.0/455.0	4.283
41	505.0/275.0	3.243
42	510.0/280.0	3.578
43	520.0/285.0	3.875
44	530.0/290.0	3.680
45	560.0/325.0	13.83
46	565.0/330.0	13.63
47	575.0/320.0	14.27

Data points
	220.0	225.0	230.0	235.0	240.0	245.0	250.0	255.0	260.0	265.0	270.0	275.0	280.0	285.0	290.0	295.0	300.0	305.0	310.0	315.0	320.0	325.0	330.0	335.0	340.0	345.0	350.0	355.0	360.0	365.0	370.0	375.0	380.0	385.0	390.0	395.0	400.0	405.0	410.0	415.0	420.0	425.0	430.0	435.0	440.0	445.0	450.0	455.0	460.0	465.0	470.0	475.0	480.0	485.0	490.0	495.0	500.0	505.0	510.0	515.0	520.0	525.0	530.0	535.0	540.0	545.0	550.0	555.0	560.0	565.0	570.0	575.0	580.0	585.0	590.0	595.0	600.0
230.0	122.0	2035	4275	839.7	28.03	7.355	5.429	4.471	3.705	4.125	3.874	3.456	2.904	2.470	2.261	1.997	1.618	1.381	1.014	1.055	0.848	0.832	0.856	0.821	0.766	0.600	0.643	0.606	0.553	0.568	0.503	0.506	0.466	0.401	0.392	0.416	0.360	0.339	0.354	0.399	0.615	0.947	0.780	0.424	0.317	0.345	2.529	9.746	12.77	7.279	2.243	0.465	0.242	0.210	0.208	0.211	0.206	0.199	0.246	0.190	0.213	0.191	0.208	0.184	0.203	0.198	0.193	0.183	0.177	0.186	0.197	0.190	0.189	0.181	0.183	0.187	0.225
235.0	186.8	574.5	2830	3808	537.7	41.96	7.098	5.734	4.061	4.144	4.464	3.594	3.211	2.673	2.197	2.006	1.959	1.448	1.086	1.012	1.017	0.824	0.912	0.868	0.733	0.716	0.706	0.638	0.563	0.635	0.478	0.481	0.470	0.390	0.356	0.393	0.357	0.306	0.311	0.360	0.446	0.505	0.695	0.809	0.688	0.485	0.813	2.629	5.453	8.578	12.35	10.52	4.288	0.847	0.299	0.192	0.238	0.189	0.239	0.243	0.211	0.204	0.216	0.210	0.191	0.185	0.187	0.158	0.191	0.202	0.207	0.169	0.181	0.169	0.201	0.195	0.193
240.0	289.2	255.9	889.6	3684	3540	411.3	21.73	7.348	5.435	5.419	4.451	4.337	3.734	2.735	2.601	2.017	1.678	1.581	1.002	1.028	0.988	0.974	0.883	0.871	0.711	0.781	0.700	0.557	0.461	0.557	0.530	0.465	0.526	0.334	0.358	0.414	0.348	0.320	0.447	0.407	0.387	0.336	0.428	0.583	1.045	1.012	0.564	0.872	1.478	2.764	7.392	14.43	17.33	10.18	3.707	0.544	0.257	0.233	0.239	0.205	0.214	0.204	0.213	0.186	0.213	0.208	0.178	0.175	0.188	0.210	0.198	0.165	0.186	0.207	0.220	0.196	0.194
245.0	208.2	308.6	276.7	1354	4248	3213	296.2	12.83	6.750	5.428	5.152	4.905	3.913	3.104	2.768	2.261	1.614	1.633	1.183	1.158	0.922	0.993	0.857	0.912	0.674	0.723	0.752	0.677	0.592	0.661	0.509	0.571	0.480	0.425	0.441	0.422	0.368	0.308	0.399	0.369	0.361	0.331	0.326	0.366	0.620	0.982	1.019	0.938	0.652	0.819	1.950	5.087	13.00	20.03	21.95	9.225	2.208	0.376	0.242	0.206	0.287	0.220	0.219	0.224	0.223	0.233	0.212	0.214	0.201	0.183	0.222	0.220	0.206	0.184	0.198	0.207	0.181
250.0	82.35	230.7	318.3	400.6	1430	3823	4313	1108	62.08	8.038	7.279	5.301	4.441	3.665	3.008	2.868	1.846	1.919	1.218	1.189	0.992	1.051	0.827	0.930	0.761	0.796	0.652	0.700	0.676	0.678	0.627	0.568	0.437	0.471	0.420	0.399	0.420	0.374	0.363	0.366	0.430	0.326	0.318	0.338	0.365	0.504	0.639	0.983	1.155	1.000	0.848	1.405	3.297	6.802	14.64	18.75	22.01	18.53	9.552	2.722	0.390	0.211	0.250	0.241	0.237	0.218	0.237	0.246	0.222	0.229	0.236	0.215	0.209	0.218	0.208	0.210	0.205
255.0	49.41	75.33	246.0	393.3	409.1	1006	3972	6474	1617	61.49	9.661	7.526	5.531	4.456	3.344	3.084	2.317	2.088	1.508	1.212	1.083	1.057	0.903	1.071	1.026	0.732	0.781	0.736	0.728	0.777	0.557	0.532	0.485	0.529	0.381	0.410	0.452	0.430	0.407	0.417	0.399	0.340	0.300	0.369	0.298	0.405	0.330	0.480	0.624	1.057	1.444	1.484	1.217	1.822	3.547	4.698	8.510	22.69	35.70	28.12	15.00	2.886	0.362	0.270	0.271	0.258	0.254	0.237	0.234	0.218	0.223	0.224	0.233	0.218	0.228	0.208	0.238
260.0	36.91	35.59	98.60	342.3	353.7	277.4	1252	5764	8192	1186	34.44	9.976	7.073	5.380	3.789	3.410	2.618	2.079	1.742	1.407	1.227	0.891	1.014	1.056	1.178	0.779	0.771	0.805	0.726	0.737	0.605	0.506	0.432	0.511	0.431	0.488	0.489	0.373	0.405	0.420	0.439	0.378	0.357	0.290	0.312	0.314	0.281	0.342	0.379	0.501	0.915	1.742	1.899	1.312	1.161	1.325	2.239	6.172	15.72	35.17	48.62	26.73	11.74	1.418	0.367	0.285	0.220	0.298	0.226	0.208	0.275	0.204	0.231	0.219	0.210	0.212	0.283
265.0	35.72	29.38	39.81	161.2	418.3	255.7	324.8	2037	9547	7578	208.9	18.74	10.03	7.074	4.957	4.443	2.898	2.188	1.897	1.647	1.376	1.292	1.087	1.240	1.159	0.983	0.816	0.748	0.724	0.698	0.636	0.589	0.545	0.520	0.517	0.473	0.465	0.379	0.400	0.436	0.509	0.370	0.399	0.328	0.312	0.337	0.323	0.331	0.277	0.334	0.412	0.899	1.934	2.300	1.557	0.757	0.841	1.761	3.901	10.32	26.58	51.84	56.85	22.90	8.107	0.646	0.311	0.278	0.277	0.211	0.242	0.257	0.280	0.242	0.230	0.217	0.292
270.0	50.05	41.56	35.12	59.20	209.9	403.6	298.2	516.6	3116	7988	9999.9	2621	52.51	10.77	6.616	5.749	3.558	2.803	2.187	1.949	1.509	1.369	1.250	1.312	1.195	0.991	0.969	0.820	0.900	0.834	0.705	0.634	0.598	0.567	0.539	0.574	0.564	0.468	0.504	0.512	0.542	0.415	0.381	0.375	0.409	0.319	0.404	0.365	0.361	0.284	0.300	0.418	0.778	1.246	1.842	2.274	1.996	1.281	1.285	2.671	6.512	14.94	27.64	40.24	61.92	41.73	15.61	6.909	0.788	0.319	0.315	0.292	0.285	0.285	0.252	0.271	0.280
275.0	115.3	83.50	61.00	40.78	69.82	196.3	514.6	357.2	744.4	1983	7643	9999.9	1166	66.93	10.29	8.615	4.607	3.437	2.592	2.057	1.916	1.534	1.475	1.512	1.271	1.075	0.992	1.020	0.885	0.878	0.820	0.776	0.736	0.807	0.747	0.807	0.609	0.512	0.546	0.546	0.658	0.522	0.442	0.483	0.473	0.470	0.446	0.433	0.398	0.328	0.297	0.334	0.444	0.549	0.725	1.158	2.309	3.243	2.436	1.353	1.834	3.667	6.543	9.547	18.07	30.69	58.75	83.36	24.93	6.179	0.636	0.330	0.358	0.289	0.327	0.294	0.315
280.0	170.6	133.2	96.34	52.66	41.45	75.74	332.4	589.7	318.9	497.8	2141	9789	9888	911.9	28.57	11.98	5.942	4.526	3.094	2.255	2.179	1.948	1.582	1.691	1.467	1.072	0.997	0.973	0.909	0.970	0.920	0.791	0.757	0.856	0.902	0.825	0.618	0.710	0.684	0.633	0.655	0.595	0.527	0.570	0.585	0.563	0.617	0.549	0.490	0.390	0.353	0.389	0.410	0.339	0.445	0.542	0.948	1.993	3.578	3.280	1.788	1.385	1.795	2.561	4.654	7.780	19.68	57.35	78.41	32.64	19.83	3.444	0.533	0.396	0.377	0.361	0.331
285.0	235.3	195.2	144.7	71.25	40.85	47.84	137.9	512.1	527.0	214.8	559.1	2943	9999.9	8379	119.9	20.55	8.533	6.051	3.653	2.936	2.570	2.158	1.840	2.030	1.511	1.234	1.124	1.313	1.101	0.915	0.934	0.771	0.924	0.928	1.231	1.048	0.925	0.875	0.775	0.802	0.797	0.631	0.703	0.759	0.679	0.821	0.761	0.770	0.634	0.488	0.382	0.416	0.445	0.410	0.442	0.363	0.511	0.871	1.730	3.370	3.875	2.591	1.153	1.128	1.578	2.268	5.140	14.67	31.82	54.25	84.93	31.01	17.56	1.692	0.434	0.490	0.330
290.0	317.1	292.1	217.7	111.2	61.66	55.98	87.43	224.6	557.8	502.4	288.0	794.1	3002	9666	9704	2569	36.70	9.208	5.544	3.811	3.026	2.647	2.061	2.246	1.770	1.425	1.160	1.143	1.151	1.060	0.936	0.819	0.970	1.172	1.386	1.309	1.173	1.080	0.985	0.932	0.938	0.775	0.818	0.842	0.837	0.995	1.020	0.981	0.822	0.621	0.548	0.503	0.491	0.499	0.550	0.496	0.487	0.649	0.929	1.388	2.331	3.283	3.680	3.045	1.983	1.480	2.002	4.069	7.975	14.24	31.71	45.76	67.50	58.63	43.78	11.69	1.657
295.0	460.4	418.6	317.4	183.3	127.4	122.9	155.3	208.3	343.9	725.7	778.4	476.5	882.6	2387	6005	9999.9	697.9	45.12	8.739	5.783	3.809	3.417	2.931	2.566	1.944	1.675	1.319	1.296	1.357	1.283	1.211	1.059	1.012	1.298	1.585	1.627	1.412	1.324	1.214	1.266	1.126	0.982	1.006	1.032	1.210	1.324	1.309	1.375	1.153	0.888	0.734	0.865	0.746	0.684	0.812	0.779	0.812	0.895	1.066	1.149	1.456	1.737	2.473	4.554	5.500	3.898	2.348	2.365	3.133	4.384	8.246	11.16	17.28	28.69	64.97	96.82	32.22
300.0	670.5	645.4	527.0	355.6	280.4	280.0	343.2	347.2	520.9	783.1	1308	1001	752.3	948.3	1827	9999.9	9999.9	577.3	28.55	8.318	5.135	4.277	3.276	3.007	2.366	1.951	1.546	1.526	1.323	1.457	1.164	1.138	1.125	1.355	1.786	1.702	1.866	1.716	1.777	1.635	1.520	1.247	1.399	1.377	1.570	1.589	1.916	1.973	1.788	1.301	1.229	1.310	1.258	1.297	1.390	1.313	1.597	1.908	2.025	2.063	2.321	2.620	3.073	3.997	5.491	7.311	6.263	4.686	3.865	3.667	4.486	4.828	5.903	8.562	19.38	47.81	75.56
305.0	1023	1058	843.1	610.7	506.5	505.4	682.0	804.0	1014	1314	1753	2116	1336	1136	1168	3379	9999.9	9999.9	412.0	15.40	7.384	5.286	3.875	3.710	2.925	2.214	1.763	1.629	1.462	1.446	1.347	1.293	1.266	1.604	2.118	2.244	2.247	2.435	2.310	2.272	2.091	2.020	1.949	2.038	2.168	2.548	2.689	2.886	2.762	2.158	1.916	2.089	2.077	2.269	2.271	2.325	2.940	3.513	3.642	3.890	4.291	4.907	5.729	6.635	7.129	8.786	9.987	10.45	8.627	7.280	6.483	6.132	5.972	6.435	8.374	14.69	26.54
310.0	1366	1515	1290	920.5	745.2	793.5	1001	1182	1359	1694	2045	2476	2397	1748	1350	1544	3375	8140	6635	1692	27.39	7.951	5.217	4.986	3.483	2.579	2.075	1.875	1.787	1.575	1.375	1.396	1.475	1.743	2.238	2.566	2.454	2.774	2.591	2.858	2.617	2.688	2.538	2.897	3.115	3.523	3.858	4.286	3.937	3.253	2.816	3.055	3.108	3.040	3.221	3.656	4.233	4.881	5.238	5.646	6.080	6.563	7.588	8.367	8.722	9.969	10.48	11.86	12.36	12.18	10.47	8.971	8.173	7.930	7.177	8.108	10.07
315.0	1892	2151	1844	1268	1015	1039	1256	1424	1576	1913	2296	2574	2682	2457	1712	1281	1523	2278	4069	9591	504.2	31.73	8.036	6.918	4.394	3.191	2.526	2.257	1.998	1.778	1.552	1.462	1.568	1.845	2.240	2.861	2.986	3.115	3.016	3.367	3.431	3.412	3.178	3.516	4.183	5.176	5.418	6.019	5.404	4.535	3.960	3.962	4.163	3.939	4.256	4.627	5.300	6.003	6.521	6.584	6.788	7.288	8.698	9.498	9.562	10.82	11.67	12.29	12.80	12.83	13.36	13.02	10.83	9.702	8.157	7.513	7.229
320.0	2585	3202	2605	1567	1182	1157	1385	1588	1709	2066	2478	2761	2772	2650	2117	1325	1159	966.7	1142	6143	8451	456.2	17.86	8.836	5.375	3.894	2.856	2.530	2.300	2.093	1.814	1.510	1.710	2.069	2.401	2.926	3.120	3.152	3.490	3.924	3.791	3.982	4.289	4.892	5.459	7.081	7.848	8.573	7.786	5.877	4.881	4.946	4.794	4.511	4.652	4.865	5.734	6.446	7.440	7.661	7.311	8.209	9.148	10.30	10.93	11.68	12.84	13.28	13.44	13.62	13.41	14.27	13.81	11.85	9.352	7.879	7.213
325.0	3481	4241	3588	2025	1317	1232	1442	1657	1760	2118	2512	2809	2807	2535	2305	1479	1070	682.0	410.3	1741	7547	8153	61.48	14.35	7.060	4.284	3.515	3.240	2.426	2.289	1.848	1.571	1.885	2.047	2.473	2.888	3.105	3.433	3.870	4.378	4.154	4.501	5.029	5.860	6.934	9.307	10.14	11.72	10.83	8.030	6.116	5.747	5.019	4.867	4.856	4.914	5.925	6.817	7.536	7.554	7.637	8.524	9.337	10.32	11.12	11.57	13.08	13.37	13.83	13.41	13.53	12.80	13.16	13.45	11.42	8.772	7.427
330.0	3904	5063	4561	2913	1873	1426	1449	1632	1727	2025	2415	2712	2733	2438	2095	1646	1173	655.9	312.7	518.0	2146	6615	6088	1533	24.34	6.284	4.431	3.670	2.794	2.578	1.977	1.865	1.769	2.151	2.478	2.937	3.286	3.520	3.840	4.269	4.357	5.000	5.790	6.673	8.211	10.54	11.91	13.78	13.55	10.92	8.683	8.463	7.394	6.525	5.924	5.458	6.133	6.768	7.544	7.574	7.593	7.973	8.984	9.923	10.72	11.56	12.16	12.79	13.34	13.63	13.09	12.76	12.15	11.68	10.79	10.08	8.980
335.0	4583	6029	5747	4136	2950	1944	1563	1654	1736	1997	2387	2685	2743	2496	2077	1625	1430	854.1	415.0	339.3	657.7	1652	4230	9999.9	2168	24.09	6.174	4.477	3.607	3.344	2.476	2.032	2.027	2.205	2.530	2.980	3.196	3.549	4.116	4.984	4.807	5.489	6.324	7.428	9.940	11.97	13.54	16.59	16.62	13.95	12.09	12.73	11.62	10.10	8.440	6.558	6.458	6.919	7.665	7.914	7.784	7.893	8.829	10.20	10.45	11.30	12.32	12.72	13.40	13.19	12.80	13.16	12.27	11.71	10.60	9.596	9.393
340.0	4553	6190	6035	4492	3231	2050	1564	1593	1652	1897	2231	2523	2590	2389	1980	1507	1317	997.1	485.0	319.8	339.2	512.5	1194	7575	9271	365.5	12.73	5.707	4.059	3.834	3.010	2.266	1.849	2.371	2.402	2.870	3.249	3.453	3.792	4.781	4.933	5.374	6.391	7.592	9.807	12.19	13.94	17.32	17.21	14.94	12.89	14.24	12.78	11.51	8.958	6.726	6.588	7.006	7.023	7.349	7.290	7.860	8.766	9.107	9.743	10.84	11.68	12.20	12.23	12.10	12.38	12.82	11.91	11.13	10.23	9.144	8.896
345.0	4233	5648	5665	4297	3085	1921	1437	1419	1477	1688	1999	2235	2296	2144	1771	1340	1097	927.8	576.5	312.5	257.5	258.2	381.6	2190	8388	6036	52.08	7.768	5.060	4.400	2.863	2.428	2.007	2.203	2.528	2.825	2.882	3.353	3.761	4.306	4.617	4.909	6.059	7.244	9.145	11.08	12.60	15.91	16.01	14.12	12.33	13.47	12.36	10.70	8.187	6.183	6.090	6.372	6.348	6.765	6.582	7.359	7.455	8.435	8.837	9.442	10.17	10.45	11.02	11.20	11.35	10.97	10.65	10.10	9.110	8.112	7.455
350.0	3688	4936	5031	4028	3031	1842	1270	1238	1266	1454	1691	1890	1952	1826	1541	1185	949.4	741.9	603.2	414.1	262.7	207.4	209.8	578.3	2386	5272	4805	1197	18.55	5.760	3.752	2.769	2.188	2.164	2.364	2.526	2.761	3.140	3.326	3.674	4.175	4.477	5.298	6.013	7.858	9.643	10.90	14.16	14.31	12.71	11.64	13.17	12.30	10.44	8.079	5.953	5.487	5.500	5.562	5.868	5.921	5.998	6.416	7.306	7.478	7.892	8.595	8.970	9.616	9.866	9.812	9.725	9.165	8.820	8.241	7.558	6.641
355.0	3188	4286	4349	3666	2836	1722	1132	1066	1087	1220	1409	1589	1634	1554	1320	1034	829.8	629.2	481.0	476.7	339.7	204.3	175.5	223.3	573.5	1239	3507	7701	388.1	21.41	4.910	3.401	2.537	2.301	2.533	2.579	2.604	2.932	2.896	3.308	3.964	4.007	4.508	5.312	6.356	8.221	9.721	11.85	12.20	11.42	10.58	11.51	11.52	9.974	7.538	5.732	5.097	4.886	5.031	5.073	5.034	5.061	5.506	5.974	6.114	6.897	7.014	7.545	7.939	8.144	8.125	8.374	7.797	7.716	7.047	6.534	5.909
360.0	2704	3548	3770	3205	2482	1494	992.4	913.8	947.2	1039	1199	1335	1384	1315	1133	892.7	715.8	547.6	404.5	389.6	394.5	229.2	161.8	138.6	175.0	302.9	945.3	5955	6300	346.2	9.265	4.085	3.016	2.540	2.534	2.551	2.502	2.698	2.821	3.193	3.469	3.534	4.132	4.768	5.411	7.206	8.204	9.858	10.27	9.759	9.373	10.11	9.877	9.045	6.620	4.904	4.557	4.448	4.217	4.442	4.420	4.629	4.897	5.317	5.391	5.935	6.205	6.299	6.776	6.630	7.028	7.015	6.408	6.940	5.990	5.761	4.964
365.0	2265	2987	3154	2726	2156	1323	871.5	805.4	804.8	890.2	1023	1139	1171	1113	961.2	772.1	625.8	483.3	360.2	306.3	357.7	297.9	168.6	118.7	90.23	99.81	235.7	1795	6370	6222	46.48	5.864	3.542	3.031	2.636	2.541	2.422	2.502	2.814	2.822	3.019	3.470	3.530	3.886	4.878	5.952	6.807	8.455	8.516	8.209	7.685	8.670	8.396	7.894	5.895	4.484	4.000	3.817	3.873	3.818	3.894	4.185	4.149	4.214	4.706	5.108	5.165	5.583	5.646	5.935	5.997	5.905	5.806	5.957	5.363	4.884	4.529
370.0	1838	2424	2565	2275	1845	1137	741.4	682.4	686.7	751.3	849.3	942.0	961.8	918.9	808.0	653.5	538.6	427.8	327.1	271.0	265.4	300.0	243.8	134.7	80.08	63.65	83.12	427.7	1874	6007	4349	964.1	14.24	3.798	3.189	2.907	2.476	2.298	2.492	2.719	2.785	2.710	3.077	3.567	3.956	5.024	5.742	6.928	6.928	6.828	6.432	7.391	7.185	6.465	5.056	3.664	3.395	3.203	3.256	3.200	3.399	3.407	3.511	3.725	4.047	4.253	4.271	4.576	4.734	4.993	5.079	4.988	4.938	4.842	4.522	4.224	4.110
375.0	1528	1901	2084	1842	1514	976.0	639.9	574.3	575.2	622.4	696.7	765.1	788.2	752.0	664.4	548.0	464.9	375.0	300.2	252.4	225.4	225.3	266.4	202.7	94.69	65.88	57.78	127.2	442.3	1427	3486	6221	320.8	13.60	3.924	3.091	2.702	2.586	2.481	2.661	2.591	2.425	2.727	2.931	3.252	3.907	4.551	5.240	5.510	5.288	5.097	6.093	5.903	5.454	4.347	3.297	2.890	2.742	2.799	2.680	2.900	2.812	2.940	3.116	3.274	3.483	3.775	3.825	3.826	4.271	4.129	4.209	4.180	3.916	3.879	3.472	3.692
380.0	1264	1591	1671	1557	1289	844.6	570.9	510.9	517.0	542.4	600.9	655.8	670.9	643.6	572.8	480.5	412.3	342.8	279.7	238.9	210.2	194.1	219.1	246.8	135.5	74.60	58.67	65.57	127.6	342.3	952.0	5206	4633	257.7	6.553	3.713	3.079	2.379	2.511	2.431	2.438	2.274	2.426	2.561	2.781	3.429	3.798	4.588	4.573	4.480	4.436	5.279	5.031	4.981	3.860	2.907	2.698	2.399	2.576	2.515	2.487	2.446	2.766	2.721	2.928	3.043	3.187	3.417	3.303	3.510	3.745	3.727	3.562	3.440	3.193	3.031	3.122
385.0	1113	1353	1385	1352	1101	753.2	530.7	470.5	456.8	491.6	536.0	575.2	586.2	562.2	503.6	428.4	368.1	314.5	264.0	233.3	204.8	186.9	183.4	219.4	194.9	98.49	67.00	58.02	63.83	102.3	232.9	1621	4984	2520	37.02	5.089	3.417	2.696	2.810	2.586	2.266	2.177	2.118	2.370	2.388	2.869	3.245	3.876	3.947	3.720	3.849	4.449	4.564	4.199	3.470	2.525	2.491	2.231	2.485	2.214	2.268	2.337	2.441	2.357	2.847	2.734	2.892	2.925	3.012	3.040	3.330	3.084	3.277	3.032	2.762	2.719	2.835
390.0	919.4	1092	1170	1121	952.6	680.5	502.3	443.3	420.3	437.0	473.5	507.7	512.8	488.6	440.3	378.2	331.4	290.9	253.4	228.6	204.2	186.9	172.9	172.7	196.0	166.5	94.03	67.22	58.55	57.38	76.15	381.8	1486	3440	3186	824.0	12.02	3.172	2.861	2.724	2.378	2.031	2.018	2.034	2.287	2.549	2.900	3.219	3.459	3.242	3.262	3.753	3.833	3.557	3.250	2.434	2.278	2.167	2.175	1.977	2.033	2.136	2.203	2.107	2.365	2.406	2.460	2.582	2.575	2.707	2.752	2.786	2.824	2.595	2.476	2.360	2.494
395.0	778.3	895.8	974.7	945.1	838.9	640.6	476.0	419.9	393.5	395.2	426.2	454.1	457.2	437.4	391.9	339.7	301.2	273.3	245.8	220.3	202.4	187.2	171.9	160.0	156.2	183.2	158.2	88.23	68.73	55.99	48.57	107.8	346.8	827.3	2571	5440	267.8	11.53	3.555	3.291	2.696	2.034	1.965	2.095	2.157	2.250	2.646	2.880	3.040	2.712	2.993	3.265	3.367	3.181	2.960	2.396	2.221	2.168	2.060	2.119	1.919	1.805	1.973	2.068	2.059	2.109	2.293	2.292	2.288	2.475	2.414	2.547	2.556	2.496	2.273	2.374	2.587
400.0	712.3	826.1	873.1	848.1	763.3	614.2	468.0	413.2	383.3	382.3	396.1	418.2	424.1	408.0	358.0	316.8	283.3	257.5	232.9	219.2	200.6	188.8	175.2	158.7	146.4	155.3	188.4	125.6	77.77	60.54	47.39	51.87	96.77	198.6	707.6	4276	3659	216.7	7.077	3.652	2.960	2.170	1.969	2.072	2.039	2.174	2.472	2.521	2.670	2.449	2.632	3.129	3.176	2.972	2.721	2.307	2.299	2.205	2.051	2.035	1.851	1.727	1.906	2.081	1.870	2.016	2.071	2.116	2.216	2.290	2.235	2.382	2.380	2.238	2.171	2.071	2.338
405.0	658.9	742.3	792.2	780.3	720.7	598.6	465.9	411.3	365.3	365.8	378.8	394.4	395.8	378.7	336.7	300.9	268.3	251.9	229.1	213.0	200.4	186.8	178.7	164.9	147.8	139.4	170.6	168.9	100.4	69.80	52.17	43.10	43.61	60.24	170.8	1289	3991	2084	34.22	4.685	3.368	2.474	2.095	2.111	1.927	2.082	2.231	2.408	2.424	2.370	2.413	2.887	2.803	2.839	2.641	2.196	2.307	2.160	2.111	2.063	1.924	1.870	1.863	1.862	1.822	1.978	1.805	2.201	1.965	2.116	2.152	2.223	2.209	2.011	2.073	2.016	1.961
410.0	629.1	668.9	709.8	712.8	665.4	573.7	480.8	419.1	368.7	350.4	359.0	368.1	367.4	351.0	315.0	282.9	258.0	238.5	225.0	209.4	195.3	186.4	178.5	166.4	151.3	139.1	140.6	164.5	150.5	93.00	62.78	47.70	37.24	33.80	52.96	302.3	1191	2483	3151	761.1	11.58	2.879	2.398	1.914	1.888	1.962	2.238	2.276	2.230	2.120	2.223	2.717	2.573	2.762	2.556	2.166	2.384	2.176	2.037	1.974	1.851	1.866	1.787	1.912	1.831	1.875	1.801	2.030	1.909	1.886	2.035	1.981	1.969	2.083	2.081	1.992	2.031
415.0	549.2	611.6	659.3	658.5	627.0	566.4	505.5	438.9	371.5	343.2	343.4	345.4	342.5	322.6	293.0	269.6	243.0	230.6	217.7	203.5	190.9	182.4	174.7	168.4	156.7	143.9	133.9	133.7	157.5	137.6	80.72	55.63	41.20	32.77	30.20	81.77	275.7	596.5	2395	4553	251.0	10.62	2.729	2.153	2.252	2.044	2.116	2.242	2.053	1.983	2.126	2.607	2.512	2.587	2.605	2.342	2.413	2.151	2.297	2.036	1.960	1.796	1.687	1.712	1.691	1.705	1.832	1.775	1.775	1.987	1.873	1.935	1.766	2.115	1.926	1.827	1.996
420.0	538.6	582.9	620.9	625.9	627.5	572.4	519.7	454.6	383.7	342.7	333.1	334.7	326.2	311.3	283.1	258.7	236.6	224.7	214.0	201.1	187.3	179.8	172.5	163.4	156.0	145.3	134.1	129.0	136.4	157.2	109.7	65.50	45.78	35.36	28.20	35.54	73.29	142.1	649.9	3642	4177	201.5	5.347	2.407	2.390	2.264	1.980	2.156	2.011	1.885	1.878	2.481	2.538	2.472	2.648	2.336	2.525	2.096	2.389	1.921	2.002	1.802	1.740	1.786	1.683	1.623	1.734	1.608	1.781	1.897	1.876	1.994	1.790	1.963	1.874	1.823	1.869
425.0	540.2	573.4	593.8	608.4	624.4	597.4	555.7	479.7	405.2	341.5	328.5	324.4	316.7	301.9	275.3	254.6	237.3	224.6	215.9	198.6	186.8	177.2	168.3	163.9	157.1	146.8	138.8	127.7	123.6	142.0	136.6	81.38	52.53	40.45	30.44	28.10	30.46	41.68	154.5	1104	4249	1923	31.89	3.303	2.587	2.175	2.032	2.202	2.117	1.955	1.882	2.376	2.493	2.531	2.544	2.291	2.593	2.330	2.539	2.194	2.059	2.076	1.688	1.808	1.648	1.752	1.674	1.535	1.708	1.705	1.853	1.667	1.630	1.835	1.883	1.668	1.705
430.0	861.7	561.5	593.0	601.1	636.8	629.2	624.0	553.3	435.2	355.9	327.0	317.6	307.7	296.8	269.1	253.4	238.2	227.3	217.2	201.9	182.5	170.8	165.5	160.1	156.0	148.1	141.6	133.2	125.8	124.6	132.6	117.3	72.23	48.11	36.65	30.75	24.28	21.98	44.43	255.5	1212	2184	2103	531.3	10.36	2.569	2.298	2.215	2.157	1.882	1.889	2.365	2.584	2.657	2.742	2.632	2.919	2.771	2.734	2.525	2.154	2.136	1.906	1.787	1.708	1.718	1.540	1.584	1.598	1.641	1.749	1.682	1.680	1.753	1.758	1.843	1.744
435.0	2058	601.8	588.0	606.7	664.2	708.3	700.6	631.8	487.8	375.4	323.7	315.2	298.6	291.8	274.0	257.4	244.5	236.2	224.1	204.9	183.2	164.3	158.7	158.7	154.7	150.9	144.5	139.6	131.9	124.1	116.6	122.9	107.6	63.78	43.96	36.80	27.21	21.28	22.10	65.70	277.0	519.5	1494	2500	230.3	11.56	3.105	2.588	2.265	1.986	1.957	2.505	2.809	2.817	2.771	3.082	3.118	3.311	3.431	2.789	2.623	2.308	2.013	1.817	1.758	1.673	1.581	1.489	1.663	1.546	1.727	1.731	1.675	1.832	1.743	1.749	1.900
440.0	3133	844.7	598.9	629.3	703.6	774.6	788.5	708.3	527.1	379.6	320.7	308.5	296.9	287.0	270.1	260.9	249.9	241.5	230.1	210.0	180.4	161.1	156.0	155.3	152.5	149.8	147.4	142.3	137.2	127.1	117.6	111.3	118.9	85.70	51.67	41.16	29.65	22.82	18.85	25.09	70.12	122.2	399.5	1800	1909	200.6	7.865	3.158	2.415	2.109	2.209	2.655	2.793	2.932	3.098	3.259	3.409	3.534	3.630	3.143	2.780	2.370	2.120	1.903	1.827	1.538	1.606	1.480	1.680	1.665	1.686	1.728	1.659	1.726	1.606	1.869	1.807
445.0	3361	1510	607.2	632.5	728.2	786.6	844.6	754.4	558.3	392.5	314.1	298.1	292.2	282.4	266.1	261.9	253.7	244.8	233.5	210.2	178.1	155.6	153.0	152.0	150.8	148.2	147.0	145.8	139.0	130.8	120.3	106.6	108.0	102.3	65.35	44.45	32.08	24.56	19.73	17.26	24.57	33.77	95.67	515.9	1992	1785	153.8	4.693	2.555	2.297	2.197	2.654	2.746	3.038	3.237	3.200	3.906	3.855	3.618	3.276	2.864	2.555	2.213	1.801	1.675	1.477	1.602	1.415	1.478	1.704	1.528	1.745	1.729	1.765	1.845	1.818	1.867
450.0	2146	2801	870.2	627.7	740.9	817.5	884.1	793.0	582.6	397.2	304.1	281.3	280.5	271.3	262.9	259.6	253.1	244.1	234.0	205.7	170.5	148.5	142.7	143.7	143.5	144.7	143.4	143.2	139.4	133.1	122.2	106.6	94.99	95.26	84.16	55.62	36.21	27.59	21.27	17.16	15.91	15.31	28.06	120.9	557.8	1550	2114	655.6	10.32	2.610	2.478	2.641	3.025	3.189	3.536	3.409	3.953	4.129	3.999	3.444	3.098	2.588	2.236	1.995	1.655	1.588	1.498	1.397	1.440	1.662	1.588	1.622	1.582	1.626	1.718	1.878	1.856
455.0	971.2	2829	1956	639.2	736.6	825.8	893.0	805.1	583.9	380.8	283.4	265.6	261.3	254.7	251.6	250.3	247.8	237.9	227.2	201.8	162.5	138.3	133.4	134.2	135.8	137.5	136.9	138.1	134.4	130.9	119.2	106.5	90.96	80.54	81.58	72.82	44.09	29.73	23.17	18.07	15.05	12.08	13.30	32.89	129.5	359.6	1216	2707	201.5	12.65	2.595	2.844	3.043	3.254	3.421	3.721	4.283	4.105	3.933	3.585	3.073	2.624	2.236	1.938	1.568	1.681	1.416	1.406	1.318	1.414	1.542	1.584	1.378	1.467	1.618	1.770	1.950
460.0	607.9	1888	3029	791.6	701.8	802.6	878.0	797.2	570.6	373.4	275.6	249.8	244.9	242.0	237.3	239.0	236.0	228.3	217.4	194.1	152.0	128.7	123.4	125.5	127.8	131.2	129.8	130.9	130.4	125.6	117.4	104.1	88.46	74.99	70.54	74.93	54.11	32.18	24.33	18.49	15.50	12.18	10.67	13.35	33.89	85.00	304.8	1629	1634	170.8	8.186	3.173	3.107	3.310	3.437	3.687	3.936	4.080	3.789	3.546	3.040	2.535	2.282	1.836	1.529	1.436	1.246	1.337	1.302	1.332	1.431	1.546	1.387	1.524	1.572	1.760	1.946
465.0	511.4	1019	3221	1456	676.1	774.4	852.6	766.6	547.3	352.7	261.0	231.3	227.4	227.3	225.8	227.2	224.0	215.8	205.7	181.9	143.0	118.9	113.3	115.3	117.4	121.4	124.1	124.7	123.2	120.4	113.3	99.30	86.57	71.50	62.63	65.10	60.88	38.45	25.52	18.19	15.65	12.92	10.48	9.326	12.88	23.69	72.69	430.0	1540	1424	141.9	5.809	3.253	3.297	3.447	3.794	3.929	3.944	3.625	3.589	3.088	2.650	2.084	1.671	1.479	1.246	1.211	1.286	1.328	1.364	1.404	1.465	1.390	1.456	1.542	1.761	1.793
470.0	493.1	583.2	1967	2722	866.2	725.1	787.1	707.8	507.9	325.6	236.0	211.7	209.3	204.2	203.9	206.3	203.3	197.0	188.8	164.3	128.4	106.4	101.4	103.6	106.0	108.4	111.2	112.3	112.8	110.2	103.9	92.65	80.57	67.28	57.03	51.67	51.30	46.30	30.52	19.58	15.87	13.12	10.55	8.989	8.862	10.20	20.47	100.0	407.5	1068	1340	606.3	13.01	3.487	3.412	3.439	3.802	3.742	3.540	3.380	2.748	2.550	2.019	1.602	1.356	1.241	1.224	1.173	1.202	1.213	1.262	1.389	1.289	1.438	1.444	1.477	1.639
475.0	512.3	454.5	828.3	2749	1863	680.7	709.1	634.6	458.1	299.5	210.6	186.5	186.0	183.4	182.4	180.7	180.7	176.2	168.3	145.7	114.4	94.30	89.60	90.64	93.60	94.69	99.21	100.7	101.1	101.4	94.53	84.75	72.87	62.60	53.43	46.02	40.31	41.75	38.82	23.42	16.20	12.87	10.42	8.946	8.180	7.422	8.687	25.97	93.84	242.7	563.2	1568	803.8	19.51	3.388	3.167	3.562	3.483	3.480	3.031	2.566	2.230	1.804	1.559	1.135	1.120	1.073	0.982	1.077	1.048	1.163	1.214	1.297	1.279	1.248	1.316	1.525
480.0	465.1	440.8	479.6	1776	2846	822.5	642.9	585.5	413.2	274.0	190.1	171.2	172.3	167.9	162.9	168.6	164.8	157.8	154.5	134.0	102.8	86.26	81.54	82.89	84.90	87.00	90.80	91.81	93.26	92.76	86.01	77.68	67.65	58.21	49.26	42.31	35.11	33.99	37.87	29.54	17.51	12.50	10.97	9.030	7.803	6.879	6.233	9.603	24.05	57.05	134.1	738.3	1758	756.9	13.90	3.417	3.324	3.248	3.247	2.838	2.438	2.122	1.546	1.372	1.125	1.029	0.980	1.065	1.010	1.049	1.100	1.125	1.130	1.207	1.174	1.271	1.452
485.0	412.9	440.8	373.5	900.7	3000	1436	592.4	539.8	385.8	248.9	172.6	157.3	156.0	155.9	150.8	148.5	152.2	147.2	141.4	122.1	93.84	78.47	73.82	76.17	77.78	81.98	83.20	84.03	86.59	85.52	80.50	73.83	63.64	55.81	45.77	39.43	32.84	28.44	31.64	32.34	21.30	13.40	10.84	9.111	7.885	6.922	6.084	5.908	8.801	15.70	32.86	184.6	1099	1779	190.9	7.487	3.262	3.282	3.052	2.470	2.321	1.935	1.573	1.406	1.138	1.003	0.973	0.967	0.989	1.028	1.000	1.023	1.005	1.046	1.013	1.178	1.245
490.0	318.4	437.2	340.6	472.0	1837	2766	791.6	484.7	348.8	224.1	154.6	145.8	139.9	136.9	134.7	135.0	134.1	131.1	125.6	109.2	84.60	70.21	67.12	68.30	69.90	72.15	75.12	75.47	77.84	76.80	72.09	66.99	57.66	51.69	43.11	36.97	30.51	25.90	24.53	27.91	25.93	17.44	11.30	9.211	7.857	6.924	6.261	5.645	5.493	6.417	9.973	44.03	272.4	880.3	1446	661.6	15.78	3.355	3.015	2.454	2.159	1.971	1.376	1.137	1.114	0.957	0.903	0.962	0.950	0.950	0.994	0.890	1.040	1.014	1.018	1.050	1.138
495.0	270.7	386.5	349.3	332.4	749.9	2905	1823	438.0	305.3	194.0	140.7	132.2	123.1	121.2	116.9	119.5	116.8	113.2	108.7	93.45	73.96	59.10	58.13	60.15	61.54	63.51	66.29	67.17	67.83	68.94	64.66	58.47	52.13	45.46	39.11	33.58	27.71	24.67	21.46	20.24	24.09	22.43	13.89	9.522	7.924	7.257	6.423	5.667	5.082	4.583	4.984	12.69	63.60	199.8	559.3	1427	820.6	22.40	3.275	2.382	2.052	1.789	1.368	1.137	0.985	0.944	0.878	0.829	0.867	0.735	0.858	0.817	0.858	1.002	0.863	1.073	0.949
500.0	226.9	304.0	362.6	286.6	418.9	1848	2894	537.5	269.6	178.0	131.9	121.6	112.0	107.4	103.9	105.5	105.4	98.67	96.46	83.70	64.66	53.83	53.24	53.68	54.07	57.28	58.56	59.85	61.11	60.60	58.28	53.66	47.29	41.08	35.80	30.49	25.50	22.41	19.48	17.46	18.68	22.75	17.62	10.68	8.088	7.226	6.652	5.816	5.342	4.522	3.961	5.707	17.11	47.47	131.1	603.6	1407	714.7	17.87	2.616	2.025	1.766	1.204	1.071	0.917	0.845	0.808	0.773	0.822	0.687	0.693	0.738	0.862	0.857	0.820	0.906	0.808
505.0	192.6	236.5	335.7	275.3	304.2	900.6	3171	1018	247.5	158.3	118.1	107.0	100.1	98.29	96.84	94.43	92.90	88.20	85.31	75.58	58.98	47.83	46.71	48.21	49.07	50.62	52.69	53.06	54.81	54.53	52.32	48.30	42.96	38.02	31.99	27.95	23.85	20.74	17.94	15.90	15.36	18.56	19.97	12.85	8.828	7.280	6.300	5.701	5.393	5.093	4.045	4.193	6.660	13.69	32.31	145.9	714.7	1579	217.3	10.23	2.280	1.869	1.231	0.983	1.031	0.886	0.772	0.706	0.730	0.724	0.750	0.725	0.684	0.832	0.757	0.870	0.794
510.0	170.9	194.4	255.2	288.2	254.9	424.5	1888	2155	410.7	135.5	105.5	92.57	88.90	86.53	83.46	81.02	79.74	76.40	72.98	64.32	50.71	42.20	40.89	41.79	42.01	43.89	45.93	45.37	48.04	46.55	45.13	41.57	37.26	33.09	29.05	25.29	21.88	18.66	16.43	14.59	13.24	13.64	16.76	16.17	10.76	7.380	6.274	5.584	5.163	4.793	4.418	3.997	4.234	5.779	9.969	35.23	172.0	716.9	1005	610.3	16.74	2.236	1.371	0.937	0.848	0.801	0.748	0.725	0.693	0.651	0.736	0.681	0.679	0.707	0.636	0.737	0.816
515.0	155.6	161.4	182.6	277.3	238.2	267.0	685.1	2395	1318	133.5	92.05	80.35	77.45	74.47	69.94	67.52	65.25	64.52	61.69	52.95	43.80	36.51	34.99	35.82	36.61	37.07	38.11	40.43	39.86	39.59	39.48	35.66	31.29	28.47	25.18	22.19	19.36	16.90	14.73	13.19	11.88	11.18	11.89	14.87	13.80	9.165	6.505	5.482	5.033	4.352	4.237	4.477	3.964	4.021	4.687	10.22	40.66	162.3	325.5	1121	816.1	23.82	1.463	1.104	0.804	0.839	0.721	0.729	0.767	0.638	0.676	0.593	0.746	0.665	0.600	0.712	0.908
520.0	141.2	146.5	139.7	233.0	248.7	213.4	318.7	1576	2377	229.0	84.71	73.15	67.79	66.66	61.81	59.95	58.28	56.51	53.68	45.64	37.25	31.60	30.81	32.25	32.45	32.84	33.25	34.86	35.01	35.18	35.11	31.77	27.59	25.13	21.92	19.86	17.25	14.78	13.65	12.17	11.46	10.13	9.797	11.24	14.65	11.34	6.937	5.648	4.961	4.287	4.091	4.291	4.037	3.457	3.649	4.732	11.34	38.35	76.06	445.5	1236	668.2	16.20	1.170	0.931	0.793	0.692	0.653	0.673	0.676	0.615	0.611	0.546	0.608	0.619	0.665	0.640
525.0	116.4	131.9	123.5	183.4	256.2	194.5	215.4	707.4	3021	810.1	77.42	69.15	61.15	60.25	57.15	53.61	51.74	49.14	46.60	41.48	32.26	28.08	27.08	28.23	27.38	29.27	29.62	30.97	31.58	31.83	30.01	28.03	25.17	22.91	19.80	17.61	15.74	13.97	13.10	11.48	10.51	9.624	8.781	9.111	12.24	12.69	8.212	5.585	4.611	4.095	3.845	3.893	4.036	3.341	3.122	3.321	4.569	10.67	18.87	105.8	584.0	1350	208.6	9.055	1.023	0.778	0.712	0.675	0.633	0.577	0.541	0.646	0.524	0.661	0.532	0.517	0.570
530.0	107.6	105.6	105.8	125.5	217.1	202.7	166.2	276.2	1897	2362	167.5	59.42	54.09	51.61	48.42	46.33	43.77	41.01	39.77	35.20	28.63	24.23	23.74	24.33	24.17	24.99	25.14	26.21	26.61	27.24	26.02	24.15	21.51	20.04	17.20	15.79	13.79	12.62	11.48	10.21	9.486	8.476	7.750	7.448	8.219	10.93	10.30	6.810	4.663	4.054	3.576	3.543	3.597	3.586	3.309	2.840	2.938	4.220	5.965	25.30	138.3	576.9	752.5	423.9	15.86	1.106	0.695	0.610	0.570	0.592	0.527	0.525	0.479	0.540	0.534	0.530	0.595
535.0	88.30	88.42	88.49	94.43	152.3	214.5	151.6	154.2	590.9	2932	1117	58.73	48.05	44.19	39.61	37.79	37.13	34.55	32.95	29.27	23.89	20.92	20.15	20.85	20.08	21.29	21.10	22.41	22.06	22.27	21.98	20.69	17.97	16.52	14.34	13.45	11.96	10.71	9.692	9.174	8.379	7.686	6.894	6.532	6.247	7.548	9.819	8.883	5.136	3.815	3.267	3.142	2.930	2.946	3.342	2.958	2.475	2.643	2.763	7.251	31.95	129.9	232.5	673.0	605.4	21.49	0.841	0.642	0.705	0.524	0.576	0.421	0.491	0.463	0.519	0.438	0.471
540.0	90.67	72.53	71.02	78.44	107.4	203.3	142.6	110.2	198.9	1811	2284	131.5	42.92	39.63	36.12	34.62	31.87	29.96	29.06	25.14	20.54	18.24	17.35	17.80	17.75	18.03	18.81	19.77	19.28	19.47	19.16	18.16	15.65	14.79	12.75	11.93	10.81	9.761	8.912	7.864	7.357	6.854	6.621	5.815	5.588	5.663	7.726	8.956	6.555	4.120	2.994	3.156	2.898	2.708	2.800	3.003	2.487	2.233	2.096	3.054	8.348	30.22	53.59	252.4	876.5	235.3	13.59	0.791	0.665	0.536	0.588	0.446	0.498	0.464	0.484	0.380	0.495
545.0	80.80	67.62	68.44	72.52	82.11	168.8	154.5	90.49	100.9	696.1	2763	515.3	39.49	34.48	32.62	30.01	28.56	25.76	25.20	22.53	18.18	16.22	15.58	15.15	15.46	16.19	16.49	17.07	17.29	17.34	17.05	15.78	13.99	12.82	11.88	10.67	9.153	8.797	7.949	7.225	6.808	6.053	5.832	5.467	4.965	4.782	5.410	7.223	7.506	4.810	3.133	2.737	2.729	2.505	2.596	2.814	2.557	2.147	1.884	1.833	3.102	7.930	13.10	59.46	399.3	796.2	187.6	5.710	0.823	0.568	0.468	0.435	0.507	0.464	0.405	0.412	0.460
550.0	67.92	65.46	60.61	58.64	65.88	108.4	166.3	89.77	69.71	203.3	1577	1721	104.8	29.67	26.93	24.99	22.92	21.52	20.75	18.27	14.77	13.18	13.03	13.10	12.99	13.13	13.46	13.90	14.06	14.28	14.05	12.96	12.01	10.73	9.822	9.030	7.924	7.368	6.688	6.207	5.896	5.375	4.958	4.616	4.408	4.235	4.332	5.159	6.336	5.651	3.758	2.616	2.224	2.292	2.181	2.226	2.436	2.233	1.771	1.542	1.744	2.690	3.750	14.10	93.96	340.8	505.5	261.7	14.10	0.828	0.563	0.487	0.453	0.456	0.414	0.350	0.391
555.0	61.95	60.15	54.82	47.39	50.95	65.26	129.3	109.4	53.04	76.89	449.3	2141	925.4	28.75	22.59	21.98	19.07	17.50	16.48	14.59	11.75	11.09	10.24	10.20	10.81	10.54	10.45	11.65	11.35	11.54	11.30	10.63	9.505	8.524	7.874	7.263	6.636	6.186	5.722	5.455	4.958	4.498	4.368	3.905	3.724	3.618	3.349	3.587	4.228	5.083	4.546	2.809	1.976	2.127	1.843	1.900	1.850	1.944	1.892	1.229	1.242	1.355	1.660	3.789	21.68	76.76	154.0	471.4	240.5	18.71	0.720	0.506	0.415	0.416	0.417	0.358	0.385
560.0	55.84	55.61	43.81	41.64	41.98	51.57	92.33	130.7	49.77	46.71	127.8	1289	2368	75.77	20.13	18.03	16.18	14.57	13.69	11.87	10.06	9.372	8.650	8.298	9.293	8.982	8.705	9.963	9.742	9.584	9.503	8.790	7.747	7.385	6.854	5.932	5.410	5.402	4.842	4.711	4.108	4.098	3.692	3.379	3.251	3.201	2.948	2.917	3.024	3.940	4.538	3.214	2.018	1.809	1.682	1.704	1.471	1.632	1.793	1.566	1.092	1.072	1.035	1.397	5.540	17.90	35.56	176.0	453.4	209.1	11.11	0.599	0.508	0.422	0.406	0.347	0.412
565.0	52.94	51.62	45.65	40.44	36.62	39.67	58.31	130.8	63.60	34.65	52.95	474.5	3132	338.4	18.55	15.97	13.60	12.56	11.56	10.58	8.507	8.265	7.332	7.443	7.411	7.291	7.748	8.077	8.360	8.015	8.069	7.594	6.854	6.349	6.101	5.273	4.849	4.723	4.246	3.892	3.609	3.388	3.208	3.219	3.051	2.975	2.694	2.644	2.415	2.935	3.907	3.533	2.277	1.693	1.450	1.468	1.360	1.244	1.431	1.631	1.163	0.986	0.927	0.882	1.889	4.657	8.539	41.09	204.6	453.4	159.3	4.088	0.596	0.394	0.388	0.344	0.404
570.0	50.01	50.16	40.62	32.41	29.12	32.75	37.19	92.03	90.45	33.53	33.25	133.8	1812	1356	60.66	14.40	11.24	10.28	9.436	8.695	7.317	6.549	6.346	6.474	6.027	5.957	6.041	6.717	6.521	6.716	6.609	6.015	5.784	5.210	4.841	4.526	4.034	3.794	3.571	3.256	3.112	2.749	2.707	2.545	2.437	2.429	2.311	2.127	1.935	1.985	2.503	3.127	2.690	1.812	1.301	1.262	1.165	1.056	1.164	1.366	1.416	1.110	0.792	0.765	0.907	1.633	2.451	9.734	48.15	188.6	343.2	140.0	12.60	0.599	0.371	0.318	0.319
575.0	51.15	50.01	41.82	28.67	25.97	26.99	29.03	47.78	107.6	47.37	28.71	49.28	487.7	1798	580.2	14.77	9.857	8.683	7.796	7.038	5.838	5.669	5.214	5.277	5.010	4.936	4.887	5.239	5.058	5.431	5.114	4.869	4.681	4.211	3.838	3.655	3.508	3.092	3.153	2.873	2.408	2.347	2.198	2.177	2.124	1.958	1.871	1.689	1.488	1.515	1.658	2.238	2.559	2.113	1.362	1.040	0.963	0.900	0.971	1.003	1.193	1.306	0.885	0.747	0.682	0.774	1.047	2.619	11.15	42.55	103.4	299.1	213.2	16.62	0.521	0.343	0.365
580.0	54.57	54.86	41.26	28.02	22.97	24.34	25.94	30.42	87.98	70.87	28.20	29.60	130.2	1102	1566	47.49	9.220	7.735	6.862	6.009	5.023	5.067	4.736	4.560	4.318	4.159	4.373	4.171	4.386	4.918	4.375	4.152	4.051	3.800	3.319	3.109	2.989	2.873	2.746	2.589	2.285	1.980	2.093	1.787	1.790	1.786	1.597	1.468	1.422	1.299	1.328	1.548	2.113	2.109	1.557	1.046	0.914	0.852	0.905	0.846	0.841	1.096	1.197	0.722	0.668	0.634	0.638	1.132	3.022	9.986	23.80	113.2	322.2	177.7	7.641	0.475	0.391
585.0	62.39	46.00	40.20	28.64	20.52	22.57	21.99	23.72	60.32	89.54	31.50	26.65	47.70	401.1	2144	267.8	8.411	6.886	6.431	5.525	4.339	4.327	3.810	3.902	3.734	3.712	3.893	3.679	3.900	3.784	3.840	3.568	3.315	3.296	2.835	2.671	2.596	2.387	2.225	2.129	1.885	1.713	1.805	1.627	1.545	1.422	1.534	1.418	1.200	1.235	1.073	1.184	1.568	1.948	1.806	1.119	0.837	0.835	0.775	0.691	0.727	0.933	1.213	0.950	0.651	0.608	0.605	0.638	1.123	2.715	5.751	26.50	144.2	352.4	34.55	2.480	0.397
590.0	56.41	45.46	35.23	26.63	19.46	22.46	21.61	23.24	37.67	89.57	53.81	26.83	29.14	110.6	1281	1342	28.42	6.391	5.119	4.440	3.743	3.659	3.293	3.363	3.226	3.105	3.128	3.282	3.318	3.178	3.159	3.038	2.779	2.675	2.585	2.344	2.030	2.108	1.914	1.802	1.707	1.611	1.564	1.473	1.320	1.377	1.346	1.244	1.036	1.059	0.928	0.955	1.052	1.390	1.756	1.303	0.888	0.773	0.703	0.610	0.638	0.694	0.824	1.005	0.763	0.622	0.553	0.573	0.641	0.932	1.700	6.292	34.00	144.5	197.0	117.9	10.93
595.0	50.05	45.15	42.61	27.38	19.70	23.25	22.74	24.24	29.59	64.44	83.20	34.27	29.98	42.16	350.3	2099	247.9	6.916	4.692	3.597	3.037	3.036	3.075	2.745	2.758	2.807	2.482	2.570	2.498	2.646	2.675	2.424	2.331	2.289	1.986	2.137	1.818	1.634	1.600	1.556	1.454	1.378	1.240	1.111	1.116	1.116	1.162	1.038	0.936	0.966	0.804	0.761	0.715	0.908	1.287	1.350	1.021	0.852	0.607	0.576	0.587	0.614	0.648	0.772	1.047	0.784	0.494	0.504	0.572	0.590	0.736	1.762	7.894	32.54	59.28	197.3	138.8
600.0	54.95	48.64	38.18	28.59	24.52	24.39	26.67	29.98	35.25	52.11	95.48	49.93	34.63	30.48	97.85	1399	663.1	16.12	4.417	3.538	2.898	2.710	2.609	2.526	2.522	2.320	2.096	2.216	2.163	2.359	2.420	2.148	2.096	1.924	1.701	1.833	1.507	1.469	1.371	1.476	1.415	1.189	1.205	1.042	1.007	0.912	0.944	0.931	0.816	0.668	0.677	0.641	0.631	0.701	0.907	1.236	1.130	0.942	0.620	0.573	0.550	0.555	0.566	0.656	0.796	0.964	0.642	0.531	0.532	0.483	0.535	0.764	2.033	7.614	13.65	73.16	192.6
605.0	59.45	59.03	44.90	33.46	28.16	28.88	33.77	37.21	43.44	53.59	101.2	81.60	49.85	37.54	46.36	530.2	976.9	71.42	4.330	3.110	2.737	2.378	2.072	2.168	2.156	2.105	2.027	1.682	1.907	1.969	2.145	1.886	1.812	1.893	1.722	1.573	1.417	1.370	1.406	1.203	1.190	1.071	0.969	0.970	0.900	0.809	0.859	0.830	0.692	0.726	0.696	0.686	0.708	0.671	0.796	0.957	1.130	0.977	0.694	0.566	0.598	0.601	0.609	0.612	0.623	0.885	0.887	0.637	0.449	0.555	0.507	0.552	0.832	2.067	3.404	17.24	82.46
610.0	72.94	75.13	59.74	44.77	37.17	37.70	47.49	55.33	65.53	80.75	111.7	140.6	89.78	65.81	57.78	161.4	648.8	617.4	15.37	2.991	2.561	2.295	2.180	1.896	1.670	1.776	1.753	1.606	1.704	1.837	1.987	1.764	1.624	1.685	1.479	1.398	1.327	1.283	1.172	1.087	1.091	0.970	0.898	0.883	0.864	0.832	0.872	0.802	0.729	0.704	0.647	0.616	0.594	0.653	0.632	0.786	1.013	1.073	0.901	0.690	0.666	0.719	0.665	0.723	0.759	0.799	0.990	1.026	0.801	0.679	0.673	0.583	0.617	0.977	1.240	4.304	19.39
615.0	86.41	90.35	78.67	49.78	41.11	42.86	55.01	67.50	75.31	98.29	118.1	155.8	124.0	88.06	69.31	77.46	214.9	935.2	74.72	3.383	2.371	2.076	1.967	1.732	1.503	1.437	1.593	1.359	1.618	1.689	1.596	1.474	1.390	1.367	1.302	1.273	1.216	1.228	1.197	0.939	0.913	0.840	0.825	0.743	0.853	0.719	0.791	0.648	0.663	0.672	0.562	0.602	0.511	0.524	0.596	0.555	0.726	0.917	1.005	0.864	0.731	0.718	0.652	0.765	0.788	0.815	0.842	1.143	0.940	0.774	0.787	0.683	0.635	0.773	0.715	1.419	4.756
620.0	83.29	87.20	75.41	50.50	44.72	45.09	59.27	67.01	79.27	93.66	112.9	143.2	139.4	90.42	70.62	58.19	87.22	644.3	416.1	7.002	1.938	1.748	1.641	1.725	1.578	1.272	1.324	1.345	1.619	1.543	1.310	1.174	1.171	1.152	1.100	1.180	0.888	0.906	1.026	0.942	0.778	0.745	0.703	0.657	0.762	0.731	0.695	0.614	0.700	0.591	0.573	0.501	0.598	0.529	0.554	0.545	0.681	0.757	0.958	0.970	0.774	0.672	0.626	0.791	0.657	0.817	0.867	1.022	1.105	0.889	0.773	0.670	0.630	0.685	0.592	0.770	1.452
625.0	88.59	85.88	77.85	55.58	42.07	49.36	58.71	66.69	76.09	92.67	109.3	127.2	144.5	95.20	74.72	54.28	55.26	260.5	689.1	40.72	2.127	1.676	1.557	1.681	1.510	1.140	1.202	1.102	1.246	1.168	1.160	1.045	1.077	1.091	0.976	0.932	0.863	0.909	0.928	0.953	0.753	0.775	0.654	0.600	0.690	0.701	0.714	0.625	0.646	0.536	0.496	0.474	0.469	0.502	0.542	0.507	0.539	0.577	0.897	0.914	0.764	0.626	0.634	0.750	0.712	0.724	0.770	0.812	0.962	1.113	0.948	0.741	0.577	0.654	0.574	0.565	0.737
630.0	83.95	94.90	81.61	60.58	48.07	49.16	60.31	67.42	75.09	91.00	104.2	117.9	136.9	110.6	75.21	55.05	47.40	82.60	495.3	318.5	7.196	1.607	1.507	1.402	1.317	0.980	1.063	1.077	1.007	1.025	1.053	0.967	0.963	0.845	0.790	0.766	0.761	0.790	0.783	0.867	0.793	0.635	0.583	0.605	0.628	0.692	0.625	0.592	0.616	0.533	0.437	0.512	0.460	0.456	0.486	0.439	0.513	0.522	0.662	0.813	0.771	0.656	0.609	0.732	0.705	0.757	0.764	0.804	0.893	0.962	0.910	0.814	0.570	0.650	0.577	0.468	0.501
635.0	89.60	104.2	94.17	64.10	53.86	51.44	60.78	69.45	74.88	90.03	108.6	116.6	127.6	122.1	80.51	54.96	45.74	37.75	147.3	539.7	56.76	1.883	1.301	1.335	1.276	0.895	0.979	0.940	0.881	0.945	0.782	0.864	0.806	0.831	0.672	0.737	0.661	0.694	0.743	0.676	0.709	0.660	0.531	0.570	0.558	0.670	0.556	0.566	0.556	0.528	0.432	0.463	0.453	0.490	0.458	0.466	0.531	0.533	0.540	0.635	0.761	0.706	0.726	0.765	0.696	0.666	0.748	0.729	0.785	0.846	0.909	0.972	0.667	0.633	0.572	0.487	0.494
640.0	107.4	124.6	99.83	70.86	53.52	51.45	59.55	67.78	72.14	89.15	104.4	116.1	122.0	121.9	87.95	55.32	45.52	27.75	40.81	409.4	283.1	3.705	1.604	1.194	1.153	0.909	0.890	0.767	0.827	0.895	0.737	0.773	0.576	0.758	0.662	0.740	0.582	0.588	0.632	0.683	0.660	0.694	0.472	0.576	0.643	0.540	0.567	0.686	0.508	0.476	0.465	0.491	0.451	0.526	0.414	0.404	0.500	0.530	0.521	0.601	0.670	0.696	0.724	0.724	0.667	0.675	0.642	0.706	0.747	0.796	0.760	0.995	0.880	0.671	0.652	0.613	0.506
645.0	117.7	143.1	111.3	70.35	51.05	49.32	57.72	64.97	69.62	89.02	106.2	116.5	117.1	113.6	94.79	55.88	44.21	26.25	15.70	173.4	492.9	30.02	1.518	1.226	1.129	0.801	0.902	0.772	0.764	0.896	0.825	0.726	0.602	0.791	0.614	0.617	0.609	0.482	0.656	0.581	0.584	0.742	0.532	0.557	0.569	0.531	0.674	0.702	0.513	0.467	0.459	0.401	0.388	0.469	0.430	0.439	0.451	0.623	0.517	0.561	0.667	0.706	0.679	0.695	0.745	0.692	0.757	0.721	0.695	0.859	0.729	0.891	0.858	0.740	0.630	0.595	0.511
650.0	144.0	171.3	131.6	76.90	51.40	49.30	58.31	68.02	69.08	85.54	103.8	112.1	114.4	106.4	96.63	57.02	42.09	24.29	10.16	50.17	479.8	160.1	1.948	1.248	0.986	0.874	0.801	0.699	0.691	0.732	0.857	0.675	0.585	0.639	0.520	0.601	0.609	0.517	0.486	0.550	0.463	0.567	0.740	0.574	0.569	0.630	0.678	0.719	0.650	0.473	0.483	0.376	0.374	0.410	0.436	0.422	0.424	0.574	0.482	0.550	0.533	0.573	0.628	0.691	0.684	0.632	0.718	0.726	0.797	0.873	0.783	0.694	0.703	0.737	0.646	0.477	0.450
