Sample:	'1
File name:	Default_20240702_204813.FD3
Run date:	'20:41:53, 07/02/2024
Operator:	dsjg
Comment:	'

Instrument
Model:	F-2700 FL Spectrophotometer
Serial number:	2198-001
ROM Version:	4J14000 07

Instrument parameters
Measurement type:	3-D scan
Data mode:	Fluorescence
EX  Start WL:	220.0 nm
EX  End WL:	600.0 nm
EX Sampling interval:	5.0 nm
EM  Start WL:	230.0 nm
EM  End WL:	650.0 nm
EM Sampling interval:	5.0 nm
Scan speed:	12000 nm/min
EX Slit:	5.0 nm
EM Slit:	5.0 nm
PMT Voltage:	700 V
Response:	Auto 
Corrected spectra:	Off
Contour interval:	50.000

Peak integration
Integration method:	Rectangular
Sensitivity:	1
Threshold:	1.000

Peaks
No.	ApexEX/EM(nm)	Height(Data)
1	225.0/635.0	30.71
2	230.0/630.0	30.62
3	250.0/440.0	 3822
4	270.0/420.0	 3416
5	285.0/390.0	 3570
6	325.0/405.0	 4954
7	510.0/445.0	20.23

Data points
	220.0	225.0	230.0	235.0	240.0	245.0	250.0	255.0	260.0	265.0	270.0	275.0	280.0	285.0	290.0	295.0	300.0	305.0	310.0	315.0	320.0	325.0	330.0	335.0	340.0	345.0	350.0	355.0	360.0	365.0	370.0	375.0	380.0	385.0	390.0	395.0	400.0	405.0	410.0	415.0	420.0	425.0	430.0	435.0	440.0	445.0	450.0	455.0	460.0	465.0	470.0	475.0	480.0	485.0	490.0	495.0	500.0	505.0	510.0	515.0	520.0	525.0	530.0	535.0	540.0	545.0	550.0	555.0	560.0	565.0	570.0	575.0	580.0	585.0	590.0	595.0	600.0
230.0	23.76	800.6	 1752	380.7	10.11	2.285	1.763	1.974	2.032	2.389	2.546	2.450	2.595	2.334	1.984	1.927	1.921	1.947	2.019	1.976	2.119	2.189	2.184	2.210	2.031	1.888	1.926	1.683	1.734	1.671	1.572	1.351	1.407	1.249	1.203	1.288	1.100	1.060	1.017	0.851	0.772	0.662	0.497	0.443	0.344	0.364	0.420	1.628	4.178	4.408	2.310	0.534	0.217	0.161	0.182	0.140	0.119	0.131	0.077	0.069	0.100	0.062	0.036	0.043	0.043	0.053	0.037	0.001	0.006	0.004	-0.001	-0.045	-0.036	-0.035	-0.057	-0.083	-0.078
235.0	8.906	225.0	 1279	 1712	367.5	15.45	3.236	2.708	2.315	2.856	2.546	2.909	2.444	2.202	2.159	1.941	1.976	2.036	2.276	1.952	2.123	2.455	2.208	2.242	2.093	2.050	1.962	1.848	1.868	1.549	1.520	1.470	1.416	1.292	1.187	1.199	1.127	1.115	1.174	0.988	0.838	0.655	0.546	0.502	0.332	0.424	0.352	0.585	1.389	2.884	4.622	6.191	3.740	0.946	0.240	0.192	0.131	0.143	0.027	0.066	0.124	0.036	0.111	-0.017	0.047	0.017	0.022	0.023	-0.042	0.003	0.004	-0.051	-0.050	-0.013	-0.059	-0.059	-0.080
240.0	11.26	61.49	416.3	 1573	 1802	263.9	6.835	2.916	2.594	2.683	3.155	2.674	2.769	2.892	2.393	2.153	2.003	1.947	1.962	2.261	2.215	2.600	2.254	2.327	1.851	2.195	1.971	1.689	1.849	1.514	1.668	1.328	1.481	1.226	1.216	1.221	1.255	1.147	1.056	0.960	0.925	0.691	0.579	0.416	0.376	0.387	0.376	0.470	0.528	0.874	2.085	5.584	8.890	7.962	3.048	0.546	0.196	0.125	0.083	0.073	0.061	0.069	0.055	0.079	0.047	0.005	0.018	0.016	0.013	0.003	-0.020	-0.056	-0.035	-0.036	-0.053	-0.013	-0.066
245.0	14.39	31.79	104.3	595.2	 2049	 1604	173.5	4.385	3.058	2.845	3.390	2.848	2.348	2.693	2.689	2.056	2.505	2.050	2.331	2.192	2.330	2.483	2.123	2.321	2.160	2.196	2.056	1.852	1.775	1.516	1.696	1.376	1.371	1.325	1.276	1.109	1.232	1.311	1.113	1.021	0.900	0.660	0.487	0.514	0.402	0.423	0.368	0.395	0.338	0.403	0.709	1.784	5.012	9.838	11.06	6.788	1.843	0.240	0.093	0.120	0.043	0.051	0.046	0.103	0.028	-0.002	0.072	0.038	0.002	0.000	-0.005	-0.055	0.009	-0.017	-0.059	-0.041	-0.063
250.0	6.258	19.85	46.00	146.7	707.1	 1664	 1627	577.5	30.77	3.991	3.928	3.522	3.192	2.968	2.817	2.432	2.548	2.279	2.423	2.420	2.379	2.588	2.509	2.469	2.242	2.343	1.973	1.891	1.719	1.653	1.625	1.450	1.340	1.317	1.304	1.157	1.247	1.059	1.070	1.023	0.875	0.760	0.519	0.471	0.372	0.426	0.415	0.393	0.364	0.355	0.385	0.573	1.273	3.004	5.675	8.799	11.38	9.749	5.611	1.646	0.236	0.096	0.128	0.065	0.043	-0.009	0.104	0.013	-0.012	-0.016	0.014	-0.049	0.005	-0.023	-0.062	-0.076	-0.035
255.0	6.144	8.010	27.05	59.27	167.9	436.6	 1328	 2284	244.2	29.17	4.954	4.335	3.493	3.313	3.118	2.577	2.433	2.493	2.314	2.665	2.354	2.598	2.562	2.383	2.231	2.450	2.162	1.875	1.821	1.693	1.709	1.626	1.434	1.309	1.112	1.210	1.183	1.186	1.092	0.992	0.783	0.686	0.494	0.439	0.431	0.345	0.404	0.363	0.389	0.296	0.351	0.434	0.514	0.755	1.422	2.141	4.008	7.930	13.78	14.27	7.878	1.736	0.259	0.167	0.070	0.007	0.078	0.025	0.024	0.033	-0.013	-0.024	-0.017	-0.026	-0.072	-0.049	-0.076
260.0	5.467	6.010	13.86	35.01	62.80	107.3	419.3	 1918	 1926	207.0	15.42	5.449	4.175	3.615	3.190	3.170	2.268	2.672	2.564	2.439	2.605	2.828	2.582	2.432	2.670	2.504	2.064	1.949	1.921	1.638	1.903	1.621	1.411	1.273	1.364	1.233	1.230	1.074	1.051	0.860	0.786	0.687	0.620	0.566	0.437	0.379	0.387	0.373	0.343	0.326	0.320	0.424	0.399	0.402	0.481	0.661	1.052	2.259	5.459	11.67	16.65	13.78	15.27	1.130	0.083	0.042	0.110	0.030	0.016	-0.003	-0.034	-0.047	0.005	-0.050	-0.060	-0.042	-0.037
265.0	6.830	6.254	10.28	17.92	45.74	45.49	105.1	680.1	 2275	 1696	168.0	9.651	4.198	4.009	3.555	3.413	2.759	2.937	2.519	2.568	2.747	2.873	2.754	2.507	2.688	2.450	2.282	2.194	1.972	1.775	1.833	1.641	1.514	1.466	1.400	1.345	1.221	1.030	1.018	0.861	0.789	0.713	0.586	0.519	0.463	0.355	0.370	0.389	0.349	0.307	0.268	0.278	0.317	0.398	0.386	0.307	0.458	0.662	1.402	3.392	8.257	15.91	47.46	13.17	3.858	0.294	0.081	0.000	-0.002	0.055	0.003	-0.033	-0.052	-0.002	-0.025	-0.033	-0.016
270.0	23.30	11.36	9.853	12.83	28.40	51.95	63.19	182.3	751.1	 1969	 2244	700.0	48.03	5.634	4.277	3.996	3.336	3.218	2.991	2.921	2.812	2.842	2.902	2.679	2.641	2.502	2.369	2.207	2.148	1.984	1.915	1.742	1.509	1.495	1.261	1.337	1.306	1.179	1.085	1.003	0.859	0.691	0.636	0.577	0.595	0.487	0.424	0.396	0.383	0.292	0.276	0.263	0.258	0.265	0.363	0.447	0.477	0.431	0.548	0.985	2.124	4.609	16.87	13.78	16.95	17.04	10.89	3.900	0.433	0.047	0.058	-0.002	-0.035	-0.029	-0.056	-0.017	-0.047
275.0	50.94	30.06	18.43	14.93	24.06	45.08	86.33	115.2	236.3	558.6	 1680	 3530	 1062	60.41	6.428	5.379	3.980	3.717	3.502	3.209	3.033	2.955	2.963	2.895	2.544	2.635	2.351	2.446	1.974	2.084	1.905	1.794	1.489	1.506	1.442	1.373	1.260	1.318	1.189	1.152	1.044	0.829	0.761	0.663	0.607	0.585	0.504	0.397	0.407	0.304	0.375	0.279	0.206	0.303	0.296	0.400	0.516	0.601	0.572	0.666	0.861	1.406	4.272	3.504	5.331	10.70	20.20	26.02	17.65	4.231	0.239	0.035	0.012	0.032	-0.044	0.003	-0.040
280.0	97.93	53.69	33.79	22.47	29.45	49.71	93.53	152.8	191.4	277.8	643.0	 2474	 4072	870.4	36.33	6.550	5.052	3.873	3.826	3.831	3.251	3.062	3.008	3.191	2.808	2.572	2.486	2.463	2.045	2.042	1.917	1.807	1.856	1.606	1.469	1.548	1.366	1.350	1.291	1.177	1.180	0.906	0.813	0.811	0.736	0.788	0.686	0.524	0.559	0.445	0.480	0.356	0.342	0.347	0.360	0.468	0.499	0.605	0.822	1.036	0.999	1.101	1.718	1.591	2.044	3.415	7.627	17.27	29.48	27.87	13.54	1.998	0.093	0.069	0.025	-0.017	-0.027
285.0	150.1	105.8	63.66	41.75	42.41	66.92	109.5	199.2	269.1	338.6	450.0	 1026	 3200	 4494	662.9	18.20	6.155	5.079	4.212	4.095	3.782	3.687	3.386	3.237	3.033	2.840	2.684	2.514	2.244	2.165	1.944	1.824	1.950	1.630	1.462	1.538	1.426	1.408	1.401	1.209	1.176	0.981	0.944	0.846	0.795	0.915	0.776	0.683	0.698	0.521	0.521	0.416	0.375	0.369	0.425	0.509	0.612	0.726	0.849	1.157	1.473	1.649	1.650	1.757	2.042	2.284	3.324	5.818	12.35	24.63	35.76	25.51	8.815	0.566	0.065	-0.008	0.019
290.0	271.7	222.2	141.8	87.49	79.45	105.1	163.7	270.6	420.6	579.7	656.7	755.0	 1248	 2936	 4298	 2318	39.40	7.324	5.906	5.252	4.464	4.199	3.855	3.425	3.398	3.067	2.954	2.519	2.288	2.248	2.274	1.974	1.863	1.650	1.651	1.582	1.645	1.516	1.532	1.272	1.320	1.189	1.126	1.056	1.036	1.031	1.055	0.953	1.031	0.725	0.618	0.579	0.523	0.558	0.556	0.716	0.871	1.064	1.281	1.474	1.893	2.411	2.864	3.071	3.409	3.266	3.556	3.898	4.868	7.771	14.04	22.43	26.61	28.94	16.17	6.531	0.542
295.0	405.6	336.4	239.5	143.1	117.7	152.2	228.1	347.0	523.7	763.3	944.3	907.9	792.3	959.0	 2096	 5897	 3764	49.25	8.674	6.692	5.639	5.117	4.935	4.147	3.419	3.304	3.238	2.639	2.587	2.465	2.270	2.169	2.019	1.872	1.747	1.777	1.647	1.485	1.623	1.610	1.455	1.229	1.346	1.148	1.347	1.435	1.304	1.204	1.227	0.956	0.770	0.745	0.819	0.679	0.758	0.868	1.186	1.314	1.665	1.989	2.340	2.866	3.592	4.145	5.025	4.874	4.594	4.532	4.095	4.231	4.963	6.072	7.979	14.88	33.07	47.93	25.49
300.0	478.0	421.7	300.2	188.5	154.1	179.2	268.3	391.9	587.6	844.1	 1075	 1070	784.8	568.5	717.4	 3114	 7443	 2826	35.05	8.504	6.761	5.627	5.263	4.462	3.736	3.544	3.443	3.008	2.683	2.396	2.218	2.306	2.281	1.963	1.940	1.800	1.737	1.687	1.705	1.544	1.304	1.365	1.401	1.369	1.443	1.433	1.427	1.439	1.430	1.121	0.941	0.955	0.852	0.804	0.898	1.037	1.427	1.517	1.960	2.237	2.587	3.096	4.043	4.787	5.588	5.597	5.796	5.385	4.443	3.863	3.423	2.829	2.886	4.287	10.87	27.15	48.49
305.0	489.4	503.2	352.9	222.7	184.5	204.9	292.1	421.5	624.7	876.4	 1124	 1170	887.0	559.8	392.7	979.6	 4257	 8095	508.5	22.83	8.510	6.897	6.079	4.906	4.582	4.062	3.498	3.287	2.938	2.616	2.233	2.374	2.073	2.039	1.803	1.800	1.814	1.940	1.640	1.504	1.432	1.357	1.544	1.401	1.412	1.529	1.667	1.632	1.547	1.285	1.189	0.969	1.085	1.007	1.089	1.049	1.498	1.599	2.037	2.376	2.845	3.469	4.274	4.759	5.683	5.592	6.183	6.092	5.258	4.142	3.199	2.569	2.043	1.907	3.206	7.333	18.06
310.0	545.7	553.2	429.7	283.9	226.6	251.0	336.3	472.8	673.6	917.3	 1164	 1247	 1067	741.4	460.8	425.5	 1237	 4154	 6806	 2124	34.81	9.564	7.893	6.086	5.159	4.483	3.807	3.628	3.039	2.933	2.880	2.425	2.234	2.042	1.938	1.973	1.885	1.822	1.809	1.607	1.588	1.422	1.414	1.426	1.464	1.619	1.653	1.778	1.815	1.460	1.241	1.129	1.208	1.066	1.212	1.303	1.584	1.857	2.333	2.752	3.018	3.735	4.390	5.067	5.561	6.049	6.182	6.346	5.949	5.224	4.346	3.505	2.868	2.234	2.077	2.548	4.803
315.0	596.9	650.0	506.4	348.9	293.1	311.4	406.2	553.7	753.3	 1005	 1262	 1363	 1242	 1018	693.7	448.5	495.2	 1098	 2590	 7743	 3411	45.15	10.64	8.040	6.438	5.130	4.601	4.107	3.552	3.365	2.960	2.957	2.410	2.378	2.237	2.137	1.905	1.806	1.747	1.598	1.539	1.617	1.442	1.570	1.686	1.988	1.918	2.028	1.811	1.730	1.464	1.485	1.360	1.431	1.414	1.674	1.996	2.357	2.808	2.882	3.488	4.432	4.825	5.656	5.997	6.383	6.685	7.210	6.684	6.290	5.814	5.079	4.217	3.401	2.536	2.163	2.420
320.0	672.1	750.6	605.3	421.0	352.7	374.5	466.3	644.8	845.6	 1112	 1383	 1503	 1421	 1217	918.0	566.7	410.5	443.4	758.7	 3495	 9754	 2755	33.94	10.25	7.892	6.426	5.294	4.383	3.756	3.427	3.135	2.880	2.630	2.495	2.256	2.075	2.001	1.998	1.857	1.882	1.646	1.819	1.366	1.637	1.761	2.125	2.296	2.314	2.076	1.898	1.629	1.805	1.592	1.662	1.635	1.936	2.367	2.554	3.132	3.431	3.788	4.949	5.413	5.987	6.615	7.064	6.905	7.968	7.604	7.270	6.490	6.137	5.689	4.683	3.516	2.798	2.163
325.0	761.9	860.6	719.4	487.2	404.3	428.8	546.7	740.4	970.7	 1244	 1542	 1695	 1621	 1420	 1139	748.1	482.1	356.9	330.2	974.9	 5236	9999.9	419.2	25.18	9.905	7.384	6.108	4.843	4.142	3.775	3.552	2.921	2.873	2.703	2.494	2.252	2.145	2.110	2.099	1.939	1.582	1.786	1.564	1.772	1.835	2.155	2.477	2.496	2.458	2.090	1.768	1.894	1.838	1.844	1.875	2.147	2.580	2.919	3.629	3.954	4.629	5.211	5.981	6.718	7.050	7.702	8.030	8.535	8.692	7.780	7.398	7.019	6.685	6.047	4.608	3.441	2.927
330.0	903.2	 1033	835.1	596.7	498.0	538.5	667.4	889.9	 1164	 1475	 1813	 2005	 1970	 1747	 1414	991.5	660.2	450.6	313.8	350.1	 1379	 5173	 8874	 4500	32.88	10.98	7.965	5.833	5.090	4.412	3.881	3.432	3.178	2.840	2.504	2.537	2.274	2.204	2.254	1.931	1.685	1.795	1.740	1.915	2.181	2.550	2.733	3.014	2.802	2.530	2.174	2.242	2.229	2.159	2.367	2.598	3.230	3.608	4.112	4.813	5.408	6.003	6.954	7.617	8.590	9.327	9.454	9.796	9.832	9.546	9.589	8.964	8.080	6.971	6.036	5.119	4.318
335.0	 1080	 1221	988.7	721.3	633.7	669.4	812.0	 1059	 1377	 1752	 2135	 2350	 2359	 2145	 1738	 1220	897.9	630.1	424.0	304.9	455.4	 1273	 3221	9999.9	 3020	42.66	12.75	8.134	6.464	4.967	4.634	3.853	3.537	2.977	2.710	2.700	2.400	2.102	2.335	1.995	2.027	2.005	2.027	2.192	2.388	2.858	3.079	3.462	3.320	2.977	2.595	2.570	2.688	2.837	2.882	3.250	3.841	4.235	4.819	5.380	6.507	7.161	8.364	8.702	10.27	10.75	11.60	11.80	11.83	11.87	11.32	11.16	10.49	8.840	7.494	6.179	5.598
340.0	 1193	 1347	 1105	808.4	723.6	761.9	910.5	 1181	 1534	 1938	 2337	 2610	 2641	 2421	 1988	 1403	 1044	813.3	562.4	384.2	328.3	451.1	884.4	 4569	9999.9	 2591	35.31	11.49	8.074	6.183	5.294	4.443	3.968	3.367	3.000	2.785	2.591	2.414	2.416	2.365	2.209	1.882	2.234	2.313	2.702	3.237	3.601	3.870	3.700	3.249	2.994	2.943	2.996	3.319	3.288	3.794	4.184	4.786	5.425	6.184	7.142	7.839	8.770	9.853	11.51	11.58	12.44	13.27	13.23	13.32	13.01	12.27	11.45	10.19	8.426	7.220	6.254
345.0	 1240	 1471	 1170	895.4	816.3	844.5	 1002	 1287	 1659	 2074	 2511	 2821	 2846	 2633	 2205	 1586	 1190	965.8	754.3	526.7	415.7	367.0	399.2	 1281	 6588	9999.9	 1960	27.64	11.01	7.886	6.273	4.833	4.293	3.595	3.412	3.129	2.792	2.601	2.382	2.297	2.256	2.074	2.248	2.603	2.892	3.675	3.831	4.075	4.015	3.385	3.021	3.252	3.498	3.667	3.747	4.135	4.803	5.200	6.016	6.729	7.636	8.339	9.514	10.41	11.81	12.55	13.36	13.85	14.07	14.01	14.15	13.82	12.43	11.21	9.431	8.238	7.334
350.0	 1396	 1632	 1309	 1028	964.8	994.6	 1136	 1421	 1801	 2232	 2709	 3022	 3075	 2896	 2463	 1842	 1445	 1212	 1053	883.2	686.7	593.3	507.5	589.6	 1841	 5961	9999.9	 4543	33.43	14.14	8.909	6.232	4.926	4.265	3.464	3.412	2.957	2.830	2.596	2.603	2.336	2.243	2.545	2.730	3.233	3.877	4.205	4.537	4.195	3.944	3.468	3.557	4.093	4.188	4.279	4.625	5.409	5.907	6.498	7.405	8.031	9.066	10.55	11.65	12.63	13.63	14.28	15.03	15.41	15.22	15.06	15.00	14.24	12.76	11.01	9.750	8.867
355.0	 1538	 1761	 1452	 1205	 1136	 1174	 1284	 1569	 1942	 2372	 2862	 3179	 3282	 3121	 2711	 2121	 1766	 1564	 1434	 1336	 1192	 1023	864.6	726.3	785.2	 1630	 3796	9999.9	 2843	44.10	15.25	8.789	6.442	4.969	4.148	3.791	3.289	3.179	2.664	2.654	2.527	2.372	2.513	2.924	3.440	4.032	4.464	4.943	4.778	4.274	3.934	4.425	4.699	4.948	5.106	5.496	6.234	6.715	7.261	8.133	8.975	9.788	11.08	12.32	13.52	14.50	14.96	16.09	16.11	16.75	16.04	16.60	15.83	14.40	12.84	11.69	11.07
360.0	 1627	 1886	 1583	 1334	 1283	 1316	 1414	 1669	 2020	 2466	 2947	 3268	 3369	 3256	 2866	 2324	 2030	 1868	 1777	 1698	 1627	 1448	 1230	 1007	813.7	806.7	 1172	 4939	9999.9	 2551	37.43	12.95	8.280	6.130	4.585	3.999	3.614	3.571	3.145	2.994	2.573	2.709	2.788	3.179	3.645	4.425	4.814	5.408	5.183	4.632	4.244	5.140	5.306	5.580	5.643	6.027	6.976	6.924	7.642	8.596	9.743	10.38	11.58	12.63	13.57	14.75	15.78	16.03	16.77	16.84	16.73	17.08	16.80	15.11	14.07	13.12	12.67
365.0	 1684	 1987	 1718	 1482	 1461	 1460	 1561	 1763	 2100	 2530	 3004	 3315	 3441	 3342	 3003	 2515	 2274	 2172	 2133	 2085	 2033	 1907	 1644	 1363	 1062	811.1	679.2	 1468	 6940	9999.9	 1980	29.03	11.63	7.809	5.829	4.594	3.855	3.740	3.517	3.310	2.767	2.940	2.931	3.441	3.892	4.607	5.107	5.788	5.482	5.089	4.804	5.567	5.961	6.217	6.511	6.732	7.549	7.722	8.180	9.306	9.897	10.56	11.94	13.16	14.09	14.50	16.00	16.44	17.12	17.15	17.02	17.58	17.47	16.06	14.75	14.22	14.14
370.0	 1792	 2095	 1901	 1732	 1708	 1699	 1764	 1931	 2229	 2618	 3065	 3380	 3490	 3439	 3170	 2765	 2608	 2601	 2645	 2662	 2640	 2545	 2313	 1950	 1551	 1165	837.8	756.5	 1974	 6520	9999.9	 4741	31.92	13.27	7.975	5.855	4.661	4.146	3.707	3.524	3.092	3.143	3.235	3.596	4.205	4.982	5.304	6.088	6.033	5.670	5.525	6.322	7.025	7.409	7.580	7.801	8.742	8.850	9.166	10.13	10.75	11.48	12.54	13.30	14.32	15.17	15.80	16.59	17.35	17.94	17.84	18.21	18.07	17.50	16.62	16.05	16.21
375.0	 1852	 2241	 2140	 2012	 1981	 1981	 1992	 2126	 2374	 2718	 3107	 3410	 3521	 3510	 3310	 3010	 2960	 3033	 3167	 3267	 3299	 3219	 3006	 2652	 2141	 1648	 1201	854.3	874.0	 1734	 4138	9999.9	 2540	38.62	14.38	8.760	6.469	4.768	4.472	3.847	3.415	3.517	3.512	3.738	4.248	5.259	5.392	6.795	6.726	6.303	6.415	7.490	8.285	8.869	8.819	9.002	9.851	9.909	10.09	10.50	11.15	12.11	13.18	14.03	15.08	15.62	16.34	16.57	17.49	18.52	18.07	18.89	18.56	18.31	17.99	17.75	18.37
380.0	 1900	 2321	 2258	 2220	 2198	 2169	 2158	 2274	 2489	 2786	 3144	 3418	 3520	 3557	 3399	 3163	 3173	 3329	 3514	 3676	 3745	 3687	 3476	 3136	 2602	 2040	 1519	 1071	780.8	734.3	 1207	 5335	9999.9	 2231	33.20	13.20	8.478	6.024	4.988	4.461	3.672	3.796	3.653	3.878	4.857	5.527	5.681	6.721	7.065	6.798	6.855	8.198	9.198	9.685	9.851	9.919	10.56	11.06	11.35	11.41	12.01	12.75	13.31	14.45	15.26	15.85	16.51	17.19	17.98	18.31	18.66	19.40	19.71	19.09	18.43	18.92	19.72
385.0	 1919	 2381	 2377	 2371	 2385	 2329	 2333	 2416	 2581	 2848	 3169	 3411	 3525	 3555	 3446	 3286	 3344	 3545	 3773	 3991	 4090	 4060	 3876	 3518	 3021	 2400	 1833	 1329	933.1	682.1	599.7	 1539	 7579	9999.9	 1648	25.89	11.68	7.821	5.933	4.717	4.127	3.841	3.906	3.976	4.830	5.640	6.126	6.880	7.390	6.887	7.320	9.009	9.862	10.23	10.92	10.89	11.83	11.99	12.41	12.25	12.42	13.38	13.98	14.52	15.63	15.85	16.75	17.14	18.14	18.56	18.88	19.56	19.76	19.42	19.22	19.75	20.70
390.0	 1944	 2455	 2523	 2559	 2608	 2566	 2547	 2612	 2725	 2954	 3221	 3405	 3510	 3570	 3496	 3408	 3509	 3756	 4050	 4314	 4470	 4468	 4311	 3961	 3477	 2894	 2273	 1721	 1272	931.8	686.6	711.1	 2117	 6463	9999.9	 4169	109.9	13.85	8.501	6.232	5.010	4.358	4.250	4.267	4.921	5.923	6.188	7.503	7.887	7.624	7.858	9.805	10.76	11.41	11.90	11.98	12.59	12.97	13.23	13.38	13.52	14.20	14.58	15.08	16.07	16.30	16.87	16.73	18.10	18.39	18.60	19.10	20.40	19.73	20.00	20.87	21.87
395.0	 1985	 2514	 2636	 2721	 2772	 2754	 2742	 2801	 2899	 3054	 3269	 3400	 3490	 3549	 3527	 3478	 3626	 3898	 4226	 4531	 4722	 4766	 4662	 4357	 3875	 3323	 2740	 2158	 1666	 1278	957.5	729.3	849.6	 1690	 3971	9999.9	 2114	34.24	15.62	9.738	6.943	5.399	4.986	4.889	5.357	5.967	6.415	7.635	8.237	8.201	8.529	10.64	11.47	12.40	12.67	13.05	13.86	14.20	14.20	14.67	14.21	15.19	15.53	15.60	16.45	16.51	16.90	17.04	17.89	18.15	18.89	19.73	20.34	20.69	20.58	21.73	22.65
400.0	 1984	 2484	 2693	 2828	 2900	 2890	 2867	 2916	 2991	 3136	 3298	 3395	 3469	 3537	 3523	 3507	 3670	 3964	 4286	 4604	 4825	 4898	 4819	 4547	 4109	 3581	 3038	 2480	 1963	 1550	 1191	879.5	683.6	702.6	 1128	 5140	9999.9	 1900	31.61	15.85	10.31	7.608	5.998	5.240	5.406	6.262	6.489	7.784	8.205	8.317	8.740	10.96	12.32	12.61	13.16	13.34	14.42	14.66	14.54	15.25	15.27	15.49	15.81	16.22	16.56	16.75	17.01	17.50	17.95	18.17	18.70	19.69	20.17	20.75	20.85	22.41	23.63
405.0	 1979	 2495	 2778	 2887	 2986	 2978	 2972	 3005	 3088	 3212	 3318	 3380	 3434	 3520	 3500	 3493	 3678	 3968	 4301	 4625	 4860	 4954	 4907	 4674	 4269	 3774	 3260	 2748	 2235	 1809	 1427	 1069	776.4	587.3	525.3	 1447	 6665	9999.9	 1444	30.85	18.00	12.06	7.862	6.200	5.668	6.451	6.560	7.798	8.446	8.480	8.792	11.21	12.55	12.88	13.80	13.85	14.95	15.17	15.59	15.54	15.46	16.00	16.03	16.79	16.68	16.80	17.01	17.40	18.14	18.38	18.83	19.37	20.56	20.84	20.76	22.44	23.28
410.0	 1924	 2477	 2773	 2957	 3054	 3071	 3070	 3121	 3177	 3266	 3363	 3377	 3393	 3436	 3441	 3446	 3619	 3897	 4228	 4544	 4791	 4920	 4915	 4734	 4404	 3972	 3504	 3038	 2595	 2165	 1759	 1375	 1033	763.8	576.9	646.5	 1867	 5743	 8416	 3296	112.6	27.52	18.16	10.57	7.303	6.861	7.095	7.841	8.632	8.928	9.190	11.53	13.02	13.57	14.17	14.18	15.46	15.98	15.94	15.93	15.92	16.29	16.65	17.10	16.89	16.96	16.98	17.42	17.60	17.97	18.62	19.29	20.15	20.32	20.87	22.01	22.88
415.0	 1890	 2471	 2779	 3000	 3119	 3149	 3195	 3223	 3266	 3320	 3398	 3364	 3340	 3359	 3355	 3368	 3529	 3783	 4101	 4389	 4650	 4816	 4839	 4718	 4471	 4122	 3725	 3316	 2931	 2561	 2158	 1756	 1385	 1088	856.8	722.5	887.9	 1669	 3543	 8960	 1948	168.2	48.95	23.27	12.55	8.909	7.820	8.201	9.000	8.917	9.501	11.68	13.23	13.99	14.14	14.89	16.29	16.21	16.96	16.42	16.61	16.96	16.76	17.77	16.91	17.19	17.39	17.64	17.17	17.90	18.45	18.97	19.29	19.39	20.18	21.39	22.81
420.0	 1846	 2454	 2824	 3013	 3177	 3237	 3290	 3329	 3341	 3374	 3416	 3331	 3303	 3304	 3273	 3289	 3438	 3683	 3993	 4274	 4543	 4704	 4758	 4704	 4506	 4215	 3879	 3531	 3180	 2871	 2513	 2105	 1739	 1430	 1194	 1016	937.7	 1013	 1361	 4543	 8994	 1803	136.8	42.97	20.39	12.09	8.749	8.788	9.167	9.280	9.311	12.18	13.61	14.40	14.61	15.38	16.82	16.88	16.98	17.60	17.57	17.64	17.39	17.47	17.30	17.17	16.93	16.90	16.93	17.42	17.57	18.77	19.27	19.48	20.37	20.73	22.33
425.0	 1846	 2417	 2835	 3058	 3267	 3334	 3422	 3444	 3415	 3407	 3401	 3309	 3263	 3251	 3212	 3217	 3361	 3595	 3878	 4155	 4418	 4596	 4695	 4672	 4537	 4298	 4021	 3735	 3433	 3160	 2854	 2484	 2120	 1828	 1601	 1422	 1292	 1205	 1159	 1799	 5927	 8746	 1387	83.13	31.16	16.53	10.89	9.771	9.448	9.574	10.14	12.60	14.03	14.64	15.18	15.63	17.53	18.34	17.88	17.89	17.49	17.85	17.44	17.63	17.30	17.23	16.73	16.61	17.27	17.47	17.36	18.50	19.35	19.96	19.39	20.47	21.73
430.0	 1873	 2457	 2866	 3142	 3358	 3500	 3623	 3626	 3519	 3429	 3412	 3298	 3226	 3180	 3122	 3131	 3253	 3468	 3732	 3993	 4260	 4465	 4588	 4613	 4547	 4395	 4201	 3991	 3768	 3544	 3312	 3008	 2695	 2425	 2228	 2077	 1948	 1817	 1663	 1569	 2299	 5317	 7263	 2961	117.4	27.30	15.60	11.81	10.54	10.17	10.44	12.86	14.34	15.30	16.49	16.51	18.42	19.02	19.15	18.69	18.43	18.25	18.22	17.87	17.61	17.58	16.89	16.60	16.93	17.03	17.15	18.28	18.51	19.27	18.98	20.30	20.95
435.0	 1950	 2443	 2853	 3177	 3438	 3624	 3784	 3781	 3578	 3451	 3379	 3256	 3154	 3103	 3019	 3009	 3117	 3317	 3551	 3804	 4055	 4277	 4425	 4508	 4497	 4431	 4306	 4176	 4029	 3881	 3701	 3456	 3218	 2991	 2820	 2696	 2586	 2432	 2235	 1933	 1676	 1924	 3198	 8315	 1836	130.0	23.96	15.49	12.60	11.30	11.08	13.15	14.35	15.97	17.19	17.43	18.85	19.46	20.11	19.78	18.98	18.46	18.35	17.62	17.75	17.58	16.87	16.39	17.07	16.87	16.89	17.71	17.85	18.10	18.57	19.43	20.03
440.0	 2082	 2388	 2838	 3133	 3461	 3662	 3822	 3788	 3575	 3423	 3357	 3210	 3088	 3015	 2926	 2908	 3010	 3182	 3395	 3645	 3876	 4096	 4263	 4373	 4404	 4371	 4310	 4219	 4129	 4021	 3868	 3658	 3453	 3275	 3125	 3005	 2912	 2776	 2555	 2186	 1669	 1259	 1198	 4362	 8923	 1584	59.68	20.38	14.27	12.09	11.64	13.42	15.27	15.97	17.41	17.24	19.22	19.89	20.22	19.98	19.12	18.89	18.44	17.85	17.44	16.69	16.67	16.43	16.90	16.83	16.27	16.75	17.27	17.51	18.12	18.90	19.56
445.0	 2223	 2409	 2758	 3084	 3401	 3613	 3768	 3765	 3521	 3351	 3280	 3134	 3008	 2912	 2830	 2809	 2883	 3036	 3237	 3463	 3691	 3902	 4072	 4202	 4247	 4256	 4227	 4177	 4115	 4053	 3933	 3741	 3559	 3423	 3295	 3181	 3091	 2959	 2735	 2336	 1756	 1181	781.6	 1355	 6074	 8565	217.8	28.44	17.56	13.44	12.05	14.00	14.78	16.02	16.91	17.82	19.25	19.44	20.23	19.75	18.74	18.19	17.89	17.52	16.82	16.53	16.13	15.99	16.18	16.48	16.13	16.07	16.53	17.14	17.68	18.27	19.15
450.0	 2098	 2606	 2644	 2954	 3275	 3480	 3639	 3618	 3400	 3224	 3142	 2984	 2854	 2752	 2661	 2633	 2691	 2808	 2986	 3173	 3388	 3584	 3761	 3890	 3967	 3998	 4003	 3995	 3990	 3965	 3879	 3728	 3574	 3453	 3359	 3264	 3184	 3053	 2833	 2437	 1855	 1240	754.5	627.7	 1694	 5227	 7127	 2837	79.89	17.46	13.48	14.21	15.11	15.51	16.48	17.40	18.80	19.14	19.64	19.16	18.06	17.44	17.41	16.62	16.28	16.10	15.52	15.09	15.26	15.39	15.15	15.32	15.93	16.10	16.45	17.05	17.80
455.0	 1714	 2757	 2649	 2744	 3039	 3284	 3440	 3412	 3211	 3040	 2954	 2809	 2665	 2561	 2463	 2422	 2469	 2554	 2707	 2863	 3046	 3230	 3394	 3521	 3624	 3676	 3705	 3730	 3758	 3771	 3717	 3609	 3479	 3374	 3306	 3246	 3176	 3047	 2842	 2468	 1903	 1301	801.7	514.0	601.2	 1309	 3004	 8233	 1570	25.69	16.70	15.09	15.11	15.55	15.95	16.52	17.94	18.42	18.79	18.05	17.69	16.49	16.68	15.95	15.57	15.09	14.91	14.36	14.14	14.55	14.12	14.46	15.11	14.80	15.00	15.75	16.80
460.0	 1477	 2575	 2844	 2608	 2882	 3088	 3262	 3234	 3051	 2875	 2791	 2658	 2512	 2410	 2312	 2264	 2295	 2357	 2493	 2639	 2799	 2966	 3124	 3246	 3345	 3410	 3461	 3504	 3548	 3578	 3556	 3458	 3356	 3262	 3197	 3161	 3100	 2981	 2791	 2436	 1896	 1320	828.7	509.9	378.2	445.7	795.1	 4163	 8158	 1290	23.14	16.93	15.25	15.28	15.36	15.58	17.33	17.75	18.04	17.03	16.91	15.86	15.35	15.25	14.57	14.62	13.46	13.50	13.66	14.10	13.55	13.64	13.82	14.37	14.24	15.07	15.90
465.0	 1364	 2169	 3084	 2529	 2687	 2894	 3050	 3054	 2875	 2715	 2633	 2506	 2374	 2259	 2173	 2123	 2132	 2194	 2296	 2429	 2584	 2728	 2875	 2992	 3093	 3169	 3224	 3272	 3331	 3371	 3364	 3293	 3198	 3122	 3058	 3026	 2982	 2877	 2691	 2356	 1851	 1305	841.5	524.1	345.3	269.1	288.0	 1106	 5602	 9956	905.9	22.65	16.28	15.15	15.05	15.29	16.23	17.15	16.56	16.19	15.83	15.36	14.61	14.45	13.90	13.31	12.87	13.21	12.76	13.31	13.00	13.21	12.93	13.26	13.43	13.84	14.72
470.0	 1227	 1725	 2743	 2824	 2468	 2630	 2764	 2761	 2624	 2485	 2410	 2282	 2169	 2048	 1968	 1914	 1921	 1965	 2052	 2151	 2286	 2418	 2540	 2647	 2748	 2818	 2878	 2933	 3000	 3049	 3060	 2995	 2920	 2859	 2805	 2770	 2736	 2646	 2484	 2183	 1735	 1246	825.5	534.8	353.9	248.1	192.2	335.2	 1466	 5944	 6138	 2407	24.07	16.99	15.28	14.73	15.40	15.31	14.80	15.09	14.27	13.95	13.29	13.09	13.02	12.59	12.33	11.87	11.78	11.97	11.63	11.93	11.74	11.78	12.21	12.44	12.93
475.0	 1071	 1458	 2009	 2959	 2469	 2350	 2461	 2467	 2343	 2237	 2176	 2058	 1943	 1850	 1761	 1715	 1698	 1734	 1806	 1888	 2001	 2110	 2214	 2315	 2405	 2471	 2533	 2594	 2657	 2709	 2730	 2689	 2616	 2558	 2520	 2488	 2443	 2372	 2236	 1973	 1585	 1161	793.7	532.6	365.1	257.0	186.4	178.3	399.4	 1385	 2452	 6425	 1497	27.04	16.56	14.65	14.55	13.98	13.77	13.68	13.31	12.57	12.06	11.77	11.90	11.29	10.93	10.75	10.75	10.80	10.53	10.75	10.76	10.73	10.63	11.29	11.29
480.0	984.9	 1311	 1632	 2608	 2708	 2160	 2245	 2278	 2167	 2075	 2008	 1910	 1804	 1703	 1624	 1568	 1561	 1582	 1640	 1715	 1809	 1908	 2000	 2092	 2173	 2238	 2297	 2357	 2420	 2468	 2497	 2456	 2400	 2348	 2313	 2283	 2238	 2172	 2054	 1819	 1474	 1095	761.2	525.4	371.3	266.7	196.1	154.1	170.7	369.2	612.8	 3079	 6206	 1264	24.59	15.29	14.56	13.22	13.22	12.72	12.37	11.52	11.41	11.12	11.18	10.21	10.44	9.527	9.895	9.660	9.860	9.980	9.868	9.929	10.07	10.50	10.26
485.0	920.6	 1192	 1449	 2033	 2898	 2115	 2076	 2086	 1998	 1920	 1877	 1763	 1669	 1579	 1504	 1450	 1441	 1458	 1507	 1571	 1651	 1738	 1825	 1908	 1979	 2039	 2100	 2163	 2221	 2272	 2295	 2265	 2218	 2163	 2134	 2104	 2068	 1999	 1890	 1692	 1378	 1032	731.4	516.6	373.6	278.1	205.5	157.3	128.8	150.7	187.7	789.4	 4136	 5796	209.6	20.82	15.10	13.33	13.06	11.88	11.22	10.76	10.39	10.40	10.19	9.737	9.244	9.098	8.924	9.007	9.366	8.794	9.346	9.101	9.271	9.735	9.859
490.0	799.8	 1064	 1274	 1566	 2424	 2376	 1896	 1863	 1793	 1733	 1692	 1605	 1507	 1428	 1354	 1301	 1291	 1301	 1338	 1394	 1456	 1533	 1606	 1676	 1746	 1800	 1854	 1910	 1969	 2015	 2044	 2018	 1971	 1934	 1906	 1876	 1839	 1783	 1684	 1512	 1247	955.6	688.7	499.3	372.9	283.9	217.4	169.0	131.0	111.5	101.6	222.0	 1055	 3326	 4794	 2091	23.88	14.33	12.75	11.38	10.47	10.03	9.738	9.390	9.399	8.789	8.525	8.202	8.468	8.503	8.167	8.114	8.343	8.233	8.271	8.748	8.858
495.0	705.0	942.6	 1115	 1309	 1696	 2436	 1903	 1640	 1588	 1540	 1504	 1429	 1335	 1271	 1205	 1150	 1130	 1135	 1167	 1213	 1266	 1320	 1386	 1447	 1514	 1560	 1610	 1658	 1713	 1755	 1784	 1764	 1719	 1690	 1668	 1645	 1614	 1557	 1478	 1328	 1106	863.6	639.5	475.7	365.7	284.8	224.5	177.5	139.3	112.0	90.77	101.8	275.1	778.8	 2098	 5864	 1607	27.29	12.97	10.83	9.944	9.435	9.076	8.358	8.370	7.872	7.627	7.388	7.511	7.344	7.225	7.259	7.274	7.634	7.308	7.567	7.667
500.0	597.0	856.2	 1017	 1169	 1350	 2034	 2098	 1501	 1418	 1396	 1378	 1291	 1226	 1157	 1085	 1040	 1023	 1021	 1044	 1084	 1128	 1179	 1237	 1285	 1341	 1391	 1432	 1474	 1519	 1567	 1587	 1575	 1543	 1517	 1493	 1468	 1442	 1394	 1322	 1190	 1003	794.4	597.7	451.4	354.1	281.6	225.5	182.2	144.8	115.9	93.30	79.90	105.5	208.7	517.5	 2842	 5872	 1328	22.97	11.59	9.990	9.526	8.384	8.093	7.823	7.343	6.983	6.859	6.976	6.579	6.702	6.710	6.732	6.541	6.829	6.996	6.921
505.0	554.0	752.1	928.6	 1053	 1168	 1536	 2180	 1496	 1293	 1267	 1249	 1176	 1124	 1050	984.0	940.7	920.2	923.6	938.0	973.3	 1013	 1054	 1106	 1152	 1199	 1242	 1282	 1323	 1361	 1405	 1424	 1413	 1383	 1356	 1336	 1321	 1295	 1256	 1189	 1073	912.1	724.2	558.0	429.0	339.0	274.5	221.3	183.4	146.8	119.3	96.52	77.65	70.25	84.56	145.7	719.7	 3754	 5365	222.7	17.21	9.911	9.319	7.733	7.405	7.412	6.576	6.046	6.311	6.300	6.085	6.256	5.995	6.088	6.185	6.268	5.960	6.147
510.0	479.0	643.9	791.2	902.8	993.9	 1147	 1693	 1729	 1171	 1101	 1087	 1031	973.9	914.0	861.3	818.9	796.5	802.0	811.9	840.0	872.4	901.6	946.0	982.6	 1022	 1058	 1090	 1124	 1164	 1202	 1222	 1211	 1190	 1167	 1149	 1131	 1113	 1075	 1023	924.6	788.9	634.0	496.5	393.1	316.6	259.2	213.5	179.2	146.4	119.9	98.97	80.11	65.26	59.72	65.18	187.9	945.8	 3001	 3992	976.2	20.28	9.725	7.418	6.655	6.646	6.038	5.685	5.700	5.504	5.376	5.299	5.424	5.348	5.230	5.341	5.251	5.401
515.0	403.2	550.0	658.8	760.9	840.3	919.0	 1136	 1720	 1273	947.7	936.8	882.5	837.9	783.3	734.0	702.5	678.7	680.5	689.3	710.7	742.6	762.9	794.9	824.9	858.4	887.6	913.0	942.7	981.7	 1011	 1028	 1021	 1003	986.6	965.4	954.7	936.3	907.7	860.9	782.5	672.6	546.8	434.2	351.5	291.6	241.3	201.9	170.0	142.4	118.9	100.1	80.94	65.48	55.32	49.28	70.41	233.7	690.1	 1561	 4189	 1571	25.13	8.172	6.638	5.986	5.586	5.099	5.026	4.762	4.540	4.772	4.758	4.655	4.509	4.413	4.704	4.633
520.0	356.0	491.1	587.3	663.4	740.6	788.4	880.4	 1360	 1503	861.7	836.1	789.6	753.1	702.0	658.6	622.8	605.6	598.8	606.3	629.7	648.6	669.6	696.3	723.3	753.6	779.6	804.0	831.0	859.8	890.0	900.7	897.8	877.9	866.8	847.7	838.5	819.7	793.0	755.4	689.4	595.4	488.3	390.0	319.3	269.0	228.4	192.2	163.0	136.8	117.2	97.96	80.29	64.98	54.53	46.19	44.73	76.43	172.6	376.2	 2021	 4434	 1336	18.10	7.093	5.726	5.313	4.916	4.547	4.378	4.168	4.247	4.153	4.112	4.275	3.910	4.187	4.245
525.0	323.3	426.7	523.5	594.7	664.4	699.1	753.5	985.1	 1566	937.8	750.0	711.7	670.6	629.0	587.3	555.0	540.1	536.3	543.3	557.2	574.5	596.4	616.7	638.0	666.5	688.7	708.6	738.0	763.8	789.0	802.6	793.5	775.9	766.3	751.4	741.5	728.3	704.3	671.6	612.0	530.9	437.6	353.5	291.1	249.1	214.7	182.9	155.4	131.3	112.5	96.05	80.22	65.90	54.91	45.95	39.70	41.33	57.86	100.1	503.2	 2672	 4482	220.3	11.71	5.993	4.705	4.440	4.254	4.216	3.664	3.974	3.717	3.711	4.051	3.660	3.821	3.952
530.0	272.0	361.1	447.2	506.6	557.8	601.7	639.5	706.7	 1153	 1223	707.8	615.2	578.6	548.1	509.7	482.4	466.4	462.4	467.7	478.0	492.8	509.3	526.3	544.6	562.8	582.8	601.2	622.9	647.2	668.6	682.2	678.7	661.3	650.5	638.9	630.8	618.4	599.3	568.4	522.5	455.6	377.9	310.1	257.5	220.1	193.0	169.2	145.9	123.5	106.1	91.01	76.80	63.10	54.11	45.31	38.73	33.41	32.98	38.44	125.0	659.2	 2262	 2958	950.6	17.20	5.128	4.139	3.755	3.748	3.389	3.302	3.348	3.252	3.301	3.065	3.280	3.228
535.0	238.3	306.3	370.7	424.6	474.4	511.2	540.9	569.9	700.7	 1189	931.8	527.4	491.2	467.1	432.2	408.4	394.8	392.3	395.4	401.4	413.1	428.1	442.1	455.9	470.4	489.7	501.7	518.2	537.1	558.4	570.4	566.1	553.5	545.9	532.4	525.8	516.6	500.2	476.6	438.2	384.5	322.3	266.2	223.7	194.4	169.9	151.9	133.6	114.6	98.03	85.40	72.93	60.18	52.60	44.17	37.90	31.47	27.21	24.42	41.01	157.5	514.6	 1098	 3128	 1462	22.15	4.653	3.622	3.313	3.035	2.841	2.966	2.921	2.796	2.745	2.755	2.752
540.0	199.2	273.3	323.1	369.3	412.1	451.3	478.0	492.2	522.6	897.5	 1175	512.3	441.7	411.2	382.5	364.5	347.8	343.7	347.3	351.5	363.8	374.8	384.8	398.8	410.5	426.5	440.2	453.1	469.5	486.1	496.5	497.2	483.5	474.5	466.4	460.5	449.9	436.7	416.7	383.5	338.2	284.1	238.2	200.8	175.6	153.4	138.9	125.5	108.4	92.57	80.43	69.29	57.95	49.93	43.00	37.16	31.03	25.90	21.26	22.73	45.81	123.5	259.1	 1432	 3323	 1032	15.25	3.722	3.265	2.897	2.654	2.578	2.612	2.447	2.421	2.529	2.682
545.0	180.4	248.8	288.0	321.5	363.7	397.1	425.7	437.1	443.1	613.7	 1181	654.4	393.7	365.3	345.5	321.3	311.2	305.8	305.8	311.8	323.2	333.4	341.0	353.2	362.3	373.9	385.7	401.7	412.4	428.5	438.5	437.0	427.0	419.0	410.9	404.8	397.1	386.4	369.3	339.6	300.1	252.5	213.3	181.5	159.2	142.1	127.2	114.3	101.1	87.91	75.78	65.24	54.66	47.27	41.17	36.24	30.05	24.71	20.69	18.31	20.58	36.21	65.41	350.6	 1931	 2955	214.4	7.969	3.352	2.822	2.738	2.305	2.403	2.294	2.239	2.220	2.248
550.0	158.5	200.7	245.0	277.6	308.7	335.7	361.4	371.2	377.7	420.0	784.7	951.5	408.9	311.5	290.7	273.1	263.1	261.0	258.3	264.5	272.4	280.8	286.9	297.9	305.8	314.4	325.1	336.1	346.5	360.1	366.0	365.0	357.0	351.2	343.1	338.2	333.3	323.2	309.5	285.6	253.9	214.4	182.5	156.9	138.5	124.2	111.4	99.78	89.54	79.15	68.99	59.50	50.70	43.88	38.44	33.88	28.27	23.86	19.88	16.84	15.07	16.90	22.00	84.36	470.3	 1514	 1864	811.6	15.56	3.116	2.455	2.077	2.032	2.062	1.928	1.965	1.935
555.0	128.1	171.4	204.7	220.1	253.4	273.9	298.7	313.8	311.9	325.3	430.1	844.5	675.7	263.2	239.2	225.6	217.3	214.5	216.1	217.6	224.3	228.5	234.4	242.1	247.5	258.6	263.8	272.9	282.7	294.7	299.3	296.2	289.6	286.1	279.1	275.3	272.5	262.1	249.4	232.0	208.9	177.0	152.1	131.3	115.9	106.4	94.40	86.03	77.05	69.00	61.73	52.69	44.76	39.31	34.34	30.87	26.24	22.01	18.12	15.92	13.32	12.01	11.85	24.93	109.9	342.4	681.7	 2131	 1219	20.45	2.573	1.968	1.805	1.828	1.594	1.727	1.593
560.0	115.2	150.1	172.5	194.6	214.9	235.1	255.6	273.0	273.0	280.2	304.6	571.7	901.6	286.3	207.0	192.8	186.8	184.3	184.1	184.4	190.1	192.4	198.4	203.9	208.1	218.1	223.1	231.9	238.6	247.5	253.2	251.8	246.5	240.8	236.1	231.9	229.9	221.3	211.7	197.2	175.0	151.8	129.6	113.5	101.4	91.92	82.62	75.53	67.57	60.21	55.88	47.80	40.13	35.66	31.37	27.58	24.11	20.35	16.93	14.72	12.04	10.40	9.323	11.55	29.29	80.52	159.6	927.3	 2264	242.6	12.96	2.091	1.769	1.527	1.478	1.358	1.410
565.0	99.77	121.7	143.2	159.4	184.7	201.1	216.0	235.7	237.5	243.9	248.5	349.6	842.1	489.3	175.0	166.7	158.8	156.4	156.4	157.8	160.6	163.8	167.1	172.2	177.2	184.7	188.1	194.8	202.8	209.1	214.2	211.4	207.6	204.0	199.7	198.1	194.0	188.4	179.1	166.9	148.4	130.4	110.6	97.41	87.43	78.63	72.18	66.03	58.53	52.28	48.36	42.16	36.45	31.89	27.66	25.25	22.14	18.78	15.72	13.56	11.45	9.493	8.229	7.913	10.96	21.82	39.07	223.0	 1222	 1837	204.3	5.239	1.905	1.549	1.328	1.314	1.079
570.0	89.01	101.9	117.1	127.1	145.6	154.5	173.9	189.5	200.4	207.2	206.5	229.0	492.5	767.1	237.5	130.4	126.3	122.6	123.5	124.2	126.3	128.0	132.3	135.7	140.2	144.1	147.7	153.2	157.9	162.8	166.3	165.0	160.7	158.1	155.0	154.4	150.9	147.2	140.3	129.6	115.8	101.4	86.50	77.26	69.54	62.89	57.79	52.91	47.59	43.26	39.13	34.99	30.66	26.67	23.56	21.45	18.83	16.06	13.92	11.62	10.04	8.581	7.275	6.685	6.647	8.457	11.57	52.63	292.8	923.2	 1304	528.1	13.44	1.572	1.157	1.026	0.922
575.0	64.50	82.33	94.39	98.06	113.1	119.3	133.6	147.8	162.8	173.0	175.2	176.0	230.1	599.1	579.4	105.9	97.09	93.96	94.64	94.48	95.86	96.48	101.1	102.9	105.8	108.5	111.6	114.6	119.3	121.8	125.0	123.4	121.5	118.7	116.5	115.4	113.1	111.2	105.5	97.54	87.76	76.42	66.05	58.95	53.03	49.42	44.77	41.18	37.33	33.64	30.97	27.74	24.25	22.42	19.03	17.46	15.53	13.28	11.61	10.02	8.345	7.039	6.406	5.597	5.005	5.066	5.321	13.87	67.29	208.1	439.0	 1230	689.4	17.28	1.180	0.866	0.738
580.0	60.64	70.70	75.17	83.57	91.67	98.35	115.8	125.3	144.5	153.2	161.5	152.9	150.1	355.6	795.1	169.6	79.90	76.21	75.09	77.40	77.63	78.48	82.20	83.15	85.24	88.03	89.71	91.71	94.35	98.20	98.93	100.6	98.41	94.96	94.53	92.65	91.15	89.54	85.88	78.28	71.00	62.03	53.70	47.76	43.93	40.29	36.73	34.07	31.13	27.91	25.21	22.75	20.01	18.97	16.71	14.64	12.78	11.26	10.00	8.528	7.609	6.451	5.668	4.901	4.388	4.084	3.528	5.270	16.81	48.20	101.5	525.3	 1258	225.7	7.532	0.983	0.784
585.0	54.70	65.52	70.79	71.72	75.93	84.35	97.92	112.0	125.8	142.7	148.2	141.7	122.4	187.4	678.5	425.3	66.50	63.60	63.68	62.98	64.29	65.58	66.75	68.83	70.26	72.64	74.09	76.02	78.67	81.02	82.50	81.91	79.97	78.38	76.90	76.55	74.60	73.46	70.14	64.45	58.54	51.89	44.09	39.98	37.21	33.77	30.51	28.60	25.84	23.47	21.47	19.04	17.22	16.22	14.67	12.67	11.14	9.846	8.556	7.411	6.837	5.878	5.124	4.679	3.939	3.663	2.951	3.093	5.448	12.26	24.07	125.9	670.6	991.2	164.7	2.572	0.717
590.0	50.67	57.49	61.54	58.31	60.32	70.14	79.79	93.29	108.1	123.1	136.5	129.2	107.2	102.3	329.5	700.7	165.5	50.41	49.66	50.03	50.15	51.35	51.96	54.55	55.22	56.13	58.01	60.07	61.39	63.04	64.68	64.05	62.14	61.40	60.07	58.97	58.15	56.37	54.14	50.28	44.55	39.83	34.79	31.44	28.73	26.82	24.66	22.50	20.65	18.78	16.92	15.46	13.84	12.91	12.07	10.97	9.370	8.326	7.414	6.395	5.513	4.872	4.337	4.060	3.606	3.098	2.708	2.450	2.767	4.104	6.573	29.18	160.5	484.6	699.6	291.8	11.19
595.0	50.66	43.79	54.32	47.44	46.56	58.54	66.26	74.00	92.84	107.6	122.3	115.3	95.52	76.30	121.0	466.7	557.8	45.26	38.14	38.95	38.73	39.39	41.09	41.41	41.73	43.60	44.37	45.83	46.67	47.73	48.84	48.33	47.57	46.33	46.21	44.93	44.37	42.78	41.23	37.95	34.34	30.66	27.14	24.30	22.23	21.05	19.51	17.63	16.23	14.31	13.67	12.11	10.88	10.15	9.488	8.943	7.994	6.794	5.890	5.132	4.652	4.227	3.757	3.388	3.216	2.735	2.367	2.172	2.118	2.041	2.499	7.455	36.56	109.0	231.4	664.0	244.9
600.0	45.04	45.13	45.88	43.15	43.10	50.16	56.05	67.52	78.32	95.56	112.0	108.6	88.08	66.33	62.81	229.9	746.2	77.06	31.98	32.89	32.22	32.49	33.70	34.12	34.57	35.33	35.72	37.14	38.24	39.40	39.91	39.83	38.22	38.13	36.76	36.55	35.90	34.53	33.52	30.87	28.30	25.00	21.90	19.66	18.50	17.11	15.80	14.67	13.52	12.19	11.28	10.21	8.791	8.336	7.875	7.355	6.650	5.973	5.061	4.581	3.924	3.745	3.442	3.015	2.665	2.402	2.169	1.867	1.800	1.528	1.416	2.503	8.915	24.99	53.34	276.7	656.9
605.0	39.96	42.41	39.63	37.73	39.23	41.08	47.76	60.19	69.56	85.62	101.1	102.9	82.73	60.58	46.60	97.47	576.8	374.8	28.42	27.42	26.55	28.00	28.25	28.75	29.28	29.06	29.59	31.35	31.99	32.88	32.47	33.00	31.98	31.24	30.84	29.93	29.68	28.75	28.26	25.76	23.34	20.88	18.27	16.39	15.37	14.03	13.35	12.67	11.31	10.58	9.616	8.666	7.672	6.738	6.687	6.470	5.947	5.191	4.487	4.251	3.510	3.195	3.042	2.736	2.327	2.019	1.881	1.579	1.534	1.370	1.102	1.228	2.548	6.195	12.46	65.87	350.9
610.0	35.70	40.11	36.84	32.23	32.78	36.86	42.13	51.96	60.40	75.94	89.54	94.65	76.19	54.89	39.83	44.05	239.5	610.7	139.3	21.80	21.54	21.72	22.69	22.60	22.96	23.39	23.83	23.84	25.07	26.27	25.81	25.88	25.51	24.52	24.35	23.39	23.19	22.74	21.74	20.18	18.44	16.11	14.12	12.83	12.20	11.21	10.72	9.923	9.037	8.447	7.650	6.762	6.191	5.570	5.318	5.024	4.823	4.524	3.773	3.559	2.958	2.751	2.482	2.270	2.044	1.818	1.654	1.561	1.403	1.184	1.080	0.883	1.147	1.887	3.133	15.13	83.37
615.0	30.12	35.79	32.57	28.14	27.95	30.41	34.46	41.60	52.91	68.62	78.79	84.79	72.92	52.17	37.45	29.96	73.69	369.7	501.2	25.42	17.44	17.06	16.91	17.41	18.17	18.14	17.99	18.25	19.37	19.59	20.04	19.77	19.16	19.04	18.46	17.84	17.95	17.08	16.69	15.41	14.33	12.12	10.53	10.03	9.499	8.791	8.392	7.644	7.009	6.554	5.943	5.398	4.858	4.431	4.302	3.956	3.522	3.534	3.139	2.912	2.455	2.393	2.025	1.924	1.728	1.655	1.466	1.380	1.221	0.926	1.003	0.834	0.710	0.838	1.078	3.674	18.99
620.0	27.98	36.25	26.41	24.20	25.44	27.58	30.34	37.65	49.12	61.37	71.31	78.08	69.06	51.80	37.29	26.26	31.71	159.5	652.5	64.19	14.59	14.70	14.09	14.83	15.08	15.11	14.82	15.27	15.77	16.21	15.91	15.78	15.45	15.82	15.05	14.88	14.59	14.37	13.62	12.42	11.36	10.05	8.653	8.087	7.554	7.154	6.722	6.260	5.761	5.292	4.989	4.375	4.067	3.700	3.656	3.233	2.932	3.082	2.698	2.398	2.066	2.150	1.889	1.507	1.415	1.383	1.226	1.172	1.114	0.842	0.789	0.677	0.560	0.653	0.572	1.124	4.482
625.0	29.20	31.89	28.93	25.44	20.39	25.06	27.43	35.75	46.64	57.44	67.78	73.22	67.30	51.16	35.50	25.19	21.62	60.32	470.3	386.4	13.41	12.66	11.92	12.78	12.26	12.64	12.60	13.53	13.38	13.84	13.59	13.74	12.91	12.84	12.50	12.54	11.98	11.90	11.01	10.30	9.334	8.200	7.422	6.516	6.198	5.980	5.471	5.279	4.795	4.456	4.229	3.650	3.369	3.112	2.946	2.630	2.484	2.577	2.234	2.206	1.839	1.642	1.521	1.359	1.388	1.281	1.133	1.077	0.885	0.826	0.781	0.611	0.560	0.454	0.440	0.533	1.203
630.0	28.25	29.18	30.62	23.11	17.62	21.47	26.83	33.37	42.64	54.28	64.22	67.52	63.85	53.77	38.19	25.57	19.71	26.32	175.3	569.8	139.9	10.56	9.917	9.892	9.692	9.980	10.08	10.48	10.24	10.43	10.95	10.63	10.15	9.995	9.969	9.498	9.242	9.441	8.647	8.053	7.126	6.355	5.713	4.991	4.884	4.653	4.348	3.974	3.743	3.547	3.201	2.938	2.674	2.453	2.408	2.155	2.056	1.954	1.746	1.799	1.652	1.432	1.396	1.156	1.220	1.041	0.932	0.965	0.796	0.749	0.697	0.580	0.503	0.437	0.351	0.361	0.454
635.0	23.94	30.71	26.17	20.47	18.69	19.77	25.63	30.86	41.85	52.90	61.13	66.39	61.88	53.77	40.86	26.59	19.75	17.64	50.28	293.7	472.3	17.88	8.325	7.846	7.887	7.667	7.835	8.127	8.169	8.200	7.870	8.244	7.997	7.529	7.433	7.311	6.914	7.243	6.422	6.244	5.678	4.600	4.543	3.730	3.705	3.477	3.335	3.037	2.994	2.685	2.543	2.218	2.047	1.946	1.766	1.583	1.554	1.473	1.326	1.394	1.271	1.163	1.090	1.012	0.920	0.921	0.779	0.826	0.646	0.731	0.633	0.455	0.408	0.351	0.302	0.279	0.228
640.0	22.97	26.70	26.60	20.54	19.22	19.57	25.18	30.35	40.01	50.33	59.18	63.88	62.20	54.78	44.00	27.68	19.18	15.52	20.32	111.3	611.9	56.72	7.060	6.668	6.369	6.281	6.620	6.745	6.678	6.583	6.607	6.518	6.316	6.415	6.213	5.905	5.789	5.820	5.336	5.053	4.651	4.108	3.438	3.078	2.959	2.727	2.816	2.551	2.428	2.279	1.986	1.683	1.739	1.595	1.409	1.296	1.259	1.215	1.189	1.041	1.129	1.019	1.047	0.831	0.845	0.822	0.797	0.664	0.548	0.590	0.537	0.478	0.374	0.312	0.364	0.283	0.256
645.0	22.12	31.89	28.80	20.66	18.08	19.37	25.62	29.71	38.47	50.14	58.60	64.95	64.89	55.04	45.81	30.27	19.97	15.11	13.43	36.72	410.8	368.5	8.064	6.219	5.749	5.447	5.811	5.746	5.828	5.804	5.622	5.726	5.754	5.281	5.253	5.120	5.160	4.593	4.539	4.198	3.868	3.220	3.007	2.484	2.518	2.309	2.226	2.096	2.112	1.822	1.733	1.437	1.304	1.322	1.332	1.157	1.033	1.160	0.965	0.827	0.889	0.920	0.886	0.781	0.890	0.679	0.628	0.630	0.611	0.534	0.457	0.487	0.403	0.358	0.298	0.214	0.167
650.0	22.65	32.99	28.88	19.20	17.17	18.69	25.87	30.73	39.43	48.46	58.64	64.77	63.47	57.24	46.17	30.95	21.08	16.05	12.10	14.55	171.7	578.6	38.54	5.429	4.868	4.870	4.830	4.909	4.779	4.918	4.691	4.508	4.608	4.556	4.501	4.349	4.137	3.972	3.874	3.407	2.945	2.797	2.554	2.095	1.921	2.004	2.110	1.749	1.723	1.531	1.481	1.362	1.146	1.110	1.167	0.964	0.856	0.970	0.783	0.714	0.819	0.793	0.716	0.668	0.738	0.651	0.508	0.597	0.635	0.529	0.454	0.379	0.386	0.317	0.226	0.265	0.162
