Sample:	'1
File name:	G2025073105  029ÏçµÀÇÅ.FD3
Run date:	'10:13:30, 08/06/2025
Operator:	Administrator
Comment:	'

Instrument
Model:	F-2700 FL Spectrophotometer
Serial number:	23B8-004
ROM Version:	4J14000 07

Instrument parameters
Measurement type:	3-D scan
Data mode:	Fluorescence
EX  Start WL:	220.0 nm
EX  End WL:	600.0 nm
EX Sampling interval:	5.0 nm
EM  Start WL:	230.0 nm
EM  End WL:	650.0 nm
EM Sampling interval:	5.0 nm
Scan speed:	12000 nm/min
EX Slit:	5.0 nm
EM Slit:	5.0 nm
PMT Voltage:	700 V
Response:	Auto 
Corrected spectra:	Off
Contour interval:	50.000

Peak integration
Integration method:	Rectangular
Sensitivity:	1
Threshold:	1.000

Peaks
No.	ApexEX/EM(nm)	Height(Data)
1	225.0/590.0	66.50
2	225.0/605.0	61.06
3	230.0/345.0	2242
4	240.0/385.0	1529
5	240.0/525.0	337.9
6	245.0/535.0	277.6
7	250.0/545.0	224.3
8	255.0/280.0	661.2
9	255.0/560.0	189.9
10	260.0/285.0	656.4
11	260.0/575.0	149.4
12	265.0/585.0	134.4
13	270.0/300.0	1258
14	270.0/380.0	1350
15	270.0/405.0	1292
16	270.0/600.0	117.6
17	275.0/305.0	1507
18	275.0/610.0	109.6
19	280.0/315.0	1459
20	280.0/340.0	1610
21	280.0/625.0	93.50
22	285.0/320.0	1538
23	285.0/640.0	75.13
24	290.0/325.0	1459
25	460.0/340.0	6.133
26	475.0/355.0	6.392
27	520.0/285.0	3.975
28	530.0/290.0	3.975
29	540.0/295.0	5.457
30	545.0/300.0	5.753
31	555.0/305.0	6.459
32	565.0/310.0	6.651
33	570.0/315.0	7.054
34	575.0/320.0	7.055
35	585.0/325.0	6.777

Data points
	220.0	225.0	230.0	235.0	240.0	245.0	250.0	255.0	260.0	265.0	270.0	275.0	280.0	285.0	290.0	295.0	300.0	305.0	310.0	315.0	320.0	325.0	330.0	335.0	340.0	345.0	350.0	355.0	360.0	365.0	370.0	375.0	380.0	385.0	390.0	395.0	400.0	405.0	410.0	415.0	420.0	425.0	430.0	435.0	440.0	445.0	450.0	455.0	460.0	465.0	470.0	475.0	480.0	485.0	490.0	495.0	500.0	505.0	510.0	515.0	520.0	525.0	530.0	535.0	540.0	545.0	550.0	555.0	560.0	565.0	570.0	575.0	580.0	585.0	590.0	595.0	600.0
230.0	49.50	1226	4261	1857	88.21	8.358	7.100	5.312	4.819	5.233	5.100	4.430	4.082	3.551	2.937	2.567	2.261	2.135	1.924	1.721	1.684	1.592	1.433	1.293	1.227	1.185	1.060	1.017	1.015	0.914	0.915	0.812	0.744	0.694	0.613	0.590	0.633	0.571	0.586	0.491	0.497	0.559	0.579	0.521	0.444	0.447	2.425	15.85	32.93	25.64	9.278	1.605	0.425	0.349	0.312	0.286	0.305	0.304	0.277	0.276	0.278	0.238	0.261	0.273	0.274	0.242	0.256	0.264	0.258	0.235	0.241	0.242	0.247	0.256	0.227	0.231	0.274
235.0	106.3	345.7	2311	4763	2155	142.9	9.444	7.655	6.936	5.998	5.964	4.305	4.673	3.252	3.220	3.105	2.385	2.078	1.913	1.874	1.498	1.614	1.542	1.220	1.376	1.350	1.019	0.999	1.040	1.011	0.940	0.732	0.804	0.657	0.655	0.619	0.559	0.600	0.598	0.490	0.480	0.522	0.571	0.602	0.701	0.546	0.911	4.068	10.84	20.46	34.02	27.06	15.91	3.106	0.419	0.274	0.280	0.358	0.313	0.282	0.267	0.281	0.257	0.308	0.245	0.245	0.283	0.248	0.285	0.255	0.254	0.320	0.220	0.224	0.260	0.225	0.252
240.0	163.8	190.0	657.9	3565	5603	623.0	65.20	10.17	7.404	6.150	6.629	4.849	4.639	4.071	3.245	2.938	2.611	1.983	2.242	2.068	1.648	1.414	1.723	1.251	1.222	1.300	1.155	0.939	1.091	1.129	0.980	0.795	0.838	0.691	0.593	0.716	0.614	0.592	0.573	0.518	0.444	0.500	0.505	0.565	0.771	0.923	0.641	1.245	2.767	5.657	15.84	38.17	53.81	26.41	12.99	1.843	0.394	0.380	0.314	0.287	0.278	0.251	0.330	0.293	0.253	0.293	0.277	0.240	0.283	0.232	0.272	0.269	0.217	0.233	0.205	0.196	0.246
245.0	107.3	216.0	238.9	1129	5277	4686	479.5	31.20	8.908	8.378	6.427	5.565	5.027	4.154	3.807	3.239	2.870	2.422	2.089	2.084	1.835	1.665	1.858	1.383	1.393	1.328	1.301	1.118	1.038	0.902	1.060	0.912	0.759	0.659	0.639	0.594	0.598	0.670	0.565	0.614	0.484	0.479	0.504	0.526	0.556	0.770	0.987	1.004	1.120	1.570	3.926	11.77	32.13	57.96	64.70	23.91	8.505	0.989	0.479	0.410	0.304	0.325	0.354	0.388	0.269	0.298	0.247	0.258	0.249	0.238	0.344	0.230	0.216	0.236	0.225	0.178	0.277
250.0	48.79	139.8	271.4	368.1	1616	4882	6148	1771	131.3	12.87	9.825	7.756	6.586	5.354	4.016	3.440	3.013	2.678	2.483	2.258	2.132	1.965	1.684	1.540	1.404	1.380	1.302	1.099	1.032	1.021	1.005	0.879	0.861	0.708	0.706	0.647	0.606	0.571	0.580	0.560	0.525	0.487	0.552	0.454	0.463	0.514	0.646	0.827	1.126	1.226	1.466	3.097	7.794	17.39	34.65	52.31	71.00	61.04	17.98	8.217	1.122	0.448	0.401	0.396	0.376	0.312	0.327	0.254	0.277	0.301	0.329	0.296	0.276	0.267	0.263	0.266	0.319
255.0	32.99	52.25	170.9	364.2	484.4	1193	4668	9999.9	2593	165.7	15.42	11.41	8.290	6.671	5.311	3.573	3.501	2.935	2.633	2.117	2.179	2.059	1.831	1.681	1.601	1.594	1.268	1.358	1.163	1.136	0.957	1.000	0.950	0.913	0.667	0.607	0.562	0.612	0.588	0.497	0.575	0.582	0.575	0.500	0.487	0.522	0.446	0.520	0.646	1.054	1.481	2.003	2.459	4.330	8.147	12.36	22.85	53.80	103.1	116.1	28.68	11.36	0.990	0.559	0.480	0.452	0.387	0.382	0.356	0.393	0.308	0.353	0.415	0.344	0.314	0.287	0.312
260.0	32.15	35.59	66.34	268.7	399.8	342.4	1343	7930	9999.9	2090	99.16	14.18	10.20	8.257	6.592	4.544	4.045	3.209	3.308	2.781	2.511	2.122	1.741	1.864	1.685	1.775	1.323	1.444	1.240	1.215	1.110	0.999	0.849	0.910	0.804	0.684	0.744	0.663	0.631	0.598	0.563	0.596	0.579	0.551	0.489	0.397	0.477	0.452	0.513	0.591	0.884	1.718	2.194	2.087	2.372	3.186	5.680	13.82	40.12	94.35	137.8	121.7	25.03	6.197	0.777	0.495	0.417	0.468	0.443	0.427	0.381	0.358	0.449	0.361	0.332	0.345	0.284
265.0	37.61	31.66	35.03	118.9	403.7	313.3	352.4	2522	9999.9	9999.9	1525	38.30	13.33	10.20	8.152	5.370	4.541	4.173	3.152	2.936	2.668	2.116	2.152	2.017	1.739	1.790	1.534	1.375	1.454	1.266	1.143	1.221	1.025	0.884	0.752	0.763	0.792	0.616	0.699	0.675	0.551	0.635	0.596	0.586	0.558	0.580	0.507	0.402	0.499	0.443	0.492	0.973	1.553	2.298	2.079	1.514	1.714	3.596	9.635	26.15	66.02	136.8	167.9	34.16	19.58	2.606	0.619	0.571	0.483	0.445	0.438	0.443	0.405	0.415	0.399	0.365	0.336
270.0	60.53	51.20	42.23	50.29	176.6	397.9	357.6	634.4	3214	9999.9	9999.9	4677	94.33	16.81	11.26	7.889	6.319	4.846	3.916	3.745	2.860	2.525	2.406	2.197	1.760	2.005	1.721	1.523	1.403	1.447	1.379	1.290	1.069	0.967	0.875	0.800	0.752	0.725	0.746	0.678	0.749	0.632	0.709	0.696	0.664	0.585	0.591	0.532	0.562	0.563	0.520	0.606	0.797	1.246	1.917	2.452	2.321	1.992	2.848	6.424	15.49	37.18	73.42	103.7	153.7	120.7	94.32	13.65	3.649	0.744	0.552	0.564	0.520	0.465	0.557	0.413	0.412
275.0	125.8	119.2	94.18	56.29	72.65	167.8	507.1	455.5	793.9	2488	9024	9999.9	1666	109.0	18.87	11.95	7.832	6.367	5.001	4.267	3.514	3.017	2.929	2.310	2.111	2.129	2.008	1.842	1.568	1.487	1.438	1.414	1.239	1.094	1.130	0.980	1.006	0.798	0.838	0.749	0.664	0.695	0.771	0.794	0.747	0.763	0.864	0.799	0.738	0.722	0.500	0.671	0.595	0.765	0.946	1.190	2.143	3.195	2.988	2.484	4.089	8.910	16.96	24.20	42.58	84.24	190.2	240.9	153.7	20.36	2.196	0.814	0.582	0.549	0.655	0.561	0.543
280.0	205.4	207.6	168.2	90.68	62.39	87.50	292.2	661.2	407.2	664.8	2619	9999.9	9999.9	1308	63.85	15.93	11.15	7.360	6.217	4.939	4.218	3.523	2.700	2.545	2.629	2.008	2.236	2.015	1.650	1.539	1.478	1.319	1.150	1.207	1.143	1.304	1.114	1.009	0.939	0.931	0.841	0.732	0.836	0.861	0.869	0.935	1.114	1.012	0.903	0.811	0.664	0.687	0.601	0.617	0.761	0.733	1.198	1.994	3.348	3.634	2.835	2.895	4.545	6.227	10.43	20.83	62.20	151.0	255.4	242.4	33.19	14.29	1.141	0.837	0.787	0.769	0.610
285.0	288.2	289.0	241.5	148.4	82.69	79.85	148.9	538.5	656.4	345.0	755.2	3626	9999.9	9999.9	900.7	30.91	14.42	9.836	7.472	5.553	4.912	3.914	3.455	2.924	2.850	2.458	2.138	2.073	1.814	1.792	1.505	1.371	1.245	1.181	1.394	1.406	1.163	1.074	1.028	1.087	0.968	0.886	0.917	0.986	1.051	1.156	1.189	1.121	1.079	0.900	0.772	0.844	0.637	0.729	0.730	0.717	0.994	1.143	1.739	3.306	3.975	3.041	2.280	2.374	3.378	5.885	15.17	38.70	98.37	208.9	265.5	217.1	27.56	7.810	0.959	0.783	0.790
290.0	388.6	403.2	358.8	227.2	134.5	118.5	139.0	280.5	638.0	735.2	508.0	1082	3738	9999.9	9999.9	3282	56.75	15.14	10.74	7.715	6.104	4.748	4.366	3.145	3.233	2.723	2.613	2.308	2.081	1.877	1.945	1.684	1.458	1.403	1.484	1.549	1.422	1.259	1.153	1.114	1.077	1.061	1.157	1.163	1.251	1.351	1.412	1.475	1.321	1.252	1.069	1.111	0.931	0.933	0.848	0.912	1.052	1.094	1.343	1.752	2.379	3.420	3.975	3.781	2.790	2.809	4.786	10.08	23.58	53.06	98.55	171.2	205.4	231.5	138.7	18.30	7.468
295.0	435.8	522.8	462.1	307.4	200.9	175.1	185.5	246.7	391.1	833.7	973.2	678.1	1160	2622	9663	9999.9	4417	65.52	16.00	11.32	7.810	6.273	4.831	4.145	3.607	3.431	2.777	2.575	2.392	2.134	2.166	1.695	1.652	1.618	1.617	1.734	1.564	1.376	1.458	1.167	1.194	1.073	1.273	1.266	1.439	1.570	1.684	1.841	1.774	1.365	1.407	1.344	1.333	1.221	0.964	1.189	1.173	1.224	1.348	1.422	1.674	2.181	2.714	3.980	5.457	4.033	3.601	4.175	7.097	13.50	23.57	39.90	52.10	104.5	221.4	323.7	235.0
300.0	491.5	603.3	565.4	379.9	255.7	230.8	249.2	300.3	391.2	662.3	1258	959.4	729.0	903.7	2799	9999.9	9999.9	768.8	42.73	14.58	10.00	7.127	5.737	5.116	4.134	3.460	2.952	2.679	2.438	2.295	2.107	1.898	1.640	1.595	1.656	1.684	1.763	1.528	1.602	1.286	1.354	1.259	1.421	1.373	1.453	1.875	1.711	2.008	1.890	1.633	1.607	1.460	1.317	1.392	1.245	1.353	1.605	1.531	1.519	1.674	1.883	2.182	2.487	2.938	4.529	5.753	5.521	4.020	3.971	5.454	7.205	10.70	13.23	25.42	64.09	164.8	314.6
305.0	551.0	684.9	625.5	424.4	308.8	303.0	344.8	401.1	521.1	704.5	1157	1507	928.2	676.9	959.0	3552	9999.9	9999.9	571.9	25.17	13.19	8.989	6.954	5.720	4.949	4.225	3.511	3.274	2.453	2.563	2.134	2.084	1.730	1.688	1.979	1.702	1.823	1.794	1.585	1.516	1.607	1.403	1.565	1.641	1.590	1.904	1.908	2.041	2.045	1.850	1.782	1.662	1.467	1.566	1.516	1.608	1.874	1.761	1.977	2.023	2.305	2.403	2.945	3.353	3.925	4.791	6.238	6.459	5.584	4.261	4.259	4.758	5.001	7.809	16.29	40.55	103.1
310.0	589.2	722.7	697.1	509.4	379.1	370.9	418.9	503.9	630.5	807.0	1051	1436	1451	893.3	663.8	1091	3748	9999.9	9999.9	2331	41.65	13.99	9.692	7.113	5.805	4.894	3.959	3.396	2.908	2.723	2.449	2.234	2.014	1.787	1.926	1.853	1.878	1.757	1.712	1.524	1.612	1.497	1.698	1.662	1.665	1.988	2.091	2.323	2.193	1.990	1.861	1.983	1.679	1.835	1.810	1.750	2.017	2.111	2.440	2.505	2.741	3.122	3.351	3.749	3.987	4.430	5.049	5.902	6.610	6.651	5.711	4.458	3.712	4.286	5.720	10.97	24.82
315.0	656.4	833.2	802.3	603.0	458.7	452.1	493.0	586.9	716.9	887.9	1086	1282	1459	1390	808.6	646.8	1152	2596	9727	9999.9	3269	45.17	14.65	10.36	7.400	6.069	4.961	3.917	3.523	2.848	2.594	2.362	2.249	1.832	1.857	1.832	1.984	1.804	1.812	1.712	1.744	1.494	1.779	1.713	1.832	2.285	2.312	2.592	2.597	2.268	1.977	2.319	2.198	2.132	2.173	2.164	2.452	2.563	2.528	2.676	2.923	3.271	3.554	3.900	4.152	4.617	4.941	5.143	5.365	6.122	7.054	6.466	5.040	4.245	3.705	4.778	7.654
320.0	758.6	1072	990.8	730.4	567.2	525.1	572.3	646.3	796.8	954.4	1191	1342	1400	1538	1191	689.7	679.3	861.7	2794	9999.9	9999.9	545.6	31.33	13.93	9.621	6.859	5.759	4.316	3.899	3.232	2.893	2.647	2.318	2.100	2.111	1.826	2.203	2.037	1.927	1.787	1.750	1.653	2.055	1.990	2.136	2.466	2.674	3.171	2.987	2.587	2.306	2.760	2.353	2.361	2.182	2.496	2.718	2.808	3.031	3.150	3.304	3.437	3.817	4.026	4.238	5.112	5.046	5.167	5.421	5.882	6.168	7.055	6.708	6.009	4.287	4.041	4.432
325.0	944.1	1355	1346	985.2	704.0	609.5	631.9	701.0	850.8	1053	1256	1432	1444	1440	1459	915.6	648.3	535.2	840.6	3484	9999.9	9999.9	411.9	21.24	12.61	8.628	6.952	5.154	4.357	3.730	3.299	2.519	2.484	2.415	2.186	1.836	2.031	1.979	1.868	1.738	1.747	1.920	2.059	1.988	2.456	2.952	3.326	3.751	3.942	3.457	2.970	3.345	2.648	2.468	2.634	2.654	2.940	3.046	3.168	3.237	3.525	3.754	4.097	4.437	4.534	5.170	5.631	5.728	5.681	5.571	6.016	5.985	6.199	6.777	6.463	5.211	4.067
330.0	1088	1674	1802	1426	952.2	733.6	702.4	769.6	911.9	1111	1326	1504	1528	1440	1376	1224	855.5	548.1	469.2	986.3	3548	9999.9	9999.9	1847	33.06	12.95	9.328	6.677	5.065	4.327	3.665	3.220	2.901	2.521	2.225	1.923	2.071	1.933	1.946	1.861	1.972	1.961	2.085	2.247	2.670	3.537	4.006	4.768	5.077	4.608	4.222	4.204	3.676	3.251	3.071	2.932	3.126	3.257	3.341	3.345	3.574	4.025	4.401	4.697	5.054	5.493	5.819	5.855	5.931	6.121	6.031	6.129	5.996	6.204	6.404	6.557	5.926
335.0	1208	1844	2054	1741	1236	886.5	794.4	835.8	964.9	1163	1386	1562	1608	1507	1360	1215	1174	740.3	477.3	490.2	959.0	2490	9007	9999.9	2764	36.77	13.64	9.680	6.482	5.327	4.413	3.813	3.150	2.868	2.413	2.282	1.892	2.027	1.963	2.055	2.091	1.968	2.291	2.567	2.996	3.884	4.406	5.388	5.550	5.379	5.032	5.385	4.525	4.115	3.725	3.471	3.714	3.599	3.400	3.376	3.680	4.183	4.663	5.132	5.307	5.588	5.920	5.749	6.198	6.426	6.283	6.364	6.437	6.298	5.806	5.835	6.388
340.0	1225	1910	2209	1884	1364	1000	873.5	891.3	987.0	1182	1398	1561	1610	1552	1380	1169	1155	945.5	558.0	425.3	419.0	688.4	2507	9999.9	9999.9	457.9	25.62	11.15	8.899	6.501	4.931	4.051	3.336	3.022	2.604	2.227	2.272	2.010	2.188	2.189	2.076	2.230	2.207	2.524	3.022	3.810	4.542	5.613	6.133	5.578	5.363	5.751	4.859	4.460	3.796	3.647	3.974	3.686	3.692	3.564	4.083	4.618	4.632	5.083	5.353	5.525	5.479	5.861	6.112	6.236	6.204	6.192	6.423	6.263	5.917	5.589	5.797
345.0	1255	1887	2242	1971	1422	1046	911.0	904.5	1018	1176	1386	1540	1585	1538	1373	1165	1052	1019	725.4	453.9	334.2	320.9	679.2	3247	9999.9	9999.9	359.6	16.58	10.74	8.009	5.570	4.556	3.805	3.420	2.659	2.311	2.455	2.348	2.000	2.045	2.004	2.062	2.300	2.472	3.232	3.586	4.462	5.538	6.038	5.840	5.571	5.773	5.058	4.614	4.108	3.579	4.068	3.858	3.839	3.887	4.191	4.460	4.584	4.990	5.374	5.255	5.897	6.090	6.234	6.432	6.162	6.079	6.621	6.074	6.168	5.470	5.534
350.0	1142	1771	2150	1943	1497	1153	978.1	954.0	1035	1177	1348	1469	1521	1482	1350	1166	1022	921.8	849.3	634.2	395.1	299.3	318.6	848.3	3300	9999.9	9279	1622	28.81	10.81	7.453	5.548	4.251	3.469	2.844	2.441	2.374	2.213	1.982	1.969	1.905	2.083	2.250	2.352	2.996	3.470	4.134	5.286	5.956	5.456	5.546	6.090	5.220	5.065	4.217	4.020	4.296	4.002	3.945	4.103	4.131	4.360	4.642	5.064	5.040	5.267	5.666	5.782	5.975	5.841	6.134	6.068	6.183	6.209	6.008	5.863	5.696
355.0	1079	1615	1951	1856	1522	1239	1054	1026	1096	1208	1333	1424	1453	1423	1335	1179	1048	899.4	804.3	803.7	564.0	369.1	299.3	359.5	852.8	2423	7398	9999.9	2484	33.09	10.41	7.081	4.880	3.775	3.302	2.711	2.501	2.229	1.984	2.151	1.927	2.092	2.373	2.339	2.763	3.474	3.992	4.991	5.678	5.072	5.214	6.392	5.456	5.107	4.652	4.406	4.418	4.253	4.517	4.414	4.179	4.524	4.753	4.958	5.161	5.309	5.193	5.574	6.056	5.444	5.984	5.507	6.151	5.822	6.107	5.740	5.365
360.0	1039	1494	1847	1795	1544	1285	1130	1088	1122	1220	1329	1408	1422	1397	1319	1175	1061	925.9	801.8	789.7	722.9	470.9	344.1	292.4	342.1	646.5	2023	9885	9999.9	419.3	21.31	9.412	6.137	4.831	3.552	3.051	2.916	2.348	2.117	1.996	2.246	1.933	2.193	2.215	2.863	3.250	3.832	4.669	5.102	5.047	4.836	5.741	5.532	5.498	4.594	4.483	4.580	4.392	4.555	4.374	4.430	4.865	4.877	5.253	5.141	5.235	5.438	5.458	5.541	5.896	5.667	5.976	5.861	6.041	5.728	5.490	5.471
365.0	950.3	1470	1771	1736	1524	1339	1173	1126	1163	1235	1326	1381	1388	1366	1293	1167	1066	947.1	831.9	760.4	767.0	621.4	413.0	318.8	263.9	277.5	548.3	3005	9999.9	9999.9	327.0	14.85	7.791	5.591	4.122	3.353	2.977	2.584	2.211	2.118	2.190	2.001	2.032	2.479	2.760	3.177	3.595	4.455	4.482	4.820	4.674	5.955	5.281	5.510	4.940	4.798	4.603	4.819	4.416	4.396	4.515	4.984	5.083	5.078	5.089	5.123	5.259	5.617	5.654	5.518	6.038	5.593	5.863	6.320	5.592	5.544	5.437
370.0	913.0	1330	1654	1654	1521	1358	1228	1175	1197	1268	1332	1355	1364	1336	1256	1167	1079	987.2	881.2	796.2	737.3	716.9	591.6	410.3	311.3	249.3	260.3	770.3	3104	9754	8121	1429	24.83	8.818	5.774	4.011	3.274	2.736	2.442	2.312	2.210	2.152	2.031	2.474	2.645	3.017	3.400	4.126	4.427	4.404	4.531	5.427	5.451	5.296	5.115	4.918	5.005	4.813	4.678	4.569	4.864	4.733	4.870	5.206	5.127	5.122	5.307	5.379	5.385	5.484	5.466	5.538	5.516	5.697	5.631	5.590	5.587
375.0	854.7	1256	1530	1588	1517	1388	1280	1224	1247	1287	1344	1348	1351	1297	1230	1145	1089	1010	931.4	852.0	768.7	707.0	710.1	571.0	398.3	304.5	252.5	317.8	793.6	2349	6492	9999.9	2100	27.91	8.572	5.751	4.188	3.403	2.964	2.683	2.322	2.134	2.265	2.592	2.750	2.942	3.247	3.992	4.210	4.275	4.325	5.547	5.433	5.286	5.496	5.017	5.100	4.754	4.914	4.940	4.968	5.101	5.302	5.213	5.448	5.193	5.390	5.181	5.254	5.260	5.122	5.197	5.620	5.322	5.208	5.548	5.270
380.0	859.4	1182	1477	1563	1525	1390	1299	1246	1272	1292	1350	1340	1345	1271	1206	1128	1075	1016	947.7	887.4	797.9	731.4	703.8	688.3	500.3	366.2	293.7	254.0	309.6	622.6	1795	8680	9999.9	342.6	18.84	7.683	5.690	4.293	3.162	2.793	2.378	2.193	2.217	2.471	2.615	2.876	3.033	3.920	3.867	4.171	4.111	5.391	5.328	5.445	5.254	5.232	4.897	4.832	4.860	5.116	4.864	4.917	5.296	5.263	5.132	5.288	5.415	5.205	5.313	5.224	5.032	5.457	5.423	5.418	5.200	5.488	5.546
385.0	757.5	1149	1407	1528	1529	1412	1306	1281	1290	1300	1336	1343	1319	1254	1182	1113	1064	1023	955.9	900.7	826.4	758.5	700.3	700.6	619.7	438.3	342.4	273.7	234.2	263.5	497.5	2596	9999.9	8152	263.5	11.98	7.261	5.122	3.502	2.973	2.483	2.432	2.508	2.407	2.588	2.932	3.104	3.581	3.860	4.109	4.242	5.251	5.365	5.389	5.173	5.297	5.312	4.983	4.893	4.972	4.917	4.895	5.229	5.270	5.319	5.192	5.367	5.165	4.753	5.365	5.157	5.238	5.379	5.384	5.398	5.315	5.790
390.0	800.1	1106	1376	1487	1483	1417	1325	1287	1281	1293	1308	1303	1278	1223	1154	1088	1048	1007	962.6	911.7	856.9	796.4	730.7	682.6	659.7	569.4	421.3	328.4	261.9	222.5	234.8	667.3	2860	7293	6027	1141	21.14	7.396	5.244	3.683	2.994	2.694	2.650	2.407	2.644	2.896	3.083	3.668	3.819	3.920	4.083	4.954	4.995	5.135	5.154	5.000	5.230	5.087	4.960	4.937	5.011	4.905	4.974	5.087	5.104	5.062	4.910	5.074	4.839	4.938	5.046	5.130	5.187	5.322	5.382	5.225	5.511
395.0	815.5	1110	1310	1407	1452	1403	1344	1297	1283	1283	1296	1286	1234	1195	1122	1060	1025	994.5	956.0	916.8	867.5	816.3	763.1	704.5	649.8	636.3	540.7	404.7	322.8	259.5	215.7	266.6	712.7	1743	4566	9097	1785	24.38	7.035	4.818	3.851	3.025	2.728	2.899	2.915	2.961	3.010	3.668	3.927	3.997	3.891	5.096	5.120	5.129	5.180	4.834	4.982	5.120	5.206	5.032	5.239	5.026	4.799	4.886	5.125	4.941	4.959	5.060	4.747	4.555	4.897	4.829	4.689	5.137	5.152	4.940	5.413
400.0	778.4	1060	1254	1397	1437	1404	1353	1311	1287	1276	1281	1269	1229	1167	1101	1038	999.7	978.8	940.4	915.3	870.7	827.9	789.2	732.0	668.8	633.9	623.1	493.3	375.9	305.0	245.4	206.0	254.9	453.5	1232	6358	8239	298.9	17.44	6.346	4.568	3.482	2.978	2.710	3.023	3.148	3.261	3.612	3.774	3.697	3.943	4.998	4.958	4.859	4.983	5.086	5.269	5.252	4.976	4.995	5.356	5.001	5.129	4.852	4.786	4.932	4.683	4.869	4.850	4.677	4.666	4.993	4.763	4.980	4.721	4.773	5.499
405.0	775.1	1023	1268	1398	1375	1398	1337	1314	1286	1279	1292	1263	1215	1145	1073	1016	969.6	956.1	923.7	902.0	868.7	834.2	798.5	749.7	694.3	640.6	627.6	580.8	441.8	350.3	284.3	216.0	176.2	184.4	334.0	1814	7255	6524	241.9	10.09	5.229	4.258	3.652	2.948	3.070	3.071	3.160	3.654	3.841	3.607	3.680	4.779	5.031	5.202	4.869	5.183	5.419	5.204	5.028	4.953	5.038	4.941	5.109	5.038	4.710	5.271	4.690	4.922	4.731	4.643	4.633	4.752	4.575	4.752	4.768	4.870	5.127
410.0	749.4	1027	1211	1338	1363	1359	1312	1306	1265	1273	1258	1232	1177	1116	1041	976.3	930.6	918.8	892.0	874.5	847.9	822.8	797.8	760.3	714.8	656.4	619.3	597.1	535.9	417.0	326.9	251.3	187.5	147.6	150.5	459.8	2009	5346	4710	1084	18.73	5.593	4.222	3.382	3.350	3.167	3.177	3.539	3.805	3.550	3.782	4.788	4.744	5.047	4.823	4.949	5.309	5.147	5.044	5.076	4.945	5.003	4.837	4.958	4.690	4.846	4.662	4.608	4.547	4.632	4.426	4.647	4.493	4.592	4.669	4.665	4.855
415.0	706.4	984.2	1143	1277	1320	1302	1282	1273	1246	1247	1244	1180	1126	1069	992.3	917.9	888.4	869.5	848.7	830.9	817.2	797.7	776.3	747.8	712.4	665.5	618.4	577.1	558.9	496.7	371.9	284.0	212.4	158.7	126.0	167.7	493.8	1260	3151	7011	1689	22.68	5.485	4.045	3.618	3.326	3.325	3.354	3.857	3.479	3.691	4.454	4.516	4.799	4.705	4.632	5.283	4.886	5.189	4.637	4.939	4.687	4.676	4.620	4.723	4.842	4.418	4.450	4.407	4.173	4.266	4.433	4.472	4.255	4.361	4.321	4.469
420.0	721.9	960.0	1125	1243	1274	1275	1256	1236	1237	1216	1208	1157	1097	1025	953.2	889.3	850.8	826.5	819.5	790.7	784.8	768.8	755.8	734.2	707.3	660.5	616.8	574.4	540.2	523.7	424.0	307.7	230.8	173.2	130.1	112.0	162.6	317.9	821.8	4508	6637	285.0	15.68	5.182	4.213	3.856	3.268	3.589	3.653	3.402	3.593	4.429	4.481	4.571	4.856	4.655	4.965	4.982	4.656	5.020	4.931	4.764	4.729	4.631	4.563	4.737	4.345	4.453	4.384	4.374	4.151	3.962	4.256	4.196	3.974	4.387	4.385
425.0	695.2	909.2	1100	1205	1221	1235	1248	1234	1211	1198	1168	1136	1063	989.6	910.1	851.3	805.9	798.5	780.6	760.1	757.2	742.1	732.7	712.1	693.3	660.9	612.4	569.1	529.9	505.8	468.0	340.7	249.8	187.0	140.2	108.0	96.95	112.6	213.9	1237	5231	5495	241.6	9.444	4.969	4.233	3.529	3.597	3.729	3.420	3.516	4.353	4.513	4.429	4.721	4.519	4.773	4.828	4.570	4.716	4.862	4.843	4.638	4.563	4.638	4.664	4.491	4.320	4.567	4.261	4.122	4.082	4.192	4.064	3.933	4.266	4.046
430.0	783.5	866.3	1026	1159	1192	1196	1207	1214	1197	1174	1146	1107	1017	949.6	866.4	810.2	767.6	756.7	740.0	722.5	713.5	706.3	702.4	690.5	670.8	646.2	609.7	574.2	531.3	491.8	462.1	394.3	287.8	212.3	160.5	123.4	95.97	78.22	84.29	303.8	1395	3947	3890	1040	18.52	5.643	4.273	3.990	3.839	3.329	3.530	4.342	4.340	4.473	4.414	4.312	4.971	4.847	4.657	4.661	4.679	4.690	4.645	4.470	4.577	4.473	4.328	4.145	4.115	4.122	4.085	3.987	3.988	4.060	3.778	3.880	3.779
435.0	1249	837.1	976.0	1089	1142	1158	1171	1177	1169	1147	1118	1074	996.6	916.1	825.6	768.5	725.9	708.0	691.6	679.9	678.1	673.2	670.2	662.9	649.8	624.8	599.8	571.6	532.4	490.5	441.8	400.1	338.4	244.0	180.1	140.9	107.2	80.49	64.53	102.1	335.7	913.8	2253	6101	1760	24.69	5.910	4.669	4.295	3.792	3.422	4.175	4.263	4.460	4.345	4.245	4.951	4.828	4.805	4.682	4.493	4.808	4.550	4.325	4.471	4.498	4.184	4.118	3.959	3.819	4.023	3.679	3.846	3.642	3.628	3.758	3.498
440.0	1647	990.6	943.3	1032	1097	1131	1141	1166	1151	1133	1090	1042	962.1	875.4	793.0	726.1	692.1	673.2	660.1	648.4	641.6	643.3	639.6	634.3	622.8	604.4	583.8	560.5	528.5	487.8	434.9	385.5	351.4	276.2	196.6	152.1	117.9	88.61	66.58	61.57	104.0	226.2	570.3	3543	6222	1382	17.58	6.070	4.819	3.996	3.815	3.960	4.317	4.325	4.299	4.199	4.933	4.760	4.631	4.717	4.455	4.571	4.293	4.704	4.353	4.106	3.910	4.055	4.113	3.788	3.994	3.576	3.619	3.668	3.576	3.485	3.303
445.0	1769	1475	913.4	985.9	1047	1089	1101	1120	1108	1108	1061	1019	929.1	837.4	762.2	697.0	653.1	641.8	621.3	609.8	606.8	605.8	605.7	603.4	595.7	580.7	564.0	542.2	512.4	480.7	430.4	373.2	332.2	294.5	219.2	160.9	125.5	94.84	72.14	57.09	56.47	75.34	146.9	936.0	4397	5629	224.9	13.43	5.500	4.122	3.903	4.188	4.249	4.248	4.248	4.338	4.576	4.500	4.672	4.646	4.656	4.720	4.316	4.371	4.226	4.159	4.002	3.870	3.847	3.544	3.847	3.594	3.644	3.632	3.311	3.325	3.499
450.0	1134	2289	1193	940.6	986.5	1021	1043	1067	1058	1045	1015	950.7	872.0	787.2	713.5	648.6	607.0	591.0	571.4	561.1	558.3	558.5	557.4	556.6	552.9	540.6	524.3	511.6	489.7	460.8	415.5	360.0	312.0	280.1	241.6	178.3	134.4	103.9	80.48	62.84	51.48	46.44	54.92	227.0	1137	3518	4605	1039	17.83	5.738	4.453	4.828	4.396	4.225	4.162	4.063	4.418	4.350	4.420	4.438	4.570	4.463	4.152	4.251	4.084	4.051	3.673	3.712	3.552	3.524	3.310	3.401	3.320	3.224	3.163	3.232	3.236
455.0	614.4	2164	2241	909.3	910.6	942.7	977.9	1008	984.1	988.5	949.8	889.0	811.2	729.8	653.5	597.8	555.3	535.4	519.9	510.9	505.6	505.3	502.3	506.3	498.8	497.0	485.6	471.7	456.2	435.9	393.4	345.9	297.0	258.3	232.7	200.1	149.6	111.7	87.42	69.19	54.62	44.47	38.66	71.52	269.9	806.1	1925	5034	1566	22.00	5.898	4.883	4.876	4.360	4.152	4.103	4.199	4.196	4.276	4.339	4.128	4.442	4.072	4.041	3.854	3.452	3.573	3.302	3.376	3.233	3.024	3.204	3.094	3.208	2.899	2.871	3.067
460.0	480.0	1462	3188	1111	850.3	871.5	913.2	933.2	929.2	928.4	889.6	842.3	763.7	682.1	614.0	550.0	520.1	496.3	480.5	472.0	466.1	465.8	464.0	464.1	466.0	460.5	451.1	440.9	428.9	413.6	376.8	331.9	286.9	245.6	215.3	200.9	161.7	118.4	90.88	72.00	58.93	45.56	37.16	37.54	78.36	195.0	466.1	2594	5046	1195	18.03	6.292	4.977	4.610	4.149	4.125	3.946	4.217	3.828	3.921	3.965	4.078	3.673	4.097	3.568	3.556	3.516	3.249	3.129	3.196	2.964	2.941	2.735	2.824	2.690	2.941	2.668
465.0	431.2	865.6	3202	2008	817.4	806.3	858.8	874.0	870.7	878.4	851.8	797.9	715.7	644.5	571.1	517.3	483.2	460.1	446.6	439.4	430.0	432.5	428.1	433.7	436.2	423.1	421.9	413.0	407.2	387.4	360.1	315.9	276.0	237.7	204.4	184.3	167.4	126.6	94.58	74.84	60.78	47.13	38.64	32.65	36.99	59.82	117.7	661.9	3274	4460	194.9	15.50	5.888	4.991	4.382	4.129	3.944	3.789	4.006	3.902	3.997	3.668	3.656	3.740	3.807	3.281	3.248	3.263	3.012	2.919	2.718	2.817	2.612	2.624	2.696	2.730	2.525
470.0	405.5	578.0	1910	3242	1156	742.7	767.5	796.1	811.7	790.4	781.3	728.2	652.2	587.1	517.3	464.6	428.3	410.9	397.7	389.4	381.0	380.9	381.6	382.5	385.5	378.8	375.4	371.4	367.6	348.9	328.0	293.6	257.1	223.7	191.0	167.3	153.3	136.2	101.8	77.34	62.85	51.16	40.83	32.97	29.32	30.60	40.37	159.8	828.7	2514	3314	996.9	19.01	6.232	4.733	4.187	4.152	3.789	3.825	3.659	3.847	3.518	3.631	3.515	3.273	3.139	3.012	2.888	2.985	2.708	2.534	2.619	2.492	2.478	2.482	2.532	2.398
475.0	390.5	455.6	902.9	3044	2485	723.2	701.7	715.3	734.9	719.3	709.4	655.9	591.3	527.3	459.1	416.4	380.1	367.7	356.1	344.4	334.0	338.1	337.7	339.8	338.0	337.3	333.5	331.6	328.7	315.8	296.4	267.2	238.6	207.8	177.4	153.2	137.4	125.8	110.5	82.25	64.29	52.50	41.85	34.28	29.61	25.77	24.20	48.07	195.0	572.8	1276	3412	1506	25.61	5.623	4.304	4.111	3.837	3.496	3.381	3.311	3.306	3.351	3.394	2.976	2.878	3.091	2.914	2.851	2.377	2.471	2.313	2.460	2.217	2.239	2.171	2.129
480.0	376.5	447.4	604.1	1972	3537	1009	644.9	664.3	688.8	665.3	658.8	604.7	552.6	492.9	432.2	382.7	349.9	338.4	325.3	313.1	306.9	307.2	306.4	309.7	306.0	307.2	305.2	302.4	299.3	292.9	277.5	248.3	224.7	195.5	169.2	146.9	128.5	114.0	108.7	89.41	66.11	53.55	44.36	36.50	29.77	25.61	22.14	23.93	54.52	136.9	304.1	1611	3807	1312	19.89	4.986	4.263	4.156	3.531	3.565	3.000	3.173	3.097	2.919	2.853	2.776	3.000	2.738	2.550	2.296	2.557	2.028	2.253	2.116	2.190	2.197	2.137
485.0	334.8	438.1	510.5	1026	3662	1863	624.7	631.7	638.5	626.6	617.2	577.1	520.0	456.9	405.4	359.3	329.0	317.6	302.9	292.3	284.7	282.8	284.0	284.3	288.1	285.5	282.6	281.7	277.3	275.4	261.0	233.5	211.6	185.7	162.0	140.9	123.3	106.8	99.89	95.23	72.21	55.26	46.20	36.95	31.66	27.04	22.42	19.29	23.46	39.97	76.69	404.5	2267	3678	232.3	14.70	4.775	4.219	3.536	3.455	2.788	3.089	2.928	3.052	2.820	2.732	2.635	2.553	2.485	2.084	2.242	2.194	2.221	2.102	1.884	2.069	1.845
490.0	271.2	417.8	465.4	601.6	2254	3361	956.8	578.4	587.7	582.0	568.5	533.4	482.0	426.3	374.3	328.3	305.3	289.0	274.0	265.2	257.3	257.0	254.8	256.7	257.8	256.7	255.7	254.6	253.8	250.9	239.1	216.0	195.9	173.8	153.2	133.4	116.3	102.0	90.55	86.99	78.62	59.43	47.21	38.45	33.19	27.78	23.06	19.44	17.83	19.06	25.77	98.15	562.7	1873	2940	1029	20.64	5.296	3.954	3.456	3.079	2.923	2.920	2.818	2.590	2.503	2.439	2.401	2.195	2.095	2.097	2.096	1.952	1.945	1.701	1.841	1.843
495.0	238.0	362.8	445.1	450.2	921.5	3379	2277	561.0	538.0	526.1	512.2	474.1	436.0	382.4	334.8	294.3	273.2	258.5	245.6	234.5	228.0	225.8	228.2	230.5	229.1	227.6	227.7	226.4	228.9	224.6	214.1	193.6	177.3	157.8	140.7	124.6	109.0	95.77	83.38	75.68	73.24	65.62	50.02	38.43	33.51	27.97	24.22	20.81	17.40	15.03	14.49	29.94	132.3	425.6	1122	3191	1712	28.26	4.898	3.801	3.148	2.812	2.738	2.596	2.518	2.294	2.316	2.329	2.001	1.888	1.928	1.894	1.819	1.808	1.787	1.707	1.775
500.0	217.6	304.5	459.7	402.0	525.5	2223	3582	785.4	503.2	478.4	472.4	438.0	394.7	348.7	306.8	269.9	246.9	235.5	224.1	216.3	208.9	205.4	206.4	207.0	203.3	207.5	207.4	207.2	208.0	203.2	196.4	179.9	162.4	146.4	131.1	116.1	102.9	90.46	78.99	70.34	64.26	66.13	53.65	39.52	33.28	28.58	24.18	20.52	17.82	14.37	12.34	14.88	36.48	101.2	264.7	1421	3591	1397	22.25	4.242	3.403	3.007	2.744	2.430	2.388	2.267	2.056	2.082	1.833	1.866	1.990	1.795	1.576	1.816	1.606	1.729	1.535
505.0	187.7	250.2	416.3	394.1	402.1	1058	3974	1554	462.3	448.1	440.7	403.0	360.0	324.4	279.5	251.8	226.8	215.0	204.3	196.3	190.3	187.1	186.9	187.0	187.8	187.1	187.3	188.4	188.9	185.7	180.7	165.3	149.7	135.6	120.9	109.7	96.94	85.56	75.30	66.17	59.33	58.44	55.06	41.61	33.37	27.97	23.66	20.98	17.89	14.93	12.34	11.35	15.19	28.80	65.15	348.4	1934	3418	257.1	15.18	3.958	3.029	2.746	2.560	2.368	2.126	2.030	1.958	1.864	1.835	1.753	1.529	1.640	1.577	1.532	1.515	1.425
510.0	164.4	227.5	336.5	387.6	348.5	512.1	2484	3310	711.6	399.0	391.9	360.1	326.3	284.1	248.6	220.3	200.3	188.4	180.0	171.1	166.7	162.9	161.9	163.2	162.3	164.0	162.5	163.5	166.1	164.1	157.6	146.4	133.2	120.0	109.2	97.84	87.40	77.86	67.97	60.40	53.60	49.14	49.18	44.57	35.53	27.64	23.62	20.12	17.50	14.37	12.63	10.84	10.56	12.65	20.21	83.03	471.1	1598	2400	1060	20.35	3.823	2.843	2.615	2.337	2.006	1.810	1.734	1.815	1.716	1.561	1.500	1.383	1.379	1.423	1.380	1.421
515.0	140.5	194.8	258.1	370.0	331.7	342.9	902.2	3779	1949	374.0	348.9	316.0	285.7	249.9	217.8	192.2	174.9	165.7	154.0	149.1	145.6	140.9	139.9	142.0	138.0	139.9	140.8	140.1	143.4	141.4	135.8	126.2	116.7	106.7	95.24	86.10	78.09	69.60	61.55	55.04	48.67	43.91	40.87	41.60	38.15	29.43	22.03	19.70	17.07	14.31	12.47	10.82	9.659	9.058	10.02	23.69	109.6	361.8	834.6	2458	1598	28.85	3.518	2.543	2.112	1.970	1.864	1.712	1.560	1.478	1.405	1.467	1.332	1.198	1.246	1.310	1.201
520.0	126.6	180.4	214.2	313.8	325.9	289.9	430.3	2517	3223	550.5	312.2	291.7	258.8	229.3	197.8	172.4	156.6	148.7	140.7	135.9	130.8	124.4	126.3	126.6	126.0	125.6	125.3	127.5	126.5	127.9	123.1	114.0	105.6	95.80	85.46	78.74	70.97	63.69	56.94	50.86	44.77	40.03	35.88	36.98	37.55	30.98	23.10	19.25	16.75	13.72	12.08	10.90	9.646	8.131	7.804	10.37	29.21	85.12	195.9	1046	2680	1184	22.03	2.866	2.128	2.105	1.783	1.587	1.577	1.440	1.466	1.318	1.243	1.100	1.055	1.281	1.104
525.0	121.1	169.3	199.9	255.8	337.9	275.6	291.8	1137	4331	1271	290.0	266.4	233.7	208.2	178.8	158.8	145.0	134.4	126.8	123.1	118.0	114.4	112.2	113.4	112.1	112.4	111.8	113.4	111.6	114.7	110.3	103.6	94.34	85.93	78.78	71.76	64.05	58.35	52.14	46.52	42.78	37.05	33.03	31.67	33.48	31.22	24.05	18.47	15.74	13.24	11.73	10.14	9.483	8.340	7.146	7.308	11.03	23.15	47.82	252.2	1349	2526	261.2	13.86	2.505	2.154	1.693	1.549	1.514	1.405	1.226	1.171	1.261	1.064	1.032	1.257	1.039
530.0	111.8	142.6	167.8	199.2	290.3	277.4	240.8	458.0	2841	3228	483.8	232.7	205.1	180.6	156.6	139.8	125.6	119.1	110.7	105.6	103.0	99.72	98.08	97.97	96.52	97.66	96.33	98.77	98.53	98.17	95.97	88.71	82.72	75.59	69.18	63.01	56.53	51.08	46.72	41.57	37.50	33.44	30.59	27.87	26.36	27.85	25.44	18.96	15.03	13.08	11.04	9.691	8.901	8.123	7.285	6.532	6.832	9.245	14.19	59.76	326.6	1137	1710	942.5	19.58	2.876	1.872	1.698	1.467	1.284	1.138	1.128	1.009	1.140	0.945	0.969	0.910
535.0	96.76	124.3	158.1	161.8	212.0	277.6	215.1	256.9	972.9	4132	1659	213.1	179.6	157.3	136.7	119.0	108.8	101.0	97.00	90.07	88.88	85.03	83.10	83.29	80.89	81.27	82.62	83.78	84.21	82.93	82.00	76.44	70.95	64.71	58.57	53.77	48.21	44.69	40.45	36.78	32.94	30.29	26.84	24.94	22.91	22.79	23.85	20.26	15.01	12.40	9.974	9.115	8.276	7.637	7.085	5.944	5.557	5.854	6.675	16.69	75.71	256.9	573.0	1769	1256	27.90	2.400	1.907	1.546	1.149	1.169	1.175	1.079	0.969	0.993	0.895	0.835
540.0	86.53	102.8	129.4	145.2	171.0	256.0	213.3	198.1	374.0	2791	3408	272.3	154.6	142.1	121.6	106.3	93.82	90.75	85.86	80.40	77.07	75.15	72.72	73.10	74.10	70.62	73.29	72.74	73.05	73.69	71.76	66.83	62.25	56.17	52.43	47.41	43.99	39.21	35.77	32.65	29.19	27.40	24.43	22.00	20.32	18.80	20.19	19.77	15.67	11.83	9.425	8.639	7.786	7.046	6.598	6.299	5.329	5.149	4.899	6.774	19.90	60.03	133.5	714.1	1915	890.2	20.72	2.022	1.563	1.123	1.167	1.304	0.904	0.955	0.905	0.829	0.764
545.0	83.40	96.60	106.9	126.4	144.5	211.8	224.3	171.7	214.7	1202	4404	820.9	143.8	125.8	108.9	95.12	85.54	78.36	73.78	71.32	66.47	65.45	64.50	64.01	64.45	62.14	63.89	63.36	64.87	64.63	63.17	57.99	54.57	49.66	46.52	41.82	38.78	35.02	32.16	29.34	25.49	24.79	21.43	20.67	18.21	16.91	16.73	17.76	16.40	11.63	9.300	8.062	7.005	6.677	6.117	5.841	5.476	4.424	4.240	4.296	7.054	15.97	32.44	170.7	913.4	1792	258.3	12.42	1.856	1.358	1.192	1.107	0.949	0.917	0.908	0.861	0.878
550.0	71.10	94.02	92.85	103.6	119.9	146.7	221.7	156.4	157.0	400.3	2816	2661	199.4	107.3	88.94	81.43	71.47	66.47	62.81	60.18	57.04	53.26	54.53	53.61	53.18	52.35	53.15	53.32	53.38	53.35	51.55	48.09	44.56	42.06	38.83	35.70	32.59	29.51	26.97	24.96	22.16	20.91	18.60	17.40	15.67	14.59	13.78	13.34	14.33	12.08	8.933	7.455	6.315	5.944	5.338	5.315	4.933	4.634	4.019	3.443	3.953	5.992	9.491	40.37	217.8	761.2	1189	682.3	19.38	2.036	1.222	1.129	1.021	0.905	0.757	0.781	0.775
555.0	67.46	81.63	84.42	87.83	93.92	108.0	174.9	174.7	123.0	178.7	882.1	3752	1055	94.97	74.80	65.73	59.13	53.57	50.55	47.41	46.48	44.13	44.46	44.08	43.25	42.99	42.60	42.47	43.20	43.63	41.56	40.53	35.99	34.09	31.75	29.26	27.13	24.26	22.08	20.73	18.50	17.29	15.39	13.91	12.95	12.21	11.09	10.13	11.04	11.01	9.479	7.037	5.683	5.075	4.844	4.560	4.252	4.362	4.013	3.296	3.132	3.358	4.209	11.07	50.44	171.9	374.4	1121	864.4	27.62	1.746	1.296	1.135	0.846	0.741	0.773	0.635
560.0	78.72	68.95	81.55	84.25	81.99	84.67	132.8	189.9	112.6	122.2	287.6	2579	2531	141.1	63.00	54.93	50.79	46.26	43.25	41.08	39.48	37.46	37.20	36.37	35.98	36.05	37.02	35.83	36.36	36.96	35.67	33.45	30.47	28.92	26.45	23.92	22.25	21.05	18.98	17.83	16.46	14.96	13.30	12.77	11.21	10.68	9.725	8.716	8.801	9.276	9.017	6.768	5.419	4.421	4.385	4.021	3.816	3.595	3.729	3.355	2.976	2.693	2.963	4.453	13.05	40.27	86.98	425.2	1190	277.0	20.02	1.423	1.052	0.824	0.731	0.618	0.667
565.0	63.69	72.73	78.64	73.01	76.81	70.18	93.55	179.4	122.0	100.9	140.5	1085	3598	468.2	54.99	49.20	42.71	39.51	37.30	34.13	33.05	31.60	31.06	30.85	30.62	31.02	31.21	31.09	30.79	30.46	29.48	28.51	26.14	24.33	22.66	21.17	18.54	17.60	16.27	14.74	13.85	12.91	11.53	10.53	10.23	9.772	8.388	7.666	7.072	7.202	7.968	6.856	5.218	4.282	3.791	3.716	3.501	3.385	3.411	3.335	2.836	2.579	2.550	2.712	4.549	10.86	21.39	100.5	523.8	1029	249.8	11.43	1.216	0.915	0.750	0.646	0.606
570.0	64.15	64.72	72.89	64.68	64.57	61.86	72.79	123.3	140.2	87.93	96.38	326.7	2410	1938	102.8	41.19	34.61	32.40	30.19	28.72	27.73	26.31	25.77	25.26	24.91	25.19	25.20	25.04	25.18	24.68	24.27	23.17	21.42	20.41	18.37	17.01	15.32	14.52	13.08	12.47	10.96	10.44	9.856	8.689	8.166	7.850	6.993	6.325	5.611	5.418	5.716	6.226	5.205	4.049	3.493	3.290	3.215	3.184	2.846	2.793	2.996	2.582	2.389	2.380	2.731	4.173	6.554	24.17	123.7	421.5	721.8	453.7	18.70	1.510	0.821	0.675	0.658
575.0	59.82	63.75	64.85	58.41	53.00	49.24	56.49	82.25	149.4	93.57	79.01	126.4	733.2	2870	678.0	36.42	28.64	27.97	24.85	22.75	22.22	21.73	20.84	19.94	19.20	19.40	19.61	20.11	20.05	20.52	20.23	18.18	17.61	16.48	14.81	13.27	12.45	11.92	10.69	10.21	9.140	8.158	7.573	7.285	6.613	6.369	5.816	5.022	4.851	4.293	4.153	4.553	5.141	4.586	3.404	2.790	2.897	2.820	2.439	2.430	2.594	2.975	2.177	2.199	2.370	2.460	3.217	6.968	29.18	95.69	213.4	642.4	552.2	26.18	1.229	0.687	0.603
580.0	58.94	61.21	60.44	54.43	49.80	47.86	48.23	61.45	128.0	112.1	75.19	84.24	216.2	2001	1764	62.81	24.56	23.95	21.44	19.93	18.83	18.05	17.75	17.13	17.07	16.38	16.68	16.92	16.12	17.03	17.23	15.38	14.97	13.31	12.51	11.68	10.62	10.04	9.160	8.283	7.586	7.058	6.467	6.267	5.782	5.266	4.948	4.686	4.250	3.794	3.454	3.523	4.290	4.568	3.311	2.666	2.500	2.532	2.370	2.022	2.195	2.525	2.450	2.372	2.249	2.098	2.282	3.103	7.973	22.83	49.56	233.5	705.3	268.6	18.53	0.789	0.648
585.0	57.77	65.94	61.75	49.22	44.21	44.96	48.11	51.04	93.60	134.4	75.38	70.41	93.15	814.2	2550	139.7	22.25	21.02	18.47	16.93	16.00	15.31	15.69	14.94	14.99	14.98	14.17	14.13	14.47	14.18	14.22	13.42	12.35	11.71	10.82	9.635	9.159	8.507	7.756	7.194	6.861	6.059	5.588	5.212	5.176	4.818	4.199	4.056	3.566	3.483	2.944	2.804	3.245	4.118	3.347	2.729	2.244	2.172	2.108	2.110	1.968	2.014	2.154	2.213	1.955	1.822	1.882	1.944	3.008	6.329	12.30	55.11	298.0	642.8	224.7	9.460	0.679
590.0	55.21	66.50	56.41	49.06	41.48	41.26	41.54	42.31	61.96	122.3	89.62	63.51	62.39	231.1	1678	1203	51.73	17.44	15.38	14.19	13.72	12.97	12.24	11.95	12.24	11.98	11.88	11.68	11.78	11.22	11.35	10.88	10.03	9.280	8.864	7.981	7.434	6.900	6.367	5.908	5.437	5.176	4.933	4.336	4.209	4.045	3.556	3.476	3.032	2.843	2.468	2.293	2.485	2.978	3.279	2.833	2.173	1.906	1.747	1.856	1.639	1.610	1.896	2.097	1.873	1.708	1.565	1.588	1.729	2.605	3.814	13.30	69.89	249.3	450.0	306.4	18.30
595.0	51.70	60.07	59.88	42.57	37.62	36.69	38.92	40.37	48.48	86.08	115.5	64.24	53.44	82.05	491.4	1846	362.0	15.38	12.60	11.50	10.95	11.09	10.69	9.553	9.515	9.381	9.586	9.585	9.181	9.122	8.760	8.392	8.222	7.428	6.791	6.426	5.775	5.688	5.176	4.531	4.366	4.127	4.106	3.809	3.421	3.326	2.858	2.885	2.589	2.275	2.208	1.897	2.036	2.087	2.555	2.737	2.219	1.702	1.513	1.528	1.611	1.367	1.482	1.589	1.753	1.617	1.400	1.321	1.504	1.586	1.722	3.686	16.33	56.21	126.7	381.4	283.1
600.0	52.34	59.27	54.43	45.15	33.25	34.88	33.48	36.34	44.20	62.22	117.6	73.37	51.08	49.76	137.4	1298	917.6	31.61	10.95	9.949	9.503	8.610	8.430	9.030	8.389	8.314	8.032	7.663	7.491	7.153	7.720	7.795	6.660	6.195	5.677	5.544	5.127	4.727	4.374	4.001	3.744	3.505	3.535	3.097	2.935	2.667	2.611	2.284	2.199	1.954	1.794	1.654	1.664	1.723	1.915	2.358	2.160	1.742	1.366	1.467	1.320	1.391	1.294	1.383	1.548	1.446	1.368	1.143	1.221	1.152	1.228	1.592	4.341	13.10	29.20	130.6	401.5
605.0	51.40	61.06	52.45	39.84	33.08	32.16	34.23	35.87	44.53	55.53	106.3	84.48	53.21	41.50	53.58	531.9	1542	97.18	10.21	8.862	7.913	7.443	7.521	7.401	7.185	6.906	7.150	7.076	6.952	6.466	6.402	6.567	5.750	5.315	5.236	4.622	4.331	3.998	3.813	3.402	3.205	2.983	2.814	2.615	2.543	2.365	2.323	2.080	1.964	1.766	1.638	1.500	1.518	1.486	1.480	2.003	2.009	1.924	1.351	1.287	1.186	1.386	1.154	1.245	1.300	1.300	1.461	1.164	1.031	1.145	0.992	1.126	1.693	3.500	7.100	30.50	163.4
610.0	46.16	57.14	49.40	40.18	32.37	30.87	32.71	40.08	45.15	56.64	85.87	109.6	65.57	45.86	38.31	150.5	1084	772.5	31.31	8.172	7.120	6.565	6.319	6.080	5.936	5.641	5.962	5.712	5.738	5.622	5.244	5.180	4.746	4.233	4.199	3.752	3.829	3.456	3.221	2.753	2.734	2.604	2.377	2.067	2.132	1.913	1.932	1.735	1.533	1.418	1.351	1.370	1.242	1.136	1.175	1.428	1.647	1.712	1.418	1.207	1.098	1.136	1.080	1.062	1.116	1.125	1.239	1.294	1.062	1.094	0.980	0.893	0.930	1.330	2.121	7.326	38.09
615.0	41.84	53.90	47.64	37.91	31.87	30.48	34.30	37.44	42.74	55.57	73.52	105.7	81.87	49.41	35.21	53.00	333.9	1229	232.5	7.970	6.476	5.535	5.469	4.799	5.029	5.225	4.750	4.819	4.508	4.725	4.312	4.206	3.862	3.692	3.311	3.302	3.168	2.874	2.842	2.323	2.147	2.114	1.956	1.780	1.802	1.733	1.432	1.370	1.258	1.135	1.157	1.199	1.043	1.026	1.067	1.033	1.120	1.497	1.307	1.181	1.087	0.978	0.965	0.907	0.973	0.928	1.010	1.200	1.112	0.954	0.942	0.805	0.698	0.878	1.058	2.073	9.029
620.0	43.63	51.59	44.35	35.01	31.37	30.71	32.71	36.11	42.54	52.03	64.95	88.30	92.27	50.19	35.47	31.07	95.49	887.9	659.3	17.38	5.713	4.411	4.478	4.273	4.097	4.418	4.109	4.326	3.790	4.090	3.900	3.699	3.360	3.019	2.949	2.932	2.645	2.481	2.470	1.948	1.812	1.811	1.568	1.440	1.506	1.393	1.266	1.173	1.210	0.964	1.092	0.962	0.952	0.831	0.908	0.905	0.907	1.125	1.389	1.259	1.060	0.828	0.905	0.816	0.962	0.793	0.895	0.889	1.061	0.976	0.829	0.867	0.712	0.756	0.678	0.921	2.442
625.0	41.22	44.64	46.77	37.51	27.99	30.32	29.95	37.14	39.89	51.12	58.89	74.45	93.50	55.48	36.13	24.69	36.66	376.9	1076	71.17	5.549	4.402	4.057	3.997	3.664	3.459	3.547	3.607	3.276	3.760	3.508	3.104	2.907	2.964	2.503	2.494	2.353	2.294	2.093	1.946	1.622	1.500	1.377	1.312	1.381	1.231	1.242	1.129	1.030	0.947	0.891	0.908	0.839	0.726	0.743	0.733	0.919	0.938	1.178	1.201	0.979	0.814	0.839	0.800	0.817	0.784	0.834	0.915	0.911	0.899	0.906	0.809	0.675	0.663	0.580	0.623	0.951
630.0	35.72	46.12	48.47	35.30	28.37	27.79	29.57	33.08	39.28	48.37	54.96	65.75	86.78	64.68	34.64	25.17	23.71	105.2	794.5	503.8	17.48	4.164	3.634	3.409	3.500	2.846	2.926	2.987	2.728	3.146	2.959	2.630	2.618	2.296	2.199	2.147	1.911	1.905	1.718	1.620	1.405	1.195	1.125	1.105	1.171	1.066	1.062	0.970	0.901	0.781	0.745	0.694	0.749	0.681	0.695	0.660	0.732	0.717	0.882	1.048	0.913	0.747	0.798	0.684	0.713	0.695	0.704	0.776	0.738	0.801	0.881	0.820	0.631	0.583	0.584	0.611	0.619
635.0	39.78	50.45	50.04	33.63	27.54	27.50	28.17	32.26	39.48	48.00	54.60	60.47	68.62	74.60	40.47	27.14	22.25	34.90	245.4	905.3	79.91	4.077	3.681	2.742	2.990	2.607	2.493	2.308	2.245	2.663	2.598	2.224	2.062	2.080	1.964	1.820	1.472	1.516	1.281	1.218	1.300	1.139	0.973	1.031	0.867	0.795	0.795	0.869	0.790	0.682	0.619	0.610	0.622	0.689	0.694	0.649	0.653	0.626	0.729	0.750	0.755	0.821	0.779	0.594	0.619	0.757	0.734	0.751	0.690	0.689	0.743	0.802	0.725	0.605	0.587	0.494	0.503
640.0	48.74	53.20	48.30	37.95	25.15	28.08	30.40	30.45	37.12	45.69	55.10	60.31	63.29	75.13	51.83	29.03	23.78	20.62	67.22	698.0	454.0	9.651	3.456	2.704	2.681	2.517	2.364	1.981	1.984	2.112	2.196	1.989	1.630	1.740	1.764	1.523	1.459	1.327	1.186	1.121	1.105	1.154	1.064	0.844	0.708	0.821	0.690	0.814	0.782	0.631	0.543	0.594	0.589	0.600	0.554	0.551	0.560	0.582	0.580	0.509	0.680	0.783	0.724	0.634	0.627	0.687	0.571	0.609	0.637	0.608	0.659	0.741	0.758	0.751	0.602	0.435	0.517
645.0	44.28	56.42	49.51	41.29	25.69	25.87	28.28	29.30	36.28	44.55	54.93	63.60	61.27	68.03	59.41	32.41	25.65	17.95	24.32	311.5	779.8	50.74	3.468	2.804	2.234	2.246	1.988	1.911	1.904	1.933	1.858	1.687	1.472	1.478	1.570	1.476	1.322	1.248	1.108	1.058	0.936	1.135	0.855	0.797	0.729	0.704	0.789	0.793	0.691	0.535	0.478	0.646	0.506	0.541	0.529	0.548	0.553	0.549	0.632	0.527	0.628	0.628	0.721	0.699	0.696	0.650	0.656	0.631	0.627	0.726	0.626	0.621	0.816	0.660	0.564	0.448	0.589
650.0	51.75	52.43	47.19	40.12	28.39	27.83	26.84	30.82	37.11	43.13	50.29	60.03	58.18	59.34	66.39	34.14	25.36	18.20	13.89	95.75	775.9	234.5	3.909	2.504	2.109	1.990	1.879	1.931	1.803	1.780	1.767	1.528	1.401	1.482	1.496	1.358	1.099	1.160	0.996	0.941	0.903	0.899	0.811	0.767	0.678	0.766	0.703	0.681	0.596	0.527	0.465	0.613	0.485	0.447	0.496	0.522	0.566	0.516	0.519	0.539	0.537	0.574	0.631	0.628	0.592	0.612	0.643	0.531	0.552	0.733	0.549	0.658	0.754	0.739	0.571	0.511	0.485
