Sample:	'1
File name:	w101408Ô¬¼ÒÎÝ×ÓÄÏÕ¢.FD3
Run date:	'10:07:35, 10/15/2024
Operator:	horiz
Comment:	'

Instrument
Model:	F-2700 FL Spectrophotometer
Serial number:	23B8-004
ROM Version:	4J14000 07

Instrument parameters
Measurement type:	3-D scan
Data mode:	Fluorescence
EX  Start WL:	220.0 nm
EX  End WL:	600.0 nm
EX Sampling interval:	5.0 nm
EM  Start WL:	230.0 nm
EM  End WL:	650.0 nm
EM Sampling interval:	5.0 nm
Scan speed:	12000 nm/min
EX Slit:	5.0 nm
EM Slit:	5.0 nm
PMT Voltage:	700 V
Response:	Auto 
Corrected spectra:	Off
Contour interval:	50.000

Peak integration
Integration method:	Rectangular
Sensitivity:	1
Threshold:	1.000

Peaks
No.	ApexEX/EM(nm)	Height(Data)
1	225.0/615.0	65.26
2	230.0/345.0	3155
3	230.0/585.0	84.69
4	230.0/600.0	84.55
5	230.0/630.0	66.08
6	235.0/350.0	3078
7	245.0/410.0	1940
8	255.0/280.0	581.6
9	255.0/445.0	2075
10	260.0/570.0	156.0
11	265.0/585.0	138.4
12	270.0/600.0	132.1
13	275.0/415.0	2417
14	275.0/615.0	152.8
15	275.0/640.0	114.0
16	280.0/335.0	2757
17	280.0/625.0	132.9
18	285.0/640.0	114.1
19	330.0/415.0	1652
20	475.0/355.0	11.08
21	505.0/440.0	10.22
22	510.0/450.0	10.24
23	515.0/285.0	3.678
24	565.0/340.0	12.95
25	585.0/325.0	11.99
26	585.0/410.0	9.543

Wavelength data
No.	EX/EM(nm)	Height(Data)	

Data points
	220.0	225.0	230.0	235.0	240.0	245.0	250.0	255.0	260.0	265.0	270.0	275.0	280.0	285.0	290.0	295.0	300.0	305.0	310.0	315.0	320.0	325.0	330.0	335.0	340.0	345.0	350.0	355.0	360.0	365.0	370.0	375.0	380.0	385.0	390.0	395.0	400.0	405.0	410.0	415.0	420.0	425.0	430.0	435.0	440.0	445.0	450.0	455.0	460.0	465.0	470.0	475.0	480.0	485.0	490.0	495.0	500.0	505.0	510.0	515.0	520.0	525.0	530.0	535.0	540.0	545.0	550.0	555.0	560.0	565.0	570.0	575.0	580.0	585.0	590.0	595.0	600.0
230.0	28.31	1067	3814	1843	82.90	7.944	7.333	6.278	5.672	5.732	5.633	5.848	5.315	4.989	4.272	3.911	3.732	3.423	3.069	2.959	2.992	2.476	2.347	2.243	2.014	1.863	1.820	1.913	1.656	1.548	1.550	1.389	1.283	1.283	1.272	0.995	1.022	0.874	0.817	0.762	0.767	0.780	0.802	0.669	0.609	0.638	1.331	6.709	14.24	12.50	5.066	1.209	0.490	0.457	0.406	0.404	0.450	0.426	0.356	0.323	0.330	0.301	0.291	0.290	0.285	0.261	0.249	0.244	0.222	0.224	0.219	0.199	0.167	0.197	0.188	0.186	0.180
235.0	75.31	294.7	2350	5799	2425	143.1	12.62	7.711	6.832	6.603	6.720	7.044	6.758	5.116	4.360	4.405	3.640	3.563	3.275	3.264	2.889	2.485	2.624	2.435	2.204	1.904	1.853	1.808	1.660	1.374	1.566	1.337	1.346	1.332	1.157	1.087	1.087	0.982	0.876	0.785	0.752	0.732	0.753	0.692	0.776	0.795	0.742	2.107	5.434	11.69	19.02	21.59	11.30	2.170	0.416	0.400	0.414	0.502	0.435	0.397	0.331	0.333	0.355	0.327	0.295	0.322	0.256	0.211	0.249	0.179	0.222	0.223	0.179	0.172	0.172	0.212	0.188
240.0	92.56	125.3	686.3	4778	5649	2231	70.12	11.90	9.162	8.070	7.372	7.332	6.426	5.865	4.129	4.857	3.882	3.623	3.166	3.228	3.229	2.731	2.521	2.434	2.323	2.017	1.940	1.804	1.905	1.502	1.595	1.385	1.253	1.276	1.185	1.131	1.121	0.936	0.884	0.862	0.777	0.729	0.762	0.731	0.769	0.857	0.727	1.061	1.638	3.585	10.71	28.09	30.76	21.70	8.736	1.224	0.486	0.505	0.414	0.386	0.400	0.377	0.317	0.356	0.289	0.292	0.302	0.220	0.253	0.196	0.230	0.220	0.214	0.163	0.168	0.202	0.249
245.0	76.32	149.8	207.8	1541	6838	8553	454.9	27.28	11.53	9.208	9.159	8.026	6.957	6.045	4.963	5.428	4.598	4.104	3.441	3.106	3.259	2.675	2.813	2.655	2.367	2.289	1.857	1.817	1.958	1.519	1.647	1.358	1.181	1.215	1.153	1.092	1.033	1.016	0.924	0.777	0.880	0.670	0.723	0.680	0.734	0.888	0.876	1.069	0.865	1.340	2.868	9.491	25.17	44.77	30.81	19.57	5.561	0.808	0.442	0.395	0.420	0.462	0.345	0.354	0.335	0.350	0.293	0.288	0.235	0.258	0.281	0.263	0.245	0.168	0.169	0.207	0.238
250.0	41.85	115.4	214.6	437.4	2169	7953	9999.9	1635	111.6	14.80	11.38	10.55	8.230	7.948	5.848	5.666	4.735	4.327	3.890	3.329	3.635	2.714	2.765	2.742	2.471	2.319	2.120	2.128	1.920	1.776	1.675	1.395	1.384	1.323	1.237	1.127	1.088	1.130	0.979	0.888	0.825	0.826	0.712	0.693	0.774	0.818	0.743	1.049	1.186	1.180	1.309	2.626	6.365	15.06	25.98	43.60	46.25	47.18	14.79	5.541	0.717	0.456	0.452	0.413	0.348	0.392	0.338	0.269	0.290	0.272	0.250	0.294	0.220	0.202	0.229	0.211	0.241
255.0	38.09	53.51	146.5	324.2	577.9	1982	9161	9999.9	2328	122.2	18.02	15.18	10.72	9.975	7.537	6.160	5.600	5.274	4.495	3.796	4.343	3.071	3.048	2.898	2.929	2.265	2.484	2.394	2.030	1.941	1.839	1.446	1.410	1.391	1.379	1.108	1.174	1.230	1.000	0.884	0.912	0.745	0.816	0.736	0.826	0.760	0.701	0.791	0.905	1.238	1.624	1.782	2.066	3.781	6.308	10.81	20.20	54.98	83.64	81.93	22.10	5.647	0.638	0.505	0.424	0.385	0.342	0.293	0.381	0.297	0.284	0.259	0.224	0.211	0.309	0.203	0.260
260.0	35.54	38.11	67.78	261.3	353.6	509.1	2819	9999.9	9999.9	1796	60.71	20.90	15.34	12.76	8.359	6.783	6.415	5.400	4.382	4.047	4.126	3.464	2.863	2.922	3.117	2.408	2.664	2.669	2.243	2.074	1.938	1.666	1.529	1.396	1.422	1.122	1.245	1.212	1.073	0.834	0.994	0.802	0.891	0.885	0.899	0.700	0.736	0.767	0.785	0.812	1.147	1.899	1.948	1.752	1.854	2.845	5.157	15.48	40.42	90.96	103.7	32.62	18.01	2.839	0.525	0.440	0.348	0.355	0.374	0.303	0.327	0.242	0.306	0.318	0.337	0.240	0.243
265.0	38.92	36.62	39.10	121.8	353.3	299.9	689.6	3814	9999.9	9999.9	261.4	38.36	19.38	15.60	10.47	9.096	6.956	6.139	5.322	4.570	4.205	3.856	2.947	3.210	3.013	2.615	2.564	2.627	2.520	2.447	2.138	1.889	1.472	1.447	1.438	1.234	1.166	1.117	1.109	1.094	0.949	0.913	0.852	0.871	0.858	0.809	0.743	0.679	0.670	0.790	0.742	1.238	1.955	2.288	1.429	1.219	1.738	4.041	9.893	27.81	64.48	115.3	125.4	30.49	12.53	1.026	0.442	0.442	0.455	0.429	0.338	0.343	0.312	0.283	0.304	0.245	0.294
270.0	54.36	52.36	40.57	62.59	177.5	377.4	369.3	935.7	4294	9999.9	9999.9	4760	81.23	24.30	15.17	12.63	9.468	7.265	6.376	5.530	4.821	4.164	3.535	3.337	3.124	2.962	2.555	2.784	2.737	2.472	2.338	2.136	1.695	1.619	1.580	1.298	1.195	1.185	1.120	1.090	1.091	0.995	0.972	0.912	0.927	0.951	0.805	0.833	0.733	0.770	0.685	0.844	1.044	1.571	1.791	2.249	1.937	1.762	2.777	6.837	15.64	35.43	68.75	106.8	144.9	98.69	18.84	9.158	1.143	0.507	0.467	0.400	0.382	0.354	0.335	0.354	0.317
275.0	95.85	106.2	98.89	76.83	83.99	188.6	489.7	444.1	1036	2748	9999.9	9999.9	1425	92.24	23.86	18.84	13.04	9.734	8.191	6.663	5.782	4.763	4.439	4.015	3.583	3.240	3.027	3.013	2.971	2.470	2.433	2.205	1.892	2.026	1.635	1.570	1.377	1.340	1.139	1.227	1.013	1.151	1.036	0.928	1.016	0.977	0.978	1.040	0.945	0.935	0.721	0.763	0.775	0.940	1.022	1.553	2.596	3.183	2.487	2.480	4.135	8.450	16.06	25.27	46.55	91.19	167.1	178.0	30.03	11.57	1.108	0.563	0.408	0.499	0.354	0.444	0.435
280.0	151.2	185.8	181.8	142.1	87.00	109.5	343.7	581.6	407.3	739.8	3588	9999.9	9999.9	1100	52.89	25.15	16.98	11.83	9.948	7.517	7.343	4.962	4.748	4.394	4.077	3.442	3.094	3.260	2.918	2.661	2.908	2.391	2.130	2.216	1.825	1.661	1.523	1.595	1.342	1.313	1.157	1.211	1.053	0.989	1.247	1.106	1.315	1.309	1.198	1.143	0.990	0.993	0.859	1.018	0.831	1.059	1.501	2.655	3.462	3.128	2.116	2.741	4.512	6.609	11.45	23.28	63.79	150.1	204.0	172.9	25.44	6.040	0.784	0.637	0.472	0.474	0.479
285.0	222.5	286.4	304.5	208.8	135.0	118.1	192.1	550.1	409.4	358.8	1006	5710	9999.9	9999.9	718.7	39.50	23.50	15.69	11.40	8.746	8.518	5.820	5.262	4.846	4.386	3.800	3.361	3.701	3.050	2.740	2.688	2.585	2.114	2.087	2.077	1.981	1.774	1.643	1.437	1.304	1.420	1.290	1.214	1.133	1.348	1.427	1.437	1.636	1.648	1.365	1.225	1.190	1.067	1.121	0.978	0.848	1.068	1.564	2.419	3.678	3.455	2.552	2.148	2.610	3.880	6.370	15.61	39.84	96.38	201.4	253.6	35.78	18.88	2.491	0.726	0.632	0.595
290.0	320.9	442.1	465.3	354.8	214.0	170.8	185.9	322.4	624.0	675.0	583.5	1639	6079	9999.9	9999.9	2946	58.12	24.57	17.03	11.95	10.57	7.511	6.254	5.979	5.047	4.548	3.894	4.074	3.504	3.289	2.887	2.764	2.324	2.277	2.287	2.125	1.981	1.757	1.615	1.490	1.377	1.431	1.491	1.390	1.668	1.843	2.003	2.161	2.132	2.037	1.678	1.623	1.432	1.434	1.163	1.036	1.295	1.394	1.623	2.181	2.832	3.887	4.157	3.570	3.042	3.268	5.212	10.69	23.53	53.01	108.2	138.3	182.2	145.4	100.2	13.74	3.030
295.0	410.0	591.7	650.7	509.2	312.3	249.6	255.9	307.9	472.8	933.5	956.3	919.6	1806	3228	9999.9	9999.9	787.1	65.06	25.84	17.28	14.10	10.24	8.110	7.115	5.946	5.486	4.393	4.892	4.066	3.808	3.334	3.051	2.477	2.590	2.488	2.271	2.159	2.136	1.897	1.673	1.681	1.600	1.708	1.558	1.877	2.163	2.515	2.872	2.781	2.517	2.127	2.186	1.764	1.818	1.464	1.447	1.610	1.742	1.697	2.027	2.226	2.750	3.756	5.325	5.721	4.444	3.845	4.924	7.680	14.17	26.13	32.90	49.00	96.69	205.8	274.3	36.95
300.0	475.4	703.7	777.6	627.3	403.6	345.6	353.3	409.8	546.9	873.5	1423	1136	1077	1219	4243	9999.9	9999.9	655.9	49.40	25.28	18.62	12.80	10.02	8.522	7.084	6.132	5.217	5.546	4.476	3.763	3.641	3.273	2.522	2.850	2.592	2.281	2.313	2.277	2.018	1.853	1.786	1.752	1.932	1.645	2.349	2.387	2.521	3.152	3.112	2.903	2.588	2.473	2.129	2.025	1.879	1.974	1.944	2.172	2.284	2.408	2.660	2.832	3.545	4.665	6.245	7.157	6.039	5.116	5.178	6.588	8.868	9.946	13.21	24.53	63.24	179.5	255.7
305.0	543.8	787.7	914.2	747.5	506.4	470.2	504.4	614.4	798.7	1081	1611	1824	1365	1081	1533	7275	9999.9	9999.9	465.9	36.26	24.76	15.14	12.46	10.21	8.363	7.004	5.546	6.108	5.366	4.049	3.927	3.607	3.101	3.067	2.934	2.629	2.390	2.544	2.068	2.110	2.024	1.922	1.942	1.820	2.455	2.494	2.972	3.446	3.671	3.161	2.907	2.847	2.615	2.396	2.580	2.369	2.545	2.837	3.076	3.650	3.843	4.107	4.639	5.531	6.457	7.756	9.140	8.633	7.589	6.571	6.597	6.438	6.692	8.844	16.80	45.36	96.81
310.0	625.1	924.5	1038	873.6	623.4	594.2	671.6	834.4	1056	1361	1728	2195	2097	1463	1185	2204	7501	9999.9	9999.9	2176	50.68	23.36	17.19	13.46	10.29	8.724	7.346	6.859	5.787	5.140	4.726	4.014	3.558	3.397	3.213	2.941	2.658	2.609	2.382	2.172	2.176	2.075	2.188	2.128	2.650	2.825	3.294	3.782	3.944	3.661	3.288	3.197	3.135	3.092	2.921	2.966	3.341	3.830	4.004	4.494	4.783	5.434	5.920	6.980	7.482	8.066	9.098	9.872	10.82	9.871	8.884	7.257	6.662	6.919	7.584	13.52	24.72
315.0	701.1	1124	1219	1001	733.3	698.7	783.7	981.4	1221	1556	1906	2264	2399	2086	1375	1165	2184	3195	9999.9	9999.9	3392	51.35	25.50	18.56	13.48	11.48	8.910	8.479	6.772	5.844	5.202	4.518	3.937	4.014	3.236	3.157	3.076	2.745	2.510	2.419	2.307	2.389	2.288	2.285	2.889	3.146	3.805	4.464	4.242	4.091	3.742	3.806	3.590	3.593	3.391	3.341	3.992	4.315	4.646	4.983	5.359	6.144	6.738	8.054	8.204	8.561	9.726	9.650	10.42	10.95	11.72	9.854	8.924	7.936	6.325	7.282	9.304
320.0	806.0	1315	1394	1154	816.7	792.8	887.6	1091	1345	1715	2078	2405	2453	2415	1757	1078	1085	1059	4124	9999.9	9999.9	496.0	43.25	25.04	18.07	13.62	10.33	9.579	7.243	6.577	5.795	4.903	4.148	4.078	3.614	3.144	3.316	3.035	2.402	2.421	2.353	2.470	2.617	2.590	3.190	3.505	4.246	5.365	5.299	4.352	4.100	4.150	3.735	3.829	3.794	3.667	4.243	4.522	5.028	5.548	6.121	6.794	7.258	8.563	9.048	9.832	10.02	10.31	10.87	11.00	11.68	11.10	10.96	10.29	7.415	6.544	6.432
325.0	900.9	1600	1778	1480	985.8	856.2	946.2	1158	1436	1805	2210	2544	2552	2424	2116	1259	906.5	627.5	1147	5733	9999.9	9999.9	392.7	37.88	23.84	16.95	12.90	10.90	8.736	7.274	6.339	5.606	4.204	4.442	3.791	3.086	3.530	3.090	2.671	2.445	2.579	2.696	2.567	2.729	3.364	4.226	5.278	6.305	6.554	5.679	4.893	5.010	4.660	4.209	4.108	4.253	4.647	4.826	5.249	5.921	6.588	7.008	7.952	8.852	9.392	10.25	10.78	11.09	11.21	11.34	11.66	10.77	11.37	11.99	9.066	7.899	6.317
330.0	1099	1965	2412	2106	1383	1049	1052	1251	1511	1890	2322	2686	2676	2484	2140	1604	1050	618.8	546.8	1511	6051	9999.9	9999.9	1852	46.04	25.42	17.94	14.53	10.87	8.822	7.452	6.210	5.043	4.839	4.266	3.663	3.725	3.347	2.851	2.580	2.833	2.895	2.867	3.338	4.042	4.936	6.098	7.657	8.440	7.511	6.846	7.101	6.139	5.328	4.831	4.724	5.163	5.272	5.666	6.368	6.856	7.519	8.372	9.254	10.14	10.53	11.22	11.46	12.12	12.07	12.17	11.54	11.23	11.68	10.01	9.639	8.303
335.0	1250	2246	2915	2649	1872	1341	1182	1348	1588	1947	2367	2750	2757	2590	2163	1655	1378	794.4	531.1	649.7	1593	2904	9999.9	9999.9	3069	52.50	26.42	20.50	14.37	11.06	9.426	7.278	5.942	5.820	4.926	4.357	4.265	3.599	3.144	2.935	2.852	2.970	3.109	3.495	4.571	5.306	6.697	8.459	9.645	9.039	8.541	9.300	8.012	6.975	5.820	5.731	5.301	5.937	6.189	6.644	7.430	7.686	8.522	9.515	10.44	10.74	11.26	11.97	12.46	12.93	12.77	12.38	11.49	11.64	9.952	9.622	8.874
340.0	1273	2349	3124	2920	2143	1507	1271	1379	1612	1958	2372	2745	2750	2609	2199	1647	1422	1039	619.1	521.1	654.3	891.1	3622	9999.9	9999.9	447.3	45.54	25.77	18.37	12.95	10.60	7.904	6.527	6.025	5.566	4.626	4.340	3.864	3.349	3.296	3.040	3.150	3.283	3.620	4.791	5.695	7.206	9.261	9.781	9.807	9.219	10.15	8.974	7.809	6.473	6.116	5.894	6.180	6.462	6.916	7.139	7.913	8.624	9.106	10.59	11.03	11.36	11.59	12.46	12.95	12.46	12.54	11.77	11.59	10.24	9.371	9.054
345.0	1270	2341	3155	3063	2309	1590	1358	1417	1643	1944	2315	2666	2682	2562	2178	1654	1349	1160	755.5	556.3	495.0	488.0	1051	5275	9999.9	9999.9	393.8	39.58	22.23	16.17	12.56	9.332	7.434	6.528	5.688	4.436	4.436	3.988	3.530	3.177	3.009	3.267	3.357	3.661	4.762	5.545	7.100	9.527	10.12	10.03	9.694	10.78	9.782	8.476	6.958	6.584	6.603	6.415	6.571	6.875	7.376	8.154	8.674	9.509	10.42	10.57	10.92	11.18	12.28	12.20	12.44	11.93	11.58	11.52	10.16	9.301	8.646
350.0	1173	2183	3018	3078	2431	1823	1563	1619	1745	1965	2275	2545	2567	2471	2144	1687	1380	1126	971.5	754.1	562.7	477.5	535.6	1416	5212	9999.9	9999.9	8140	43.31	22.98	16.99	12.33	8.745	7.799	6.047	5.034	4.874	4.341	3.736	3.224	3.254	3.232	3.293	3.632	4.431	5.442	6.612	8.739	9.764	9.662	9.687	11.04	10.05	8.874	7.806	7.078	7.167	7.124	7.456	7.745	7.902	8.192	8.967	9.328	10.15	10.18	10.65	10.82	11.51	11.67	11.76	11.36	11.33	11.36	10.01	9.479	9.084
355.0	1092	2020	2805	2943	2435	1923	1659	1734	1778	1947	2184	2400	2406	2347	2086	1692	1431	1156	1005	973.9	752.7	570.4	499.0	601.3	1361	2680	9999.9	9999.9	3210	51.11	25.65	16.95	10.61	9.070	6.802	5.939	5.210	4.628	3.933	3.583	3.401	3.094	3.282	3.401	4.319	5.144	6.273	8.250	9.354	9.011	9.349	11.08	10.04	9.418	8.031	7.289	7.419	7.383	7.620	7.884	8.523	8.413	8.556	9.344	9.933	9.899	10.02	10.01	10.61	10.55	10.93	10.95	10.79	11.35	9.596	9.494	9.020
360.0	1013	1847	2584	2742	2396	1903	1662	1722	1760	1900	2110	2269	2275	2229	1990	1687	1441	1205	1042	995.7	934.4	693.9	555.7	475.1	554.4	778.7	3076	9999.9	9999.9	2736	46.63	22.36	14.85	11.64	8.212	6.500	5.838	5.077	4.416	3.761	3.725	3.305	3.611	3.626	4.346	4.864	6.038	7.752	8.788	8.905	8.870	10.47	9.753	9.001	8.240	7.294	7.589	7.190	7.734	7.767	8.004	8.513	8.464	8.980	9.333	9.129	9.256	9.229	10.30	10.40	10.64	10.63	10.85	10.76	9.294	9.403	9.080
365.0	951.6	1734	2405	2629	2367	1933	1702	1718	1772	1879	2061	2160	2175	2135	1936	1669	1470	1258	1101	1019	1006	867.5	641.7	508.5	431.5	401.9	848.8	4233	9999.9	9999.9	407.1	38.32	19.14	14.51	10.22	7.544	6.267	5.685	4.463	3.989	3.976	3.468	3.451	3.657	4.438	4.727	5.436	7.494	8.000	8.303	8.275	9.738	9.458	9.348	8.167	7.475	7.926	7.448	7.670	7.791	8.262	8.126	8.118	9.099	9.218	9.312	9.146	9.348	9.628	9.896	10.51	9.956	10.51	10.12	9.498	9.356	9.333
370.0	871.8	1549	2231	2470	2311	1978	1787	1799	1812	1902	2003	2097	2078	2028	1869	1652	1508	1329	1199	1107	1040	1012	857.3	645.6	508.8	406.7	419.9	1127	4330	9999.9	9999.9	8551	40.33	23.23	14.19	9.680	7.912	6.609	5.315	4.436	4.331	3.728	3.664	3.675	4.142	4.691	5.066	6.687	7.396	7.579	7.970	9.365	9.272	8.906	8.422	7.726	8.233	7.769	8.245	8.324	8.527	8.338	8.356	8.713	8.965	9.150	8.794	9.097	9.409	9.564	9.780	9.443	9.630	9.771	9.352	8.993	9.368
375.0	813.5	1433	2048	2299	2248	1969	1793	1785	1799	1871	1955	2009	1997	1934	1788	1633	1510	1380	1286	1207	1132	1073	1028	868.1	655.8	513.0	430.6	506.6	1154	2572	9999.9	9999.9	2897	47.63	21.15	13.86	10.84	8.095	6.030	4.983	4.605	4.078	4.345	3.783	4.392	4.500	5.076	6.231	7.108	7.261	7.368	8.955	8.551	8.983	8.235	7.887	7.807	7.614	8.136	8.546	8.465	8.228	8.974	8.386	8.499	8.731	8.669	8.577	8.514	9.335	8.908	9.042	9.087	9.494	9.040	9.091	9.168
380.0	795.4	1358	1895	2223	2158	1945	1755	1751	1758	1809	1890	1955	1931	1863	1738	1607	1505	1405	1329	1263	1194	1123	1068	1018	803.8	624.3	504.5	435.8	502.3	755.3	2921	9999.9	9999.9	2584	39.62	19.25	14.42	10.26	6.949	5.374	5.189	4.316	4.228	4.089	4.138	4.509	4.786	6.107	6.580	6.727	7.145	8.640	8.554	8.582	8.236	7.661	8.270	8.182	8.107	7.870	8.120	7.971	8.198	8.339	8.420	8.538	8.669	8.484	8.656	9.422	9.205	8.920	9.023	9.138	8.616	8.771	8.761
385.0	753.8	1290	1826	2108	2099	1895	1745	1737	1738	1779	1838	1900	1881	1834	1706	1575	1493	1415	1361	1305	1247	1187	1103	1080	957.0	742.9	600.7	492.1	418.9	402.0	833.6	3633	9999.9	9999.9	1888	33.25	18.67	12.68	8.496	6.294	5.853	4.914	4.709	4.351	4.351	4.573	4.871	5.926	6.424	6.481	6.831	8.594	8.679	8.368	8.125	7.652	7.970	8.128	7.694	7.995	8.339	7.746	7.947	8.101	8.291	8.432	8.336	8.735	8.499	8.498	8.877	8.648	8.762	9.226	8.494	8.823	8.738
390.0	721.1	1215	1726	2016	2050	1903	1791	1767	1757	1791	1850	1894	1879	1843	1712	1580	1499	1437	1400	1365	1327	1285	1219	1159	1092	965.6	777.9	632.1	522.6	425.7	441.1	995.7	3483	9999.9	9999.9	7440	131.1	19.44	12.02	8.272	7.094	5.725	5.012	4.615	4.726	4.808	4.895	5.894	6.487	6.501	6.911	8.534	8.560	8.349	8.006	7.709	8.447	8.192	8.069	8.044	8.237	8.107	7.850	8.135	8.500	8.042	8.097	8.555	8.433	8.590	8.484	8.851	8.831	8.888	8.579	8.607	8.901
395.0	716.1	1188	1664	1895	1997	1908	1835	1783	1806	1845	1939	1986	1960	1935	1785	1628	1527	1467	1439	1428	1426	1392	1361	1303	1222	1152	1022	826.5	689.3	557.5	454.6	476.2	947.2	2464	9999.9	9999.9	9999.9	41.62	18.32	12.40	9.550	6.703	6.040	5.109	5.338	4.985	5.266	6.309	6.487	6.156	6.668	8.012	8.406	8.519	8.105	7.984	7.978	8.553	8.209	8.171	7.898	8.319	7.768	8.476	8.499	8.185	8.482	8.535	8.521	8.441	8.669	8.349	8.624	8.870	9.086	8.471	9.019
400.0	720.0	1179	1596	1891	1944	1914	1839	1863	1861	1928	2052	2108	2106	2042	1879	1675	1543	1487	1475	1485	1498	1488	1475	1417	1352	1264	1196	1010	831.9	681.5	536.5	424.3	430.9	700.6	2656	9999.9	9999.9	2305	35.14	15.57	11.51	8.293	6.809	5.652	5.765	5.453	5.286	6.046	6.534	6.296	6.640	8.254	8.260	8.413	8.360	8.570	8.588	8.274	8.412	7.948	8.390	8.551	8.057	8.304	8.154	8.637	8.144	8.286	8.763	8.394	8.730	8.686	8.796	8.536	8.892	8.712	8.632
405.0	689.0	1127	1548	1855	1965	1930	1882	1899	1927	2022	2141	2230	2238	2157	1968	1734	1573	1505	1506	1518	1551	1565	1568	1531	1467	1369	1291	1177	969.9	795.5	630.9	470.8	360.5	340.4	725.8	3071	9999.9	9999.9	1778	28.62	15.03	10.58	7.496	6.038	6.104	5.715	5.554	6.367	6.613	6.517	6.788	8.029	8.240	8.776	8.093	8.072	8.664	8.862	8.814	8.345	8.876	8.841	8.914	8.336	8.592	8.496	7.930	8.265	8.444	8.297	8.650	9.438	9.127	9.256	8.829	8.567	8.880
410.0	677.6	1106	1507	1811	1918	1940	1922	1960	1992	2120	2260	2358	2352	2282	2055	1780	1587	1509	1503	1542	1585	1617	1639	1625	1568	1475	1369	1279	1138	935.3	741.5	560.9	409.9	310.9	330.3	806.3	3180	9999.9	9999.9	6470	120.6	14.43	9.947	7.385	6.936	6.133	5.778	6.396	6.791	6.556	6.891	8.029	8.367	8.697	8.572	8.489	9.112	8.718	8.996	9.113	8.928	8.899	8.684	8.317	8.853	8.685	8.296	8.604	8.623	8.719	9.029	9.488	9.123	9.543	8.933	8.665	8.532
415.0	671.0	1071	1463	1759	1884	1914	1955	1996	2038	2151	2291	2417	2395	2312	2064	1778	1558	1476	1483	1519	1561	1620	1652	1651	1612	1530	1427	1315	1212	1063	835.4	635.0	472.0	349.7	279.4	325.2	809.8	2383	8006	9999.9	9748	36.34	14.42	9.825	8.639	6.784	6.209	6.577	6.853	6.501	6.989	7.855	8.323	8.725	8.668	8.664	9.074	9.315	9.131	9.231	8.644	9.071	8.537	8.445	8.837	8.964	8.602	8.516	8.711	8.726	8.967	9.555	9.016	9.272	8.875	8.543	8.622
420.0	649.0	1017	1422	1704	1862	1895	1949	1999	2055	2141	2301	2392	2381	2278	2035	1732	1515	1434	1438	1473	1534	1589	1630	1639	1611	1538	1443	1330	1223	1107	907.2	681.4	509.1	377.8	285.3	236.1	292.9	608.8	2065	9999.9	9999.9	2085	30.97	12.92	10.08	7.786	6.892	7.023	7.172	6.419	6.793	7.998	8.707	8.969	8.272	8.741	8.966	9.261	9.002	9.135	8.795	8.788	8.713	8.739	8.383	8.590	8.100	8.473	8.739	8.399	8.730	9.156	8.830	9.033	8.383	8.423	8.127
425.0	623.8	1010	1358	1662	1814	1868	1953	2005	2052	2123	2263	2370	2351	2239	1997	1714	1475	1399	1400	1433	1495	1556	1597	1615	1593	1521	1435	1325	1213	1106	950.6	722.8	538.1	405.6	308.9	231.9	192.0	224.3	523.6	2794	9999.9	9999.9	1665	24.54	12.56	8.902	7.314	7.638	6.970	6.482	6.773	7.872	8.252	8.510	8.449	8.475	9.331	9.177	9.429	8.950	8.646	8.720	8.773	8.806	8.166	8.337	8.101	8.530	8.427	8.581	8.474	8.774	8.836	8.639	7.995	8.083	7.828
430.0	656.9	973.5	1357	1613	1796	1879	1974	2031	2049	2114	2240	2329	2307	2203	1947	1655	1438	1359	1351	1388	1439	1497	1544	1567	1544	1490	1411	1314	1206	1085	952.6	778.0	585.6	438.2	337.9	252.9	190.7	154.7	191.0	678.0	2955	9999.9	9999.9	5550	108.9	13.29	9.496	8.977	7.823	7.010	6.948	8.310	8.466	8.657	8.599	8.737	9.411	9.736	9.617	9.257	9.142	8.941	8.723	8.981	8.185	8.306	7.990	8.078	8.004	8.276	8.408	8.269	8.434	8.666	8.288	7.991	7.868
435.0	804.6	973.7	1294	1575	1753	1899	2006	2060	2088	2093	2206	2273	2239	2135	1887	1597	1393	1308	1294	1330	1369	1424	1476	1501	1488	1431	1363	1288	1187	1067	930.0	783.2	639.6	476.9	366.8	280.6	211.9	159.0	131.6	215.6	706.2	2332	7430	9999.9	8571	33.22	13.00	10.58	8.722	7.803	7.479	8.190	8.787	8.950	9.001	9.123	9.875	10.05	9.600	9.646	9.290	9.157	8.660	8.939	8.179	8.003	8.220	7.961	7.742	7.941	7.948	8.272	7.770	8.382	7.892	7.932	7.641
440.0	1029	999.3	1271	1534	1755	1904	1995	2069	2035	2064	2150	2199	2162	2057	1824	1548	1346	1265	1255	1271	1310	1355	1403	1433	1423	1377	1317	1243	1156	1046	916.9	765.4	652.4	513.1	388.0	298.3	228.2	170.2	129.4	121.6	212.4	564.1	1927	9999.9	9999.9	1882	26.45	13.96	10.50	8.698	7.913	8.469	8.981	9.030	9.022	9.286	9.642	10.22	9.870	10.21	9.424	8.908	8.663	8.832	8.181	7.699	8.090	7.705	7.773	7.761	8.015	8.136	7.712	8.046	7.400	7.471	7.178
445.0	1143	1175	1219	1497	1716	1875	2018	2075	2006	1986	2058	2098	2062	1961	1731	1478	1289	1213	1195	1210	1241	1281	1326	1356	1343	1312	1260	1186	1113	1016	889.1	748.3	633.2	531.5	410.7	313.0	244.9	184.2	138.5	109.2	108.0	172.3	469.2	2871	9999.9	9999.9	1358	24.11	12.22	9.607	8.689	8.950	8.949	9.150	8.843	9.184	9.669	10.04	9.981	9.849	9.289	8.790	8.223	8.248	8.053	7.569	7.948	7.599	7.402	7.458	7.455	7.588	7.634	7.635	7.478	7.478	7.126
450.0	893.6	1820	1323	1422	1643	1819	1958	2016	1929	1867	1898	1940	1895	1796	1589	1369	1197	1131	1109	1115	1126	1167	1205	1226	1227	1201	1155	1099	1040	957.1	845.7	719.9	602.1	514.9	430.3	332.4	255.5	197.1	151.4	115.7	93.42	91.03	145.3	676.3	3033	9999.9	9999.9	5226	87.05	12.89	9.894	9.974	9.078	9.268	8.916	9.078	9.748	10.12	10.24	9.664	8.864	8.493	8.148	7.692	7.575	7.327	7.265	7.153	6.877	7.087	7.108	7.027	7.243	7.111	6.932	6.740	6.585
455.0	602.6	1951	2297	1388	1537	1722	1854	1911	1813	1732	1738	1749	1697	1617	1422	1231	1087	1028	1002	1009	1011	1038	1066	1090	1097	1074	1036	994.3	945.6	878.0	783.6	674.3	570.7	481.5	418.3	350.8	269.2	205.7	161.2	125.3	96.25	77.58	77.44	186.4	706.1	2325	6818	9999.9	1766	26.00	12.43	11.05	9.991	9.520	8.978	8.954	9.445	9.818	10.03	8.909	8.545	8.061	8.014	7.400	7.009	6.984	6.338	6.580	6.359	6.281	6.464	6.638	6.471	6.390	6.205	6.430	6.328
460.0	497.7	1501	3330	1609	1418	1610	1763	1806	1706	1616	1597	1614	1570	1483	1311	1152	1006	948.3	924.9	918.4	927.0	945.3	970.3	997.2	1000	978.7	946.7	909.0	874.0	815.7	733.5	639.0	541.7	458.1	396.8	348.4	281.6	213.9	166.0	131.4	101.6	78.89	65.20	78.62	188.7	545.4	1723	9616	9999.9	1431	23.43	13.34	10.93	10.11	9.109	9.038	9.510	9.144	9.352	9.029	8.568	8.148	7.651	7.444	6.478	6.696	6.112	6.134	6.451	5.949	5.880	6.101	5.765	5.917	5.965	5.862	5.825
465.0	444.7	943.2	3715	2508	1376	1527	1671	1713	1612	1519	1482	1488	1448	1351	1220	1057	930.7	868.7	854.6	845.5	843.1	859.1	883.7	908.4	904.1	892.7	867.6	832.1	802.5	753.9	687.8	599.3	513.5	440.7	377.2	328.0	285.4	220.9	169.1	133.8	104.9	81.50	66.46	57.97	75.19	149.6	411.3	2679	9999.9	9999.9	1176	22.88	12.71	11.00	9.560	9.577	9.222	9.331	9.094	8.443	8.091	7.680	7.110	6.699	6.436	6.175	6.255	5.871	5.926	5.697	5.554	5.518	6.005	5.827	5.832	5.630	5.268
470.0	416.3	689.1	2404	4483	1784	1400	1531	1547	1458	1355	1333	1323	1281	1192	1071	935.9	826.3	777.0	758.8	742.2	736.8	746.2	770.5	786.9	789.7	782.7	758.9	736.6	712.8	672.7	615.7	541.4	472.8	406.8	348.5	300.5	264.2	224.4	173.4	134.8	107.1	83.61	67.87	55.44	53.26	63.25	117.8	623.4	2899	8761	9999.9	3998	87.81	13.77	10.28	9.908	9.540	8.755	8.696	8.002	7.588	7.322	6.604	6.482	6.136	5.568	5.509	5.342	5.372	5.261	5.182	5.133	5.158	5.314	4.906	4.788	5.125
475.0	364.2	564.4	1156	4424	3655	1304	1354	1382	1279	1200	1166	1165	1119	1036	927.8	807.5	716.8	681.9	663.3	646.9	636.8	641.4	661.5	674.4	674.9	668.5	651.4	632.6	616.8	592.2	548.0	484.2	425.5	370.6	319.6	273.9	236.6	208.0	178.9	138.4	106.3	85.69	69.71	57.85	49.64	45.85	52.09	161.9	665.8	2015	5404	9999.9	1774	29.69	11.56	9.993	9.192	8.678	8.159	7.730	7.075	6.415	5.963	5.541	5.385	5.157	4.940	5.041	4.803	4.471	4.809	4.682	4.492	4.580	4.544	4.084	4.405
480.0	357.8	539.7	782.5	2855	5566	1632	1249	1263	1160	1091	1055	1051	1013	930.6	827.8	731.4	651.9	617.7	598.5	583.7	574.4	574.0	589.9	601.8	601.6	595.1	578.8	568.6	551.9	535.5	492.5	445.9	393.9	344.1	298.5	257.0	221.6	193.7	172.3	141.7	108.0	86.40	70.59	59.32	50.22	42.47	38.59	60.07	168.5	467.2	1337	6554	9999.9	1659	24.13	11.50	9.754	8.844	8.177	7.497	6.742	6.299	5.928	5.348	5.282	4.916	4.488	4.569	4.419	4.455	4.382	4.349	4.211	4.113	3.840	3.899	3.996
485.0	322.2	507.8	661.1	1509	5930	2899	1172	1166	1097	1010	975.1	964.2	913.3	852.5	757.2	666.3	597.8	569.8	546.4	529.2	518.9	520.4	531.8	543.1	544.8	536.5	527.0	517.1	503.8	490.1	454.3	412.9	365.4	319.9	279.6	243.4	210.6	181.8	161.2	142.7	113.2	87.12	70.76	60.76	51.11	43.48	36.27	37.52	57.62	122.4	315.7	1773	9181	9999.9	234.3	20.47	11.23	9.302	8.299	7.597	6.656	6.089	5.911	5.144	4.831	4.446	4.553	4.049	4.155	4.252	3.861	4.131	3.826	3.856	3.674	3.772	3.804
490.0	266.0	476.3	601.5	877.1	3575	5296	1595	1055	990.1	914.9	873.6	860.7	811.3	756.7	672.1	591.0	533.8	499.2	487.0	468.5	460.1	456.6	467.0	475.5	478.7	471.5	465.8	457.1	448.2	436.1	407.7	371.6	333.0	293.3	257.0	225.7	197.2	168.7	148.3	133.9	115.7	90.94	71.51	61.56	52.56	44.80	37.57	33.83	34.37	45.90	86.12	411.3	2428	7673	9533	3908	100.0	11.70	9.008	7.799	6.772	6.269	5.493	5.087	4.810	4.430	4.217	3.910	3.883	3.942	3.776	3.710	3.661	3.541	3.445	3.478	3.501
495.0	231.0	414.9	565.3	696.8	1472	5398	3520	974.6	872.3	814.4	778.1	760.8	708.7	659.3	584.7	517.8	470.0	441.0	424.4	412.2	396.9	397.9	403.2	409.2	415.1	413.4	398.7	397.5	393.7	381.2	358.5	326.8	293.6	264.7	233.2	206.3	181.6	157.2	136.9	119.4	109.0	94.61	75.52	61.95	54.17	45.77	38.52	34.66	30.38	29.74	35.20	106.6	554.5	1753	4905	9999.9	2000	31.34	10.88	8.519	7.329	6.174	5.352	4.800	4.666	4.239	3.949	3.943	3.726	3.336	3.647	3.255	3.356	3.212	2.967	3.015	2.853
500.0	192.0	363.4	541.6	592.3	851.6	3412	5890	1244	789.6	724.0	699.9	686.9	636.8	587.8	528.0	463.5	419.8	392.6	380.2	366.9	355.9	353.8	359.6	368.4	369.1	368.2	356.3	352.6	351.1	342.5	321.1	296.6	266.7	242.5	213.4	191.2	168.6	146.8	128.9	111.0	100.2	92.71	77.63	61.75	53.37	46.51	39.89	34.77	30.21	26.07	24.68	38.80	137.1	404.1	1208	6610	9999.9	1792	26.30	9.770	7.517	6.214	5.406	4.530	4.101	4.033	3.833	3.841	3.256	3.334	3.329	3.107	3.146	2.888	2.690	2.784	2.674
505.0	197.9	307.3	488.8	547.5	655.2	1657	6647	2425	727.7	662.0	642.2	616.2	579.5	528.4	469.1	417.7	378.8	354.2	342.4	328.1	316.3	315.2	317.7	327.7	327.8	325.2	319.9	316.0	314.8	304.4	290.8	268.8	242.3	221.4	194.7	175.3	154.7	137.1	119.9	104.7	92.45	86.36	78.26	63.72	53.55	47.17	40.24	35.01	30.34	26.33	22.64	23.54	44.32	103.5	282.8	1766	8292	9999.9	1398	20.15	8.226	6.461	5.388	4.693	4.066	3.780	3.417	3.553	3.165	2.815	3.008	2.898	2.817	2.679	2.666	2.599	2.813
510.0	178.2	260.5	404.0	518.9	557.2	829.9	4012	5614	1048	582.2	557.3	536.3	504.7	455.9	405.5	360.3	325.5	304.9	294.2	281.6	273.8	270.5	274.4	278.2	278.8	276.2	273.3	269.4	268.3	263.3	251.9	234.3	211.5	191.6	172.0	153.9	138.4	122.4	109.1	95.43	83.29	74.74	70.91	64.90	53.37	45.51	39.55	34.13	30.10	26.06	22.88	20.72	23.27	35.38	74.48	406.2	2159	6637	9064	3461	99.81	8.512	5.831	4.799	4.318	3.654	3.144	3.065	2.933	2.722	2.642	2.685	2.564	2.416	2.411	2.339	2.447
515.0	138.8	232.4	322.1	453.8	497.3	554.3	1454	6452	2603	528.8	479.7	456.8	431.8	391.7	342.7	305.9	277.9	260.5	248.9	238.6	228.6	227.4	231.4	234.0	236.8	231.7	231.2	226.8	227.5	223.4	212.3	199.5	179.7	163.8	148.8	134.0	121.8	109.4	95.49	85.04	74.50	66.32	61.18	60.27	54.96	45.04	37.32	33.77	28.63	25.32	22.28	20.47	18.93	20.25	27.38	101.0	491.5	1505	3901	9999.9	2034	31.22	7.803	5.322	4.446	3.801	3.113	2.994	2.798	2.455	2.519	2.358	2.360	2.333	2.235	2.078	2.075
520.0	128.4	195.6	280.3	393.7	457.6	460.5	700.3	4161	5831	742.7	426.4	408.7	380.1	345.5	300.6	272.9	245.1	227.9	218.6	208.8	200.5	200.0	203.3	206.1	206.2	201.5	202.3	199.7	200.4	195.9	187.0	174.6	160.3	144.8	133.1	120.4	108.3	97.43	86.44	77.56	69.36	61.47	56.01	52.57	52.29	46.04	36.78	32.32	28.28	24.39	21.88	19.83	17.50	16.34	16.89	33.18	119.7	345.5	930.2	5201	9999.9	1865	26.56	6.755	5.019	3.684	3.352	3.006	2.702	2.503	2.502	2.239	1.833	1.905	2.189	1.933	1.830
525.0	125.2	176.6	249.6	333.9	442.7	412.7	489.1	1801	7461	1844	395.1	366.6	335.6	307.2	271.1	243.8	221.1	208.0	196.1	185.9	179.7	176.1	179.0	180.5	181.2	179.7	178.5	176.5	175.0	172.4	167.0	156.9	140.7	130.1	118.6	108.6	98.69	88.77	78.80	71.16	64.01	57.37	50.53	47.00	47.80	46.25	36.99	31.09	27.36	24.01	20.85	18.84	17.29	15.57	13.80	17.43	36.37	86.23	217.1	1312	6249	9620	1510	19.53	6.018	3.950	3.500	2.961	2.751	2.542	2.342	2.122	1.838	1.700	1.815	1.750	1.811
530.0	103.5	153.6	216.3	268.4	379.2	384.3	382.9	699.5	4643	5487	710.8	320.5	292.8	262.0	234.5	208.0	187.6	175.6	166.5	158.7	152.7	151.9	152.2	152.6	154.6	152.5	150.5	150.2	148.1	147.3	141.9	132.9	121.1	111.3	102.4	93.15	86.10	77.30	69.62	62.69	56.30	51.14	46.13	41.65	40.75	40.82	36.88	30.26	25.53	22.44	19.88	17.81	16.18	15.19	13.42	13.25	17.26	27.40	56.17	300.8	1550	5127	7052	2849	107.8	5.924	3.712	2.999	2.573	2.365	2.139	1.910	1.722	1.894	1.690	1.573	1.531
535.0	82.88	127.8	167.9	222.3	294.9	357.7	320.7	398.1	1458	6737	2068	288.5	244.8	221.5	194.3	174.2	158.6	146.1	137.6	132.6	127.1	126.0	128.1	126.7	126.2	126.8	125.6	122.8	124.0	123.4	118.2	112.6	102.6	93.81	86.57	78.76	73.00	65.76	59.42	53.68	48.74	43.82	40.93	36.79	35.25	33.92	33.91	30.34	24.73	20.53	18.44	16.64	14.64	13.94	12.79	11.71	12.03	13.90	19.26	73.88	351.6	1155	2584	6867	2100	32.57	5.463	3.688	2.645	2.366	2.191	1.840	1.474	1.644	1.622	1.469	1.224
540.0	80.77	119.5	151.1	200.1	239.8	318.0	296.3	298.4	536.4	4193	6072	466.1	215.3	192.9	169.7	150.8	134.9	126.0	119.4	115.3	108.0	107.5	111.0	109.8	109.4	110.1	108.3	106.6	107.3	104.8	102.0	95.46	90.19	82.21	74.84	68.89	64.59	57.93	52.53	48.23	43.44	39.63	35.81	33.09	31.56	29.44	29.23	29.04	24.12	19.36	16.94	15.18	14.05	13.08	11.84	11.59	10.75	9.972	10.64	22.73	84.19	263.7	599.7	3008	7642	1879	27.45	4.789	3.048	2.543	2.297	1.847	1.463	1.617	1.408	1.496	1.328
545.0	69.77	108.6	138.8	171.1	194.7	269.8	290.2	244.7	298.5	1627	8026	1419	194.7	171.0	148.2	131.7	119.5	110.5	101.9	101.2	94.26	93.56	96.23	95.13	93.62	94.91	93.36	92.50	92.08	91.43	88.07	82.11	77.75	70.59	66.00	60.22	55.72	50.38	46.30	43.09	38.56	35.76	32.35	30.18	28.81	26.35	25.13	25.78	23.88	19.01	16.35	14.21	12.83	11.93	10.81	11.29	9.788	8.805	8.628	10.74	23.77	64.27	139.8	720.2	4078	6215	1545	21.66	4.130	2.711	2.467	2.053	1.799	1.359	1.395	1.291	1.232
550.0	60.72	88.61	116.8	141.6	161.8	193.8	270.1	214.5	213.8	523.6	4772	6046	394.0	143.9	123.3	107.2	100.2	91.92	86.78	82.51	77.95	77.33	77.51	77.28	77.37	77.37	76.26	76.16	75.15	74.17	72.36	68.87	63.58	58.85	54.56	50.01	46.53	42.14	38.80	36.07	33.15	30.31	28.11	25.69	24.18	22.20	21.09	20.90	21.04	18.08	15.04	12.89	11.31	10.29	9.845	9.724	9.119	8.424	7.518	7.367	10.16	18.97	35.65	165.3	974.3	2751	4319	2273	120.3	5.724	2.796	2.090	1.704	1.417	1.285	1.312	1.129
555.0	57.23	82.04	106.5	111.3	127.8	142.8	210.8	205.5	161.0	233.6	1366	8296	1461	129.2	103.2	85.59	80.22	73.58	71.13	66.47	63.11	61.35	61.94	61.26	61.55	61.72	60.56	59.47	61.14	59.63	58.13	54.43	51.20	47.58	43.74	40.36	37.21	34.35	31.86	29.59	27.12	24.96	23.46	21.10	20.35	18.78	17.53	16.74	15.96	16.19	14.67	12.04	9.859	8.869	8.726	8.193	7.655	7.517	6.724	6.560	6.752	8.338	11.93	40.97	221.1	617.9	1317	4108	2101	34.78	4.898	2.545	1.930	1.473	1.290	1.336	1.167
560.0	54.77	77.46	103.3	96.76	109.3	115.6	153.5	207.9	144.3	155.6	414.2	5321	5065	175.0	87.41	75.60	69.15	61.65	59.67	55.02	52.13	52.05	50.66	51.15	51.66	51.06	50.67	49.38	51.58	49.81	48.92	45.17	42.35	39.56	36.10	34.20	31.28	28.35	27.32	24.77	23.07	21.16	19.78	18.17	17.34	16.25	15.20	14.31	13.18	13.71	13.24	10.86	9.360	8.248	7.638	7.309	6.988	6.724	6.427	6.266	5.519	5.607	6.433	12.65	53.01	141.7	301.5	1525	3908	1876	30.28	3.223	2.185	1.474	1.446	1.279	1.101
565.0	48.81	80.38	86.99	87.20	95.24	108.7	122.7	186.8	142.4	122.8	182.9	2000	7348	932.7	77.99	66.71	58.75	54.06	49.53	46.48	44.77	43.78	42.82	44.10	44.34	42.90	41.77	42.58	42.70	41.66	39.94	38.07	35.77	32.68	30.84	29.01	26.73	24.53	22.49	20.83	19.83	17.84	16.82	15.54	15.35	13.94	12.81	12.50	11.10	11.11	11.54	10.38	8.794	7.344	6.854	6.690	6.434	6.014	5.890	5.655	5.181	4.600	4.639	5.962	15.36	35.19	71.27	355.6	1703	3973	1463	22.16	2.599	1.833	1.549	1.114	1.103
570.0	49.70	79.15	85.21	86.27	88.19	88.67	97.70	139.7	156.0	108.7	120.0	557.0	4668	5090	239.6	54.64	48.52	43.80	41.25	38.12	36.60	35.39	34.96	35.04	35.56	34.20	32.87	34.30	33.52	33.50	32.58	30.77	28.17	25.97	24.55	23.37	21.94	20.06	18.17	17.02	16.08	15.09	13.98	12.93	12.57	11.53	10.66	10.15	9.222	8.909	8.751	8.826	7.888	6.878	6.032	5.803	5.630	5.117	5.109	4.960	4.988	4.503	4.259	4.286	6.659	11.04	19.49	83.20	396.5	1544	2784	1209	121.1	4.409	1.852	1.219	1.057
575.0	57.53	75.18	82.17	77.93	72.71	74.70	78.53	94.76	148.7	110.5	94.77	197.6	1313	7451	1053	51.99	39.87	35.49	32.97	31.06	29.15	28.26	29.34	28.60	27.61	27.70	26.45	27.14	26.64	26.14	25.46	24.19	22.61	20.98	19.31	18.33	16.76	15.92	14.89	13.30	12.75	12.03	11.60	10.36	9.750	9.738	8.864	8.249	8.046	7.202	7.081	6.854	7.135	6.195	5.232	5.178	4.988	4.767	4.324	4.094	4.635	4.455	3.932	3.779	4.046	5.392	7.209	21.70	91.58	347.3	761.7	2009	1972	35.36	3.681	1.482	1.263
580.0	54.84	70.56	81.78	74.31	66.13	61.71	66.71	73.94	125.3	124.7	88.36	114.1	364.5	4953	4752	98.92	34.59	30.92	28.88	27.07	26.04	23.43	24.28	23.09	23.32	22.84	22.28	22.31	22.24	22.04	21.44	20.14	18.84	17.54	16.19	15.32	14.51	13.62	12.50	11.40	10.67	10.28	9.574	8.889	8.848	8.420	7.511	7.316	6.737	6.153	5.830	5.746	5.891	5.730	5.084	4.501	4.379	4.035	3.801	3.849	3.863	3.937	3.964	3.370	3.418	4.054	4.450	7.557	22.96	79.99	173.6	666.7	2356	1588	31.49	2.149	1.141
585.0	50.16	65.79	84.69	72.15	62.39	53.61	61.16	67.93	98.85	138.4	90.33	93.35	143.5	1857	7313	554.5	31.94	27.35	25.22	22.31	21.87	20.27	20.02	19.75	19.63	19.57	19.12	18.61	18.90	18.58	17.95	17.08	15.79	15.56	13.91	13.16	12.34	11.38	10.71	9.943	9.460	8.758	8.325	7.724	7.569	7.134	6.686	6.333	5.928	5.380	5.001	4.615	4.657	5.489	5.029	4.234	3.683	3.649	3.575	3.376	3.494	3.447	3.869	3.184	3.231	3.304	3.429	4.401	7.534	20.35	41.22	153.8	893.1	2383	1191	23.86	1.629
590.0	60.42	64.45	78.25	68.89	58.25	51.71	55.26	60.35	74.32	125.7	102.7	86.52	87.83	493.2	4873	3287	71.27	23.94	21.49	18.55	18.13	16.61	17.21	16.15	16.12	15.76	15.15	15.35	15.19	15.29	14.86	14.17	12.94	12.59	11.80	10.87	10.07	9.525	8.546	7.957	7.778	7.158	6.708	6.500	6.175	5.783	5.635	5.376	4.884	4.296	4.034	3.905	3.791	4.280	4.555	4.018	3.261	3.275	3.019	2.819	2.755	2.832	2.916	2.903	2.987	2.856	2.789	3.087	3.643	6.289	10.83	36.04	204.8	832.9	1751	1077	123.1
595.0	44.97	65.12	77.37	62.60	51.78	49.41	49.93	56.25	62.77	98.78	127.5	85.94	74.49	155.5	1366	5263	686.0	24.14	19.46	16.08	15.25	13.91	13.36	13.21	12.95	13.06	12.05	12.37	12.43	12.13	11.72	10.64	9.941	9.838	9.099	8.620	7.886	7.782	7.513	6.606	6.299	5.793	5.230	5.281	5.147	4.600	4.877	4.420	3.969	3.476	3.413	3.163	3.101	3.360	3.545	3.778	3.140	2.890	2.565	2.344	2.274	2.320	2.371	2.276	2.728	2.665	2.227	2.195	2.432	2.759	3.636	9.262	46.90	186.6	454.3	1356	1553
600.0	44.77	63.96	84.55	62.19	45.14	45.25	49.48	52.54	59.01	82.25	132.1	97.87	74.57	80.60	355.4	3783	2867	56.86	16.71	14.23	13.63	11.68	12.07	11.45	11.45	11.22	10.54	10.66	10.11	10.73	10.24	9.060	8.998	8.270	7.638	7.473	6.954	6.519	6.047	5.569	5.103	4.938	4.311	4.648	4.393	3.836	4.048	3.936	3.382	3.182	3.221	2.848	2.618	2.516	2.721	3.258	3.278	2.836	2.269	1.970	1.994	1.995	2.038	1.952	2.165	2.532	2.031	1.962	1.986	1.980	1.927	3.222	11.51	42.70	103.0	428.2	1632
605.0	38.29	60.16	75.39	65.12	47.81	42.53	48.64	53.98	58.89	75.51	127.9	116.3	84.34	69.62	117.2	1526	4830	318.1	16.44	12.94	11.94	10.36	10.62	9.959	9.618	9.678	9.403	8.960	8.816	8.987	8.676	7.827	7.282	7.200	6.520	6.507	5.987	5.506	5.122	5.036	4.344	4.266	4.133	3.817	3.963	3.584	3.416	3.324	3.007	2.658	2.733	2.520	2.412	2.229	2.277	2.674	2.919	2.651	2.063	1.931	1.830	2.001	1.752	1.909	1.918	2.315	2.010	1.861	1.797	1.453	1.602	1.752	3.418	10.51	24.21	97.94	590.5
610.0	47.80	62.02	73.68	61.34	45.12	43.76	49.72	57.58	67.07	83.68	119.1	149.3	98.94	76.85	75.45	406.9	3625	2243	43.59	11.66	10.58	9.036	9.013	8.523	8.182	7.723	7.980	7.321	7.440	7.468	6.798	6.372	6.017	5.843	5.290	5.308	4.967	4.618	4.243	3.904	3.728	3.573	3.305	3.163	3.364	3.024	2.936	2.856	2.628	2.315	2.411	2.109	1.981	1.955	1.926	2.040	2.352	2.400	2.064	1.720	1.665	1.748	1.592	1.558	1.718	1.895	1.804	1.912	1.625	1.492	1.388	1.303	1.553	3.140	6.202	22.66	134.9
615.0	46.66	65.26	63.38	58.69	47.17	40.70	48.40	57.93	71.24	89.24	108.2	152.8	116.0	82.81	68.38	125.2	1095	4008	464.6	12.30	9.692	8.060	7.666	6.951	6.823	6.438	6.380	6.112	6.401	6.209	5.623	5.639	5.119	4.536	4.139	4.423	3.910	3.830	3.545	3.031	3.127	2.891	2.914	2.517	2.833	2.572	2.206	2.307	2.269	2.047	1.806	1.755	1.706	1.709	1.513	1.567	1.888	1.959	2.055	1.689	1.449	1.396	1.431	1.421	1.491	1.513	1.484	1.588	1.634	1.295	1.302	1.149	1.132	1.561	2.093	5.828	30.97
620.0	44.63	61.98	64.96	53.60	44.40	39.76	48.53	58.34	69.11	85.95	102.2	137.5	127.9	84.80	66.69	60.73	291.0	3137	1891	25.60	8.618	7.339	7.057	6.272	5.827	5.896	5.207	5.423	5.087	5.056	5.255	4.475	4.286	4.178	3.622	3.469	3.329	3.546	2.935	2.759	2.611	2.609	2.380	2.126	2.339	2.243	2.072	1.895	2.104	1.805	1.634	1.629	1.451	1.475	1.398	1.352	1.477	1.661	1.600	1.521	1.445	1.414	1.456	1.400	1.393	1.459	1.329	1.471	1.568	1.379	1.202	1.156	1.139	1.016	1.155	1.972	7.593
625.0	42.19	61.17	61.88	54.97	44.92	38.26	45.51	57.09	65.01	82.98	101.6	124.8	132.9	88.24	67.17	47.10	94.32	1376	3496	76.47	8.504	6.999	6.371	5.828	5.204	5.097	4.646	4.699	4.592	4.138	4.375	3.957	3.947	3.571	3.211	3.128	2.922	2.866	2.643	2.416	2.253	2.173	2.196	2.021	2.140	1.895	1.948	1.861	1.752	1.541	1.551	1.340	1.507	1.415	1.294	1.289	1.286	1.479	1.498	1.413	1.450	1.333	1.255	1.189	1.413	1.308	1.235	1.291	1.334	1.395	1.192	1.115	0.920	0.890	0.880	1.056	2.301
630.0	40.16	49.66	66.08	51.98	41.34	36.34	44.72	55.13	63.35	80.59	97.69	115.9	126.6	99.36	66.50	43.77	49.35	360.9	2882	1333	27.64	6.616	5.821	5.191	4.644	4.481	4.119	4.065	3.986	3.668	3.682	3.240	3.404	3.223	2.768	2.529	2.593	2.479	2.266	2.061	1.864	1.989	1.790	1.729	1.744	1.665	1.632	1.664	1.615	1.391	1.291	1.271	1.327	1.191	1.005	1.139	1.114	1.181	1.143	1.300	1.369	1.233	1.125	1.132	1.179	1.151	1.200	1.144	1.217	1.312	1.173	0.990	0.801	0.797	0.799	0.814	1.120
635.0	38.60	53.71	61.31	53.86	37.74	37.32	42.52	51.92	65.31	81.10	96.13	111.5	111.8	111.8	71.27	45.26	39.99	97.76	913.9	2925	324.3	7.258	5.252	4.945	4.031	3.534	3.591	3.364	3.188	3.194	3.258	2.946	2.801	2.687	2.148	2.317	2.146	1.898	1.740	1.747	1.804	1.551	1.445	1.545	1.718	1.451	1.396	1.548	1.391	1.203	1.117	1.188	1.128	1.140	0.791	1.026	0.917	1.043	0.984	1.041	1.283	1.270	1.098	1.102	1.157	1.062	1.022	1.160	1.060	1.050	0.939	1.022	0.750	0.787	0.852	0.753	0.717
640.0	46.81	58.83	65.35	53.01	38.67	36.90	44.98	50.63	64.25	76.73	94.64	114.0	105.9	114.1	78.70	46.13	38.09	38.44	233.8	2492	1349	13.70	5.915	4.147	3.817	3.463	3.117	3.476	2.998	3.058	2.814	2.465	2.311	2.139	2.101	2.045	1.968	1.874	1.738	1.540	1.521	1.618	1.583	1.304	1.432	1.183	1.164	1.442	1.284	1.089	1.086	0.934	0.957	1.017	0.725	0.842	0.884	1.009	0.936	0.968	1.129	1.200	1.102	1.095	1.084	1.041	0.892	1.132	0.938	0.924	0.848	1.071	0.985	0.898	0.650	0.705	0.629
645.0	40.65	58.69	72.47	50.55	40.80	38.32	45.70	51.99	61.11	77.06	97.37	112.3	102.7	110.3	88.28	46.33	36.91	25.73	64.32	1188	2672	56.82	5.879	4.246	4.159	3.179	2.846	3.018	2.745	2.855	2.675	2.448	2.212	2.262	1.958	1.886	1.902	1.692	1.657	1.453	1.405	1.405	1.426	1.223	1.313	1.113	1.098	1.316	1.088	0.985	0.988	0.860	0.954	0.941	0.778	0.957	0.769	0.816	0.844	0.810	1.045	1.086	0.962	1.040	1.027	0.930	0.874	0.920	0.859	0.771	0.870	0.890	0.981	0.815	0.734	0.640	0.609
650.0	40.99	63.94	74.57	56.02	43.31	37.18	40.25	49.35	59.29	77.68	89.84	110.3	103.4	100.8	92.47	49.97	37.71	22.71	25.31	357.2	2971	431.6	7.110	4.670	4.032	3.192	2.960	3.027	2.607	2.753	2.367	2.321	1.838	2.161	1.892	1.813	1.777	1.624	1.408	1.293	1.352	1.221	1.314	1.101	1.188	1.112	1.159	1.203	1.172	1.107	0.953	0.922	1.012	0.847	0.696	0.872	0.797	0.861	0.728	0.753	0.871	0.909	0.903	0.909	0.946	1.019	0.933	0.879	0.863	0.753	0.819	0.857	0.966	0.841	0.761	0.682	0.614
