Sample:	'1
File name:	G2025072111ÊÀ¼ÍÂ·.FD3
Run date:	'11:36:48, 07/22/2025
Operator:	Administrator
Comment:	'

Instrument
Model:	F-2700 FL Spectrophotometer
Serial number:	23B8-004
ROM Version:	4J14000 07

Instrument parameters
Measurement type:	3-D scan
Data mode:	Fluorescence
EX  Start WL:	220.0 nm
EX  End WL:	600.0 nm
EX Sampling interval:	5.0 nm
EM  Start WL:	230.0 nm
EM  End WL:	650.0 nm
EM Sampling interval:	5.0 nm
Scan speed:	12000 nm/min
EX Slit:	5.0 nm
EM Slit:	5.0 nm
PMT Voltage:	700 V
Response:	Auto 
Corrected spectra:	Off
Contour interval:	50.000

Peak integration
Integration method:	Rectangular
Sensitivity:	1
Threshold:	1.000

Peaks
No.	ApexEX/EM(nm)	Height(Data)
1	225.0/305.0	602.2
2	225.0/560.0	99.67
3	225.0/600.0	71.27
4	225.0/630.0	51.40
5	240.0/525.0	358.6
6	245.0/385.0	2132
7	245.0/535.0	300.1
8	250.0/550.0	234.8
9	255.0/280.0	627.8
10	255.0/560.0	199.3
11	260.0/290.0	635.6
12	260.0/570.0	156.9
13	265.0/295.0	837.0
14	265.0/585.0	137.5
15	270.0/300.0	1129
16	270.0/600.0	113.4
17	275.0/305.0	1127
18	275.0/610.0	93.82
19	280.0/315.0	1026
20	280.0/625.0	79.28
21	285.0/320.0	1064
22	285.0/635.0	61.41
23	290.0/325.0	965.0
24	305.0/345.0	726.0
25	505.0/275.0	3.317
26	505.0/385.0	9.095
27	510.0/280.0	3.679
28	510.0/380.0	8.765
29	515.0/285.0	3.897
30	530.0/290.0	3.525
31	535.0/270.0	52.81
32	540.0/295.0	4.842
33	545.0/300.0	5.510
34	550.0/305.0	5.725
35	560.0/310.0	5.153
36	570.0/315.0	5.629
37	580.0/320.0	5.240
38	585.0/325.0	5.374

Data points
	220.0	225.0	230.0	235.0	240.0	245.0	250.0	255.0	260.0	265.0	270.0	275.0	280.0	285.0	290.0	295.0	300.0	305.0	310.0	315.0	320.0	325.0	330.0	335.0	340.0	345.0	350.0	355.0	360.0	365.0	370.0	375.0	380.0	385.0	390.0	395.0	400.0	405.0	410.0	415.0	420.0	425.0	430.0	435.0	440.0	445.0	450.0	455.0	460.0	465.0	470.0	475.0	480.0	485.0	490.0	495.0	500.0	505.0	510.0	515.0	520.0	525.0	530.0	535.0	540.0	545.0	550.0	555.0	560.0	565.0	570.0	575.0	580.0	585.0	590.0	595.0	600.0
230.0	73.93	1572	3870	1241	49.92	10.69	8.933	7.368	6.983	5.769	5.219	4.978	4.598	3.898	3.319	2.798	2.338	2.179	1.939	1.958	1.690	1.624	1.424	1.396	1.242	1.224	1.092	1.079	1.009	0.923	0.874	0.887	0.808	0.751	0.632	0.597	0.588	0.540	0.583	0.534	0.548	0.563	0.615	0.484	0.459	0.457	1.871	7.730	13.31	9.782	3.818	0.830	0.414	0.386	0.370	0.357	0.370	0.374	0.351	0.371	0.332	0.371	0.344	0.365	0.361	0.346	0.417	0.353	0.356	0.338	0.359	0.345	0.342	0.355	0.367	0.394	0.349
235.0	99.38	448.9	2508	4173	648.8	75.26	10.68	7.814	6.047	7.184	5.604	5.162	4.599	3.618	3.238	2.846	2.411	2.272	2.277	1.810	1.527	1.703	1.546	1.347	1.215	1.306	1.075	0.949	0.853	0.885	0.968	0.709	0.886	0.714	0.689	0.563	0.581	0.585	0.531	0.481	0.560	0.473	0.612	0.627	0.670	0.581	0.770	2.177	5.406	10.17	14.76	14.34	6.708	1.452	0.414	0.375	0.427	0.416	0.410	0.397	0.341	0.367	0.388	0.382	0.328	0.325	0.371	0.325	0.389	0.356	0.416	0.328	0.348	0.311	0.359	0.348	0.475
240.0	149.3	195.5	772.6	3723	4447	520.9	38.27	10.37	7.639	7.701	6.232	5.682	4.985	4.108	3.200	2.632	2.602	2.439	2.474	2.024	1.655	1.688	1.634	1.382	1.225	1.249	1.136	1.063	1.086	1.117	1.016	0.822	0.825	0.800	0.731	0.551	0.582	0.722	0.531	0.458	0.574	0.512	0.649	0.629	0.764	0.864	0.615	0.835	1.584	3.152	8.312	19.14	22.79	15.49	5.075	0.830	0.503	0.519	0.385	0.393	0.327	0.351	0.367	0.414	0.347	0.384	0.388	0.356	0.317	0.359	0.402	0.335	0.380	0.340	0.400	0.350	0.373
245.0	125.2	214.8	246.5	1302	5103	4033	385.7	18.71	9.603	7.848	7.384	6.853	5.299	4.240	3.255	3.171	2.878	2.523	2.334	2.034	1.799	1.550	1.725	1.685	1.493	1.282	1.120	1.079	1.148	0.938	0.872	0.938	0.891	0.768	0.655	0.591	0.527	0.580	0.542	0.549	0.537	0.599	0.594	0.491	0.648	0.761	0.938	0.729	0.833	0.991	2.209	6.856	16.89	27.93	25.76	13.31	3.434	0.630	0.387	0.377	0.409	0.369	0.381	0.451	0.387	0.471	0.371	0.366	0.337	0.336	0.385	0.336	0.370	0.336	0.431	0.410	0.378
250.0	66.22	160.1	254.2	385.8	1716	4773	5286	1432	87.47	11.47	9.300	7.916	6.739	4.864	3.989	3.356	2.956	2.586	2.572	2.124	1.788	1.743	1.788	1.617	1.402	1.301	1.241	1.113	1.128	1.054	1.095	0.920	0.834	0.758	0.636	0.618	0.648	0.587	0.581	0.551	0.561	0.562	0.582	0.499	0.548	0.517	0.678	0.937	1.107	0.946	0.956	2.002	4.369	9.468	17.03	24.97	29.44	20.50	12.09	3.597	0.590	0.431	0.442	0.401	0.411	0.449	0.364	0.418	0.374	0.400	0.434	0.362	0.364	0.360	0.404	0.436	0.430
255.0	48.87	67.79	184.7	353.6	474.2	1259	4930	8546	1982	79.93	14.51	9.207	7.975	5.855	5.094	4.485	3.059	3.065	2.703	2.413	1.977	1.784	1.804	1.686	1.394	1.398	1.213	1.244	1.172	1.250	0.961	0.864	0.876	0.703	0.641	0.692	0.666	0.657	0.625	0.565	0.569	0.538	0.561	0.462	0.567	0.533	0.548	0.572	0.769	1.060	1.435	1.606	1.561	2.482	4.220	6.331	12.26	27.59	48.13	30.73	18.67	3.837	0.543	0.443	0.450	0.479	0.392	0.434	0.437	0.379	0.393	0.421	0.380	0.367	0.473	0.438	0.384
260.0	50.59	43.12	86.49	308.9	354.8	342.5	1588	7851	9199	1467	41.29	11.30	10.29	7.245	5.777	4.464	3.371	3.199	2.995	2.454	2.074	2.191	1.858	1.583	1.410	1.370	1.504	1.135	1.313	1.204	1.022	1.193	0.892	0.860	0.722	0.742	0.638	0.617	0.576	0.568	0.544	0.525	0.608	0.440	0.516	0.538	0.509	0.422	0.533	0.678	1.177	2.018	1.908	1.395	1.397	1.827	3.282	7.830	22.46	44.02	60.87	29.03	14.23	1.897	0.518	0.437	0.429	0.472	0.432	0.393	0.411	0.468	0.387	0.413	0.413	0.452	0.415
265.0	49.98	43.21	45.45	156.5	408.9	269.5	406.1	2840	9999.9	8787	254.8	19.60	12.09	9.177	6.795	5.719	4.024	3.770	3.111	2.567	2.147	2.258	1.875	1.747	1.637	1.303	1.537	1.200	1.158	1.142	1.207	1.130	1.005	0.874	0.776	0.724	0.663	0.688	0.667	0.614	0.564	0.475	0.589	0.565	0.538	0.583	0.462	0.554	0.464	0.457	0.609	1.161	2.089	2.320	1.621	1.004	1.159	2.182	5.706	13.95	36.33	60.50	67.01	25.35	8.064	0.817	0.563	0.501	0.376	0.459	0.544	0.464	0.420	0.437	0.410	0.418	0.430
270.0	69.42	66.72	56.36	68.25	214.6	413.8	321.0	707.1	3453	9956	9999.9	981.9	61.30	13.00	8.999	7.022	5.084	4.229	3.763	2.910	2.492	2.408	1.980	1.901	1.778	1.594	1.623	1.323	1.173	1.263	1.244	1.080	0.999	0.911	0.852	0.914	0.791	0.663	0.659	0.643	0.605	0.559	0.674	0.602	0.585	0.614	0.552	0.628	0.565	0.473	0.472	0.655	0.969	1.538	1.925	2.254	1.830	1.322	1.828	3.620	8.938	18.34	36.23	52.81	48.91	53.77	16.78	6.719	0.963	0.489	0.484	0.470	0.427	0.415	0.460	0.414	0.471
275.0	134.3	160.6	126.2	66.70	86.86	220.5	559.0	399.3	839.4	2586	9246	9999.9	1409	60.27	13.14	9.488	6.419	5.506	4.293	3.267	3.209	2.643	2.230	2.064	1.868	1.759	1.757	1.456	1.385	1.524	1.431	1.266	1.109	0.999	1.015	0.983	0.890	0.707	0.794	0.699	0.692	0.699	0.709	0.705	0.699	0.817	0.937	0.755	0.718	0.640	0.521	0.588	0.676	0.698	0.877	1.477	2.593	3.317	2.499	1.520	2.554	4.721	8.607	12.75	17.30	47.62	87.09	89.30	26.20	6.707	0.725	0.553	0.494	0.565	0.465	0.536	0.560
280.0	223.5	243.6	209.6	94.53	63.39	107.1	388.0	627.8	359.3	678.5	2845	9999.9	9999.9	984.7	28.70	11.82	8.428	5.873	5.225	4.133	3.484	2.779	2.459	2.216	2.021	2.022	1.877	1.680	1.528	1.394	1.434	1.217	1.291	1.187	1.062	1.275	1.061	0.918	0.792	0.765	0.830	0.752	0.820	0.845	0.840	0.934	0.909	1.128	0.945	0.758	0.620	0.570	0.551	0.570	0.631	0.836	1.383	2.598	3.679	3.016	1.873	1.738	2.519	3.628	4.545	12.63	33.57	77.33	105.7	34.47	20.14	2.851	0.661	0.590	0.515	0.445	0.539
285.0	316.2	370.0	298.6	142.9	71.62	81.61	192.6	609.2	407.3	315.8	787.9	3894	9999.9	9319	140.0	17.81	10.29	7.543	5.595	4.480	3.704	3.206	2.625	2.435	2.196	1.967	1.887	1.754	1.349	1.393	1.376	1.436	1.264	1.314	1.373	1.239	1.216	1.053	0.877	0.871	0.891	0.875	0.917	1.144	1.000	1.118	1.171	1.492	1.215	0.973	0.726	0.714	0.720	0.582	0.685	0.674	0.851	1.285	2.263	3.897	3.829	2.355	1.562	1.737	1.886	3.746	8.526	21.16	50.28	89.16	110.6	31.17	12.85	1.169	0.649	0.587	0.622
290.0	383.0	475.5	380.6	197.0	100.9	91.69	132.3	306.8	635.6	585.2	400.1	1085	3945	9999.9	9999.9	2177	37.03	10.59	7.427	5.440	4.239	3.628	3.161	2.858	2.268	2.076	2.019	1.829	1.698	1.605	1.499	1.358	1.293	1.322	1.424	1.285	1.199	1.190	1.003	0.924	0.955	0.982	0.918	1.164	1.316	1.331	1.584	1.668	1.411	1.199	0.848	0.880	0.776	0.699	0.791	0.800	0.798	0.962	1.300	1.902	2.888	3.500	3.525	2.961	1.984	1.992	3.110	5.862	12.61	24.73	49.61	68.77	89.57	71.15	20.04	9.510	1.352
295.0	444.3	523.4	451.3	257.7	146.2	118.6	150.0	217.5	371.2	837.0	777.3	566.6	1112	2645	9999.9	9999.9	786.6	34.65	11.31	7.171	5.710	4.476	3.576	3.007	2.534	2.374	2.402	1.992	1.972	1.889	1.560	1.368	1.393	1.255	1.507	1.436	1.190	1.321	1.031	1.058	0.981	1.155	1.106	1.115	1.415	1.557	1.626	1.700	1.694	1.562	1.150	1.047	0.881	0.878	0.924	0.934	0.974	1.037	1.103	1.362	1.636	1.948	2.737	4.582	4.842	3.218	2.355	2.754	4.213	6.828	12.06	16.45	24.98	51.19	99.61	117.5	32.02
300.0	489.4	574.6	493.2	289.0	175.1	152.2	176.4	220.1	313.8	595.6	1129	697.4	552.6	787.2	2952	9999.9	9999.9	584.5	19.20	9.477	6.621	5.185	3.894	3.308	3.126	2.808	2.441	2.102	1.851	1.929	1.429	1.520	1.462	1.528	1.428	1.402	1.242	1.314	1.183	1.153	1.143	1.149	1.112	1.176	1.472	1.548	1.765	1.914	1.715	1.514	1.268	1.120	1.128	1.070	1.063	1.060	1.272	1.130	1.253	1.358	1.495	1.722	1.964	3.179	4.449	5.510	4.125	2.802	2.719	3.129	3.983	4.873	6.509	12.95	33.12	80.95	122.1
305.0	501.7	602.2	516.8	319.5	213.8	196.0	214.7	268.5	340.3	486.2	957.8	1127	569.0	435.3	818.4	3775	9999.9	5849	84.41	14.01	8.726	6.771	5.118	3.896	3.469	3.275	2.527	2.126	2.031	1.892	1.481	1.457	1.495	1.526	1.377	1.472	1.285	1.315	1.243	1.087	1.051	1.160	1.090	1.251	1.474	1.672	1.757	2.147	1.935	1.551	1.261	1.219	1.145	1.133	1.244	1.156	1.283	1.402	1.542	1.489	1.719	1.675	2.053	2.636	3.101	4.110	5.725	5.006	3.578	2.557	2.364	2.389	2.721	3.850	8.322	20.88	50.63
310.0	491.7	598.1	542.4	362.5	259.3	235.0	270.6	329.0	398.6	513.3	732.2	1080	1017	527.8	402.3	984.5	3745	9999.9	9877	1647	27.39	9.140	6.421	4.884	4.146	3.698	2.839	2.466	2.332	2.063	1.707	1.628	1.668	1.614	1.383	1.567	1.432	1.312	1.262	1.083	1.084	1.195	1.173	1.291	1.423	1.637	1.734	2.018	1.952	1.686	1.349	1.444	1.371	1.293	1.392	1.462	1.558	1.536	1.674	1.759	1.858	2.039	2.145	2.681	2.738	3.168	3.904	4.669	5.153	4.830	3.646	2.500	2.201	2.198	3.087	5.709	12.36
315.0	481.7	598.0	582.3	404.2	289.4	286.9	318.3	386.8	464.1	581.7	712.9	842.3	1026	950.7	431.1	399.8	953.3	2504	9114	9999.9	555.1	26.82	8.727	6.201	5.296	4.070	3.102	3.047	2.605	2.464	2.091	1.908	1.730	1.712	1.657	1.398	1.412	1.342	1.217	1.193	1.178	1.239	1.206	1.292	1.464	1.888	1.859	1.978	2.033	1.746	1.513	1.662	1.540	1.436	1.457	1.659	1.557	1.722	1.946	2.013	1.984	2.300	2.356	2.639	3.003	3.440	3.363	3.437	3.819	4.439	5.629	4.829	3.419	2.370	2.113	2.579	3.933
320.0	557.2	712.7	696.1	471.4	337.8	329.5	362.4	438.7	508.1	630.3	753.0	831.8	881.4	1064	701.9	328.6	369.3	666.6	2578	9999.9	9999.9	434.1	15.78	7.933	6.223	4.851	3.774	3.206	2.733	2.660	2.150	1.868	1.924	1.893	1.581	1.531	1.340	1.342	1.238	1.151	1.057	1.323	1.249	1.438	1.625	1.856	2.174	2.406	2.229	1.942	1.767	1.888	1.644	1.645	1.503	1.642	1.731	1.905	1.932	2.222	2.179	2.395	2.490	3.021	3.215	3.509	3.467	3.474	3.541	3.669	4.610	4.922	5.240	3.771	2.247	2.040	2.048
325.0	627.5	890.7	919.0	641.9	415.1	372.6	402.8	474.0	569.2	680.3	820.7	900.6	890.8	923.0	965.0	480.7	284.3	289.7	673.7	3357	9999.9	4349	64.85	12.32	7.592	5.494	4.326	3.437	3.039	2.628	2.205	1.992	1.797	1.717	1.619	1.551	1.329	1.247	1.369	1.164	1.209	1.360	1.483	1.547	1.677	2.056	2.464	2.944	2.976	2.480	2.093	2.132	2.100	2.041	1.629	1.919	2.094	2.168	2.269	2.329	2.352	2.676	2.821	3.119	3.530	3.632	3.717	4.097	3.692	3.889	4.009	4.114	4.703	5.374	4.215	2.624	2.279
330.0	721.3	1076	1198	916.3	580.6	457.6	462.8	532.7	629.7	753.5	893.3	975.0	966.0	883.6	873.2	775.1	446.6	265.8	289.1	853.3	3360	8745	7987	1423	23.34	8.005	5.641	4.135	3.532	2.885	2.572	2.253	1.950	1.866	1.743	1.625	1.431	1.362	1.386	1.272	1.248	1.406	1.398	1.661	1.930	2.331	2.840	3.354	3.833	3.305	2.991	2.896	2.661	2.277	2.177	2.179	2.329	2.338	2.528	2.651	2.824	2.958	3.175	3.393	3.723	3.959	4.081	4.012	4.167	4.204	4.182	3.973	3.979	4.286	4.485	4.457	3.746
335.0	813.2	1218	1426	1127	765.7	594.3	541.4	620.4	699.5	831.1	962.4	1061	1058	955.4	818.9	739.9	736.8	408.4	261.3	330.8	849.1	2160	7230	9999.9	454.5	25.34	7.858	5.510	4.239	3.543	2.691	2.750	2.128	2.094	1.854	1.737	1.411	1.543	1.422	1.263	1.327	1.471	1.541	1.787	2.134	2.420	3.133	3.920	4.250	3.887	3.776	3.381	3.392	2.993	2.549	2.744	2.726	2.793	2.910	3.004	2.950	3.231	3.811	3.946	3.967	4.155	4.533	4.206	4.295	4.461	4.458	4.163	4.170	4.071	3.874	3.909	3.967
340.0	839.1	1278	1543	1299	944.0	737.6	663.3	689.9	779.7	900.1	1036	1124	1116	1022	869.9	710.2	748.5	635.6	324.4	252.3	321.5	580.2	2039	9574	9770	386.3	14.32	6.869	5.151	4.165	3.189	2.676	2.362	2.168	1.866	1.623	1.673	1.638	1.387	1.348	1.439	1.622	1.473	1.899	2.194	2.549	3.400	4.346	4.567	4.066	4.011	4.443	3.866	3.402	2.993	2.888	3.080	3.296	3.151	3.216	3.281	3.672	3.942	4.142	4.266	4.312	4.610	4.651	4.866	4.763	4.874	4.564	4.446	4.211	3.989	3.849	3.682
345.0	831.0	1280	1606	1433	1105	900.4	789.7	791.7	853.5	953.6	1076	1154	1160	1078	917.9	742.8	671.1	726.0	488.4	280.0	241.2	255.5	552.2	2988	9999.9	7614	56.18	10.96	6.582	4.931	3.410	3.081	2.287	2.158	2.060	1.680	1.593	1.484	1.516	1.358	1.297	1.516	1.563	1.862	2.097	2.694	3.383	4.325	4.724	4.496	4.038	4.866	4.211	3.862	3.616	3.334	3.545	3.682	3.751	3.440	3.983	3.881	3.878	4.432	4.451	4.427	4.765	4.896	4.878	4.674	4.937	4.977	4.555	4.700	4.243	3.995	3.845
350.0	832.3	1272	1609	1552	1328	1131	1024	987.2	1029	1090	1177	1225	1209	1134	998.3	823.0	693.3	651.7	646.1	459.5	296.3	240.8	263.8	773.4	3079	7718	6424	1301	22.58	6.936	4.716	3.523	2.883	2.582	2.043	1.862	1.731	1.606	1.493	1.425	1.285	1.494	1.468	1.883	2.217	2.568	3.360	4.266	4.740	4.576	4.652	5.258	4.894	4.720	4.636	4.405	4.404	4.425	4.413	4.136	4.321	4.345	4.566	4.534	4.850	4.889	4.749	5.029	5.050	5.174	5.068	4.987	4.984	5.005	4.573	4.539	4.158
355.0	796.5	1287	1626	1642	1567	1441	1343	1280	1283	1287	1324	1328	1301	1214	1091	933.9	790.6	679.7	626.9	647.6	460.2	306.0	261.3	327.2	798.4	1874	5140	9458	421.4	26.59	6.889	4.874	3.529	2.774	2.245	1.915	1.851	1.716	1.521	1.440	1.528	1.625	1.571	1.900	2.187	2.707	3.308	4.134	4.726	4.692	5.052	5.545	5.801	5.708	5.366	5.440	5.609	5.674	5.720	5.434	5.530	5.458	5.461	5.662	5.256	5.234	5.310	5.612	5.312	5.419	5.436	5.181	5.405	5.229	4.840	4.932	4.859
360.0	833.3	1262	1642	1737	1714	1635	1556	1518	1487	1481	1451	1437	1362	1285	1162	1016	869.2	747.5	646.3	646.5	628.9	408.3	304.5	268.1	325.1	523.0	1408	7167	8364	376.9	16.05	6.239	4.371	3.144	2.598	2.146	2.023	1.934	1.575	1.364	1.555	1.602	1.675	1.905	2.229	2.949	3.267	4.125	4.643	4.592	4.901	6.098	6.036	6.519	6.476	6.418	6.420	6.433	6.394	6.165	6.207	6.118	6.660	6.118	5.778	5.877	5.971	5.823	5.542	5.744	5.955	5.656	5.657	5.292	5.226	4.981	4.980
365.0	846.0	1241	1639	1773	1797	1796	1720	1684	1647	1607	1565	1510	1421	1342	1225	1070	931.9	811.2	706.4	636.0	673.5	566.6	379.1	299.6	260.1	253.0	408.5	2093	8364	7060	299.4	9.909	5.350	4.008	2.879	2.234	2.104	1.928	1.768	1.481	1.670	1.659	1.531	2.027	2.320	2.615	3.245	4.120	4.735	4.661	5.037	6.301	6.483	6.972	6.888	6.955	7.154	7.194	6.887	6.824	7.032	6.790	6.999	6.724	6.529	6.398	5.937	6.033	5.840	5.891	6.123	5.673	6.062	5.517	5.380	5.465	4.994
370.0	833.7	1257	1636	1813	1906	1953	1902	1845	1798	1752	1699	1620	1499	1391	1271	1136	1007	891.5	790.2	695.6	658.1	662.2	557.8	396.1	309.7	248.9	227.7	560.6	2406	6360	5673	1250	20.96	6.077	3.840	2.657	2.330	2.035	1.827	1.790	1.692	1.714	1.698	2.064	2.297	2.688	3.207	4.234	4.604	4.672	5.152	6.664	6.772	7.255	7.503	7.274	7.884	7.691	7.520	7.288	7.447	7.321	7.293	7.104	7.253	6.943	6.570	6.188	6.111	6.076	6.212	5.864	6.094	6.021	5.934	5.810	5.685
375.0	833.8	1241	1625	1887	2000	2089	2023	1972	1939	1880	1805	1715	1576	1442	1304	1181	1070	973.0	868.9	780.6	717.1	678.0	688.6	556.5	410.6	322.9	249.0	261.6	627.6	1524	4063	8110	1813	24.55	5.776	3.900	2.954	2.331	2.023	1.831	1.839	1.731	1.791	2.107	2.345	2.633	3.230	4.026	4.527	4.699	5.265	6.931	7.058	7.679	7.773	8.031	8.188	7.998	8.229	7.772	7.833	7.678	7.766	7.487	7.600	7.119	6.954	6.428	6.784	6.450	6.334	6.053	6.005	6.106	6.101	5.881	5.635
380.0	827.8	1247	1610	1858	2040	2127	2080	2043	1990	1916	1855	1766	1615	1462	1333	1202	1100	1014	920.8	842.8	772.1	716.0	694.9	688.4	523.1	394.4	298.0	233.1	259.7	421.0	1090	5714	7107	325.6	15.47	4.949	3.557	2.842	2.411	2.025	1.873	1.858	2.055	2.044	2.222	2.788	3.104	3.739	4.441	4.994	5.082	6.767	7.248	7.719	7.878	8.221	8.259	8.402	8.765	8.351	7.941	7.882	8.261	8.093	7.716	6.967	6.837	6.627	7.128	6.849	6.733	6.727	6.199	6.348	5.854	5.973	5.986
385.0	836.4	1225	1583	1838	2057	2132	2125	2070	1998	1925	1861	1783	1642	1472	1330	1209	1120	1040	951.7	878.3	815.7	756.5	700.8	705.4	651.4	468.5	346.8	262.7	208.0	197.1	312.7	1610	6266	5468	253.3	8.502	4.633	3.474	2.536	2.086	1.827	1.823	1.818	2.164	2.466	2.773	3.171	3.570	4.353	4.686	5.121	6.756	7.158	7.740	7.989	8.526	8.336	9.095	8.602	8.229	7.963	7.948	8.107	7.511	7.990	7.150	6.808	7.023	7.033	6.598	6.536	6.654	6.366	6.229	6.117	5.805	6.168
390.0	808.1	1188	1536	1772	2001	2107	2095	2044	1973	1905	1856	1749	1615	1454	1318	1205	1121	1049	979.8	907.6	847.2	787.7	733.1	691.4	681.7	590.1	420.8	307.7	233.0	180.6	164.9	424.0	1738	4484	4105	1009	18.23	4.760	3.263	2.591	2.140	2.010	2.071	2.104	2.386	2.773	3.078	3.923	4.257	4.663	4.909	6.639	7.041	7.548	7.908	8.227	8.438	8.402	8.445	8.289	7.945	7.968	7.991	7.867	7.750	6.977	7.030	6.965	6.782	6.498	6.392	6.235	5.990	6.396	5.997	6.186	5.914
395.0	800.6	1161	1492	1750	1931	2044	2037	2009	1936	1884	1820	1724	1588	1427	1296	1181	1114	1056	993.1	930.1	875.5	823.4	767.4	709.7	664.1	643.6	535.6	370.7	279.8	212.5	161.9	181.2	445.5	1069	2739	5627	1477	21.07	4.775	3.194	2.645	2.395	2.157	2.170	2.394	2.826	3.198	3.790	4.185	4.502	4.849	6.425	6.960	7.265	7.518	7.733	8.176	8.258	8.178	7.925	7.746	7.926	7.521	7.886	7.376	7.120	6.431	6.643	6.644	6.293	6.028	6.085	6.002	6.609	6.116	6.185	5.653
400.0	785.9	1141	1436	1701	1880	2001	2016	1953	1889	1833	1768	1675	1544	1396	1274	1175	1102	1048	986.0	933.3	885.9	837.2	786.7	724.1	675.7	629.2	594.5	450.3	318.5	247.0	183.8	147.1	173.0	289.3	724.0	3775	5088	280.0	13.44	4.206	2.993	2.487	2.384	2.313	2.534	2.662	3.148	3.659	4.149	4.406	4.758	6.098	6.780	6.800	7.461	7.374	8.032	8.269	7.792	7.940	7.478	7.592	7.350	7.408	7.309	6.902	6.516	6.607	6.345	6.158	6.153	5.862	6.139	6.131	5.834	6.032	5.700
405.0	725.7	1107	1405	1627	1816	1941	1949	1911	1850	1791	1721	1647	1498	1367	1251	1145	1080	1029	972.9	921.0	878.6	837.6	790.6	736.6	682.2	617.7	582.4	519.9	371.9	277.0	211.9	159.8	128.2	126.6	206.0	1056	4292	3941	220.7	7.115	3.567	2.971	2.600	2.414	2.628	2.714	2.998	3.651	4.082	4.213	4.781	5.999	6.382	6.663	6.928	7.122	7.743	7.508	7.472	7.763	7.503	7.217	7.453	7.336	6.789	6.597	6.607	6.054	6.279	6.085	5.814	5.615	6.014	6.194	5.720	5.840	5.694
410.0	696.8	1054	1337	1546	1732	1832	1854	1834	1772	1712	1638	1556	1441	1318	1191	1099	1037	997.0	949.5	897.6	859.7	818.6	780.4	735.0	680.9	616.0	556.6	521.0	452.0	333.0	248.0	188.0	140.8	109.7	104.3	277.5	1178	3121	3121	877.3	15.74	3.833	2.999	2.760	2.723	2.746	3.119	3.564	4.062	4.070	4.475	5.648	6.107	6.755	6.664	6.964	7.494	7.367	7.585	7.577	7.340	7.213	7.079	6.804	6.449	6.423	6.195	6.169	6.072	5.852	5.751	5.735	5.626	5.811	5.363	5.543	5.666
415.0	673.6	1019	1273	1454	1627	1728	1751	1751	1689	1626	1563	1470	1360	1254	1139	1040	990.5	940.5	905.3	866.7	824.0	789.2	764.1	720.9	671.7	611.4	549.9	491.5	467.1	410.6	293.2	218.6	162.0	122.3	95.92	113.5	298.5	739.6	1937	4057	1187	18.33	3.964	2.986	2.949	2.968	3.194	3.332	3.972	3.939	4.225	5.444	5.821	6.068	6.445	7.042	7.135	6.941	7.486	7.357	7.059	7.050	6.660	6.759	6.235	6.125	6.321	5.853	5.559	5.759	5.451	5.226	5.046	5.314	5.018	5.595	5.280
420.0	653.6	980.1	1225	1394	1535	1647	1675	1697	1639	1574	1513	1423	1302	1193	1093	999.9	946.0	910.0	874.4	831.1	795.5	764.3	737.6	699.1	660.5	608.2	545.8	486.0	446.4	434.9	341.3	240.6	179.5	137.7	103.6	84.95	109.3	194.6	507.6	2675	3724	252.5	10.23	3.708	3.372	3.107	3.153	3.329	3.740	3.866	4.140	5.266	5.640	6.119	6.123	6.419	6.980	6.875	7.048	6.803	6.660	6.562	6.613	6.378	6.137	5.751	5.845	5.458	5.578	5.633	5.390	5.059	5.158	5.298	5.094	5.029	5.191
425.0	623.5	937.5	1163	1348	1478	1577	1612	1626	1591	1531	1456	1370	1254	1146	1036	952.8	901.5	874.0	833.6	800.8	766.4	740.1	713.9	677.6	649.1	599.5	542.2	488.0	438.7	420.7	386.0	273.2	197.2	151.0	115.3	87.47	75.28	78.48	139.0	742.5	3072	2223	195.2	5.699	3.444	3.319	2.976	3.647	3.879	3.678	3.939	5.272	5.554	5.762	6.049	6.098	6.750	6.837	6.905	6.348	6.669	6.387	6.404	6.329	5.779	5.802	5.699	5.475	5.252	5.186	5.314	5.018	5.099	4.900	4.887	4.727	4.870
430.0	755.8	858.7	1119	1282	1385	1471	1540	1556	1538	1474	1408	1317	1206	1088	985.8	903.8	853.2	820.2	789.5	757.6	728.8	709.5	682.7	653.7	626.2	582.0	537.3	490.0	442.1	405.2	382.2	326.7	236.0	172.5	133.4	100.7	77.68	62.69	62.96	189.2	843.2	2183	2560	742.3	14.20	3.968	3.543	3.715	3.873	3.727	3.915	4.907	5.015	5.482	5.512	5.866	6.464	6.414	6.559	6.324	6.275	6.271	6.047	5.889	5.757	5.742	5.403	5.307	5.126	4.839	4.874	4.780	4.617	4.703	4.551	4.573	4.632
435.0	1257	868.9	1058	1185	1290	1391	1481	1480	1467	1424	1370	1258	1150	1033	934.8	854.3	803.4	768.6	742.9	714.1	694.5	667.5	646.9	632.8	599.4	567.5	526.5	487.2	449.4	406.3	364.7	334.9	286.9	201.5	150.2	117.7	90.08	68.82	53.80	71.91	209.4	516.9	1610	3401	260.1	16.53	4.261	3.939	3.942	3.591	3.538	4.803	4.787	5.127	5.150	5.558	6.168	5.926	6.204	6.016	5.846	6.008	5.772	5.906	5.579	5.235	5.424	5.121	4.861	4.774	4.644	4.711	4.508	4.565	4.544	4.390	4.414
440.0	1868	951.2	1004	1139	1256	1337	1395	1436	1441	1372	1311	1216	1105	999.4	896.0	818.2	761.8	741.0	707.6	683.4	662.4	639.7	625.0	607.9	582.1	552.4	516.0	482.0	447.1	409.7	361.7	320.4	302.4	234.4	164.2	127.4	100.6	76.05	57.72	50.56	71.48	134.2	427.6	2374	3068	226.6	9.609	4.586	3.992	3.588	3.604	4.546	4.724	5.184	5.374	5.427	6.037	5.944	6.000	5.884	5.660	5.712	5.705	5.542	5.497	5.310	5.219	4.905	4.807	4.419	4.689	4.532	4.153	4.435	4.476	4.360	4.306
445.0	2025	1354	944.9	1066	1195	1274	1324	1384	1382	1330	1276	1173	1061	947.4	856.7	780.8	726.2	700.5	670.5	648.7	628.1	611.8	593.1	578.3	560.3	534.0	503.0	472.2	442.8	408.2	362.3	312.0	290.2	255.0	185.1	136.4	107.3	83.98	64.43	50.12	44.72	50.85	112.4	678.4	2804	1994	161.9	6.169	4.215	3.779	3.715	4.450	4.547	5.047	4.915	4.910	5.583	6.009	5.917	5.700	5.814	5.608	5.624	5.434	5.231	5.197	4.837	4.875	4.532	4.146	4.504	4.326	4.226	4.247	4.152	4.002	4.104
450.0	1372	2315	1102	999.1	1102	1179	1249	1295	1307	1260	1205	1115	991.9	893.0	797.8	723.0	671.6	646.1	621.2	599.6	578.3	565.7	552.0	537.4	522.3	501.4	476.4	452.0	427.3	397.4	355.7	308.6	271.4	247.1	211.4	155.5	117.0	91.47	71.67	55.12	44.05	36.87	44.83	168.0	783.3	2019	2259	650.1	12.86	4.252	3.879	4.490	4.434	4.727	4.731	4.632	5.188	5.496	5.521	5.487	5.448	5.407	5.226	5.203	4.846	4.823	4.404	4.475	4.337	4.137	4.161	4.016	4.043	3.780	3.802	3.669	3.700
455.0	688.9	2561	2068	965.0	999.4	1076	1149	1202	1203	1175	1123	1036	930.6	823.5	733.8	658.9	609.8	586.8	563.1	545.5	527.4	512.7	499.2	496.4	476.9	462.7	443.6	425.2	405.8	378.2	347.5	300.7	260.6	225.0	209.5	178.3	129.9	98.74	77.73	60.87	47.85	38.25	34.29	56.04	189.1	477.7	1364	2842	216.3	14.33	4.454	4.486	4.514	4.331	4.422	4.451	4.615	5.100	5.148	5.085	5.002	4.996	5.145	4.687	4.890	4.633	4.248	4.289	3.985	3.835	3.889	3.869	3.662	3.471	3.361	3.639	3.663
460.0	472.2	1776	3081	1120	939.4	1002	1063	1113	1136	1114	1065	973.4	866.7	768.1	686.3	614.9	570.1	544.0	519.1	499.3	486.8	473.2	464.3	457.3	443.2	428.8	413.0	397.9	383.8	363.0	335.1	292.3	252.2	215.9	193.6	180.5	142.8	103.9	81.39	65.28	52.91	40.96	33.48	33.02	58.58	119.6	354.8	1884	2431	177.7	9.671	4.990	4.560	4.190	4.251	4.360	4.477	4.766	5.155	4.682	4.760	4.977	4.905	4.709	4.578	4.242	4.131	4.066	4.053	3.933	3.506	3.548	3.272	3.423	3.314	3.049	3.241
465.0	420.8	1017	3476	1740	876.6	937.4	989.3	1037	1067	1034	994.3	915.5	806.2	723.3	638.2	566.5	530.9	502.6	475.6	460.8	447.7	439.0	428.8	419.6	409.6	400.8	388.9	373.6	364.6	345.5	318.1	283.4	241.9	208.9	181.7	169.9	154.0	112.3	84.48	67.20	55.51	44.03	34.89	29.75	31.08	41.42	91.30	528.5	2183	1520	144.3	7.064	4.681	4.409	3.989	4.096	4.174	4.365	4.639	4.634	4.616	4.526	4.287	4.538	4.372	4.006	3.919	3.773	3.765	3.406	3.366	3.380	3.195	3.054	3.258	2.903	2.958
470.0	376.0	598.2	2206	3124	1089	852.7	907.1	939.2	967.6	945.9	903.8	833.8	740.3	651.3	580.0	514.1	477.3	450.4	426.3	412.2	400.2	388.8	383.9	375.8	367.3	361.1	351.9	341.4	332.3	317.0	295.0	263.7	229.1	197.6	170.0	150.1	140.7	122.8	92.00	69.77	56.65	46.66	38.27	31.05	26.99	25.42	33.56	129.4	604.2	1457	1630	559.0	13.23	4.598	4.207	4.103	4.173	4.135	4.132	4.334	4.322	4.341	4.031	3.985	3.893	3.893	3.511	3.393	3.407	3.182	3.293	3.055	2.874	2.926	3.000	2.708	2.809
475.0	354.3	442.2	987.9	3254	2196	779.8	810.0	849.4	865.8	853.8	811.3	739.4	664.8	583.8	516.6	457.4	422.0	401.4	378.6	365.1	352.8	342.4	340.2	332.4	328.0	320.4	312.9	305.5	298.0	288.8	273.0	241.5	213.7	185.3	159.1	137.6	123.9	118.2	102.1	74.43	58.61	48.13	39.86	33.45	28.25	23.80	22.12	40.82	145.0	340.8	875.6	1943	218.5	15.69	4.669	4.044	4.095	3.786	3.972	4.009	3.724	3.915	3.833	3.457	3.639	3.654	3.294	3.175	3.012	2.953	2.781	2.742	2.809	2.593	2.540	2.703	2.632
480.0	338.6	416.3	627.4	2148	3401	939.6	744.5	792.7	808.3	798.7	759.5	694.4	619.2	541.0	476.0	418.3	385.8	366.5	347.3	334.7	320.3	315.4	308.8	303.6	299.0	294.2	288.1	281.1	276.0	268.1	254.5	227.5	203.0	175.1	152.3	131.5	114.7	106.8	103.2	81.27	61.42	49.28	41.29	34.96	29.75	24.93	21.04	22.06	43.46	85.26	222.3	1148	1719	204.0	9.696	4.197	4.030	3.936	3.831	3.712	3.662	3.846	3.750	3.381	3.294	3.305	3.301	2.984	2.792	2.617	2.658	2.603	2.707	2.506	2.375	2.442	2.387
485.0	296.1	403.6	493.9	1162	3746	1613	702.8	737.8	743.0	756.8	713.0	659.2	582.3	507.8	448.7	391.0	363.2	338.5	322.0	306.6	297.5	289.9	287.2	283.7	275.6	271.3	263.5	262.1	259.6	249.9	239.0	214.3	188.7	169.2	145.2	126.6	110.6	97.31	95.61	86.66	66.06	51.22	42.59	36.15	30.94	26.54	22.11	19.87	21.29	28.80	57.93	314.3	1445	1610	157.5	6.123	4.312	3.971	3.788	3.336	3.378	3.639	3.692	3.222	3.237	3.110	2.914	2.863	2.878	2.862	2.593	2.528	2.582	2.313	2.246	2.303	2.246
490.0	262.3	421.9	465.0	643.3	2363	3121	912.7	678.5	691.9	683.9	656.6	601.8	534.8	464.9	407.7	358.0	329.2	306.7	292.6	279.8	269.2	262.6	256.6	253.3	249.1	246.6	242.0	239.6	237.5	230.6	218.9	197.5	176.6	157.2	136.9	121.7	106.1	92.75	85.21	83.91	73.30	55.60	44.74	37.84	32.52	28.23	23.76	20.18	17.73	17.21	22.45	78.39	388.7	1118	1486	545.5	14.21	4.276	3.837	3.457	3.418	3.309	3.467	3.061	3.029	2.904	2.834	2.778	2.723	2.407	2.255	2.366	2.288	2.167	2.220	2.082	2.143
495.0	234.3	366.0	441.8	478.1	1008	3343	1974	627.4	624.9	620.0	599.9	542.1	483.5	424.1	367.7	319.1	298.0	279.5	260.2	254.0	240.5	233.6	229.4	226.8	221.0	222.2	218.9	216.1	215.3	208.1	199.8	180.6	162.6	145.5	128.0	113.0	101.6	87.40	78.05	73.39	71.94	61.21	46.88	39.11	33.97	29.15	24.39	21.95	18.52	15.80	15.05	25.84	93.83	260.1	768.9	1826	244.7	17.70	4.156	3.466	3.145	3.237	2.994	2.901	2.703	2.657	2.576	2.514	2.496	2.255	2.289	2.082	2.035	1.927	2.040	2.087	2.110
500.0	208.8	309.9	448.8	413.8	572.9	2223	3246	741.4	578.2	565.1	540.9	507.2	442.2	387.5	341.2	298.2	269.6	254.9	239.0	231.4	219.5	212.6	207.4	206.8	203.3	202.5	198.0	196.2	195.9	191.3	183.1	167.1	150.7	135.7	119.8	105.9	95.00	83.43	74.62	66.07	64.12	63.17	51.42	40.32	33.25	29.65	25.82	22.23	19.18	15.95	13.88	15.10	28.78	64.54	192.6	1021	1725	225.5	11.42	3.829	3.441	3.159	2.939	2.901	2.681	2.539	2.354	2.173	2.042	1.974	2.035	2.146	1.987	2.055	1.860	1.927	1.838
505.0	185.9	286.7	430.3	409.8	435.7	1137	3721	1325	538.0	522.5	499.9	462.5	405.0	362.4	308.1	276.4	248.0	233.1	217.9	211.1	199.5	194.6	188.4	189.0	183.8	182.2	180.3	179.5	178.6	174.1	167.8	156.3	138.6	125.4	112.6	98.40	88.99	78.66	71.38	63.02	58.25	58.85	54.46	42.85	33.50	29.50	25.80	22.57	19.71	16.53	14.05	12.92	14.29	21.47	49.37	269.8	1254	1537	181.4	5.856	3.334	2.768	2.765	2.458	2.397	2.360	2.448	1.901	2.062	1.913	1.843	1.856	1.811	1.732	1.735	1.604	1.469
510.0	177.8	237.3	342.3	405.4	381.2	569.9	2377	2906	679.0	463.7	446.6	411.6	362.4	322.2	277.7	245.7	220.6	204.4	192.1	183.3	176.1	169.8	165.8	165.5	161.8	159.6	159.0	157.6	157.9	155.3	148.4	136.8	125.2	112.0	101.6	90.14	80.74	72.52	65.76	58.31	52.60	50.02	50.69	46.03	35.52	28.89	26.10	22.15	19.45	16.92	14.63	12.29	11.51	12.12	17.64	66.17	326.6	942.9	1249	467.3	14.36	3.079	2.865	2.581	2.336	2.099	2.145	1.832	1.906	1.819	1.723	1.768	1.687	1.688	1.559	1.603	1.507
515.0	146.8	198.8	271.5	378.9	343.0	384.3	926.9	3377	1703	420.0	393.1	364.3	320.6	282.1	243.5	213.7	193.9	177.1	167.0	157.2	152.9	146.8	144.4	142.1	139.1	138.9	137.5	135.6	136.6	134.4	129.0	120.0	109.3	98.76	89.44	79.66	71.88	65.10	58.54	53.26	47.81	44.41	41.71	44.07	38.93	30.49	24.94	21.74	18.74	16.66	14.43	13.17	10.92	10.16	11.03	21.10	78.23	216.8	532.7	1350	250.3	18.52	2.775	2.602	2.307	1.949	1.962	1.614	1.945	1.613	1.626	1.674	1.574	1.600	1.411	1.510	1.562
520.0	140.3	180.4	232.8	337.6	342.6	328.9	469.6	2271	2905	526.0	356.1	327.3	286.9	254.5	218.5	193.0	177.5	161.6	153.6	142.4	136.5	131.5	129.2	126.3	124.1	124.4	122.7	122.5	121.6	122.2	116.0	108.2	98.98	90.44	80.43	73.30	65.69	59.94	53.75	48.56	44.36	40.49	37.21	37.73	38.71	31.56	24.30	21.19	18.77	15.76	14.45	13.13	11.18	10.04	9.541	11.05	23.04	53.41	129.9	667.6	1266	231.9	11.07	2.566	2.319	1.822	1.745	1.595	1.638	1.664	1.480	1.587	1.336	1.387	1.345	1.317	1.357
525.0	118.8	163.3	204.3	282.6	358.6	298.5	333.4	1070	3728	1111	329.5	301.5	259.3	230.2	197.4	176.0	162.9	145.4	138.6	129.5	125.3	117.7	116.1	114.8	112.2	110.4	110.0	111.4	109.3	110.2	104.6	97.77	88.37	80.81	73.76	67.19	60.59	55.12	50.39	44.37	41.64	37.84	34.02	32.47	35.39	33.29	25.61	20.57	17.82	15.47	13.82	12.81	11.32	10.05	9.098	8.663	10.45	16.97	33.58	168.6	783.7	1148	191.4	5.751	2.205	1.839	1.813	1.615	1.517	1.472	1.359	1.456	1.227	1.310	1.239	1.251	1.236
530.0	109.5	144.3	176.0	219.9	318.1	294.4	275.0	460.3	2394	2806	468.0	261.5	230.3	203.1	174.2	153.4	139.9	128.1	119.3	112.9	107.0	104.0	101.1	99.67	97.67	95.78	94.69	95.11	95.51	94.57	90.66	84.83	77.37	70.97	63.94	58.72	54.13	48.84	44.50	40.46	37.14	33.37	31.49	28.92	29.10	30.22	27.15	20.65	16.93	14.66	13.28	11.93	11.07	10.20	9.328	8.224	7.761	8.860	11.98	41.47	195.6	602.7	881.7	384.6	14.59	2.066	1.786	1.541	1.417	1.400	1.279	1.256	1.186	1.206	1.172	1.194	1.241
535.0	97.11	112.8	152.0	174.0	226.2	300.1	244.7	287.6	837.5	3336	1497	235.8	199.6	173.6	150.6	133.3	120.1	109.7	101.9	98.53	92.12	88.90	85.71	85.23	82.96	82.42	81.25	80.83	80.94	79.83	78.16	73.02	66.31	60.93	55.01	51.17	46.16	43.12	39.79	35.28	32.61	29.88	27.85	25.53	24.31	24.39	25.94	22.13	17.49	13.81	12.69	11.00	10.33	9.630	9.297	7.984	6.879	6.909	6.955	13.30	46.98	138.4	311.8	891.2	257.3	19.49	2.050	1.553	1.477	1.380	1.209	1.094	1.082	1.078	1.031	1.046	1.067
540.0	93.80	115.4	133.4	157.9	182.8	281.2	230.5	222.6	366.3	2147	2955	269.7	177.8	154.1	132.7	119.2	104.1	96.20	90.80	86.60	80.31	79.53	74.98	73.01	73.72	74.02	72.63	69.89	70.34	71.34	68.19	64.62	58.80	53.50	49.08	44.28	41.25	38.47	34.97	32.45	29.38	27.42	25.08	23.24	21.61	21.02	21.81	22.03	17.65	13.47	11.72	10.87	9.650	8.962	8.937	8.153	6.618	5.976	5.868	6.677	13.86	33.89	74.39	376.1	871.0	238.4	12.83	1.761	1.362	1.366	1.257	1.115	0.993	1.022	0.993	0.999	0.977
545.0	92.89	109.0	130.9	142.3	156.6	233.6	234.6	198.2	227.9	904.7	3612	789.5	160.1	133.4	122.0	104.4	94.79	86.87	80.35	76.58	72.73	69.18	66.20	64.55	65.42	63.99	62.77	62.50	61.12	61.61	60.58	55.80	51.65	47.71	42.67	39.50	36.53	33.96	30.98	28.97	26.04	25.10	22.79	20.57	19.80	18.59	17.89	20.11	18.02	13.61	11.24	9.841	8.880	8.207	8.041	7.841	6.972	5.874	5.379	5.106	6.466	10.71	19.40	91.05	446.7	820.2	195.7	6.286	1.506	1.376	1.236	1.004	1.052	1.010	0.934	0.838	0.919
550.0	92.79	102.1	114.6	119.0	127.6	165.3	234.8	177.5	175.6	339.8	2136	2368	198.5	115.1	101.5	87.95	79.67	72.17	67.60	63.07	60.45	58.15	55.86	55.03	54.37	53.20	51.97	51.50	52.11	52.01	50.44	46.98	42.96	39.93	35.44	33.72	30.91	29.09	25.97	24.55	22.49	21.01	19.25	18.41	16.72	16.08	14.76	15.05	16.13	13.68	10.64	9.022	7.979	7.616	7.184	6.881	6.570	5.677	5.151	4.535	4.403	5.115	6.879	22.62	107.3	360.1	582.8	285.8	15.72	1.717	1.125	1.034	0.923	0.936	0.856	0.751	0.792
555.0	90.19	97.61	104.3	104.0	104.5	123.8	185.1	189.2	140.0	184.4	667.7	2981	1016	101.2	83.43	70.82	65.88	60.48	55.09	51.48	48.95	47.17	45.69	44.01	43.89	42.79	42.04	41.24	41.87	41.11	40.18	38.93	34.43	32.30	29.00	27.53	25.56	23.48	22.10	19.84	18.30	17.08	16.09	15.52	14.15	13.40	12.60	11.41	12.18	12.41	10.91	8.171	6.867	6.563	6.403	5.629	5.568	5.418	4.948	4.012	3.584	3.738	3.678	7.134	25.92	82.19	178.3	523.1	259.2	21.34	1.357	0.971	0.871	0.889	0.831	0.692	0.826
560.0	88.04	99.67	97.85	87.77	85.07	98.77	144.6	199.3	131.5	136.1	246.0	1841	2294	144.1	69.55	60.66	55.44	51.24	46.49	44.54	40.83	40.58	38.94	37.06	37.02	35.40	34.92	35.32	34.56	35.11	32.96	32.01	29.54	26.55	24.63	23.32	21.38	19.76	18.62	17.02	15.78	14.59	13.95	13.37	12.61	11.90	10.59	9.507	9.259	10.39	10.20	8.249	6.401	5.919	5.614	5.010	4.861	4.521	4.656	4.062	3.451	3.100	2.753	3.565	7.678	20.03	42.01	193.6	521.3	233.1	13.69	1.166	0.859	0.781	0.775	0.681	0.788
565.0	72.33	99.58	94.91	80.71	76.54	84.07	102.6	187.4	135.7	113.2	138.3	704.7	2966	488.6	61.99	53.46	48.51	43.72	39.67	37.40	34.95	34.05	33.80	32.35	31.35	30.25	29.59	29.43	30.24	30.07	28.48	27.44	25.65	22.78	20.95	19.72	18.02	17.29	15.57	15.01	13.86	12.69	12.08	11.36	11.00	9.911	9.636	8.675	8.089	7.812	8.963	7.797	6.017	5.244	4.804	4.242	4.304	4.179	4.040	3.835	3.493	3.000	2.616	2.642	3.395	6.210	11.07	46.17	222.1	499.6	180.4	6.241	0.922	0.871	0.735	0.629	0.751
570.0	75.70	92.35	88.10	66.20	64.53	71.29	77.64	134.6	156.9	102.7	101.9	234.4	1755	1738	105.2	44.33	39.69	35.92	33.17	29.82	28.80	27.40	27.08	25.83	25.56	24.98	24.55	23.92	24.45	24.29	23.25	22.01	20.34	18.58	17.23	16.17	15.00	14.14	13.02	12.34	11.28	10.64	9.923	9.277	8.855	8.131	7.937	7.296	6.377	6.203	6.473	6.857	6.117	4.913	4.202	3.839	3.634	3.326	3.359	3.424	3.305	2.816	2.364	2.164	2.281	2.886	3.974	11.65	52.46	190.2	339.6	150.2	15.48	1.203	0.770	0.672	0.664
575.0	74.08	87.10	86.85	61.74	56.30	57.38	60.61	87.76	154.1	109.1	85.13	111.0	508.8	2295	685.5	38.39	31.93	29.20	26.41	24.41	23.32	22.09	21.85	20.82	20.49	19.51	19.79	19.95	19.72	19.10	18.59	18.22	15.98	15.10	13.84	12.64	11.77	11.41	10.83	9.429	9.270	8.653	7.969	7.410	7.025	6.596	6.419	5.826	5.470	4.883	4.633	5.221	5.722	4.701	3.587	3.293	3.148	2.984	2.953	2.526	2.741	2.561	2.243	1.949	1.812	2.025	2.205	3.963	12.91	43.42	93.87	268.9	241.9	20.66	0.947	0.727	0.666
580.0	75.67	87.44	75.02	58.81	50.84	52.26	53.83	65.27	132.2	125.4	79.70	79.56	165.8	1428	1622	68.03	27.13	25.44	23.57	21.56	20.52	18.74	18.58	17.38	17.53	16.74	16.20	16.47	16.24	16.16	15.47	15.31	13.35	12.82	11.98	10.47	9.924	9.688	8.998	8.292	7.776	7.477	6.967	6.259	6.245	5.682	5.495	5.203	4.943	4.351	3.972	4.049	4.703	4.576	3.722	2.926	2.996	2.703	2.498	2.471	2.254	2.203	2.368	1.968	1.887	1.669	1.845	2.111	4.037	10.76	22.11	92.75	310.8	192.5	12.34	0.872	0.682
585.0	72.21	86.00	66.17	54.41	48.67	45.36	48.19	57.00	94.84	137.5	77.68	68.24	79.84	528.3	2161	265.4	24.73	22.74	19.72	18.36	17.60	16.59	15.91	16.10	14.90	14.36	14.29	14.74	13.38	13.27	13.54	12.41	11.85	10.81	10.14	9.189	8.906	8.167	7.683	7.063	6.324	6.774	6.007	5.475	5.225	5.407	4.948	4.461	4.001	3.691	3.551	3.188	3.735	4.071	3.899	2.992	2.728	2.703	2.255	2.285	1.993	2.017	2.251	1.966	1.703	1.638	1.594	1.562	1.888	3.340	6.091	21.98	123.8	306.3	127.4	4.823	0.709
590.0	72.53	74.27	65.85	49.40	42.92	40.69	45.35	47.91	66.25	127.8	93.27	61.75	57.36	157.4	1286	1112	53.35	19.45	16.06	15.30	14.73	13.74	13.24	13.07	12.89	11.87	12.39	11.45	11.30	11.07	11.15	9.987	9.714	8.793	8.429	7.437	7.034	6.870	6.356	5.725	5.350	5.373	5.040	4.593	4.554	4.367	4.034	3.841	3.421	3.143	3.061	2.800	2.791	3.255	3.511	2.970	2.430	2.217	1.899	2.009	1.835	1.744	1.784	1.834	1.783	1.471	1.438	1.367	1.314	1.593	2.112	5.677	29.06	111.4	206.3	120.2	13.91
595.0	63.73	69.10	59.29	43.28	37.24	37.62	37.20	42.50	50.93	88.03	112.4	60.63	48.78	64.40	358.6	1537	347.6	18.02	12.99	13.05	11.85	11.73	10.88	10.30	9.882	9.606	9.475	9.624	9.410	8.363	9.015	7.660	7.869	7.172	6.937	6.010	5.901	5.524	5.230	4.788	4.588	4.323	3.924	3.759	3.793	3.635	3.083	3.150	2.720	2.667	2.361	2.449	2.098	2.381	2.772	2.807	2.453	1.984	1.670	1.703	1.560	1.508	1.443	1.511	1.758	1.579	1.196	1.163	1.044	1.119	1.228	1.985	7.229	25.39	55.91	162.4	160.1
600.0	61.35	71.27	59.11	42.63	35.75	31.80	31.79	40.23	45.62	63.40	113.4	66.39	45.97	39.43	102.8	1006	853.6	30.97	11.68	11.24	9.660	9.742	9.141	8.947	8.435	8.525	7.819	8.208	7.746	7.168	7.698	6.905	6.741	6.047	5.912	5.234	5.125	4.847	4.309	4.090	3.961	3.756	3.377	3.271	3.184	3.118	3.008	2.540	2.431	2.258	2.193	2.109	1.932	1.971	2.101	2.591	2.399	1.966	1.539	1.608	1.361	1.371	1.244	1.290	1.540	1.704	1.179	1.048	1.129	0.984	0.963	1.158	2.255	6.204	13.23	54.47	185.1
605.0	64.14	68.38	57.40	44.03	32.56	31.29	31.14	35.08	41.80	51.86	97.69	81.33	45.33	34.96	42.28	384.2	1321	91.21	11.27	9.996	8.586	8.045	7.843	7.602	7.556	7.209	6.839	6.955	6.378	6.609	6.358	6.133	5.505	5.369	5.072	4.752	4.281	4.207	3.604	3.536	3.322	3.210	2.948	2.741	2.740	2.771	2.570	2.256	2.227	2.124	1.708	1.895	1.652	1.794	1.636	2.202	2.202	2.124	1.463	1.517	1.193	1.336	1.212	1.168	1.200	1.398	1.303	1.122	1.087	0.993	0.866	0.849	1.150	2.089	3.473	12.94	72.88
610.0	59.20	61.92	51.32	39.18	30.24	28.81	30.15	33.36	39.53	45.92	72.35	93.82	49.95	33.31	27.81	106.2	878.7	614.2	25.00	8.439	7.723	7.001	6.674	6.170	5.978	5.832	5.839	5.670	5.355	5.403	5.227	4.921	4.675	4.295	4.122	3.822	3.639	3.345	2.921	2.988	2.730	2.636	2.471	2.446	2.316	2.178	2.047	1.896	1.883	1.650	1.540	1.628	1.433	1.443	1.367	1.627	1.785	1.966	1.495	1.361	1.146	1.086	1.111	1.066	1.117	1.082	1.278	1.117	0.974	0.774	0.856	0.784	0.842	1.006	1.274	3.334	17.18
615.0	55.85	55.65	52.19	37.63	28.27	25.96	28.91	32.54	34.41	41.06	54.27	90.65	60.34	32.74	23.60	36.43	255.1	1025	90.93	7.377	6.153	5.688	5.370	5.193	5.058	4.731	4.977	4.728	4.726	4.336	4.205	4.281	3.971	3.455	3.440	3.063	2.868	2.859	2.520	2.506	2.305	2.130	1.952	2.110	1.755	1.725	1.696	1.580	1.491	1.409	1.211	1.372	1.217	1.161	1.218	1.297	1.322	1.642	1.350	1.356	1.013	0.915	0.975	0.816	0.927	0.851	1.011	0.939	1.016	0.827	0.856	0.669	0.672	0.699	0.802	1.206	4.300
620.0	51.27	57.11	46.69	32.68	27.12	24.57	28.06	29.45	34.02	38.84	47.98	75.20	75.57	32.42	21.58	18.89	70.36	740.1	542.3	13.39	5.513	5.156	4.384	4.825	4.477	4.106	4.157	4.189	3.935	3.781	3.496	3.483	3.410	3.017	2.983	2.731	2.474	2.293	2.143	2.161	2.025	1.676	1.841	1.634	1.448	1.454	1.378	1.532	1.229	1.344	1.205	1.111	1.107	1.050	1.065	1.171	1.123	1.314	1.287	1.285	0.991	0.897	0.839	0.773	0.810	0.779	0.872	0.818	0.935	0.988	0.743	0.625	0.535	0.574	0.631	0.706	1.379
625.0	51.33	47.08	46.33	34.67	26.66	27.48	26.00	30.34	34.43	38.08	45.66	57.26	79.28	37.29	20.91	15.90	26.40	303.1	896.5	55.71	5.681	4.487	4.016	4.104	4.014	3.704	3.431	3.547	3.435	3.306	3.046	3.075	2.616	2.434	2.496	2.353	2.104	2.014	1.941	1.858	1.664	1.532	1.578	1.314	1.378	1.419	1.315	1.285	1.156	1.085	1.194	1.033	0.935	0.982	0.958	0.944	1.028	0.991	1.234	1.356	0.970	0.863	0.739	0.780	0.744	0.706	0.740	0.785	0.846	0.962	0.807	0.653	0.555	0.594	0.617	0.623	0.762
630.0	49.07	51.40	40.66	31.41	24.33	24.31	25.36	26.43	30.73	35.85	42.01	46.33	69.71	49.72	23.09	15.53	15.51	81.77	662.7	418.3	12.09	4.208	3.683	3.355	3.193	3.168	2.816	3.023	2.944	2.745	2.588	2.431	2.204	2.185	1.930	1.925	1.800	1.643	1.617	1.485	1.481	1.319	1.321	1.332	1.179	1.236	1.161	1.129	1.009	0.923	0.937	0.877	0.831	0.867	0.853	0.810	0.853	0.799	0.917	1.131	0.933	0.837	0.771	0.633	0.670	0.714	0.633	0.742	0.697	0.913	0.838	0.656	0.557	0.589	0.557	0.525	0.532
635.0	46.68	49.30	42.57	33.09	21.48	21.38	24.55	25.15	29.76	35.06	40.58	42.48	50.81	61.41	25.53	15.46	12.44	25.19	203.3	749.3	67.97	3.805	3.217	3.033	2.964	2.811	2.430	2.562	2.478	2.257	2.159	2.195	1.867	1.797	1.639	1.655	1.649	1.561	1.373	1.154	1.169	1.089	1.030	1.073	0.901	1.080	0.986	0.858	0.824	0.734	0.793	0.799	0.774	0.715	0.715	0.724	0.776	0.717	0.652	0.904	0.901	0.874	0.821	0.627	0.707	0.609	0.653	0.614	0.673	0.745	0.789	0.739	0.568	0.543	0.533	0.500	0.481
640.0	42.03	48.10	41.97	31.95	22.78	21.33	24.20	27.91	29.63	33.58	38.96	39.85	42.48	59.88	31.95	15.70	12.02	12.39	54.72	601.1	338.5	6.193	3.193	2.863	2.638	2.609	2.261	2.065	2.198	2.073	2.009	1.884	1.610	1.629	1.595	1.395	1.396	1.293	1.184	1.230	1.227	1.215	0.978	1.012	0.913	0.926	0.856	0.845	0.797	0.742	0.741	0.663	0.656	0.730	0.623	0.617	0.745	0.667	0.673	0.705	0.864	0.851	0.808	0.676	0.663	0.511	0.576	0.668	0.573	0.639	0.721	0.664	0.673	0.523	0.540	0.444	0.459
645.0	43.69	53.93	46.16	30.27	23.59	19.78	24.57	25.39	27.39	33.38	36.59	39.62	39.16	51.54	41.33	17.16	11.82	9.748	17.78	273.7	619.2	31.74	3.030	2.532	2.424	2.111	2.030	1.878	1.904	1.746	1.764	1.526	1.610	1.293	1.418	1.176	1.111	1.004	0.978	1.045	0.940	0.992	0.899	0.936	0.839	0.779	0.772	0.799	0.631	0.604	0.687	0.650	0.616	0.572	0.569	0.595	0.669	0.670	0.624	0.608	0.689	0.775	0.791	0.677	0.565	0.517	0.572	0.560	0.625	0.562	0.609	0.572	0.698	0.621	0.618	0.498	0.531
650.0	47.99	50.03	45.96	35.26	23.77	20.19	22.92	25.77	27.39	32.39	38.33	38.89	37.37	43.96	46.36	18.67	11.95	9.298	9.329	83.15	655.1	153.8	3.266	2.495	2.274	2.003	1.793	1.754	1.703	1.590	1.737	1.362	1.564	1.245	1.188	1.152	1.031	0.955	0.964	0.943	0.863	0.822	0.907	0.873	0.759	0.654	0.651	0.736	0.723	0.582	0.586	0.632	0.555	0.581	0.573	0.584	0.577	0.634	0.621	0.544	0.652	0.628	0.769	0.649	0.531	0.562	0.565	0.515	0.565	0.539	0.530	0.575	0.598	0.648	0.547	0.467	0.550
