Sample:	'1
File name:	W112802—’«≈¥Â«≈2±∂.FD3
Run date:	'09:34:44, 11/29/2024
Operator:	Administrator
Comment:	'

Instrument
Model:	F-2700 FL Spectrophotometer
Serial number:	23B8-004
ROM Version:	4J14000 07

Instrument parameters
Measurement type:	3-D scan
Data mode:	Fluorescence
EX  Start WL:	220.0 nm
EX  End WL:	600.0 nm
EX Sampling interval:	5.0 nm
EM  Start WL:	230.0 nm
EM  End WL:	650.0 nm
EM Sampling interval:	5.0 nm
Scan speed:	12000 nm/min
EX Slit:	5.0 nm
EM Slit:	5.0 nm
PMT Voltage:	700 V
Response:	Auto 
Corrected spectra:	Off
Contour interval:	50.000

Peak integration
Integration method:	Rectangular
Sensitivity:	1
Threshold:	1.000

Peaks
No.	ApexEX/EM(nm)	Height(Data)
1	225.0/340.0	3651
2	225.0/585.0	94.05
3	225.0/605.0	74.69
4	225.0/625.0	70.03
5	230.0/345.0	3706
6	230.0/595.0	85.37
7	240.0/265.0	401.1
8	245.0/270.0	397.6
9	250.0/275.0	548.0
10	255.0/285.0	664.9
11	260.0/575.0	181.6
12	265.0/585.0	158.8
13	270.0/600.0	154.5
14	275.0/310.0	2231
15	275.0/335.0	2569
16	275.0/415.0	5491
17	275.0/435.0	5205
18	275.0/615.0	158.6
19	280.0/625.0	131.2
20	285.0/640.0	100.4
21	355.0/415.0	3930
22	355.0/435.0	3805
23	455.0/340.0	8.300
24	485.0/265.0	1.661
25	495.0/270.0	1.793
26	505.0/275.0	2.642
27	510.0/280.0	3.139
28	515.0/285.0	3.462
29	550.0/305.0	9.902
30	560.0/330.0	11.38
31	570.0/335.0	11.45
32	580.0/415.0	20.85

Data points
	220.0	225.0	230.0	235.0	240.0	245.0	250.0	255.0	260.0	265.0	270.0	275.0	280.0	285.0	290.0	295.0	300.0	305.0	310.0	315.0	320.0	325.0	330.0	335.0	340.0	345.0	350.0	355.0	360.0	365.0	370.0	375.0	380.0	385.0	390.0	395.0	400.0	405.0	410.0	415.0	420.0	425.0	430.0	435.0	440.0	445.0	450.0	455.0	460.0	465.0	470.0	475.0	480.0	485.0	490.0	495.0	500.0	505.0	510.0	515.0	520.0	525.0	530.0	535.0	540.0	545.0	550.0	555.0	560.0	565.0	570.0	575.0	580.0	585.0	590.0	595.0	600.0
230.0	52.18	1064	1718	356.0	10.03	3.618	2.999	2.891	2.940	3.011	2.758	2.725	2.570	2.407	1.836	1.673	1.394	1.177	1.009	1.005	1.029	0.917	1.010	0.921	0.940	0.966	0.926	0.873	0.896	0.864	0.779	0.629	0.506	0.510	0.371	0.366	0.297	0.228	0.179	0.146	0.155	0.262	0.196	0.147	0.122	0.169	1.376	4.335	5.430	2.767	0.732	0.143	0.084	0.083	0.069	0.057	0.060	0.056	0.040	0.042	0.043	0.052	0.040	0.033	0.030	0.036	0.029	0.027	0.035	0.031	0.040	0.036	0.036	0.030	0.055	0.021	0.032
235.0	81.05	315.2	1495	1874	415.3	15.60	3.950	3.212	3.179	3.312	2.792	2.652	3.075	2.380	1.571	1.524	1.482	1.269	1.100	1.056	1.027	1.007	1.088	1.048	1.023	0.974	0.908	0.851	0.946	0.777	0.791	0.602	0.460	0.406	0.353	0.360	0.264	0.199	0.125	0.112	0.130	0.175	0.188	0.372	0.270	0.141	0.364	1.268	2.895	5.060	6.172	4.998	1.568	0.237	0.071	0.068	0.060	0.047	0.042	0.052	0.046	0.038	0.057	0.046	0.055	0.081	0.057	0.023	0.033	0.034	0.053	0.027	0.034	0.028	0.032	0.016	0.045
240.0	149.2	145.9	502.6	2124	1973	304.5	9.728	3.340	4.211	3.940	3.278	3.404	3.106	2.539	2.051	1.516	1.430	1.176	1.020	1.090	0.970	0.907	0.973	1.055	0.880	0.889	0.885	0.937	0.886	0.789	0.776	0.681	0.492	0.377	0.495	0.319	0.327	0.224	0.181	0.147	0.152	0.141	0.145	0.251	0.343	0.286	0.301	0.402	0.763	1.756	4.777	9.325	8.881	4.780	1.055	0.149	0.079	0.049	0.041	0.049	0.083	0.038	0.046	0.047	0.052	0.051	0.022	0.030	0.045	0.025	0.042	0.029	0.043	0.033	0.017	0.013	0.035
245.0	125.6	193.1	164.2	860.2	2813	1834	179.7	4.662	3.866	3.455	3.227	3.036	2.945	2.561	2.051	1.852	1.457	1.269	1.236	1.225	0.918	1.108	0.984	0.883	0.852	1.069	1.032	0.999	0.817	0.865	0.698	0.720	0.487	0.347	0.466	0.299	0.261	0.201	0.180	0.188	0.123	0.132	0.134	0.170	0.209	0.484	0.553	0.394	0.282	0.474	1.274	4.128	8.734	12.92	9.732	3.800	0.713	0.109	0.081	0.099	0.073	0.063	0.027	0.049	0.062	0.057	0.039	0.042	0.027	0.046	0.030	0.023	0.064	0.027	0.016	0.034	0.014
250.0	46.50	158.6	241.9	272.8	1017	2600	2568	234.2	20.90	5.191	3.832	4.091	3.113	3.021	2.384	2.057	1.678	1.365	1.230	1.119	1.085	1.049	1.015	1.153	0.866	1.115	0.960	1.052	1.032	0.811	0.746	0.649	0.607	0.419	0.427	0.335	0.243	0.196	0.196	0.179	0.130	0.123	0.124	0.115	0.139	0.244	0.369	0.561	0.646	0.574	0.499	1.053	2.294	4.957	8.424	11.85	13.59	9.946	4.278	0.753	0.097	0.079	0.041	0.054	0.067	0.060	0.046	0.040	0.048	0.031	0.033	0.032	0.043	0.042	0.045	0.029	0.024
255.0	21.55	51.05	207.5	328.5	294.0	711.3	2843	3029	301.5	18.30	6.429	5.120	4.308	3.453	2.938	2.021	1.706	1.483	1.524	1.221	1.185	1.090	1.222	1.088	0.989	1.190	1.048	0.999	1.086	0.791	0.843	0.717	0.583	0.535	0.427	0.388	0.297	0.212	0.169	0.186	0.164	0.127	0.136	0.189	0.115	0.150	0.166	0.214	0.343	0.813	1.038	0.985	0.743	1.211	2.032	3.064	6.633	14.90	22.18	16.61	5.838	0.756	0.075	0.063	0.069	0.082	0.057	0.063	0.059	0.043	0.052	0.025	0.046	0.045	0.026	0.044	0.067
260.0	13.08	22.94	83.73	320.9	295.6	199.0	960.1	4164	2556	226.2	11.11	7.352	5.215	4.205	2.883	2.249	2.003	1.522	1.629	1.523	1.301	1.066	1.340	1.057	1.349	1.258	0.972	1.038	1.038	0.893	0.822	0.807	0.614	0.474	0.405	0.331	0.291	0.221	0.155	0.190	0.194	0.133	0.145	0.132	0.117	0.144	0.138	0.132	0.140	0.306	0.825	1.481	1.175	0.658	0.655	0.807	1.666	4.425	11.98	23.47	26.61	15.66	3.983	0.391	0.111	0.105	0.087	0.049	0.040	0.038	0.067	0.042	0.050	0.034	0.037	0.050	0.052
265.0	13.05	14.70	28.30	159.3	401.1	205.3	252.9	1630	5433	2122	152.2	8.878	5.927	4.751	2.792	2.836	2.170	1.747	1.614	1.375	1.343	1.127	1.226	1.177	1.215	1.172	1.200	1.075	1.014	0.988	1.010	0.745	0.601	0.597	0.425	0.422	0.323	0.273	0.200	0.224	0.179	0.133	0.184	0.149	0.136	0.126	0.105	0.148	0.119	0.157	0.272	0.809	1.592	1.661	0.875	0.444	0.508	1.166	2.937	7.657	18.63	30.43	26.82	12.50	1.931	0.167	0.078	0.094	0.081	0.040	0.098	0.060	0.049	0.048	0.049	0.070	0.058
270.0	31.85	30.15	25.09	57.81	222.9	397.6	252.4	419.4	1967	4853	4476	658.4	22.18	5.850	4.284	3.289	2.428	1.933	1.586	1.584	1.497	1.344	1.329	1.173	1.260	1.263	1.218	1.148	1.060	1.031	0.961	0.787	0.641	0.603	0.474	0.462	0.304	0.344	0.250	0.228	0.238	0.160	0.169	0.162	0.167	0.172	0.169	0.185	0.156	0.143	0.161	0.317	0.625	1.073	1.494	1.793	1.305	0.766	0.848	1.912	4.558	9.510	16.74	25.10	27.10	19.40	10.16	2.125	0.228	0.077	0.102	0.059	0.064	0.083	0.070	0.100	0.069
275.0	88.30	95.22	58.31	53.80	85.20	232.6	548.0	293.7	497.7	1324	5103	7159	178.7	17.87	6.142	4.830	2.868	2.305	1.948	1.432	1.583	1.727	1.343	1.371	1.399	1.259	1.266	1.113	1.172	1.082	0.996	0.856	0.774	0.663	0.566	0.500	0.456	0.319	0.233	0.226	0.252	0.262	0.248	0.208	0.302	0.316	0.298	0.244	0.274	0.206	0.187	0.309	0.276	0.438	0.555	0.994	2.237	2.642	1.649	0.933	1.351	2.376	4.116	6.102	9.281	21.01	39.71	29.41	14.72	1.963	0.206	0.134	0.118	0.070	0.083	0.128	0.054
280.0	155.8	168.6	136.9	91.38	76.33	131.4	434.5	588.8	271.2	420.5	1679	7386	5961	136.1	10.81	5.583	3.750	2.883	2.272	1.741	1.764	1.671	1.573	1.370	1.244	1.350	1.282	1.338	1.238	1.100	1.139	0.830	0.791	0.745	0.710	0.579	0.469	0.444	0.351	0.355	0.265	0.244	0.303	0.248	0.312	0.420	0.415	0.484	0.410	0.395	0.283	0.331	0.272	0.325	0.424	0.492	1.089	2.201	3.139	2.503	1.223	0.984	1.400	1.912	2.694	5.800	15.57	31.60	45.02	26.57	9.479	0.823	0.175	0.081	0.107	0.122	0.078
285.0	243.3	286.3	260.8	170.6	119.1	134.3	246.7	664.9	379.3	301.7	594.9	2708	8405	4515	92.96	8.058	5.077	3.454	2.595	2.161	2.133	1.567	1.653	1.448	1.474	1.177	1.188	1.278	1.238	1.223	1.190	1.020	0.950	0.791	0.776	0.762	0.604	0.598	0.440	0.415	0.368	0.290	0.392	0.390	0.500	0.624	0.753	0.719	0.757	0.552	0.412	0.464	0.435	0.520	0.508	0.513	0.900	1.048	2.165	3.462	3.394	2.058	1.239	1.264	1.536	2.271	4.465	9.261	21.79	39.95	34.85	22.10	5.038	0.426	0.218	0.115	0.143
290.0	424.2	521.9	451.9	290.3	191.8	184.8	230.3	412.4	747.7	761.0	600.6	1032	2970	6140	3999	395.5	17.12	5.432	3.327	2.584	2.446	2.001	1.620	1.609	1.652	1.485	1.380	1.436	1.371	1.259	1.177	1.025	1.037	0.928	0.848	0.959	0.826	0.791	0.554	0.590	0.446	0.485	0.545	0.613	0.693	0.884	1.113	1.181	1.143	0.911	0.808	0.824	0.705	0.709	0.723	0.760	0.947	0.974	1.348	1.962	2.663	3.490	4.075	3.207	2.436	2.288	2.754	3.922	6.721	11.87	17.75	28.22	30.10	29.26	14.89	4.836	0.513
295.0	603.4	760.0	659.4	431.9	287.9	261.2	305.0	384.7	593.8	1157	1155	912.5	1189	1760	4249	6000	521.1	14.53	5.356	3.475	2.641	2.130	1.910	1.926	1.828	1.598	1.642	1.340	1.379	1.386	1.050	1.211	0.954	1.211	1.125	1.147	0.966	0.911	0.683	0.630	0.707	0.673	0.771	0.793	0.974	1.196	1.499	1.634	1.590	1.281	1.230	1.145	1.033	0.946	0.961	1.056	1.171	1.283	1.378	1.656	2.141	2.482	3.558	5.344	6.121	4.759	3.817	3.834	4.351	5.243	5.962	7.808	9.025	17.68	34.61	35.25	22.15
300.0	711.0	883.8	793.1	526.9	368.8	339.4	397.8	457.3	649.8	1084	1703	1283	1005	826.1	1408	5613	4866	81.96	9.262	4.897	3.153	2.684	2.572	2.154	1.995	1.907	1.654	1.513	1.525	1.672	1.176	1.168	1.164	1.084	1.246	1.173	1.217	0.898	0.865	0.645	0.748	0.746	0.899	0.880	1.191	1.482	1.743	1.852	1.832	1.496	1.481	1.435	1.203	1.145	1.127	1.341	1.458	1.698	1.780	2.089	2.533	2.589	3.240	4.648	6.354	7.721	6.844	5.131	4.896	4.690	4.218	4.092	3.702	5.313	11.67	24.76	42.52
305.0	833.4	1017	930.8	633.4	479.6	432.1	520.2	657.4	868.7	1231	1881	1901	1354	883.2	763.1	2018	6146	3630	61.77	6.936	4.395	3.352	2.566	2.443	2.200	1.959	1.720	1.427	1.489	1.371	1.356	1.103	1.252	1.302	1.264	1.274	1.128	1.012	1.055	0.866	0.730	0.729	0.907	1.135	1.400	1.803	1.988	2.189	2.327	1.779	1.635	1.642	1.557	1.559	1.611	1.640	1.795	2.029	2.586	3.063	3.299	3.735	4.310	5.529	6.423	8.127	9.902	9.353	7.298	5.923	5.543	4.330	3.637	3.736	4.341	7.540	16.33
310.0	928.4	1178	1068	739.0	561.9	545.2	656.7	822.3	1062	1413	1854	2231	2024	1209	815.3	848.4	2174	4229	3683	284.6	14.55	4.525	3.361	2.820	2.296	2.111	2.126	1.784	1.737	1.499	1.398	1.252	1.211	1.287	1.310	1.237	1.206	1.036	1.061	0.851	0.929	0.888	1.101	1.181	1.558	1.888	2.196	2.711	2.500	2.063	1.903	2.053	1.832	1.740	1.997	1.962	2.295	2.637	2.901	3.503	3.974	4.527	5.489	6.164	6.947	7.941	8.743	9.783	10.22	9.639	7.908	5.733	4.919	4.314	3.751	4.040	5.751
315.0	1136	1406	1231	823.5	641.2	618.5	757.5	937.9	1191	1553	1917	2154	2211	1799	1043	721.2	892.0	1205	2929	4262	412.2	12.18	4.808	3.595	2.938	2.311	2.212	2.181	1.894	1.799	1.525	1.208	1.242	1.202	1.343	1.265	1.131	1.026	1.153	0.965	1.106	1.010	1.305	1.332	1.880	2.423	2.791	3.030	2.904	2.197	2.207	2.135	2.042	2.192	2.153	2.271	2.708	3.203	3.319	4.034	4.453	4.853	5.833	6.579	6.921	8.543	8.547	9.122	9.504	9.988	10.36	9.405	6.949	5.660	4.676	4.011	3.958
320.0	1405	1907	1507	961.1	714.6	683.9	829.3	1050	1309	1700	2074	2296	2237	2125	1475	848.2	700.5	529.2	890.0	3600	3619	62.66	8.472	4.642	3.367	3.222	2.608	2.510	2.404	1.816	1.700	1.535	1.242	1.229	1.434	1.290	1.207	1.126	1.072	1.048	1.138	1.204	1.408	1.864	2.584	3.128	3.661	3.817	3.700	2.748	2.490	2.554	2.177	2.375	2.492	2.632	3.001	3.347	3.790	4.211	4.454	5.550	6.175	7.002	7.886	8.932	9.712	9.806	10.07	10.33	9.912	10.41	10.21	8.332	6.165	4.506	4.088
325.0	1851	2401	2103	1302	835.7	757.3	904.6	1121	1390	1797	2193	2423	2323	2117	1832	1096	730.8	430.9	345.6	1181	3974	2810	51.94	7.358	3.846	3.394	2.763	2.700	2.418	2.060	1.802	1.482	1.241	1.409	1.225	1.370	1.216	1.200	1.056	1.133	1.135	1.363	1.608	2.212	2.745	3.753	4.863	5.173	5.046	4.153	3.349	3.445	2.941	2.616	2.718	2.871	3.359	3.623	4.017	4.665	5.148	5.600	6.703	7.506	8.322	9.730	9.883	10.36	10.78	11.05	10.12	9.819	10.37	10.41	8.187	6.452	4.862
330.0	2267	3112	2847	1965	1204	909.2	977.8	1185	1467	1863	2283	2536	2450	2160	1823	1437	936.7	505.3	316.5	433.6	1294	2869	2806	236.8	16.86	4.612	3.447	2.939	2.447	2.315	1.949	1.564	1.463	1.384	1.370	1.350	1.263	1.141	1.021	1.121	1.136	1.312	1.842	2.333	3.567	4.839	5.754	6.890	6.774	5.717	5.151	4.999	4.223	3.684	3.330	3.139	3.581	3.898	4.381	4.869	5.273	5.968	7.103	7.883	8.744	9.678	10.10	10.49	11.38	11.11	10.70	10.27	9.659	9.574	9.085	8.420	7.837
335.0	2505	3469	3367	2510	1648	1161	1061	1260	1532	1923	2337	2569	2527	2246	1837	1465	1244	719.1	438.2	395.2	521.9	857.8	2168	3431	372.5	16.90	4.677	3.648	2.925	2.469	2.131	1.891	1.419	1.530	1.413	1.359	1.426	1.041	1.028	1.118	1.255	1.507	1.867	2.389	3.680	5.207	6.573	7.701	7.740	6.843	6.468	6.798	5.712	4.770	4.213	3.730	4.044	4.162	4.616	4.928	5.802	6.509	7.225	7.908	9.087	9.658	10.47	10.36	11.17	11.26	11.45	11.12	10.28	9.359	8.384	8.259	8.307
340.0	2508	3651	3631	2811	1837	1292	1120	1286	1540	1941	2302	2548	2523	2288	1875	1453	1259	962.4	563.1	454.9	417.4	432.8	775.7	2792	3011	288.1	9.070	4.552	3.438	2.577	2.562	1.911	1.660	1.744	1.623	1.354	1.285	1.295	1.214	1.242	1.291	1.620	2.011	2.742	3.802	5.466	6.677	8.300	8.285	7.709	6.892	7.825	6.442	5.169	4.504	3.662	4.390	4.360	4.963	5.126	5.809	6.632	7.070	8.147	9.075	9.729	10.31	10.40	10.70	11.28	11.38	11.17	10.72	9.882	8.860	8.117	7.678
345.0	2393	3644	3706	2911	1951	1332	1169	1294	1561	1896	2247	2475	2461	2258	1864	1453	1184	1061	710.7	540.9	461.1	401.8	415.3	995.6	3109	2391	48.34	6.457	4.080	2.966	2.695	2.020	1.655	1.480	1.423	1.306	1.309	1.151	1.132	1.217	1.331	1.576	1.936	2.673	3.880	5.390	6.331	8.198	8.170	7.732	7.232	8.118	6.692	5.734	4.761	4.083	4.593	4.465	4.620	5.115	5.860	6.399	6.955	8.381	8.931	9.273	9.806	10.23	10.42	10.97	10.88	10.77	10.43	9.829	9.046	8.180	7.356
350.0	2222	3302	3484	2869	2013	1428	1237	1326	1538	1835	2134	2336	2319	2158	1822	1478	1201	1038	956.2	767.0	601.4	503.8	430.4	462.0	1053	2253	2201	212.0	15.36	4.211	2.971	2.350	1.868	1.564	1.418	1.390	1.215	1.198	1.098	1.217	1.189	1.452	1.977	2.396	3.549	4.810	5.829	7.434	7.725	7.218	7.107	7.802	6.617	5.961	4.920	4.380	4.699	4.948	4.959	5.405	5.796	6.385	7.016	7.744	8.608	8.848	9.341	9.532	10.21	10.18	10.18	10.51	10.33	9.619	8.790	8.274	7.916
355.0	2021	2961	3185	2740	2039	1504	1324	1380	1549	1783	2035	2190	2201	2066	1803	1520	1294	1116	1030	1031	846.3	665.3	540.9	435.8	456.0	661.4	1611	2664	336.0	15.01	4.369	2.885	1.830	1.592	1.535	1.340	1.270	1.189	1.065	1.082	1.129	1.414	1.820	2.316	3.381	4.382	5.286	6.409	7.144	6.647	6.741	7.591	6.647	6.252	5.069	4.561	4.845	5.389	5.272	5.734	5.652	6.237	7.012	7.658	8.302	8.413	9.031	9.261	9.806	9.523	9.785	10.10	9.814	9.555	9.003	8.244	8.466
360.0	1879	2737	2993	2654	2024	1556	1375	1418	1563	1755	1977	2109	2112	2006	1783	1556	1361	1216	1135	1122	1081	844.8	670.8	510.6	396.8	331.7	529.8	2100	2435	264.2	9.124	4.120	2.402	1.757	1.548	1.288	1.345	1.203	1.235	1.089	1.252	1.344	1.566	2.212	3.073	3.874	5.082	6.037	6.374	6.230	6.424	7.307	6.788	6.021	5.233	4.909	4.806	5.247	5.418	5.795	5.849	6.165	6.782	7.567	7.619	8.106	8.371	8.711	9.158	9.113	9.830	9.875	9.438	9.549	9.225	8.543	8.393
365.0	1814	2509	2806	2569	2044	1611	1457	1505	1609	1790	1936	2029	2022	1946	1769	1589	1445	1333	1266	1217	1224	1081	829.4	635.5	475.4	333.2	277.0	724.8	2489	2021	45.52	6.582	3.301	2.264	1.652	1.532	1.367	1.225	1.313	1.132	1.241	1.405	1.584	2.187	2.918	3.879	4.563	5.674	6.268	6.050	6.264	7.045	6.598	6.188	5.469	5.198	5.321	5.401	5.722	6.088	6.433	6.235	7.102	7.668	7.827	7.620	8.094	8.496	8.693	9.120	9.253	9.475	9.065	9.024	8.884	8.754	8.962
370.0	1736	2354	2618	2497	2105	1735	1598	1647	1729	1862	1937	1960	1964	1907	1780	1645	1556	1498	1451	1402	1354	1314	1121	850.7	643.0	462.6	322.5	339.8	838.8	1921	1907	191.7	14.57	4.132	2.497	1.904	1.511	1.331	1.323	1.184	1.238	1.429	1.679	2.141	2.691	3.585	4.301	5.687	6.017	5.823	5.789	7.246	6.748	6.440	6.016	5.583	5.969	5.941	6.363	6.495	6.704	7.121	7.575	7.841	7.859	7.652	7.936	8.068	8.359	8.830	8.871	9.174	9.115	9.142	8.857	9.143	9.212
375.0	1621	2213	2470	2469	2171	1825	1723	1742	1813	1891	1924	1918	1905	1872	1770	1673	1629	1621	1605	1580	1518	1438	1359	1133	842.1	636.8	455.1	368.3	393.8	589.1	1424	2232	288.0	16.33	4.589	2.866	1.901	1.546	1.325	1.286	1.285	1.565	1.664	2.052	2.615	3.244	4.157	5.097	5.600	5.289	5.640	7.204	6.974	6.806	6.425	6.014	6.453	6.098	6.816	6.804	6.898	7.289	7.698	7.944	7.496	7.631	7.697	7.914	8.453	8.737	8.759	8.900	9.050	9.232	9.026	9.171	9.614
380.0	1587	2166	2401	2365	2144	1903	1768	1811	1845	1913	1904	1879	1869	1852	1768	1694	1674	1680	1692	1682	1634	1555	1463	1333	1049	796.7	612.7	463.1	384.3	342.8	520.4	1802	1928	214.8	10.01	5.011	2.946	1.900	1.470	1.295	1.449	1.533	1.605	1.931	2.749	3.154	3.863	4.954	5.212	5.240	5.564	6.892	6.647	6.845	6.730	6.411	6.508	6.720	6.894	7.199	7.001	7.311	7.822	7.578	8.087	7.848	7.900	7.748	8.312	8.274	8.849	8.730	8.886	9.211	9.303	9.152	9.566
385.0	1524	2077	2373	2374	2169	1973	1844	1876	1911	1950	1929	1890	1866	1858	1779	1711	1706	1732	1757	1766	1737	1664	1552	1447	1264	981.3	779.4	624.6	469.9	380.6	335.3	675.4	1953	1495	38.29	11.18	5.804	3.088	1.841	1.554	1.471	1.696	1.740	2.037	2.573	3.334	3.720	4.793	5.217	5.150	5.398	7.044	6.767	6.995	6.722	6.477	7.133	7.068	7.031	7.124	7.479	7.588	7.634	8.041	8.074	7.576	7.656	7.835	8.127	8.336	8.844	8.531	8.799	9.264	9.213	9.276	9.676
390.0	1568	2070	2388	2434	2279	2125	2058	2082	2092	2128	2090	2029	2020	2002	1900	1809	1780	1802	1847	1886	1880	1844	1760	1648	1540	1356	1116	942.3	786.3	635.4	492.2	429.1	741.7	1453	1387	155.6	22.29	9.434	3.920	2.202	1.519	1.853	1.903	2.128	2.635	3.374	3.763	4.775	5.212	5.129	5.595	7.002	7.052	7.272	6.912	6.865	7.421	7.552	7.809	7.904	8.074	8.125	8.561	8.553	8.365	8.238	7.833	8.411	8.632	8.667	9.265	9.269	9.207	9.893	9.527	9.622	10.19
395.0	1659	2182	2520	2600	2472	2428	2402	2411	2460	2565	2555	2532	2478	2413	2261	2057	1936	1922	1966	2030	2082	2113	2088	2031	1944	1860	1707	1499	1327	1133	915.3	700.4	580.8	614.6	1142	1673	254.5	31.71	11.53	4.378	2.533	1.790	2.217	2.416	2.879	3.631	3.959	4.867	5.318	5.164	5.915	7.528	7.483	7.478	7.777	7.701	8.580	8.484	9.053	9.260	9.111	9.399	9.443	9.776	10.06	9.391	9.305	9.948	10.02	10.28	11.48	11.10	10.98	11.05	10.78	10.94	11.43
400.0	1840	2329	2655	2816	2764	2756	2782	2806	2933	3162	3254	3271	3188	3039	2761	2409	2151	2060	2096	2198	2284	2379	2432	2453	2437	2376	2349	2165	1958	1734	1467	1134	835.5	643.7	672.4	1485	1502	206.9	26.88	8.505	3.693	2.554	2.684	2.637	3.243	4.039	4.074	5.257	5.684	5.658	6.150	8.103	8.166	8.569	8.440	8.851	9.490	9.853	10.26	10.34	10.54	10.96	11.51	11.51	11.99	11.26	12.12	12.42	12.08	13.20	13.12	13.24	13.40	13.06	13.10	12.47	12.51
405.0	1952	2569	2870	3108	3198	3188	3276	3341	3586	3943	4176	4238	4123	3847	3404	2875	2445	2240	2264	2376	2536	2696	2836	2948	3010	3011	3029	2956	2729	2485	2138	1712	1268	934.0	746.6	860.0	1615	1186	137.8	14.87	5.735	3.369	2.866	3.075	3.521	4.164	4.416	5.483	5.950	5.916	6.621	8.348	8.738	9.434	9.647	10.27	10.78	11.36	11.67	11.31	12.00	12.88	13.24	14.46	14.96	14.60	14.72	15.85	15.83	16.36	16.27	17.06	16.43	16.29	15.35	15.56	15.10
410.0	2126	2682	3147	3434	3567	3662	3776	3928	4253	4767	5147	5260	5083	4702	4096	3351	2736	2423	2403	2545	2749	2985	3222	3448	3598	3671	3733	3734	3580	3273	2872	2345	1765	1312	1017	827.8	861.1	1201	1064	146.3	14.06	4.960	3.790	3.404	3.852	4.526	4.613	5.768	6.371	6.457	7.048	8.990	9.928	10.06	10.53	10.85	12.16	12.82	12.86	13.20	14.14	14.97	15.45	16.50	17.51	17.77	18.43	18.98	19.11	19.71	19.68	20.10	20.00	19.39	17.97	17.03	16.67
415.0	2202	2673	3169	3442	3650	3782	3911	4065	4396	4930	5361	5491	5292	4873	4222	3435	2753	2412	2363	2510	2733	2988	3279	3541	3740	3847	3921	3930	3820	3564	3113	2560	1949	1455	1123	864.4	640.0	512.6	795.2	1155	203.7	10.78	4.865	3.803	4.197	4.507	4.638	5.636	6.232	6.173	6.940	9.132	9.895	10.08	10.90	11.29	12.57	13.06	13.36	13.96	14.39	15.20	15.71	17.38	18.31	18.29	20.02	19.69	20.24	20.36	20.73	20.48	20.85	19.76	18.49	17.33	16.40
420.0	2096	2569	3055	3342	3579	3689	3823	3983	4281	4732	5160	5277	5071	4693	4059	3288	2633	2296	2264	2390	2617	2864	3143	3412	3609	3720	3814	3809	3699	3496	3077	2518	1928	1450	1116	842.7	574.6	344.4	309.2	907.0	1012	35.28	7.191	4.465	4.339	4.610	4.741	5.398	5.818	6.049	6.844	9.041	9.460	10.20	10.48	11.08	12.32	12.72	13.24	13.23	13.87	14.76	15.50	16.66	17.07	17.82	18.76	18.51	19.42	19.35	20.01	19.93	19.57	18.56	17.74	16.62	15.72
425.0	2105	2523	2952	3235	3484	3634	3784	3936	4178	4568	4974	5085	4891	4527	3901	3174	2537	2206	2175	2293	2483	2745	3025	3282	3476	3602	3709	3703	3600	3402	3054	2499	1917	1442	1119	846.7	566.5	314.6	184.5	318.2	993.1	779.1	29.70	5.725	4.283	4.462	4.546	5.406	5.768	5.972	6.416	8.861	9.065	10.20	10.24	10.79	12.00	12.68	13.21	13.24	13.93	14.69	14.88	16.09	16.59	17.11	17.76	18.15	18.53	19.24	19.08	19.49	18.98	18.21	17.20	16.46	15.61
430.0	2033	2526	2920	3291	3534	3757	3914	4062	4248	4646	5007	5140	4969	4565	3937	3183	2522	2171	2122	2229	2421	2672	2958	3243	3464	3617	3740	3755	3668	3472	3143	2629	2029	1545	1210	920.8	624.6	353.4	183.5	144.0	324.8	734.1	604.4	125.0	10.41	5.178	4.798	5.556	5.879	5.838	6.502	8.750	9.400	10.48	10.72	11.41	12.73	13.28	13.68	13.53	14.44	14.59	15.15	16.10	17.04	17.10	17.78	18.36	18.52	18.96	19.10	19.14	19.12	18.44	17.37	16.26	15.37
435.0	2217	2549	2944	3306	3622	3892	4111	4233	4394	4734	5086	5205	5031	4617	3988	3210	2527	2155	2084	2175	2355	2589	2901	3207	3430	3614	3759	3805	3728	3540	3212	2734	2173	1654	1311	1014	702.0	410.5	217.1	127.4	130.3	207.4	520.6	929.2	185.7	9.933	5.708	5.701	6.141	5.984	6.657	8.867	9.722	10.64	11.07	11.70	13.06	13.78	14.48	13.95	14.72	15.42	15.52	16.00	17.12	17.29	18.17	18.74	18.90	19.25	19.48	19.22	19.27	18.61	17.22	15.95	15.50
440.0	2485	2465	2908	3225	3598	3887	4173	4251	4315	4612	4934	5053	4863	4480	3860	3125	2464	2092	2014	2089	2249	2470	2767	3073	3292	3480	3616	3673	3615	3444	3143	2674	2151	1669	1323	1032	729.2	437.6	242.1	137.6	96.23	88.97	168.5	738.2	866.7	32.02	7.139	6.204	6.074	5.772	6.904	8.752	9.496	10.58	11.26	12.12	13.21	13.85	14.67	14.42	14.82	14.93	15.10	15.91	16.59	17.02	17.41	17.84	18.32	18.80	18.60	18.62	18.63	17.94	16.84	15.75	15.08
445.0	2526	2549	2771	3124	3539	3843	4113	4150	4154	4309	4569	4688	4512	4136	3600	2904	2321	1984	1905	1956	2082	2279	2561	2829	3042	3215	3342	3392	3357	3208	2927	2500	2020	1602	1272	999.9	714.4	443.8	258.4	154.2	99.73	71.33	71.54	243.3	854.9	682.8	25.54	6.983	6.249	5.948	6.605	8.626	9.394	10.16	11.00	12.06	13.29	13.71	13.71	14.05	14.17	14.29	14.22	14.73	15.04	15.51	16.14	16.61	16.33	17.74	17.54	17.22	17.32	16.42	15.52	14.90	14.03
450.0	2115	2859	2632	2875	3279	3632	3897	3880	3763	3813	3982	4035	3904	3587	3135	2575	2076	1797	1722	1759	1828	1983	2208	2444	2624	2768	2882	2938	2909	2793	2553	2189	1774	1430	1170	922.6	666.8	432.2	266.8	170.9	114.7	78.89	58.23	84.65	265.2	631.2	664.3	114.3	11.05	6.088	6.397	8.228	8.894	9.785	10.53	11.47	12.77	13.35	13.29	13.19	13.28	13.11	13.17	13.14	13.21	13.78	14.15	14.29	14.41	15.24	14.75	15.19	15.21	14.58	13.79	12.92	12.45
455.0	1729	2861	2786	2640	3032	3371	3632	3599	3404	3353	3457	3494	3350	3110	2721	2257	1842	1597	1542	1548	1593	1706	1889	2089	2254	2377	2467	2522	2502	2413	2217	1909	1566	1266	1055	855.9	626.4	418.3	274.5	185.4	131.3	91.96	65.50	56.39	86.44	167.5	430.9	760.7	155.6	10.50	6.781	7.785	8.624	9.327	10.25	10.77	12.01	12.51	12.58	12.52	12.23	11.80	11.89	11.44	11.81	12.25	12.36	12.31	12.80	13.12	13.07	13.42	13.06	12.68	12.33	12.01	11.14
460.0	1467	2482	3283	2527	2822	3175	3468	3372	3181	3081	3142	3166	3041	2811	2464	2052	1699	1476	1418	1410	1433	1536	1692	1872	2016	2128	2220	2278	2251	2177	2019	1748	1438	1169	975.3	816.1	612.7	411.9	276.9	194.4	139.5	102.2	73.78	55.55	51.58	60.67	128.9	550.4	675.7	114.1	7.949	8.033	8.017	8.827	9.680	10.37	11.15	12.01	12.13	11.81	11.55	11.23	10.67	10.95	10.70	11.06	11.52	11.21	11.72	11.77	12.07	11.80	11.93	11.76	11.06	10.73	10.51
465.0	1322	1965	3374	2644	2680	2990	3249	3186	2963	2858	2883	2896	2780	2565	2270	1881	1575	1373	1314	1293	1303	1396	1529	1687	1826	1926	2011	2059	2057	1984	1851	1616	1337	1093	910.4	764.6	596.2	410.9	277.7	199.5	146.7	110.1	81.22	60.48	48.46	41.49	50.47	174.3	630.4	547.9	22.75	8.279	8.047	8.427	9.362	9.892	11.13	11.37	11.46	10.89	10.78	10.36	9.949	10.49	9.897	10.03	10.31	10.60	10.72	10.58	11.26	10.84	10.75	10.94	10.00	10.16	9.914
470.0	1173	1582	2600	3192	2509	2708	2919	2864	2637	2498	2518	2522	2415	2220	1960	1650	1390	1210	1153	1133	1131	1196	1311	1443	1563	1650	1719	1768	1765	1715	1600	1404	1175	967.7	814.2	677.9	542.4	398.3	276.8	200.8	151.0	116.0	88.05	67.92	53.54	42.44	37.11	59.06	190.9	446.2	472.0	110.7	12.44	8.265	8.533	8.973	9.876	10.16	10.34	10.05	9.854	8.939	8.834	8.924	8.775	8.870	8.932	9.346	9.344	9.459	9.511	9.627	9.377	9.482	8.791	8.620	8.709
475.0	1080	1336	1801	3116	2748	2346	2543	2503	2281	2120	2112	2103	2022	1863	1643	1399	1179	1031	987.3	964.8	949.4	991.4	1084	1192	1284	1357	1412	1455	1452	1413	1327	1178	990.3	823.9	704.0	588.7	471.4	363.3	270.6	200.5	152.1	118.4	92.67	73.89	59.89	47.88	37.96	36.67	60.16	115.7	258.8	525.5	153.7	13.24	8.074	8.065	8.881	8.849	8.954	8.657	8.563	8.026	7.677	7.557	7.459	7.729	7.644	8.033	7.674	8.206	8.054	8.049	7.859	7.824	7.230	7.722	7.389
480.0	955.2	1207	1480	2433	3186	2204	2281	2234	2019	1869	1831	1823	1754	1612	1425	1220	1033	923.0	868.5	844.0	829.2	860.9	935.4	1022	1102	1159	1208	1240	1242	1217	1144	1019	863.0	725.6	622.3	524.9	424.8	330.2	260.3	202.2	152.6	118.1	96.22	78.86	63.60	51.77	41.29	35.04	33.82	41.72	75.86	319.8	509.8	131.4	10.08	7.905	8.228	8.367	8.400	8.009	7.514	7.139	7.331	6.794	6.738	6.628	6.892	6.759	6.996	6.959	6.702	7.049	6.524	7.020	6.636	6.780	6.134
485.0	863.3	1120	1286	1768	3291	2306	2069	2018	1834	1668	1638	1615	1541	1425	1256	1079	923.4	825.6	786.5	758.5	731.4	760.8	823.0	895.4	963.4	1012	1055	1081	1084	1065	1008	899.7	764.5	649.0	562.4	476.5	388.0	305.0	244.3	201.2	156.3	120.2	99.02	81.44	66.85	55.06	44.92	37.48	30.24	27.74	30.95	97.53	407.1	472.8	28.42	8.506	7.929	7.458	7.773	7.149	6.815	6.368	6.573	6.016	5.899	5.929	6.111	5.871	6.079	6.055	6.194	6.211	6.026	5.988	5.778	5.673	5.502
490.0	716.9	1005	1114	1351	2467	2918	1923	1773	1602	1454	1421	1394	1331	1223	1082	941.9	809.4	723.4	691.6	659.5	640.7	652.4	703.3	764.7	818.9	862.0	894.9	918.3	922.9	906.8	860.4	769.0	662.3	565.5	492.0	423.0	347.2	277.1	223.3	188.6	157.5	125.4	101.6	84.30	70.98	60.00	50.53	42.24	34.21	28.19	24.82	36.97	119.0	312.2	331.2	117.9	14.72	7.531	7.229	6.712	6.292	5.774	5.360	5.270	5.132	5.024	5.241	5.146	5.399	5.287	5.440	5.406	5.437	5.191	5.038	5.062	4.689
495.0	619.2	868.3	1031	1147	1566	2923	2183	1547	1385	1257	1223	1200	1147	1056	926.1	810.8	700.3	630.1	588.3	564.6	546.9	557.8	601.5	648.4	696.1	727.1	750.1	769.8	775.4	763.6	726.4	658.0	571.4	491.1	429.0	371.1	309.8	251.9	204.0	171.6	151.2	128.8	103.1	85.68	73.96	64.53	55.42	47.24	38.52	31.60	26.57	26.64	41.41	83.62	193.4	484.0	193.6	15.71	6.837	6.023	5.559	4.943	5.083	4.465	4.578	4.631	4.457	4.366	4.624	4.689	4.603	4.672	4.771	4.633	3.972	4.272	4.146
500.0	539.4	777.0	964.8	1026	1236	2221	2705	1421	1220	1111	1098	1074	1026	925.6	822.6	715.1	619.0	557.6	527.0	499.8	484.7	492.9	523.5	566.0	606.4	635.3	655.2	667.6	673.6	667.6	637.5	577.1	502.8	438.9	386.1	334.2	281.5	229.8	188.1	159.8	140.4	127.5	106.9	88.11	75.89	65.73	57.40	48.84	41.36	34.90	29.46	25.73	25.87	33.30	58.81	262.4	502.7	155.2	9.982	5.828	5.101	4.724	4.643	4.174	4.150	4.090	3.902	3.807	4.152	4.065	3.959	4.080	4.358	3.857	3.731	3.807	3.741
505.0	481.6	653.2	882.2	930.6	1068	1526	2917	1535	1108	1010	970.4	959.8	906.1	834.4	724.5	635.8	548.0	494.3	466.4	443.4	430.9	435.2	462.4	499.0	535.6	559.2	567.4	582.8	587.0	586.5	557.6	506.3	443.8	388.2	345.1	300.0	256.7	213.2	175.1	150.4	130.4	117.6	107.2	89.37	75.63	65.91	57.95	50.91	43.37	36.67	31.41	27.39	24.16	22.67	26.12	77.15	329.8	458.5	31.39	7.155	5.056	4.356	4.042	3.874	3.678	3.677	3.340	3.432	3.418	3.647	3.773	3.575	4.008	3.455	3.406	3.361	3.490
510.0	415.8	566.6	721.9	846.4	885.9	1080	2117	2204	1004	858.7	826.0	811.9	768.0	697.4	613.6	531.8	463.9	420.8	397.1	374.9	362.9	363.7	388.9	413.6	443.3	462.3	474.0	481.2	488.1	483.0	462.3	422.5	374.3	326.9	291.2	256.8	222.5	185.9	157.5	135.3	117.7	104.9	98.13	89.57	75.92	64.87	57.64	50.31	43.97	37.51	32.89	28.84	24.31	21.94	19.97	28.89	92.59	254.8	340.6	124.3	13.11	4.080	3.779	3.395	3.226	3.112	2.998	3.012	2.946	3.102	3.062	3.024	3.231	2.916	2.875	2.771	2.946
515.0	329.5	450.4	570.6	730.2	772.0	834.7	1185	2451	1325	720.1	694.2	678.1	644.5	576.0	504.3	439.0	387.0	350.1	330.4	312.2	300.1	299.8	317.9	339.4	359.7	376.4	383.0	390.0	393.7	390.5	374.7	345.0	307.7	268.5	243.4	214.7	188.4	159.7	138.1	121.0	105.0	94.21	85.58	82.62	74.25	64.25	56.57	49.28	43.66	38.30	34.01	29.70	24.87	21.49	19.14	17.96	30.88	64.98	140.2	353.6	188.5	14.39	3.457	3.034	2.648	2.834	2.554	2.659	2.609	2.612	2.557	2.657	2.559	2.619	2.645	2.358	2.365
520.0	305.0	390.7	486.7	656.8	693.7	716.6	831.5	1835	1960	677.0	603.3	591.6	557.6	493.6	437.7	379.9	336.5	305.4	286.7	271.2	256.7	258.8	272.6	291.4	308.0	322.2	326.0	332.3	333.4	329.1	320.0	292.7	262.7	232.3	211.6	187.3	167.5	142.5	123.4	109.9	95.87	87.11	79.51	74.48	71.73	65.46	54.38	48.59	42.64	37.87	33.39	29.55	25.57	22.72	18.91	16.32	17.07	22.69	38.97	167.7	365.8	147.0	7.942	2.836	2.706	2.412	2.300	2.430	2.250	2.154	2.231	2.333	2.315	2.272	2.339	2.066	1.907
525.0	277.6	355.5	426.9	548.8	653.4	639.0	686.5	1081	2391	840.5	539.2	515.6	486.7	434.0	384.0	330.1	292.6	268.4	252.8	235.6	224.5	223.8	237.3	250.8	268.1	278.4	278.3	286.0	286.1	284.2	275.1	251.8	227.4	205.5	184.4	165.1	147.3	127.2	110.9	100.3	88.40	80.72	73.64	68.11	67.57	63.68	53.48	47.20	40.82	36.08	32.02	28.65	25.41	21.96	18.36	15.85	13.89	13.39	15.32	45.53	203.2	336.9	31.86	4.287	2.465	2.170	2.119	2.142	2.032	1.889	1.960	2.139	2.171	2.001	1.940	1.737	1.606
530.0	214.9	297.4	361.2	429.7	561.1	564.3	568.4	655.1	1694	1667	514.2	439.5	411.5	363.5	319.1	277.8	245.0	222.9	211.6	200.9	188.4	188.8	197.6	207.7	221.0	229.1	230.8	234.5	233.4	235.6	226.3	210.5	187.3	171.3	154.5	138.6	124.5	110.9	96.65	87.21	78.74	72.08	65.44	61.27	58.12	57.30	51.86	45.23	38.09	33.63	30.05	26.93	23.37	20.97	17.57	15.04	12.57	10.85	9.804	15.31	53.28	162.2	219.3	118.0	11.46	2.221	1.963	1.862	1.784	1.720	1.660	1.726	1.713	1.679	1.478	1.488	1.431
535.0	189.4	249.7	302.6	344.7	427.8	513.5	466.0	476.1	762.2	2085	869.5	370.9	338.7	299.7	268.1	227.0	199.9	181.7	171.0	165.0	157.4	155.3	163.0	172.0	181.0	186.2	188.5	191.1	190.2	190.6	183.8	170.6	154.0	138.9	127.7	116.2	103.9	92.16	82.51	74.43	68.36	62.19	57.49	53.51	50.94	48.56	47.50	42.57	35.66	31.03	27.60	24.54	22.25	19.46	16.72	14.87	11.84	10.04	8.377	8.402	15.73	39.55	79.86	242.7	162.5	13.17	1.802	1.761	1.463	1.483	1.586	1.389	1.326	1.430	1.183	1.136	1.264
540.0	166.5	213.5	253.9	289.2	340.0	460.4	419.7	396.8	440.2	1486	1571	341.8	293.8	259.4	228.1	196.2	172.7	156.6	149.5	139.7	135.3	133.9	139.5	147.3	153.9	159.0	157.2	159.1	158.5	159.8	155.8	144.3	132.1	118.8	108.9	100.6	89.62	80.90	73.12	65.63	61.14	55.53	51.01	48.19	45.08	42.58	42.60	40.70	34.60	28.88	25.77	23.24	20.29	17.77	15.69	13.82	10.97	9.456	7.944	6.613	7.343	12.21	21.07	102.2	257.3	115.6	5.988	1.738	1.403	1.309	1.404	1.270	1.275	1.074	0.999	1.098	1.064
545.0	163.7	187.9	223.7	253.4	287.5	390.7	395.8	332.5	334.6	748.3	2068	469.9	251.2	223.9	197.5	170.0	148.5	134.6	128.5	120.1	114.6	115.2	117.8	124.9	130.2	136.1	134.5	136.6	136.5	137.0	134.0	123.8	112.6	101.7	95.01	87.48	77.87	71.10	64.61	57.75	54.35	48.99	45.64	43.69	40.50	38.35	36.69	36.08	32.64	27.23	23.79	20.94	18.77	16.34	14.51	12.78	10.65	8.924	7.624	6.214	5.606	6.015	7.425	26.31	127.9	234.3	31.66	2.915	1.398	1.318	1.282	1.041	1.131	0.913	0.934	0.994	0.917
550.0	119.3	159.1	185.1	209.4	225.1	288.6	350.5	285.6	260.1	356.8	1412	1235	239.4	182.5	157.4	137.9	120.9	110.3	103.7	97.84	92.98	92.45	97.12	101.1	105.8	108.8	108.0	108.9	108.9	109.1	106.8	98.78	90.60	82.29	76.40	70.30	63.92	58.09	53.21	48.67	44.53	41.75	38.67	36.70	34.96	32.53	30.44	29.45	28.32	25.46	21.49	18.51	16.18	14.37	12.85	11.21	10.01	8.477	6.874	5.748	4.727	4.209	4.076	8.042	32.03	103.3	156.4	86.37	9.791	1.123	1.027	0.882	0.828	0.781	0.812	0.804	0.729
555.0	110.0	129.0	150.8	173.1	187.7	213.6	287.5	258.4	203.6	225.2	530.3	1712	477.8	148.3	124.6	106.1	95.56	86.03	82.05	78.67	73.35	73.77	76.39	78.91	82.48	84.92	82.80	83.03	85.39	86.43	82.89	76.19	70.21	64.82	59.54	55.23	50.51	46.73	42.62	39.59	36.18	34.48	32.26	30.45	28.65	27.02	25.65	23.52	22.51	21.63	19.75	16.33	13.78	12.08	10.89	9.732	8.424	7.482	6.226	5.063	4.032	3.455	3.224	3.551	8.713	24.62	51.77	150.9	108.8	9.125	0.858	0.849	0.730	0.653	0.633	0.627	0.623
560.0	102.7	112.4	130.8	139.8	145.6	169.9	223.1	262.1	177.8	179.7	250.0	1241	1057	134.6	104.7	89.39	78.84	72.62	66.32	64.73	61.87	58.92	61.91	65.94	68.81	69.22	68.21	68.79	69.90	70.28	67.09	63.35	56.98	53.12	49.60	46.12	41.85	39.02	35.46	33.76	30.79	28.75	27.36	25.79	24.56	23.04	21.63	19.70	18.91	18.24	17.59	14.76	12.20	10.61	9.439	8.685	7.558	6.333	5.622	4.441	3.819	3.080	2.814	2.470	3.475	6.716	13.01	59.81	158.5	34.66	3.734	0.793	0.724	0.611	0.655	0.534	0.531
565.0	87.51	108.2	121.1	130.6	133.3	142.2	170.5	245.8	164.8	148.9	167.6	573.2	1553	173.7	88.26	74.65	66.08	61.16	53.40	54.69	51.50	49.98	52.55	53.76	55.25	56.92	56.99	55.83	56.75	57.43	56.39	51.84	47.59	44.16	41.18	37.93	35.33	32.69	29.90	28.40	26.86	25.06	23.56	22.23	21.57	19.98	18.84	17.15	15.84	14.79	15.41	13.38	10.93	8.835	8.185	7.319	6.591	5.727	4.986	4.644	3.358	3.017	2.335	2.109	2.305	2.811	4.081	14.88	75.06	135.9	29.62	1.866	0.674	0.549	0.492	0.428	0.406
570.0	78.56	94.97	108.5	103.0	105.4	117.7	129.3	192.1	179.3	128.6	134.3	228.3	1120	777.1	87.32	59.66	52.00	47.87	44.22	41.98	40.71	39.17	40.50	42.86	43.63	44.70	44.51	44.18	44.42	44.22	43.51	40.79	38.02	35.10	32.55	29.80	27.90	25.50	23.92	22.61	20.53	19.63	19.12	17.97	17.35	16.40	15.26	14.08	12.95	11.95	11.81	11.39	9.976	8.053	7.118	6.212	5.667	4.887	4.269	3.876	3.327	2.604	2.236	1.913	1.779	1.786	1.965	4.235	18.38	58.88	95.33	55.71	6.718	0.561	0.484	0.336	0.356
575.0	70.51	88.37	96.58	90.78	91.06	93.16	98.37	128.5	181.6	122.6	119.5	135.4	390.1	1216	240.9	47.58	39.90	36.66	35.54	32.32	30.91	30.97	30.72	33.21	34.00	34.06	34.09	34.16	33.73	34.03	32.39	31.15	28.86	27.21	25.06	23.53	21.97	20.29	19.16	17.73	16.62	15.55	15.01	13.99	13.78	13.27	12.47	11.36	10.49	9.315	9.032	9.044	8.563	7.405	5.968	5.087	4.724	4.137	3.462	3.099	2.973	2.726	2.306	1.749	1.619	1.499	1.394	1.854	4.944	13.83	29.84	87.25	65.80	5.973	0.431	0.313	0.322
580.0	71.42	87.88	92.62	80.69	78.98	84.09	81.49	100.5	165.5	139.5	112.2	112.3	160.1	908.4	639.1	44.87	33.36	31.15	29.77	27.88	25.08	25.86	26.08	27.06	27.60	28.37	27.97	27.68	27.24	28.34	27.01	25.37	23.86	22.33	20.22	19.47	18.11	16.32	15.84	14.65	13.84	13.34	12.37	12.10	11.44	11.04	10.74	9.477	8.652	8.039	7.614	6.878	7.046	6.726	5.195	4.370	3.825	3.337	3.073	2.701	2.289	2.318	2.199	1.634	1.438	1.473	1.248	1.363	1.863	3.824	7.414	33.29	93.43	32.75	2.321	0.280	0.294
585.0	71.96	94.05	84.03	73.72	69.57	74.38	75.06	84.79	127.3	158.8	114.5	109.0	103.3	405.3	1000	85.27	28.20	26.22	23.83	23.86	21.88	21.55	22.16	22.76	22.62	24.18	23.64	23.46	23.55	23.73	23.49	21.40	19.82	18.75	17.37	16.36	15.05	14.12	13.00	12.30	11.47	10.96	10.32	10.33	9.677	9.280	8.769	8.473	7.559	6.912	6.267	5.703	5.719	5.916	5.184	4.191	3.407	3.179	2.689	2.350	1.883	1.954	2.113	1.677	1.412	1.396	1.164	1.121	1.245	1.539	2.255	8.327	41.79	82.35	25.31	0.934	0.297
590.0	69.85	78.94	82.82	66.88	59.18	62.24	67.57	71.38	94.28	156.6	124.2	102.0	87.33	141.0	713.6	443.6	29.98	21.30	18.98	18.84	17.63	17.23	17.46	17.67	18.34	19.17	18.90	18.28	18.29	18.64	18.26	16.97	15.59	14.70	14.09	12.74	11.94	11.19	10.22	9.740	9.190	8.625	8.246	8.212	7.785	7.377	7.141	6.651	6.250	5.576	5.107	4.672	4.449	4.432	4.419	3.850	3.134	2.603	2.161	1.910	1.672	1.658	1.661	1.648	1.469	1.223	1.045	1.027	1.002	0.968	1.007	2.357	10.08	34.03	57.17	35.33	4.523
595.0	62.42	69.90	85.37	65.05	53.19	54.73	56.75	60.77	78.64	126.0	143.6	98.88	81.01	73.42	226.6	733.0	88.63	17.12	15.73	14.63	13.81	13.47	13.60	14.04	14.21	14.96	15.03	13.89	14.46	14.52	13.89	12.79	11.90	11.31	10.58	10.08	9.187	8.543	8.328	7.404	7.222	7.264	6.520	6.284	6.051	6.050	5.563	5.215	4.793	4.656	4.125	3.717	3.469	3.141	3.379	3.441	2.886	2.165	1.881	1.655	1.447	1.344	1.312	1.380	1.413	1.212	0.998	0.862	0.848	0.770	0.651	0.866	2.508	7.963	17.04	50.35	34.20
600.0	57.67	67.06	72.75	59.68	50.38	46.48	49.63	58.36	70.39	98.88	154.5	104.2	78.09	56.58	78.74	545.9	342.9	16.83	13.27	12.28	11.97	11.37	11.24	11.69	11.81	11.57	12.44	11.84	12.02	11.71	11.20	10.45	9.837	9.428	8.451	7.780	7.670	7.167	6.633	6.394	5.662	5.918	5.626	5.479	5.097	5.069	4.600	4.329	4.011	3.875	3.319	3.162	2.880	2.619	2.649	3.092	2.528	2.059	1.605	1.456	1.181	1.104	1.186	1.208	1.231	1.205	1.046	0.849	0.875	0.788	0.543	0.603	0.897	2.072	4.100	18.03	52.73
605.0	64.89	74.69	70.30	56.74	46.05	47.24	49.84	56.54	70.89	87.88	151.2	118.0	82.05	57.74	46.10	238.6	570.6	43.44	11.03	10.32	9.716	9.388	10.03	10.10	9.950	10.27	9.801	9.933	10.05	9.445	9.646	9.002	8.527	7.662	7.126	6.793	6.066	6.014	5.823	5.437	4.940	4.939	4.804	4.648	4.179	4.248	3.983	3.960	3.591	3.243	3.002	2.584	2.431	2.071	2.189	2.331	2.407	1.995	1.486	1.271	1.062	1.007	1.029	1.005	0.987	1.084	1.137	0.789	0.785	0.660	0.569	0.557	0.658	0.755	1.214	4.314	22.87
610.0	59.82	73.02	70.31	57.07	44.51	45.74	49.77	61.60	73.28	92.46	138.3	149.2	98.90	66.83	46.49	83.02	442.1	221.9	12.72	8.144	7.744	7.514	7.769	7.955	8.047	7.833	7.737	8.047	7.668	7.595	7.529	7.077	6.660	5.858	5.650	5.407	4.941	4.611	4.393	4.439	3.941	3.868	3.707	3.498	3.398	3.459	3.234	2.990	2.807	2.576	2.355	2.191	1.979	1.758	1.810	1.701	1.938	1.677	1.435	1.151	0.993	0.856	0.895	0.832	0.836	0.873	1.126	0.986	0.754	0.709	0.601	0.537	0.493	0.445	0.522	1.145	5.555
615.0	50.82	66.87	70.10	57.33	43.63	40.86	48.81	57.07	73.86	93.50	113.6	158.6	110.7	71.46	50.16	43.39	155.2	447.4	55.91	6.398	6.186	6.492	6.014	5.941	6.386	6.198	6.182	6.150	5.960	5.843	5.676	5.323	5.013	4.582	4.166	4.172	3.863	3.699	3.742	3.168	3.023	3.128	2.790	2.789	2.656	2.839	2.555	2.418	2.050	2.127	1.691	1.845	1.571	1.410	1.338	1.309	1.500	1.375	1.365	1.113	0.943	0.817	0.857	0.687	0.789	0.860	0.810	0.961	0.867	0.777	0.548	0.502	0.343	0.420	0.381	0.549	1.468
620.0	47.79	66.00	58.86	48.10	42.26	38.02	45.07	55.63	67.14	87.18	107.1	140.1	125.8	69.77	48.90	33.70	57.45	360.1	204.6	6.651	5.333	5.195	4.737	4.902	5.124	5.516	5.228	4.874	5.046	4.744	4.664	4.246	4.297	3.756	3.738	3.429	3.330	2.871	3.083	2.659	2.620	2.418	2.191	2.263	2.240	2.243	2.045	1.931	1.751	1.823	1.396	1.416	1.299	1.219	1.074	1.033	1.003	1.111	1.151	1.074	0.823	0.751	0.674	0.707	0.764	0.753	0.678	0.747	0.837	0.781	0.541	0.465	0.442	0.399	0.322	0.372	0.529
625.0	53.14	70.03	65.00	42.56	39.07	37.56	46.46	55.33	62.03	80.74	99.66	120.8	131.2	72.98	48.07	31.86	34.27	171.1	368.5	17.96	4.858	4.304	4.333	4.241	4.242	4.771	4.304	4.128	4.337	3.971	3.608	3.757	3.598	2.948	2.883	2.800	2.808	2.452	2.461	2.227	2.023	2.097	1.813	1.790	1.920	1.802	1.630	1.495	1.660	1.482	1.201	1.279	1.000	0.965	0.925	0.952	0.850	0.944	0.930	0.914	0.739	0.638	0.619	0.675	0.646	0.717	0.731	0.645	0.763	0.786	0.524	0.448	0.464	0.330	0.276	0.284	0.256
630.0	50.02	64.43	61.99	41.72	36.54	36.63	43.62	52.03	61.61	78.33	96.25	105.5	120.7	83.03	49.41	31.81	27.39	53.59	302.3	141.8	5.415	3.650	3.851	3.561	3.666	3.772	3.703	3.473	3.448	3.443	3.200	2.973	2.855	2.467	2.399	2.107	2.176	1.974	1.867	1.837	1.700	1.595	1.503	1.369	1.387	1.509	1.321	1.252	1.261	1.139	0.952	0.889	0.850	0.788	0.752	0.799	0.731	0.682	0.632	0.745	0.777	0.571	0.582	0.608	0.611	0.627	0.569	0.620	0.694	0.792	0.668	0.465	0.432	0.332	0.306	0.261	0.232
635.0	48.89	66.56	62.01	40.31	35.91	35.44	39.50	47.44	60.74	77.26	95.49	101.6	104.7	96.70	52.38	33.64	26.27	22.95	102.8	304.1	32.17	3.076	3.020	3.104	2.898	2.736	2.557	3.000	2.821	2.901	2.448	2.599	2.025	2.099	1.685	1.687	1.604	1.539	1.364	1.339	1.344	1.064	1.110	1.000	1.009	1.154	1.027	1.007	0.965	0.896	0.803	0.821	0.754	0.572	0.594	0.542	0.606	0.491	0.518	0.653	0.715	0.628	0.456	0.452	0.536	0.490	0.555	0.532	0.639	0.623	0.556	0.529	0.478	0.331	0.330	0.314	0.206
640.0	52.73	77.25	60.49	40.72	36.97	33.43	41.26	47.94	58.82	77.26	95.89	99.57	99.94	100.4	61.38	35.45	28.37	17.33	30.81	263.1	123.2	3.345	2.486	2.764	2.475	2.162	2.285	2.403	2.528	2.297	1.967	1.951	1.705	1.521	1.551	1.449	1.376	1.158	1.210	0.985	0.976	0.931	0.903	0.913	0.922	0.922	0.911	0.888	0.790	0.680	0.634	0.606	0.609	0.486	0.484	0.460	0.464	0.445	0.486	0.470	0.623	0.662	0.546	0.487	0.471	0.461	0.544	0.526	0.488	0.558	0.491	0.626	0.549	0.356	0.364	0.293	0.253
645.0	63.71	91.60	62.39	46.95	32.59	31.01	42.17	49.08	58.49	76.33	88.56	98.39	94.73	97.61	71.07	38.95	30.07	16.46	12.61	130.7	238.7	9.651	2.186	2.355	2.215	2.102	2.138	2.141	2.200	1.832	1.834	1.754	1.760	1.205	1.319	1.200	1.317	1.025	1.039	0.950	0.820	0.777	0.815	0.853	0.681	0.682	0.808	0.830	0.650	0.624	0.477	0.518	0.471	0.456	0.477	0.456	0.432	0.436	0.346	0.448	0.491	0.566	0.541	0.508	0.516	0.450	0.608	0.550	0.405	0.574	0.459	0.576	0.478	0.419	0.400	0.262	0.247
650.0	69.27	86.96	67.59	48.72	35.23	35.24	39.07	47.07	57.51	72.20	88.00	95.29	91.32	88.18	75.97	41.68	28.70	16.77	8.976	42.16	263.5	48.90	2.175	2.142	1.816	1.797	1.775	2.017	1.906	1.787	1.601	1.371	1.495	1.219	1.239	1.060	0.926	0.930	0.749	0.821	0.708	0.729	0.636	0.645	0.665	0.733	0.652	0.713	0.535	0.537	0.457	0.439	0.416	0.429	0.389	0.417	0.381	0.332	0.319	0.387	0.370	0.416	0.454	0.469	0.451	0.434	0.479	0.495	0.394	0.548	0.465	0.506	0.453	0.401	0.367	0.252	0.233
