Sample:	'1
File name:	Default_20230428_122824.FD3
Run date:	'12:22:02, 04/28/2023
Operator:	user
Comment:	'

Instrument
Model:	F-2700 FL Spectrophotometer
Serial number:	2190-003
ROM Version:	4J14000 07

Instrument parameters
Measurement type:	3-D scan
Data mode:	Fluorescence
EX  Start WL:	220.0 nm
EX  End WL:	600.0 nm
EX Sampling interval:	5.0 nm
EM  Start WL:	230.0 nm
EM  End WL:	650.0 nm
EM Sampling interval:	5.0 nm
Scan speed:	12000 nm/min
EX Slit:	5.0 nm
EM Slit:	5.0 nm
PMT Voltage:	700 V
Response:	Auto 
Corrected spectra:	Off
Contour interval:	50.000

Peak integration
Integration method:	Rectangular
Sensitivity:	1
Threshold:	1.000

Peaks
No.	ApexEX/EM(nm)	Height(Data)
1	225.0/605.0	51.59
2	225.0/615.0	62.71
3	230.0/340.0	278.1
4	230.0/595.0	60.53
5	240.0/375.0	276.8
6	240.0/520.0	133.3
7	245.0/530.0	132.9
8	250.0/545.0	127.9
9	250.0/580.0	39.75
10	255.0/280.0	350.0
11	255.0/550.0	116.7
12	255.0/615.0	30.43
13	260.0/285.0	456.8
14	260.0/565.0	99.70
15	260.0/625.0	33.47
16	265.0/240.0	20.86
17	265.0/290.0	502.0
18	265.0/580.0	109.0
19	270.0/295.0	746.4
20	270.0/445.0	466.6
21	270.0/590.0	99.45
22	275.0/305.0	963.8
23	275.0/400.0	449.0
24	275.0/420.0	449.9
25	275.0/600.0	100.4
26	275.0/645.0	43.07
27	280.0/310.0	 1003
28	280.0/335.0	748.0
29	280.0/415.0	452.9
30	280.0/615.0	79.33
31	285.0/315.0	 1012
32	285.0/340.0	729.1
33	285.0/425.0	446.8
34	285.0/625.0	73.91
35	290.0/255.0	12.22
36	290.0/320.0	914.1
37	290.0/410.0	446.8
38	290.0/640.0	59.19
39	305.0/340.0	489.8
40	310.0/345.0	426.5
41	315.0/350.0	364.6
42	320.0/360.0	391.9
43	325.0/365.0	395.5
44	330.0/370.0	363.7
45	335.0/380.0	373.5
46	340.0/385.0	378.1
47	345.0/390.0	336.0
48	350.0/400.0	332.7
49	355.0/405.0	334.8
50	360.0/410.0	302.1
51	365.0/415.0	295.4
52	370.0/425.0	283.9
53	415.0/485.0	74.75
54	425.0/495.0	53.78
55	430.0/505.0	44.75
56	445.0/525.0	28.96
57	450.0/530.0	23.63
58	455.0/535.0	20.62
59	475.0/565.0	8.051
60	505.0/275.0	3.187
61	510.0/280.0	3.326
62	520.0/285.0	3.366
63	530.0/290.0	3.212
64	535.0/295.0	4.406
65	545.0/300.0	4.856
66	545.0/385.0	3.417
67	550.0/305.0	4.924
68	555.0/310.0	4.815
69	570.0/315.0	4.902
70	580.0/325.0	4.021
71	590.0/330.0	3.741

Data points
	220.0	225.0	230.0	235.0	240.0	245.0	250.0	255.0	260.0	265.0	270.0	275.0	280.0	285.0	290.0	295.0	300.0	305.0	310.0	315.0	320.0	325.0	330.0	335.0	340.0	345.0	350.0	355.0	360.0	365.0	370.0	375.0	380.0	385.0	390.0	395.0	400.0	405.0	410.0	415.0	420.0	425.0	430.0	435.0	440.0	445.0	450.0	455.0	460.0	465.0	470.0	475.0	480.0	485.0	490.0	495.0	500.0	505.0	510.0	515.0	520.0	525.0	530.0	535.0	540.0	545.0	550.0	555.0	560.0	565.0	570.0	575.0	580.0	585.0	590.0	595.0	600.0
230.0	53.42	135.7	 1190	 1082	106.3	23.71	18.09	17.75	17.33	14.78	14.93	12.81	11.46	9.780	8.206	7.213	7.000	5.380	5.049	4.250	4.434	4.042	3.533	3.758	3.066	3.108	3.163	3.150	2.916	2.633	2.573	2.481	2.277	2.302	2.104	2.446	2.104	2.192	1.902	1.806	1.814	1.883	1.602	1.590	1.506	1.618	1.477	3.017	5.289	5.858	3.040	1.543	1.297	1.288	1.307	1.210	1.223	1.158	1.434	1.370	1.015	1.280	1.269	1.220	1.198	1.114	1.127	1.242	1.095	0.962	1.296	1.155	1.078	1.025	1.100	1.150	1.172
235.0	49.83	66.89	465.8	 1757	 1360	159.1	24.18	19.93	17.57	18.66	13.98	13.32	12.11	9.367	8.505	8.506	6.540	6.434	5.228	4.696	4.463	4.245	3.990	3.067	3.122	3.461	3.126	3.181	2.926	2.677	2.915	2.387	2.006	2.304	2.449	2.040	1.956	1.789	1.944	1.768	1.371	1.837	1.368	1.726	1.537	1.339	1.304	1.807	2.622	4.099	7.014	7.974	4.650	1.785	1.042	1.373	1.407	1.077	1.041	1.296	1.181	0.960	1.370	1.483	1.222	1.062	1.265	1.139	1.006	1.029	1.505	1.029	1.278	1.079	0.994	1.142	1.209
240.0	58.75	65.33	131.1	865.5	 2630	 1354	99.72	20.10	13.97	20.86	13.50	11.16	11.64	9.712	9.246	8.918	7.427	5.747	5.881	4.782	4.689	4.354	3.783	3.180	3.463	3.338	3.065	3.113	3.313	2.540	2.610	2.238	2.384	2.627	2.286	2.462	2.237	1.548	2.041	1.959	1.816	1.707	1.804	1.763	1.985	1.314	1.247	1.468	1.611	1.872	3.825	9.007	11.52	9.973	3.937	1.259	1.585	1.226	1.053	1.371	1.229	0.948	1.484	1.065	1.316	1.267	1.120	0.995	1.012	1.106	1.227	1.172	1.117	1.014	0.793	1.291	1.165
245.0	44.05	72.78	81.88	248.3	 1616	 3416	 1156	52.34	18.95	17.67	10.96	15.96	11.62	8.722	9.372	7.452	6.947	4.973	6.103	4.599	4.566	4.135	3.454	3.340	3.318	3.312	2.442	2.630	3.108	2.347	2.564	2.640	2.823	2.585	1.696	2.227	2.304	2.043	1.962	2.158	1.599	1.592	1.829	1.728	1.507	1.637	1.465	1.628	1.428	1.369	1.590	3.833	7.920	14.90	14.87	8.382	2.954	1.516	1.248	1.291	1.359	1.137	0.994	0.739	1.072	1.123	1.333	1.428	1.050	1.194	1.138	1.200	0.942	1.136	1.019	1.106	1.012
250.0	54.03	65.61	91.84	113.3	426.8	 1818	 3941	 3001	406.7	23.53	15.35	17.54	13.04	10.20	9.013	7.557	7.638	5.681	6.644	4.688	4.705	4.430	3.899	3.868	3.564	3.276	3.133	3.166	3.221	3.085	2.554	2.818	2.718	2.489	1.756	1.954	1.944	1.841	2.094	1.934	1.747	1.687	1.734	1.990	1.606	1.753	1.410	1.450	1.515	1.429	1.347	1.899	2.701	5.216	9.175	15.38	19.32	16.64	9.086	2.689	1.468	1.129	1.187	1.038	1.017	0.994	1.170	1.145	1.227	1.373	1.164	1.245	0.974	1.330	1.195	1.199	1.159
255.0	56.20	51.52	54.18	137.0	198.4	440.5	 1475	 5940	 5760	519.3	24.98	22.44	12.22	11.02	12.22	8.533	6.612	7.880	5.541	5.659	4.660	4.540	4.081	3.532	4.253	3.935	2.740	3.086	2.878	3.216	3.610	2.788	2.309	2.769	1.642	2.153	1.864	2.021	1.688	1.545	1.695	1.717	1.934	1.715	1.670	1.527	1.557	1.745	1.363	1.198	1.661	2.033	1.588	2.371	3.199	4.552	7.761	18.02	32.27	30.40	13.61	2.571	1.188	0.936	1.264	1.322	0.938	0.975	1.126	1.101	1.235	1.114	1.214	1.413	1.303	1.404	1.567
260.0	46.56	48.66	53.07	91.89	181.9	165.9	369.1	 2650	 8952	 5605	320.5	24.39	16.15	12.84	10.48	8.264	7.290	8.110	5.036	5.757	4.517	4.524	4.560	3.727	3.880	3.066	3.105	2.780	3.325	2.706	2.830	2.880	2.450	2.039	1.402	2.430	1.801	1.571	2.143	1.881	1.976	1.720	2.049	1.631	1.615	1.855	1.513	1.223	1.171	1.260	1.350	1.921	1.899	1.802	1.989	2.170	3.115	5.877	14.90	32.85	42.36	28.20	8.046	1.451	1.316	1.362	1.286	1.246	1.061	1.057	1.077	1.300	1.149	1.043	1.077	1.160	1.156
265.0	56.43	54.39	46.86	55.61	146.3	194.9	132.1	674.9	 4451	9999.9	 4691	146.8	21.19	15.49	13.00	9.337	6.889	7.224	6.867	5.432	4.589	4.792	4.840	3.669	3.945	2.865	3.482	2.959	2.943	2.554	3.259	2.571	2.189	2.067	2.243	2.136	1.484	1.660	2.059	1.997	1.726	1.539	1.861	1.717	1.442	1.947	1.774	1.411	1.167	1.120	1.161	1.436	1.840	2.380	1.944	1.686	1.584	2.500	4.825	10.95	26.10	47.28	47.35	21.73	3.849	1.356	1.057	1.150	1.228	1.157	1.095	1.124	1.259	1.129	0.858	1.392	1.448
270.0	59.88	53.56	52.26	42.50	67.23	165.0	234.3	229.0	 1095	 4672	9999.9	 7409	395.7	24.80	14.84	11.28	8.278	7.432	7.007	6.410	5.421	5.492	4.303	3.681	4.294	3.490	3.490	3.098	2.924	2.698	3.226	2.794	2.443	2.457	2.526	2.270	1.851	2.028	2.266	1.841	1.580	1.786	2.071	1.709	1.551	1.489	1.419	1.561	1.532	1.101	1.107	1.244	1.451	1.780	1.919	2.505	2.080	1.876	1.963	3.552	7.086	15.31	26.49	40.28	47.20	36.99	15.23	2.814	1.190	1.063	1.269	0.975	1.290	1.063	1.090	1.165	1.291
275.0	60.49	57.95	45.73	40.73	32.40	68.88	189.2	326.9	321.6	 1087	 3176	9999.9	9999.9	503.9	20.45	16.14	12.22	9.022	8.481	6.572	6.087	4.658	4.170	3.837	4.506	4.433	3.296	3.000	2.841	2.952	3.622	2.794	2.891	2.349	2.323	2.158	1.963	2.181	1.987	1.838	1.866	1.804	1.813	1.947	1.988	1.781	1.711	1.487	1.563	1.458	1.443	1.368	1.221	1.061	1.409	1.783	2.685	3.187	2.470	1.918	2.492	4.267	6.818	10.34	17.44	41.10	66.73	53.65	16.01	1.991	1.138	1.256	0.951	1.193	0.796	1.282	1.271
280.0	62.18	64.14	65.71	48.62	32.76	41.99	96.68	350.0	328.4	307.7	782.2	 4152	9999.9	 5557	313.7	20.16	13.28	10.41	7.706	7.441	6.342	4.937	4.134	4.144	3.781	4.069	3.746	3.771	2.516	3.066	2.730	3.016	2.384	2.599	2.518	2.012	2.118	2.226	1.703	1.944	1.949	1.510	1.932	1.719	1.772	1.809	1.928	1.547	1.424	1.461	1.190	1.416	1.416	1.333	1.458	1.213	1.818	2.330	3.326	2.698	1.851	1.942	2.460	3.270	4.791	11.64	30.36	63.31	72.57	39.00	7.843	1.437	1.192	1.338	1.224	1.223	1.174
285.0	68.24	79.48	76.86	64.94	45.92	34.93	56.67	188.4	456.8	267.0	258.6	 1061	 5828	9999.9	 4261	145.3	16.64	12.81	11.13	8.488	7.074	5.793	5.430	4.907	5.095	3.553	3.889	3.952	3.154	3.649	2.881	2.587	2.570	2.453	2.616	1.880	2.025	2.451	1.908	1.785	1.980	1.353	1.522	1.579	2.241	1.933	1.660	1.821	1.614	1.325	1.274	1.375	1.539	1.616	1.280	1.589	1.679	1.638	2.191	2.915	3.366	2.367	1.889	2.128	2.432	3.704	8.480	20.55	47.20	78.14	64.49	23.95	3.454	1.706	1.557	1.131	1.164
290.0	74.98	100.8	102.3	80.17	63.76	51.36	58.45	98.89	263.0	502.0	373.2	416.4	 1535	 5655	9999.9	 9901	248.2	20.43	14.11	9.769	8.969	6.072	5.695	5.424	5.382	4.406	3.633	3.712	3.247	2.886	3.108	2.802	2.907	2.599	2.193	2.362	2.030	1.945	2.164	1.836	1.956	1.731	1.655	1.480	1.838	1.762	1.636	2.001	2.135	1.646	1.478	1.664	1.489	1.477	1.352	1.513	1.598	1.566	1.867	2.091	2.421	3.045	3.212	2.625	1.943	2.320	3.386	5.794	12.57	25.18	41.94	58.05	57.23	40.04	16.04	3.250	1.117
295.0	70.31	114.9	136.7	113.5	78.83	72.45	72.47	103.4	162.6	338.7	746.4	507.3	619.5	 1486	 3183	9999.9	9999.9	325.5	20.25	12.69	10.31	7.761	7.115	5.488	4.819	4.667	3.827	3.870	3.377	3.874	3.419	3.218	2.625	2.483	2.230	2.381	1.910	2.691	2.194	1.597	1.758	1.789	1.758	1.426	1.707	1.601	1.876	1.807	1.923	1.721	1.536	2.174	1.374	1.502	1.914	1.762	1.587	1.578	1.663	1.935	1.695	2.092	2.910	4.406	3.549	2.800	2.147	3.160	4.983	7.606	11.29	15.12	23.67	53.36	78.28	55.85	17.96
300.0	95.97	128.6	168.7	136.4	93.58	76.38	91.57	119.2	164.1	255.6	649.5	870.5	562.1	610.4	892.2	 4315	9999.9	9999.9	220.2	17.62	11.91	9.292	6.865	6.152	4.864	4.219	4.432	4.068	3.308	3.653	3.094	3.059	2.814	2.675	2.410	2.492	1.831	2.382	1.941	1.994	1.616	1.574	2.041	1.629	1.571	1.657	1.818	2.219	1.755	1.639	1.618	2.168	1.388	1.539	1.640	1.688	1.987	1.945	1.447	1.810	1.742	1.840	2.286	3.022	3.950	4.856	3.248	3.177	2.949	3.425	3.929	4.560	6.486	15.76	39.53	78.10	86.18
305.0	105.2	141.5	192.2	167.9	106.6	82.63	97.71	143.2	183.0	266.7	473.5	963.8	862.0	499.2	429.7	 1124	 6153	9999.9	 2827	123.8	14.57	10.96	8.792	6.636	5.299	5.256	4.117	4.019	4.078	4.338	3.784	3.061	3.204	3.053	2.594	2.094	2.117	2.672	2.230	2.304	1.869	2.034	1.826	1.629	1.611	1.871	1.786	1.922	1.553	1.588	1.705	1.881	1.681	2.200	1.710	1.799	1.920	1.907	1.679	2.001	1.860	2.029	2.099	2.685	3.031	4.377	4.924	4.305	3.075	2.853	2.639	2.608	2.952	4.852	10.39	26.27	61.71
310.0	102.2	156.6	221.6	172.2	134.2	100.2	118.1	163.8	220.5	316.3	460.0	728.3	 1003	810.2	414.6	410.8	 1529	 5991	9999.9	 8769	181.6	17.90	11.45	9.164	6.752	5.658	5.455	4.604	4.853	3.869	4.085	3.370	3.379	3.180	2.792	2.740	2.355	2.311	2.225	2.041	1.891	1.641	1.628	1.940	1.859	2.159	1.770	1.783	1.780	1.763	1.723	2.021	1.489	2.044	1.933	1.933	1.727	1.922	1.702	2.168	2.129	2.116	2.424	2.750	2.630	3.376	3.865	4.815	4.529	4.027	3.183	2.562	2.475	2.484	3.476	7.262	16.06
315.0	100.7	178.9	218.7	180.8	141.3	116.8	130.4	179.3	250.4	356.1	491.3	654.1	800.8	 1012	670.3	311.6	452.6	 1401	 3227	9999.9	9999.9	248.8	16.15	10.99	8.544	6.787	6.197	5.710	4.791	4.487	4.449	3.182	2.873	3.216	2.705	2.876	2.467	2.466	2.167	2.371	1.632	1.783	1.463	2.030	1.641	2.105	1.821	2.279	1.773	2.048	1.531	1.757	1.722	1.718	1.755	1.791	2.307	2.004	1.938	2.105	2.083	2.240	2.672	2.888	2.691	3.035	3.485	3.452	4.264	4.117	4.902	3.732	2.795	2.642	1.872	2.876	4.949
320.0	114.5	188.6	232.7	204.5	159.0	127.9	144.6	201.0	272.9	378.3	510.0	659.1	729.5	839.3	914.1	434.6	235.4	388.9	774.1	 4393	9999.9	 8761	177.8	13.26	9.783	8.315	6.098	5.431	4.586	4.337	4.414	3.540	2.870	3.059	2.746	2.840	2.524	2.346	2.343	2.042	1.814	2.245	1.999	2.098	1.961	1.802	1.981	2.260	1.769	2.011	1.833	1.673	2.012	1.955	1.640	2.010	2.229	2.158	2.029	2.094	2.506	2.450	2.667	2.957	2.690	2.907	3.485	3.599	3.584	3.551	4.589	4.371	3.962	2.367	2.246	1.849	2.149
325.0	117.4	176.3	249.4	230.6	157.6	140.3	147.0	212.3	285.0	390.1	535.3	682.5	704.5	744.3	820.2	688.4	247.2	171.8	228.2	 1061	 6114	9999.9	 2086	106.3	12.71	9.006	7.910	5.598	4.802	4.679	5.078	3.595	3.257	3.515	3.089	2.800	2.635	2.245	2.480	2.002	1.797	2.014	2.006	1.930	1.999	1.871	1.794	1.975	2.035	1.798	1.840	1.885	1.984	2.227	1.549	2.330	2.232	2.094	2.385	2.573	2.577	2.822	2.791	2.910	3.183	3.233	3.116	3.603	3.481	3.752	3.349	3.369	4.021	3.061	2.582	2.149	1.987
330.0	120.3	192.8	252.0	248.4	162.1	155.4	172.7	222.0	302.7	425.3	558.2	698.9	741.1	730.3	661.5	653.2	487.0	205.5	123.2	289.1	 1472	 5546	9999.9	 7435	144.3	16.14	9.614	7.340	5.961	5.005	5.092	4.116	3.296	3.238	2.997	2.680	2.644	2.645	2.170	2.075	1.909	2.060	1.918	2.029	1.881	2.131	1.854	2.062	2.023	1.882	1.870	1.865	1.949	1.947	1.980	2.272	2.161	2.231	2.295	2.570	2.727	2.841	2.943	3.089	3.221	3.310	3.532	3.697	3.586	3.480	3.216	2.907	3.198	3.377	3.741	3.214	2.267
335.0	114.2	163.2	261.5	244.2	191.4	160.9	188.0	232.8	330.2	434.4	556.7	699.6	748.0	707.3	607.0	508.1	501.2	425.4	155.1	133.6	380.2	 1280	 3289	9999.9	9999.9	200.4	14.41	9.542	8.508	5.773	5.166	5.021	3.961	3.506	3.113	2.925	2.939	2.912	2.065	2.162	2.342	2.042	1.999	2.056	1.849	1.905	2.307	2.263	1.996	2.039	2.048	1.991	1.580	2.102	1.721	2.267	2.143	2.029	2.551	2.825	2.851	2.764	2.980	3.043	3.116	3.208	3.141	3.497	3.422	3.675	3.313	2.659	3.135	3.256	2.850	2.708	2.842
340.0	134.3	166.1	278.1	257.7	198.4	177.7	200.4	242.6	328.0	434.4	554.9	685.6	725.1	729.1	601.8	467.8	380.1	489.8	290.8	124.1	148.4	336.5	787.5	 4531	9999.9	 8189	149.3	13.24	9.864	7.282	5.835	5.363	4.323	4.048	3.268	3.059	2.601	2.929	2.257	2.407	2.773	1.981	1.701	1.995	1.978	1.806	2.533	2.158	2.199	2.038	1.924	1.975	1.580	2.287	1.558	2.154	2.228	2.207	2.605	2.964	2.888	2.833	2.938	2.861	3.055	3.264	3.371	3.411	3.286	3.269	3.460	3.230	3.213	2.658	2.508	2.476	2.598
345.0	113.8	173.7	242.0	248.7	207.7	177.4	210.2	240.9	323.0	417.1	550.4	653.9	701.0	701.2	591.1	445.4	325.3	379.3	426.5	193.3	114.2	137.9	227.8	 1094	 6546	9999.9	 1707	91.84	11.94	9.230	7.656	6.082	4.244	3.686	3.488	3.256	3.094	3.158	2.773	1.777	2.463	1.860	1.992	2.116	2.073	1.951	2.325	2.349	2.152	1.885	1.922	2.208	1.446	2.195	1.470	2.226	2.184	2.285	2.224	2.629	2.641	2.934	2.739	2.915	3.469	3.445	3.659	3.403	3.478	3.402	3.151	3.274	3.048	2.797	2.351	2.462	2.372
350.0	114.5	177.6	226.5	244.7	199.8	194.0	214.5	260.4	312.8	409.5	519.6	611.9	655.8	672.3	579.5	445.2	330.7	289.6	357.2	364.6	190.5	121.2	120.3	300.2	 1602	 6071	9999.9	 6474	123.0	13.26	8.310	6.843	5.436	4.022	3.942	3.262	3.302	3.118	2.559	2.062	2.446	2.307	2.296	2.356	2.237	1.925	2.218	2.122	2.091	2.072	1.914	2.181	1.894	1.960	1.895	2.221	2.290	2.181	2.441	2.534	2.397	2.741	2.928	2.631	3.202	3.228	3.348	3.336	3.372	3.140	3.414	3.316	3.079	2.424	2.650	2.190	2.353
355.0	110.7	154.9	216.4	238.9	216.9	219.3	232.9	278.1	312.5	401.5	482.0	580.0	630.3	623.6	557.3	446.4	345.9	288.1	273.8	344.5	346.7	183.2	125.4	140.7	417.8	 1397	 3515	9999.9	 9202	167.2	12.12	9.149	6.074	5.196	4.223	3.522	2.825	2.930	3.160	2.272	2.269	2.339	2.205	2.275	1.770	2.348	1.976	2.217	2.093	1.851	2.019	2.039	2.240	2.105	1.764	2.165	2.322	2.488	2.858	2.658	2.725	2.491	2.632	2.902	2.779	3.235	3.166	3.084	2.471	2.971	3.102	3.102	2.797	2.445	2.503	2.201	2.358
360.0	113.9	160.6	220.7	237.0	218.0	244.9	246.6	279.3	318.8	375.6	477.3	560.1	593.3	566.2	532.5	452.6	349.8	306.7	276.1	287.8	391.9	296.0	156.9	123.4	166.3	368.8	843.8	 4874	9999.9	 6517	118.5	10.51	7.418	6.560	4.480	3.626	3.215	3.142	2.981	2.571	2.072	2.597	2.297	2.256	2.015	1.957	2.162	2.662	2.095	1.939	2.008	2.183	2.070	2.415	2.041	2.112	2.602	2.361	2.550	2.385	2.595	2.930	3.107	2.550	2.754	3.401	2.907	2.693	2.843	3.056	2.896	2.863	2.896	2.675	2.587	1.979	2.345
365.0	97.10	145.8	209.3	227.7	235.9	224.9	246.5	285.9	330.0	381.4	455.9	520.6	551.0	548.4	512.7	438.6	364.4	320.4	291.5	279.7	320.7	395.5	237.5	142.9	131.7	150.9	241.5	 1189	 6524	9999.9	 1501	66.45	9.722	6.951	5.013	4.424	3.247	3.369	2.873	2.333	2.327	2.487	2.084	2.957	2.253	2.168	2.280	2.370	1.987	2.065	1.594	2.018	1.735	2.270	1.975	2.224	2.263	2.488	2.291	2.387	2.658	2.551	2.983	2.529	2.987	2.933	2.965	2.597	2.629	3.392	2.768	2.604	2.498	2.787	2.357	2.408	2.332
370.0	115.0	150.6	211.1	228.2	237.2	245.1	270.0	287.4	327.3	399.2	440.6	508.1	529.5	544.6	504.0	444.3	382.4	349.4	327.1	301.3	297.7	345.4	363.7	232.2	152.4	125.5	124.6	316.6	 1608	 6072	9999.9	 5550	95.56	9.994	6.777	5.226	4.090	3.397	3.197	2.664	2.423	2.517	2.310	2.304	2.185	2.288	2.312	2.001	1.984	1.843	1.805	1.960	2.097	2.210	2.109	2.639	2.627	2.426	2.314	2.961	2.535	2.559	2.485	2.658	2.756	2.964	3.041	2.753	3.014	2.929	2.755	2.830	2.583	2.829	2.576	2.665	2.515
375.0	112.0	144.5	205.3	237.1	276.8	259.2	275.0	310.4	346.0	395.8	445.6	487.4	515.6	511.4	495.7	449.3	405.5	368.8	351.4	334.2	319.3	312.9	332.8	364.2	221.6	145.4	122.7	142.3	409.3	 1395	 3798	9999.9	 7618	125.4	8.584	7.159	4.883	4.390	3.536	3.281	2.434	2.504	2.788	2.161	2.385	2.175	2.275	2.180	2.075	2.104	1.659	2.227	2.094	2.132	2.393	2.508	2.303	2.306	2.506	2.689	2.586	2.638	2.786	2.567	2.651	2.269	3.189	2.596	3.368	2.658	2.488	2.717	2.643	2.222	2.366	2.428	2.833
380.0	102.4	140.6	202.6	250.6	253.8	293.3	281.8	322.0	346.1	388.7	416.4	467.4	499.2	486.1	478.1	457.9	405.4	390.4	371.5	354.2	335.3	316.3	305.4	373.5	323.2	179.4	135.3	118.5	157.4	357.1	904.9	 5341	9999.9	 5028	79.95	8.412	5.346	5.474	4.327	3.283	2.752	2.962	2.799	2.882	2.483	2.342	2.156	2.210	2.292	2.019	1.892	2.475	2.213	2.251	2.406	2.617	2.361	2.282	2.450	2.568	2.464	2.814	2.689	2.477	2.783	2.549	3.011	2.485	3.415	3.103	2.737	2.747	2.573	2.605	2.460	2.860	3.375
385.0	99.78	134.6	204.1	241.9	264.4	285.9	305.9	333.6	347.3	393.3	438.4	467.9	493.7	477.0	480.3	455.6	418.8	393.7	392.6	373.6	349.7	331.7	302.8	324.6	378.1	251.8	155.3	122.7	111.1	138.8	244.4	 1331	 7165	9999.9	 1151	34.09	6.839	6.227	4.378	3.506	3.125	2.869	2.827	2.669	2.528	2.098	2.182	2.116	2.245	2.138	2.012	2.284	2.463	2.395	2.412	2.320	2.521	2.411	2.472	2.999	2.503	2.705	2.422	2.687	2.886	3.417	2.958	2.536	3.056	2.701	2.371	2.307	2.870	2.654	2.534	3.000	3.129
390.0	101.1	139.0	217.5	253.1	270.2	310.4	315.5	353.3	358.0	394.3	431.7	443.7	460.2	469.0	460.7	447.6	429.2	406.5	403.8	394.8	367.3	351.9	322.5	313.5	325.5	336.0	237.9	155.1	124.8	109.0	113.8	339.1	 1805	 6154	 9095	 4012	69.26	8.177	5.322	4.077	3.697	3.379	3.277	2.516	2.409	2.098	2.274	2.112	2.221	1.863	1.857	2.195	2.405	2.262	2.472	2.655	2.547	2.430	2.661	2.612	2.554	2.538	2.757	2.656	2.578	3.112	2.920	2.535	2.982	2.613	2.584	2.960	2.769	2.522	2.654	2.717	2.857
395.0	90.34	140.0	220.7	241.5	302.3	314.7	319.6	379.1	376.9	403.7	418.6	431.3	462.9	464.2	456.5	441.2	438.0	408.4	406.5	396.4	375.6	367.1	339.5	312.4	304.3	316.7	331.1	221.6	150.7	125.3	103.1	134.8	443.1	 1408	 3870	9999.9	 5423	89.76	7.240	4.936	4.460	3.785	2.911	3.260	2.593	2.169	2.210	2.044	2.513	1.752	2.085	2.614	2.017	2.213	2.433	2.396	2.870	2.430	2.652	2.651	2.538	2.349	2.684	2.531	2.694	2.814	2.850	2.882	2.572	2.483	2.430	2.744	2.976	2.779	2.631	2.352	2.683
400.0	96.94	139.8	202.9	239.3	292.6	323.4	320.5	377.3	379.2	404.5	417.4	449.0	436.5	461.0	444.0	439.4	432.6	414.4	414.3	401.5	389.3	367.1	342.5	333.1	301.4	290.9	332.7	298.5	192.2	144.2	110.2	97.11	148.2	348.6	927.6	 5377	9999.9	 1083	56.04	6.726	4.682	4.722	3.556	2.967	2.862	2.434	2.193	2.085	2.586	2.121	1.935	2.424	2.174	2.083	2.138	1.937	2.899	2.751	2.502	2.932	2.447	2.378	2.562	2.505	2.392	2.513	2.984	2.660	2.664	2.858	2.504	2.679	2.697	2.745	2.727	2.778	3.118
405.0	99.07	134.6	205.8	245.1	287.5	333.0	328.0	379.1	376.1	404.9	415.6	443.7	438.6	458.3	446.2	422.3	418.7	408.7	410.8	399.8	391.3	368.9	350.9	336.4	312.1	292.2	301.5	334.8	241.5	162.0	127.3	98.84	92.06	119.4	237.2	 1368	 6753	 8518	924.9	22.84	6.075	4.888	3.799	3.171	2.679	2.543	2.335	2.253	2.134	2.232	2.323	2.547	2.184	2.626	2.477	2.184	3.034	2.533	2.715	3.053	2.978	2.635	2.704	2.429	2.718	2.798	2.725	2.716	2.860	2.697	2.941	2.895	2.585	2.414	2.808	2.876	2.576
410.0	103.3	144.8	207.7	247.4	288.4	321.5	346.8	384.1	390.2	418.9	424.7	445.7	439.5	444.8	446.8	426.3	411.2	405.7	402.1	394.4	385.6	372.4	360.4	338.3	322.1	298.9	286.5	296.7	302.1	229.8	156.7	118.2	92.11	78.20	90.89	333.5	 1726	 5409	 7433	 2911	58.31	6.300	4.554	3.538	3.468	2.594	2.294	2.271	2.146	2.139	2.349	2.633	2.143	2.727	2.733	2.470	2.609	2.779	2.552	3.037	2.775	2.882	2.574	2.669	2.730	2.850	2.771	2.717	2.760	2.930	2.728	2.493	2.479	3.004	2.773	2.813	2.695
415.0	91.01	148.6	186.3	247.4	274.9	321.8	359.3	381.9	390.3	412.4	442.5	447.2	452.9	440.6	429.7	409.6	398.1	393.0	388.1	386.8	375.3	368.4	359.3	351.0	329.7	309.6	288.6	273.8	284.0	295.4	209.8	141.3	106.5	81.30	69.68	107.4	409.3	 1233	 3310	 8375	 4010	78.24	5.069	4.031	3.738	2.848	2.323	2.257	2.341	2.231	2.129	2.544	2.461	2.949	2.436	2.694	2.587	2.490	2.279	2.950	2.648	2.496	2.509	2.613	2.741	2.898	2.693	2.761	2.508	2.537	2.809	2.312	2.899	2.749	2.803	2.751	2.926
420.0	94.14	151.0	182.4	261.0	275.9	310.2	363.0	373.6	400.2	432.5	432.2	449.9	439.7	430.4	416.0	404.0	388.5	378.4	378.0	379.3	367.6	359.5	352.5	346.2	326.7	321.6	291.7	273.1	262.9	289.6	270.2	166.8	115.4	86.31	67.45	63.74	118.4	295.9	796.5	 4542	 8371	963.7	39.48	4.910	3.773	3.375	2.745	2.549	2.681	2.282	2.275	2.335	2.516	2.730	2.397	2.697	3.082	2.672	2.940	2.544	2.649	2.521	2.926	2.637	2.641	2.547	2.408	2.621	2.369	2.317	2.522	2.646	2.761	2.366	2.760	2.924	2.598
425.0	96.22	128.3	195.0	235.0	280.3	311.3	368.7	366.1	403.6	422.6	445.2	446.2	428.3	446.8	408.2	392.4	378.8	369.2	368.3	367.4	359.8	347.1	352.7	338.9	327.6	321.4	300.4	282.5	261.5	262.9	283.9	207.1	133.5	100.4	75.07	59.67	59.43	90.77	198.3	 1173	 5471	 7068	782.3	14.27	4.403	3.995	3.508	2.901	2.497	2.285	2.557	2.554	2.745	2.659	2.623	2.498	2.721	2.731	2.842	2.593	2.930	3.118	2.871	2.631	2.401	2.756	2.641	2.634	2.669	2.331	2.924	2.368	2.437	2.430	2.931	2.858	2.394
430.0	117.3	124.4	188.8	234.6	290.1	301.9	346.3	387.7	407.5	429.9	443.1	455.5	438.2	424.4	405.7	384.0	368.9	357.5	352.4	348.3	342.8	338.8	340.1	334.5	327.1	315.2	302.8	287.9	266.7	252.6	255.1	246.7	180.1	119.9	87.72	67.97	56.53	50.49	68.60	279.8	 1404	 4277	 6164	 2210	48.15	4.738	3.949	3.116	2.693	2.443	2.307	2.605	2.708	2.934	2.654	2.488	2.572	2.673	2.873	2.734	3.005	2.745	2.876	2.862	3.168	2.374	2.581	2.835	2.693	2.416	2.860	2.593	2.425	2.128	2.850	2.558	2.198
435.0	131.3	133.7	186.0	245.4	285.3	307.9	342.1	385.3	423.1	435.3	445.8	460.0	433.9	413.5	403.3	374.3	360.3	350.4	340.8	335.9	334.5	326.8	321.4	322.5	323.3	311.1	307.9	290.6	271.6	258.2	238.7	229.5	221.0	152.5	103.8	80.68	63.67	48.79	44.46	83.72	329.4	974.3	 2923	 6899	 3229	61.62	5.048	3.965	3.143	3.095	2.099	2.870	2.729	2.878	2.612	2.225	2.788	2.874	2.913	2.755	2.808	2.834	2.608	3.026	3.135	2.498	2.847	2.782	2.621	2.546	2.344	2.425	2.901	2.787	2.525	2.448	2.511
440.0	181.8	167.0	173.0	228.9	295.4	290.2	345.5	389.1	415.5	440.4	464.9	460.1	441.5	410.1	399.1	367.6	343.3	337.6	323.3	316.0	323.4	318.8	303.6	315.0	311.2	303.2	301.2	287.0	273.6	260.5	238.4	217.8	223.1	189.9	121.8	88.34	70.54	53.44	43.02	43.65	92.00	232.3	709.7	 3945	 7337	847.0	33.71	5.032	4.240	3.352	2.767	2.811	2.777	2.669	2.782	2.737	2.885	2.713	3.216	2.952	2.947	2.674	2.481	2.813	2.638	2.409	2.825	3.030	2.442	2.359	2.520	2.276	2.263	2.122	2.598	2.393	2.329
445.0	177.0	235.3	177.1	233.4	254.8	284.6	337.7	387.5	411.2	446.2	466.6	437.6	435.1	396.5	376.2	360.5	339.5	318.1	312.6	306.1	312.9	310.7	301.3	302.6	298.1	304.1	296.5	288.2	273.0	265.7	240.8	215.5	204.4	194.8	148.7	100.2	74.63	58.34	46.06	37.37	42.26	67.49	172.2	 1031	 5057	 6360	639.8	12.44	4.815	3.646	3.240	2.922	2.667	3.066	2.802	2.917	3.099	2.478	2.956	2.958	2.754	2.962	2.644	2.994	2.830	2.913	2.647	2.818	2.738	2.683	2.478	2.447	2.239	2.325	2.200	2.095	2.770
450.0	127.2	354.7	288.8	229.4	250.8	279.6	331.5	372.9	411.2	444.6	460.3	438.3	412.4	391.2	366.6	342.4	317.7	302.5	297.0	288.4	291.8	290.1	286.9	284.6	286.8	285.9	287.1	281.7	268.2	257.6	240.1	216.1	189.1	178.7	168.6	123.8	84.57	65.30	50.11	40.28	34.53	34.99	54.77	243.2	 1311	 4153	 5622	 2077	39.76	4.210	3.692	3.394	3.302	2.896	3.006	2.998	2.945	2.806	3.193	2.886	3.015	3.016	2.762	2.871	2.501	2.650	2.754	2.604	2.529	2.399	2.514	2.443	2.345	2.357	2.034	2.378	2.727
455.0	99.19	302.1	626.7	237.4	247.2	287.7	318.2	351.7	381.1	405.3	431.7	427.3	393.1	374.2	345.4	310.6	290.6	283.9	277.0	259.7	272.4	263.3	267.8	262.9	267.9	268.7	268.8	271.2	264.3	245.7	233.5	211.3	180.1	157.4	155.6	143.3	102.9	70.52	55.58	43.77	35.40	30.34	29.16	69.49	303.0	947.5	 2661	 6537	 2786	44.25	4.335	3.792	3.582	3.178	2.862	2.949	3.176	2.835	3.041	2.772	3.007	2.790	2.802	2.346	2.627	2.577	2.615	2.446	2.700	2.309	2.616	2.787	2.065	2.061	2.047	2.246	2.403
460.0	83.23	177.5	794.5	438.6	229.0	254.4	311.1	332.5	374.2	405.6	422.4	415.4	375.7	354.1	315.0	291.1	280.6	261.1	254.6	248.0	251.8	248.2	247.9	245.4	251.8	248.9	258.4	254.3	249.7	234.4	217.4	206.1	179.6	152.8	138.5	141.2	117.9	78.59	59.52	48.90	37.84	30.21	24.86	30.78	80.09	222.6	645.6	 3743	 6257	618.3	25.03	5.288	3.857	3.479	3.170	2.671	2.775	3.024	2.875	3.234	2.682	2.556	2.576	2.828	2.800	3.039	2.578	2.604	2.338	2.460	2.755	2.501	2.450	2.191	2.445	1.974	2.286
465.0	74.76	112.3	673.9	830.9	236.4	263.2	288.8	317.1	352.7	392.9	405.2	396.5	367.8	331.4	304.8	283.1	264.1	250.1	247.4	237.0	233.2	235.4	231.2	238.7	239.9	235.5	237.1	236.3	227.9	221.1	212.2	195.5	174.1	149.0	128.1	121.1	127.4	90.28	62.53	49.00	39.13	30.58	24.50	23.58	31.29	60.67	154.4	978.0	 4576	 4881	513.6	9.264	4.153	4.119	3.780	3.359	2.708	3.062	2.950	2.982	2.879	2.745	2.603	2.421	2.298	2.466	2.426	2.514	2.340	2.390	2.548	2.404	1.999	2.044	1.844	1.872	2.168
470.0	80.69	101.3	318.7	 1137	643.0	249.1	256.6	294.3	326.4	361.9	363.9	368.2	338.2	311.1	288.5	258.3	235.9	227.1	218.1	211.6	212.7	202.5	208.7	212.5	212.5	211.5	217.3	214.9	210.1	206.5	199.1	184.8	163.9	140.6	121.6	104.9	106.2	99.05	74.71	51.85	41.33	33.31	27.45	22.85	21.02	25.72	44.56	227.2	 1187	 3468	 4135	 1474	36.23	4.522	3.679	3.088	3.031	2.962	2.797	2.901	2.612	2.794	2.877	2.527	2.447	2.534	2.229	2.436	2.215	2.210	2.279	2.272	2.200	2.128	2.041	1.799	2.183
475.0	65.22	86.69	152.4	704.1	 1394	318.5	254.6	289.4	302.3	336.8	334.0	336.0	311.5	290.5	273.3	235.8	213.4	197.2	196.6	191.0	188.5	184.8	182.5	185.0	189.2	192.3	193.2	190.6	186.5	187.0	179.0	165.4	153.9	131.9	116.8	96.06	89.33	87.09	83.96	59.65	43.00	34.27	29.97	23.28	20.32	18.50	21.16	59.99	272.4	790.1	 1993	 4420	713.5	45.89	4.653	3.342	3.243	3.022	2.838	2.650	2.795	2.521	2.631	2.432	2.492	2.068	2.296	2.264	2.094	1.905	2.279	2.473	2.142	2.232	2.062	1.922	1.815
480.0	76.35	101.2	111.5	321.8	 1559	715.3	217.4	246.4	284.9	314.2	321.8	309.5	286.5	267.7	241.4	213.4	198.0	188.6	183.2	178.1	168.3	170.2	169.7	171.3	173.0	176.6	174.0	177.8	180.4	177.6	171.9	158.2	147.1	126.5	112.1	94.08	80.79	76.17	80.98	69.70	47.83	36.45	29.45	26.35	21.07	18.02	16.46	22.77	69.12	183.3	486.2	 2529	 4203	662.2	20.67	4.003	3.784	2.724	3.284	2.474	2.971	2.333	2.581	2.172	2.456	2.571	2.094	2.118	1.906	2.026	1.851	2.327	1.660	2.045	2.358	2.008	2.042
485.0	91.40	103.1	112.7	185.0	 1130	 1458	239.1	248.5	273.8	302.1	294.5	302.1	277.5	259.8	237.0	209.8	198.0	179.3	169.4	163.3	160.5	154.2	156.7	157.4	159.1	163.2	164.5	162.9	165.2	167.2	162.8	152.5	133.9	119.4	106.2	88.50	81.07	72.34	70.79	74.75	54.39	37.62	28.36	26.08	21.44	19.38	16.12	15.69	24.84	48.25	115.4	665.9	 3101	 3821	480.2	8.299	3.532	3.211	3.218	2.315	2.321	2.604	2.653	2.334	2.541	2.498	1.965	2.286	2.199	1.865	2.210	2.093	1.876	1.907	1.859	2.182	1.905
490.0	78.24	99.42	109.9	150.0	464.5	 1784	883.1	230.2	258.3	281.8	282.1	272.4	254.5	242.7	211.6	191.6	179.5	167.0	152.6	148.2	147.6	141.2	144.4	144.8	147.9	148.2	148.4	152.3	154.4	152.4	147.4	137.8	125.2	112.9	98.95	88.97	77.43	68.67	61.17	62.40	59.37	45.88	31.67	26.22	22.58	20.03	16.96	14.86	15.06	18.84	32.78	155.0	800.1	 2414	 3382	 1309	36.88	3.963	3.458	2.857	2.878	2.740	2.494	2.405	2.218	2.254	2.194	2.121	1.973	2.016	1.978	2.130	1.659	1.918	1.958	1.741	1.773
495.0	73.74	96.98	128.6	123.9	213.1	958.7	 2067	393.0	242.6	257.4	251.1	252.6	233.3	220.2	198.9	177.4	158.6	148.1	135.8	134.2	129.7	131.5	129.3	128.4	131.9	133.6	136.1	136.5	139.1	135.5	132.4	125.5	115.4	103.1	94.83	82.85	73.47	62.74	55.49	51.19	51.51	53.78	37.35	28.03	22.36	20.19	18.12	15.47	14.28	12.42	15.11	41.04	183.7	549.4	 1598	 4030	767.5	44.75	4.240	3.111	3.413	2.278	2.714	2.551	2.304	1.706	2.342	2.421	2.168	1.949	2.011	2.234	1.629	2.102	1.930	1.871	1.965
500.0	66.66	78.75	121.5	131.1	159.8	399.3	 2227	 1067	226.0	235.1	237.6	233.1	227.6	208.2	179.8	169.5	147.1	136.3	129.0	122.1	123.6	119.1	116.3	115.3	124.6	122.3	124.8	126.0	125.9	123.1	121.7	117.6	103.4	94.85	86.30	79.06	70.64	60.70	54.05	46.97	45.78	48.65	42.29	30.41	23.04	20.17	19.03	15.43	14.17	11.64	10.81	15.98	46.32	128.0	385.9	 2261	 4025	669.0	21.81	3.520	2.823	2.630	2.297	2.522	2.123	2.279	2.152	1.875	2.030	2.222	1.785	2.127	2.117	1.884	1.614	1.608	1.527
505.0	68.69	70.85	120.6	131.0	127.2	206.0	 1491	 2167	275.2	221.4	226.3	219.5	205.7	189.5	167.5	143.2	137.4	124.8	121.3	113.2	108.9	108.0	103.8	108.5	109.0	110.2	113.4	114.4	114.2	113.0	110.4	107.2	95.08	91.41	79.71	72.08	65.43	56.97	50.16	44.66	40.18	41.85	44.75	34.08	24.54	20.76	19.63	15.29	13.66	11.20	10.61	10.65	16.57	33.85	91.80	581.1	 2891	 3692	500.8	6.531	3.401	3.140	2.410	2.586	1.979	2.018	2.386	1.727	2.007	1.570	1.738	2.014	1.903	1.721	1.545	1.459	1.561
510.0	63.13	71.07	96.61	129.5	121.9	136.2	553.1	 2458	 1317	204.3	208.3	195.0	183.1	164.7	152.6	128.9	119.4	108.1	106.8	97.96	97.34	94.23	96.31	93.47	97.99	100.9	96.60	100.9	103.0	101.6	102.2	93.55	86.38	81.39	73.02	64.94	58.52	52.15	48.07	41.93	38.06	35.30	38.00	37.66	28.42	20.96	18.51	15.64	14.07	11.74	10.29	9.435	9.312	12.95	25.27	134.6	742.7	 2265	 3027	 1097	35.35	3.420	2.753	2.577	2.423	2.254	2.035	2.145	1.673	1.597	2.097	1.783	1.622	1.604	1.700	1.620	1.765
515.0	68.57	63.80	80.56	111.7	131.7	125.0	219.0	 1148	 2937	453.8	170.6	178.7	162.6	144.5	131.7	118.9	106.1	96.67	95.79	86.91	84.33	80.61	85.92	83.32	84.20	85.05	87.09	86.47	88.36	88.19	86.55	80.36	75.35	71.85	64.77	58.56	51.91	45.76	42.58	38.50	33.20	31.60	29.68	32.07	31.63	24.94	17.81	15.60	13.25	11.12	9.776	9.335	8.825	8.719	10.43	34.62	170.0	513.2	 1353	 3306	744.4	39.05	3.055	2.932	2.400	1.950	1.764	1.821	2.118	1.464	1.556	1.613	1.741	1.867	1.514	1.863	1.659
520.0	61.64	53.08	81.13	90.81	133.3	113.0	140.3	408.2	 2918	 1195	157.2	168.6	159.6	142.7	121.4	108.6	99.13	89.12	85.74	79.55	73.80	74.82	74.30	76.23	74.19	76.64	76.37	78.34	79.55	79.13	77.28	71.57	68.86	63.44	59.30	53.25	47.36	44.37	38.75	35.09	31.27	29.61	27.29	26.06	31.28	28.10	19.57	15.83	13.37	11.54	9.831	8.495	7.712	6.642	6.923	12.16	42.28	118.6	324.9	 1809	 3070	611.4	15.91	2.946	2.400	2.326	2.153	2.038	2.145	1.526	1.746	1.468	1.671	1.648	1.534	1.400	1.579
525.0	62.69	57.99	69.01	81.44	131.8	122.7	104.7	187.1	 1709	 2854	263.8	158.5	146.3	129.0	110.0	100.4	90.23	80.76	75.81	72.02	71.59	67.96	69.22	66.40	68.15	69.06	69.91	70.95	69.64	70.25	72.26	69.31	66.00	59.06	55.03	48.33	44.82	41.06	35.39	34.63	30.11	27.71	24.71	24.18	26.12	28.96	21.83	15.87	12.18	11.51	9.221	8.037	7.702	7.048	5.796	6.943	12.64	30.10	76.75	462.6	 2097	 2708	100.6	5.312	2.638	2.432	2.174	2.213	1.896	1.553	1.698	1.366	1.430	1.638	1.506	1.511	1.542
530.0	54.47	63.08	66.85	79.68	99.51	132.9	100.9	118.8	545.4	 2944	 1650	147.6	124.2	113.0	94.39	87.44	79.68	70.38	66.24	63.82	64.59	59.62	60.01	58.64	57.16	58.45	60.74	62.50	61.56	63.15	61.63	60.44	56.83	50.88	47.31	43.18	39.21	36.34	31.85	29.82	27.91	25.80	21.97	21.01	20.48	23.03	23.63	18.35	13.14	10.63	9.600	8.772	7.042	6.670	5.673	6.249	6.968	10.44	20.78	106.9	532.3	 1612	 2074	428.6	29.77	2.803	2.092	1.773	1.857	1.852	1.501	1.556	1.409	1.562	1.363	1.379	1.601
535.0	62.64	64.50	62.95	77.77	85.60	128.5	105.5	97.23	204.1	 1157	 3593	538.0	110.1	102.9	83.22	76.86	71.03	59.72	60.11	54.24	54.12	52.53	51.14	50.12	50.45	48.87	52.64	53.59	55.18	54.61	53.58	50.04	47.88	43.33	38.90	38.07	35.01	31.41	30.03	26.52	25.13	23.58	20.94	19.10	17.85	17.55	20.30	20.62	14.41	9.661	8.589	7.949	6.831	6.406	6.034	5.245	5.564	6.196	7.727	27.25	122.0	364.8	915.2	 2231	683.9	29.28	2.387	2.379	1.872	1.768	1.571	1.741	1.881	1.462	1.360	1.437	1.512
540.0	54.67	63.40	67.48	71.46	72.03	108.7	123.3	87.79	118.5	360.5	 3210	 1827	101.4	93.70	76.94	70.98	62.84	55.65	56.65	50.62	47.18	45.73	44.56	47.21	45.50	45.04	47.49	47.14	46.95	47.90	47.40	45.01	43.85	39.78	35.82	33.59	31.13	29.29	27.31	24.86	22.94	20.67	18.96	17.10	15.55	15.50	16.52	19.26	15.18	10.16	8.163	7.189	6.245	6.476	5.659	5.544	4.802	5.025	5.049	9.188	30.47	84.60	218.1	 1217	 2189	512.8	9.663	2.484	2.241	1.944	1.910	1.491	1.546	1.279	1.394	1.304	1.597
545.0	59.04	57.14	55.32	59.53	61.61	81.78	127.9	101.0	94.31	157.0	 1661	 3364	240.1	82.06	73.48	64.64	58.16	49.86	47.37	44.81	42.24	41.05	41.59	42.34	40.91	40.74	41.64	41.37	41.85	43.10	42.95	40.92	38.84	35.27	33.13	30.61	26.89	26.29	23.65	22.83	19.93	19.39	16.49	15.41	14.53	13.33	13.46	16.83	16.04	11.15	7.880	6.839	6.362	6.028	5.557	5.227	4.973	4.596	4.012	4.899	9.721	21.59	51.27	311.9	 1506	 1856	93.51	3.404	2.183	1.968	1.423	1.657	1.403	1.449	1.315	1.220	1.764
550.0	62.19	53.36	55.62	56.33	51.21	55.65	100.1	116.7	78.35	98.34	490.9	 2977	 1645	89.75	62.21	53.67	47.21	45.00	41.60	39.20	38.37	36.11	37.11	36.79	34.44	35.14	34.44	35.31	35.52	37.43	36.29	35.46	32.83	31.39	28.38	26.13	23.82	22.38	20.77	19.56	16.84	16.23	14.78	13.56	12.81	12.27	11.23	12.07	13.73	12.79	8.901	6.896	5.390	4.838	4.996	4.494	4.514	4.110	4.077	3.883	4.533	7.204	13.79	72.17	385.8	 1152	 1404	382.6	20.79	2.029	1.711	1.486	1.514	1.512	1.354	1.428	1.617
555.0	55.22	52.21	47.14	56.28	43.89	51.00	72.40	114.1	88.12	73.17	166.1	 1011	 3460	487.5	55.50	44.95	40.26	35.91	34.59	33.28	33.18	28.65	31.18	30.06	30.84	29.15	30.55	29.58	29.29	30.86	29.92	28.53	25.97	25.40	22.53	19.45	20.56	18.88	17.21	16.08	14.10	14.83	12.89	11.11	11.68	11.17	9.906	9.089	9.890	11.32	9.332	7.409	5.205	4.605	4.593	4.095	3.747	3.695	3.609	3.779	3.109	4.235	5.376	18.14	87.74	261.4	660.5	 1496	529.8	13.26	1.710	1.531	1.784	1.457	1.629	1.547	1.199
560.0	66.39	60.97	51.23	53.85	48.20	53.39	59.53	96.98	95.20	67.17	84.78	296.7	 2902	 1767	52.62	40.87	36.07	31.76	31.04	28.35	28.15	25.24	26.07	26.59	25.45	24.19	26.38	26.30	26.09	25.86	25.68	23.18	23.18	20.87	19.34	17.71	17.83	16.39	15.41	13.84	12.82	11.91	11.61	9.930	10.16	8.745	8.608	7.752	8.059	8.615	8.762	7.616	5.234	3.980	4.567	3.839	3.498	3.529	3.431	3.606	2.614	3.179	3.233	6.227	21.36	60.07	159.9	867.2	 1371	99.52	4.192	1.842	1.414	1.308	1.245	1.372	1.219
565.0	59.70	57.15	45.04	46.75	46.11	48.00	56.28	76.21	99.70	63.80	68.84	112.5	 1329	 3191	185.5	39.31	32.78	29.36	25.69	25.83	25.01	22.79	20.60	22.71	22.49	22.20	21.86	21.48	21.87	20.91	21.57	20.11	18.87	18.89	17.64	16.70	15.07	13.62	13.03	12.22	11.34	9.964	10.46	8.811	9.479	7.751	7.910	7.324	7.171	6.352	7.599	8.051	5.298	3.981	4.081	3.275	3.536	3.143	3.414	3.026	2.810	3.127	2.874	3.057	6.696	15.32	37.91	229.0	996.1	808.4	76.23	2.100	1.635	1.443	1.077	1.378	1.504
570.0	56.99	53.41	43.80	49.07	42.86	47.63	40.60	51.62	92.62	75.28	55.39	68.20	372.1	 2673	 1394	49.20	27.76	26.69	22.64	21.52	19.23	20.78	17.85	18.80	18.86	19.01	17.55	17.96	18.76	16.65	18.28	17.48	15.71	15.53	13.83	13.45	13.14	11.33	11.14	10.51	9.291	8.750	8.426	7.432	7.747	6.811	6.264	5.967	5.723	4.904	5.591	6.428	6.016	4.298	3.543	3.117	3.295	3.168	3.045	2.935	2.843	2.708	2.282	2.558	3.472	5.063	10.10	52.87	259.8	659.0	792.3	264.2	11.20	1.668	1.143	1.437	1.375
575.0	59.51	58.26	47.77	51.29	40.42	40.52	38.04	41.58	57.63	86.36	56.89	59.79	121.0	852.5	 2971	360.7	25.54	21.83	18.43	18.48	17.09	17.23	15.53	16.03	14.56	14.14	15.99	14.34	15.47	13.77	14.81	14.28	13.70	13.16	11.66	10.99	9.746	8.530	9.165	9.700	8.394	7.873	6.892	6.112	6.085	5.585	4.985	4.941	4.660	4.197	4.585	4.609	5.420	4.445	3.954	3.287	3.244	2.451	2.547	2.870	2.810	3.088	2.300	2.684	2.583	2.719	3.877	13.33	59.63	151.2	409.4	893.8	102.6	6.507	1.637	1.734	1.653
580.0	45.13	55.89	55.04	46.92	43.51	38.03	39.75	37.47	46.38	109.0	69.19	59.17	65.47	240.7	 2460	 1413	28.59	19.99	16.91	16.17	15.04	13.34	13.11	13.59	12.79	12.67	12.34	14.27	13.15	12.75	12.63	11.96	11.78	11.27	10.20	9.398	9.293	8.870	7.992	8.159	7.225	6.433	6.275	5.628	5.336	4.832	4.652	4.805	4.315	3.802	3.747	4.094	4.274	4.573	4.255	2.937	2.804	2.688	2.593	2.462	2.328	2.502	2.491	2.490	2.177	2.313	2.481	4.488	15.05	35.34	102.3	543.2	746.6	86.13	2.421	1.624	1.355
585.0	53.27	54.51	41.41	48.41	38.52	41.14	31.36	37.97	41.83	88.07	89.57	50.65	54.65	85.13	 1116	 2562	122.5	17.11	16.04	12.82	13.30	12.57	11.69	10.25	10.74	11.64	11.98	11.85	10.15	11.37	10.63	11.42	10.22	9.512	10.26	8.808	8.172	7.930	7.452	6.521	5.809	5.821	5.863	5.234	4.703	5.086	3.917	4.419	3.927	3.591	2.837	2.988	2.983	4.162	3.918	3.078	3.201	2.502	2.596	2.428	2.366	2.030	2.381	2.095	2.133	2.119	2.172	2.492	5.203	9.703	24.46	146.5	600.7	597.3	59.38	1.559	1.395
590.0	56.20	51.94	47.05	43.87	40.28	36.70	31.76	34.65	37.84	57.59	99.45	56.30	49.45	53.59	299.8	 2119	 1012	24.39	14.15	13.42	12.50	11.50	10.23	9.329	10.61	9.900	9.204	9.472	9.659	10.03	9.188	9.110	8.550	8.823	7.579	7.509	6.790	5.947	6.046	5.737	5.278	4.684	5.091	4.339	4.405	4.962	3.511	3.675	3.230	3.035	2.581	2.705	2.568	3.288	3.817	3.482	2.972	2.452	2.176	2.338	2.146	2.122	2.181	1.805	2.028	2.044	2.058	2.055	2.819	3.561	6.951	34.18	161.8	430.8	481.6	66.10	6.453
595.0	56.13	46.81	60.53	46.18	38.12	33.34	32.88	33.33	35.81	44.29	81.78	76.91	46.54	43.76	89.59	669.7	 2149	238.2	14.44	11.82	10.93	9.250	8.878	7.830	9.067	9.065	8.547	8.016	8.215	7.260	8.552	7.119	7.648	6.924	6.422	6.016	6.182	4.997	5.377	5.669	4.621	4.232	4.193	3.483	3.714	4.186	3.636	3.185	2.793	2.812	2.502	2.355	2.305	2.517	2.754	3.239	3.280	2.293	2.271	2.227	1.671	1.844	1.506	1.672	2.157	2.143	1.691	1.882	2.191	2.296	3.023	8.907	37.34	99.04	258.8	517.9	96.09
600.0	55.23	49.13	49.86	43.38	35.30	28.81	29.74	29.01	31.83	35.56	62.42	100.4	49.68	40.78	40.91	173.4	 1759	955.9	16.69	12.42	11.40	8.729	8.026	7.687	7.955	7.789	7.205	7.719	6.976	6.976	7.269	6.331	6.989	5.947	5.446	5.882	5.336	5.264	4.349	4.679	4.052	4.244	4.086	3.491	3.413	3.534	3.388	2.705	2.850	2.662	2.377	2.441	1.883	2.242	1.950	2.892	3.230	2.380	2.066	2.008	2.001	1.783	1.863	1.707	2.177	2.152	2.110	2.097	1.668	1.715	1.718	3.299	9.771	23.44	66.60	341.6	450.0
605.0	48.86	51.59	44.91	46.94	35.72	31.26	27.36	29.10	34.68	34.96	51.92	92.94	61.38	41.25	34.50	54.89	817.9	 1770	75.99	9.480	9.089	8.817	7.236	7.082	7.350	6.321	7.043	7.320	6.560	6.367	6.712	5.799	5.865	5.814	5.078	5.244	4.885	4.706	4.442	4.074	4.103	3.815	3.364	3.016	2.991	2.931	2.837	2.802	2.709	2.548	2.225	2.040	1.795	2.083	1.762	2.553	2.820	2.458	2.577	1.882	1.891	1.929	1.748	1.832	1.734	1.976	2.129	1.683	1.739	1.596	1.639	1.793	3.377	6.454	16.32	95.29	378.8
610.0	44.92	47.83	47.93	45.03	30.07	30.31	28.11	28.06	35.36	33.39	42.76	69.99	74.89	44.72	30.91	29.60	216.8	 1520	715.7	15.70	9.463	7.752	6.706	6.439	6.557	6.453	5.861	6.320	5.751	6.597	5.485	5.132	5.022	5.287	4.461	4.989	4.063	4.397	4.044	3.539	3.539	3.675	3.122	2.885	2.776	2.507	2.548	2.621	2.345	2.178	1.819	1.692	1.894	2.062	1.954	1.898	2.408	2.469	2.452	2.080	1.598	1.806	1.825	1.874	1.707	1.611	2.078	1.722	1.818	1.627	1.471	1.572	1.902	2.479	4.867	22.53	104.3
615.0	54.47	62.71	49.04	50.27	28.72	30.38	29.26	30.43	29.36	30.78	38.82	53.30	79.33	54.70	30.49	23.36	59.79	499.3	 1583	162.2	9.190	6.910	6.284	5.638	5.832	6.148	5.688	5.820	5.394	5.622	5.041	4.078	4.939	4.521	4.140	4.385	3.652	3.385	3.374	3.428	3.226	2.959	2.650	2.845	2.614	2.234	2.209	2.033	1.918	1.739	1.835	1.641	1.661	1.940	1.501	1.329	1.767	2.006	2.284	2.222	1.571	1.405	1.486	1.513	1.527	1.834	1.612	1.721	1.514	1.736	1.610	1.767	1.686	1.551	2.501	6.087	24.19
620.0	59.89	40.06	53.25	43.33	38.47	26.84	24.73	25.26	33.38	32.77	36.80	42.98	72.67	64.00	30.25	22.11	23.75	129.2	 1354	681.6	10.52	6.350	5.328	5.911	4.598	5.223	5.181	4.682	4.996	5.490	4.602	4.784	4.343	4.414	3.721	4.080	3.508	3.374	3.170	3.009	2.918	2.301	2.567	2.563	2.157	2.185	1.818	1.943	1.989	1.920	1.434	1.727	1.323	1.904	1.808	1.683	1.626	1.677	2.141	1.886	1.689	1.855	1.769	1.653	1.410	1.731	1.510	1.744	1.764	1.375	1.624	1.533	1.528	1.411	1.577	2.441	6.630
625.0	51.48	46.33	50.12	44.95	32.82	27.22	22.60	29.70	33.47	30.06	40.22	44.91	53.11	73.91	33.93	20.59	14.65	39.68	655.4	 1341	48.12	7.140	5.399	5.612	5.272	4.862	4.481	4.432	4.713	4.886	4.954	4.282	3.657	3.390	3.337	3.511	3.114	2.995	2.949	2.948	2.730	1.993	2.351	2.330	1.901	2.023	1.748	1.511	1.909	1.677	1.397	1.717	1.594	1.802	1.464	1.371	1.546	1.299	1.999	1.846	2.030	1.806	1.646	1.560	1.207	1.445	1.717	1.525	1.760	1.581	1.462	1.407	1.295	1.353	1.490	1.897	2.606
630.0	53.61	47.92	41.88	42.79	31.85	32.89	24.70	27.43	31.22	32.20	39.96	46.70	46.49	67.45	41.80	18.98	15.26	18.13	172.6	 1207	547.4	10.25	5.607	5.332	4.994	3.984	4.467	4.252	4.504	4.857	3.912	4.039	3.426	3.591	3.712	3.355	3.041	3.000	2.997	2.784	2.679	2.164	2.115	2.074	1.968	1.954	1.832	1.617	1.768	1.733	1.564	1.767	1.479	1.422	1.317	1.508	1.473	1.532	1.640	1.804	1.933	1.684	1.507	1.366	1.324	1.476	1.689	1.370	1.584	1.563	1.509	1.447	1.536	1.456	1.281	1.484	1.816
635.0	64.21	55.14	36.30	39.93	32.15	29.09	21.65	26.90	26.41	29.10	37.02	42.46	45.19	57.07	57.68	20.44	15.43	11.72	45.66	416.7	 1239	116.6	6.208	4.910	5.125	4.410	4.449	4.539	3.664	4.337	3.777	4.051	3.342	3.757	3.272	3.166	3.357	3.068	2.273	2.574	2.711	2.547	1.972	1.890	2.123	1.728	1.874	1.584	1.821	1.482	1.563	1.529	1.153	1.394	1.616	1.543	1.269	1.279	1.663	1.531	1.723	1.291	1.140	1.174	1.501	1.471	1.688	1.567	1.456	1.582	1.516	1.568	1.635	1.275	1.207	1.247	1.412
640.0	56.78	57.36	50.79	36.38	25.20	26.16	23.56	26.98	26.04	27.70	37.01	41.92	39.88	47.37	59.19	25.53	15.23	10.91	17.49	106.2	 1114	308.6	7.646	4.251	4.754	4.229	3.744	4.079	3.127	3.764	4.231	3.778	3.886	3.607	2.825	3.248	2.892	2.318	2.404	2.190	2.308	2.264	1.810	2.035	1.937	1.571	1.341	1.460	1.628	1.366	1.388	1.404	0.991	1.452	1.432	1.350	1.346	1.227	1.586	1.399	1.529	1.605	1.545	1.214	1.730	1.188	1.612	1.512	1.325	1.444	0.999	1.568	1.373	1.420	1.265	1.110	1.229
645.0	48.81	56.03	39.84	36.21	28.43	23.49	24.28	29.26	25.96	21.95	35.53	43.07	34.38	40.84	52.74	33.62	13.94	11.71	9.443	30.16	561.6	957.1	30.22	4.781	4.475	4.668	3.613	3.351	3.528	3.930	3.828	3.171	3.482	3.295	3.400	3.332	2.774	2.638	2.198	2.632	2.202	2.241	1.854	1.995	2.030	1.366	1.652	1.731	1.477	1.817	1.480	1.446	1.208	1.439	1.259	1.389	1.426	1.391	1.528	1.614	1.295	1.690	1.715	1.208	1.452	1.071	1.446	1.327	1.572	1.637	1.071	1.661	1.149	1.519	1.143	0.911	1.184
650.0	56.90	57.67	34.52	44.30	27.74	26.08	28.61	27.44	28.62	26.49	34.84	37.62	38.62	36.13	41.61	39.79	15.64	9.922	8.214	12.26	169.5	 1116	196.1	5.819	3.648	4.883	4.267	3.903	4.081	3.603	3.931	3.544	3.279	2.556	4.105	3.250	2.944	3.267	2.128	2.240	1.971	2.256	1.720	1.932	1.698	1.747	1.426	1.826	1.728	1.312	1.435	1.635	1.310	1.441	1.300	1.056	1.696	1.239	1.380	1.318	1.188	1.773	1.389	1.320	1.240	1.200	1.449	1.206	1.156	1.438	1.077	1.257	1.103	1.172	1.328	1.264	1.303
