Sample:	'1
File name:	Default_20230428_131427.FD3
Run date:	'13:08:06, 04/28/2023
Operator:	user
Comment:	'

Instrument
Model:	F-2700 FL Spectrophotometer
Serial number:	2190-003
ROM Version:	4J14000 07

Instrument parameters
Measurement type:	3-D scan
Data mode:	Fluorescence
EX  Start WL:	220.0 nm
EX  End WL:	600.0 nm
EX Sampling interval:	5.0 nm
EM  Start WL:	230.0 nm
EM  End WL:	650.0 nm
EM Sampling interval:	5.0 nm
Scan speed:	12000 nm/min
EX Slit:	5.0 nm
EM Slit:	5.0 nm
PMT Voltage:	700 V
Response:	Auto 
Corrected spectra:	Off
Contour interval:	50.000

Peak integration
Integration method:	Rectangular
Sensitivity:	1
Threshold:	1.000

Peaks
No.	ApexEX/EM(nm)	Height(Data)
1	225.0/270.0	44.53
2	225.0/540.0	52.87
3	225.0/570.0	53.65
4	225.0/580.0	49.92
5	230.0/340.0	435.0
6	230.0/535.0	56.35
7	230.0/545.0	47.75
8	230.0/590.0	44.28
9	230.0/635.0	42.40
10	235.0/440.0	182.6
11	235.0/510.0	107.7
12	235.0/575.0	39.98
13	240.0/385.0	199.5
14	240.0/520.0	109.4
15	245.0/265.0	221.6
16	245.0/375.0	206.0
17	245.0/415.0	219.3
18	245.0/530.0	106.3
19	250.0/540.0	109.4
20	250.0/580.0	30.19
21	250.0/595.0	25.08
22	255.0/280.0	364.1
23	255.0/555.0	89.84
24	260.0/285.0	475.4
25	260.0/565.0	100.9
26	265.0/290.0	494.6
27	265.0/410.0	266.6
28	265.0/420.0	270.0
29	265.0/430.0	267.3
30	265.0/580.0	100.4
31	270.0/245.0	15.52
32	270.0/295.0	700.7
33	270.0/385.0	276.9
34	270.0/395.0	272.7
35	270.0/450.0	281.2
36	270.0/590.0	85.22
37	275.0/305.0	820.7
38	275.0/440.0	284.3
39	275.0/605.0	79.86
40	280.0/310.0	806.6
41	280.0/335.0	540.8
42	280.0/415.0	274.0
43	280.0/425.0	268.5
44	280.0/615.0	68.94
45	285.0/315.0	795.1
46	285.0/395.0	287.1
47	285.0/420.0	262.4
48	285.0/625.0	55.34
49	290.0/320.0	786.9
50	290.0/375.0	312.8
51	290.0/640.0	48.26
52	300.0/335.0	448.3
53	305.0/245.0	6.565
54	305.0/340.0	458.2
55	305.0/400.0	243.3
56	310.0/345.0	408.9
57	315.0/350.0	325.1
58	320.0/265.0	5.176
59	320.0/360.0	324.3
60	325.0/365.0	325.2
61	330.0/370.0	278.8
62	335.0/375.0	280.0
63	340.0/385.0	276.6
64	345.0/390.0	239.9
65	350.0/395.0	239.4
66	355.0/405.0	231.3
67	360.0/410.0	211.8
68	365.0/415.0	202.2
69	370.0/425.0	183.7
70	375.0/430.0	164.6
71	380.0/435.0	149.2
72	385.0/445.0	136.2
73	390.0/450.0	115.4
74	395.0/455.0	99.73
75	400.0/465.0	87.02
76	405.0/470.0	70.77
77	410.0/475.0	60.17
78	415.0/485.0	51.53
79	420.0/490.0	43.91
80	425.0/495.0	39.00
81	430.0/505.0	34.19
82	435.0/510.0	27.14
83	440.0/515.0	24.22
84	445.0/525.0	21.58
85	450.0/530.0	18.08
86	455.0/535.0	15.01
87	460.0/340.0	2.663
88	460.0/545.0	12.85
89	480.0/575.0	4.859
90	505.0/275.0	3.123
91	510.0/280.0	3.462
92	515.0/285.0	3.221
93	525.0/290.0	3.329
94	535.0/295.0	3.444
95	545.0/300.0	4.054
96	550.0/305.0	4.266
97	555.0/310.0	3.883
98	565.0/315.0	3.830
99	575.0/320.0	3.784
100	580.0/325.0	3.511

Data points
	220.0	225.0	230.0	235.0	240.0	245.0	250.0	255.0	260.0	265.0	270.0	275.0	280.0	285.0	290.0	295.0	300.0	305.0	310.0	315.0	320.0	325.0	330.0	335.0	340.0	345.0	350.0	355.0	360.0	365.0	370.0	375.0	380.0	385.0	390.0	395.0	400.0	405.0	410.0	415.0	420.0	425.0	430.0	435.0	440.0	445.0	450.0	455.0	460.0	465.0	470.0	475.0	480.0	485.0	490.0	495.0	500.0	505.0	510.0	515.0	520.0	525.0	530.0	535.0	540.0	545.0	550.0	555.0	560.0	565.0	570.0	575.0	580.0	585.0	590.0	595.0	600.0
230.0	38.51	142.6	 1360	 1137	100.1	22.36	17.24	16.42	14.28	12.88	8.953	9.756	9.298	7.993	6.681	5.643	5.395	5.046	3.594	3.817	3.324	3.168	2.852	3.070	2.420	2.542	2.455	2.141	2.407	2.208	2.176	1.980	2.145	1.825	1.883	1.993	1.997	1.637	1.855	1.560	1.420	1.442	1.643	1.417	1.237	1.437	1.418	2.803	5.987	5.277	2.570	1.274	1.150	1.170	0.904	1.105	1.183	1.092	1.099	1.031	1.036	0.900	1.016	0.963	1.020	0.944	1.077	1.000	1.004	1.100	0.903	0.939	0.927	1.018	0.985	0.881	0.845
235.0	48.63	73.62	514.8	 1745	 1362	136.3	17.54	21.75	12.75	11.22	12.22	9.009	8.996	8.313	6.354	5.602	5.844	4.907	3.974	3.752	3.168	3.194	3.148	2.889	2.791	2.301	2.474	2.871	2.117	2.844	2.093	2.580	1.875	1.696	1.729	2.106	1.880	1.585	1.857	1.453	1.347	1.535	1.841	1.457	1.239	1.560	1.483	1.711	2.803	4.573	6.335	8.012	3.774	1.538	1.184	0.828	1.376	1.325	1.187	0.923	0.877	0.860	1.131	1.053	0.969	0.888	1.031	0.821	0.896	1.249	0.818	0.810	0.658	0.841	0.857	0.898	0.776
240.0	49.28	61.58	148.4	846.4	 2486	 1241	81.16	16.16	15.09	15.18	13.30	9.732	8.815	7.858	5.572	6.528	5.426	5.361	4.125	4.171	2.770	3.571	3.488	2.510	3.148	1.914	3.239	2.414	2.771	2.779	1.745	2.671	2.149	1.506	1.908	1.566	1.873	1.973	2.007	1.707	1.292	1.330	1.559	1.332	1.211	1.741	1.135	1.217	1.433	2.140	3.626	8.105	9.916	7.105	3.190	1.307	1.014	1.440	1.082	1.049	0.936	0.793	1.195	0.833	0.944	0.782	0.870	0.934	0.897	0.910	0.916	0.960	0.802	0.975	1.176	0.985	0.940
245.0	42.68	76.14	75.01	230.2	 1495	 3065	 1073	44.71	16.93	12.86	15.52	9.906	8.897	8.769	7.449	6.521	5.080	6.565	4.721	4.352	4.098	3.485	4.072	2.822	2.396	2.260	3.231	2.716	2.434	2.046	2.583	2.599	2.158	1.527	1.729	1.783	1.593	1.437	2.001	1.641	1.791	1.353	1.779	1.340	1.030	1.422	1.235	1.330	1.237	1.264	1.564	3.238	6.374	11.90	11.78	6.920	2.185	1.360	1.177	0.932	0.715	1.121	0.997	0.878	0.949	0.679	1.011	0.967	0.894	0.856	1.037	1.165	0.920	1.040	0.930	0.859	0.906
250.0	39.46	53.44	98.09	127.4	401.9	 1611	 3254	 2404	344.1	15.81	14.37	12.47	10.65	8.263	6.180	6.966	5.487	5.042	4.479	4.246	3.616	3.826	3.226	2.834	2.636	2.814	2.901	2.405	2.523	2.369	1.949	2.377	1.987	1.905	1.738	1.884	1.493	1.398	1.597	1.795	1.870	1.519	1.964	1.528	1.289	1.439	1.286	1.433	1.411	1.172	1.370	1.653	2.228	4.671	7.456	11.20	14.24	12.85	6.971	2.393	1.217	1.046	0.954	1.143	0.837	0.967	0.848	1.189	0.804	0.910	0.986	0.878	0.925	1.023	0.833	1.010	0.674
255.0	39.78	41.87	61.83	135.7	183.3	394.8	 1239	 4826	 4493	433.3	19.00	14.85	11.68	10.38	8.903	6.630	6.145	5.752	4.474	4.015	4.069	3.748	3.491	2.857	2.689	2.746	2.950	2.420	2.547	2.476	2.374	2.029	2.266	1.891	1.544	1.736	1.342	1.592	1.543	2.082	1.615	1.542	1.908	1.435	1.488	1.669	1.323	1.345	1.232	1.522	1.245	1.480	1.817	2.092	2.502	3.855	6.268	13.51	23.51	22.74	9.339	1.974	1.036	1.020	1.033	1.137	0.984	1.108	1.309	0.815	0.945	0.976	0.834	0.914	0.977	1.086	0.739
260.0	43.18	36.84	44.51	102.1	198.5	159.1	313.1	 2184	 6964	 4133	226.8	12.67	15.34	12.23	9.938	7.102	6.508	4.998	5.714	4.469	4.168	3.258	3.433	2.807	3.162	3.053	2.878	2.506	2.712	2.302	2.426	2.374	2.307	1.489	1.673	1.453	1.007	1.257	1.635	1.525	1.623	1.650	1.953	1.379	1.657	1.491	1.628	1.327	1.250	1.322	1.296	1.476	1.867	1.696	1.676	1.822	2.341	4.785	11.68	24.12	31.17	20.28	5.777	1.137	1.311	0.959	0.940	0.766	0.940	0.905	0.999	0.940	0.935	0.961	0.794	1.060	0.929
265.0	39.54	39.13	38.12	51.99	150.8	221.6	123.1	556.9	 3583	 8462	 1096	92.51	17.44	13.25	10.48	7.454	6.663	5.693	5.446	3.715	5.176	3.051	3.292	3.161	3.073	3.004	2.609	2.646	2.768	2.703	2.126	2.074	2.262	1.904	2.093	1.290	1.556	1.524	1.743	1.483	1.445	1.413	1.880	1.369	1.382	1.530	1.173	1.357	1.260	1.099	1.036	1.165	1.537	2.081	1.901	1.651	1.222	1.880	3.655	8.026	19.02	32.53	32.45	13.77	2.390	0.999	1.087	0.854	1.062	1.155	1.083	0.924	0.956	0.766	0.922	1.072	0.935
270.0	42.94	44.53	38.57	40.75	71.19	176.4	237.0	206.2	884.2	 3784	 7026	 4065	355.1	15.51	11.48	9.882	6.518	6.843	6.028	4.218	4.164	2.756	3.372	3.211	3.017	3.174	2.968	2.734	2.637	3.043	2.335	2.187	2.086	2.165	1.950	1.296	1.536	1.597	1.544	1.510	1.201	1.400	1.970	1.308	1.466	1.528	1.082	1.273	1.331	1.015	0.886	1.129	1.256	1.439	1.776	2.323	1.986	1.786	1.868	2.757	5.273	10.72	18.47	26.99	31.16	25.27	11.16	2.146	0.990	0.997	1.079	0.946	1.002	0.923	0.891	1.126	0.931
275.0	41.91	41.84	38.60	30.72	40.65	66.41	203.4	360.9	276.9	879.2	 2292	 8821	 6269	454.6	16.35	10.90	7.319	7.277	4.534	4.342	4.429	3.530	3.548	3.465	3.758	3.764	3.728	2.773	2.496	2.694	1.710	2.367	1.792	2.066	2.237	1.327	1.891	1.718	1.289	1.125	1.159	1.525	1.924	1.495	1.712	1.670	1.134	1.206	1.367	1.217	0.898	0.996	1.011	1.256	1.447	1.561	1.998	3.123	2.500	1.774	2.050	3.320	5.043	7.085	12.17	27.90	45.94	34.87	10.88	1.566	0.868	0.928	1.036	0.915	1.043	1.206	0.730
280.0	48.41	46.80	43.51	40.99	36.64	36.19	84.15	364.1	322.9	246.6	566.9	 3396	9999.9	 5107	272.3	15.74	9.014	8.235	6.068	5.472	4.366	4.458	3.538	3.911	4.505	2.796	3.372	2.807	2.507	2.478	2.274	2.240	1.833	2.276	1.973	1.690	1.536	1.496	1.752	1.611	1.190	1.385	1.398	1.267	1.516	1.839	1.157	1.626	1.399	1.090	0.944	1.130	1.174	1.218	0.998	1.369	1.715	2.484	3.462	2.789	1.651	1.626	2.314	2.678	3.672	8.569	22.00	42.16	48.30	25.27	4.988	0.874	1.046	1.028	0.871	1.257	0.881
285.0	48.16	63.82	51.42	47.47	41.40	30.76	42.65	177.3	475.4	252.1	188.2	862.4	 4802	9999.9	 3776	105.8	12.54	8.782	7.529	6.319	5.861	5.002	3.727	3.211	4.240	3.200	3.015	2.803	2.677	2.593	2.414	2.334	2.578	1.849	1.969	1.628	1.651	1.527	1.802	1.399	1.215	1.400	1.451	1.372	1.228	1.719	1.545	1.694	1.280	1.174	1.329	1.313	1.176	1.260	1.003	1.196	1.726	1.609	2.004	3.221	3.148	1.692	1.400	1.455	1.819	3.061	5.974	14.05	32.22	51.37	43.35	14.67	2.439	1.142	1.222	0.968	0.752
290.0	61.06	70.32	68.35	60.05	44.63	37.93	42.51	80.36	251.3	494.6	332.4	324.0	 1237	 4649	9999.9	 5794	230.6	16.52	8.760	6.984	5.766	4.679	4.247	3.719	3.967	3.169	2.805	2.881	2.561	2.554	2.327	2.154	2.342	2.431	1.857	2.224	1.882	1.718	1.806	1.558	1.445	1.494	1.405	1.455	1.368	1.714	1.340	1.382	1.358	1.011	1.293	1.131	1.119	1.243	0.977	1.297	1.347	1.335	1.355	1.753	2.511	3.329	2.901	2.122	1.631	1.847	2.433	4.439	8.764	17.00	28.69	37.67	38.93	27.01	10.39	2.399	1.105
295.0	74.52	72.90	106.6	90.86	56.63	50.39	53.72	64.99	128.3	292.3	700.7	425.2	457.0	 1188	 2938	9999.9	 9038	299.7	15.41	8.670	6.581	5.737	5.405	4.381	4.253	4.040	4.276	3.712	2.069	3.394	2.236	1.956	2.767	2.023	2.239	2.105	1.935	1.754	1.670	1.363	1.464	1.371	1.516	1.063	1.430	1.501	1.420	1.770	1.383	1.360	1.388	1.417	1.464	1.296	1.159	0.918	1.175	1.160	1.023	1.755	1.992	1.954	2.405	3.444	3.218	2.367	1.806	2.472	3.014	4.903	7.444	9.896	16.13	34.47	50.58	37.87	11.38
300.0	70.93	95.03	115.3	102.1	66.38	52.80	60.33	69.04	116.2	188.5	558.7	774.5	409.0	440.3	769.4	 3684	9999.9	 3242	192.1	10.92	8.972	6.893	5.503	4.530	4.794	3.032	3.771	3.130	2.731	3.216	2.386	3.233	2.574	2.248	2.243	2.101	2.151	1.785	1.591	1.526	1.322	1.474	1.506	1.616	1.467	1.713	1.234	1.613	1.444	1.366	1.467	1.310	1.627	1.288	1.266	1.138	1.315	1.118	1.099	1.662	1.763	1.421	1.846	2.337	4.008	4.054	2.851	2.025	2.236	2.167	2.861	3.328	4.768	10.32	26.31	53.02	52.43
305.0	72.48	123.8	131.3	106.9	80.78	62.22	64.25	87.05	125.8	196.6	344.9	820.7	712.3	330.3	300.4	926.7	 4929	9999.9	 2594	94.30	10.29	8.530	5.094	5.664	5.014	3.572	3.375	3.277	2.931	3.590	2.773	3.161	2.858	1.850	2.293	2.148	1.717	1.762	2.123	1.712	1.744	1.547	1.458	1.410	1.632	1.635	1.197	1.254	1.392	1.333	1.448	1.551	1.278	1.341	1.117	1.391	0.983	1.346	1.437	1.530	1.875	1.614	1.820	1.825	2.436	3.722	4.266	3.217	2.331	1.913	1.950	1.913	2.463	3.205	7.010	17.95	37.96
310.0	80.68	124.7	145.8	117.9	88.11	68.44	80.94	101.5	141.5	206.1	301.8	513.7	806.6	621.5	264.1	306.0	 1206	 5088	 9612	 5905	167.7	12.84	7.683	6.119	5.058	4.526	3.715	3.715	3.165	2.949	2.897	2.691	2.790	2.537	2.311	2.237	2.141	1.987	1.705	1.876	1.812	1.467	1.473	1.469	1.777	1.480	1.511	1.562	1.432	1.230	1.555	1.713	1.205	1.471	1.502	1.389	1.451	1.363	1.488	1.825	1.832	1.594	1.914	1.993	2.256	2.709	3.306	3.883	3.819	2.998	2.260	1.937	1.861	1.845	2.436	4.917	10.19
315.0	89.75	136.4	165.5	135.5	85.32	78.28	89.88	109.5	151.4	225.1	301.3	412.1	537.4	795.1	545.5	216.4	341.1	 1180	 2830	 9811	 7965	223.8	10.57	8.740	7.626	5.029	4.285	4.133	3.844	2.476	2.909	3.384	2.474	2.556	2.025	2.080	1.978	1.831	2.052	1.653	1.507	1.131	1.760	1.629	1.656	1.340	1.379	1.790	1.298	1.479	1.512	1.712	1.596	1.562	1.476	1.480	1.563	1.337	1.452	1.633	1.936	2.045	1.808	2.050	2.385	2.199	2.315	2.663	3.001	3.830	3.789	2.671	2.193	1.654	1.677	2.411	3.690
320.0	118.7	168.3	224.3	177.5	96.38	96.64	97.94	139.6	183.7	263.3	353.6	428.6	489.8	610.9	786.9	354.7	175.2	321.1	679.3	 3703	9999.9	 5741	151.8	10.33	7.289	6.398	4.739	4.587	3.555	3.134	2.982	3.262	2.839	3.073	2.095	2.200	1.761	1.906	1.468	2.024	1.562	1.455	1.820	1.671	1.491	1.641	1.384	1.732	1.726	1.686	1.267	1.654	1.314	1.736	1.378	1.594	1.560	1.476	1.778	1.492	1.881	2.150	1.758	1.992	2.493	2.064	2.262	2.432	2.770	2.587	3.416	3.784	3.302	1.971	1.586	1.253	1.765
325.0	139.3	238.9	348.6	263.1	133.1	103.7	102.4	154.0	207.1	304.3	380.1	472.1	502.5	531.3	688.9	590.4	208.6	144.9	200.5	894.9	 4893	9999.9	 1965	80.49	8.276	6.378	4.946	3.784	3.485	3.144	2.947	2.604	2.623	2.432	2.175	2.355	1.964	1.807	2.084	1.707	1.396	1.741	1.215	1.829	1.488	1.711	1.837	1.809	2.196	1.540	1.413	1.840	1.779	1.838	1.402	2.067	1.841	1.490	2.102	1.770	2.195	2.225	1.787	2.307	2.454	2.446	2.766	2.656	2.574	2.545	2.818	2.809	3.511	3.262	2.057	1.511	1.748
330.0	143.8	247.2	392.2	303.6	158.0	117.5	125.0	164.6	228.0	307.9	413.5	492.3	517.2	517.2	493.0	557.2	445.1	176.2	107.0	246.2	 1180	 4533	 8355	 5104	131.0	10.37	6.720	5.543	4.762	3.863	3.234	3.218	2.772	2.373	2.267	2.353	1.993	1.963	2.016	1.818	1.921	1.798	1.701	1.728	1.999	2.330	2.159	2.249	2.444	2.028	1.503	1.677	1.595	1.697	1.800	1.941	1.993	1.723	1.673	2.059	1.996	2.122	2.233	2.323	2.582	2.623	2.635	2.697	2.503	2.394	2.223	2.506	2.668	2.931	2.855	2.690	1.971
335.0	170.7	295.2	412.4	338.9	191.3	124.3	136.9	188.2	232.4	317.0	423.3	508.0	540.8	532.0	447.1	374.1	448.3	396.9	129.4	112.8	312.0	 1051	 2613	 9189	 7278	181.1	10.07	7.634	5.955	4.458	3.641	3.362	3.532	2.791	2.754	1.890	2.174	2.025	1.829	1.759	1.957	2.243	1.695	1.856	2.011	1.859	2.179	2.497	2.365	2.156	1.561	1.594	1.563	1.735	1.774	1.795	2.165	1.414	1.871	1.953	2.449	2.214	2.308	2.103	2.372	2.511	3.075	2.290	2.263	2.479	2.551	2.122	2.260	2.142	2.187	2.685	3.057
340.0	160.3	294.9	435.0	359.5	186.5	141.7	145.2	189.2	242.4	342.0	414.8	501.2	529.3	516.3	439.8	324.0	313.5	458.2	270.0	99.70	123.1	280.1	621.4	 3636	9999.9	 5175	126.5	8.924	7.117	4.696	4.603	3.623	3.404	3.209	2.952	2.184	2.160	2.197	2.021	2.245	1.884	2.129	1.595	1.754	1.783	1.899	2.312	2.635	2.663	2.208	1.649	1.715	1.735	1.593	1.451	1.869	2.082	1.728	2.302	2.382	2.239	2.443	2.339	2.438	2.148	2.153	2.683	2.584	2.104	2.421	2.531	2.131	2.622	1.919	1.715	2.312	2.460
345.0	119.6	274.3	416.7	350.3	197.1	141.9	156.8	179.9	241.4	313.8	387.2	464.4	503.1	484.3	418.9	315.3	236.2	332.6	408.9	161.9	87.60	110.2	174.7	873.8	 5026	9999.9	 1625	68.57	9.092	6.010	5.311	4.128	3.406	3.037	2.899	2.789	2.547	2.378	2.307	2.065	1.714	1.935	1.597	1.763	1.921	1.821	2.413	2.419	2.317	2.544	1.886	2.031	2.074	1.897	1.684	1.572	1.819	2.060	1.992	2.078	2.140	2.409	2.519	2.416	2.191	2.533	2.243	2.419	2.512	2.249	2.366	2.045	2.442	2.044	1.624	2.093	2.090
350.0	119.7	222.4	360.8	317.4	189.8	159.7	156.9	189.1	234.3	289.7	355.2	419.3	443.2	449.1	398.4	298.2	225.2	213.1	306.3	325.1	156.5	85.04	85.33	229.5	 1216	 4732	 7959	 4539	112.1	9.610	6.339	4.550	4.216	3.296	3.175	2.301	2.474	2.428	2.348	2.132	2.055	1.799	1.542	2.160	1.788	1.700	2.114	1.960	2.022	2.004	1.777	2.038	1.567	1.597	1.582	1.726	1.691	1.740	2.140	2.327	2.286	2.248	2.208	2.414	2.094	2.539	2.179	2.320	2.509	2.437	2.165	1.873	2.364	1.889	1.779	1.851	1.940
355.0	115.7	208.2	332.4	299.3	188.3	172.9	178.2	198.5	230.5	267.5	324.9	375.7	418.3	410.0	360.9	284.2	227.3	189.2	191.4	275.0	315.7	133.4	77.06	97.00	304.4	 1086	 2676	 8787	 6344	152.8	8.117	5.363	4.953	3.786	3.126	2.857	2.720	2.247	2.305	2.149	1.963	1.832	1.418	2.173	1.617	1.690	2.477	1.963	1.773	1.754	1.750	2.022	1.503	1.716	1.872	1.826	1.961	1.410	1.897	1.857	1.925	2.032	2.172	2.405	2.126	2.083	2.380	1.975	2.403	2.131	2.181	2.344	2.150	1.893	1.725	1.682	2.050
360.0	96.51	196.5	297.2	262.3	183.1	176.6	185.2	195.1	228.1	267.6	298.9	350.4	385.0	374.2	342.9	277.5	228.2	188.2	174.1	199.5	324.3	250.9	96.75	78.49	110.3	275.8	635.2	 3750	9999.9	 4547	101.1	8.437	6.088	4.871	3.244	2.667	3.379	2.423	2.547	2.043	1.556	1.740	1.706	1.968	2.022	1.694	1.784	2.023	1.947	1.452	1.741	1.880	1.646	1.652	1.536	1.954	2.253	1.813	2.175	2.091	1.927	2.252	2.509	1.906	2.102	2.023	2.080	1.928	1.958	2.117	2.218	1.902	1.690	2.032	2.002	1.829	1.913
365.0	104.9	166.1	264.1	232.8	194.2	185.5	187.7	196.2	227.1	266.9	291.2	336.8	357.4	357.9	311.9	279.8	239.6	196.6	171.8	172.1	235.0	325.2	173.6	83.58	76.25	101.3	175.8	909.8	 5218	9999.9	 1421	48.13	7.408	5.136	3.922	3.790	2.982	2.883	2.417	2.148	2.039	1.721	1.971	1.864	1.999	1.786	1.526	2.021	2.016	1.847	1.743	1.561	1.473	1.475	1.850	2.121	1.989	1.901	1.950	2.093	1.934	2.464	2.305	2.180	2.126	2.066	1.868	2.060	2.107	2.002	2.194	1.957	1.789	2.018	1.802	1.891	2.030
370.0	100.1	163.4	212.9	210.4	192.4	192.3	192.6	197.9	224.3	255.9	282.1	312.9	334.3	330.0	306.6	269.3	235.0	208.4	195.9	175.7	179.2	247.4	278.8	161.4	87.12	77.56	80.98	236.4	 1269	 5027	 7970	 4135	88.03	7.242	5.003	3.862	3.323	3.150	2.553	2.669	2.241	1.862	2.010	2.002	1.765	1.745	1.587	1.840	1.818	1.627	1.584	1.725	1.797	1.693	1.648	1.924	1.674	2.028	1.849	1.961	1.979	2.393	1.994	2.175	2.253	2.230	2.251	2.118	2.252	2.138	2.225	1.946	1.829	2.084	2.036	1.890	1.921
375.0	97.03	145.1	177.9	197.0	193.8	206.0	195.4	217.6	234.1	251.2	274.6	296.5	307.2	307.2	312.8	263.7	237.9	219.2	208.4	193.3	181.1	184.9	228.9	280.0	148.6	84.11	69.24	94.20	313.6	 1148	 2902	 9049	 5442	113.6	7.680	5.194	3.814	3.862	2.446	2.899	1.900	1.870	1.882	2.171	1.784	1.527	1.585	2.048	1.597	1.635	1.413	1.687	1.684	1.564	1.447	2.017	1.720	1.799	1.829	1.599	2.167	2.330	2.249	2.176	2.160	2.241	2.408	1.953	2.187	2.308	1.861	1.897	1.990	1.717	2.165	1.985	2.002
380.0	94.76	143.1	177.9	192.9	199.3	191.6	206.4	216.7	233.1	240.9	271.3	282.1	300.7	296.2	297.2	258.7	240.4	239.6	213.2	204.7	190.9	174.6	185.5	269.0	230.0	109.9	74.57	68.88	110.1	285.7	686.2	 4223	9999.9	 1294	68.89	5.923	4.742	3.449	3.130	2.353	2.242	2.329	1.741	2.038	1.794	1.701	1.539	2.065	1.971	1.694	1.378	1.740	1.854	1.918	1.736	2.225	2.301	1.860	1.790	1.612	2.105	2.080	2.313	2.342	2.293	1.880	2.406	1.776	2.444	2.200	1.899	2.127	1.795	1.596	1.774	1.768	2.115
385.0	94.31	113.0	183.9	198.6	199.5	195.0	207.2	212.5	220.1	255.3	276.9	266.9	283.4	288.0	291.3	263.0	241.2	236.4	217.3	213.7	200.0	179.6	174.2	206.6	276.6	174.6	92.48	71.66	69.00	96.92	179.7	 1042	 5797	 8578	 1062	22.11	5.478	4.383	3.176	2.799	2.436	2.044	2.210	1.867	1.942	2.009	1.614	1.928	1.822	1.480	1.659	1.925	1.745	1.916	1.790	1.976	2.069	1.942	1.760	2.014	1.984	1.797	1.846	1.985	2.525	2.065	2.005	1.897	2.034	1.893	1.887	2.325	2.050	1.961	1.970	1.913	1.685
390.0	92.82	119.6	175.0	186.3	189.2	211.7	221.1	217.2	230.1	248.0	265.5	268.0	274.1	284.4	278.1	259.8	249.6	229.4	228.9	217.8	206.4	194.2	178.5	181.2	215.2	239.9	160.9	89.58	71.40	64.50	73.33	258.4	 1440	 4711	 6841	 2741	64.25	5.761	4.040	3.220	2.866	2.622	2.331	2.198	2.187	2.000	1.806	1.921	1.672	1.611	1.379	1.955	1.913	1.872	2.122	1.837	1.865	1.890	1.909	1.846	1.988	1.864	2.024	1.817	2.232	1.999	2.231	1.881	1.929	1.796	1.959	1.958	2.013	2.188	2.062	2.248	2.021
395.0	83.92	122.2	151.1	187.6	202.6	208.3	193.2	232.4	230.9	260.3	272.7	265.5	273.7	287.1	274.1	250.5	248.0	233.4	227.9	224.0	210.9	206.4	188.5	177.2	170.7	202.8	239.4	138.1	83.28	66.55	58.23	91.49	345.7	 1073	 2847	 7692	 3783	78.16	4.828	4.210	3.597	2.667	2.193	2.202	2.250	2.005	1.985	1.712	1.703	1.579	1.470	1.881	1.853	1.521	2.004	1.875	2.014	2.507	1.863	1.935	1.820	1.937	1.666	2.342	2.062	1.832	1.979	2.334	2.071	2.008	2.487	2.176	1.914	2.067	1.587	2.015	2.255
400.0	87.69	108.4	152.9	177.9	203.4	206.9	200.2	252.8	245.5	262.8	270.7	262.6	271.6	280.7	274.8	252.1	234.2	243.3	230.2	224.9	217.8	205.2	196.3	179.1	171.0	167.7	225.1	200.4	112.3	78.56	60.75	58.41	105.3	260.0	681.6	 4039	 7889	 1045	45.82	4.837	3.905	3.114	2.453	1.436	2.092	2.148	1.894	1.757	1.531	1.568	1.687	1.931	1.810	1.744	1.928	1.798	2.311	2.228	1.797	2.249	1.980	1.833	1.962	2.149	2.138	1.890	1.795	1.854	2.125	1.967	2.194	2.217	1.976	2.315	2.063	2.083	2.065
405.0	92.35	122.5	150.8	164.6	181.3	203.5	218.6	245.0	249.3	262.6	265.8	270.7	271.5	272.1	266.1	257.6	237.5	240.0	233.2	222.5	218.5	208.7	202.5	182.0	174.3	158.2	178.0	231.3	162.9	92.92	69.23	55.45	57.23	81.68	171.1	 1025	 4974	 6696	843.6	14.88	4.304	3.937	2.622	2.393	2.357	1.955	1.815	1.771	1.727	1.642	1.730	1.896	2.146	2.022	2.027	1.838	2.203	2.152	1.872	2.067	2.000	1.736	2.110	1.647	1.840	1.725	1.771	1.725	1.974	2.064	1.928	1.937	2.043	2.355	2.473	1.841	1.983
410.0	78.63	113.4	150.1	175.3	186.6	198.8	222.0	231.4	250.1	266.6	264.5	264.6	270.7	260.5	261.0	249.5	236.2	233.1	229.2	220.6	218.2	206.9	198.5	186.7	178.1	163.4	157.1	181.5	211.8	143.3	85.81	63.94	52.85	47.66	60.43	245.3	 1265	 4017	 5470	 2103	52.11	4.216	3.530	2.998	2.389	2.101	2.018	2.160	1.932	1.765	1.770	2.021	1.896	1.953	1.980	1.901	2.168	2.119	2.013	1.956	2.071	1.959	1.984	1.874	1.925	2.187	1.832	2.168	1.641	1.991	1.960	1.784	2.089	1.900	2.049	1.960	2.013
415.0	84.04	115.3	138.9	153.8	187.0	219.3	212.2	225.1	254.1	256.6	260.0	264.4	274.0	257.1	247.2	246.2	227.3	223.4	218.8	217.2	213.5	203.9	196.3	186.8	176.1	166.2	158.5	155.0	174.6	202.2	128.3	75.22	56.17	45.49	39.04	74.31	297.3	913.5	 2397	 6076	 2858	68.37	4.192	3.494	2.803	2.249	1.865	1.968	2.283	1.909	1.484	2.000	1.776	2.297	2.196	1.880	2.070	2.087	1.820	1.881	2.276	1.905	2.157	1.733	1.940	1.829	1.759	1.955	1.786	1.826	1.632	1.672	1.730	1.844	1.881	1.885	1.871
420.0	82.68	118.2	127.9	163.7	170.4	215.2	222.2	236.7	254.2	270.0	268.3	264.3	251.1	262.4	239.1	237.8	222.2	214.6	212.0	211.0	208.9	198.3	196.2	191.1	178.3	168.0	157.9	148.4	146.4	190.0	174.1	95.71	64.34	49.69	37.73	37.90	82.75	217.4	576.1	 3320	 6186	916.8	31.62	4.398	3.482	2.663	2.164	2.256	2.287	1.731	1.997	2.271	1.752	2.087	2.212	2.164	1.847	1.870	2.173	1.952	1.954	1.839	1.869	2.040	1.656	2.003	1.757	1.563	2.203	2.181	1.825	1.896	1.817	1.878	1.785	1.808	1.634
425.0	78.61	107.6	125.6	170.4	186.2	202.9	213.8	245.3	246.1	258.8	259.6	254.6	268.5	250.7	238.8	224.5	210.9	216.4	207.5	211.3	201.2	195.1	190.3	187.7	176.1	170.3	161.8	150.8	140.9	155.7	183.7	131.6	74.42	54.00	41.69	32.42	37.89	63.02	141.2	856.7	 4053	 5251	687.0	10.23	4.051	2.835	2.362	2.364	2.283	1.747	1.848	2.105	1.881	1.998	2.014	1.775	2.094	1.973	1.999	1.785	2.485	1.616	2.048	1.907	1.914	1.910	2.067	1.707	2.006	2.054	1.846	1.423	1.754	2.019	1.833	1.558	1.597
430.0	93.23	89.07	123.3	167.5	187.8	198.3	222.5	233.8	260.9	267.3	266.4	256.0	258.1	251.5	235.5	221.3	210.1	201.6	201.5	198.6	194.5	192.0	187.8	184.1	177.5	171.6	161.2	152.2	142.8	136.9	151.4	164.6	110.9	66.70	50.36	36.58	32.66	31.75	45.95	203.1	 1040	 3173	 4360	 1651	44.67	4.031	2.914	2.699	2.126	1.828	1.822	2.004	2.215	1.509	2.212	2.161	2.281	2.070	1.913	1.825	2.281	2.066	1.923	2.319	2.016	2.021	1.970	1.785	1.977	1.898	1.750	1.624	1.628	1.814	1.877	1.800	1.876
435.0	166.1	87.78	116.9	161.1	189.2	199.4	216.5	234.3	258.2	264.9	264.5	271.7	259.5	245.9	234.4	218.9	202.7	197.1	195.3	189.1	185.4	182.2	186.7	177.8	176.5	164.6	162.6	154.8	147.5	138.3	131.7	142.0	149.2	94.10	58.50	45.27	34.76	29.65	26.76	59.21	242.7	723.6	 2069	 5162	902.3	56.31	3.986	3.366	2.289	1.902	2.005	1.917	2.262	1.928	1.954	1.681	2.189	2.102	2.010	1.967	2.121	1.720	1.855	1.822	2.092	1.970	1.867	1.921	1.778	1.621	1.808	2.090	1.581	1.803	1.935	1.860	1.975
440.0	240.9	159.4	126.8	182.6	165.7	197.5	228.4	235.0	270.6	264.7	276.1	284.3	255.6	244.9	221.2	212.7	207.8	193.8	189.4	182.0	180.7	180.5	179.3	169.6	168.0	164.1	160.8	157.5	147.3	138.1	127.5	121.6	141.4	124.4	71.79	49.68	39.12	31.65	27.69	29.42	67.23	171.4	501.5	 2954	 5091	800.5	27.37	3.521	2.703	2.152	2.375	2.028	2.047	2.078	1.856	2.016	2.245	2.072	2.006	2.372	1.933	1.987	1.857	1.770	2.119	2.001	2.061	1.641	1.525	2.024	1.671	1.614	1.433	1.638	1.960	1.690	1.708
445.0	213.6	284.2	128.6	155.2	176.5	206.9	208.4	234.3	268.5	275.9	277.7	277.6	250.8	240.3	220.7	208.1	201.3	185.4	176.6	179.6	174.1	177.5	173.6	171.2	166.5	166.4	160.2	161.1	146.5	135.4	125.8	113.8	119.0	136.2	99.22	56.81	43.14	33.92	28.41	24.11	29.67	49.52	122.4	770.9	 3660	 4791	576.6	9.896	3.184	2.468	2.467	2.413	1.897	2.466	1.873	2.077	2.375	2.028	2.204	2.006	2.026	2.137	2.257	2.109	2.125	2.089	2.208	1.889	1.497	1.789	1.846	2.011	1.735	1.884	1.890	2.089	1.858
450.0	125.5	426.8	294.1	149.4	173.4	188.6	195.5	223.6	252.9	265.9	281.2	268.3	244.6	231.3	216.3	200.9	183.1	175.3	170.1	168.7	164.5	164.0	162.1	160.8	159.0	158.7	152.9	148.6	145.7	138.3	125.3	114.5	105.1	110.0	115.4	78.31	49.13	37.34	30.64	25.19	23.18	23.58	38.64	181.3	952.6	 3106	 4275	 1560	37.39	3.254	2.813	2.635	2.482	2.115	2.027	2.096	2.422	2.240	2.199	2.053	2.139	2.016	1.911	1.993	1.961	2.213	2.038	1.841	1.583	1.724	1.810	1.651	1.781	1.937	1.843	1.659	1.690
455.0	83.70	316.7	693.4	167.8	156.6	177.7	204.4	223.6	225.1	239.6	248.3	243.6	227.9	214.4	203.4	182.1	171.4	162.2	159.2	156.8	152.3	154.4	150.9	149.4	149.3	148.5	144.1	139.4	138.2	134.3	121.1	111.9	97.88	91.48	96.68	99.73	64.12	41.10	34.04	26.61	24.34	19.80	19.96	50.10	220.4	708.9	 1999	 4897	727.9	40.55	3.009	2.722	2.410	2.585	2.139	2.415	2.340	2.464	2.205	2.248	2.413	2.568	2.020	1.858	1.798	1.889	1.743	1.717	1.579	1.717	1.709	1.772	1.898	1.861	1.953	1.733	1.556
460.0	73.15	164.7	832.4	421.4	155.3	159.3	197.8	213.7	232.2	234.3	238.8	241.8	227.0	209.6	197.4	170.5	166.4	152.0	155.6	146.9	143.6	142.2	134.7	136.5	143.2	135.3	136.0	133.5	133.2	129.3	116.8	109.1	96.14	88.94	81.13	93.54	82.88	48.41	32.98	28.23	23.92	20.54	16.83	20.97	57.84	166.1	484.8	 2817	 4600	588.0	21.62	3.794	3.035	2.713	2.308	2.223	2.378	2.044	2.297	2.266	2.010	1.990	1.989	1.883	2.300	1.872	2.035	1.865	1.760	1.869	1.862	1.802	1.445	1.722	1.698	1.873	1.741
465.0	80.80	106.2	635.7	863.2	164.1	146.8	170.0	197.1	217.8	224.8	236.5	224.3	222.1	208.3	190.5	164.5	152.7	147.3	142.2	136.7	135.3	132.6	130.3	127.8	130.4	129.9	128.6	128.9	126.8	123.0	112.3	105.5	97.02	84.47	74.41	77.67	87.02	61.47	37.04	29.62	24.08	20.22	18.00	15.38	21.77	45.13	115.6	732.8	 3409	 4023	471.5	7.691	3.301	2.881	2.715	2.528	2.359	2.054	2.249	2.517	2.113	2.087	1.947	1.795	2.064	1.855	1.677	1.795	1.654	1.504	1.764	1.812	1.662	1.870	1.499	1.970	1.948
470.0	76.40	89.12	294.2	 1046	519.6	137.4	164.2	188.4	202.5	220.3	220.3	217.8	211.9	193.1	171.1	153.3	141.2	135.6	130.7	124.6	122.7	119.1	121.2	121.7	117.9	118.5	116.6	118.1	116.4	114.0	109.1	100.3	88.62	78.34	69.20	63.75	66.86	70.77	48.04	32.82	24.75	20.67	17.67	14.54	14.48	17.99	32.77	170.1	886.6	 2719	 3204	 1180	33.40	3.528	2.614	2.703	2.700	2.224	2.346	2.059	2.326	2.236	2.260	2.170	1.922	1.946	1.841	1.623	1.496	1.741	1.696	1.567	1.647	1.448	1.519	1.567	1.626
475.0	65.62	85.24	149.4	623.4	 1153	222.4	148.3	167.6	189.7	199.4	216.1	202.5	194.1	172.3	159.0	139.8	132.3	127.1	116.5	109.4	112.1	109.0	109.6	105.4	103.6	107.1	105.2	100.1	106.3	103.5	104.7	94.04	82.69	71.11	65.83	58.35	52.75	58.24	60.17	41.99	26.91	22.47	17.87	15.51	13.70	12.88	13.65	44.01	203.5	618.2	 1531	 3549	701.2	40.67	3.225	2.737	2.598	2.439	2.226	2.047	2.084	1.977	2.102	2.103	1.815	1.655	1.962	1.858	1.892	1.663	1.619	1.562	1.813	1.505	1.370	1.626	1.733
480.0	66.78	78.24	94.81	271.2	 1332	565.6	133.8	166.4	166.7	187.8	202.6	191.2	181.6	160.0	148.8	132.7	119.1	115.4	109.2	101.3	101.0	102.8	99.74	96.33	96.45	100.4	98.82	98.66	99.68	97.64	96.34	86.44	78.93	69.94	64.66	56.11	50.09	45.64	56.95	48.63	31.47	22.50	18.58	16.76	14.25	12.46	10.49	15.73	51.16	143.3	373.9	 2032	 3405	623.3	16.41	2.913	2.742	2.264	2.203	2.064	2.086	1.884	1.921	2.117	1.799	1.612	1.450	1.753	1.651	1.302	1.547	1.444	1.599	1.260	1.604	1.545	1.478
485.0	57.17	70.26	77.38	139.5	974.7	 1141	153.1	148.2	160.8	162.2	181.5	183.0	167.9	157.8	140.1	134.2	112.2	109.1	104.9	96.27	97.18	92.78	92.87	92.88	90.37	90.92	93.25	90.56	94.45	90.46	88.43	82.58	77.33	66.44	61.85	53.97	47.84	42.25	45.51	51.53	37.27	24.18	18.32	16.22	14.34	12.08	10.63	9.987	17.80	37.04	88.49	535.2	 2484	 3072	97.02	6.913	2.903	2.393	2.416	2.306	2.214	2.182	1.801	2.047	1.767	1.665	1.553	1.913	1.772	1.286	1.565	1.229	1.739	1.708	1.956	1.403	1.218
490.0	61.85	72.09	92.82	96.54	377.3	 1377	657.7	142.4	150.2	166.5	173.0	169.7	159.2	145.1	131.2	116.9	109.7	102.0	91.76	89.11	87.32	85.22	82.88	84.79	84.68	84.08	86.27	84.54	84.65	84.16	80.11	77.04	70.15	64.52	56.71	50.80	45.49	40.27	37.15	41.71	43.91	30.83	19.74	17.91	14.16	12.03	10.87	9.101	10.66	13.73	24.46	124.1	641.3	 1925	 2623	 1061	34.45	3.026	2.782	2.334	2.071	2.214	2.109	1.941	1.710	1.751	1.908	1.723	1.791	1.705	1.689	1.541	1.682	1.546	1.731	1.536	1.490
495.0	50.89	77.21	98.34	92.41	159.1	749.6	 1568	275.3	143.5	150.3	159.2	160.2	139.1	137.8	124.9	105.4	93.40	89.48	83.85	82.57	80.24	75.59	76.25	77.07	73.27	77.74	75.71	76.33	75.20	75.30	72.53	69.07	64.96	59.24	52.87	47.55	43.62	38.40	34.47	33.39	35.86	39.00	25.57	18.79	14.67	12.50	11.77	8.917	9.798	8.709	11.00	31.80	146.2	437.2	 1244	 3213	748.6	39.27	3.594	2.529	2.422	2.432	2.277	1.833	1.707	1.761	1.774	1.243	1.434	1.647	1.771	1.745	1.667	1.563	1.608	1.770	1.524
500.0	64.61	60.17	96.62	94.95	99.02	293.0	 1696	757.7	138.8	132.3	147.3	154.0	138.1	121.6	119.4	100.1	90.64	83.58	79.52	73.10	74.31	69.52	70.82	67.38	69.61	72.96	71.41	70.82	69.65	69.37	69.22	62.37	60.55	53.83	49.96	44.67	40.27	36.18	30.55	27.42	30.73	36.95	30.90	20.30	14.81	13.51	11.72	9.161	8.879	7.490	7.720	11.70	36.48	101.4	299.2	 1778	 3197	623.8	16.70	2.771	2.425	2.373	2.160	1.860	1.442	1.411	1.417	1.478	1.675	1.593	1.597	1.608	1.559	1.434	1.464	1.511	1.368
505.0	63.27	64.44	82.35	100.0	91.87	153.3	 1152	 1543	187.4	135.3	136.2	136.3	125.0	115.9	106.8	88.73	80.68	79.42	68.30	66.37	68.43	65.78	60.49	63.19	63.48	66.47	63.03	66.02	66.49	64.94	63.47	56.78	57.27	51.10	46.47	40.05	37.83	33.49	28.72	26.11	25.92	27.83	34.19	24.39	15.52	12.78	11.18	9.193	9.219	8.213	6.667	6.965	12.06	26.88	70.91	455.0	 2265	 2928	101.3	5.579	2.846	2.372	2.328	1.681	1.553	1.546	1.278	1.527	1.813	1.402	1.409	1.490	1.741	1.393	1.785	1.374	1.628
510.0	64.26	63.01	70.24	107.7	91.39	98.10	409.9	 1806	898.4	130.7	126.4	121.5	116.0	102.7	90.32	81.45	75.20	68.95	64.31	62.18	58.48	58.75	55.48	55.37	55.53	56.37	56.33	56.58	57.21	58.11	56.97	54.06	49.55	47.02	41.94	38.19	34.18	30.69	27.88	24.69	23.02	22.36	26.52	27.14	20.16	13.69	10.83	9.780	8.837	7.867	7.144	6.277	6.734	9.765	19.66	105.5	578.4	 1786	 2308	876.9	31.98	2.591	2.147	1.868	2.002	1.629	1.475	1.513	1.765	1.359	1.238	1.442	1.600	1.350	1.216	1.318	1.391
515.0	49.24	54.30	54.50	97.71	99.85	83.30	154.6	886.0	 2096	317.5	110.7	111.1	105.0	97.37	80.38	73.29	63.52	61.74	57.39	54.23	52.66	51.70	48.85	48.35	49.39	51.51	49.49	52.12	49.27	50.63	51.19	46.44	43.22	42.17	37.36	33.44	31.08	29.22	24.41	23.64	20.49	19.20	19.65	22.40	24.22	15.82	12.35	9.494	8.718	7.439	6.522	6.284	5.464	5.665	7.699	26.69	131.5	404.5	 1036	 2608	715.2	33.80	2.605	1.965	1.970	1.710	1.329	1.844	1.446	1.400	1.565	1.212	1.512	1.279	1.299	1.404	1.226
520.0	48.29	39.30	55.79	79.91	109.4	95.96	91.27	307.9	 2093	998.1	103.1	99.26	93.37	86.86	75.44	65.58	60.16	55.78	52.00	49.89	47.18	46.55	44.79	44.54	44.55	45.08	45.85	45.22	44.68	44.83	43.41	41.27	40.26	38.22	35.16	31.36	26.93	25.35	23.42	20.17	17.61	17.54	15.78	17.86	23.11	20.24	13.07	9.531	8.071	6.712	6.581	5.973	5.492	4.805	4.946	9.306	32.28	93.23	248.7	 1412	 2482	558.1	12.01	2.462	2.254	1.663	1.711	1.516	1.794	1.326	1.597	1.130	1.085	1.317	1.533	1.133	1.085
525.0	56.04	58.50	53.84	68.13	102.2	93.58	75.34	131.8	 1244	 2151	176.9	93.55	83.25	77.78	69.89	60.80	52.79	51.32	47.16	44.53	41.39	40.57	40.46	41.12	39.32	40.66	40.94	43.36	43.01	39.85	41.44	38.37	36.38	32.76	32.13	28.20	24.37	23.93	21.62	19.64	18.28	15.48	14.33	14.55	17.83	21.58	15.34	10.37	8.315	6.701	6.513	6.281	5.461	4.766	4.145	4.516	10.57	23.69	58.78	359.0	 1675	 2177	97.84	4.264	2.388	1.858	1.494	1.892	1.740	1.302	1.155	1.092	1.343	1.373	1.479	1.296	1.275
530.0	50.27	57.00	53.78	57.42	78.11	106.3	75.44	76.95	398.3	 2131	 1125	93.14	73.99	71.31	62.67	53.70	48.95	45.48	43.52	37.51	38.41	34.99	36.63	36.37	35.15	34.25	36.60	36.93	36.12	35.61	35.90	32.82	33.10	30.32	27.91	26.14	22.47	21.87	19.17	17.67	17.02	15.21	13.04	12.68	13.25	16.65	18.08	12.62	7.917	6.421	6.034	5.700	5.167	4.612	4.245	4.000	5.356	8.105	15.93	82.73	423.5	 1296	 1661	418.8	27.41	2.162	1.873	1.493	1.498	1.186	1.243	1.370	1.517	1.250	1.247	1.217	1.413
535.0	39.42	44.26	56.35	52.03	58.77	100.4	88.81	64.21	143.5	844.4	 2429	352.1	70.02	65.28	51.66	49.30	42.69	38.03	36.74	33.23	32.53	31.76	32.98	30.00	30.36	28.54	32.78	31.13	30.14	28.83	30.23	29.31	27.92	25.61	24.46	23.26	20.77	19.06	17.75	15.71	13.87	12.60	12.01	10.36	11.17	11.69	14.73	15.01	9.279	5.956	5.045	5.052	4.800	4.481	3.959	3.988	3.716	4.327	5.704	20.47	96.83	292.8	717.8	 1795	640.8	24.18	2.054	1.935	1.281	1.290	1.007	1.312	1.226	1.346	1.231	1.333	1.287
540.0	50.69	52.87	41.90	54.28	47.65	70.58	109.4	67.61	82.04	257.4	 2154	975.7	64.88	54.14	45.31	46.10	40.42	36.80	32.09	30.98	29.06	29.41	27.81	25.23	26.98	27.40	30.02	27.33	27.80	26.38	27.74	27.51	25.07	23.22	23.02	20.56	19.82	16.76	16.51	14.55	12.82	11.97	11.28	9.694	9.713	9.524	11.35	14.61	11.91	7.032	5.291	4.932	4.664	3.893	3.940	4.132	3.245	3.387	3.440	6.608	23.75	67.75	170.6	965.1	 1789	449.3	7.448	1.651	1.523	1.427	1.228	1.371	1.594	1.219	0.968	1.370	1.387
545.0	49.95	46.21	47.75	45.59	47.10	59.70	103.5	70.37	61.72	105.7	 1135	 2146	161.7	49.01	44.55	38.44	35.38	33.88	28.40	29.71	26.18	26.88	23.86	22.46	24.34	24.86	24.81	24.58	25.20	23.58	23.10	24.11	22.93	20.21	20.14	18.13	16.91	15.56	15.37	12.96	11.38	10.54	10.74	8.689	9.128	8.694	9.367	11.57	12.85	8.678	5.456	4.525	4.487	3.591	4.080	3.476	3.487	3.077	2.782	3.455	7.295	17.14	40.22	244.4	 1206	 1517	89.51	2.487	1.752	1.498	1.459	1.378	1.416	1.162	0.976	1.146	1.233
550.0	56.23	46.98	47.29	44.01	44.59	39.72	81.52	87.55	58.99	62.23	339.7	 1932	 1148	62.46	37.53	35.37	31.84	28.78	25.27	25.72	22.01	22.43	21.26	21.76	20.18	21.68	21.30	20.32	20.89	21.61	19.81	21.69	19.27	17.41	17.16	15.40	14.18	13.66	12.50	10.76	10.42	9.371	9.364	8.608	7.972	7.908	7.548	7.938	10.20	10.01	6.604	4.521	3.759	3.869	3.511	3.368	3.077	3.174	3.010	2.834	3.707	5.632	10.82	56.57	307.7	931.5	979.3	359.8	18.24	1.462	1.526	1.356	1.260	1.004	1.028	1.326	1.320
555.0	59.94	47.85	47.45	47.99	46.66	35.81	51.34	89.84	63.72	52.81	120.7	677.9	 2257	345.4	35.15	29.95	26.43	24.59	22.25	23.14	21.13	19.24	18.89	17.82	18.31	17.19	16.49	17.72	16.47	17.67	17.29	17.14	15.36	14.20	14.28	13.54	13.07	10.90	10.80	9.557	9.815	7.569	8.091	7.362	6.748	6.412	6.280	5.733	6.208	8.409	8.118	5.154	3.666	3.106	3.417	3.100	2.634	2.682	3.166	2.456	2.600	3.157	3.996	14.23	70.35	211.0	489.3	 1246	455.6	11.25	1.559	1.582	1.321	1.170	0.982	1.224	1.200
560.0	49.62	50.11	45.65	42.14	45.45	30.92	38.13	84.01	86.83	41.70	61.29	198.2	 1899	793.0	34.01	27.72	23.36	21.53	18.27	19.90	17.00	18.21	14.60	15.58	15.45	14.41	14.13	15.83	15.95	14.29	13.81	14.72	12.70	12.37	11.52	11.92	10.79	9.943	9.403	8.451	8.603	6.660	6.899	6.841	5.633	5.658	5.492	5.450	4.732	6.145	7.678	6.032	3.655	2.860	3.072	2.861	2.348	2.615	2.692	2.928	2.117	2.168	2.395	4.809	17.43	48.75	119.6	706.0	 1118	97.84	3.359	1.367	1.574	1.197	1.472	1.066	1.235
565.0	39.75	52.85	33.11	39.67	43.62	38.22	31.60	58.36	100.9	45.71	45.61	78.88	907.9	 1962	121.9	23.82	21.01	19.53	18.81	16.77	16.19	14.15	14.50	12.98	12.32	13.64	13.46	12.59	14.00	12.06	12.52	13.05	10.81	11.07	10.53	9.420	9.416	8.631	8.141	7.404	7.046	6.015	5.807	5.972	5.274	5.457	4.990	4.595	4.386	4.301	6.476	6.194	3.817	3.069	2.787	2.844	2.218	2.564	2.179	2.849	2.543	2.121	1.997	2.618	5.424	12.38	28.38	185.2	805.1	770.5	71.21	1.819	1.629	1.211	1.614	1.035	1.507
570.0	41.64	53.65	33.24	37.98	31.35	30.18	33.47	37.51	82.11	61.00	39.80	47.78	255.0	 1694	969.2	31.00	18.57	17.67	15.25	15.03	13.39	11.58	12.76	11.53	10.15	11.15	10.86	10.87	11.11	10.78	10.30	10.66	9.334	9.262	8.611	8.104	7.329	7.023	6.982	6.605	6.216	5.313	4.512	4.635	4.972	4.374	4.268	3.794	3.581	3.210	4.038	5.041	4.742	3.399	2.599	2.394	1.985	2.296	1.969	1.931	2.346	1.892	1.674	1.921	2.602	4.042	7.677	42.67	210.8	550.0	658.5	218.5	9.123	1.472	1.453	1.270	1.352
575.0	39.64	41.73	36.29	39.98	26.68	26.34	25.86	31.48	54.67	93.50	42.52	38.32	83.47	559.3	 1951	239.3	17.76	12.56	14.16	12.42	10.05	10.84	10.43	9.521	8.887	8.278	8.633	9.708	9.025	9.415	8.847	9.653	8.463	7.479	7.565	6.770	6.354	5.837	5.650	6.059	4.998	3.931	3.959	4.593	3.899	3.861	3.488	3.360	3.559	2.411	2.947	3.406	4.859	3.732	2.559	1.907	1.976	2.223	2.206	1.536	1.832	2.328	1.882	1.702	1.928	2.086	2.659	10.69	48.26	125.9	331.0	725.3	100.9	5.423	1.699	1.237	1.299
580.0	42.50	49.92	38.89	30.39	22.69	28.14	30.19	23.50	36.96	100.4	55.71	38.78	48.71	157.1	 1615	583.7	16.35	13.13	12.12	11.16	9.019	10.09	8.368	8.113	9.110	7.801	8.008	8.499	8.530	7.729	8.500	8.015	6.937	6.679	6.404	6.152	5.841	5.431	5.486	4.997	4.717	3.948	4.258	3.331	3.473	3.276	3.182	2.972	3.110	2.025	2.599	2.390	3.715	3.723	3.149	1.862	1.899	1.674	2.091	1.624	1.890	2.166	2.267	1.807	1.373	1.895	1.919	3.424	11.98	29.44	81.82	437.1	620.5	81.26	2.307	1.445	1.273
585.0	40.14	41.54	38.68	28.57	23.08	26.55	23.67	27.21	30.06	80.51	69.40	36.47	38.15	58.00	749.3	 1548	78.22	13.73	11.48	9.624	10.34	8.009	7.906	7.585	8.072	7.651	6.921	7.208	6.501	7.071	7.742	6.391	6.124	5.638	5.577	5.173	5.018	4.546	4.761	4.288	3.631	3.628	3.863	3.163	2.927	3.140	3.174	2.980	2.679	2.189	1.922	2.104	2.518	3.495	3.505	2.174	1.955	1.797	1.582	1.858	1.676	1.474	1.988	1.748	1.561	1.972	1.643	1.875	3.739	7.645	19.66	118.6	491.7	488.6	53.49	1.239	1.080
590.0	41.71	37.41	44.28	34.78	31.37	23.58	24.55	26.78	25.46	51.75	85.22	45.48	34.71	35.05	201.4	 1315	693.2	16.90	8.908	8.579	8.179	7.575	7.357	7.066	7.614	6.189	5.957	6.088	6.303	6.039	6.307	5.143	5.700	5.190	4.696	4.448	4.027	4.233	3.959	3.915	3.289	3.396	3.259	2.676	2.772	3.075	2.481	2.263	2.356	1.861	1.915	1.843	2.184	2.650	3.092	2.711	2.028	1.780	1.569	1.699	1.500	1.441	1.901	1.701	1.735	1.620	1.538	1.508	1.882	2.631	5.439	27.64	132.0	351.9	395.4	63.52	4.926
595.0	52.76	48.15	42.02	39.09	28.01	23.73	25.08	24.97	20.07	34.32	68.74	69.43	32.37	29.00	60.76	427.7	 1370	161.2	8.556	9.158	7.313	7.248	6.957	5.971	6.351	5.998	5.665	5.075	4.998	5.337	5.277	4.413	4.336	4.928	4.762	4.004	3.871	3.558	3.005	3.481	3.168	2.970	2.448	2.306	2.413	2.648	2.178	2.185	1.912	1.774	1.663	1.564	1.844	1.868	2.121	2.616	2.447	1.828	1.586	1.608	1.563	1.466	1.737	1.480	1.455	1.643	1.444	1.453	1.803	1.568	2.351	7.274	30.37	80.97	214.5	421.4	89.08
600.0	42.65	43.28	36.74	35.36	21.45	22.27	22.53	26.26	25.32	28.28	47.98	79.28	35.71	27.65	29.99	112.7	 1151	439.8	10.11	9.684	6.041	6.275	6.850	6.429	6.477	5.385	5.581	4.662	4.636	4.774	5.588	4.364	4.162	4.553	3.709	3.559	3.154	3.445	3.200	3.069	3.131	2.729	2.501	1.918	2.490	2.307	2.010	1.680	1.726	1.936	1.642	1.760	1.739	1.622	1.965	1.984	2.485	1.898	1.594	1.401	1.378	1.409	1.589	1.567	1.600	1.504	1.503	1.469	1.414	1.467	1.314	2.724	8.030	19.22	54.81	278.0	371.2
605.0	56.44	44.01	45.58	29.32	29.56	28.65	24.66	22.55	24.84	23.84	33.94	79.86	46.99	28.09	22.84	39.25	534.1	 1107	50.96	7.733	5.421	5.883	5.057	5.479	5.150	5.296	3.798	5.230	4.436	4.403	4.341	4.078	4.159	3.827	3.608	2.972	2.564	3.196	3.251	2.394	2.515	2.442	2.409	2.221	1.905	1.950	2.173	1.678	1.655	1.767	1.456	1.848	1.364	1.676	1.623	1.803	2.191	2.218	1.478	1.441	1.651	1.096	1.502	1.439	1.195	1.504	1.313	1.298	1.473	1.144	1.352	1.411	2.885	5.242	13.32	78.83	308.4
610.0	49.88	42.23	42.02	26.43	24.64	23.72	19.03	21.33	24.92	27.91	30.27	57.63	66.72	28.95	19.03	19.97	143.6	985.5	488.2	10.97	5.900	5.007	4.941	4.265	5.069	4.173	4.215	4.805	4.430	4.149	4.372	4.271	3.282	3.472	3.134	2.492	2.620	2.705	2.577	2.612	2.188	2.366	2.368	2.046	1.780	1.659	1.926	1.651	1.608	1.541	1.422	1.562	1.463	1.605	1.480	1.445	1.866	2.195	1.720	1.545	1.480	1.235	1.503	1.473	1.280	1.364	1.343	1.491	1.191	0.999	1.402	1.266	1.594	2.313	3.892	18.67	85.50
615.0	42.45	39.35	42.09	27.34	28.54	19.73	16.03	21.06	21.35	22.23	26.41	34.51	68.94	33.21	18.85	16.39	38.86	326.6	983.0	106.5	5.515	5.991	5.028	4.044	4.829	4.275	3.891	4.313	3.722	3.182	3.159	3.895	2.549	4.039	3.249	2.617	2.157	2.651	2.462	2.063	2.079	2.090	2.451	1.899	1.729	1.533	1.870	1.686	1.564	1.387	1.510	1.414	1.281	1.361	1.228	1.135	1.530	1.870	1.812	1.730	1.287	1.063	1.565	1.439	1.481	1.090	1.157	1.227	1.694	1.254	1.386	1.004	1.178	1.251	1.924	4.911	19.77
620.0	37.90	32.76	38.86	36.06	26.89	23.44	15.52	20.92	20.05	28.64	29.95	34.26	56.68	50.02	19.23	12.93	16.79	85.24	860.5	342.8	6.253	4.917	4.652	3.687	3.893	4.195	3.633	3.632	2.981	3.571	2.673	2.884	3.040	3.025	2.825	2.324	2.356	2.239	1.722	1.974	1.860	1.834	2.039	1.820	1.533	1.746	1.526	1.370	1.470	1.173	1.253	1.309	1.400	1.268	1.114	1.293	1.359	1.334	1.697	1.558	1.516	1.053	1.157	1.417	1.255	1.162	1.147	0.868	1.451	1.793	1.204	0.898	0.936	0.971	1.485	2.076	5.179
625.0	37.72	32.53	32.10	28.52	24.51	22.08	16.83	23.00	22.87	22.02	28.35	29.64	51.37	55.34	20.72	13.87	10.88	27.03	424.1	804.6	31.24	4.775	4.034	3.761	3.928	3.317	3.756	3.576	2.877	3.743	3.678	3.033	2.510	2.894	2.275	2.459	2.339	2.308	1.656	2.245	1.825	2.257	1.670	1.649	1.780	1.538	1.579	1.521	1.078	1.339	1.462	1.238	1.250	1.414	1.194	1.453	1.159	1.336	1.330	1.454	1.621	1.232	0.805	1.008	1.265	1.165	0.983	0.930	1.561	1.464	1.412	1.180	0.826	0.957	1.410	1.355	2.089
630.0	42.42	37.59	31.38	33.22	25.97	21.02	20.21	21.31	18.87	19.56	27.38	27.56	35.00	52.16	33.20	15.18	9.868	12.08	113.5	746.3	360.1	7.045	4.299	3.999	3.742	4.162	3.972	3.218	2.617	3.036	3.320	3.387	2.527	3.321	2.393	2.578	2.333	2.279	1.981	1.932	1.826	1.945	1.691	1.608	1.486	1.544	1.484	1.440	1.278	1.112	1.131	1.195	1.139	1.229	1.284	1.317	1.209	1.207	1.305	1.448	1.591	1.302	0.977	1.109	1.097	1.099	1.073	1.557	1.224	1.256	1.175	1.125	1.381	1.188	1.123	1.158	1.407
635.0	31.60	32.78	42.40	28.27	25.99	22.76	20.15	21.72	17.33	22.60	26.06	27.82	27.31	36.75	46.24	13.71	8.688	9.316	29.31	264.9	786.4	71.78	4.103	3.516	3.678	3.401	4.040	3.076	2.923	2.789	2.919	2.804	3.051	2.685	3.636	2.471	2.432	1.827	1.963	1.812	1.869	1.686	1.677	1.388	1.326	1.519	1.255	1.158	1.206	0.931	1.178	1.015	1.208	0.965	1.237	1.129	1.308	1.319	1.299	1.441	1.302	1.249	1.292	1.019	1.338	0.786	1.112	1.275	1.114	1.169	1.035	1.137	0.977	1.154	0.928	1.149	1.256
640.0	30.01	39.78	37.14	36.52	17.57	21.88	19.87	18.01	24.83	26.33	26.30	27.82	28.87	31.07	48.26	19.32	9.440	8.999	11.75	69.32	699.9	270.8	5.300	3.807	3.729	3.367	3.971	2.761	3.189	3.200	3.242	3.839	3.062	3.683	3.658	3.072	3.105	2.074	2.142	1.968	1.804	1.672	1.578	1.444	1.440	1.764	1.564	1.422	1.199	1.045	1.115	1.099	0.973	1.032	1.148	1.061	1.110	1.243	1.104	1.322	1.244	1.290	1.149	1.041	1.051	1.168	1.228	0.847	1.073	1.038	1.333	1.158	1.238	1.096	0.806	1.060	1.007
645.0	33.44	40.98	41.66	32.95	23.13	23.21	24.50	21.49	20.56	22.62	29.42	26.78	34.89	25.35	42.67	28.62	9.860	8.692	7.812	20.35	368.0	613.3	22.66	3.679	3.569	2.916	3.319	3.421	3.375	2.438	3.088	3.613	3.329	3.440	3.255	3.068	3.036	2.340	2.406	2.056	1.878	1.882	1.698	1.529	1.573	1.616	1.290	1.682	1.424	1.221	1.169	0.950	1.203	1.071	1.222	1.166	1.003	0.987	1.228	1.326	1.082	1.378	1.186	1.223	1.004	1.023	1.017	1.203	1.014	1.016	0.924	1.023	1.232	1.065	1.015	1.186	1.048
650.0	36.79	43.74	37.66	33.00	21.90	24.62	20.61	24.13	23.83	22.84	27.63	31.18	30.92	25.64	33.53	40.10	11.38	10.10	5.596	8.804	111.9	717.8	141.1	4.299	3.838	3.233	3.902	3.294	3.496	3.361	3.237	3.030	3.151	3.269	3.500	3.381	3.619	2.813	2.395	2.129	1.760	1.796	1.405	1.319	1.386	1.493	1.284	1.308	1.068	1.081	1.038	1.161	0.926	0.913	1.298	1.123	1.096	1.037	1.284	1.307	1.218	1.331	1.095	1.124	0.998	0.961	1.348	1.283	1.056	0.915	1.282	0.933	1.245	1.518	1.334	1.031	1.117
