Sample:	'1
File name:	t2025061909À’Õı’¢.FD3
Run date:	'15:12:55, 06/23/2025
Operator:	Administrator
Comment:	'

Instrument
Model:	F-2700 FL Spectrophotometer
Serial number:	23B8-004
ROM Version:	4J14000 07

Instrument parameters
Measurement type:	3-D scan
Data mode:	Fluorescence
EX  Start WL:	220.0 nm
EX  End WL:	600.0 nm
EX Sampling interval:	5.0 nm
EM  Start WL:	230.0 nm
EM  End WL:	650.0 nm
EM Sampling interval:	5.0 nm
Scan speed:	12000 nm/min
EX Slit:	5.0 nm
EM Slit:	5.0 nm
PMT Voltage:	700 V
Response:	Auto 
Corrected spectra:	Off
Contour interval:	50.000

Peak integration
Integration method:	Rectangular
Sensitivity:	1
Threshold:	1.000

Peaks
No.	ApexEX/EM(nm)	Height(Data)
1	225.0/340.0	990.0
2	230.0/360.0	1037
3	230.0/370.0	1057
4	235.0/375.0	1087
5	240.0/265.0	391.7
6	240.0/390.0	1129
7	240.0/525.0	309.9
8	245.0/270.0	417.7
9	245.0/535.0	251.7
10	250.0/275.0	545.8
11	250.0/550.0	201.4
12	255.0/285.0	565.2
13	255.0/560.0	165.9
14	260.0/290.0	545.0
15	260.0/575.0	127.3
16	265.0/295.0	775.6
17	265.0/585.0	110.4
18	270.0/300.0	1127
19	270.0/600.0	110.2
20	275.0/305.0	1222
21	275.0/610.0	94.39
22	280.0/625.0	75.68
23	285.0/320.0	923.5
24	285.0/635.0	52.77
25	305.0/345.0	494.9
26	310.0/350.0	452.1
27	315.0/355.0	456.0
28	320.0/365.0	467.4
29	325.0/370.0	465.2
30	335.0/380.0	465.4
31	485.0/265.0	2.076
32	505.0/275.0	3.351
33	510.0/280.0	3.472
34	520.0/285.0	3.422
35	525.0/430.0	4.513
36	545.0/300.0	6.071
37	550.0/305.0	6.442
38	560.0/310.0	6.090
39	570.0/315.0	5.881
40	575.0/320.0	5.338
41	585.0/325.0	4.763

Data points
	220.0	225.0	230.0	235.0	240.0	245.0	250.0	255.0	260.0	265.0	270.0	275.0	280.0	285.0	290.0	295.0	300.0	305.0	310.0	315.0	320.0	325.0	330.0	335.0	340.0	345.0	350.0	355.0	360.0	365.0	370.0	375.0	380.0	385.0	390.0	395.0	400.0	405.0	410.0	415.0	420.0	425.0	430.0	435.0	440.0	445.0	450.0	455.0	460.0	465.0	470.0	475.0	480.0	485.0	490.0	495.0	500.0	505.0	510.0	515.0	520.0	525.0	530.0	535.0	540.0	545.0	550.0	555.0	560.0	565.0	570.0	575.0	580.0	585.0	590.0	595.0	600.0
230.0	146.8	2113	2515	451.8	18.20	7.144	5.943	4.486	4.452	3.940	3.460	3.096	2.579	2.088	1.771	1.590	1.302	1.260	1.106	1.086	0.922	0.880	0.819	0.798	0.721	0.724	0.673	0.701	0.623	0.561	0.555	0.527	0.471	0.457	0.425	0.492	0.415	0.361	0.392	0.430	0.472	0.600	0.532	0.415	0.375	0.516	2.835	7.846	8.915	4.657	1.346	0.382	0.280	0.266	0.259	0.235	0.261	0.274	0.223	0.288	0.248	0.275	0.239	0.237	0.243	0.250	0.238	0.248	0.283	0.271	0.237	0.246	0.287	0.247	0.273	0.284	0.262
235.0	139.3	616.1	2243	2411	473.7	29.88	8.083	5.013	4.751	3.932	3.767	3.115	2.779	2.221	1.923	1.832	1.390	1.397	1.160	0.941	0.900	0.833	0.957	0.733	0.629	0.721	0.719	0.652	0.590	0.551	0.570	0.499	0.474	0.481	0.419	0.400	0.393	0.314	0.366	0.339	0.455	0.420	0.502	0.633	0.496	0.425	0.877	2.331	4.300	7.360	8.776	7.677	3.030	0.576	0.272	0.209	0.266	0.261	0.235	0.330	0.324	0.294	0.292	0.257	0.254	0.222	0.242	0.338	0.211	0.268	0.230	0.255	0.239	0.227	0.295	0.250	0.277
240.0	200.1	218.9	799.7	2750	2446	352.7	14.30	5.687	5.659	3.994	3.431	3.364	2.723	2.672	2.152	2.036	1.566	1.275	1.223	1.203	1.012	0.858	0.840	0.902	0.823	0.761	0.677	0.642	0.674	0.603	0.578	0.502	0.521	0.465	0.425	0.476	0.415	0.345	0.402	0.435	0.391	0.353	0.480	0.473	0.676	0.661	0.529	0.811	1.267	2.609	6.172	12.55	12.43	7.099	2.209	0.404	0.293	0.254	0.312	0.311	0.310	0.262	0.292	0.231	0.235	0.249	0.294	0.302	0.226	0.272	0.286	0.238	0.308	0.247	0.271	0.281	0.264
245.0	175.9	220.6	229.1	1170	3423	2265	246.9	8.870	6.004	4.559	3.798	3.920	2.975	2.782	2.328	1.920	1.789	1.687	1.259	1.053	1.037	0.997	0.848	0.870	0.791	0.706	0.621	0.578	0.612	0.651	0.650	0.561	0.485	0.463	0.498	0.444	0.416	0.365	0.435	0.360	0.384	0.376	0.442	0.369	0.524	0.837	0.815	0.699	0.563	0.816	1.718	5.099	11.27	16.79	13.37	6.061	1.342	0.364	0.280	0.278	0.312	0.261	0.251	0.294	0.259	0.367	0.319	0.325	0.239	0.263	0.256	0.243	0.256	0.252	0.268	0.225	0.268
250.0	75.52	203.0	254.8	336.2	1282	3078	3138	885.7	41.14	6.336	5.133	4.195	4.036	2.799	2.467	2.012	1.740	1.619	1.225	1.098	1.157	0.980	0.860	0.898	0.769	0.704	0.669	0.633	0.600	0.642	0.569	0.614	0.571	0.430	0.489	0.434	0.432	0.374	0.365	0.386	0.445	0.384	0.433	0.367	0.409	0.480	0.586	0.828	0.937	0.829	0.780	1.398	2.983	6.247	10.47	14.68	17.10	13.47	6.710	1.630	0.296	0.292	0.270	0.266	0.325	0.274	0.286	0.303	0.272	0.268	0.308	0.241	0.297	0.242	0.347	0.263	0.281
255.0	42.50	72.12	217.4	323.7	354.3	872.8	3275	4730	1208	35.90	7.437	5.593	4.204	3.552	2.519	2.171	1.700	1.393	1.221	1.192	1.167	1.217	0.986	0.906	0.793	0.781	0.623	0.673	0.718	0.597	0.627	0.562	0.641	0.441	0.443	0.407	0.502	0.311	0.385	0.502	0.415	0.445	0.355	0.361	0.343	0.410	0.419	0.446	0.546	0.970	1.243	1.131	1.013	1.710	2.643	3.823	8.206	18.18	27.84	23.02	9.132	1.594	0.274	0.317	0.325	0.229	0.254	0.265	0.246	0.272	0.332	0.272	0.293	0.249	0.287	0.274	0.316
260.0	36.61	35.58	97.23	316.9	297.6	250.1	1140	4804	4916	246.1	18.20	7.168	4.895	3.862	2.973	2.351	1.850	1.407	1.498	1.344	1.321	1.132	0.960	0.915	0.799	0.868	0.687	0.814	0.697	0.625	0.649	0.578	0.566	0.532	0.488	0.395	0.490	0.426	0.383	0.397	0.382	0.475	0.393	0.386	0.334	0.321	0.428	0.319	0.398	0.548	0.948	1.821	1.456	0.915	0.917	1.206	2.239	5.515	14.15	27.75	31.52	20.57	6.555	0.913	0.289	0.269	0.267	0.320	0.276	0.269	0.272	0.237	0.315	0.269	0.288	0.340	0.247
265.0	33.41	28.99	41.00	175.5	391.7	224.2	313.6	1894	6312	4463	186.9	10.25	6.353	4.638	3.711	3.296	2.209	1.778	1.646	1.536	1.309	1.208	0.988	0.929	0.777	0.741	0.770	0.840	0.784	0.619	0.750	0.608	0.601	0.555	0.522	0.490	0.466	0.459	0.443	0.408	0.342	0.430	0.428	0.511	0.454	0.260	0.349	0.306	0.333	0.351	0.445	1.099	1.797	2.076	1.270	0.791	0.888	1.624	3.639	9.155	21.20	36.69	30.48	16.70	3.367	0.375	0.353	0.355	0.270	0.284	0.313	0.287	0.274	0.252	0.377	0.351	0.242
270.0	47.65	34.06	30.25	73.35	243.0	417.7	298.9	500.0	2247	5604	4896	759.7	36.21	6.836	4.676	3.790	2.805	2.102	1.757	1.668	1.528	1.270	1.044	1.007	0.881	0.839	0.883	0.846	0.768	0.638	0.773	0.647	0.593	0.519	0.523	0.486	0.487	0.478	0.525	0.471	0.404	0.440	0.477	0.465	0.470	0.348	0.361	0.389	0.345	0.330	0.353	0.571	0.885	1.477	1.912	1.959	1.888	1.280	1.328	2.455	5.412	11.72	19.77	30.30	32.16	29.17	12.53	3.158	0.447	0.379	0.322	0.334	0.281	0.298	0.311	0.299	0.254
275.0	90.88	74.90	48.83	55.15	117.0	277.2	545.8	335.5	558.0	1496	5095	8409	1022	30.90	6.722	4.608	3.548	2.740	1.993	1.763	1.467	1.381	1.139	1.075	1.181	0.930	0.856	0.884	0.810	0.726	0.772	0.695	0.584	0.614	0.552	0.568	0.612	0.559	0.609	0.515	0.536	0.493	0.517	0.547	0.514	0.401	0.484	0.449	0.459	0.336	0.385	0.469	0.558	0.778	1.079	1.288	2.639	3.351	2.327	1.370	1.744	3.060	4.862	7.455	11.67	26.80	46.75	31.78	18.27	3.162	0.424	0.380	0.329	0.311	0.290	0.342	0.302
280.0	167.3	132.8	84.49	65.61	92.44	164.2	418.9	553.7	254.4	401.8	1612	7586	7626	147.7	14.31	5.941	4.399	3.044	2.457	1.812	1.949	1.536	1.306	1.266	1.055	1.172	0.909	0.962	0.823	0.710	0.727	0.667	0.566	0.699	0.747	0.709	0.627	0.649	0.602	0.669	0.630	0.599	0.570	0.628	0.599	0.571	0.643	0.592	0.487	0.403	0.386	0.535	0.541	0.633	0.776	0.931	1.381	2.472	3.472	2.885	1.647	1.242	1.600	2.229	3.044	7.392	18.28	36.25	53.59	29.68	13.15	1.458	0.398	0.422	0.349	0.339	0.299
285.0	236.7	212.6	129.3	88.13	90.65	126.7	224.6	565.2	339.6	205.9	463.0	2564	8832	5896	110.2	9.154	5.539	3.736	2.977	2.358	2.228	1.543	1.379	1.272	1.143	1.037	1.054	0.825	0.798	0.837	0.757	0.937	0.618	0.737	0.853	0.861	0.793	0.852	0.743	0.815	0.743	0.709	0.827	0.665	0.676	0.844	0.706	0.729	0.625	0.496	0.496	0.549	0.530	0.630	0.723	0.685	0.828	1.250	2.067	3.386	3.422	1.962	1.082	1.183	1.239	2.253	4.885	10.42	25.80	46.36	55.06	25.15	7.253	0.851	0.405	0.409	0.372
290.0	330.6	289.3	203.2	129.2	108.5	129.2	163.2	292.9	545.0	490.4	280.2	734.4	2797	6393	6032	438.9	26.33	5.364	4.025	2.931	2.260	2.057	1.516	1.372	1.317	1.207	1.193	0.964	0.865	0.812	0.794	0.798	0.724	0.699	0.850	0.848	0.914	0.978	0.844	0.898	0.829	0.866	0.859	0.899	0.929	1.023	0.893	0.894	0.777	0.703	0.597	0.680	0.642	0.687	0.722	0.737	0.843	0.959	1.161	1.743	2.551	3.270	3.425	2.546	1.671	1.493	2.027	3.239	6.690	13.14	23.63	33.38	33.47	36.07	16.90	6.500	0.961
295.0	410.3	382.9	282.9	192.1	159.0	181.1	208.3	270.7	386.2	775.6	745.1	478.3	846.5	1672	4503	6568	630.0	21.71	5.758	4.141	2.645	2.359	1.776	1.503	1.357	1.200	1.202	1.031	1.006	0.820	0.842	0.751	0.826	0.708	0.871	0.918	1.092	1.150	0.985	0.950	0.908	1.050	0.976	0.916	1.181	1.248	1.177	1.056	1.030	0.893	0.726	0.910	0.906	0.825	0.894	1.010	1.045	1.093	1.315	1.491	1.836	2.064	2.770	4.494	4.742	3.225	2.296	2.221	2.905	4.183	6.371	8.525	9.879	21.12	42.15	52.18	26.65
300.0	464.1	459.3	338.7	249.9	220.0	251.8	315.1	380.4	472.4	720.5	1127	746.2	537.6	595.6	1337	5703	5583	88.21	10.70	5.131	3.291	2.870	2.094	1.894	1.456	1.416	1.372	1.093	0.989	0.991	0.818	0.871	0.812	0.706	0.851	0.990	1.136	1.262	1.193	1.135	1.002	1.083	1.125	1.018	1.335	1.452	1.346	1.346	1.222	1.109	0.835	0.990	1.106	0.949	1.210	1.251	1.549	1.590	1.821	2.100	2.099	2.273	2.859	3.763	5.006	6.071	4.680	3.120	2.713	2.871	2.902	3.194	3.325	5.870	13.56	31.62	51.40
305.0	510.0	494.8	413.5	303.3	289.1	326.8	422.0	526.1	623.4	761.5	1079	1222	646.7	431.4	470.0	1797	6450	4441	71.70	7.829	4.609	3.332	2.229	1.839	1.643	1.445	1.331	1.084	1.182	1.142	1.034	0.910	0.837	1.021	0.963	1.045	1.280	1.284	1.221	1.152	1.202	1.325	1.113	1.117	1.470	1.551	1.456	1.362	1.293	1.163	1.055	1.246	1.242	1.302	1.396	1.556	1.799	1.979	2.221	2.691	2.930	2.800	3.383	3.594	4.104	5.178	6.442	6.163	4.305	3.002	2.611	2.211	2.117	2.399	3.992	8.403	18.61
310.0	535.3	526.6	442.2	344.5	339.8	400.7	509.8	631.6	740.5	843.3	957.0	1163	1063	556.1	329.6	525.6	1928	4614	4681	1144	19.50	4.466	3.064	2.603	2.030	1.644	1.553	1.244	1.325	1.262	0.923	1.033	0.899	1.000	0.923	1.030	1.320	1.316	1.271	1.147	1.223	1.241	1.242	1.267	1.286	1.484	1.456	1.475	1.348	1.279	1.242	1.441	1.366	1.475	1.644	1.898	2.242	2.476	2.803	3.087	3.164	3.557	3.688	4.139	4.075	4.227	4.834	5.735	6.090	5.360	4.181	2.987	2.208	1.935	1.955	2.835	5.018
315.0	550.9	563.7	462.1	395.4	381.4	447.7	557.5	688.9	797.6	888.8	936.6	970.6	1005	916.9	407.7	272.7	527.5	1131	3120	6123	485.9	19.16	4.163	3.336	2.560	1.936	1.630	1.442	1.297	1.238	1.062	0.996	0.873	0.892	0.894	1.078	1.340	1.220	1.322	1.222	1.198	1.265	1.305	1.267	1.257	1.539	1.492	1.518	1.478	1.375	1.364	1.586	1.422	1.760	1.741	2.107	2.404	2.817	2.956	3.259	3.223	3.764	3.905	4.320	4.144	4.183	4.387	4.593	4.696	4.556	5.881	5.312	3.615	2.244	1.736	1.904	2.148
320.0	586.7	636.2	553.9	429.9	400.4	455.6	567.2	687.3	794.5	876.1	926.7	901.0	846.6	923.5	641.8	261.6	236.0	329.9	849.6	4348	4182	384.8	9.624	4.105	3.264	2.599	1.885	1.729	1.390	1.249	1.029	1.072	0.838	0.925	1.004	1.114	1.332	1.318	1.283	1.251	1.172	1.247	1.191	1.348	1.183	1.741	1.526	1.849	1.651	1.459	1.500	1.557	1.512	1.854	1.894	2.258	2.398	2.744	2.858	3.417	3.467	3.514	3.692	4.602	4.221	4.278	4.446	4.359	4.171	3.765	4.435	5.338	5.074	4.136	2.210	1.799	1.414
325.0	668.0	734.2	690.3	507.1	432.8	458.7	553.8	664.0	762.8	846.2	900.0	890.1	798.6	745.3	785.9	402.6	205.0	172.3	252.6	1261	4451	3607	58.45	6.246	3.653	2.778	2.134	1.950	1.703	1.309	1.177	1.066	1.009	0.944	1.008	1.128	1.272	1.343	1.274	1.339	1.279	1.331	1.181	1.396	1.560	1.864	1.715	2.085	2.035	1.664	1.680	1.759	1.713	1.889	1.886	2.021	2.412	2.564	2.809	3.186	3.223	3.690	3.758	4.379	4.186	4.044	4.328	4.014	4.143	3.745	3.734	4.071	4.410	4.763	3.855	2.478	1.704
330.0	732.4	848.5	834.1	630.2	480.9	478.9	532.7	631.6	713.4	800.7	859.6	860.8	785.9	665.5	633.5	583.5	342.4	176.7	148.6	344.3	1290	3364	3682	1008	17.90	3.774	2.692	2.272	1.806	1.568	1.328	1.199	1.030	0.970	1.024	1.127	1.159	1.198	1.209	1.214	1.330	1.263	1.327	1.447	1.727	2.057	2.012	2.521	2.405	2.106	2.065	2.012	1.899	1.877	1.915	1.956	2.382	2.616	2.642	3.094	3.284	3.549	3.682	3.860	3.973	4.045	4.081	4.006	3.992	3.703	3.489	3.565	3.451	3.535	3.629	3.728	3.350
335.0	799.8	934.1	925.5	750.6	568.9	508.4	532.1	594.3	676.0	760.3	817.8	827.7	778.6	668.6	557.2	497.2	538.9	303.6	162.9	169.4	350.0	819.4	2320	4767	420.2	18.29	3.973	2.866	2.208	1.869	1.417	1.319	1.163	1.125	1.024	1.115	1.078	1.191	1.251	1.282	1.342	1.432	1.479	1.505	1.688	2.059	2.173	2.589	2.766	2.284	2.142	2.395	2.223	2.170	2.036	2.028	2.362	2.452	2.556	3.013	3.031	3.167	3.577	3.769	3.754	3.870	3.969	3.865	3.851	3.732	3.392	3.639	3.242	3.114	2.774	3.007	3.388
340.0	813.0	990.0	981.4	811.0	618.9	548.8	539.2	592.2	668.3	741.9	785.5	812.2	764.9	671.6	551.0	451.7	493.8	467.3	226.5	158.6	162.9	242.4	631.0	3251	3493	341.7	9.599	3.470	2.557	2.065	1.420	1.580	1.119	1.132	1.013	1.067	1.195	1.141	1.120	1.144	1.427	1.430	1.306	1.434	1.738	2.092	2.287	2.874	2.994	2.430	2.558	2.611	2.327	2.277	2.296	2.070	2.438	2.406	2.672	2.773	3.055	3.112	3.442	3.560	3.648	3.676	3.679	3.667	3.875	3.777	3.696	3.663	3.289	3.339	2.760	2.813	2.728
345.0	855.6	981.1	1012	868.3	665.3	588.1	563.6	601.6	653.7	718.0	764.9	797.4	752.2	678.6	571.5	463.4	424.7	494.9	368.3	193.4	147.0	138.8	198.7	935.9	3625	3076	51.87	5.499	2.931	2.384	1.769	1.762	1.246	1.159	1.036	1.076	1.290	1.195	1.057	1.218	1.299	1.347	1.334	1.509	1.631	1.976	2.318	2.586	3.113	2.716	2.601	3.002	2.640	2.542	2.312	2.319	2.571	2.611	2.630	2.683	2.997	3.130	3.371	3.280	3.443	3.679	3.644	3.668	3.851	3.761	3.525	3.504	3.330	3.370	3.118	2.788	2.562
350.0	793.7	937.7	1032	907.9	761.3	655.1	630.6	636.6	672.6	716.5	756.2	783.8	748.6	686.4	600.3	497.9	430.2	421.1	452.1	338.2	201.5	154.7	138.6	277.5	1050	2713	2999	831.7	16.28	3.319	2.312	1.897	1.364	1.159	1.063	1.123	1.212	1.118	1.096	1.133	1.232	1.323	1.315	1.488	1.835	1.974	2.332	2.684	2.955	2.695	2.672	3.131	2.875	2.806	2.525	2.701	2.958	2.867	2.798	2.877	3.060	3.055	3.155	3.367	3.616	3.414	3.608	3.719	3.590	3.732	3.435	3.585	3.622	3.515	3.286	3.128	2.746
355.0	806.5	947.6	1031	953.4	836.2	755.7	713.5	712.0	727.1	750.8	780.8	783.8	765.8	707.2	631.4	544.4	472.8	427.8	407.7	456.0	337.3	211.8	166.6	164.2	305.7	672.8	1867	3752	382.3	16.81	3.341	2.219	1.725	1.359	1.191	1.253	1.185	1.206	1.095	1.299	1.267	1.411	1.342	1.455	1.885	1.853	2.375	2.562	2.939	2.673	2.742	3.186	3.129	3.120	2.811	3.034	3.158	2.820	3.172	2.958	3.170	3.161	3.477	3.697	3.717	3.495	3.507	3.456	3.514	3.884	3.478	3.552	3.874	3.448	3.344	3.517	3.161
360.0	788.1	970.1	1037	979.5	908.2	843.4	782.5	773.8	779.2	790.7	814.4	799.6	779.1	725.8	651.1	575.5	511.5	459.4	415.4	438.7	455.1	291.6	204.8	167.4	163.2	215.9	514.1	2597	3157	315.1	7.467	2.762	1.908	1.472	1.411	1.224	1.217	1.216	1.120	1.404	1.393	1.395	1.313	1.448	1.877	2.142	2.236	2.568	2.941	2.782	2.665	3.273	3.492	3.212	3.204	3.082	3.197	3.295	3.341	3.109	3.405	3.578	3.909	3.893	3.849	3.586	3.452	3.760	3.663	4.093	3.708	3.764	3.767	3.786	3.717	3.480	3.560
365.0	788.4	982.0	1029	1009	954.2	893.8	846.3	813.2	834.5	830.9	848.2	823.5	792.8	742.6	678.2	607.9	542.9	490.9	448.7	425.5	467.4	410.8	261.0	194.0	157.5	133.5	174.5	766.3	3154	2765	47.52	4.890	2.416	2.069	1.357	1.390	1.401	1.345	1.188	1.403	1.247	1.366	1.482	1.508	1.624	2.196	2.297	2.809	2.645	2.836	2.844	3.210	3.485	3.438	3.214	3.330	3.627	3.642	3.687	3.668	3.489	3.896	3.841	3.888	3.858	3.716	3.883	3.876	3.852	3.875	3.724	3.597	4.087	3.800	3.568	3.336	3.689
370.0	827.8	994.7	1057	1056	1007	970.2	905.8	888.2	883.8	882.0	879.4	851.4	811.6	761.6	698.3	635.8	584.0	535.5	496.9	460.6	445.9	465.2	392.4	263.8	198.0	152.3	126.5	231.5	918.8	2458	2708	717.7	14.13	2.793	1.805	1.673	1.416	1.365	1.279	1.452	1.304	1.446	1.475	1.746	1.942	2.054	2.182	2.926	2.685	2.738	2.855	3.624	3.562	3.740	3.655	3.691	3.868	3.812	3.731	3.845	3.827	4.010	4.076	3.999	3.929	4.011	4.011	3.835	3.865	3.961	3.786	3.894	3.989	3.831	3.778	3.701	3.842
375.0	820.1	964.9	1034	1087	1049	1021	966.0	942.9	948.3	929.1	914.0	874.8	832.3	779.4	725.6	662.2	615.7	573.7	536.8	505.4	465.5	450.6	465.4	388.6	257.8	195.3	149.3	136.9	264.5	607.1	1758	3049	326.4	13.94	2.732	1.987	1.525	1.681	1.442	1.357	1.357	1.506	1.669	1.697	1.804	2.267	2.226	2.807	2.756	2.771	2.826	3.671	3.569	3.945	3.897	4.007	4.059	3.960	4.161	4.027	4.131	4.205	4.530	4.054	4.111	4.225	4.062	3.984	4.234	4.075	4.207	4.009	3.914	3.982	3.658	3.964	3.772
380.0	847.7	969.2	1062	1070	1098	1063	1006	978.3	955.9	955.2	937.7	897.8	849.5	790.7	727.8	674.9	637.5	606.1	566.1	534.2	495.8	460.3	453.3	465.4	333.0	235.8	179.8	140.5	136.6	188.5	486.0	2310	2651	254.7	5.954	2.755	1.828	1.703	1.662	1.533	1.358	1.645	1.716	1.734	1.937	2.227	2.300	2.850	2.778	2.771	2.837	3.657	3.859	4.087	4.063	4.085	4.405	4.310	4.191	4.273	4.149	4.350	4.564	4.253	4.283	4.370	3.954	4.076	4.275	4.392	3.913	4.051	4.050	3.793	4.044	4.150	3.990
385.0	838.8	1002	1071	1086	1118	1079	1033	996.3	979.4	976.6	945.7	916.0	859.6	800.8	734.4	680.0	644.8	619.8	585.2	556.0	520.6	481.2	446.6	464.5	424.0	283.5	211.1	162.2	127.8	110.1	154.7	688.7	2591	2201	38.19	3.757	2.045	2.028	1.792	1.555	1.556	1.536	1.541	1.869	2.062	2.264	2.482	2.935	2.910	2.731	3.039	3.589	3.763	3.859	3.956	4.325	4.149	4.278	4.289	4.362	4.229	4.265	4.562	4.406	4.606	4.201	4.182	4.171	3.932	4.257	4.068	4.077	4.170	4.032	3.997	4.109	4.029
390.0	878.4	1000	1061	1107	1129	1102	1055	1013	993.2	981.8	953.2	912.8	852.9	802.2	740.5	687.7	651.6	628.2	603.0	573.8	545.8	511.1	472.2	448.5	447.3	380.4	269.8	201.8	157.3	121.2	102.0	199.2	758.1	1937	1966	509.6	11.53	2.571	1.978	1.736	1.684	1.562	1.781	1.868	1.983	2.231	2.468	2.738	2.934	2.847	3.017	3.652	3.807	3.936	4.019	4.101	4.352	4.530	4.391	4.230	4.371	4.457	4.419	4.369	4.425	4.263	4.162	4.123	4.049	4.353	4.233	4.170	4.033	4.121	4.092	4.078	4.191
395.0	914.6	975.9	1065	1122	1127	1111	1061	1032	1007	991.2	953.1	915.2	855.9	803.1	740.8	692.0	650.4	632.3	609.9	585.9	561.3	530.1	495.3	461.2	431.1	422.8	360.1	253.5	195.6	153.5	117.1	108.2	210.7	477.5	1360	2345	263.0	10.13	2.910	2.041	1.857	1.911	1.787	1.825	2.013	2.239	2.498	2.749	2.917	2.743	3.115	3.660	3.922	4.021	4.170	4.259	4.177	4.594	4.221	4.438	4.422	4.363	4.365	4.536	4.417	4.361	4.207	4.267	4.541	3.982	3.943	4.040	4.173	4.368	3.915	4.153	4.157
400.0	896.7	998.0	1063	1114	1116	1104	1086	1023	1026	999.8	962.1	915.9	855.1	793.0	739.3	686.6	642.8	632.0	609.4	593.4	567.6	539.2	509.2	473.1	438.4	411.6	406.2	313.8	230.2	179.9	137.1	102.5	101.0	142.8	383.1	1799	2018	199.0	5.121	2.567	1.951	2.067	1.840	2.008	1.980	2.424	2.375	2.819	2.777	2.831	2.895	3.766	3.711	4.057	4.334	4.620	4.301	4.639	4.334	4.525	4.556	4.380	4.371	4.339	4.277	4.398	4.385	4.241	4.132	3.900	4.174	4.052	4.182	4.234	4.098	4.200	3.986
405.0	881.5	1005	1055	1081	1108	1098	1067	1046	1024	988.1	951.6	909.8	844.0	787.6	729.7	673.9	642.4	625.6	604.8	591.3	564.1	545.5	518.7	489.8	449.3	409.2	406.8	373.6	269.1	206.4	158.0	116.9	89.06	76.72	117.2	541.0	1977	1600	33.35	3.439	2.247	2.174	2.047	1.893	1.984	2.369	2.372	2.619	2.788	2.718	2.898	3.884	3.930	4.110	4.194	4.197	4.540	4.549	4.198	4.867	4.460	4.332	4.217	4.443	4.375	4.360	4.476	4.180	4.098	4.078	4.033	4.193	4.043	4.117	4.203	4.260	4.250
410.0	866.3	985.0	1025	1066	1103	1086	1061	1050	1014	980.9	944.0	895.7	834.7	772.0	712.6	659.1	629.1	611.3	590.1	582.0	561.1	544.0	521.4	493.9	459.6	421.2	390.2	384.8	335.3	248.8	187.9	141.3	105.2	77.14	67.55	149.6	584.4	1465	1477	146.3	9.852	2.481	2.330	2.172	2.062	2.499	2.323	2.694	2.885	2.738	2.798	3.852	3.804	3.928	4.043	4.133	4.244	4.433	4.227	4.632	4.503	4.311	4.265	4.420	4.267	4.306	4.382	4.248	3.977	3.882	3.963	4.023	4.017	3.973	4.067	3.995	4.117
415.0	858.0	969.6	1028	1047	1062	1071	1057	1047	999.5	984.3	944.0	882.5	819.3	749.5	690.7	641.3	613.4	592.5	569.4	558.8	544.9	532.3	515.6	494.2	465.5	426.2	394.9	367.4	358.4	311.1	223.7	164.5	125.3	92.52	68.47	70.60	156.8	360.5	1032	1714	227.4	8.421	2.788	2.185	2.270	2.373	2.377	2.786	2.862	2.776	2.735	3.815	3.784	3.655	3.856	4.123	4.339	4.297	4.177	4.216	4.555	4.433	4.318	4.108	4.336	4.046	4.006	3.944	3.995	3.775	3.924	3.453	3.938	3.800	4.016	3.785	3.980
420.0	848.5	927.3	975.5	1012	1028	1049	1047	1017	997.4	970.0	932.7	866.0	804.3	730.5	667.8	619.1	585.4	570.6	559.2	544.2	528.4	520.8	503.6	488.1	463.4	427.1	398.4	363.1	343.0	338.0	261.5	184.0	140.3	105.3	77.35	59.75	66.64	101.9	287.5	1319	1517	35.68	4.653	2.517	2.605	2.534	2.452	2.690	2.771	2.724	2.839	3.573	3.811	3.677	4.007	3.741	4.050	4.282	4.249	4.196	4.521	4.363	4.372	4.321	4.289	4.095	3.912	3.951	4.012	3.732	3.929	3.576	3.730	3.666	3.814	3.690	3.829
425.0	823.9	902.9	948.9	981.3	1000	1023	1020	1008	973.0	958.5	916.1	852.9	783.5	709.6	655.7	600.0	565.8	550.4	542.1	526.3	510.7	502.4	489.2	477.5	455.3	426.2	396.3	363.2	338.5	328.1	296.9	209.7	151.0	116.9	87.30	65.11	51.53	48.55	82.43	399.2	1467	1188	30.73	3.644	2.903	2.653	2.514	2.624	2.603	2.423	2.817	3.396	3.576	3.641	3.952	3.718	4.046	4.039	4.196	4.205	4.095	4.177	4.436	4.345	3.999	4.077	3.844	4.045	3.842	3.764	3.722	3.497	3.584	3.431	3.406	3.485	3.592
430.0	901.3	890.1	940.5	945.6	981.9	995.5	1001	992.5	957.3	926.9	899.6	830.9	759.4	688.2	622.2	572.6	543.3	524.1	515.1	505.5	491.1	483.0	475.5	460.8	445.1	419.6	393.9	367.5	339.5	315.4	296.4	251.6	178.5	133.2	101.0	76.79	58.25	45.09	43.17	107.0	429.1	1081	1150	135.6	9.851	2.970	2.616	2.887	2.662	2.371	2.708	3.342	3.572	3.737	3.843	3.864	4.063	4.187	4.062	4.134	4.234	4.513	4.218	4.234	4.064	4.027	3.908	3.795	3.921	3.650	3.698	3.569	3.701	3.420	3.366	3.484	3.541
435.0	1440	859.7	892.1	907.3	950.6	962.5	962.8	977.1	952.4	910.4	884.0	818.9	739.4	668.3	601.2	549.6	520.0	500.1	491.2	477.6	469.3	463.9	455.3	443.9	432.4	412.5	388.8	368.6	340.6	312.4	280.7	261.5	219.0	154.2	116.3	90.89	69.79	52.71	41.31	47.68	113.3	264.9	782.7	1423	216.6	9.851	3.168	2.935	2.714	2.499	2.614	3.272	3.282	3.640	3.637	3.853	3.932	4.138	3.997	4.134	4.310	4.434	4.184	4.257	4.238	3.970	3.746	3.761	3.680	3.486	3.522	3.410	3.434	3.385	3.263	3.344	3.384
440.0	1989	925.0	857.2	878.8	911.1	942.1	950.7	964.1	933.0	902.2	866.1	808.9	721.4	643.1	584.6	531.4	502.7	483.0	477.1	459.7	453.3	444.2	438.5	432.8	421.0	403.4	382.5	366.0	343.2	316.2	278.0	249.2	233.6	178.3	128.8	99.96	79.19	60.42	47.64	39.06	46.35	75.32	218.2	1083	1336	168.9	5.264	3.006	2.932	2.509	2.579	3.271	3.240	3.373	3.572	3.735	3.779	4.269	3.947	4.054	4.030	4.296	4.112	4.189	4.019	3.878	3.705	3.673	3.550	3.363	3.472	3.435	3.215	3.246	2.990	3.156	3.276
445.0	2356	1250	833.6	868.7	878.5	897.3	929.2	922.6	912.6	893.1	848.6	780.3	708.3	626.8	566.9	511.3	479.8	462.7	456.0	436.7	433.7	426.6	424.0	417.6	407.0	392.2	373.9	355.7	338.7	313.9	279.2	242.4	225.0	199.2	141.9	108.4	85.32	68.18	53.35	41.31	35.35	36.71	63.02	327.0	1269	1110	27.18	4.287	3.081	2.750	2.651	3.219	3.043	3.246	3.622	3.515	3.793	3.853	3.924	4.024	3.870	4.006	4.074	4.016	4.031	3.941	3.754	3.545	3.599	3.401	3.105	3.193	3.301	3.141	2.986	3.138	3.224
450.0	1707	2080	954.0	810.0	838.1	850.3	880.3	875.7	874.6	854.9	817.5	746.5	672.9	598.1	536.0	483.1	448.9	435.1	423.9	412.7	402.9	398.6	393.7	389.8	382.9	366.9	353.9	339.0	326.2	304.8	275.6	240.1	211.3	194.8	165.9	122.5	93.56	75.92	60.60	48.92	38.80	32.70	33.03	87.56	368.2	960.5	1048	123.0	8.994	3.051	2.719	3.042	3.054	3.068	3.197	3.462	3.697	3.730	3.786	3.677	3.814	3.996	3.940	3.727	3.856	3.804	3.555	3.300	3.562	3.263	3.211	3.150	3.075	3.109	2.831	2.987	3.043
455.0	899.6	2300	1544	775.6	783.0	789.3	810.2	833.5	819.5	808.7	770.3	710.1	632.6	556.8	498.1	446.8	415.7	398.3	386.3	376.1	368.3	365.7	362.1	358.9	351.0	340.6	331.7	317.7	308.7	288.7	266.1	236.3	203.6	177.9	167.1	141.4	104.0	82.20	67.63	56.28	45.36	36.81	29.94	37.25	95.50	232.5	629.2	1178	183.0	9.151	3.128	3.031	2.955	3.063	3.223	3.168	3.435	3.890	3.754	3.514	3.714	3.720	3.785	3.753	3.572	3.451	3.304	3.104	3.226	3.373	2.882	2.894	2.793	3.098	2.868	2.668	2.877
460.0	637.9	1746	2282	845.5	727.3	750.1	769.8	789.4	782.8	758.0	729.3	663.8	600.2	529.7	474.2	425.3	388.0	371.0	364.3	348.7	346.8	338.7	337.5	335.2	329.5	318.7	311.6	300.8	294.6	276.5	254.7	227.5	196.6	171.5	154.6	146.7	116.3	88.89	73.20	60.03	49.83	40.93	31.78	28.15	36.76	63.97	168.3	812.3	1058	138.7	5.155	3.420	2.974	3.003	3.048	3.069	3.267	3.240	3.468	3.261	3.385	3.557	3.509	3.372	3.421	3.425	3.101	3.119	2.868	3.136	2.791	2.767	2.673	2.827	2.426	2.479	2.724
465.0	578.1	1066	2532	1220	697.6	702.0	727.9	740.8	742.8	714.8	688.3	637.2	568.5	497.7	441.6	401.8	363.2	351.9	340.9	327.7	318.5	314.3	313.9	310.2	306.3	296.2	291.5	285.0	279.3	265.1	244.8	218.5	191.5	167.6	145.5	139.1	125.6	95.78	74.89	62.04	52.67	42.87	34.79	28.28	25.22	27.99	48.22	233.3	939.0	867.0	22.73	4.549	3.217	2.975	2.961	2.792	3.302	3.023	3.321	3.160	3.089	3.359	3.309	3.316	3.348	3.102	2.831	3.075	2.810	2.771	2.819	2.654	2.518	2.574	2.532	2.422	2.565
470.0	524.6	652.2	1740	2070	729.6	647.2	664.6	676.1	679.2	663.6	635.1	589.1	522.1	460.4	404.6	363.0	334.5	316.2	304.8	295.8	287.2	282.2	280.8	278.3	274.9	268.0	263.6	259.4	252.2	241.6	225.9	203.9	179.6	158.4	136.5	123.9	117.6	104.7	80.56	64.10	54.90	45.26	37.06	30.77	24.90	21.38	22.88	61.80	262.5	660.4	742.6	269.3	9.966	3.055	2.844	2.666	3.090	2.964	3.006	3.132	2.887	3.186	3.094	2.931	3.061	2.833	2.817	2.742	2.581	2.498	2.471	2.393	2.555	2.570	2.345	2.278	2.291
475.0	504.5	506.3	880.3	2210	1414	589.6	607.0	611.6	618.8	605.9	574.0	532.5	471.3	422.2	366.4	329.1	299.6	283.4	272.0	261.9	254.7	251.0	248.0	243.7	244.2	240.0	235.5	231.9	226.6	217.4	206.6	188.4	167.9	146.6	128.8	114.2	103.4	100.1	88.64	67.94	55.24	46.18	38.60	32.24	27.03	21.47	18.38	24.47	66.94	156.7	360.3	839.3	188.2	11.26	3.158	2.825	2.867	2.834	2.800	2.915	2.633	3.062	2.881	2.928	2.738	2.705	2.697	2.503	2.300	2.273	2.273	2.134	2.301	2.209	2.166	2.421	2.097
480.0	473.3	477.5	575.9	1621	2124	630.5	558.1	574.0	575.2	565.3	541.2	502.4	440.9	385.9	341.1	306.1	276.5	260.3	250.1	240.9	233.1	229.7	228.4	223.8	226.2	218.7	216.3	212.3	210.9	204.2	190.9	175.1	156.6	139.4	123.6	109.1	97.01	91.20	89.46	73.49	57.26	47.38	39.89	33.37	28.05	23.06	18.74	17.12	24.31	42.38	92.87	461.3	783.2	167.3	6.241	2.720	2.750	2.603	2.621	2.859	2.720	2.755	2.473	2.685	2.629	2.591	2.442	2.416	2.315	2.210	2.072	2.091	2.252	2.088	1.993	1.895	2.037
485.0	438.1	493.8	467.5	908.7	2354	1060	512.8	542.9	543.4	534.2	507.2	477.0	414.3	363.5	324.3	284.7	256.6	244.7	231.8	223.3	218.7	215.8	211.9	208.2	207.0	203.1	200.6	198.4	195.2	191.5	178.6	164.0	148.0	133.7	116.8	104.8	94.15	84.33	82.74	76.62	59.72	48.00	40.48	33.73	29.01	24.11	19.56	16.37	15.45	17.48	27.37	124.0	574.9	731.6	28.38	4.105	2.996	2.647	2.490	2.643	2.607	2.687	2.634	2.431	2.368	2.432	2.355	2.268	2.306	1.894	2.011	2.129	2.033	2.002	1.917	1.825	1.816
490.0	374.3	484.0	439.0	539.7	1571	1959	651.2	492.1	498.5	485.7	470.1	439.4	382.0	335.7	295.9	261.9	243.1	223.9	213.0	203.3	198.4	193.6	192.1	187.3	188.7	183.4	180.8	179.8	179.1	176.0	165.7	153.6	138.1	124.0	109.7	100.7	89.97	79.73	74.33	72.47	65.17	51.01	41.24	34.82	29.64	25.04	21.15	17.43	14.50	13.06	13.49	34.02	151.1	435.2	613.1	275.3	12.57	2.773	2.573	2.479	2.534	2.393	2.413	2.366	2.254	2.323	2.134	2.065	2.138	1.915	1.867	1.904	1.931	1.807	1.886	1.793	1.812
495.0	308.5	438.4	437.6	426.6	732.3	2080	1298	455.9	451.9	445.4	425.1	398.3	348.7	302.0	270.6	239.4	218.5	202.3	194.0	182.6	175.8	170.8	170.5	167.8	168.0	163.8	162.1	162.0	160.2	160.2	151.8	140.2	126.2	115.1	102.7	94.85	84.14	75.08	68.59	63.81	62.83	56.57	42.48	35.67	29.96	25.77	22.62	19.20	15.88	12.68	11.20	14.60	39.47	102.9	272.2	730.5	227.2	15.55	2.679	2.430	2.355	2.263	2.169	2.109	2.187	2.075	1.969	1.949	2.090	1.858	1.874	1.796	1.774	1.603	1.618	1.677	1.742
500.0	277.7	364.8	438.4	376.4	445.3	1429	2034	530.7	417.3	414.3	393.6	367.1	321.8	284.0	248.3	218.6	200.6	184.2	177.6	165.3	161.4	158.4	155.1	153.5	151.8	148.7	146.9	148.1	146.4	144.5	138.3	127.4	116.6	106.2	95.92	88.00	79.63	70.77	64.04	59.22	55.83	56.05	45.70	35.06	30.43	26.09	22.62	19.05	16.33	12.88	11.39	10.32	14.80	28.01	67.81	348.5	749.6	200.4	9.604	2.485	2.380	2.170	2.005	1.939	2.032	2.039	2.062	1.819	1.750	1.648	1.757	1.531	1.610	1.639	1.609	1.537	1.589
505.0	257.8	316.6	400.5	365.2	362.0	784.6	2290	908.3	383.8	377.4	357.0	336.0	299.9	262.1	231.8	202.6	185.6	171.6	161.3	154.5	147.8	142.7	139.5	140.5	135.3	135.2	134.5	133.8	133.6	131.4	127.2	118.3	108.0	98.44	89.98	80.66	73.47	66.22	60.94	54.73	50.83	50.92	47.46	36.85	29.49	25.58	22.19	19.18	16.25	13.88	11.44	9.499	9.635	11.85	19.83	88.74	434.9	698.6	156.9	4.858	2.340	2.137	1.993	2.032	1.972	1.923	1.901	1.507	1.685	1.390	1.579	1.501	1.519	1.445	1.553	1.452	1.540
510.0	222.8	257.3	337.7	362.2	309.8	421.1	1453	1843	481.3	334.2	323.1	296.8	266.6	234.2	205.5	178.6	163.3	152.7	141.7	136.1	129.4	124.9	123.8	122.7	120.2	118.6	117.8	117.4	117.0	115.4	111.8	103.4	95.53	87.79	79.74	73.21	66.61	60.57	56.02	50.09	45.81	43.06	43.80	38.77	30.64	25.58	21.79	18.61	16.04	13.65	11.94	9.725	8.444	8.199	9.081	24.17	108.7	345.1	528.8	245.6	13.28	2.183	1.856	1.806	1.786	1.697	1.631	1.511	1.591	1.372	1.364	1.376	1.291	1.222	1.379	1.298	1.256
515.0	191.6	222.3	260.6	340.9	300.6	293.7	599.4	2021	1121	306.5	285.2	262.3	233.4	202.7	178.6	158.1	143.3	131.8	121.2	116.7	112.0	109.7	107.4	106.3	103.9	102.1	103.6	100.3	101.1	101.2	97.93	89.68	84.04	77.40	70.30	65.17	59.55	53.05	49.60	44.92	41.45	37.48	35.84	35.46	32.73	25.60	20.99	18.15	15.57	13.15	12.07	10.49	8.551	7.451	6.763	9.855	28.08	80.53	179.5	518.3	233.5	17.25	1.879	1.692	1.521	1.562	1.513	1.279	1.428	1.336	1.157	1.215	1.182	1.152	1.235	1.280	1.156
520.0	171.5	204.3	226.0	303.1	300.8	256.3	328.6	1350	1920	374.7	259.8	235.7	209.8	183.2	160.1	141.2	127.3	119.6	110.1	105.8	101.0	98.35	96.95	92.67	93.26	92.50	92.60	90.44	91.19	90.11	89.73	81.11	75.56	70.28	62.76	58.32	54.40	48.56	45.88	41.50	38.28	34.93	32.16	30.54	32.72	27.10	21.03	17.23	14.89	12.97	11.48	10.15	8.669	7.429	6.245	6.892	10.32	21.36	43.84	214.1	531.5	202.9	10.88	1.726	1.617	1.480	1.499	1.342	1.399	1.275	1.153	1.190	1.241	1.112	1.125	0.945	1.038
525.0	161.2	189.9	197.8	251.2	309.9	241.1	252.7	664.5	2266	756.8	234.4	216.7	191.1	169.3	146.4	127.8	116.9	108.6	100.2	94.75	92.30	89.76	86.71	83.19	83.13	83.41	81.78	80.70	81.77	81.63	77.86	73.24	67.87	63.09	56.90	53.89	49.08	44.48	42.45	39.05	35.64	31.76	29.64	26.57	29.38	27.28	21.56	16.62	14.37	12.81	10.91	10.11	9.109	7.568	6.456	6.028	6.152	8.183	12.62	53.11	263.7	509.0	154.8	4.722	1.653	1.494	1.386	1.249	1.223	1.220	1.084	1.122	1.117	1.102	1.141	1.043	0.931
530.0	149.8	162.7	168.1	192.2	274.1	237.4	208.1	312.8	1410	1772	335.6	191.5	166.6	148.1	128.4	113.0	101.3	95.67	88.39	82.98	79.33	78.23	75.55	72.83	72.26	71.45	70.08	69.40	71.17	70.26	67.56	63.62	59.11	55.28	50.17	46.76	43.40	40.09	37.21	34.34	31.95	28.56	25.93	23.94	23.38	23.89	22.02	17.27	13.72	11.99	10.26	9.394	8.248	7.571	6.656	5.941	5.344	5.233	5.644	14.50	63.98	218.3	364.6	138.3	13.44	1.427	1.287	1.166	1.161	1.134	1.086	1.069	1.006	0.962	1.029	0.934	0.897
535.0	137.7	140.9	141.3	151.4	212.2	251.7	183.3	207.5	517.6	1971	973.2	170.3	144.0	127.1	110.6	97.41	88.61	80.42	74.39	71.62	68.30	66.11	62.95	62.36	61.14	61.81	59.81	58.42	59.88	59.69	57.84	55.30	51.04	47.33	43.38	40.22	38.10	35.57	32.91	30.27	27.44	25.18	22.94	21.57	20.15	19.12	19.78	17.96	13.75	11.08	9.606	8.796	7.721	7.128	6.589	6.032	5.194	4.688	4.221	5.772	16.58	50.91	110.4	322.3	225.3	17.35	1.368	1.092	1.053	1.082	0.877	1.042	0.944	0.885	0.886	0.960	0.844
540.0	112.7	121.9	129.1	137.3	164.9	236.5	187.4	169.7	241.9	1231	1784	207.8	128.0	114.2	98.66	87.17	78.38	72.34	66.58	63.74	58.20	59.35	55.58	55.75	54.46	54.24	52.35	52.42	52.47	51.93	50.67	48.09	45.50	41.79	38.83	35.65	33.59	31.36	29.11	27.02	24.34	22.18	20.98	19.37	17.45	16.56	17.06	17.55	14.04	10.62	9.190	8.169	7.020	6.648	6.197	5.894	5.012	4.373	3.764	3.773	5.893	13.37	26.83	122.6	365.0	184.6	9.607	1.135	1.052	0.873	0.879	0.912	0.788	0.829	0.767	0.827	0.814
545.0	99.36	120.3	116.3	117.3	133.1	204.0	195.8	148.4	164.2	531.5	2130	526.7	119.5	101.6	87.68	78.02	69.48	64.91	58.76	57.27	53.01	50.67	50.02	48.27	46.48	47.22	46.68	47.07	45.83	44.69	44.73	41.36	39.82	36.95	34.58	31.64	30.28	27.08	25.93	23.45	22.06	19.91	18.86	17.40	15.60	14.91	14.29	15.44	14.37	10.78	8.970	7.570	6.391	6.363	5.825	5.408	5.124	4.169	3.649	3.160	3.462	4.857	7.733	29.99	162.9	351.2	121.3	3.867	1.108	0.788	0.953	0.798	0.793	0.751	0.753	0.770	0.854
550.0	97.84	97.96	103.4	101.6	108.7	143.6	201.4	141.7	126.3	218.5	1228	1458	150.5	85.90	74.83	65.20	58.74	54.06	49.36	47.46	43.98	42.68	41.57	40.99	40.07	39.47	38.72	38.82	38.48	38.78	37.23	35.24	32.97	30.40	28.55	26.99	25.26	23.30	21.58	19.95	18.91	16.88	15.74	15.05	13.60	12.49	11.82	11.86	12.43	10.59	8.438	6.838	5.889	5.597	5.063	4.823	4.561	4.359	3.448	2.961	2.712	2.871	3.214	8.059	39.13	141.5	229.4	126.9	12.14	0.994	0.771	0.699	0.750	0.676	0.667	0.672	0.704
555.0	83.13	88.86	88.11	79.28	87.37	103.1	165.4	150.4	103.1	124.7	397.9	1720	616.4	76.89	61.87	53.20	48.20	44.93	39.72	37.62	36.71	34.58	34.15	33.43	32.61	31.55	30.65	31.05	30.68	30.83	30.65	28.38	26.76	25.10	22.49	21.43	20.39	19.24	17.52	16.63	15.34	13.78	13.26	12.35	11.75	10.45	9.955	9.634	9.645	9.495	8.218	6.433	5.127	4.725	4.454	4.227	3.737	3.895	3.565	2.900	2.360	2.232	2.147	2.937	9.751	32.52	69.26	208.5	168.1	14.31	0.732	0.671	0.749	0.761	0.778	0.539	0.546
560.0	85.20	77.11	81.39	73.56	78.84	81.05	121.9	165.9	97.70	95.69	158.5	1045	1308	99.37	52.52	44.39	39.99	36.94	33.92	32.11	30.45	28.81	28.35	27.10	26.44	26.85	25.78	25.93	25.92	26.15	25.37	24.14	22.63	21.74	19.58	18.19	17.50	16.07	15.02	14.38	13.12	12.18	10.96	10.83	10.17	9.325	8.689	8.012	7.703	7.744	7.914	6.623	4.530	4.221	3.949	3.618	3.372	3.187	3.402	2.825	2.249	1.992	1.848	1.746	3.271	8.174	16.49	75.41	224.2	119.5	6.342	0.711	0.593	0.647	0.586	0.445	0.524
565.0	75.87	78.82	70.61	63.63	65.78	70.20	91.20	157.2	99.96	82.80	96.37	413.6	1693	162.9	46.39	37.90	34.46	31.45	29.63	28.16	26.66	24.72	23.72	23.59	22.96	22.77	22.22	22.87	22.31	22.59	21.05	20.98	18.63	17.95	16.75	15.78	14.50	13.77	12.37	12.22	11.58	10.36	9.572	9.169	8.745	7.852	7.377	6.953	6.252	6.047	6.822	6.262	4.626	3.762	3.562	3.279	3.229	2.743	2.719	2.782	2.227	1.829	1.497	1.541	1.821	2.846	4.521	18.13	96.01	210.6	33.52	2.436	0.638	0.535	0.548	0.543	0.477
570.0	76.71	72.29	71.66	57.12	56.36	58.07	64.10	115.7	124.4	73.63	72.15	147.8	999.0	962.4	74.43	32.70	28.19	25.79	24.04	22.59	21.75	20.40	19.37	19.07	18.61	18.10	17.66	17.87	18.28	17.94	17.45	16.45	15.31	14.52	13.06	12.78	12.04	10.98	10.68	9.942	9.347	8.723	8.190	7.907	7.031	6.885	6.302	5.729	5.074	4.763	5.077	5.314	4.681	3.579	3.295	2.868	2.838	2.388	2.340	2.332	2.326	1.851	1.576	1.413	1.317	1.426	1.826	4.849	22.87	81.84	132.8	80.28	9.740	0.650	0.544	0.497	0.457
575.0	77.92	70.86	60.98	55.03	47.35	48.82	49.99	70.68	127.3	77.67	62.34	75.17	300.0	1251	373.9	28.36	23.30	20.88	19.23	19.16	17.13	15.97	16.42	15.53	15.25	14.07	14.62	14.56	15.01	14.32	14.47	13.43	11.72	11.54	10.83	10.39	9.591	9.204	8.294	7.880	7.525	7.025	6.603	6.357	5.557	5.557	4.849	4.636	4.345	3.799	3.711	3.897	4.251	3.723	3.092	2.492	2.297	2.203	1.868	1.944	1.861	1.998	1.564	1.298	1.028	1.378	1.178	1.867	5.773	18.96	39.17	120.9	102.1	9.578	0.546	0.448	0.443
580.0	71.17	68.23	56.43	46.52	39.75	42.80	42.82	53.09	105.5	94.33	54.48	56.44	104.4	774.9	883.2	40.96	20.55	18.15	16.39	15.76	14.73	13.76	13.35	13.15	12.59	12.11	12.64	12.27	12.66	12.01	11.82	11.58	10.20	9.532	9.113	8.761	8.324	7.925	7.053	6.597	6.381	6.002	5.614	5.382	4.964	4.638	4.257	4.081	3.585	3.406	3.144	3.131	3.693	3.615	3.012	2.303	2.040	1.736	1.651	1.551	1.520	1.791	1.722	1.316	1.023	1.081	1.011	1.227	1.982	4.826	9.444	43.40	132.5	35.42	4.229	0.409	0.397
585.0	62.06	69.20	55.18	41.22	37.60	39.71	37.92	44.67	78.05	110.4	54.09	52.40	55.73	296.3	1172	103.8	17.99	15.91	14.77	12.60	12.24	11.65	12.08	11.49	11.24	10.56	10.90	10.63	10.92	10.28	9.999	9.699	9.059	8.567	7.733	7.341	7.378	6.840	5.878	5.684	5.579	5.043	4.901	4.669	4.326	4.224	3.719	3.374	3.341	3.008	2.795	2.776	3.019	3.277	2.948	2.277	1.925	1.696	1.683	1.445	1.477	1.549	1.845	1.408	1.064	0.964	0.907	0.887	1.069	1.723	2.612	10.44	55.79	115.3	30.83	1.494	0.435
590.0	62.08	60.23	51.16	39.37	35.44	37.08	35.94	41.80	56.79	106.3	72.61	49.72	44.73	95.61	682.1	600.7	32.80	13.38	11.94	10.55	10.13	9.502	9.823	9.418	9.088	8.589	8.691	8.412	8.386	8.357	8.117	7.826	7.622	6.931	6.715	5.838	6.027	5.497	5.023	4.733	4.652	4.304	3.991	3.764	3.569	3.522	3.128	3.085	2.739	2.384	2.367	2.190	2.291	2.514	2.842	2.221	1.784	1.474	1.462	1.236	1.270	1.273	1.305	1.490	1.205	0.952	0.834	0.804	0.788	0.969	1.133	2.830	13.29	46.09	80.23	52.40	6.864
595.0	62.61	49.54	46.91	35.66	33.13	35.27	36.30	40.46	46.57	79.33	100.9	50.65	40.86	45.60	197.6	799.5	99.13	12.26	9.608	8.777	8.532	7.532	8.192	7.512	7.324	6.961	6.785	6.431	6.822	6.794	6.715	6.775	6.064	5.585	5.157	5.051	4.883	4.514	4.224	3.729	3.695	3.622	3.147	3.064	2.936	2.849	2.558	2.437	2.456	1.934	1.848	1.765	1.653	1.799	2.264	2.123	1.783	1.395	1.196	1.379	0.994	0.987	1.023	1.085	1.174	1.174	0.814	0.800	0.660	0.816	0.754	1.167	3.395	10.59	23.08	71.78	37.00
600.0	57.00	54.43	40.75	34.85	31.94	32.93	35.07	42.26	45.40	66.11	110.2	60.88	42.76	34.88	62.24	516.4	473.7	17.48	8.709	7.766	7.471	7.127	6.571	6.415	6.188	6.108	5.770	6.151	6.072	5.672	5.455	5.428	5.095	4.811	4.646	4.157	4.072	3.606	3.469	3.263	3.129	2.863	2.725	2.552	2.522	2.385	2.349	2.103	2.010	1.737	1.613	1.641	1.348	1.459	1.696	1.996	1.849	1.466	1.134	1.324	1.001	1.053	0.929	0.882	1.039	1.220	0.837	0.802	0.698	0.625	0.659	0.717	1.172	2.705	5.636	25.65	71.63
605.0	52.24	50.29	35.75	31.59	31.82	34.92	37.14	44.59	50.79	61.55	104.1	75.53	44.24	32.85	31.08	200.5	691.0	62.19	7.952	6.460	6.634	6.095	5.797	5.170	5.214	5.203	4.798	4.957	5.132	4.771	4.747	4.532	4.228	3.955	3.733	3.786	3.501	2.955	3.255	2.836	2.714	2.628	2.448	2.097	2.296	2.042	2.071	1.724	1.768	1.635	1.451	1.311	1.227	1.300	1.378	1.579	1.944	1.497	1.117	1.091	0.960	0.922	0.943	0.777	1.001	1.185	1.042	0.801	0.664	0.599	0.718	0.618	0.757	1.018	1.608	6.249	30.45
610.0	57.04	46.42	40.08	30.53	29.97	33.36	38.80	45.47	50.91	58.69	79.52	94.39	48.83	32.74	23.96	60.68	448.1	351.6	13.69	5.835	5.723	4.807	4.925	4.373	4.421	4.260	4.031	3.993	4.055	3.848	3.917	3.696	3.575	3.244	3.139	2.881	2.789	2.778	2.490	2.438	2.131	2.247	2.045	1.900	1.827	1.833	1.697	1.532	1.384	1.292	1.191	1.142	1.086	1.132	1.077	1.125	1.456	1.443	1.247	1.038	0.919	0.887	0.844	0.738	0.840	0.868	0.953	0.884	0.656	0.564	0.663	0.558	0.609	0.627	0.697	1.686	7.389
615.0	44.53	47.91	38.78	32.90	28.29	34.76	39.45	44.79	48.96	54.16	61.68	92.02	59.87	31.21	22.63	25.12	131.4	530.4	70.07	5.358	4.656	4.291	3.915	3.473	3.548	3.516	3.366	3.097	3.303	3.173	3.323	3.091	3.078	2.704	2.530	2.446	2.292	2.424	2.217	1.920	1.771	1.941	1.622	1.541	1.625	1.482	1.394	1.270	1.063	1.118	0.933	0.991	0.970	0.932	0.956	0.851	0.939	1.246	1.166	1.037	0.830	0.777	0.748	0.817	0.726	0.789	0.808	0.871	0.897	0.582	0.599	0.515	0.479	0.421	0.495	0.643	2.050
620.0	45.44	41.52	34.00	29.98	25.56	30.96	35.94	43.75	48.89	54.27	56.86	75.47	70.24	31.82	20.98	16.01	38.62	376.3	285.2	7.449	4.294	3.703	3.719	3.031	2.860	2.810	2.885	2.742	2.851	2.789	2.511	2.631	2.504	2.318	2.137	2.135	1.895	1.977	1.784	1.677	1.500	1.547	1.321	1.424	1.373	1.303	1.134	1.152	1.005	0.997	0.825	0.818	0.822	0.840	0.786	0.695	0.767	1.134	1.165	1.033	0.796	0.800	0.800	0.660	0.678	0.695	0.657	0.732	0.794	0.763	0.550	0.482	0.508	0.527	0.433	0.476	0.813
625.0	49.24	41.25	30.10	29.91	25.01	31.51	35.23	44.41	47.87	52.05	53.89	59.14	75.68	33.39	19.05	13.00	16.04	154.6	464.5	29.72	3.787	3.404	2.966	2.687	2.629	2.441	2.514	2.588	2.617	2.300	2.357	2.194	2.141	1.877	1.667	1.947	1.710	1.699	1.598	1.461	1.301	1.302	1.106	1.221	1.108	1.098	0.984	0.996	0.855	0.805	0.856	0.688	0.782	0.678	0.695	0.697	0.772	0.860	0.945	0.872	0.798	0.717	0.789	0.694	0.619	0.719	0.599	0.684	0.876	0.820	0.644	0.491	0.527	0.444	0.446	0.379	0.558
630.0	42.58	40.18	31.48	29.37	26.55	29.50	32.68	41.47	47.55	50.42	49.98	53.05	66.99	43.66	19.33	12.63	10.16	43.49	340.5	185.9	6.101	2.834	2.525	2.370	2.217	2.098	2.195	1.969	2.181	2.046	1.950	1.968	1.791	1.669	1.502	1.610	1.519	1.485	1.284	1.308	1.110	1.127	1.023	0.933	0.951	0.957	0.853	0.830	0.742	0.640	0.701	0.709	0.671	0.565	0.602	0.623	0.608	0.724	0.812	0.889	0.837	0.722	0.705	0.571	0.572	0.614	0.611	0.646	0.663	0.712	0.662	0.540	0.448	0.456	0.431	0.494	0.421
635.0	46.67	37.48	36.54	26.34	26.97	27.77	31.91	38.24	42.40	46.68	49.08	45.35	48.87	52.77	22.81	12.07	8.659	14.91	104.1	373.3	45.60	2.626	2.250	1.945	2.061	1.845	1.857	1.694	1.646	1.567	1.552	1.648	1.506	1.467	1.415	1.368	1.252	1.164	1.136	1.116	1.121	0.864	0.964	0.818	0.797	0.700	0.653	0.665	0.664	0.526	0.582	0.570	0.540	0.514	0.572	0.520	0.496	0.632	0.567	0.637	0.694	0.623	0.624	0.575	0.551	0.596	0.542	0.506	0.565	0.482	0.623	0.670	0.551	0.426	0.387	0.436	0.390
640.0	38.01	37.42	32.26	24.48	21.74	25.12	30.41	34.76	39.11	42.09	43.95	43.03	39.58	52.37	28.35	12.26	8.916	8.051	28.90	299.3	174.1	3.510	2.032	1.900	1.822	1.645	1.809	1.540	1.483	1.520	1.375	1.466	1.315	1.245	1.146	1.070	1.189	1.119	1.150	0.954	0.967	0.861	0.749	0.745	0.616	0.667	0.576	0.647	0.610	0.474	0.494	0.579	0.467	0.474	0.504	0.496	0.542	0.560	0.531	0.560	0.702	0.676	0.661	0.647	0.537	0.602	0.613	0.550	0.519	0.466	0.603	0.597	0.620	0.414	0.331	0.392	0.372
645.0	41.56	37.22	32.51	23.39	22.01	24.23	28.46	33.19	36.48	41.28	41.86	40.89	35.47	43.46	34.13	12.58	8.952	6.364	9.857	136.4	311.3	14.52	2.090	1.780	1.404	1.344	1.480	1.382	1.260	1.437	1.291	1.231	1.106	1.203	1.191	1.034	0.961	0.939	0.940	0.838	0.765	0.847	0.670	0.667	0.570	0.657	0.626	0.534	0.543	0.509	0.560	0.517	0.474	0.430	0.471	0.473	0.469	0.523	0.483	0.571	0.505	0.589	0.611	0.540	0.510	0.502	0.592	0.491	0.489	0.453	0.537	0.602	0.623	0.491	0.397	0.330	0.337
650.0	41.12	40.44	29.06	24.82	22.54	22.88	25.85	29.78	32.06	37.35	40.58	39.07	34.13	35.52	39.00	14.00	8.875	6.508	5.739	41.49	320.4	59.41	2.289	1.602	1.441	1.414	1.284	1.295	1.250	1.156	1.158	1.138	1.102	1.156	1.054	1.087	0.939	0.734	0.834	0.696	0.645	0.819	0.740	0.628	0.595	0.576	0.572	0.579	0.401	0.433	0.494	0.436	0.407	0.424	0.445	0.448	0.444	0.450	0.498	0.509	0.446	0.496	0.571	0.563	0.479	0.491	0.545	0.512	0.501	0.438	0.528	0.451	0.504	0.518	0.395	0.375	0.358
