Sample:	'1
File name:	³ö10±¶.FD3
Run date:	'16:02:06, 06/17/2025
Operator:	dsjg
Comment:	'

Instrument
Model:	F-2700 FL Spectrophotometer
Serial number:	2198-001
ROM Version:	4J14000 07

Instrument parameters
Measurement type:	3-D scan
Data mode:	Fluorescence
EX  Start WL:	220.0 nm
EX  End WL:	600.0 nm
EX Sampling interval:	5.0 nm
EM  Start WL:	230.0 nm
EM  End WL:	650.0 nm
EM Sampling interval:	5.0 nm
Scan speed:	12000 nm/min
EX Slit:	5.0 nm
EM Slit:	5.0 nm
PMT Voltage:	700 V
Response:	Auto 
Corrected spectra:	Off
Contour interval:	50.000

Peak integration
Integration method:	Rectangular
Sensitivity:	1
Threshold:	1.000

Peaks
No.	ApexEX/EM(nm)	Height(Data)
1	225.0/620.0	53.41
2	235.0/350.0	 2009
3	240.0/265.0	97.90
4	245.0/270.0	86.99
5	250.0/275.0	101.1
6	250.0/460.0	 7130
7	255.0/280.0	119.9
8	275.0/605.0	61.58
9	280.0/390.0	 3408
10	280.0/615.0	55.00
11	285.0/630.0	43.40
12	300.0/455.0	 2454
13	325.0/390.0	 2102
14	360.0/445.0	 1502
15	505.0/460.0	34.28
16	560.0/390.0	14.79
17	565.0/385.0	15.05

Data points
	220.0	225.0	230.0	235.0	240.0	245.0	250.0	255.0	260.0	265.0	270.0	275.0	280.0	285.0	290.0	295.0	300.0	305.0	310.0	315.0	320.0	325.0	330.0	335.0	340.0	345.0	350.0	355.0	360.0	365.0	370.0	375.0	380.0	385.0	390.0	395.0	400.0	405.0	410.0	415.0	420.0	425.0	430.0	435.0	440.0	445.0	450.0	455.0	460.0	465.0	470.0	475.0	480.0	485.0	490.0	495.0	500.0	505.0	510.0	515.0	520.0	525.0	530.0	535.0	540.0	545.0	550.0	555.0	560.0	565.0	570.0	575.0	580.0	585.0	590.0	595.0	600.0
230.0	33.74	484.5	 1047	375.3	16.53	7.128	7.131	7.107	5.384	4.160	4.139	3.259	3.427	3.744	2.817	2.574	2.363	2.199	2.089	1.830	1.760	1.660	1.403	1.389	1.348	1.391	1.239	1.344	1.215	1.208	1.102	0.800	0.783	0.748	0.733	0.677	0.670	0.625	0.496	0.537	0.401	0.487	0.422	0.479	0.343	0.399	0.414	1.252	3.206	3.574	1.919	0.656	0.279	0.355	0.235	0.355	0.252	0.353	0.386	0.269	0.357	0.229	0.220	0.319	0.294	0.287	0.307	0.274	0.292	0.253	0.299	0.294	0.321	0.257	0.298	0.248	0.264
235.0	34.46	134.5	610.4	 1154	416.1	27.56	10.42	4.431	5.259	3.646	4.105	3.957	3.543	3.351	2.030	2.301	2.067	2.195	2.188	2.299	1.859	1.663	1.834	1.649	1.181	1.256	1.567	1.449	1.224	1.099	1.047	0.781	1.000	0.708	0.518	0.652	0.600	0.606	0.497	0.460	0.627	0.515	0.455	0.323	0.324	0.245	0.413	0.596	1.199	2.002	3.137	4.146	2.370	0.902	0.230	0.184	0.262	0.464	0.484	0.367	0.416	0.336	0.329	0.256	0.211	0.273	0.263	0.170	0.163	0.399	0.317	0.268	0.379	0.388	0.205	0.263	0.294
240.0	44.10	53.37	187.7	932.5	 1165	320.1	16.26	6.800	6.108	5.326	4.062	3.935	4.464	3.122	2.761	2.482	2.164	2.174	2.173	1.982	1.890	1.719	1.724	1.861	1.648	1.360	1.587	1.385	1.621	1.031	1.111	0.842	0.862	0.745	0.546	0.722	0.577	0.507	0.469	0.513	0.448	0.575	0.285	0.351	0.429	0.323	0.440	0.322	0.483	0.650	1.248	3.159	5.237	4.063	1.973	0.401	0.209	0.437	0.260	0.399	0.363	0.373	0.384	0.207	0.333	0.337	0.215	0.271	0.269	0.321	0.138	0.306	0.401	0.261	0.310	0.408	0.396
245.0	43.88	59.97	69.11	326.1	 1108	 1135	233.2	9.982	5.751	4.358	4.210	3.829	5.542	3.104	3.303	2.159	2.693	2.035	1.837	2.306	2.296	1.877	1.850	1.820	1.386	1.554	1.304	1.352	1.506	1.325	0.837	0.915	0.859	0.591	0.656	0.392	0.595	0.508	0.488	0.638	0.480	0.496	0.362	0.518	0.588	0.533	0.461	0.510	0.518	0.484	0.500	1.197	2.812	4.801	5.411	3.362	1.261	0.354	0.427	0.310	0.302	0.328	0.328	0.490	0.359	0.288	0.131	0.402	0.229	0.184	0.318	0.283	0.383	0.316	0.350	0.391	0.429
250.0	27.81	49.55	66.58	104.3	358.9	960.1	 1310	271.2	29.68	5.497	4.486	4.384	5.023	3.445	2.960	2.294	2.376	2.491	1.830	1.907	1.727	1.533	1.824	1.459	1.268	1.431	1.426	1.319	1.118	1.142	0.949	1.061	0.948	0.626	0.634	0.627	0.511	0.503	0.593	0.496	0.473	0.418	0.499	0.405	0.340	0.437	0.424	0.530	0.475	0.501	0.415	0.510	0.868	1.672	2.844	3.891	4.891	4.551	2.709	0.968	0.335	0.224	0.227	0.372	0.340	0.280	0.325	0.376	0.276	0.132	0.260	0.271	0.246	0.330	0.264	0.297	0.407
255.0	19.44	30.23	54.51	98.62	107.9	247.3	873.9	 1247	355.7	29.34	5.813	3.183	5.767	3.878	2.561	2.445	2.324	3.077	2.298	1.689	1.783	1.275	1.754	1.520	1.279	1.289	1.414	1.398	1.252	1.129	0.804	1.038	1.030	0.624	0.536	0.615	0.442	0.639	0.382	0.586	0.585	0.272	0.532	0.417	0.235	0.377	0.339	0.530	0.328	0.512	0.557	0.769	0.518	0.658	0.950	1.160	1.941	4.008	6.012	6.157	3.635	1.109	0.316	0.413	0.300	0.344	0.348	0.297	0.257	0.364	0.345	0.236	0.333	0.329	0.304	0.264	0.263
260.0	24.54	12.74	31.62	90.17	86.43	72.80	260.6	949.7	 1297	284.4	14.89	5.283	4.767	3.733	2.998	3.448	2.361	2.266	2.063	2.335	2.141	1.576	1.706	1.163	1.351	1.380	1.318	1.608	1.230	1.172	0.838	1.049	0.877	0.734	0.527	0.754	0.493	0.638	0.515	0.553	0.539	0.399	0.497	0.576	0.258	0.568	0.339	0.343	0.306	0.433	0.269	0.674	0.702	0.670	0.458	0.469	0.700	1.444	2.577	5.059	6.747	5.547	2.229	0.551	0.171	0.202	0.191	0.103	0.246	0.266	0.278	0.419	0.208	0.431	0.163	0.425	0.265
265.0	29.51	12.01	23.16	47.90	97.90	67.44	75.12	313.7	 1159	 1209	218.2	8.071	5.360	4.921	3.348	3.776	2.294	2.469	1.982	2.311	1.768	1.687	1.599	1.646	1.547	1.346	1.236	1.543	1.396	1.194	1.268	1.046	0.705	0.695	0.818	0.694	0.301	0.536	0.636	0.332	0.330	0.699	0.543	0.606	0.403	0.409	0.281	0.365	0.420	0.352	0.238	0.391	0.590	0.703	0.537	0.469	0.419	0.557	0.855	1.597	3.774	5.975	6.806	4.724	1.412	0.277	0.291	0.349	0.203	0.273	0.227	0.420	0.368	0.482	0.139	0.276	0.300
270.0	24.27	18.88	15.45	22.20	50.88	86.99	77.57	89.11	355.5	931.0	 1137	529.8	55.33	4.520	3.436	2.942	2.745	2.791	2.357	2.200	1.825	1.740	1.907	1.657	1.663	1.495	1.476	1.485	1.205	1.502	1.155	1.251	0.745	0.786	0.656	0.766	0.574	0.571	0.581	0.458	0.378	0.523	0.524	0.508	0.345	0.479	0.424	0.515	0.395	0.313	0.284	0.400	0.363	0.458	0.492	0.537	0.649	0.518	0.509	0.634	1.128	1.956	3.185	4.751	5.480	5.043	3.268	1.519	0.476	0.317	0.292	0.412	0.343	0.256	0.227	0.328	0.236
275.0	27.12	25.06	21.69	19.54	19.96	43.79	101.1	86.67	99.20	238.2	637.4	 1306	757.7	55.70	4.531	3.377	2.779	2.579	2.862	2.540	1.765	1.834	1.838	1.758	1.478	1.476	1.712	1.537	1.252	1.265	1.085	1.195	0.923	0.857	0.691	0.723	0.626	0.495	0.469	0.394	0.500	0.376	0.234	0.448	0.440	0.396	0.465	0.403	0.332	0.455	0.265	0.497	0.252	0.448	0.325	0.485	0.734	0.886	1.002	0.457	0.438	0.718	1.049	1.612	1.779	3.449	6.179	7.183	4.616	1.393	0.385	0.306	0.235	0.311	0.229	0.379	0.258
280.0	46.90	41.62	36.00	22.46	17.33	25.30	68.39	119.9	82.72	80.64	201.9	798.3	 1365	218.7	26.89	4.887	3.423	3.198	2.718	2.019	1.879	1.714	2.098	1.872	1.983	1.567	1.647	1.340	1.523	1.215	1.301	1.133	0.976	0.877	1.035	0.682	0.714	0.671	0.642	0.327	0.482	0.374	0.375	0.481	0.530	0.480	0.496	0.308	0.370	0.459	0.317	0.550	0.349	0.255	0.178	0.407	0.423	0.642	0.797	0.855	0.708	0.515	0.501	0.648	0.879	1.125	2.410	4.909	7.577	6.905	3.045	0.833	0.374	0.418	0.309	0.193	0.235
285.0	64.36	81.94	61.95	46.89	36.02	24.82	42.75	104.6	136.7	82.50	93.89	283.9	935.1	 1223	177.4	13.73	4.293	3.101	2.857	2.107	1.901	2.016	2.412	1.552	2.106	1.320	1.195	1.584	1.514	1.435	1.085	1.207	1.146	0.891	0.801	0.697	0.767	0.658	0.587	0.345	0.521	0.444	0.408	0.442	0.484	0.519	0.623	0.475	0.594	0.520	0.423	0.631	0.430	0.324	0.357	0.449	0.477	0.588	0.463	0.782	1.090	1.027	0.559	0.461	0.774	0.542	1.013	1.698	3.473	6.143	7.618	5.968	2.005	0.456	0.472	0.393	0.382
290.0	131.3	181.0	197.9	171.4	108.2	49.74	44.16	75.31	143.0	184.7	166.8	190.9	386.7	777.1	 1042	604.0	48.84	4.036	3.343	2.754	2.041	2.224	2.041	1.722	1.715	1.615	1.406	1.416	1.405	1.424	1.235	1.007	1.045	0.770	0.815	0.725	0.636	0.856	0.640	0.577	0.454	0.575	0.451	0.547	0.579	0.692	0.639	0.805	0.918	0.842	0.723	0.978	0.822	0.540	0.483	0.490	0.473	0.593	0.626	0.676	0.780	1.172	1.149	1.284	1.097	0.753	0.956	1.182	1.560	2.360	3.697	5.256	6.215	6.221	3.855	1.712	0.302
295.0	200.7	319.5	373.3	346.2	219.8	82.34	66.30	84.72	130.3	229.1	335.4	294.7	315.3	378.9	560.6	 1095	898.8	56.31	4.267	3.625	2.352	2.506	1.981	2.107	1.795	1.634	1.584	1.486	1.567	1.265	1.581	1.165	1.066	0.915	0.895	0.792	0.579	0.841	0.643	0.967	0.525	0.702	0.562	0.667	0.803	1.001	0.819	1.211	1.470	1.298	1.282	1.524	1.567	0.857	0.733	0.559	0.637	0.670	0.726	0.759	0.755	0.980	1.219	1.401	1.846	1.824	1.290	1.658	1.681	1.617	2.014	2.057	2.430	3.839	6.400	8.638	5.730
300.0	252.0	417.4	480.3	482.5	292.2	113.2	92.96	113.8	158.6	245.2	407.8	466.7	405.5	363.6	333.9	608.3	 1333	710.2	28.72	4.301	2.649	2.585	2.135	2.085	1.917	1.947	2.063	1.697	1.752	1.513	1.300	0.996	1.150	0.844	0.968	0.863	1.071	0.872	0.784	1.064	0.553	0.653	0.721	0.698	0.851	1.086	0.994	1.587	1.717	1.711	1.693	1.862	1.902	1.239	0.804	0.643	0.780	0.697	0.820	0.710	0.949	1.003	1.168	1.230	1.947	2.468	2.556	2.181	1.843	1.958	1.907	1.757	1.707	1.632	2.730	5.330	8.382
305.0	295.5	467.5	597.0	552.2	353.1	139.4	126.8	157.4	203.0	298.9	436.5	592.9	565.3	442.8	341.4	298.4	766.2	 1459	506.4	11.62	3.162	3.147	2.720	2.334	2.277	1.873	1.784	1.761	1.696	1.706	1.078	1.141	1.161	1.030	0.939	1.008	1.023	1.077	0.891	0.931	0.630	0.622	0.764	0.896	0.711	1.109	1.137	1.781	1.922	1.745	1.935	2.217	2.206	1.501	0.885	0.883	0.868	0.810	0.801	0.940	1.145	1.132	1.508	1.592	1.907	2.385	3.015	3.130	2.951	2.318	2.546	2.187	1.973	1.557	1.614	2.150	3.676
310.0	322.8	506.2	624.8	601.7	384.7	166.3	159.6	193.0	250.2	339.6	458.3	599.8	694.5	590.2	407.8	241.1	311.8	726.6	 1145	461.9	36.12	3.828	2.792	2.315	2.390	1.990	1.795	1.764	1.615	1.739	1.419	1.378	1.215	0.879	0.966	1.001	1.027	0.993	0.994	0.860	0.839	0.626	0.821	0.733	0.929	1.234	1.457	1.835	1.968	1.997	1.862	2.526	2.430	1.555	0.992	0.937	0.907	0.964	1.033	1.188	1.230	1.527	1.687	1.857	2.073	2.297	2.780	3.083	3.538	3.245	3.120	2.638	2.221	1.746	1.521	1.407	1.629
315.0	321.7	519.8	635.2	599.1	397.1	199.8	191.2	229.7	287.8	379.0	494.3	604.4	692.4	708.5	537.3	289.4	230.3	279.1	442.9	 1083	727.4	42.68	4.121	2.929	2.680	2.173	1.940	2.181	1.836	1.879	1.263	1.092	1.110	0.928	0.963	1.073	0.907	0.929	0.980	0.731	0.976	0.598	0.910	0.907	1.067	1.122	1.387	1.940	2.317	1.908	1.691	2.327	2.415	1.807	1.286	1.171	0.973	1.237	1.289	1.372	1.687	1.672	1.952	1.928	2.460	2.564	2.788	3.236	3.450	3.233	3.499	3.738	2.809	2.056	1.641	1.572	1.417
320.0	333.8	557.4	639.4	623.5	415.9	240.0	230.6	272.4	328.7	417.7	539.1	645.3	708.7	727.3	664.4	380.4	260.2	210.7	178.9	497.7	 1362	580.4	24.20	4.099	2.873	2.623	2.132	1.957	1.682	1.749	1.542	1.414	0.914	1.084	0.797	0.948	0.866	1.040	0.941	0.836	0.728	0.571	0.724	1.191	0.880	1.169	1.551	1.916	2.234	2.123	1.911	2.372	2.571	1.870	1.392	1.166	1.174	1.299	1.446	1.569	1.717	1.669	1.941	2.270	2.663	2.624	3.073	3.554	3.211	3.239	3.322	3.593	3.695	2.724	2.165	1.675	1.648
325.0	408.3	664.9	802.3	783.4	519.0	326.0	329.8	354.6	411.2	494.8	622.8	734.0	782.8	772.6	733.9	542.7	337.3	243.1	145.9	204.6	705.0	 1493	423.9	13.58	4.606	3.232	2.591	1.940	2.254	1.536	1.888	1.486	1.201	1.139	0.929	1.078	0.988	0.960	0.907	0.784	0.849	0.973	0.847	1.083	1.066	1.541	1.737	2.409	2.587	2.499	2.436	3.046	3.013	2.196	1.703	1.716	1.546	1.724	2.012	1.749	2.099	2.286	2.399	2.582	2.938	3.086	3.398	3.814	3.638	3.632	3.419	3.431	4.055	3.636	2.957	2.294	1.800
330.0	545.5	892.7	 1156	 1161	833.3	597.2	568.9	573.9	578.7	663.2	795.6	910.7	958.7	936.7	850.5	730.4	574.6	384.3	266.1	226.9	316.6	767.4	 1219	657.1	36.61	6.798	3.457	2.363	2.442	2.094	1.884	1.451	1.202	1.072	1.053	0.931	1.077	1.113	0.866	0.865	0.944	0.877	1.195	1.168	1.405	1.947	2.183	2.875	3.571	3.658	3.710	4.562	4.157	3.356	2.817	2.806	2.696	2.994	2.992	2.745	2.923	3.063	3.040	3.286	3.682	3.960	3.931	4.288	4.384	4.348	4.274	4.170	4.265	3.964	3.688	3.423	3.027
335.0	680.7	 1137	 1509	 1595	 1193	939.5	902.6	850.6	827.9	893.4	 1020	 1137	 1168	 1154	 1050	899.7	817.1	661.4	477.2	404.8	377.4	438.8	607.9	 1344	612.4	46.05	6.544	3.656	2.743	2.298	1.948	1.525	1.290	1.085	0.998	0.896	1.204	1.117	1.050	0.856	1.062	0.986	1.202	1.305	1.773	2.130	2.796	3.653	4.469	4.655	4.890	6.109	5.913	4.769	4.299	3.974	4.292	4.337	4.363	4.131	4.143	3.955	3.876	4.406	4.547	4.790	4.807	5.218	5.067	5.179	5.250	5.071	5.053	4.931	4.415	4.284	4.433
340.0	751.5	 1282	 1715	 1839	 1445	 1181	 1142	 1053	 1001	 1059	 1187	 1297	 1331	 1311	 1209	 1054	946.6	889.5	693.7	579.8	523.2	481.0	447.7	736.0	 1605	506.6	25.87	5.641	3.644	2.486	2.326	2.011	1.516	1.523	1.107	1.072	1.047	1.066	1.103	0.965	0.966	1.283	1.226	1.519	2.042	2.266	3.226	4.248	4.704	5.076	5.467	6.915	6.633	5.771	5.058	4.941	5.165	5.135	5.308	5.143	5.146	4.765	4.610	5.140	5.442	5.773	5.517	6.066	5.828	5.741	5.997	6.051	5.702	5.488	5.195	4.950	4.535
345.0	768.0	 1342	 1805	 1962	 1604	 1342	 1303	 1206	 1138	 1196	 1311	 1409	 1430	 1422	 1320	 1174	 1039	989.6	911.6	748.6	649.4	584.6	485.0	450.9	926.7	 1523	361.2	13.20	5.041	3.691	2.404	2.106	1.495	1.229	1.225	1.094	1.169	1.285	1.210	0.979	1.044	1.426	1.318	1.292	1.965	2.450	3.149	4.326	4.996	5.671	5.863	7.575	7.455	6.344	6.047	5.627	5.817	6.026	5.800	5.946	5.826	5.112	5.149	5.872	6.135	6.260	6.033	6.261	6.311	6.160	6.558	5.975	6.089	5.985	5.481	5.343	5.195
350.0	779.0	 1334	 1840	 2009	 1760	 1523	 1463	 1377	 1284	 1304	 1428	 1524	 1529	 1508	 1425	 1297	 1176	 1100	 1070	 1004	841.5	752.0	617.7	470.6	445.2	789.3	 1178	589.1	32.34	9.053	4.214	2.534	1.699	1.471	1.126	1.189	1.198	1.295	1.204	1.026	0.951	1.153	1.435	1.433	1.851	2.537	3.053	4.364	5.133	5.586	6.087	7.788	7.830	7.057	7.053	6.640	7.003	7.036	6.939	6.386	6.475	5.857	5.967	6.539	6.373	6.659	6.383	6.797	6.429	6.492	6.757	6.450	6.633	6.467	6.261	5.981	5.878
355.0	808.5	 1307	 1845	 1997	 1790	 1630	 1585	 1498	 1425	 1450	 1581	 1683	 1669	 1638	 1558	 1425	 1342	 1270	 1232	 1224	 1156	982.0	801.4	635.4	454.1	378.4	510.6	 1280	541.1	52.06	14.57	5.622	2.718	1.749	1.376	1.224	1.141	1.229	1.271	1.124	1.203	1.300	1.409	1.506	1.902	2.635	3.203	4.094	5.062	5.274	5.813	7.754	7.576	7.504	7.314	6.914	7.225	7.289	7.319	6.939	6.872	6.626	6.660	6.920	7.417	7.367	7.040	7.362	7.282	7.426	7.071	7.308	7.402	6.880	6.935	6.813	6.766
360.0	785.1	 1290	 1782	 1979	 1822	 1698	 1631	 1574	 1538	 1593	 1764	 1861	 1888	 1823	 1692	 1548	 1465	 1409	 1380	 1364	 1360	 1211	 1013	821.9	612.6	430.4	371.7	719.7	 1516	494.2	46.59	12.98	4.777	2.235	1.829	1.242	1.319	1.312	1.210	1.218	1.284	1.209	1.431	1.601	2.173	2.629	3.096	4.112	4.987	5.507	5.577	7.363	7.489	7.585	7.428	7.089	7.780	7.772	7.465	7.448	7.147	7.084	7.064	7.443	7.722	7.725	8.673	8.427	8.333	8.170	8.175	8.515	8.183	7.663	7.441	7.242	7.403
365.0	814.7	 1301	 1765	 1930	 1831	 1750	 1680	 1642	 1630	 1770	 1993	 2148	 2181	 2079	 1879	 1671	 1571	 1525	 1522	 1504	 1503	 1466	 1259	 1052	859.8	642.5	529.8	547.9	 1092	 1720	368.5	33.78	9.679	3.402	2.082	1.605	1.593	1.498	1.401	1.402	1.477	1.439	1.767	1.739	2.125	2.529	3.194	4.087	4.917	5.313	5.707	7.048	7.850	7.665	7.748	7.443	8.187	7.861	7.875	7.766	7.640	7.548	7.946	8.173	8.516	8.609	9.311	9.298	9.214	9.496	9.347	9.394	8.548	8.253	7.815	7.790	7.656
370.0	857.6	 1322	 1718	 1895	 1826	 1786	 1756	 1743	 1778	 1979	 2309	 2545	 2597	 2460	 2132	 1821	 1701	 1671	 1679	 1696	 1692	 1689	 1604	 1405	 1215	 1013	856.6	755.2	833.5	 1197	 1306	557.7	36.19	9.117	3.649	2.183	1.760	1.689	1.567	1.407	1.664	1.489	1.644	1.852	2.310	2.747	3.376	4.191	5.182	5.542	5.715	7.123	7.837	7.265	7.739	7.452	8.164	8.060	8.460	8.325	8.312	8.391	8.641	9.258	9.819	10.50	11.03	10.97	10.88	11.28	10.91	10.52	10.16	9.272	8.593	8.417	8.591
375.0	903.7	 1349	 1722	 1838	 1821	 1809	 1800	 1830	 1928	 2207	 2593	 2897	 2988	 2803	 2361	 1980	 1816	 1802	 1830	 1873	 1876	 1875	 1849	 1758	 1559	 1354	 1181	 1055	985.3	849.1	740.2	 1301	467.4	39.84	7.309	3.416	2.236	1.885	1.775	1.438	1.573	1.445	1.926	1.890	2.316	2.828	3.565	4.555	5.275	5.178	5.452	6.975	7.686	7.505	7.899	7.902	8.617	8.463	8.586	9.052	8.714	9.092	9.279	10.24	10.74	11.72	12.24	12.81	12.45	13.09	12.51	11.48	10.98	10.10	9.253	9.096	8.721
380.0	934.4	 1399	 1707	 1848	 1844	 1832	 1865	 1893	 2030	 2337	 2777	 3120	 3240	 2993	 2545	 2073	 1883	 1869	 1913	 1977	 1994	 1998	 1970	 1940	 1806	 1581	 1399	 1261	 1152	873.3	551.6	739.6	 1304	378.8	21.61	5.033	2.957	2.075	1.752	1.749	1.733	1.646	1.945	2.107	2.522	3.327	3.676	4.623	5.160	5.181	5.630	6.861	7.600	7.737	8.016	8.148	9.090	8.757	8.605	8.972	9.081	9.420	10.08	11.33	11.75	12.76	13.15	14.08	13.71	14.11	13.24	12.56	11.88	11.08	9.396	9.370	8.847
385.0	930.6	 1396	 1718	 1835	 1846	 1878	 1909	 1961	 2094	 2399	 2894	 3266	 3359	 3130	 2636	 2123	 1905	 1897	 1949	 2022	 2055	 2077	 2042	 2017	 1969	 1758	 1553	 1408	 1289	955.3	560.8	421.1	822.6	 1160	245.2	10.08	3.918	2.853	1.932	1.807	1.709	1.634	2.043	1.997	2.624	3.449	3.931	4.780	5.224	5.099	5.541	6.806	7.368	7.436	8.098	8.171	9.468	8.731	9.355	9.050	9.591	9.759	10.46	11.59	12.10	13.16	13.73	14.52	14.74	15.05	14.17	13.53	12.15	11.06	9.617	9.393	9.270
390.0	958.0	 1415	 1740	 1832	 1855	 1944	 1967	 2016	 2137	 2449	 2920	 3291	 3408	 3171	 2637	 2118	 1897	 1890	 1946	 2025	 2072	 2102	 2086	 2066	 2044	 1925	 1703	 1535	 1407	 1057	625.4	378.8	352.6	640.9	882.8	223.0	21.22	4.290	2.529	2.094	1.692	1.629	2.124	2.251	2.551	3.257	3.943	4.761	5.337	5.427	5.550	6.851	7.453	7.546	8.046	8.217	9.311	9.469	9.281	9.284	9.736	9.678	10.58	11.53	12.25	13.58	14.13	14.60	14.79	14.61	14.37	13.76	12.19	10.99	9.954	9.554	9.392
395.0	970.5	 1444	 1760	 1824	 1902	 2029	 2051	 2069	 2166	 2477	 2903	 3262	 3348	 3121	 2594	 2083	 1879	 1852	 1906	 1973	 2035	 2076	 2076	 2068	 2045	 1960	 1818	 1634	 1485	 1143	706.6	427.5	279.2	246.1	367.9	863.3	365.2	25.18	4.499	2.824	1.904	1.755	2.081	2.314	2.344	3.442	3.511	4.940	5.299	5.225	5.684	6.903	7.557	7.955	8.400	8.486	9.636	9.785	9.541	9.600	9.804	9.742	10.81	11.51	12.15	12.96	14.15	14.06	14.25	14.14	13.91	13.23	11.99	11.09	9.790	9.445	9.365
400.0	993.1	 1446	 1740	 1855	 1948	 2088	 2139	 2147	 2213	 2482	 2880	 3185	 3262	 3056	 2547	 2049	 1841	 1818	 1868	 1933	 2000	 2036	 2043	 2041	 2024	 1933	 1833	 1694	 1519	 1181	755.9	477.9	294.7	178.9	156.9	426.7	937.8	304.1	13.45	3.988	2.569	2.350	2.173	2.413	2.634	3.445	3.594	4.806	5.314	5.235	5.762	6.787	7.823	8.292	8.867	8.814	9.962	10.08	9.827	10.12	10.81	10.41	10.60	11.59	11.68	12.86	13.61	13.89	13.54	13.62	13.88	12.91	12.10	10.46	9.465	9.592	8.580
405.0	983.8	 1406	 1727	 1872	 1972	 2148	 2237	 2225	 2221	 2468	 2798	 3067	 3158	 2966	 2481	 1996	 1791	 1771	 1815	 1874	 1933	 1966	 1985	 1986	 1973	 1891	 1788	 1702	 1537	 1195	794.0	518.7	325.1	186.7	125.2	159.7	543.5	959.7	48.69	8.079	3.578	2.672	2.373	2.304	2.683	3.651	3.517	4.684	5.525	5.304	5.602	6.978	7.835	8.607	9.016	8.930	10.03	10.20	10.37	10.38	10.13	10.19	10.85	11.32	11.78	12.25	13.38	13.34	13.36	12.87	13.54	12.34	11.92	10.47	9.448	9.120	8.818
410.0	982.2	 1427	 1726	 1887	 2080	 2295	 2393	 2353	 2290	 2398	 2688	 2897	 2960	 2793	 2357	 1922	 1743	 1718	 1745	 1797	 1827	 1847	 1865	 1878	 1880	 1808	 1707	 1622	 1527	 1206	821.5	563.3	370.5	229.8	150.5	116.2	183.3	510.1	634.6	202.0	18.59	4.410	3.120	2.700	2.842	3.598	3.723	4.768	5.458	5.471	5.560	6.936	8.085	8.791	9.629	9.979	11.06	11.08	11.21	10.91	10.47	10.53	10.66	11.00	11.62	11.71	12.50	12.36	12.55	12.17	12.68	11.87	11.11	10.11	9.058	8.822	8.957
415.0	992.3	 1416	 1741	 1927	 2203	 2502	 2679	 2606	 2397	 2373	 2540	 2701	 2752	 2586	 2222	 1868	 1707	 1677	 1700	 1720	 1720	 1716	 1723	 1744	 1760	 1708	 1620	 1533	 1462	 1229	872.6	619.4	427.1	290.0	200.9	143.1	120.4	167.4	266.7	650.9	309.6	22.75	4.774	3.470	3.161	3.763	3.853	5.048	5.501	5.622	5.510	7.177	8.529	9.049	10.24	11.11	12.61	12.50	12.68	11.83	11.31	10.97	10.71	10.50	11.49	10.93	11.72	11.51	11.67	11.88	11.60	11.04	10.47	9.593	9.128	8.934	8.748
420.0	 1020	 1437	 1791	 1973	 2355	 2768	 2984	 2877	 2565	 2387	 2469	 2569	 2610	 2475	 2149	 1865	 1722	 1689	 1694	 1691	 1649	 1618	 1620	 1655	 1664	 1632	 1558	 1490	 1414	 1222	939.4	679.5	486.8	342.5	248.3	178.2	130.5	107.0	109.7	315.3	701.4	248.8	12.84	4.175	3.901	3.732	3.956	4.931	5.268	5.747	5.721	7.726	9.036	9.934	11.21	12.09	14.04	14.13	14.20	13.03	12.14	12.04	10.81	10.45	10.64	11.04	11.28	10.92	11.21	10.91	10.86	10.37	10.15	8.991	9.127	8.835	9.025
425.0	 1014	 1459	 1839	 2119	 2585	 3081	 3370	 3237	 2786	 2446	 2411	 2479	 2521	 2419	 2136	 1890	 1770	 1743	 1737	 1711	 1626	 1549	 1539	 1572	 1591	 1578	 1518	 1470	 1403	 1222	 1000	755.2	556.7	401.2	300.7	220.6	160.5	113.3	87.66	118.5	407.8	658.2	45.78	7.510	4.628	4.170	4.063	5.072	5.351	6.110	6.084	8.095	9.981	11.08	12.48	13.46	15.75	16.74	16.60	14.53	14.19	12.47	11.30	10.55	10.29	10.47	10.32	10.83	11.08	10.61	10.66	10.23	10.22	9.061	8.857	9.066	8.671
430.0	 1055	 1544	 1939	 2369	 2983	 3678	 4113	 3911	 3215	 2586	 2375	 2394	 2441	 2379	 2180	 1991	 1910	 1882	 1860	 1785	 1613	 1479	 1455	 1486	 1518	 1529	 1497	 1464	 1412	 1261	 1065	875.4	673.5	500.7	384.2	291.6	216.5	152.1	108.5	87.98	140.0	355.8	473.2	179.1	16.72	5.317	4.793	5.537	5.952	6.043	6.637	8.931	11.12	12.99	14.76	16.03	18.75	19.98	19.32	17.71	15.87	14.04	12.32	11.07	10.46	10.13	10.11	10.31	10.38	10.42	10.04	9.951	10.11	9.688	9.452	9.635	9.797
435.0	 1183	 1696	 2101	 2644	 3507	 4382	 5035	 4781	 3768	 2801	 2361	 2338	 2378	 2374	 2247	 2138	 2097	 2065	 2035	 1903	 1631	 1433	 1379	 1408	 1459	 1484	 1483	 1481	 1449	 1334	 1153	986.1	813.6	625.2	482.7	374.6	279.3	201.3	143.0	101.7	86.81	116.4	195.2	517.5	270.0	19.41	6.063	6.452	6.613	6.607	7.321	10.12	12.92	14.73	17.40	19.51	22.37	23.78	23.93	21.35	18.56	16.13	13.17	11.41	10.65	9.951	10.01	10.03	10.41	9.978	10.55	10.31	10.40	10.05	10.26	10.43	10.59
440.0	 1369	 1796	 2227	 2868	 3913	 4957	 5683	 5399	 4168	 2962	 2370	 2281	 2355	 2368	 2295	 2239	 2236	 2215	 2155	 1998	 1648	 1407	 1335	 1364	 1423	 1466	 1483	 1491	 1479	 1387	 1221	 1056	896.5	722.3	557.6	430.3	325.2	235.7	166.8	117.5	83.28	69.60	73.26	261.5	581.0	194.5	10.07	7.185	7.403	7.250	7.937	11.33	13.70	16.83	19.45	22.19	25.39	27.38	26.97	24.76	21.53	18.09	14.38	11.47	10.47	10.04	9.915	9.607	9.824	9.967	10.20	10.27	10.58	10.50	10.65	11.27	11.38
445.0	 1594	 1914	 2320	 3082	 4216	 5445	 6269	 5915	 4488	 3081	 2370	 2252	 2317	 2364	 2349	 2322	 2343	 2326	 2272	 2070	 1661	 1368	 1289	 1316	 1393	 1440	 1470	 1492	 1502	 1427	 1277	 1114	949.7	792.3	621.4	476.5	362.0	261.0	185.4	131.8	91.43	63.22	47.54	84.01	353.9	551.8	37.00	8.924	7.759	7.425	8.348	11.42	14.76	18.07	21.07	23.94	27.75	30.01	29.37	27.29	23.37	18.94	14.82	12.24	10.49	9.997	9.564	9.709	9.552	10.02	10.11	10.62	10.63	10.91	10.78	11.45	11.93
450.0	 1588	 2137	 2433	 3238	 4524	 5884	 6860	 6416	 4836	 3172	 2312	 2199	 2256	 2339	 2343	 2385	 2439	 2418	 2357	 2121	 1655	 1306	 1215	 1244	 1325	 1387	 1442	 1477	 1495	 1452	 1331	 1179	 1001	841.8	688.2	534.3	401.2	290.4	207.7	146.3	101.3	70.07	47.24	42.62	103.8	308.9	353.2	154.4	16.61	8.230	8.752	12.44	15.51	19.06	22.52	25.12	29.93	32.72	31.82	28.75	24.65	20.25	15.64	12.77	10.46	9.575	9.353	9.386	9.428	9.874	10.09	10.56	10.63	10.76	11.21	11.98	12.65
455.0	 1399	 2317	 2596	 3270	 4668	 6133	 7123	 6701	 4987	 3196	 2243	 2093	 2165	 2276	 2298	 2389	 2454	 2435	 2383	 2108	 1617	 1229	 1128	 1153	 1244	 1320	 1387	 1429	 1462	 1433	 1346	 1206	 1036	859.9	711.4	576.3	437.0	312.4	223.2	158.3	111.8	77.67	52.64	37.51	43.23	84.29	155.0	446.2	222.6	17.93	9.682	13.08	16.54	19.90	23.07	25.77	31.58	34.05	33.49	30.00	24.63	20.92	15.66	12.47	10.10	9.060	9.022	8.840	9.377	9.966	9.758	10.07	10.20	10.51	11.17	11.79	12.41
460.0	 1306	 2250	 2765	 3299	 4668	 6161	 7130	 6747	 4991	 3161	 2154	 1999	 2069	 2189	 2238	 2342	 2414	 2405	 2350	 2078	 1555	 1159	 1058	 1095	 1174	 1254	 1320	 1374	 1411	 1399	 1316	 1193	 1032	861.1	712.0	579.2	450.5	321.2	230.0	164.4	116.8	82.74	57.17	39.23	31.97	35.44	48.45	217.7	476.0	152.7	12.89	13.11	16.49	19.88	23.33	26.21	31.19	34.28	32.18	30.56	25.31	20.56	15.38	11.70	9.384	8.857	8.403	8.566	8.783	8.880	9.564	9.889	10.21	10.47	11.23	11.81	12.25
465.0	 1279	 2043	 2850	 3337	 4564	 6015	 6971	 6594	 4849	 3058	 2060	 1907	 1982	 2090	 2147	 2261	 2345	 2343	 2265	 2008	 1487	 1100	992.1	 1029	 1102	 1187	 1260	 1313	 1354	 1354	 1279	 1158	 1004	842.9	699.4	562.9	449.3	329.4	233.5	168.1	119.9	85.50	60.26	41.03	32.04	27.03	25.65	66.47	294.3	419.1	30.00	14.29	16.12	19.29	23.45	25.95	30.62	33.32	32.39	29.49	24.80	20.25	15.15	11.22	9.423	8.183	8.138	8.432	8.237	8.442	8.744	9.376	9.898	10.48	10.82	11.42	11.56
470.0	 1168	 1769	 2570	 3401	 4315	 5635	 6558	 6167	 4542	 2832	 1912	 1749	 1816	 1922	 1993	 2103	 2183	 2175	 2113	 1859	 1366	 1001	890.4	927.4	995.4	 1077	 1148	 1207	 1251	 1252	 1193	 1090	946.2	799.7	661.8	531.8	424.5	324.8	234.4	168.0	119.8	86.94	62.26	44.80	33.96	27.06	22.62	29.10	84.76	236.6	307.9	135.6	22.66	18.66	21.62	24.41	29.38	31.38	30.42	27.47	22.95	18.55	13.90	10.51	8.676	7.646	7.436	7.774	7.463	7.855	8.391	8.599	9.287	9.416	9.957	10.71	11.19
475.0	 1072	 1627	 2133	 3272	 4097	 5157	 5977	 5626	 4153	 2584	 1737	 1579	 1641	 1750	 1814	 1908	 1991	 1968	 1912	 1677	 1226	895.1	792.9	827.4	887.9	959.8	 1026	 1084	 1131	 1131	 1088	998.9	873.5	741.1	613.2	495.3	391.1	303.3	233.9	169.8	119.5	88.71	64.80	48.06	38.20	29.40	24.33	21.99	31.76	63.94	119.1	316.1	184.1	25.32	20.49	22.39	26.55	28.24	27.74	24.93	21.41	16.86	12.97	9.783	7.709	6.778	6.888	7.165	6.806	7.197	7.475	7.866	8.022	8.765	8.814	9.865	10.00
480.0	986.7	 1444	 1893	 2922	 4111	 4776	 5570	 5219	 3858	 2406	 1616	 1466	 1521	 1601	 1675	 1758	 1832	 1820	 1766	 1548	 1127	815.5	728.2	754.5	817.4	877.5	938.0	995.7	 1037	 1044	 1007	922.3	814.8	694.2	576.5	466.6	365.8	282.6	222.0	170.6	119.9	87.83	65.90	50.83	39.75	31.75	25.91	22.24	20.73	25.91	38.04	148.3	352.5	132.9	21.62	21.79	24.80	25.95	25.91	22.91	19.66	14.97	12.35	8.931	7.362	6.571	6.031	6.432	6.270	6.827	7.012	7.394	7.277	7.750	8.017	9.025	9.000
485.0	939.8	 1332	 1723	 2552	 3921	 4555	 5102	 4797	 3559	 2243	 1506	 1364	 1417	 1488	 1543	 1623	 1691	 1685	 1631	 1427	 1039	747.2	666.5	691.6	750.5	809.3	865.5	913.4	953.4	963.1	936.8	856.7	761.3	647.8	540.5	439.8	347.6	269.6	209.5	169.9	121.8	88.49	67.44	51.85	41.17	33.18	27.69	23.16	19.55	17.84	19.47	47.18	211.4	299.8	38.50	20.78	23.27	23.83	24.24	21.38	18.19	14.48	10.82	8.454	6.744	5.750	5.946	5.696	6.143	6.399	6.495	6.804	6.897	7.123	7.623	8.308	8.182
490.0	832.4	 1209	 1542	 2173	 3363	 4303	 4542	 4216	 3144	 1985	 1348	 1237	 1267	 1327	 1370	 1442	 1495	 1488	 1432	 1260	919.3	666.8	591.1	610.8	662.7	714.5	761.2	807.2	843.3	853.9	829.1	764.2	678.2	580.3	487.8	398.0	319.4	247.0	193.1	153.5	121.5	92.46	68.24	53.01	43.37	35.87	29.48	24.82	20.08	16.75	16.13	22.37	63.18	165.0	247.3	132.9	29.01	21.84	21.05	19.21	16.22	12.90	9.925	7.574	6.028	5.501	5.267	5.189	5.301	5.734	5.549	6.060	6.455	6.666	6.992	7.294	7.741
495.0	728.8	 1062	 1368	 1866	 2721	 3869	 4051	 3616	 2681	 1723	 1186	 1089	 1102	 1156	 1198	 1247	 1298	 1280	 1237	 1089	789.6	580.2	516.5	532.6	575.3	616.3	659.9	701.4	732.4	742.0	722.1	662.9	596.0	512.7	431.2	356.8	285.6	224.9	174.9	135.5	112.8	95.61	71.45	54.02	44.74	37.60	31.02	26.12	21.10	17.50	15.51	16.69	25.75	49.08	108.3	292.0	237.0	27.03	18.77	15.96	14.22	11.47	8.705	6.767	5.362	4.633	4.715	4.565	4.590	5.053	5.158	5.222	5.546	5.799	5.778	6.230	6.944
500.0	627.8	923.3	 1218	 1620	 2326	 3304	 3726	 3198	 2369	 1508	 1058	973.0	988.8	 1033	 1060	 1098	 1147	 1131	 1082	954.6	701.5	513.2	457.8	474.6	506.5	546.1	580.0	617.2	644.8	657.1	638.0	590.3	526.9	458.9	385.1	322.2	260.0	205.8	161.3	128.1	103.9	90.06	73.72	55.04	44.54	37.73	31.30	26.46	21.30	18.30	15.51	15.14	16.37	22.14	37.19	140.7	401.3	175.7	18.56	14.25	12.18	9.809	7.857	5.896	4.779	4.242	4.241	4.178	4.316	4.525	4.451	4.730	4.931	5.120	5.316	5.727	5.917
505.0	578.2	827.3	 1090	 1431	 2021	 2724	 3394	 2905	 2079	 1350	951.4	879.2	883.3	914.7	949.0	983.4	 1008	998.9	959.9	847.0	626.3	459.4	406.7	420.9	447.7	488.9	514.1	545.4	570.1	578.6	565.6	523.9	471.5	411.9	345.7	288.2	238.5	188.5	149.4	118.9	95.11	81.40	73.21	57.56	45.26	37.99	31.85	26.51	22.17	18.56	16.23	15.13	15.18	15.81	19.17	45.56	216.5	472.7	38.72	13.31	11.21	8.800	7.140	5.182	4.294	4.019	3.802	3.908	4.035	3.871	4.256	4.344	4.544	4.379	4.710	5.089	5.172
510.0	480.4	698.5	899.3	 1222	 1689	 2181	 2715	 2621	 1769	 1141	820.3	757.6	765.9	787.0	802.8	828.4	842.3	832.7	801.1	707.3	521.1	389.2	348.8	357.0	381.6	409.6	435.2	458.7	479.6	486.4	477.6	443.7	398.8	349.6	297.9	249.6	206.7	166.2	133.4	107.7	86.99	73.20	65.16	57.92	47.15	38.01	31.40	26.57	22.09	18.25	16.30	15.03	14.00	13.83	14.49	20.37	62.63	253.2	212.2	105.1	15.76	7.494	6.041	4.632	3.972	3.529	3.452	3.421	3.418	3.422	3.606	3.697	3.884	3.867	3.993	4.415	4.218
515.0	399.5	568.8	743.0	 1025	 1389	 1774	 2061	 2228	 1589	946.1	697.0	637.7	651.9	665.4	671.9	686.3	698.7	685.2	661.5	582.0	433.6	324.8	292.3	299.2	318.9	336.3	363.0	377.2	395.3	405.4	396.1	369.0	332.7	293.6	249.3	211.4	174.3	143.0	116.6	95.19	79.10	65.81	56.78	52.42	48.30	38.97	30.75	26.32	21.88	17.96	15.93	14.75	13.66	12.77	12.84	13.37	23.06	65.45	84.09	221.5	123.8	11.77	5.173	4.112	3.403	2.933	3.081	2.876	3.064	3.094	2.975	3.095	3.252	3.170	3.186	3.600	3.797
520.0	337.4	491.8	633.5	862.1	 1197	 1508	 1726	 1806	 1541	851.7	608.6	570.9	568.7	581.6	581.6	597.8	601.0	588.5	565.9	501.0	376.5	283.4	259.3	261.0	277.0	294.3	313.5	325.8	341.6	349.3	343.2	320.2	290.0	253.2	218.6	186.8	155.3	127.5	105.4	87.10	74.23	60.59	51.88	46.96	45.85	39.63	31.41	26.12	21.50	17.42	15.69	14.42	12.71	12.18	11.89	11.37	13.73	22.80	27.39	105.3	220.0	38.23	6.121	3.623	2.911	2.505	2.525	2.595	2.660	2.713	2.664	2.466	2.939	3.000	3.095	3.012	3.176
525.0	282.9	430.1	546.0	755.0	 1027	 1294	 1460	 1454	 1422	840.8	545.3	501.8	505.6	511.1	508.8	513.4	526.0	508.9	492.8	435.4	326.7	251.3	227.4	228.9	242.5	257.0	273.0	282.0	297.7	302.9	299.6	279.9	251.9	222.9	194.2	167.4	138.7	114.7	96.26	79.77	68.15	57.09	49.42	42.78	41.32	38.79	32.20	25.87	20.74	17.49	15.32	13.56	12.38	12.01	11.14	11.04	11.23	12.80	12.96	31.91	126.5	190.6	30.43	3.781	2.840	2.275	2.415	2.340	2.468	2.356	2.586	2.345	2.381	2.782	2.567	2.878	2.906
530.0	250.0	356.2	456.5	620.8	847.3	 1056	 1174	 1134	 1068	881.9	504.3	426.8	431.9	430.0	429.3	431.1	437.8	422.3	408.7	358.6	276.1	211.5	191.1	194.6	202.8	215.9	227.1	237.2	248.7	252.3	248.0	233.0	213.2	188.7	164.3	140.7	119.9	100.4	84.26	71.38	60.82	52.12	45.43	39.93	36.05	34.63	32.45	26.37	20.60	16.81	14.62	13.15	11.81	11.13	10.39	9.909	9.862	9.797	9.046	12.47	35.45	102.4	148.1	67.59	6.688	2.142	2.105	2.025	1.969	2.004	1.981	2.040	2.024	2.418	2.217	2.389	2.422
535.0	203.1	292.8	372.4	504.2	681.8	851.9	948.2	895.3	757.1	755.8	568.9	371.1	363.9	359.0	353.3	354.4	356.3	344.8	331.4	293.6	225.9	173.9	158.3	161.2	168.4	178.1	185.8	195.6	201.2	207.1	205.8	194.7	174.5	157.2	137.9	120.1	100.4	85.90	72.37	62.06	54.26	46.63	40.93	36.80	32.14	30.23	29.04	26.68	20.51	16.33	13.81	12.70	11.18	10.58	9.257	9.391	9.087	8.272	7.686	7.708	11.91	26.11	57.25	144.6	38.37	5.755	1.978	1.864	1.757	1.782	1.619	1.869	1.787	1.915	1.814	1.940	2.059
540.0	167.6	260.9	320.3	426.6	577.8	724.9	792.3	757.5	609.2	567.4	632.3	354.3	319.3	313.9	314.9	303.3	306.1	294.2	284.4	252.1	196.4	152.1	138.8	141.5	146.1	154.6	159.4	171.6	176.5	178.8	176.9	165.6	150.5	134.8	121.0	103.0	88.61	77.17	66.08	55.96	49.91	44.01	37.63	34.12	29.91	27.62	25.17	25.41	20.77	16.43	13.23	11.93	10.68	9.562	8.887	8.813	8.719	7.723	6.928	6.260	6.131	8.947	16.52	68.11	138.3	33.98	2.940	1.736	1.773	1.707	1.588	1.545	1.552	1.432	1.705	1.657	2.004
545.0	151.2	220.2	282.7	367.3	484.6	624.0	698.5	649.3	503.8	423.8	566.9	409.5	280.3	279.6	268.1	268.5	265.9	257.0	243.6	217.6	170.8	133.7	122.4	125.4	127.8	135.2	139.9	147.5	151.9	155.4	152.2	144.5	131.6	118.6	106.0	92.01	80.25	68.65	59.03	52.14	44.70	40.40	34.41	31.95	28.17	26.18	22.78	22.12	21.24	16.78	13.59	11.53	10.02	9.269	8.625	8.453	7.973	7.176	6.368	5.905	5.034	4.949	6.143	19.31	83.19	125.2	25.49	2.018	1.482	1.518	1.426	1.376	1.353	1.438	1.694	1.482	1.651
550.0	127.3	186.1	232.3	299.5	398.5	502.2	561.7	529.8	424.8	325.7	377.1	468.2	296.3	233.5	224.1	220.7	217.1	212.1	200.4	179.9	141.6	111.7	102.9	103.2	107.2	112.3	116.0	120.7	126.8	128.6	127.1	120.3	108.8	99.81	87.74	78.67	68.32	59.00	50.75	45.43	39.55	35.34	31.38	28.11	25.49	23.34	20.35	18.74	18.37	16.87	13.53	11.03	9.385	8.398	8.060	7.693	7.155	6.752	5.847	5.220	4.570	3.916	3.820	6.168	22.41	67.34	98.16	47.87	4.573	1.471	1.438	1.124	1.073	1.121	1.338	1.252	1.342
555.0	112.6	152.8	186.2	243.4	321.2	393.1	430.7	419.6	332.3	258.5	241.1	368.8	406.5	193.0	184.1	179.1	174.9	168.6	160.1	144.3	113.4	93.10	84.03	84.61	87.89	90.71	93.98	97.72	101.7	103.1	100.9	95.73	88.02	81.16	71.29	63.88	56.57	49.42	43.64	38.66	33.95	29.55	27.79	24.75	22.63	20.14	17.94	16.23	14.70	14.56	13.31	10.89	8.691	7.843	7.349	6.568	6.206	6.195	5.303	4.449	4.090	3.320	2.934	3.085	6.635	16.62	37.68	98.82	36.69	3.895	1.299	1.006	0.925	1.111	1.113	1.252	1.136
560.0	96.70	129.6	158.3	215.4	270.2	325.3	358.3	345.2	284.4	214.4	191.3	255.2	445.0	202.0	155.0	151.0	145.8	141.8	133.5	119.2	97.80	78.63	73.33	70.88	74.01	76.22	79.29	81.52	84.26	85.35	85.32	80.94	74.83	67.81	60.75	54.29	48.86	42.22	37.28	33.72	29.92	26.11	24.28	22.53	19.75	18.41	16.43	14.19	13.02	11.91	12.18	10.79	8.146	7.083	6.354	6.449	6.122	5.766	4.708	4.276	3.655	2.859	2.412	2.406	2.904	5.152	10.13	45.92	96.81	29.62	1.703	1.066	0.946	1.130	0.774	1.031	1.153
565.0	73.22	114.9	128.9	172.4	222.7	261.0	296.1	294.8	238.1	179.7	160.1	178.6	359.6	246.2	131.2	127.8	123.3	120.6	110.5	103.7	81.14	66.23	60.38	60.33	62.70	65.03	65.93	67.64	70.48	73.56	71.55	69.11	62.64	58.05	52.44	46.89	40.99	36.48	32.56	29.09	25.64	23.56	21.11	19.40	17.19	16.51	14.56	12.57	11.01	10.09	10.45	9.968	8.050	6.575	6.032	5.661	5.411	5.022	4.353	3.908	3.195	2.668	2.245	2.149	1.954	2.377	3.348	13.00	57.37	85.65	18.53	1.205	0.807	0.876	0.815	0.880	1.057
570.0	66.06	87.71	98.20	127.4	164.3	204.7	221.8	216.8	190.6	149.1	125.5	126.2	209.8	280.0	150.3	101.2	96.10	91.10	85.96	79.78	63.89	51.93	47.98	49.01	49.16	49.88	51.54	52.38	55.70	56.25	55.84	53.72	49.02	45.18	41.97	36.54	33.37	29.02	26.21	23.72	21.14	19.50	17.44	16.37	14.74	13.48	12.17	10.80	9.632	8.229	8.067	8.237	7.495	6.195	5.126	4.857	4.530	4.254	3.768	3.400	2.993	2.478	2.045	1.884	1.744	1.600	1.837	3.787	15.37	44.90	59.50	23.21	2.653	0.934	0.711	0.808	0.748
575.0	63.18	78.12	86.77	103.0	122.5	153.9	161.0	156.5	145.5	122.8	99.40	96.79	118.2	197.0	222.4	81.71	72.78	70.34	65.67	57.75	46.93	40.71	38.03	37.39	36.78	38.01	38.88	40.05	41.41	42.13	43.02	39.77	36.60	34.11	30.31	27.53	25.47	22.60	20.70	17.91	16.72	15.75	14.00	12.94	12.11	10.88	9.731	8.962	7.762	6.324	6.276	6.043	6.008	5.585	4.352	3.823	3.707	3.500	3.031	2.910	2.686	2.113	1.888	1.678	1.518	1.537	1.340	1.807	4.125	10.94	23.38	57.87	29.61	2.197	0.740	0.848	0.772
580.0	58.74	79.17	74.45	84.65	103.4	117.7	128.5	127.7	115.8	102.8	81.43	84.47	90.74	127.8	235.4	103.5	60.07	56.90	52.34	47.01	38.43	32.88	31.39	29.90	30.39	30.95	31.96	32.21	33.40	34.30	34.21	32.01	30.15	27.00	25.13	22.75	21.08	18.39	16.91	15.11	13.75	13.10	11.44	10.70	9.779	9.236	7.810	7.648	6.748	5.716	5.427	4.871	4.979	5.092	4.296	3.641	3.207	2.878	2.870	2.574	2.038	1.925	1.765	1.452	1.324	1.176	1.259	1.192	1.798	2.999	6.326	28.46	56.52	18.66	1.203	0.626	0.805
585.0	52.01	68.82	74.84	81.30	91.88	102.6	105.3	102.0	98.36	88.74	79.03	73.73	76.58	86.64	181.6	158.8	50.76	47.83	43.92	38.19	32.89	26.86	26.18	24.36	25.02	25.15	26.64	26.96	27.83	27.79	28.60	25.54	24.29	21.96	21.43	18.60	17.08	15.33	14.44	13.08	11.49	10.73	10.11	8.917	8.545	7.546	7.160	6.535	5.626	5.079	4.535	4.053	3.997	4.316	4.480	3.598	2.792	2.690	2.480	2.032	1.991	1.743	1.528	1.492	1.369	1.286	1.022	1.020	1.481	1.537	2.214	7.887	33.46	42.41	10.44	0.546	0.514
590.0	54.11	67.15	74.43	72.37	78.02	81.73	81.96	81.36	75.72	73.45	72.64	65.09	66.39	63.52	101.6	177.9	79.23	35.78	34.82	30.72	25.76	21.47	20.63	19.25	19.77	20.06	20.75	21.42	21.47	22.03	21.60	20.81	19.04	17.68	16.28	14.84	13.67	12.61	11.16	10.46	9.405	8.842	8.207	7.327	6.951	6.355	5.818	5.222	4.678	4.175	3.712	3.428	3.172	3.390	3.668	3.408	2.800	2.308	1.966	1.678	1.643	1.537	1.373	1.314	1.267	1.059	0.910	0.868	0.972	1.023	1.114	2.431	8.959	23.74	32.60	15.14	1.570
595.0	44.79	52.26	63.70	64.29	62.33	62.50	60.82	65.00	60.66	58.72	65.58	58.45	55.71	53.48	57.03	112.5	146.4	33.11	26.97	23.37	19.88	16.81	16.25	14.99	14.93	15.06	15.71	16.18	16.50	17.07	16.35	15.60	15.20	14.18	12.42	11.42	10.40	9.847	8.783	8.195	7.630	6.723	6.239	5.917	5.549	5.029	4.559	4.379	3.836	3.477	2.993	2.780	2.596	2.536	2.684	2.748	2.527	2.038	1.900	1.596	1.501	1.392	1.212	1.112	1.007	0.968	0.978	0.779	0.780	0.909	0.851	1.296	2.621	6.082	13.18	30.53	17.52
600.0	40.96	50.24	58.18	64.19	60.48	54.36	52.24	54.89	50.15	50.24	58.71	59.88	54.95	50.13	45.03	63.16	157.2	57.20	21.89	19.01	16.45	13.52	13.24	13.10	12.91	12.31	13.23	13.22	13.63	13.92	13.37	13.06	12.41	11.87	10.23	9.504	8.466	8.184	7.540	6.907	6.121	5.702	5.299	4.822	4.887	4.512	3.816	3.837	3.399	2.884	2.417	2.412	2.209	2.201	2.135	2.324	2.443	2.030	1.641	1.548	1.241	1.215	1.137	1.054	1.115	0.872	1.007	0.910	0.716	0.797	0.644	0.855	1.193	1.776	3.715	14.64	30.85
605.0	44.01	52.80	54.29	57.17	55.99	43.53	43.70	45.42	46.16	44.48	53.75	61.58	54.19	48.51	41.18	37.68	110.3	107.1	19.18	15.72	13.97	12.61	11.27	10.57	11.20	10.53	11.38	11.40	10.82	11.76	11.51	10.76	10.41	9.907	8.387	8.143	6.922	6.868	6.150	5.857	5.243	5.113	4.579	4.280	4.494	3.853	3.404	3.315	2.865	2.540	2.169	2.261	2.039	1.947	1.793	1.930	2.142	2.060	1.443	1.323	1.242	1.132	1.002	1.033	1.077	0.877	0.956	0.888	0.800	0.791	0.719	0.802	0.821	0.630	1.128	4.416	18.04
610.0	41.60	49.86	55.62	52.30	49.65	37.45	36.31	39.88	40.44	40.84	48.97	58.81	53.77	46.55	37.48	28.38	55.25	122.8	48.90	13.29	11.57	10.18	9.048	8.861	8.927	8.912	8.595	9.071	8.747	9.013	9.311	8.826	7.970	7.804	7.190	6.360	5.860	5.561	5.002	4.754	4.221	4.202	3.835	3.669	3.399	3.124	2.915	2.675	2.484	2.205	1.888	1.662	1.729	1.509	1.451	1.442	1.673	1.728	1.560	1.348	1.145	1.026	0.906	0.867	0.849	0.840	0.916	0.818	0.752	0.745	0.761	0.679	0.693	0.572	0.647	1.364	4.926
615.0	41.89	42.14	50.75	50.13	39.02	27.73	30.40	35.69	31.19	37.36	41.84	50.47	55.00	42.94	33.58	23.50	27.84	71.15	108.6	13.86	9.121	8.165	6.483	7.547	6.976	7.205	6.365	7.286	6.886	7.283	7.277	7.039	6.274	5.948	5.806	5.011	4.496	4.144	3.957	3.703	3.493	3.007	2.965	2.864	2.561	2.649	2.288	2.183	2.011	1.755	1.711	1.456	1.310	1.411	1.266	1.162	1.189	1.462	1.254	1.254	1.039	0.970	0.920	0.732	0.788	0.811	0.734	0.851	0.991	0.637	0.671	0.751	0.421	0.585	0.547	0.747	1.410
620.0	30.57	53.41	45.29	50.20	39.30	27.93	28.24	29.44	28.99	33.88	38.61	42.98	51.89	41.59	31.92	21.46	19.54	36.92	114.9	39.47	7.163	7.143	6.130	6.227	6.001	6.044	5.254	5.914	5.758	5.763	6.063	5.909	5.263	4.791	4.657	4.444	3.738	3.299	3.517	3.113	2.632	2.902	2.395	2.372	2.139	2.133	1.867	2.033	1.845	1.458	1.359	1.385	1.210	1.022	1.101	1.164	1.001	1.161	1.126	1.309	1.009	0.842	0.829	0.724	0.832	0.704	0.531	0.683	0.927	0.649	0.554	0.601	0.520	0.531	0.533	0.465	0.823
625.0	28.84	38.66	45.93	42.49	32.94	26.12	27.52	27.10	27.19	29.73	34.67	40.96	46.86	43.03	30.98	21.74	16.12	20.56	78.49	83.07	7.454	5.512	5.539	5.118	5.084	5.215	4.760	4.849	4.962	5.409	4.941	4.729	4.256	4.124	4.037	3.579	3.422	3.208	3.172	2.525	2.543	2.428	2.141	2.030	2.140	1.990	1.718	1.661	1.417	1.245	1.235	1.202	1.032	0.819	0.918	0.782	0.959	1.029	1.025	0.975	0.973	0.767	0.664	0.661	0.947	0.670	0.563	0.582	0.678	0.684	0.530	0.755	0.614	0.340	0.572	0.461	0.591
630.0	28.12	35.01	40.18	40.65	29.76	24.37	24.64	24.29	24.17	26.83	33.41	36.56	41.62	43.40	31.86	19.61	15.29	13.86	32.69	95.01	33.79	4.631	4.481	4.451	4.336	4.293	4.307	4.156	4.276	4.256	4.219	3.911	3.464	3.422	3.240	2.812	2.580	2.426	2.339	2.021	2.029	1.913	1.902	1.674	1.584	1.753	1.495	1.512	1.241	1.100	1.073	0.984	0.835	0.838	0.914	0.769	0.915	0.801	0.897	0.876	0.866	0.682	0.652	0.685	0.609	0.615	0.551	0.581	0.638	0.639	0.605	0.696	0.564	0.397	0.440	0.452	0.489
635.0	27.86	35.94	35.31	38.21	28.79	20.97	22.55	21.08	23.35	27.21	32.35	33.94	38.16	39.77	32.90	18.46	15.66	12.07	14.22	48.22	85.36	7.019	3.768	3.470	3.581	3.433	3.606	3.434	3.377	3.220	3.545	2.912	2.741	2.679	2.721	2.355	2.338	2.045	1.934	1.608	1.600	1.789	1.409	1.209	1.217	1.392	1.054	0.983	1.012	0.844	0.862	0.789	0.784	0.857	0.750	0.703	0.854	0.715	0.709	0.592	0.653	0.759	0.602	0.521	0.500	0.456	0.517	0.643	0.525	0.567	0.562	0.486	0.531	0.398	0.386	0.504	0.345
640.0	31.13	29.62	33.21	36.42	28.22	18.48	19.58	21.03	21.54	24.57	28.30	35.23	34.17	37.26	35.89	20.83	15.01	12.41	9.271	21.54	91.38	28.21	3.450	2.994	2.956	2.798	2.981	2.928	3.058	3.039	2.852	2.998	2.580	2.448	2.014	1.900	2.132	1.696	1.506	1.143	1.312	1.363	1.250	1.128	1.063	1.104	0.862	0.940	0.992	0.840	0.863	0.614	0.765	0.722	0.573	0.623	0.645	0.609	0.466	0.471	0.572	0.740	0.604	0.487	0.537	0.648	0.534	0.661	0.454	0.562	0.607	0.424	0.396	0.334	0.662	0.371	0.392
645.0	30.64	27.79	38.12	32.05	23.46	18.68	21.72	19.87	19.70	23.33	28.53	33.05	33.62	33.62	34.19	22.80	16.26	12.08	7.623	10.12	58.41	66.09	3.448	2.542	2.564	2.333	2.800	2.754	2.846	2.852	2.489	2.421	1.964	2.013	1.625	1.830	1.701	1.438	1.543	1.087	1.214	1.117	0.920	1.193	1.015	0.916	0.838	0.979	0.714	0.678	0.713	0.676	0.572	0.666	0.547	0.555	0.546	0.472	0.505	0.418	0.583	0.651	0.645	0.538	0.407	0.488	0.562	0.617	0.516	0.353	0.478	0.558	0.378	0.511	0.405	0.440	0.467
650.0	37.52	37.49	35.35	37.38	23.49	19.52	22.13	18.29	22.53	23.97	29.99	32.64	34.35	31.54	33.34	25.79	15.69	11.93	7.908	7.373	27.55	86.39	12.32	2.493	2.715	2.392	2.503	2.040	2.730	2.523	1.886	1.963	1.660	1.601	1.620	1.440	1.275	1.280	1.187	1.143	0.995	0.956	1.015	0.858	0.838	0.826	0.764	0.613	0.801	0.707	0.628	0.585	0.513	0.543	0.608	0.637	0.579	0.548	0.483	0.450	0.520	0.478	0.513	0.342	0.454	0.630	0.396	0.411	0.517	0.457	0.539	0.271	0.377	0.442	0.523	0.256	0.454
