Sample:	'1
File name:	Default_20230130_152636.FD3
Run date:	'15:20:15, 01/30/2023
Operator:	dsjg
Comment:	'

Instrument
Model:	F-2700 FL Spectrophotometer
Serial number:	2198-001
ROM Version:	4J14000 07

Instrument parameters
Measurement type:	3-D scan
Data mode:	Fluorescence
EX  Start WL:	220.0 nm
EX  End WL:	600.0 nm
EX Sampling interval:	5.0 nm
EM  Start WL:	230.0 nm
EM  End WL:	650.0 nm
EM Sampling interval:	5.0 nm
Scan speed:	12000 nm/min
EX Slit:	5.0 nm
EM Slit:	5.0 nm
PMT Voltage:	700 V
Response:	Auto 
Corrected spectra:	Off
Contour interval:	50.000

Peak integration
Integration method:	Rectangular
Sensitivity:	1
Threshold:	1.000

Peaks
No.	ApexEX/EM(nm)	Height(Data)
1	225.0/305.0	47.98
2	230.0/345.0	374.7
3	235.0/260.0	166.8
4	235.0/515.0	102.6
5	240.0/265.0	190.6
6	240.0/385.0	346.6
7	240.0/400.0	348.9
8	240.0/530.0	92.12
9	245.0/270.0	172.8
10	245.0/540.0	78.21
11	250.0/275.0	204.3
12	250.0/415.0	320.6
13	250.0/550.0	66.80
14	255.0/280.0	227.7
15	255.0/560.0	55.44
16	260.0/570.0	41.23
17	265.0/295.0	243.8
18	265.0/585.0	35.90
19	270.0/300.0	302.8
20	270.0/400.0	284.7
21	270.0/595.0	29.01
22	275.0/305.0	317.9
23	275.0/610.0	22.78
24	280.0/310.0	271.2
25	280.0/385.0	298.6
26	280.0/620.0	19.64
27	285.0/320.0	269.5
28	285.0/630.0	13.76
29	290.0/325.0	292.2
30	295.0/330.0	242.0
31	300.0/335.0	234.2
32	305.0/345.0	230.2
33	310.0/350.0	203.9
34	315.0/355.0	208.8
35	320.0/360.0	214.3
36	325.0/370.0	203.1
37	330.0/375.0	204.1
38	335.0/380.0	217.1
39	345.0/395.0	179.5
40	350.0/400.0	186.8
41	355.0/405.0	178.8
42	365.0/420.0	142.6
43	370.0/425.0	132.0
44	400.0/465.0	52.64
45	415.0/485.0	30.50
46	430.0/505.0	18.60
47	445.0/525.0	10.95
48	460.0/545.0	6.093
49	470.0/560.0	3.901
50	540.0/295.0	1.788
51	545.0/300.0	1.949
52	550.0/305.0	1.715
53	560.0/310.0	1.588
54	570.0/315.0	1.751
55	575.0/320.0	1.803
56	585.0/325.0	1.770

Data points
	220.0	225.0	230.0	235.0	240.0	245.0	250.0	255.0	260.0	265.0	270.0	275.0	280.0	285.0	290.0	295.0	300.0	305.0	310.0	315.0	320.0	325.0	330.0	335.0	340.0	345.0	350.0	355.0	360.0	365.0	370.0	375.0	380.0	385.0	390.0	395.0	400.0	405.0	410.0	415.0	420.0	425.0	430.0	435.0	440.0	445.0	450.0	455.0	460.0	465.0	470.0	475.0	480.0	485.0	490.0	495.0	500.0	505.0	510.0	515.0	520.0	525.0	530.0	535.0	540.0	545.0	550.0	555.0	560.0	565.0	570.0	575.0	580.0	585.0	590.0	595.0	600.0
230.0	25.62	394.0	622.6	131.5	3.200	1.176	1.213	1.048	0.697	0.783	0.603	0.649	0.590	0.389	0.402	0.377	0.305	0.385	0.336	0.320	0.311	0.273	0.285	0.285	0.217	0.239	0.271	0.242	0.238	0.239	0.230	0.269	0.222	0.223	0.211	0.306	0.311	0.283	0.293	0.255	0.218	0.196	0.192	0.197	0.161	0.145	0.194	0.639	1.751	1.962	0.940	0.243	0.121	0.103	0.076	0.093	0.084	0.094	0.053	0.063	0.052	0.055	0.050	0.050	0.039	0.031	0.041	0.038	0.023	0.028	0.026	0.022	0.014	0.008	0.009	0.010	0.003
235.0	13.52	130.7	663.9	920.4	216.7	4.499	1.624	1.104	1.022	0.730	0.544	0.660	0.738	0.611	0.502	0.374	0.285	0.522	0.268	0.348	0.336	0.311	0.343	0.238	0.306	0.261	0.238	0.250	0.203	0.267	0.219	0.287	0.222	0.205	0.148	0.230	0.340	0.269	0.254	0.177	0.199	0.229	0.201	0.182	0.205	0.181	0.174	0.260	0.661	1.594	2.968	3.693	2.037	0.401	0.090	0.106	0.132	0.094	0.077	0.077	0.070	0.049	0.056	0.043	0.050	0.031	0.041	0.050	0.056	0.027	0.019	0.011	0.010	-0.002	-0.005	0.003	0.001
240.0	23.58	41.26	278.1	 1078	 1055	147.5	2.750	1.137	1.279	0.985	0.775	0.782	0.542	0.504	0.493	0.418	0.368	0.396	0.325	0.333	0.240	0.445	0.284	0.297	0.221	0.283	0.265	0.280	0.247	0.249	0.222	0.273	0.181	0.199	0.171	0.207	0.257	0.255	0.315	0.248	0.219	0.210	0.237	0.171	0.193	0.259	0.210	0.219	0.261	0.543	1.387	4.138	5.952	4.328	1.669	0.229	0.125	0.097	0.112	0.040	0.081	0.079	0.071	0.047	0.045	0.049	0.057	0.060	0.037	0.027	0.030	0.010	0.029	-0.003	0.009	0.007	0.005
245.0	28.70	47.72	79.10	501.7	 1473	 1000	86.81	2.573	1.546	1.301	1.194	0.960	0.602	0.593	0.456	0.478	0.435	0.464	0.407	0.303	0.328	0.439	0.296	0.269	0.290	0.280	0.251	0.304	0.212	0.276	0.243	0.269	0.186	0.220	0.191	0.218	0.198	0.247	0.329	0.243	0.242	0.185	0.242	0.189	0.186	0.269	0.297	0.349	0.253	0.226	0.437	1.363	3.735	6.644	6.980	3.627	0.925	0.116	0.074	0.071	0.084	0.048	0.049	0.055	0.041	0.043	0.056	0.065	0.047	0.035	0.020	0.022	0.020	0.018	-0.003	-0.001	0.001
250.0	15.89	62.50	90.36	144.2	583.7	 1392	 1053	160.4	10.61	2.025	1.763	1.105	0.914	0.761	0.498	0.505	0.622	0.412	0.509	0.312	0.362	0.394	0.356	0.314	0.296	0.288	0.278	0.339	0.243	0.279	0.229	0.216	0.188	0.241	0.178	0.174	0.167	0.188	0.248	0.315	0.244	0.201	0.222	0.218	0.188	0.213	0.233	0.315	0.511	0.430	0.335	0.475	0.988	2.218	4.004	6.238	7.304	6.270	3.234	0.937	0.124	0.068	0.094	0.068	0.056	0.063	0.050	0.041	0.043	0.046	0.018	0.018	0.014	0.009	0.013	0.010	0.016
255.0	7.714	28.71	103.1	150.9	156.3	414.6	 1294	 1857	222.6	10.33	2.302	1.701	1.120	1.066	0.677	0.592	0.571	0.348	0.455	0.378	0.334	0.382	0.328	0.331	0.379	0.302	0.308	0.279	0.322	0.223	0.239	0.217	0.225	0.219	0.185	0.199	0.169	0.153	0.181	0.191	0.265	0.277	0.253	0.263	0.185	0.204	0.189	0.199	0.317	0.416	0.697	0.756	0.495	0.633	1.027	1.620	2.804	6.529	10.38	10.08	4.972	0.848	0.086	0.077	0.024	0.087	0.067	0.086	0.042	0.033	0.033	0.005	0.032	0.015	0.008	0.012	0.015
260.0	4.320	12.25	51.44	166.8	134.4	110.8	473.8	 1872	 1795	181.5	5.061	2.086	1.051	0.847	0.923	0.731	0.677	0.529	0.469	0.406	0.367	0.437	0.389	0.308	0.360	0.320	0.261	0.377	0.289	0.295	0.242	0.240	0.226	0.157	0.239	0.161	0.174	0.098	0.127	0.215	0.268	0.271	0.271	0.232	0.208	0.186	0.206	0.163	0.196	0.253	0.421	0.871	1.043	0.674	0.486	0.525	0.803	1.972	4.821	9.700	12.80	9.461	3.615	0.459	0.059	0.098	0.063	0.060	0.086	0.039	0.022	0.022	0.019	0.009	0.013	0.029	0.000
265.0	6.208	7.224	15.96	93.94	190.6	86.36	122.1	756.1	 2297	 1600	132.0	3.613	1.822	1.306	0.975	1.015	0.671	0.619	0.431	0.467	0.418	0.510	0.369	0.401	0.278	0.313	0.297	0.360	0.299	0.309	0.262	0.275	0.282	0.229	0.241	0.172	0.171	0.130	0.139	0.222	0.189	0.160	0.234	0.265	0.264	0.214	0.209	0.188	0.126	0.148	0.212	0.395	0.935	1.060	0.828	0.380	0.318	0.611	1.229	3.051	7.254	12.95	14.36	8.672	1.714	0.160	0.082	0.050	0.073	0.032	0.024	0.034	0.007	0.031	0.008	0.023	0.017
270.0	7.378	7.813	8.646	29.68	111.9	172.8	115.2	193.1	816.1	 1986	 1978	592.9	26.41	2.276	1.547	1.237	0.854	0.772	0.596	0.554	0.479	0.437	0.462	0.447	0.372	0.364	0.311	0.352	0.275	0.289	0.254	0.345	0.276	0.250	0.252	0.180	0.190	0.159	0.161	0.173	0.169	0.165	0.221	0.259	0.254	0.237	0.212	0.203	0.197	0.173	0.178	0.207	0.359	0.544	0.843	1.070	0.838	0.572	0.455	0.799	1.810	4.000	7.456	11.36	12.25	10.47	6.051	1.550	0.184	0.054	0.040	0.025	0.017	0.034	0.029	0.009	0.017
275.0	9.396	16.55	13.79	13.70	32.79	102.6	204.3	145.7	202.9	548.3	 1667	 2903	845.0	20.65	2.382	1.747	1.194	0.977	0.751	0.600	0.633	0.611	0.556	0.551	0.392	0.313	0.328	0.341	0.399	0.300	0.320	0.320	0.296	0.210	0.262	0.154	0.194	0.200	0.157	0.143	0.205	0.137	0.220	0.223	0.314	0.308	0.244	0.220	0.225	0.229	0.204	0.180	0.189	0.220	0.336	0.514	0.867	1.330	1.166	0.605	0.550	1.057	1.829	2.795	4.091	8.639	15.10	15.74	8.215	1.284	0.073	0.036	0.038	0.032	0.049	0.028	0.032
280.0	17.17	25.90	18.73	13.47	14.48	37.73	154.5	227.7	112.2	150.6	546.4	 2237	 2847	129.2	7.773	2.209	1.739	1.204	0.948	0.825	0.628	0.674	0.478	0.518	0.492	0.425	0.459	0.395	0.357	0.326	0.304	0.325	0.239	0.296	0.259	0.253	0.210	0.157	0.199	0.144	0.194	0.147	0.159	0.183	0.193	0.375	0.313	0.327	0.265	0.268	0.221	0.180	0.153	0.155	0.211	0.261	0.401	0.834	1.379	1.422	0.772	0.494	0.586	0.813	1.092	2.418	6.131	12.42	18.09	14.22	4.670	0.370	0.024	0.029	0.057	0.038	0.043
285.0	20.41	31.52	23.59	15.58	10.85	17.54	72.84	214.2	202.8	83.03	157.4	794.2	 2504	 2516	94.30	4.110	2.166	1.327	1.247	0.960	0.695	0.705	0.560	0.494	0.542	0.459	0.469	0.408	0.396	0.354	0.337	0.295	0.229	0.276	0.275	0.196	0.274	0.183	0.167	0.200	0.197	0.147	0.149	0.157	0.173	0.275	0.308	0.345	0.357	0.282	0.215	0.212	0.184	0.146	0.231	0.188	0.239	0.370	0.707	1.255	1.503	1.141	0.524	0.381	0.574	0.712	1.668	3.643	8.764	16.27	18.53	10.50	2.099	0.101	0.057	0.021	0.030
290.0	25.62	37.80	31.69	22.62	15.99	18.10	35.34	99.04	210.8	211.8	113.3	223.7	808.9	 1962	 2304	388.4	21.55	2.135	1.796	1.255	0.947	0.906	0.632	0.588	0.570	0.501	0.495	0.433	0.460	0.405	0.338	0.370	0.306	0.264	0.295	0.220	0.323	0.233	0.262	0.220	0.159	0.160	0.129	0.162	0.190	0.230	0.285	0.363	0.375	0.324	0.255	0.244	0.212	0.212	0.213	0.203	0.203	0.262	0.361	0.556	0.921	1.323	1.478	1.070	0.715	0.444	0.601	1.082	2.247	4.732	8.399	12.70	14.48	12.68	6.824	1.539	0.078
295.0	29.51	41.41	43.72	27.99	21.34	22.62	29.56	53.31	109.0	243.8	222.3	125.8	226.6	514.2	 1354	 2981	601.8	20.13	2.602	1.882	1.419	1.183	0.898	0.799	0.647	0.631	0.656	0.554	0.485	0.476	0.393	0.445	0.359	0.292	0.349	0.296	0.269	0.232	0.283	0.240	0.158	0.200	0.168	0.171	0.198	0.223	0.250	0.294	0.351	0.356	0.276	0.276	0.231	0.266	0.275	0.251	0.242	0.279	0.326	0.338	0.414	0.628	0.814	1.357	1.788	1.213	0.573	0.543	0.793	1.303	2.149	3.126	4.814	9.433	18.07	19.56	8.593
300.0	32.52	45.14	43.84	29.75	27.10	27.96	33.15	43.94	72.49	158.7	302.8	182.4	106.3	151.5	419.8	 1950	 3283	462.4	8.100	2.688	1.715	1.435	1.096	0.931	0.671	0.642	0.645	0.582	0.493	0.557	0.434	0.441	0.412	0.294	0.416	0.303	0.346	0.268	0.284	0.214	0.179	0.222	0.187	0.209	0.215	0.252	0.289	0.287	0.360	0.366	0.290	0.337	0.256	0.275	0.295	0.268	0.319	0.244	0.261	0.309	0.312	0.406	0.498	0.773	1.404	1.949	1.584	0.721	0.495	0.569	0.732	0.937	1.273	2.634	7.406	16.36	23.77
305.0	31.65	47.98	44.08	35.87	32.36	32.43	36.37	46.94	61.47	101.1	227.2	317.9	138.7	75.77	122.3	623.4	 2489	 3235	66.38	4.328	2.299	1.782	1.291	0.983	0.979	0.777	0.776	0.565	0.593	0.559	0.428	0.556	0.465	0.359	0.381	0.312	0.314	0.282	0.264	0.206	0.216	0.229	0.148	0.189	0.231	0.216	0.287	0.276	0.268	0.333	0.327	0.360	0.265	0.266	0.289	0.229	0.301	0.259	0.320	0.381	0.417	0.344	0.401	0.495	0.721	1.225	1.715	1.647	0.909	0.418	0.456	0.443	0.512	0.751	1.838	4.879	11.86
310.0	27.52	44.32	45.86	38.68	39.15	37.52	42.64	50.42	63.14	84.18	132.8	234.6	271.2	107.6	62.68	163.2	734.9	 2238	 2753	 1100	18.39	2.502	1.803	1.405	1.223	0.874	0.790	0.707	0.671	0.600	0.575	0.509	0.465	0.365	0.445	0.334	0.336	0.322	0.302	0.218	0.223	0.207	0.214	0.189	0.251	0.217	0.248	0.254	0.276	0.296	0.296	0.343	0.357	0.304	0.313	0.268	0.363	0.324	0.363	0.381	0.364	0.401	0.390	0.482	0.555	0.698	0.861	1.183	1.588	1.412	0.883	0.445	0.326	0.331	0.528	1.236	2.931
315.0	33.94	53.44	57.43	45.89	42.04	45.21	49.28	57.03	68.83	88.45	106.3	139.2	212.7	264.2	98.29	67.57	186.9	548.5	 1412	 3698	455.2	19.47	2.678	1.980	1.360	1.026	0.889	0.778	0.865	0.714	0.677	0.635	0.515	0.455	0.459	0.437	0.339	0.257	0.365	0.268	0.260	0.213	0.189	0.217	0.232	0.246	0.260	0.310	0.275	0.311	0.302	0.306	0.403	0.332	0.356	0.356	0.389	0.367	0.360	0.372	0.408	0.416	0.466	0.557	0.527	0.555	0.638	0.716	0.903	1.275	1.751	1.373	0.614	0.381	0.347	0.461	0.808
320.0	49.47	100.9	109.8	62.99	49.56	52.62	63.69	68.84	87.75	104.6	124.9	140.8	169.2	269.5	223.3	74.65	76.20	147.4	396.9	 2132	 3489	369.3	8.375	2.544	1.720	1.413	1.106	0.855	0.939	0.800	0.668	0.667	0.572	0.428	0.434	0.466	0.447	0.340	0.349	0.272	0.304	0.250	0.239	0.187	0.239	0.325	0.369	0.393	0.505	0.567	0.409	0.380	0.411	0.429	0.394	0.343	0.478	0.383	0.420	0.440	0.503	0.430	0.570	0.656	0.647	0.642	0.659	0.712	0.726	0.927	1.194	1.803	1.498	0.824	0.481	0.370	0.408
325.0	74.28	182.4	203.6	95.15	67.06	67.95	74.32	90.63	108.9	132.4	157.8	168.5	168.8	212.5	292.2	156.3	64.71	65.78	114.1	622.3	 2767	 3175	52.65	4.124	2.374	1.643	1.426	0.990	1.048	1.011	0.709	0.827	0.529	0.473	0.497	0.459	0.496	0.356	0.331	0.303	0.249	0.186	0.280	0.204	0.270	0.399	0.493	0.620	0.849	0.795	0.591	0.486	0.366	0.459	0.522	0.413	0.528	0.471	0.536	0.467	0.692	0.605	0.643	0.684	0.774	0.796	0.837	0.826	0.784	0.917	0.962	1.209	1.591	1.770	0.994	0.534	0.358
330.0	90.51	214.8	258.7	132.7	90.42	81.03	87.28	104.7	122.4	153.4	173.9	187.6	184.1	181.4	213.6	242.0	130.7	61.11	57.40	163.7	772.8	 2366	 3011	 1076	16.14	2.501	1.870	1.412	1.341	1.038	0.939	0.795	0.567	0.554	0.509	0.487	0.476	0.337	0.346	0.336	0.291	0.245	0.269	0.262	0.272	0.397	0.499	0.779	0.951	0.990	0.780	0.592	0.478	0.445	0.511	0.506	0.552	0.520	0.569	0.601	0.709	0.701	0.777	0.805	0.854	0.829	0.977	0.943	0.898	0.890	0.970	0.960	1.013	1.357	1.436	1.322	0.926
335.0	102.8	259.7	310.8	178.0	118.4	105.4	111.8	123.6	145.5	177.3	200.0	219.4	215.2	197.5	185.5	191.9	234.2	123.6	56.37	69.67	200.8	571.1	 1592	 3964	362.3	17.80	2.692	1.971	1.752	1.144	1.044	0.805	0.699	0.691	0.601	0.478	0.471	0.424	0.422	0.322	0.348	0.347	0.259	0.319	0.346	0.468	0.562	0.907	1.120	1.164	0.940	0.738	0.658	0.587	0.553	0.588	0.610	0.662	0.687	0.716	0.696	0.852	0.788	0.858	0.951	0.950	1.042	1.060	1.164	1.157	1.127	1.055	0.955	0.996	0.948	1.195	1.397
340.0	111.7	287.7	362.6	215.8	147.6	134.7	133.6	147.2	161.9	194.4	223.9	242.7	243.3	222.3	195.6	163.0	208.6	212.1	75.78	59.17	81.44	156.3	428.9	 2394	 3070	320.9	8.073	2.623	2.050	1.498	1.236	1.004	0.902	0.676	0.617	0.549	0.570	0.431	0.381	0.361	0.364	0.297	0.251	0.242	0.398	0.434	0.570	1.044	1.317	1.403	0.915	0.849	0.694	0.682	0.678	0.647	0.736	0.758	0.883	0.903	0.749	0.943	1.035	0.976	1.035	1.105	1.299	1.132	1.205	1.232	1.275	1.204	1.155	1.053	0.833	0.895	1.108
345.0	108.5	296.4	374.7	235.5	177.8	160.2	154.4	161.9	171.1	195.7	230.0	248.0	255.6	237.3	208.1	158.9	157.3	230.2	159.1	68.66	64.22	71.11	124.1	686.0	 2857	 2782	46.51	4.514	2.705	1.948	1.363	1.232	0.868	0.696	0.617	0.575	0.517	0.477	0.382	0.368	0.364	0.239	0.273	0.281	0.333	0.380	0.668	0.934	1.235	1.360	1.052	0.931	0.795	0.831	0.832	0.731	0.815	0.786	0.837	0.912	0.871	0.927	1.010	1.005	1.066	1.155	1.201	1.130	1.402	1.245	1.285	1.220	1.318	1.152	0.937	0.843	0.939
350.0	101.3	259.0	349.0	261.5	209.0	184.5	170.7	175.3	177.1	199.8	226.6	245.8	252.4	243.6	218.9	171.8	146.1	166.6	203.9	151.2	81.51	64.27	66.35	183.9	803.3	 2342	 2980	 1017	15.40	2.776	1.836	1.354	1.036	0.861	0.759	0.584	0.495	0.588	0.455	0.374	0.378	0.318	0.293	0.288	0.353	0.406	0.635	0.907	1.224	1.167	1.055	1.067	0.965	1.009	0.856	0.815	0.869	0.865	0.962	0.955	0.969	0.944	1.102	1.061	1.093	1.078	1.161	1.180	1.287	1.289	1.248	1.248	1.200	1.205	1.070	0.964	0.847
355.0	93.45	240.1	339.4	278.2	247.0	213.7	195.6	195.4	191.7	205.4	233.5	249.8	260.2	251.7	231.6	189.9	159.3	150.3	161.3	208.8	156.4	83.06	68.88	82.88	208.6	562.6	 1624	 4361	348.1	18.25	2.669	2.028	1.419	0.855	0.883	0.715	0.570	0.581	0.450	0.435	0.306	0.325	0.268	0.341	0.369	0.498	0.589	0.772	1.150	1.100	1.060	1.219	1.205	1.071	1.025	0.995	1.014	0.937	1.029	1.020	0.993	1.060	1.079	1.152	1.154	1.131	1.256	1.270	1.219	1.367	1.232	1.302	1.182	1.196	1.026	0.937	0.997
360.0	84.79	219.2	321.6	295.5	268.5	238.8	213.3	212.5	207.8	212.1	236.5	254.6	263.9	260.2	240.6	202.2	170.7	157.3	150.1	178.6	214.3	122.1	79.46	69.84	83.59	152.2	429.3	 2659	 4143	310.6	8.051	2.524	1.701	1.202	0.900	0.758	0.764	0.550	0.555	0.499	0.391	0.332	0.292	0.391	0.343	0.488	0.601	0.726	1.080	1.116	1.116	1.219	1.244	1.073	1.129	1.077	1.139	1.063	1.144	0.938	0.964	1.054	1.120	1.074	1.149	1.069	1.185	1.290	1.357	1.280	1.475	1.322	1.152	1.418	1.126	1.011	0.915
365.0	81.95	206.0	313.3	298.6	283.6	258.2	235.6	227.3	210.0	221.0	240.4	255.1	266.3	262.3	244.8	208.5	183.8	169.1	157.0	156.8	207.3	186.8	102.2	78.33	62.87	66.98	119.7	749.0	 3542	 2808	43.67	4.276	2.188	1.596	1.151	0.907	0.752	0.675	0.579	0.494	0.389	0.382	0.306	0.383	0.406	0.465	0.615	0.799	0.993	1.125	1.088	1.218	1.276	1.189	1.223	1.237	1.208	1.114	1.102	1.117	1.104	1.169	1.093	1.148	1.095	1.113	1.170	1.266	1.406	1.253	1.408	1.348	1.314	1.398	1.171	1.133	1.101
370.0	80.81	187.0	278.8	300.4	300.8	282.6	251.3	236.7	222.6	231.2	250.4	260.1	264.5	262.3	246.0	215.9	197.5	185.6	170.7	159.7	171.4	203.1	171.6	105.5	75.68	61.45	61.00	192.8	982.2	 2844	 3183	954.4	13.13	2.257	1.505	1.035	0.944	0.725	0.674	0.563	0.433	0.427	0.407	0.414	0.410	0.417	0.552	0.711	0.974	1.093	1.024	1.222	1.433	1.335	1.370	1.266	1.221	1.195	1.160	1.190	1.070	1.143	1.206	1.176	1.232	1.202	1.187	1.267	1.317	1.245	1.370	1.250	1.414	1.329	1.289	1.178	1.145
375.0	76.88	179.2	274.2	309.4	325.4	297.0	279.0	248.1	242.6	247.5	260.9	266.9	276.5	265.4	245.1	222.9	207.7	200.4	186.6	175.1	169.1	174.1	204.1	177.2	102.7	77.41	65.94	84.25	247.9	681.4	 1916	 4418	302.8	15.71	2.316	1.722	1.156	0.940	0.755	0.633	0.456	0.531	0.421	0.362	0.451	0.524	0.586	0.739	0.925	1.098	0.986	1.303	1.392	1.475	1.428	1.317	1.348	1.171	1.194	1.241	1.178	1.160	1.193	1.241	1.332	1.333	1.293	1.354	1.318	1.356	1.378	1.318	1.468	1.383	1.329	1.323	1.282
380.0	75.42	171.5	263.7	321.7	340.0	310.7	291.1	258.0	249.6	256.3	268.9	277.7	289.8	269.1	246.9	229.6	216.1	208.8	197.0	185.6	176.7	171.9	184.8	217.1	145.9	94.96	80.69	74.27	94.92	182.3	512.7	 2840	 4023	266.4	6.607	2.117	1.396	1.223	0.803	0.741	0.536	0.559	0.477	0.416	0.533	0.530	0.606	0.732	0.889	1.103	1.050	1.389	1.349	1.438	1.544	1.353	1.342	1.316	1.209	1.264	1.263	1.111	1.263	1.275	1.307	1.369	1.298	1.452	1.442	1.506	1.494	1.433	1.522	1.381	1.359	1.421	1.256
385.0	71.20	170.0	264.1	321.7	346.6	318.2	299.5	275.3	262.7	264.0	277.5	286.8	298.6	271.3	248.8	231.4	219.9	212.4	202.8	194.7	184.4	177.5	174.8	205.0	194.8	120.7	93.33	82.73	70.36	77.20	150.7	822.7	 3524	 2230	35.91	3.253	1.685	1.368	0.978	0.843	0.628	0.529	0.475	0.496	0.543	0.444	0.629	0.689	0.860	1.080	1.069	1.354	1.517	1.539	1.485	1.385	1.558	1.515	1.396	1.377	1.406	1.343	1.303	1.209	1.331	1.467	1.393	1.415	1.370	1.440	1.468	1.431	1.404	1.260	1.390	1.329	1.347
390.0	74.90	160.3	254.8	320.5	343.9	328.2	305.9	283.9	271.7	269.1	279.9	279.0	286.7	266.1	245.1	231.4	224.0	216.1	210.3	201.7	193.4	185.6	175.8	177.0	193.7	171.3	118.8	91.64	71.87	59.48	71.11	218.2	991.5	 2377	 2696	773.8	11.50	1.858	1.366	1.043	0.721	0.637	0.582	0.519	0.507	0.494	0.557	0.710	0.897	0.982	1.080	1.391	1.497	1.482	1.474	1.376	1.513	1.494	1.352	1.467	1.287	1.358	1.316	1.321	1.289	1.320	1.393	1.380	1.296	1.486	1.460	1.344	1.395	1.287	1.393	1.231	1.344
395.0	75.78	145.3	247.0	311.0	347.3	334.9	316.7	291.9	283.1	280.0	280.2	278.4	281.8	263.7	240.1	230.6	224.9	219.0	213.2	205.4	199.6	189.4	182.3	174.2	167.9	179.5	170.9	111.0	81.20	65.44	59.61	86.19	243.2	560.8	 1642	 3796	 1159	13.05	1.965	1.373	0.996	0.882	0.703	0.585	0.650	0.612	0.536	0.776	0.933	0.968	1.060	1.406	1.475	1.487	1.555	1.475	1.495	1.520	1.503	1.376	1.399	1.435	1.289	1.390	1.380	1.314	1.283	1.365	1.273	1.431	1.471	1.299	1.412	1.323	1.297	1.268	1.381
400.0	70.30	153.0	247.3	310.4	348.9	344.1	315.8	304.4	285.9	282.7	284.7	279.8	281.6	257.5	234.2	229.4	221.2	219.5	213.1	207.9	200.6	194.7	186.0	177.8	161.3	162.9	186.8	147.2	93.66	74.35	65.48	64.09	81.20	141.0	423.7	 2501	 3713	227.4	5.566	1.561	1.329	0.957	0.745	0.638	0.661	0.702	0.597	0.713	0.893	1.034	1.120	1.348	1.587	1.541	1.577	1.330	1.501	1.472	1.407	1.469	1.493	1.510	1.336	1.464	1.319	1.456	1.192	1.441	1.306	1.462	1.420	1.362	1.407	1.262	1.300	1.270	1.415
405.0	71.68	151.7	238.5	316.4	346.7	341.6	318.6	310.6	290.9	284.4	283.3	280.4	278.7	255.1	229.5	223.1	217.4	215.6	215.2	206.5	201.2	195.8	188.5	181.2	165.3	155.6	169.6	178.8	117.2	83.00	72.50	64.55	49.13	49.94	107.4	704.0	 3047	 1942	31.66	2.814	1.663	1.054	0.893	0.636	0.606	0.706	0.631	0.717	0.951	0.931	1.149	1.370	1.352	1.564	1.523	1.495	1.494	1.493	1.328	1.527	1.408	1.457	1.402	1.392	1.325	1.330	1.210	1.323	1.360	1.491	1.360	1.309	1.454	1.235	1.166	1.344	1.371
410.0	64.33	147.1	232.4	301.5	332.2	334.6	319.7	306.2	297.4	287.1	283.1	273.6	270.4	245.1	226.9	216.1	210.8	208.7	206.7	201.3	199.4	194.4	187.7	181.0	167.1	153.4	151.0	162.5	151.2	104.3	79.08	66.28	45.93	33.73	39.33	168.9	831.1	 2109	 2405	688.9	10.15	1.520	1.143	0.865	0.764	0.672	0.711	0.792	0.902	0.944	1.130	1.391	1.353	1.521	1.504	1.467	1.470	1.500	1.363	1.509	1.497	1.428	1.368	1.446	1.374	1.294	1.253	1.293	1.292	1.356	1.214	1.280	1.292	1.224	1.245	1.374	1.247
415.0	62.09	143.8	227.7	286.7	316.2	317.2	320.6	310.5	298.4	290.0	282.4	269.9	257.6	234.8	219.4	208.2	204.9	198.9	198.7	195.3	191.8	191.0	184.3	178.0	166.5	153.2	143.8	138.6	145.7	137.5	93.14	67.45	47.89	34.34	27.99	50.84	195.6	494.9	 1501	 3109	232.6	11.57	1.567	1.119	0.965	0.779	0.702	0.893	0.889	0.952	1.047	1.352	1.370	1.410	1.438	1.541	1.461	1.548	1.546	1.602	1.514	1.425	1.408	1.468	1.347	1.354	1.271	1.255	1.289	1.253	1.111	1.253	1.050	1.113	1.273	1.280	1.205
420.0	62.85	140.2	214.4	277.9	309.1	320.1	316.9	308.6	298.2	288.2	284.8	263.1	253.4	229.0	212.3	200.2	196.6	194.2	191.7	189.3	185.5	184.8	181.2	174.1	166.6	152.9	141.8	132.4	127.3	142.6	116.4	74.73	51.92	36.94	28.33	27.32	55.34	118.9	385.1	 2013	 2860	206.6	5.266	1.355	1.159	0.912	0.814	0.897	0.920	1.018	1.022	1.322	1.231	1.342	1.458	1.488	1.403	1.378	1.508	1.570	1.388	1.415	1.376	1.316	1.441	1.349	1.241	1.228	1.185	1.286	1.163	1.183	1.208	1.156	1.298	1.243	1.227
425.0	57.45	132.8	206.8	269.0	298.6	310.1	313.9	302.2	298.6	289.0	278.4	261.2	245.7	223.4	205.2	194.7	190.3	187.9	187.7	183.4	180.1	180.7	174.9	170.5	163.0	152.6	142.5	130.3	122.3	128.5	132.0	91.82	57.11	40.77	31.14	24.08	25.59	36.00	93.91	565.5	 2525	 1852	30.27	2.349	1.386	1.045	0.993	0.938	1.101	1.011	1.011	1.348	1.285	1.430	1.386	1.372	1.457	1.460	1.439	1.424	1.451	1.335	1.465	1.247	1.375	1.292	1.282	1.122	1.224	1.210	1.253	1.189	1.082	1.201	1.232	1.228	1.249
430.0	59.90	126.8	210.8	260.7	292.5	300.4	307.4	304.4	297.5	289.4	274.5	256.7	238.2	217.1	200.2	188.0	183.0	180.7	178.5	176.5	173.7	172.5	169.9	165.4	158.7	149.0	141.0	131.9	121.2	114.5	119.4	111.9	72.68	46.72	35.39	26.79	22.13	19.98	29.56	133.4	702.9	 1819	 2062	643.6	9.557	1.438	1.174	1.057	1.085	1.023	1.061	1.278	1.315	1.445	1.417	1.372	1.459	1.614	1.496	1.438	1.447	1.478	1.399	1.380	1.320	1.277	1.190	1.109	1.214	1.180	1.224	1.118	1.183	1.080	1.174	1.185	1.119
435.0	70.21	126.2	202.5	242.7	280.3	296.4	305.6	299.4	296.1	291.2	272.8	254.3	236.9	210.2	193.7	180.6	177.7	171.6	168.3	166.2	163.7	164.0	161.7	159.0	154.0	147.1	136.1	131.3	121.0	111.1	104.3	104.7	96.17	59.38	39.92	30.55	23.96	18.81	17.58	37.41	162.9	424.7	 1262	 3011	218.2	10.81	1.521	1.360	1.174	0.932	1.023	1.319	1.369	1.426	1.371	1.346	1.551	1.595	1.488	1.439	1.374	1.476	1.511	1.368	1.317	1.250	1.169	1.049	1.168	1.124	1.198	1.024	1.135	1.036	1.001	1.114	1.141
440.0	94.61	116.2	193.1	236.6	272.2	287.9	298.1	300.2	297.4	282.5	268.5	250.4	230.5	205.1	188.4	173.4	168.0	166.5	162.4	160.2	158.0	157.4	157.5	156.0	148.9	143.4	134.0	128.7	120.8	110.8	100.5	94.90	96.48	75.78	46.55	34.04	26.17	19.92	16.05	17.56	43.25	100.5	327.8	 2092	 2809	190.1	3.661	1.690	1.340	1.224	1.143	1.340	1.345	1.248	1.405	1.330	1.479	1.528	1.380	1.475	1.449	1.345	1.399	1.382	1.319	1.311	1.256	1.280	1.091	1.087	1.028	1.022	1.146	0.945	0.932	1.051	0.974
445.0	132.8	122.2	188.8	237.0	267.1	282.0	289.3	294.7	287.0	277.7	264.3	245.7	221.5	199.1	179.9	168.6	163.4	159.7	156.9	155.8	152.5	150.3	150.1	146.9	142.2	137.5	131.2	125.0	119.9	109.7	99.06	87.66	86.02	85.79	56.92	36.16	28.45	21.31	17.03	13.94	17.32	28.45	78.52	618.8	 2648	 1678	24.92	2.298	1.413	1.303	1.223	1.381	1.296	1.263	1.287	1.282	1.422	1.418	1.389	1.363	1.354	1.457	1.479	1.383	1.276	1.247	1.228	1.198	1.000	1.083	0.985	1.132	1.009	0.905	0.967	1.030	1.049
450.0	139.6	163.3	182.9	223.1	251.4	264.8	274.6	280.5	278.1	271.2	257.7	234.8	214.4	189.8	171.1	158.3	153.3	147.3	145.7	143.4	141.3	140.4	139.8	138.6	135.3	130.8	125.2	119.5	115.3	107.4	97.57	86.12	75.81	75.30	69.87	46.70	31.27	23.95	18.84	14.77	12.81	13.46	23.18	143.3	750.4	 1871	 1994	552.6	7.901	1.567	1.345	1.409	1.377	1.349	1.361	1.273	1.361	1.441	1.451	1.379	1.331	1.312	1.396	1.367	1.330	1.145	1.165	1.135	1.042	0.971	1.067	1.018	1.010	1.015	0.908	0.992	0.922
455.0	102.6	247.6	197.8	207.3	234.4	250.3	261.4	265.0	260.9	261.2	249.1	222.3	198.2	177.9	160.1	148.4	141.2	138.5	133.4	133.7	129.1	129.5	127.7	127.4	125.9	122.0	118.4	112.9	108.5	102.1	94.59	83.34	71.09	62.37	63.74	60.18	38.94	26.48	19.83	16.14	12.83	11.11	11.54	36.79	171.5	440.8	 1267	 2627	181.6	8.399	1.512	1.405	1.313	1.450	1.260	1.211	1.373	1.450	1.329	1.349	1.289	1.137	1.292	1.280	1.254	1.013	0.954	1.112	1.078	1.056	0.995	0.903	0.994	0.880	0.870	0.848	0.900
460.0	61.08	284.1	293.0	192.1	218.9	240.0	248.9	247.4	253.7	251.1	241.2	214.7	191.4	168.1	151.1	139.7	132.2	128.6	125.6	123.3	121.4	120.6	120.4	118.6	118.7	113.9	111.4	108.7	104.7	98.31	91.45	80.48	70.09	59.40	55.44	59.68	47.78	29.29	21.60	16.68	13.72	11.21	9.455	13.86	42.82	102.3	331.0	 1859	 2280	140.6	3.474	1.568	1.397	1.489	1.400	1.167	1.401	1.279	1.240	1.313	1.265	1.200	1.191	1.232	1.196	1.103	0.984	1.020	0.985	0.941	0.984	0.851	0.930	0.932	0.739	0.839	0.901
465.0	42.86	241.2	482.8	205.9	207.7	224.7	239.0	236.5	242.3	239.3	227.1	204.6	182.5	161.9	143.9	131.8	123.9	121.3	117.1	115.4	113.8	111.5	111.5	109.6	109.3	106.2	104.4	102.6	98.85	95.71	87.17	77.47	67.13	57.19	50.86	51.35	52.64	35.34	22.87	17.88	14.03	11.54	9.277	9.089	14.34	26.78	77.91	541.5	 2204	 1263	19.91	2.323	1.595	1.557	1.418	1.206	1.330	1.316	1.326	1.208	1.258	1.197	1.202	1.159	1.132	1.018	1.045	1.045	0.886	0.894	0.953	0.862	0.809	0.913	0.856	0.864	0.818
470.0	41.36	142.6	591.6	397.8	193.8	208.3	216.5	220.2	221.6	221.0	209.7	191.0	170.0	148.9	133.0	120.4	113.1	109.3	106.2	103.0	101.7	101.5	100.8	100.1	98.41	96.18	95.28	93.89	91.67	87.72	82.01	73.21	63.79	54.20	47.29	43.04	44.43	41.64	27.90	19.20	14.84	12.25	10.21	8.581	8.768	10.45	21.08	124.6	635.0	 1477	 1497	476.8	7.723	1.801	1.473	1.320	1.198	1.324	1.208	1.202	1.185	1.192	1.139	1.151	1.118	0.947	1.039	0.873	0.890	0.812	0.835	0.760	0.820	0.816	0.814	0.719	0.743
475.0	42.01	87.47	358.9	645.5	274.7	184.3	199.5	202.7	207.6	203.6	191.6	174.9	152.4	135.6	121.6	107.7	102.0	97.05	95.11	92.93	91.22	91.24	89.29	88.89	87.01	86.74	85.29	84.05	83.47	80.51	74.57	67.76	59.33	51.82	44.41	38.64	35.88	36.94	35.64	22.89	15.53	12.64	10.71	8.736	7.791	7.158	8.634	31.30	144.4	344.1	894.0	 1956	179.7	8.960	1.579	1.442	1.166	1.230	1.138	1.249	1.093	1.122	1.044	1.045	0.975	0.956	1.018	0.812	0.805	0.777	0.762	0.693	0.819	0.633	0.693	0.631	0.732
480.0	44.36	73.18	188.9	667.5	465.4	180.6	181.3	189.6	193.4	191.8	179.3	163.5	145.2	129.9	111.9	102.3	94.36	89.37	87.88	85.63	83.24	83.96	82.74	82.68	81.15	81.26	79.72	78.38	77.90	73.44	70.70	64.24	56.35	49.10	42.28	37.22	32.58	30.77	34.34	27.57	17.26	13.02	11.04	9.179	7.513	6.838	5.981	10.57	35.40	79.66	230.4	 1248	 1458	156.0	3.626	1.690	1.266	1.293	1.111	1.151	1.076	1.073	1.027	0.994	0.936	0.846	0.854	0.790	0.876	0.740	0.737	0.698	0.669	0.708	0.568	0.645	0.649
485.0	46.63	70.72	122.0	459.2	707.9	216.5	170.5	179.3	179.7	178.1	172.7	154.3	138.5	121.3	107.5	97.33	88.39	85.37	81.42	80.02	78.13	78.88	76.66	77.15	76.70	74.78	73.79	73.47	72.29	69.61	66.74	61.12	52.77	46.36	40.66	36.55	30.92	27.49	29.21	30.50	20.89	13.22	11.06	9.353	7.768	6.633	5.545	6.030	11.01	20.40	54.28	349.4	 1608	 1340	24.12	2.253	1.469	1.314	1.212	1.135	1.003	1.012	1.023	1.042	0.869	0.860	0.834	0.811	0.829	0.756	0.706	0.604	0.580	0.728	0.572	0.653	0.558
490.0	40.01	74.53	103.1	219.1	691.3	492.3	167.3	163.6	163.8	162.7	157.9	142.2	126.3	110.8	97.66	88.05	80.45	77.30	74.51	72.11	70.66	70.33	68.80	68.67	68.67	67.04	65.47	65.62	65.58	64.07	60.62	55.93	49.69	43.20	38.21	33.03	29.24	25.44	23.79	25.53	24.98	17.04	11.48	9.700	8.110	6.834	5.766	5.281	5.735	7.254	14.62	80.64	467.5	 1175	 1437	455.2	8.060	1.519	1.243	1.148	0.977	0.928	0.936	0.926	0.917	0.825	0.736	0.626	0.752	0.689	0.671	0.608	0.593	0.637	0.550	0.599	0.509
495.0	29.94	83.45	94.47	130.4	364.4	803.1	268.3	146.1	151.8	147.2	143.6	130.5	116.8	98.43	88.69	77.68	71.90	69.57	67.56	63.72	62.92	62.34	60.93	60.72	60.73	59.79	58.64	58.38	58.60	57.26	53.72	50.30	45.45	39.50	35.04	30.42	26.86	23.47	20.88	20.51	22.18	21.18	13.82	9.487	8.123	7.064	5.913	5.299	4.882	4.602	5.788	20.39	106.5	274.2	932.7	 1885	199.3	8.869	1.469	1.136	0.987	0.955	0.925	0.877	0.853	0.756	0.671	0.702	0.705	0.665	0.596	0.574	0.499	0.526	0.573	0.553	0.465
500.0	21.39	74.03	91.17	106.8	179.1	732.9	492.1	142.6	138.8	134.4	133.7	118.6	107.3	91.27	80.16	72.56	66.30	64.04	60.54	58.62	57.05	56.37	55.67	55.39	53.95	53.59	52.61	52.93	53.17	52.67	49.48	46.80	41.11	36.64	32.56	28.65	25.48	22.22	19.53	17.51	17.46	20.75	17.09	10.18	8.052	6.935	6.139	5.105	4.600	4.012	3.933	6.774	25.75	63.39	239.3	 1222	 1594	168.6	3.265	1.298	1.081	0.971	0.889	0.750	0.845	0.705	0.692	0.697	0.630	0.573	0.616	0.517	0.491	0.517	0.460	0.444	0.400
505.0	20.41	59.67	102.0	96.47	116.7	457.7	723.9	185.5	126.7	126.6	115.7	108.9	95.21	85.84	72.61	67.61	60.91	57.79	55.64	54.12	51.21	50.35	49.88	50.00	49.34	47.93	47.72	47.93	48.27	47.55	45.52	41.95	38.22	34.11	29.85	27.18	23.75	20.50	18.77	16.35	14.59	16.78	18.60	12.40	8.241	6.696	6.053	5.191	4.475	3.881	3.598	3.731	7.798	16.23	55.69	345.6	 1488	 1388	25.80	1.843	1.179	0.959	0.833	0.775	0.746	0.647	0.689	0.642	0.615	0.541	0.635	0.511	0.413	0.437	0.484	0.442	0.448
510.0	20.33	43.60	97.40	97.60	94.13	199.0	645.0	466.8	120.2	109.3	105.5	97.13	83.96	75.03	64.53	59.67	54.52	50.03	47.90	46.18	44.68	44.15	43.76	43.54	42.86	41.91	41.46	42.13	41.94	41.16	40.25	36.63	33.70	30.54	26.73	24.15	21.18	18.85	16.55	14.64	12.90	12.82	15.06	14.82	10.10	6.818	5.695	5.059	4.542	3.987	3.623	3.288	3.878	5.615	14.25	79.16	409.8	 1142	 1263	379.7	7.967	1.025	0.940	0.820	0.722	0.626	0.607	0.562	0.548	0.483	0.534	0.444	0.402	0.386	0.377	0.403	0.403
515.0	16.48	34.07	74.50	102.6	80.95	105.3	298.7	742.3	243.4	96.38	91.40	85.03	73.12	64.85	56.58	50.64	46.60	43.16	41.25	39.95	38.35	37.42	37.35	36.71	36.53	35.59	35.86	36.13	35.10	35.58	34.56	31.91	29.09	26.57	23.26	21.39	18.77	16.47	14.94	13.13	11.40	10.54	10.48	13.28	12.54	8.402	5.879	4.795	4.226	3.653	3.388	3.050	2.832	3.079	5.107	19.39	92.91	265.2	725.2	 1464	198.2	8.113	0.888	0.893	0.703	0.646	0.590	0.494	0.487	0.507	0.485	0.396	0.442	0.333	0.353	0.310	0.357
520.0	14.61	29.56	54.76	98.16	84.31	83.03	138.0	641.6	488.7	92.20	84.21	75.32	67.44	59.31	50.98	45.77	42.13	38.79	37.45	36.12	34.07	33.82	34.07	32.60	32.00	31.70	31.87	32.26	32.36	32.78	30.80	28.06	25.45	23.43	20.57	18.97	17.01	14.96	13.65	11.85	10.89	9.540	8.694	10.28	12.52	9.997	6.165	4.619	3.925	3.513	3.189	3.032	2.783	2.536	2.814	5.793	22.16	60.58	179.9	921.2	 1333	158.5	2.488	0.971	0.683	0.665	0.558	0.521	0.418	0.434	0.364	0.367	0.393	0.314	0.369	0.311	0.259
525.0	14.63	25.47	45.26	83.32	90.21	70.06	86.59	367.1	701.7	157.8	74.63	69.48	59.25	52.17	46.96	42.60	38.62	35.53	33.74	32.58	30.50	30.17	30.20	28.65	29.87	28.91	28.61	28.66	28.95	29.29	27.77	25.49	22.91	21.37	19.06	17.40	15.03	14.13	12.20	10.83	9.963	8.876	7.987	7.806	10.47	10.95	7.183	4.555	3.793	3.449	3.049	2.970	2.749	2.443	2.306	2.713	6.256	14.81	41.59	252.7	 1122	 1092	25.61	1.381	0.805	0.651	0.527	0.522	0.439	0.414	0.369	0.349	0.312	0.283	0.254	0.268	0.285
530.0	10.92	22.71	34.93	60.40	92.12	69.19	64.90	150.7	554.6	471.0	83.86	59.38	52.04	45.72	39.72	36.20	32.47	30.23	28.64	27.63	26.87	25.62	25.51	25.51	25.37	24.54	24.62	24.85	24.62	24.60	24.03	22.66	19.91	18.39	16.76	15.32	13.75	12.29	11.03	10.00	8.830	8.024	7.012	6.718	7.418	9.034	8.745	5.775	3.857	3.199	2.888	2.616	2.430	2.337	2.194	1.981	2.635	4.484	10.42	57.56	301.2	830.8	946.8	312.6	6.944	0.770	0.575	0.501	0.466	0.376	0.347	0.316	0.288	0.286	0.239	0.243	0.243
535.0	14.04	20.91	34.79	42.98	70.05	77.31	56.09	74.81	234.6	649.2	202.0	51.22	44.65	40.00	34.47	31.82	28.31	26.69	24.55	24.93	22.86	21.59	21.81	21.94	21.28	20.59	21.33	21.08	20.51	20.86	20.31	18.95	17.16	15.88	14.65	13.09	12.14	10.74	9.493	8.692	7.920	7.026	6.455	5.984	5.601	6.178	7.743	7.572	4.432	3.235	2.746	2.368	2.067	2.161	2.216	1.870	1.773	2.142	3.412	13.76	67.96	190.3	499.2	 1154	192.5	6.896	0.658	0.538	0.483	0.375	0.325	0.291	0.282	0.229	0.194	0.209	0.279
540.0	10.25	17.44	29.44	37.30	53.92	78.21	54.05	54.36	101.2	489.7	491.5	59.79	40.49	36.60	31.22	27.75	25.43	23.69	22.31	20.83	20.13	20.00	19.50	19.61	19.11	18.74	19.00	19.06	18.70	18.72	17.77	16.87	15.59	13.97	12.91	11.64	10.69	9.865	8.626	7.862	7.367	6.611	5.654	5.287	4.902	4.865	5.624	7.474	5.254	3.154	2.511	2.255	1.963	2.002	1.915	1.874	1.610	1.467	1.748	3.920	16.05	43.38	122.8	693.5	 1048	150.6	2.133	0.569	0.544	0.373	0.304	0.314	0.262	0.219	0.227	0.214	0.262
545.0	8.090	14.54	25.77	29.92	41.30	72.58	59.84	45.95	59.03	263.2	643.4	141.1	36.79	32.83	27.81	23.96	22.43	21.34	19.56	18.34	18.38	17.56	17.32	17.50	16.93	16.03	16.43	16.40	16.55	16.96	16.11	15.26	13.74	12.47	11.42	10.34	9.333	8.630	8.070	7.153	6.382	6.049	5.169	5.011	4.509	4.077	4.429	5.930	6.093	3.781	2.440	2.095	1.791	1.798	1.616	1.848	1.676	1.335	1.305	1.744	4.431	10.48	28.31	187.6	854.2	856.6	25.01	0.982	0.502	0.413	0.334	0.323	0.200	0.182	0.250	0.197	0.222
550.0	7.214	12.46	22.38	25.62	30.14	51.79	66.80	42.69	43.54	101.3	427.3	429.7	54.67	27.77	23.96	21.29	19.41	18.08	17.16	16.08	15.34	15.18	15.07	14.37	14.48	13.62	13.98	14.16	14.47	13.84	13.80	13.06	11.98	11.05	10.03	8.884	8.301	7.535	6.710	6.186	5.593	5.026	4.629	4.386	3.841	3.503	3.368	4.070	5.281	4.692	2.905	2.072	1.611	1.579	1.514	1.481	1.562	1.392	1.215	1.102	1.633	2.952	7.113	42.73	227.4	632.3	726.1	114.5	6.406	0.515	0.343	0.295	0.239	0.202	0.252	0.178	0.211
555.0	9.368	11.22	19.23	22.01	23.72	35.80	56.85	48.75	35.02	49.49	156.6	496.1	150.6	23.86	20.87	17.35	16.37	14.81	14.59	13.34	12.75	12.26	11.95	12.16	11.73	11.54	11.50	11.28	11.69	11.58	11.40	10.61	9.884	9.170	8.542	7.286	6.979	6.113	5.713	5.419	4.627	4.295	3.905	3.521	3.279	3.153	2.868	2.774	3.348	4.366	3.843	2.296	1.583	1.381	1.369	1.213	1.150	1.259	1.218	1.020	0.887	1.219	2.150	10.12	51.21	144.1	357.8	832.0	187.4	5.000	0.367	0.268	0.214	0.182	0.240	0.179	0.152
560.0	7.373	11.58	17.60	17.64	20.62	24.94	45.38	55.44	32.12	34.98	61.51	326.7	413.5	34.31	18.08	14.66	13.53	12.46	12.28	11.62	11.02	10.31	10.11	10.35	10.20	9.833	9.849	9.939	9.722	9.987	9.553	8.886	8.875	7.778	7.024	6.208	5.813	5.365	4.828	4.888	4.024	3.884	3.445	3.216	2.887	2.732	2.558	2.262	2.434	3.253	3.901	2.874	1.642	1.276	1.205	1.097	1.014	1.027	1.000	1.091	0.831	0.806	1.045	2.799	12.01	32.72	87.28	494.5	764.6	28.77	1.415	0.339	0.260	0.220	0.210	0.221	0.132
565.0	6.832	12.01	15.62	16.91	18.71	19.65	31.43	54.51	33.92	27.81	34.49	155.6	477.7	108.9	14.82	13.04	11.80	11.10	10.61	10.05	9.254	8.980	8.605	8.886	8.300	8.069	8.460	8.435	8.420	8.408	7.990	7.617	7.452	6.710	6.032	5.474	4.932	4.558	4.387	3.893	3.451	3.226	2.836	2.710	2.354	2.306	2.199	1.998	1.925	2.234	3.203	3.188	1.782	1.199	0.989	1.000	0.850	0.857	0.834	0.950	0.851	0.701	0.728	1.043	3.145	7.812	20.01	130.0	582.6	592.4	24.30	0.560	0.236	0.239	0.145	0.151	0.144
570.0	5.165	11.20	11.51	12.84	15.23	15.31	20.56	40.08	41.23	23.32	23.11	54.67	274.5	336.0	37.96	10.50	9.396	8.634	8.310	7.660	7.404	7.248	6.854	6.989	6.568	6.448	6.599	6.601	6.930	6.526	6.428	6.107	5.662	5.217	4.868	4.398	4.054	3.642	3.374	3.141	2.732	2.607	2.309	2.206	1.924	1.900	1.722	1.561	1.571	1.475	1.950	2.532	2.116	1.341	0.914	0.838	0.759	0.672	0.618	0.714	0.791	0.643	0.563	0.648	1.058	2.060	4.864	29.44	151.5	417.6	463.7	105.6	4.616	0.260	0.147	0.140	0.136
575.0	6.136	7.421	11.13	11.02	12.34	12.35	14.93	24.51	39.55	25.36	18.14	24.01	89.77	327.9	201.7	9.260	7.280	6.717	6.322	5.914	5.997	5.659	5.409	5.285	4.918	4.952	5.116	5.049	5.013	5.094	4.602	4.443	4.289	4.030	3.711	3.238	3.103	2.636	2.593	2.570	2.086	2.025	1.788	1.666	1.557	1.412	1.423	1.233	1.172	1.089	1.064	1.440	1.912	1.542	0.911	0.680	0.561	0.530	0.566	0.602	0.559	0.603	0.510	0.453	0.499	0.724	1.401	6.940	34.03	94.67	220.0	474.9	150.4	2.832	0.176	0.132	0.135
580.0	5.149	5.429	7.877	9.821	9.816	10.60	12.19	15.60	33.79	31.07	16.25	15.75	29.99	190.0	345.6	24.81	6.090	5.256	5.105	4.737	4.617	4.397	4.333	4.153	4.114	4.122	4.176	3.968	4.310	4.375	3.845	3.550	3.395	3.452	2.989	2.704	2.585	2.334	2.096	2.111	1.680	1.686	1.422	1.370	1.269	1.231	1.055	0.991	1.009	0.883	0.790	0.899	1.496	1.609	1.098	0.697	0.503	0.531	0.442	0.429	0.406	0.498	0.497	0.463	0.355	0.437	0.549	1.794	7.914	21.41	53.28	266.8	436.4	27.62	0.759	0.167	0.136
585.0	4.351	7.644	7.393	9.017	9.602	8.861	9.845	12.29	26.50	35.90	15.83	13.94	14.81	82.94	351.4	90.93	5.038	4.777	4.075	4.090	3.977	3.837	3.749	3.582	3.562	3.178	3.499	3.217	3.469	3.398	3.122	3.005	2.719	2.616	2.471	2.207	2.205	1.966	1.854	1.624	1.398	1.401	1.224	1.154	1.097	1.075	0.893	0.833	0.853	0.760	0.709	0.691	0.906	1.371	1.173	0.739	0.502	0.448	0.442	0.416	0.390	0.381	0.480	0.520	0.346	0.305	0.350	0.679	2.005	5.021	12.21	69.51	321.3	228.0	20.86	0.309	0.154
590.0	3.933	4.664	6.831	6.615	6.732	7.837	8.119	9.328	15.76	30.51	23.46	11.77	10.83	26.63	174.2	285.9	31.11	3.895	3.261	3.318	3.018	2.795	2.784	2.777	2.744	2.684	2.730	2.664	2.706	2.619	2.595	2.388	2.234	1.950	1.922	1.847	1.609	1.548	1.440	1.343	1.128	1.146	1.013	0.998	0.882	0.890	0.743	0.652	0.638	0.625	0.571	0.520	0.574	0.868	1.025	0.964	0.586	0.437	0.348	0.289	0.300	0.326	0.329	0.442	0.392	0.264	0.282	0.351	0.630	1.273	2.951	15.75	82.99	199.7	244.5	81.48	2.731
595.0	3.111	5.482	6.122	5.467	4.790	6.043	7.480	7.493	10.79	20.45	29.01	12.35	8.295	11.35	51.47	240.0	183.8	3.838	2.819	2.207	2.276	2.252	2.284	2.074	2.157	2.141	2.109	2.014	1.889	1.976	1.848	1.942	1.771	1.673	1.456	1.500	1.192	1.169	1.158	1.000	0.978	0.841	0.759	0.744	0.756	0.659	0.597	0.535	0.505	0.474	0.470	0.391	0.419	0.514	0.722	0.950	0.734	0.414	0.333	0.228	0.247	0.283	0.277	0.263	0.382	0.290	0.226	0.228	0.282	0.388	0.856	3.654	18.64	45.35	116.9	275.0	30.64
600.0	1.912	5.323	6.742	5.161	4.386	4.915	6.574	6.879	9.105	13.72	27.91	16.69	7.856	7.443	15.22	123.5	295.2	22.49	2.546	2.305	2.067	2.027	1.901	1.778	1.674	1.678	1.820	1.641	1.537	1.571	1.687	1.544	1.524	1.382	1.252	1.075	1.034	1.011	1.086	0.825	0.795	0.757	0.663	0.570	0.582	0.517	0.522	0.542	0.476	0.372	0.372	0.382	0.331	0.357	0.469	0.730	0.791	0.563	0.345	0.246	0.235	0.204	0.267	0.286	0.281	0.313	0.267	0.160	0.219	0.223	0.338	0.979	4.298	10.26	28.01	153.5	230.8
605.0	1.792	4.412	4.479	4.905	4.725	4.513	5.023	5.721	7.457	9.568	22.27	21.50	7.881	6.165	6.876	47.32	275.6	75.00	2.128	1.854	1.889	1.715	1.744	1.519	1.436	1.455	1.503	1.314	1.427	1.429	1.475	1.286	1.387	1.114	1.189	0.980	0.940	0.924	0.827	0.793	0.582	0.634	0.594	0.626	0.542	0.487	0.465	0.408	0.406	0.374	0.343	0.304	0.290	0.320	0.324	0.476	0.734	0.592	0.321	0.224	0.220	0.243	0.226	0.186	0.233	0.258	0.297	0.187	0.191	0.182	0.213	0.369	1.076	2.388	6.375	39.66	174.2
610.0	1.569	3.432	4.021	4.228	4.113	3.921	4.197	4.889	6.217	7.560	14.03	22.78	10.62	5.186	4.768	14.01	124.3	233.8	28.73	1.740	1.530	1.416	1.283	1.271	1.273	1.248	1.195	1.160	1.232	1.291	1.194	1.086	1.014	0.972	0.934	0.828	0.764	0.669	0.659	0.575	0.514	0.511	0.475	0.527	0.486	0.412	0.385	0.388	0.310	0.280	0.264	0.252	0.234	0.261	0.228	0.309	0.500	0.537	0.439	0.238	0.202	0.201	0.184	0.165	0.157	0.202	0.228	0.243	0.148	0.132	0.141	0.176	0.346	0.612	1.502	8.979	44.80
615.0	3.264	1.803	4.181	3.468	3.828	3.289	3.973	4.362	5.383	6.351	8.734	16.45	17.88	4.897	3.785	5.340	33.32	174.5	170.7	2.653	1.205	1.058	0.971	1.024	1.131	0.933	1.020	1.031	1.055	1.029	0.903	0.944	0.795	0.770	0.704	0.620	0.614	0.575	0.538	0.480	0.466	0.431	0.439	0.391	0.330	0.290	0.277	0.302	0.255	0.255	0.226	0.173	0.197	0.204	0.176	0.200	0.281	0.398	0.487	0.349	0.214	0.159	0.168	0.157	0.116	0.137	0.153	0.190	0.250	0.137	0.146	0.100	0.146	0.211	0.387	2.089	10.02
620.0	1.939	1.868	3.153	3.383	3.375	3.309	3.983	3.820	4.855	5.455	7.041	11.77	19.64	6.694	3.201	3.076	9.169	80.65	251.8	26.52	1.238	0.907	0.901	0.965	0.959	0.741	0.791	0.818	1.035	0.854	0.787	0.777	0.679	0.639	0.541	0.536	0.538	0.502	0.522	0.424	0.354	0.332	0.338	0.335	0.323	0.290	0.249	0.243	0.263	0.252	0.192	0.190	0.181	0.174	0.145	0.156	0.191	0.245	0.423	0.378	0.242	0.159	0.138	0.138	0.126	0.115	0.108	0.103	0.232	0.194	0.133	0.074	0.095	0.126	0.168	0.541	2.315
625.0	2.293	2.798	4.075	3.207	3.783	3.692	3.781	3.798	4.488	4.985	6.040	8.186	17.34	9.564	3.148	2.475	3.575	28.30	213.0	119.1	1.373	1.052	0.828	0.855	0.794	0.648	0.731	0.636	0.754	0.752	0.619	0.687	0.598	0.572	0.572	0.510	0.397	0.434	0.420	0.363	0.259	0.294	0.241	0.275	0.272	0.238	0.223	0.205	0.219	0.189	0.185	0.165	0.146	0.151	0.166	0.169	0.160	0.186	0.306	0.351	0.262	0.155	0.114	0.099	0.100	0.081	0.115	0.079	0.164	0.212	0.164	0.071	0.061	0.089	0.091	0.168	0.572
630.0	1.223	3.049	2.548	2.857	3.205	3.047	3.338	3.736	4.051	4.636	5.424	6.400	12.15	13.76	4.224	2.438	2.574	7.997	86.74	216.9	27.21	0.854	0.752	0.776	0.706	0.562	0.596	0.622	0.596	0.547	0.594	0.593	0.460	0.426	0.482	0.439	0.371	0.369	0.351	0.322	0.238	0.248	0.247	0.207	0.235	0.241	0.216	0.191	0.182	0.171	0.175	0.166	0.122	0.140	0.128	0.125	0.143	0.140	0.194	0.260	0.254	0.213	0.144	0.108	0.096	0.102	0.105	0.100	0.106	0.130	0.182	0.122	0.076	0.053	0.069	0.096	0.158
635.0	0.785	3.491	3.063	2.321	2.314	2.584	3.334	3.054	4.092	4.298	5.140	5.298	7.570	13.67	8.002	2.560	2.103	3.119	22.07	136.6	160.0	2.726	0.694	0.613	0.620	0.538	0.477	0.498	0.519	0.475	0.514	0.501	0.381	0.376	0.428	0.358	0.387	0.296	0.294	0.256	0.196	0.218	0.214	0.202	0.217	0.253	0.196	0.186	0.148	0.155	0.154	0.139	0.109	0.122	0.104	0.105	0.114	0.096	0.100	0.140	0.264	0.177	0.172	0.100	0.102	0.085	0.079	0.120	0.074	0.095	0.119	0.157	0.111	0.035	0.025	0.070	0.067
640.0	2.069	3.948	5.820	2.547	1.531	2.539	2.996	3.162	4.064	4.245	5.284	5.567	5.988	11.32	11.60	2.982	2.406	2.170	6.090	57.73	226.3	30.79	0.662	0.520	0.478	0.528	0.497	0.398	0.459	0.438	0.467	0.431	0.388	0.279	0.290	0.236	0.294	0.273	0.223	0.209	0.181	0.159	0.189	0.165	0.189	0.189	0.166	0.191	0.152	0.152	0.114	0.113	0.106	0.117	0.091	0.096	0.096	0.109	0.092	0.078	0.189	0.172	0.175	0.101	0.116	0.097	0.061	0.101	0.065	0.072	0.067	0.131	0.124	0.060	0.028	0.043	0.066
645.0	2.292	5.688	8.951	3.352	2.385	2.549	2.569	3.919	4.523	4.856	6.462	6.316	6.729	8.809	13.60	4.635	2.539	2.052	2.452	18.15	178.9	131.2	0.941	0.559	0.492	0.427	0.511	0.430	0.436	0.388	0.422	0.349	0.423	0.293	0.245	0.248	0.263	0.289	0.222	0.170	0.185	0.174	0.185	0.160	0.170	0.139	0.173	0.127	0.136	0.120	0.129	0.151	0.100	0.105	0.135	0.087	0.115	0.076	0.093	0.083	0.110	0.160	0.198	0.126	0.158	0.112	0.077	0.083	0.078	0.068	0.074	0.073	0.124	0.087	0.043	0.023	0.075
650.0	2.081	6.785	11.67	4.877	2.773	2.811	3.173	4.439	4.976	5.896	6.249	6.569	7.038	7.307	11.96	7.008	2.711	2.051	1.811	5.263	86.05	225.6	8.233	0.508	0.461	0.537	0.391	0.437	0.345	0.336	0.313	0.328	0.392	0.299	0.258	0.224	0.243	0.235	0.227	0.155	0.173	0.141	0.147	0.170	0.159	0.134	0.142	0.140	0.168	0.143	0.098	0.125	0.100	0.109	0.122	0.074	0.096	0.083	0.088	0.075	0.092	0.120	0.143	0.140	0.115	0.088	0.078	0.072	0.070	0.104	0.054	0.072	0.084	0.158	0.077	0.026	0.048
