Sample:	'1
File name:	w11102’≈πŸ«≈.FD3
Run date:	'09:26:26, 11/12/2024
Operator:	Administrator
Comment:	'

Instrument
Model:	F-2700 FL Spectrophotometer
Serial number:	23B8-004
ROM Version:	4J14000 07

Instrument parameters
Measurement type:	3-D scan
Data mode:	Fluorescence
EX  Start WL:	220.0 nm
EX  End WL:	600.0 nm
EX Sampling interval:	5.0 nm
EM  Start WL:	230.0 nm
EM  End WL:	650.0 nm
EM Sampling interval:	5.0 nm
Scan speed:	12000 nm/min
EX Slit:	5.0 nm
EM Slit:	5.0 nm
PMT Voltage:	700 V
Response:	Auto 
Corrected spectra:	Off
Contour interval:	50.000

Peak integration
Integration method:	Rectangular
Sensitivity:	1
Threshold:	1.000

Peaks
No.	ApexEX/EM(nm)	Height(Data)
1	230.0/345.0	3193
2	230.0/570.0	98.81
3	230.0/585.0	95.54
4	255.0/560.0	174.6
5	260.0/575.0	137.8
6	265.0/585.0	119.6
7	270.0/600.0	114.3
8	275.0/310.0	1782
9	275.0/420.0	2044
10	275.0/615.0	119.2
11	280.0/335.0	1975
12	280.0/625.0	106.9
13	285.0/635.0	84.67
14	330.0/415.0	1187
15	455.0/345.0	12.03
16	475.0/355.0	11.41
17	555.0/340.0	10.82
18	575.0/320.0	10.30
19	575.0/345.0	10.69
20	580.0/325.0	10.32

Data points
	220.0	225.0	230.0	235.0	240.0	245.0	250.0	255.0	260.0	265.0	270.0	275.0	280.0	285.0	290.0	295.0	300.0	305.0	310.0	315.0	320.0	325.0	330.0	335.0	340.0	345.0	350.0	355.0	360.0	365.0	370.0	375.0	380.0	385.0	390.0	395.0	400.0	405.0	410.0	415.0	420.0	425.0	430.0	435.0	440.0	445.0	450.0	455.0	460.0	465.0	470.0	475.0	480.0	485.0	490.0	495.0	500.0	505.0	510.0	515.0	520.0	525.0	530.0	535.0	540.0	545.0	550.0	555.0	560.0	565.0	570.0	575.0	580.0	585.0	590.0	595.0	600.0
230.0	0.918	3402	9999.9	3892	108.8	3.491	2.723	3.442	4.305	5.468	7.748	8.024	7.628	7.812	7.338	6.643	6.422	6.767	6.661	6.276	5.759	5.483	5.115	4.874	4.739	4.455	4.039	3.741	3.734	3.846	3.546	3.537	3.546	3.178	3.078	2.831	2.392	2.202	1.974	1.714	1.598	1.517	1.556	1.608	1.494	1.484	3.978	17.41	34.27	26.20	9.802	2.141	0.870	0.718	0.656	0.677	0.566	0.412	0.389	0.235	0.180	0.177	0.081	0.073	-0.038	-0.043	-0.080	-0.185	-0.268	-0.317	-0.401	-0.462	-0.515	-0.540	-0.534	-0.592	-0.677
235.0	36.14	890.0	6816	9999.9	3973	200.0	11.82	8.829	8.664	7.337	7.827	9.451	8.515	9.131	8.654	7.527	6.877	7.213	6.841	6.697	6.053	5.898	5.500	5.459	5.099	4.547	4.188	4.076	3.522	4.020	3.786	3.574	3.347	3.307	3.210	2.669	2.520	2.017	1.852	1.650	1.513	1.570	1.406	1.527	1.576	1.438	1.950	5.369	14.11	28.57	44.58	24.62	15.87	3.721	0.873	0.616	0.723	0.548	0.364	0.346	0.394	0.178	0.038	0.067	-0.055	-0.132	-0.093	-0.213	-0.268	-0.360	-0.318	-0.448	-0.538	-0.520	-0.536	-0.637	-0.618
240.0	66.88	259.0	2017	9999.9	9999.9	3086	108.8	16.08	14.59	11.40	11.25	10.93	10.15	9.781	8.945	8.251	7.283	7.659	6.810	6.795	6.758	5.664	5.806	5.513	5.081	5.116	4.468	4.428	3.892	4.140	3.609	3.721	3.154	3.372	3.225	3.144	2.809	2.264	2.026	1.766	1.755	1.638	1.408	1.681	1.946	1.883	1.590	2.193	4.252	9.151	26.37	62.61	79.43	24.72	12.57	1.892	0.684	0.676	0.379	0.331	0.272	0.335	0.142	0.146	0.015	-0.092	-0.072	-0.253	-0.215	-0.291	-0.371	-0.481	-0.526	-0.514	-0.571	-0.604	-0.654
245.0	43.59	187.1	511.9	3823	9999.9	9999.9	2144	45.14	20.30	14.81	14.48	13.50	11.21	10.38	10.34	8.939	8.540	8.361	7.421	7.171	6.584	5.923	5.749	5.589	5.856	5.357	4.860	4.728	4.313	4.284	3.956	3.897	3.297	3.109	3.195	3.150	2.885	2.434	2.199	1.940	1.931	1.697	1.599	1.625	1.946	1.725	1.831	1.709	2.066	3.112	7.331	23.42	61.56	101.6	96.95	22.50	8.831	1.017	0.582	0.509	0.240	0.330	0.249	0.081	0.186	0.035	-0.124	-0.164	-0.228	-0.287	-0.388	-0.466	-0.493	-0.521	-0.571	-0.560	-0.579
250.0	16.23	133.8	289.3	954.4	4378	9999.9	9999.9	7564	131.7	29.21	24.42	20.82	15.91	14.72	12.04	10.96	9.908	9.322	8.578	8.198	7.458	6.912	6.084	6.007	5.735	5.749	5.275	4.986	4.719	4.458	4.058	3.799	3.538	3.098	3.171	3.035	2.940	2.613	2.413	2.191	2.080	1.894	1.735	1.661	1.794	1.620	1.615	1.773	2.024	2.033	2.758	6.136	15.48	35.24	68.20	99.84	130.1	100.2	16.03	7.693	0.919	0.454	0.279	0.232	0.255	0.164	0.044	-0.093	-0.221	-0.214	-0.308	-0.393	-0.444	-0.400	-0.457	-0.520	-0.557
255.0	18.98	53.03	186.2	453.6	1086	2959	9999.9	9999.9	9999.9	162.4	47.64	32.48	24.81	19.93	15.95	13.07	11.81	10.83	9.671	9.584	8.439	7.390	6.843	6.629	6.351	6.595	5.788	5.331	5.342	5.017	4.507	4.114	3.764	3.364	3.376	3.234	2.880	2.900	2.707	2.420	2.214	2.015	1.953	1.905	1.885	1.746	1.798	1.537	1.623	1.852	2.263	2.861	4.480	8.752	16.17	25.00	56.87	138.6	217.4	184.8	25.11	9.280	0.826	0.499	0.316	0.316	0.196	-0.005	-0.107	-0.097	-0.189	-0.322	-0.302	-0.331	-0.385	-0.393	-0.539
260.0	21.48	36.17	95.69	308.6	481.1	751.7	4492	9999.9	9999.9	1934	122.4	47.56	32.41	25.77	19.38	15.64	14.36	12.78	10.91	10.10	9.421	8.292	7.073	7.162	6.388	6.769	5.980	5.715	5.796	5.388	5.392	4.622	3.898	3.751	3.727	2.912	2.811	3.017	2.994	2.420	2.446	2.090	2.016	1.900	1.919	1.849	1.833	1.555	1.686	1.449	1.853	2.418	2.763	3.043	4.492	6.390	13.86	39.10	112.3	240.6	231.9	171.4	20.62	4.606	0.713	0.557	0.334	0.214	0.058	-0.023	-0.155	-0.184	-0.228	-0.317	-0.316	-0.401	-0.464
265.0	34.87	40.90	61.03	157.6	402.1	349.2	1119	8021	9999.9	9999.9	1454	89.43	49.25	34.21	26.66	19.92	16.15	14.58	12.35	11.04	10.24	8.136	8.011	7.854	7.121	7.178	6.159	6.043	6.334	5.731	5.790	5.027	4.541	4.035	4.070	3.308	2.946	2.786	2.869	2.577	2.369	2.184	2.162	2.124	2.045	1.917	1.855	1.635	1.621	1.419	1.502	1.825	2.357	2.843	2.488	2.617	3.962	9.721	27.12	76.17	186.7	356.0	231.5	29.99	15.35	1.844	0.608	0.437	0.347	0.092	-0.041	0.008	-0.262	-0.247	-0.275	-0.254	-0.453
270.0	70.84	73.28	67.26	89.67	216.6	399.3	476.8	1980	9630	9999.9	9999.9	5674	117.1	60.11	41.18	29.16	23.57	19.15	16.00	13.84	12.16	10.52	9.807	8.973	8.516	7.918	7.223	6.756	6.489	6.381	5.862	5.872	5.312	4.546	4.250	3.778	3.281	3.049	2.787	2.747	2.647	2.540	2.470	2.315	2.262	2.185	2.005	1.766	1.770	1.531	1.496	1.410	1.525	2.099	2.540	2.836	2.644	3.495	7.102	18.09	44.93	108.7	178.8	286.6	314.5	283.8	104.5	11.32	2.433	0.662	0.491	0.190	0.108	-0.024	-0.158	-0.057	-0.209
275.0	143.3	171.3	158.1	127.5	121.2	229.4	533.6	693.6	2298	4406	9999.9	9999.9	8074	130.6	69.74	45.77	34.59	26.50	20.67	17.30	14.34	12.97	11.14	10.32	9.975	8.769	8.369	7.774	6.859	7.498	6.893	6.660	5.860	5.325	4.930	4.317	3.590	3.458	3.283	3.042	2.790	2.701	2.837	2.765	2.659	2.426	2.491	2.372	2.229	1.852	1.774	1.831	1.479	1.544	1.595	2.164	3.318	3.792	3.637	5.309	10.99	25.23	41.07	67.75	114.2	302.2	572.8	574.5	30.52	16.14	1.888	0.796	0.482	0.382	0.236	0.037	0.030
280.0	253.9	321.5	316.8	231.5	151.1	150.3	383.9	648.1	738.7	1213	7659	9999.9	9999.9	1077	112.1	68.30	46.17	35.28	26.07	21.68	17.23	14.99	13.42	12.28	11.55	10.66	9.690	8.493	7.978	7.579	7.364	7.205	6.581	5.719	5.301	5.048	4.207	4.083	3.643	3.297	3.089	3.090	3.133	2.904	3.018	2.858	2.787	2.714	2.676	2.521	2.285	2.217	1.807	1.654	1.649	1.697	2.237	3.210	4.200	3.886	4.184	7.092	10.55	16.51	27.45	76.66	222.3	517.1	670.5	242.6	27.88	11.63	1.258	0.988	0.621	0.321	0.261
285.0	428.3	529.0	533.0	382.9	217.0	160.6	241.2	604.6	632.6	535.1	2088	9999.9	9999.9	9999.9	824.5	100.4	66.60	46.30	34.26	27.11	20.66	17.97	15.46	14.08	12.48	11.45	10.76	9.280	8.698	8.600	8.325	7.671	7.159	6.359	5.780	5.588	4.846	4.409	4.136	3.592	3.452	3.236	3.285	3.127	3.343	3.479	3.589	3.134	3.257	2.918	2.859	2.525	1.999	1.982	1.703	1.915	2.097	2.167	3.232	4.057	4.142	3.832	4.024	5.276	7.863	18.92	52.41	138.3	324.1	600.1	753.6	225.7	22.87	6.432	1.282	0.857	0.594
290.0	613.2	773.9	796.5	579.8	327.9	220.2	227.5	372.8	700.1	718.9	880.7	2783	9999.9	9999.9	9999.9	3365	237.3	73.18	50.94	38.25	28.52	23.83	19.17	16.41	14.95	13.45	12.12	10.79	10.30	9.652	8.727	8.167	7.348	7.099	6.498	6.228	5.725	5.093	4.648	4.047	3.995	3.575	3.566	3.673	4.021	4.125	3.958	4.056	4.091	3.643	3.436	3.306	2.769	2.331	2.265	2.194	2.157	2.259	2.350	2.839	3.789	4.593	4.738	4.371	4.503	6.606	14.00	33.14	76.06	159.2	322.7	458.8	624.4	538.2	357.0	16.71	7.240
295.0	768.1	960.8	1026	753.6	433.5	296.4	280.3	335.6	506.0	925.7	975.6	1147	2700	4997	9999.9	9999.9	4997	249.8	85.90	57.40	40.87	31.98	25.62	21.14	18.80	16.19	14.66	12.33	12.05	11.45	9.902	9.236	8.203	7.469	7.637	7.015	6.289	6.007	5.331	5.055	4.402	3.855	4.145	3.967	4.450	4.679	4.731	4.943	4.664	4.327	4.100	3.812	3.109	3.039	2.615	2.804	2.649	2.572	2.552	2.856	3.056	3.520	4.211	5.831	6.495	5.240	6.197	10.37	19.92	38.23	74.60	105.3	163.9	328.1	750.6	957.7	253.1
300.0	864.6	1082	1128	832.5	523.5	363.5	354.9	396.4	519.6	827.3	1305	1066	1193	1606	8653	9999.9	9999.9	3785	161.6	75.78	55.63	40.93	32.64	26.22	22.17	19.60	17.15	14.78	13.71	12.68	11.30	10.43	9.403	8.443	7.791	7.133	6.839	6.444	5.948	5.410	4.889	4.334	4.199	4.598	4.417	4.962	4.899	5.450	5.208	4.771	4.434	4.064	3.795	3.215	2.918	3.223	3.053	3.172	2.991	3.433	3.417	3.755	4.014	4.697	6.862	7.511	6.704	6.344	8.233	12.03	19.76	26.47	39.19	78.51	225.2	569.2	952.6
305.0	869.7	1187	1240	907.6	592.5	447.0	467.3	554.9	706.7	960.8	1422	1581	1177	1018	2547	9999.9	9999.9	9999.9	566.0	126.7	71.14	53.65	40.35	32.11	26.53	23.03	18.94	17.16	14.45	13.73	12.21	11.29	10.17	9.413	8.245	7.826	7.519	7.337	6.359	5.864	5.319	5.004	4.764	4.702	4.662	5.157	5.124	5.643	5.830	5.324	4.636	4.461	4.091	3.618	3.545	3.692	3.537	3.782	3.918	4.281	4.491	4.724	5.021	5.298	6.295	7.687	9.022	8.701	7.776	7.305	8.807	9.702	12.60	21.13	54.22	138.9	346.0
310.0	950.4	1252	1292	972.1	664.5	552.1	594.6	711.9	877.3	1137	1446	1782	1641	1142	1241	2870	9999.9	9999.9	9999.9	9999.9	222.0	85.93	59.42	44.33	34.43	28.65	23.16	21.12	17.71	16.46	14.47	12.94	11.65	10.72	9.566	8.427	8.178	7.594	7.220	6.534	5.983	5.510	5.303	5.390	5.336	5.602	5.566	6.126	6.070	5.429	4.954	5.043	4.417	3.996	4.084	4.332	4.341	4.362	4.669	4.798	5.045	5.536	6.221	6.651	7.011	7.865	8.541	9.320	9.633	8.989	8.407	7.596	7.308	9.216	16.21	34.70	81.22
315.0	979.2	1307	1353	1010	725.6	626.5	686.5	819.3	976.8	1239	1528	1715	1805	1583	1096	1188	2729	4979	9999.9	9999.9	3850	248.0	93.85	60.58	47.30	37.25	29.37	25.01	21.98	19.49	17.26	15.15	13.08	12.31	10.89	9.579	8.445	8.131	7.601	7.008	6.520	6.389	6.053	6.053	5.935	6.123	6.061	6.726	6.356	5.969	5.381	5.765	4.941	4.713	4.478	4.723	4.836	5.222	5.501	5.423	5.773	6.124	6.697	7.126	7.399	8.333	8.835	9.023	8.990	9.465	9.714	9.345	7.966	7.092	7.987	11.90	22.02
320.0	1106	1473	1513	1097	779.6	682.6	737.8	890.6	1059	1331	1622	1798	1791	1768	1314	882.5	1133	1503	8672	9999.9	9999.9	3285	180.1	90.24	58.44	46.20	36.01	29.69	25.58	22.79	20.39	16.87	14.03	13.37	11.64	10.53	9.785	8.417	8.360	7.891	6.927	7.030	6.549	6.338	6.581	6.931	6.700	7.402	7.063	6.262	6.170	6.067	5.508	5.225	4.818	5.086	4.894	5.746	5.660	5.883	6.531	6.621	7.061	7.682	7.908	8.604	9.114	9.223	9.539	9.426	9.437	10.30	9.965	8.208	6.626	6.717	8.959
325.0	1268	1765	1909	1360	927.9	757.5	786.6	941.7	1113	1380	1689	1867	1822	1702	1541	933.1	790.1	699.8	2270	9999.9	9999.9	9999.9	471.8	142.5	83.43	59.99	43.89	35.66	29.90	26.21	22.35	19.13	16.04	14.56	12.46	11.27	10.52	9.647	8.674	8.606	7.333	7.193	7.030	7.033	6.856	7.769	7.679	8.182	8.367	7.392	6.679	6.606	5.915	5.509	5.029	5.354	5.285	6.003	6.069	6.322	6.507	7.000	7.434	8.327	8.305	8.839	9.152	9.897	9.844	8.937	9.936	9.066	10.32	9.809	8.208	6.710	6.265
330.0	1445	2157	2477	1985	1335	945.2	887.7	1004	1170	1446	1749	1938	1902	1711	1499	1191	837.5	554.9	784.6	2592	9999.9	9999.9	9999.9	9999.9	224.6	91.13	62.90	47.54	37.73	31.90	26.94	22.49	18.36	16.46	13.90	12.22	11.61	10.33	9.263	8.610	7.917	7.618	7.301	7.378	7.549	8.588	8.646	9.724	10.22	8.901	8.253	8.650	7.507	6.886	6.035	5.857	6.328	6.245	6.201	6.343	6.892	7.205	7.841	8.497	9.024	9.130	9.747	10.00	10.04	9.893	10.01	9.384	9.602	9.182	9.108	8.235	7.774
335.0	1605	2399	2951	2541	1778	1205	1008	1069	1226	1488	1767	1974	1975	1774	1486	1194	1053	649.8	502.6	851.5	2480	4563	9999.9	9999.9	9999.9	266.5	96.58	67.76	50.76	40.03	33.88	26.99	22.34	18.38	16.27	13.98	12.45	11.81	10.39	9.282	8.451	8.399	7.989	8.215	8.222	9.475	9.931	10.84	11.51	10.65	10.08	10.11	9.395	8.655	7.474	6.751	6.800	6.722	7.306	7.061	7.314	7.646	8.249	8.896	9.066	9.872	10.24	10.67	10.49	10.66	10.19	9.975	9.713	9.012	8.706	7.813	7.951
340.0	1611	2562	3144	2774	1991	1357	1064	1134	1265	1509	1776	1947	1967	1793	1497	1162	1050	810.0	497.2	488.5	813.5	1285	7797	9999.9	9999.9	3056	200.1	90.89	65.50	49.18	39.13	30.78	26.03	21.05	18.54	15.09	13.59	12.38	11.18	9.795	9.494	8.708	8.264	8.558	9.240	9.924	10.37	11.84	11.90	11.14	10.83	11.24	10.27	8.967	7.968	7.653	7.437	7.006	7.446	7.285	7.472	7.799	8.465	8.961	9.510	9.864	10.33	10.82	10.60	10.41	10.54	10.41	9.620	9.022	8.703	8.169	7.457
345.0	1584	2482	3193	2850	2081	1421	1123	1147	1286	1495	1724	1895	1902	1755	1474	1154	964.8	876.8	609.4	446.0	468.3	548.9	2038	9999.9	9999.9	9999.9	2571	145.0	82.97	62.23	45.21	36.44	28.36	23.49	19.39	16.35	14.23	12.68	11.53	10.18	9.149	8.892	8.484	8.420	8.903	9.530	10.48	12.03	11.93	11.03	10.96	11.20	10.56	9.104	8.237	7.445	7.737	7.118	7.504	7.242	7.479	8.228	8.612	8.955	9.074	9.335	9.963	10.21	10.12	10.68	10.17	10.69	9.475	9.247	8.974	8.055	7.224
350.0	1469	2338	3002	2795	2136	1498	1204	1193	1305	1466	1670	1793	1798	1681	1449	1169	961.6	828.0	759.9	600.1	476.3	454.4	752.4	2583	9999.9	9999.9	9999.9	9999.9	223.1	90.40	62.45	44.73	33.97	27.21	21.89	17.85	15.48	13.74	11.97	10.68	9.388	9.079	8.840	8.370	9.027	9.095	9.752	11.21	11.65	11.05	10.64	11.33	10.64	9.665	8.429	7.681	8.077	7.694	7.597	7.605	7.690	8.203	8.475	8.572	9.035	8.855	9.456	9.469	9.404	10.02	9.719	9.979	9.141	9.191	9.086	8.172	7.669
355.0	1368	2097	2728	2647	2089	1535	1257	1235	1324	1465	1593	1702	1705	1603	1399	1172	982.9	836.7	753.1	752.8	605.6	490.9	506.0	859.5	2479	4058	9999.9	9999.9	9999.9	275.3	93.04	63.53	45.24	33.08	26.20	20.79	17.56	15.47	13.30	11.67	10.17	9.468	8.959	8.667	8.762	9.266	9.368	10.95	11.03	10.45	10.16	11.41	10.50	9.440	8.443	7.798	7.759	7.597	7.648	7.575	7.721	8.392	7.804	8.562	8.402	8.534	9.222	9.017	9.290	9.383	9.005	9.485	8.779	9.063	8.365	7.963	7.622
360.0	1266	2021	2508	2420	1979	1521	1275	1279	1329	1435	1553	1617	1627	1542	1372	1166	996.9	865.6	772.9	761.7	734.0	552.4	485.2	498.4	808.9	1162	6412	9999.9	9999.9	9999.9	222.7	84.89	58.95	41.65	31.70	24.08	19.66	17.22	14.75	12.63	11.03	10.61	9.187	8.943	9.155	9.426	9.615	10.73	10.67	9.792	9.863	10.93	9.844	9.244	8.676	7.911	7.589	7.646	7.837	8.323	8.033	8.132	7.838	8.408	8.442	8.188	8.901	8.790	9.137	9.051	8.769	9.040	8.560	8.807	8.084	7.988	7.828
365.0	1172	1832	2278	2288	1941	1522	1294	1294	1356	1435	1531	1559	1554	1477	1340	1161	1027	908.3	823.1	769.9	783.8	692.6	539.7	461.0	468.4	517.6	1691	9999.9	9999.9	9999.9	2699	161.0	79.01	53.93	37.88	28.15	23.00	18.95	16.10	14.04	11.73	10.59	9.803	9.026	9.184	9.410	9.595	10.31	10.24	9.687	9.426	10.50	9.896	9.085	8.437	7.705	7.976	7.847	8.179	8.008	8.214	8.053	8.348	8.361	8.721	8.502	8.722	8.556	8.494	8.676	8.764	8.965	8.587	8.664	8.324	8.107	7.495
370.0	1101	1647	2082	2121	1863	1517	1311	1327	1369	1452	1506	1512	1487	1416	1307	1164	1057	965.1	898.8	840.0	812.8	804.5	709.3	544.7	456.4	423.4	622.4	2491	9918	9999.9	9999.9	9999.9	218.9	83.40	54.02	38.22	28.86	23.00	18.77	16.05	13.45	12.26	10.90	10.22	9.514	9.676	9.623	10.32	10.34	9.584	9.257	10.40	9.719	9.235	8.601	7.974	8.299	8.071	8.016	8.198	8.285	8.273	8.260	8.368	8.436	8.318	8.154	8.420	8.102	8.338	8.531	8.427	8.556	8.207	8.054	7.885	7.576
375.0	1025	1471	1836	1931	1783	1491	1357	1323	1368	1424	1473	1468	1431	1365	1263	1145	1063	1001	944.9	893.1	850.1	811.5	811.0	683.5	519.1	446.0	417.2	778.3	2411	3659	9999.9	9999.9	9999.9	265.3	83.67	53.42	37.87	29.49	22.80	19.12	15.89	13.23	12.25	11.03	10.27	10.33	9.242	9.911	10.27	9.278	9.013	10.11	9.347	9.368	8.635	8.465	8.250	8.037	8.498	8.095	8.242	8.384	8.326	8.529	8.017	8.007	8.269	7.988	7.856	8.063	7.986	8.098	7.882	7.843	7.537	7.255	7.799
380.0	1014	1429	1734	1815	1682	1492	1355	1318	1340	1406	1427	1414	1393	1333	1232	1130	1057	1015	968.2	924.8	880.6	826.6	807.7	771.6	601.0	490.6	407.8	424.5	755.9	1028	5745	9999.9	9999.9	9999.9	206.0	72.69	49.13	36.93	27.51	21.38	18.06	15.10	13.13	11.62	10.80	10.50	10.01	9.902	9.841	9.248	8.806	10.17	9.697	9.406	8.931	8.297	8.140	8.106	8.253	8.323	8.176	8.558	8.178	8.105	8.175	8.019	7.796	7.721	7.799	8.077	8.023	7.497	7.813	8.017	7.623	7.318	7.883
385.0	993.0	1349	1621	1714	1628	1432	1341	1310	1336	1397	1432	1394	1370	1304	1210	1122	1058	1013	978.8	954.1	912.5	864.5	818.2	797.7	706.0	554.8	448.3	386.4	414.4	442.6	1515	9971	9999.9	9999.9	2292	142.6	63.55	46.18	33.19	24.94	20.19	16.17	14.86	12.89	11.62	11.35	10.34	10.55	9.857	9.104	8.890	9.937	9.488	9.531	8.932	8.279	8.848	7.789	8.064	8.313	8.294	8.473	8.381	8.293	8.045	7.993	7.517	7.647	7.362	8.078	7.466	7.530	7.540	7.552	7.523	7.342	7.744
390.0	915.2	1271	1541	1648	1588	1442	1352	1338	1372	1410	1446	1426	1380	1319	1223	1124	1059	1029	1004	982.6	955.1	922.9	879.4	831.4	784.2	697.4	553.8	454.0	403.4	359.1	558.0	2455	8396	9999.9	9999.9	9503	183.7	69.41	44.94	33.07	24.65	19.18	16.81	14.49	13.04	11.93	10.85	11.01	10.20	9.277	8.879	9.830	9.476	9.127	8.865	8.545	8.651	8.332	8.206	8.047	8.042	8.447	7.990	8.040	8.128	8.122	7.797	7.657	7.567	7.696	7.641	7.590	7.595	7.954	7.700	7.577	7.683
395.0	867.3	1199	1470	1583	1564	1486	1410	1392	1438	1493	1534	1526	1480	1407	1298	1163	1085	1051	1034	1024	1014	1005	967.6	915.5	851.4	816.7	713.7	572.8	487.5	411.6	393.9	761.4	2043	3267	9999.9	9999.9	9999.9	229.2	70.02	46.92	33.01	24.64	19.97	16.78	13.99	13.47	11.93	11.70	10.61	9.670	9.072	10.06	9.700	9.491	8.580	8.926	8.772	8.697	8.719	8.806	8.256	8.714	8.298	8.304	8.271	8.479	8.243	8.162	7.611	7.835	7.590	7.903	7.639	7.931	7.784	7.935	7.619
400.0	861.7	1175	1438	1562	1548	1511	1465	1473	1523	1607	1661	1654	1613	1531	1388	1215	1123	1075	1062	1067	1065	1061	1042	999.0	930.4	878.3	831.1	697.7	574.7	484.0	404.1	414.1	642.8	894.1	4552	9999.9	9999.9	9999.9	183.6	61.47	41.19	29.75	22.83	18.54	15.38	14.25	12.55	12.05	11.12	9.901	9.088	9.652	9.677	9.679	8.975	9.038	9.119	9.055	9.181	8.592	8.678	8.757	8.355	8.249	8.535	8.276	8.609	8.224	8.136	8.226	7.940	7.746	7.887	7.979	7.652	7.804	8.019
405.0	851.7	1149	1413	1523	1555	1539	1517	1545	1618	1716	1825	1816	1767	1667	1493	1285	1152	1101	1096	1097	1113	1118	1107	1077	1011	944.3	891.2	816.2	671.0	550.5	452.3	369.6	350.5	362.9	1176	7467	9999.9	9999.9	2109	132.7	51.75	35.68	27.91	21.16	17.62	15.95	13.15	12.71	11.17	10.39	9.604	10.01	10.04	9.529	8.726	9.303	9.432	9.159	9.286	8.959	8.761	8.715	8.455	8.805	8.854	8.459	8.611	8.700	8.368	8.307	8.482	8.431	7.781	8.338	8.139	7.723	7.690
410.0	841.6	1138	1360	1515	1561	1555	1594	1629	1724	1857	1964	1984	1925	1802	1596	1344	1179	1121	1112	1127	1145	1168	1170	1149	1089	1021	945.4	882.7	793.4	648.1	517.2	404.5	316.1	261.6	407.8	1812	6682	9999.9	9999.9	9057	168.2	55.54	36.56	27.39	21.60	17.94	14.78	13.59	12.07	10.62	9.758	10.24	10.34	9.901	9.188	9.410	9.614	9.347	9.211	8.966	8.915	9.216	8.858	9.052	8.964	8.628	8.899	8.854	8.547	8.463	8.737	8.733	8.447	8.572	8.289	7.631	7.617
415.0	819.1	1089	1320	1469	1551	1580	1610	1678	1775	1899	2039	2043	1980	1837	1621	1341	1168	1101	1096	1111	1141	1166	1187	1169	1126	1060	977.8	897.0	840.1	737.7	580.0	440.8	337.4	259.1	245.0	524.5	1595	2892	9999.9	9999.9	9999.9	213.0	56.00	35.11	27.42	21.87	17.06	14.85	12.57	10.93	10.11	10.86	10.65	10.23	9.448	9.657	9.888	9.426	9.298	9.087	9.400	9.123	9.154	9.036	9.377	8.740	9.085	9.079	8.581	8.646	8.607	8.786	8.404	8.563	8.040	7.406	7.667
420.0	763.5	1060	1270	1432	1516	1564	1600	1672	1761	1900	2019	2044	1981	1832	1609	1323	1145	1072	1073	1083	1114	1145	1171	1159	1121	1059	985.3	902.4	832.0	769.2	631.3	468.0	351.9	269.2	215.0	243.8	458.7	745.7	3847	9999.9	9999.9	9999.9	166.5	48.32	33.06	25.71	19.09	16.36	13.98	12.11	10.60	11.00	10.84	10.34	9.506	9.835	10.16	9.667	9.541	9.394	9.723	9.472	9.289	9.091	8.830	8.948	8.995	8.664	9.037	8.570	8.547	8.686	8.484	8.389	7.757	7.447	7.413
425.0	733.7	1025	1248	1392	1473	1539	1609	1667	1760	1883	2002	2032	1952	1820	1581	1307	1122	1047	1041	1056	1084	1117	1139	1141	1100	1052	974.6	904.8	822.6	754.7	661.3	496.6	370.2	279.4	216.9	187.6	208.4	255.2	956.3	5942	9999.9	9999.9	1987	112.0	43.48	31.03	22.85	18.48	15.40	12.48	11.19	11.16	10.92	10.70	10.19	10.26	10.44	9.872	9.969	9.355	9.364	9.323	9.293	9.125	9.009	9.080	8.877	8.850	8.611	8.729	8.196	8.252	8.337	8.410	7.557	7.192	7.373
430.0	884.6	986.6	1192	1346	1468	1545	1618	1696	1765	1870	1988	2012	1934	1782	1553	1274	1096	1015	1011	1019	1041	1075	1100	1103	1075	1027	957.9	889.8	817.8	736.2	652.4	533.6	399.8	298.8	232.6	184.3	158.6	147.4	291.2	1418	5933	9999.9	9999.9	8461	152.0	49.28	30.42	23.71	18.00	14.17	12.38	12.52	11.67	11.12	10.69	10.79	10.67	10.40	10.15	9.972	9.793	9.540	9.330	9.119	8.959	8.938	9.179	8.656	8.373	8.525	8.191	8.218	7.908	7.937	7.532	7.048	7.014
435.0	1467	986.7	1146	1316	1457	1560	1644	1701	1791	1858	1961	1977	1886	1741	1512	1239	1063	991.2	978.9	981.2	995.8	1022	1052	1054	1035	993.4	923.8	870.9	802.9	724.6	630.5	535.4	438.3	327.3	249.6	196.9	157.0	129.4	144.8	386.3	1390	2749	9999.9	9999.9	9999.9	196.1	49.11	31.01	23.26	17.66	14.56	13.95	12.70	11.84	11.50	11.32	11.64	11.33	11.00	9.882	10.13	9.669	9.764	9.327	8.973	9.102	8.460	8.739	8.289	8.364	8.164	8.045	7.722	8.071	7.303	7.045	7.114
440.0	2172	1161	1125	1278	1444	1556	1675	1718	1755	1812	1902	1911	1836	1695	1462	1203	1031	958.2	941.2	939.6	958.0	976.3	1005	1010	988.3	951.9	896.7	841.6	784.3	708.3	615.8	524.5	445.2	350.2	264.0	206.6	164.5	131.7	115.1	155.2	372.4	685.3	3776	9999.9	9999.9	9999.9	143.3	43.24	28.24	20.77	16.78	15.45	14.07	12.46	12.10	12.19	12.01	11.53	11.20	10.56	10.28	9.962	9.521	9.355	9.273	8.675	8.505	8.481	8.046	8.004	8.056	7.538	7.614	7.503	6.901	7.026	6.810
445.0	2524	1823	1100	1260	1407	1541	1666	1695	1733	1755	1825	1826	1740	1610	1393	1158	992.4	920.5	899.6	895.7	904.0	922.5	945.8	956.7	938.3	903.9	855.7	814.2	757.8	688.8	604.4	510.0	432.4	364.2	280.2	215.4	172.5	137.0	111.7	105.2	144.4	212.9	922.5	6086	9999.9	9999.9	1669	108.1	37.08	24.68	18.71	17.53	14.75	13.34	12.35	12.22	12.58	11.96	11.37	10.85	10.12	10.03	9.310	9.151	9.308	8.748	8.298	8.153	8.232	8.032	7.741	7.376	7.292	7.464	6.622	6.559	6.397
450.0	1787	4023	1643	1204	1352	1488	1617	1636	1620	1626	1671	1675	1590	1466	1277	1066	919.8	849.8	834.5	826.2	824.6	837.1	853.9	867.5	851.0	826.3	788.0	752.0	706.6	650.5	577.1	486.5	410.3	351.8	299.3	231.0	180.5	143.2	116.1	97.75	94.93	103.5	261.0	1436	6005	9999.9	9999.9	7481	130.4	40.03	25.30	21.88	17.82	15.01	13.95	12.89	13.29	12.45	12.11	11.47	10.60	9.947	9.645	9.228	8.892	8.350	8.247	8.190	7.693	7.554	7.539	7.049	7.143	6.826	6.426	6.104	6.406
455.0	902.0	4757	4276	1211	1276	1406	1528	1557	1508	1490	1508	1514	1433	1322	1148	969.5	831.2	772.0	750.9	743.1	734.2	742.3	754.4	768.8	759.7	736.8	708.7	677.8	645.2	596.7	539.1	461.1	389.0	326.5	289.2	245.9	189.5	147.6	119.9	99.12	84.13	76.80	107.8	367.8	1392	2782	9999.9	9999.9	9999.9	148.8	39.56	28.03	21.30	17.61	15.43	13.92	13.57	13.12	12.67	11.22	10.47	10.18	9.034	8.715	8.459	8.021	7.737	7.607	7.439	7.446	7.090	7.050	6.543	6.361	6.355	6.212	6.098
460.0	608.1	3318	7380	1806	1196	1343	1438	1478	1412	1389	1396	1389	1322	1213	1051	888.7	771.5	719.3	693.7	678.0	667.7	680.4	681.4	695.4	688.8	672.8	647.3	624.5	595.8	555.6	503.6	436.7	371.3	313.4	271.5	242.9	199.7	152.8	122.1	99.93	82.76	71.80	71.68	128.3	355.9	679.7	3420	9999.9	9999.9	9194	120.6	38.57	26.03	20.75	17.35	15.61	14.26	13.60	12.65	11.43	10.68	9.885	9.397	8.522	8.397	7.767	7.444	7.027	6.949	6.754	6.685	6.536	6.312	5.792	5.694	5.920	5.923
465.0	547.4	1683	8474	4096	1146	1273	1367	1378	1310	1270	1288	1267	1213	1114	974.8	814.8	712.1	665.4	640.0	624.0	609.2	615.2	623.6	631.0	629.1	610.9	590.7	569.7	547.5	515.9	468.9	410.2	353.0	299.5	256.5	228.4	204.1	158.9	124.4	100.6	84.02	70.81	63.46	73.57	122.7	197.6	825.9	5208	9999.9	9999.9	1344	105.2	35.20	25.15	19.94	17.85	15.78	14.42	12.76	11.73	10.88	9.863	9.539	8.686	8.413	7.688	7.152	6.845	6.567	6.376	6.582	6.313	5.999	5.885	5.328	5.575	5.340
470.0	493.0	873.1	5174	8861	2171	1165	1233	1250	1186	1139	1144	1117	1063	975.3	849.5	723.8	633.1	588.0	565.6	547.7	534.0	532.1	542.0	547.5	546.2	530.5	517.8	498.8	485.4	458.7	419.4	372.5	323.4	275.6	238.7	207.4	186.8	161.6	128.3	101.0	83.34	70.76	61.68	59.00	67.69	84.11	224.7	1224	5331	9999.9	9999.9	7041	131.4	39.38	25.17	20.59	18.12	15.45	13.74	12.11	10.85	9.992	9.565	8.829	8.150	7.777	6.988	6.612	6.509	5.970	6.015	5.858	5.794	5.488	5.079	5.080	4.875
475.0	409.7	608.8	1829	9908	5274	1136	1110	1095	1043	996.8	991.1	957.2	908.7	847.0	731.8	630.0	551.1	513.9	490.5	472.6	455.4	455.2	460.8	466.0	465.5	454.7	442.4	430.3	420.5	402.8	373.1	330.8	290.0	251.7	219.5	190.1	166.5	149.5	131.0	100.5	82.46	68.35	59.18	53.57	51.01	52.51	82.71	306.4	1225	2553	9999.9	9999.9	9999.9	169.8	35.55	24.13	20.22	16.72	14.52	11.77	10.23	9.585	8.421	7.955	7.518	7.318	6.645	6.108	5.999	5.312	5.295	5.329	4.968	4.935	4.591	4.508	4.159
480.0	387.4	536.7	894.8	6203	9999.9	1951	1027	1005	947.6	898.5	887.3	872.1	818.6	759.1	654.3	558.1	498.0	457.2	445.5	427.5	405.9	405.9	409.6	415.8	413.7	405.5	392.9	386.9	380.3	362.3	340.2	304.5	267.8	234.1	203.2	177.3	154.7	135.8	125.7	106.2	81.47	66.61	58.21	51.67	46.42	43.43	47.97	98.18	303.6	605.8	2914	9999.9	9999.9	9999.9	132.1	30.02	23.64	18.29	15.44	12.71	10.90	9.309	8.658	7.775	7.369	6.977	6.566	6.121	5.870	5.108	4.811	4.992	4.769	4.515	4.121	4.258	3.895
485.0	340.1	506.8	628.9	2715	9999.9	4167	945.0	931.5	869.1	826.1	808.8	790.5	743.6	680.4	592.4	513.7	451.8	420.8	405.0	389.5	372.3	365.1	370.8	375.2	372.0	366.4	358.1	351.7	347.9	332.2	311.0	282.7	250.9	220.2	193.0	170.4	147.9	128.0	116.4	108.1	84.73	67.26	57.89	50.91	45.27	41.00	40.02	49.78	95.20	163.4	689.6	3920	9999.9	9999.9	1617	92.39	30.34	21.96	17.44	13.78	11.58	9.937	8.841	8.022	7.628	7.147	6.471	5.995	5.885	5.340	4.511	4.558	4.449	4.350	4.239	3.970	3.672
490.0	317.1	469.9	548.3	1102	7220	9999.9	1992	848.4	784.2	739.8	725.2	709.2	658.3	603.4	524.9	453.7	404.8	375.6	357.0	345.4	327.6	322.2	325.8	329.8	330.2	322.0	314.4	311.2	307.6	294.7	280.5	253.9	225.8	200.8	178.2	157.4	137.4	119.6	106.8	100.2	87.18	70.61	57.52	50.17	44.72	40.58	37.70	37.44	46.26	60.59	178.8	913.5	4371	9999.9	9999.9	7284	141.8	37.00	22.25	16.61	13.45	11.24	9.694	8.663	7.961	6.968	6.445	5.934	5.638	5.189	4.558	4.422	4.370	4.244	4.131	3.734	3.489
495.0	263.0	393.4	499.2	651.6	2406	9999.9	7545	833.8	693.7	651.6	636.8	623.5	571.5	522.7	455.3	396.3	355.2	330.3	314.0	297.5	285.2	277.6	281.1	283.2	286.5	282.8	273.2	272.2	266.3	257.1	245.2	223.3	201.7	181.0	162.6	144.8	126.8	111.7	97.81	88.27	81.21	73.43	59.46	48.76	45.01	40.44	36.86	34.14	34.14	35.17	61.93	227.4	1003	2429	9999.9	9999.9	9999.9	195.2	31.87	21.78	16.50	13.17	10.53	8.830	7.821	6.985	6.556	5.858	5.557	4.989	4.643	4.318	4.144	4.075	3.787	3.346	3.307
500.0	228.4	327.9	483.4	529.6	976.7	7804	9999.9	1561	628.7	581.2	570.3	559.6	509.4	467.3	407.2	354.9	315.9	294.3	281.0	269.4	251.7	247.9	250.3	251.9	253.4	248.3	244.0	242.1	237.4	230.7	221.5	201.7	184.3	165.3	149.4	132.1	117.1	103.8	91.54	81.86	73.75	70.72	61.46	49.94	44.36	40.14	35.53	32.94	30.54	28.74	34.08	72.50	246.3	573.0	2812	9999.9	9999.9	9999.9	157.0	29.48	19.68	14.73	11.61	9.237	7.775	7.209	6.313	5.448	5.229	5.050	4.502	3.968	4.005	3.498	3.431	3.035	3.238
505.0	197.5	289.0	464.4	466.7	595.2	3374	9999.9	3029	589.6	529.8	512.6	505.8	460.7	422.3	362.7	320.7	285.5	266.9	252.3	239.8	226.8	221.8	222.4	223.7	226.6	220.2	218.5	215.3	214.6	208.2	201.4	182.0	168.9	149.8	137.6	122.7	108.7	97.81	86.33	75.70	67.13	63.75	61.94	51.56	44.01	39.38	35.52	31.78	28.91	26.27	26.51	35.79	75.10	151.5	663.1	3536	9999.9	9999.9	1838	110.7	25.53	16.64	12.88	10.25	8.609	7.026	6.216	5.588	5.117	4.826	4.291	3.853	3.819	3.401	3.182	3.032	3.082
510.0	161.1	239.0	375.1	441.0	460.1	1154	8955	9999.9	1396	468.2	446.3	435.5	397.8	362.0	314.5	272.8	245.2	228.6	217.2	206.0	194.6	189.7	191.4	191.5	192.0	187.9	187.2	184.2	183.8	180.3	172.7	159.2	145.5	130.9	119.8	107.9	97.76	86.47	78.41	69.74	61.81	56.33	55.22	51.13	43.74	37.55	33.73	30.97	27.78	24.94	23.61	25.33	34.15	52.14	169.4	821.6	3755	9999.9	9999.9	8039	131.9	25.94	16.35	12.22	9.455	7.943	6.551	5.549	4.980	4.479	4.012	3.594	3.489	3.108	2.870	2.836	2.732
515.0	144.1	203.6	289.0	397.2	391.1	565.8	2825	9999.9	7310	471.9	383.7	375.9	339.8	307.0	268.2	233.2	211.7	195.0	185.7	173.8	164.6	160.1	159.5	160.9	161.8	159.6	157.9	155.5	154.5	154.0	147.1	136.3	125.9	113.7	104.6	93.43	85.28	77.03	69.16	62.86	55.60	50.66	47.61	47.26	43.96	36.90	31.90	29.09	26.66	23.21	21.67	21.54	22.54	26.94	54.56	202.1	861.0	2352	9999.9	9999.9	9999.9	205.6	27.35	15.93	11.30	8.921	7.349	6.155	4.964	4.295	3.999	3.431	3.433	3.459	2.815	2.576	2.682
520.0	130.7	171.7	232.6	334.7	383.8	392.1	948.4	9834	9999.9	1135	348.0	336.4	300.0	274.4	236.8	205.8	183.8	170.6	160.0	153.0	142.2	141.2	140.5	140.9	141.2	140.6	137.3	136.8	135.6	136.1	129.7	120.4	111.4	102.1	92.78	84.53	76.13	70.63	63.24	57.30	51.15	46.50	42.73	41.71	42.09	36.76	31.04	27.74	24.85	22.70	20.24	19.37	19.14	19.99	26.66	61.04	210.1	550.0	2524	9999.9	9999.9	9999.9	167.4	24.07	14.15	10.44	7.948	6.520	5.064	4.340	4.187	3.640	3.231	2.989	2.681	2.480	2.216
525.0	118.6	161.9	199.7	278.0	368.3	332.6	478.6	4215	9999.9	4480	331.8	298.1	274.3	244.2	209.5	182.8	165.2	150.4	143.9	135.3	128.4	124.6	124.2	126.2	124.7	125.0	122.5	122.6	121.2	119.5	115.6	108.7	99.70	91.37	84.67	76.32	68.89	64.51	58.53	53.56	47.11	43.33	39.41	37.94	37.81	36.67	30.55	26.20	23.75	21.28	19.59	18.88	17.67	17.85	19.28	27.58	62.58	140.7	589.5	2884	9999.9	9999.9	9225	120.2	19.92	12.47	9.267	7.262	5.717	4.948	4.109	3.856	3.198	2.803	2.594	2.320	2.083
530.0	91.11	133.8	172.5	220.2	312.9	310.6	318.0	1237	9999.9	9999.9	1026	264.6	239.1	212.0	180.1	156.3	139.8	130.1	123.1	116.8	109.2	107.0	105.7	106.3	105.8	106.4	103.9	102.9	102.9	103.1	99.24	93.15	85.63	78.81	71.89	65.90	60.41	55.36	51.69	47.01	42.29	38.64	35.69	32.61	31.94	33.45	30.42	25.40	21.83	19.66	17.72	16.85	15.99	15.77	15.77	17.83	26.65	45.09	147.1	665.8	2961	9999.9	9999.9	8349	694.9	22.62	12.22	8.723	6.546	5.260	4.426	3.763	3.335	2.806	2.409	2.241	2.155
535.0	64.30	124.4	146.2	177.9	239.7	293.7	260.6	461.7	3162	9999.9	7518	277.8	203.1	178.7	154.2	133.0	119.6	110.0	103.2	98.07	91.83	90.76	88.79	89.46	88.15	88.50	86.49	85.86	86.37	85.95	82.17	77.67	71.80	66.75	60.92	56.21	52.81	47.27	44.60	40.30	37.22	34.48	31.39	29.50	27.80	27.44	28.15	25.51	20.21	17.63	16.26	14.81	14.32	13.78	13.90	14.44	16.29	21.19	44.66	161.3	676.0	2285	6883	9999.9	9999.9	218.2	22.91	11.86	7.903	6.254	5.421	3.902	3.660	2.918	2.508	2.366	1.996
540.0	49.80	102.8	129.1	159.3	183.7	267.9	228.5	266.8	902.7	9999.9	9999.9	747.0	183.4	158.0	136.7	117.2	105.0	96.59	89.66	85.18	80.18	78.07	77.66	78.09	77.03	76.76	75.86	73.08	74.87	73.98	71.80	67.44	62.84	58.38	53.12	48.96	46.27	41.59	38.85	36.71	33.33	30.54	28.94	26.38	24.97	23.62	24.34	24.11	20.04	15.91	14.51	13.81	13.20	12.54	12.59	13.25	13.17	14.25	20.35	46.57	162.9	526.1	1649	9267	9999.9	9999.9	179.2	19.02	10.07	7.259	5.872	4.009	3.636	2.904	2.301	2.131	1.837
545.0	59.76	71.55	115.7	132.4	153.2	230.4	231.8	208.0	356.0	4525	9999.9	3530	175.8	141.6	121.2	100.8	91.84	84.98	79.20	73.78	69.74	68.56	67.96	65.53	67.07	65.85	65.25	64.52	65.27	64.36	62.31	59.15	55.17	51.20	47.07	43.70	40.61	36.87	33.93	32.53	29.68	27.34	25.53	24.26	22.56	21.80	20.80	21.33	19.65	15.52	13.42	12.73	12.12	11.79	11.38	11.88	11.77	11.41	13.27	19.49	46.50	129.2	385.3	2317	9999.9	9999.9	9008	33.55	14.97	8.840	6.243	4.672	3.957	2.944	2.720	2.088	1.959
550.0	50.27	69.78	97.59	114.7	123.9	162.4	216.8	172.5	203.2	1229	9999.9	9999.9	643.7	127.1	102.6	87.34	76.67	71.14	66.57	61.63	58.27	56.34	56.92	54.83	56.11	54.64	53.67	53.98	54.06	54.00	51.44	48.93	45.58	42.44	38.97	37.00	34.23	31.30	29.20	26.89	24.87	23.10	21.66	20.62	19.32	18.65	17.62	17.24	17.69	15.49	12.82	11.17	10.48	10.42	10.08	10.04	10.41	10.12	10.05	11.57	18.15	37.28	96.44	530.9	2522	8492	9999.9	8493	758.5	18.86	8.576	5.792	4.571	3.335	2.619	2.024	1.807
555.0	44.38	64.40	95.33	98.86	96.31	120.2	178.2	170.8	144.5	382.8	3109	9999.9	5787	133.1	89.20	72.43	64.62	58.99	56.37	51.56	48.10	45.36	45.38	44.99	44.55	43.04	42.95	43.25	43.45	42.48	41.03	38.91	36.46	34.23	31.96	30.05	29.08	26.12	24.05	22.71	20.45	19.00	17.68	17.40	16.57	15.78	14.61	13.49	13.94	13.64	12.20	10.10	9.075	8.822	8.475	8.470	8.560	8.822	8.433	8.544	9.900	14.83	28.43	126.9	572.2	1916	4282	9999.9	9999.9	235.0	18.72	8.152	5.403	3.896	2.736	2.212	1.758
560.0	38.67	68.74	94.66	87.03	86.41	98.76	131.9	174.6	124.7	178.3	828.4	9999.9	9999.9	423.7	80.29	64.80	56.27	51.19	47.44	43.32	40.32	39.36	37.71	39.41	37.38	36.99	36.59	36.89	36.49	36.35	35.37	32.71	30.70	28.69	27.60	25.91	24.47	22.77	20.07	19.49	17.89	16.04	15.22	14.93	14.47	13.69	12.56	11.97	11.74	11.71	11.27	9.739	8.227	7.555	7.410	7.477	7.468	7.448	7.502	7.397	7.358	8.669	12.18	35.33	135.2	437.5	998.9	5408	9999.9	9999.9	194.1	13.71	6.426	4.281	3.272	2.326	2.007
565.0	29.55	66.31	97.65	82.62	74.98	80.60	97.30	164.7	120.8	123.0	280.2	4701	9999.9	1137	80.67	59.61	49.68	44.75	40.91	37.52	34.84	34.23	33.02	33.25	31.62	31.26	31.33	30.81	31.86	31.25	29.75	28.15	26.45	25.42	24.05	22.82	20.70	19.32	17.33	16.67	15.14	14.03	13.49	12.93	12.19	12.08	11.35	10.54	9.869	9.471	10.18	9.258	7.588	7.017	6.906	6.582	6.283	6.129	6.752	6.660	6.279	6.692	7.749	13.47	36.37	105.2	233.4	1292	6775	9999.9	7178	32.94	10.08	5.225	3.645	2.439	2.085
570.0	24.48	66.54	98.81	81.38	66.03	63.83	71.75	120.5	129.9	101.2	141.8	1240	9999.9	9999.9	373.1	55.30	43.97	37.48	34.22	31.97	29.46	27.96	27.64	27.19	26.16	25.24	25.77	24.60	25.71	25.02	24.95	23.88	21.55	20.07	19.01	18.16	16.68	15.82	14.78	14.04	12.79	11.96	11.15	11.08	10.77	10.35	9.647	8.788	8.488	7.995	7.964	8.002	7.351	6.282	6.001	5.771	5.483	5.410	5.364	5.684	5.593	5.497	5.764	7.264	13.08	28.92	58.06	296.4	1607	5476	9999.9	7428	749.8	14.75	5.172	3.061	2.242
575.0	25.52	68.48	92.87	79.70	60.93	53.12	59.22	75.18	137.8	98.06	95.86	351.2	3140	9999.9	4165	63.11	40.60	33.18	29.75	26.44	24.92	24.01	23.02	22.22	21.61	20.84	20.97	19.58	20.69	20.35	19.89	18.67	18.03	16.43	15.10	14.55	13.60	13.05	11.82	11.25	10.25	9.996	9.172	8.976	8.724	8.612	7.886	7.565	7.148	6.596	6.320	6.413	6.582	5.743	5.314	5.016	4.731	4.728	4.687	4.795	4.918	4.879	4.915	4.954	6.491	10.68	17.13	70.96	363.6	1230	3025	9999.9	9999.9	240.4	14.08	4.689	3.004
580.0	29.68	69.11	88.23	75.64	62.71	46.21	54.30	60.27	116.1	108.8	86.64	146.2	814.4	9999.9	9999.9	106.9	38.22	30.90	26.41	23.84	22.98	20.46	19.54	19.18	19.16	18.07	17.44	16.84	17.80	18.01	17.25	16.37	15.38	14.24	13.06	12.50	11.36	11.44	10.32	9.527	9.305	8.400	8.030	7.866	7.660	7.614	6.932	6.799	5.926	5.653	5.504	5.376	5.720	5.422	5.213	4.605	4.537	4.280	4.024	4.179	3.969	4.439	4.332	4.287	4.737	5.853	7.626	19.86	85.56	279.7	689.9	3577	9999.9	7333	193.1	8.998	3.890
585.0	29.62	66.21	95.54	73.30	54.76	44.04	48.23	53.72	89.67	119.6	84.72	94.99	243.3	4629	9999.9	742.4	41.07	29.33	24.81	21.89	20.03	18.48	17.46	16.96	16.14	15.47	15.88	15.59	15.45	15.55	14.70	13.85	13.32	12.04	11.80	11.02	10.21	9.669	9.031	8.203	8.026	7.372	6.987	7.015	6.335	6.841	6.166	6.114	5.314	5.050	4.591	4.740	4.782	5.157	4.820	4.161	3.963	4.012	3.538	3.670	3.672	3.708	4.124	4.043	4.068	4.253	4.993	7.846	22.41	66.54	159.3	827.5	4390	9999.9	2068	31.58	6.680
590.0	16.80	53.22	82.28	64.25	45.86	37.89	42.21	44.60	63.86	115.5	90.92	81.08	107.7	1192	9999.9	9222	213.9	29.54	23.28	19.61	17.60	16.47	15.13	14.96	14.35	13.30	12.98	13.03	12.57	12.73	12.61	11.99	10.99	10.52	9.604	9.061	8.392	8.116	7.833	6.946	6.801	6.429	6.411	5.908	5.800	5.644	5.331	5.270	4.701	4.364	4.102	3.734	3.960	4.225	4.423	4.117	3.732	3.491	3.177	3.169	3.098	3.264	3.391	3.694	3.561	3.404	3.603	4.389	7.710	17.85	39.07	188.7	1015	3878	7320	4969	682.1
595.0	-0.132	43.79	67.40	63.62	42.07	33.67	35.83	39.62	50.83	88.18	112.9	75.27	73.22	309.9	3050	9999.9	2578	35.97	22.11	18.09	16.05	14.26	13.28	13.16	12.19	11.61	10.94	11.02	10.58	10.94	10.01	10.09	9.350	8.943	8.069	7.973	6.977	6.831	6.658	5.741	5.691	5.492	5.482	5.116	4.902	4.884	4.607	4.301	4.125	3.739	3.437	3.291	3.060	3.267	3.573	3.973	3.342	3.015	2.741	2.782	2.586	2.578	2.769	2.908	3.079	3.157	2.836	3.003	3.674	6.168	11.06	44.47	229.1	868.1	1985	6273	6503
600.0	-0.937	46.02	65.74	59.23	37.89	31.10	30.84	37.19	44.75	67.23	114.3	78.48	64.26	111.5	764.0	9999.9	8745	73.96	23.20	17.89	15.23	12.68	11.97	11.48	11.05	10.38	10.18	9.858	9.615	9.334	8.929	8.258	8.088	7.708	6.956	7.069	6.301	5.789	5.539	5.139	4.662	4.616	4.590	4.395	4.414	4.301	4.065	3.960	3.616	3.368	3.249	3.051	2.637	2.736	3.020	3.378	3.477	2.813	2.324	2.526	2.412	2.323	2.272	2.604	2.647	2.885	2.509	2.297	2.524	3.064	4.188	11.74	53.38	196.3	449.4	2033	7111
605.0	0.618	40.48	59.47	47.29	35.06	30.45	32.54	36.29	45.27	62.93	106.6	91.66	66.97	69.83	209.5	4475	9999.9	534.2	25.36	17.75	14.37	11.84	11.57	9.998	9.606	9.405	9.200	8.530	8.516	8.516	7.835	7.315	7.371	6.839	6.242	6.293	5.735	5.238	4.786	4.759	4.179	4.399	4.209	3.909	3.911	3.918	3.570	3.615	3.335	3.140	2.900	2.619	2.508	2.419	2.404	2.940	3.104	2.732	2.350	2.212	2.185	1.993	2.033	2.244	2.141	2.425	2.314	2.094	2.041	2.187	2.352	4.071	13.84	46.07	103.1	465.1	2642
610.0	3.090	37.57	53.19	46.32	33.49	29.01	33.19	42.04	52.52	68.91	97.45	116.2	80.03	66.43	89.53	1148	9999.9	6870	57.81	18.96	13.58	11.95	10.63	9.440	8.748	8.266	7.995	7.375	7.308	7.504	7.439	6.763	6.226	5.651	5.398	5.326	5.084	4.637	4.307	4.051	3.718	3.787	3.590	3.349	3.368	3.443	3.287	3.090	2.995	2.775	2.654	2.362	2.102	2.020	1.978	2.315	2.675	2.658	2.235	2.043	1.988	1.899	1.742	1.807	1.863	1.989	2.086	1.997	1.917	1.618	1.730	2.052	4.412	11.72	24.53	105.7	603.4
615.0	-3.854	30.32	46.01	39.95	30.86	24.35	33.54	39.76	53.88	67.88	83.70	119.2	93.05	66.91	62.27	291.2	3107	9999.9	1689	24.21	14.58	11.81	10.33	8.964	7.631	7.465	7.308	6.859	6.917	6.436	6.328	5.922	5.259	4.537	4.880	4.493	4.084	4.187	4.106	3.550	3.216	3.284	2.970	2.918	2.995	3.122	2.972	2.738	2.592	2.409	2.129	2.002	1.855	1.782	1.760	1.832	2.076	2.361	2.252	1.935	1.702	1.835	1.598	1.646	1.624	1.659	1.626	1.817	1.917	1.345	1.363	1.398	1.838	3.610	6.521	24.72	135.8
620.0	-5.713	26.27	37.75	34.02	25.93	25.43	30.56	36.20	49.33	62.21	79.14	107.0	100.4	66.11	54.00	97.18	781.1	9576	4697	51.73	15.71	11.68	10.01	8.627	7.535	7.038	6.717	6.461	6.664	5.979	5.829	5.168	4.861	4.493	4.190	3.743	4.051	3.674	3.476	3.274	3.117	2.746	2.877	2.492	2.572	2.755	2.626	2.728	2.261	2.120	1.959	1.752	1.700	1.562	1.625	1.574	1.767	1.731	2.109	1.754	1.879	1.775	1.728	1.555	1.491	1.466	1.380	1.602	1.778	1.322	1.283	1.193	1.091	1.636	2.382	6.515	31.51
625.0	-16.77	25.13	35.96	31.23	23.83	22.91	26.98	41.35	46.48	59.92	77.26	91.68	106.9	68.38	50.75	51.11	208.7	4424	9999.9	377.4	18.45	12.52	9.629	8.572	7.490	6.583	6.106	6.023	5.989	5.743	5.559	5.123	4.394	4.034	3.720	3.569	3.566	3.278	3.153	2.996	2.646	2.412	2.442	2.289	2.418	2.723	2.507	2.383	2.035	1.961	1.748	1.684	1.617	1.481	1.526	1.558	1.510	1.685	1.988	1.733	1.752	1.634	1.378	1.417	1.358	1.364	1.330	1.171	1.276	1.338	1.230	1.013	0.890	1.020	1.242	2.116	7.890
630.0	-13.77	19.88	36.57	33.68	25.26	21.54	26.91	37.77	46.89	58.89	73.66	82.39	98.17	75.55	49.52	40.78	75.12	1142	9174	5087	43.76	13.94	10.05	8.247	7.138	6.293	5.582	5.465	5.588	5.283	4.927	4.519	4.173	4.058	3.521	3.337	3.295	3.017	2.816	2.762	2.581	2.382	2.341	2.271	2.187	2.165	2.189	2.124	2.024	1.849	1.640	1.467	1.401	1.380	1.419	1.403	1.376	1.380	1.434	1.482	1.491	1.345	1.241	1.254	1.255	1.155	1.107	1.013	0.943	0.962	1.134	0.837	0.750	0.724	0.711	1.001	2.168
635.0	-15.87	12.53	33.73	30.42	19.22	20.95	27.88	36.28	44.62	57.10	68.50	79.43	83.80	84.67	49.97	36.91	42.04	276.9	3024	9999.9	467.9	17.69	10.34	8.786	7.009	6.267	5.545	5.164	5.018	4.894	4.287	4.181	4.055	3.926	3.302	3.107	2.893	2.647	2.656	2.434	2.383	2.045	2.044	1.940	1.869	1.974	2.035	1.851	1.890	1.626	1.449	1.384	1.202	1.311	1.197	1.277	1.329	1.090	1.288	1.245	1.155	1.259	1.072	1.157	0.990	0.963	0.845	0.739	0.662	0.734	0.795	0.750	0.573	0.545	0.427	0.486	0.653
640.0	-25.61	12.72	33.81	29.87	22.87	17.27	27.06	33.68	44.87	56.73	67.98	78.04	77.96	84.34	54.22	36.60	34.20	81.36	763.2	8975	3579	36.72	11.39	9.335	7.358	6.333	5.686	4.746	4.734	4.725	3.840	4.068	3.769	3.458	3.377	2.979	2.805	2.319	2.578	2.349	2.147	1.977	1.795	1.864	1.869	1.901	1.772	1.880	1.691	1.631	1.413	1.387	0.989	1.170	1.184	1.084	1.242	1.090	1.095	1.041	1.035	1.146	1.067	1.099	0.924	0.864	0.784	0.690	0.716	0.722	0.702	0.634	0.482	0.440	0.356	0.376	0.209
645.0	-22.04	19.30	39.00	30.76	18.02	17.26	25.86	33.70	43.58	51.86	67.63	74.95	71.80	78.30	60.92	36.72	32.10	37.33	191.5	4452	8607	261.6	14.27	9.356	7.931	6.508	5.282	4.461	4.804	4.839	4.124	4.038	3.658	3.157	3.107	3.100	2.567	2.413	2.372	2.220	2.122	1.927	1.698	1.747	2.073	2.020	1.732	1.652	1.641	1.567	1.413	1.276	1.042	1.056	1.129	1.033	1.075	0.932	1.051	0.900	0.878	1.024	0.956	0.931	0.867	0.748	0.781	0.711	0.568	0.417	0.526	0.499	0.532	0.355	0.383	0.217	0.062
650.0	-19.54	16.50	45.33	29.00	20.96	16.87	25.64	31.91	42.37	52.13	62.10	73.36	69.16	70.89	66.13	38.12	31.48	25.94	58.40	1347	9870	1893	18.25	9.900	7.772	6.302	5.478	5.011	4.691	4.232	3.778	4.134	3.205	3.407	2.889	3.050	2.595	2.188	2.132	2.263	1.837	1.757	1.659	1.583	1.749	1.825	1.696	1.694	1.887	1.485	1.363	1.234	1.012	1.080	1.055	1.019	1.089	1.015	1.007	0.951	0.874	0.863	0.849	0.842	0.783	0.784	0.681	0.518	0.393	0.414	0.427	0.204	0.295	0.244	0.372	0.268	0.030
