Sample:	'1
File name:	G2025080807袁家屋子南闸入杏花河.FD3
Run date:	'13:31:10, 08/11/2025
Operator:	Administrator
Comment:	'

Instrument
Model:	F-2700 FL Spectrophotometer
Serial number:	23B8-004
ROM Version:	4J14000 07

Instrument parameters
Measurement type:	3-D scan
Data mode:	Fluorescence
EX  Start WL:	220.0 nm
EX  End WL:	600.0 nm
EX Sampling interval:	5.0 nm
EM  Start WL:	230.0 nm
EM  End WL:	650.0 nm
EM Sampling interval:	5.0 nm
Scan speed:	12000 nm/min
EX Slit:	5.0 nm
EM Slit:	5.0 nm
PMT Voltage:	700 V
Response:	Auto 
Corrected spectra:	Off
Contour interval:	50.000

Peak integration
Integration method:	Rectangular
Sensitivity:	1
Threshold:	1.000

Peaks
No.	ApexEX/EM(nm)	Height(Data)
1	225.0/625.0	31.23
2	225.0/635.0	34.52
3	230.0/345.0	833.6
4	230.0/500.0	320.2
5	230.0/585.0	38.11
6	235.0/355.0	827.8
7	235.0/510.0	290.2
8	240.0/265.0	392.6
9	240.0/395.0	779.8
10	240.0/525.0	270.2
11	245.0/270.0	408.7
12	245.0/405.0	780.9
13	245.0/535.0	231.2
14	250.0/275.0	514.2
15	250.0/435.0	755.0
16	250.0/550.0	188.6
17	250.0/640.0	19.94
18	255.0/280.0	622.8
19	255.0/560.0	159.8
20	260.0/285.0	594.6
21	260.0/575.0	133.6
22	265.0/585.0	113.5
23	270.0/300.0	935.1
24	270.0/380.0	777.8
25	270.0/410.0	810.8
26	270.0/600.0	96.55
27	275.0/305.0	1033
28	275.0/610.0	79.66
29	280.0/310.0	890.5
30	280.0/340.0	853.8
31	280.0/625.0	67.66
32	285.0/320.0	960.3
33	285.0/635.0	54.25
34	290.0/325.0	962.8
35	295.0/330.0	838.3
36	300.0/335.0	879.8
37	305.0/345.0	800.7
38	315.0/355.0	611.2
39	320.0/365.0	531.6
40	325.0/370.0	488.3
41	330.0/375.0	488.1
42	335.0/380.0	487.3
43	340.0/390.0	464.3
44	345.0/395.0	455.8
45	350.0/405.0	475.0
46	355.0/410.0	471.3
47	495.0/270.0	2.146
48	505.0/275.0	2.958
49	510.0/280.0	3.295
50	520.0/285.0	3.752
51	530.0/290.0	3.219
52	540.0/295.0	4.310
53	545.0/300.0	4.366
54	555.0/305.0	4.323
55	560.0/310.0	4.155
56	575.0/315.0	4.352
57	580.0/320.0	4.794
58	585.0/325.0	4.751

Data points
	220.0	225.0	230.0	235.0	240.0	245.0	250.0	255.0	260.0	265.0	270.0	275.0	280.0	285.0	290.0	295.0	300.0	305.0	310.0	315.0	320.0	325.0	330.0	335.0	340.0	345.0	350.0	355.0	360.0	365.0	370.0	375.0	380.0	385.0	390.0	395.0	400.0	405.0	410.0	415.0	420.0	425.0	430.0	435.0	440.0	445.0	450.0	455.0	460.0	465.0	470.0	475.0	480.0	485.0	490.0	495.0	500.0	505.0	510.0	515.0	520.0	525.0	530.0	535.0	540.0	545.0	550.0	555.0	560.0	565.0	570.0	575.0	580.0	585.0	590.0	595.0	600.0
230.0	43.02	775.3	2732	1016	58.77	7.461	6.801	5.475	4.255	4.393	3.699	3.857	2.892	2.830	2.242	1.991	1.669	1.518	1.392	1.323	1.101	1.201	0.933	0.925	0.834	0.783	0.764	0.779	0.633	0.646	0.669	0.534	0.603	0.543	0.484	0.433	0.448	0.417	0.424	0.449	0.411	0.472	0.429	0.366	0.348	0.360	0.832	4.025	8.141	6.874	3.100	0.730	0.292	0.298	0.254	0.241	0.272	0.263	0.234	0.269	0.270	0.268	0.262	0.280	0.247	0.250	0.236	0.234	0.253	0.266	0.262	0.272	0.246	0.220	0.247	0.268	0.256
235.0	87.69	217.7	1459	3160	727.6	95.82	8.421	6.130	6.284	4.770	4.077	4.385	3.761	2.841	2.376	2.141	1.914	1.418	1.484	1.280	1.170	1.214	0.950	0.833	1.030	0.777	0.708	0.717	0.614	0.718	0.701	0.535	0.572	0.564	0.435	0.443	0.452	0.400	0.434	0.389	0.372	0.438	0.374	0.475	0.444	0.372	0.442	1.249	2.855	5.330	8.834	10.64	5.789	1.514	0.310	0.285	0.271	0.290	0.283	0.301	0.262	0.241	0.275	0.298	0.266	0.232	0.270	0.221	0.289	0.279	0.256	0.264	0.179	0.223	0.225	0.245	0.221
240.0	139.1	147.6	418.3	2265	3619	592.2	51.99	8.884	6.910	4.875	4.526	4.262	3.395	3.086	2.339	2.077	1.968	1.475	1.574	1.254	1.249	1.031	0.955	0.981	0.828	0.784	0.757	0.819	0.742	0.794	0.629	0.572	0.533	0.621	0.556	0.486	0.479	0.447	0.449	0.409	0.455	0.409	0.410	0.388	0.516	0.546	0.527	0.565	0.821	1.589	4.045	11.05	15.51	12.25	5.194	1.033	0.322	0.264	0.292	0.275	0.229	0.255	0.212	0.250	0.293	0.302	0.238	0.219	0.218	0.267	0.301	0.244	0.231	0.290	0.224	0.218	0.249
245.0	96.16	202.7	173.0	699.5	3293	3937	459.1	26.62	7.921	6.377	6.029	4.554	3.489	3.721	2.657	2.614	1.825	1.519	1.289	1.270	1.193	1.087	0.990	1.064	0.847	0.794	0.829	0.696	0.694	0.608	0.671	0.627	0.524	0.535	0.650	0.503	0.444	0.356	0.458	0.326	0.423	0.354	0.371	0.343	0.445	0.509	0.694	0.746	0.573	0.569	1.135	3.418	8.811	16.37	19.06	12.11	3.679	0.646	0.313	0.308	0.251	0.273	0.246	0.268	0.362	0.229	0.299	0.230	0.247	0.241	0.294	0.232	0.270	0.255	0.224	0.208	0.277
250.0	55.45	134.8	249.7	275.1	978.0	3139	4375	1614	111.7	8.684	6.362	5.068	4.091	3.977	2.936	2.471	2.250	1.714	1.487	1.472	1.158	1.144	1.095	0.932	0.894	0.858	0.868	0.857	0.807	0.679	0.642	0.742	0.563	0.525	0.599	0.493	0.481	0.419	0.436	0.448	0.469	0.342	0.349	0.340	0.405	0.424	0.462	0.735	0.929	0.882	0.752	1.107	2.271	4.895	9.331	15.36	20.23	19.58	12.06	4.161	0.753	0.318	0.301	0.283	0.279	0.276	0.277	0.254	0.251	0.256	0.261	0.239	0.270	0.235	0.257	0.256	0.282
255.0	47.95	53.35	160.6	350.4	347.4	767.9	2736	6692	2340	138.6	9.697	7.481	5.110	4.525	3.301	2.783	2.196	1.876	1.640	1.514	1.348	1.136	1.088	1.103	0.910	0.969	0.962	0.824	0.788	0.807	0.657	0.693	0.540	0.541	0.499	0.477	0.545	0.466	0.524	0.480	0.427	0.442	0.353	0.335	0.442	0.453	0.337	0.399	0.551	0.715	1.333	1.601	1.166	1.394	2.346	3.827	6.173	14.01	28.03	30.90	19.35	5.278	0.586	0.322	0.361	0.294	0.292	0.314	0.277	0.264	0.354	0.257	0.298	0.255	0.301	0.272	0.348
260.0	34.97	32.83	63.62	278.3	391.9	255.0	758.3	4527	7773	1850	73.46	9.552	6.891	4.799	4.062	3.280	2.992	1.965	1.985	1.624	1.427	1.152	1.080	1.149	0.968	0.870	0.981	0.915	0.782	0.733	0.620	0.680	0.609	0.551	0.632	0.462	0.538	0.504	0.417	0.465	0.431	0.501	0.436	0.340	0.391	0.391	0.422	0.393	0.350	0.400	0.742	1.604	2.040	1.358	0.899	1.103	1.714	3.699	10.12	23.15	36.55	30.54	16.24	2.916	0.479	0.346	0.285	0.264	0.282	0.330	0.361	0.246	0.267	0.268	0.229	0.326	0.404
265.0	41.09	27.82	34.76	114.2	392.6	319.0	222.8	1360	6618	8055	298.2	27.33	8.392	6.423	4.497	3.512	2.761	2.314	2.053	1.843	1.513	1.639	1.247	1.184	0.977	1.061	0.951	1.000	0.845	0.879	0.742	0.681	0.631	0.597	0.579	0.505	0.463	0.509	0.570	0.447	0.389	0.476	0.485	0.375	0.370	0.342	0.407	0.338	0.260	0.354	0.387	0.870	1.599	2.066	1.850	0.980	0.690	1.199	2.688	6.175	15.43	32.53	45.44	27.95	10.97	1.203	0.375	0.379	0.264	0.339	0.383	0.297	0.365	0.303	0.251	0.365	0.312
270.0	42.22	33.83	28.29	43.84	170.5	408.7	348.1	370.6	1916	6262	8545	2918	82.79	8.284	6.285	4.524	3.632	2.724	2.147	2.042	1.616	1.674	1.326	1.253	1.169	1.042	0.939	0.937	0.930	0.899	0.812	0.745	0.688	0.659	0.606	0.529	0.516	0.536	0.467	0.448	0.418	0.421	0.449	0.402	0.376	0.353	0.456	0.353	0.353	0.271	0.290	0.481	0.676	1.121	1.668	2.146	2.059	1.250	1.097	1.716	3.810	8.677	17.57	27.96	31.22	35.45	18.87	8.659	1.395	0.420	0.363	0.324	0.361	0.283	0.288	0.339	0.347
275.0	57.07	48.47	35.02	31.51	63.51	171.4	514.2	386.7	481.0	1503	4912	9999.9	1622	90.10	10.01	6.128	4.362	3.229	2.635	2.026	1.910	1.615	1.442	1.301	1.264	1.201	1.121	0.994	0.920	0.945	0.851	0.736	0.790	0.694	0.704	0.639	0.547	0.529	0.588	0.420	0.425	0.422	0.515	0.437	0.488	0.453	0.420	0.362	0.456	0.341	0.327	0.414	0.447	0.553	0.715	1.004	1.915	2.958	2.606	1.300	1.296	2.243	4.339	6.688	8.370	18.19	39.76	55.98	29.13	10.24	1.048	0.382	0.321	0.362	0.312	0.283	0.305
280.0	72.52	67.49	47.62	39.58	43.48	74.07	286.2	622.8	304.9	389.7	1323	7285	9999.9	1216	45.69	7.597	5.556	4.069	2.827	2.744	2.097	1.927	1.542	1.498	1.385	1.157	1.169	1.195	1.028	0.905	0.966	0.849	0.814	0.781	0.639	0.583	0.665	0.567	0.524	0.483	0.496	0.465	0.526	0.456	0.590	0.462	0.499	0.492	0.508	0.361	0.328	0.398	0.429	0.404	0.477	0.533	0.883	1.672	3.295	3.080	1.804	0.972	1.393	1.886	2.293	4.625	12.00	30.59	52.45	54.86	23.53	5.120	0.588	0.388	0.391	0.309	0.307
285.0	85.73	88.96	72.03	53.99	45.35	52.58	119.6	486.2	594.6	211.0	374.3	2136	9564	9472	795.5	19.13	7.026	5.348	3.195	2.906	2.389	1.929	1.757	1.837	1.471	1.249	1.302	1.105	0.998	0.942	0.822	0.811	0.855	0.822	0.759	0.631	0.649	0.693	0.672	0.532	0.447	0.500	0.503	0.430	0.574	0.573	0.482	0.524	0.599	0.428	0.382	0.506	0.376	0.400	0.413	0.400	0.528	0.735	1.572	2.579	3.752	2.243	1.109	0.908	0.965	1.458	3.209	7.748	17.76	39.78	59.25	33.76	16.45	2.160	0.445	0.370	0.377
290.0	124.0	137.5	119.7	83.44	62.91	57.15	80.45	197.2	543.2	540.9	265.6	603.2	2714	7605	8652	2319	46.21	7.258	4.909	3.628	2.676	2.193	1.948	1.763	1.474	1.508	1.405	1.207	1.002	1.008	0.947	0.861	0.940	0.939	0.775	0.777	0.783	0.678	0.616	0.522	0.572	0.569	0.614	0.479	0.538	0.594	0.562	0.590	0.644	0.546	0.503	0.512	0.428	0.447	0.527	0.505	0.558	0.603	0.784	1.125	2.007	2.736	3.219	2.665	1.528	1.017	1.386	2.364	4.653	9.976	19.34	29.22	42.10	39.59	22.24	11.66	2.254
295.0	163.9	181.4	179.8	124.5	84.82	77.73	88.95	125.9	252.8	622.7	728.5	351.6	764.1	1858	4913	9999.9	889.6	49.83	7.308	5.270	3.950	2.958	2.413	1.960	1.620	1.723	1.484	1.300	1.157	1.092	1.028	0.912	0.959	0.998	0.871	0.821	0.706	0.707	0.641	0.665	0.682	0.588	0.532	0.495	0.635	0.659	0.659	0.751	0.722	0.639	0.516	0.570	0.520	0.534	0.488	0.554	0.638	0.563	0.738	0.876	0.937	1.331	1.802	3.070	4.310	3.013	1.592	1.422	1.911	3.015	5.047	7.251	10.40	15.66	34.15	57.70	34.42
300.0	170.6	215.3	216.0	148.7	101.7	100.5	108.7	131.1	188.7	378.0	935.1	602.8	373.5	559.2	1333	6786	7292	696.8	24.25	6.457	4.469	3.433	2.491	2.135	2.083	1.749	1.368	1.282	1.351	1.142	1.100	1.089	0.873	0.893	0.806	0.804	0.632	0.833	0.647	0.711	0.696	0.725	0.520	0.534	0.608	0.747	0.723	0.840	0.901	0.706	0.621	0.718	0.667	0.589	0.596	0.556	0.673	0.616	0.682	0.776	0.836	0.966	1.291	1.942	3.076	4.366	3.774	2.133	1.479	1.635	2.087	2.460	3.081	4.192	9.439	25.77	48.34
305.0	180.8	250.6	246.4	174.5	124.3	123.1	136.1	160.9	212.7	307.4	682.7	1033	475.3	313.5	421.2	1951	7878	6171	97.15	12.00	6.060	4.016	3.335	2.378	2.182	1.831	1.697	1.551	1.391	1.030	1.215	1.111	0.940	0.935	0.921	0.844	0.741	0.839	0.637	0.759	0.626	0.698	0.602	0.647	0.699	0.746	0.799	0.907	0.949	0.699	0.666	0.788	0.687	0.699	0.649	0.633	0.644	0.802	0.857	0.909	0.941	1.049	1.239	1.697	1.947	2.735	4.029	4.323	2.984	1.839	1.603	1.537	1.673	1.853	2.645	6.466	14.91
310.0	222.5	289.2	295.6	212.2	157.6	142.6	162.0	200.0	258.7	333.1	490.1	818.7	890.5	447.0	272.0	543.4	2263	5964	6440	1698	31.40	6.123	4.182	3.259	2.669	2.118	1.958	1.753	1.403	1.259	1.193	1.154	0.986	0.953	0.947	0.911	0.789	0.813	0.672	0.741	0.722	0.685	0.714	0.767	0.812	0.785	0.878	1.021	1.010	0.863	0.842	0.893	0.794	0.825	0.741	0.781	0.877	0.947	1.125	1.035	1.182	1.220	1.427	1.672	1.765	2.144	2.607	3.406	4.155	3.892	3.174	1.882	1.557	1.533	1.459	2.133	4.038
315.0	267.4	331.9	354.2	254.6	209.4	195.9	205.6	246.3	298.2	382.3	486.0	609.4	818.6	885.7	403.0	308.5	650.4	1486	4141	8349	612.3	32.30	5.977	4.224	3.355	2.668	2.136	1.876	1.499	1.498	1.234	1.205	1.157	1.098	1.054	0.871	0.826	0.797	0.815	0.800	0.694	0.653	0.757	0.795	0.772	0.940	0.984	1.143	1.105	1.014	0.939	1.055	0.965	1.022	0.846	1.031	1.037	1.079	1.191	1.184	1.299	1.524	1.550	1.799	1.875	2.284	2.329	2.396	2.858	3.125	4.333	4.352	2.847	1.862	1.620	1.476	2.025
320.0	312.2	401.3	436.3	328.4	280.3	258.3	262.0	282.3	356.8	440.7	534.8	628.2	703.1	960.3	744.3	375.7	383.3	516.3	1194	5850	5072	486.8	15.32	5.501	3.711	3.084	2.299	2.006	1.979	1.556	1.322	1.206	1.100	1.054	1.116	0.864	0.939	0.783	0.756	0.796	0.717	0.849	0.747	0.947	0.856	1.002	1.129	1.316	1.344	1.148	1.184	1.220	1.100	1.127	1.102	1.177	1.214	1.164	1.247	1.419	1.454	1.784	1.852	1.966	2.193	2.471	2.341	2.511	2.873	2.716	3.465	4.241	4.794	3.837	2.395	1.858	2.005
325.0	335.6	461.4	521.1	430.5	342.1	315.4	299.7	326.7	396.4	496.9	591.3	666.7	703.7	793.6	962.8	575.3	391.6	346.2	433.8	1767	6271	4460	71.39	8.677	4.676	3.323	2.630	2.324	1.906	1.543	1.368	1.383	1.169	1.120	0.970	1.036	1.013	0.905	0.681	0.746	0.763	0.823	0.809	0.930	1.001	1.060	1.112	1.552	1.507	1.338	1.349	1.433	1.379	1.450	1.382	1.395	1.380	1.384	1.425	1.429	1.645	1.844	2.048	2.061	2.290	2.616	2.425	2.570	2.783	2.779	3.129	3.330	4.117	4.751	3.987	2.967	2.264
330.0	381.0	539.3	648.3	560.8	452.2	389.8	357.0	362.6	441.7	547.0	642.2	725.8	744.7	747.3	826.1	838.3	580.6	368.4	305.7	551.5	1872	4737	5029	1306	22.99	5.105	3.454	2.917	2.159	1.970	1.664	1.533	1.222	1.232	1.201	1.005	0.982	1.003	0.849	0.860	0.814	0.881	0.889	1.015	1.175	1.195	1.327	1.724	1.867	1.729	1.712	1.987	1.758	1.776	1.570	1.552	1.597	1.630	1.508	1.631	1.847	1.970	2.179	2.324	2.462	2.689	2.694	2.896	2.804	3.079	3.084	3.256	3.333	3.752	4.090	4.226	3.833
335.0	434.4	633.3	761.5	723.0	618.0	496.3	432.1	422.5	498.4	601.5	706.4	789.4	819.2	809.8	794.2	794.5	879.8	557.8	351.5	339.0	535.8	1165	3523	6764	484.2	25.13	5.401	3.847	2.704	2.564	1.864	1.719	1.365	1.421	1.077	1.040	0.974	1.137	0.992	0.819	0.879	0.868	1.021	1.081	1.295	1.243	1.601	1.931	2.070	1.856	2.155	2.248	2.068	2.056	1.940	1.927	1.950	1.877	1.885	1.839	2.124	2.316	2.384	2.544	2.473	3.112	3.000	3.155	3.199	3.181	3.497	3.538	3.490	3.983	3.504	3.653	4.438
340.0	446.5	675.3	820.4	785.4	684.0	559.4	475.6	447.8	536.7	631.6	739.1	824.4	853.8	841.5	804.6	738.5	840.7	762.4	420.6	313.0	260.5	338.7	982.9	4939	5800	401.8	12.26	5.019	3.530	2.827	2.221	1.784	1.715	1.383	1.198	1.162	1.147	1.050	0.843	0.924	0.851	0.926	1.016	0.990	1.275	1.428	1.732	2.148	2.221	2.168	2.235	2.630	2.369	2.474	2.249	2.036	2.022	1.905	1.890	1.894	2.253	2.340	2.435	2.651	2.744	3.152	2.997	3.350	3.309	3.422	3.428	3.548	3.498	3.584	3.476	3.230	3.834
345.0	485.4	650.8	833.6	815.8	707.2	579.4	496.0	478.2	559.7	641.3	754.5	821.7	846.1	842.2	789.5	709.9	713.9	800.7	559.6	332.1	218.4	172.5	297.5	1481	5689	3656	59.53	7.603	4.133	3.214	2.428	1.854	1.608	1.384	1.324	1.205	1.062	1.130	0.861	1.006	1.034	0.947	0.892	0.988	1.365	1.341	1.809	1.928	2.301	2.242	2.188	2.816	2.527	2.709	2.382	2.252	2.176	1.969	1.952	1.938	2.226	2.318	2.602	2.607	2.890	2.934	3.018	3.264	3.423	3.242	3.218	3.665	3.382	3.854	3.574	3.460	3.566
350.0	447.9	646.0	816.9	815.8	746.8	627.2	539.1	516.9	586.9	672.0	764.1	813.5	828.1	829.0	783.4	713.2	666.4	655.8	657.0	479.3	257.6	176.4	174.8	411.8	1672	3963	4147	1099	19.88	4.457	2.937	2.292	1.705	1.445	1.299	1.185	1.093	1.122	0.918	0.954	1.026	0.957	0.922	1.119	1.240	1.326	1.582	2.025	2.245	2.182	2.367	2.820	2.538	2.691	2.304	2.213	2.323	2.096	2.149	2.235	2.244	2.427	2.788	2.668	2.985	3.253	3.076	3.304	3.297	3.459	3.350	3.525	3.704	3.682	3.501	3.543	3.510
355.0	440.6	649.1	793.8	827.8	775.8	660.6	583.5	564.7	616.1	690.9	767.0	804.1	816.8	811.6	775.0	715.2	666.6	601.2	564.3	611.2	392.4	223.9	182.2	202.5	449.5	978.3	2877	5497	432.8	21.06	4.190	3.253	2.209	1.867	1.592	1.394	0.965	1.175	0.990	0.989	0.889	0.886	0.826	0.909	1.165	1.493	1.473	1.829	2.173	1.993	2.390	2.743	2.717	2.623	2.501	2.253	2.272	2.202	2.388	2.426	2.436	2.439	2.804	2.622	2.818	3.082	3.043	3.235	3.542	3.140	3.374	3.166	3.839	3.407	3.630	3.306	3.261
360.0	446.0	619.4	768.0	804.7	751.8	669.7	615.1	593.2	639.4	708.9	776.4	800.8	796.9	788.2	762.6	708.5	659.5	597.1	522.3	556.9	524.0	300.5	212.3	179.3	197.9	288.7	798.0	4079	3622	359.6	10.03	4.052	2.562	2.087	1.637	1.650	1.173	1.234	1.178	1.006	1.109	0.873	0.997	0.950	1.240	1.314	1.568	1.850	2.055	2.139	2.243	2.869	2.511	2.667	2.533	2.405	2.456	2.326	2.435	2.332	2.581	2.547	2.692	2.844	2.969	2.986	3.098	3.126	3.257	3.204	3.221	3.513	3.396	3.524	3.641	3.402	3.324
365.0	427.7	590.3	751.5	794.6	756.8	681.2	617.8	621.0	653.1	718.4	782.3	794.4	783.5	771.9	738.0	690.0	648.5	592.7	520.5	500.7	531.6	431.0	259.7	198.2	168.9	153.2	239.4	1228	4632	3316	53.89	6.259	3.467	2.562	1.914	1.593	1.288	1.342	1.068	1.018	1.048	1.022	0.944	0.924	1.222	1.277	1.617	1.993	2.042	2.162	2.101	2.749	2.697	2.715	2.488	2.379	2.378	2.271	2.532	2.565	2.772	2.688	2.829	2.907	3.187	3.114	3.013	3.306	3.101	3.199	3.138	3.217	3.387	3.287	3.447	3.225	3.367
370.0	399.0	576.3	718.0	781.9	757.7	709.5	646.6	636.2	682.5	733.4	773.8	779.6	763.2	740.2	712.8	669.8	642.3	595.4	540.6	496.9	469.5	488.3	404.0	263.3	201.4	158.0	142.9	339.3	1382	3604	3810	977.4	17.62	3.653	2.523	1.947	1.605	1.414	1.202	1.182	1.060	0.982	0.985	1.027	1.114	1.197	1.587	1.767	2.012	2.084	2.217	2.628	2.633	2.736	2.571	2.534	2.555	2.442	2.529	2.645	2.667	2.908	2.939	3.017	3.128	3.000	2.999	3.123	3.054	3.158	3.240	3.154	3.000	3.375	3.286	3.180	3.446
375.0	402.6	545.8	694.9	770.9	763.1	713.1	681.5	657.6	700.3	746.8	774.0	771.1	746.5	717.7	693.3	657.9	633.4	597.4	555.7	518.2	468.2	445.7	488.1	395.0	260.7	196.0	156.3	169.4	373.6	888.4	2686	4867	365.7	18.40	3.824	2.434	1.845	1.621	1.240	1.106	1.015	1.088	0.951	1.149	1.133	1.238	1.468	1.815	2.103	1.920	2.180	2.368	2.612	2.883	2.739	2.519	2.570	2.485	2.434	2.892	2.640	2.892	3.059	2.952	3.073	2.874	3.202	3.186	3.100	3.170	3.252	3.318	3.120	3.044	3.102	3.257	3.235
380.0	354.8	540.9	701.1	752.7	764.6	741.7	700.7	675.1	710.8	757.1	777.8	768.4	745.2	711.1	677.7	645.5	623.1	593.2	564.4	528.7	476.2	445.8	461.0	487.3	338.2	237.0	188.6	156.5	170.9	259.4	748.8	3618	3066	292.9	8.993	3.270	2.388	1.758	1.452	1.270	1.217	1.005	1.014	1.142	1.065	1.346	1.414	1.736	1.948	1.869	2.259	2.565	2.769	2.781	2.684	2.703	2.724	2.825	2.627	2.809	2.840	3.011	2.871	3.053	2.986	3.018	3.218	3.010	3.176	3.110	3.034	2.814	3.000	3.335	2.961	3.186	3.309
385.0	340.5	547.3	710.2	745.7	766.2	759.3	707.8	697.6	725.7	749.6	763.3	768.3	731.6	692.2	655.0	623.2	612.8	588.2	564.3	535.8	499.2	456.2	441.4	484.4	440.0	292.7	223.9	178.3	146.9	136.6	224.5	1077	3760	2719	43.74	5.352	2.885	2.133	1.683	1.409	1.260	1.044	1.019	1.064	1.307	1.328	1.465	1.758	2.064	1.851	2.196	2.657	2.769	2.757	2.603	2.640	2.903	2.919	2.644	2.829	2.951	2.945	2.826	2.991	3.031	3.033	2.910	3.090	3.147	3.083	2.801	3.024	3.087	3.139	2.946	3.083	3.188
390.0	354.2	536.8	689.4	751.4	769.0	756.5	726.1	709.9	713.8	752.5	758.4	753.3	722.5	679.8	640.0	610.7	599.2	582.2	563.5	544.8	515.8	477.7	456.9	449.5	464.3	406.1	287.9	220.6	177.0	141.1	129.6	295.8	1102	2770	2899	779.9	15.12	3.462	2.424	1.685	1.346	1.166	1.210	1.072	1.261	1.370	1.471	1.847	1.951	1.849	2.185	2.622	2.818	2.741	2.701	2.881	2.806	2.838	2.799	2.870	3.082	2.885	3.037	3.101	3.017	2.958	2.982	2.999	2.914	2.946	2.956	2.925	3.206	3.037	3.102	2.917	3.167
395.0	344.0	515.9	680.1	758.5	779.8	768.3	745.9	727.3	735.8	751.2	774.7	736.6	720.5	682.6	637.1	605.8	586.4	572.7	564.2	550.3	529.9	504.4	480.9	458.7	443.6	455.8	405.6	285.7	226.9	181.7	145.1	147.6	302.8	683.1	1930	3635	306.2	17.26	3.513	2.320	1.699	1.469	1.336	1.242	1.275	1.416	1.603	1.945	1.963	1.885	2.114	2.577	2.614	2.778	2.847	2.791	2.763	3.009	2.856	2.929	3.013	2.955	3.006	3.003	2.924	3.094	3.083	3.059	2.858	3.225	2.903	3.015	2.897	2.871	2.995	3.035	2.879
400.0	365.4	535.5	674.9	770.5	773.3	772.7	747.9	754.1	754.3	755.5	778.8	753.5	725.6	687.2	641.6	605.1	580.8	567.9	556.8	550.7	536.3	517.7	503.7	483.3	454.6	449.9	469.2	368.5	277.7	223.8	178.3	140.0	144.4	207.3	536.7	2534	2529	256.3	9.324	3.156	2.127	1.757	1.506	1.165	1.304	1.428	1.564	1.963	1.853	1.738	2.205	2.653	2.724	2.686	2.756	2.873	2.943	3.088	2.920	2.985	2.822	2.940	2.925	2.966	3.077	3.056	2.868	2.760	2.928	2.917	2.915	2.921	2.878	2.657	2.972	2.979	2.943
405.0	361.3	535.7	657.3	730.7	777.3	780.9	767.4	766.0	772.2	783.4	796.0	773.0	746.7	693.1	638.2	599.2	576.9	560.8	556.3	549.2	541.0	531.1	518.9	500.2	482.4	454.0	475.0	457.3	338.7	271.4	216.3	166.8	131.5	118.9	174.1	743.2	2703	2298	39.55	5.113	2.653	1.906	1.467	1.259	1.377	1.388	1.489	1.841	1.856	2.006	2.082	2.730	2.845	2.782	2.844	2.976	2.890	2.983	3.055	3.056	2.833	2.930	2.958	2.995	2.889	2.991	2.908	2.871	2.980	3.023	2.761	2.799	2.876	2.708	2.898	2.792	2.781
410.0	351.7	511.3	664.0	732.1	774.0	777.7	773.2	772.6	770.3	788.3	810.8	782.7	745.6	698.4	641.4	593.5	558.2	552.4	548.0	541.4	541.4	535.3	530.1	523.3	501.2	475.5	461.7	471.3	433.7	334.9	261.3	205.3	156.4	122.6	109.8	217.9	776.5	2044	2283	678.1	13.84	2.604	1.822	1.494	1.475	1.506	1.575	1.908	1.990	2.023	2.042	2.675	2.691	2.910	2.824	2.886	2.931	2.995	2.891	3.107	2.939	2.908	2.975	3.072	3.016	2.995	2.816	2.965	2.828	2.996	2.834	2.782	2.944	2.713	2.800	2.839	2.748
415.0	324.0	501.5	643.8	715.5	775.3	775.2	776.3	777.7	779.8	791.1	801.2	765.6	723.6	676.8	626.8	563.5	542.1	529.8	523.5	526.0	526.2	522.4	519.4	519.2	501.7	481.9	458.5	440.9	444.9	407.8	300.8	231.3	177.3	136.1	106.9	108.6	214.7	497.2	1332	2751	282.6	15.97	2.677	1.900	1.674	1.533	1.649	1.862	2.051	1.964	2.125	2.688	2.617	2.696	2.782	2.824	2.932	3.000	2.969	3.320	3.186	3.163	3.204	2.913	3.006	2.959	2.806	2.855	2.702	2.934	2.866	2.685	2.842	2.829	2.655	2.778	2.705
420.0	316.0	477.7	613.9	711.9	762.9	764.4	769.0	768.7	776.2	767.4	778.6	749.4	714.1	657.3	599.4	552.7	519.6	499.1	507.8	504.7	504.6	509.6	508.8	503.4	492.6	477.2	454.6	430.2	417.2	423.3	341.0	245.4	187.8	145.3	112.2	90.42	94.01	141.6	352.7	1743	2275	245.9	8.707	2.441	1.801	1.595	1.657	1.769	1.984	1.784	1.927	2.721	2.522	2.880	2.812	2.873	2.862	3.146	2.796	3.008	3.033	2.921	3.085	2.913	3.180	2.810	2.994	2.722	2.653	2.973	2.738	2.574	2.780	2.606	2.677	2.624	2.731
425.0	303.5	459.0	589.9	678.1	727.6	754.8	759.4	761.7	770.9	768.5	770.1	743.4	693.0	640.4	585.8	536.8	500.5	489.0	490.5	486.5	485.5	495.2	494.2	496.3	486.2	470.7	449.5	426.9	399.9	401.5	377.5	273.9	202.1	156.1	122.0	92.05	73.18	65.98	102.4	481.0	1936	2054	37.65	4.462	2.382	1.838	1.887	1.803	1.920	1.820	2.001	2.565	2.477	2.642	2.566	2.940	2.880	3.063	3.067	2.880	2.975	2.973	3.016	2.930	2.959	2.703	2.720	2.592	2.500	2.756	2.763	2.435	2.525	2.622	2.740	2.551	2.482
430.0	396.2	448.2	573.9	678.1	720.0	726.5	744.0	762.9	773.0	762.0	763.3	729.8	683.5	629.2	569.2	518.5	483.8	462.9	464.9	464.6	469.3	474.8	480.9	483.3	479.5	464.8	450.5	430.6	404.8	380.6	370.5	325.3	236.9	175.3	137.3	107.1	79.58	59.33	52.60	128.4	523.0	1482	1851	646.9	14.15	2.824	2.182	1.991	1.937	1.979	2.077	2.535	2.597	2.471	2.681	2.763	3.074	3.025	2.960	2.908	2.869	3.128	2.938	2.912	2.990	2.729	2.840	2.679	2.589	2.681	2.633	2.515	2.528	2.515	2.634	2.504	2.401
435.0	748.1	442.6	565.2	636.7	697.2	723.9	755.0	751.3	751.3	756.7	754.7	723.5	678.3	610.8	552.8	499.1	464.0	442.2	441.4	442.0	442.3	453.4	462.1	461.1	461.2	453.1	446.5	431.2	407.9	377.4	349.5	325.3	285.7	206.3	154.9	122.5	90.86	67.91	50.06	55.45	136.3	350.9	931.9	2331	268.0	18.62	2.934	2.499	2.171	2.096	2.114	2.569	2.552	2.694	2.654	2.814	2.812	2.882	2.936	2.827	3.046	3.015	2.865	2.845	2.809	3.090	2.610	2.670	2.555	2.719	2.620	2.422	2.573	2.310	2.279	2.344	2.414
440.0	1025	554.5	565.5	636.4	691.2	719.3	731.7	750.3	738.6	742.5	738.0	702.7	658.6	590.2	538.6	480.3	447.1	432.9	423.0	427.5	423.6	433.0	442.2	444.6	446.6	442.0	434.8	419.2	399.1	376.6	338.7	306.6	291.2	234.8	166.9	131.2	100.1	73.31	54.83	43.07	53.89	96.60	239.9	1326	2136	244.0	11.89	2.924	2.482	2.146	2.099	2.552	2.596	2.593	2.594	2.865	2.962	2.860	3.094	2.779	2.951	2.799	3.054	2.927	2.932	2.865	2.654	2.631	2.614	2.549	2.540	2.601	2.398	2.407	2.480	2.435	2.361
445.0	975.1	929.2	550.3	624.2	654.9	693.4	714.5	743.2	733.9	727.2	715.6	682.6	634.9	573.0	514.4	461.2	429.3	412.3	406.8	401.1	405.6	408.9	418.8	421.5	424.1	422.6	411.6	400.7	384.9	366.2	329.4	292.9	268.2	248.2	182.8	136.6	106.1	78.79	59.27	45.68	39.13	42.10	69.88	353.5	1590	1961	188.9	6.689	2.885	2.346	2.229	2.723	2.428	2.696	2.691	2.717	2.965	2.761	3.062	2.851	2.981	2.811	2.830	2.854	2.777	2.790	2.745	2.503	2.641	2.489	2.531	2.599	2.083	2.445	2.271	2.467	2.263
450.0	609.4	1494	766.0	583.9	623.1	671.5	686.9	702.2	697.0	692.0	676.1	642.1	594.3	536.3	476.7	428.4	399.4	380.6	377.1	371.2	371.4	374.4	383.6	388.0	391.2	388.9	381.9	373.2	361.1	345.6	316.0	280.2	245.0	227.2	201.9	151.1	111.6	86.26	65.74	52.41	41.73	35.02	35.40	94.28	416.4	1262	1684	648.3	13.81	3.090	2.386	2.705	2.486	2.529	2.484	2.593	2.837	2.804	2.972	2.810	2.657	2.884	2.734	2.492	2.577	2.681	2.627	2.523	2.367	2.437	2.375	2.227	2.238	2.210	2.231	2.152	2.238
455.0	333.2	1314	1476	587.4	595.3	620.7	642.1	663.4	658.3	654.6	621.4	603.9	544.7	484.7	440.8	394.9	368.0	352.3	341.5	341.7	339.7	338.7	345.8	351.8	355.8	353.0	348.4	344.2	334.2	323.2	295.5	264.4	228.7	204.1	191.4	171.5	125.3	91.08	72.52	59.05	46.87	37.80	31.55	39.03	106.6	295.8	692.3	1887	875.1	17.58	3.072	2.829	2.581	2.607	2.407	2.371	2.784	2.823	2.875	2.508	2.496	2.758	2.851	2.438	2.471	2.529	2.450	2.478	2.210	2.245	2.381	2.199	2.192	2.108	1.920	1.889	1.930
460.0	236.9	817.4	2199	858.1	543.9	588.6	612.5	622.6	617.2	610.6	593.6	566.1	512.7	469.9	414.0	369.9	343.3	329.1	316.8	315.1	312.9	317.2	320.1	326.1	327.5	325.6	323.5	318.8	314.6	305.2	282.0	251.9	220.3	192.4	174.1	168.1	140.9	94.65	75.96	62.00	50.97	40.95	32.92	29.36	39.62	79.26	172.3	931.6	1881	196.7	13.06	3.304	2.627	2.654	2.487	2.289	2.667	2.675	2.778	2.499	2.583	2.765	2.637	2.406	2.537	2.158	2.191	2.399	2.057	2.114	2.177	2.075	2.226	1.839	1.841	1.807	1.892
465.0	228.1	486.3	2117	1535	550.6	564.7	580.2	603.0	581.2	573.3	569.7	539.2	484.4	442.4	389.1	346.9	321.0	304.7	295.8	291.2	290.5	293.3	296.2	300.2	300.7	303.1	301.7	300.3	294.3	284.8	267.7	239.5	209.6	183.2	161.4	153.6	142.1	106.9	80.26	64.16	53.56	43.62	34.78	28.72	26.14	32.09	50.02	239.1	1174	1521	175.4	8.819	3.182	2.692	2.518	2.472	2.454	2.482	2.499	2.349	2.502	2.499	2.481	2.432	2.166	2.202	2.038	2.207	1.943	2.047	2.088	1.929	1.905	1.705	1.709	1.676	1.890
470.0	211.2	326.5	1175	2482	885.9	506.8	535.8	548.0	536.7	533.2	516.6	493.6	447.1	402.9	355.4	314.8	290.1	276.2	268.1	259.5	258.8	258.5	262.5	268.2	269.4	269.2	270.1	270.1	263.8	257.7	242.6	220.7	194.2	171.9	150.5	135.5	127.8	115.7	87.45	66.82	53.73	45.88	37.28	30.65	25.39	23.26	23.96	63.79	297.7	866.0	1208	593.5	15.04	3.196	2.564	2.574	2.461	2.529	2.377	2.236	2.324	2.339	2.371	2.158	2.103	2.091	2.052	2.057	1.781	1.918	1.801	1.749	1.720	1.771	1.753	1.761	1.621
475.0	220.0	273.6	540.0	2087	1988	505.6	478.2	503.4	488.0	479.5	467.9	446.7	399.3	360.8	322.3	285.8	261.3	247.3	237.9	232.4	229.5	229.2	231.0	235.4	238.8	235.9	237.2	239.4	235.4	230.6	217.5	198.9	180.0	157.3	141.2	123.6	110.5	106.3	96.26	72.25	55.90	47.54	39.49	32.22	27.24	22.96	19.49	25.70	75.60	201.4	444.6	1236	698.5	20.99	2.959	2.637	2.551	2.300	2.389	2.300	2.240	2.194	2.145	2.112	1.946	1.951	1.827	1.946	1.861	1.644	1.635	1.511	1.610	1.653	1.530	1.614	1.565
480.0	217.7	249.5	356.5	1218	2771	686.5	451.0	465.7	459.4	454.9	439.8	409.1	377.2	338.3	297.3	265.0	241.9	229.3	221.1	211.0	209.1	211.7	211.3	215.3	217.2	218.3	217.9	219.4	216.2	212.6	201.2	187.0	170.0	148.6	132.0	116.6	103.7	94.57	94.30	80.35	58.32	47.69	40.83	34.32	28.51	24.15	19.32	18.08	26.91	52.97	109.2	551.0	1372	232.2	14.42	2.772	2.626	2.333	2.310	2.208	2.144	2.006	2.019	1.921	1.924	1.866	1.605	1.735	1.722	1.480	1.566	1.617	1.484	1.451	1.576	1.362	1.438
485.0	194.8	272.6	311.2	626.5	2680	1483	435.5	434.4	435.7	432.2	414.6	389.6	358.8	318.2	277.8	248.5	224.1	215.4	206.0	197.7	194.8	193.6	197.9	195.2	200.6	201.0	200.0	202.8	201.0	198.9	188.7	176.3	158.3	141.7	125.0	112.0	100.1	87.43	86.80	83.70	65.16	49.58	41.41	35.58	29.96	25.62	20.46	17.20	16.92	20.80	31.62	140.8	778.1	1248	197.0	8.496	2.878	2.467	2.236	2.187	2.027	1.914	1.930	1.808	1.775	1.821	1.725	1.771	1.654	1.548	1.527	1.625	1.525	1.526	1.410	1.377	1.311
490.0	161.6	276.2	297.3	385.5	1437	2569	722.9	399.0	402.5	395.6	391.2	356.2	330.2	290.6	259.4	229.4	207.7	196.3	188.0	182.4	178.4	172.6	176.6	179.7	180.6	180.9	181.8	182.5	183.1	182.4	174.1	162.3	146.9	132.0	118.1	105.5	94.42	83.14	77.14	75.87	70.92	55.40	43.14	36.60	31.61	26.19	22.39	19.04	15.65	14.59	15.20	38.21	194.3	633.0	1051	579.2	16.93	3.118	2.301	2.044	1.927	1.860	1.736	1.684	1.780	1.702	1.629	1.651	1.555	1.463	1.471	1.483	1.453	1.411	1.264	1.361	1.320
495.0	142.2	235.8	310.3	307.7	579.9	2271	1780	393.5	368.2	364.8	359.0	329.2	298.7	266.4	238.1	205.7	190.0	177.7	169.8	165.7	158.6	155.6	156.6	160.8	159.2	160.2	162.0	162.4	164.9	162.3	157.8	147.5	132.9	121.4	109.6	97.12	88.52	79.38	70.37	65.40	65.90	61.71	46.51	37.56	32.62	27.32	24.13	20.10	16.78	14.20	12.24	15.96	49.36	147.3	384.0	1156	766.8	23.94	2.862	2.159	1.919	1.775	1.642	1.736	1.568	1.548	1.638	1.465	1.439	1.251	1.371	1.344	1.349	1.301	1.194	1.156	1.314
500.0	115.3	199.9	320.2	282.5	350.7	1315	2725	503.9	338.1	335.9	323.1	301.4	272.4	242.5	215.2	190.2	170.9	164.2	155.6	148.3	145.0	141.9	142.2	145.3	146.5	144.7	147.6	147.1	149.1	148.3	143.3	134.0	123.2	112.2	103.3	92.83	83.94	75.29	67.28	60.83	58.74	60.12	51.17	38.48	32.06	27.52	24.13	20.90	17.71	14.46	12.13	11.57	17.79	38.38	93.31	488.7	1300	253.1	16.84	2.408	2.103	1.745	1.631	1.738	1.751	1.598	1.387	1.355	1.318	1.128	1.313	1.238	1.193	1.204	1.194	1.142	1.149
505.0	97.35	163.2	298.0	279.5	284.9	629.4	2794	1198	319.9	307.5	297.6	285.4	254.8	222.3	197.7	177.1	158.1	151.6	143.8	137.0	132.4	128.6	131.2	131.9	133.1	131.7	132.3	133.9	133.8	136.1	131.9	123.0	112.0	103.0	95.52	87.33	78.97	71.89	63.52	57.50	53.52	54.28	52.42	40.91	31.95	27.81	24.52	21.15	17.98	15.19	12.38	10.97	10.84	14.55	26.07	120.8	664.1	1160	219.8	9.398	2.410	1.695	1.697	1.698	1.488	1.516	1.419	1.383	1.332	1.275	1.155	1.159	1.237	1.179	1.060	0.982	1.122
510.0	97.82	137.7	233.5	290.2	251.7	339.7	1522	2419	523.0	273.8	266.7	253.8	226.4	199.5	175.6	156.6	142.8	133.2	127.1	122.6	117.3	114.8	115.7	115.2	116.7	115.6	116.4	118.3	118.2	118.5	116.1	108.8	99.97	92.51	85.54	77.23	71.71	63.99	57.74	52.88	48.68	45.69	46.55	44.76	34.82	27.48	23.75	20.46	17.81	15.21	12.91	11.37	9.543	9.263	11.21	31.67	162.6	537.8	869.6	486.5	16.93	2.263	1.751	1.547	1.510	1.374	1.231	1.258	1.202	1.145	1.137	1.086	1.021	1.005	1.083	0.909	0.972
515.0	97.08	122.5	164.9	279.1	250.2	237.4	559.9	2396	1462	269.3	237.1	222.8	202.6	178.0	153.8	135.0	126.6	118.0	108.9	106.1	103.7	99.54	100.6	100.6	100.5	100.2	100.7	101.8	105.4	102.8	99.32	94.94	87.75	81.31	75.55	69.16	63.21	57.31	53.05	46.77	43.78	40.42	38.61	41.37	37.73	28.62	23.14	19.23	17.34	14.70	13.20	11.46	10.04	8.575	8.087	12.37	40.42	124.2	285.9	865.2	608.6	23.54	2.047	1.668	1.477	1.147	1.217	1.166	1.076	1.114	1.050	0.964	0.969	0.954	0.969	0.904	0.780
520.0	78.90	107.1	142.5	232.9	269.8	207.6	285.8	1440	2499	358.3	213.8	204.9	185.9	163.3	138.3	127.1	113.3	105.4	100.4	94.75	91.25	89.39	89.38	90.28	89.33	88.91	91.05	92.04	92.91	93.21	90.74	85.38	79.76	74.12	67.48	62.41	57.89	52.80	48.43	43.63	40.68	36.84	34.28	36.00	36.46	30.05	23.58	19.26	16.86	14.61	12.89	11.64	10.46	9.023	7.538	7.899	13.44	31.50	68.73	350.6	933.5	249.9	15.85	1.770	1.605	1.299	1.123	1.088	1.084	0.976	1.112	0.870	0.905	0.847	0.793	0.941	0.877
525.0	73.92	96.21	129.3	191.8	270.2	199.6	207.0	636.7	2847	927.1	204.4	182.8	171.6	147.4	127.7	112.5	102.8	97.74	89.90	86.00	84.18	81.04	80.91	80.37	79.63	79.30	81.14	81.59	83.99	83.27	81.89	77.13	71.54	66.85	62.40	58.01	53.04	48.48	45.61	40.17	37.65	33.91	31.54	30.33	32.89	31.34	24.50	18.98	16.55	14.11	12.71	11.08	10.06	8.839	7.505	7.030	7.670	11.01	19.07	85.50	447.8	835.2	211.4	7.401	1.513	1.301	1.144	1.115	1.045	0.882	0.880	0.808	0.987	0.872	0.792	0.913	0.833
530.0	69.91	89.24	115.6	143.7	235.1	212.0	173.7	283.4	1672	2226	278.8	164.5	151.9	130.9	114.0	100.7	91.62	84.49	79.69	76.16	73.23	71.43	69.60	69.76	68.81	69.73	71.01	71.98	72.35	72.64	71.26	67.92	63.07	57.98	53.81	50.67	47.34	43.54	40.28	36.24	34.15	31.47	28.54	26.90	26.26	28.47	26.23	19.60	15.48	13.59	11.86	10.58	9.505	8.420	7.772	6.786	6.234	6.571	8.116	22.30	109.1	371.1	613.4	305.9	16.41	1.625	1.176	1.096	0.970	0.859	0.825	0.834	0.783	0.785	0.775	0.738	0.792
535.0	63.81	84.65	101.6	123.7	166.7	231.2	162.5	176.7	561.4	2464	1154	151.6	131.0	111.3	97.31	84.85	79.23	74.48	68.05	65.73	63.27	61.67	60.68	60.03	59.32	60.17	60.08	60.37	63.23	63.15	61.46	57.94	54.02	50.15	45.99	44.36	40.69	38.29	35.47	31.40	31.01	27.52	25.61	23.36	22.21	22.22	24.74	21.42	15.61	12.57	11.12	10.05	8.637	8.147	7.787	6.606	5.784	5.181	5.151	7.955	27.05	85.26	194.5	580.1	262.9	22.02	1.552	1.030	0.942	0.889	0.778	0.749	0.727	0.745	0.703	0.664	0.689
540.0	57.37	74.70	87.86	103.1	126.4	218.6	169.3	143.5	229.7	1521	2253	219.4	117.1	102.3	89.31	78.09	69.06	65.10	60.20	58.61	57.29	52.87	53.25	52.59	53.72	52.23	53.71	54.11	55.56	54.88	54.36	51.00	48.78	44.06	41.54	39.08	35.73	34.03	31.70	28.03	26.82	25.22	22.71	21.37	20.37	19.37	20.81	21.10	16.47	12.15	10.83	9.332	8.372	7.681	7.195	6.730	5.761	5.064	4.606	4.787	8.860	21.62	46.52	226.2	597.8	236.1	14.07	1.219	1.032	0.830	0.747	0.735	0.562	0.685	0.686	0.721	0.708
545.0	55.41	66.42	83.47	95.80	104.5	183.2	181.0	127.1	143.0	628.7	2694	590.6	105.6	92.98	79.46	68.80	61.41	58.59	52.83	52.63	51.35	47.27	46.45	47.12	46.42	46.44	47.22	47.98	48.56	48.58	47.56	44.95	42.24	39.70	36.88	34.27	32.34	30.13	27.50	25.58	24.15	22.86	20.72	19.71	18.27	16.83	16.85	18.88	16.80	12.06	9.747	8.848	7.867	7.291	6.800	6.335	5.815	5.127	4.279	3.767	4.590	6.896	12.60	54.91	282.9	573.3	181.3	5.988	1.070	0.911	0.733	0.678	0.601	0.585	0.674	0.623	0.582
550.0	53.87	56.37	71.27	77.88	83.05	120.9	188.6	120.2	111.5	230.3	1572	1746	161.2	78.14	68.39	58.43	52.68	49.39	46.20	44.40	42.07	39.96	39.67	38.55	39.33	39.33	38.82	40.21	39.83	40.42	39.67	38.33	35.67	33.43	31.28	28.95	27.35	25.12	23.83	21.70	20.60	19.19	17.89	16.57	16.13	14.56	14.04	14.25	14.75	12.62	9.572	7.976	7.086	6.474	6.043	5.610	5.458	4.970	4.055	3.589	3.469	3.648	4.745	14.16	67.87	240.2	409.8	150.7	15.32	1.124	0.874	0.779	0.590	0.566	0.603	0.580	0.566
555.0	40.23	47.50	57.59	62.92	72.42	82.02	151.4	136.2	88.31	120.1	479.1	2196	720.8	67.43	54.35	49.08	43.27	40.74	36.70	34.85	34.41	32.49	31.81	31.66	31.66	32.17	31.49	32.96	32.25	31.91	32.12	31.47	29.33	27.25	25.69	24.05	22.10	20.86	19.62	17.73	17.57	16.01	14.58	13.70	13.41	12.02	11.01	11.16	11.34	11.70	9.985	7.371	6.407	5.670	5.398	4.862	4.548	4.347	4.109	3.332	2.814	2.762	2.678	4.670	16.58	54.98	123.0	342.1	245.3	19.59	0.858	0.740	0.563	0.540	0.550	0.539	0.479
560.0	43.32	50.87	50.56	55.40	59.01	66.56	105.5	159.8	82.64	83.29	168.9	1392	1597	104.7	47.07	41.29	37.56	34.76	32.45	29.94	29.14	27.87	26.78	27.59	26.65	27.13	26.28	27.67	28.15	27.40	26.86	25.83	24.38	22.57	21.56	19.97	18.58	17.72	17.14	14.99	14.48	13.72	12.52	11.81	11.33	10.44	9.456	9.042	8.843	9.432	9.482	7.407	5.402	5.051	4.867	4.340	4.086	3.692	3.999	3.489	2.432	2.487	2.241	2.431	5.009	13.52	29.13	128.4	375.9	197.8	10.83	0.759	0.693	0.604	0.568	0.468	0.556
565.0	43.69	48.74	52.37	54.10	52.05	54.56	71.44	159.6	94.95	69.45	90.47	545.5	2154	199.4	42.07	35.27	31.35	29.32	27.76	25.69	24.70	24.78	23.43	22.34	23.30	23.32	23.54	22.53	23.24	22.57	22.85	21.72	20.66	19.46	18.19	17.18	15.97	15.18	14.56	13.42	13.12	11.57	11.31	10.23	9.829	9.018	8.372	7.784	7.366	7.605	8.389	7.469	5.620	4.291	4.023	3.784	3.456	3.255	3.314	3.279	2.375	2.213	1.960	1.744	2.283	4.173	7.636	30.72	163.9	363.0	127.1	4.226	0.765	0.535	0.508	0.447	0.510
570.0	41.99	40.36	43.14	43.82	42.05	44.61	52.71	110.8	120.3	61.94	63.84	172.5	1337	1160	82.42	30.22	27.70	24.57	23.65	20.64	20.51	19.94	19.15	18.50	18.71	18.77	18.53	18.61	18.69	18.88	18.32	17.71	17.17	15.95	14.62	13.94	13.33	12.58	11.57	10.76	10.49	9.475	9.102	8.544	8.044	7.620	6.981	6.542	6.108	5.917	6.122	6.625	5.536	4.155	3.607	3.288	3.019	2.752	2.765	2.731	2.614	2.231	1.736	1.528	1.624	2.061	2.726	7.846	38.93	141.1	234.5	131.6	13.50	0.758	0.520	0.481	0.467
575.0	40.15	39.15	40.99	35.51	37.40	34.62	44.06	66.48	133.6	70.95	51.09	74.22	395.4	1629	434.6	26.22	22.44	20.10	18.54	18.00	17.18	15.67	15.16	14.52	15.08	14.71	15.28	15.10	15.08	15.02	14.61	14.32	13.79	12.31	11.94	11.40	10.49	9.990	9.290	8.720	8.796	7.657	7.174	6.996	6.337	6.266	5.904	5.390	5.072	4.642	4.316	4.892	5.340	4.394	3.228	2.994	2.701	2.345	2.410	2.096	2.338	2.368	1.837	1.559	1.396	1.501	1.566	2.571	9.572	32.39	67.37	200.0	176.8	16.63	0.678	0.521	0.561
580.0	38.25	33.68	34.90	34.25	30.38	34.74	36.30	47.38	111.5	85.61	46.60	51.65	121.1	1081	1071	44.42	19.48	17.45	16.63	14.67	14.27	13.70	12.93	13.57	12.62	12.44	12.90	12.95	12.69	12.64	11.83	11.95	11.92	10.52	10.21	9.450	9.016	8.490	8.116	7.449	7.651	6.721	6.134	5.917	5.300	5.247	4.968	4.847	4.088	3.629	3.617	3.840	4.249	4.282	3.214	2.707	2.316	2.054	2.113	1.932	1.994	2.004	2.051	1.613	1.261	1.210	1.334	1.444	2.910	7.874	15.97	71.31	222.6	127.6	8.212	0.601	0.453
585.0	35.31	37.39	38.11	37.80	32.14	30.69	29.62	37.38	79.43	113.5	47.01	40.94	55.64	420.2	1499	126.1	17.14	15.04	14.43	13.00	12.16	12.08	11.81	11.69	10.64	11.03	10.90	11.00	11.46	11.37	10.77	10.15	9.369	8.985	8.373	8.324	7.840	6.979	7.001	6.619	6.236	5.679	5.358	4.934	4.707	4.663	4.373	3.890	3.694	3.210	3.233	3.060	3.417	4.145	3.448	2.507	2.193	2.022	1.806	1.607	1.749	1.711	1.841	1.583	1.300	1.151	1.154	1.156	1.275	2.490	4.257	17.25	91.15	211.3	36.66	3.469	0.548
590.0	35.63	35.59	33.33	31.57	27.19	26.24	26.09	32.26	46.13	105.4	66.29	38.09	38.70	124.1	938.9	734.8	37.46	12.93	11.58	10.71	10.28	10.20	9.567	9.420	8.808	9.060	9.000	8.626	8.862	9.044	8.826	8.457	7.709	7.314	7.125	6.689	6.314	6.022	5.673	5.303	5.211	4.704	4.446	4.191	4.011	3.729	3.590	3.307	3.027	2.744	2.661	2.502	2.664	2.983	3.278	2.645	2.035	1.843	1.627	1.559	1.532	1.275	1.477	1.585	1.408	1.011	1.008	1.019	1.030	1.091	1.529	4.496	21.54	79.07	132.2	89.61	11.66
595.0	38.91	37.39	29.38	27.09	24.89	21.34	24.66	26.82	32.05	68.52	92.83	40.27	31.46	46.68	269.6	1073	120.7	11.39	10.18	8.555	8.052	7.940	7.197	7.738	6.862	7.376	6.873	7.343	6.955	7.354	6.885	6.725	6.317	6.292	5.630	5.311	5.190	4.701	4.182	4.234	3.998	3.717	3.569	3.493	3.329	3.096	2.933	2.851	2.611	2.353	2.195	2.186	1.906	2.099	2.541	2.839	2.024	1.525	1.294	1.406	1.359	1.131	1.255	1.241	1.319	1.137	0.816	0.869	0.885	0.800	0.867	1.492	5.217	18.06	37.52	120.4	108.4
600.0	36.36	36.00	27.03	26.33	21.27	18.49	25.07	25.15	27.39	47.83	96.55	47.23	28.99	27.47	77.06	733.6	595.7	20.83	8.805	7.521	7.674	6.877	6.533	5.991	6.206	6.002	5.862	6.336	5.915	6.537	6.199	6.133	5.390	4.971	4.799	4.630	4.317	3.913	3.950	3.663	3.514	3.220	3.075	2.963	2.739	2.850	2.524	2.462	2.288	2.019	1.885	1.803	1.682	1.515	1.857	2.523	2.078	1.591	1.267	1.093	1.157	0.988	1.082	1.011	1.149	1.198	0.805	0.795	0.870	0.714	0.728	0.885	1.596	4.405	8.884	40.81	127.7
605.0	36.33	33.93	31.48	24.94	19.99	21.44	21.83	25.14	24.30	34.27	84.47	58.91	30.85	22.73	30.41	290.5	911.6	81.12	7.794	7.029	6.666	5.941	5.953	5.153	5.348	5.433	5.124	5.347	4.844	5.204	5.322	4.669	4.749	4.508	4.296	3.955	3.721	3.526	3.542	3.012	2.991	2.775	2.561	2.490	2.387	2.352	2.105	2.244	1.941	1.698	1.567	1.456	1.499	1.333	1.432	1.813	1.941	1.734	1.288	1.049	1.058	1.040	0.982	0.900	0.901	1.138	1.040	0.851	0.790	0.636	0.683	0.599	0.813	1.451	2.421	9.749	49.82
610.0	36.82	33.68	27.65	24.13	19.28	18.44	19.84	20.76	23.40	30.10	55.76	79.66	36.87	22.84	19.94	81.77	613.5	464.1	20.01	5.877	5.470	5.120	4.849	4.358	4.485	4.326	4.447	4.460	4.307	4.324	4.694	4.082	4.035	3.797	3.666	3.270	3.149	3.005	2.823	2.680	2.485	2.233	2.179	2.053	2.063	1.876	1.797	1.852	1.559	1.425	1.358	1.297	1.236	1.123	1.198	1.344	1.619	1.624	1.249	1.081	0.860	0.912	0.792	0.811	0.793	0.842	0.980	0.914	0.744	0.637	0.599	0.590	0.606	0.727	0.883	2.656	11.80
615.0	27.85	34.00	26.27	21.35	17.48	17.97	18.88	19.28	24.15	28.21	37.92	75.24	51.17	23.20	17.85	28.09	179.7	710.1	92.06	5.599	4.774	4.157	3.929	3.833	3.738	3.858	3.763	3.724	3.516	3.523	3.759	3.547	3.450	3.172	3.283	2.975	2.693	2.550	2.340	2.245	2.066	2.001	1.781	1.548	1.568	1.642	1.383	1.507	1.304	1.218	1.137	1.125	0.993	0.967	1.049	0.979	1.250	1.248	1.263	1.041	0.937	0.793	0.722	0.734	0.674	0.651	0.724	0.775	0.774	0.594	0.563	0.549	0.630	0.518	0.563	0.882	2.982
620.0	33.83	28.10	26.22	22.81	18.11	16.85	16.11	18.82	22.30	25.82	30.76	59.23	63.61	24.82	16.80	14.21	50.25	506.0	403.9	10.48	4.276	3.903	3.585	3.371	3.162	3.306	3.267	3.165	3.335	3.153	3.067	2.971	2.836	2.511	2.785	2.539	2.383	2.285	1.972	1.945	1.661	1.740	1.584	1.441	1.444	1.351	1.161	1.164	1.063	1.001	0.886	0.994	0.789	0.800	0.759	0.902	1.027	1.025	1.025	0.946	0.887	0.667	0.704	0.665	0.625	0.661	0.548	0.654	0.813	0.634	0.556	0.606	0.531	0.463	0.496	0.542	0.919
625.0	31.00	31.23	26.24	25.46	14.54	15.78	13.84	17.80	20.28	24.35	29.83	42.24	67.66	29.11	16.19	12.75	19.00	204.3	660.2	50.73	3.957	3.419	3.208	3.299	2.519	2.612	2.867	2.716	2.832	2.719	2.539	2.408	2.457	2.326	2.468	2.183	2.092	2.067	1.726	1.681	1.567	1.480	1.436	1.180	1.397	1.296	0.997	0.944	1.055	0.900	0.872	0.842	0.744	0.787	0.723	0.880	0.778	0.776	1.091	0.982	0.825	0.724	0.714	0.532	0.524	0.590	0.598	0.590	0.630	0.677	0.633	0.505	0.489	0.406	0.473	0.419	0.476
630.0	28.45	29.64	25.82	21.95	15.39	14.72	15.45	17.63	19.34	25.54	26.51	32.73	56.24	43.34	17.76	12.08	11.45	56.82	465.6	321.8	10.39	3.179	2.841	2.850	2.395	2.310	2.206	2.317	2.099	2.233	2.192	2.150	2.011	1.969	2.046	1.774	1.761	1.774	1.578	1.443	1.281	1.193	1.175	1.132	1.030	1.078	0.879	0.900	0.854	0.737	0.745	0.689	0.641	0.748	0.621	0.712	0.631	0.711	0.742	0.832	0.826	0.651	0.631	0.510	0.559	0.591	0.592	0.498	0.556	0.633	0.713	0.599	0.522	0.433	0.479	0.450	0.410
635.0	31.40	34.52	21.77	19.96	17.53	15.36	15.87	17.90	18.85	24.46	24.07	31.50	41.20	54.25	22.66	14.02	11.76	20.28	138.9	539.5	69.40	2.805	2.315	2.246	2.005	1.984	1.749	1.878	1.996	1.925	1.733	1.907	1.646	1.576	1.653	1.598	1.440	1.612	1.259	1.087	1.144	1.065	0.971	0.857	0.862	0.863	0.679	0.801	0.720	0.667	0.643	0.546	0.577	0.671	0.548	0.638	0.640	0.550	0.635	0.706	0.832	0.641	0.548	0.453	0.468	0.552	0.602	0.499	0.483	0.551	0.585	0.671	0.574	0.433	0.369	0.352	0.387
640.0	30.29	27.78	26.46	21.52	16.91	17.15	19.94	17.49	20.07	24.82	25.78	29.76	34.37	52.01	30.34	16.49	14.11	12.80	40.03	398.9	270.9	6.006	2.476	2.093	1.928	1.760	1.698	1.576	1.741	1.543	1.616	1.582	1.465	1.312	1.340	1.437	1.140	1.417	1.001	1.007	0.982	0.873	0.782	0.759	0.790	0.783	0.691	0.679	0.605	0.610	0.517	0.533	0.547	0.581	0.499	0.516	0.486	0.512	0.482	0.592	0.622	0.572	0.527	0.516	0.452	0.477	0.498	0.478	0.499	0.413	0.475	0.684	0.520	0.447	0.410	0.356	0.358
645.0	32.19	26.77	24.77	24.25	18.79	18.81	18.03	16.12	19.86	24.23	26.94	30.02	31.74	44.30	39.09	18.43	15.57	12.23	16.67	170.5	452.2	32.09	2.459	1.814	1.614	1.761	1.616	1.435	1.683	1.442	1.404	1.361	1.310	1.199	1.268	1.288	1.242	1.155	0.975	1.127	0.876	0.884	0.768	0.719	0.642	0.688	0.559	0.622	0.576	0.518	0.496	0.563	0.492	0.545	0.511	0.475	0.481	0.422	0.418	0.450	0.541	0.556	0.547	0.502	0.486	0.499	0.521	0.412	0.429	0.414	0.469	0.455	0.552	0.490	0.404	0.366	0.373
650.0	36.62	30.88	25.38	24.42	17.22	18.64	17.20	17.18	20.00	23.70	26.80	29.19	29.04	35.08	46.93	21.68	15.59	13.10	11.34	52.54	432.4	80.42	2.923	1.802	1.634	1.393	1.544	1.360	1.516	1.489	1.328	1.389	1.197	1.043	1.102	1.234	1.178	1.080	1.069	0.853	0.769	0.784	0.709	0.692	0.608	0.577	0.529	0.581	0.522	0.403	0.447	0.490	0.448	0.506	0.434	0.461	0.415	0.510	0.422	0.461	0.421	0.546	0.534	0.535	0.557	0.448	0.445	0.414	0.413	0.471	0.444	0.372	0.553	0.635	0.413	0.408	0.381
