Sample:	'1
File name:	L2025090907¾°Ô·Â·ÇÅ.FD3
Run date:	'14:54:24, 09/09/2025
Operator:	Administrator
Comment:	'

Instrument
Model:	F-2700 FL Spectrophotometer
Serial number:	3064-004
ROM Version:	4J14000 07

Instrument parameters
Measurement type:	3-D scan
Data mode:	Fluorescence
EX  Start WL:	220.0 nm
EX  End WL:	600.0 nm
EX Sampling interval:	5.0 nm
EM  Start WL:	230.0 nm
EM  End WL:	650.0 nm
EM Sampling interval:	5.0 nm
Scan speed:	12000 nm/min
EX Slit:	5.0 nm
EM Slit:	5.0 nm
PMT Voltage:	700 V
Response:	Auto 
Corrected spectra:	Off
Contour interval:	50.000

Peak integration
Integration method:	Rectangular
Sensitivity:	1
Threshold:	1.000

Peaks
No.	ApexEX/EM(nm)	Height(Data)
1	225.0/585.0	35.93
2	225.0/620.0	19.65
3	230.0/595.0	27.45
4	230.0/605.0	26.57
5	230.0/625.0	21.20
6	235.0/345.0	839.9
7	235.0/565.0	48.67
8	235.0/615.0	26.46
9	235.0/640.0	21.14
10	240.0/520.0	241.5
11	245.0/265.0	373.9
12	245.0/530.0	218.4
13	245.0/620.0	20.35
14	250.0/270.0	447.6
15	250.0/545.0	208.8
16	255.0/280.0	688.1
17	255.0/555.0	190.3
18	260.0/285.0	891.9
19	260.0/565.0	177.7
20	265.0/290.0	995.9
21	265.0/580.0	164.9
22	270.0/295.0	 1387
23	270.0/590.0	148.2
24	275.0/305.0	 1617
25	275.0/375.0	 1152
26	275.0/605.0	144.9
27	280.0/310.0	 1563
28	280.0/340.0	 1126
29	280.0/370.0	 1150
30	280.0/615.0	120.9
31	285.0/315.0	 1482
32	285.0/630.0	98.99
33	290.0/320.0	 1424
34	290.0/640.0	76.05
35	295.0/330.0	 1120
36	300.0/335.0	990.7
37	305.0/340.0	984.6
38	310.0/345.0	857.3
39	315.0/355.0	738.8
40	320.0/360.0	825.7
41	325.0/365.0	804.5
42	335.0/380.0	769.6
43	340.0/385.0	758.5
44	350.0/400.0	683.3
45	355.0/405.0	651.6
46	365.0/420.0	553.9
47	415.0/485.0	133.8
48	430.0/505.0	81.13
49	440.0/515.0	57.25
50	450.0/530.0	39.95
51	455.0/335.0	3.135
52	460.0/345.0	3.280
53	460.0/545.0	28.04
54	465.0/340.0	3.229
55	485.0/265.0	1.806
56	495.0/270.0	1.963
57	505.0/275.0	2.940
58	510.0/280.0	3.087
59	520.0/285.0	4.375
60	530.0/290.0	4.224
61	540.0/295.0	6.113
62	545.0/300.0	6.924
63	550.0/305.0	7.851
64	560.0/310.0	7.420
65	570.0/315.0	7.103
66	580.0/325.0	7.488
67	580.0/360.0	6.260
68	590.0/330.0	6.352

Data points
	220.0	225.0	230.0	235.0	240.0	245.0	250.0	255.0	260.0	265.0	270.0	275.0	280.0	285.0	290.0	295.0	300.0	305.0	310.0	315.0	320.0	325.0	330.0	335.0	340.0	345.0	350.0	355.0	360.0	365.0	370.0	375.0	380.0	385.0	390.0	395.0	400.0	405.0	410.0	415.0	420.0	425.0	430.0	435.0	440.0	445.0	450.0	455.0	460.0	465.0	470.0	475.0	480.0	485.0	490.0	495.0	500.0	505.0	510.0	515.0	520.0	525.0	530.0	535.0	540.0	545.0	550.0	555.0	560.0	565.0	570.0	575.0	580.0	585.0	590.0	595.0	600.0
230.0	19.12	784.7	 4363	 2318	141.9	4.989	4.092	3.452	1.611	3.383	2.621	2.180	1.911	2.034	1.323	1.641	1.429	0.830	0.766	0.847	1.028	0.787	0.547	0.646	0.612	0.630	0.488	0.454	0.430	0.309	0.465	0.469	0.293	0.245	0.294	0.498	0.332	0.441	0.419	0.405	0.328	0.340	0.446	0.218	0.252	0.181	1.461	5.425	8.620	6.223	2.131	0.374	0.129	0.103	0.021	0.106	0.035	0.039	0.008	0.044	0.059	0.005	0.029	-0.043	-0.007	-0.029	0.030	-0.067	-0.095	-0.056	-0.053	-0.075	-0.038	-0.070	-0.128	-0.068	-0.041
235.0	47.34	203.5	 1795	 4511	 3075	159.2	4.750	6.515	2.482	3.913	2.198	2.382	2.186	3.311	1.554	1.847	1.453	1.100	0.858	0.743	0.798	0.695	0.782	0.814	0.408	0.439	0.539	0.729	0.395	0.348	0.477	0.349	0.279	0.076	0.264	0.148	0.308	0.374	0.172	0.300	0.243	0.387	0.412	0.650	0.459	0.248	0.631	1.540	3.366	6.315	8.242	8.013	3.012	0.846	0.154	0.112	0.124	0.067	0.015	0.017	-0.012	0.070	0.029	-0.043	0.022	0.063	0.006	-0.095	-0.084	-0.048	-0.023	-0.113	-0.082	-0.046	-0.159	-0.128	-0.037
240.0	53.64	107.7	441.4	 2720	 6921	973.5	64.81	3.803	4.312	6.390	2.982	2.576	3.305	2.873	1.609	1.190	1.577	1.266	1.011	0.996	0.928	0.849	0.621	0.865	0.741	0.275	0.690	0.470	0.729	0.257	0.312	0.151	0.467	0.043	0.343	0.178	0.454	0.419	0.381	0.276	0.183	0.251	0.260	0.282	0.599	0.571	0.412	0.828	0.882	1.857	5.028	10.46	12.24	7.602	1.870	0.239	0.061	0.118	0.142	0.026	0.039	0.061	-0.053	-0.123	0.084	0.065	-0.066	-0.047	-0.052	-0.083	-0.066	-0.061	-0.067	-0.054	-0.116	-0.126	-0.056
245.0	31.61	119.6	164.6	732.4	 4985	 7061	755.6	42.56	6.288	6.577	3.801	4.612	3.853	3.122	1.865	1.977	1.542	1.307	0.782	1.249	1.060	0.618	1.104	1.322	0.676	0.463	0.695	0.729	0.743	0.888	0.391	0.109	0.582	0.308	0.300	0.172	0.397	0.353	0.436	0.457	0.183	0.242	0.167	0.235	0.300	0.628	0.704	0.939	0.578	0.493	1.394	3.808	9.142	13.71	12.72	5.910	1.356	0.027	0.056	0.045	0.126	-0.012	-0.047	-0.014	0.075	0.021	-0.007	-0.073	-0.023	-0.095	0.014	-0.046	-0.066	-0.070	-0.162	-0.101	-0.040
250.0	19.37	67.82	167.5	271.5	 1336	 4180	 7254	 2900	196.3	13.13	5.528	4.349	3.519	3.483	2.564	2.204	1.820	1.611	1.329	1.042	1.133	0.777	0.902	1.054	0.836	0.500	0.764	0.551	0.501	0.490	0.277	0.356	0.268	0.347	0.359	0.082	0.296	0.294	0.313	0.339	0.361	0.261	0.204	0.065	0.206	0.372	0.372	0.856	0.837	0.701	0.705	1.076	2.377	4.771	8.811	12.90	15.84	13.23	6.242	1.429	0.214	0.065	-0.009	-0.044	0.050	0.062	-0.006	-0.117	0.084	-0.057	-0.067	-0.133	-0.075	-0.056	-0.106	-0.112	-0.003
255.0	15.84	22.21	72.95	266.7	449.2	972.2	 3921	 7709	 3774	327.7	9.041	5.354	3.946	4.817	2.536	2.752	1.718	1.985	1.603	1.148	0.871	0.905	0.846	0.990	0.998	0.673	0.708	0.674	0.552	0.516	0.249	0.319	0.468	0.641	0.257	0.208	0.242	0.364	0.411	0.292	0.338	0.362	0.169	0.215	0.390	0.327	0.244	0.418	0.430	0.670	1.133	1.272	1.064	1.342	2.145	3.309	6.583	16.26	25.56	22.63	8.770	1.334	0.062	0.034	0.022	0.073	0.152	-0.077	-0.056	-0.017	-0.006	-0.040	-0.023	0.016	-0.151	-0.171	-0.067
260.0	22.94	12.97	26.83	176.7	414.0	314.0	 1010	 3949	 7888	 4025	124.0	8.002	6.372	5.037	3.315	3.048	2.486	1.881	1.850	1.959	1.327	0.919	0.912	0.877	0.885	0.853	0.585	0.697	0.432	0.854	0.593	0.523	0.497	0.390	0.407	0.233	0.261	0.327	0.182	0.172	0.272	0.208	0.346	0.147	0.360	0.182	0.290	0.276	0.251	0.372	0.856	1.632	1.601	0.787	0.705	0.808	1.857	4.602	12.87	26.41	32.84	21.19	5.337	0.489	0.206	0.075	-0.040	-0.001	-0.026	0.059	-0.031	-0.076	-0.116	-0.028	-0.137	-0.078	-0.100
265.0	22.03	18.45	15.14	62.20	306.4	373.9	290.8	 1042	 4769	9999.9	 2540	40.89	8.844	7.207	4.727	4.099	2.393	2.081	1.609	1.264	1.366	0.573	1.184	0.659	0.858	0.734	0.786	0.914	0.495	0.812	0.577	0.718	0.305	0.425	0.373	0.215	0.340	0.202	0.315	0.367	0.162	0.250	0.267	0.324	0.484	0.229	0.382	0.311	0.411	0.352	0.494	0.924	1.445	1.806	1.109	0.588	0.529	1.104	3.256	8.747	21.68	37.88	35.83	16.65	2.593	0.191	0.045	0.108	-0.021	-0.072	0.032	0.062	-0.067	-0.075	-0.086	0.003	0.010
270.0	35.48	27.66	23.53	37.84	110.5	333.9	447.6	331.5	 1246	 7042	 9836	 4341	158.2	10.30	6.674	4.645	3.085	2.553	2.099	1.697	1.610	1.111	1.307	1.108	0.934	0.639	0.846	0.804	0.531	0.877	0.477	0.788	0.393	0.546	0.406	0.400	0.360	0.314	0.328	0.504	0.291	0.246	0.196	0.377	0.321	0.265	0.352	0.338	0.413	0.403	0.229	0.354	0.561	1.148	1.635	1.963	1.783	0.820	0.991	2.209	5.405	11.86	21.90	32.38	37.25	29.20	14.09	2.733	0.079	-0.030	0.162	-0.011	-0.049	0.071	-0.004	0.016	0.019
275.0	74.07	70.49	59.59	52.88	51.65	117.1	427.6	570.3	378.8	 1668	 3614	 9924	 3019	183.7	11.57	7.422	4.545	2.405	2.262	1.837	1.530	1.851	1.109	1.417	0.794	1.120	1.023	0.627	0.792	0.437	0.551	0.698	0.462	0.431	0.666	0.377	0.483	0.245	0.530	0.391	0.300	0.368	0.456	0.514	0.493	0.558	0.465	0.707	0.393	0.401	0.263	0.343	0.340	0.418	0.717	1.072	2.332	2.940	1.783	1.025	1.655	3.108	5.223	8.072	14.92	32.84	55.84	44.53	17.98	1.559	0.145	-0.034	-0.002	0.025	0.019	0.002	-0.086
280.0	114.4	118.7	113.5	93.95	51.03	70.34	200.2	688.1	490.2	511.5	976.7	 4322	9999.9	 2429	95.48	10.34	5.844	3.979	3.309	1.958	1.959	1.842	1.383	1.291	0.987	1.374	0.833	0.688	0.757	0.776	0.870	0.670	0.500	0.661	0.622	0.427	0.526	0.192	0.551	0.522	0.526	0.697	0.737	0.529	0.600	0.805	0.719	0.854	0.607	0.523	0.462	0.311	0.352	0.243	0.393	0.454	1.023	2.163	3.087	2.886	1.482	1.341	1.841	2.314	4.003	9.529	24.52	50.54	67.47	37.41	8.162	0.584	0.062	0.025	0.014	0.019	-0.006
285.0	143.4	180.4	169.7	128.4	72.78	67.22	120.6	399.7	891.9	471.0	426.4	 1241	 5636	9999.9	 1740	39.23	7.595	5.299	3.578	2.334	2.024	1.921	1.737	1.647	1.292	1.282	1.149	0.732	0.777	0.907	0.656	0.735	0.528	0.769	0.498	0.671	0.612	0.754	0.666	0.826	0.717	0.727	0.724	0.636	0.884	0.967	0.932	0.979	0.783	0.742	0.466	0.312	0.248	0.388	0.312	0.421	0.722	1.066	1.933	3.773	4.375	2.103	1.474	1.505	1.907	2.986	6.454	15.56	38.71	67.05	53.29	26.27	3.208	0.292	0.144	-0.042	0.003
290.0	189.4	241.7	243.8	194.8	114.5	102.4	125.0	217.3	580.3	995.9	666.3	616.2	 1632	 5038	 9757	 4867	92.01	9.264	5.937	3.676	3.242	2.400	2.060	1.745	1.407	1.248	0.945	0.854	1.043	0.842	0.801	0.647	0.498	0.713	0.601	0.785	0.985	0.986	0.805	1.053	0.801	1.015	1.087	1.046	1.092	1.166	1.256	1.440	1.135	1.033	0.879	0.758	0.485	0.475	0.356	0.511	0.732	0.739	1.108	1.804	2.932	4.207	4.224	3.452	2.353	2.305	2.884	4.916	10.10	19.98	32.04	48.61	50.67	35.11	18.25	3.303	0.146
295.0	218.7	276.1	307.0	240.9	157.4	136.8	151.3	201.8	346.8	719.7	 1387	805.7	779.4	 1392	 3090	 9832	 6890	119.4	8.384	5.038	4.484	3.482	2.554	2.017	2.248	1.196	0.874	1.213	0.709	0.774	0.930	0.771	0.834	0.892	0.653	1.021	0.850	0.918	1.042	1.031	1.029	0.895	1.093	1.296	1.077	1.340	1.420	1.603	1.501	1.248	1.029	0.966	0.543	0.635	0.656	0.872	0.942	1.050	1.032	1.416	1.637	2.333	3.382	5.911	6.113	3.818	2.837	3.289	4.224	5.989	7.913	12.11	16.94	38.63	73.81	53.47	24.79
300.0	242.7	308.2	337.4	282.0	211.4	182.8	190.0	227.4	328.3	528.5	 1170	 1456	745.7	669.0	917.8	 3593	9999.9	 1448	73.18	8.210	5.171	4.046	3.076	2.414	2.422	1.592	1.151	1.481	0.854	1.040	1.008	0.807	0.893	0.652	0.699	0.864	0.841	1.295	1.100	1.279	0.981	0.954	1.311	1.500	1.160	1.565	1.602	1.712	1.570	1.507	1.163	1.008	0.963	0.728	1.005	1.156	1.079	1.259	1.205	1.571	1.855	2.025	2.303	3.836	5.822	6.924	5.139	3.578	2.960	3.414	3.265	3.923	4.553	10.15	28.08	61.01	84.73
305.0	237.3	317.1	351.3	297.5	244.7	220.2	244.1	289.3	368.8	517.9	835.4	 1617	 1215	609.3	499.7	999.4	 4610	9999.9	 1157	35.76	6.842	4.824	4.050	3.021	2.617	1.837	1.392	1.365	0.928	1.332	0.895	0.870	1.176	0.665	0.621	0.945	0.835	1.341	1.138	1.120	1.099	1.494	1.243	1.306	1.514	1.666	1.441	1.745	1.608	1.389	1.352	1.159	1.219	0.977	1.147	1.268	1.269	1.257	1.522	1.715	1.900	2.345	2.235	3.309	3.879	6.074	7.851	6.610	4.266	2.862	2.574	2.299	2.423	3.248	7.457	17.04	40.16
310.0	221.1	312.0	372.3	316.7	279.5	251.2	282.6	350.6	435.7	565.0	751.5	 1121	 1563	 1116	529.9	468.8	 1222	 4301	 7819	 4361	68.00	7.783	4.704	3.500	3.189	2.095	1.758	1.341	1.424	1.476	0.976	0.953	1.008	0.712	0.869	1.008	0.920	1.272	1.286	1.160	1.091	1.261	1.221	1.258	1.415	1.525	1.659	1.848	1.551	1.541	1.335	1.156	1.356	1.203	1.107	1.259	1.312	1.664	1.532	1.925	2.059	2.604	2.831	3.243	3.655	3.985	5.305	6.619	7.420	6.177	3.870	2.584	2.228	2.060	3.252	4.902	9.879
315.0	219.8	305.2	377.1	355.9	294.1	285.1	327.2	379.6	480.8	609.6	765.7	958.5	 1148	 1482	974.1	445.2	483.1	 1108	 2327	 8044	 5902	90.99	7.681	4.260	2.969	2.561	2.344	1.526	1.870	1.316	0.898	0.937	1.004	0.745	0.748	0.907	0.753	1.150	1.241	1.053	1.062	1.206	1.282	1.539	1.275	1.535	1.538	1.898	1.507	1.663	1.118	1.356	1.567	1.349	1.122	1.247	1.496	1.480	1.713	2.123	2.120	2.414	2.928	3.457	3.782	3.609	4.285	4.391	5.191	6.175	7.103	5.996	3.525	2.533	2.481	2.519	3.329
320.0	223.9	339.9	460.9	449.4	344.6	304.0	338.7	409.7	512.9	631.3	797.6	964.4	 1043	 1222	 1424	659.7	386.8	428.5	640.1	 2879	 9602	 4117	58.33	6.054	4.484	3.167	2.197	1.701	1.606	1.304	1.298	1.318	1.120	0.609	0.693	0.833	1.184	0.963	1.113	0.975	0.973	1.281	1.304	1.414	1.524	1.853	1.935	2.237	2.104	1.662	1.570	1.550	1.479	1.597	1.532	1.525	1.597	1.731	1.809	2.101	2.272	2.775	2.926	3.320	4.015	3.961	4.059	4.497	4.656	4.987	6.023	7.107	7.271	4.297	2.687	2.044	2.446
325.0	269.2	412.8	578.7	536.8	388.3	338.2	371.7	454.0	535.5	681.0	848.3	998.6	 1069	 1074	 1334	 1099	462.9	328.1	296.3	762.2	 4241	 9358	870.8	30.68	5.447	3.572	2.595	2.293	1.857	1.719	1.416	1.044	1.033	1.026	0.944	0.860	1.022	1.270	0.930	1.312	1.288	1.393	1.278	1.124	1.478	2.167	1.848	2.667	2.378	2.153	1.823	2.031	1.550	1.639	1.653	1.702	1.441	2.051	1.878	2.227	2.414	2.646	3.053	3.578	3.936	4.392	4.568	4.852	5.549	5.355	5.259	5.420	7.488	7.115	4.350	2.859	2.510
330.0	293.7	453.9	673.1	664.1	473.0	384.7	414.0	471.6	582.9	710.8	876.7	999.3	 1114	 1066	 1064	 1120	889.7	433.6	277.0	315.8	 1080	 3831	 6197	 3436	55.68	6.579	4.216	2.616	2.308	2.229	1.331	1.405	1.093	1.305	1.074	0.812	0.905	1.103	1.189	1.224	1.286	1.119	1.437	1.627	1.723	2.061	2.276	3.056	2.995	2.497	2.257	2.235	1.798	1.905	1.540	1.670	1.769	2.174	2.095	2.491	2.774	2.910	3.208	3.950	3.998	4.510	4.631	4.989	5.302	5.235	5.263	5.219	5.633	6.139	6.352	5.984	4.544
335.0	309.6	496.5	727.4	735.1	557.8	459.4	458.6	513.5	612.4	727.8	890.6	 1031	 1122	 1088	 1015	894.8	990.7	817.2	362.5	268.1	382.9	957.7	 1949	 7022	 4877	75.62	7.905	3.839	2.911	2.046	1.724	1.641	1.538	1.712	1.106	0.961	1.032	0.840	1.174	1.267	1.376	1.181	1.493	1.960	1.605	2.392	2.518	3.135	3.134	2.818	2.731	2.501	2.046	1.824	1.783	1.917	2.027	2.361	2.098	2.719	2.882	2.948	3.852	4.158	4.580	4.607	4.746	5.279	5.483	5.567	5.570	5.569	4.695	5.116	4.797	5.125	6.473
340.0	306.3	489.6	727.4	812.4	617.4	534.4	499.9	551.0	640.4	766.8	920.9	 1043	 1126	 1115	 1013	860.0	810.3	984.6	582.3	308.5	270.8	345.7	540.0	 2720	 8341	 3401	50.65	5.610	4.555	2.571	1.767	1.802	1.405	1.366	1.064	0.982	1.129	1.187	1.169	0.951	1.303	1.195	1.391	1.471	1.917	2.163	2.305	2.836	3.013	3.229	2.585	2.528	2.138	2.149	2.160	2.147	2.661	2.753	2.589	2.813	2.840	3.545	3.866	4.085	4.589	4.611	5.023	5.231	5.127	5.298	5.475	5.699	4.946	4.855	4.690	4.438	4.806
345.0	312.7	471.5	744.1	839.9	693.6	575.5	564.0	576.4	673.8	787.4	921.4	 1046	 1121	 1115	 1024	864.4	733.7	823.8	857.3	427.0	280.2	248.2	243.6	719.5	 4008	 8124	731.9	26.80	5.494	3.450	2.585	1.954	1.491	1.331	1.313	1.167	1.056	0.988	1.285	1.011	1.397	1.518	1.421	1.631	1.803	2.217	2.554	2.813	3.280	2.940	2.918	2.867	2.744	2.331	2.040	2.727	2.573	2.824	2.675	3.188	3.077	3.530	4.017	4.047	4.662	4.100	4.571	5.351	5.640	5.665	5.695	5.168	4.920	5.297	4.950	4.705	4.504
350.0	288.7	464.2	704.7	817.8	721.6	688.4	647.0	655.5	726.8	815.7	932.6	 1057	 1096	 1112	 1042	898.6	770.7	697.9	792.3	736.4	428.8	290.0	235.0	295.9	 1031	 3631	 5464	 2869	48.22	5.873	3.685	2.886	1.768	1.527	1.486	1.345	1.052	1.077	1.135	1.201	1.248	1.418	1.414	1.427	1.809	2.407	2.618	2.786	3.116	2.817	2.806	2.992	2.779	2.986	2.723	2.723	2.803	2.841	3.230	3.352	3.352	3.538	3.817	4.124	4.372	4.534	4.753	4.946	5.387	5.356	5.324	5.104	5.472	5.063	4.763	4.442	4.741
355.0	280.3	441.4	669.6	802.7	795.9	770.1	753.4	760.0	838.2	896.8	999.0	 1087	 1114	 1124	 1069	950.1	822.7	727.6	677.8	738.8	732.0	420.4	297.3	264.0	373.1	912.7	 1888	 6389	 4013	65.88	5.837	3.800	2.590	1.668	1.393	1.305	1.152	1.007	0.994	1.177	1.286	1.441	1.438	1.422	1.933	1.835	2.291	2.549	2.865	2.942	3.047	2.955	3.321	3.251	2.879	2.902	2.967	3.099	3.674	3.503	3.293	3.944	4.497	4.005	4.304	4.695	5.125	4.702	4.895	5.125	5.518	5.097	5.508	4.962	4.948	4.514	4.862
360.0	271.2	425.5	628.1	805.1	839.6	821.8	838.2	852.3	909.6	964.7	 1042	 1093	 1137	 1128	 1085	981.6	853.0	771.6	692.2	662.9	825.7	630.4	372.0	296.8	266.6	336.9	521.7	 2700	 7321	 2796	41.40	5.592	3.519	2.321	1.895	1.501	1.151	1.204	1.146	1.215	1.548	1.510	1.459	1.312	2.061	2.106	2.273	2.621	2.676	2.862	2.740	3.107	3.365	3.747	3.006	3.628	3.539	3.463	3.945	4.124	3.620	4.161	4.159	4.865	4.624	4.734	5.093	5.161	5.023	5.331	5.370	5.814	6.260	5.229	5.014	5.152	5.142
365.0	273.2	404.1	643.6	799.2	839.2	863.1	885.6	912.4	955.4	 1030	 1088	 1136	 1148	 1132	 1096	989.8	884.1	804.8	718.3	660.3	731.6	804.5	511.0	353.8	280.5	244.8	233.5	714.9	 3889	 7165	635.9	19.91	4.461	3.028	2.102	1.599	1.434	1.539	1.173	1.315	1.344	1.670	1.426	1.782	1.623	2.043	2.155	2.680	2.846	2.748	2.878	3.329	3.196	3.911	3.607	3.656	3.520	3.768	3.822	4.442	4.418	4.414	4.766	4.798	4.797	4.595	4.854	5.516	5.190	5.484	5.804	5.629	5.645	5.002	5.399	5.187	4.874
370.0	274.4	392.7	598.0	773.7	859.4	917.7	934.8	979.3	 1012	 1072	 1108	 1132	 1150	 1119	 1090	 1001	926.3	842.0	774.8	708.9	686.1	749.2	736.2	504.3	349.8	274.0	216.6	277.4	998.9	 3473	 5156	 2471	39.46	5.406	3.044	2.016	1.772	1.578	1.358	1.394	1.466	1.358	1.400	1.741	1.692	1.918	2.105	2.601	2.701	2.630	2.782	3.369	3.400	3.494	3.874	3.523	3.786	4.130	4.053	4.506	4.674	4.842	5.021	5.082	4.688	4.905	5.039	5.532	5.867	5.462	5.781	5.422	5.732	5.487	5.559	5.273	5.397
375.0	288.6	399.6	583.7	758.3	846.6	956.7	990.4	 1015	 1055	 1105	 1144	 1152	 1138	 1127	 1073	 1006	943.5	883.5	827.0	775.3	726.5	687.9	727.9	732.1	481.6	346.2	270.3	225.1	332.2	854.2	 1928	 6189	 3336	51.21	5.059	2.850	2.329	1.806	1.810	1.409	1.418	1.430	1.170	1.598	1.970	1.804	1.906	2.213	2.714	2.555	2.466	3.218	3.428	3.260	3.780	4.018	4.129	4.506	4.546	4.871	4.591	4.952	4.829	4.820	4.792	5.173	5.041	5.311	5.750	5.437	5.409	5.637	5.790	5.558	5.427	5.246	5.983
380.0	273.9	374.0	585.1	764.3	907.8	973.8	 1019	 1027	 1071	 1117	 1129	 1130	 1133	 1110	 1044	 1001	940.6	899.7	842.4	796.8	752.7	698.3	681.9	769.6	644.5	421.2	316.3	248.0	218.6	291.9	512.4	 2830	 6721	598.5	30.68	4.422	3.027	2.418	2.039	1.568	1.658	1.512	1.467	1.809	1.452	2.192	2.001	2.141	2.615	2.677	2.502	3.368	3.308	3.959	3.727	4.321	4.137	4.403	4.801	5.030	5.053	4.399	5.016	4.796	5.014	5.270	5.074	5.044	5.822	5.387	5.274	5.240	5.735	5.239	5.627	5.761	5.905
385.0	254.3	369.5	562.1	742.8	876.3	972.6	 1026	 1035	 1046	 1120	 1131	 1116	 1116	 1080	 1054	998.2	950.0	904.6	860.5	818.6	775.9	727.2	678.0	702.5	758.5	534.1	366.5	288.9	229.0	189.1	205.6	740.9	 3837	 5586	490.6	13.52	3.903	2.378	2.434	1.624	1.659	1.770	1.533	1.731	1.536	1.997	1.940	2.102	2.668	2.404	2.454	3.315	3.459	3.671	4.134	4.042	4.133	4.440	4.799	4.604	4.655	4.552	4.650	4.708	5.180	5.102	4.693	5.186	5.201	5.671	5.358	5.691	5.313	4.794	5.004	5.845	5.650
390.0	256.3	363.5	527.6	709.7	843.0	957.5	 1008	 1030	 1038	 1085	 1084	 1099	 1092	 1071	 1031	966.4	929.1	893.5	858.5	836.0	795.4	762.1	709.5	675.9	704.9	684.9	491.3	347.0	275.5	206.1	168.5	251.1	985.4	 3045	 4180	 1683	30.90	4.302	3.178	2.064	1.813	1.773	1.488	1.611	1.729	1.953	1.977	2.472	2.449	2.347	2.564	3.168	3.607	3.787	4.140	3.985	4.277	4.434	4.515	4.531	4.557	4.664	4.603	4.721	5.038	4.661	4.961	5.072	5.121	5.507	5.135	5.132	4.840	5.035	5.099	5.414	5.254
395.0	263.9	345.7	520.8	692.7	807.0	939.1	990.1	 1015	 1043	 1052	 1060	 1059	 1071	 1021	997.1	949.8	905.9	885.9	867.5	833.9	801.8	777.4	735.9	695.5	657.7	662.8	668.5	455.6	328.9	253.5	199.1	174.3	299.7	733.6	 1669	 4870	 2428	41.32	4.428	3.076	2.180	1.767	1.367	1.686	1.877	1.783	1.988	2.311	2.280	2.396	2.572	2.717	3.354	3.441	4.056	4.202	3.923	4.932	4.332	4.629	4.665	4.885	4.078	5.099	4.590	4.651	5.236	4.851	5.399	5.514	5.018	4.900	5.034	5.771	4.887	5.515	5.615
400.0	268.2	337.1	499.9	691.3	792.1	897.5	976.4	 1009	 1039	 1023	 1049	 1030	 1022	 1005	970.7	934.3	890.4	866.4	863.2	827.8	814.2	778.7	745.2	699.0	655.7	620.6	683.3	581.9	390.2	292.8	232.7	177.3	165.5	228.9	429.9	 2364	 5081	492.1	22.41	4.279	2.541	2.387	1.435	1.737	1.670	1.750	1.966	2.386	2.238	2.378	2.504	2.866	2.967	3.612	3.465	3.680	4.272	4.066	4.758	4.614	5.293	4.309	4.359	4.861	4.519	4.610	4.561	5.125	4.979	5.276	5.187	4.863	4.911	5.430	5.315	5.641	5.180
405.0	252.1	336.0	498.8	674.8	767.5	885.0	972.3	 1013	 1029	 1030	 1018	 1028	999.9	981.1	950.2	911.9	868.0	852.0	854.0	824.9	801.5	773.2	742.0	708.4	664.3	613.3	623.2	651.6	476.9	331.5	266.3	197.7	151.7	130.4	151.5	613.7	 3073	 3933	395.2	9.649	3.313	2.632	2.022	1.861	1.965	1.733	1.756	2.106	2.473	2.153	2.617	3.071	2.977	3.271	3.548	4.142	4.186	3.957	4.622	4.401	4.168	4.207	4.335	4.523	4.715	4.317	4.343	4.803	4.631	4.840	5.136	5.028	4.638	4.916	5.724	5.498	5.066
410.0	237.5	339.2	500.4	647.5	740.9	853.1	948.2	992.5	994.3	 1002	 1008	984.7	975.5	945.3	916.0	876.2	847.6	834.2	817.3	801.6	788.7	757.8	735.3	705.3	676.2	628.7	590.0	599.1	582.7	430.4	309.4	239.2	178.0	131.7	106.3	186.4	785.6	 2326	 3340	 1347	26.01	3.969	2.675	2.173	1.842	1.884	1.714	2.265	2.164	2.169	2.459	2.988	2.933	3.225	3.719	3.687	3.933	3.936	4.466	4.151	4.275	4.504	4.317	4.367	4.364	4.095	4.164	4.296	4.649	4.421	4.442	4.468	4.573	4.969	5.115	5.108	5.167
415.0	224.1	319.7	474.8	632.2	735.6	827.6	907.8	957.1	970.6	993.8	970.1	965.7	948.9	914.5	878.0	829.8	800.5	804.3	783.3	765.0	770.9	740.6	720.6	695.9	662.3	626.0	586.7	554.6	560.9	549.8	387.7	277.5	208.2	154.1	115.6	105.5	220.9	551.9	 1347	 3789	 1794	34.01	4.097	2.452	2.351	2.646	2.121	2.266	2.101	2.076	2.379	2.690	2.983	3.164	3.521	3.657	4.186	4.274	4.143	4.402	4.281	4.304	4.281	4.239	4.235	4.072	3.979	4.634	4.421	4.141	4.395	4.546	4.667	4.916	4.502	4.790	5.069
420.0	227.2	318.5	448.9	601.3	682.6	807.0	880.0	922.1	969.1	975.3	949.7	938.4	902.1	882.0	857.7	801.7	777.0	766.3	760.2	737.6	733.3	717.3	709.8	683.4	655.0	633.7	596.6	546.3	518.7	553.9	472.8	314.7	230.0	173.7	128.8	97.52	102.9	160.8	340.2	 1860	 3856	446.0	19.16	3.480	2.754	2.287	2.304	2.271	1.794	1.863	2.577	2.632	2.820	2.698	3.396	3.612	3.521	4.042	4.259	4.774	3.883	4.164	4.043	3.960	3.858	4.290	3.774	4.401	4.103	4.438	4.296	4.413	4.722	4.490	4.289	4.227	4.835
425.0	210.3	326.3	424.4	591.1	671.4	790.4	843.0	940.2	942.4	959.4	931.2	930.5	882.7	853.9	818.0	772.3	741.6	737.4	732.1	727.0	706.5	697.5	696.9	664.0	652.7	619.9	589.8	551.0	513.0	505.0	508.0	377.8	248.3	192.1	142.8	108.0	85.80	81.08	108.0	478.0	 2359	 3246	355.6	8.134	3.083	2.646	2.346	2.238	1.740	2.171	2.371	2.558	3.136	2.639	3.312	3.124	3.411	3.879	3.913	4.255	3.899	4.275	4.153	3.919	3.678	4.273	4.177	4.233	3.899	3.918	4.496	4.125	4.490	4.556	4.203	4.312	4.697
430.0	559.1	301.7	423.7	557.8	650.7	731.2	829.0	892.5	930.7	931.6	912.9	891.5	856.0	819.9	788.5	733.3	704.3	692.6	699.2	683.9	674.2	663.3	656.6	645.4	633.8	607.4	577.9	547.0	510.2	476.1	464.2	444.6	317.1	220.2	165.7	125.8	94.51	76.02	65.65	137.1	599.2	 1825	 2629	 1071	23.36	3.441	2.658	2.239	2.035	2.003	2.099	2.361	2.985	2.656	3.032	3.040	3.525	3.941	3.844	3.957	4.327	3.985	4.027	3.727	4.100	3.995	4.088	3.938	3.776	4.134	3.921	3.892	4.096	3.852	4.213	4.273	4.457
435.0	 1364	397.9	391.6	511.3	614.2	691.1	780.3	840.4	897.7	917.5	882.5	881.9	827.8	794.9	751.1	682.8	663.6	658.0	659.2	641.1	634.6	633.6	622.4	614.6	607.5	585.4	574.0	541.2	511.1	475.1	436.8	418.7	392.6	272.0	188.6	147.9	114.2	85.73	67.49	68.88	162.2	430.3	 1042	 3032	 1509	30.41	3.844	2.809	2.414	2.294	2.209	2.458	2.494	2.778	3.010	3.134	3.592	3.300	3.886	3.853	4.071	3.971	3.858	3.746	3.903	3.919	4.248	4.026	4.011	3.814	3.683	3.636	3.725	3.301	4.209	4.110	3.755
440.0	 1716	819.2	366.0	483.4	603.9	672.1	746.4	814.0	866.0	898.4	870.4	845.8	791.2	761.0	711.0	653.6	643.1	622.7	614.5	613.0	606.0	598.1	590.5	593.4	580.2	568.8	554.1	534.6	512.0	476.0	430.7	387.7	393.8	327.8	214.7	160.7	126.7	97.77	75.80	59.53	68.99	120.6	260.4	 1486	 3266	407.0	16.58	3.155	2.737	2.459	2.416	2.380	2.481	2.602	3.027	3.007	3.638	3.323	4.139	3.904	4.095	3.790	3.575	3.852	4.179	3.942	3.716	3.675	3.865	3.492	4.032	3.747	3.381	3.491	3.682	4.125	3.554
445.0	 1350	 1667	375.5	484.4	581.1	659.8	735.3	791.1	855.6	875.4	855.4	820.9	769.8	722.4	685.3	640.7	605.5	598.8	583.9	581.3	568.6	576.0	566.0	567.2	559.4	554.6	546.3	524.1	495.1	474.4	427.5	380.2	354.4	351.3	252.9	176.5	135.1	104.7	82.88	64.33	53.19	55.84	80.51	378.3	 2002	 2912	299.3	7.640	3.178	2.582	2.233	2.852	2.365	2.491	2.583	3.263	3.358	3.048	3.684	3.890	3.761	4.134	3.437	3.888	3.826	3.787	3.737	3.580	3.637	3.545	3.585	3.499	3.617	3.579	3.123	3.678	3.763
450.0	578.5	 2501	956.4	440.0	514.6	610.1	700.5	749.4	838.0	833.2	817.8	782.8	742.2	679.3	644.8	603.4	572.8	563.8	546.5	543.6	534.2	533.6	523.2	527.2	523.7	517.6	515.6	499.6	476.8	456.6	419.5	375.7	333.2	314.0	288.3	212.4	151.1	118.0	92.54	74.30	58.85	49.12	45.82	104.9	507.3	 1649	 2443	973.4	19.86	3.411	2.723	2.763	2.574	2.726	2.690	2.891	3.094	3.354	3.686	3.620	3.284	3.952	3.519	3.649	3.608	3.496	3.424	3.394	3.460	3.747	3.435	3.311	3.576	3.431	3.161	3.398	3.603
455.0	245.6	 1589	 2433	531.3	492.0	570.4	645.9	715.9	775.5	780.3	762.8	748.3	696.0	647.2	602.0	557.8	529.6	508.2	505.3	487.6	481.8	486.2	480.2	483.9	487.0	487.2	479.9	464.3	453.9	433.2	401.1	360.5	319.0	281.3	263.1	254.4	179.4	129.7	104.3	82.40	67.91	53.43	43.55	47.75	133.0	383.8	946.3	 2733	 1310	23.83	3.598	2.878	2.670	2.591	2.750	2.661	2.954	3.065	3.075	3.278	3.539	3.744	3.477	3.540	3.281	3.114	3.418	3.463	3.388	3.318	3.158	3.289	3.047	3.023	2.846	3.131	3.045
460.0	170.8	692.6	 2935	 1096	467.1	523.1	609.3	665.8	738.4	755.8	742.7	719.9	656.6	601.4	575.1	519.7	499.1	471.9	463.4	455.6	455.7	449.8	451.8	456.0	456.0	458.3	449.9	440.6	432.8	412.7	392.7	352.3	309.5	266.9	242.1	249.0	211.4	142.8	112.2	86.68	72.58	58.46	46.34	38.68	50.84	104.1	232.3	 1317	 2856	316.3	13.13	3.301	2.636	2.616	2.624	2.601	2.868	2.689	3.072	3.423	3.171	3.621	3.224	3.396	2.969	2.987	2.983	3.197	3.325	3.103	2.998	3.070	3.070	2.848	2.566	3.092	2.797
465.0	148.1	321.0	 2151	 2614	489.8	489.8	558.8	631.0	707.2	717.8	704.6	652.6	632.7	582.0	532.9	492.0	462.5	446.2	434.6	423.7	425.0	418.5	419.7	423.3	424.7	423.7	421.8	413.6	412.4	394.1	373.3	338.4	298.9	263.3	230.1	217.0	220.0	165.7	118.6	94.02	78.60	62.27	49.35	39.56	35.54	43.88	68.06	332.5	 1739	 2386	245.1	6.161	3.345	2.885	2.521	2.931	2.688	2.809	3.130	3.065	2.923	3.060	3.005	2.902	3.577	3.265	2.909	3.070	3.143	3.145	2.711	2.928	2.703	2.549	2.494	2.915	2.747
470.0	155.7	216.2	895.1	 4188	 1523	459.7	517.9	594.9	643.8	656.5	646.8	627.5	583.9	541.5	487.6	451.4	421.2	397.8	393.4	386.0	380.5	379.6	379.3	377.2	380.8	382.8	383.6	378.8	379.4	367.6	346.2	318.7	283.5	248.4	220.0	193.9	187.3	181.1	138.2	99.07	81.79	66.50	53.41	44.02	35.51	32.51	33.07	88.82	435.2	 1336	 1834	760.7	19.04	3.414	2.633	2.835	2.559	2.808	2.886	3.103	2.791	2.758	2.884	2.737	3.180	2.995	2.658	2.848	2.775	2.968	2.623	2.338	2.557	2.301	2.491	2.709	2.616
475.0	149.4	181.0	363.4	 2311	 3212	535.0	474.4	531.9	576.4	577.5	586.5	578.8	525.0	481.1	447.4	403.5	376.1	360.5	352.3	350.0	336.9	335.3	333.1	335.7	338.6	338.7	340.1	344.1	340.2	334.8	316.2	295.6	264.0	235.2	209.0	181.4	163.6	163.5	156.0	115.2	84.10	69.34	57.13	46.90	39.75	32.58	27.63	36.52	110.8	309.5	691.7	 1890	364.9	24.26	2.912	2.835	2.599	2.657	2.605	2.683	2.474	2.709	2.814	2.767	2.779	2.561	2.481	2.296	2.404	2.182	2.513	2.349	1.991	2.335	2.321	2.464	2.452
480.0	138.4	178.9	238.0	889.6	 3940	 1002	449.6	511.2	536.1	552.5	560.1	527.7	488.3	447.7	409.2	372.1	347.0	330.8	321.1	315.0	314.0	305.4	307.6	308.3	307.5	312.5	313.6	317.6	315.0	307.0	296.3	276.5	248.6	220.6	197.5	171.8	153.3	143.1	148.2	131.1	92.76	71.76	57.20	48.46	39.96	34.84	27.52	25.42	38.82	80.40	168.3	839.8	 1872	342.7	11.52	2.984	2.513	2.258	2.526	2.404	2.286	2.637	2.952	2.208	2.532	2.591	2.517	2.213	2.128	2.477	2.144	2.179	2.173	2.087	2.185	2.240	2.436
485.0	118.3	188.7	222.2	399.5	 3073	 2371	466.4	467.8	497.7	529.9	514.6	499.1	459.1	412.9	386.1	353.4	323.5	308.9	294.4	292.5	289.2	280.7	282.9	279.1	288.0	287.7	290.5	295.4	289.0	284.9	271.5	258.7	241.4	211.8	188.7	165.8	148.4	131.4	130.2	133.8	104.5	74.64	60.62	49.54	42.42	36.27	29.78	24.56	25.02	29.76	48.26	209.0	 1134	 1746	255.0	5.389	2.784	2.041	2.212	2.367	2.517	2.629	2.662	2.125	2.256	2.208	2.320	2.023	2.114	2.598	1.803	1.973	2.089	1.814	1.885	2.215	2.461
490.0	88.13	167.4	200.6	274.5	 1189	 3528	 2674	415.1	448.3	480.9	477.3	453.5	431.0	378.0	350.2	318.3	294.1	273.1	266.7	259.6	258.9	252.7	250.8	254.4	254.9	260.1	260.7	260.4	262.6	260.4	254.5	239.5	218.9	195.5	176.5	156.7	138.3	125.9	113.0	115.5	111.9	86.77	63.34	52.25	44.70	37.02	31.78	26.52	22.06	20.01	21.54	55.40	280.7	906.7	 1424	633.4	19.25	2.938	2.461	2.343	2.345	2.388	2.431	2.182	2.273	2.038	2.004	1.987	1.891	2.156	1.949	1.710	1.759	1.645	1.928	1.783	1.799
495.0	83.99	131.5	212.1	232.3	444.5	 2287	 5938	496.7	426.6	415.2	423.7	411.1	378.4	343.2	318.6	279.5	260.2	243.9	238.5	231.5	229.0	225.3	219.5	222.2	227.0	227.7	234.1	231.6	232.0	232.1	229.7	215.1	199.0	178.6	162.0	146.6	130.5	116.7	104.6	96.98	97.39	95.89	70.63	53.44	44.79	37.68	31.90	28.60	23.29	19.94	16.78	21.85	70.31	209.0	530.8	 1584	391.6	24.84	2.902	2.597	2.274	2.168	1.819	2.030	1.971	1.688	1.846	2.068	1.651	1.789	1.663	1.447	1.504	1.611	1.667	1.755	1.750
500.0	79.27	105.9	202.6	208.6	277.5	910.0	 5178	829.8	372.4	380.4	383.2	376.4	350.5	318.3	291.3	258.7	233.6	225.7	216.2	210.2	206.2	206.5	203.1	201.7	201.1	205.4	208.2	205.1	211.5	209.5	207.8	194.0	180.3	163.4	150.0	137.1	121.0	109.3	98.54	88.12	84.54	91.86	79.27	55.50	43.93	39.18	32.18	29.95	23.48	20.15	16.16	15.03	23.81	53.54	127.6	698.9	 1665	351.7	11.84	2.803	2.318	1.880	1.797	1.870	1.603	1.708	1.873	1.846	1.740	1.492	1.675	1.565	1.528	1.532	1.503	1.492	1.455
505.0	71.98	88.42	154.7	216.8	221.0	411.1	 2859	 2021	375.1	362.0	351.0	340.9	312.0	293.5	262.1	233.5	213.9	209.6	195.3	190.5	189.1	183.9	186.5	181.2	183.9	184.8	190.9	189.6	193.3	191.7	189.7	175.8	167.5	152.8	137.9	124.2	112.6	100.5	92.42	84.75	75.72	77.79	81.13	63.46	45.73	38.05	32.47	28.92	23.60	19.91	16.62	12.96	13.17	18.70	34.36	171.0	958.4	 1611	264.9	5.219	2.500	1.828	1.639	1.881	1.780	1.714	1.817	1.744	1.546	1.415	1.315	1.434	1.404	1.369	0.987	1.451	1.079
510.0	55.64	87.13	120.9	220.7	207.5	254.8	 1029	 2482	 1047	321.0	319.4	304.1	284.2	262.3	227.0	208.6	191.7	183.5	171.4	170.0	167.2	164.4	165.3	159.3	161.2	163.1	164.7	167.6	169.8	170.6	167.8	159.1	148.6	134.5	124.0	115.3	104.0	92.50	86.12	76.91	68.86	65.11	68.63	66.40	51.47	38.60	32.90	27.95	23.83	20.14	16.91	13.70	11.73	11.09	14.00	43.74	235.7	814.9	 1246	532.0	18.75	2.463	1.740	1.664	1.555	1.477	1.500	1.430	1.422	1.285	1.336	1.164	1.258	1.043	1.121	1.203	1.250
515.0	63.51	86.50	93.79	179.6	235.6	201.2	390.0	 1343	 2439	412.2	285.0	272.9	242.7	239.6	203.7	185.2	163.5	157.4	154.3	148.0	142.1	141.3	138.7	138.8	137.8	141.7	143.0	144.6	144.8	149.9	143.9	135.7	128.9	117.2	109.9	102.0	93.87	83.17	78.02	68.21	60.89	56.42	53.30	57.06	57.25	43.22	31.65	26.45	23.52	20.32	16.39	13.90	11.69	9.920	9.312	15.24	57.68	186.6	447.8	 1324	386.1	21.58	2.163	1.907	1.611	1.528	1.027	1.206	1.206	1.259	1.252	1.063	1.035	0.863	1.192	0.783	1.178
520.0	50.94	66.34	96.98	134.9	241.5	183.5	227.4	549.2	 2678	 1073	246.9	248.8	214.4	209.8	182.5	163.8	148.0	141.3	139.5	132.6	127.9	123.7	126.0	124.4	121.9	126.9	124.2	127.3	129.4	134.9	129.8	122.6	114.6	107.2	98.15	91.87	83.19	76.19	71.41	63.34	57.93	52.43	47.94	48.36	54.34	47.03	32.56	26.30	22.81	19.75	16.55	14.14	12.21	9.879	8.314	9.719	17.75	46.16	106.7	584.9	 1318	322.6	8.519	1.994	1.423	1.198	1.218	1.132	1.222	1.077	0.971	0.957	0.981	0.756	1.026	0.862	0.977
525.0	41.69	61.36	84.12	105.1	213.8	196.5	169.7	281.2	 1759	 2246	266.4	216.3	201.9	187.1	168.4	147.6	137.5	128.7	121.7	118.7	117.0	112.5	114.1	111.3	109.3	112.6	114.3	119.3	117.5	119.7	118.0	113.3	105.1	98.23	90.26	84.55	77.50	70.97	65.66	58.98	54.37	48.60	43.39	42.52	45.11	46.81	36.42	26.55	22.24	19.74	15.60	13.36	11.34	9.836	8.479	7.813	8.364	14.81	27.77	142.4	745.4	 1207	52.21	3.477	1.501	1.637	1.175	1.276	1.160	1.017	0.857	0.651	1.057	0.799	0.685	0.880	0.855
530.0	37.29	55.84	71.69	96.82	148.8	218.4	153.7	197.4	672.3	 2583	953.9	196.9	177.2	166.3	145.9	129.7	120.2	113.3	105.0	103.3	101.2	97.52	100.6	96.77	99.47	96.83	99.16	100.8	102.5	103.6	101.1	96.09	93.57	87.23	79.04	73.54	68.87	63.36	57.39	53.28	49.77	43.62	40.41	37.60	36.44	39.02	39.95	30.40	21.77	18.08	15.35	12.85	11.12	10.20	8.273	7.896	6.563	8.151	10.55	35.36	182.7	610.9	880.6	223.7	15.49	1.644	1.066	1.004	0.859	0.891	0.740	0.842	0.882	0.562	0.631	0.844	0.813
535.0	39.80	47.43	65.53	78.52	106.4	195.4	168.8	150.5	269.7	 1246	 2411	302.2	152.8	147.8	126.0	113.3	100.1	94.27	92.38	89.64	86.57	83.76	84.11	80.20	83.48	80.49	84.29	87.20	87.88	87.07	86.47	85.74	77.74	74.45	68.51	63.77	57.80	54.93	51.02	46.97	43.91	39.25	34.56	32.72	30.53	30.30	33.99	33.12	23.81	17.02	14.20	12.52	10.37	9.146	8.267	7.852	6.047	5.998	6.585	11.71	43.73	139.5	326.8	920.9	353.4	16.55	1.089	1.113	0.978	0.943	0.711	0.873	0.689	0.519	0.382	0.401	0.533
540.0	27.49	41.65	49.75	65.92	85.24	156.4	207.5	123.9	164.7	465.4	 2581	903.4	145.7	130.5	114.7	102.1	93.52	86.70	82.01	78.70	75.78	74.48	74.46	75.05	72.87	71.91	72.91	77.72	77.02	77.16	79.15	73.72	70.16	64.86	59.44	57.52	52.97	47.65	45.18	41.94	39.37	35.00	32.43	29.38	27.78	26.08	26.63	31.64	27.66	17.79	13.72	11.68	9.461	9.308	8.476	7.692	5.975	5.630	5.231	6.103	12.94	34.13	77.57	419.8	956.1	262.7	4.810	1.119	1.249	0.886	0.753	0.612	0.730	0.537	0.573	0.395	0.472
545.0	24.53	41.67	49.52	66.03	74.10	107.6	208.8	132.8	131.2	212.0	 1613	 2012	156.9	113.6	103.9	90.37	81.40	76.00	72.36	70.55	66.11	66.37	62.91	64.35	62.60	66.15	65.07	68.33	68.70	67.22	69.19	67.50	60.98	57.79	52.97	49.62	48.21	43.73	40.93	38.28	34.86	31.98	29.42	26.92	25.29	22.62	22.94	26.19	28.04	20.48	13.42	10.46	9.028	8.527	7.900	6.897	6.786	5.515	4.990	4.503	5.646	10.21	19.65	102.2	559.8	838.0	49.04	1.968	1.005	0.560	0.727	0.776	0.719	0.543	0.433	0.547	0.491
550.0	34.01	36.98	44.15	54.82	61.10	82.86	164.0	170.4	116.5	141.3	554.5	 2258	800.6	96.33	88.29	75.44	68.92	65.17	61.06	58.03	54.97	55.67	53.23	52.55	53.43	55.15	54.89	54.94	57.32	56.56	58.64	55.38	52.48	49.37	46.00	41.25	39.83	37.67	34.66	31.92	29.58	27.39	25.51	22.56	22.39	19.77	18.90	19.56	22.13	21.20	14.25	9.996	8.673	7.626	7.048	6.310	6.437	5.958	4.893	4.335	4.021	4.792	6.392	24.99	137.4	439.4	496.3	201.9	11.60	0.838	0.814	0.608	0.640	0.445	0.330	0.328	0.425
555.0	26.02	34.77	36.05	43.35	54.21	56.85	97.34	190.3	116.0	113.2	207.1	973.2	 2230	167.3	71.06	61.19	54.94	53.02	51.72	47.92	46.61	43.81	44.98	42.05	43.64	44.28	44.12	46.28	45.42	46.55	45.28	43.33	41.39	38.89	37.75	35.75	32.62	30.07	28.19	26.13	23.92	22.77	20.78	19.08	18.66	16.65	15.92	14.95	15.27	17.60	15.53	10.33	7.646	6.485	5.934	5.272	5.090	5.544	4.878	3.802	3.205	3.080	3.102	7.507	32.19	99.99	213.5	626.4	268.0	8.513	0.721	0.625	0.573	0.535	0.474	0.407	0.173
560.0	24.24	30.20	44.34	45.33	44.56	54.54	66.79	153.1	140.6	100.8	120.7	330.7	 2347	359.5	61.57	51.27	47.75	45.26	43.29	39.79	39.75	36.91	38.85	36.47	36.33	37.12	38.66	40.27	38.71	39.59	38.90	37.05	35.93	33.87	32.74	29.01	27.90	24.68	24.54	21.97	21.57	19.54	18.70	17.38	15.66	13.81	13.73	12.94	11.93	13.45	15.16	11.98	7.736	6.170	5.341	5.410	4.477	4.869	4.739	4.331	3.368	2.762	2.592	3.655	8.925	23.95	51.03	302.8	607.5	54.12	2.575	0.578	0.519	0.342	0.363	0.461	0.125
565.0	31.64	29.86	34.13	48.67	35.95	49.78	53.89	120.1	177.7	90.20	94.34	144.0	 1349	 1596	69.30	45.62	42.07	37.44	37.25	33.98	32.11	33.80	32.41	29.14	31.55	32.98	32.00	32.63	32.61	33.47	31.78	31.34	29.47	29.15	26.80	24.49	22.88	21.42	20.72	19.30	18.60	17.09	15.21	14.60	13.09	12.43	10.73	11.06	9.800	9.866	12.54	11.84	7.923	5.940	5.317	4.274	4.374	4.044	4.261	4.187	2.815	2.709	2.332	2.542	3.486	7.041	12.79	74.99	373.6	430.6	41.41	1.212	0.677	0.472	0.257	0.252	0.211
570.0	26.76	30.66	32.89	40.87	33.97	40.34	43.25	73.64	174.0	110.0	82.85	94.31	426.7	 1884	576.3	39.99	33.17	30.86	29.40	27.52	26.74	26.58	24.98	24.11	24.80	24.76	26.22	25.82	24.99	26.26	25.25	24.55	23.46	22.84	21.79	20.54	18.37	17.57	16.24	15.41	14.38	14.31	12.47	11.94	10.84	10.54	9.122	8.321	7.952	7.528	7.931	9.389	8.415	5.667	4.629	3.601	3.720	3.528	3.359	3.526	2.982	2.844	2.336	2.400	2.285	3.274	4.419	17.99	93.61	262.5	346.0	131.2	5.333	0.496	0.341	0.231	0.137
575.0	18.35	32.98	25.02	35.00	31.32	31.64	37.38	43.82	113.6	157.5	78.98	80.10	148.6	775.0	 1753	87.26	27.47	25.16	24.12	22.38	20.18	19.83	20.52	18.96	19.39	18.43	19.28	19.42	19.79	20.53	20.59	19.84	19.17	18.77	16.91	15.62	14.49	13.36	12.50	12.66	11.69	10.63	10.27	9.590	8.863	8.392	7.716	7.057	6.251	5.936	5.239	6.313	7.204	6.120	4.403	2.934	2.834	2.989	2.981	2.960	2.736	2.809	2.366	2.264	1.962	2.334	2.464	5.430	22.03	60.00	146.4	368.7	54.73	3.757	0.318	0.071	0.091
580.0	24.80	35.54	31.81	28.95	26.49	31.88	32.91	43.43	73.66	164.9	85.50	71.20	85.33	247.6	 1846	250.5	22.23	21.12	19.59	18.30	18.32	17.51	17.78	15.66	15.66	17.13	16.62	15.84	17.92	16.67	16.35	15.56	15.40	14.08	13.83	13.38	12.28	11.26	10.79	10.76	10.11	8.658	7.961	7.894	7.333	7.364	6.754	5.551	5.275	5.142	4.385	4.437	5.744	6.182	4.696	2.969	2.650	2.679	2.524	2.611	2.452	2.590	2.782	2.334	2.111	1.804	1.849	2.317	6.038	14.57	35.24	188.7	322.2	46.76	1.379	0.214	0.181
585.0	30.09	35.93	31.33	32.10	19.53	26.01	29.60	34.96	52.11	146.3	114.5	71.49	64.47	93.84	 1055	 1199	28.61	17.76	17.76	15.73	15.39	14.30	14.68	13.17	12.82	13.98	13.61	12.97	14.10	13.48	13.97	13.36	13.28	12.09	11.79	11.19	10.37	10.23	9.084	8.965	8.592	7.526	7.475	7.177	5.753	6.015	5.563	5.098	4.619	4.194	3.989	3.905	3.785	5.241	4.950	3.637	2.423	2.335	2.247	2.045	1.982	2.286	2.918	2.271	1.875	1.680	1.376	1.837	2.451	4.199	9.054	47.84	224.4	270.9	31.23	0.322	0.226
590.0	21.71	30.94	25.11	30.08	21.06	28.13	27.20	30.98	39.55	94.28	148.2	74.98	61.54	55.86	316.4	 1424	374.5	15.43	13.27	13.00	12.60	11.52	11.41	10.50	10.49	11.00	10.94	11.34	11.30	11.21	11.58	11.61	10.52	9.695	9.143	9.077	8.646	8.093	7.188	7.066	6.683	5.915	5.759	5.585	4.793	4.287	4.536	4.123	3.626	3.482	3.414	3.058	2.755	3.457	4.484	3.815	2.496	2.097	1.704	1.653	1.832	1.878	2.116	2.356	1.944	1.549	1.512	1.497	1.506	1.895	2.887	11.48	57.30	165.7	205.4	35.40	2.998
595.0	13.54	25.71	27.45	22.67	24.37	18.00	20.99	30.38	35.03	55.74	137.2	104.0	56.59	44.74	97.86	569.7	 1191	42.41	11.70	10.59	9.950	8.554	8.990	8.266	9.638	8.999	8.623	8.515	8.908	8.879	9.546	9.103	8.697	7.864	7.095	7.314	7.044	6.821	5.659	5.391	5.454	4.573	4.713	4.458	3.838	3.890	3.951	3.097	3.056	2.709	2.536	2.312	1.985	2.099	2.910	3.579	2.953	1.818	1.636	1.486	1.353	1.465	1.422	1.650	1.794	1.573	1.371	1.151	1.037	1.095	1.397	3.224	13.10	37.67	92.20	207.9	49.80
600.0	11.66	19.27	25.35	19.94	20.68	19.46	24.58	27.34	35.14	45.18	101.5	127.2	57.86	44.37	48.10	167.6	 1273	172.3	9.298	8.709	8.064	8.190	8.311	7.622	8.141	7.551	6.588	6.813	7.338	7.537	7.388	7.136	6.900	6.165	6.188	6.175	5.646	5.194	4.829	4.935	4.238	3.968	3.831	3.662	3.564	3.051	3.317	2.712	2.420	2.356	2.029	1.850	2.091	1.827	2.177	2.883	2.935	2.109	1.496	1.284	1.174	0.976	1.067	1.162	1.473	1.871	1.315	1.049	0.925	0.789	0.997	1.231	3.057	8.625	22.33	116.1	188.3
605.0	20.45	21.54	26.57	18.07	17.26	18.06	23.13	26.09	30.08	45.88	76.14	144.9	68.67	42.99	32.69	55.22	731.0	763.7	14.18	8.428	7.402	7.180	7.042	6.183	7.189	5.706	5.617	6.078	6.887	6.019	6.110	6.165	6.120	5.469	5.404	5.250	4.854	4.150	4.163	3.989	3.870	3.358	3.239	3.275	2.737	2.609	2.745	2.398	2.359	2.063	1.791	1.603	1.396	1.305	1.543	2.125	2.739	2.476	1.512	0.997	1.217	1.135	1.084	1.134	1.253	1.522	1.080	1.205	0.862	0.593	0.782	0.734	0.947	2.098	5.169	29.65	133.5
610.0	16.97	20.09	22.47	20.73	14.87	17.75	21.24	24.37	33.24	42.29	58.34	111.6	99.22	44.39	31.86	28.99	213.9	975.4	246.9	6.563	6.025	4.878	5.471	5.283	5.407	5.354	4.922	4.921	4.848	4.703	5.097	5.021	5.087	4.255	4.151	4.366	3.563	3.716	3.344	3.121	3.244	2.513	2.511	2.280	2.296	2.190	2.007	1.729	1.915	1.779	1.554	1.231	1.135	1.296	1.120	1.387	1.846	2.190	1.767	0.988	0.947	0.792	0.901	0.877	0.973	1.095	1.132	0.903	0.677	0.610	0.665	0.440	0.550	0.776	1.289	6.773	34.15
615.0	10.32	16.53	23.18	26.46	20.06	19.01	23.91	21.69	32.67	41.99	54.56	80.01	120.9	48.68	30.64	22.24	58.86	403.2	828.7	22.35	4.638	4.662	3.789	4.087	3.868	3.734	3.504	3.382	4.219	3.865	4.185	3.436	4.059	2.882	3.217	3.368	3.245	2.632	2.570	2.648	2.275	1.951	2.137	1.873	1.658	1.934	1.716	1.275	1.420	1.334	1.154	0.805	0.953	1.087	0.787	1.108	1.026	1.478	2.006	1.344	0.897	0.570	0.555	0.968	0.647	0.723	0.883	1.012	0.778	0.504	0.695	0.450	0.486	0.314	0.386	1.589	7.710
620.0	13.45	19.65	19.42	18.23	19.47	20.35	19.11	23.85	27.88	38.90	50.35	61.21	109.5	68.84	31.65	21.48	24.36	116.6	938.5	129.6	4.432	3.877	3.623	3.593	3.515	3.164	3.156	3.465	3.195	3.147	2.882	2.735	3.196	2.722	2.626	2.671	2.661	2.303	1.936	2.110	1.813	1.940	1.463	1.379	1.697	1.453	1.371	1.339	1.151	1.193	1.126	1.013	0.784	0.821	0.630	0.702	0.686	1.020	1.525	1.302	0.870	0.511	0.602	0.783	0.473	0.422	0.666	0.886	0.849	0.514	0.495	0.462	0.259	0.303	0.275	0.422	1.876
625.0	15.66	15.86	21.20	18.20	12.89	14.47	21.49	21.59	27.53	35.48	45.76	55.41	86.34	88.58	32.13	22.59	16.19	36.11	555.1	557.6	6.794	3.134	3.086	2.740	3.003	2.672	3.086	2.930	2.629	2.660	2.406	2.374	2.498	2.521	2.444	2.468	2.216	1.948	1.669	1.870	1.364	1.795	1.202	1.414	1.496	1.245	0.987	1.132	0.881	0.961	0.905	0.836	0.719	0.522	0.472	0.654	0.716	0.711	1.082	1.035	1.096	0.641	0.591	0.548	0.452	0.583	0.533	0.522	0.550	0.670	0.546	0.514	0.261	0.321	0.205	0.136	0.463
630.0	8.483	11.69	20.59	18.65	10.54	16.88	18.52	22.22	26.36	34.74	41.15	50.66	62.75	98.99	43.03	22.71	15.65	17.81	161.1	738.2	94.25	3.159	2.863	2.465	2.492	2.302	2.289	2.201	1.979	2.205	2.195	2.107	1.949	1.724	1.779	1.950	1.693	1.331	1.431	1.344	1.189	1.093	1.003	0.974	1.020	0.884	0.907	0.832	0.815	0.817	0.629	0.631	0.564	0.472	0.534	0.366	0.473	0.350	0.610	0.910	0.996	0.622	0.497	0.548	0.349	0.607	0.443	0.380	0.604	0.555	0.691	0.343	0.206	0.132	0.155	0.142	0.202
635.0	7.990	12.94	19.36	14.75	12.46	13.58	20.03	20.45	27.29	29.73	37.38	46.60	52.37	74.34	67.13	24.49	15.69	12.81	41.95	320.8	584.1	12.86	2.708	1.715	1.803	2.251	2.126	1.772	1.866	1.801	1.602	1.464	1.380	1.355	1.281	1.387	1.606	1.378	1.122	1.097	1.094	0.923	0.845	0.804	0.808	0.665	0.746	0.802	0.605	0.588	0.501	0.528	0.503	0.319	0.394	0.413	0.390	0.406	0.460	0.555	0.655	0.847	0.402	0.546	0.293	0.506	0.449	0.262	0.409	0.402	0.516	0.530	0.200	0.176	0.015	0.112	0.056
640.0	8.742	11.48	20.17	21.14	13.31	12.15	19.38	17.53	27.20	32.40	37.54	43.35	47.66	60.18	76.05	29.57	16.25	12.32	15.73	92.06	717.3	96.29	2.061	1.701	1.276	1.529	1.732	1.716	1.214	1.835	1.476	1.311	1.038	1.029	1.201	0.919	1.047	1.259	0.876	0.860	1.052	0.712	0.806	0.517	0.656	0.582	0.620	0.653	0.533	0.710	0.437	0.375	0.348	0.233	0.300	0.511	0.292	0.356	0.265	0.448	0.580	0.883	0.482	0.495	0.238	0.393	0.239	0.239	0.434	0.286	0.390	0.587	0.386	0.243	-0.097	0.181	-0.025
645.0	17.59	13.18	21.28	15.91	15.70	13.91	12.22	17.65	22.58	30.71	37.64	44.90	44.00	49.86	74.39	35.45	17.01	12.36	9.800	26.77	458.5	396.0	3.409	1.672	1.436	1.006	1.368	1.327	1.352	1.213	1.248	0.894	1.048	1.285	1.273	0.805	0.816	0.839	0.715	0.878	0.686	0.732	0.676	0.395	0.504	0.539	0.459	0.572	0.447	0.679	0.407	0.389	0.273	0.275	0.252	0.314	0.310	0.236	0.291	0.316	0.394	0.765	0.560	0.388	0.451	0.326	0.124	0.265	0.273	0.226	0.236	0.249	0.373	0.157	0.033	0.150	0.097
650.0	22.86	18.15	25.92	18.66	18.05	12.08	14.55	16.87	21.60	29.56	35.23	39.97	43.95	46.57	62.29	51.31	17.05	12.79	9.765	11.88	163.1	625.2	29.40	1.442	1.052	1.296	1.589	1.138	0.834	0.943	0.868	0.831	1.083	0.889	0.933	0.711	0.773	0.523	0.700	0.671	0.605	0.471	0.557	0.417	0.420	0.500	0.337	0.544	0.193	0.478	0.279	0.344	0.223	0.254	0.231	0.204	0.265	0.113	0.195	0.253	0.311	0.326	0.381	0.349	0.519	0.221	0.174	0.051	0.224	0.156	0.143	0.156	0.184	0.323	0.157	0.193	0.077
