Sample:	'1
File name:	T2025031401Ê¤ÀûºÓ5.FD3
Run date:	'09:17:02, 03/17/2025
Operator:	Administrator
Comment:	'

Instrument
Model:	F-2700 FL Spectrophotometer
Serial number:	23B8-004
ROM Version:	4J14000 07

Instrument parameters
Measurement type:	3-D scan
Data mode:	Fluorescence
EX  Start WL:	220.0 nm
EX  End WL:	600.0 nm
EX Sampling interval:	5.0 nm
EM  Start WL:	230.0 nm
EM  End WL:	650.0 nm
EM Sampling interval:	5.0 nm
Scan speed:	12000 nm/min
EX Slit:	5.0 nm
EM Slit:	5.0 nm
PMT Voltage:	700 V
Response:	Auto 
Corrected spectra:	Off
Contour interval:	50.000

Peak integration
Integration method:	Rectangular
Sensitivity:	1
Threshold:	1.000

Peaks
No.	ApexEX/EM(nm)	Height(Data)
1	230.0/580.0	50.10
2	230.0/640.0	110.4
3	235.0/340.0	5007
4	240.0/265.0	385.2
5	240.0/520.0	263.3
6	245.0/270.0	377.0
7	245.0/535.0	218.4
8	250.0/275.0	492.0
9	250.0/550.0	172.4
10	255.0/280.0	603.6
11	255.0/560.0	147.0
12	260.0/575.0	118.6
13	265.0/585.0	112.5
14	275.0/320.0	4269
15	275.0/615.0	235.0
16	280.0/385.0	1990
17	280.0/405.0	1653
18	280.0/625.0	214.8
19	320.0/405.0	708.6
20	335.0/385.0	648.2
21	335.0/405.0	738.3
22	355.0/385.0	666.9
23	355.0/405.0	831.3
24	370.0/405.0	668.1
25	370.0/425.0	480.9
26	430.0/505.0	30.47
27	445.0/525.0	18.67
28	475.0/340.0	15.75
29	505.0/275.0	3.005
30	515.0/280.0	3.214
31	520.0/285.0	3.829
32	560.0/320.0	19.96
33	570.0/385.0	10.22

Data points
	220.0	225.0	230.0	235.0	240.0	245.0	250.0	255.0	260.0	265.0	270.0	275.0	280.0	285.0	290.0	295.0	300.0	305.0	310.0	315.0	320.0	325.0	330.0	335.0	340.0	345.0	350.0	355.0	360.0	365.0	370.0	375.0	380.0	385.0	390.0	395.0	400.0	405.0	410.0	415.0	420.0	425.0	430.0	435.0	440.0	445.0	450.0	455.0	460.0	465.0	470.0	475.0	480.0	485.0	490.0	495.0	500.0	505.0	510.0	515.0	520.0	525.0	530.0	535.0	540.0	545.0	550.0	555.0	560.0	565.0	570.0	575.0	580.0	585.0	590.0	595.0	600.0
230.0	26.89	800.6	2086	590.9	25.00	4.125	3.568	2.757	3.176	3.157	2.805	2.725	2.770	2.238	1.754	1.551	1.215	1.128	0.827	0.737	0.700	0.581	0.564	0.505	0.447	0.526	0.422	0.435	0.367	0.360	0.324	0.339	0.218	0.216	0.178	0.189	0.188	0.155	0.151	0.144	0.130	0.201	0.178	0.141	0.108	0.124	0.681	3.832	7.090	5.250	1.982	0.360	0.084	0.077	0.071	0.079	0.066	0.059	0.065	0.069	0.060	0.047	0.057	0.063	0.053	0.051	0.051	0.040	0.034	0.049	0.044	0.037	0.048	0.041	0.047	0.028	0.037
235.0	57.82	228.2	1461	2589	533.2	44.30	5.006	3.374	2.506	3.263	3.483	3.122	2.878	2.587	2.552	1.758	1.491	1.205	0.966	0.713	0.615	0.669	0.581	0.402	0.477	0.474	0.462	0.317	0.372	0.248	0.317	0.371	0.243	0.162	0.148	0.214	0.176	0.177	0.148	0.174	0.114	0.164	0.158	0.247	0.238	0.158	0.262	1.026	2.626	5.530	8.389	9.457	4.403	0.795	0.096	0.090	0.070	0.101	0.090	0.079	0.071	0.048	0.062	0.071	0.039	0.050	0.044	0.038	0.033	0.041	0.033	0.035	0.047	0.058	0.036	0.020	0.035
240.0	92.49	120.3	434.4	2297	3017	435.4	22.52	4.961	3.416	3.701	3.475	3.587	2.983	2.646	2.207	1.911	1.433	1.368	1.023	0.693	0.648	0.564	0.742	0.498	0.436	0.414	0.470	0.396	0.349	0.297	0.450	0.305	0.202	0.161	0.213	0.203	0.179	0.217	0.168	0.156	0.133	0.121	0.123	0.210	0.280	0.358	0.281	0.335	0.678	1.606	4.468	11.32	15.55	10.75	3.628	0.512	0.099	0.118	0.060	0.091	0.070	0.076	0.056	0.043	0.039	0.071	0.088	0.054	0.038	0.035	0.035	0.037	0.044	0.065	0.065	0.029	0.026
245.0	79.66	150.4	156.9	779.9	3369	3189	313.2	11.41	5.209	4.842	3.950	3.956	3.369	2.827	2.359	1.797	1.434	1.384	1.048	0.735	0.691	0.609	0.742	0.576	0.500	0.542	0.535	0.495	0.347	0.426	0.416	0.373	0.212	0.176	0.184	0.195	0.235	0.195	0.176	0.126	0.183	0.160	0.127	0.162	0.224	0.437	0.448	0.450	0.378	0.466	1.132	3.500	9.599	17.65	18.48	10.45	2.858	0.255	0.082	0.098	0.090	0.066	0.077	0.045	0.072	0.060	0.066	0.073	0.059	0.044	0.041	0.057	0.039	0.048	0.066	0.022	0.046
250.0	31.18	111.0	215.7	259.2	1066	3214	3966	1218	68.21	7.125	5.754	4.564	3.978	3.221	2.435	2.173	1.679	1.330	1.093	0.869	0.804	0.761	0.664	0.672	0.481	0.497	0.485	0.375	0.510	0.497	0.390	0.383	0.258	0.215	0.210	0.201	0.202	0.194	0.147	0.152	0.157	0.146	0.147	0.172	0.140	0.250	0.275	0.498	0.726	0.662	0.622	0.981	2.349	5.338	10.26	16.05	21.33	18.99	10.92	3.148	0.324	0.109	0.070	0.096	0.076	0.082	0.083	0.089	0.070	0.060	0.069	0.063	0.048	0.036	0.051	0.038	0.059
255.0	16.40	36.88	163.3	323.1	331.1	799.4	3045	6573	1714	70.47	8.238	6.836	5.227	4.200	3.272	2.351	2.174	1.546	1.105	0.929	1.014	0.850	0.712	0.708	0.637	0.493	0.711	0.519	0.505	0.500	0.384	0.365	0.278	0.209	0.245	0.213	0.222	0.213	0.142	0.171	0.165	0.176	0.174	0.158	0.157	0.170	0.183	0.228	0.347	0.604	1.017	1.295	1.011	1.322	2.421	3.809	7.086	16.67	33.24	28.98	17.29	3.444	0.217	0.126	0.160	0.082	0.077	0.088	0.076	0.083	0.077	0.094	0.069	0.046	0.090	0.048	0.066
260.0	15.34	20.58	62.91	278.6	330.2	233.3	878.3	5080	7430	1315	33.47	8.342	7.335	4.841	3.581	2.829	2.285	1.751	1.289	0.953	0.957	1.018	0.772	0.725	0.618	0.516	0.644	0.563	0.519	0.512	0.432	0.351	0.353	0.236	0.262	0.253	0.170	0.283	0.233	0.151	0.164	0.177	0.178	0.168	0.137	0.125	0.154	0.173	0.161	0.267	0.599	1.432	1.560	1.130	0.817	1.004	1.801	4.244	12.69	28.42	43.53	27.92	14.17	1.713	0.188	0.134	0.077	0.079	0.110	0.084	0.095	0.107	0.063	0.069	0.079	0.035	0.050
265.0	19.52	15.18	23.78	118.8	385.2	259.4	232.1	1613	7335	7454	219.3	15.34	8.828	6.467	4.261	3.068	2.597	1.954	1.568	1.261	0.974	0.868	0.809	0.724	0.616	0.560	0.650	0.656	0.669	0.536	0.425	0.349	0.465	0.325	0.273	0.261	0.264	0.261	0.180	0.197	0.219	0.177	0.145	0.195	0.155	0.185	0.109	0.105	0.143	0.161	0.228	0.593	1.362	2.002	1.360	0.572	0.568	1.122	3.042	7.687	20.04	40.71	53.98	25.05	8.404	0.614	0.104	0.147	0.116	0.089	0.095	0.087	0.090	0.095	0.081	0.089	0.071
270.0	30.27	25.62	27.22	44.99	172.7	377.0	289.0	414.0	2191	6570	8396	2592	57.19	8.824	5.603	4.299	2.911	2.355	1.799	1.320	1.237	1.121	0.978	0.764	0.735	0.708	0.705	0.666	0.691	0.560	0.521	0.471	0.450	0.385	0.375	0.290	0.313	0.251	0.224	0.211	0.227	0.254	0.193	0.192	0.213	0.191	0.172	0.167	0.164	0.166	0.182	0.251	0.514	0.954	1.427	1.815	1.830	1.089	0.982	1.909	4.781	11.12	23.00	34.84	35.10	41.00	16.77	7.078	0.697	0.160	0.124	0.118	0.113	0.093	0.129	0.109	0.086
275.0	60.95	80.86	70.44	48.66	61.43	159.7	492.0	351.4	543.2	1592	5153	9999.9	1232	62.25	9.218	6.210	4.472	3.320	2.304	1.855	1.490	1.298	1.088	1.025	0.898	0.881	0.707	0.748	0.801	0.578	0.613	0.572	0.555	0.471	0.427	0.411	0.439	0.325	0.285	0.269	0.227	0.263	0.270	0.283	0.287	0.299	0.310	0.297	0.355	0.269	0.250	0.225	0.239	0.387	0.492	0.761	1.949	3.005	2.316	1.106	1.369	2.765	5.455	8.201	10.16	24.37	52.35	67.88	26.19	8.357	0.477	0.218	0.124	0.172	0.162	0.153	0.085
280.0	104.1	136.3	129.6	84.07	47.12	68.71	279.2	603.6	302.8	435.7	1417	7375	9999.9	924.6	28.72	8.153	5.345	4.046	2.670	2.165	1.766	1.559	1.375	1.209	0.986	0.957	0.753	0.810	0.742	0.597	0.653	0.581	0.584	0.541	0.420	0.472	0.482	0.384	0.346	0.368	0.266	0.286	0.257	0.322	0.408	0.429	0.552	0.481	0.540	0.389	0.367	0.299	0.305	0.287	0.298	0.333	0.719	1.720	3.022	3.214	1.703	1.183	1.611	2.275	2.784	6.175	16.06	40.52	65.87	66.83	22.06	4.154	0.246	0.238	0.169	0.121	0.086
285.0	167.5	226.9	208.2	128.7	63.68	54.67	126.6	494.0	582.0	252.5	451.8	2175	9388	8286	124.5	13.76	6.647	4.979	3.300	2.683	1.965	1.507	1.519	1.231	1.036	0.942	0.832	0.859	0.829	0.625	0.595	0.607	0.608	0.565	0.531	0.450	0.479	0.472	0.370	0.343	0.358	0.326	0.290	0.429	0.507	0.569	0.659	0.793	0.662	0.564	0.587	0.466	0.373	0.321	0.310	0.364	0.423	0.731	1.379	2.865	3.829	2.575	1.401	1.184	1.382	2.078	4.312	10.31	23.72	53.39	74.01	31.87	15.89	1.519	0.270	0.187	0.182
290.0	236.3	334.6	326.0	207.9	114.8	93.55	114.7	254.5	598.7	671.9	417.4	730.2	2704	7008	7926	2214	36.66	8.428	4.541	3.325	2.479	1.992	1.726	1.461	1.213	1.037	0.981	0.948	0.901	0.746	0.733	0.650	0.627	0.594	0.635	0.620	0.519	0.531	0.486	0.412	0.353	0.392	0.414	0.546	0.612	0.766	0.930	1.036	1.010	0.829	0.738	0.717	0.576	0.438	0.427	0.480	0.501	0.640	0.817	1.336	2.308	3.190	3.775	3.292	2.348	1.908	2.358	3.672	6.582	13.88	25.51	35.09	51.88	45.10	36.29	11.30	2.167
295.0	303.7	474.9	472.9	327.8	215.2	186.9	213.2	290.4	452.2	861.8	1014	675.4	987.3	1849	4367	9999.9	715.8	45.59	8.242	4.556	3.158	2.188	2.324	1.777	1.438	1.218	1.061	0.849	1.105	0.762	0.831	0.638	0.632	0.615	0.679	0.725	0.625	0.634	0.551	0.471	0.488	0.504	0.505	0.521	0.804	0.971	1.092	1.382	1.601	1.244	1.049	1.148	0.867	0.829	0.900	0.874	0.876	1.063	1.223	1.460	1.889	2.210	3.145	4.745	6.071	4.427	3.289	3.518	3.724	5.135	7.465	9.413	13.40	20.01	47.05	70.88	33.15
300.0	430.8	685.9	733.0	544.3	399.0	397.5	428.5	620.3	817.4	1151	1736	1417	1175	1115	1601	6364	9409	598.5	31.43	7.511	4.248	3.091	2.782	1.980	1.750	1.491	1.266	0.935	1.194	0.895	0.793	0.755	0.829	0.664	0.699	0.818	0.684	0.726	0.596	0.532	0.589	0.754	0.705	0.713	1.018	1.277	1.629	1.846	2.249	1.860	1.678	1.649	1.499	1.417	1.635	1.571	1.917	2.386	2.621	2.931	3.401	4.052	4.884	6.261	7.554	9.098	8.753	7.478	6.524	5.876	6.074	5.703	6.210	7.901	15.20	34.30	60.62
305.0	686.5	1027	1155	850.7	675.1	767.6	979.4	1252	1651	2087	2777	3221	2542	1885	1685	2620	8308	5269	428.5	14.45	6.215	4.499	3.476	2.551	2.050	1.865	1.388	1.392	1.513	1.144	1.047	0.947	0.893	0.906	0.904	0.853	0.870	0.856	0.808	0.610	0.786	0.952	1.056	1.104	1.432	1.793	2.363	2.935	3.181	2.732	2.524	2.829	2.601	2.714	3.003	2.986	3.973	4.651	5.121	6.019	6.577	7.905	9.147	10.43	11.32	12.89	14.79	15.02	14.08	11.61	10.58	9.527	8.697	9.234	10.08	13.38	23.33
310.0	920.7	1462	1677	1348	1103	1160	1450	1795	2165	2748	3333	3897	3786	2825	2231	1907	3365	5698	5942	1620	26.19	6.671	4.227	3.200	2.586	2.282	1.779	1.723	1.744	1.274	1.252	1.119	0.967	0.914	1.010	0.909	1.043	0.900	0.940	0.817	0.935	1.024	1.148	1.381	1.679	2.476	3.053	4.131	4.581	4.110	3.750	4.537	4.086	4.012	4.237	4.658	5.417	6.613	7.535	8.243	8.668	9.754	11.55	13.19	13.84	15.47	16.57	17.63	19.07	18.50	16.36	13.66	12.50	12.44	11.32	10.59	11.75
315.0	1093	1919	2180	1815	1498	1463	1807	2121	2428	3025	3628	4145	4175	3695	2765	1988	2107	2044	3483	7571	513.2	28.63	6.356	4.343	2.916	2.309	2.208	2.014	1.772	1.445	1.333	1.263	0.936	0.975	1.069	0.954	1.055	1.111	0.970	0.904	1.086	1.133	1.342	1.714	2.098	2.887	3.981	5.435	6.023	5.419	5.024	5.847	5.428	4.964	5.517	5.535	6.640	7.862	8.947	9.798	9.720	10.86	12.76	14.22	15.49	16.00	17.51	18.76	19.79	19.44	19.79	18.80	16.43	15.45	12.74	11.18	10.39
320.0	1254	2217	2585	2114	1686	1626	1929	2258	2503	3093	3727	4269	4252	3912	3240	2133	1903	1247	1056	4748	6599	438.6	14.55	5.670	3.658	2.970	2.520	2.109	2.005	1.459	1.481	1.161	1.064	1.122	1.042	0.958	1.124	1.138	1.046	0.972	1.125	1.203	1.340	1.820	2.415	3.583	4.655	6.624	7.262	6.397	5.736	6.579	6.265	5.785	5.762	6.015	7.389	8.702	9.600	10.53	10.08	11.21	13.01	14.54	15.58	16.80	17.98	18.81	19.96	19.70	19.21	19.91	19.60	18.28	14.29	12.28	10.74
325.0	1398	2579	3094	2562	1843	1679	1934	2252	2426	2965	3565	4101	4124	3735	3339	2298	1802	1065	476.8	1370	5595	3900	61.26	9.735	4.791	3.530	2.772	2.295	2.001	1.675	1.356	1.146	1.203	1.049	1.203	1.064	0.993	1.152	1.006	1.047	0.979	1.148	1.480	2.009	2.735	3.785	5.474	7.377	8.516	7.851	7.015	7.698	6.680	6.192	6.156	6.112	7.324	8.504	9.544	10.11	9.760	10.87	12.18	13.82	15.11	16.03	17.33	17.95	19.60	19.13	18.59	18.56	18.23	19.10	16.26	13.01	11.34
330.0	1591	3028	3995	3607	2637	1937	1902	2129	2277	2731	3304	3789	3883	3521	3054	2400	1854	1049	442.6	490.9	1624	4044	4517	1278	22.06	5.310	3.695	2.637	2.471	2.012	1.523	1.499	1.229	1.145	1.161	1.119	1.136	1.100	1.077	1.146	1.148	1.202	1.523	2.003	3.132	4.411	6.197	8.740	10.68	10.15	10.06	10.96	9.699	8.608	7.480	6.565	7.342	8.342	9.094	9.299	9.294	10.29	11.40	12.94	13.67	14.88	16.43	17.26	17.92	18.34	17.62	17.17	16.81	16.80	15.22	14.24	12.60
335.0	1711	3351	4769	4780	3777	2450	1952	2063	2151	2522	3087	3552	3671	3391	2922	2304	2020	1245	573.7	414.8	589.4	1099	2856	6135	424.6	24.82	4.989	3.414	3.088	2.342	1.870	1.646	1.399	1.200	1.246	1.131	1.065	1.026	1.228	1.207	1.104	1.380	1.566	2.254	3.349	4.741	6.449	9.933	12.31	12.41	13.03	15.06	14.20	12.74	9.797	8.031	7.709	8.320	8.647	8.906	8.645	9.745	10.46	11.98	12.90	14.19	14.85	15.83	17.33	17.25	17.32	16.58	15.92	15.38	14.21	13.66	12.67
340.0	1732	3368	4847	5007	4065	2543	1892	1930	2001	2333	2802	3214	3339	3151	2706	2116	1820	1347	659.0	419.8	379.3	434.5	858.4	4039	5357	375.2	12.48	4.280	3.680	2.503	2.172	1.926	1.557	1.358	1.154	1.130	0.938	1.111	1.132	1.108	1.127	1.387	1.580	2.161	3.097	4.826	6.599	9.897	12.19	12.72	13.31	15.75	15.11	12.99	9.865	7.826	7.399	7.945	8.090	8.307	7.983	8.828	9.513	10.98	11.88	13.04	14.00	14.61	15.71	16.05	15.86	16.00	15.10	14.92	13.35	12.35	11.57
345.0	1527	3230	4612	4845	3831	2427	1738	1766	1823	2092	2480	2840	2950	2803	2424	1894	1554	1240	765.5	437.2	337.3	297.2	346.1	1193	4685	3282	53.13	6.368	4.133	3.067	2.348	2.020	1.575	1.304	1.230	1.039	0.927	1.098	1.105	1.007	1.066	1.280	1.548	1.923	3.051	4.419	6.260	9.271	11.92	12.02	13.01	15.53	14.29	12.50	9.728	7.121	6.645	7.079	7.563	7.631	7.197	8.307	8.741	10.03	10.62	11.53	12.20	12.93	13.93	13.54	14.10	13.76	13.66	13.08	12.05	10.86	10.30
350.0	1454	2847	4266	4654	3864	2403	1650	1603	1640	1844	2166	2447	2546	2438	2142	1708	1387	1058	810.4	577.6	382.6	300.2	266.1	388.2	1334	3269	3655	1044	19.54	4.023	2.855	2.099	1.662	1.410	1.178	1.010	0.961	1.058	1.009	0.987	1.066	1.268	1.433	1.823	2.652	3.973	5.688	8.465	10.53	11.33	12.05	14.58	14.17	13.03	9.773	7.057	6.574	6.589	6.824	6.803	6.927	7.333	7.828	8.721	9.199	10.19	10.53	10.95	11.91	12.15	12.26	12.39	11.95	11.60	11.02	9.879	9.425
355.0	1254	2415	3730	4244	3654	2316	1543	1485	1506	1655	1884	2095	2180	2108	1875	1519	1252	960.4	718.8	661.0	504.7	335.4	272.7	235.3	373.4	796.6	2330	4746	394.8	20.03	4.582	2.740	2.154	1.559	1.276	1.153	1.188	1.032	0.959	0.917	0.967	1.155	1.481	1.632	2.286	3.513	4.907	7.094	9.148	10.14	10.93	13.30	13.46	12.29	9.172	6.965	6.330	6.075	6.275	6.176	6.588	6.628	7.260	7.738	8.024	8.846	9.116	9.668	10.04	10.62	10.68	10.72	10.61	10.58	9.750	8.934	8.519
360.0	1094	2089	3318	3711	3274	2117	1452	1394	1405	1523	1706	1859	1912	1851	1658	1369	1135	886.8	664.4	598.9	577.2	393.3	283.5	209.8	176.9	236.4	633.1	3323	5200	330.8	10.28	4.336	2.728	1.873	1.367	1.147	1.109	0.963	0.954	0.874	0.945	1.070	1.184	1.562	2.010	2.947	4.554	6.497	8.283	8.722	9.899	11.60	12.17	10.61	8.147	6.378	5.903	5.626	5.933	6.050	6.237	6.050	6.819	7.204	7.384	7.718	8.091	8.735	8.685	9.201	9.326	9.312	9.439	8.752	8.778	8.452	7.889
365.0	990.0	1861	2937	3286	2976	1969	1378	1309	1329	1430	1572	1666	1715	1654	1486	1232	1050	832.6	639.4	547.7	556.6	487.9	316.2	220.8	151.5	129.1	194.8	978.6	4866	2952	49.76	9.604	4.227	2.307	1.654	1.282	1.113	1.040	0.942	1.053	0.972	1.064	1.044	1.439	1.960	2.640	3.900	5.717	6.881	7.536	8.332	10.77	10.54	9.814	7.921	6.053	5.661	5.421	5.688	5.277	5.751	5.788	6.361	6.718	6.973	7.249	7.358	7.546	7.611	8.149	8.300	8.378	8.589	8.161	7.649	7.105	7.318
370.0	822.9	1581	2473	2898	2698	1885	1325	1260	1273	1346	1482	1541	1606	1519	1329	1130	972.3	799.2	643.7	550.0	505.4	513.0	441.4	295.6	200.4	158.7	165.7	327.9	1444	3049	3308	913.6	25.32	7.821	2.603	1.627	1.226	1.198	1.057	1.069	0.896	0.985	1.086	1.229	1.864	2.444	3.332	4.973	6.064	6.762	7.400	9.559	9.609	9.160	7.497	5.870	5.394	5.371	5.459	5.148	5.388	5.596	6.077	6.452	6.569	6.626	6.858	7.133	7.134	7.700	8.044	7.626	7.650	7.448	6.758	6.769	6.598
375.0	775.0	1395	2183	2624	2584	1905	1321	1230	1265	1339	1545	1562	1762	1554	1216	1039	909.9	767.0	644.9	576.6	527.1	501.2	535.2	474.7	339.0	290.8	352.3	402.5	550.2	927.7	2514	4358	340.1	33.23	5.908	2.729	1.702	1.326	1.122	1.131	0.995	1.054	1.096	1.304	1.665	2.197	2.871	4.254	5.564	6.047	6.745	8.270	8.767	8.782	7.787	6.040	5.458	5.261	5.292	5.287	5.574	5.466	6.048	6.474	6.981	6.890	6.845	6.916	7.429	8.690	8.591	7.733	6.962	6.651	6.092	6.231	6.316
380.0	704.8	1270	1990	2441	2502	1910	1336	1235	1267	1376	1613	1609	1944	1620	1149	978.5	861.0	754.8	658.0	600.7	560.7	524.0	553.1	619.2	474.6	416.1	526.3	567.0	461.0	534.9	1130	3483	3606	287.6	12.62	3.591	1.996	1.544	1.308	1.221	1.050	1.199	1.202	1.318	1.633	2.046	2.536	4.111	4.764	5.455	6.151	7.934	8.748	8.745	8.004	6.220	5.549	5.143	4.907	5.026	5.586	5.571	5.766	6.369	6.890	7.207	6.959	7.163	7.933	10.11	10.08	7.679	6.407	6.514	5.867	5.855	5.639
385.0	651.1	1198	1850	2283	2393	1910	1336	1214	1256	1369	1646	1603	1990	1632	1096	924.1	828.1	741.6	662.1	614.4	575.9	548.6	563.5	648.2	605.3	506.3	625.1	666.9	493.4	497.5	803.5	1517	3513	2438	40.91	5.726	2.856	1.787	1.453	1.228	1.218	1.177	1.181	1.238	1.539	1.987	2.325	3.485	4.583	5.053	5.604	7.458	8.580	8.611	7.834	6.039	5.723	5.295	4.970	4.874	5.169	5.753	5.919	6.267	6.720	7.404	7.147	7.149	7.697	10.19	10.22	7.316	6.568	5.811	5.325	5.716	5.657
390.0	572.4	1025	1582	1961	2074	1710	1250	1145	1176	1265	1459	1450	1728	1450	1024	874.4	793.0	717.8	657.2	618.8	586.4	559.8	561.2	588.3	585.7	556.8	595.8	597.5	441.5	421.1	599.3	740.7	1132	2343	2439	664.1	13.95	2.725	1.752	1.266	1.151	1.158	1.172	1.217	1.418	1.801	2.286	3.149	3.966	4.512	5.005	6.552	7.383	7.407	7.069	5.682	5.207	4.957	4.933	4.862	4.918	5.225	5.353	5.680	6.127	6.650	6.436	6.442	6.863	8.534	8.750	6.671	5.723	5.315	5.207	5.165	5.067
395.0	516.5	914.8	1386	1733	1863	1601	1202	1128	1140	1215	1393	1373	1616	1353	975.7	846.9	775.1	722.0	672.7	648.2	628.4	607.8	607.9	621.8	588.1	602.5	680.3	626.3	463.4	428.8	565.3	575.2	415.5	606.5	1656	3021	281.6	14.61	2.683	1.664	1.220	1.182	1.172	1.214	1.243	1.677	2.035	3.014	3.533	3.946	4.525	5.763	6.712	6.674	6.463	5.454	4.887	4.567	4.734	4.776	4.770	4.864	5.024	5.389	5.886	6.545	6.059	5.843	6.290	7.647	7.851	6.582	5.304	5.015	4.866	4.944	4.901
400.0	492.4	873.6	1321	1674	1815	1571	1213	1106	1154	1213	1406	1388	1639	1371	969.3	845.5	772.0	724.9	697.0	679.6	672.7	659.7	666.4	691.4	644.9	640.6	780.8	743.8	538.4	491.9	629.9	606.3	286.1	209.0	467.1	2168	2292	235.6	7.624	2.238	1.487	1.400	1.207	1.236	1.473	1.750	2.155	2.931	3.411	3.884	4.421	5.434	6.171	6.664	6.445	4.900	4.945	4.756	4.677	4.566	4.500	4.940	4.929	5.446	5.842	6.424	5.958	5.663	6.282	7.767	8.229	6.211	5.342	4.852	4.574	4.806	4.682
405.0	467.7	819.4	1260	1576	1729	1544	1197	1105	1149	1215	1414	1377	1653	1372	966.1	839.1	771.9	737.8	704.5	698.8	708.6	696.1	712.3	738.3	693.9	671.6	799.2	831.3	602.2	538.1	668.1	626.8	272.4	132.3	146.9	642.1	2422	2075	35.75	3.710	1.884	1.572	1.357	1.210	1.463	1.691	1.885	2.658	3.166	3.695	4.156	5.262	5.869	6.398	6.288	5.151	5.039	4.570	4.787	4.534	4.598	4.830	4.960	5.023	5.632	6.459	5.956	5.617	6.377	7.566	8.163	5.964	5.187	4.817	4.689	4.510	4.353
410.0	434.5	732.5	1097	1386	1508	1393	1137	1079	1100	1155	1296	1271	1450	1238	922.4	808.6	743.1	713.1	688.6	684.2	692.3	689.4	698.4	715.4	672.7	645.1	704.1	729.8	599.9	508.9	566.3	517.1	242.0	120.4	84.49	174.7	693.8	1911	2123	582.4	12.15	2.092	1.545	1.366	1.376	1.641	1.743	2.480	2.888	3.174	3.523	4.449	5.266	5.603	5.415	4.693	4.932	4.494	4.429	4.292	4.327	4.592	4.684	4.725	5.181	5.601	5.054	5.222	5.471	6.656	6.927	5.545	4.950	4.511	4.439	4.240	4.255
415.0	393.2	659.2	964.4	1197	1298	1252	1073	1028	1029	1079	1165	1138	1245	1087	859.7	770.2	705.3	676.0	657.5	651.6	656.9	657.3	661.9	667.5	634.3	598.5	619.0	608.4	537.7	488.6	471.6	411.2	211.8	119.4	76.34	75.13	178.6	459.0	1316	2381	255.7	14.03	1.949	1.581	1.455	1.592	1.792	2.215	2.740	2.720	3.039	4.226	4.756	4.888	4.992	4.330	4.368	4.294	4.221	4.106	3.991	4.264	4.406	4.458	4.894	4.863	4.531	4.670	4.724	5.396	5.925	4.866	4.361	4.309	4.402	3.916	4.079
420.0	371.7	634.8	892.4	1104	1214	1170	1020	998.7	998.8	1039	1101	1081	1158	1012	822.9	735.6	675.7	650.0	638.3	628.7	633.2	638.6	638.8	644.3	615.3	579.6	585.9	562.5	490.5	473.5	465.1	381.1	206.6	122.7	78.24	56.87	66.53	119.9	346.9	1601	2032	227.5	5.896	1.885	1.665	1.639	1.761	2.151	2.714	2.777	2.941	3.786	4.183	4.556	4.376	4.121	4.107	4.020	4.004	3.988	4.039	3.930	4.082	4.453	4.447	4.492	4.644	4.465	4.268	4.794	5.312	4.379	4.170	3.801	3.910	3.872	3.698
425.0	326.0	601.6	855.1	1053	1139	1115	1007	987.3	984.0	1001	1075	1033	1101	969.5	793.3	705.4	649.3	625.7	618.8	610.8	617.0	622.6	630.9	634.7	606.4	574.4	574.6	549.8	472.2	450.0	480.9	390.4	207.9	129.8	83.47	57.60	45.47	46.63	90.46	454.5	1803	1915	33.73	3.044	1.946	1.796	1.815	1.986	2.529	2.537	2.847	3.758	3.900	4.168	4.083	3.880	4.155	4.030	3.938	4.056	3.937	3.766	4.075	4.283	4.011	4.300	4.538	4.271	4.054	4.759	4.918	4.308	3.875	3.698	3.793	3.739	3.489
430.0	376.9	547.1	795.4	970.8	1053	1064	979.1	967.7	963.1	970.3	1026	991.5	1023	907.4	751.4	672.8	625.9	602.9	590.2	587.9	591.7	600.1	608.0	613.9	586.2	557.6	552.5	523.5	451.8	415.1	437.6	391.2	223.3	139.1	93.25	64.51	47.53	35.20	35.74	112.9	495.7	1497	1728	570.7	11.58	2.168	1.890	2.043	2.379	2.441	2.629	3.605	3.500	3.958	3.948	3.690	3.980	3.985	4.164	3.919	3.880	3.765	4.143	4.044	3.994	3.952	3.983	4.083	3.854	4.425	4.393	4.139	3.615	3.506	3.476	3.508	3.461
435.0	527.6	513.4	728.6	890.9	976.1	1008	965.3	943.0	937.7	940.8	967.7	926.4	931.4	831.8	708.0	630.8	588.6	569.9	559.6	552.4	557.3	558.2	570.9	571.2	545.9	525.4	510.9	481.8	423.3	383.6	376.4	343.9	244.3	154.5	102.7	73.48	53.78	38.50	28.20	38.76	120.1	349.4	981.5	2270	243.7	14.14	2.124	2.196	2.245	2.201	2.411	3.350	3.519	3.527	3.729	3.486	3.994	3.969	3.766	4.086	3.854	3.614	4.070	3.965	3.771	3.748	3.763	3.448	3.576	4.100	4.022	3.729	3.569	3.490	3.240	3.346	3.212
440.0	754.9	545.6	697.7	845.0	910.1	952.3	931.5	940.5	920.0	900.3	918.7	875.2	863.7	777.1	676.5	601.6	560.9	543.3	531.9	526.0	523.4	527.4	535.0	531.8	512.9	489.2	475.7	449.5	401.8	361.6	342.7	304.7	240.5	173.6	111.3	78.69	58.52	42.12	29.22	24.64	38.31	86.94	252.2	1450	1918	214.6	8.106	2.431	2.198	2.170	2.438	3.191	3.071	3.526	3.507	3.681	3.904	4.051	3.949	3.946	3.827	3.696	3.761	4.077	3.715	3.780	3.517	3.465	3.343	3.664	3.681	3.362	3.261	3.280	3.273	3.130	3.059
445.0	808.7	702.3	664.8	784.5	861.9	925.0	900.6	902.8	893.7	859.6	871.7	831.6	806.2	728.8	634.5	566.6	533.1	516.7	498.6	492.2	489.5	494.0	495.0	495.9	478.5	459.6	444.8	418.1	380.6	343.8	321.6	273.4	219.0	185.7	123.3	83.18	61.60	45.03	31.95	23.60	22.33	29.30	64.48	396.8	1629	1684	154.5	4.725	2.546	2.273	2.374	2.833	3.146	3.451	3.218	3.351	3.656	4.033	3.691	3.825	3.658	3.629	3.611	3.730	3.383	3.483	3.377	2.959	3.227	3.605	3.425	3.322	3.150	2.973	3.312	3.119	3.039
450.0	570.1	1125	723.3	740.0	807.3	860.5	868.1	870.1	842.8	816.8	802.7	769.3	736.5	659.5	576.4	521.8	486.7	469.2	456.5	447.6	447.4	444.2	445.1	449.6	430.3	414.2	402.6	383.8	347.3	320.3	295.7	252.5	196.8	169.1	140.2	95.84	66.17	49.25	35.34	26.09	20.97	18.65	23.25	95.96	435.6	1186	1345	489.0	11.50	2.540	2.359	2.761	3.066	3.181	3.206	3.174	3.633	3.631	3.617	3.424	3.569	3.513	3.540	3.415	3.218	3.286	3.177	3.002	3.063	3.330	3.078	2.951	2.940	2.878	2.859	2.923	2.640
455.0	309.7	1218	1168	680.8	748.0	801.1	807.5	809.7	786.1	754.9	733.2	694.5	657.9	594.5	523.7	474.8	444.6	423.3	408.9	403.0	397.9	391.6	396.7	397.1	383.5	370.3	357.3	344.2	316.3	292.2	270.3	232.2	181.1	148.3	131.4	112.4	75.73	51.08	38.97	29.22	22.75	18.42	15.98	29.77	103.9	274.1	609.3	1515	654.3	14.02	2.533	2.814	2.984	3.050	3.163	3.097	3.552	3.442	3.382	3.312	3.330	3.404	3.089	3.077	3.052	2.847	2.874	3.076	2.899	3.022	2.768	2.574	2.482	2.717	2.650	2.494	2.510
460.0	230.3	879.5	1796	748.6	699.7	746.0	765.6	761.4	743.2	699.9	683.4	652.0	607.6	544.3	483.5	436.2	405.8	389.0	377.5	368.8	363.8	358.9	359.8	360.9	349.9	337.4	326.1	313.5	293.4	272.5	250.3	214.8	170.4	139.3	118.3	110.6	87.16	55.37	40.38	31.10	24.63	19.03	15.62	15.92	30.92	66.86	150.0	808.8	1544	174.3	9.929	3.042	2.818	2.939	2.929	2.932	3.322	3.185	3.227	3.148	3.176	3.112	3.059	2.919	2.719	2.714	2.640	2.749	2.760	2.680	2.569	2.585	2.481	2.519	2.545	2.493	2.375
465.0	219.6	522.5	1922	1180	639.2	698.8	716.8	719.8	694.0	654.3	633.8	594.7	564.5	502.1	447.1	403.8	375.6	356.6	347.1	336.9	328.7	325.5	326.8	327.0	316.9	306.3	296.6	287.4	271.9	249.9	232.6	200.6	161.1	131.2	108.4	100.1	91.98	62.60	42.11	32.78	26.07	20.42	16.42	13.51	14.76	21.36	39.10	209.3	1033	1244	148.6	6.541	2.897	2.788	2.857	2.890	3.070	3.207	3.027	3.096	2.884	3.026	2.956	3.031	2.565	2.546	2.497	2.477	2.584	2.309	2.528	2.212	2.228	2.296	2.183	2.449	2.096
470.0	202.6	347.2	1227	2074	784.4	618.8	645.4	649.6	622.6	586.2	570.8	535.2	494.3	448.1	395.6	355.6	330.1	314.1	304.1	293.8	286.5	280.1	280.7	282.4	276.1	266.9	260.9	251.6	238.0	222.7	205.1	178.7	148.3	123.1	100.4	85.96	80.44	70.60	49.79	34.77	27.41	21.48	17.49	14.27	12.50	12.21	14.67	51.90	264.0	741.0	960.4	422.4	13.27	2.856	2.644	2.747	2.856	2.900	2.879	2.799	2.740	2.659	2.558	2.566	2.375	2.413	2.157	2.194	2.200	2.236	2.176	2.071	1.952	2.012	1.918	1.957	1.990
475.0	194.4	278.2	588.9	2017	1604	573.5	577.1	581.9	557.0	517.8	500.0	469.1	437.1	389.0	341.1	310.0	285.0	270.5	264.8	251.0	244.8	241.0	239.8	238.7	236.7	230.7	223.3	217.3	205.5	198.3	181.3	157.2	134.7	112.2	91.78	78.39	67.78	64.15	57.73	39.22	27.80	22.69	18.19	15.00	13.21	10.95	9.990	16.97	63.61	170.2	361.5	969.7	531.6	18.27	2.555	2.504	2.640	2.464	2.600	2.508	2.345	2.424	2.199	2.213	2.060	2.210	2.006	1.935	1.801	2.066	1.988	1.909	1.829	1.796	1.591	1.796	1.778
480.0	199.9	244.4	382.3	1292	2445	627.1	524.6	527.4	504.4	486.8	458.7	435.7	394.2	352.9	306.3	277.5	258.8	246.0	235.4	226.6	216.0	213.5	212.4	215.1	210.8	205.9	198.8	194.8	185.9	177.9	165.2	143.7	124.3	104.3	86.95	73.06	62.52	56.48	56.23	46.17	30.71	23.29	19.30	15.34	13.73	11.03	9.699	9.998	19.09	42.11	87.13	429.9	1029	207.0	12.63	2.754	2.522	2.486	2.411	2.415	2.350	2.155	2.166	2.005	1.946	1.888	1.806	1.813	1.717	1.727	1.744	1.788	1.550	1.755	1.535	1.623	1.753
485.0	177.4	255.3	316.8	694.9	2520	1296	494.4	485.6	467.7	456.3	422.9	403.4	361.0	320.1	283.3	256.8	240.2	224.2	215.4	205.2	200.8	197.6	194.0	194.5	190.9	187.1	182.1	177.9	172.2	165.8	151.8	134.1	116.6	98.81	83.99	69.98	59.08	50.84	50.36	50.11	35.34	24.71	20.29	16.38	14.07	11.84	9.845	8.575	9.517	13.80	23.19	107.0	580.8	960.8	176.2	7.996	2.588	2.514	2.291	2.291	2.264	2.024	2.076	1.871	1.835	1.699	1.727	1.711	1.699	1.656	1.575	1.615	1.545	1.580	1.623	1.585	1.456
490.0	139.7	259.5	304.8	422.1	1475	2551	662.2	437.0	426.5	407.6	386.4	363.6	324.9	287.7	257.8	230.2	210.5	200.8	192.4	184.0	177.2	173.0	172.4	171.2	169.0	165.6	162.3	159.6	156.7	149.0	138.5	123.5	106.1	92.19	78.49	65.95	56.68	47.62	43.23	43.68	40.66	29.40	21.22	17.43	14.87	12.68	10.69	9.275	8.113	7.751	9.444	27.61	143.6	468.0	784.8	472.9	15.60	2.707	2.215	2.139	2.044	1.886	1.869	1.781	1.808	1.792	1.670	1.559	1.655	1.491	1.383	1.424	1.430	1.328	1.348	1.335	1.432
495.0	110.2	236.2	311.0	326.9	623.1	2596	1580	406.0	380.0	365.1	343.2	320.8	288.4	251.5	228.1	202.7	186.4	176.9	168.3	159.5	155.0	151.0	147.5	150.8	145.0	144.4	142.3	139.6	138.2	130.0	124.3	110.3	96.01	83.76	72.10	61.50	52.48	44.42	38.93	35.74	36.93	34.89	24.54	18.38	15.06	12.89	11.72	9.695	8.655	7.057	6.572	10.12	35.38	107.7	278.0	856.5	628.2	21.96	2.393	1.996	1.832	1.807	1.606	1.605	1.707	1.526	1.481	1.465	1.468	1.303	1.397	1.206	1.374	1.007	1.142	1.151	1.272
500.0	98.02	187.2	304.0	284.4	377.2	1654	2466	528.5	341.2	332.2	316.5	294.1	264.0	226.6	203.7	182.2	171.6	158.7	150.5	142.0	136.7	133.7	132.8	133.2	132.6	128.2	127.6	125.6	123.6	118.1	113.4	98.38	88.40	77.86	66.20	57.38	48.22	43.00	37.12	31.81	31.10	33.80	28.60	19.40	15.28	13.29	11.26	9.930	8.790	7.210	5.916	6.296	11.34	27.14	66.46	346.3	975.6	230.7	15.10	2.039	1.768	1.761	1.535	1.464	1.512	1.518	1.296	1.343	1.312	1.262	1.220	1.228	1.133	0.996	1.035	1.041	1.003
505.0	93.15	152.5	280.3	284.6	297.3	806.0	2612	1064	316.3	302.3	287.7	264.8	240.7	205.5	184.4	162.9	151.8	145.4	134.2	127.7	122.4	119.9	118.6	119.5	118.0	114.0	115.3	114.2	111.9	107.2	101.8	91.28	80.89	70.58	60.71	53.32	46.05	40.19	35.51	30.70	27.14	28.86	30.47	22.17	15.65	13.44	11.50	10.17	8.639	7.611	5.974	5.420	5.845	9.351	17.93	84.07	473.2	879.0	197.4	7.734	2.001	1.593	1.473	1.286	1.458	1.243	1.278	1.179	1.148	1.136	1.068	1.015	1.010	0.936	0.980	0.961	0.840
510.0	77.40	127.6	214.8	288.3	256.4	386.7	1502	2250	460.1	262.4	251.4	233.5	212.4	183.0	159.9	143.1	132.3	123.9	116.4	110.7	105.8	103.9	102.2	102.7	102.4	100.6	99.99	97.54	96.80	92.78	89.13	80.35	70.96	63.14	54.06	48.26	41.89	37.11	32.84	28.48	24.88	24.03	26.06	24.99	18.30	13.67	11.31	10.07	8.556	7.659	6.423	5.672	4.938	5.055	6.758	21.21	113.8	388.7	627.5	315.1	15.22	1.791	1.522	1.268	1.260	1.090	1.141	1.056	1.002	0.988	0.977	0.966	0.860	0.862	0.855	0.797	0.818
515.0	67.51	103.2	171.3	278.1	247.3	267.5	557.7	2317	1325	243.5	222.1	203.7	180.8	160.2	138.7	123.3	114.7	105.2	99.97	95.43	89.23	88.68	86.38	87.16	88.12	85.24	84.81	83.31	82.91	79.61	75.88	69.26	61.30	55.77	48.06	42.80	38.26	32.13	29.77	25.67	22.71	21.40	20.22	21.98	21.16	15.57	11.37	9.640	8.326	7.375	6.466	5.737	4.888	4.171	4.135	7.022	27.53	88.80	198.8	596.9	464.2	21.47	1.691	1.176	1.282	1.008	1.117	1.022	0.899	0.826	0.871	0.919	0.735	0.728	0.748	0.725	0.752
520.0	64.66	86.56	142.8	226.1	263.3	225.1	281.4	1423	2346	293.3	199.8	180.6	160.5	143.6	122.8	110.4	101.0	94.44	87.60	83.73	78.39	78.04	76.64	76.06	76.67	75.10	75.14	74.20	73.29	72.10	68.99	61.64	53.96	49.79	43.92	39.28	34.93	30.09	26.87	23.56	21.46	19.52	17.60	18.78	20.98	17.80	12.01	9.228	8.004	7.217	6.244	5.750	4.915	4.143	3.616	3.910	8.488	21.79	46.98	232.7	665.1	225.8	15.23	1.375	1.138	1.018	0.946	0.919	0.823	0.841	0.820	0.776	0.766	0.646	0.659	0.588	0.619
525.0	56.29	93.49	120.1	188.7	257.3	200.8	207.5	621.6	2702	823.0	177.7	166.6	143.2	127.6	112.3	99.27	90.50	84.44	78.47	75.88	71.03	69.33	68.29	68.15	68.01	67.86	67.09	65.97	64.23	64.48	61.26	56.34	49.78	44.77	39.12	35.38	31.05	27.46	25.04	22.14	19.83	18.14	16.46	15.85	18.08	18.67	13.61	9.443	7.992	7.073	6.133	5.332	4.952	4.330	3.578	3.250	3.994	6.855	12.35	55.66	304.7	624.7	194.6	6.963	1.259	0.990	0.897	0.813	0.756	0.812	0.681	0.745	0.664	0.627	0.673	0.653	0.574
530.0	47.87	75.70	101.1	138.8	222.0	206.8	167.6	270.6	1562	2117	310.5	144.2	128.7	111.0	97.33	84.95	78.46	72.03	66.97	64.74	61.48	59.34	58.33	58.16	57.42	57.67	56.91	57.33	55.85	55.31	52.56	48.15	43.00	38.56	34.08	31.45	27.58	24.14	22.41	20.07	18.00	16.19	14.72	13.55	13.73	15.81	15.36	10.54	7.612	6.697	5.745	5.250	4.497	4.225	3.619	2.952	2.984	3.309	4.359	13.96	72.41	258.2	480.2	254.1	14.96	1.184	0.804	0.770	0.699	0.718	0.592	0.595	0.572	0.579	0.571	0.512	0.521
535.0	43.69	60.79	84.52	106.1	154.1	218.4	150.4	166.6	504.8	2274	1166	131.6	110.6	94.28	80.16	70.69	64.61	59.94	55.39	54.81	50.24	49.43	48.66	48.66	47.80	47.53	46.82	47.63	47.70	46.17	44.81	40.64	35.68	32.54	29.32	26.08	24.29	21.57	19.37	17.01	15.56	14.44	13.05	11.79	11.33	11.80	13.37	12.05	8.466	6.243	5.366	4.623	4.161	3.748	3.660	3.364	2.617	2.553	2.504	4.670	17.44	58.71	140.6	438.5	241.0	20.42	0.999	0.763	0.655	0.670	0.476	0.536	0.442	0.530	0.555	0.401	0.478
540.0	38.59	55.83	77.94	88.57	123.4	207.5	154.3	132.9	204.4	1314	2216	186.3	95.28	83.90	70.34	62.42	58.53	52.19	49.15	45.79	44.49	43.07	42.98	42.05	41.89	41.39	41.62	41.29	40.99	39.84	37.66	34.59	31.55	29.15	25.95	24.34	21.06	19.27	17.36	15.39	14.25	13.09	11.27	10.69	10.04	9.562	10.80	11.69	9.080	6.219	5.051	4.388	3.893	3.639	3.241	3.395	2.651	2.324	2.150	2.391	5.174	14.15	32.92	161.5	475.0	211.7	12.71	0.881	0.530	0.657	0.564	0.469	0.471	0.423	0.451	0.413	0.446
545.0	34.01	53.85	75.76	75.81	94.99	163.6	171.4	109.7	129.9	509.5	2560	588.2	84.16	73.97	62.83	55.91	51.85	45.61	43.54	39.65	38.80	36.27	37.75	36.93	35.84	36.07	36.79	36.74	35.99	35.05	33.60	31.11	28.04	25.03	23.48	20.76	18.75	16.71	15.76	13.63	12.63	11.92	10.61	9.883	9.072	8.268	7.999	10.01	9.803	6.674	4.661	4.305	3.615	3.190	2.797	2.918	2.895	2.032	1.938	1.770	2.301	4.250	8.477	38.33	211.3	448.7	159.3	5.101	0.639	0.549	0.572	0.453	0.427	0.401	0.312	0.363	0.350
550.0	33.09	46.87	62.05	67.44	78.17	109.6	172.4	108.8	98.82	187.9	1357	1756	132.1	61.55	52.63	46.88	41.84	38.23	36.14	32.69	31.75	30.48	30.98	31.35	30.05	29.76	29.76	29.36	29.86	28.94	27.45	25.33	23.19	20.85	19.29	17.26	15.61	14.27	13.20	11.75	10.79	10.17	9.065	8.306	7.771	7.098	6.632	7.069	8.423	7.400	4.993	3.823	3.208	2.819	2.631	2.509	2.501	2.352	1.791	1.549	1.436	1.844	2.882	9.494	49.82	178.0	309.7	137.8	13.44	0.685	0.477	0.435	0.376	0.383	0.302	0.340	0.288
555.0	26.78	43.73	53.74	60.57	62.51	75.65	126.9	131.2	80.78	96.78	392.4	1955	764.1	54.30	43.55	38.77	34.79	30.18	28.98	25.82	25.24	24.87	24.16	24.63	23.65	23.61	22.87	24.14	23.59	22.97	22.02	20.01	18.43	16.33	16.06	14.41	12.81	11.71	10.79	9.853	8.831	8.318	7.730	6.936	6.384	5.770	5.684	5.389	5.713	6.738	5.661	4.173	2.951	2.349	2.177	2.077	2.005	2.198	1.945	1.571	1.170	1.398	1.524	2.928	11.88	40.57	89.55	258.7	212.9	17.22	0.601	0.444	0.373	0.292	0.290	0.305	0.215
560.0	23.38	39.09	55.05	53.16	54.27	59.09	88.75	147.0	74.84	71.24	136.8	1090	1438	93.29	37.01	32.19	29.37	26.92	23.97	22.40	21.52	21.15	20.23	20.42	20.31	19.86	19.00	19.50	19.61	19.45	18.60	17.12	15.92	14.28	12.92	11.96	11.16	9.678	9.338	8.689	7.541	7.239	6.501	5.689	5.670	5.082	4.683	4.512	4.199	5.454	5.629	4.062	2.759	2.258	1.922	1.855	1.778	1.667	1.935	1.721	1.183	1.030	1.081	1.486	3.286	9.793	20.74	93.12	283.8	158.9	8.926	0.510	0.357	0.235	0.277	0.297	0.249
565.0	27.72	37.65	52.53	46.90	43.78	48.50	63.70	136.6	87.53	62.44	78.25	390.3	1944	349.1	32.64	27.12	24.92	22.10	20.09	19.44	18.52	17.54	16.52	16.76	16.65	16.66	16.18	16.74	16.83	16.24	15.33	14.80	13.43	11.73	11.11	10.20	9.318	8.544	8.155	7.507	6.735	6.403	5.679	5.094	4.808	4.384	4.256	3.860	3.658	3.830	4.563	4.317	2.897	2.051	1.803	1.623	1.541	1.465	1.682	1.864	1.262	0.933	1.050	0.949	1.504	2.889	5.236	22.01	119.0	264.0	97.75	3.006	0.449	0.313	0.313	0.243	0.206
570.0	31.32	41.17	47.30	46.04	38.69	40.40	48.27	93.11	111.4	58.97	59.34	129.8	1073	1220	67.84	22.62	20.57	17.89	16.75	15.99	14.49	14.22	13.61	13.69	13.36	13.48	13.38	13.00	13.63	13.10	12.55	11.77	10.82	9.784	9.013	8.502	7.463	7.171	6.662	6.159	5.472	5.273	4.629	4.263	4.131	3.876	3.526	3.312	2.990	2.926	3.162	3.720	3.335	2.181	1.630	1.395	1.397	1.183	1.305	1.316	1.434	1.062	0.885	0.835	0.903	1.169	1.773	5.433	27.91	101.0	177.9	98.21	11.20	0.407	0.296	0.225	0.183
575.0	29.05	45.95	49.65	34.44	35.72	36.41	39.64	57.14	118.6	71.29	52.97	66.30	302.2	1428	461.0	20.68	16.90	14.43	13.67	12.62	11.93	11.35	11.13	10.75	10.47	10.90	10.72	9.866	11.32	10.33	9.949	9.150	8.261	7.552	7.008	7.064	5.929	5.550	5.274	4.742	4.441	4.137	3.666	3.533	3.318	3.122	2.925	2.682	2.410	2.337	2.075	2.538	2.937	2.453	1.717	1.202	1.125	1.108	1.116	0.934	1.085	1.384	0.974	0.783	0.796	0.825	0.860	1.760	6.693	22.98	50.55	147.9	130.8	11.76	0.370	0.190	0.154
580.0	24.46	45.10	50.10	36.34	33.11	32.82	33.95	42.83	101.5	93.26	52.00	51.41	100.5	823.1	984.8	37.98	14.89	12.77	11.11	10.73	10.60	9.287	9.710	9.352	8.928	8.648	9.004	8.772	9.371	8.553	8.370	7.491	7.042	6.128	6.130	5.759	5.227	4.461	4.316	4.010	3.795	3.645	3.212	2.859	2.754	2.645	2.491	2.393	2.112	2.045	1.573	1.897	2.351	2.495	1.691	1.216	1.145	1.008	1.007	0.792	0.851	1.064	1.224	0.857	0.627	0.655	0.668	0.831	1.906	5.570	11.82	52.80	166.7	94.02	4.931	0.285	0.196
585.0	27.64	45.88	49.34	38.54	29.03	27.84	30.97	36.07	72.45	112.5	55.51	47.85	54.38	291.1	1322	105.2	13.29	10.35	9.689	9.245	8.833	7.873	8.098	7.569	7.757	7.441	7.709	7.640	7.472	7.419	7.259	6.816	6.089	5.739	5.184	4.726	4.528	4.037	3.831	3.356	3.207	3.294	2.856	2.663	2.416	2.285	2.191	2.002	1.954	1.710	1.599	1.385	1.720	2.286	1.896	1.301	1.025	0.912	0.776	0.796	0.832	0.736	1.114	0.995	0.637	0.600	0.731	0.627	0.793	1.552	3.066	12.36	69.84	160.6	32.02	1.793	0.240
590.0	25.65	41.74	49.24	36.45	28.34	28.60	28.28	31.98	48.70	104.8	80.16	50.74	44.96	92.60	730.6	686.3	32.24	9.137	8.357	7.574	6.844	6.560	6.594	6.273	6.323	6.347	6.374	6.169	5.964	5.964	5.683	5.307	5.003	4.479	4.244	4.023	3.551	3.170	2.947	2.891	2.517	2.627	2.457	2.157	1.991	1.979	1.734	1.758	1.577	1.366	1.306	1.159	1.181	1.456	1.808	1.528	1.106	0.811	0.736	0.688	0.676	0.686	0.847	0.991	0.826	0.587	0.598	0.550	0.621	0.732	1.074	3.096	16.38	62.02	98.93	62.53	8.545
595.0	31.31	42.83	45.63	36.04	28.56	27.85	28.98	34.94	43.15	77.36	109.7	58.30	46.92	47.06	204.2	883.4	239.8	8.525	6.505	6.171	5.534	5.146	5.078	5.309	5.330	4.766	4.726	4.971	4.703	4.649	4.377	4.416	3.916	3.754	3.222	3.224	2.945	2.519	2.442	2.390	2.028	1.957	1.715	1.747	1.527	1.654	1.452	1.475	1.368	1.268	1.000	0.924	0.973	1.055	1.219	1.410	1.270	0.768	0.630	0.518	0.579	0.517	0.663	0.736	0.912	0.820	0.589	0.559	0.550	0.490	0.571	0.953	3.882	14.04	28.00	84.83	77.35
600.0	24.79	47.56	46.68	43.44	30.08	28.75	32.67	43.72	45.44	70.01	119.4	79.27	55.23	44.36	71.07	541.0	600.0	18.81	6.069	5.072	4.820	4.355	4.223	4.555	4.783	3.846	4.074	3.875	3.846	4.068	3.923	3.636	3.416	3.117	2.840	2.530	2.363	2.257	2.142	1.899	1.721	1.605	1.486	1.472	1.310	1.376	1.061	1.221	1.173	0.983	0.857	0.868	0.841	0.847	0.922	1.256	1.286	0.836	0.589	0.519	0.536	0.551	0.589	0.587	0.789	0.889	0.668	0.692	0.564	0.476	0.425	0.524	1.162	3.408	6.534	29.74	94.33
605.0	30.10	50.28	55.20	46.08	37.04	38.60	42.56	53.06	62.52	85.06	135.8	120.8	83.31	62.75	55.60	210.7	817.9	72.54	6.051	4.529	4.183	3.941	3.523	3.725	3.318	3.478	3.725	3.390	3.295	3.276	3.221	3.319	2.830	2.552	2.289	2.238	2.014	1.805	1.847	1.468	1.503	1.303	1.298	1.246	1.139	1.219	1.098	1.180	1.038	0.870	0.770	0.831	0.775	0.641	0.793	0.929	1.132	1.027	0.722	0.571	0.605	0.651	0.674	0.702	0.711	1.008	0.987	0.767	0.641	0.597	0.544	0.513	0.583	1.137	1.722	7.182	38.53
610.0	42.91	64.29	75.34	59.82	51.01	53.35	67.58	83.55	108.4	140.2	176.9	212.9	152.7	115.5	96.29	107.5	528.5	450.1	17.73	4.420	3.429	3.212	3.159	2.891	2.902	2.896	2.926	2.697	2.867	2.794	2.631	2.490	2.130	2.063	1.871	2.025	1.666	1.565	1.475	1.385	1.259	1.250	1.066	1.048	1.072	0.980	1.004	0.995	0.861	0.743	0.738	0.723	0.666	0.619	0.690	0.783	0.957	1.047	1.071	0.712	0.721	0.785	0.902	0.899	0.846	1.085	1.220	1.160	1.075	0.808	0.788	0.675	0.629	0.762	0.866	2.004	9.185
615.0	49.71	77.97	81.76	69.09	59.37	62.53	77.64	97.82	123.1	156.5	186.9	235.0	197.9	139.7	117.4	92.15	201.7	619.5	76.59	4.100	3.074	2.842	2.369	2.452	2.359	2.432	2.331	2.075	2.477	1.966	2.082	2.028	1.738	1.575	1.594	1.528	1.264	1.276	1.056	1.143	1.026	0.979	0.854	0.718	0.760	0.799	0.816	0.922	0.789	0.742	0.635	0.549	0.622	0.547	0.554	0.584	0.773	0.882	0.989	0.801	0.746	0.782	0.897	0.940	0.974	1.000	1.057	1.281	1.184	0.966	0.973	0.907	0.738	0.749	0.726	0.900	2.416
620.0	50.15	70.84	85.84	70.28	57.08	63.95	80.86	99.85	118.1	151.9	183.9	221.0	214.8	148.6	120.6	86.89	109.5	413.7	356.5	7.083	2.961	2.480	2.232	2.211	2.283	2.116	1.847	1.985	1.710	1.877	1.771	1.902	1.345	1.544	1.378	1.254	1.055	1.130	1.039	0.880	0.832	0.783	0.762	0.725	0.693	0.755	0.687	0.770	0.669	0.672	0.579	0.543	0.553	0.525	0.573	0.588	0.686	0.936	0.998	0.847	0.806	0.750	0.809	0.954	0.903	0.978	0.915	1.201	1.079	1.092	0.911	0.851	0.763	0.764	0.723	0.635	0.985
625.0	44.02	73.56	89.81	72.51	61.45	70.09	80.42	98.23	116.8	145.4	172.0	204.8	214.8	149.7	123.4	87.06	86.09	179.2	533.8	42.60	2.794	1.982	1.900	1.968	1.897	1.899	1.554	1.614	1.457	1.538	1.648	1.493	1.368	1.287	1.109	1.178	0.967	0.914	0.955	0.788	0.760	0.657	0.553	0.696	0.581	0.650	0.697	0.688	0.644	0.633	0.562	0.544	0.521	0.522	0.466	0.523	0.651	0.636	0.910	0.922	0.765	0.667	0.772	0.886	0.917	0.899	0.884	1.067	1.031	1.188	1.101	0.925	0.857	0.828	0.632	0.570	0.687
630.0	48.26	80.29	102.9	78.58	69.87	71.16	82.52	96.78	114.4	141.8	168.2	193.9	204.3	167.1	125.5	87.85	79.51	75.82	352.8	271.8	7.561	1.943	1.679	1.539	1.509	1.545	1.308	1.260	1.293	1.275	1.322	1.168	1.064	1.047	0.922	0.882	0.837	0.791	0.688	0.656	0.640	0.633	0.531	0.506	0.516	0.545	0.559	0.569	0.612	0.564	0.492	0.481	0.475	0.500	0.445	0.454	0.551	0.606	0.654	0.822	0.832	0.716	0.803	0.870	0.910	0.764	0.884	0.927	1.046	1.101	1.066	0.929	0.845	0.782	0.679	0.631	0.530
635.0	50.14	91.23	105.7	86.93	71.30	71.11	83.99	99.48	111.1	137.3	166.7	182.9	191.7	179.6	130.2	89.70	76.79	51.32	104.4	421.6	57.50	1.859	1.445	1.378	1.253	1.128	1.040	1.135	1.053	1.084	1.054	0.873	0.880	0.998	0.700	0.666	0.647	0.705	0.544	0.468	0.489	0.494	0.439	0.408	0.462	0.495	0.505	0.569	0.568	0.503	0.504	0.476	0.444	0.418	0.366	0.480	0.475	0.476	0.656	0.684	0.761	0.801	0.745	0.758	0.944	0.796	0.776	0.966	1.105	1.114	0.936	0.995	0.849	0.764	0.691	0.543	0.559
640.0	53.44	88.91	110.4	87.94	76.41	72.06	86.32	98.59	107.2	134.7	161.0	183.4	181.4	176.9	138.2	88.72	76.73	45.70	32.75	298.3	234.2	3.532	1.311	1.176	1.222	0.972	0.911	1.038	0.889	0.996	0.972	0.800	0.695	0.802	0.688	0.614	0.542	0.554	0.433	0.367	0.377	0.414	0.370	0.364	0.459	0.432	0.420	0.520	0.573	0.464	0.444	0.405	0.380	0.470	0.403	0.407	0.457	0.486	0.574	0.674	0.727	0.729	0.615	0.790	0.822	0.792	0.833	0.924	0.985	0.881	0.969	0.887	1.063	0.768	0.697	0.575	0.493
645.0	55.43	86.64	105.4	87.71	73.03	69.57	79.23	94.19	102.6	132.6	152.5	172.8	172.9	160.5	140.2	88.30	76.56	44.22	16.53	121.5	374.1	24.62	1.326	1.120	1.011	0.947	0.759	0.822	1.035	0.878	0.724	0.736	0.652	0.633	0.607	0.623	0.548	0.577	0.519	0.336	0.417	0.320	0.362	0.336	0.359	0.403	0.403	0.486	0.469	0.429	0.398	0.417	0.436	0.369	0.397	0.369	0.409	0.498	0.435	0.656	0.592	0.800	0.686	0.813	0.773	0.850	0.873	0.940	0.899	0.873	0.869	0.817	1.083	0.853	0.568	0.605	0.559
650.0	55.60	93.98	109.2	83.28	72.63	68.00	75.09	88.29	95.56	115.5	143.3	162.5	159.1	148.1	135.2	86.05	70.26	40.79	13.20	35.54	338.3	66.31	1.697	1.176	0.995	0.826	0.856	0.823	0.809	0.645	0.620	0.613	0.658	0.633	0.623	0.467	0.550	0.526	0.465	0.291	0.300	0.326	0.364	0.322	0.342	0.374	0.348	0.488	0.471	0.423	0.354	0.344	0.443	0.348	0.344	0.404	0.438	0.483	0.487	0.590	0.420	0.614	0.588	0.734	0.703	0.736	0.707	0.772	0.832	0.827	0.866	0.820	0.839	0.978	0.626	0.513	0.518
