Sample:	'1
File name:	Default_20250818_174902.FD3
Run date:	'17:42:41, 08/18/2025
Operator:	Administrator
Comment:	'

Instrument
Model:	F-2700 FL Spectrophotometer
Serial number:	3064-004
ROM Version:	4J14000 07

Instrument parameters
Measurement type:	3-D scan
Data mode:	Fluorescence
EX  Start WL:	220.0 nm
EX  End WL:	600.0 nm
EX Sampling interval:	5.0 nm
EM  Start WL:	230.0 nm
EM  End WL:	650.0 nm
EM Sampling interval:	5.0 nm
Scan speed:	12000 nm/min
EX Slit:	5.0 nm
EM Slit:	5.0 nm
PMT Voltage:	700 V
Response:	Auto 
Corrected spectra:	Off
Contour interval:	50.000

Peak integration
Integration method:	Rectangular
Sensitivity:	1
Threshold:	1.000

Peaks
No.	ApexEX/EM(nm)	Height(Data)
1	235.0/625.0	29.88
2	245.0/265.0	272.8
3	255.0/280.0	511.0
4	260.0/285.0	651.9
5	265.0/290.0	644.0
6	270.0/295.0	945.7
7	270.0/445.0	 5394
8	270.0/590.0	162.8
9	275.0/305.0	 1180
10	275.0/605.0	138.5
11	280.0/310.0	 1161
12	280.0/615.0	107.0
13	285.0/315.0	 1221
14	285.0/630.0	81.86
15	290.0/320.0	 1158
16	290.0/645.0	64.95
17	295.0/330.0	995.8
18	300.0/335.0	962.0
19	360.0/445.0	 5161
20	505.0/275.0	2.658
21	510.0/280.0	3.393
22	520.0/285.0	3.292
23	530.0/290.0	3.635
24	540.0/295.0	4.840
25	545.0/300.0	5.022
26	545.0/445.0	21.00
27	550.0/305.0	5.648
28	550.0/450.0	21.21
29	560.0/310.0	5.687
30	570.0/315.0	6.318
31	575.0/320.0	6.138
32	585.0/325.0	6.036
33	590.0/330.0	5.586

Data points
	220.0	225.0	230.0	235.0	240.0	245.0	250.0	255.0	260.0	265.0	270.0	275.0	280.0	285.0	290.0	295.0	300.0	305.0	310.0	315.0	320.0	325.0	330.0	335.0	340.0	345.0	350.0	355.0	360.0	365.0	370.0	375.0	380.0	385.0	390.0	395.0	400.0	405.0	410.0	415.0	420.0	425.0	430.0	435.0	440.0	445.0	450.0	455.0	460.0	465.0	470.0	475.0	480.0	485.0	490.0	495.0	500.0	505.0	510.0	515.0	520.0	525.0	530.0	535.0	540.0	545.0	550.0	555.0	560.0	565.0	570.0	575.0	580.0	585.0	590.0	595.0	600.0
230.0	12.85	210.2	 1453	 1002	75.77	11.55	11.03	7.540	7.126	7.565	6.942	6.376	5.791	5.060	4.501	3.939	3.298	3.194	2.719	2.782	2.759	2.527	2.834	2.652	2.415	2.712	2.546	2.336	2.435	2.138	2.305	1.898	1.786	1.482	1.250	1.374	1.199	1.031	0.960	0.912	0.725	0.628	0.818	0.650	0.677	0.730	0.913	3.110	6.063	5.482	2.626	0.837	0.640	0.501	0.585	0.502	0.525	0.502	0.438	0.405	0.522	0.472	0.357	0.386	0.446	0.450	0.421	0.416	0.396	0.462	0.383	0.357	0.367	0.434	0.393	0.375	0.417
235.0	24.35	64.93	629.1	 2001	970.7	130.3	10.45	7.306	7.421	8.902	8.182	4.917	7.226	4.688	4.616	3.143	3.705	2.981	3.054	3.175	2.634	2.628	3.054	2.986	2.453	2.577	2.287	2.366	2.746	1.986	2.085	1.911	1.725	1.347	1.151	1.260	1.091	1.104	0.818	0.906	0.892	0.731	0.577	0.595	0.803	0.785	0.718	1.114	2.542	4.355	7.093	7.327	3.850	1.282	0.544	0.439	0.542	0.504	0.416	0.388	0.383	0.332	0.254	0.401	0.391	0.474	0.572	0.366	0.330	0.604	0.478	0.328	0.476	0.408	0.398	0.358	0.541
240.0	29.67	46.68	167.9	 1144	 2833	856.8	61.81	8.350	8.989	8.113	6.191	6.829	5.726	5.150	4.444	3.465	3.919	2.972	2.444	2.810	2.920	2.426	2.746	2.884	2.372	2.613	2.296	2.109	2.639	1.968	1.942	1.978	1.430	1.423	1.247	1.104	1.029	0.994	0.892	0.958	0.882	0.935	0.770	0.716	0.767	0.838	0.785	0.742	0.833	1.533	4.032	8.913	10.91	8.038	2.786	0.831	0.589	0.648	0.351	0.414	0.436	0.296	0.434	0.448	0.385	0.465	0.375	0.479	0.390	0.519	0.369	0.322	0.405	0.326	0.268	0.342	0.389
245.0	26.84	63.54	78.14	313.9	 1945	 3624	701.8	34.02	12.16	9.443	7.685	9.321	6.244	6.667	4.087	3.480	3.692	3.036	2.875	2.846	3.164	3.071	2.841	2.903	2.148	3.428	2.570	2.017	2.683	2.272	1.843	1.809	1.827	1.671	1.380	1.282	0.831	0.855	1.003	0.930	0.928	0.891	0.743	1.019	0.674	0.765	1.032	1.026	0.704	0.730	1.440	3.241	7.007	12.31	12.71	6.833	2.602	0.693	0.385	0.513	0.447	0.421	0.728	0.467	0.414	0.423	0.460	0.411	0.514	0.467	0.373	0.532	0.308	0.491	0.424	0.467	0.413
250.0	17.62	39.37	94.21	151.1	513.9	 2106	 3555	 2204	200.3	11.95	10.70	10.01	7.800	6.415	5.838	4.400	4.153	3.031	3.515	2.853	2.933	3.102	3.118	2.669	2.910	3.085	2.721	2.887	2.532	2.472	2.105	1.875	1.952	1.789	1.279	1.250	1.095	1.109	1.063	0.892	0.884	0.846	0.772	0.707	0.645	0.749	0.755	0.872	1.055	0.909	0.850	1.224	2.195	4.125	7.244	10.77	13.15	11.06	6.500	2.315	0.729	0.578	0.538	0.527	0.407	0.363	0.512	0.588	0.423	0.476	0.421	0.348	0.452	0.338	0.504	0.455	0.417
255.0	13.90	22.90	58.66	190.4	224.7	497.3	 1492	 5021	 3487	254.4	12.95	10.55	9.751	7.461	5.671	4.003	3.970	3.452	3.610	3.346	3.117	2.690	3.115	2.644	2.414	2.889	2.582	2.839	2.723	2.523	2.246	1.923	1.648	1.783	1.380	1.324	1.278	1.115	0.917	0.838	0.924	0.827	0.862	0.949	0.940	0.871	0.644	0.679	0.735	0.775	1.224	1.379	1.158	1.280	2.099	3.026	4.990	10.68	19.09	19.80	10.46	2.328	0.436	0.513	0.445	0.543	0.670	0.638	0.420	0.465	0.434	0.269	0.257	0.446	0.359	0.379	0.557
260.0	10.69	13.74	26.66	115.3	255.4	188.0	375.0	 2441	 6398	 3024	155.0	13.92	10.33	8.418	5.979	4.328	4.789	4.313	4.184	3.460	3.469	3.402	3.493	2.462	2.909	2.627	2.507	2.571	2.589	2.414	2.279	2.075	1.697	1.656	1.271	1.225	1.216	0.981	0.941	0.767	0.886	0.937	1.072	0.887	0.953	1.065	0.833	0.640	0.588	0.716	0.813	1.459	1.631	1.185	1.111	1.123	1.824	3.258	8.187	18.60	26.74	20.68	8.046	1.131	0.417	0.447	0.511	0.480	0.506	0.393	0.436	0.453	0.315	0.518	0.372	0.461	0.525
265.0	13.62	16.62	19.58	49.17	214.9	272.8	129.3	642.4	 3626	 7537	 2313	63.97	11.82	8.855	7.301	6.559	4.927	4.707	4.250	3.508	3.679	3.485	3.370	2.660	3.458	2.942	2.526	2.207	2.456	2.460	2.438	2.244	2.085	1.703	1.383	1.028	1.029	0.950	0.978	0.667	0.778	0.951	1.002	0.925	0.967	1.109	0.703	0.601	0.641	0.625	0.719	0.995	1.444	1.952	1.595	0.884	0.844	1.203	2.603	5.603	14.09	27.40	30.88	19.14	4.891	0.695	0.475	0.433	0.530	0.405	0.462	0.534	0.457	0.448	0.379	0.383	0.375
270.0	20.26	20.45	18.29	21.95	76.34	246.5	310.6	220.1	931.1	 3652	 7069	 4025	168.4	14.50	8.361	7.199	4.798	4.993	4.677	3.670	3.467	3.927	3.170	2.658	3.304	3.075	3.264	2.880	2.440	2.664	2.355	2.121	1.935	1.623	1.395	1.171	1.218	0.909	1.065	0.876	0.858	0.786	0.874	0.816	0.816	0.968	0.660	0.710	0.775	0.654	0.595	0.677	0.751	1.205	1.775	2.009	1.852	1.320	1.220	1.912	3.785	7.869	14.82	23.66	30.07	26.62	15.62	4.088	0.672	0.405	0.595	0.581	0.497	0.385	0.451	0.456	0.357
275.0	21.61	23.65	23.52	25.07	35.10	85.73	317.8	420.7	278.0	862.9	 2461	 8263	 2968	206.9	11.79	9.477	6.335	5.922	5.291	4.476	3.447	4.087	3.240	2.659	3.322	2.956	3.192	2.673	3.163	2.257	2.752	2.372	2.168	1.792	1.412	1.554	1.423	1.075	0.931	0.836	1.038	0.716	0.607	0.914	0.823	0.919	0.683	0.640	0.699	0.720	0.656	0.661	0.624	0.705	0.769	1.116	1.912	2.658	2.411	1.391	1.506	2.211	3.663	6.108	9.350	19.97	41.29	44.98	21.98	3.905	0.560	0.531	0.513	0.374	0.408	0.350	0.377
280.0	23.11	36.21	40.18	29.96	29.01	42.79	144.1	511.0	368.4	257.0	632.1	 3337	 9970	 2416	117.2	11.55	8.689	6.481	5.806	4.917	3.620	4.129	4.075	3.817	3.510	3.346	2.924	2.579	2.530	2.495	2.866	2.400	1.918	1.618	1.442	1.666	1.374	0.807	0.972	0.876	1.222	0.855	0.670	0.699	0.693	0.843	0.965	0.811	0.941	0.745	0.662	0.663	0.614	0.800	0.588	0.668	1.024	1.869	3.393	2.937	1.641	1.002	1.711	2.100	2.702	5.542	14.88	35.65	52.19	40.46	12.71	1.480	0.583	0.278	0.444	0.640	0.534
285.0	29.37	44.06	60.37	37.16	36.27	34.41	68.95	283.9	651.9	258.5	233.8	891.6	 4802	9999.9	 1744	51.71	10.72	8.522	5.771	5.176	4.198	4.620	3.972	3.303	3.644	3.204	3.536	2.474	2.565	2.915	2.498	2.030	2.306	1.627	1.404	2.020	1.366	0.973	1.046	1.094	0.967	0.963	0.729	0.879	0.834	0.879	0.943	1.012	0.889	0.751	0.801	0.805	0.812	0.828	0.723	0.676	0.889	1.050	1.793	3.102	3.292	1.944	1.366	1.107	1.251	2.101	4.070	9.777	23.73	48.53	54.29	30.45	5.556	0.407	0.423	0.542	0.452
290.0	37.15	57.79	81.39	79.73	58.60	69.52	86.46	150.1	406.6	644.0	360.7	381.9	 1301	 4633	 8411	 5071	104.1	11.84	7.155	6.241	5.130	4.677	4.041	3.739	3.777	3.645	3.436	2.723	2.861	3.030	2.719	2.339	2.005	1.708	1.613	1.505	1.255	1.139	1.088	1.037	0.957	0.882	0.722	0.835	0.834	0.895	0.837	0.980	0.977	0.833	0.788	0.859	0.789	0.852	0.831	0.818	1.117	0.859	1.096	1.642	2.216	3.075	3.635	2.775	1.666	1.366	1.876	3.322	6.660	13.55	23.89	36.65	42.52	36.36	20.61	4.926	0.752
295.0	43.71	74.56	110.5	99.02	92.33	97.86	107.9	142.2	225.6	461.5	945.7	467.8	562.1	 1272	 2573	 8685	 6826	134.2	10.46	7.071	5.998	5.106	4.772	3.897	3.851	3.533	3.438	3.098	2.869	2.736	2.955	2.856	2.444	1.781	1.859	1.409	1.151	0.839	1.440	0.964	1.100	0.888	0.799	1.197	0.792	0.984	1.015	0.911	1.095	0.893	1.012	1.063	0.801	0.904	0.884	0.886	1.062	1.272	1.056	1.151	1.707	1.691	2.609	4.104	4.840	2.997	1.800	2.145	2.985	4.566	6.659	9.230	12.68	25.92	57.24	54.46	26.87
300.0	50.69	80.54	125.3	125.5	118.8	129.2	141.8	166.7	222.1	330.0	832.0	 1001	479.4	579.6	806.0	 3106	9999.9	 1441	87.79	9.756	7.921	5.685	4.613	3.956	4.612	3.755	3.971	3.237	3.281	3.350	2.899	3.249	2.305	2.017	1.977	1.474	1.293	1.032	1.051	1.086	0.957	1.031	0.822	0.933	0.879	0.965	0.837	1.120	0.990	0.937	0.987	1.246	0.782	1.124	0.737	0.975	1.456	1.331	1.288	1.196	1.443	1.463	1.990	2.615	3.861	5.022	4.514	2.440	2.435	2.645	2.832	3.402	3.942	7.290	19.39	46.17	67.88
305.0	55.16	83.68	125.3	135.7	136.6	143.4	176.5	209.8	243.9	315.2	559.7	 1180	865.5	505.6	462.0	862.0	 4324	9999.9	 1170	48.11	8.992	7.385	5.472	4.664	4.754	4.240	3.915	3.429	3.481	3.441	3.167	3.074	2.357	1.941	2.012	1.619	1.189	1.225	0.931	1.033	0.963	0.933	1.014	0.997	0.902	0.931	1.143	1.048	1.287	0.999	1.044	1.072	1.095	1.060	1.171	1.234	1.459	1.458	1.355	1.212	1.418	1.578	1.738	2.167	2.562	4.204	5.648	5.571	3.808	2.533	2.361	2.444	2.764	2.988	5.556	12.47	29.32
310.0	62.49	97.97	142.9	165.5	147.8	162.7	196.5	240.2	277.3	360.2	495.2	799.7	 1161	873.1	467.6	389.1	 1118	 4105	 7487	 4305	74.20	10.68	6.906	5.735	5.180	4.384	4.227	3.770	3.163	3.126	3.118	2.779	2.557	2.288	1.814	1.563	1.385	1.383	1.116	1.014	1.128	0.940	1.009	0.955	0.814	1.033	0.906	1.050	1.176	0.923	1.065	1.233	1.170	1.196	1.227	1.172	1.422	1.563	1.492	1.475	1.559	1.864	1.934	2.055	2.311	2.964	3.610	4.855	5.687	5.234	3.723	2.806	2.257	2.303	2.480	3.888	7.445
315.0	69.15	110.1	172.0	189.8	177.0	188.3	210.8	270.3	308.7	403.0	528.0	682.9	867.2	 1221	801.4	378.8	423.4	 1032	 2195	 7783	 5803	100.3	10.38	7.251	6.046	5.293	4.995	4.520	4.488	3.328	2.966	2.843	2.716	1.952	1.866	1.671	1.262	1.239	1.061	1.045	1.220	1.056	1.138	1.037	0.909	1.093	1.157	1.516	1.050	1.064	1.098	1.122	1.099	1.284	1.113	1.295	1.366	1.560	1.586	1.515	1.679	1.867	1.887	2.127	2.716	3.006	3.125	3.641	3.992	5.279	6.318	5.119	3.936	2.312	2.114	2.172	2.943
320.0	78.80	139.0	205.6	222.2	190.9	206.7	220.2	292.8	342.5	451.5	585.9	691.9	793.8	 1022	 1158	537.0	326.8	395.0	605.9	 2824	 9182	 4165	67.85	9.963	6.939	5.714	4.945	4.045	4.602	4.015	3.247	2.822	2.494	2.280	1.968	1.630	1.508	1.083	1.201	1.081	1.152	1.052	1.074	0.965	1.020	1.004	1.272	1.349	1.422	1.251	1.120	1.211	0.988	1.432	1.461	1.456	1.510	1.491	1.520	1.798	2.082	2.109	2.513	2.216	2.776	3.091	3.311	3.497	3.389	4.066	4.841	6.138	5.951	3.379	2.622	2.026	2.101
325.0	79.13	147.0	274.1	265.1	245.4	230.1	252.3	322.0	379.2	489.5	634.6	742.0	837.5	882.5	 1125	879.0	406.1	305.3	287.4	762.5	 4120	 9236	886.1	40.07	9.090	6.554	5.604	4.565	4.753	4.108	3.589	3.683	2.684	2.411	1.726	1.637	1.437	1.477	1.294	1.004	1.119	1.203	0.999	0.858	0.955	1.237	1.195	1.797	1.817	1.303	1.317	1.444	1.202	1.442	1.451	1.448	1.395	1.586	1.742	1.945	2.170	2.173	2.486	2.444	2.575	3.074	3.204	3.640	3.544	3.648	4.161	4.570	6.026	6.036	3.769	2.554	2.577
330.0	82.42	179.9	327.2	350.3	307.8	277.4	300.2	367.7	445.1	556.9	702.1	826.3	907.0	921.7	937.2	995.8	783.1	421.1	305.9	353.3	 1086	 3858	 6231	 3438	60.19	9.844	6.883	5.469	4.935	3.944	3.737	3.607	2.943	2.610	2.157	1.976	1.345	1.446	1.393	1.100	1.083	1.136	1.094	1.134	1.069	1.305	1.312	1.670	1.928	1.783	1.578	1.588	1.526	1.529	1.665	1.614	1.695	1.798	2.000	2.201	1.999	2.453	2.660	2.825	3.190	3.417	3.487	3.880	3.818	4.067	4.508	3.943	4.779	4.969	5.586	5.006	4.428
335.0	95.10	202.7	379.4	439.6	387.3	346.5	366.9	413.6	516.3	619.5	766.6	899.4	 1004	 1018	967.3	884.8	962.0	800.7	452.4	367.2	466.2	 1022	 2026	 7153	 4913	81.23	11.38	7.405	5.602	5.043	4.105	3.707	3.426	2.685	2.055	1.756	1.563	1.455	1.229	1.423	1.355	1.165	1.283	1.084	1.449	1.329	1.508	1.477	1.887	2.121	1.818	1.784	1.882	1.627	1.649	1.794	1.996	1.961	2.420	2.409	2.485	2.712	3.531	3.187	3.274	3.918	4.205	3.990	4.320	4.281	4.290	5.053	4.671	4.104	4.611	4.584	6.000
340.0	100.6	225.1	422.0	480.4	434.2	421.8	429.0	475.2	567.0	670.6	834.2	967.5	 1067	 1089	 1034	916.4	897.9	 1029	686.4	464.4	413.1	460.1	620.7	 2866	 8392	 3472	59.12	11.22	7.575	5.693	4.808	3.888	3.438	2.808	2.205	2.054	1.790	1.876	1.387	1.468	1.074	1.511	1.131	0.967	1.362	1.322	1.578	1.961	2.245	2.043	2.008	2.011	2.029	1.767	2.066	2.095	2.206	2.275	2.718	2.593	2.773	3.009	3.050	3.284	3.521	3.757	4.436	4.342	4.565	4.987	4.512	4.709	4.971	4.513	4.405	4.204	5.336
345.0	102.3	231.9	409.9	494.3	496.5	477.7	480.8	534.0	623.1	764.2	908.4	 1036	 1135	 1151	 1112	994.9	898.8	 1006	993.8	647.9	507.3	431.3	388.6	854.1	 4188	 8291	731.1	37.92	9.964	6.077	5.685	4.214	3.392	2.912	2.637	2.404	1.817	1.731	1.233	1.224	1.290	1.296	1.198	1.096	1.358	1.322	1.594	2.156	2.376	2.177	2.206	2.395	2.199	2.184	2.098	2.391	2.209	2.376	2.622	2.424	2.902	3.100	3.300	3.799	3.855	4.035	4.406	4.728	4.563	5.222	5.152	5.043	5.325	5.043	4.734	4.673	5.268
350.0	113.6	225.5	438.9	565.1	585.4	566.0	582.5	647.4	731.1	872.3	 1039	 1157	 1234	 1273	 1228	 1135	 1055	 1039	 1129	 1071	798.2	648.3	545.8	554.6	 1245	 3916	 5643	 2890	55.67	12.06	7.530	4.963	3.795	2.969	3.048	2.268	2.118	1.849	1.444	1.415	1.340	1.372	1.305	1.311	1.281	1.604	1.595	1.939	2.140	2.233	2.211	2.698	2.510	2.439	2.425	2.541	2.840	2.761	3.184	3.099	3.265	3.207	3.793	4.048	4.390	5.029	5.020	5.254	5.531	5.301	5.340	5.516	5.498	5.603	5.765	5.746	6.128
355.0	115.8	239.0	440.8	643.4	677.4	705.1	718.4	776.2	883.3	 1028	 1219	 1304	 1398	 1424	 1389	 1305	 1260	 1239	 1246	 1342	 1317	 1011	855.4	743.8	765.6	 1230	 2176	 6885	 4135	73.34	13.15	6.942	5.355	3.433	2.964	2.778	2.331	1.811	1.757	1.546	1.514	1.248	1.211	1.219	1.281	1.663	1.561	2.071	2.272	2.738	2.425	2.773	2.778	2.872	2.833	2.984	3.499	3.029	3.366	3.947	3.701	4.020	4.347	4.954	5.074	5.470	5.712	5.839	6.260	5.838	6.032	6.840	6.411	6.481	7.363	6.871	6.840
360.0	129.7	260.6	489.1	696.8	745.4	819.2	841.9	925.5	 1021	 1191	 1365	 1436	 1510	 1544	 1512	 1450	 1414	 1411	 1427	 1463	 1615	 1420	 1163	972.5	842.1	780.1	847.8	 3124	 7927	 2810	50.88	10.32	6.671	4.000	3.663	2.702	2.421	2.098	1.664	1.912	1.601	1.444	1.291	1.404	1.494	1.829	1.940	2.190	2.526	2.617	2.696	3.164	2.956	3.442	3.037	3.140	3.595	3.872	3.897	3.902	4.042	4.217	4.569	5.460	5.563	5.969	6.352	6.521	7.001	6.431	6.580	6.815	6.950	6.665	7.048	7.487	7.628
365.0	153.2	291.1	532.4	733.5	832.2	889.8	907.3	 1021	 1155	 1294	 1499	 1575	 1650	 1646	 1622	 1562	 1553	 1572	 1614	 1633	 1747	 1780	 1477	 1245	 1042	829.4	660.1	 1033	 4431	 7556	639.9	28.70	8.561	5.366	4.135	2.848	2.517	2.170	1.922	1.806	1.548	1.462	1.424	1.306	1.418	1.712	2.072	2.458	2.663	2.681	2.902	3.652	3.030	3.544	3.776	3.590	3.986	3.679	4.185	4.411	4.442	5.364	5.316	5.691	6.110	6.334	6.522	6.803	7.203	6.995	7.133	7.169	7.592	7.477	8.537	7.876	8.585
370.0	158.2	314.9	570.3	808.0	924.4	 1012	 1039	 1138	 1270	 1448	 1633	 1741	 1777	 1770	 1730	 1702	 1718	 1771	 1846	 1880	 1937	 2015	 1949	 1643	 1361	 1088	823.4	680.0	 1316	 3926	 5472	 2483	44.80	9.521	5.880	3.633	2.962	2.333	2.079	2.055	1.751	1.416	1.539	1.334	1.670	1.971	2.146	2.525	2.810	2.870	2.894	3.751	3.673	4.025	4.047	3.973	4.338	4.231	4.497	4.904	4.915	5.650	6.109	6.218	6.994	7.127	7.175	7.609	7.385	7.488	7.862	7.322	8.117	8.325	8.461	8.779	9.128
375.0	174.5	332.5	611.0	858.5	 1026	 1129	 1158	 1258	 1409	 1614	 1818	 1909	 1939	 1882	 1838	 1822	 1863	 1931	 2040	 2100	 2180	 2199	 2212	 2117	 1727	 1384	 1095	789.6	689.2	 1124	 2266	 6730	 3342	54.40	10.18	5.492	3.372	2.733	2.508	2.147	1.853	1.923	1.624	1.539	1.605	2.216	1.882	2.591	2.866	2.960	3.047	3.964	4.282	4.581	4.537	4.198	4.728	4.886	4.812	5.491	5.868	6.024	6.121	7.233	7.454	7.257	7.064	8.219	7.900	7.726	8.492	8.267	8.391	8.712	9.195	9.974	9.484
380.0	174.9	370.2	645.9	936.3	 1086	 1181	 1250	 1368	 1514	 1702	 1914	 1996	 2025	 1955	 1908	 1900	 1942	 2021	 2138	 2233	 2313	 2329	 2322	 2312	 2032	 1619	 1310	959.1	668.6	583.5	748.9	 3299	 7096	596.3	36.94	8.332	4.968	3.638	2.517	2.131	1.911	1.593	1.806	1.639	2.132	2.188	2.245	2.888	3.375	2.932	3.245	4.218	4.470	4.838	4.797	4.732	4.941	5.086	5.385	5.634	6.764	6.678	6.910	6.981	8.155	7.448	7.786	8.240	9.031	8.432	8.734	8.894	8.503	8.945	10.09	9.849	9.872
385.0	191.1	363.3	668.3	949.3	 1159	 1243	 1361	 1435	 1590	 1809	 1956	 2034	 2068	 2032	 1955	 1947	 1990	 2089	 2201	 2324	 2397	 2453	 2419	 2404	 2273	 1863	 1495	 1135	791.1	574.6	473.8	998.2	 4326	 6027	498.3	21.16	7.721	4.823	3.472	2.413	2.559	1.794	1.891	1.723	2.055	2.306	2.110	2.905	3.278	3.428	3.287	4.424	4.583	5.222	4.859	4.958	5.055	5.362	5.535	6.084	6.369	6.886	7.773	7.907	8.511	8.200	8.891	8.251	9.182	8.991	8.569	8.938	9.360	9.499	9.846	10.51	10.42
390.0	203.4	398.8	695.9	 1028	 1234	 1356	 1434	 1548	 1686	 1881	 2058	 2156	 2157	 2091	 2015	 1992	 2027	 2137	 2259	 2403	 2507	 2547	 2558	 2479	 2388	 2190	 1785	 1387	 1035	773.4	574.1	548.4	 1258	 3518	 4664	 1738	36.67	9.337	5.146	3.581	2.650	2.306	2.242	1.985	2.159	2.553	2.576	3.317	3.113	3.577	3.540	4.532	5.369	5.280	5.005	5.543	5.849	6.662	6.230	6.321	6.797	7.149	7.860	7.972	8.195	8.312	8.966	8.982	9.143	9.490	9.012	9.169	9.304	9.492	10.22	10.19	10.58
395.0	211.7	417.8	731.5	 1085	 1322	 1430	 1526	 1686	 1845	 2002	 2211	 2273	 2285	 2181	 2061	 2025	 2056	 2148	 2306	 2427	 2570	 2639	 2656	 2612	 2502	 2379	 2162	 1721	 1346	 1057	797.5	623.9	615.8	997.7	 2069	 5541	 2546	46.44	9.044	5.339	3.730	2.969	2.432	2.406	2.603	2.774	2.728	3.323	3.686	3.665	3.700	4.784	4.764	5.338	5.488	5.699	5.834	7.249	6.850	7.350	7.434	7.865	7.720	8.416	8.718	9.596	9.137	9.256	9.881	9.626	9.543	9.533	9.827	9.849	9.976	10.09	11.25
400.0	217.8	429.6	836.2	 1154	 1369	 1522	 1622	 1801	 1982	 2124	 2326	 2400	 2424	 2254	 2090	 2030	 2073	 2152	 2297	 2450	 2595	 2669	 2734	 2728	 2633	 2510	 2382	 2070	 1648	 1337	 1059	806.3	600.9	528.0	670.0	 2854	 5652	498.2	31.14	9.294	4.953	3.645	2.518	2.296	2.581	2.827	2.502	3.238	3.772	3.965	3.892	4.902	5.393	5.679	5.623	6.441	6.752	7.214	7.096	7.671	8.145	8.326	8.249	9.149	9.379	10.21	10.45	9.995	9.643	9.965	10.05	9.892	9.714	10.06	9.735	10.56	11.44
405.0	213.5	469.0	857.3	 1208	 1468	 1663	 1790	 1937	 2131	 2310	 2515	 2593	 2538	 2359	 2142	 2049	 2072	 2156	 2292	 2465	 2628	 2733	 2814	 2824	 2770	 2683	 2552	 2384	 2000	 1638	 1350	 1034	729.9	536.7	420.6	868.3	 3619	 3998	405.2	18.13	7.632	5.293	3.226	2.785	2.660	2.948	2.883	3.385	4.147	4.125	3.828	5.594	6.072	6.207	6.350	6.822	7.408	7.709	7.220	8.076	8.058	8.463	9.361	9.808	10.75	10.26	10.25	10.98	11.14	10.34	9.821	9.701	9.823	10.03	9.818	10.93	11.80
410.0	244.2	486.3	916.6	 1313	 1622	 1853	 2024	 2252	 2435	 2646	 2890	 2951	 2803	 2492	 2190	 2063	 2052	 2151	 2298	 2470	 2637	 2793	 2918	 2997	 2993	 2974	 2872	 2750	 2540	 2189	 1817	 1444	 1067	752.6	525.3	472.1	 1064	 2722	 3694	 1410	31.40	7.897	4.657	3.364	3.028	2.961	2.985	3.680	4.109	4.282	4.551	6.054	6.365	7.159	7.110	7.582	8.199	8.337	8.919	9.200	9.887	9.767	10.38	10.61	11.36	11.91	11.51	12.08	11.49	11.16	10.76	10.11	9.990	10.07	10.30	11.20	11.97
415.0	272.0	508.7	982.0	 1428	 1841	 2136	 2361	 2664	 2880	 3091	 3299	 3439	 3187	 2686	 2271	 2079	 2049	 2146	 2296	 2468	 2673	 2848	 3043	 3166	 3236	 3313	 3286	 3201	 3061	 2862	 2421	 1948	 1487	 1081	745.3	521.1	497.3	768.1	 1653	 4371	 1949	38.99	7.705	5.020	3.904	3.400	3.340	4.320	4.438	4.821	5.040	6.295	7.249	7.406	8.475	8.726	9.946	9.602	10.19	10.14	11.18	11.18	12.71	12.46	13.12	13.07	13.50	13.36	13.19	12.07	11.48	10.90	9.961	10.05	10.04	11.59	11.62
420.0	295.0	577.5	 1056	 1569	 2023	 2351	 2647	 2944	 3239	 3448	 3718	 3775	 3460	 2851	 2300	 2078	 2055	 2139	 2283	 2476	 2709	 2924	 3153	 3308	 3444	 3575	 3612	 3584	 3453	 3308	 2930	 2383	 1827	 1354	944.6	643.3	439.0	375.6	508.4	 2292	 4470	449.7	24.29	7.426	5.175	4.174	3.817	4.605	4.709	4.934	5.741	6.853	8.035	8.226	8.974	9.238	10.97	11.45	11.42	11.01	12.68	12.91	13.38	14.17	14.00	14.66	13.97	14.95	13.93	12.43	11.66	10.46	10.43	10.26	10.58	10.92	12.02
425.0	279.3	574.5	 1124	 1698	 2233	 2614	 2925	 3296	 3658	 3838	 4070	 4131	 3772	 2987	 2335	 2094	 2046	 2132	 2288	 2490	 2728	 2977	 3236	 3447	 3625	 3813	 3921	 3917	 3831	 3700	 3396	 2811	 2165	 1620	 1154	777.8	512.5	341.8	271.2	659.9	 2876	 3514	360.0	13.53	6.719	5.047	4.830	5.365	5.259	5.503	6.200	7.851	8.319	9.242	9.091	10.43	11.98	12.38	12.54	13.63	14.04	15.04	14.47	14.74	16.04	17.33	16.05	16.17	15.69	13.70	12.34	11.58	11.26	10.21	10.17	10.64	11.35
430.0	347.8	612.1	 1201	 1815	 2444	 2942	 3346	 3791	 4141	 4308	 4520	 4564	 4126	 3160	 2418	 2106	 2047	 2114	 2277	 2499	 2757	 3017	 3322	 3596	 3862	 4104	 4299	 4365	 4348	 4195	 3887	 3374	 2643	 1981	 1428	982.9	652.7	420.5	273.4	282.5	793.9	 2187	 3045	 1171	27.08	7.925	5.810	5.758	5.620	5.902	6.376	8.276	9.506	9.912	10.68	11.77	12.90	13.85	14.24	15.41	15.78	15.68	16.25	16.50	18.05	17.99	17.82	17.86	16.75	14.52	13.31	11.44	10.82	10.74	11.17	10.76	11.28
435.0	480.4	672.9	 1241	 1958	 2591	 3260	 3683	 4211	 4600	 4769	 4997	 4943	 4413	 3331	 2472	 2104	 2040	 2118	 2268	 2474	 2769	 3056	 3376	 3735	 4012	 4349	 4600	 4761	 4795	 4697	 4355	 3798	 3113	 2357	 1699	 1190	806.6	522.4	340.7	243.5	289.7	564.7	 1307	 3579	 1681	34.91	8.681	7.033	6.575	6.589	6.928	8.560	9.946	10.93	11.56	12.71	14.59	14.80	15.96	17.38	17.46	17.53	18.23	18.35	18.81	19.22	19.65	18.63	18.20	16.07	14.69	13.04	11.20	10.80	10.59	10.82	12.09
440.0	579.4	735.4	 1303	 2037	 2746	 3385	 3848	 4496	 4837	 5074	 5265	 5181	 4596	 3413	 2480	 2103	 2019	 2099	 2263	 2457	 2735	 3067	 3390	 3758	 4097	 4441	 4737	 4941	 5030	 4962	 4617	 4047	 3356	 2614	 1879	 1327	914.9	602.3	393.0	262.6	202.9	216.9	364.1	 1830	 3795	409.0	23.40	8.546	7.966	7.114	7.530	9.204	10.17	11.68	11.90	13.21	15.11	16.26	17.63	18.53	18.62	19.72	18.96	19.33	19.35	20.21	20.83	19.72	18.86	16.55	14.45	12.55	10.97	10.07	10.07	10.71	11.92
445.0	512.2	877.2	 1320	 2085	 2776	 3473	 3998	 4657	 5019	 5187	 5394	 5270	 4732	 3433	 2450	 2077	 1999	 2063	 2211	 2391	 2698	 3009	 3359	 3711	 4095	 4483	 4785	 5019	 5161	 5100	 4773	 4189	 3476	 2772	 2039	 1430	991.3	662.5	440.0	296.3	206.0	154.6	153.8	500.0	 2384	 3202	318.9	15.99	8.509	7.574	7.790	9.234	10.77	12.74	12.61	14.16	15.95	16.57	17.62	18.39	18.82	20.59	19.92	20.95	20.51	21.00	20.90	20.69	18.59	16.72	13.69	13.09	11.44	10.13	10.83	10.61	11.43
450.0	406.1	 1076	 1438	 2063	 2762	 3490	 4027	 4696	 5067	 5201	 5356	 5267	 4656	 3406	 2405	 2015	 1934	 1968	 2093	 2301	 2579	 2891	 3236	 3622	 3989	 4374	 4712	 4982	 5120	 5096	 4802	 4249	 3532	 2808	 2144	 1536	 1063	724.8	493.8	342.4	239.2	168.2	126.5	175.1	632.3	 1923	 2710	 1133	26.09	9.371	8.432	10.02	10.69	13.11	12.60	14.05	15.68	17.09	17.81	18.59	18.94	19.82	20.11	20.49	19.74	20.31	21.21	20.06	18.87	16.18	13.87	12.85	11.14	10.71	10.62	10.28	10.51
455.0	316.8	914.9	 1788	 1969	 2678	 3342	 3966	 4622	 4979	 5051	 5192	 5081	 4470	 3267	 2302	 1898	 1829	 1858	 1947	 2147	 2422	 2718	 3054	 3420	 3772	 4152	 4521	 4788	 4962	 4944	 4690	 4176	 3482	 2786	 2136	 1598	 1117	772.1	540.5	381.2	274.4	196.0	143.2	118.2	199.7	473.3	 1069	 3149	 1630	30.67	9.930	10.73	11.07	12.09	12.50	13.83	15.27	16.58	17.55	18.48	18.93	18.74	20.34	19.43	20.48	19.52	19.88	18.93	18.90	15.66	13.33	11.68	10.63	10.09	10.58	9.642	10.17
460.0	314.8	714.0	 2018	 2142	 2636	 3271	 3806	 4417	 4825	 4861	 4990	 4895	 4286	 3101	 2187	 1819	 1744	 1759	 1844	 2022	 2272	 2550	 2875	 3221	 3570	 3945	 4279	 4561	 4739	 4747	 4519	 4041	 3398	 2725	 2078	 1577	 1150	787.0	559.6	404.1	295.0	214.6	157.1	116.5	112.3	154.8	283.3	 1488	 3332	322.1	23.50	11.87	11.50	11.07	12.58	12.99	14.73	16.21	16.67	17.89	18.09	18.18	19.54	18.41	18.51	19.24	19.30	18.62	18.07	14.74	12.97	11.24	9.833	9.735	9.719	9.965	9.854
465.0	291.1	624.2	 1769	 2635	 2490	 3058	 3663	 4205	 4601	 4654	 4779	 4612	 4106	 2957	 2090	 1724	 1632	 1656	 1737	 1899	 2122	 2384	 2693	 3025	 3346	 3721	 4029	 4292	 4472	 4503	 4296	 3853	 3256	 2611	 1998	 1520	 1141	811.0	576.6	416.3	309.7	227.8	171.0	127.6	101.6	90.26	106.8	389.7	 1914	 2552	286.3	17.99	11.84	11.67	12.00	12.57	13.09	16.16	16.53	17.88	17.30	17.33	17.61	18.20	17.92	17.55	17.69	18.34	16.04	14.01	11.99	10.64	9.220	8.851	8.947	8.906	9.197
470.0	268.9	536.0	 1280	 2876	 2655	 2811	 3323	 3900	 4219	 4297	 4397	 4249	 3716	 2700	 1917	 1579	 1494	 1498	 1577	 1718	 1928	 2138	 2414	 2716	 3023	 3360	 3635	 3868	 4048	 4098	 3935	 3540	 3004	 2415	 1870	 1419	 1070	802.3	580.8	425.5	322.7	244.4	184.4	142.2	110.0	87.20	76.04	127.0	491.4	 1441	 2051	 1039	28.28	12.16	11.78	12.21	13.43	14.45	14.85	15.81	15.71	16.28	15.98	16.60	16.11	16.51	16.35	16.01	14.91	13.57	11.19	9.590	8.869	8.120	7.937	8.242	8.492
475.0	245.6	487.0	960.7	 2223	 3324	 2592	 3050	 3492	 3757	 3836	 3910	 3776	 3334	 2435	 1728	 1428	 1352	 1339	 1405	 1525	 1727	 1879	 2136	 2393	 2676	 2970	 3221	 3431	 3590	 3636	 3512	 3169	 2707	 2182	 1707	 1310	978.1	749.7	583.8	430.8	326.2	252.6	197.0	151.3	117.9	94.54	76.06	74.78	144.2	348.3	736.6	 2119	 1220	36.90	11.60	11.94	12.00	13.08	12.93	13.92	14.53	14.79	14.51	14.92	15.02	14.73	14.87	14.16	13.45	12.64	10.24	9.271	7.989	6.971	7.200	7.239	7.642
480.0	211.2	458.3	826.3	 1603	 3470	 2752	 2787	 3226	 3433	 3530	 3525	 3458	 3050	 2263	 1589	 1308	 1237	 1223	 1293	 1393	 1547	 1714	 1936	 2173	 2413	 2698	 2925	 3113	 3256	 3332	 3197	 2898	 2481	 2018	 1583	 1224	916.7	698.2	557.2	436.4	325.8	252.0	199.9	157.8	126.2	98.24	78.84	67.12	69.48	107.1	190.0	911.5	 2288	379.1	25.83	12.15	11.01	12.37	12.76	12.68	13.32	12.87	13.57	14.05	13.63	14.32	14.10	12.98	12.52	10.90	10.22	8.151	7.419	6.944	6.582	7.053	6.764
485.0	178.7	431.2	763.7	 1291	 2917	 3342	 2559	 2943	 3169	 3236	 3244	 3202	 2775	 2084	 1475	 1230	 1143	 1139	 1194	 1254	 1414	 1573	 1767	 1975	 2205	 2445	 2662	 2840	 2968	 3033	 2922	 2665	 2284	 1861	 1478	 1142	859.2	660.9	525.1	427.2	333.9	253.5	201.1	160.9	132.4	104.2	85.77	68.56	56.07	56.16	66.53	234.3	 1216	 2032	315.4	17.06	11.15	11.44	12.20	11.96	12.68	12.40	12.76	12.05	12.97	12.81	12.81	11.85	11.79	10.19	8.998	7.485	6.519	6.318	6.507	5.947	6.245
490.0	163.3	377.0	696.6	 1116	 1924	 3553	 2764	 2587	 2794	 2864	 2891	 2854	 2476	 1847	 1310	 1099	 1022	 1012	 1053	 1120	 1243	 1380	 1554	 1740	 1925	 2133	 2317	 2495	 2606	 2663	 2572	 2345	 2013	 1657	 1326	 1028	785.7	610.9	478.2	391.5	330.4	257.7	199.9	162.0	134.0	108.7	90.84	72.77	57.71	48.15	42.66	74.20	306.5	984.6	 1656	908.1	29.94	11.74	11.22	11.08	11.69	11.16	11.82	10.72	11.71	11.57	11.70	10.87	10.58	8.905	7.505	6.928	6.045	6.154	5.935	6.003	5.577
495.0	157.2	334.1	639.1	977.7	 1381	 2552	 3479	 2357	 2433	 2488	 2504	 2456	 2148	 1584	 1160	964.4	900.0	888.1	923.9	978.7	 1075	 1211	 1344	 1498	 1654	 1826	 1985	 2134	 2249	 2292	 2219	 2030	 1736	 1445	 1163	915.0	707.4	545.7	432.4	356.4	304.9	263.4	205.3	161.3	134.0	110.8	95.51	75.91	63.80	50.42	39.41	40.52	87.72	235.3	580.7	 1798	 1206	38.03	10.86	10.09	10.52	9.872	9.100	9.616	10.31	10.15	9.559	9.724	8.971	7.931	6.630	5.897	5.127	5.188	5.137	5.537	5.195
500.0	145.3	296.8	587.0	875.6	 1210	 1727	 3587	 2549	 2148	 2211	 2256	 2203	 1917	 1423	 1043	866.9	799.6	792.7	828.6	875.6	962.9	 1077	 1184	 1308	 1454	 1614	 1752	 1879	 1987	 2019	 1969	 1807	 1554	 1294	 1045	820.8	643.7	506.1	402.8	326.5	277.9	248.7	201.9	161.6	130.1	112.1	94.82	77.57	64.70	49.81	40.16	33.36	39.78	69.84	146.4	761.0	 2113	392.5	26.75	9.740	9.300	8.951	9.085	8.339	9.249	8.894	9.164	8.520	8.230	7.272	6.523	5.611	5.320	4.777	4.772	4.712	5.061
505.0	136.3	251.2	498.4	784.6	 1079	 1347	 2897	 3134	 1963	 2012	 2008	 1956	 1715	 1288	948.7	783.5	722.1	717.3	737.3	797.7	857.0	952.8	 1059	 1167	 1296	 1432	 1560	 1662	 1758	 1795	 1737	 1603	 1384	 1163	937.7	742.4	591.3	458.7	368.8	302.6	256.7	226.0	198.9	162.2	129.4	111.1	92.95	77.30	65.36	52.20	42.18	34.01	30.42	33.18	47.00	192.4	 1093	 1901	329.8	14.47	8.297	8.246	8.119	7.782	8.139	7.987	7.356	7.998	7.600	6.685	5.849	4.997	4.296	4.445	4.199	4.229	4.508
510.0	108.9	213.8	430.4	683.1	914.0	 1126	 1788	 3383	 2236	 1698	 1724	 1663	 1486	 1109	814.5	696.1	628.3	624.6	636.0	683.5	736.9	814.4	903.0	 1001	 1102	 1216	 1321	 1410	 1478	 1516	 1474	 1356	 1183	992.8	807.4	644.4	510.9	404.3	328.6	271.4	231.5	200.4	180.1	159.3	129.9	107.1	90.94	76.15	64.31	52.43	43.18	34.84	29.40	25.22	26.00	56.22	272.2	922.5	 1468	665.2	27.41	8.247	7.673	7.170	7.125	6.889	7.046	7.199	6.525	5.588	4.691	4.513	3.751	4.086	3.746	3.853	4.093
515.0	81.72	185.0	351.7	594.6	794.2	916.5	 1227	 2350	 3182	 1520	 1443	 1433	 1257	943.5	696.9	589.5	545.8	531.9	540.8	577.6	633.2	693.5	765.1	830.2	921.7	 1010	 1098	 1177	 1233	 1256	 1234	 1134	990.7	839.8	681.5	550.2	438.4	350.6	290.4	241.7	204.7	179.5	155.5	144.8	131.1	105.6	85.81	75.20	63.57	51.27	43.78	35.51	28.85	23.48	21.17	26.38	72.57	216.4	515.8	 1500	929.0	33.09	7.076	5.972	5.872	6.273	5.822	6.035	5.677	4.905	3.833	3.889	3.464	3.419	3.465	3.681	3.709
520.0	65.34	173.9	326.4	509.7	722.5	850.5	994.6	 1492	 3425	 1753	 1251	 1257	 1081	832.7	620.3	528.6	488.1	471.3	476.2	513.8	554.3	609.6	665.9	732.4	804.3	876.5	950.1	 1013	 1067	 1089	 1078	985.0	870.5	734.1	599.5	478.1	389.0	313.5	264.0	218.1	188.2	163.0	144.1	128.9	123.2	108.3	84.34	71.62	61.32	50.45	43.51	35.15	28.92	25.01	20.98	19.56	28.49	58.77	127.0	661.7	 1643	370.3	19.57	6.024	5.624	5.346	5.435	5.269	4.847	4.194	3.721	3.465	3.446	2.743	3.066	3.177	3.171
525.0	69.90	138.9	282.4	430.0	631.0	750.3	849.1	 1086	 2694	 2555	 1117	 1096	962.5	739.8	561.7	469.9	436.1	420.3	421.7	457.3	484.9	531.3	586.2	650.9	701.4	774.5	836.4	883.2	940.0	958.1	941.9	858.2	767.0	645.9	532.2	432.5	349.7	286.3	238.2	200.4	172.7	150.4	130.0	117.4	113.3	105.6	86.47	69.84	59.16	50.10	40.84	34.78	28.82	24.54	20.11	18.67	17.45	23.59	37.46	165.3	874.0	 1439	282.2	8.614	5.188	4.732	4.586	4.493	4.131	3.912	3.672	3.133	2.913	2.657	2.746	2.649	2.793
530.0	66.60	115.6	239.6	354.3	512.2	669.3	733.4	852.0	 1446	 2994	 1496	937.4	819.0	632.4	481.2	400.2	373.0	360.9	365.0	385.1	414.4	447.8	491.6	544.9	593.2	646.1	698.3	745.8	781.2	805.1	782.1	726.0	639.9	543.7	448.0	369.3	297.7	247.5	205.2	174.4	152.8	134.3	115.8	103.7	96.43	92.05	85.18	68.94	55.29	46.53	38.84	32.73	27.33	23.50	20.46	17.96	15.73	15.30	17.49	44.55	216.3	705.1	 1077	482.2	22.14	4.687	4.426	4.157	3.833	3.374	2.987	2.870	2.625	2.400	2.294	2.471	2.589
535.0	52.33	96.91	196.7	298.5	399.6	577.5	625.7	691.3	869.6	 1905	 2619	854.4	693.7	525.6	407.6	340.0	316.7	304.0	307.2	321.8	350.4	372.5	407.6	448.5	490.0	529.4	569.8	606.6	645.3	663.0	641.4	602.8	529.6	449.0	373.3	311.0	254.0	207.8	177.0	151.3	133.0	117.9	105.0	92.57	83.75	76.96	77.38	67.47	53.77	44.14	37.17	31.13	26.43	23.22	19.69	18.17	14.95	13.73	13.05	17.70	55.46	163.6	389.0	 1117	388.4	25.45	4.341	3.736	3.609	3.242	2.717	2.343	2.283	1.694	1.863	1.979	2.649
540.0	51.68	84.97	164.2	261.6	348.4	466.4	587.7	598.6	677.1	 1038	 2959	 1147	589.5	460.5	355.2	302.2	274.4	267.5	270.5	282.0	303.2	321.0	354.2	388.5	421.9	455.9	490.6	520.2	549.4	564.8	544.9	513.3	450.3	388.0	326.8	269.4	219.4	183.1	156.4	135.6	117.1	105.5	93.97	81.97	74.61	70.33	65.53	65.05	53.17	41.54	34.85	28.73	24.71	21.85	19.91	17.63	14.94	13.13	11.21	11.62	19.40	42.68	94.63	503.8	 1122	314.9	10.82	3.556	3.581	2.779	2.752	2.288	1.925	1.761	2.000	1.833	2.133
545.0	45.20	74.54	154.6	227.5	307.9	401.5	534.4	527.9	569.0	669.5	 2232	 1989	531.5	414.4	310.6	265.4	241.2	230.6	238.7	246.1	263.1	281.6	309.3	334.7	362.3	399.2	419.5	448.7	475.7	481.9	474.4	443.8	396.6	335.3	284.5	233.4	192.6	157.0	138.0	118.7	106.1	93.66	85.52	76.02	67.70	61.81	58.05	56.78	51.30	41.71	32.98	27.07	23.05	21.12	18.34	16.48	14.87	12.11	11.39	9.583	11.17	15.60	26.03	125.1	647.7	 1025	53.95	5.591	3.471	2.715	2.526	2.135	1.908	1.838	2.029	1.702	1.749
550.0	37.12	65.44	137.2	187.3	250.7	317.5	422.3	466.9	458.0	511.9	 1013	 2457	871.4	332.4	256.1	218.0	202.4	193.0	196.5	203.1	216.4	233.8	254.8	273.9	295.7	321.6	345.3	364.1	383.8	392.9	387.6	358.3	320.4	273.4	231.3	194.8	159.2	132.8	115.3	101.1	88.91	79.25	70.37	64.39	58.25	52.69	49.42	45.33	45.50	39.98	31.77	25.31	21.72	19.24	16.66	15.14	14.00	11.46	11.15	9.263	8.560	8.913	10.91	32.59	161.7	534.1	733.3	221.5	16.30	2.695	2.210	1.943	1.735	1.626	1.530	1.436	1.389
555.0	26.90	56.68	97.38	153.6	198.1	253.3	324.4	415.5	377.6	399.7	513.9	 1398	 2042	313.5	204.7	170.6	162.2	159.3	157.8	163.1	174.2	186.0	203.6	218.4	232.6	249.7	271.4	282.7	302.0	309.8	298.0	278.7	248.8	212.1	183.8	151.3	127.6	106.4	91.81	83.04	72.21	66.14	59.24	53.04	48.81	44.27	39.88	36.94	35.26	34.65	31.00	22.54	18.93	16.49	14.70	13.89	11.43	10.60	10.38	8.714	7.669	6.614	6.977	11.66	40.27	123.3	291.1	754.9	320.9	15.16	2.077	1.713	1.789	1.662	1.299	1.285	0.974
560.0	26.57	51.67	79.09	126.5	162.1	214.2	253.4	361.9	330.9	319.5	349.3	624.4	 2417	578.9	179.7	147.1	136.5	134.9	133.6	137.9	143.8	153.7	164.2	179.0	193.2	204.4	218.9	232.3	246.2	249.6	244.8	227.2	206.3	176.2	149.9	126.4	106.1	89.93	77.52	69.01	60.47	55.16	50.59	45.26	43.13	38.68	34.90	31.52	30.26	28.59	28.15	22.04	17.43	15.31	13.42	12.07	11.10	9.781	9.312	8.753	6.700	6.114	6.554	6.525	12.94	30.82	71.14	369.9	734.6	212.5	5.118	1.841	1.762	1.405	1.209	1.212	1.131
565.0	28.65	39.80	69.24	107.8	142.8	176.8	208.4	291.5	308.4	266.3	278.1	346.9	 1677	 1338	155.5	123.4	113.7	111.7	110.9	115.5	121.4	124.8	137.0	146.6	158.0	169.3	184.5	193.0	206.1	204.5	201.4	188.9	169.8	147.9	122.9	103.6	88.69	74.45	64.99	57.41	52.58	46.81	44.87	38.05	36.92	33.18	30.57	27.50	25.31	22.91	24.42	21.24	15.98	13.26	12.10	11.33	10.22	9.546	8.641	8.201	7.017	6.350	5.716	5.997	6.752	10.00	19.60	94.84	458.1	639.4	47.58	2.491	1.623	1.478	1.059	1.160	1.088
570.0	25.29	37.73	61.45	89.89	110.1	131.9	163.9	203.5	286.4	216.5	213.8	228.4	635.1	 1895	459.1	102.3	93.11	89.46	86.71	91.83	95.33	97.67	107.5	114.6	122.4	131.1	144.7	147.5	155.0	159.3	156.8	146.4	131.4	114.6	96.40	82.42	68.14	60.16	52.99	47.02	41.07	36.91	34.90	31.05	29.45	27.19	23.98	22.56	20.50	18.47	17.55	17.60	15.46	12.46	10.58	9.479	8.443	8.236	7.472	7.201	6.416	5.332	5.457	5.261	5.341	5.453	7.283	24.04	117.1	360.8	408.8	161.2	9.046	1.424	1.006	1.007	0.900
575.0	23.54	33.90	53.91	71.87	83.72	112.1	112.7	139.8	215.0	224.2	170.9	168.0	251.5	970.0	 1468	108.6	74.87	69.12	67.10	70.92	74.00	75.75	84.35	88.66	94.50	100.5	107.6	113.6	115.8	119.2	118.1	110.2	98.44	87.08	73.48	62.92	54.50	47.16	41.28	36.14	31.11	30.23	27.33	24.15	22.87	20.79	19.39	17.77	16.69	14.64	13.72	13.08	13.33	11.44	9.227	7.731	7.034	6.513	6.849	5.970	5.709	5.500	4.970	4.323	4.360	3.935	4.609	7.980	28.35	83.09	177.6	447.7	178.3	6.182	1.102	1.047	0.844
580.0	18.57	28.45	49.72	64.35	67.44	86.74	106.3	117.3	160.3	206.9	142.8	145.1	157.1	358.9	 1813	230.2	62.74	56.74	56.29	57.93	61.91	63.34	66.46	70.51	77.22	84.25	87.20	92.83	92.80	96.97	98.08	87.75	81.35	71.29	59.40	52.42	42.96	39.22	32.99	29.70	26.42	25.41	22.88	20.82	18.56	17.08	16.67	14.85	13.97	12.07	11.31	10.41	10.31	11.05	8.792	6.656	6.564	6.026	5.949	5.283	5.106	4.974	4.808	3.433	3.788	3.519	3.553	4.310	8.884	20.55	44.01	232.0	422.6	51.15	2.429	0.909	0.723
585.0	17.07	28.10	39.52	55.03	68.12	79.90	87.93	102.7	122.5	187.3	144.5	127.8	119.2	153.8	 1207	917.4	56.78	49.69	49.72	50.74	49.92	52.59	55.78	59.91	64.92	68.00	71.58	74.75	75.58	82.43	78.91	72.58	68.64	58.12	50.18	43.80	35.64	31.84	27.94	26.04	22.67	21.20	19.16	17.73	16.46	14.43	14.23	12.87	12.28	10.41	9.539	8.981	8.573	8.974	8.379	6.683	5.933	5.406	4.949	4.974	4.334	4.303	4.728	3.660	3.647	3.353	3.375	3.268	4.017	6.097	11.56	59.79	285.3	323.0	37.88	1.013	0.808
590.0	21.17	25.08	36.62	47.64	54.79	62.06	75.69	81.61	93.64	138.9	162.8	113.1	97.99	93.82	405.1	 1335	284.5	40.77	39.27	40.13	39.79	41.76	44.09	48.02	50.63	52.90	57.36	59.86	59.37	63.13	61.80	58.22	52.63	46.57	39.35	34.59	28.51	25.31	22.34	21.20	18.77	16.90	15.73	14.79	13.72	12.31	11.56	10.62	9.745	8.821	8.002	7.236	6.766	7.220	7.545	6.752	5.436	4.695	4.216	3.942	3.802	3.751	3.852	3.377	3.063	2.763	2.607	2.780	2.476	2.823	3.875	14.57	73.89	203.3	250.5	89.73	4.769
595.0	17.09	22.54	35.13	37.97	48.01	56.47	57.84	70.99	72.57	92.47	148.1	117.1	85.33	70.44	131.4	652.4	 1019	50.10	29.57	29.91	30.99	32.03	34.35	37.31	39.21	38.98	42.54	45.23	46.50	46.96	46.98	44.24	40.88	34.72	29.70	27.27	22.87	18.99	17.98	16.18	14.76	13.68	12.61	10.87	11.35	10.49	9.446	8.817	8.084	6.878	6.482	5.459	5.517	5.333	5.691	6.219	5.138	4.236	3.540	3.286	3.000	3.276	2.791	3.076	2.831	2.260	2.021	2.446	1.916	1.688	1.786	4.401	17.11	47.00	114.7	264.1	54.95
600.0	13.03	27.24	34.07	31.51	35.85	43.15	45.82	61.52	65.82	77.35	129.8	126.2	78.39	68.26	69.50	215.2	 1252	155.8	26.20	25.27	25.06	25.88	29.40	30.57	32.19	32.26	36.02	36.91	38.51	38.78	37.54	36.07	31.82	28.09	24.71	21.23	19.11	15.32	14.80	13.11	12.08	12.15	10.82	8.894	8.901	8.905	8.100	7.507	6.829	6.153	5.044	4.975	4.537	3.974	4.447	5.232	5.167	3.827	3.372	2.733	2.570	2.857	2.685	2.235	2.423	2.750	2.056	2.246	1.487	1.517	1.586	1.729	4.575	11.33	28.26	147.4	232.6
605.0	13.72	23.38	26.51	31.25	32.22	38.16	43.01	57.83	63.78	63.24	101.7	138.5	73.59	65.76	54.05	75.89	828.3	627.3	26.16	22.46	21.46	22.94	24.88	24.97	25.80	26.67	29.24	31.17	31.81	32.88	32.63	29.43	28.39	22.44	20.79	18.13	15.24	13.46	11.78	10.87	10.20	9.814	9.416	7.963	7.760	7.431	6.687	5.878	5.458	4.816	4.930	4.669	3.949	3.716	3.786	4.156	4.789	4.448	2.956	2.545	2.366	2.518	2.310	2.081	2.206	2.312	1.947	1.742	1.633	1.104	1.294	1.037	1.882	3.241	7.049	39.60	170.8
610.0	14.36	19.73	25.25	29.74	31.62	34.04	40.11	46.95	52.29	53.60	72.64	115.7	96.87	57.93	44.97	41.43	263.0	946.6	118.0	18.21	18.13	18.34	19.46	19.71	20.28	22.18	23.63	23.06	25.19	25.12	25.02	23.28	21.49	18.25	16.73	14.27	11.97	10.86	9.947	8.462	8.139	7.437	7.043	6.748	6.462	5.862	5.602	5.403	4.253	3.946	3.997	3.716	3.255	3.282	3.152	3.092	3.482	3.933	2.746	2.426	2.005	1.936	1.748	1.804	1.708	1.860	1.767	1.807	1.538	1.283	1.205	0.986	1.129	1.284	2.257	9.450	44.64
615.0	10.91	15.32	28.20	26.93	28.48	27.88	34.11	37.96	42.76	46.29	59.65	78.07	107.0	55.24	39.67	29.26	75.96	458.6	713.3	26.35	13.96	13.56	13.94	16.02	16.65	17.21	17.64	18.96	18.92	19.56	18.39	17.82	16.47	14.67	12.10	10.72	10.11	8.579	7.783	6.823	6.152	5.675	5.791	4.799	5.155	4.687	4.285	4.392	3.745	3.217	3.262	2.990	2.425	2.296	2.254	2.366	2.547	3.231	2.594	2.312	1.915	1.652	1.519	1.728	1.443	1.326	1.465	1.501	1.343	1.174	1.132	1.096	0.834	0.764	1.114	2.508	10.64
620.0	12.35	15.26	24.12	26.43	25.85	26.16	30.87	35.22	40.91	40.52	48.78	60.01	104.7	63.10	36.62	27.14	32.49	142.1	901.6	116.8	12.88	11.73	12.90	13.36	13.32	13.42	15.58	14.67	14.62	15.26	15.71	14.60	12.64	12.36	10.13	8.793	7.983	7.552	6.193	5.636	4.815	4.965	4.591	3.949	4.324	3.836	3.539	3.462	3.138	2.668	2.481	2.315	2.093	2.219	1.918	1.748	2.045	2.398	2.537	2.193	1.772	1.472	1.326	1.541	1.100	1.306	1.215	1.284	1.231	1.116	0.977	0.865	0.871	0.793	0.667	1.047	2.881
625.0	16.64	20.27	22.10	29.88	23.38	24.17	24.39	32.94	37.89	35.80	44.38	50.66	86.66	74.82	39.55	25.79	20.66	45.47	601.0	476.1	13.04	11.21	10.53	11.06	11.24	11.84	12.37	12.21	12.96	12.73	13.91	11.90	10.94	9.561	8.858	7.291	6.182	5.755	5.281	4.944	3.956	4.236	3.767	3.743	3.440	3.113	3.150	2.848	2.515	2.459	2.221	1.829	1.853	1.919	1.624	1.553	1.600	1.898	2.035	2.204	1.697	1.476	1.450	1.270	0.921	1.281	1.025	1.240	1.141	1.252	1.038	0.786	0.748	0.681	0.606	0.833	1.090
630.0	12.21	13.64	19.99	22.36	20.84	24.78	21.23	28.63	31.98	36.32	40.10	47.68	60.62	81.86	41.70	25.66	18.16	20.57	188.4	713.4	90.89	9.644	8.713	8.639	8.813	9.557	9.715	9.941	10.40	10.39	10.57	9.621	8.529	7.342	6.594	5.531	5.348	4.586	4.504	3.939	3.495	3.392	3.332	2.817	2.721	2.389	2.428	2.405	2.116	1.948	1.861	1.743	1.584	1.464	1.403	1.356	1.513	1.489	1.559	1.497	1.704	1.489	1.210	1.064	0.928	1.078	0.995	1.072	1.041	0.927	1.022	0.851	0.709	0.707	0.652	0.663	0.690
635.0	12.97	15.62	19.97	17.57	18.06	19.20	18.79	23.61	29.79	31.07	36.78	43.26	46.28	70.66	54.59	25.15	17.88	15.50	50.92	338.5	537.7	17.14	7.139	7.641	6.324	7.200	7.951	7.526	7.806	8.510	7.757	7.008	6.944	5.716	5.123	4.752	4.063	3.654	3.329	3.072	2.864	2.616	2.467	2.589	2.083	2.217	1.910	1.821	1.636	1.586	1.549	1.391	1.235	1.265	1.168	1.153	1.126	1.213	1.167	1.247	1.580	1.201	1.038	1.052	0.937	0.768	0.906	1.090	0.969	0.877	0.884	0.950	0.796	0.612	0.600	0.587	0.670
640.0	11.22	18.44	18.75	20.48	14.10	19.47	20.12	21.51	27.59	32.87	38.81	44.15	43.25	55.73	64.39	27.43	18.25	14.54	19.84	104.1	683.7	92.52	6.289	5.918	5.824	6.231	6.900	6.168	6.975	6.958	6.587	5.990	5.505	4.733	4.330	3.985	3.431	3.491	2.766	2.660	2.470	2.071	2.174	2.090	1.825	1.777	1.533	1.848	1.208	1.318	1.283	1.048	1.281	1.210	1.089	1.065	1.025	1.268	1.257	1.144	1.458	1.123	1.209	1.072	0.824	0.659	1.057	0.814	0.941	0.767	0.681	0.844	0.773	0.638	0.574	0.610	0.551
645.0	8.512	18.64	19.45	18.07	15.22	16.13	18.16	19.16	26.47	31.86	37.13	37.20	47.29	45.96	64.95	35.08	18.37	14.79	13.69	31.45	458.9	356.6	7.694	4.932	5.401	5.552	6.068	5.510	5.581	6.305	6.159	5.006	4.641	4.628	3.923	3.106	2.771	2.711	2.581	2.479	2.160	1.755	1.990	1.669	1.709	1.502	1.519	1.526	1.178	1.173	1.146	1.106	0.928	1.134	0.900	0.976	0.992	0.921	0.949	0.828	1.170	1.085	1.086	0.872	0.865	0.776	0.788	0.679	0.727	0.744	0.740	0.715	0.906	0.748	0.638	0.581	0.575
650.0	11.19	16.56	20.63	21.23	18.41	17.55	16.37	22.51	24.15	33.45	34.02	35.10	39.30	41.23	55.95	43.16	18.91	14.37	12.85	14.92	175.3	587.0	35.16	4.764	4.982	4.756	4.924	5.539	4.830	5.421	5.045	4.324	3.878	3.810	3.377	3.030	2.590	2.486	1.751	1.918	2.042	1.695	1.600	1.580	1.293	1.235	1.228	1.178	0.993	0.977	0.947	0.964	0.677	0.779	0.784	0.945	1.021	0.770	0.868	0.674	0.959	0.987	0.914	0.972	0.846	0.539	0.734	0.689	0.655	0.689	0.699	0.458	0.788	0.693	0.618	0.489	0.595
