Sample:	'1
File name:	g2025082001ÐÁ·á×¯.FD3
Run date:	'16:31:53, 08/20/2025
Operator:	Administrator
Comment:	'

Instrument
Model:	F-2700 FL Spectrophotometer
Serial number:	23B8-004
ROM Version:	4J14000 07

Instrument parameters
Measurement type:	3-D scan
Data mode:	Fluorescence
EX  Start WL:	220.0 nm
EX  End WL:	600.0 nm
EX Sampling interval:	5.0 nm
EM  Start WL:	230.0 nm
EM  End WL:	650.0 nm
EM Sampling interval:	5.0 nm
Scan speed:	12000 nm/min
EX Slit:	5.0 nm
EM Slit:	5.0 nm
PMT Voltage:	700 V
Response:	Auto 
Corrected spectra:	Off
Contour interval:	50.000

Peak integration
Integration method:	Rectangular
Sensitivity:	1
Threshold:	1.000

Peaks
No.	ApexEX/EM(nm)	Height(Data)
1	225.0/580.0	39.74
2	225.0/590.0	39.33
3	225.0/615.0	33.46
4	225.0/630.0	28.38
5	230.0/345.0	877.6
6	230.0/500.0	296.3
7	235.0/255.0	339.7
8	235.0/355.0	809.2
9	235.0/365.0	825.2
10	235.0/510.0	260.3
11	240.0/265.0	416.0
12	240.0/370.0	823.1
13	240.0/380.0	820.5
14	240.0/525.0	235.3
15	245.0/270.0	410.0
16	245.0/535.0	201.9
17	250.0/275.0	526.1
18	250.0/550.0	171.6
19	255.0/280.0	625.5
20	255.0/565.0	146.4
21	260.0/290.0	618.2
22	260.0/575.0	127.9
23	265.0/380.0	726.9
24	265.0/585.0	111.2
25	270.0/300.0	1109
26	270.0/600.0	102.7
27	275.0/305.0	1136
28	275.0/610.0	84.23
29	280.0/340.0	754.5
30	280.0/625.0	70.82
31	285.0/320.0	939.6
32	285.0/640.0	50.14
33	290.0/325.0	910.6
34	295.0/330.0	833.7
35	300.0/340.0	876.3
36	305.0/345.0	799.8
37	330.0/375.0	387.2
38	335.0/380.0	383.0
39	340.0/390.0	356.4
40	345.0/395.0	341.2
41	350.0/400.0	337.1
42	355.0/410.0	303.3
43	360.0/415.0	286.2
44	365.0/420.0	272.2
45	410.0/480.0	65.92
46	425.0/500.0	42.10
47	440.0/520.0	26.28
48	455.0/540.0	14.16
49	470.0/560.0	6.720
50	480.0/260.0	1.927
51	485.0/265.0	2.132
52	495.0/270.0	2.172
53	505.0/275.0	3.438
54	510.0/280.0	3.942
55	520.0/285.0	4.139
56	530.0/290.0	4.017
57	540.0/295.0	5.128
58	545.0/300.0	5.901
59	550.0/305.0	5.991
60	560.0/310.0	5.155
61	585.0/325.0	6.789

Data points
	220.0	225.0	230.0	235.0	240.0	245.0	250.0	255.0	260.0	265.0	270.0	275.0	280.0	285.0	290.0	295.0	300.0	305.0	310.0	315.0	320.0	325.0	330.0	335.0	340.0	345.0	350.0	355.0	360.0	365.0	370.0	375.0	380.0	385.0	390.0	395.0	400.0	405.0	410.0	415.0	420.0	425.0	430.0	435.0	440.0	445.0	450.0	455.0	460.0	465.0	470.0	475.0	480.0	485.0	490.0	495.0	500.0	505.0	510.0	515.0	520.0	525.0	530.0	535.0	540.0	545.0	550.0	555.0	560.0	565.0	570.0	575.0	580.0	585.0	590.0	595.0	600.0
230.0	33.12	634.2	1629	504.4	18.84	3.082	2.966	2.426	2.663	2.144	1.932	1.513	1.401	1.212	1.200	0.991	0.900	0.790	0.667	0.725	0.699	0.532	0.446	0.378	0.411	0.424	0.348	0.360	0.245	0.310	0.262	0.249	0.275	0.254	0.202	0.206	0.252	0.210	0.186	0.176	0.183	0.316	0.324	0.231	0.166	0.158	0.648	3.108	5.738	4.437	1.652	0.330	0.139	0.121	0.137	0.099	0.133	0.105	0.099	0.108	0.073	0.088	0.056	0.069	0.080	0.098	0.101	0.079	0.118	0.139	0.099	0.119	0.080	0.101	0.112	0.108	0.069
235.0	83.39	179.6	1009	1806	490.4	35.09	3.430	2.144	2.675	2.343	2.110	1.935	1.226	1.539	1.014	1.147	0.716	0.930	0.732	0.633	0.664	0.420	0.552	0.504	0.422	0.421	0.407	0.305	0.400	0.302	0.182	0.327	0.252	0.264	0.299	0.203	0.220	0.214	0.227	0.229	0.196	0.311	0.324	0.374	0.349	0.206	0.204	0.903	1.954	4.326	6.136	6.576	3.146	0.564	0.209	0.102	0.132	0.122	0.106	0.140	0.114	0.127	0.075	0.062	0.079	0.102	0.084	0.060	0.092	0.090	0.112	0.122	0.076	0.070	0.109	0.145	0.037
240.0	125.9	124.1	300.5	1508	2026	389.4	16.89	3.894	2.713	2.555	2.040	1.749	1.458	1.866	1.324	1.307	0.943	0.807	0.708	0.534	0.628	0.504	0.591	0.342	0.471	0.319	0.425	0.362	0.393	0.259	0.272	0.301	0.243	0.306	0.274	0.181	0.178	0.219	0.259	0.254	0.148	0.206	0.193	0.274	0.505	0.563	0.340	0.381	0.525	1.277	3.384	8.205	10.75	7.824	3.142	0.539	0.169	0.153	0.190	0.068	0.148	0.050	0.096	0.039	0.097	0.180	0.141	0.033	0.103	0.116	0.087	0.133	0.062	0.044	0.148	0.120	0.027
245.0	101.8	197.3	128.4	513.6	2115	2092	285.5	9.052	3.919	2.763	2.536	2.421	1.708	1.644	1.376	1.292	1.101	0.947	0.692	0.561	0.811	0.665	0.524	0.474	0.361	0.311	0.337	0.370	0.341	0.247	0.353	0.258	0.295	0.294	0.185	0.152	0.218	0.161	0.231	0.141	0.254	0.223	0.175	0.160	0.371	0.506	0.632	0.717	0.370	0.460	0.922	2.696	6.926	12.26	13.36	7.175	1.943	0.260	0.146	0.115	0.123	0.058	0.114	0.127	0.121	0.145	0.089	0.054	0.109	0.138	0.113	0.192	0.092	0.100	0.072	0.079	0.056
250.0	40.59	144.7	239.6	213.2	673.0	2007	2596	959.6	59.54	3.982	3.473	2.884	2.334	2.082	1.796	1.121	1.226	0.907	0.839	0.739	0.898	0.694	0.513	0.599	0.406	0.402	0.289	0.364	0.319	0.355	0.284	0.264	0.238	0.276	0.238	0.193	0.181	0.162	0.200	0.198	0.224	0.229	0.201	0.152	0.218	0.250	0.452	0.658	0.904	0.783	0.636	0.837	1.718	3.822	7.347	11.43	14.72	13.15	7.909	2.138	0.294	0.099	0.171	0.100	0.137	0.134	0.144	0.073	0.123	0.133	0.093	0.091	0.096	0.095	0.074	0.128	0.107
255.0	21.63	45.23	173.6	339.7	242.7	509.6	1943	4053	1393	56.48	5.547	4.209	3.281	2.495	1.852	1.545	1.362	0.950	0.845	0.892	0.782	0.704	0.680	0.656	0.519	0.444	0.254	0.365	0.374	0.258	0.336	0.386	0.235	0.316	0.195	0.153	0.165	0.140	0.143	0.177	0.191	0.250	0.209	0.199	0.269	0.166	0.240	0.292	0.493	0.774	1.541	1.544	0.835	1.046	1.807	2.755	5.166	11.34	22.58	23.69	12.53	3.018	0.249	0.102	0.150	0.141	0.228	0.044	0.115	0.112	0.078	0.104	0.057	0.147	0.069	0.125	0.069
260.0	15.11	17.78	64.41	294.0	337.2	169.6	582.5	3173	4602	273.0	25.43	5.356	4.075	3.335	1.913	1.565	1.348	0.971	0.845	0.679	0.771	0.661	0.753	0.792	0.709	0.379	0.220	0.415	0.412	0.314	0.428	0.424	0.290	0.300	0.311	0.204	0.353	0.221	0.154	0.152	0.159	0.214	0.283	0.162	0.223	0.225	0.143	0.182	0.235	0.345	0.839	1.874	1.927	1.090	0.678	0.827	1.321	3.090	9.053	19.76	29.75	26.22	9.989	1.597	0.206	0.158	0.161	0.141	0.181	0.160	0.171	0.094	0.119	0.118	0.069	0.110	0.070
265.0	12.09	15.11	24.83	129.1	416.0	252.8	167.8	1047	4577	4443	217.0	12.14	4.959	4.091	2.708	1.850	1.518	1.343	0.961	1.063	0.788	0.745	0.631	0.730	0.565	0.415	0.404	0.423	0.309	0.401	0.421	0.432	0.329	0.329	0.453	0.230	0.295	0.188	0.283	0.196	0.145	0.216	0.225	0.252	0.219	0.232	0.158	0.157	0.162	0.179	0.301	0.842	1.791	2.132	1.546	0.665	0.478	0.886	2.309	5.596	14.35	31.97	32.65	21.77	6.840	0.686	0.155	0.125	0.173	0.166	0.086	0.079	0.131	0.102	0.076	0.091	0.151
270.0	27.54	26.63	20.98	43.97	184.1	410.0	287.3	284.7	1425	4255	4275	849.1	47.93	5.518	3.371	2.382	1.883	1.502	1.152	1.205	0.964	0.855	0.779	0.586	0.657	0.615	0.510	0.546	0.461	0.318	0.490	0.403	0.402	0.353	0.319	0.272	0.301	0.251	0.241	0.225	0.240	0.244	0.203	0.253	0.185	0.228	0.216	0.164	0.156	0.167	0.218	0.313	0.617	1.202	1.893	2.172	1.998	1.102	0.825	1.425	3.525	8.759	14.64	24.55	28.22	31.25	15.80	5.205	0.742	0.217	0.174	0.120	0.184	0.118	0.119	0.150	0.122
275.0	66.54	59.54	39.58	30.22	56.37	179.2	526.1	329.8	367.8	1064	3433	7709	1154	43.61	5.853	3.519	2.790	1.977	1.883	1.265	1.154	1.097	0.868	0.551	0.730	0.533	0.562	0.592	0.511	0.412	0.527	0.494	0.493	0.486	0.365	0.344	0.386	0.365	0.258	0.354	0.234	0.272	0.324	0.306	0.252	0.295	0.250	0.258	0.261	0.215	0.191	0.227	0.243	0.401	0.591	1.117	2.408	3.438	2.778	1.105	1.172	2.242	3.590	5.913	7.940	18.67	38.02	34.08	23.63	5.837	0.441	0.186	0.185	0.175	0.159	0.133	0.123
280.0	98.69	94.37	65.08	37.39	30.52	66.80	322.2	625.5	258.2	302.8	1014	5805	7139	780.0	18.89	5.273	3.455	2.289	2.110	1.432	1.243	1.023	0.991	0.766	0.844	0.742	0.716	0.500	0.576	0.585	0.407	0.491	0.434	0.528	0.469	0.412	0.474	0.361	0.340	0.355	0.231	0.300	0.455	0.312	0.323	0.392	0.409	0.350	0.351	0.201	0.255	0.252	0.233	0.248	0.266	0.418	0.941	2.078	3.942	3.499	1.620	0.864	1.162	1.718	2.212	4.873	12.29	25.20	45.70	33.36	17.81	2.823	0.273	0.274	0.187	0.133	0.195
285.0	158.5	151.6	108.3	64.72	36.68	43.50	130.9	556.5	561.4	204.6	337.4	1827	7122	5766	121.1	8.809	4.258	3.125	2.390	1.589	1.380	1.153	0.848	0.856	0.921	0.622	0.643	0.573	0.631	0.631	0.479	0.419	0.439	0.526	0.585	0.393	0.511	0.452	0.279	0.361	0.260	0.319	0.505	0.472	0.469	0.471	0.467	0.499	0.430	0.340	0.366	0.351	0.242	0.236	0.277	0.256	0.403	0.807	1.871	3.541	4.139	2.310	1.106	0.868	1.101	1.666	3.333	6.775	17.13	34.29	49.17	29.06	11.02	1.211	0.221	0.229	0.209
290.0	201.8	244.3	181.7	104.5	61.52	60.59	91.24	246.6	618.2	556.5	338.5	608.6	2175	5427	5516	461.4	27.58	4.412	2.995	2.313	1.747	1.445	1.104	0.920	0.825	0.765	0.604	0.745	0.650	0.592	0.594	0.462	0.536	0.588	0.679	0.518	0.745	0.562	0.408	0.449	0.294	0.447	0.477	0.496	0.597	0.668	0.776	0.732	0.610	0.566	0.486	0.458	0.386	0.357	0.416	0.333	0.554	0.572	0.855	1.422	2.414	3.500	4.017	3.192	1.866	1.429	1.649	2.502	4.740	9.157	17.55	25.72	35.57	33.72	19.37	8.343	1.122
295.0	260.9	320.4	259.8	161.9	100.7	92.95	102.8	166.2	325.3	765.0	825.4	465.7	721.1	1408	3693	6598	652.3	24.38	4.332	3.492	2.365	1.925	1.693	1.260	1.018	0.905	0.797	0.736	0.580	0.707	0.608	0.536	0.554	0.562	0.678	0.597	0.652	0.655	0.433	0.508	0.439	0.545	0.559	0.503	0.673	0.840	0.811	0.953	0.871	0.657	0.616	0.581	0.492	0.493	0.505	0.400	0.534	0.733	0.795	0.861	1.253	1.654	2.445	4.254	5.128	3.676	2.173	1.921	2.272	3.169	4.994	6.556	9.233	14.81	32.16	48.55	29.00
300.0	301.9	365.1	309.0	184.4	131.7	117.7	130.9	176.3	266.2	538.4	1109	709.9	459.9	485.5	1059	5102	5522	463.9	10.78	4.364	2.938	2.287	1.908	1.456	1.231	1.039	0.891	0.842	0.836	0.680	0.544	0.587	0.559	0.726	0.734	0.661	0.770	0.634	0.633	0.541	0.372	0.469	0.626	0.665	0.725	0.925	1.075	1.103	1.038	0.839	0.654	0.715	0.604	0.636	0.503	0.578	0.668	0.812	0.760	0.865	1.135	1.296	1.632	2.516	4.263	5.901	4.893	2.869	1.940	2.087	2.434	2.306	2.825	3.944	9.304	24.22	43.48
305.0	306.9	383.1	343.7	214.2	148.2	138.2	161.6	205.6	282.3	423.2	859.9	1136	539.9	310.8	344.1	1549	5936	4362	72.79	6.558	3.684	2.735	2.022	1.827	1.312	1.008	0.931	0.813	0.889	0.822	0.712	0.748	0.674	0.565	0.648	0.838	0.647	0.677	0.699	0.546	0.409	0.491	0.583	0.690	0.719	0.991	0.935	1.240	1.152	0.905	0.764	0.810	0.737	0.749	0.701	0.656	0.731	0.929	0.903	0.978	1.285	1.504	1.604	2.008	2.628	3.923	5.991	5.600	3.672	2.467	1.984	1.693	1.498	1.631	2.657	6.190	14.37
310.0	315.2	391.5	349.2	240.4	171.3	162.1	183.8	236.0	302.1	410.7	609.2	960.4	936.8	416.5	220.5	431.0	1775	4428	4329	304.2	19.42	3.900	2.479	2.037	1.711	1.228	1.212	0.991	0.973	0.697	0.803	0.788	0.688	0.700	0.779	0.742	0.705	0.658	0.581	0.623	0.507	0.620	0.587	0.615	0.695	1.038	1.028	1.161	1.123	0.904	0.852	0.937	0.821	0.773	0.839	0.803	0.987	1.063	1.044	1.132	1.482	1.575	1.713	2.025	2.300	2.749	3.652	4.267	5.155	4.759	3.370	2.096	1.408	1.243	1.371	2.108	3.734
315.0	310.3	411.0	366.5	293.7	225.0	220.7	223.9	268.5	335.9	430.0	557.2	683.8	874.2	838.4	325.5	253.1	524.3	1134	3199	4540	459.8	16.04	4.302	2.587	2.287	1.400	1.396	1.212	0.911	0.961	0.890	0.711	0.786	0.773	0.727	0.759	0.729	0.559	0.599	0.586	0.527	0.584	0.722	0.760	0.791	0.988	1.075	1.239	1.235	1.055	1.037	1.018	1.023	0.941	0.875	1.127	1.101	1.214	1.225	1.415	1.592	1.838	2.033	2.112	2.495	2.646	2.977	3.294	3.438	4.282	5.227	5.285	3.288	2.033	1.937	1.791	2.294
320.0	362.7	468.9	445.8	364.9	305.2	296.1	287.2	294.3	376.7	470.2	576.8	647.0	708.0	939.6	645.9	343.1	345.6	430.6	989.9	4157	3953	65.88	7.272	3.461	2.741	1.928	1.716	1.249	1.055	0.946	0.824	0.946	0.913	0.862	0.906	0.851	0.725	0.630	0.662	0.602	0.567	0.657	0.813	0.662	0.908	1.151	1.162	1.413	1.542	1.318	1.196	1.275	1.178	1.346	1.310	1.477	1.488	1.248	1.497	1.767	1.616	2.032	2.176	2.569	2.884	2.847	3.245	3.408	3.633	3.988	4.309	5.436	5.966	4.705	3.500	2.918	2.967
325.0	400.1	556.4	570.4	461.3	391.4	360.7	321.8	331.2	416.1	507.8	605.8	678.7	686.4	771.2	910.6	547.4	381.8	331.8	396.2	1397	4739	3146	54.06	5.609	3.196	2.149	1.723	1.482	1.164	1.075	0.961	0.916	0.873	0.792	0.765	0.799	0.793	0.601	0.686	0.558	0.717	0.670	0.727	0.775	1.028	1.328	1.482	1.616	1.899	1.712	1.594	1.640	1.710	1.552	1.643	1.715	1.751	1.513	1.666	1.804	1.964	2.109	2.204	2.825	2.981	3.141	3.357	3.639	3.688	4.020	4.042	4.790	5.608	6.789	6.354	4.872	4.329
330.0	437.9	604.7	684.5	566.6	485.9	420.3	365.5	364.8	434.1	533.4	631.4	693.1	697.5	678.1	789.6	833.7	558.9	368.4	302.7	472.8	1502	3502	3392	242.0	13.76	3.164	2.396	1.826	1.450	1.167	1.099	1.013	0.823	0.858	0.717	0.797	0.778	0.651	0.791	0.641	0.780	0.692	0.797	0.807	1.137	1.317	1.501	2.065	2.271	2.066	1.919	2.092	2.094	2.002	2.005	2.035	1.866	1.855	1.718	1.904	2.194	2.362	2.542	2.826	3.128	3.513	3.532	3.816	4.091	4.373	4.228	4.583	5.014	5.826	6.617	7.309	6.891
335.0	479.3	682.7	772.0	691.9	597.9	511.3	429.0	405.3	477.0	565.4	653.1	728.4	734.4	712.7	720.6	819.7	873.6	535.3	347.6	312.5	440.9	879.9	2742	3641	370.6	11.87	3.328	2.390	1.874	1.451	1.216	0.988	1.004	0.919	0.670	0.720	0.806	0.635	0.732	0.747	0.769	0.665	0.829	1.055	1.157	1.435	1.638	2.221	2.476	2.366	2.343	2.718	2.542	2.564	2.590	2.219	2.415	2.192	1.926	1.977	2.304	2.431	2.924	3.073	3.177	3.573	3.826	4.128	4.218	4.472	4.790	4.856	5.620	6.086	6.553	6.879	7.762
340.0	471.9	738.4	859.8	762.3	674.9	587.5	473.0	440.3	498.6	589.5	682.7	746.4	754.5	744.8	742.7	758.3	876.3	739.2	408.9	302.5	222.5	252.6	788.2	3565	3269	55.39	5.698	2.973	1.979	1.842	1.406	1.072	0.961	0.927	0.826	0.757	0.726	0.866	0.743	0.671	0.687	0.742	0.809	0.966	1.048	1.624	1.813	2.411	2.540	2.581	2.518	2.788	2.791	2.976	2.662	2.471	2.669	2.414	2.107	2.155	2.394	2.645	2.998	3.368	3.413	3.813	4.059	4.309	4.636	4.711	5.010	5.769	6.113	6.288	7.003	7.005	7.444
345.0	466.6	724.8	877.6	793.7	715.0	619.6	504.2	462.9	512.1	586.8	674.8	720.5	737.9	736.1	735.6	715.3	740.1	799.8	523.1	310.5	185.4	124.0	221.3	1154	4020	2659	46.28	4.519	2.719	1.837	1.602	1.308	0.997	0.872	0.890	0.715	0.678	0.815	0.676	0.480	0.729	0.721	0.884	0.954	1.283	1.569	1.750	2.464	2.556	2.671	2.466	2.980	2.873	3.116	2.799	2.441	2.741	2.383	2.412	2.256	2.312	2.829	3.069	3.442	3.570	3.578	4.017	4.112	4.549	4.539	4.909	5.408	5.804	6.331	6.583	6.918	6.956
350.0	456.1	670.1	819.9	801.8	735.8	661.0	540.2	489.8	532.0	589.2	653.8	704.3	719.8	719.6	722.7	702.0	664.4	644.9	621.4	429.9	207.2	119.5	113.0	305.9	1259	2930	2826	215.3	12.35	2.711	2.055	1.458	1.247	0.967	0.960	0.831	0.684	0.724	0.708	0.741	0.712	0.783	0.788	0.873	1.179	1.443	1.675	2.120	2.392	2.545	2.495	2.882	3.030	3.166	3.071	2.737	2.839	2.564	2.565	2.464	2.560	2.668	3.107	3.137	3.431	3.572	3.851	3.913	4.062	4.482	4.762	5.068	5.534	5.930	6.378	6.282	6.480
355.0	416.7	676.2	794.3	809.2	791.8	711.8	592.2	545.9	575.0	617.2	662.4	693.3	717.7	717.2	716.0	698.7	650.0	572.6	526.0	561.2	312.4	148.6	115.4	135.7	328.5	731.0	2280	3216	337.0	9.781	2.762	2.011	1.489	1.183	0.993	0.926	0.918	0.723	0.832	0.698	0.748	0.755	0.748	0.886	1.016	1.388	1.674	2.153	2.373	2.307	2.517	2.964	3.124	3.423	3.115	3.100	2.875	2.889	2.847	2.688	2.906	3.035	3.121	3.098	3.546	3.418	3.851	3.974	4.080	4.413	4.820	4.920	5.413	5.456	5.996	5.723	6.369
360.0	429.1	647.7	790.6	796.8	816.0	741.6	644.5	583.4	609.5	643.8	676.5	699.8	706.6	703.6	710.2	683.7	645.2	553.3	471.7	509.4	436.8	210.1	135.3	116.8	136.7	207.4	660.7	2993	2903	51.86	5.051	2.616	1.657	1.300	1.176	0.912	0.860	0.710	0.693	0.711	0.644	0.622	0.743	0.930	0.998	1.340	1.453	1.988	2.476	2.465	2.507	3.195	3.267	3.195	3.328	3.240	3.004	3.165	2.835	2.666	2.986	2.926	3.369	3.120	3.441	3.241	3.529	3.847	3.744	4.055	4.408	4.682	5.216	5.654	5.783	5.535	6.076
365.0	406.4	644.4	755.1	825.2	812.8	760.6	679.0	622.3	636.3	665.0	678.0	690.8	700.5	691.0	686.3	666.5	625.3	550.3	461.7	431.1	453.7	320.8	174.0	131.0	110.3	103.2	190.3	978.1	3488	2336	42.09	3.957	2.158	1.443	1.238	1.087	0.819	0.789	0.715	0.684	0.705	0.694	0.787	0.959	1.043	1.210	1.522	1.943	2.316	2.403	2.607	3.236	3.273	3.432	3.223	3.275	2.949	3.247	2.823	2.879	3.080	3.238	3.338	3.225	3.570	3.128	3.663	3.523	3.615	4.264	4.341	4.469	4.904	5.192	5.445	5.543	5.587
370.0	411.0	593.9	742.2	800.5	823.1	780.8	707.4	661.4	674.1	691.2	692.8	693.8	686.0	672.6	663.7	647.6	612.9	542.6	468.3	412.2	376.2	389.8	296.8	176.2	132.7	103.4	100.9	261.4	1099	2642	2499	195.7	10.66	2.285	1.546	1.081	1.015	0.893	0.806	0.728	0.794	0.731	0.833	0.923	1.099	1.311	1.453	1.952	2.088	2.261	2.506	3.190	3.197	3.460	3.350	3.191	3.408	3.358	2.982	3.108	3.110	3.275	3.230	3.431	3.392	3.355	3.428	3.528	3.647	3.648	3.853	4.227	4.551	4.678	4.922	4.990	5.170
375.0	395.9	567.0	712.1	803.0	806.1	797.3	742.9	698.8	694.5	706.7	707.0	700.9	673.4	660.7	652.0	626.4	595.3	539.9	475.7	421.4	360.0	342.9	387.2	288.4	175.9	134.2	105.2	117.4	285.4	663.7	2053	2884	292.7	8.535	2.419	1.467	1.134	1.018	0.941	0.853	0.794	0.767	0.861	0.973	1.125	1.179	1.448	1.874	2.197	2.212	2.361	3.380	3.056	3.316	3.306	3.237	3.289	3.585	3.272	3.312	3.299	3.219	3.187	3.378	3.323	3.503	3.437	3.539	3.548	3.474	3.906	3.930	4.069	4.418	4.468	4.727	4.912
380.0	371.1	558.9	711.7	805.7	820.5	809.0	757.3	718.7	709.9	726.9	710.1	702.3	675.2	649.8	631.2	611.4	583.9	533.7	478.3	428.7	367.1	329.1	357.9	383.0	239.4	162.7	123.3	101.8	117.4	185.9	593.3	2602	2479	43.87	4.597	1.847	1.486	1.110	0.993	0.957	0.754	0.840	0.834	0.971	1.094	1.273	1.513	1.821	2.059	2.194	2.333	3.087	3.162	3.404	3.144	3.177	3.387	3.266	3.258	3.162	3.419	3.454	3.095	3.207	3.417	3.290	3.268	3.714	3.312	3.484	3.661	3.666	3.859	3.982	4.038	4.272	4.569
385.0	396.6	558.4	689.5	762.4	816.2	796.6	755.1	712.5	718.2	718.5	702.9	698.2	668.3	636.6	612.7	597.8	566.3	522.0	479.6	435.1	381.6	340.2	325.6	380.7	330.6	201.0	148.2	114.1	94.01	89.04	167.1	831.1	2827	1921	35.56	3.029	1.700	1.384	1.255	1.124	0.857	1.009	0.877	0.790	1.140	1.216	1.507	1.786	1.968	1.964	2.297	2.913	3.217	3.497	3.394	3.280	3.272	3.286	3.363	3.220	3.396	3.522	3.521	3.107	3.488	3.384	3.236	3.309	3.622	3.356	3.135	3.660	3.899	3.836	3.904	3.880	4.371
390.0	401.2	556.1	672.2	739.9	802.4	793.7	759.9	713.5	720.1	705.9	704.1	687.6	656.4	623.6	596.4	575.6	552.4	517.7	477.5	444.0	393.3	356.6	329.0	330.4	356.4	298.5	194.7	141.1	110.5	85.63	84.55	219.7	864.7	2030	1851	159.7	9.434	1.967	1.449	1.183	0.941	0.888	0.860	0.897	1.080	1.281	1.354	1.835	1.997	2.093	2.233	2.733	3.009	3.377	3.125	3.360	3.373	3.358	3.447	3.134	3.291	3.324	3.253	3.358	3.375	3.221	3.255	3.340	3.235	3.297	3.289	3.336	3.534	3.587	3.861	3.792	4.015
395.0	389.9	534.6	651.3	736.3	792.2	791.3	743.4	730.6	712.3	698.5	681.0	665.1	640.6	609.1	582.7	555.8	536.1	504.9	475.6	449.7	403.6	374.4	346.5	324.4	320.5	341.2	283.8	178.1	136.1	106.7	83.00	94.25	224.3	503.9	1440	2190	247.5	7.603	1.962	1.386	1.276	1.035	0.900	0.898	1.025	1.172	1.429	1.754	2.026	2.003	2.184	2.566	3.119	3.046	3.216	3.257	3.445	3.564	3.429	3.253	3.303	3.162	3.297	3.209	3.278	3.213	3.040	3.286	3.000	3.400	3.307	3.293	3.364	3.362	3.535	3.311	3.489
400.0	366.6	513.9	644.0	708.5	770.3	782.8	748.0	721.4	710.6	691.2	688.5	659.6	628.3	594.4	572.9	540.6	517.1	491.3	468.8	442.6	409.4	384.9	358.7	335.5	313.6	319.1	337.1	237.2	161.6	128.2	98.27	78.12	89.25	140.1	408.9	1791	1883	38.61	3.850	1.857	1.240	1.151	1.141	0.952	1.077	1.330	1.297	1.664	1.817	1.988	2.115	2.568	2.974	3.120	3.181	3.457	3.287	3.563	3.310	3.208	3.120	3.109	3.174	3.154	3.238	3.157	3.230	2.926	2.922	3.253	3.194	3.227	3.346	3.350	3.602	3.025	3.486
405.0	355.1	506.6	626.3	682.3	765.7	743.8	739.2	711.9	704.5	689.0	676.8	641.7	621.2	581.7	550.9	523.5	501.2	484.2	460.0	437.8	413.3	391.8	369.0	344.2	318.1	301.3	322.9	303.2	198.0	147.0	117.9	86.66	69.18	65.17	115.4	551.1	1959	1436	32.73	2.758	1.412	1.410	1.185	1.206	1.202	1.427	1.314	1.768	1.873	2.036	2.112	2.456	2.935	2.907	3.095	3.266	3.335	3.409	3.193	3.210	2.991	3.123	2.985	3.040	3.083	3.183	2.972	2.721	3.059	3.032	2.950	3.177	3.069	3.007	3.154	3.036	3.300
410.0	366.0	512.4	604.2	677.1	722.3	734.7	717.7	699.9	691.4	679.4	666.0	629.8	599.2	566.7	529.1	504.1	480.9	461.8	444.1	430.3	406.7	385.3	369.5	350.0	325.8	306.0	293.2	303.3	271.4	187.5	137.9	104.2	78.20	59.26	57.48	146.1	579.7	1399	1384	151.2	8.534	1.748	1.237	1.254	1.251	1.379	1.358	1.717	1.896	2.005	2.188	2.666	2.687	2.720	2.892	2.984	3.130	3.181	3.123	3.222	3.094	3.201	3.034	3.084	3.098	2.945	2.909	2.736	2.807	2.842	2.961	2.892	2.830	2.979	2.981	2.630	2.961
415.0	355.4	488.7	592.1	659.6	700.7	700.8	704.9	689.0	687.0	657.8	648.4	615.7	577.1	542.6	508.7	481.0	453.0	445.1	426.7	409.2	395.9	378.0	366.6	348.2	332.1	310.9	285.4	270.0	286.2	249.7	163.7	121.1	91.06	67.55	52.00	60.68	148.4	341.3	959.8	1731	229.0	7.541	1.724	1.223	1.333	1.286	1.394	1.508	2.009	1.950	2.020	2.556	2.755	2.854	2.742	2.865	3.154	3.196	3.042	3.224	2.917	3.065	3.010	2.965	3.045	2.758	2.625	2.808	2.679	2.601	2.811	2.825	2.773	2.919	2.779	2.702	2.824
420.0	333.3	493.5	570.0	625.2	669.4	685.6	686.5	685.2	665.6	652.8	634.7	609.4	560.6	524.3	485.4	459.5	435.0	424.5	412.3	392.1	379.9	367.9	360.4	344.3	330.7	308.1	285.8	261.8	260.9	272.2	208.0	136.4	101.6	74.80	56.25	46.35	55.87	91.59	262.5	1308	1416	36.60	3.427	1.571	1.484	1.517	1.340	1.657	1.842	1.766	1.955	2.460	2.709	2.871	2.833	3.002	2.937	2.997	2.988	3.072	3.002	2.936	3.117	2.940	3.039	2.696	2.789	2.633	2.681	2.557	2.581	2.543	2.843	2.766	2.665	2.774	2.683
425.0	320.7	461.7	547.7	628.9	661.1	658.9	672.1	672.1	657.3	640.3	624.1	583.2	545.3	505.2	470.3	440.5	418.7	411.0	397.5	382.8	370.7	360.1	350.2	340.0	326.1	308.5	286.0	262.5	245.6	256.6	243.0	161.2	110.8	82.84	62.22	47.60	38.96	38.63	71.82	384.2	1322	1131	31.54	2.667	1.586	1.502	1.505	1.560	1.837	1.880	1.985	2.404	2.636	2.815	2.613	2.677	2.798	3.037	3.044	3.082	2.948	2.866	2.822	2.919	2.825	2.802	2.824	2.492	2.514	2.580	2.389	2.497	2.564	2.552	2.512	2.685	2.882
430.0	349.0	437.9	528.1	607.5	627.1	639.1	657.0	653.0	639.5	627.0	606.7	570.0	524.4	485.9	446.5	419.1	399.2	386.1	374.4	365.0	354.2	345.5	336.4	328.2	317.2	304.1	283.8	263.8	245.9	232.7	233.7	204.5	137.9	96.01	72.21	55.14	41.71	32.31	32.57	97.89	372.8	962.3	1095	143.2	9.884	1.901	1.680	1.682	1.765	1.648	1.902	2.381	2.523	2.546	2.557	2.723	2.861	2.829	2.920	2.786	2.906	2.919	2.840	2.917	2.721	2.799	2.710	2.561	2.478	2.328	2.303	2.408	2.416	2.544	2.462	2.407	2.563
435.0	496.3	425.5	511.7	572.9	592.3	624.1	634.0	642.3	633.9	619.8	589.8	558.5	512.0	465.5	422.6	393.7	371.8	363.0	354.8	343.5	335.6	327.8	322.4	318.5	310.4	296.7	281.2	267.6	248.8	227.3	212.3	205.6	178.9	117.6	82.36	64.21	48.05	36.34	28.09	37.07	94.71	229.9	654.8	1341	237.9	10.86	2.240	1.932	1.870	1.631	1.938	2.265	2.514	2.506	2.553	2.751	2.733	2.744	3.022	2.891	2.596	2.873	2.932	2.860	2.733	2.687	2.669	2.351	2.299	2.346	2.122	2.197	2.271	2.595	2.257	2.438	2.429
440.0	674.6	444.2	465.3	551.1	570.4	597.1	624.7	625.9	621.4	611.9	583.7	549.0	498.6	454.9	411.2	380.3	360.0	344.5	340.8	329.4	321.1	316.6	311.4	307.5	302.7	290.6	278.2	262.1	249.0	226.8	204.7	187.7	187.7	143.6	93.12	69.66	53.75	40.12	30.84	25.84	34.76	61.72	173.7	905.1	1342	189.2	5.392	2.229	1.999	1.748	1.902	2.200	2.535	2.342	2.534	2.750	2.707	2.921	2.924	2.854	2.634	2.941	2.797	2.782	2.818	2.544	2.499	2.513	2.331	2.325	2.132	2.156	2.235	2.168	2.279	2.327	2.286
445.0	775.9	607.0	449.4	513.1	557.3	569.8	608.2	604.2	611.1	593.2	574.5	539.1	483.5	434.9	396.2	363.6	342.0	329.7	324.6	314.6	305.7	301.6	301.1	296.5	293.8	280.9	270.4	256.7	243.1	225.3	203.3	177.7	172.1	160.9	108.1	74.50	58.22	43.82	35.06	26.78	23.00	25.43	48.09	255.5	1108	1118	29.01	3.590	1.998	1.731	1.941	2.084	2.346	2.358	2.301	2.547	2.604	2.906	2.872	2.581	2.664	2.882	2.791	2.741	2.649	2.429	2.497	2.463	2.252	2.357	2.261	2.182	2.154	2.119	2.027	2.368	2.338
450.0	555.4	995.8	538.3	496.4	513.9	537.2	562.6	584.1	579.2	573.7	543.0	507.1	457.1	413.8	372.1	340.0	320.8	306.3	299.0	291.0	285.9	280.8	279.5	276.5	273.9	264.3	253.8	243.1	233.4	219.3	198.7	173.0	153.1	149.1	131.4	91.45	63.90	49.27	38.44	29.92	23.90	19.69	21.77	65.68	301.5	814.4	982.2	355.1	10.18	2.179	1.874	2.121	2.267	2.214	2.127	2.418	2.677	2.693	2.618	2.484	2.681	2.626	2.640	2.718	2.522	2.471	2.355	2.285	2.295	2.180	2.168	1.965	1.874	1.980	2.090	2.083	2.189
455.0	329.4	1037	949.4	467.9	484.1	488.5	525.5	547.1	548.7	532.2	508.3	479.8	432.5	383.4	345.4	314.7	294.3	282.5	272.1	264.4	263.1	257.2	253.5	254.6	250.5	246.2	237.1	229.0	221.9	209.0	192.0	168.8	143.3	127.0	123.1	113.4	74.73	52.67	42.66	33.68	26.73	21.03	17.52	24.50	75.93	191.6	477.9	1210	209.8	12.84	2.162	2.240	2.234	1.997	2.235	2.151	2.600	2.601	2.503	2.479	2.475	2.289	2.421	2.626	2.598	2.357	2.134	1.951	1.882	1.819	2.033	1.986	1.757	1.811	1.808	1.982	1.946
460.0	248.5	706.8	1347	529.2	440.7	469.1	492.1	531.6	517.5	510.4	486.6	452.2	400.6	358.8	323.0	294.6	275.2	264.7	253.8	248.6	241.7	239.0	238.0	233.1	233.3	229.0	222.6	215.4	210.1	201.1	184.8	160.0	138.8	119.8	108.7	113.4	89.52	57.20	44.27	36.15	29.30	23.18	18.27	16.73	26.01	50.34	121.5	683.3	1092	170.2	7.014	2.485	2.173	2.215	2.130	1.918	2.375	2.472	2.506	2.406	2.315	2.278	2.303	2.572	2.297	2.312	2.020	1.899	1.855	1.931	1.853	1.779	1.690	1.845	1.804	1.781	1.810
465.0	208.0	431.6	1474	824.2	425.3	448.8	468.8	489.2	491.2	490.0	468.7	432.6	377.1	340.6	303.3	275.0	255.7	245.0	237.7	233.8	222.7	220.4	220.6	218.7	216.5	213.9	208.1	201.7	197.0	190.9	173.7	154.4	134.0	115.1	101.5	100.3	96.52	66.23	47.16	38.05	30.94	24.27	19.74	16.03	15.71	19.72	33.91	182.2	809.3	925.9	129.4	4.346	2.331	2.121	2.108	2.028	2.115	2.157	2.239	2.296	2.308	2.292	2.278	2.499	1.959	2.148	1.965	2.034	1.693	1.857	1.656	1.626	1.627	1.837	1.539	1.578	1.711
470.0	206.7	295.4	937.3	1447	521.7	400.4	424.3	441.5	448.3	446.2	425.9	396.7	350.9	313.2	277.1	249.2	232.8	222.6	211.7	207.5	200.4	198.9	198.1	197.7	192.6	192.9	189.5	185.3	178.8	175.5	161.8	144.4	125.7	108.6	93.41	84.54	84.24	76.63	55.62	39.38	32.18	25.61	21.49	17.92	15.13	13.35	15.25	46.92	213.4	581.0	712.1	272.0	11.02	2.352	2.118	2.169	1.997	1.965	2.035	2.123	2.066	2.061	2.008	2.108	1.822	1.985	1.904	1.828	1.713	1.662	1.547	1.635	1.575	1.609	1.436	1.381	1.637
475.0	212.0	257.7	442.2	1449	1053	375.7	388.6	410.0	399.2	399.7	389.6	363.6	323.7	283.0	251.8	223.4	211.5	199.7	190.5	182.4	179.7	176.2	173.4	175.6	173.6	169.3	169.3	165.4	163.7	159.3	146.8	133.6	115.9	101.2	87.50	76.62	70.70	70.89	65.33	44.33	33.01	27.47	22.99	18.69	16.14	13.37	11.42	17.44	52.85	135.5	302.8	731.6	208.7	13.75	2.183	2.201	1.876	2.035	1.886	1.762	2.043	1.801	1.751	1.807	1.780	1.886	1.704	1.801	1.371	1.366	1.452	1.453	1.545	1.490	1.303	1.412	1.376
480.0	212.8	235.5	312.2	942.5	1596	475.5	351.7	374.3	376.6	381.9	363.1	338.9	300.0	265.9	234.1	209.7	193.5	186.6	176.8	167.0	164.2	163.5	161.5	159.1	159.9	157.0	155.2	152.4	150.0	147.5	138.3	125.7	110.7	97.41	83.75	72.73	64.65	62.57	65.92	52.06	35.89	28.28	23.39	20.36	16.42	13.94	11.16	11.00	17.81	35.09	75.30	372.7	788.7	186.9	7.088	2.118	1.791	1.716	1.902	1.854	1.809	1.851	1.730	1.627	1.806	1.586	1.569	1.662	1.383	1.251	1.500	1.314	1.353	1.237	1.159	1.327	1.287
485.0	189.5	246.1	258.4	504.2	1719	808.3	331.7	351.6	353.1	357.9	338.9	318.4	279.7	250.6	221.3	198.3	181.0	175.5	165.4	157.3	154.0	150.0	149.3	147.3	147.4	145.1	145.8	143.7	139.9	137.6	130.2	117.7	106.0	92.85	80.75	69.77	63.32	56.71	58.25	57.29	40.31	29.22	24.71	20.88	17.35	14.66	12.37	10.43	10.43	12.84	21.28	98.13	533.2	710.7	30.22	3.624	2.020	1.978	1.947	1.664	1.560	1.746	1.772	1.766	1.647	1.595	1.650	1.541	1.379	1.302	1.297	1.236	1.328	1.380	1.197	1.361	1.300
490.0	166.7	277.4	249.1	306.4	1052	1497	420.7	329.0	329.1	326.6	319.6	298.0	263.7	233.1	204.0	181.5	165.3	159.8	149.2	144.4	138.6	137.2	134.5	134.5	134.9	132.3	132.0	131.3	129.0	127.1	120.1	109.1	99.90	88.13	77.36	67.56	59.80	52.72	49.05	51.70	47.42	34.46	25.48	21.76	18.80	15.45	13.62	11.17	9.319	8.722	9.576	26.38	137.3	408.9	597.1	267.6	12.31	2.138	1.923	1.635	1.652	1.721	1.745	1.647	1.628	1.576	1.437	1.463	1.280	1.170	1.266	1.222	1.093	1.278	1.027	1.021	1.118
495.0	122.1	246.3	274.1	241.8	444.8	1575	982.8	302.3	302.7	300.1	289.1	272.3	240.7	213.7	188.0	162.0	148.1	143.0	133.7	130.8	124.3	120.9	121.7	120.9	121.1	119.9	116.9	117.1	115.5	113.3	109.8	101.8	90.81	81.80	71.92	63.84	56.22	49.39	44.64	42.40	45.11	41.92	28.62	22.35	19.55	16.10	14.18	11.83	9.942	8.198	7.617	10.26	34.26	95.34	256.4	690.1	233.2	15.92	1.991	1.752	1.556	1.596	1.491	1.652	1.488	1.462	1.333	1.296	1.204	1.158	1.032	1.107	0.944	1.184	1.053	1.047	0.906
500.0	108.8	189.7	296.3	226.1	267.0	1024	1580	372.3	279.2	279.9	269.1	250.3	220.6	198.0	171.7	150.9	137.6	129.2	121.2	119.2	114.2	110.0	111.3	109.5	110.2	108.6	107.0	107.7	105.5	104.4	100.3	93.53	82.97	75.58	68.89	60.59	53.12	48.00	42.23	38.15	38.24	42.10	33.11	23.50	19.29	16.65	13.95	12.30	10.67	8.351	7.329	6.873	11.79	24.88	63.43	329.4	701.1	202.0	8.580	1.724	1.538	1.690	1.643	1.271	1.264	1.328	1.221	1.225	1.227	1.124	1.019	0.947	0.964	0.920	0.901	0.957	0.971
505.0	97.44	149.6	282.3	230.8	220.8	513.9	1810	686.2	254.9	256.2	251.4	233.8	201.3	180.5	157.2	138.0	126.7	119.3	113.0	108.5	104.2	101.5	101.6	101.4	100.4	97.78	99.28	98.62	97.39	96.02	92.45	85.77	77.56	70.22	63.65	56.62	50.17	45.37	39.95	35.73	32.88	37.25	36.94	26.41	19.80	16.71	14.09	11.91	10.43	8.986	7.391	6.386	6.803	9.110	17.49	84.36	425.3	657.7	145.2	3.978	1.594	1.501	1.598	1.233	1.232	1.250	1.043	1.125	1.013	0.932	1.143	1.069	1.139	0.902	0.935	0.954	0.954
510.0	86.78	124.7	218.0	260.3	193.6	269.6	1125	1474	308.2	228.7	224.8	207.5	182.9	160.7	140.4	123.1	114.1	105.6	99.48	95.29	92.84	90.07	89.59	88.98	88.71	86.57	86.76	86.35	86.63	85.02	81.31	76.30	69.04	63.69	56.94	51.16	46.29	40.55	37.02	33.30	29.59	29.56	32.96	29.77	22.07	16.37	13.93	11.97	10.12	9.114	8.062	6.658	5.648	5.734	7.189	21.96	107.6	341.6	492.8	139.0	12.24	1.617	1.347	1.223	1.196	1.221	1.048	1.102	1.009	0.986	1.024	0.810	0.982	0.916	0.802	0.789	0.784
515.0	64.92	107.9	153.1	252.1	193.8	191.4	437.3	1694	846.7	213.6	196.9	185.7	161.4	145.6	124.8	109.3	100.7	93.54	88.34	84.58	80.91	78.98	77.19	78.27	76.62	75.14	76.48	75.27	75.07	73.34	72.63	66.95	61.08	56.59	49.96	45.83	42.12	36.93	33.88	29.81	27.37	24.41	24.96	28.12	25.65	17.98	13.42	11.83	9.745	8.590	8.046	7.188	5.671	4.860	4.700	7.823	26.62	78.87	184.7	480.7	226.8	16.40	1.515	1.122	1.111	0.989	1.022	0.943	0.890	0.825	0.872	0.820	0.844	0.857	0.769	0.872	0.708
520.0	76.65	99.57	122.2	218.5	215.0	163.0	226.0	1132	1532	263.2	177.2	165.1	147.7	130.9	113.8	97.99	92.21	85.14	79.41	75.15	73.33	69.87	69.50	70.10	68.05	68.02	68.10	68.64	68.67	67.41	66.66	61.69	54.70	50.50	45.12	41.70	38.08	34.37	30.94	27.67	25.38	23.42	21.58	23.33	26.28	20.29	13.85	11.55	9.593	8.516	7.663	7.153	6.196	4.822	4.550	5.035	8.640	20.10	45.27	226.2	505.3	194.2	7.970	1.239	0.996	0.957	0.951	0.707	0.837	0.959	0.811	0.768	0.749	0.753	0.744	0.671	0.675
525.0	69.44	94.47	105.5	167.7	235.3	155.8	169.3	531.4	1910	549.3	167.6	151.4	133.5	117.1	104.0	90.35	82.96	76.35	72.94	68.67	66.19	63.17	63.75	62.98	61.74	61.13	60.86	60.80	60.32	60.62	59.30	54.26	50.27	45.82	41.26	37.71	34.98	32.00	28.25	26.44	23.28	21.12	19.23	19.80	22.82	22.11	15.29	11.13	9.580	8.105	7.388	6.401	6.407	5.041	4.264	4.153	4.477	7.105	12.26	56.77	282.2	531.2	129.2	3.301	1.198	0.951	0.831	0.795	0.946	0.878	0.708	0.578	0.683	0.638	0.550	0.704	0.602
530.0	52.50	81.41	91.13	122.5	209.9	170.9	140.3	236.5	1254	1422	215.2	136.5	115.7	104.1	91.75	80.48	73.80	67.31	63.89	60.46	58.72	55.22	55.33	54.98	54.04	52.38	52.74	53.04	53.19	52.71	51.61	48.12	44.78	40.14	37.01	33.61	30.97	28.77	25.62	24.11	21.26	19.30	17.62	16.74	17.69	20.14	17.22	12.15	9.134	7.892	7.078	6.150	5.592	5.427	4.536	3.908	3.727	4.006	4.843	14.70	70.59	265.7	367.9	135.3	11.53	1.114	0.948	0.745	0.762	0.772	0.552	0.568	0.556	0.632	0.598	0.556	0.581
535.0	49.94	74.08	79.77	98.75	149.7	201.9	124.9	144.0	445.2	1775	691.1	119.6	101.6	92.07	78.34	70.78	62.74	58.74	54.71	51.14	50.71	48.32	47.49	46.99	45.32	46.20	45.82	46.18	44.66	45.87	43.82	41.42	38.36	34.70	31.90	29.11	27.18	24.65	22.99	21.14	18.66	17.25	15.71	14.74	13.69	14.74	16.83	13.64	9.665	7.504	6.701	5.762	5.073	4.867	5.149	4.154	3.820	3.163	3.141	5.125	17.34	61.42	129.0	358.8	211.1	13.23	1.096	0.763	0.838	0.670	0.566	0.615	0.557	0.552	0.574	0.598	0.561
540.0	50.95	57.81	75.13	79.64	110.7	191.1	135.1	117.5	190.6	1180	1417	152.2	92.51	83.01	69.96	60.48	55.91	52.41	48.90	46.13	45.17	43.84	42.58	41.17	40.29	41.05	39.84	40.19	39.58	39.87	38.13	36.25	33.64	30.58	27.85	25.59	24.29	21.95	20.29	18.77	17.11	15.82	13.80	13.53	11.98	11.99	13.74	14.16	10.68	7.345	6.094	5.493	4.879	4.267	4.558	4.375	3.606	3.046	2.771	3.108	5.600	15.20	31.05	157.9	402.9	163.0	6.346	0.903	0.643	0.615	0.468	0.503	0.460	0.480	0.362	0.603	0.461
545.0	49.53	65.19	62.98	76.69	88.56	157.2	158.3	102.1	120.6	511.5	1878	234.8	82.58	74.43	63.71	53.17	49.58	46.58	44.57	41.35	39.68	38.75	37.66	36.58	35.65	35.68	35.10	36.09	35.51	34.51	34.12	32.41	29.93	27.96	25.34	23.38	21.59	20.04	18.31	16.72	15.42	13.74	12.64	11.80	11.31	10.09	10.91	12.56	11.56	7.501	5.661	5.190	4.537	4.125	4.013	4.096	3.788	2.897	2.598	2.551	2.973	4.809	8.259	39.09	215.4	383.6	33.40	2.364	0.747	0.664	0.558	0.435	0.462	0.488	0.348	0.498	0.340
550.0	46.12	55.12	58.12	61.90	67.31	103.3	171.6	100.7	92.34	190.0	1199	1112	114.0	63.08	54.78	46.43	42.38	38.33	37.62	34.95	33.20	31.84	31.16	30.39	29.84	29.64	28.76	29.59	29.96	29.28	28.85	26.65	25.62	22.78	21.47	20.09	18.05	16.49	15.49	14.14	13.22	12.02	11.09	10.01	9.766	8.591	8.514	9.597	10.21	8.459	6.051	4.601	4.186	3.648	3.452	3.390	3.638	3.027	2.361	2.158	2.213	2.394	3.014	9.846	52.79	178.9	245.7	123.1	10.64	0.614	0.502	0.478	0.520	0.355	0.341	0.402	0.327
555.0	43.08	44.24	53.81	49.99	52.64	68.31	140.1	123.2	72.65	96.80	386.1	1570	423.0	53.42	44.89	37.70	34.48	30.88	31.91	27.86	27.18	27.02	26.00	25.20	24.08	24.34	24.24	23.61	23.61	23.97	23.74	22.05	20.60	18.86	17.41	16.14	14.90	13.84	13.07	11.62	10.87	9.864	9.255	8.619	8.061	7.594	6.877	6.640	7.536	7.946	6.439	4.374	3.603	3.163	2.896	2.786	2.737	2.812	2.620	2.081	1.887	1.677	1.743	3.234	12.77	40.91	89.39	252.7	161.5	10.10	0.535	0.389	0.398	0.423	0.322	0.307	0.335
560.0	33.55	44.34	46.15	43.26	48.37	53.90	101.0	143.7	67.49	71.51	140.6	1080	1027	67.85	37.08	33.36	28.74	26.96	26.23	24.70	23.08	22.47	22.14	20.78	20.47	20.23	20.88	20.42	19.70	20.03	20.53	18.73	16.89	16.57	14.88	13.60	12.50	11.67	11.06	10.27	9.623	8.777	8.161	7.468	7.097	6.418	6.055	5.540	5.673	6.686	6.720	4.780	3.171	2.980	2.674	2.569	2.220	2.567	2.500	2.399	1.723	1.427	1.324	1.600	3.754	9.935	21.34	105.4	253.6	96.87	4.213	0.374	0.445	0.425	0.269	0.242	0.315
565.0	34.56	40.55	41.61	38.73	40.67	44.57	65.55	146.4	80.98	59.49	74.81	450.4	1475	150.1	32.86	30.14	25.37	22.95	21.97	20.35	19.56	19.09	18.53	17.73	17.25	17.10	17.18	17.12	16.81	17.10	17.50	15.67	14.21	13.19	12.82	11.99	11.15	10.36	9.275	8.636	8.134	7.638	6.696	6.482	5.750	5.632	5.352	4.648	4.450	5.186	5.834	5.116	3.217	2.728	2.360	2.196	2.087	1.996	2.112	2.383	1.605	1.267	1.071	1.174	1.634	3.067	5.606	25.52	123.2	202.7	32.27	1.557	0.462	0.344	0.296	0.220	0.267
570.0	31.80	36.45	36.26	37.72	34.19	34.11	44.18	107.0	105.4	57.76	58.31	148.8	1003	776.5	52.74	23.50	21.12	19.12	18.17	16.72	16.22	15.41	14.72	14.33	14.64	14.30	13.85	13.81	13.48	13.65	13.72	12.93	11.89	10.91	10.01	9.301	9.013	8.534	7.641	7.155	6.708	6.126	5.561	5.381	5.065	4.958	4.440	4.020	3.572	3.574	4.120	4.676	3.534	2.660	2.112	1.987	1.829	1.629	1.675	1.992	1.842	1.389	1.012	0.947	1.058	1.365	1.973	6.346	29.80	87.67	137.2	70.68	8.679	0.360	0.287	0.291	0.263
575.0	35.57	35.57	33.31	29.70	28.29	27.07	34.98	62.08	127.9	65.19	50.14	69.58	313.5	1193	250.0	19.67	17.50	15.48	15.16	13.30	13.10	12.51	11.84	11.70	11.54	11.57	11.05	10.96	11.18	10.78	10.83	10.28	9.671	8.488	7.866	7.540	7.076	6.848	6.319	6.089	5.542	4.713	4.676	4.378	4.071	3.906	3.516	3.083	3.017	2.410	2.699	3.265	3.529	2.779	1.968	1.737	1.587	1.591	1.445	1.467	1.626	1.691	0.958	0.883	0.862	0.953	1.184	1.962	7.113	20.05	43.00	121.6	94.86	6.808	0.319	0.258	0.321
580.0	37.07	39.74	35.24	26.73	26.15	25.64	31.03	40.52	109.0	88.20	49.63	50.71	103.6	843.4	680.3	27.21	14.57	13.03	12.94	11.23	11.91	10.99	10.14	9.768	9.481	9.096	9.435	9.110	8.927	9.024	9.036	8.158	7.905	7.487	6.762	6.418	5.742	5.504	5.328	4.887	4.739	4.201	3.687	3.706	3.372	3.382	2.958	2.827	2.668	2.102	2.077	2.348	3.242	3.060	2.273	1.486	1.385	1.308	1.410	1.196	1.228	1.620	1.326	0.945	0.721	0.729	0.864	1.071	2.081	4.994	10.17	47.89	136.0	34.77	3.130	0.310	0.263
585.0	29.36	38.04	35.69	27.68	27.54	24.22	29.06	32.06	80.03	111.2	52.44	45.33	52.98	348.1	1039	85.19	12.75	11.40	11.37	10.03	9.872	9.322	8.816	8.499	8.277	7.958	7.808	7.707	8.119	7.720	8.144	7.028	6.881	6.283	5.948	5.467	5.028	4.809	4.813	4.193	4.105	3.685	3.225	3.023	2.986	2.947	2.658	2.585	2.132	1.938	1.892	1.855	2.361	2.868	2.344	1.667	1.229	1.175	1.011	0.949	1.159	1.214	1.369	1.066	0.746	0.689	0.709	0.777	0.992	1.528	2.736	11.57	62.13	111.2	29.34	1.124	0.216
590.0	32.01	39.33	33.16	25.54	21.50	21.85	23.62	29.08	48.04	108.3	69.04	43.34	40.91	105.7	715.2	472.6	21.91	9.674	9.421	8.442	7.769	7.579	7.384	7.205	6.691	6.519	6.653	6.375	6.583	6.448	6.309	6.279	5.582	5.292	4.821	4.617	4.218	3.973	3.593	3.469	3.131	3.076	2.844	2.544	2.647	2.396	2.283	2.029	1.854	1.701	1.565	1.620	1.522	2.054	2.333	1.935	1.308	1.063	0.959	0.811	0.881	0.821	0.955	1.163	0.974	0.755	0.609	0.583	0.715	0.891	0.964	2.959	14.81	47.22	84.11	46.62	5.113
595.0	21.15	35.07	33.31	24.35	18.02	19.62	20.51	26.50	34.56	77.87	95.74	46.06	36.74	41.76	218.6	775.2	89.57	8.729	7.471	6.718	6.309	6.088	5.769	5.441	5.426	5.457	5.492	5.305	5.235	5.321	4.999	4.816	4.052	4.401	3.633	3.749	3.196	3.031	2.863	2.645	2.706	2.312	2.126	2.132	2.116	2.014	1.804	1.685	1.650	1.505	1.228	1.398	1.141	1.382	1.818	1.978	1.473	0.944	0.836	0.802	0.668	0.661	0.679	0.808	1.122	0.869	0.696	0.514	0.481	0.595	0.518	1.013	3.557	10.75	25.98	72.65	36.42
600.0	26.33	32.44	34.03	26.15	18.10	18.74	18.34	22.79	28.05	51.09	102.7	53.07	35.42	27.74	63.58	565.5	373.6	12.46	6.556	5.835	5.112	5.129	4.597	4.790	4.561	4.468	4.371	4.376	4.505	4.303	4.354	4.025	3.540	3.598	3.279	3.284	2.902	2.710	2.559	2.239	2.245	2.079	1.808	2.000	1.752	1.614	1.603	1.658	1.294	1.341	1.049	1.145	1.106	1.020	1.267	1.673	1.413	0.875	0.658	0.685	0.592	0.566	0.564	0.557	0.938	1.009	0.765	0.546	0.506	0.498	0.383	0.459	1.004	2.627	6.174	26.82	70.82
605.0	30.35	30.71	26.62	23.20	18.68	15.59	18.58	23.49	26.29	38.10	93.47	65.27	35.30	23.50	25.08	235.4	621.1	47.09	6.240	5.079	4.675	4.322	4.311	3.639	3.621	3.797	3.757	3.866	3.624	3.630	3.479	3.654	3.009	2.855	2.825	2.725	2.620	2.403	2.126	2.001	1.788	1.736	1.559	1.570	1.339	1.568	1.435	1.355	1.113	1.079	0.937	0.854	0.808	0.819	0.948	1.322	1.419	1.188	0.735	0.569	0.527	0.593	0.510	0.493	0.625	0.744	0.958	0.455	0.466	0.400	0.468	0.360	0.414	0.829	1.579	6.344	30.72
610.0	26.00	31.55	25.91	20.39	16.43	16.19	18.85	18.94	24.71	32.25	62.13	84.23	39.22	21.66	16.11	65.91	456.3	297.5	11.10	4.681	3.869	3.640	3.497	3.269	3.198	3.054	3.014	3.182	3.073	2.988	2.874	2.749	2.451	2.404	2.131	2.139	2.067	1.986	1.785	1.581	1.554	1.432	1.288	1.354	1.197	1.268	1.172	1.047	0.938	0.813	0.811	0.708	0.664	0.623	0.712	0.821	1.110	1.131	0.839	0.666	0.554	0.531	0.489	0.502	0.489	0.520	0.754	0.696	0.465	0.371	0.416	0.269	0.386	0.418	0.518	1.615	7.262
615.0	17.53	33.46	28.94	17.85	17.11	14.77	15.84	17.63	24.00	28.10	44.32	80.69	49.30	20.84	14.16	21.09	139.5	510.7	63.98	4.125	3.099	3.252	2.903	2.832	2.708	2.566	2.329	2.326	2.337	2.266	2.229	2.241	1.750	2.079	1.612	1.639	1.743	1.625	1.437	1.283	1.261	1.164	1.207	1.222	0.994	0.890	0.957	0.786	0.803	0.691	0.699	0.661	0.585	0.482	0.523	0.573	0.722	0.960	0.862	0.670	0.432	0.421	0.493	0.462	0.408	0.366	0.432	0.594	0.711	0.446	0.293	0.310	0.243	0.360	0.278	0.524	1.752
620.0	22.67	24.07	25.83	17.08	13.52	13.85	15.37	16.16	21.62	27.21	34.48	62.40	61.48	20.65	13.10	11.51	38.63	383.1	251.3	6.233	3.068	2.854	2.221	2.446	2.260	2.134	1.956	1.930	2.084	1.985	1.952	1.758	1.642	1.755	1.521	1.531	1.353	1.346	1.110	0.966	0.953	0.922	1.015	0.923	0.727	0.742	0.703	0.715	0.620	0.676	0.579	0.509	0.486	0.542	0.456	0.445	0.438	0.664	0.818	0.734	0.522	0.384	0.433	0.354	0.451	0.311	0.424	0.540	0.753	0.435	0.251	0.281	0.198	0.277	0.268	0.272	0.605
625.0	21.55	24.47	23.75	16.12	13.18	13.02	13.57	15.60	18.47	26.04	32.85	46.76	70.82	25.64	12.58	9.022	14.16	162.1	437.5	27.06	2.821	2.473	2.073	1.950	1.884	1.975	1.669	1.909	1.820	1.801	1.560	1.479	1.712	1.463	1.314	1.236	1.212	1.237	0.964	0.937	0.873	0.832	0.802	0.839	0.725	0.661	0.677	0.679	0.586	0.587	0.481	0.441	0.457	0.425	0.449	0.401	0.399	0.457	0.649	0.695	0.595	0.478	0.292	0.300	0.369	0.388	0.348	0.453	0.481	0.590	0.332	0.261	0.175	0.263	0.257	0.261	0.289
630.0	17.91	28.38	23.33	16.89	14.16	13.28	13.11	15.56	18.65	24.36	28.60	34.32	57.55	39.07	13.12	9.003	8.758	45.44	335.7	174.7	5.690	2.063	1.973	1.795	1.519	1.611	1.313	1.359	1.379	1.407	1.458	1.246	1.264	1.169	0.998	0.956	0.953	0.883	0.816	0.754	0.686	0.699	0.673	0.564	0.632	0.572	0.556	0.459	0.416	0.427	0.356	0.434	0.364	0.372	0.375	0.333	0.341	0.296	0.484	0.644	0.569	0.465	0.337	0.390	0.312	0.410	0.327	0.392	0.374	0.512	0.474	0.331	0.255	0.222	0.165	0.283	0.207
635.0	20.81	25.52	22.91	16.06	15.06	13.13	13.63	16.96	18.06	22.56	27.53	29.81	40.28	49.67	18.05	11.35	9.470	16.30	106.1	359.7	44.50	2.187	1.686	1.387	1.261	1.181	1.173	0.984	1.073	1.385	1.129	1.017	0.958	0.865	0.885	0.802	0.840	0.702	0.655	0.748	0.565	0.549	0.499	0.532	0.447	0.411	0.402	0.469	0.398	0.387	0.288	0.354	0.283	0.272	0.247	0.295	0.314	0.285	0.367	0.375	0.522	0.429	0.420	0.254	0.329	0.325	0.321	0.358	0.349	0.352	0.428	0.482	0.359	0.209	0.225	0.302	0.285
640.0	20.71	25.92	20.31	21.48	14.41	14.90	13.74	16.53	17.59	21.09	28.86	29.61	32.97	50.14	26.70	14.12	12.00	11.30	31.67	292.1	169.2	3.480	1.663	1.263	1.086	0.986	1.056	1.110	1.112	1.080	0.891	0.892	0.887	0.771	0.688	0.671	0.745	0.630	0.580	0.514	0.439	0.500	0.407	0.474	0.487	0.293	0.411	0.341	0.335	0.321	0.293	0.294	0.319	0.379	0.330	0.307	0.264	0.347	0.302	0.243	0.465	0.515	0.389	0.255	0.337	0.268	0.361	0.278	0.332	0.256	0.294	0.356	0.442	0.353	0.249	0.236	0.226
645.0	29.31	23.69	27.55	22.06	15.89	12.50	15.22	15.62	17.57	22.69	26.90	29.47	29.21	44.23	35.69	16.84	13.80	11.61	13.81	133.9	305.2	16.92	1.529	1.046	0.814	0.861	0.803	0.924	0.845	0.833	0.834	0.727	0.764	0.696	0.577	0.579	0.462	0.581	0.564	0.428	0.416	0.636	0.327	0.452	0.357	0.276	0.390	0.398	0.281	0.289	0.202	0.281	0.334	0.260	0.318	0.207	0.255	0.326	0.305	0.266	0.334	0.440	0.364	0.279	0.261	0.265	0.268	0.217	0.303	0.292	0.269	0.355	0.450	0.388	0.278	0.314	0.303
650.0	21.94	28.67	21.53	22.52	17.33	13.22	14.36	15.28	17.41	21.60	27.82	30.96	27.58	34.92	42.10	21.47	14.69	12.42	10.32	43.49	314.9	61.09	1.544	0.996	0.822	0.748	0.807	0.848	0.715	0.859	0.729	0.629	0.635	0.736	0.543	0.546	0.450	0.468	0.449	0.390	0.373	0.408	0.503	0.280	0.369	0.340	0.296	0.326	0.312	0.273	0.296	0.229	0.281	0.244	0.270	0.199	0.280	0.310	0.241	0.168	0.198	0.396	0.362	0.301	0.300	0.280	0.303	0.205	0.237	0.332	0.280	0.271	0.362	0.491	0.362	0.377	0.258
