Sample:	'1
File name:	g2025090304月四会四东南雨水井 50倍.FD3
Run date:	'13:46:21, 09/03/2025
Operator:	Administrator
Comment:	'

Instrument
Model:	F-2700 FL Spectrophotometer
Serial number:	23B8-004
ROM Version:	4J14000 07

Instrument parameters
Measurement type:	3-D scan
Data mode:	Fluorescence
EX  Start WL:	220.0 nm
EX  End WL:	600.0 nm
EX Sampling interval:	5.0 nm
EM  Start WL:	230.0 nm
EM  End WL:	650.0 nm
EM Sampling interval:	5.0 nm
Scan speed:	12000 nm/min
EX Slit:	5.0 nm
EM Slit:	5.0 nm
PMT Voltage:	700 V
Response:	Auto 
Corrected spectra:	Off
Contour interval:	50.000

Peak integration
Integration method:	Rectangular
Sensitivity:	1
Threshold:	1.000

Peaks
No.	ApexEX/EM(nm)	Height(Data)
1	230.0/250.0	319.9
2	230.0/500.0	182.1
3	230.0/545.0	18.71
4	235.0/255.0	414.3
5	235.0/515.0	157.9
6	240.0/265.0	459.5
7	240.0/525.0	149.8
8	245.0/270.0	442.1
9	245.0/540.0	134.0
10	250.0/275.0	606.6
11	250.0/550.0	115.8
12	255.0/565.0	165.4
13	270.0/300.0	9386
14	270.0/600.0	653.6
15	275.0/305.0	9441
16	315.0/355.0	326.3
17	320.0/360.0	291.4
18	325.0/370.0	225.9
19	330.0/375.0	202.9
20	335.0/380.0	198.5
21	350.0/400.0	123.4
22	355.0/405.0	105.2
23	360.0/410.0	84.85
24	365.0/420.0	82.61
25	370.0/425.0	74.27
26	375.0/430.0	54.43
27	380.0/435.0	52.97
28	385.0/445.0	47.79
29	390.0/305.0	14.92
30	390.0/450.0	37.00
31	395.0/455.0	32.77
32	400.0/465.0	30.25
33	405.0/470.0	23.50
34	410.0/475.0	20.54
35	415.0/485.0	19.82
36	420.0/490.0	16.43
37	425.0/495.0	15.43
38	430.0/505.0	14.82
39	435.0/510.0	12.96
40	440.0/305.0	12.87
41	440.0/520.0	12.40
42	445.0/525.0	11.73
43	450.0/530.0	10.20
44	455.0/540.0	9.468
45	460.0/545.0	8.176
46	475.0/260.0	1.952
47	485.0/265.0	2.342
48	495.0/270.0	2.267
49	505.0/275.0	3.786
50	545.0/300.0	40.53
51	545.0/600.0	3.198
52	550.0/305.0	42.06
53	550.0/605.0	2.974

Data points
	220.0	225.0	230.0	235.0	240.0	245.0	250.0	255.0	260.0	265.0	270.0	275.0	280.0	285.0	290.0	295.0	300.0	305.0	310.0	315.0	320.0	325.0	330.0	335.0	340.0	345.0	350.0	355.0	360.0	365.0	370.0	375.0	380.0	385.0	390.0	395.0	400.0	405.0	410.0	415.0	420.0	425.0	430.0	435.0	440.0	445.0	450.0	455.0	460.0	465.0	470.0	475.0	480.0	485.0	490.0	495.0	500.0	505.0	510.0	515.0	520.0	525.0	530.0	535.0	540.0	545.0	550.0	555.0	560.0	565.0	570.0	575.0	580.0	585.0	590.0	595.0	600.0
230.0	55.38	603.7	1747	580.7	26.21	2.517	1.929	1.845	2.079	2.407	2.513	2.675	2.178	1.327	0.712	0.626	0.439	0.446	0.384	0.267	0.182	0.250	0.217	0.167	0.159	0.154	0.154	0.122	0.120	0.136	0.140	0.111	0.111	0.131	0.114	0.111	0.124	0.120	0.123	0.125	0.233	0.594	0.603	0.287	0.162	0.083	0.541	3.107	5.808	4.370	1.748	0.321	0.074	0.057	0.073	0.062	0.078	0.065	0.059	0.067	0.065	0.043	0.050	0.049	0.059	0.045	0.058	0.053	0.068	0.054	0.038	0.048	0.052	0.052	0.059	0.047	0.059
235.0	195.0	189.9	927.8	1599	497.0	42.51	2.493	2.262	2.545	2.177	2.694	3.182	2.392	1.425	0.693	0.511	0.494	0.364	0.414	0.228	0.209	0.223	0.159	0.180	0.240	0.288	0.138	0.118	0.109	0.154	0.108	0.070	0.131	0.153	0.112	0.109	0.155	0.202	0.138	0.162	0.146	0.248	0.438	0.567	0.546	0.246	0.254	0.799	1.929	3.259	5.375	5.799	3.082	0.567	0.065	0.057	0.073	0.090	0.042	0.068	0.090	0.048	0.056	0.044	0.053	0.055	0.069	0.071	0.054	0.033	0.030	0.059	0.061	0.030	0.052	0.048	0.048
240.0	257.6	186.3	268.5	1161	1753	386.3	17.96	3.358	3.324	3.254	3.659	3.828	2.125	1.449	0.867	0.574	0.517	0.438	0.301	0.222	0.325	0.244	0.194	0.215	0.136	0.198	0.127	0.155	0.119	0.086	0.097	0.095	0.055	0.092	0.117	0.156	0.113	0.155	0.134	0.105	0.091	0.110	0.188	0.308	0.671	0.757	0.499	0.307	0.531	0.952	2.454	6.073	8.447	6.156	2.470	0.352	0.086	0.064	0.052	0.068	0.064	0.049	0.076	0.097	0.046	0.046	0.081	0.059	0.079	0.107	0.044	0.032	0.032	0.032	0.062	0.046	0.055
245.0	150.8	302.7	167.1	368.6	1620	1728	282.6	8.957	3.314	4.374	3.927	3.446	2.208	1.203	1.142	0.600	0.506	0.390	0.326	0.238	0.280	0.247	0.324	0.184	0.146	0.166	0.103	0.107	0.134	0.138	0.095	0.208	0.087	0.144	0.110	0.140	0.100	0.147	0.120	0.133	0.104	0.098	0.147	0.149	0.342	0.653	0.900	0.879	0.386	0.351	0.643	1.875	4.539	8.442	9.888	5.281	1.791	0.238	0.096	0.095	0.086	0.046	0.081	0.078	0.031	0.052	0.068	0.067	0.058	0.075	0.067	0.086	0.040	0.046	0.029	0.031	0.069
250.0	50.00	190.3	319.9	217.5	497.4	1456	1945	770.7	54.46	5.294	5.048	4.354	2.912	1.604	1.075	0.675	0.575	0.475	0.381	0.330	0.273	0.284	0.262	0.239	0.204	0.187	0.134	0.103	0.130	0.113	0.124	0.119	0.131	0.145	0.120	0.144	0.090	0.095	0.102	0.171	0.169	0.084	0.133	0.172	0.181	0.273	0.457	0.751	1.071	0.930	0.614	0.639	1.148	2.503	4.782	7.169	9.582	9.279	5.301	1.801	0.280	0.057	0.078	0.064	0.083	0.051	0.076	0.059	0.046	0.058	0.070	0.054	0.062	0.063	0.033	0.046	0.079
255.0	22.98	54.16	207.4	414.3	240.0	367.3	1265	2774	1118	49.85	7.238	6.330	3.524	2.124	1.253	0.964	0.764	0.581	0.528	0.335	0.355	0.408	0.311	0.227	0.227	0.208	0.191	0.164	0.152	0.131	0.107	0.114	0.099	0.113	0.124	0.123	0.112	0.093	0.086	0.120	0.128	0.071	0.139	0.145	0.129	0.135	0.185	0.237	0.402	0.797	1.501	1.770	0.803	0.728	1.153	1.768	2.942	6.804	13.03	15.92	8.677	2.235	0.334	0.120	0.061	0.044	0.073	0.072	0.042	0.061	0.082	0.025	0.038	0.036	0.047	0.039	0.080
260.0	17.69	20.85	72.98	321.4	395.0	159.4	368.5	1983	3297	255.2	22.62	7.347	3.782	2.397	1.472	1.104	0.826	0.697	0.422	0.321	0.398	0.326	0.298	0.309	0.177	0.214	0.183	0.172	0.152	0.164	0.135	0.110	0.146	0.116	0.128	0.130	0.068	0.079	0.068	0.101	0.147	0.121	0.090	0.114	0.195	0.078	0.094	0.160	0.143	0.311	0.838	1.952	1.930	1.202	0.565	0.531	0.756	1.725	4.794	11.99	17.25	15.88	7.050	1.314	0.108	0.108	0.094	0.094	0.087	0.065	0.044	0.113	0.048	0.050	0.064	0.056	0.119
265.0	12.31	13.54	24.89	134.0	459.5	302.6	122.4	628.5	3002	2006	197.6	14.29	5.393	3.224	2.088	1.180	1.124	0.784	0.425	0.462	0.482	0.444	0.306	0.275	0.223	0.205	0.177	0.196	0.127	0.229	0.153	0.114	0.168	0.160	0.161	0.133	0.072	0.123	0.049	0.107	0.106	0.091	0.123	0.142	0.119	0.085	0.141	0.108	0.117	0.129	0.302	0.807	1.760	2.342	1.825	0.705	0.340	0.519	1.175	3.220	7.374	15.14	20.33	15.05	4.362	0.563	0.128	0.116	0.085	0.068	0.068	0.117	0.057	0.032	0.066	0.065	0.087
270.0	36.90	23.56	18.24	41.12	194.2	442.1	300.9	201.0	919.3	2258	2710	798.5	47.14	5.683	2.855	1.763	1.142	0.902	0.629	0.584	0.518	0.353	0.401	0.262	0.247	0.224	0.267	0.250	0.137	0.216	0.150	0.165	0.176	0.198	0.181	0.207	0.236	0.124	0.101	0.142	0.128	0.107	0.205	0.161	0.155	0.168	0.210	0.124	0.095	0.094	0.169	0.262	0.584	1.135	1.867	2.267	2.073	1.121	0.595	0.938	1.855	4.177	8.260	13.37	16.58	16.60	11.01	4.057	0.544	0.128	0.089	0.128	0.066	0.063	0.091	0.053	0.081
275.0	255.4	151.2	71.95	42.83	72.86	197.7	606.6	355.7	412.5	842.7	2125	6567	995.8	52.79	5.518	2.735	1.757	1.068	0.866	0.821	0.724	0.509	0.489	0.311	0.403	0.299	0.285	0.228	0.154	0.196	0.238	0.324	0.564	0.629	0.665	0.619	0.527	0.511	0.526	0.474	0.563	0.448	0.538	0.600	0.651	0.535	0.434	0.383	0.321	0.234	0.167	0.265	0.350	0.386	0.621	1.003	2.164	3.786	3.244	1.624	1.334	1.917	3.046	4.274	5.841	9.741	19.44	24.93	16.33	4.806	0.604	0.220	0.158	0.097	0.089	0.112	0.102
280.0	938.5	586.9	268.6	111.2	87.36	155.8	513.5	1050	925.6	1198	1719	5319	4464	700.3	25.25	4.710	2.490	1.521	1.202	1.036	0.691	0.616	0.567	0.516	0.519	0.314	0.303	0.304	0.312	0.279	0.271	0.592	1.251	1.818	1.982	1.793	1.552	1.719	1.659	1.579	1.447	1.694	1.792	1.897	1.861	1.613	1.466	1.085	0.845	0.578	0.424	0.395	0.338	0.444	0.523	0.843	1.326	2.770	4.981	5.363	4.091	3.961	4.316	5.422	6.784	7.267	10.73	17.30	27.10	26.90	13.78	2.553	0.391	0.232	0.160	0.219	0.181
285.0	2066	1336	620.1	253.7	158.9	250.7	511.4	1377	2075	2150	2877	3666	4731	3758	114.3	11.02	3.321	2.503	1.499	1.310	0.896	0.878	0.676	0.691	0.578	0.493	0.435	0.423	0.414	0.296	0.459	1.068	2.365	3.571	4.692	4.235	4.123	3.643	3.557	3.319	3.309	3.276	3.848	3.971	4.111	3.831	3.293	2.491	1.807	1.158	0.856	0.688	0.570	0.687	0.826	1.141	1.768	2.703	4.384	6.799	9.515	9.738	9.129	10.68	12.52	12.48	12.73	13.72	16.84	23.23	30.43	22.82	8.252	1.235	0.410	0.387	0.202
290.0	3892	2499	1316	539.5	323.7	441.8	832.6	1760	3344	4761	5434	5117	3683	3595	3092	416.5	25.14	3.646	2.545	1.824	1.304	1.102	0.994	0.820	0.749	0.757	0.530	0.545	0.542	0.472	0.695	1.859	4.550	7.018	8.752	8.306	7.725	6.941	6.085	6.004	6.163	6.268	7.103	7.472	7.595	7.361	6.092	5.270	3.611	2.392	1.667	1.397	1.205	1.296	1.405	1.936	2.856	4.011	5.801	8.099	11.40	15.77	18.87	21.67	22.89	22.73	23.14	21.97	19.57	16.45	15.79	17.98	20.85	19.69	14.73	6.180	1.305
295.0	5387	3901	1991	845.7	480.9	605.6	1132	2238	4089	6596	8150	7243	4471	2090	2031	3643	579.8	21.79	4.065	2.561	1.943	1.384	1.287	1.043	0.860	0.723	0.767	0.672	0.668	0.565	0.928	2.770	6.256	10.16	12.39	11.99	11.05	10.05	9.081	8.141	8.131	8.913	9.855	10.52	10.76	10.14	9.036	7.660	5.573	3.668	2.410	2.101	1.708	1.952	2.110	2.771	3.791	5.456	7.647	10.12	14.00	18.02	22.83	30.03	34.83	34.14	33.64	30.35	26.85	20.38	13.77	9.978	8.268	9.302	17.22	26.58	20.67
300.0	6227	4506	2353	1023	560.0	688.9	1266	2467	4428	7058	9386	8643	5236	2034	919.3	2521	3357	83.25	9.811	2.986	2.365	1.607	1.388	1.238	1.067	0.874	0.832	0.690	0.694	0.724	1.006	2.981	6.907	11.64	13.85	13.65	12.99	11.93	10.13	9.572	9.075	9.948	11.04	11.89	12.36	11.82	10.54	8.994	6.387	4.312	3.153	2.490	2.020	2.165	2.527	3.094	4.465	6.036	8.274	11.26	15.24	19.59	25.12	31.43	37.20	40.53	40.38	36.10	31.57	23.62	14.71	9.489	5.909	4.363	6.260	12.64	23.58
305.0	6454	4660	2556	1117	600.7	726.5	1321	2492	4466	7077	9362	9441	5816	2276	756.2	875.1	2982	2667	66.61	5.529	3.082	1.946	1.773	1.534	1.057	0.987	0.836	0.699	0.771	0.640	1.083	2.760	7.363	12.47	14.92	14.19	13.22	11.92	10.60	9.625	9.477	10.18	11.36	12.12	12.87	12.49	10.66	9.511	6.942	4.551	3.327	2.678	2.261	2.077	2.713	3.293	4.398	6.031	8.679	10.88	14.82	19.78	25.50	30.76	36.41	39.61	42.06	40.88	35.63	25.47	17.14	10.44	6.230	4.393	3.649	4.540	8.244
310.0	5970	4489	2482	1118	621.8	703.3	1229	2317	4152	6544	8597	8855	6273	2662	923.7	516.4	972.2	2233	2323	280.0	16.54	2.911	2.144	1.569	1.285	1.115	1.004	0.810	0.765	0.705	1.015	2.597	6.837	11.37	13.86	13.51	12.64	11.75	10.10	9.445	8.806	9.552	10.57	11.36	11.80	12.03	10.18	9.202	6.844	4.617	3.156	2.825	2.356	2.068	2.551	3.045	4.285	5.457	7.859	10.55	13.91	18.29	23.37	28.73	33.81	36.52	37.56	37.56	35.38	28.44	19.48	12.43	7.546	5.022	3.935	3.456	3.791
315.0	5288	3991	2266	1063	601.4	646.1	1098	2019	3572	5648	7478	7678	5767	3122	1218	589.2	456.3	615.5	1442	2749	407.2	11.83	3.213	1.826	1.605	1.262	1.086	0.844	0.923	0.645	0.921	2.311	5.617	9.764	12.77	12.37	11.30	10.72	9.025	8.293	8.054	8.524	8.946	9.998	10.47	10.24	8.999	8.186	6.355	4.347	2.969	2.573	2.286	2.045	2.308	2.836	4.026	4.711	6.822	9.047	11.81	16.45	20.52	24.45	29.38	31.53	33.02	31.90	30.76	25.73	20.88	15.63	10.20	6.543	4.852	3.870	3.518
320.0	4629	3598	2066	983.5	581.4	610.4	966.6	1763	3089	4897	6512	6785	5124	3093	1570	701.5	390.9	266.6	428.8	1968	2405	61.78	6.371	2.233	1.793	1.327	1.084	0.992	1.016	0.717	0.972	2.094	5.256	8.645	11.09	10.60	9.852	9.273	7.847	7.281	6.982	7.200	8.065	9.069	9.404	9.558	8.061	7.234	5.643	3.908	2.987	2.588	2.116	2.035	2.242	2.549	3.441	4.412	5.921	7.737	10.46	13.92	17.13	21.42	25.04	27.46	29.33	27.71	26.76	22.90	17.93	14.86	12.36	8.823	6.140	4.344	3.781
325.0	4085	3203	1929	961.0	562.8	570.3	857.5	1529	2652	4219	5633	5922	4561	2716	1761	885.7	423.7	213.8	169.1	607.5	2225	1821	50.36	3.574	1.905	1.649	1.198	1.217	1.007	0.653	0.896	1.852	4.537	7.794	9.296	9.314	9.035	8.072	6.888	6.488	6.136	6.276	7.253	7.836	8.471	8.412	7.522	6.623	5.327	3.677	2.770	2.541	2.149	2.213	2.186	2.209	2.972	3.870	5.256	6.847	9.025	12.15	15.01	18.53	21.43	24.12	24.98	24.58	23.77	20.06	15.87	13.02	11.52	10.04	8.600	5.597	4.063
330.0	3349	2781	1730	922.3	567.7	529.9	734.1	1264	2145	3391	4538	4848	3856	2336	1501	1111	585.2	239.0	135.5	196.7	662.8	1617	1830	218.7	12.09	1.990	1.585	1.084	0.966	0.803	0.833	1.715	3.602	6.269	7.812	7.703	7.551	6.662	5.877	5.409	5.131	5.359	5.863	6.562	6.696	6.994	6.398	5.890	4.583	3.393	2.674	2.388	2.025	1.900	1.898	2.084	2.687	3.415	4.235	5.456	7.310	9.473	12.09	15.06	17.46	19.63	20.12	20.23	19.82	17.40	13.95	11.14	9.214	8.217	7.648	7.028	5.733
335.0	2725	2342	1529	852.4	541.2	484.9	623.3	1029	1690	2650	3547	3819	3126	1993	1256	939.7	790.9	357.7	155.0	124.0	202.9	413.8	1232	1962	324.2	10.29	1.853	1.404	1.035	0.843	0.796	1.589	2.831	4.984	6.175	5.815	6.167	5.327	4.728	4.055	4.271	4.303	4.761	5.281	5.400	6.057	5.363	5.133	4.048	3.087	2.579	2.363	1.947	1.682	1.767	1.944	2.253	2.951	3.713	4.360	5.994	7.604	9.672	11.48	13.74	15.11	16.13	16.47	15.54	14.56	11.78	9.654	7.424	6.722	5.977	5.557	5.240
340.0	2452	2101	1402	802.4	521.2	459.6	563.7	869.0	1402	2166	2904	3153	2618	1740	1116	779.2	693.5	523.1	202.7	116.7	107.9	138.0	351.0	1439	1818	52.80	3.536	1.561	1.299	0.902	0.787	1.197	2.351	4.133	5.085	5.142	4.938	4.616	3.868	3.544	3.391	3.853	4.074	4.195	4.936	4.945	4.879	4.857	4.035	2.826	2.365	2.273	1.913	1.789	1.568	1.793	2.128	2.649	3.196	4.028	5.069	6.188	7.878	9.216	11.23	12.06	12.97	13.38	12.84	11.75	10.14	8.312	6.657	6.298	5.318	4.748	4.468
345.0	2045	1878	1327	778.5	498.6	421.1	514.5	748.5	1169	1781	2379	2603	2202	1490	988.2	683.8	527.3	540.7	324.4	131.6	93.35	81.69	110.4	435.8	1735	1706	41.92	2.331	1.494	1.161	0.903	1.091	1.948	3.334	4.144	4.186	4.174	3.780	3.391	3.023	2.859	3.264	3.343	3.640	4.318	4.403	4.550	4.066	3.518	2.681	2.220	2.157	1.850	1.763	1.559	1.586	2.036	2.283	2.693	3.456	4.289	5.332	6.514	7.471	9.089	10.25	10.61	11.34	10.68	10.14	8.629	7.284	5.997	5.221	4.463	4.483	3.934
350.0	1712	1550	1138	674.3	456.6	388.9	437.4	606.6	923.0	1374	1814	1998	1714	1206	821.3	577.9	415.3	361.0	384.6	243.4	108.4	75.24	62.74	123.0	509.3	1441	955.5	191.0	10.45	1.507	1.116	1.153	1.728	2.728	3.368	3.303	3.217	2.937	2.737	2.507	2.351	2.634	2.509	2.953	3.556	3.678	3.664	3.588	3.117	2.378	2.004	1.861	1.728	1.645	1.436	1.451	1.645	1.821	2.372	2.903	3.416	4.221	5.113	6.117	7.068	7.762	8.258	8.653	8.062	7.928	6.773	5.952	4.902	4.527	4.005	3.671	3.215
355.0	1379	1314	960.3	603.0	407.7	356.5	386.7	501.3	710.0	1040	1362	1504	1313	947.6	664.2	485.5	348.6	262.9	254.3	326.3	199.9	86.55	58.32	57.49	133.4	348.8	759.8	1466	293.8	7.635	1.277	1.156	1.410	2.264	2.432	2.779	2.505	2.347	2.169	2.168	1.978	2.054	2.139	2.433	2.774	3.004	2.862	3.077	2.687	2.018	1.709	1.685	1.631	1.309	1.417	1.299	1.428	1.584	1.986	2.233	2.580	3.160	3.775	4.689	5.129	5.497	6.140	6.517	6.071	5.989	5.319	4.860	4.116	3.668	3.180	3.119	2.671
360.0	1194	1168	861.8	548.0	379.5	329.8	351.0	435.0	604.5	836.9	1091	1214	1065	790.9	563.5	421.9	311.2	231.8	191.0	248.5	291.4	128.7	61.99	46.12	53.58	95.41	212.3	1088	1560	48.85	3.283	1.382	1.274	1.871	2.321	2.207	2.090	1.881	1.851	1.728	1.663	1.964	1.880	2.152	2.449	2.563	2.418	2.872	2.377	1.785	1.561	1.616	1.513	1.308	1.146	1.200	1.365	1.482	1.688	1.981	2.390	2.640	3.229	3.641	4.074	4.532	4.846	5.265	5.130	4.959	4.197	3.905	3.439	3.041	2.775	2.656	2.286
365.0	1066	1047	752.0	501.7	371.3	318.9	325.0	400.1	511.3	696.6	899.5	1002	885.1	670.3	491.1	374.3	282.1	210.2	172.2	171.8	264.2	219.0	69.93	48.34	38.32	40.88	62.39	328.8	1530	1158	38.50	1.837	1.455	1.696	1.805	1.934	1.735	1.586	1.521	1.550	1.535	1.595	1.624	1.699	1.978	2.301	2.321	2.362	2.227	1.600	1.363	1.602	1.395	1.332	1.216	1.085	1.308	1.385	1.514	1.831	2.024	2.245	2.686	3.247	3.426	3.779	4.192	4.279	4.435	4.061	3.645	3.338	2.932	2.616	2.278	2.257	2.072
370.0	877.7	864.6	659.7	456.7	341.5	299.0	300.8	349.8	427.8	562.8	718.3	785.1	708.8	547.6	408.3	318.6	248.7	194.3	158.8	140.0	163.4	225.9	171.0	68.43	40.05	32.08	30.25	85.54	450.8	1076	837.8	169.0	8.575	1.674	1.591	1.786	1.762	1.340	1.333	1.258	1.310	1.290	1.509	1.531	1.680	1.929	2.019	2.064	1.850	1.401	1.356	1.345	1.252	1.196	1.115	1.117	1.227	1.277	1.330	1.460	1.704	1.872	2.214	2.713	2.846	3.157	3.345	3.277	3.236	3.388	2.849	2.656	2.458	2.202	1.976	1.912	1.837
375.0	733.5	728.6	591.8	408.4	314.0	280.0	280.1	300.5	362.3	451.2	571.5	620.8	564.3	447.9	343.7	274.8	222.6	180.6	147.0	126.1	118.8	136.7	202.9	150.7	51.48	33.51	24.85	32.28	110.5	260.1	668.4	1247	242.8	6.232	1.623	1.562	1.589	1.190	1.156	1.133	1.040	1.175	1.191	1.375	1.448	1.701	1.715	1.756	1.512	1.353	1.082	1.420	1.165	1.071	1.265	1.167	1.204	1.328	1.178	1.227	1.546	1.518	1.660	2.113	2.166	2.653	2.595	2.684	2.612	2.641	2.256	2.189	1.894	1.820	1.660	1.630	1.588
380.0	638.9	652.4	521.9	376.8	303.0	270.4	264.3	274.4	319.8	388.2	482.8	513.7	473.0	388.0	304.4	247.7	203.0	167.3	141.4	121.6	107.4	103.1	140.3	198.5	93.34	36.30	24.80	22.04	35.30	66.00	183.4	931.6	1079	40.14	2.827	1.604	1.506	1.395	1.041	0.962	0.946	1.088	1.059	1.206	1.225	1.430	1.464	1.527	1.398	1.145	1.061	1.278	1.113	1.081	1.150	1.071	1.038	0.998	1.147	1.123	1.215	1.294	1.428	1.878	1.834	2.091	2.123	2.086	2.358	2.188	1.940	1.785	1.721	1.593	1.490	1.555	1.453
385.0	558.9	572.6	470.2	362.1	284.1	249.8	250.4	249.7	281.8	333.0	415.7	439.8	405.9	335.2	269.3	220.8	182.6	155.5	132.3	115.6	102.7	90.86	93.74	160.5	155.4	52.65	25.87	19.94	19.34	22.88	47.80	273.5	1005	825.7	31.32	1.971	1.860	1.180	0.978	0.940	0.760	0.979	0.909	1.137	1.105	1.385	1.370	1.413	1.265	1.031	0.947	1.116	1.011	1.100	0.980	0.889	0.949	0.955	1.107	1.105	1.072	1.209	1.441	1.577	1.617	1.779	1.818	1.797	1.980	2.015	1.799	1.604	1.665	1.439	1.483	1.285	1.401
390.0	500.3	514.3	419.5	321.3	265.4	236.5	236.0	233.2	247.6	285.5	342.1	366.3	348.4	292.8	238.8	198.6	168.3	143.2	125.7	110.4	96.66	85.50	76.77	90.86	137.5	121.1	42.74	20.56	16.37	14.05	17.36	67.05	286.2	721.8	593.3	142.4	14.59	1.268	1.009	0.846	0.779	0.889	0.955	0.902	1.020	1.272	1.157	1.268	1.171	0.995	0.913	1.002	0.997	1.071	0.911	0.910	0.970	0.990	1.051	0.953	0.975	1.137	1.147	1.252	1.293	1.471	1.557	1.572	1.685	1.673	1.603	1.405	1.442	1.353	1.315	1.269	1.138
395.0	438.3	447.5	379.8	297.3	245.2	220.1	211.2	214.0	218.2	241.8	293.3	309.7	294.7	252.0	209.8	175.8	150.8	129.3	116.6	104.6	92.02	82.43	71.24	64.92	72.38	118.3	107.3	33.50	16.38	12.72	11.34	20.24	68.40	172.0	432.4	1091	1331	6.753	1.260	1.042	0.881	0.945	0.867	0.892	1.091	1.171	1.100	1.318	1.146	0.955	0.888	0.928	0.942	0.797	0.822	0.872	0.955	0.957	0.928	0.870	0.822	0.845	0.920	0.998	1.175	1.235	1.221	1.302	1.437	1.417	1.369	1.300	1.302	1.134	1.167	1.202	1.165
400.0	406.6	403.1	345.5	281.3	218.4	212.7	204.2	199.4	198.9	215.2	252.4	272.0	257.7	228.7	192.1	160.6	141.1	121.8	109.4	99.10	89.16	78.77	69.03	57.45	51.07	73.66	123.4	55.84	20.96	13.04	10.60	10.43	20.24	43.14	116.5	761.6	2619	36.27	2.632	1.040	0.943	0.901	0.842	0.876	0.893	1.043	1.079	1.146	0.989	0.865	0.773	1.009	1.000	0.830	0.786	0.929	0.756	0.874	0.821	0.891	0.780	0.791	0.916	0.859	0.969	1.166	1.095	1.255	1.310	1.182	1.083	1.091	1.146	1.067	1.154	0.991	1.041
405.0	378.0	396.1	338.4	251.5	213.4	194.8	192.2	181.8	185.3	196.1	224.1	244.8	235.3	207.2	173.8	150.1	129.4	113.7	102.9	93.31	85.17	75.92	66.37	55.43	44.99	46.12	88.10	105.2	39.93	13.82	10.63	8.659	10.18	14.40	30.38	215.2	1520	638.2	28.97	1.347	0.834	0.823	0.820	0.897	0.864	0.917	0.956	1.150	0.920	0.819	0.727	0.854	0.794	0.821	0.730	0.849	0.752	0.733	0.762	0.766	0.794	0.753	0.882	0.799	1.054	1.026	1.072	1.029	1.082	1.048	0.954	0.964	1.124	0.938	0.926	0.893	0.803
410.0	335.0	358.3	309.4	235.1	206.4	177.7	173.7	168.6	165.9	172.3	196.4	210.8	207.2	181.3	155.6	135.4	118.5	105.7	95.39	87.56	80.24	71.57	62.41	52.14	41.21	35.63	44.90	80.88	84.85	32.69	11.84	8.470	8.125	7.879	10.69	52.00	386.6	498.3	461.1	125.4	6.600	0.958	0.766	0.842	0.812	0.831	0.896	0.972	0.868	0.753	0.674	0.750	0.732	0.778	0.661	0.725	0.783	0.723	0.731	0.614	0.641	0.693	0.831	0.761	0.831	0.909	0.913	0.877	0.927	1.027	0.982	0.853	0.967	0.878	0.840	0.771	0.734
415.0	304.4	330.8	284.5	212.9	182.1	163.3	154.2	149.7	146.0	154.2	169.9	179.9	175.3	165.1	139.4	120.4	105.5	95.44	88.23	81.27	75.36	68.06	59.95	49.15	39.84	31.45	30.28	38.86	74.70	78.93	25.41	8.940	7.280	6.326	6.549	15.03	89.87	117.4	299.1	610.4	180.8	5.785	0.937	0.746	0.799	0.782	0.906	0.832	0.831	0.697	0.653	0.750	0.721	0.772	0.634	0.620	0.614	0.677	0.688	0.722	0.615	0.687	0.727	0.727	0.723	0.782	0.744	0.792	0.800	0.722	0.896	0.776	0.881	0.736	0.613	0.745	0.700
420.0	281.7	294.5	251.0	194.8	163.0	155.6	142.9	132.8	132.3	138.1	150.1	157.1	158.0	148.3	129.1	108.5	96.89	88.55	82.39	76.22	71.33	63.74	57.31	48.88	37.86	30.04	25.58	25.06	41.99	82.61	49.64	13.27	7.066	5.922	5.447	6.752	23.21	28.78	77.84	385.7	587.4	33.60	2.627	0.743	0.849	0.809	0.914	0.870	0.799	0.705	0.559	0.660	0.770	0.636	0.573	0.662	0.685	0.657	0.647	0.712	0.569	0.633	0.669	0.623	0.691	0.762	0.711	0.710	0.775	0.753	0.823	0.679	0.777	0.778	0.663	0.605	0.729
425.0	281.2	269.4	247.6	182.1	147.7	135.5	136.1	124.8	117.5	119.0	137.9	145.9	140.4	134.1	115.7	97.95	90.29	82.51	76.94	70.33	68.87	61.81	55.08	47.85	36.68	28.67	23.63	21.16	24.55	53.76	74.27	29.36	8.272	5.429	5.012	4.835	8.448	8.772	19.74	106.0	460.8	493.0	28.44	1.216	0.834	0.823	0.838	0.834	0.837	0.639	0.582	0.612	0.645	0.613	0.507	0.675	0.523	0.602	0.526	0.623	0.568	0.524	0.641	0.594	0.561	0.754	0.666	0.586	0.590	0.709	0.660	0.566	0.615	0.709	0.566	0.638	0.691
430.0	430.9	250.5	221.0	166.9	134.4	128.6	119.6	115.8	103.8	110.3	120.4	128.2	125.7	116.6	103.1	89.48	81.67	75.37	70.21	66.11	63.96	58.57	53.06	45.33	34.65	27.02	22.65	19.42	18.00	26.03	51.04	54.43	24.72	6.931	4.578	3.900	5.193	4.159	6.209	25.50	123.5	352.7	382.2	118.7	7.258	0.804	0.771	0.896	0.695	0.663	0.511	0.582	0.596	0.534	0.514	0.543	0.474	0.618	0.539	0.483	0.485	0.482	0.588	0.525	0.521	0.582	0.614	0.522	0.562	0.594	0.607	0.633	0.555	0.614	0.535	0.635	0.626
435.0	919.8	228.6	185.4	154.1	125.3	115.8	111.1	100.5	94.16	96.10	105.9	112.5	112.1	106.9	89.38	81.55	72.97	69.38	65.30	61.68	59.65	54.75	49.37	43.88	34.27	25.29	20.51	18.15	16.59	16.58	22.54	44.11	52.97	18.19	4.926	3.653	4.073	3.318	3.374	7.332	29.28	81.95	205.8	511.8	180.2	6.568	0.909	0.842	0.749	0.625	0.477	0.562	0.576	0.497	0.498	0.470	0.497	0.510	0.462	0.470	0.389	0.525	0.429	0.536	0.506	0.559	0.467	0.513	0.599	0.461	0.568	0.503	0.592	0.558	0.512	0.510	0.543
440.0	1304	354.6	190.2	134.4	109.2	110.3	103.2	92.55	89.31	88.17	94.89	102.1	101.7	94.11	82.78	73.70	66.14	63.98	59.95	58.55	57.01	52.67	48.09	42.20	32.03	25.66	20.29	17.04	15.24	14.34	14.03	23.67	50.89	37.32	9.007	3.711	3.491	3.057	2.969	3.198	7.909	19.94	51.82	295.3	503.8	31.02	2.919	0.857	0.705	0.579	0.541	0.483	0.495	0.436	0.443	0.478	0.496	0.365	0.429	0.444	0.444	0.404	0.514	0.419	0.427	0.416	0.487	0.496	0.478	0.461	0.611	0.502	0.566	0.550	0.504	0.440	0.520
445.0	1237	661.5	182.3	126.9	103.2	99.97	93.04	85.21	81.48	80.14	86.27	91.27	89.37	82.18	74.03	67.11	62.52	58.96	58.07	55.77	53.79	50.35	45.65	39.77	31.35	23.19	18.68	15.81	14.61	13.31	11.42	12.68	31.55	47.79	21.63	4.726	3.332	2.791	2.674	2.614	3.253	5.807	13.21	78.50	353.4	419.8	25.23	1.764	0.766	0.611	0.536	0.494	0.425	0.410	0.485	0.390	0.481	0.451	0.393	0.426	0.378	0.431	0.488	0.426	0.416	0.404	0.458	0.461	0.439	0.508	0.508	0.478	0.484	0.482	0.410	0.432	0.439
450.0	664.2	1112	325.0	117.0	95.25	83.74	83.71	76.55	73.46	70.13	75.96	81.06	79.25	73.84	65.95	60.49	56.15	53.96	51.41	50.57	49.96	47.24	42.55	36.56	29.56	22.36	17.76	15.04	13.19	11.85	10.19	9.345	14.31	30.91	37.00	16.55	4.876	2.579	2.383	2.557	2.609	2.853	4.486	19.32	91.97	267.6	372.1	116.0	7.130	0.685	0.494	0.525	0.459	0.389	0.397	0.410	0.440	0.378	0.386	0.400	0.385	0.393	0.348	0.356	0.385	0.357	0.411	0.438	0.401	0.404	0.501	0.415	0.417	0.415	0.394	0.347	0.399
455.0	254.8	1005	869.8	126.5	84.41	78.92	69.23	65.36	60.75	59.73	66.69	67.57	67.86	62.90	58.82	53.01	49.12	49.31	46.13	45.23	45.16	41.66	38.43	32.73	27.07	20.58	16.04	13.51	11.98	10.20	9.214	7.645	8.256	12.67	26.25	32.77	13.43	3.479	2.657	2.646	2.839	2.933	2.688	6.033	22.27	62.20	155.1	526.2	159.2	9.191	0.734	0.472	0.383	0.368	0.330	0.378	0.397	0.335	0.382	0.390	0.393	0.268	0.257	0.297	0.319	0.351	0.292	0.297	0.337	0.364	0.366	0.340	0.415	0.352	0.401	0.384	0.338
460.0	165.1	570.4	1270	247.7	74.97	69.40	67.26	60.85	53.22	54.41	60.83	60.26	58.89	56.84	52.17	46.86	44.82	43.59	41.69	41.96	41.40	38.63	34.85	32.07	23.85	18.71	14.86	13.02	11.48	9.814	8.857	7.409	6.223	7.293	13.07	31.04	25.01	6.952	2.788	2.655	2.821	2.963	2.788	3.282	6.660	15.51	38.05	277.3	396.1	128.5	4.369	0.615	0.462	0.316	0.327	0.363	0.360	0.307	0.327	0.282	0.335	0.233	0.345	0.299	0.300	0.330	0.276	0.321	0.334	0.343	0.338	0.320	0.373	0.287	0.356	0.300	0.403
465.0	140.7	263.7	1207	573.3	73.77	66.18	60.04	54.42	48.89	49.71	55.47	53.69	53.07	49.27	45.31	40.14	41.62	39.68	39.32	38.20	38.23	35.59	32.54	28.47	22.00	17.18	14.20	12.45	10.82	9.509	8.037	6.832	5.998	5.734	7.257	19.45	30.25	14.73	4.163	2.687	2.750	2.973	3.133	2.853	3.350	5.279	10.18	71.04	249.5	390.5	22.79	1.832	0.442	0.405	0.394	0.327	0.413	0.323	0.301	0.311	0.286	0.246	0.347	0.260	0.243	0.330	0.327	0.299	0.333	0.315	0.330	0.303	0.377	0.301	0.356	0.329	0.361
470.0	173.0	144.3	635.2	1025	223.0	58.01	53.06	48.00	43.12	44.46	46.09	46.39	46.81	43.12	38.80	36.01	34.87	34.23	33.76	33.80	33.86	31.18	28.79	25.92	20.03	14.89	12.83	11.00	10.15	8.635	7.216	6.437	5.677	4.854	4.974	8.514	19.30	23.50	11.38	3.978	2.963	2.928	3.118	3.308	2.935	3.118	3.874	17.67	63.50	213.5	302.3	104.8	7.839	0.628	0.451	0.358	0.387	0.337	0.266	0.261	0.302	0.263	0.318	0.265	0.272	0.316	0.285	0.262	0.299	0.259	0.267	0.262	0.257	0.282	0.283	0.246	0.283
475.0	209.6	113.2	221.3	928.2	630.1	64.61	42.78	41.61	37.56	38.74	40.88	39.57	39.14	35.43	33.51	30.79	30.08	29.42	28.46	29.58	29.22	26.89	24.91	23.00	18.37	13.47	10.98	9.474	8.700	8.351	6.636	6.089	4.895	4.373	4.297	4.826	8.563	17.14	20.54	8.985	3.789	3.013	2.942	3.267	3.543	2.921	2.563	5.536	15.74	49.31	115.1	262.8	146.4	10.89	0.606	0.447	0.399	0.351	0.280	0.294	0.271	0.244	0.263	0.305	0.264	0.263	0.224	0.209	0.268	0.193	0.227	0.226	0.220	0.254	0.212	0.250	0.244
480.0	207.2	130.2	106.3	520.5	1090	173.9	40.00	38.07	36.07	35.51	35.88	35.70	34.59	30.45	30.65	27.98	26.80	26.92	25.55	26.36	25.91	24.53	23.21	20.92	16.68	12.60	9.923	9.215	8.236	7.252	6.502	5.633	4.919	4.254	4.279	4.055	5.014	9.406	20.30	16.09	5.881	3.259	3.234	3.302	3.297	3.140	2.386	2.972	5.182	12.51	28.00	118.4	294.7	127.8	4.587	0.773	0.534	0.529	0.324	0.300	0.251	0.245	0.202	0.293	0.307	0.203	0.198	0.238	0.192	0.230	0.233	0.242	0.251	0.182	0.253	0.211	0.271
485.0	154.2	179.9	84.61	219.1	1115	461.2	41.71	35.36	32.61	33.45	31.13	32.42	30.31	30.25	27.37	26.19	25.33	24.14	23.74	24.54	23.81	23.00	20.90	18.75	14.92	11.91	9.595	8.840	7.722	7.222	6.170	5.385	4.648	4.347	3.891	3.548	4.074	5.316	13.25	19.82	10.98	3.785	3.350	3.262	2.986	3.122	2.928	2.609	2.894	4.414	7.873	30.28	169.4	287.3	26.87	2.456	0.772	0.561	0.383	0.394	0.227	0.295	0.227	0.237	0.234	0.211	0.208	0.198	0.177	0.181	0.175	0.197	0.234	0.224	0.200	0.207	0.209
490.0	93.53	200.8	99.96	93.45	591.0	979.5	158.4	31.26	31.91	30.06	28.69	29.03	27.02	25.94	24.29	22.51	21.80	20.69	20.55	21.60	21.07	20.48	19.29	16.60	13.63	10.66	8.821	8.082	7.280	6.593	5.686	5.254	4.607	4.101	3.674	3.534	3.725	3.874	6.570	13.95	16.43	8.807	4.182	3.441	3.517	3.363	3.409	3.228	3.106	3.244	3.998	9.067	43.58	139.5	203.0	109.3	10.07	1.334	0.760	0.508	0.312	0.234	0.252	0.234	0.253	0.162	0.202	0.169	0.187	0.154	0.211	0.180	0.212	0.198	0.155	0.155	0.212
495.0	58.91	147.3	152.4	63.78	187.3	929.2	443.8	41.54	27.44	26.97	27.34	26.55	23.65	22.65	20.61	19.59	18.61	18.54	17.96	18.28	19.01	17.65	16.73	14.98	12.33	9.187	7.957	7.261	6.342	6.030	5.131	4.692	4.289	3.913	3.634	3.515	3.595	3.850	4.107	6.619	13.48	15.43	7.669	4.018	3.665	3.636	3.931	4.186	4.147	4.170	4.231	5.467	13.63	35.89	79.88	250.6	168.3	12.66	1.659	0.817	0.542	0.390	0.275	0.224	0.233	0.204	0.170	0.260	0.178	0.267	0.163	0.162	0.150	0.191	0.143	0.189	0.182
500.0	45.93	101.3	182.1	62.76	71.32	524.8	972.4	111.1	27.28	26.40	26.28	25.06	22.22	20.25	17.90	17.76	16.79	16.61	15.66	16.90	16.33	15.62	14.70	13.75	11.08	8.199	7.436	6.434	5.994	6.038	4.867	4.426	4.339	3.631	3.367	3.280	3.585	3.568	3.593	3.981	8.091	15.23	11.63	5.550	3.953	3.908	4.358	4.842	5.387	5.422	5.446	6.072	8.479	14.12	24.82	113.2	286.2	127.1	7.589	1.380	0.774	0.494	0.251	0.266	0.191	0.205	0.168	0.220	0.152	0.180	0.159	0.108	0.189	0.181	0.123	0.174	0.201
505.0	42.20	61.30	178.2	87.43	45.63	211.5	1098	316.1	30.73	25.17	23.77	24.25	21.48	18.98	16.57	16.32	14.06	15.15	14.18	14.89	15.01	14.74	13.59	12.36	10.32	7.660	6.763	6.001	5.541	5.361	4.806	4.216	4.026	3.457	3.624	3.277	3.411	3.345	3.240	3.613	5.133	10.84	14.82	8.617	4.747	4.671	5.084	5.513	6.132	7.016	6.617	7.256	8.320	10.68	13.27	34.18	150.7	271.3	30.50	3.775	1.061	0.643	0.320	0.300	0.180	0.172	0.109	0.178	0.142	0.151	0.146	0.140	0.210	0.184	0.142	0.151	0.100
510.0	35.06	38.65	113.3	146.5	48.68	75.84	618.0	848.1	105.8	24.35	22.83	21.81	19.48	16.60	14.81	13.77	12.81	12.63	12.88	12.77	13.11	12.96	11.72	10.33	8.943	6.776	5.773	5.374	4.941	4.633	4.389	4.000	3.720	3.264	3.293	3.156	3.152	3.078	2.998	3.347	3.797	6.037	11.51	12.96	7.869	5.392	5.522	6.250	6.715	7.920	8.061	8.779	9.927	10.99	12.57	16.68	43.56	127.0	187.9	98.21	10.35	0.860	0.494	0.357	0.273	0.186	0.182	0.151	0.155	0.150	0.133	0.163	0.211	0.168	0.114	0.141	0.124
515.0	32.61	28.32	53.89	157.9	77.24	42.68	184.8	912.1	466.4	28.76	21.68	20.33	17.45	14.63	12.71	11.48	11.11	11.23	10.49	10.60	10.62	10.55	9.265	9.188	8.062	6.257	5.209	4.722	4.625	4.187	4.023	3.528	3.369	3.079	3.054	2.891	2.952	2.870	2.874	3.091	3.311	4.256	6.587	11.75	12.04	7.429	5.746	6.525	7.195	7.746	8.304	9.973	10.88	12.06	13.28	13.83	18.53	35.02	65.56	177.4	137.6	12.93	0.716	0.382	0.281	0.253	0.188	0.151	0.179	0.113	0.105	0.176	0.216	0.142	0.148	0.119	0.147
520.0	31.37	28.70	40.25	123.6	121.0	31.41	61.71	549.1	881.5	79.63	20.68	18.52	16.04	12.97	11.93	10.72	9.925	9.496	9.293	9.619	9.426	9.661	9.089	8.220	6.827	5.498	4.604	4.174	4.139	3.839	3.635	3.389	3.126	3.115	2.872	2.974	2.913	2.747	2.719	2.753	2.941	3.382	4.452	7.922	12.40	10.14	6.597	6.417	6.863	7.558	8.164	9.977	11.23	11.96	13.03	12.36	12.62	14.62	19.74	74.27	205.9	114.1	4.919	0.542	0.366	0.237	0.237	0.152	0.191	0.123	0.120	0.145	0.294	0.142	0.112	0.087	0.124
525.0	25.08	24.85	27.93	80.72	149.8	38.27	30.68	219.0	1051	233.6	20.74	17.10	14.73	11.84	10.91	9.743	9.203	9.066	8.686	8.416	8.847	8.511	8.006	7.311	6.343	5.330	4.185	4.004	3.891	3.392	3.373	3.423	2.936	3.049	2.635	2.492	2.807	2.634	2.715	2.844	2.875	3.045	3.838	5.223	10.06	11.73	8.109	6.485	6.384	7.448	7.791	8.946	11.05	11.52	12.03	11.56	11.30	9.878	9.365	20.73	99.53	217.3	29.55	2.711	0.406	0.248	0.233	0.117	0.139	0.184	0.169	0.092	0.230	0.106	0.105	0.130	0.108
530.0	20.84	20.74	24.86	40.43	132.1	79.70	23.41	68.68	630.8	765.1	72.32	16.48	13.97	11.37	9.551	7.962	7.723	7.476	7.704	7.416	7.506	7.160	6.838	6.349	5.356	4.386	3.732	3.558	3.341	3.120	2.938	3.016	2.644	2.447	2.456	2.334	2.533	2.426	2.385	2.446	2.500	2.745	3.007	3.712	6.189	9.993	10.20	7.245	6.318	6.511	7.263	7.780	9.375	10.53	11.20	10.83	9.979	8.278	6.548	7.649	25.40	92.24	128.1	86.99	9.425	0.367	0.209	0.135	0.133	0.147	0.130	0.143	0.188	0.076	0.108	0.144	0.153
535.0	22.43	20.22	18.97	21.70	71.63	126.7	31.17	29.22	188.4	897.9	233.2	18.19	12.16	10.25	8.176	7.338	6.578	6.022	6.452	5.909	6.415	5.613	5.686	5.356	4.457	3.636	3.371	2.834	2.972	2.697	2.515	2.391	2.282	2.139	2.234	1.937	2.191	1.869	1.997	2.213	2.297	2.422	2.693	2.945	3.763	5.864	9.910	8.811	6.591	5.835	6.358	6.720	7.484	8.685	10.09	9.654	8.381	6.836	5.629	4.386	7.442	21.86	41.03	142.1	110.3	8.737	0.327	0.139	0.144	0.164	0.110	0.113	0.176	0.104	0.070	0.117	0.129
540.0	20.63	20.56	14.66	18.19	36.35	134.0	51.22	20.69	57.91	546.2	709.3	45.77	11.33	9.465	7.609	6.273	5.283	5.362	5.120	5.041	5.543	4.747	5.010	4.705	3.759	3.153	2.976	2.365	2.747	2.367	2.385	2.257	1.940	1.804	2.019	1.835	1.995	1.921	1.871	1.929	2.166	1.969	2.211	2.756	3.021	4.059	6.964	9.468	7.393	5.403	5.456	5.792	6.700	7.668	8.159	8.734	7.826	6.049	4.610	3.552	3.364	6.003	10.20	54.31	149.6	31.94	3.961	0.186	0.183	0.126	0.126	0.133	0.151	0.094	0.101	0.133	0.104
545.0	17.45	16.51	18.71	13.39	20.94	100.0	88.40	18.83	27.80	216.4	919.1	158.3	12.01	8.282	6.867	5.671	4.550	4.439	4.837	4.711	4.657	4.470	4.321	3.998	3.317	2.603	2.412	2.344	2.322	2.186	1.975	1.942	1.989	1.716	1.768	1.704	1.908	1.776	1.704	1.727	1.768	1.771	2.054	2.434	2.644	3.215	4.484	7.657	8.176	5.628	4.759	5.018	5.756	6.436	6.878	7.554	7.271	5.508	4.002	3.161	2.168	2.375	3.035	13.17	67.01	130.0	28.32	1.359	0.213	0.131	0.091	0.095	0.145	0.075	0.107	0.104	0.117
550.0	24.70	20.01	15.85	12.55	13.88	48.62	115.8	37.04	23.91	75.94	561.1	604.5	42.06	7.971	5.846	4.297	3.929	3.984	4.033	3.598	3.989	3.743	3.396	3.427	2.709	2.146	2.171	1.981	1.782	1.702	1.627	1.565	1.603	1.495	1.599	1.506	1.635	1.520	1.505	1.583	1.497	1.480	1.704	1.952	2.107	2.523	2.960	4.639	6.961	6.409	4.866	4.280	4.574	5.161	5.605	5.947	6.153	5.214	3.610	2.632	1.669	1.460	1.380	3.391	16.01	54.79	91.18	54.44	7.039	0.220	0.111	0.122	0.191	0.088	0.102	0.096	0.066
555.0	47.40	31.48	22.10	13.42	13.23	22.63	102.4	88.78	42.75	67.60	210.0	835.6	162.6	10.45	4.659	3.665	3.313	3.343	3.257	2.697	3.181	3.113	2.651	2.572	2.119	1.942	1.618	1.620	1.484	1.450	1.386	1.224	1.246	1.315	1.299	1.245	1.310	1.251	1.251	1.237	1.266	1.331	1.372	1.504	1.742	1.849	2.158	2.770	4.399	6.013	5.349	3.982	3.724	4.062	4.628	4.538	4.370	4.352	3.657	2.208	1.471	1.177	0.939	1.295	4.136	12.76	27.59	80.86	65.60	7.092	0.176	0.086	0.158	0.085	0.110	0.081	0.075
560.0	96.77	60.40	36.97	16.18	13.63	20.25	72.96	137.4	83.57	104.9	151.6	612.6	562.2	25.98	4.419	3.500	2.845	2.679	2.835	2.571	2.404	2.498	2.257	2.192	1.747	1.544	1.384	1.462	1.296	1.290	1.062	1.178	1.174	1.130	1.211	1.155	1.305	1.106	1.058	1.225	1.078	1.115	1.239	1.307	1.618	1.588	1.811	2.156	2.828	4.531	5.218	3.941	3.295	3.538	3.531	3.796	3.712	3.229	3.062	2.457	1.469	1.151	1.030	1.065	1.640	3.421	6.817	29.94	85.37	31.32	2.727	0.181	0.168	0.076	0.087	0.118	0.082
565.0	153.1	93.38	49.19	18.47	14.97	24.32	57.19	165.4	139.3	164.5	193.4	357.6	802.8	100.4	5.442	3.135	2.755	2.305	2.302	2.121	2.033	2.147	1.972	1.965	1.328	1.270	1.288	1.179	1.142	1.061	0.947	1.114	1.030	1.059	1.196	1.252	1.136	1.030	1.046	1.143	1.114	1.018	1.198	1.407	1.420	1.597	1.647	1.945	2.066	3.076	4.370	4.305	3.272	3.028	3.254	3.150	3.011	2.649	2.450	2.607	1.734	1.223	1.219	1.007	1.304	1.578	2.265	7.570	36.53	84.18	25.86	1.207	0.272	0.132	0.089	0.103	0.057
570.0	222.2	149.1	75.53	33.81	20.75	29.61	58.91	161.6	237.4	254.8	290.2	308.5	595.0	410.3	22.82	3.179	2.249	2.035	2.007	1.762	1.661	1.647	1.581	1.596	1.124	1.226	1.020	1.004	1.047	0.951	0.816	0.873	1.028	1.101	1.173	1.275	1.245	1.029	0.946	1.034	1.066	1.059	1.163	1.246	1.374	1.430	1.532	1.582	1.656	2.003	2.724	3.637	3.325	2.734	2.556	2.585	2.359	2.284	2.012	2.029	1.843	1.615	1.325	1.374	1.574	1.569	1.697	2.835	9.346	33.70	56.09	35.37	13.13	0.163	0.174	0.138	0.067
575.0	314.6	204.6	101.0	41.04	28.21	36.33	70.54	153.3	311.0	374.2	415.8	373.6	321.9	586.0	109.7	3.769	2.108	1.636	1.858	1.560	1.407	1.467	1.089	1.175	1.012	1.148	0.886	0.872	0.767	0.765	0.621	0.722	1.057	1.124	1.110	1.230	1.140	1.066	1.135	1.109	1.058	1.243	1.084	1.276	1.366	1.305	1.327	1.353	1.411	1.554	1.661	2.410	2.951	2.811	2.084	2.009	1.973	1.793	1.595	1.529	1.721	2.009	1.765	1.855	1.931	2.042	1.965	2.083	3.150	8.416	16.37	47.11	242.6	4.380	0.191	0.146	0.106
580.0	368.7	253.7	119.9	54.83	32.90	43.93	79.73	159.2	335.0	455.0	492.2	439.4	271.9	418.7	347.0	9.978	1.755	1.874	1.476	1.260	1.334	1.323	1.025	1.035	0.894	0.857	0.631	0.743	0.852	0.699	0.639	0.708	1.037	1.041	1.055	1.368	1.263	1.276	1.095	1.048	1.001	1.196	1.140	1.252	1.364	1.327	1.266	1.363	1.267	1.209	1.240	1.670	2.523	2.775	2.112	1.646	1.735	1.559	1.483	1.581	1.534	1.956	2.379	2.142	2.021	2.415	2.141	1.964	2.078	2.961	4.358	16.79	398.2	27.02	1.983	0.161	0.096
585.0	383.2	274.1	134.6	60.98	35.46	50.84	85.40	168.8	335.5	517.6	546.7	499.1	290.5	214.7	496.8	49.32	1.909	1.458	1.440	1.298	1.202	1.067	0.984	0.991	0.698	0.727	0.623	0.522	0.633	0.594	0.677	0.575	0.923	1.219	1.294	1.258	1.262	1.232	1.089	1.002	1.167	1.052	1.265	1.254	1.307	1.268	1.200	1.243	1.226	1.045	1.057	1.179	1.811	2.373	2.218	1.523	1.357	1.334	1.397	1.417	1.530	1.871	2.458	2.452	2.224	2.477	2.478	2.249	2.067	1.757	1.686	4.232	157.6	47.56	20.39	0.759	0.105
590.0	421.5	296.5	156.8	67.01	37.36	49.12	90.72	175.2	322.5	542.6	610.9	546.2	319.6	135.8	322.7	204.3	8.544	1.230	1.183	1.029	0.990	0.740	0.814	0.792	0.650	0.644	0.537	0.453	0.481	0.518	0.561	0.581	0.952	1.297	1.482	1.262	1.332	1.149	1.102	0.997	0.963	0.940	1.109	1.115	1.218	1.358	1.180	1.137	1.112	0.903	0.883	0.851	1.229	1.596	2.145	1.713	1.350	1.211	1.302	1.271	1.400	1.706	2.198	2.730	2.813	2.673	2.517	2.361	2.278	1.603	1.180	1.465	36.17	18.04	33.58	21.81	3.371
595.0	448.8	312.0	158.1	68.72	36.22	48.92	91.97	179.0	310.5	514.1	651.4	567.3	343.4	126.6	111.6	335.3	65.19	1.709	1.115	0.829	0.695	0.655	0.629	0.616	0.736	0.575	0.521	0.359	0.420	0.399	0.508	0.586	0.793	1.094	1.282	1.158	1.110	1.221	1.064	0.996	0.907	0.910	1.119	1.150	1.161	1.334	1.120	1.051	0.923	0.790	0.671	0.717	0.863	1.075	1.624	1.746	1.489	1.220	0.993	1.111	1.277	1.583	1.926	2.491	2.992	2.996	2.732	2.525	2.367	1.540	1.168	0.849	8.498	4.212	9.310	28.33	26.49
600.0	422.6	313.7	158.5	71.13	35.23	48.10	87.00	169.3	296.6	483.3	653.6	575.7	343.7	127.4	51.21	230.5	192.7	4.392	0.968	0.707	0.654	0.535	0.563	0.573	0.580	0.543	0.550	0.342	0.379	0.320	0.390	0.436	0.765	1.055	1.245	1.198	1.179	1.053	0.829	0.949	0.852	0.971	1.004	1.126	1.125	1.117	1.063	0.998	0.822	0.721	0.639	0.610	0.708	0.718	1.078	1.611	1.631	1.281	1.089	1.023	1.325	1.517	1.923	2.259	2.676	3.198	2.833	2.440	2.093	1.674	1.157	0.765	2.221	1.130	2.246	9.668	30.20
605.0	383.2	299.5	161.0	69.48	34.25	47.43	84.79	158.7	285.1	446.3	623.0	580.1	344.6	131.2	38.09	94.50	286.1	25.88	1.085	0.754	0.642	0.461	0.490	0.582	0.647	0.459	0.373	0.373	0.259	0.241	0.317	0.327	0.787	0.951	1.109	1.172	1.140	0.905	0.749	1.004	0.849	0.893	0.909	1.088	1.092	1.077	0.933	0.907	0.758	0.614	0.501	0.553	0.555	0.623	0.743	1.164	1.438	1.253	1.077	0.993	1.195	1.446	1.693	2.158	2.345	2.853	2.974	2.370	1.943	1.584	1.164	0.761	0.865	0.446	0.644	2.334	11.81
610.0	358.4	278.8	149.5	65.00	36.20	44.14	80.09	148.4	266.3	413.0	559.3	560.8	339.3	134.6	38.50	33.32	190.0	136.2	4.761	0.811	0.595	0.541	0.449	0.520	0.487	0.409	0.291	0.308	0.290	0.244	0.250	0.384	0.663	0.843	1.063	1.033	1.153	0.959	0.816	0.824	0.769	0.806	0.885	0.899	0.976	0.987	0.795	0.784	0.733	0.533	0.410	0.458	0.488	0.478	0.517	0.673	1.126	1.195	1.142	1.054	1.078	1.430	1.557	1.903	2.164	2.213	2.674	2.609	2.080	1.649	1.116	0.692	0.562	0.319	0.285	0.702	2.860
615.0	341.0	265.8	139.5	58.37	37.37	39.47	70.48	130.1	234.0	380.4	489.0	523.8	342.0	134.9	44.47	20.82	59.22	219.0	43.22	0.885	0.652	0.426	0.380	0.473	0.397	0.307	0.241	0.122	0.291	0.336	0.186	0.298	0.434	0.860	0.916	0.887	1.020	1.017	0.876	0.725	0.683	0.726	0.813	0.809	0.699	0.895	0.768	0.631	0.672	0.418	0.372	0.394	0.369	0.396	0.426	0.538	0.775	0.968	1.287	1.003	1.084	1.414	1.390	1.849	1.948	2.105	2.237	2.454	2.207	1.582	1.070	0.759	0.563	0.245	0.258	0.360	0.750
620.0	314.9	248.8	128.7	55.89	32.81	38.06	65.22	121.1	220.4	342.0	447.1	467.5	342.2	133.9	46.10	20.03	22.02	151.6	132.9	2.574	0.672	0.449	0.464	0.345	0.307	0.370	0.231	0.163	0.234	0.229	0.181	0.283	0.467	0.769	0.950	0.890	0.922	0.884	0.796	0.763	0.574	0.596	0.652	0.677	0.624	0.754	0.805	0.621	0.564	0.394	0.348	0.331	0.372	0.281	0.348	0.404	0.493	0.712	0.956	0.919	0.957	1.205	1.278	1.766	1.970	2.010	1.928	2.102	2.223	1.701	1.068	0.673	0.535	0.282	0.297	0.229	0.283
625.0	297.8	224.9	123.5	54.77	32.24	36.28	59.66	109.6	200.7	320.5	409.0	426.2	322.3	135.4	49.34	22.26	13.68	61.83	202.5	15.49	0.640	0.489	0.485	0.321	0.280	0.385	0.188	0.209	0.230	0.209	0.195	0.310	0.476	0.763	0.915	0.816	0.919	0.942	0.675	0.650	0.596	0.543	0.567	0.744	0.775	0.732	0.619	0.584	0.427	0.357	0.340	0.327	0.272	0.281	0.317	0.324	0.461	0.509	0.736	0.935	0.998	1.063	1.065	1.385	1.643	1.896	1.982	1.869	1.933	1.536	1.185	0.708	0.597	0.377	0.308	0.236	0.168
630.0	249.1	192.3	105.9	51.26	27.95	31.21	52.96	97.88	175.2	280.3	364.4	376.7	291.1	145.0	51.25	23.99	12.85	19.49	139.6	98.91	2.646	0.510	0.375	0.360	0.272	0.316	0.148	0.155	0.188	0.156	0.182	0.281	0.434	0.601	0.704	0.705	0.788	0.643	0.601	0.560	0.576	0.525	0.548	0.551	0.667	0.541	0.576	0.557	0.397	0.325	0.322	0.282	0.229	0.265	0.261	0.276	0.348	0.422	0.518	0.833	0.886	1.035	1.007	1.259	1.517	1.604	1.706	1.599	1.579	1.404	1.195	0.756	0.505	0.360	0.336	0.250	0.157
635.0	231.9	176.2	105.0	42.34	27.56	28.18	47.02	84.88	149.0	238.7	316.7	324.5	246.7	147.7	56.78	26.45	14.59	9.155	42.52	163.7	25.82	0.489	0.286	0.325	0.281	0.217	0.149	0.166	0.172	0.200	0.172	0.170	0.314	0.489	0.688	0.647	0.657	0.488	0.510	0.437	0.457	0.423	0.472	0.437	0.518	0.519	0.484	0.371	0.312	0.318	0.194	0.175	0.217	0.224	0.272	0.285	0.329	0.317	0.432	0.664	0.720	0.922	1.060	1.157	1.374	1.354	1.457	1.449	1.320	1.007	0.947	0.892	0.592	0.304	0.261	0.324	0.246
640.0	202.1	152.2	88.76	42.20	24.47	25.56	41.67	74.29	134.2	209.9	279.4	286.5	220.9	139.0	63.52	28.53	15.19	7.469	12.72	120.2	66.08	1.534	0.300	0.251	0.248	0.203	0.170	0.186	0.175	0.138	0.194	0.136	0.251	0.503	0.569	0.499	0.672	0.547	0.408	0.399	0.461	0.428	0.353	0.380	0.381	0.503	0.471	0.440	0.329	0.290	0.180	0.173	0.215	0.173	0.185	0.204	0.302	0.245	0.403	0.475	0.545	0.825	1.062	1.129	1.181	1.234	1.312	1.255	1.104	0.959	0.951	0.848	0.655	0.335	0.227	0.276	0.238
645.0	177.6	141.9	88.67	40.19	21.39	24.99	38.19	64.79	120.9	185.3	249.5	259.9	196.3	124.6	69.79	28.66	15.53	7.450	5.521	50.11	130.4	9.052	0.428	0.283	0.177	0.215	0.087	0.148	0.144	0.195	0.105	0.160	0.329	0.347	0.491	0.530	0.537	0.463	0.335	0.378	0.315	0.392	0.343	0.383	0.423	0.488	0.417	0.379	0.263	0.209	0.188	0.161	0.189	0.149	0.171	0.174	0.204	0.247	0.384	0.422	0.466	0.680	0.899	0.904	1.014	1.122	1.186	1.099	1.103	0.935	0.849	0.679	0.623	0.557	0.286	0.240	0.201
650.0	174.1	122.7	73.30	36.15	20.27	19.63	33.28	61.13	102.2	165.1	221.5	231.7	174.6	108.0	73.51	31.20	15.42	7.606	3.870	15.34	122.3	41.29	0.591	0.231	0.270	0.179	0.130	0.138	0.141	0.168	0.154	0.143	0.205	0.307	0.537	0.393	0.616	0.395	0.276	0.345	0.283	0.368	0.366	0.373	0.385	0.408	0.351	0.409	0.214	0.217	0.204	0.143	0.154	0.134	0.180	0.151	0.197	0.204	0.270	0.296	0.372	0.620	0.812	0.740	0.920	1.038	1.119	1.091	1.024	0.816	0.664	0.593	0.534	0.566	0.364	0.289	0.177
