Sample:	'1
File name:	G2025062013Ç°¹Ù×¯´å¶«²à¹µÇþ.FD3
Run date:	'13:46:39, 06/24/2025
Operator:	Administrator
Comment:	'

Instrument
Model:	F-2700 FL Spectrophotometer
Serial number:	23B8-004
ROM Version:	4J14000 07

Instrument parameters
Measurement type:	3-D scan
Data mode:	Fluorescence
EX  Start WL:	220.0 nm
EX  End WL:	600.0 nm
EX Sampling interval:	5.0 nm
EM  Start WL:	230.0 nm
EM  End WL:	650.0 nm
EM Sampling interval:	5.0 nm
Scan speed:	12000 nm/min
EX Slit:	5.0 nm
EM Slit:	5.0 nm
PMT Voltage:	700 V
Response:	Auto 
Corrected spectra:	Off
Contour interval:	50.000

Peak integration
Integration method:	Rectangular
Sensitivity:	1
Threshold:	1.000

Peaks
No.	ApexEX/EM(nm)	Height(Data)
1	225.0/345.0	3738
2	230.0/400.0	2433
3	255.0/285.0	557.2
4	260.0/570.0	152.5
5	265.0/585.0	134.2
6	270.0/375.0	1933
7	270.0/600.0	122.3
8	275.0/415.0	3879
9	275.0/435.0	3656
10	275.0/610.0	121.1
11	280.0/345.0	2103
12	280.0/625.0	106.0
13	285.0/640.0	84.96
14	345.0/415.0	2176
15	345.0/435.0	2092
16	455.0/345.0	10.29
17	505.0/275.0	3.040
18	510.0/280.0	3.515
19	520.0/285.0	3.511
20	560.0/415.0	12.95
21	565.0/410.0	12.51
22	570.0/340.0	10.05
23	575.0/345.0	10.23

Data points
	220.0	225.0	230.0	235.0	240.0	245.0	250.0	255.0	260.0	265.0	270.0	275.0	280.0	285.0	290.0	295.0	300.0	305.0	310.0	315.0	320.0	325.0	330.0	335.0	340.0	345.0	350.0	355.0	360.0	365.0	370.0	375.0	380.0	385.0	390.0	395.0	400.0	405.0	410.0	415.0	420.0	425.0	430.0	435.0	440.0	445.0	450.0	455.0	460.0	465.0	470.0	475.0	480.0	485.0	490.0	495.0	500.0	505.0	510.0	515.0	520.0	525.0	530.0	535.0	540.0	545.0	550.0	555.0	560.0	565.0	570.0	575.0	580.0	585.0	590.0	595.0	600.0
230.0	172.0	2714	4347	838.9	30.23	9.515	8.054	7.094	6.405	6.262	5.829	5.697	5.680	4.633	4.001	3.622	3.301	2.971	2.818	2.485	2.341	2.082	1.812	2.064	1.867	1.775	1.681	1.552	1.500	1.500	1.272	1.247	1.132	1.079	0.909	0.859	0.764	0.765	0.676	0.569	0.790	0.868	0.752	0.610	0.507	0.669	3.816	12.28	15.92	9.207	2.854	0.730	0.398	0.376	0.343	0.347	0.329	0.323	0.303	0.340	0.335	0.315	0.320	0.332	0.296	0.324	0.326	0.284	0.310	0.322	0.274	0.300	0.323	0.348	0.307	0.301	0.327
235.0	147.6	788.4	3260	4117	572.1	45.58	11.22	8.149	7.455	6.572	6.679	6.453	5.843	5.249	4.284	3.879	3.617	3.143	2.974	2.579	2.179	2.332	1.949	1.991	1.920	1.753	1.695	1.742	1.419	1.508	1.413	1.295	1.068	1.003	0.992	0.836	0.818	0.709	0.712	0.566	0.630	0.613	0.856	0.798	0.824	0.658	1.277	3.439	7.497	11.71	15.40	14.14	5.862	1.026	0.349	0.371	0.384	0.398	0.277	0.280	0.306	0.397	0.268	0.389	0.326	0.276	0.286	0.311	0.310	0.356	0.400	0.297	0.299	0.276	0.281	0.348	0.310
240.0	190.7	266.3	1101	4290	4228	434.7	24.45	8.836	8.610	7.131	6.581	6.808	6.186	5.102	4.506	3.602	3.381	3.005	2.979	2.343	2.205	2.304	2.199	2.098	2.117	2.009	1.803	1.779	1.582	1.463	1.326	1.283	1.196	1.099	0.995	0.866	0.732	0.703	0.667	0.731	0.608	0.529	0.679	0.818	0.904	0.877	0.735	1.129	2.048	3.876	10.15	22.12	23.85	14.62	4.483	0.652	0.425	0.345	0.334	0.359	0.338	0.358	0.347	0.355	0.300	0.296	0.303	0.287	0.341	0.298	0.368	0.286	0.305	0.344	0.291	0.312	0.324
245.0	155.4	247.4	304.2	1707	5770	3635	319.7	15.42	9.986	7.521	7.602	7.542	6.828	5.535	4.970	3.655	3.384	2.991	3.146	2.612	2.420	2.564	2.219	2.371	2.151	1.752	1.654	1.636	1.642	1.721	1.323	1.252	1.151	1.145	0.859	0.841	0.728	0.769	0.655	0.688	0.506	0.576	0.536	0.611	0.768	0.934	1.071	0.894	0.873	1.172	2.733	8.610	20.33	31.33	24.73	12.84	2.805	0.497	0.358	0.364	0.369	0.365	0.346	0.330	0.291	0.317	0.458	0.264	0.322	0.321	0.330	0.272	0.312	0.344	0.279	0.355	0.360
250.0	76.30	181.5	246.3	451.6	2106	5490	5729	1290	68.57	11.54	10.61	9.336	7.498	6.312	5.495	4.495	4.197	3.543	3.075	2.945	2.706	2.720	2.385	2.333	2.211	1.863	1.855	1.808	1.724	1.702	1.334	1.246	1.204	1.044	0.920	0.867	0.870	0.805	0.688	0.738	0.623	0.685	0.562	0.540	0.690	0.603	0.789	0.916	1.018	0.912	1.047	2.296	5.246	11.26	19.99	29.56	33.98	30.58	12.06	3.342	0.568	0.408	0.465	0.374	0.366	0.341	0.385	0.308	0.382	0.307	0.378	0.296	0.335	0.349	0.313	0.301	0.346
255.0	53.72	72.59	183.3	295.8	538.0	1527	6369	9999.9	1764	70.02	14.04	11.56	8.894	7.654	6.472	5.400	4.399	3.623	3.309	2.982	2.980	2.663	2.499	2.256	2.098	2.101	2.136	1.980	1.811	1.630	1.428	1.316	1.236	1.013	0.943	0.893	0.900	0.779	0.678	0.718	0.696	0.702	0.530	0.633	0.559	0.588	0.625	0.624	0.721	1.005	1.277	1.447	1.773	2.873	4.922	7.519	15.88	40.06	63.58	30.12	18.26	3.302	0.535	0.425	0.447	0.392	0.423	0.364	0.365	0.313	0.384	0.347	0.328	0.372	0.374	0.326	0.334
260.0	47.49	44.83	90.74	270.7	309.8	407.6	2172	9999.9	9999.9	1310	37.66	15.33	11.40	9.603	7.704	6.363	4.735	4.019	3.911	3.373	3.118	2.945	2.604	2.425	2.431	2.249	2.209	1.926	1.955	1.720	1.656	1.446	1.290	1.093	1.010	0.935	0.904	0.778	0.734	0.735	0.647	0.722	0.712	0.666	0.580	0.565	0.559	0.610	0.497	0.650	1.002	1.605	1.687	1.499	1.637	2.172	4.116	11.59	32.82	60.71	82.80	28.58	14.20	1.670	0.540	0.414	0.372	0.361	0.419	0.355	0.381	0.374	0.401	0.345	0.438	0.288	0.340
265.0	54.24	45.35	51.69	155.5	341.5	259.5	566.7	3974	9999.9	9999.9	221.1	24.97	15.55	12.16	9.330	6.822	5.859	4.592	4.490	3.437	3.561	3.154	2.818	2.640	2.506	2.501	2.303	1.768	1.956	1.951	1.646	1.454	1.292	1.137	1.105	1.113	0.937	0.905	0.757	0.737	0.647	0.748	0.706	0.762	0.599	0.573	0.633	0.610	0.500	0.523	0.634	1.046	1.735	1.938	1.428	1.171	1.442	3.194	8.175	19.94	54.03	90.24	94.82	25.57	8.372	0.770	0.444	0.392	0.470	0.477	0.363	0.375	0.419	0.364	0.401	0.374	0.377
270.0	113.6	93.22	74.76	91.30	234.9	395.3	355.0	995.3	4193	9999.9	9999.9	3301	63.78	16.57	12.59	8.952	7.319	5.783	4.873	4.126	3.617	3.335	3.122	2.962	2.758	2.592	2.417	2.096	2.032	2.023	1.918	1.728	1.539	1.403	1.305	1.155	1.023	0.984	0.821	0.866	0.880	0.809	0.821	0.863	0.707	0.775	0.713	0.748	0.621	0.559	0.572	0.723	0.973	1.499	1.997	2.163	1.908	1.712	2.580	5.036	13.24	28.47	56.19	82.27	102.9	81.25	16.70	7.361	0.954	0.594	0.517	0.472	0.533	0.463	0.455	0.434	0.471
275.0	313.4	280.6	187.3	112.9	156.8	301.4	522.9	445.8	1027	2798	9999.9	9999.9	1261	68.69	18.70	13.18	9.799	7.521	6.461	4.795	4.520	3.588	3.244	3.228	3.091	2.963	2.648	2.378	2.277	2.100	2.123	1.923	1.888	1.558	1.571	1.528	1.361	1.255	1.144	1.024	0.960	1.049	1.147	1.116	1.051	1.036	1.070	1.097	0.908	0.745	0.682	0.684	0.860	0.996	1.173	1.757	2.563	3.040	2.417	2.020	3.677	7.062	13.28	19.67	34.90	83.06	148.1	149.1	26.43	8.545	0.936	0.685	0.594	0.616	0.554	0.677	0.512
280.0	515.6	490.6	312.9	161.6	147.9	214.9	435.9	544.9	393.8	745.9	3443	9999.9	9999.9	928.8	41.22	18.49	12.73	9.856	7.445	5.799	5.357	4.034	3.846	3.464	3.287	3.267	2.785	2.591	2.316	2.210	2.084	2.114	1.780	1.726	1.757	1.935	1.747	1.605	1.502	1.339	1.327	1.282	1.279	1.428	1.479	1.574	1.498	1.508	1.378	0.992	0.838	0.824	0.737	0.987	1.063	1.278	1.616	2.673	3.515	2.803	2.056	2.388	3.794	5.220	8.678	21.48	58.17	134.1	181.8	140.2	22.18	3.718	0.772	0.721	0.703	0.576	0.538
285.0	744.2	701.2	460.0	229.2	161.3	193.7	285.3	557.2	377.6	344.6	956.4	4786	9999.9	9022	129.5	28.26	16.95	11.80	8.909	7.068	5.769	5.023	4.255	3.875	3.541	3.362	2.841	2.864	2.620	2.553	2.362	2.159	1.941	1.828	2.077	2.229	2.546	1.854	1.784	1.812	1.683	1.559	1.581	1.708	1.997	2.072	1.938	2.087	1.622	1.287	1.005	1.045	0.946	0.922	1.060	1.240	1.328	1.740	2.438	3.386	3.511	2.384	1.888	2.228	2.974	5.964	14.20	36.74	88.79	175.8	198.8	32.66	16.49	1.808	0.818	0.735	0.761
290.0	983.2	926.2	625.3	328.5	207.3	208.7	243.5	361.5	585.7	596.8	525.2	1382	4849	9999.9	9999.9	2667	48.73	18.58	13.11	9.681	7.512	6.165	5.144	4.548	3.950	3.739	3.284	3.222	2.889	2.646	2.541	2.396	2.124	2.373	2.602	2.791	2.894	2.544	2.239	2.225	2.126	1.978	2.055	2.138	2.311	2.619	2.489	2.604	2.148	1.645	1.328	1.335	1.214	1.067	1.201	1.312	1.338	1.498	1.678	2.009	2.697	3.453	3.717	3.210	2.622	3.040	4.855	9.912	21.76	47.29	86.60	115.1	162.4	125.2	89.50	12.41	2.666
295.0	1166	1103	782.8	416.0	266.8	247.3	266.1	323.6	454.7	837.7	843.1	778.0	1456	2810	9999.9	9999.9	738.5	55.56	19.61	13.15	10.06	7.887	6.181	5.203	4.873	4.421	3.869	3.668	3.291	3.181	2.733	2.745	2.375	2.381	2.807	3.173	3.321	3.066	2.752	2.641	2.369	2.486	2.454	2.558	2.875	2.991	2.815	3.130	2.683	1.939	1.564	1.584	1.419	1.306	1.387	1.326	1.537	1.658	1.697	1.886	2.218	2.364	3.202	4.820	5.118	4.043	3.588	4.572	7.023	12.70	21.08	27.52	43.82	81.49	190.6	235.2	35.88
300.0	1290	1207	901.4	491.2	328.7	306.6	333.8	393.1	503.3	790.2	1239	966.4	876.0	1005	3238	9999.9	9999.9	621.0	39.81	18.92	12.81	9.484	8.012	6.353	5.589	4.639	4.386	4.044	3.428	3.529	2.807	2.737	2.441	2.693	3.001	3.317	3.440	3.374	3.246	2.941	2.521	2.686	2.734	2.942	3.005	3.115	3.231	3.368	3.056	2.295	1.869	1.896	1.629	1.469	1.586	1.724	1.794	1.968	2.062	2.252	2.374	2.621	3.082	4.083	5.451	6.982	5.890	4.714	4.810	5.870	7.332	8.403	11.68	20.74	57.55	141.5	226.3
305.0	1386	1329	1012	591.7	403.3	405.6	446.3	543.6	683.3	913.3	1353	1534	1057	816.1	1120	4308	9999.9	9999.9	462.1	28.00	15.90	12.17	9.317	7.646	6.595	5.257	4.598	4.422	3.751	3.363	3.259	2.805	2.592	2.770	3.239	3.411	3.832	3.814	3.485	3.365	2.974	2.755	3.100	3.242	3.178	3.576	3.446	3.742	3.284	2.435	1.990	2.298	1.863	1.872	1.913	2.132	2.119	2.608	2.778	3.080	3.211	3.387	3.755	4.475	5.146	6.656	8.002	7.159	6.612	5.354	5.211	5.035	5.485	7.393	15.00	35.71	82.78
310.0	1491	1435	1115	686.4	499.2	490.0	562.4	687.2	853.0	1080	1363	1666	1566	1045	802.3	1320	4443	9999.9	9999.9	2100	40.57	17.88	12.74	10.04	7.557	6.200	5.254	4.868	4.219	4.066	3.732	3.119	3.011	2.898	3.228	3.569	3.882	3.950	3.565	3.608	3.307	3.187	3.307	3.271	3.521	3.954	3.663	3.834	3.583	2.826	2.515	2.539	2.140	2.162	2.342	2.290	2.682	2.918	3.199	3.470	3.767	4.225	4.810	5.301	5.716	6.504	7.281	7.986	8.692	7.923	6.967	5.590	5.011	4.928	6.344	10.50	20.83
315.0	1643	1587	1221	803.0	599.5	572.1	657.0	812.3	979.3	1214	1467	1635	1709	1511	929.8	750.1	1328	2626	9999.9	9999.9	3273	46.17	17.94	13.08	9.517	7.934	6.627	5.520	4.918	4.602	3.961	3.306	3.280	3.222	3.215	3.664	3.812	3.896	3.724	3.804	3.556	3.444	3.532	3.644	3.639	4.569	4.089	4.309	3.902	3.064	2.660	2.968	2.466	2.432	2.620	2.643	3.014	3.388	3.638	4.180	4.168	4.523	5.328	5.806	6.267	6.897	7.345	7.571	8.017	8.270	8.966	7.867	6.997	5.159	5.047	5.554	7.327
320.0	1948	1928	1511	930.9	684.1	645.0	743.2	900.0	1071	1341	1582	1739	1716	1679	1150	738.7	713.5	829.6	2866	9999.9	9999.9	489.3	35.48	18.12	12.01	9.445	7.762	6.400	5.516	4.971	4.632	3.802	3.554	3.158	3.417	3.595	4.053	4.081	3.733	3.646	3.569	3.526	3.829	4.179	4.355	5.150	4.871	5.432	4.580	3.583	3.125	3.477	2.710	2.769	2.880	3.080	3.427	3.879	4.096	4.416	4.528	5.018	5.732	6.238	6.825	7.533	7.636	8.141	8.375	8.080	8.814	8.567	8.838	7.120	5.716	4.842	4.959
325.0	2302	2443	2041	1245	814.0	734.8	816.0	980.7	1151	1423	1685	1857	1803	1663	1488	917.8	636.6	475.7	806.8	3546	9999.9	9999.9	403.1	27.33	15.90	11.48	8.957	7.248	5.899	5.439	4.802	3.961	3.439	3.525	3.469	3.776	3.933	4.249	3.992	3.791	3.737	4.069	4.425	4.546	5.059	5.934	6.321	6.632	6.060	4.750	4.079	4.039	3.561	3.400	3.125	3.282	3.862	3.952	4.540	4.739	4.983	5.360	6.276	6.579	7.396	7.865	8.105	8.483	8.619	8.521	8.685	8.684	8.701	9.001	7.822	5.781	4.766
330.0	2680	3105	2732	1846	1145	892.4	918.4	1061	1258	1528	1799	1966	1938	1742	1496	1208	791.3	487.7	414.1	958.1	3733	9999.9	9999.9	1801	36.59	16.78	11.95	9.203	7.368	6.580	5.327	4.542	3.796	3.818	3.653	3.954	3.970	4.340	4.056	3.926	4.136	4.514	4.837	5.063	5.858	6.930	7.379	8.272	8.020	6.516	5.693	5.709	4.662	4.245	3.846	3.710	3.954	4.312	4.844	4.947	5.422	5.779	6.592	6.951	7.727	8.242	8.511	8.762	9.248	9.356	9.390	8.770	8.597	8.457	8.116	7.456	6.800
335.0	3077	3571	3241	2332	1497	1107	1044	1162	1345	1630	1900	2066	2063	1871	1565	1250	1083	678.4	426.6	449.9	997.2	2483	9999.9	9999.9	3002	41.82	17.56	12.34	9.851	7.940	6.464	5.349	4.160	3.984	3.897	3.966	4.291	4.601	4.155	4.389	4.468	4.599	5.314	5.876	6.482	7.936	8.332	9.340	9.218	8.066	6.968	7.034	5.888	5.309	4.549	4.267	4.658	4.910	5.145	5.522	5.573	6.488	6.845	7.640	8.255	8.620	9.137	9.476	9.458	9.668	9.669	9.271	8.752	8.588	8.084	7.637	7.266
340.0	3194	3732	3493	2599	1663	1222	1135	1234	1413	1671	1945	2093	2101	1934	1621	1285	1103	887.0	529.3	392.0	434.3	711.0	2745	9999.9	9999.9	2315	33.24	16.24	11.95	8.750	7.440	5.881	4.967	4.390	4.009	4.032	4.421	4.184	4.307	4.289	4.657	4.772	5.138	5.961	6.751	7.908	8.687	10.04	10.06	8.647	7.674	8.020	6.724	5.919	5.048	4.914	5.179	4.884	5.748	5.554	5.954	6.693	6.999	7.791	8.684	8.791	8.983	9.431	9.899	9.992	10.05	9.580	9.833	8.974	8.263	7.585	7.491
345.0	3244	3738	3565	2749	1796	1336	1188	1288	1458	1686	1919	2080	2103	1944	1664	1318	1075	962.2	688.3	450.5	361.9	359.3	756.4	3369	9999.9	9999.9	379.6	24.07	14.61	10.67	8.145	6.275	5.313	4.573	4.026	4.336	4.395	4.410	4.210	4.500	4.742	4.756	5.349	5.945	6.985	8.133	9.023	10.29	10.11	8.681	7.819	8.549	7.187	6.367	5.451	5.116	5.440	5.322	5.634	5.861	6.032	6.723	7.452	7.875	8.797	8.551	8.925	9.311	9.658	9.848	9.870	10.23	9.755	8.848	8.314	7.902	7.850
350.0	3130	3544	3486	2746	1971	1484	1293	1361	1488	1684	1887	2031	2042	1926	1682	1374	1125	950.3	847.0	649.5	448.8	364.9	381.8	901.5	3559	9999.9	9999.9	1632	33.04	15.09	10.54	7.816	6.033	4.857	4.349	4.495	4.430	4.539	4.443	4.458	4.545	4.772	5.479	5.809	6.828	7.838	8.174	9.570	9.444	8.687	7.866	8.455	7.632	6.798	5.903	5.524	5.623	5.583	5.796	6.171	6.523	6.881	7.439	7.792	8.226	8.600	8.859	9.226	9.304	9.168	9.923	9.396	9.525	9.147	8.645	8.434	7.761
355.0	2883	3320	3296	2702	2043	1613	1450	1444	1576	1714	1891	2003	2002	1891	1694	1427	1209	1016	890.6	841.5	614.9	476.6	386.7	422.2	945.8	2455	9842	9999.9	2817	38.68	14.89	10.31	7.882	5.837	4.942	4.686	4.502	4.361	4.205	4.584	4.594	4.946	5.207	5.582	6.598	7.513	7.900	9.077	9.059	8.290	7.608	8.587	7.791	7.154	6.568	5.981	6.187	6.064	6.511	6.716	7.294	7.291	7.203	7.945	8.320	8.193	8.657	8.958	9.148	9.122	9.565	9.599	9.485	9.275	8.866	8.392	8.029
360.0	2806	3118	3177	2657	2094	1681	1547	1555	1653	1764	1891	1963	1967	1872	1701	1463	1269	1100	961.4	885.9	822.9	589.1	465.3	382.8	416.4	688.9	2640	9999.9	9999.9	2216	30.32	12.99	9.298	6.811	5.531	5.003	5.024	4.519	4.638	4.663	4.667	5.068	5.243	5.486	6.350	7.387	7.456	8.397	8.546	7.965	7.542	8.339	7.917	7.265	6.840	6.675	6.581	6.545	6.718	7.071	7.359	7.792	7.860	7.940	8.369	8.209	8.536	8.612	8.678	9.371	9.177	9.483	9.365	9.113	8.786	8.573	8.515
365.0	2761	3003	3015	2614	2130	1774	1636	1645	1732	1805	1901	1944	1934	1856	1697	1497	1328	1178	1043	940.8	916.1	783.6	559.3	439.0	357.9	341.8	720.6	3309	9999.9	9999.9	352.9	21.70	12.06	7.863	6.308	5.249	4.868	4.945	4.764	4.752	4.628	5.216	5.273	5.487	6.296	7.014	7.065	8.159	8.237	7.628	7.481	8.329	8.045	7.749	7.005	6.884	7.113	6.745	6.811	7.206	7.500	7.924	8.046	8.069	8.008	8.510	8.741	8.609	8.744	9.168	9.035	9.141	9.314	9.230	8.933	8.746	8.340
370.0	2559	2843	2847	2541	2158	1872	1720	1740	1801	1861	1916	1928	1900	1827	1693	1523	1379	1266	1156	1054	981.0	930.2	782.5	575.1	443.4	348.1	354.6	879.7	3509	9999.9	9999.9	1470	29.01	11.74	8.747	6.444	5.634	5.628	5.028	4.960	4.801	5.186	5.202	5.538	6.024	6.425	6.772	7.589	7.942	7.375	7.199	8.358	8.011	7.948	7.146	7.006	7.330	7.423	7.456	7.262	7.800	8.031	8.273	8.591	8.148	8.626	8.439	8.548	8.562	9.151	8.801	9.082	9.213	9.157	9.114	9.093	9.047
375.0	2537	2714	2690	2486	2182	1960	1804	1809	1855	1904	1933	1916	1874	1785	1677	1534	1425	1341	1256	1175	1083	1003	942.8	784.8	579.0	450.4	357.2	397.9	926.2	2465	9826	9999.9	2414	32.58	12.14	8.782	6.957	6.206	5.387	5.195	4.823	5.153	5.324	5.664	5.810	6.243	6.321	7.438	7.426	6.969	7.083	8.036	7.724	7.783	7.538	7.378	7.840	7.808	7.607	7.588	7.830	8.592	8.345	8.454	8.352	8.419	8.347	8.513	8.188	9.439	8.756	9.062	9.173	9.761	9.193	9.323	9.000
380.0	2427	2587	2623	2418	2174	1986	1864	1824	1882	1910	1926	1901	1846	1771	1666	1545	1451	1377	1315	1245	1157	1066	992.5	922.6	712.0	542.2	419.3	348.7	399.7	686.9	2687	9999.9	9999.9	1786	24.41	11.70	8.852	6.994	5.873	5.522	5.212	5.331	5.611	5.432	5.710	6.100	6.358	7.037	7.073	6.564	6.834	7.902	8.085	7.891	7.474	7.383	8.203	7.679	7.782	7.761	8.059	8.405	8.323	8.830	8.777	8.596	8.392	8.683	8.335	8.742	9.091	8.653	9.128	9.464	8.715	9.076	9.105
385.0	2412	2552	2507	2400	2191	2017	1905	1875	1894	1939	1934	1892	1846	1773	1661	1547	1473	1408	1359	1293	1228	1139	1047	984.7	862.8	650.6	494.2	406.8	341.8	339.6	734.9	3296	9999.9	9999.9	283.0	19.83	11.81	8.967	6.463	6.036	5.589	5.599	5.662	5.301	5.807	6.420	6.035	6.816	7.103	6.460	6.753	7.996	7.956	7.924	7.438	7.521	8.001	7.927	7.785	8.053	8.120	8.438	8.658	8.714	8.643	8.528	8.462	8.604	8.722	8.918	8.846	8.585	8.792	9.243	8.923	8.437	9.018
390.0	2354	2490	2439	2366	2204	2056	1956	1946	1962	2001	2018	1976	1929	1830	1719	1585	1506	1449	1403	1358	1315	1251	1166	1082	1011	873.8	688.9	556.6	465.5	380.2	398.1	908.5	3367	9999.9	9999.9	1152	27.94	15.13	9.304	7.092	6.157	6.012	5.839	5.729	5.974	6.412	6.350	6.977	6.875	6.415	6.633	7.901	7.892	8.012	7.658	8.030	8.271	8.264	8.389	8.119	8.136	8.597	8.739	9.004	8.649	8.780	8.340	8.456	8.688	8.865	8.876	8.611	9.053	9.079	9.188	8.948	9.114
395.0	2304	2419	2421	2362	2250	2158	2084	2090	2126	2204	2295	2278	2221	2091	1922	1724	1590	1517	1477	1453	1433	1400	1355	1295	1224	1157	1025	858.6	739.3	629.1	466.0	528.7	994.6	2529	8212	9999.9	1930	35.49	16.06	9.885	7.699	6.722	6.094	6.078	6.339	6.400	6.594	7.134	6.661	6.473	6.592	8.193	8.146	8.359	7.868	8.016	8.420	8.434	8.798	8.881	8.742	8.833	9.017	9.009	9.351	9.110	8.721	9.310	9.398	8.881	9.528	9.323	9.793	9.281	9.508	9.448	9.476
400.0	2278	2362	2433	2337	2287	2220	2219	2239	2336	2523	2692	2721	2630	2469	2228	1928	1718	1603	1561	1553	1563	1573	1569	1544	1501	1439	1375	1220	1065	936.6	784.0	659.9	628.3	862.8	2439	9999.9	9999.9	293.3	30.28	13.33	9.360	7.520	6.599	6.425	6.783	6.421	6.681	7.366	7.278	6.466	6.793	8.169	8.041	8.756	8.547	8.642	9.127	8.793	9.151	9.279	9.258	9.576	9.524	9.840	9.982	10.13	10.03	10.02	10.36	9.767	10.51	9.975	10.16	10.10	9.541	10.05	9.818
405.0	2273	2376	2411	2362	2353	2336	2353	2430	2637	2925	3200	3285	3178	2968	2627	2203	1883	1708	1651	1665	1705	1755	1809	1829	1820	1771	1731	1640	1462	1314	1138	942.4	748.9	659.6	913.9	3283	9999.9	9602	247.5	20.53	11.25	8.845	7.854	6.992	6.624	7.064	6.765	7.379	7.349	6.702	6.862	8.519	8.779	8.959	9.260	9.291	9.779	9.528	9.800	9.761	10.22	10.35	10.51	11.16	10.82	11.01	11.24	10.94	11.10	11.13	11.45	11.22	10.96	10.74	11.11	10.63	10.50
410.0	2321	2329	2382	2384	2400	2424	2479	2636	2894	3317	3696	3834	3727	3422	3003	2472	2025	1791	1726	1755	1830	1919	2019	2093	2123	2105	2055	2007	1873	1697	1496	1250	976.5	772.2	699.5	1116	3279	9127	8985	1054	22.28	11.12	8.770	7.783	7.313	7.368	7.015	7.776	7.547	6.891	6.998	8.886	9.151	9.308	9.552	9.256	10.10	9.961	10.55	10.68	10.59	10.95	11.34	11.79	11.75	12.00	12.20	12.29	12.35	12.51	12.28	12.45	12.02	11.45	11.43	10.89	10.92
415.0	2266	2302	2256	2358	2377	2423	2518	2640	2903	3379	3738	3879	3787	3461	3026	2485	2002	1760	1697	1736	1811	1917	2033	2126	2167	2176	2131	2066	1975	1840	1611	1349	1059	818.6	667.6	643.6	994.9	2278	6314	9999.9	1638	24.43	10.88	8.775	8.115	7.562	7.174	7.650	7.204	6.622	7.127	8.575	8.820	9.166	9.388	9.101	10.26	9.945	10.63	10.90	10.88	11.10	11.44	11.99	12.03	12.01	12.54	12.25	12.95	12.41	12.39	12.23	11.87	11.60	11.24	11.12	10.51
420.0	2189	2240	2233	2279	2306	2355	2475	2585	2852	3262	3601	3741	3626	3327	2886	2385	1929	1686	1630	1667	1745	1849	1960	2059	2111	2122	2078	2010	1913	1818	1602	1322	1043	810.4	644.3	521.5	472.6	645.1	1738	7863	9005	263.8	17.88	9.700	8.512	7.661	7.080	7.610	7.159	6.554	6.948	8.531	8.653	9.102	9.170	8.793	9.919	9.806	10.57	10.47	10.69	11.22	11.03	11.93	11.71	11.58	11.84	11.91	12.00	11.78	11.64	11.79	11.47	11.06	10.88	10.49	10.30
425.0	2123	2206	2177	2172	2248	2294	2438	2538	2797	3169	3478	3616	3487	3216	2804	2295	1865	1627	1579	1604	1682	1792	1909	2004	2062	2068	2031	1972	1869	1785	1611	1321	1044	811.8	643.8	500.3	360.1	284.9	458.7	2354	8733	6878	215.6	12.80	9.109	8.381	7.218	7.210	7.033	6.430	6.876	8.287	8.537	8.932	8.907	8.856	9.776	9.704	10.53	10.40	9.901	10.85	10.71	11.42	11.49	11.25	11.57	11.38	11.77	11.17	11.36	11.44	11.10	10.82	10.17	10.01	9.968
430.0	2367	2067	2095	2126	2233	2311	2453	2590	2823	3187	3511	3645	3522	3232	2798	2280	1839	1597	1538	1569	1650	1757	1887	1997	2068	2090	2066	2018	1919	1826	1674	1420	1117	867.1	695.6	536.9	370.5	226.1	184.8	572.1	2516	6349	6618	956.7	19.54	9.777	7.985	7.703	7.329	6.472	6.692	8.415	8.404	8.791	9.239	9.085	9.955	10.01	10.26	10.59	10.37	10.64	11.06	11.36	11.34	11.26	11.19	11.47	11.44	11.12	11.10	11.27	10.65	10.85	9.986	9.610	9.511
435.0	3394	2056	2066	2087	2224	2334	2504	2634	2849	3195	3529	3656	3557	3231	2792	2270	1810	1560	1499	1528	1606	1720	1854	1979	2052	2092	2081	2051	1960	1871	1705	1482	1199	936.0	745.3	584.8	404.4	235.5	139.0	183.6	596.9	1508	4573	8270	1535	22.84	9.614	8.652	7.651	6.619	6.789	8.288	8.461	8.835	9.284	9.475	10.10	10.29	10.36	10.65	10.85	10.80	10.92	11.47	11.69	11.19	11.29	11.28	11.50	10.93	11.40	10.80	10.79	10.77	10.07	9.664	9.405
440.0	4552	2231	2044	2066	2189	2344	2488	2618	2786	3101	3408	3532	3421	3108	2685	2186	1749	1508	1443	1470	1531	1644	1773	1905	1977	2012	2012	1979	1915	1820	1668	1442	1195	946.0	749.9	589.5	413.0	243.3	138.4	103.9	176.4	367.9	1238	6330	7714	243.9	16.56	9.413	8.157	6.999	6.961	8.198	8.716	8.791	9.089	9.416	9.993	10.12	10.64	10.31	10.45	10.45	10.63	10.83	11.08	11.06	11.11	10.94	10.85	10.91	10.73	10.93	10.31	10.15	10.06	9.274	9.056
445.0	4772	2816	1953	1979	2165	2305	2414	2544	2691	2923	3198	3273	3153	2883	2509	2044	1648	1428	1367	1384	1438	1536	1653	1764	1839	1876	1874	1844	1786	1703	1564	1352	1121	914.6	726.1	566.9	403.2	245.8	143.2	92.61	88.74	117.7	304.7	1886	7365	6126	189.6	12.34	8.776	7.121	6.999	8.432	8.614	8.678	9.226	9.142	10.11	9.821	10.27	10.28	9.869	9.888	10.36	10.51	10.21	10.27	10.60	10.53	9.805	10.25	10.24	10.38	9.742	9.339	9.728	8.755	8.373
450.0	3538	4236	2075	1857	2015	2169	2310	2405	2475	2611	2814	2875	2753	2525	2195	1808	1485	1297	1244	1243	1282	1364	1458	1556	1615	1639	1648	1622	1579	1503	1383	1198	988.2	818.4	676.1	522.4	375.9	240.0	147.6	98.53	76.39	68.27	100.7	447.1	2104	5465	5956	870.0	16.68	8.052	7.102	8.318	8.147	8.588	8.681	8.767	9.722	9.608	9.984	9.778	9.704	9.523	9.913	9.628	9.422	9.545	9.210	9.291	9.113	9.317	9.215	9.322	8.778	8.518	8.407	8.014	7.937
455.0	2151	4391	3138	1729	1869	2053	2163	2245	2239	2334	2470	2510	2399	2206	1920	1590	1315	1152	1107	1108	1130	1188	1272	1358	1408	1425	1442	1421	1377	1316	1221	1059	879.0	722.9	611.6	494.2	353.3	232.7	152.5	106.5	80.00	64.32	59.69	128.7	491.6	1287	3580	6782	1296	17.74	7.615	8.191	7.917	8.350	8.095	8.186	9.167	8.911	9.540	9.193	9.002	9.056	8.700	8.657	8.639	8.802	8.592	8.095	8.140	8.174	8.040	8.107	7.891	7.527	7.235	7.323	7.124
460.0	1569	3345	4329	1832	1743	1942	2065	2118	2082	2147	2260	2276	2178	2010	1751	1453	1207	1062	1024	1011	1025	1084	1149	1225	1276	1294	1300	1293	1257	1203	1123	977.8	816.3	669.2	564.5	471.7	351.2	230.4	155.4	111.5	85.71	67.29	53.93	60.37	135.0	307.7	924.4	4668	6034	930.7	14.45	8.813	7.815	8.418	7.831	8.091	8.520	8.871	8.898	8.981	8.209	8.407	7.921	8.177	8.081	8.198	8.001	7.326	7.696	7.831	7.668	7.295	7.372	7.046	6.541	6.930	6.671
465.0	1383	2160	4771	2414	1653	1809	1936	1991	1952	1990	2075	2102	1998	1848	1599	1335	1113	989.7	934.8	927.8	942.1	985.7	1051	1115	1163	1179	1185	1186	1159	1112	1035	908.8	757.5	629.8	526.8	444.2	345.5	231.9	158.0	116.0	89.12	69.30	55.54	48.32	57.74	91.23	225.1	1317	5356	4902	165.6	12.27	8.382	8.211	7.750	7.915	8.466	8.351	8.196	8.497	7.964	7.767	7.898	7.586	7.486	7.511	7.495	7.414	7.119	7.281	7.064	7.040	6.601	6.653	6.457	6.030	6.295
470.0	1258	1475	3328	3950	1748	1614	1737	1779	1745	1761	1816	1833	1739	1601	1398	1167	983.9	868.6	831.0	814.7	823.3	858.7	903.3	964.5	1006	1021	1028	1026	1005	967.4	904.0	801.9	671.6	563.5	473.3	394.4	314.7	230.9	158.1	117.5	91.74	73.42	59.26	49.07	43.67	44.97	70.85	310.7	1472	3752	4142	831.2	17.73	8.247	7.839	7.799	7.952	7.883	7.683	7.669	7.249	7.105	6.838	6.713	6.617	6.465	6.693	6.605	6.484	6.481	6.121	6.420	5.994	5.817	5.704	5.763	5.761
475.0	1197	1189	1706	4209	2763	1478	1542	1577	1516	1504	1548	1545	1469	1347	1178	997.8	837.5	746.5	717.9	697.7	699.8	719.1	756.0	806.7	838.6	853.4	854.2	854.1	840.0	815.5	764.2	682.2	572.8	485.3	409.6	343.6	273.9	211.6	159.8	118.5	94.03	76.00	62.24	51.41	42.92	36.47	37.41	86.97	341.9	862.9	2025	4439	1301	21.52	7.965	7.264	7.566	7.285	6.851	6.772	7.022	6.414	6.160	5.951	5.903	5.489	5.640	5.715	5.494	5.434	5.060	5.196	5.279	4.974	5.072	4.787	5.135
480.0	1038	1072	1168	3050	4043	1526	1398	1425	1362	1338	1366	1352	1287	1179	1034	876.9	745.5	670.2	643.3	622.3	616.8	635.0	664.6	700.4	730.6	742.9	743.3	747.6	733.7	707.9	667.1	596.9	507.7	427.6	370.0	308.9	247.6	192.1	157.4	120.8	94.88	77.35	63.63	53.54	43.00	36.09	30.95	38.31	91.54	204.9	497.5	2483	4372	1101	17.14	7.612	7.069	6.892	6.655	6.241	6.229	5.547	5.763	5.549	5.037	5.019	5.114	5.064	5.158	5.018	4.788	4.708	4.800	4.572	4.454	4.447	4.488
485.0	944.2	991.1	980.2	1805	4602	2134	1291	1305	1252	1222	1227	1217	1139	1047	926.3	783.0	672.5	607.7	581.0	562.6	554.2	566.9	593.1	620.9	644.5	657.3	658.9	660.2	647.0	629.8	593.8	534.3	458.3	389.3	336.4	283.1	230.2	178.6	148.0	125.1	97.86	77.37	65.14	54.84	45.14	37.43	31.56	28.60	37.12	59.33	122.7	652.4	3216	4048	205.7	12.59	7.441	6.644	6.740	6.074	5.717	5.420	5.432	5.274	4.718	4.676	4.639	4.764	4.572	4.564	4.620	4.513	4.205	4.336	4.191	4.258	4.151
490.0	865.9	923.5	872.2	1109	3196	3883	1430	1170	1116	1078	1084	1060	1000	909.9	804.1	682.4	596.1	536.4	508.8	494.9	488.0	494.9	513.6	537.8	557.2	565.1	570.0	566.0	559.4	546.7	516.5	465.6	403.5	345.2	300.5	257.4	209.4	165.5	135.3	118.9	102.8	81.43	66.51	55.85	47.01	39.73	34.31	28.87	26.57	28.00	39.88	156.6	830.9	2429	3389	948.9	19.81	7.161	6.522	5.808	5.415	5.153	4.955	4.701	4.457	4.410	4.376	4.357	4.184	4.121	4.191	4.124	3.825	3.778	3.675	3.672	3.724
495.0	723.5	824.9	814.2	842.5	1514	4347	2598	1058	965.9	944.0	939.6	914.4	864.2	786.7	693.6	601.2	517.7	468.2	441.4	432.5	419.4	426.7	442.3	460.3	477.2	482.3	487.6	486.1	480.3	473.7	446.1	406.3	351.2	302.4	265.2	229.8	190.9	152.2	126.1	108.7	99.43	86.76	68.33	56.09	47.58	41.39	35.58	30.43	25.53	22.05	22.56	46.86	194.9	554.6	1510	3915	1616	25.63	6.894	5.649	5.386	4.798	4.714	4.131	4.061	4.004	3.807	3.757	3.697	3.905	3.493	3.636	3.387	3.466	3.364	3.375	3.387
500.0	679.1	728.2	742.2	752.5	924.0	3098	3867	1134	879.4	846.3	843.0	814.8	768.7	697.5	616.4	531.4	463.8	419.3	398.5	384.3	375.2	373.9	390.0	405.9	417.4	424.4	431.4	425.4	426.3	417.6	395.1	359.3	316.4	271.7	240.6	210.1	175.8	143.5	118.7	103.1	91.07	85.73	71.15	57.81	48.55	42.63	35.88	31.07	26.32	21.96	19.51	22.78	54.08	133.1	362.1	1904	4154	1325	20.40	6.134	5.051	4.568	4.471	3.799	3.864	3.662	3.311	3.438	3.253	3.499	3.205	3.139	3.181	3.139	3.099	2.996	3.196
505.0	606.3	639.6	695.1	670.1	726.2	1666	4860	1812	792.3	760.5	746.4	736.5	685.1	614.1	552.7	475.3	413.8	374.0	353.6	344.1	331.1	334.1	346.2	358.6	371.0	376.0	378.7	376.7	375.9	368.6	350.7	319.6	282.6	245.2	217.4	191.2	160.5	131.8	111.8	96.10	84.63	79.33	72.27	58.94	48.28	42.73	36.13	31.55	26.79	22.73	18.95	17.72	22.88	39.04	89.89	471.5	2417	3838	239.1	14.38	5.100	4.459	4.070	3.732	3.637	3.415	3.245	2.972	3.220	3.026	2.797	2.893	2.902	2.794	2.802	2.603	2.713
510.0	500.8	544.1	598.0	613.9	621.1	882.3	3281	3791	965.9	657.8	639.9	625.5	580.7	525.6	466.3	404.0	353.8	318.2	304.0	293.6	283.5	284.3	291.4	302.2	311.5	313.4	317.8	315.2	315.2	309.8	297.0	270.4	241.7	211.3	187.8	164.2	141.9	118.4	100.8	87.45	77.38	69.85	66.94	59.63	48.85	41.25	35.44	30.83	26.81	22.78	19.33	16.86	16.33	18.90	29.02	113.5	592.9	1895	2708	1020	19.56	4.833	4.147	3.612	3.351	3.109	2.833	2.804	2.916	2.667	2.565	2.586	2.729	2.572	2.377	2.350	2.331
515.0	437.6	465.3	474.2	544.1	554.5	608.3	1320	4738	2204	579.6	537.8	528.4	491.4	443.4	385.2	339.9	294.2	270.7	256.9	245.5	235.1	235.4	241.6	251.1	255.9	258.8	259.9	258.4	257.5	254.7	244.2	225.9	201.4	177.5	159.2	139.8	123.5	105.0	90.80	78.39	70.02	62.67	57.98	55.19	50.60	41.37	34.07	29.47	26.22	22.23	19.18	17.10	14.57	13.80	14.92	33.43	139.1	429.3	940.7	2720	1599	27.23	4.635	3.574	3.018	2.894	2.520	2.554	2.604	2.504	2.351	2.271	2.318	2.173	2.277	2.208	1.965
520.0	397.8	388.8	411.1	483.2	507.7	498.7	689.4	3320	4318	716.4	478.2	459.4	423.5	388.4	339.1	294.4	259.9	236.9	227.2	214.2	207.2	205.5	209.2	217.2	224.3	222.7	222.9	223.9	223.3	220.5	208.6	194.8	174.3	155.2	140.3	123.8	108.1	94.45	82.06	72.17	64.75	58.49	52.09	50.17	48.71	41.38	32.88	28.56	24.78	22.07	18.88	16.86	14.42	12.78	12.34	15.29	37.84	101.8	219.9	1135	2907	1234	21.49	3.614	3.067	2.835	2.428	2.513	2.380	2.077	2.219	2.008	2.043	2.030	2.131	1.893	1.846
525.0	356.4	354.2	367.0	413.8	473.2	442.9	504.1	1578	5574	1539	425.3	412.3	370.7	344.2	300.4	260.4	226.9	210.2	197.8	192.2	185.2	180.1	186.0	191.6	194.0	197.7	195.4	195.5	193.2	194.5	182.9	170.0	154.2	138.9	124.6	111.5	97.85	84.90	75.39	66.09	59.77	54.25	48.48	45.15	44.63	40.80	33.60	27.42	23.52	20.89	18.37	16.26	14.62	12.65	11.63	11.14	15.22	28.66	54.86	271.1	1435	2704	247.6	14.33	3.291	2.826	2.356	2.226	2.093	2.176	2.176	1.748	1.922	1.718	1.565	1.782	1.649
530.0	310.9	304.7	310.4	335.8	416.6	405.0	403.0	674.1	3659	4355	665.4	349.0	317.7	286.5	252.1	220.7	194.8	179.8	170.5	163.1	156.5	153.8	155.1	160.0	162.3	162.1	162.8	163.0	161.3	161.5	155.7	144.2	129.8	117.1	106.0	96.27	84.42	74.07	66.64	58.97	52.91	48.63	43.87	40.11	38.52	37.46	33.69	27.25	22.93	19.67	17.34	15.28	13.45	12.45	11.01	9.931	9.974	12.12	17.42	65.21	341.2	1163	1677	981.2	19.70	3.401	2.424	2.047	2.003	1.872	1.802	1.658	1.726	1.599	1.607	1.512	1.634
535.0	254.1	258.7	269.6	276.6	317.8	371.5	330.5	393.4	1238	5491	1828	313.2	269.8	240.9	212.0	184.5	163.3	153.7	143.3	137.3	130.8	127.6	129.2	132.0	134.4	134.2	133.4	134.1	133.4	133.5	129.1	119.0	108.1	98.80	87.90	81.44	72.35	63.04	57.99	51.38	47.34	42.18	39.40	35.42	32.99	31.33	30.93	27.56	22.16	17.96	16.00	14.48	12.62	11.66	10.47	9.488	8.576	7.786	8.952	18.68	80.03	262.9	525.1	1755	1365	27.61	2.815	2.186	1.893	1.697	1.508	1.445	1.630	1.506	1.447	1.441	1.514
540.0	223.5	231.1	226.9	235.6	261.2	335.1	305.8	306.9	494.7	3574	4725	446.1	237.8	210.5	185.1	158.4	141.2	133.9	125.1	119.9	114.2	110.1	110.9	114.4	114.9	115.9	115.4	114.4	113.3	115.8	111.7	103.6	93.40	84.67	77.43	70.26	63.82	56.92	50.59	45.63	42.37	37.69	35.25	32.02	29.26	27.27	26.86	25.65	22.32	17.34	14.99	13.34	11.70	11.20	9.478	9.133	7.867	6.896	6.894	8.453	21.52	62.03	121.6	657.3	1947	960.5	20.92	2.388	1.887	1.666	1.527	1.397	1.510	1.322	1.281	1.264	1.307
545.0	222.0	224.2	218.0	216.4	221.9	288.8	296.2	261.4	303.3	1474	6235	1172	212.4	186.1	163.1	139.8	124.1	114.3	108.7	104.3	100.2	96.54	97.46	99.63	100.4	98.51	99.10	99.71	98.98	100.4	95.42	90.54	81.13	74.26	67.22	61.12	56.43	50.26	45.30	41.15	37.58	33.98	31.36	29.05	26.52	25.27	22.98	23.75	21.20	16.87	13.99	12.72	11.16	10.02	9.217	8.486	7.875	6.713	5.987	5.744	8.153	16.87	30.17	154.1	865.1	1823	249.4	12.28	1.960	1.666	1.467	1.391	1.284	1.268	1.093	1.145	1.244
550.0	203.7	201.2	193.1	180.2	186.8	218.1	269.3	226.3	219.9	502.8	3832	4223	358.0	155.9	134.2	117.3	104.0	96.30	90.36	84.64	81.13	79.53	80.64	80.36	81.03	80.75	81.24	80.65	80.26	80.81	77.10	73.86	66.56	61.35	55.75	51.09	46.38	41.81	38.61	34.43	32.26	29.18	27.24	24.62	22.71	21.72	19.70	19.30	18.61	16.48	13.32	11.25	9.912	8.845	8.290	7.542	7.169	6.376	5.380	4.848	4.818	6.630	9.429	36.82	202.9	735.6	1180	683.5	18.49	2.255	1.488	1.387	1.256	1.116	0.988	0.941	1.067
555.0	198.9	172.8	165.9	157.6	149.3	163.6	221.2	222.4	175.7	240.3	1133	5659	1290	137.5	108.7	94.16	86.07	77.16	72.10	68.37	66.55	63.03	63.84	64.88	64.37	64.31	63.27	63.69	63.65	63.53	61.43	58.43	52.85	49.37	44.51	41.08	37.45	34.05	31.97	28.29	26.65	24.87	22.54	21.21	19.30	17.96	16.86	15.41	14.46	14.96	12.88	10.12	8.797	7.647	7.495	6.758	6.091	5.638	5.287	4.399	3.813	3.936	4.445	10.41	47.19	166.0	354.7	1096	853.0	25.97	1.841	1.409	1.227	1.177	1.019	0.863	0.844
560.0	191.8	167.7	154.9	138.0	127.8	137.0	173.4	211.2	157.8	159.6	368.6	3625	4095	167.2	92.32	80.30	71.76	64.47	60.45	56.86	54.49	51.02	53.48	53.51	53.53	53.56	53.61	53.51	52.48	52.71	51.22	47.68	43.60	40.11	37.78	34.45	31.05	28.73	26.41	24.61	22.65	20.89	19.14	17.92	17.56	16.00	14.52	13.38	12.17	12.33	11.71	9.547	7.721	6.878	6.290	6.207	5.482	4.856	5.033	4.146	3.418	3.227	3.057	4.247	12.33	38.85	82.00	401.0	1173	265.6	18.18	1.466	1.164	1.174	0.928	0.847	0.796
565.0	177.8	168.1	149.0	121.0	112.1	113.9	138.3	187.4	150.7	131.3	181.6	1383	5851	747.4	80.89	69.98	59.24	55.75	51.22	48.19	46.23	44.57	45.29	44.87	45.16	44.71	44.85	44.94	43.67	44.07	42.56	40.90	37.06	34.69	32.08	29.47	27.10	23.98	22.40	21.47	19.34	17.93	16.76	15.46	15.23	13.83	13.10	11.39	10.69	10.24	10.34	9.341	7.374	6.230	5.649	5.477	5.017	4.308	4.292	3.908	3.299	3.211	2.788	2.933	4.525	10.42	19.91	93.81	506.3	1006	233.8	8.964	1.322	1.105	0.931	0.928	0.837
570.0	167.6	160.7	132.0	102.6	96.62	93.98	105.8	147.6	152.5	113.9	123.1	410.3	3665	3494	188.7	58.50	48.90	45.47	42.22	38.68	37.30	36.74	36.39	36.04	36.45	36.27	34.91	35.41	34.89	35.35	34.25	32.70	29.39	27.06	25.44	23.63	21.81	20.10	18.15	17.14	16.06	14.48	13.89	12.98	12.64	11.34	10.59	9.674	8.824	7.969	7.979	7.917	6.914	5.648	4.865	4.612	4.191	3.764	3.647	3.379	3.286	2.779	2.507	2.414	2.645	3.993	5.960	22.45	118.6	409.2	695.4	423.5	16.71	1.396	0.999	0.902	0.750
575.0	162.1	148.5	122.5	90.28	74.05	82.05	85.81	105.1	148.9	108.4	101.1	161.9	1041	4873	896.0	51.21	39.70	35.93	34.22	32.00	29.43	28.54	29.13	28.41	27.84	28.68	28.60	27.70	28.01	28.45	26.57	25.00	22.83	21.79	20.47	19.05	17.82	16.42	15.35	13.70	13.07	12.17	11.34	10.60	10.14	9.268	8.928	7.928	7.299	6.425	6.120	6.239	6.194	5.409	4.709	3.847	3.709	3.213	3.140	2.769	2.853	2.867	2.360	1.907	2.115	2.342	2.616	6.231	27.73	92.55	203.0	625.2	505.2	23.26	1.137	0.822	0.771
580.0	170.1	148.0	110.2	87.12	70.40	69.82	72.32	79.66	130.8	120.1	90.99	104.2	301.1	3157	3228	89.61	34.99	30.56	28.63	27.23	25.46	24.41	24.40	23.75	23.64	23.03	24.47	23.14	23.80	23.58	21.89	21.07	19.49	18.13	17.08	16.17	14.71	14.22	12.54	12.20	11.01	10.26	9.397	9.250	8.666	7.893	7.430	6.927	6.215	5.729	5.059	5.000	5.159	4.941	4.407	3.514	3.388	3.069	2.810	2.581	2.471	2.521	2.409	1.835	1.851	1.891	1.901	2.643	7.530	21.79	46.85	225.1	677.7	249.1	14.96	0.955	0.769
585.0	168.3	139.4	109.9	78.50	63.87	62.26	66.68	70.85	108.2	134.2	92.64	87.90	123.6	1179	4693	451.0	32.35	27.01	25.68	22.90	22.24	21.18	20.82	20.22	19.90	20.02	19.88	19.77	19.60	19.81	19.03	18.17	16.66	16.07	14.47	13.67	12.81	12.25	10.77	10.34	9.209	9.060	8.228	7.959	7.616	6.976	6.552	5.793	5.563	4.917	4.269	4.353	4.193	4.545	4.107	3.341	3.005	2.801	2.447	2.382	2.198	2.328	2.373	2.024	1.762	1.663	1.609	1.754	2.828	5.969	11.58	52.67	286.3	608.5	199.3	6.231	0.923
590.0	145.1	134.8	103.4	70.23	57.93	54.88	60.68	61.18	77.31	125.4	101.5	82.10	81.27	324.3	2933	2454	64.03	23.54	21.26	19.22	17.85	17.89	17.19	16.66	16.80	16.75	15.68	16.00	16.06	16.28	15.82	14.85	13.81	13.15	11.62	11.14	10.59	9.686	8.741	8.441	7.790	7.459	6.957	6.654	6.497	6.011	5.450	5.074	4.651	4.145	3.646	3.507	3.363	3.584	3.636	3.153	2.736	2.333	2.194	2.006	1.864	1.932	1.889	1.901	1.695	1.544	1.410	1.559	1.736	2.263	3.509	12.73	66.95	240.3	421.9	220.7	15.88
595.0	137.4	119.5	94.72	65.23	50.09	46.09	50.27	55.79	61.82	98.96	116.5	78.98	71.02	111.7	811.8	3625	595.3	21.77	17.27	16.10	14.42	14.80	14.03	13.80	13.45	12.91	12.99	12.74	12.78	13.03	12.50	11.54	10.90	9.983	9.411	9.152	8.852	7.800	6.877	7.131	6.024	6.380	5.771	5.251	5.199	4.994	4.628	4.090	3.887	3.478	3.224	2.947	2.779	2.770	3.060	2.778	2.641	2.214	1.789	1.714	1.559	1.652	1.535	1.710	1.678	1.470	1.312	1.266	1.283	1.418	1.575	3.652	15.77	54.25	120.0	353.9	259.3
600.0	135.0	121.5	93.76	62.52	50.63	45.80	50.71	49.86	58.40	76.92	122.3	82.39	67.33	61.97	217.6	2458	2098	45.02	15.69	13.43	12.73	12.19	12.25	11.66	11.16	11.16	10.79	10.86	11.01	10.63	10.90	9.906	9.190	8.946	8.087	7.799	7.064	6.615	6.088	6.169	5.319	5.147	4.955	4.743	4.408	4.125	3.926	3.653	3.245	2.873	2.771	2.498	2.226	2.355	2.475	2.526	2.522	2.154	1.726	1.650	1.446	1.528	1.285	1.581	1.548	1.638	1.348	1.206	1.077	1.124	1.165	1.528	4.172	12.74	27.59	126.8	384.5
605.0	121.3	112.5	87.65	62.36	45.79	43.77	46.64	49.72	58.57	74.03	116.4	98.80	67.66	56.59	79.88	943.4	3250	240.6	15.45	12.67	11.62	11.04	10.36	10.34	9.623	9.666	9.461	9.438	9.241	9.260	9.621	8.260	7.899	7.745	6.912	6.636	6.260	5.902	5.496	5.138	4.580	4.539	4.116	4.048	3.851	3.457	3.308	3.233	2.740	2.474	2.414	2.321	2.182	2.031	2.155	2.101	2.286	2.147	1.679	1.405	1.345	1.355	1.251	1.434	1.372	1.487	1.386	1.197	0.967	1.127	1.049	1.204	1.628	3.450	6.741	29.65	161.4
610.0	114.1	112.1	82.07	56.20	44.27	40.19	48.14	53.12	62.27	74.37	104.4	121.1	79.69	60.69	52.79	254.2	2240	1431	37.26	11.17	9.745	9.360	8.536	8.301	8.214	8.148	7.908	7.883	7.475	7.561	7.444	6.763	6.593	6.218	5.674	5.595	5.276	4.921	4.352	4.198	3.906	3.782	3.437	3.407	3.044	3.093	2.711	2.772	2.264	2.275	1.947	1.965	1.936	1.758	1.560	1.621	1.784	1.981	1.630	1.360	1.205	1.253	1.210	1.210	1.135	1.329	1.321	1.339	1.017	1.024	1.008	0.925	0.959	1.380	2.082	7.162	37.72
615.0	109.7	102.0	81.09	53.83	42.05	40.78	44.81	52.39	61.25	73.17	89.73	119.6	90.19	63.06	45.89	81.84	653.6	2640	387.2	10.06	8.663	8.107	7.284	6.842	6.926	6.124	6.276	6.417	6.237	6.285	6.274	5.679	5.445	4.965	4.576	4.499	4.167	3.885	3.657	3.354	3.287	2.964	2.730	2.593	2.631	2.602	2.340	2.092	2.066	1.871	1.632	1.646	1.349	1.532	1.485	1.359	1.514	1.614	1.554	1.417	1.140	1.119	1.061	1.139	0.984	1.126	1.132	1.209	1.167	1.075	0.946	0.886	0.784	0.990	1.025	2.116	8.960
620.0	110.3	96.74	79.00	50.24	39.35	39.28	42.62	50.42	58.47	70.99	82.96	106.4	101.6	62.22	44.55	42.06	176.6	1987	1373	19.38	7.892	7.562	6.754	5.921	5.728	5.743	5.398	5.138	5.089	5.607	4.927	4.772	4.417	4.277	4.047	3.755	3.690	3.370	3.058	2.941	2.776	2.554	2.599	2.202	2.191	2.132	1.977	1.765	1.768	1.630	1.460	1.486	1.236	1.281	1.287	1.134	1.334	1.286	1.559	1.326	1.020	0.965	1.081	1.028	1.026	0.969	1.029	1.047	1.117	1.126	0.924	0.852	0.789	0.918	0.682	0.986	2.440
625.0	92.75	96.55	70.47	58.38	38.88	38.11	40.68	48.79	55.75	66.88	78.56	91.99	106.0	65.97	45.03	33.21	59.74	841.1	2356	68.53	7.567	6.486	6.240	5.403	5.205	4.823	4.813	4.912	4.591	4.812	4.575	4.266	3.788	3.749	3.463	3.450	3.215	2.836	2.977	2.821	2.309	2.302	2.304	1.975	1.908	1.979	1.788	1.622	1.528	1.402	1.216	1.340	1.107	1.197	1.244	1.116	1.058	1.102	1.323	1.270	1.128	1.038	0.941	0.959	0.882	1.048	0.860	0.891	1.118	1.191	0.922	0.776	0.833	0.744	0.638	0.706	1.000
630.0	99.30	86.58	65.01	48.79	37.70	35.51	38.63	44.47	53.32	63.52	77.12	84.76	97.55	74.52	44.97	30.87	32.61	220.4	1821	997.3	19.35	6.085	5.468	4.805	4.482	4.341	4.150	4.233	3.878	4.025	3.665	3.422	3.306	3.235	2.943	2.663	2.645	2.439	2.510	2.466	2.048	1.969	1.891	1.654	1.600	1.591	1.478	1.427	1.418	1.154	1.112	1.006	1.042	1.034	0.975	0.977	0.883	0.943	0.972	1.102	1.094	0.908	0.962	0.897	0.755	0.886	0.806	0.807	0.960	1.045	0.949	0.775	0.760	0.661	0.649	0.613	0.712
635.0	93.47	82.63	72.24	45.94	37.25	36.19	39.29	45.15	51.11	59.24	73.69	80.89	84.57	83.21	47.86	32.11	27.46	61.63	562.4	2028	223.5	6.239	4.959	4.464	4.152	3.709	3.408	3.445	3.304	3.289	3.075	3.003	2.452	2.599	2.479	2.532	2.363	2.126	2.041	1.878	1.773	1.875	1.592	1.482	1.451	1.413	1.244	1.212	1.086	0.957	0.866	0.922	0.919	0.794	0.784	0.752	0.921	0.858	0.863	0.942	0.981	0.957	0.902	0.774	0.832	0.780	0.805	0.865	0.778	0.864	0.797	0.871	0.699	0.639	0.714	0.578	0.524
640.0	90.85	83.40	71.19	46.99	36.75	32.95	38.42	43.62	50.15	60.43	74.63	77.67	78.18	84.96	52.66	31.99	25.81	27.31	144.4	1680	569.6	10.37	4.700	4.189	3.670	3.332	2.881	3.286	2.979	2.948	2.464	2.747	2.337	2.330	2.242	2.211	2.019	1.769	1.770	1.723	1.572	1.728	1.275	1.217	1.138	1.226	1.131	1.025	1.007	0.888	0.847	0.807	0.859	0.766	0.848	0.718	0.819	0.735	0.826	0.830	0.895	0.890	0.894	0.749	0.838	0.827	0.769	0.820	0.727	0.749	0.741	0.843	0.799	0.630	0.646	0.625	0.567
645.0	99.28	95.44	77.33	46.64	34.83	33.48	37.18	40.69	49.19	61.37	73.59	75.72	72.19	77.89	58.35	33.39	26.13	18.88	41.52	779.9	1628	47.24	4.535	3.624	3.290	3.063	3.008	2.959	2.741	2.744	2.324	2.421	2.098	2.098	1.844	1.930	1.661	1.669	1.562	1.631	1.365	1.433	1.210	1.301	0.989	1.141	1.100	1.076	0.905	0.765	0.768	0.805	0.755	0.716	0.692	0.652	0.675	0.713	0.671	0.654	0.707	0.813	0.884	0.781	0.827	0.825	0.718	0.710	0.832	0.633	0.742	0.741	0.847	0.652	0.633	0.558	0.461
650.0	105.9	103.5	78.87	55.06	38.82	32.52	38.66	41.96	50.56	61.47	71.89	76.15	75.09	71.59	64.17	36.14	25.83	17.03	17.89	227.2	1808	361.6	5.359	3.673	3.355	2.907	2.866	2.731	2.585	2.455	2.211	2.213	1.843	2.049	1.829	1.761	1.551	1.564	1.525	1.399	1.147	1.324	1.238	1.195	1.054	1.003	1.073	1.023	0.838	0.741	0.696	0.802	0.698	0.660	0.653	0.622	0.592	0.776	0.630	0.666	0.727	0.678	0.734	0.740	0.779	0.695	0.802	0.765	0.702	0.657	0.693	0.704	0.766	0.780	0.638	0.522	0.516
