Sample:	'1
File name:	Default_20230830_171044.FD3
Run date:	'17:04:23, 08/30/2023
Operator:	dsjg
Comment:	'

Instrument
Model:	F-2700 FL Spectrophotometer
Serial number:	2198-001
ROM Version:	4J14000 07

Instrument parameters
Measurement type:	3-D scan
Data mode:	Fluorescence
EX  Start WL:	220.0 nm
EX  End WL:	600.0 nm
EX Sampling interval:	5.0 nm
EM  Start WL:	230.0 nm
EM  End WL:	650.0 nm
EM Sampling interval:	5.0 nm
Scan speed:	12000 nm/min
EX Slit:	5.0 nm
EM Slit:	5.0 nm
PMT Voltage:	700 V
Response:	Auto 
Corrected spectra:	Off
Contour interval:	50.000

Peak integration
Integration method:	Rectangular
Sensitivity:	1
Threshold:	1.000

Peaks
No.	ApexEX/EM(nm)	Height(Data)
1	225.0/340.0	543.0
2	230.0/345.0	570.4
3	230.0/505.0	122.3
4	235.0/380.0	539.6
5	235.0/515.0	104.6
6	240.0/265.0	148.9
7	240.0/385.0	552.3
8	245.0/270.0	133.8
9	245.0/540.0	71.01
10	250.0/275.0	158.9
11	250.0/550.0	59.40
12	255.0/285.0	157.6
13	255.0/560.0	47.46
14	260.0/290.0	154.3
15	265.0/295.0	178.6
16	265.0/585.0	29.84
17	270.0/600.0	24.52
18	275.0/610.0	26.36
19	280.0/340.0	317.0
20	280.0/385.0	591.4
21	280.0/405.0	642.2
22	280.0/620.0	23.80
23	285.0/320.0	356.0
24	285.0/630.0	19.40
25	290.0/325.0	335.2
26	310.0/350.0	166.0
27	315.0/355.0	158.5
28	320.0/360.0	165.8
29	325.0/370.0	155.2
30	335.0/380.0	225.4
31	340.0/385.0	234.4
32	355.0/385.0	283.8
33	355.0/405.0	392.9
34	375.0/405.0	387.2
35	375.0/430.0	285.7
36	430.0/505.0	16.13
37	445.0/525.0	9.999
38	460.0/545.0	5.752
39	535.0/270.0	9.526
40	565.0/405.0	4.799
41	575.0/320.0	3.087
42	585.0/325.0	3.123

Data points
	220.0	225.0	230.0	235.0	240.0	245.0	250.0	255.0	260.0	265.0	270.0	275.0	280.0	285.0	290.0	295.0	300.0	305.0	310.0	315.0	320.0	325.0	330.0	335.0	340.0	345.0	350.0	355.0	360.0	365.0	370.0	375.0	380.0	385.0	390.0	395.0	400.0	405.0	410.0	415.0	420.0	425.0	430.0	435.0	440.0	445.0	450.0	455.0	460.0	465.0	470.0	475.0	480.0	485.0	490.0	495.0	500.0	505.0	510.0	515.0	520.0	525.0	530.0	535.0	540.0	545.0	550.0	555.0	560.0	565.0	570.0	575.0	580.0	585.0	590.0	595.0	600.0
230.0	128.8	 1235	 1342	247.0	13.38	9.362	7.740	6.456	5.504	4.697	4.273	3.824	3.342	3.005	2.408	2.252	2.038	1.745	1.516	1.476	1.347	1.383	1.306	1.240	1.180	1.157	1.137	1.123	1.159	1.079	1.115	1.034	0.996	0.954	0.918	0.933	0.929	0.890	0.870	0.818	0.844	0.851	0.934	0.795	0.744	0.778	0.865	2.173	4.078	3.681	1.838	0.802	0.591	0.632	0.628	0.601	0.656	0.651	0.628	0.637	0.641	0.649	0.666	0.631	0.626	0.680	0.622	0.653	0.692	0.702	0.713	0.680	0.670	0.660	0.685	0.721	0.729
235.0	80.71	409.0	 1202	 1440	232.1	12.88	8.101	7.259	5.459	4.745	4.370	4.238	3.598	2.686	2.532	2.327	2.030	1.621	1.441	1.463	1.343	1.366	1.242	1.283	1.231	1.307	1.079	1.081	1.128	1.132	1.123	1.131	0.942	0.966	0.888	0.829	0.929	0.839	0.923	0.799	0.837	0.894	0.800	0.913	0.924	0.843	0.702	1.001	1.641	2.741	3.604	4.378	2.685	1.021	0.689	0.589	0.730	0.626	0.659	0.620	0.612	0.657	0.602	0.695	0.605	0.563	0.581	0.664	0.703	0.732	0.674	0.630	0.701	0.690	0.655	0.778	0.711
240.0	102.9	131.7	476.2	 1668	 1078	128.1	9.312	6.466	5.903	4.771	4.551	4.028	3.747	3.023	2.325	2.126	1.826	1.644	1.701	1.510	1.385	1.234	1.306	1.221	1.367	1.199	1.191	1.083	1.178	1.241	1.001	1.059	0.942	0.869	0.980	0.858	0.794	0.847	0.914	0.846	0.744	0.838	0.850	0.808	0.985	0.969	0.832	0.796	0.874	1.119	1.883	4.481	5.638	4.583	1.937	0.821	0.727	0.642	0.694	0.580	0.622	0.653	0.637	0.593	0.688	0.571	0.678	0.641	0.735	0.703	0.666	0.674	0.668	0.697	0.675	0.764	0.745
245.0	108.9	111.0	138.2	782.2	 1585	371.7	77.96	8.169	6.435	5.288	4.881	4.342	3.822	2.840	2.549	2.079	2.102	1.619	1.793	1.385	1.372	1.202	1.268	1.313	1.247	1.215	1.156	0.987	1.241	1.122	1.027	1.110	0.924	0.935	0.860	0.831	0.724	0.886	0.912	0.877	0.850	0.851	0.837	0.744	0.800	1.001	0.953	0.996	0.734	0.681	0.897	1.838	3.514	5.948	6.037	3.701	1.509	0.708	0.636	0.583	0.619	0.667	0.670	0.629	0.681	0.595	0.654	0.606	0.707	0.666	0.669	0.652	0.665	0.734	0.665	0.673	0.756
250.0	61.29	112.1	115.4	216.7	670.7	893.6	785.7	135.0	13.65	5.237	5.285	3.956	3.977	2.976	2.555	2.350	2.017	1.795	1.625	1.377	1.448	1.368	1.195	1.335	1.166	1.230	1.205	1.136	1.132	1.091	1.105	1.156	0.980	1.011	0.861	0.809	0.817	0.837	0.765	0.836	0.856	0.860	0.814	0.781	0.796	0.831	0.792	1.003	0.987	0.911	0.778	0.978	1.265	2.331	3.659	5.242	6.484	5.545	3.284	1.352	0.686	0.706	0.674	0.653	0.681	0.662	0.675	0.696	0.662	0.664	0.618	0.678	0.643	0.718	0.721	0.643	0.709
255.0	40.15	61.67	122.9	153.1	177.0	288.5	 1017	 1180	177.2	11.68	5.657	4.462	4.057	3.124	2.652	2.613	1.967	1.832	1.724	1.425	1.403	1.331	1.209	1.350	1.234	1.054	1.156	1.235	1.063	1.224	1.084	1.066	0.909	0.943	0.902	0.766	0.818	0.765	0.853	0.792	0.830	0.816	0.863	0.850	0.880	0.818	0.679	0.763	0.785	0.794	1.110	1.191	0.919	1.057	1.349	1.740	2.903	5.454	8.924	8.540	4.399	1.587	0.716	0.675	0.613	0.706	0.684	0.700	0.655	0.703	0.623	0.703	0.673	0.783	0.765	0.732	0.768
260.0	34.57	32.59	68.55	147.0	114.0	82.79	400.7	 1243	 1160	132.2	8.950	4.617	3.868	3.139	2.836	2.463	2.052	2.045	1.751	1.591	1.480	1.347	1.364	1.411	1.363	1.230	1.118	1.239	1.143	1.106	1.129	1.033	0.939	0.995	0.894	0.738	0.826	0.808	0.857	0.811	0.721	0.900	0.872	0.894	0.838	0.772	0.678	0.793	0.648	0.731	0.917	1.292	1.210	1.024	0.857	0.911	1.240	2.001	4.449	8.367	10.78	9.027	3.656	0.890	0.666	0.700	0.660	0.701	0.749	0.647	0.661	0.655	0.649	0.718	0.686	0.684	0.745
265.0	36.39	29.15	36.08	97.33	148.9	65.25	108.4	544.4	 1570	965.3	111.4	5.654	4.102	3.716	2.969	2.570	2.165	1.950	1.695	1.577	1.470	1.431	1.444	1.330	1.325	1.179	1.266	1.158	1.221	1.283	1.131	1.074	0.958	1.039	0.916	0.809	0.859	0.810	0.784	0.783	0.687	0.808	0.869	0.820	0.799	0.744	0.647	0.734	0.689	0.649	0.660	0.901	1.205	1.363	1.089	0.809	0.807	1.085	1.601	3.253	6.620	11.83	13.45	6.310	1.708	0.714	0.653	0.694	0.670	0.701	0.764	0.742	0.736	0.719	0.699	0.709	0.746
270.0	37.82	29.69	24.44	41.44	102.3	133.8	82.06	144.7	606.9	 1187	 1305	377.6	21.61	4.293	3.430	2.538	2.294	2.024	1.774	1.720	1.499	1.554	1.332	1.275	1.318	1.243	1.165	1.162	1.243	1.165	1.209	1.157	1.007	0.951	0.933	0.800	0.875	0.853	0.758	0.805	0.745	0.750	0.816	0.834	0.803	0.761	0.693	0.712	0.673	0.585	0.631	0.695	0.837	0.953	1.225	1.336	1.262	1.002	0.994	1.362	2.115	4.131	7.660	9.526	9.496	7.902	4.665	1.700	0.802	0.752	0.730	0.685	0.718	0.690	0.688	0.711	0.751
275.0	39.11	34.09	23.66	24.87	37.45	94.97	158.9	94.00	150.2	344.0	 1143	 1621	515.0	15.71	3.413	2.722	2.472	2.331	2.016	1.927	1.654	1.472	1.348	1.358	1.343	1.328	1.214	1.133	1.285	1.189	1.230	1.085	1.043	0.916	0.981	0.782	0.861	0.872	0.800	0.750	0.732	0.722	0.765	0.728	0.815	0.795	0.751	0.758	0.745	0.596	0.575	0.627	0.679	0.726	0.775	0.925	1.338	1.576	1.455	0.981	1.033	1.405	2.334	2.881	3.934	7.583	12.08	11.56	5.361	1.544	0.748	0.779	0.679	0.708	0.674	0.733	0.740
280.0	48.48	41.22	25.79	24.38	22.29	42.92	132.9	147.1	73.08	94.52	397.3	 1407	 1526	104.2	7.713	3.289	2.653	2.288	1.949	1.886	1.637	1.574	1.307	1.408	1.337	1.367	1.104	1.198	1.356	1.221	1.292	1.132	1.059	1.023	0.878	0.931	0.908	0.885	0.795	0.798	0.891	0.726	0.733	0.750	0.819	0.863	0.757	0.768	0.708	0.611	0.601	0.683	0.689	0.692	0.708	0.711	0.909	1.291	1.808	1.601	1.137	0.955	1.138	1.239	1.486	2.581	5.783	10.75	12.83	9.332	4.421	0.843	0.666	0.685	0.694	0.788	0.707
285.0	53.52	50.15	34.29	25.18	17.76	23.19	68.52	157.6	125.5	49.08	112.1	542.0	 1495	848.6	79.13	4.512	2.857	2.375	1.941	2.107	1.650	1.681	1.518	1.363	1.375	1.376	1.219	1.193	1.297	1.214	1.149	1.102	1.066	0.963	0.954	0.982	0.837	0.865	0.834	0.906	0.798	0.773	0.763	0.762	0.797	0.829	0.767	0.771	0.766	0.641	0.583	0.702	0.671	0.705	0.664	0.630	0.745	0.895	1.328	1.708	1.745	1.450	0.940	0.872	0.876	1.166	1.908	3.926	7.620	12.31	15.29	6.663	1.734	0.709	0.698	0.814	0.733
290.0	65.91	61.50	44.28	33.98	23.33	21.50	33.92	83.41	154.3	130.6	73.18	153.7	518.4	975.2	994.1	312.9	18.16	2.905	2.446	2.320	1.857	1.833	1.565	1.345	1.438	1.340	1.257	1.290	1.253	1.195	1.192	1.148	1.023	0.957	1.032	0.962	0.907	0.854	0.843	0.843	0.735	0.754	0.775	0.754	0.802	0.793	0.749	0.821	0.760	0.697	0.651	0.747	0.695	0.692	0.742	0.692	0.735	0.803	0.929	1.072	1.367	1.700	1.724	1.390	1.106	0.949	1.142	1.529	2.516	4.318	7.931	9.629	10.39	7.893	5.597	1.589	0.811
295.0	78.74	80.85	56.72	42.38	33.32	30.04	32.98	47.26	87.79	178.6	163.5	95.08	155.9	281.1	750.0	 1439	463.7	17.08	3.133	2.544	2.124	1.969	1.649	1.540	1.531	1.425	1.268	1.371	1.340	1.202	1.182	1.170	1.021	1.001	1.058	0.993	0.946	0.879	0.823	0.814	0.811	0.783	0.822	0.762	0.790	0.866	0.855	0.863	0.900	0.794	0.685	0.833	0.735	0.756	0.814	0.751	0.756	0.855	0.854	0.861	0.878	1.067	1.369	1.873	2.036	1.600	1.137	1.082	1.367	1.723	2.505	3.022	4.505	7.626	16.31	13.02	5.306
300.0	90.92	91.02	72.77	57.82	45.32	44.69	48.56	57.55	81.92	152.0	240.6	152.8	112.8	122.2	277.6	 1050	 1535	338.0	8.595	2.968	2.210	2.238	1.863	1.601	1.610	1.533	1.482	1.363	1.399	1.364	1.239	1.151	1.125	0.980	1.038	1.008	0.914	0.859	0.885	0.804	0.840	0.790	0.823	0.833	0.885	0.809	0.821	0.854	0.852	0.813	0.721	0.842	0.778	0.841	0.835	0.768	0.805	0.902	0.925	0.853	1.058	1.077	1.259	1.524	1.942	2.296	1.975	1.418	1.318	1.380	1.548	1.660	1.901	2.916	7.689	13.17	15.07
305.0	116.8	120.9	95.46	76.07	64.37	66.40	79.31	96.52	119.7	163.9	258.8	312.8	200.9	127.2	147.2	413.9	 1289	 1468	57.31	4.569	2.664	2.419	2.088	1.910	1.571	1.461	1.544	1.418	1.392	1.376	1.413	1.223	1.052	1.057	1.067	1.071	1.001	0.966	0.941	0.807	0.817	0.813	0.993	0.849	0.878	0.916	0.918	0.960	0.903	0.883	0.819	1.012	0.886	0.881	0.829	0.915	0.974	1.080	1.075	1.101	1.216	1.325	1.443	1.487	1.800	2.143	2.631	2.546	1.945	1.640	1.494	1.549	1.620	1.970	2.729	5.118	9.964
310.0	146.7	156.7	131.9	104.1	89.97	92.75	111.1	127.4	153.8	188.7	240.8	319.9	337.4	217.6	156.0	184.6	466.7	 1087	 1250	235.4	14.83	2.965	2.172	1.820	1.642	1.511	1.517	1.400	1.417	1.441	1.295	1.347	1.093	1.105	1.106	1.059	0.991	0.984	0.946	0.917	0.907	0.897	0.956	0.951	0.948	1.002	0.960	1.043	1.028	0.927	0.919	1.087	1.051	1.024	1.039	1.046	1.195	1.252	1.231	1.221	1.295	1.484	1.575	1.625	1.836	2.058	2.299	2.657	2.817	2.547	2.254	1.742	1.704	1.798	1.793	2.218	3.472
315.0	173.4	199.8	171.6	134.5	109.4	117.3	135.6	155.3	174.3	212.7	250.6	290.2	337.6	346.9	216.0	151.2	198.6	327.1	710.8	 1402	371.3	16.43	2.614	2.054	2.044	1.732	1.553	1.492	1.426	1.438	1.363	1.321	1.122	1.133	1.028	1.016	1.114	1.102	0.946	0.935	0.930	0.999	0.965	1.056	0.995	1.063	1.188	1.195	1.182	1.017	0.985	1.102	1.206	1.052	1.132	1.157	1.274	1.362	1.506	1.492	1.408	1.632	1.708	1.821	1.977	2.109	2.193	2.246	2.292	2.586	2.911	2.749	2.063	1.859	1.720	1.668	1.961
320.0	216.5	251.9	209.0	156.4	125.9	131.5	152.0	171.0	191.7	228.3	267.2	295.8	314.1	356.0	304.5	167.7	148.2	143.8	226.7	895.8	 1578	306.8	6.116	2.277	2.403	1.886	1.580	1.463	1.492	1.498	1.485	1.407	1.200	1.143	1.095	0.991	1.142	1.056	1.025	0.939	0.933	0.970	0.998	1.060	1.099	1.244	1.245	1.449	1.313	1.171	0.991	1.186	1.243	1.265	1.226	1.213	1.369	1.427	1.493	1.497	1.628	1.619	1.847	1.903	2.067	2.186	2.271	2.374	2.288	2.491	2.744	3.087	2.906	2.137	1.846	1.585	1.675
325.0	263.4	314.1	270.0	194.0	143.2	143.7	161.4	179.6	193.5	230.5	270.2	300.2	305.8	310.0	335.2	225.5	142.3	105.3	83.46	288.5	 1208	 1831	45.29	3.564	2.489	2.198	1.896	1.645	1.584	1.555	1.375	1.383	1.253	1.291	1.113	1.044	1.049	1.045	1.008	0.950	0.911	0.926	0.967	1.106	1.211	1.371	1.381	1.590	1.494	1.405	1.218	1.300	1.212	1.229	1.321	1.304	1.410	1.425	1.464	1.591	1.697	1.704	1.808	1.878	2.101	2.104	2.253	2.345	2.439	2.374	2.319	2.565	2.957	3.123	2.321	1.871	1.713
330.0	324.7	404.8	392.0	295.5	191.7	158.5	171.7	180.3	196.9	232.9	272.8	303.7	307.7	289.8	284.1	274.3	198.1	105.7	60.14	90.64	361.1	 1193	 1219	468.9	14.77	2.683	2.139	1.856	1.652	1.627	1.468	1.451	1.254	1.244	1.071	1.056	0.958	1.034	1.028	1.050	0.963	1.059	1.113	1.175	1.311	1.533	1.542	1.917	1.902	1.774	1.609	1.767	1.554	1.414	1.368	1.307	1.448	1.515	1.569	1.656	1.655	1.730	1.892	1.937	2.098	2.136	2.221	2.414	2.387	2.369	2.442	2.360	2.464	2.615	2.759	2.548	2.311
335.0	375.2	483.1	482.9	395.1	259.5	187.2	185.6	190.7	206.2	232.1	276.3	304.3	311.2	295.3	260.6	234.9	253.0	155.7	68.32	56.56	107.1	300.0	640.4	 1545	328.9	14.14	2.437	1.880	1.716	1.834	1.492	1.406	1.372	1.191	1.171	1.134	1.048	0.922	0.960	1.096	0.955	1.115	1.148	1.152	1.356	1.596	1.768	2.183	2.157	2.110	1.908	2.135	1.947	1.800	1.480	1.408	1.615	1.628	1.677	1.720	1.825	1.691	1.955	2.038	2.069	2.275	2.318	2.464	2.380	2.660	2.402	2.475	2.326	2.271	2.417	2.286	2.830
340.0	395.8	543.0	542.3	441.8	298.3	211.5	201.6	208.2	212.8	239.5	276.1	303.9	317.0	296.5	259.1	212.9	219.5	209.8	94.83	56.84	58.95	95.33	189.4	930.8	 1817	245.8	5.908	2.448	2.043	1.848	1.674	1.431	1.336	1.223	1.101	1.139	1.019	1.075	0.967	1.074	0.975	1.085	1.199	1.246	1.478	1.552	1.905	2.257	2.309	2.244	2.049	2.538	2.130	1.975	1.812	1.539	1.668	1.725	1.832	1.809	1.852	1.725	1.980	1.976	2.123	2.211	2.463	2.374	2.443	2.457	2.561	2.473	2.300	2.150	2.134	1.862	2.225
345.0	412.2	542.5	570.4	469.6	324.9	225.4	210.9	209.4	216.1	239.3	269.7	298.0	313.7	294.2	257.5	203.5	183.4	201.8	149.9	70.61	55.10	56.05	69.63	287.4	 1400	 1380	40.08	3.624	2.256	1.965	1.785	1.580	1.353	1.352	1.144	1.129	1.054	1.068	1.012	1.074	1.092	1.076	1.235	1.357	1.489	1.645	1.978	2.310	2.469	2.311	2.214	2.648	2.175	2.036	1.899	1.576	1.655	1.819	1.792	1.774	1.822	1.832	1.891	2.018	2.038	2.117	2.303	2.254	2.364	2.350	2.526	2.518	2.314	2.335	2.135	1.989	1.889
350.0	394.5	518.5	569.5	481.5	349.0	248.1	223.4	220.7	222.7	235.0	263.4	288.0	298.9	287.3	253.5	200.3	169.4	157.9	166.0	129.6	71.73	56.31	51.61	91.09	399.2	985.3	 1220	468.9	12.75	2.428	1.977	1.652	1.490	1.442	1.283	1.181	1.083	1.037	1.055	1.059	1.041	1.060	1.133	1.302	1.363	1.676	1.817	2.236	2.379	2.231	2.274	2.668	2.348	2.056	1.799	1.730	1.700	1.741	1.783	1.886	1.890	1.845	2.018	2.064	2.052	2.110	2.126	2.255	2.284	2.315	2.378	2.499	2.348	2.172	2.106	1.996	1.854
355.0	363.6	478.0	520.6	475.1	360.9	271.8	240.7	232.5	228.3	235.9	257.6	277.6	284.4	274.2	243.5	196.6	165.4	141.2	132.0	158.5	127.1	71.92	59.13	55.26	113.2	242.9	625.3	 1597	296.7	14.48	2.563	2.112	1.695	1.538	1.211	1.154	1.082	1.135	1.055	1.083	1.002	0.994	1.122	1.204	1.301	1.701	1.898	2.047	2.190	2.146	2.324	2.637	2.285	2.142	1.956	1.803	1.852	1.831	1.659	1.825	1.991	1.885	1.943	2.090	2.081	2.118	2.038	2.236	2.174	2.220	2.299	2.490	2.127	2.194	2.027	2.048	1.886
360.0	339.7	448.7	496.9	458.7	368.3	283.9	253.7	237.5	236.0	235.9	257.8	271.2	273.1	266.6	235.9	195.2	167.9	142.6	125.0	137.0	165.8	103.7	67.34	53.77	54.19	73.79	173.0	945.5	 1563	242.8	6.198	2.884	2.153	1.607	1.242	1.138	1.145	1.197	1.087	1.013	0.950	0.994	1.095	1.140	1.365	1.547	1.776	1.953	2.154	2.121	2.246	2.473	2.440	2.140	1.945	1.886	1.844	1.844	1.820	1.820	2.098	1.868	1.932	1.998	2.023	2.156	2.068	2.080	2.140	2.082	2.295	2.369	2.237	2.135	2.173	1.964	1.967
365.0	314.1	423.9	476.4	439.6	368.0	285.0	258.4	248.9	240.7	241.9	256.0	265.3	268.0	260.0	231.5	192.2	165.1	146.9	127.2	122.9	153.3	149.8	84.50	59.85	46.95	41.66	57.54	276.4	 1255	 1507	38.06	5.525	3.008	1.906	1.371	1.211	1.155	1.208	0.991	0.990	1.016	1.065	1.095	1.164	1.281	1.529	1.668	1.912	2.014	1.949	2.064	2.476	2.357	2.038	2.022	1.864	1.810	1.807	1.847	1.922	1.903	1.841	1.973	2.016	2.056	2.039	2.233	2.168	2.121	2.148	2.375	2.296	2.136	2.192	2.031	1.853	1.956
370.0	291.3	395.4	448.7	438.9	381.9	307.0	271.6	266.4	254.3	260.2	276.3	278.9	297.2	267.6	226.1	192.0	168.9	152.7	135.7	128.9	132.8	155.2	140.9	91.75	64.35	54.27	57.72	93.47	375.2	 1130	 1215	455.1	18.59	5.899	2.272	1.523	1.296	1.182	1.067	1.104	1.042	1.075	1.143	1.145	1.291	1.476	1.562	1.902	2.006	1.956	1.910	2.344	2.354	2.203	2.074	1.969	2.020	1.966	1.935	1.922	1.977	1.968	2.066	2.056	2.195	2.200	2.208	2.295	2.300	2.538	2.356	2.204	2.098	2.033	2.037	1.962	1.946
375.0	292.6	396.6	465.5	489.1	466.9	367.2	295.3	283.6	283.2	311.0	354.2	351.7	432.2	340.2	232.7	192.9	175.4	161.6	150.4	144.0	142.9	146.7	173.5	177.7	124.1	105.6	136.0	162.8	188.0	351.3	795.2	 1702	274.1	25.81	5.221	2.428	1.675	1.364	1.127	1.170	1.117	1.039	1.224	1.155	1.367	1.441	1.533	1.843	2.039	2.067	1.940	2.547	2.658	2.529	2.538	2.328	2.136	1.992	2.133	2.004	2.112	2.254	2.197	2.431	2.549	2.687	2.582	2.594	2.931	3.526	3.034	2.431	2.371	2.055	1.930	1.999	2.063
380.0	298.7	402.1	486.5	539.6	526.2	412.2	321.6	301.9	316.7	347.7	417.8	411.2	541.4	397.9	237.5	195.6	179.3	169.1	159.5	156.4	156.6	155.7	174.6	225.4	185.3	151.1	199.5	240.4	194.0	213.2	400.3	 1221	 1595	228.2	10.53	3.177	2.253	1.441	1.400	1.234	1.230	1.228	1.170	1.263	1.336	1.409	1.465	1.942	2.173	2.202	2.126	2.660	2.765	2.758	2.891	2.357	2.279	2.134	2.198	2.223	2.388	2.386	2.403	2.546	3.075	3.184	2.797	2.877	3.370	4.292	3.615	2.514	2.319	2.103	1.965	1.992	1.946
385.0	296.5	389.1	494.1	536.3	552.3	428.1	331.1	315.2	329.0	373.2	450.0	439.7	591.4	425.7	239.4	197.1	181.1	173.2	164.7	161.8	164.6	162.6	174.0	224.2	234.4	186.9	236.6	283.8	217.3	200.1	316.5	602.0	 1357	 1378	33.70	4.867	2.693	1.797	1.534	1.280	1.191	1.195	1.216	1.260	1.352	1.544	1.531	1.988	2.012	2.099	2.285	2.623	2.889	3.066	3.011	2.644	2.562	2.362	2.263	2.301	2.327	2.373	2.394	2.659	3.051	3.196	3.141	2.866	3.733	4.661	3.773	2.616	2.398	2.113	2.090	2.046	2.040
390.0	272.7	364.4	448.5	495.3	507.0	408.0	320.4	307.9	315.7	354.1	421.3	410.0	533.1	389.2	236.0	195.2	177.9	171.2	163.5	162.0	164.9	161.6	168.3	194.1	212.9	209.5	227.0	254.8	197.1	175.1	254.0	349.0	466.9	 1044	 1129	348.5	11.75	3.099	2.087	1.492	1.207	1.217	1.270	1.256	1.268	1.510	1.556	1.775	1.915	1.900	2.159	2.446	2.583	2.891	2.846	2.504	2.387	2.223	2.160	2.171	2.348	2.334	2.462	2.519	2.965	3.056	2.887	2.843	3.374	4.175	3.591	2.575	2.272	1.951	2.014	2.076	1.962
395.0	256.3	339.5	421.3	467.6	487.0	405.9	319.7	308.8	325.7	365.0	430.0	423.7	529.0	393.2	245.5	203.9	182.8	174.9	166.3	166.7	169.7	169.5	176.9	197.9	200.7	217.8	267.1	269.4	207.2	188.4	255.1	299.3	219.0	288.4	655.5	 1322	223.8	14.66	3.590	2.076	1.492	1.245	1.346	1.184	1.375	1.504	1.417	1.871	1.994	1.852	1.932	2.460	2.610	2.725	2.798	2.435	2.277	2.271	2.143	2.303	2.346	2.441	2.418	2.578	2.950	3.091	2.883	2.922	3.537	4.096	3.533	2.619	2.212	2.168	2.025	2.132	2.023
400.0	256.2	347.3	416.9	469.7	485.2	411.0	329.7	325.8	343.1	403.6	477.8	472.0	591.7	436.7	270.1	219.9	192.9	181.7	173.1	175.7	181.0	187.5	195.9	221.3	224.1	231.2	311.6	334.7	252.1	232.3	305.2	339.9	197.4	136.4	211.9	870.5	 1272	184.2	8.029	2.813	1.711	1.383	1.303	1.371	1.542	1.485	1.406	1.902	1.927	1.767	2.029	2.608	2.623	3.027	2.919	2.451	2.405	2.343	2.222	2.340	2.394	2.565	2.682	2.865	3.242	3.282	3.152	3.134	3.635	4.344	3.930	2.660	2.239	2.180	2.079	2.165	2.163
405.0	256.6	326.3	423.7	466.5	485.3	419.5	336.7	335.3	368.8	439.9	529.8	524.1	642.2	480.7	300.0	241.4	204.0	186.6	181.4	184.5	194.1	201.7	214.2	244.5	251.7	254.5	330.6	392.9	306.5	277.4	351.1	387.2	223.0	129.2	114.7	295.0	 1061	 1110	29.67	4.600	2.150	1.669	1.422	1.434	1.529	1.659	1.578	1.841	2.034	1.827	2.200	2.525	2.647	3.019	2.918	2.652	2.547	2.377	2.279	2.506	2.595	2.526	2.794	2.973	3.267	3.461	3.193	3.359	3.716	4.799	3.908	2.774	2.397	2.348	2.314	2.128	2.178
410.0	233.5	306.7	376.1	415.0	441.8	389.4	337.6	342.1	377.7	443.6	534.2	535.9	616.8	479.1	326.2	256.9	212.2	187.9	181.6	184.2	194.5	205.4	221.5	249.0	254.8	260.1	311.2	364.0	332.2	295.7	342.5	364.9	231.6	145.9	115.0	138.0	340.7	875.1	933.9	122.7	9.214	1.951	1.510	1.529	1.533	1.572	1.673	1.725	1.913	1.786	1.962	2.376	2.565	2.838	2.718	2.565	2.505	2.545	2.373	2.584	2.814	2.854	2.895	3.146	3.437	3.451	3.185	3.336	3.573	4.121	3.702	2.979	2.670	2.301	2.315	2.258	2.264
415.0	214.7	283.3	332.5	361.0	383.0	356.1	328.5	337.8	368.2	425.3	496.4	500.8	541.9	435.7	318.0	254.3	207.7	182.2	176.8	176.9	185.8	194.6	210.2	228.6	238.4	243.7	274.2	303.8	296.8	292.8	304.8	308.4	212.6	145.9	115.0	103.6	129.1	231.7	546.1	 1088	197.2	9.388	1.855	1.580	1.434	1.587	1.563	1.668	1.623	1.788	1.850	2.154	2.307	2.517	2.354	2.343	2.301	2.417	2.366	2.645	2.779	2.746	2.914	2.892	3.233	3.334	3.234	3.140	3.238	3.554	3.273	2.591	2.697	2.239	2.231	2.112	2.192
420.0	213.0	264.5	308.6	337.0	366.1	341.2	315.3	324.9	354.8	403.0	464.6	467.5	500.7	406.9	304.7	243.3	198.0	174.0	167.7	168.2	176.3	186.2	198.9	219.5	225.1	228.6	254.0	276.2	263.7	277.7	294.4	284.0	194.6	140.1	109.1	91.44	78.29	79.77	151.0	709.0	982.4	158.0	4.227	1.706	1.613	1.718	1.535	1.678	1.581	1.609	1.694	2.150	2.138	2.330	2.409	2.317	2.369	2.293	2.500	2.492	2.604	2.756	2.877	2.828	3.017	3.077	2.954	2.963	3.130	3.359	3.069	2.558	2.572	2.411	2.122	2.151	2.081
425.0	207.6	255.2	294.1	328.2	357.7	330.3	308.4	321.0	347.7	401.2	449.4	456.3	480.6	391.4	294.8	236.1	192.4	167.8	159.6	163.4	172.6	179.1	192.9	213.1	220.4	224.8	248.4	266.2	249.9	257.1	295.4	280.5	191.6	136.6	107.9	87.84	66.22	45.58	47.57	205.6	817.7	802.9	27.22	2.430	1.825	1.645	1.582	1.705	1.594	1.569	1.657	2.085	2.154	2.339	2.293	2.362	2.233	2.193	2.409	2.470	2.553	2.676	2.789	2.791	3.059	3.097	2.851	2.760	3.121	3.139	2.905	2.476	2.284	2.389	2.140	1.974	2.002
430.0	192.5	237.5	283.4	306.5	331.4	313.0	301.5	317.2	348.9	396.6	448.0	450.1	467.8	387.2	294.1	233.9	190.5	165.3	158.2	159.9	168.6	177.0	190.3	209.2	216.9	221.0	243.9	259.2	245.8	244.7	276.5	285.7	201.3	142.9	114.1	93.86	69.07	41.22	25.87	53.59	232.5	622.8	752.8	115.2	8.614	1.831	1.633	1.740	1.594	1.532	1.604	1.997	2.113	2.121	2.222	2.246	2.228	2.314	2.355	2.363	2.600	2.543	2.851	2.781	3.004	3.042	2.895	2.850	2.881	3.151	2.972	2.439	2.366	2.326	2.059	2.102	1.984
435.0	219.9	227.9	268.6	276.3	296.4	295.9	295.9	312.9	342.7	389.8	438.1	439.5	439.0	375.4	292.2	232.1	186.3	160.9	152.6	154.1	162.8	170.6	183.5	200.5	207.8	215.3	232.6	243.5	236.6	234.8	251.6	263.1	213.9	152.3	121.0	100.3	74.04	43.40	22.49	21.10	57.53	147.8	433.2	 1022	191.5	8.033	1.966	1.769	1.711	1.591	1.637	1.822	2.001	2.127	2.107	1.992	2.211	2.411	2.316	2.306	2.497	2.548	2.906	2.841	2.989	3.109	2.883	2.675	2.914	2.939	2.610	2.421	2.356	2.223	2.024	2.087	1.914
440.0	359.2	214.0	244.4	261.4	279.9	281.9	285.8	307.5	332.9	374.7	422.4	417.5	409.7	352.7	281.9	223.8	179.3	155.5	147.3	147.2	155.4	162.9	174.4	189.5	198.8	205.3	217.9	227.2	223.1	220.1	233.2	232.8	204.1	159.5	122.6	100.3	74.29	44.18	22.95	14.39	19.48	37.99	115.1	706.6	 1033	136.7	3.059	1.831	1.711	1.627	1.507	1.779	1.868	1.971	1.962	2.026	2.287	2.134	2.417	2.370	2.548	2.498	2.565	2.927	2.745	2.985	2.791	2.573	2.607	2.757	2.485	2.207	2.193	2.063	1.912	2.057	1.976
445.0	602.0	237.6	229.8	246.3	268.8	271.5	282.4	297.7	319.6	356.5	388.4	390.0	376.7	324.3	265.7	210.6	167.3	147.3	140.1	139.6	143.3	152.1	163.1	176.5	185.4	187.8	199.9	208.1	206.0	205.0	212.3	207.7	178.7	154.2	120.9	95.15	70.10	43.01	23.07	13.58	11.54	13.99	30.19	209.3	892.6	725.8	21.51	2.291	1.728	1.578	1.546	1.772	1.761	1.828	1.857	2.040	2.174	2.124	2.224	2.221	2.422	2.384	2.431	2.656	2.564	2.620	2.665	2.515	2.536	2.552	2.390	2.254	1.961	2.107	1.983	1.993	1.820
450.0	794.4	500.3	226.8	228.6	245.2	253.6	265.6	275.9	291.9	321.4	351.9	348.9	336.5	288.7	235.6	189.7	151.9	135.0	127.2	126.2	130.7	136.4	145.9	157.1	162.9	167.0	175.9	181.5	179.6	178.9	183.8	178.2	149.8	131.4	115.8	89.86	63.67	39.38	22.69	14.31	10.86	9.501	11.77	50.99	250.7	617.1	687.6	101.9	6.331	1.629	1.566	1.770	1.789	1.803	1.872	1.877	2.060	2.017	2.142	2.182	2.241	2.347	2.343	2.432	2.407	2.427	2.476	2.315	2.415	2.302	2.199	2.052	2.036	1.951	1.884	1.870	1.728
455.0	546.5	957.3	307.1	215.2	226.9	231.6	249.2	254.6	270.8	292.0	311.9	309.8	295.8	254.8	208.8	170.8	137.3	120.5	114.2	113.3	116.9	122.2	129.1	138.7	141.3	145.5	152.9	157.9	156.3	155.5	159.4	152.1	126.9	106.9	99.53	88.34	61.33	37.59	22.38	15.14	11.61	9.487	8.303	15.87	59.83	146.9	409.5	786.2	150.0	6.171	1.607	1.738	1.827	1.755	1.801	1.781	1.965	1.948	1.999	1.956	2.056	2.219	2.306	2.157	2.224	2.266	2.261	2.145	2.227	2.014	2.108	1.929	1.975	1.726	1.766	1.765	1.675
460.0	292.8	 1091	534.8	208.3	210.8	221.6	231.8	237.1	252.3	271.5	285.3	284.3	270.6	231.0	193.1	157.9	127.9	110.1	107.2	105.6	108.2	111.4	118.5	126.4	128.9	133.3	139.5	141.8	142.4	143.1	145.1	137.2	116.8	97.51	87.43	85.07	65.25	37.65	22.96	15.60	12.52	9.996	8.252	8.682	17.46	36.23	107.2	538.2	701.9	105.5	2.816	1.748	1.762	1.740	1.673	1.788	1.913	1.836	1.892	1.976	2.083	2.215	2.058	2.009	2.204	2.027	2.081	2.025	2.147	1.961	2.061	1.795	1.881	1.694	1.602	1.721	1.659
465.0	166.3	838.0	829.4	231.4	195.2	206.9	212.7	223.8	239.4	259.8	272.5	262.6	253.0	212.4	180.7	145.2	119.7	104.4	99.87	97.29	100.8	104.9	108.2	115.8	119.2	123.6	127.7	130.3	132.3	131.3	132.4	127.1	107.8	89.37	78.90	75.40	66.02	39.89	23.60	16.03	12.78	10.35	8.380	7.503	8.550	11.98	27.60	159.5	642.3	578.5	17.70	1.986	1.805	1.718	1.659	1.719	1.832	1.715	1.871	2.003	1.893	2.009	1.954	1.980	2.047	1.999	1.860	1.959	1.871	1.900	1.816	1.721	1.672	1.705	1.452	1.471	1.523
470.0	130.6	388.0	900.4	459.6	184.4	191.7	199.0	204.5	218.0	233.4	240.4	239.3	220.8	191.1	162.1	131.9	108.3	93.85	89.76	88.04	89.71	92.89	96.42	101.7	104.0	108.7	111.8	114.4	115.6	114.8	115.9	110.4	95.56	79.85	70.10	62.28	56.76	43.44	26.63	17.25	13.20	11.20	8.998	7.918	7.079	6.931	9.878	38.75	185.2	494.2	502.2	92.73	6.301	1.772	1.572	1.761	1.748	1.800	1.839	1.855	1.774	1.805	1.829	1.829	1.963	1.957	1.852	1.849	1.832	1.812	1.657	1.605	1.478	1.491	1.507	1.442	1.400
475.0	126.1	190.2	530.6	913.6	239.6	171.3	181.9	183.0	194.8	207.1	213.5	205.2	190.4	166.4	138.6	116.0	95.43	84.58	79.24	78.04	78.04	81.21	83.81	88.80	89.49	91.45	93.81	96.60	97.56	98.02	97.10	92.45	81.17	68.87	61.67	52.32	44.51	38.21	31.00	20.22	13.46	11.58	9.733	8.082	7.147	6.107	6.065	11.83	44.09	116.3	275.1	564.4	138.9	5.506	1.601	1.627	1.768	1.613	1.708	1.696	1.701	1.613	1.824	1.722	1.761	1.718	1.662	1.814	1.647	1.597	1.498	1.535	1.505	1.470	1.401	1.388	1.353
480.0	133.1	139.5	262.1	954.7	409.9	160.7	166.8	167.4	177.8	187.5	189.3	184.7	171.2	146.2	124.7	103.0	87.17	76.99	71.54	71.06	71.04	72.74	75.07	79.24	80.88	81.67	83.40	85.27	85.06	86.07	85.95	80.97	71.83	61.46	53.55	46.28	38.27	32.14	30.76	23.16	14.46	11.67	10.07	8.446	7.259	6.331	5.573	6.260	12.74	28.43	71.54	358.2	551.5	24.16	2.696	1.563	1.705	1.597	1.637	1.628	1.514	1.689	1.682	1.562	1.752	1.659	1.584	1.676	1.634	1.568	1.527	1.458	1.422	1.404	1.355	1.252	1.366
485.0	139.2	125.3	154.8	680.0	675.4	184.4	154.8	157.3	168.4	172.3	174.1	172.8	153.5	133.6	113.7	94.04	80.64	71.17	66.44	65.34	63.22	64.72	67.62	71.65	71.73	73.52	75.29	77.33	76.16	77.10	76.99	71.89	63.76	55.57	48.41	41.96	34.82	27.55	25.91	24.96	17.79	12.16	10.12	8.654	7.452	6.522	5.753	5.075	6.089	9.061	18.29	101.7	484.3	472.7	21.00	1.882	1.653	1.633	1.489	1.644	1.488	1.641	1.588	1.523	1.652	1.571	1.486	1.594	1.427	1.483	1.463	1.381	1.327	1.372	1.253	1.257	1.299
490.0	127.1	131.8	122.0	301.0	728.1	332.8	149.4	142.1	154.3	155.1	155.3	151.5	134.0	120.4	102.5	84.84	71.83	64.22	60.64	58.13	57.37	57.50	59.17	62.22	62.83	63.95	65.04	66.18	66.55	66.79	65.93	63.23	55.74	48.64	42.88	37.95	31.58	24.61	20.62	21.79	20.97	14.65	10.63	8.854	7.672	6.902	6.067	5.318	4.840	4.776	6.604	25.11	134.9	373.3	331.9	95.33	6.529	1.659	1.625	1.538	1.483	1.474	1.501	1.510	1.520	1.410	1.365	1.477	1.316	1.365	1.398	1.369	1.235	1.220	1.153	1.188	1.283
495.0	98.23	134.6	111.7	150.8	424.4	552.2	217.4	127.7	135.4	137.7	136.1	132.3	121.3	104.6	89.45	75.13	63.17	57.41	53.42	51.60	51.13	51.23	51.71	53.46	53.91	55.34	56.05	56.79	58.22	56.94	56.55	54.13	48.68	43.08	38.54	33.27	28.43	22.77	17.86	16.90	19.24	18.11	12.31	8.912	7.835	7.076	6.086	5.403	4.760	4.103	4.173	8.048	32.09	88.23	233.0	518.4	149.9	5.376	1.627	1.441	1.488	1.441	1.448	1.385	1.352	1.312	1.394	1.336	1.315	1.265	1.199	1.331	1.267	1.135	1.209	1.145	1.150
500.0	82.42	124.6	113.3	115.6	208.7	536.3	331.9	120.5	122.3	124.8	123.7	122.3	108.4	94.95	79.21	68.86	58.44	52.83	48.80	46.79	46.91	46.89	46.86	46.98	49.24	49.30	49.62	51.25	51.61	51.43	50.57	48.35	43.40	38.70	34.39	30.34	25.69	21.03	16.70	15.00	15.48	17.85	14.69	9.495	7.902	6.887	6.232	5.590	5.037	4.076	3.730	4.205	9.404	21.61	61.38	329.1	527.3	26.48	2.677	1.475	1.460	1.346	1.413	1.309	1.276	1.226	1.233	1.277	1.253	1.225	1.138	1.343	1.197	1.068	1.150	1.265	1.178
505.0	77.93	114.2	122.3	100.9	122.1	366.1	551.9	149.7	112.1	114.3	112.3	109.8	100.1	88.06	74.16	60.41	53.21	47.04	44.68	42.18	41.85	41.74	42.11	41.79	44.11	44.24	44.33	44.63	45.65	45.78	45.23	43.66	39.49	34.49	30.49	27.19	23.26	19.32	16.24	13.65	13.24	15.16	16.13	10.96	8.278	6.687	5.853	5.450	5.158	4.148	3.577	3.516	4.216	6.802	15.46	93.21	434.0	441.4	23.02	1.760	1.411	1.437	1.407	1.388	1.292	1.185	1.208	1.192	1.185	1.079	1.292	1.106	1.218	1.033	1.121	1.032	1.099
510.0	70.63	88.51	116.1	100.2	93.69	176.8	528.6	313.9	107.7	100.6	100.4	93.59	86.32	74.03	62.25	53.44	46.70	41.57	38.17	37.05	36.81	35.83	36.47	36.22	37.22	37.24	37.78	38.05	38.86	38.86	38.25	36.92	33.75	29.11	26.38	23.67	20.39	17.05	14.29	12.71	11.65	11.52	13.38	12.61	9.422	6.960	6.107	5.399	4.950	4.247	3.725	3.496	3.118	3.462	5.247	22.58	119.3	326.9	321.9	98.16	6.647	1.428	1.269	1.276	1.302	1.213	1.205	1.155	1.148	1.130	1.137	1.107	1.089	1.041	1.057	1.024	1.041
515.0	65.62	72.58	91.30	104.6	82.44	100.2	283.1	483.6	179.8	86.99	85.06	80.37	72.94	64.28	53.31	45.97	39.66	35.96	32.89	32.45	31.02	30.26	30.57	31.56	31.58	31.63	32.11	31.87	32.78	32.01	32.07	30.54	27.72	24.62	22.71	20.42	17.38	15.00	12.71	11.33	10.59	9.204	9.926	11.58	11.33	7.819	6.008	5.110	4.585	4.055	3.711	3.581	3.066	2.747	2.942	6.582	28.04	76.04	192.1	411.0	150.2	4.947	1.209	1.283	1.162	1.125	1.131	1.029	1.125	1.117	1.104	1.014	0.933	1.026	1.002	1.051	0.964
520.0	66.55	63.40	74.77	101.3	79.45	73.82	134.3	435.4	321.4	80.85	75.41	73.63	65.27	56.96	48.20	41.34	35.32	32.33	29.37	28.85	27.63	27.12	27.45	27.52	27.93	26.78	27.84	27.79	27.57	28.11	27.61	26.37	24.28	21.74	19.67	18.12	15.81	13.57	12.01	10.35	9.701	9.072	8.639	9.291	11.12	8.843	6.202	5.116	4.301	3.847	3.603	3.516	2.988	2.493	2.467	3.143	7.849	18.56	49.22	252.1	438.9	26.84	2.302	1.206	1.205	1.135	1.063	0.986	1.077	0.985	0.998	0.911	0.991	0.960	0.958	0.994	1.000
525.0	58.11	56.16	63.59	86.59	86.34	67.65	83.32	268.6	448.0	121.2	67.79	64.48	58.56	50.77	43.21	37.08	32.20	28.56	27.51	26.04	24.42	24.51	24.49	24.18	24.58	24.14	24.56	24.95	24.17	25.06	24.22	22.90	21.34	19.20	17.70	16.40	14.33	12.35	10.85	9.560	9.017	8.206	8.049	7.473	9.428	9.999	7.238	5.324	4.176	3.685	3.534	3.231	3.027	2.707	2.288	2.362	3.287	5.611	12.57	69.63	331.1	357.1	22.94	1.423	1.182	1.076	1.015	1.047	1.018	0.988	0.987	0.898	0.939	1.003	0.952	0.879	1.012
530.0	55.87	54.72	57.28	66.49	84.84	66.34	65.53	118.8	376.4	272.5	74.34	55.95	50.79	43.88	38.43	32.23	27.93	24.81	23.40	22.54	21.60	21.03	20.91	21.09	20.97	20.77	21.03	20.99	21.06	21.42	20.85	20.05	18.30	16.57	14.99	13.87	12.54	10.85	9.642	8.706	8.038	7.284	6.892	6.487	7.001	8.390	8.084	5.900	4.256	3.590	3.372	3.025	2.787	2.653	2.340	2.184	2.264	2.738	4.205	16.83	88.73	254.1	265.8	92.99	5.361	1.076	1.052	1.083	0.946	0.988	0.934	0.853	1.009	0.955	0.906	0.933	0.912
535.0	51.52	50.18	46.98	49.49	70.87	68.61	53.39	65.84	174.2	395.5	159.0	49.56	44.51	38.20	32.90	28.10	23.91	22.21	20.03	19.22	18.33	18.09	17.78	17.78	17.73	17.79	17.57	17.92	17.93	18.11	18.25	16.91	15.49	13.88	12.62	11.86	10.66	9.628	8.486	7.514	7.083	6.424	6.165	5.687	5.708	5.866	7.386	6.950	4.836	3.446	3.182	2.886	2.591	2.410	2.406	2.184	1.953	1.934	2.278	5.022	20.94	58.90	137.7	327.9	116.1	4.240	1.025	0.979	0.991	0.900	0.944	0.890	0.925	0.892	0.886	0.844	0.934
540.0	51.89	44.53	43.51	41.92	59.66	71.01	51.74	50.42	82.03	314.9	305.8	56.20	39.92	35.03	29.82	25.30	22.04	20.08	18.05	17.02	16.21	15.95	15.28	15.83	15.73	15.83	15.54	15.51	15.60	15.84	15.99	14.81	13.68	12.19	11.28	10.49	9.682	8.811	7.606	6.839	6.510	6.089	5.753	5.150	5.134	4.928	5.834	6.902	5.313	3.449	2.854	2.741	2.494	2.393	2.239	2.277	1.894	1.751	1.760	2.466	5.901	14.26	34.61	187.7	292.0	26.74	2.018	0.997	0.972	0.864	0.894	0.816	0.834	0.855	0.844	0.879	0.911
545.0	43.96	43.65	40.43	39.60	45.62	69.81	54.97	44.14	51.68	176.2	386.1	113.6	35.33	30.78	26.86	22.23	20.36	18.13	16.18	16.11	15.12	14.75	13.82	14.28	14.19	14.12	13.50	13.65	14.21	13.83	13.88	13.14	11.87	11.10	10.30	9.386	8.512	7.801	6.713	6.452	5.950	5.533	5.396	4.931	4.561	4.451	4.476	5.684	5.752	3.971	2.812	2.499	2.387	2.226	2.126	2.117	2.199	1.810	1.639	1.692	2.406	4.214	8.774	50.94	214.4	212.5	22.32	1.201	0.981	0.879	0.992	0.882	0.860	0.825	0.836	0.904	0.888
550.0	45.09	40.62	38.41	35.63	37.34	52.83	59.40	42.03	39.37	75.92	266.4	270.6	58.15	25.90	22.79	19.71	17.55	15.81	14.41	13.97	13.02	12.85	12.39	12.04	12.48	11.88	11.83	12.03	12.10	11.73	11.84	11.15	10.53	9.532	8.658	8.068	7.371	6.719	6.072	5.708	5.283	4.990	4.678	4.501	4.041	3.812	3.747	3.948	4.970	4.586	3.336	2.448	2.268	2.082	1.906	1.890	1.985	1.809	1.632	1.529	1.630	2.023	3.008	12.42	57.37	158.5	208.7	76.55	4.215	0.908	0.866	0.863	0.893	0.829	0.788	0.876	0.834
555.0	40.45	37.63	35.03	32.30	31.12	36.26	52.83	44.15	33.18	41.39	105.2	301.8	220.7	22.58	18.89	17.04	14.91	13.30	12.59	12.05	11.01	11.04	10.41	10.22	10.47	9.902	9.704	10.34	10.22	9.940	10.24	9.269	8.790	8.226	7.174	6.511	6.392	5.791	5.032	4.811	4.644	4.177	4.120	4.038	3.712	3.339	3.185	3.054	3.570	4.052	3.843	2.650	1.976	1.978	1.768	1.731	1.692	1.671	1.666	1.420	1.435	1.324	1.589	3.647	13.66	36.77	98.17	225.8	28.95	3.363	0.917	0.856	0.887	0.846	0.768	0.759	0.940
560.0	41.78	36.35	33.72	28.93	26.79	29.97	45.25	47.46	31.06	30.86	46.45	202.1	369.2	32.88	16.86	15.11	12.81	12.04	11.04	10.03	9.328	9.188	8.995	9.053	8.585	8.538	8.303	8.632	8.852	8.402	8.484	7.832	7.796	7.035	6.264	5.745	5.611	5.190	4.567	4.181	4.017	3.817	3.767	3.445	3.374	3.030	2.876	2.731	2.742	3.283	3.788	3.057	2.082	1.881	1.574	1.595	1.598	1.611	1.582	1.427	1.348	1.274	1.253	1.662	3.946	9.024	24.66	127.5	195.3	26.27	1.452	0.847	0.834	0.801	0.735	0.808	0.826
565.0	38.83	35.70	31.88	27.56	26.06	24.47	35.06	44.95	30.91	25.94	30.09	98.32	377.4	86.55	15.05	13.11	11.06	10.78	9.647	9.131	8.545	8.454	7.887	7.921	7.438	7.701	7.113	7.486	7.681	7.385	7.150	6.868	6.579	6.026	5.654	5.158	4.749	4.410	3.888	3.765	3.496	3.412	3.310	2.911	2.989	2.778	2.481	2.565	2.302	2.581	3.098	3.112	2.244	1.667	1.595	1.548	1.505	1.381	1.426	1.572	1.333	1.277	1.202	1.168	1.750	2.874	6.323	34.35	145.5	168.3	19.74	1.069	0.865	0.817	0.840	0.842	0.823
570.0	37.43	31.82	27.73	25.51	22.51	20.82	24.39	35.09	34.83	22.90	22.75	39.25	200.1	195.7	32.41	11.08	9.474	8.974	8.098	7.389	7.194	6.832	6.512	6.477	6.273	6.343	6.187	6.246	5.974	6.025	6.062	5.747	5.300	4.940	4.587	4.209	4.026	3.759	3.301	3.219	3.063	2.899	2.661	2.604	2.473	2.413	2.211	2.181	1.984	1.859	2.099	2.728	2.439	1.875	1.414	1.324	1.418	1.251	1.297	1.272	1.260	1.182	1.089	1.031	1.166	1.385	2.199	8.404	38.71	110.8	139.0	45.31	2.779	0.850	0.818	0.855	0.817
575.0	36.09	28.81	28.01	21.92	19.16	19.85	18.98	24.94	34.52	23.84	18.38	21.03	66.82	181.9	94.87	10.43	7.954	7.122	6.369	5.837	5.998	5.288	5.273	5.192	5.276	4.991	4.935	4.895	4.797	4.867	4.890	4.659	4.460	3.895	3.621	3.335	3.340	3.106	2.845	2.619	2.494	2.339	2.277	2.122	2.092	2.147	1.887	1.828	1.602	1.555	1.624	1.873	2.253	1.936	1.383	1.276	1.228	1.207	1.162	1.130	1.094	1.138	1.117	0.992	0.926	0.991	1.111	2.621	9.336	25.84	64.15	129.5	27.77	2.213	0.837	0.802	0.790
580.0	35.25	28.85	25.25	22.32	16.87	17.03	17.73	18.88	30.16	28.15	16.40	16.15	26.15	109.2	178.5	23.72	6.757	5.855	5.943	5.362	5.015	4.624	4.804	4.464	4.499	3.948	4.196	4.183	4.224	4.081	4.022	3.764	3.537	3.189	3.095	2.965	2.892	2.574	2.415	2.275	2.121	2.039	1.977	1.959	1.854	1.881	1.644	1.631	1.476	1.314	1.315	1.419	1.842	1.994	1.529	1.279	1.072	1.089	1.099	1.000	1.009	1.139	1.078	0.987	0.951	0.949	0.932	1.327	2.786	6.451	16.19	73.22	112.4	22.60	1.196	0.831	0.883
585.0	35.77	28.06	23.91	19.96	15.31	14.92	15.63	15.81	24.19	29.84	16.50	14.15	15.42	50.24	175.1	71.40	6.324	5.303	5.001	4.507	4.139	4.068	4.111	3.918	3.969	3.606	3.726	3.847	3.505	3.627	3.590	3.316	3.079	2.962	2.727	2.718	2.522	2.184	2.285	1.996	1.857	1.764	1.762	1.679	1.640	1.603	1.479	1.474	1.219	1.188	1.143	1.168	1.356	1.867	1.566	1.304	1.154	1.041	0.976	1.013	0.921	1.097	0.963	1.076	0.881	0.890	0.865	0.944	1.236	2.113	4.354	19.96	81.65	96.76	15.26	0.880	0.851
590.0	35.12	27.50	23.53	19.15	15.38	14.14	14.01	13.93	16.59	27.77	21.23	13.11	11.95	19.53	92.15	148.8	24.84	4.639	4.171	3.900	3.752	3.593	3.475	3.347	3.366	3.007	3.038	3.062	3.010	3.088	3.166	2.794	2.697	2.496	2.331	2.169	2.197	1.978	1.902	1.821	1.668	1.549	1.632	1.470	1.497	1.405	1.342	1.276	1.129	1.074	1.029	1.092	1.161	1.446	1.523	1.442	1.151	0.968	0.980	0.935	0.909	0.944	0.887	0.965	0.941	0.868	0.808	0.853	0.903	1.058	1.633	5.087	21.96	63.40	79.61	18.51	2.320
595.0	33.96	26.67	23.16	18.04	15.31	13.92	12.41	13.31	13.45	21.17	24.42	13.61	10.89	11.45	30.45	120.3	100.3	5.275	3.731	3.480	3.183	2.988	2.872	2.753	2.782	2.572	2.473	2.687	2.630	2.610	2.689	2.431	2.181	2.159	1.972	1.731	1.789	1.733	1.662	1.468	1.414	1.390	1.404	1.367	1.259	1.225	1.072	1.060	0.973	0.884	0.790	0.989	0.960	1.064	1.240	1.287	1.177	0.979	0.885	1.005	0.822	0.781	0.833	0.877	0.968	0.865	0.829	0.869	0.829	0.807	0.913	1.680	5.469	15.00	36.43	75.48	26.47
600.0	32.96	25.43	20.87	17.58	14.35	13.04	12.96	12.90	12.11	16.48	24.52	17.92	10.50	10.43	12.94	66.52	147.0	18.71	3.400	3.111	2.995	2.783	2.653	2.616	2.679	2.516	2.247	2.407	2.476	2.531	2.232	2.185	2.056	1.782	1.746	1.661	1.595	1.419	1.550	1.275	1.236	1.260	1.217	1.203	1.190	1.133	1.075	1.082	1.017	0.881	0.828	0.857	0.885	0.874	1.029	1.150	1.253	1.000	0.979	0.860	0.741	0.821	0.783	0.818	0.879	0.900	0.806	0.822	0.812	0.764	0.819	0.977	1.839	3.862	9.445	42.27	75.87
605.0	34.15	26.17	20.70	17.74	13.10	12.95	13.51	12.45	13.04	15.23	23.16	22.69	12.59	10.97	10.29	29.74	131.6	59.78	3.137	3.001	2.782	2.538	2.418	2.324	2.392	2.218	2.306	2.200	2.109	1.985	2.190	2.031	1.982	1.785	1.596	1.472	1.389	1.415	1.401	1.311	1.228	1.218	1.122	1.189	1.030	0.982	1.013	0.941	0.901	0.773	0.750	0.839	0.830	0.839	0.833	1.036	1.195	1.112	0.943	0.821	0.803	0.846	0.761	0.770	0.791	0.886	0.806	0.831	0.839	0.757	0.829	0.837	0.973	1.409	2.668	11.80	51.67
610.0	33.59	27.58	21.63	18.15	14.55	14.95	12.70	13.30	14.90	15.59	20.31	26.36	18.05	12.48	10.38	13.59	66.01	117.7	22.66	2.814	2.463	2.270	2.307	2.136	2.003	2.021	1.895	1.917	1.945	1.952	2.008	1.757	1.743	1.618	1.464	1.337	1.244	1.218	1.196	1.174	1.204	1.048	1.028	1.142	1.023	0.913	0.950	0.869	0.774	0.777	0.703	0.748	0.737	0.772	0.839	0.824	1.041	1.117	0.993	0.859	0.796	0.795	0.767	0.775	0.744	0.770	0.821	0.851	0.757	0.762	0.754	0.775	0.809	0.906	1.221	3.286	13.95
615.0	32.31	29.06	20.05	18.51	15.10	14.35	13.56	13.02	14.58	14.65	17.18	23.19	22.41	12.25	10.52	9.137	22.66	89.55	85.57	3.856	2.267	2.180	2.027	1.922	1.911	1.817	1.814	1.901	1.769	1.840	1.753	1.587	1.645	1.445	1.322	1.201	1.134	1.122	1.147	0.971	0.994	0.916	1.011	1.022	0.950	0.832	0.822	0.830	0.702	0.657	0.649	0.719	0.709	0.667	0.740	0.738	0.825	0.986	0.999	0.869	0.738	0.734	0.801	0.766	0.736	0.778	0.735	0.837	0.842	0.759	0.722	0.835	0.765	0.793	0.885	1.277	3.675
620.0	32.92	29.25	23.17	17.64	15.57	13.80	13.65	12.27	13.48	13.86	16.40	19.87	23.80	13.88	9.988	8.554	10.52	47.43	118.2	17.17	2.108	2.116	1.967	1.821	1.703	1.733	1.579	1.833	1.623	1.614	1.619	1.465	1.622	1.418	1.157	1.129	1.099	1.064	1.056	0.929	0.959	0.903	1.009	0.930	0.898	0.874	0.790	0.842	0.682	0.633	0.660	0.663	0.746	0.707	0.761	0.689	0.697	0.842	0.959	0.899	0.855	0.738	0.703	0.741	0.746	0.736	0.763	0.784	0.874	0.777	0.822	0.793	0.732	0.756	0.758	0.903	1.518
625.0	31.73	28.80	21.96	17.72	15.05	14.05	14.37	13.38	13.92	13.56	14.70	17.39	22.40	16.83	10.35	8.532	7.476	19.83	100.6	51.84	2.337	1.952	1.857	1.728	1.756	1.577	1.472	1.522	1.604	1.526	1.459	1.395	1.391	1.263	1.227	1.200	1.131	0.963	1.043	0.921	0.891	0.886	0.896	0.865	0.863	0.843	0.744	0.813	0.708	0.606	0.626	0.746	0.655	0.692	0.684	0.660	0.760	0.659	0.865	0.929	0.872	0.753	0.698	0.735	0.668	0.721	0.751	0.830	0.845	0.804	0.744	0.817	0.713	0.719	0.630	0.799	0.917
630.0	33.86	27.60	20.79	17.52	15.11	13.40	13.38	12.70	13.48	13.37	15.29	15.02	18.74	19.40	11.28	8.368	7.358	8.752	45.89	91.75	24.40	1.865	1.615	1.537	1.567	1.469	1.392	1.478	1.453	1.433	1.319	1.309	1.216	1.151	1.126	1.035	0.986	0.958	0.944	0.910	0.892	0.886	0.831	0.815	0.836	0.777	0.702	0.750	0.714	0.596	0.576	0.660	0.651	0.690	0.667	0.663	0.710	0.721	0.806	0.795	0.839	0.756	0.713	0.720	0.709	0.745	0.752	0.773	0.869	0.749	0.756	0.873	0.766	0.725	0.740	0.723	0.756
635.0	34.21	27.83	19.39	17.97	13.99	13.84	13.35	11.92	12.53	13.26	14.98	15.29	17.29	18.94	13.26	8.563	7.251	5.947	13.69	63.61	103.7	3.288	1.512	1.445	1.480	1.439	1.344	1.318	1.328	1.323	1.281	1.304	1.172	1.136	1.075	0.977	0.870	0.894	0.827	0.846	0.837	0.854	0.806	0.821	0.757	0.743	0.657	0.689	0.698	0.597	0.584	0.622	0.641	0.619	0.709	0.607	0.663	0.717	0.681	0.721	0.819	0.817	0.734	0.741	0.763	0.792	0.775	0.821	0.785	0.753	0.834	0.789	0.811	0.775	0.738	0.718	0.803
640.0	34.14	31.97	20.77	18.00	13.59	12.15	13.06	12.76	12.37	12.69	13.93	14.94	15.24	17.01	15.87	8.957	7.293	5.593	5.560	30.19	136.5	18.42	1.614	1.593	1.404	1.293	1.287	1.323	1.298	1.279	1.263	1.181	1.108	1.063	0.921	0.982	0.900	0.857	0.814	0.899	0.800	0.784	0.763	0.779	0.802	0.635	0.717	0.726	0.671	0.581	0.569	0.691	0.533	0.568	0.645	0.615	0.649	0.699	0.653	0.737	0.668	0.826	0.718	0.740	0.724	0.706	0.714	0.739	0.783	0.827	0.742	0.823	0.781	0.733	0.751	0.788	0.795
645.0	35.17	31.34	24.03	17.43	12.88	12.91	14.01	12.83	11.50	12.93	14.23	14.18	15.17	14.79	15.93	8.754	7.007	5.317	3.613	11.13	104.5	50.80	1.797	1.411	1.387	1.327	1.119	1.247	1.163	1.246	1.226	1.254	1.181	1.077	0.897	0.938	0.925	0.851	0.888	0.842	0.763	0.859	0.769	0.813	0.713	0.754	0.662	0.701	0.653	0.609	0.590	0.625	0.537	0.587	0.588	0.622	0.660	0.669	0.627	0.646	0.674	0.750	0.657	0.710	0.695	0.787	0.696	0.734	0.756	0.825	0.757	0.824	0.806	0.734	0.724	0.809	0.775
650.0	33.31	30.48	23.57	17.83	13.40	12.39	13.06	12.41	11.01	11.84	13.48	14.40	13.49	13.00	14.94	10.58	6.668	5.200	3.279	4.544	51.74	100.5	5.695	1.445	1.277	1.175	1.211	1.163	1.147	1.273	1.140	1.110	1.118	1.015	0.976	0.934	0.881	0.847	0.820	0.822	0.765	0.776	0.767	0.831	0.707	0.700	0.696	0.709	0.661	0.613	0.520	0.666	0.562	0.592	0.662	0.621	0.644	0.677	0.662	0.633	0.726	0.710	0.723	0.730	0.710	0.785	0.725	0.720	0.735	0.752	0.692	0.811	0.743	0.778	0.741	0.777	0.767
