Sample:	'1
File name:	t2025011003淄博周村光大水务排口  4倍.FD3
Run date:	'16:05:40, 01/10/2025
Operator:	Administrator
Comment:	'

Instrument
Model:	F-2700 FL Spectrophotometer
Serial number:	23B8-004
ROM Version:	4J14000 07

Instrument parameters
Measurement type:	3-D scan
Data mode:	Fluorescence
EX  Start WL:	220.0 nm
EX  End WL:	600.0 nm
EX Sampling interval:	5.0 nm
EM  Start WL:	230.0 nm
EM  End WL:	650.0 nm
EM Sampling interval:	5.0 nm
Scan speed:	12000 nm/min
EX Slit:	5.0 nm
EM Slit:	5.0 nm
PMT Voltage:	700 V
Response:	Auto 
Corrected spectra:	Off
Contour interval:	50.000

Peak integration
Integration method:	Rectangular
Sensitivity:	1
Threshold:	1.000

Peaks
No.	ApexEX/EM(nm)	Height(Data)
1	225.0/645.0	122.2
2	230.0/500.0	378.8
3	235.0/340.0	4991
4	240.0/265.0	469.0
5	240.0/525.0	294.3
6	245.0/270.0	460.2
7	245.0/535.0	239.7
8	250.0/275.0	576.0
9	250.0/455.0	1131
10	250.0/550.0	187.3
11	255.0/285.0	657.3
12	255.0/560.0	146.0
13	260.0/575.0	130.1
14	265.0/590.0	122.2
15	275.0/315.0	4057
16	275.0/615.0	248.6
17	280.0/625.0	209.5
18	330.0/375.0	313.3
19	335.0/380.0	291.3
20	345.0/395.0	219.8
21	350.0/400.0	229.7
22	355.0/405.0	215.2
23	360.0/415.0	188.7
24	365.0/420.0	185.1
25	410.0/480.0	39.49
26	415.0/485.0	34.16
27	425.0/500.0	23.27
28	430.0/505.0	20.66
29	440.0/520.0	14.29
30	445.0/525.0	12.46
31	455.0/540.0	8.568
32	470.0/560.0	4.211
33	475.0/340.0	14.80
34	485.0/265.0	2.085
35	495.0/270.0	2.059
36	500.0/460.0	4.606
37	505.0/275.0	2.926
38	510.0/280.0	3.452
39	510.0/450.0	4.460
40	520.0/285.0	3.749
41	560.0/310.0	17.09
42	565.0/315.0	17.01
43	585.0/325.0	15.93

Data points
	220.0	225.0	230.0	235.0	240.0	245.0	250.0	255.0	260.0	265.0	270.0	275.0	280.0	285.0	290.0	295.0	300.0	305.0	310.0	315.0	320.0	325.0	330.0	335.0	340.0	345.0	350.0	355.0	360.0	365.0	370.0	375.0	380.0	385.0	390.0	395.0	400.0	405.0	410.0	415.0	420.0	425.0	430.0	435.0	440.0	445.0	450.0	455.0	460.0	465.0	470.0	475.0	480.0	485.0	490.0	495.0	500.0	505.0	510.0	515.0	520.0	525.0	530.0	535.0	540.0	545.0	550.0	555.0	560.0	565.0	570.0	575.0	580.0	585.0	590.0	595.0	600.0
230.0	80.19	1912	3008	707.2	23.45	6.428	4.217	4.073	4.293	3.578	3.924	2.858	2.978	2.441	1.674	1.951	1.536	1.267	1.018	0.895	0.824	0.833	0.664	0.986	0.573	0.402	0.463	0.683	0.580	0.413	0.372	0.330	0.348	0.346	0.341	0.334	0.288	0.270	0.259	0.253	0.345	0.480	0.438	0.320	0.225	0.281	1.986	6.333	9.769	6.183	1.633	0.326	0.161	0.160	0.143	0.158	0.144	0.132	0.115	0.124	0.097	0.111	0.115	0.106	0.086	0.107	0.103	0.096	0.075	0.094	0.110	0.083	0.086	0.096	0.095	0.074	0.088
235.0	130.4	541.9	2172	3856	596.1	43.02	4.931	5.702	5.095	4.104	3.884	3.057	3.021	2.675	1.804	2.157	1.823	1.320	0.990	0.989	0.833	0.846	0.697	1.031	0.602	0.409	0.478	0.685	0.571	0.450	0.340	0.330	0.366	0.261	0.331	0.296	0.319	0.307	0.250	0.261	0.255	0.341	0.492	0.563	0.413	0.333	0.617	1.717	4.781	7.648	9.468	7.188	3.192	0.491	0.169	0.155	0.140	0.133	0.161	0.106	0.094	0.092	0.093	0.120	0.092	0.090	0.097	0.124	0.081	0.099	0.089	0.105	0.081	0.096	0.077	0.080	0.085
240.0	233.1	230.8	700.1	4142	4044	476.8	15.67	6.974	6.442	4.551	4.243	3.218	2.954	2.333	1.914	2.400	1.765	1.592	0.948	0.957	1.116	0.771	0.768	1.097	0.652	0.501	0.447	0.708	0.638	0.405	0.356	0.303	0.368	0.383	0.343	0.273	0.222	0.359	0.212	0.228	0.277	0.274	0.330	0.454	0.584	0.591	0.419	0.631	1.304	2.588	6.345	12.50	13.72	7.659	2.822	0.285	0.158	0.167	0.140	0.139	0.116	0.114	0.094	0.121	0.085	0.171	0.111	0.093	0.083	0.119	0.094	0.092	0.089	0.105	0.099	0.072	0.093
245.0	178.2	268.0	225.1	1590	5379	3956	295.4	10.40	8.092	5.704	5.781	3.556	3.231	3.077	2.189	2.401	1.623	1.833	0.981	0.868	1.068	0.779	0.704	1.166	0.710	0.490	0.453	0.637	0.650	0.382	0.395	0.344	0.360	0.395	0.354	0.329	0.257	0.294	0.308	0.221	0.256	0.260	0.304	0.363	0.424	0.636	0.840	0.639	0.568	0.763	1.713	5.052	12.06	18.08	17.51	8.567	1.513	0.201	0.153	0.153	0.122	0.129	0.128	0.095	0.105	0.158	0.116	0.093	0.106	0.113	0.086	0.089	0.112	0.116	0.084	0.071	0.095
250.0	63.99	202.1	301.3	456.8	1910	6088	4419	1184	60.63	8.265	7.834	4.379	4.337	3.430	2.751	2.656	2.147	1.660	1.132	1.024	1.078	0.952	0.837	1.136	0.768	0.490	0.497	0.744	0.743	0.482	0.381	0.327	0.362	0.340	0.368	0.349	0.273	0.341	0.300	0.286	0.254	0.231	0.238	0.295	0.290	0.378	0.508	0.774	0.934	0.849	0.722	1.344	3.127	6.682	12.95	22.06	21.36	14.56	6.841	1.366	0.245	0.181	0.143	0.136	0.128	0.144	0.137	0.097	0.118	0.105	0.078	0.093	0.107	0.098	0.104	0.094	0.123
255.0	33.44	69.22	241.4	419.5	516.1	1676	4425	8158	1821	45.62	11.23	6.106	6.043	4.736	3.413	2.778	2.223	1.794	1.561	1.152	1.201	1.053	0.759	1.261	0.688	0.579	0.601	0.808	0.582	0.542	0.493	0.393	0.414	0.425	0.395	0.355	0.333	0.344	0.326	0.340	0.266	0.269	0.244	0.280	0.253	0.248	0.312	0.404	0.569	1.028	1.385	1.276	1.080	1.693	3.121	5.585	9.811	19.70	30.23	22.48	12.41	1.284	0.167	0.158	0.136	0.134	0.172	0.112	0.097	0.116	0.072	0.086	0.110	0.106	0.138	0.130	0.118
260.0	26.30	34.19	94.80	392.3	380.5	433.7	1466	8520	9999.9	283.9	27.76	9.547	6.618	5.096	3.617	3.324	2.544	2.188	1.752	1.295	1.211	1.059	0.822	1.287	0.891	0.566	0.696	0.766	0.651	0.507	0.502	0.459	0.488	0.402	0.467	0.356	0.294	0.328	0.346	0.410	0.303	0.328	0.267	0.291	0.324	0.259	0.275	0.228	0.312	0.512	1.043	1.908	1.499	0.951	0.960	1.494	2.448	5.674	15.66	29.01	48.90	20.97	7.664	0.693	0.147	0.118	0.175	0.152	0.133	0.115	0.102	0.109	0.135	0.134	0.131	0.116	0.121
265.0	26.65	31.73	34.16	192.9	469.0	283.1	374.4	3192	9999.9	8670	221.9	13.69	8.891	6.291	4.507	4.198	2.898	2.267	1.619	1.470	1.393	1.258	0.857	1.394	0.800	0.604	0.694	0.895	0.808	0.557	0.543	0.531	0.481	0.484	0.556	0.449	0.309	0.304	0.370	0.398	0.301	0.341	0.285	0.293	0.334	0.391	0.258	0.240	0.236	0.278	0.436	1.136	1.594	2.085	1.340	0.724	0.812	1.527	3.888	9.222	31.36	40.14	32.26	17.70	3.716	0.287	0.202	0.176	0.174	0.115	0.128	0.104	0.118	0.140	0.119	0.132	0.112
270.0	33.14	35.09	26.81	69.10	245.4	460.2	311.0	780.3	4367	9999.9	9999.9	816.8	43.89	9.594	6.027	6.075	3.808	2.851	1.967	1.834	1.558	1.444	1.189	1.627	0.929	0.704	0.696	1.088	0.934	0.525	0.601	0.635	0.505	0.528	0.492	0.551	0.362	0.372	0.388	0.402	0.330	0.336	0.322	0.343	0.321	0.343	0.252	0.302	0.259	0.266	0.249	0.463	0.630	1.215	1.765	2.059	1.570	0.946	1.207	2.321	7.553	12.41	25.97	35.38	39.26	34.66	12.92	3.620	0.393	0.199	0.162	0.148	0.141	0.161	0.164	0.168	0.144
275.0	69.10	52.15	44.61	47.69	82.04	242.0	576.0	407.1	1039	2670	9999.9	9999.9	1141	32.92	9.938	8.146	5.105	3.852	2.736	2.323	2.104	1.779	1.271	1.732	1.023	0.872	0.802	1.019	0.961	0.661	0.657	0.556	0.563	0.572	0.575	0.650	0.409	0.499	0.393	0.345	0.417	0.389	0.395	0.366	0.354	0.429	0.283	0.399	0.305	0.284	0.291	0.285	0.297	0.484	0.723	1.208	2.467	2.926	1.868	0.956	1.964	3.065	6.184	8.371	13.69	31.87	58.92	32.59	19.75	3.596	0.311	0.222	0.171	0.170	0.253	0.150	0.200
280.0	118.9	101.8	67.53	55.81	49.98	107.6	419.2	639.4	402.7	712.9	3275	9999.9	9999.9	156.7	18.34	10.96	5.840	5.015	3.458	2.793	2.017	1.971	1.300	1.835	1.176	1.015	0.865	1.216	1.056	0.713	0.791	0.585	0.602	0.622	0.698	0.737	0.537	0.615	0.550	0.516	0.509	0.460	0.428	0.457	0.516	0.448	0.441	0.426	0.387	0.276	0.341	0.283	0.239	0.290	0.426	0.628	1.108	2.172	3.452	2.619	1.452	1.146	1.958	2.313	3.675	8.440	23.07	48.58	67.76	31.06	15.30	1.558	0.304	0.246	0.239	0.193	0.224
285.0	211.1	182.2	111.3	67.35	52.39	75.67	198.3	657.3	604.2	380.4	970.5	3735	9999.9	7573	116.5	17.83	8.553	6.345	4.417	2.844	2.352	2.231	1.718	2.303	1.384	0.922	0.939	1.354	1.144	0.813	0.739	0.756	0.687	0.701	0.840	0.860	0.753	0.780	0.757	0.675	0.554	0.614	0.607	0.602	0.651	0.565	0.605	0.617	0.464	0.442	0.317	0.433	0.263	0.329	0.333	0.511	0.595	1.012	2.055	3.518	3.749	2.050	1.409	1.371	1.783	2.818	6.085	13.74	31.36	60.57	68.44	26.85	9.522	0.709	0.297	0.222	0.179
290.0	348.4	288.4	171.2	99.66	71.68	88.45	142.4	357.4	787.9	792.4	644.6	1181	3922	9999.9	9091	2349	31.79	9.853	6.125	4.015	3.088	2.708	2.164	2.676	1.485	1.035	1.147	1.403	1.390	0.904	0.922	0.793	0.759	0.982	1.183	1.238	0.938	0.904	0.903	0.813	0.652	0.784	0.857	0.827	0.887	0.893	0.805	0.841	0.653	0.546	0.494	0.442	0.365	0.399	0.429	0.565	0.628	0.773	1.059	1.825	2.872	3.747	4.009	3.226	2.281	2.264	2.956	4.569	8.363	16.66	29.38	48.33	61.52	53.67	18.60	7.684	0.942
295.0	469.5	418.7	270.6	178.4	125.6	142.0	192.1	317.2	583.1	1136	1111	809.6	1200	2626	7936	9999.9	695.3	35.29	9.785	5.791	4.190	3.424	2.503	3.410	1.629	1.364	1.346	1.597	1.484	1.018	1.016	0.979	0.878	1.304	1.346	1.488	0.966	0.967	1.169	0.956	0.803	0.957	1.009	0.991	1.106	1.034	0.962	1.029	0.896	0.851	0.679	0.592	0.545	0.594	0.743	0.663	0.780	1.004	1.210	1.505	1.969	2.460	3.597	5.210	5.867	4.299	2.950	3.171	3.668	5.135	7.521	11.78	16.80	35.32	65.45	74.28	30.09
300.0	662.1	654.7	474.7	329.9	271.4	276.8	376.6	446.3	801.1	1261	1869	1375	1042	1108	2578	9999.9	9999.9	518.5	24.56	8.423	5.292	4.865	3.304	4.074	1.890	1.676	1.576	2.007	1.647	0.852	1.118	0.878	1.103	1.451	1.417	1.484	1.312	1.246	1.219	1.204	1.178	1.168	1.160	1.337	1.472	1.453	1.382	1.379	1.432	1.219	1.065	1.160	1.043	0.940	1.145	1.245	1.439	1.734	2.323	2.167	2.709	3.295	4.315	5.326	7.060	8.230	7.214	5.341	5.006	4.476	4.534	5.316	6.109	10.47	21.27	46.10	76.20
305.0	1005	1122	959.7	679.3	551.1	568.6	867.2	1136	1622	2183	2943	3161	1636	1405	1543	4362	9999.9	5341	80.47	14.64	7.637	6.329	3.912	4.823	2.169	1.940	1.794	2.118	1.930	1.267	1.269	1.069	1.254	1.547	1.746	1.774	1.700	1.575	1.611	1.544	1.504	1.521	1.735	1.916	2.348	2.307	2.288	2.673	2.583	2.090	1.966	2.042	1.861	1.807	2.229	2.397	2.930	3.632	4.541	4.710	5.861	6.625	7.886	9.366	10.41	11.70	13.88	13.30	11.52	9.261	8.340	7.580	7.474	8.773	10.25	15.56	31.11
310.0	1451	1684	1550	1118	894.9	954.4	1300	1686	2182	2862	3476	4026	3480	2531	2136	2284	4654	9999.9	8380	1578	26.51	9.433	5.465	6.588	2.964	2.440	2.144	2.726	2.211	1.606	1.308	1.138	1.476	1.673	1.836	2.006	1.968	2.010	1.803	2.075	1.882	2.034	2.138	2.270	2.880	3.399	3.661	4.058	4.005	3.223	2.932	3.367	3.025	2.942	3.369	3.549	4.484	5.408	6.418	6.814	7.949	8.987	10.49	12.01	13.05	13.49	15.19	16.55	17.09	15.86	13.34	11.54	10.69	11.02	10.03	10.26	13.20
315.0	1783	2282	2159	1585	1238	1227	1535	1934	2334	3019	3612	4057	3975	3423	2563	1974	2415	3055	6679	9999.9	516.9	27.42	8.501	9.622	3.688	2.826	2.785	3.386	2.508	1.836	1.615	1.315	1.691	1.757	1.864	2.058	1.913	1.857	1.973	2.366	2.015	2.261	2.462	3.026	3.487	4.289	4.665	5.566	5.605	4.440	4.111	4.432	4.102	4.099	4.151	4.625	5.745	6.609	7.433	7.882	8.409	9.462	11.09	12.20	13.30	14.36	15.82	16.33	16.79	17.01	16.77	15.88	13.71	13.06	10.86	10.09	9.670
320.0	1968	2583	2475	1807	1391	1333	1671	2008	2350	2978	3615	4046	3924	3670	2960	1992	1957	1398	1903	8022	9999.9	428.4	16.10	13.39	4.623	3.258	3.039	4.005	3.029	2.086	1.676	1.382	1.414	1.803	2.031	2.021	2.091	1.944	1.958	2.272	2.304	2.581	2.837	2.948	3.790	4.698	5.431	6.465	6.521	5.367	4.583	5.052	4.388	4.521	4.800	5.036	5.705	7.076	7.815	7.958	8.598	9.799	10.96	12.10	13.11	14.82	15.23	15.69	16.89	16.86	16.26	16.30	16.12	15.04	11.98	10.76	9.156
325.0	2089	2799	2818	2094	1484	1345	1600	1934	2141	2712	3304	3760	3673	3325	3047	2044	1752	995.3	604.5	2362	9999.9	9246	61.29	24.07	6.053	3.835	3.538	3.902	3.383	2.110	1.901	1.399	1.500	1.908	2.044	1.941	2.048	1.942	2.069	2.319	2.291	2.675	2.630	3.036	3.855	5.082	5.909	7.039	7.066	6.091	5.515	5.764	4.810	4.632	4.603	5.007	5.765	6.898	7.149	8.004	7.705	8.487	10.06	11.38	11.98	12.90	14.08	14.83	16.01	15.66	15.21	14.46	14.88	15.93	13.40	11.10	8.720
330.0	2271	3328	3689	3047	2216	1571	1527	1743	1881	2330	2857	3283	3284	2960	2659	2119	1701	903.2	392.7	671.3	2982	8804	6969	1789	24.32	5.900	4.617	5.335	3.728	2.450	2.196	1.642	1.755	1.850	1.897	1.947	1.928	1.903	1.933	2.134	2.229	2.647	2.719	3.227	4.391	5.594	6.756	8.615	8.834	8.119	7.842	8.636	7.404	6.500	5.630	5.262	5.607	6.320	6.830	7.037	6.898	7.553	8.562	9.724	10.55	11.57	12.33	12.98	14.28	13.47	13.84	13.14	13.05	13.20	12.27	11.18	10.18
335.0	2514	3869	4742	4616	3656	2213	1617	1655	1715	2077	2547	2970	3058	2843	2490	2028	1903	1090	492.5	417.4	869.6	2201	5338	9999.9	1934	24.99	6.605	7.768	4.585	3.077	2.680	2.123	1.960	1.890	1.785	1.998	1.869	1.903	2.095	2.184	2.218	3.009	2.922	3.737	4.709	6.193	7.594	10.16	11.27	10.83	11.31	13.79	12.57	10.84	8.303	6.131	6.003	5.971	6.919	6.965	6.295	6.919	7.791	8.623	9.306	10.39	10.91	12.00	12.98	12.59	12.86	12.62	12.46	12.47	11.49	10.22	10.00
340.0	2514	3847	4953	4991	3986	2339	1548	1522	1530	1820	2243	2614	2748	2584	2275	1818	1714	1220	557.6	377.8	414.5	665.0	1531	9999.9	8368	380.3	15.14	9.509	5.598	3.360	2.982	2.176	1.926	1.888	1.887	2.052	1.626	1.929	2.131	1.977	2.273	2.626	3.057	3.764	4.636	6.245	7.648	10.37	11.34	11.30	12.10	14.80	14.26	11.86	8.935	6.115	5.650	5.623	5.980	6.344	6.025	6.248	7.021	7.658	8.225	9.090	9.677	10.49	11.73	11.22	11.64	11.59	11.59	11.34	10.15	9.464	9.237
345.0	2324	3595	4688	4689	3764	2158	1360	1318	1304	1545	1886	2217	2337	2216	1962	1563	1382	1119	639.9	360.4	298.6	313.5	489.0	3130	7989	3374	299.7	13.39	6.887	3.922	2.947	2.366	1.998	2.009	1.951	2.026	1.523	1.853	1.829	1.941	2.201	2.553	2.698	3.417	4.274	5.682	7.315	9.613	10.97	10.89	11.49	13.87	12.97	11.30	8.307	5.728	4.929	4.960	5.188	5.320	5.247	5.395	5.777	6.571	6.773	7.846	8.222	8.865	9.449	9.487	10.00	10.16	9.873	9.484	9.103	8.506	7.786
350.0	2053	3213	4288	4486	3699	2069	1222	1126	1098	1280	1554	1821	1941	1874	1668	1353	1161	894.8	691.8	473.8	302.7	251.5	269.8	814.4	2260	4407	5060	1423	22.95	5.529	3.856	2.719	2.326	2.079	1.964	2.059	1.553	1.771	1.790	1.637	1.890	2.201	2.461	3.120	3.987	5.135	6.368	8.775	10.12	10.25	10.93	13.43	12.47	11.20	8.212	5.368	4.679	4.579	4.292	4.497	4.559	4.479	5.114	5.502	5.851	6.454	6.590	7.256	8.141	8.160	8.499	8.521	8.429	8.193	8.006	7.262	6.970
355.0	1828	2809	3796	4048	3553	1967	1085	959.4	922.8	1046	1266	1484	1591	1561	1418	1163	991.2	745.7	557.3	544.1	389.3	247.1	226.7	300.3	553.2	1046	3429	9999.9	2119	26.80	5.693	3.123	2.855	2.238	2.232	2.007	1.718	1.873	1.713	1.708	1.797	1.950	2.178	2.656	3.521	4.587	5.720	7.558	8.712	9.278	10.00	12.24	11.82	10.66	7.706	5.016	4.346	4.051	3.717	3.845	3.929	4.076	3.883	4.410	4.811	5.267	5.077	5.982	6.290	6.518	7.223	6.880	7.349	7.019	6.568	6.378	6.052
360.0	1547	2334	3164	3503	3004	1706	947.7	813.7	791.8	875.0	1040	1212	1297	1278	1180	975.8	841.6	628.5	459.2	442.2	453.9	273.8	204.0	177.4	179.8	265.7	890.9	9161	9999.9	378.0	14.99	4.260	3.485	2.812	2.129	2.297	1.621	1.600	1.662	1.643	1.616	1.659	1.938	2.465	3.146	3.789	4.847	6.453	7.361	7.731	8.450	10.52	10.32	9.136	6.712	4.295	3.775	3.429	3.490	3.247	3.147	3.421	3.504	3.831	4.046	4.434	4.604	4.956	5.422	5.503	6.107	5.967	6.115	5.788	5.484	5.629	5.257
365.0	1267	2025	2688	2973	2593	1485	814.4	714.1	677.7	745.7	876.7	1019	1087	1079	983.7	828.9	716.0	554.3	406.7	352.3	403.4	351.0	210.2	146.3	102.3	96.41	226.7	2587	8649	6262	292.9	7.390	4.609	3.305	2.729	2.390	1.538	1.487	1.655	1.634	1.565	1.810	1.853	2.185	2.785	3.301	4.055	5.524	6.284	6.750	7.301	9.186	8.797	7.949	5.782	3.914	3.307	2.896	3.046	2.749	2.884	2.884	2.795	3.291	3.661	3.767	3.870	4.317	4.436	4.646	4.922	5.370	4.905	4.926	4.501	4.731	4.413
370.0	1107	1678	2246	2477	2224	1292	716.4	619.0	588.8	633.0	740.0	844.7	895.8	894.8	828.6	706.9	614.6	494.6	376.5	315.2	307.7	342.9	294.4	165.5	95.71	69.21	86.20	611.0	2342	5011	5105	1183	19.60	4.830	3.311	2.932	1.823	1.795	1.622	1.505	1.509	1.510	1.665	1.913	2.425	2.947	3.470	4.391	4.961	5.460	6.047	7.646	7.564	7.059	5.121	3.652	2.956	2.587	2.620	2.465	2.423	2.570	2.573	2.661	2.854	3.075	3.293	3.637	3.836	3.940	4.149	4.134	4.228	4.114	3.960	3.809	3.888
375.0	877.3	1361	1777	1972	1836	1097	639.7	542.3	512.4	546.7	621.8	692.2	749.4	738.8	679.6	596.3	528.0	432.1	342.0	297.5	263.4	261.4	313.3	245.6	118.4	77.58	68.52	178.3	553.2	1178	3555	6470	1748	23.03	4.709	3.500	2.093	2.126	1.641	1.487	1.528	1.546	1.422	1.683	2.172	2.436	2.630	3.458	4.104	4.541	4.985	6.247	6.036	6.036	4.535	2.965	2.547	2.498	2.419	2.168	2.277	2.177	2.317	2.316	2.510	2.690	2.691	3.114	3.047	3.154	3.272	3.369	3.529	3.359	3.293	3.216	3.206
380.0	738.9	1137	1479	1686	1544	987.5	589.5	502.4	473.1	491.0	561.2	599.4	645.3	637.8	585.5	523.6	462.2	387.3	326.3	283.9	248.4	230.6	256.7	291.3	167.4	92.90	75.34	89.30	164.7	295.3	942.8	4384	6582	316.3	13.60	4.823	2.505	2.229	1.692	1.701	1.598	1.397	1.424	1.642	2.011	2.060	2.500	3.033	3.290	3.680	4.185	5.522	5.446	5.293	3.796	2.834	2.306	2.034	2.226	2.050	1.881	1.930	2.088	2.152	2.253	2.228	2.302	2.581	2.610	3.018	2.649	3.102	3.306	2.837	2.977	2.896	2.878
385.0	649.3	967.6	1268	1455	1337	896.3	566.3	474.5	435.6	454.2	505.1	546.0	580.6	573.4	529.5	461.6	419.7	356.4	308.5	271.6	243.3	224.7	219.6	258.9	236.7	124.8	87.34	81.65	85.11	103.6	243.0	1239	5688	5635	246.6	7.714	3.222	2.661	2.061	1.857	1.512	1.463	1.419	1.596	1.738	1.932	2.137	2.791	3.008	3.275	3.603	4.741	4.520	4.696	3.463	2.567	2.439	2.024	2.042	2.037	1.924	1.957	1.920	2.057	2.047	2.070	2.336	2.433	2.508	2.491	2.375	2.701	2.915	2.536	2.487	2.670	2.637
390.0	587.4	840.3	1095	1228	1170	853.8	579.5	477.5	417.7	423.4	461.0	495.9	518.2	504.9	471.1	416.9	376.3	333.6	293.9	266.0	241.0	222.4	209.9	208.9	229.8	201.7	123.8	92.21	79.86	68.58	90.56	304.4	1581	4714	4125	1019	15.80	3.697	2.584	2.130	1.634	1.701	1.474	1.501	1.662	1.745	1.892	2.440	2.592	2.842	3.061	4.127	3.922	3.961	3.130	2.581	2.427	2.102	1.993	2.004	1.857	1.793	1.749	1.900	1.807	2.031	1.998	2.251	2.232	2.245	2.420	2.475	2.475	2.373	2.263	2.375	2.318
395.0	535.9	712.8	941.5	1047	1070	827.5	609.8	504.7	421.2	405.1	432.6	465.9	478.6	464.8	430.4	384.6	349.9	315.7	283.6	258.4	240.8	225.8	214.9	198.9	191.8	219.8	198.8	121.1	92.24	74.76	65.49	100.4	372.8	1108	2859	7315	1403	18.27	3.556	2.795	2.125	1.783	1.497	1.614	1.769	1.726	1.795	2.135	2.232	2.652	2.545	3.631	3.371	3.676	2.906	2.625	2.344	2.239	2.258	1.868	1.790	1.676	1.733	1.751	1.676	1.763	2.031	1.949	2.099	2.310	2.251	2.228	2.388	2.174	1.996	2.184	2.010
400.0	481.6	659.2	857.6	971.1	986.6	823.4	633.9	518.1	425.2	404.1	424.1	443.5	456.6	451.4	400.1	364.6	331.9	301.0	276.3	257.8	238.1	228.3	216.0	205.1	182.4	193.6	229.7	168.3	104.9	84.19	68.89	61.19	107.7	264.2	757.9	5223	4617	270.3	9.076	3.317	2.532	2.160	1.698	1.410	1.559	1.632	1.786	2.100	2.423	2.524	2.438	3.182	3.119	3.303	2.997	2.644	2.510	2.231	2.406	2.041	1.866	1.866	1.735	1.643	1.647	1.812	1.895	1.859	1.960	2.058	2.334	2.113	2.219	2.026	1.948	1.974	1.973
405.0	464.6	626.4	789.3	909.7	936.1	803.0	652.4	523.3	424.0	397.4	414.1	433.4	440.4	430.6	385.6	350.6	318.8	290.1	268.6	253.6	236.7	227.5	218.4	207.8	188.4	181.2	209.3	215.2	133.9	94.90	74.48	58.09	52.99	77.65	184.0	1487	3987	4192	198.6	5.189	2.840	2.390	1.645	1.459	1.715	1.671	1.672	1.915	2.346	2.213	2.376	3.051	3.257	3.178	3.048	2.659	2.675	2.392	2.449	2.023	1.999	1.624	1.725	1.668	1.689	1.656	1.783	1.836	1.640	1.920	2.003	2.014	2.100	1.959	1.910	2.137	1.937
410.0	425.6	576.8	715.4	824.4	877.2	812.4	679.6	552.0	431.6	395.9	405.7	419.4	422.6	408.1	364.6	337.5	302.5	277.6	259.9	245.1	234.0	222.5	218.8	207.7	191.9	181.4	180.3	202.1	188.4	121.9	86.42	63.04	46.30	41.78	57.57	346.3	1111	3480	3274	874.0	13.44	2.977	2.171	1.767	1.862	1.745	1.612	1.779	2.081	2.066	2.165	2.825	2.894	2.886	3.041	2.648	2.654	2.478	2.533	2.081	1.906	1.722	1.685	1.612	1.873	1.776	1.672	1.791	1.780	1.870	1.946	1.918	1.959	1.934	1.843	1.936	1.817
415.0	417.6	522.6	662.5	779.5	843.2	796.6	706.5	576.2	450.0	389.1	395.9	403.1	397.0	388.1	347.9	324.3	289.3	269.3	249.9	238.0	225.1	217.7	211.9	206.3	193.1	181.9	172.2	171.7	188.7	168.8	104.1	70.31	49.49	37.77	33.54	92.57	258.4	817.6	2313	4938	265.2	14.24	3.070	2.059	2.088	1.909	1.576	1.779	1.961	2.008	2.075	2.696	2.882	2.843	3.099	2.659	2.844	2.531	2.536	2.042	1.975	1.867	1.629	1.619	1.691	1.610	1.734	1.775	1.780	1.880	1.973	1.815	1.829	1.837	1.746	1.953	1.980
420.0	431.8	500.5	636.3	736.6	811.4	790.7	728.7	603.9	443.9	395.5	387.0	391.9	384.4	372.3	338.9	313.5	286.2	263.2	247.1	234.5	220.1	212.3	207.7	203.1	189.3	183.1	173.1	161.7	164.5	185.1	136.4	79.74	55.90	41.00	31.95	37.95	70.14	192.5	612.4	3663	3985	237.3	7.770	2.604	2.256	2.005	1.608	1.727	1.925	2.051	2.132	2.714	2.784	2.993	3.000	2.792	2.846	2.758	2.827	2.425	1.982	1.902	1.824	1.854	1.522	1.617	1.498	1.733	1.487	1.657	1.784	1.768	1.844	1.766	1.610	1.814	1.820
425.0	418.0	520.1	603.2	708.7	794.6	809.7	763.4	634.5	462.0	392.4	378.3	379.1	376.2	358.0	327.5	303.7	281.5	263.5	249.0	233.7	214.0	205.8	202.0	200.1	191.4	183.1	173.5	163.0	152.4	165.4	165.3	100.4	62.58	46.15	34.74	28.73	31.14	54.43	146.4	1077	3828	2166	34.81	3.819	2.726	2.167	1.713	1.770	1.892	1.940	1.893	2.838	2.662	2.831	2.936	2.904	2.905	2.875	2.744	2.505	2.236	2.021	1.793	1.716	1.655	1.732	1.594	1.686	1.662	1.686	1.802	1.771	1.679	1.877	1.750	1.629	1.779
430.0	516.1	504.7	607.1	705.1	811.0	854.6	831.8	712.7	513.5	407.1	363.7	367.8	365.6	351.6	327.9	309.6	288.5	268.1	252.7	235.2	210.3	197.3	196.5	194.6	188.4	183.3	174.9	165.3	153.2	148.4	155.5	137.6	84.86	55.10	41.19	31.97	25.74	25.90	42.61	249.3	1087	2797	2766	700.8	12.95	2.727	2.063	1.950	1.985	1.925	2.064	2.657	2.649	2.933	3.055	3.065	3.384	3.381	3.169	2.744	2.303	2.121	1.750	1.678	1.526	1.703	1.473	1.626	1.703	1.645	1.593	1.689	1.763	1.824	1.684	1.713	1.710
435.0	1001	531.3	601.4	711.3	838.2	924.0	927.3	792.1	571.0	423.4	363.9	356.9	359.0	350.4	328.4	315.0	296.4	279.0	267.9	242.7	208.2	189.9	188.5	190.5	186.2	183.0	177.5	170.3	156.4	148.1	138.3	138.2	122.6	72.59	49.69	38.10	29.29	22.57	21.43	64.78	249.0	658.0	1900	3596	1205	13.98	2.688	2.592	2.302	2.122	2.149	2.712	2.825	3.054	3.194	3.534	3.456	3.583	3.651	3.124	2.554	2.256	1.925	1.787	1.549	1.472	1.535	1.544	1.599	1.453	1.593	1.721	1.660	1.686	1.753	1.795	1.858
440.0	1494	672.1	593.0	716.8	886.2	977.2	1011	863.2	625.5	440.2	363.6	347.6	356.4	344.8	330.2	316.8	304.9	287.2	276.4	247.4	208.0	185.5	181.9	184.5	181.7	181.4	176.9	172.3	163.4	151.8	136.1	128.2	131.3	97.98	59.00	42.51	32.40	24.06	18.79	24.62	63.19	153.1	507.0	2677	4253	218.4	6.427	3.033	2.374	2.294	2.142	2.705	2.882	3.276	3.473	3.556	3.907	3.739	3.763	3.289	2.575	2.344	2.106	1.790	1.563	1.474	1.453	1.464	1.469	1.641	1.488	1.666	1.723	1.661	1.842	1.798	1.810
445.0	1708	1090	619.2	715.2	894.1	1026	1071	929.4	672.1	451.1	359.5	341.7	344.7	343.2	326.8	320.1	313.9	291.7	283.7	250.5	205.8	181.4	178.1	179.9	179.0	176.7	174.7	174.7	164.1	155.8	138.3	123.3	121.4	115.6	74.38	47.24	35.44	26.54	19.12	16.71	23.03	41.07	120.4	792.2	3823	1943	29.17	4.599	2.769	2.663	2.233	2.645	2.923	3.358	3.567	3.690	4.080	4.002	4.149	3.804	2.863	2.536	2.053	1.813	1.599	1.393	1.519	1.462	1.546	1.775	1.610	1.715	1.723	1.616	1.826	1.946	1.963
450.0	1190	2060	811.1	718.4	913.6	1057	1113	976.6	693.7	448.9	338.9	325.4	328.2	332.3	320.9	321.3	311.8	298.2	283.6	250.5	200.2	171.0	166.1	168.8	170.5	170.4	171.7	169.3	166.1	157.4	142.3	123.7	109.7	108.6	95.37	61.11	40.54	29.66	21.47	16.86	15.31	16.73	33.52	183.1	1070	2173	2195	655.9	10.84	3.076	2.484	3.001	3.022	3.486	3.799	3.831	4.273	4.360	4.460	3.979	3.178	2.582	2.089	1.778	1.521	1.528	1.402	1.336	1.502	1.539	1.596	1.629	1.616	1.819	1.876	1.730	1.923
455.0	618.1	2287	1416	722.6	871.0	1053	1131	995.2	689.4	437.2	322.3	301.8	311.8	316.5	308.7	312.6	305.3	294.1	277.3	243.2	189.1	157.9	151.8	155.3	158.4	158.4	162.9	163.8	160.8	154.3	141.8	122.6	105.5	92.25	91.09	79.22	49.10	31.70	23.20	18.28	14.37	12.45	14.72	46.42	243.4	511.9	1369	3088	206.0	11.97	3.007	3.061	3.160	3.345	3.785	3.748	4.531	4.389	4.370	3.908	3.182	2.886	2.164	1.713	1.502	1.350	1.331	1.368	1.204	1.522	1.562	1.438	1.527	1.640	1.766	1.637	1.811
460.0	435.2	1605	2448	864.4	863.7	1029	1110	996.2	692.3	429.7	296.3	283.7	294.0	296.3	290.9	297.8	295.6	281.9	267.4	238.2	182.3	149.1	141.3	146.1	149.8	151.5	157.3	156.0	154.0	148.2	139.3	120.5	102.7	87.89	79.02	81.24	60.05	35.13	24.07	18.96	14.70	11.84	10.72	16.09	59.86	118.9	354.8	2118	2689	170.4	7.752	3.379	3.250	3.490	3.819	3.763	4.606	4.365	4.125	3.876	3.192	2.732	2.159	1.796	1.416	1.477	1.435	1.306	1.280	1.479	1.339	1.408	1.499	1.536	1.563	1.617	1.763
465.0	388.6	887.5	2788	1430	834.0	993.0	1085	955.7	662.0	411.1	283.0	269.1	274.9	279.5	274.5	281.9	280.6	269.5	255.7	223.2	170.1	139.4	133.9	136.1	139.3	142.9	147.3	147.1	147.5	141.1	132.7	117.8	99.18	83.58	71.74	72.05	67.54	41.66	25.42	19.36	14.99	12.52	9.908	9.861	18.71	30.94	83.79	598.4	2503	2735	137.5	4.884	3.525	3.434	3.759	3.725	4.296	4.279	4.163	3.656	3.037	2.392	2.082	1.609	1.414	1.287	1.193	1.273	1.385	1.274	1.274	1.345	1.406	1.506	1.377	1.696	1.753
470.0	391.9	521.2	1791	2878	984.2	911.2	993.3	875.9	608.9	374.3	259.7	246.8	249.4	253.4	248.9	255.7	255.6	246.5	233.5	201.9	152.8	124.2	118.0	120.4	124.0	127.8	131.6	133.6	135.8	130.6	122.9	108.8	93.20	79.11	66.15	58.33	58.38	50.67	31.37	20.24	15.37	12.41	10.06	8.799	9.843	11.52	22.68	137.9	693.3	2220	1639	623.2	11.65	3.685	3.815	3.698	4.182	4.062	3.887	3.504	2.866	2.498	1.998	1.548	1.307	1.105	1.151	1.186	1.285	1.218	1.171	1.263	1.320	1.474	1.365	1.502	1.626
475.0	396.6	410.2	798.6	3139	2039	822.0	886.3	785.1	542.1	336.4	230.3	220.0	219.8	222.6	225.0	228.3	228.7	220.5	210.1	179.5	135.8	109.7	105.2	105.6	111.5	112.5	116.3	118.9	120.6	117.1	111.1	97.77	84.45	73.32	60.04	50.49	44.44	46.15	39.13	24.15	15.82	12.52	9.922	8.959	7.968	7.279	8.965	34.11	157.7	509.7	899.5	2149	210.4	14.31	3.703	3.345	3.945	3.716	3.453	3.178	2.708	2.130	1.619	1.464	1.205	1.016	1.138	0.995	1.100	1.190	1.159	1.039	1.261	1.172	1.160	1.180	1.354
480.0	379.5	400.2	487.7	2068	3244	954.4	820.5	724.9	506.3	307.9	210.6	203.6	196.7	203.2	204.6	209.0	210.0	200.2	191.0	163.4	122.8	98.36	94.81	96.03	100.1	103.9	106.4	110.0	109.8	108.6	101.4	92.73	79.08	68.73	56.54	46.92	38.76	36.38	39.49	29.49	16.85	12.64	9.985	8.675	7.553	6.744	6.204	11.24	38.31	117.0	224.7	1251	1685	196.7	9.331	3.560	3.858	3.522	3.299	2.919	2.338	1.892	1.559	1.303	1.102	0.999	1.046	1.074	1.066	1.075	0.999	1.036	1.038	1.151	1.016	1.227	1.259
485.0	333.1	403.5	393.2	1014	3633	1682	748.4	664.3	464.3	283.4	195.6	187.1	183.3	190.9	188.9	190.4	193.6	184.0	175.9	149.2	113.3	88.09	86.69	88.68	92.05	96.23	97.01	101.3	102.5	101.5	95.26	85.50	74.99	63.64	53.18	43.85	35.86	31.03	33.55	34.16	21.49	12.79	10.54	8.554	7.781	6.479	5.814	6.229	11.69	29.09	53.26	338.3	1427	1539	165.8	5.341	3.573	3.470	3.220	2.813	2.305	1.829	1.609	1.277	1.074	0.989	0.945	0.868	1.000	0.845	0.990	1.012	0.998	0.983	0.993	1.096	1.203
490.0	247.0	387.8	356.5	538.4	2351	3207	861.9	588.6	406.9	258.6	182.2	164.7	167.6	167.9	165.0	168.7	171.5	163.1	154.5	133.5	100.4	81.48	77.21	78.84	80.97	84.74	87.20	89.52	90.58	90.23	85.56	77.54	67.91	57.89	48.67	40.58	33.76	27.54	25.65	29.23	27.71	16.82	10.72	8.778	7.789	6.501	5.843	5.369	5.953	9.309	14.33	78.44	376.5	1003	1724	620.9	14.19	3.717	3.156	2.583	2.145	1.772	1.468	1.249	0.953	0.874	0.830	0.810	0.881	0.833	0.888	0.913	0.986	0.975	0.952	1.036	1.077
495.0	199.4	349.9	358.3	371.4	970.2	3192	1807	518.7	365.3	229.9	166.0	144.6	149.1	149.7	145.9	148.5	146.9	144.5	134.3	117.1	88.86	70.17	68.20	68.35	71.37	75.61	76.90	79.45	79.78	77.40	74.79	67.77	61.42	52.21	43.80	37.30	31.42	25.60	21.98	20.80	25.38	23.02	13.96	9.079	7.649	6.478	5.555	5.671	4.961	5.013	5.859	20.35	86.75	229.1	870.6	1858	853.3	19.85	3.250	2.507	1.878	1.622	1.362	1.094	0.898	0.740	0.714	0.864	0.770	0.927	0.804	0.759	0.777	0.975	0.892	0.832	1.053
500.0	186.0	291.7	378.8	322.9	517.2	2053	2914	593.0	321.3	205.3	149.4	133.4	134.8	129.3	133.2	129.3	130.1	128.5	120.3	104.1	79.48	63.94	61.02	62.76	64.66	67.54	68.95	69.53	71.82	70.28	67.13	61.55	54.58	47.49	40.85	34.58	28.95	23.77	20.16	18.12	19.47	23.27	17.69	10.45	7.915	6.549	5.631	5.257	5.026	4.446	3.930	7.084	21.97	53.82	210.9	950.3	1867	234.3	12.97	2.539	2.017	1.535	1.204	0.960	0.992	0.718	0.694	0.803	0.620	0.760	0.677	0.715	0.780	0.774	0.878	0.832	0.957
505.0	175.4	236.2	346.6	320.0	370.0	1021	3300	1108	296.2	186.0	136.1	120.1	117.9	117.7	116.6	115.4	117.2	113.2	107.2	93.04	70.58	56.82	55.28	55.79	57.01	59.88	61.64	64.59	65.22	64.36	60.93	56.31	49.23	43.03	36.12	31.76	26.75	22.56	18.76	16.14	15.15	19.10	20.66	12.82	8.438	6.617	5.797	5.334	4.971	4.446	3.635	4.397	7.434	14.46	50.20	240.8	1144	1812	201.4	6.598	2.139	1.557	1.168	1.044	0.897	0.726	0.645	0.699	0.651	0.708	0.757	0.696	0.716	0.620	0.821	0.772	0.849
510.0	134.3	170.8	268.9	330.3	295.9	491.3	2051	2667	489.8	157.8	115.9	102.3	101.7	100.7	100.2	101.7	100.7	96.17	89.27	77.87	59.95	48.78	48.28	49.34	49.99	51.58	52.27	55.20	55.66	55.43	53.08	48.08	42.87	37.75	32.30	28.16	23.69	20.52	17.14	14.73	13.59	13.63	17.28	16.39	10.45	6.909	5.636	5.121	4.468	4.286	3.893	3.731	4.116	5.693	13.69	56.15	284.1	968.0	1322	581.9	14.44	1.801	1.303	1.037	0.822	0.674	0.665	0.651	0.646	0.593	0.698	0.663	0.675	0.551	0.686	0.564	0.715
515.0	116.9	137.7	186.3	304.0	269.4	311.6	771.3	3271	1767	147.1	98.00	91.73	88.06	88.21	85.09	85.44	84.53	80.66	74.98	66.18	51.80	41.00	40.30	41.61	43.59	43.39	44.30	46.88	47.27	47.17	45.66	40.37	36.22	31.93	27.55	24.33	20.92	17.67	15.09	13.01	11.81	10.89	11.58	15.04	14.17	8.608	5.863	4.788	4.398	3.965	3.956	4.032	3.387	3.684	5.511	14.67	65.59	218.8	485.1	1380	725.0	21.45	1.602	1.215	0.823	0.653	0.721	0.587	0.658	0.552	0.624	0.532	0.597	0.562	0.582	0.588	0.646
520.0	98.74	126.1	142.9	258.2	286.6	250.2	379.0	2202	3403	244.0	88.89	82.72	77.97	77.23	74.15	74.05	72.52	69.81	66.19	56.92	46.82	36.30	35.45	37.19	37.82	38.25	39.40	41.05	41.68	41.26	39.99	36.38	32.49	28.39	24.70	21.70	18.82	16.17	14.25	12.00	10.61	9.757	8.834	11.34	14.29	10.88	6.499	4.738	4.181	3.878	3.560	3.643	3.386	3.057	3.415	5.241	16.67	51.03	113.5	591.9	1248	243.8	16.49	1.275	0.792	0.709	0.564	0.538	0.594	0.513	0.500	0.413	0.615	0.482	0.541	0.485	0.554
525.0	79.79	107.2	117.6	187.8	294.3	223.8	256.7	965.3	4222	856.6	83.74	75.58	70.27	67.75	63.58	66.46	63.84	60.86	57.67	49.78	40.01	33.61	31.93	32.21	32.72	34.09	35.81	35.44	36.96	35.84	35.04	32.03	29.46	25.02	22.63	19.45	17.45	14.64	12.65	10.53	10.16	8.833	8.100	8.770	12.14	12.46	7.759	4.956	3.897	3.734	3.336	3.298	3.439	3.086	2.786	3.142	5.758	13.48	27.21	142.4	637.7	1196	223.9	7.965	0.934	0.686	0.612	0.533	0.541	0.454	0.504	0.538	0.427	0.431	0.478	0.412	0.542
530.0	74.32	95.01	107.8	128.8	251.2	222.2	197.1	357.9	2692	2733	173.0	65.02	59.94	58.76	55.51	56.20	53.55	50.57	48.25	42.38	33.40	28.36	26.90	27.62	28.03	29.22	29.86	30.56	31.02	30.62	29.54	27.12	24.55	21.72	19.21	17.38	15.17	13.10	11.33	10.07	9.169	8.052	7.230	7.021	8.193	10.79	9.713	6.229	3.914	3.472	3.042	3.095	3.058	3.152	2.848	2.666	3.012	4.614	7.691	33.36	153.1	551.9	961.1	528.0	15.23	1.156	0.716	0.570	0.546	0.440	0.461	0.489	0.442	0.386	0.371	0.407	0.408
535.0	66.07	79.26	90.83	100.3	169.1	239.7	160.5	183.8	853.1	3492	1126	60.19	52.68	47.80	45.28	46.16	43.50	41.80	39.01	33.82	28.59	23.23	23.06	22.95	23.84	24.22	25.51	25.96	26.88	25.74	24.57	22.38	20.31	18.41	16.81	14.54	12.80	11.40	10.15	9.075	8.198	7.305	6.632	5.950	6.124	7.102	9.125	8.078	4.627	3.345	2.737	2.753	2.302	2.507	2.970	2.474	2.291	2.397	3.003	8.773	35.33	124.5	309.2	927.9	623.2	22.55	0.867	0.626	0.619	0.459	0.451	0.461	0.444	0.388	0.353	0.449	0.353
540.0	62.46	61.25	75.86	82.67	117.1	222.9	165.5	134.5	273.5	2233	2198	109.7	46.85	42.74	40.68	40.82	38.50	36.34	33.61	29.67	23.92	20.11	19.89	20.34	20.15	20.78	21.72	21.97	22.87	21.28	21.01	18.98	17.48	16.22	14.45	12.47	11.08	10.04	8.558	7.848	7.469	6.314	5.872	5.571	5.148	5.399	6.818	8.568	5.972	3.392	2.531	2.612	2.242	2.152	2.528	2.513	2.147	1.931	1.972	3.196	9.050	28.89	71.14	359.4	945.2	247.8	16.91	0.903	0.687	0.523	0.458	0.404	0.519	0.372	0.303	0.377	0.402
545.0	46.72	52.90	65.55	71.66	91.96	184.8	181.2	105.6	122.6	884.8	3379	234.3	43.37	38.79	36.00	33.97	33.71	31.58	30.08	25.89	20.66	17.62	17.79	17.99	17.81	18.34	18.83	19.14	19.43	19.76	18.73	17.10	15.43	14.35	13.44	11.38	9.798	8.656	7.941	7.311	6.755	5.606	5.228	5.002	4.573	4.307	4.833	7.431	6.735	4.030	2.750	2.322	2.208	2.159	2.114	2.173	2.285	1.925	1.728	1.836	2.982	7.420	16.79	84.50	441.2	860.2	216.3	8.011	0.699	0.603	0.448	0.353	0.421	0.362	0.432	0.318	0.327
550.0	43.97	48.63	51.57	62.98	70.62	113.1	187.3	103.6	76.50	254.8	2102	1580	101.9	31.91	29.73	28.77	27.36	25.49	23.87	20.58	16.90	14.65	14.33	15.44	14.44	14.93	15.49	15.77	15.61	15.83	15.07	13.80	12.54	11.86	10.74	9.354	8.328	7.510	6.808	6.236	5.499	5.172	4.527	4.375	4.032	3.782	3.653	4.745	6.252	5.207	3.182	2.141	1.987	1.975	1.756	1.786	2.108	1.991	1.562	1.336	1.552	2.488	4.562	19.71	104.1	362.9	582.3	421.0	16.73	0.895	0.414	0.343	0.443	0.327	0.345	0.276	0.376
555.0	42.25	45.30	44.64	52.98	55.55	68.49	142.5	125.9	59.56	93.11	602.3	2138	734.0	28.43	25.07	24.31	21.44	19.61	19.33	17.53	13.87	12.37	11.92	12.05	12.14	12.41	12.24	12.71	12.98	12.76	11.84	10.81	10.19	9.270	8.318	7.380	6.807	6.373	5.425	4.945	4.546	3.949	4.030	3.709	3.426	3.101	3.018	3.075	3.887	4.992	4.067	2.313	1.756	1.714	1.495	1.330	1.574	1.734	1.630	1.212	1.022	1.264	1.722	4.943	23.76	81.61	171.1	623.6	525.1	22.90	0.822	0.473	0.412	0.318	0.283	0.202	0.308
560.0	36.07	41.10	40.30	45.46	48.26	55.85	95.29	146.0	58.86	56.58	172.3	1416	1557	71.10	23.10	20.33	17.75	17.18	16.06	14.04	11.83	10.87	10.52	10.71	10.17	9.834	10.32	10.83	10.85	10.69	9.718	9.331	8.612	7.957	7.218	6.457	5.683	5.478	4.719	4.344	4.042	3.590	3.331	3.140	3.069	2.625	2.645	2.422	2.605	3.810	4.211	2.989	1.642	1.458	1.337	1.259	1.372	1.360	1.586	1.276	0.933	0.956	0.971	1.628	5.865	18.76	39.16	221.2	690.5	241.1	15.27	0.498	0.525	0.373	0.219	0.270	0.284
565.0	38.02	38.24	39.62	36.56	38.78	45.45	65.63	144.6	70.52	49.28	74.61	567.0	2479	166.3	20.95	17.20	15.19	14.61	13.12	11.54	9.915	8.980	8.500	8.818	8.566	8.488	8.963	9.104	9.324	8.787	8.629	7.652	7.144	6.842	6.069	5.672	4.675	4.777	4.393	3.891	3.471	3.141	2.855	2.794	2.701	2.380	2.215	1.994	2.017	2.659	3.622	3.218	1.816	1.252	1.197	1.078	1.166	1.183	1.321	1.419	1.000	0.784	0.748	0.881	1.832	4.688	9.279	51.28	289.2	543.0	188.9	5.958	0.588	0.350	0.259	0.273	0.267
570.0	45.61	40.32	33.59	31.64	29.91	37.70	44.88	104.5	108.3	53.57	55.65	173.8	1617	1258	61.30	13.97	13.00	11.67	10.82	9.361	8.174	6.995	6.984	7.295	6.655	6.954	7.113	7.162	7.384	7.253	6.765	6.111	5.816	5.325	4.698	4.565	3.856	3.638	3.355	3.194	2.816	2.704	2.509	2.351	2.284	1.973	1.861	1.702	1.718	1.757	2.252	2.882	2.360	1.412	1.103	0.956	1.018	1.000	0.921	1.112	1.190	0.894	0.712	0.639	0.833	1.538	2.583	11.95	67.27	208.9	353.8	203.0	16.19	0.627	0.317	0.280	0.234
575.0	42.62	37.99	28.06	25.66	22.97	32.26	35.48	60.74	130.1	70.93	54.24	74.10	489.8	1840	528.9	12.75	10.35	10.24	8.359	7.265	6.503	5.660	6.025	5.742	5.608	5.218	5.597	5.797	5.838	5.467	5.494	5.039	4.881	4.256	3.892	3.571	3.131	3.095	2.797	2.705	2.408	2.246	1.974	2.185	1.878	1.684	1.580	1.511	1.411	1.368	1.455	1.890	2.508	1.799	1.241	0.816	0.824	0.917	0.738	0.838	0.950	1.277	0.813	0.681	0.640	0.808	1.091	3.079	15.47	46.95	98.44	316.3	260.6	21.75	0.490	0.252	0.213
580.0	45.01	43.95	33.22	27.24	24.71	27.11	32.18	45.06	114.9	94.16	55.72	55.62	140.4	1278	1119	27.61	9.523	8.625	7.375	6.461	5.899	5.189	5.026	4.742	4.091	4.625	4.868	4.423	4.652	4.649	4.755	4.266	4.054	3.779	3.425	3.007	2.854	2.557	2.279	2.213	2.063	2.030	1.644	1.630	1.598	1.526	1.471	1.397	1.305	1.129	1.025	1.359	1.901	2.095	1.368	0.748	0.763	0.772	0.688	0.712	0.751	1.056	1.022	0.658	0.616	0.566	0.708	1.109	3.860	10.90	22.59	109.0	400.2	215.1	12.86	0.335	0.263
585.0	49.79	40.50	32.25	26.26	22.94	23.97	29.25	36.36	83.25	121.0	62.12	53.25	57.38	504.7	2047	100.6	8.493	7.810	6.133	5.545	4.934	4.215	4.416	4.209	3.615	4.127	4.036	3.937	4.304	4.099	3.801	3.541	3.278	3.289	2.992	2.607	2.506	2.238	2.040	1.828	1.713	1.748	1.465	1.454	1.461	1.405	1.281	1.163	1.049	1.010	0.850	0.999	1.375	1.888	1.578	0.857	0.732	0.617	0.614	0.705	0.556	0.812	1.062	0.809	0.664	0.549	0.615	0.695	1.247	2.820	5.448	25.25	162.3	381.5	154.0	5.087	0.323
590.0	46.60	40.16	32.26	23.91	20.74	22.74	27.34	32.99	55.80	122.2	85.32	54.29	41.33	137.6	1380	860.8	28.63	6.880	5.572	4.443	4.148	3.690	3.368	3.632	3.034	3.252	3.314	3.338	3.378	3.190	3.247	2.919	2.750	2.553	2.388	2.245	1.976	1.834	1.673	1.484	1.492	1.547	1.265	1.283	1.165	1.221	1.113	0.969	0.972	0.821	0.725	0.743	0.844	1.302	1.508	1.258	0.818	0.546	0.552	0.597	0.501	0.591	0.744	0.857	0.787	0.606	0.522	0.534	0.644	0.953	1.523	5.927	37.53	145.5	275.5	136.7	14.69
595.0	42.62	43.76	34.08	24.37	21.39	23.17	26.80	32.66	49.18	93.53	115.7	60.12	41.08	49.26	400.5	1380	238.0	7.634	4.890	3.933	3.210	2.836	3.162	3.095	2.683	2.473	2.888	2.809	2.503	2.653	2.399	2.353	2.197	2.247	1.901	1.957	1.458	1.321	1.305	1.277	1.280	1.127	1.091	1.015	1.003	0.966	0.890	0.814	0.748	0.613	0.686	0.614	0.635	0.694	1.157	1.318	1.025	0.646	0.508	0.493	0.468	0.538	0.550	0.679	0.908	0.820	0.518	0.542	0.535	0.507	0.618	1.592	8.690	32.76	76.26	189.7	218.1
600.0	55.78	44.90	38.70	29.98	26.04	27.41	30.02	40.55	49.97	78.14	133.5	80.59	50.27	36.78	112.7	985.3	704.1	18.43	4.741	3.858	2.675	2.792	2.615	3.063	2.333	2.133	2.207	2.567	2.205	2.322	2.397	2.288	1.960	1.978	1.634	1.660	1.319	1.284	1.249	1.271	1.248	0.947	1.039	0.951	0.839	0.854	0.841	0.704	0.671	0.579	0.518	0.579	0.616	0.573	0.790	1.112	1.207	0.740	0.568	0.520	0.477	0.419	0.525	0.609	0.757	0.896	0.633	0.598	0.496	0.403	0.432	0.680	2.236	7.506	17.40	64.48	270.3
605.0	59.94	53.31	44.28	32.11	28.75	34.62	39.13	53.25	63.38	91.13	149.2	124.1	74.32	51.94	61.57	423.7	1202	76.70	5.014	3.484	2.672	2.435	2.373	2.293	2.005	2.050	1.968	2.348	2.030	1.962	1.982	1.851	1.683	1.757	1.471	1.400	1.242	1.092	1.102	1.118	1.059	0.839	0.857	0.716	0.812	0.889	0.684	0.628	0.670	0.592	0.592	0.567	0.554	0.512	0.522	0.817	1.268	1.086	0.626	0.560	0.545	0.434	0.596	0.618	0.717	0.989	0.882	0.767	0.630	0.505	0.437	0.511	0.779	1.978	4.242	15.13	108.2
610.0	66.24	70.60	68.60	49.12	43.75	48.59	60.32	79.99	110.5	145.5	191.9	216.2	145.8	108.6	94.95	165.3	943.5	716.0	14.30	3.268	2.674	2.167	2.165	2.043	1.769	1.594	1.548	2.081	1.827	1.634	1.664	1.536	1.373	1.338	1.198	1.133	0.949	1.086	0.881	0.906	0.908	0.825	0.714	0.792	0.749	0.765	0.675	0.612	0.635	0.523	0.557	0.492	0.468	0.460	0.524	0.609	0.973	1.013	0.855	0.632	0.694	0.630	0.717	0.860	0.862	1.058	1.113	1.139	0.888	0.777	0.677	0.669	0.746	0.958	1.564	3.858	25.26
615.0	76.42	89.19	80.44	57.17	48.78	56.97	73.84	97.27	128.5	167.2	204.7	248.6	191.7	135.6	119.2	106.4	351.7	1233	76.77	3.737	2.274	1.903	1.890	1.912	1.455	1.353	1.500	1.808	1.328	1.396	1.458	1.312	1.068	1.187	1.181	1.001	0.897	0.819	0.819	0.678	0.753	0.812	0.627	0.752	0.713	0.651	0.623	0.677	0.572	0.519	0.485	0.522	0.465	0.446	0.522	0.494	0.724	0.898	1.072	0.786	0.818	0.761	0.742	0.988	0.891	0.967	1.058	1.103	1.293	1.025	0.930	0.678	0.776	0.856	0.844	1.295	6.089
620.0	79.43	86.66	86.13	61.74	52.73	59.94	77.51	100.3	122.6	162.0	189.5	227.5	208.1	138.6	116.3	93.27	149.8	944.8	426.2	6.788	2.271	1.785	1.702	1.603	1.319	1.250	1.301	1.626	1.141	1.357	1.140	1.008	1.129	1.014	0.889	0.813	0.853	0.736	0.584	0.609	0.653	0.670	0.581	0.641	0.559	0.562	0.523	0.618	0.550	0.487	0.415	0.445	0.397	0.368	0.558	0.477	0.595	0.715	1.109	0.873	0.714	0.805	0.757	0.853	0.915	0.948	0.954	1.096	1.221	1.099	0.953	0.828	0.681	0.763	0.626	0.805	1.805
625.0	80.23	99.20	95.87	67.72	51.68	58.10	74.19	93.72	118.6	153.1	180.2	206.5	209.5	142.2	116.9	88.66	98.85	425.1	748.9	42.75	2.352	1.821	1.740	1.663	1.093	1.074	1.237	1.393	1.028	1.242	0.952	0.796	0.862	0.812	0.814	0.692	0.818	0.690	0.610	0.664	0.607	0.608	0.523	0.495	0.494	0.603	0.484	0.570	0.509	0.506	0.524	0.412	0.368	0.404	0.481	0.419	0.479	0.580	0.880	0.766	0.781	0.771	0.691	0.792	0.907	0.865	0.928	0.976	1.223	1.117	0.944	0.745	0.639	0.749	0.711	0.634	0.781
630.0	82.13	104.5	101.1	71.86	54.80	61.38	76.29	91.71	112.3	144.5	173.4	191.7	199.5	155.8	116.3	85.78	84.75	138.4	585.8	407.0	6.897	1.732	1.612	1.511	1.028	0.943	0.962	1.272	0.831	0.920	0.851	0.736	0.779	0.635	0.657	0.670	0.621	0.643	0.545	0.582	0.477	0.469	0.474	0.432	0.484	0.516	0.470	0.493	0.496	0.443	0.464	0.430	0.376	0.398	0.423	0.361	0.374	0.591	0.692	0.804	0.665	0.746	0.695	0.693	0.780	0.833	0.877	0.922	1.016	0.924	1.000	0.796	0.684	0.781	0.692	0.592	0.515
635.0	83.40	118.0	106.6	79.12	60.25	60.34	76.58	94.32	107.9	134.2	169.3	183.0	180.2	169.2	122.7	86.12	80.73	62.10	189.1	784.5	59.50	1.755	1.433	1.273	0.973	0.835	0.876	1.027	0.742	0.828	0.824	0.680	0.713	0.660	0.684	0.566	0.455	0.482	0.455	0.422	0.489	0.486	0.446	0.346	0.388	0.598	0.479	0.520	0.563	0.395	0.393	0.414	0.374	0.350	0.364	0.409	0.415	0.494	0.564	0.653	0.667	0.666	0.632	0.650	0.711	0.846	0.828	0.813	0.915	0.911	1.003	0.816	0.859	0.675	0.585	0.538	0.463
640.0	88.00	119.0	111.8	84.56	62.35	58.45	75.86	93.77	103.9	130.7	162.2	177.3	173.8	166.3	124.7	85.55	79.76	44.50	52.94	617.4	341.4	3.279	1.573	1.200	0.897	0.673	0.838	1.026	0.686	0.752	0.657	0.580	0.677	0.578	0.579	0.465	0.411	0.463	0.453	0.377	0.438	0.444	0.424	0.398	0.381	0.465	0.439	0.525	0.523	0.408	0.443	0.408	0.357	0.347	0.369	0.387	0.407	0.486	0.509	0.567	0.674	0.682	0.672	0.784	0.650	0.739	0.798	0.907	0.867	0.937	0.837	0.872	0.817	0.708	0.589	0.607	0.459
645.0	86.06	122.2	105.0	73.84	62.13	59.85	72.79	88.10	98.27	121.8	150.8	166.1	164.3	155.1	130.9	80.23	75.89	40.43	19.43	278.6	592.5	23.93	1.819	1.237	0.856	0.715	0.734	1.003	0.711	0.632	0.618	0.473	0.555	0.553	0.554	0.385	0.423	0.448	0.415	0.424	0.328	0.434	0.449	0.329	0.418	0.378	0.424	0.541	0.510	0.370	0.386	0.395	0.416	0.437	0.348	0.383	0.367	0.445	0.420	0.520	0.537	0.651	0.648	0.760	0.700	0.781	0.699	0.865	0.819	0.793	0.822	0.750	0.856	0.796	0.591	0.498	0.451
650.0	81.07	112.9	107.1	72.18	55.76	59.18	65.92	82.06	90.89	109.6	136.3	151.5	150.9	141.0	127.1	76.86	69.80	36.71	11.26	81.50	650.6	148.6	1.879	1.278	0.941	0.639	0.687	1.064	0.464	0.680	0.662	0.533	0.580	0.556	0.527	0.383	0.405	0.413	0.440	0.315	0.352	0.328	0.426	0.300	0.404	0.383	0.391	0.472	0.449	0.421	0.324	0.378	0.312	0.387	0.290	0.286	0.302	0.452	0.509	0.369	0.409	0.504	0.616	0.634	0.671	0.663	0.727	0.783	0.756	0.680	0.769	0.721	0.663	0.840	0.639	0.555	0.416
