Sample:	'1
File name:	G2025062009»ôÆÂÇÅ.FD3
Run date:	'13:05:32, 06/24/2025
Operator:	Administrator
Comment:	'

Instrument
Model:	F-2700 FL Spectrophotometer
Serial number:	23B8-004
ROM Version:	4J14000 07

Instrument parameters
Measurement type:	3-D scan
Data mode:	Fluorescence
EX  Start WL:	220.0 nm
EX  End WL:	600.0 nm
EX Sampling interval:	5.0 nm
EM  Start WL:	230.0 nm
EM  End WL:	650.0 nm
EM Sampling interval:	5.0 nm
Scan speed:	12000 nm/min
EX Slit:	5.0 nm
EM Slit:	5.0 nm
PMT Voltage:	700 V
Response:	Auto 
Corrected spectra:	Off
Contour interval:	50.000

Peak integration
Integration method:	Rectangular
Sensitivity:	1
Threshold:	1.000

Peaks
No.	ApexEX/EM(nm)	Height(Data)
1	225.0/340.0	1159
2	225.0/580.0	72.18
3	225.0/600.0	57.44
4	225.0/625.0	50.71
5	230.0/345.0	1175
6	230.0/495.0	357.6
7	235.0/260.0	299.6
8	235.0/390.0	1001
9	235.0/405.0	952.7
10	235.0/510.0	289.7
11	240.0/265.0	355.3
12	240.0/525.0	248.9
13	245.0/270.0	416.6
14	245.0/535.0	202.5
15	250.0/275.0	537.6
16	250.0/550.0	170.2
17	255.0/285.0	548.5
18	255.0/560.0	137.7
19	260.0/290.0	512.3
20	260.0/575.0	107.4
21	265.0/295.0	654.6
22	265.0/395.0	796.1
23	265.0/585.0	97.60
24	270.0/300.0	934.1
25	270.0/600.0	88.24
26	275.0/305.0	986.3
27	275.0/340.0	910.2
28	275.0/615.0	74.14
29	280.0/345.0	909.5
30	280.0/625.0	65.84
31	285.0/320.0	918.8
32	285.0/635.0	49.71
33	290.0/325.0	836.1
34	305.0/345.0	558.6
35	315.0/355.0	461.4
36	320.0/365.0	448.3
37	460.0/340.0	3.340
38	485.0/265.0	2.028
39	505.0/275.0	3.168
40	510.0/280.0	3.313
41	515.0/285.0	3.401
42	530.0/290.0	3.178
43	540.0/295.0	4.463
44	545.0/300.0	5.022
45	550.0/305.0	5.387
46	560.0/310.0	4.947
47	570.0/345.0	4.522
48	580.0/320.0	5.217
49	585.0/325.0	5.062

Data points
	220.0	225.0	230.0	235.0	240.0	245.0	250.0	255.0	260.0	265.0	270.0	275.0	280.0	285.0	290.0	295.0	300.0	305.0	310.0	315.0	320.0	325.0	330.0	335.0	340.0	345.0	350.0	355.0	360.0	365.0	370.0	375.0	380.0	385.0	390.0	395.0	400.0	405.0	410.0	415.0	420.0	425.0	430.0	435.0	440.0	445.0	450.0	455.0	460.0	465.0	470.0	475.0	480.0	485.0	490.0	495.0	500.0	505.0	510.0	515.0	520.0	525.0	530.0	535.0	540.0	545.0	550.0	555.0	560.0	565.0	570.0	575.0	580.0	585.0	590.0	595.0	600.0
230.0	73.43	931.1	1453	335.2	13.62	6.289	5.028	4.576	3.726	3.451	2.993	2.873	2.294	2.196	1.791	1.533	1.439	1.234	1.215	1.024	1.049	0.905	0.805	0.736	0.719	0.709	0.644	0.638	0.605	0.578	0.555	0.558	0.508	0.478	0.380	0.441	0.398	0.436	0.414	0.410	0.465	0.562	0.451	0.388	0.358	0.372	1.511	4.192	5.217	3.080	1.008	0.368	0.260	0.311	0.293	0.278	0.283	0.316	0.284	0.308	0.292	0.282	0.289	0.288	0.313	0.258	0.296	0.316	0.260	0.305	0.296	0.291	0.308	0.312	0.307	0.296	0.318
235.0	104.5	289.2	1176	1597	372.1	17.28	6.170	4.347	4.036	3.688	2.847	2.621	2.580	2.393	1.857	1.591	1.371	1.266	1.301	0.892	1.016	0.848	0.720	0.730	0.745	0.700	0.649	0.611	0.688	0.722	0.717	0.524	0.532	0.503	0.393	0.433	0.371	0.454	0.421	0.430	0.412	0.424	0.454	0.544	0.560	0.432	0.598	1.344	2.730	4.485	5.720	4.405	1.873	0.607	0.290	0.316	0.363	0.308	0.252	0.315	0.269	0.323	0.295	0.307	0.400	0.339	0.267	0.309	0.317	0.296	0.293	0.281	0.358	0.290	0.286	0.363	0.354
240.0	160.4	135.3	412.9	1704	1524	274.4	10.81	5.135	4.488	3.922	3.280	2.657	2.412	2.541	2.149	2.007	1.269	1.297	1.178	1.078	0.989	0.785	0.948	0.852	0.811	0.650	0.655	0.549	0.626	0.634	0.655	0.563	0.520	0.440	0.429	0.438	0.331	0.461	0.411	0.368	0.389	0.395	0.476	0.509	0.673	0.692	0.513	0.595	0.898	1.550	3.792	7.727	7.806	5.264	1.642	0.355	0.292	0.338	0.343	0.289	0.258	0.304	0.302	0.303	0.318	0.288	0.276	0.294	0.254	0.278	0.343	0.251	0.328	0.283	0.320	0.309	0.319
245.0	143.6	175.9	146.1	710.3	2027	1419	174.7	7.180	5.287	4.298	3.635	3.398	2.775	2.359	2.040	1.654	1.795	1.373	1.232	1.164	1.044	0.881	0.825	0.888	0.741	0.833	0.676	0.711	0.581	0.670	0.596	0.608	0.521	0.495	0.466	0.445	0.375	0.489	0.396	0.394	0.331	0.350	0.439	0.425	0.521	0.758	0.832	0.614	0.509	0.592	1.126	3.171	7.121	11.33	8.910	4.033	0.969	0.389	0.319	0.313	0.275	0.332	0.316	0.287	0.288	0.306	0.281	0.276	0.287	0.299	0.312	0.277	0.326	0.309	0.275	0.313	0.311
250.0	68.92	162.2	211.4	227.3	758.3	1845	1937	221.1	24.02	5.829	4.610	3.897	3.260	2.422	2.125	1.891	1.728	1.492	1.411	1.113	1.103	0.923	0.941	0.902	0.670	0.758	0.676	0.680	0.663	0.714	0.646	0.551	0.451	0.473	0.484	0.449	0.381	0.480	0.395	0.404	0.387	0.373	0.402	0.413	0.429	0.493	0.602	0.791	0.967	0.732	0.610	0.978	2.022	4.235	6.808	9.266	11.14	8.868	4.207	1.111	0.329	0.321	0.342	0.339	0.268	0.351	0.314	0.279	0.310	0.319	0.317	0.335	0.293	0.327	0.284	0.288	0.317
255.0	37.93	63.25	178.1	284.8	234.4	530.0	2031	2627	283.8	21.39	5.584	4.850	3.771	2.665	2.263	2.056	1.823	1.539	1.261	1.089	0.987	0.996	0.841	0.859	0.680	0.747	0.711	0.683	0.633	0.712	0.610	0.634	0.491	0.464	0.482	0.419	0.390	0.483	0.401	0.508	0.357	0.395	0.422	0.404	0.377	0.435	0.392	0.443	0.686	0.792	1.064	1.224	0.890	1.256	1.879	2.552	5.372	11.90	18.30	15.15	6.174	1.095	0.312	0.303	0.359	0.325	0.296	0.318	0.301	0.280	0.357	0.320	0.321	0.304	0.308	0.367	0.300
260.0	36.36	33.23	78.34	299.6	252.1	176.4	714.3	2953	2289	217.4	12.10	5.080	4.931	3.573	2.639	2.572	2.201	1.374	1.390	1.110	1.202	1.017	0.933	0.895	0.907	0.822	0.695	0.670	0.619	0.710	0.656	0.618	0.556	0.519	0.514	0.466	0.482	0.421	0.436	0.507	0.356	0.449	0.402	0.355	0.308	0.382	0.414	0.377	0.404	0.491	0.845	1.563	1.422	0.926	0.792	0.899	1.640	3.616	9.367	18.53	21.35	14.38	3.910	0.569	0.386	0.348	0.332	0.352	0.320	0.352	0.305	0.341	0.290	0.293	0.303	0.381	0.316
265.0	33.01	27.11	35.45	166.4	355.3	209.9	219.7	1177	3843	1944	156.5	7.752	5.802	4.052	3.011	2.513	1.914	1.764	1.402	1.413	1.220	1.119	1.080	1.006	0.862	0.922	0.726	0.689	0.621	0.703	0.712	0.617	0.631	0.624	0.448	0.504	0.483	0.427	0.439	0.458	0.451	0.448	0.412	0.400	0.364	0.335	0.357	0.343	0.326	0.338	0.472	0.983	1.614	2.028	1.177	0.730	0.853	1.203	2.607	6.213	14.24	24.41	23.76	11.46	2.186	0.388	0.377	0.368	0.347	0.348	0.301	0.318	0.310	0.342	0.355	0.317	0.343
270.0	47.96	46.36	35.35	78.05	233.6	416.6	284.1	335.5	1395	3459	3425	634.9	24.75	5.129	3.947	2.927	2.212	1.687	1.725	1.524	1.289	1.154	1.012	0.943	0.908	0.919	0.795	0.795	0.717	0.789	0.690	0.667	0.614	0.651	0.610	0.490	0.482	0.484	0.400	0.425	0.405	0.444	0.429	0.410	0.437	0.438	0.383	0.405	0.373	0.326	0.324	0.591	0.841	1.389	1.938	2.027	1.857	1.155	1.164	1.816	3.767	7.875	14.22	20.96	23.67	18.75	10.31	2.213	0.415	0.381	0.393	0.363	0.295	0.344	0.351	0.351	0.407
275.0	98.87	87.33	84.93	76.43	135.6	292.9	537.6	297.3	363.2	937.6	3433	5541	800.3	19.00	5.802	3.860	2.514	2.276	1.897	1.613	1.485	1.217	1.013	1.093	0.969	0.953	0.968	0.805	0.855	0.766	0.701	0.750	0.633	0.630	0.741	0.585	0.547	0.536	0.499	0.557	0.538	0.521	0.466	0.468	0.549	0.535	0.449	0.537	0.522	0.379	0.389	0.514	0.546	0.883	1.053	1.661	2.537	3.168	2.126	1.128	1.270	2.254	3.618	5.245	8.355	18.37	35.00	28.76	13.98	2.174	0.431	0.398	0.371	0.290	0.334	0.370	0.306
280.0	167.3	161.0	125.2	110.5	116.7	195.6	426.3	532.0	209.8	266.5	1089	5118	5006	135.6	10.32	4.898	3.366	2.592	2.025	1.802	1.439	1.256	1.105	0.980	0.950	0.973	0.985	0.844	0.831	0.772	0.734	0.734	0.677	0.748	0.680	0.793	0.599	0.598	0.552	0.532	0.562	0.584	0.538	0.577	0.601	0.682	0.622	0.755	0.601	0.524	0.435	0.538	0.488	0.683	0.841	0.997	1.486	2.720	3.313	2.575	1.356	1.154	1.255	1.634	2.352	5.089	13.52	27.68	38.54	26.30	9.646	1.158	0.393	0.362	0.372	0.389	0.323
285.0	236.8	240.9	209.9	141.0	118.8	158.7	244.9	548.5	330.2	161.2	332.3	1735	5961	3859	94.78	6.845	4.404	2.596	2.401	1.829	1.648	1.520	1.051	1.222	1.091	1.098	0.936	0.840	0.857	0.732	0.687	0.744	0.673	0.708	0.723	0.849	0.735	0.735	0.614	0.658	0.637	0.595	0.642	0.713	0.734	0.821	0.878	0.839	0.770	0.604	0.539	0.604	0.577	0.689	0.760	0.977	1.102	1.437	2.134	3.401	3.219	1.821	0.938	0.988	1.051	1.788	3.640	7.935	18.75	34.37	34.53	21.20	5.245	0.586	0.394	0.428	0.342
290.0	331.3	353.1	298.8	191.3	130.7	144.1	173.5	285.4	512.3	444.5	243.8	539.9	1914	4382	3208	397.8	17.74	4.189	2.989	2.396	1.920	1.586	1.411	1.259	1.153	0.991	0.960	0.993	0.860	0.786	0.720	0.793	0.657	0.791	0.872	0.915	0.961	0.899	0.764	0.724	0.753	0.662	0.803	0.836	0.907	1.031	1.078	1.174	0.974	0.829	0.692	0.734	0.695	0.791	0.709	0.871	0.950	1.052	1.200	1.604	2.241	3.000	3.178	2.257	1.514	1.246	1.719	2.667	5.060	9.859	16.00	25.97	27.96	27.09	15.30	4.561	0.736
295.0	414.0	457.1	389.5	250.7	156.2	150.5	167.3	196.3	303.3	654.6	630.4	384.5	621.1	1174	2894	5054	535.0	14.07	3.992	2.819	2.248	1.939	1.637	1.549	1.323	1.202	1.044	0.927	0.849	0.898	0.791	0.746	0.720	0.848	0.955	0.907	0.985	0.864	0.922	0.840	0.787	0.771	0.809	0.871	1.061	1.157	1.224	1.336	1.415	1.065	0.835	0.905	0.798	0.822	0.785	0.805	0.884	0.998	1.032	1.222	1.220	1.742	2.463	3.724	4.463	2.844	2.099	1.892	2.486	3.308	4.538	6.789	8.055	15.98	32.99	34.99	22.05
300.0	445.0	513.7	446.7	293.3	182.3	167.0	182.1	211.3	268.0	487.4	934.1	590.5	414.2	446.5	888.2	4053	4321	82.95	8.212	3.523	2.911	2.433	1.827	1.640	1.286	1.296	1.147	0.933	0.968	0.945	0.816	0.875	0.775	0.755	0.940	0.967	0.825	0.974	0.866	0.841	0.891	0.832	0.903	1.027	1.176	1.282	1.254	1.429	1.493	1.242	0.958	0.935	0.881	0.833	0.846	0.861	0.996	1.175	1.079	1.198	1.277	1.511	1.784	2.432	4.175	5.022	4.014	2.513	2.116	2.189	2.304	2.558	2.874	4.517	10.63	21.99	39.20
305.0	498.7	561.3	486.0	316.1	205.8	192.6	224.4	260.2	321.3	434.6	806.5	986.3	516.3	355.1	354.8	1273	4557	3299	64.51	5.321	3.431	2.659	1.927	1.753	1.464	1.325	1.072	0.907	0.999	1.106	0.908	0.851	0.816	0.927	0.880	1.074	1.127	0.969	1.012	0.902	0.858	0.920	0.983	1.148	1.226	1.352	1.349	1.560	1.479	1.270	1.133	1.033	0.895	0.957	0.871	1.043	1.081	1.218	1.289	1.415	1.566	1.734	1.798	2.084	2.834	4.078	5.387	5.114	2.841	2.352	1.973	2.026	2.026	2.068	3.270	6.103	14.37
310.0	502.3	585.3	515.4	336.6	232.9	225.4	257.1	300.9	369.9	468.6	645.4	920.1	904.1	495.7	297.8	408.6	1376	3244	3263	291.1	15.09	3.599	2.447	2.079	1.633	1.548	1.171	1.174	1.040	1.174	0.895	0.853	0.913	0.958	0.861	1.054	1.117	1.021	1.011	0.898	0.956	0.917	1.064	1.149	1.294	1.421	1.496	1.535	1.474	1.332	1.098	1.159	1.057	1.176	1.058	1.202	1.241	1.448	1.504	1.643	1.698	1.845	2.051	2.337	2.582	3.068	3.593	4.559	4.947	4.638	3.501	2.648	2.074	1.926	1.752	2.321	4.096
315.0	554.5	633.2	528.8	386.1	274.9	259.3	285.9	354.5	417.7	524.9	639.7	746.2	881.9	868.6	412.2	268.9	420.8	820.3	2193	3962	431.1	12.19	3.657	2.725	1.948	1.780	1.388	1.274	1.150	1.404	0.955	1.047	0.855	0.857	0.891	0.957	1.047	1.083	1.003	0.927	0.905	0.942	1.103	1.053	1.192	1.556	1.676	1.714	1.538	1.392	1.323	1.217	1.235	1.301	1.278	1.269	1.515	1.546	1.607	1.812	1.849	2.219	2.438	2.497	2.820	3.137	3.209	3.557	3.703	4.530	4.881	4.891	3.452	1.973	1.810	1.790	2.083
320.0	620.1	716.7	595.7	424.8	307.9	288.9	329.9	392.7	476.3	575.8	684.1	752.0	775.7	918.8	673.9	303.5	251.0	282.3	621.1	2883	3451	64.41	6.660	3.613	2.535	1.974	1.499	1.436	1.224	1.537	1.007	0.941	0.928	0.878	0.911	0.871	1.052	1.025	1.031	0.979	0.965	1.094	1.330	1.365	1.388	1.739	1.600	1.902	1.727	1.569	1.296	1.430	1.311	1.385	1.412	1.337	1.530	1.652	1.692	2.025	2.105	2.291	2.570	2.970	2.979	3.034	3.091	3.591	3.494	3.999	3.991	5.004	5.217	3.855	2.618	1.879	1.880
325.0	686.1	833.1	762.6	539.9	359.6	341.1	360.5	421.3	512.6	619.7	722.5	787.5	767.4	791.3	836.1	463.4	257.8	192.6	220.3	854.6	3270	2753	53.37	5.036	2.831	2.523	1.580	1.638	1.262	1.554	0.960	0.955	0.876	0.854	0.789	0.887	0.966	1.097	0.945	0.975	1.069	1.222	1.193	1.303	1.620	2.006	1.989	2.175	2.265	1.788	1.578	1.652	1.478	1.650	1.464	1.499	1.605	1.686	1.817	2.143	2.076	2.300	2.660	2.971	3.250	3.286	3.449	3.480	3.923	3.850	3.508	4.055	4.707	5.062	4.151	2.771	2.185
330.0	774.6	980.3	953.2	726.1	470.0	389.4	406.3	460.0	547.3	661.4	779.1	839.5	831.7	764.4	732.6	667.8	414.5	223.0	165.3	269.3	954.2	2455	2624	243.5	14.86	3.092	2.084	1.808	1.449	1.659	1.165	1.084	0.938	0.932	0.962	0.925	1.017	1.091	0.900	1.055	1.065	1.097	1.260	1.498	1.678	2.129	2.355	2.667	2.770	2.314	2.024	2.071	1.920	1.794	1.740	1.573	1.865	1.999	1.963	2.216	2.318	2.769	2.969	3.237	3.289	3.575	3.786	3.699	4.009	4.041	3.888	3.753	3.993	4.112	4.253	4.241	3.688
335.0	831.6	1099	1076	908.7	578.4	454.0	452.2	498.4	595.7	707.0	833.3	887.7	880.5	813.1	698.1	619.7	627.6	366.3	201.1	174.5	285.1	609.4	1672	3373	383.6	13.47	3.080	2.121	1.766	2.071	1.207	1.205	0.940	0.990	0.916	1.018	1.046	1.043	0.934	1.007	1.172	1.160	1.233	1.563	1.832	2.419	2.490	2.898	2.919	2.624	2.453	2.545	2.168	2.294	1.937	1.987	2.051	2.153	2.064	2.277	2.479	2.762	3.130	3.446	3.317	3.759	3.867	4.019	4.237	4.046	4.205	3.966	4.121	3.981	3.618	3.711	3.811
340.0	865.1	1159	1148	1002	653.5	514.7	497.0	533.7	615.5	730.2	841.7	910.2	906.6	832.7	712.9	586.8	591.9	531.2	265.5	178.3	155.7	193.9	462.3	2365	2922	296.9	6.240	2.655	2.218	2.310	1.601	1.140	0.982	1.055	1.085	1.020	1.065	1.100	1.023	1.028	1.193	1.374	1.307	1.497	1.920	2.316	2.577	3.052	3.340	2.982	2.663	2.688	2.353	2.372	2.078	1.940	2.265	2.397	2.291	2.428	2.590	2.805	3.309	3.193	3.701	3.767	4.000	4.356	4.472	4.059	4.182	4.401	4.226	3.932	3.670	3.432	3.278
345.0	883.7	1118	1175	1080	703.6	566.4	520.5	555.5	643.0	733.3	846.0	904.0	909.5	840.5	731.0	586.8	523.1	558.6	398.3	210.5	149.6	123.9	158.3	687.5	2687	2374	48.59	4.232	2.333	3.105	1.651	1.382	1.075	1.041	1.047	1.088	1.039	1.043	1.218	1.043	1.096	1.245	1.147	1.514	1.906	2.319	2.438	2.937	3.193	2.883	2.821	3.010	2.408	2.702	2.187	2.123	2.335	2.298	2.416	2.592	2.593	3.081	3.238	3.237	3.621	3.843	4.168	3.932	4.224	4.172	4.522	4.285	4.422	3.935	3.899	3.553	3.359
350.0	850.0	1094	1154	1097	754.6	614.3	562.6	582.3	654.2	749.4	840.8	894.5	893.4	845.1	744.1	612.3	521.3	482.1	482.3	348.8	200.7	144.7	120.1	211.7	779.3	1984	2128	216.8	13.83	4.113	1.876	1.595	1.134	0.998	1.076	0.978	1.039	1.089	1.100	1.077	1.076	1.200	1.313	1.553	1.744	2.266	2.506	2.806	3.080	2.835	2.846	3.155	2.792	2.896	2.403	2.263	2.379	2.323	2.550	2.709	2.769	3.060	3.214	3.200	3.739	3.886	4.091	3.951	4.099	4.306	4.311	4.282	4.453	4.010	3.901	3.585	3.494
355.0	837.7	1043	1116	1073	806.0	662.9	603.6	627.5	682.6	745.7	836.5	882.2	881.0	843.7	746.6	638.9	549.9	478.7	434.2	461.4	329.2	200.4	149.0	135.7	226.7	494.5	1349	2562	346.9	16.76	2.514	2.008	1.338	1.222	1.076	1.078	1.010	1.024	1.032	1.088	1.197	1.225	1.326	1.455	1.737	2.325	2.458	3.069	3.040	2.902	2.779	3.135	2.874	2.834	2.574	2.377	2.586	2.640	2.869	2.697	2.802	3.085	3.405	3.647	3.438	3.546	3.960	4.127	4.048	4.150	4.223	4.189	4.434	3.992	3.862	3.729	3.827
360.0	785.5	1000	1082	1054	852.6	710.2	658.7	655.2	705.6	767.3	839.3	876.1	875.0	831.7	751.6	654.9	573.2	499.4	440.5	439.4	435.8	278.7	185.6	142.6	131.1	160.5	375.1	1826	2395	327.7	5.483	2.246	1.464	1.265	1.199	1.050	1.138	1.049	1.040	1.155	1.014	1.231	1.271	1.563	1.624	2.270	2.241	2.900	3.012	2.810	2.649	3.177	3.014	3.193	2.725	2.743	2.844	2.775	2.733	2.874	3.080	3.372	3.382	3.677	3.666	3.599	3.985	4.069	3.812	4.051	4.160	4.280	4.140	4.061	3.968	3.827	3.883
365.0	771.7	977.9	1072	1059	867.7	736.7	686.5	685.0	724.7	775.2	824.8	864.5	857.3	828.6	759.1	667.1	599.0	523.0	464.3	426.9	448.3	387.1	235.7	171.8	133.3	106.3	131.7	545.3	2237	3145	45.32	3.564	1.975	1.432	1.512	1.128	1.008	1.071	1.103	1.126	1.066	1.150	1.357	1.447	1.684	2.097	2.203	2.637	2.989	2.618	2.674	3.089	3.096	3.304	2.955	2.897	2.962	2.840	2.932	2.909	3.033	3.292	3.355	3.717	3.803	3.675	3.857	3.813	3.998	3.897	4.100	4.015	4.507	4.327	4.061	3.961	3.969
370.0	766.2	942.4	1027	1047	882.6	768.7	718.7	718.0	743.7	788.4	829.8	857.9	842.6	813.6	758.3	677.7	616.9	558.6	504.9	454.6	427.0	433.0	359.1	233.0	169.2	127.5	101.1	168.4	654.6	3826	1914	196.3	12.21	2.059	1.624	1.439	1.156	1.246	1.177	1.065	1.071	1.152	1.304	1.478	1.654	1.953	2.163	2.530	2.739	2.670	2.633	3.209	3.131	3.258	3.024	2.977	3.037	2.870	2.984	3.045	3.047	3.408	3.473	3.613	3.792	3.809	3.705	3.917	3.774	3.957	4.046	4.105	4.222	4.111	4.063	3.885	3.980
375.0	748.1	914.0	1016	1017	893.6	800.0	773.3	744.3	756.2	792.6	835.1	842.7	831.9	793.5	753.7	684.2	628.9	584.0	537.6	494.5	447.3	413.5	424.5	343.1	222.2	162.8	121.7	109.8	193.1	921.8	1256	2228	300.6	10.65	2.375	1.520	1.271	1.354	1.092	1.091	1.096	1.118	1.374	1.417	1.688	2.020	2.100	2.453	2.559	2.486	2.577	2.990	3.018	3.303	3.081	2.911	3.079	3.285	3.174	3.009	3.161	3.416	3.362	3.611	3.743	3.655	3.643	3.725	3.603	4.039	4.252	3.881	4.250	3.996	3.761	4.226	4.150
380.0	735.3	891.0	1004	1013	896.1	830.6	791.2	766.4	778.3	795.4	810.3	824.6	814.6	781.8	741.8	679.5	635.5	593.0	558.9	516.9	466.8	422.2	410.4	411.7	287.1	194.4	149.5	113.4	105.0	250.8	352.8	1658	1980	218.5	4.774	1.902	1.523	1.535	1.194	1.173	1.082	1.198	1.303	1.501	1.682	1.944	2.037	2.417	2.622	2.347	2.546	3.029	3.330	3.321	3.166	2.965	3.086	3.375	3.445	3.118	3.332	3.446	3.322	3.634	3.668	3.777	3.676	3.874	3.633	3.847	3.927	3.833	4.034	3.890	3.762	4.415	3.963
385.0	715.8	891.7	990.9	988.3	880.0	840.2	801.6	768.2	774.9	801.1	801.2	816.4	798.8	768.1	736.5	675.1	641.7	599.4	569.5	529.2	490.0	444.9	402.0	407.2	366.8	238.6	176.4	133.8	101.7	113.2	117.6	494.7	1859	1544	36.67	3.177	1.890	1.496	1.214	1.207	1.164	1.199	1.270	1.437	1.679	1.966	2.116	2.350	2.375	2.407	2.594	3.156	3.133	3.450	3.055	3.250	3.236	3.535	3.505	3.303	3.421	3.537	3.613	3.431	3.587	3.575	3.687	3.837	3.602	3.826	3.749	3.765	3.671	3.983	3.856	4.016	3.940
390.0	714.8	875.1	962.1	1001	901.7	851.6	814.9	776.8	779.0	790.5	798.1	801.8	778.3	755.0	716.0	670.8	632.2	605.7	576.2	546.1	505.6	465.2	422.8	393.8	385.6	328.8	229.9	170.1	131.4	107.3	81.65	148.6	546.5	1355	1369	152.9	9.823	2.049	1.599	1.387	1.183	1.243	1.290	1.431	1.699	1.822	2.056	2.325	2.403	2.387	2.565	3.059	3.035	3.277	3.167	3.187	3.257	3.376	3.440	3.299	3.303	3.415	3.501	3.652	3.644	3.518	3.541	3.650	3.640	3.764	3.614	3.824	3.915	3.912	3.921	4.040	3.838
395.0	707.2	869.8	954.1	947.6	905.3	856.7	807.5	782.7	787.2	796.1	792.4	783.7	758.2	738.9	699.5	657.3	626.2	598.7	577.3	552.5	521.2	484.1	443.8	404.6	373.9	365.4	316.0	218.2	167.5	131.0	98.64	88.17	158.5	339.8	956.4	1622	241.6	7.578	2.289	1.606	1.398	1.354	1.499	1.463	1.784	1.916	1.832	2.325	2.371	2.288	2.531	3.062	3.159	3.310	3.109	3.174	3.223	3.416	3.611	3.222	3.241	3.334	3.596	3.505	3.709	3.550	3.533	3.432	3.527	3.627	3.665	3.667	3.881	3.950	3.779	4.149	3.979
400.0	693.0	874.9	942.5	951.8	904.2	873.3	829.9	792.7	794.9	781.4	784.3	767.0	754.1	728.5	689.6	648.8	622.6	589.9	571.3	550.7	519.8	493.5	457.2	422.9	381.1	359.2	361.2	272.2	198.9	156.2	116.7	88.44	78.58	108.0	274.3	1250	1405	37.43	4.158	1.876	1.520	1.410	1.379	1.534	1.666	1.757	2.059	2.396	2.390	2.285	2.399	3.190	3.171	3.242	2.993	3.146	3.328	3.566	3.659	3.200	3.538	3.266	3.388	3.422	3.604	3.469	3.525	3.318	3.675	3.601	3.533	3.544	3.867	4.051	3.652	3.871	4.120
405.0	710.0	842.3	925.5	952.7	899.6	871.6	821.0	802.5	793.5	774.8	784.0	763.9	749.0	724.0	680.4	636.4	608.3	580.6	566.6	544.6	521.2	498.9	467.1	433.5	395.9	359.1	359.5	328.5	239.4	182.4	139.8	103.9	76.42	64.09	89.62	383.2	1380	1100	31.29	2.962	1.714	1.483	1.614	1.519	1.689	1.870	1.979	2.357	2.438	2.274	2.501	3.008	3.075	3.318	3.096	3.118	3.494	3.411	3.505	3.607	3.494	3.450	3.470	3.226	3.532	3.679	3.316	3.302	3.533	3.615	3.550	3.611	3.740	3.788	3.583	3.630	3.810
410.0	677.1	827.5	904.8	927.2	887.6	864.9	823.7	811.9	791.9	777.7	773.8	750.7	734.4	704.6	657.1	616.8	587.1	568.4	547.6	531.5	513.5	493.2	469.7	443.2	409.1	371.1	346.0	336.6	303.4	223.6	165.3	126.0	92.07	67.99	57.92	112.2	413.9	1028	1017	139.6	7.869	1.834	1.645	1.612	1.769	1.929	1.915	2.274	2.479	2.310	2.413	3.054	3.119	3.296	3.146	3.111	3.381	3.360	3.353	3.476	3.430	3.686	3.422	3.298	3.404	3.409	3.301	3.221	3.362	3.503	3.393	3.698	3.718	3.570	3.748	3.669	3.602
415.0	661.2	810.2	863.2	887.0	850.1	833.0	812.4	801.5	781.1	764.8	760.6	725.6	706.4	680.2	637.0	594.4	557.1	539.0	524.2	509.7	498.2	483.4	461.6	441.6	412.5	382.2	349.9	321.8	321.0	279.1	196.5	144.9	110.2	80.46	60.06	58.77	115.3	255.6	714.8	1183	204.2	6.073	1.942	1.772	1.725	1.830	1.919	2.266	2.231	2.250	2.446	3.026	3.141	3.038	3.151	3.043	3.244	3.307	3.547	3.345	3.209	3.558	3.508	3.703	3.195	3.173	3.234	3.075	3.376	3.400	3.320	3.394	3.733	3.834	3.407	3.363	3.424
420.0	604.8	776.7	831.8	878.6	839.9	823.2	808.8	788.8	757.0	757.2	742.6	710.7	678.6	645.7	613.1	567.6	534.5	520.8	500.6	490.3	478.0	466.0	451.3	435.4	409.2	383.5	350.3	321.1	305.9	298.5	229.1	160.1	120.4	89.63	67.42	51.46	52.47	74.97	201.7	916.1	1054	34.07	3.254	2.099	1.790	1.905	1.991	2.165	2.238	2.092	2.443	2.953	2.965	3.096	3.200	3.041	3.480	3.292	3.423	3.360	3.519	3.420	3.463	3.437	3.171	3.315	3.211	3.237	3.287	3.325	3.160	3.291	3.387	3.440	3.234	3.370	3.297
425.0	593.1	761.7	811.5	848.2	827.1	804.4	790.3	774.6	750.7	737.1	717.0	693.7	670.3	627.6	591.0	542.7	519.4	502.4	482.2	475.6	462.8	451.5	441.3	422.2	404.6	379.9	350.4	318.2	296.5	288.9	258.3	179.2	131.9	98.83	74.19	55.08	42.44	37.55	59.78	279.4	1022	829.5	28.05	2.644	1.954	1.838	1.688	2.160	2.238	2.106	2.303	2.850	2.906	2.942	3.067	2.999	3.316	3.416	3.468	3.276	3.368	3.221	3.435	3.170	3.318	3.161	2.893	3.183	3.188	3.250	3.248	3.324	3.279	3.254	3.072	3.165	3.131
430.0	637.2	718.5	799.3	817.8	809.2	769.8	779.0	764.0	742.0	718.8	708.8	678.1	647.4	604.0	562.9	517.6	491.5	473.9	458.1	449.7	436.3	430.8	424.6	410.7	396.5	372.3	348.1	321.9	294.9	274.8	256.8	216.2	155.3	112.4	85.07	64.45	47.23	34.65	31.44	75.66	300.0	768.2	816.6	127.9	8.066	2.471	2.001	2.271	2.316	2.045	2.211	2.801	2.820	2.828	2.943	2.950	3.321	3.345	3.154	3.077	3.227	3.468	3.402	3.184	3.287	3.127	3.136	2.982	3.124	3.087	2.970	3.051	3.154	3.218	3.004	3.059	3.070
435.0	885.1	684.1	757.2	785.4	766.4	754.4	760.4	748.7	726.5	710.4	697.4	660.1	624.7	582.4	530.9	485.0	465.4	451.3	436.8	424.8	418.0	409.1	404.5	396.2	382.8	364.2	344.5	320.2	297.9	272.8	243.0	225.1	188.7	130.1	96.53	74.07	56.47	40.75	31.01	34.09	79.64	188.3	566.1	1012	201.8	7.261	2.398	2.331	2.143	2.046	2.228	2.629	2.719	2.847	2.775	2.992	3.301	3.126	3.219	3.163	3.309	3.184	3.419	3.048	2.991	3.267	3.229	2.903	2.896	2.901	2.921	2.940	3.183	3.018	2.885	2.965	2.856
440.0	1144	701.3	726.3	765.1	732.3	739.6	754.3	728.0	709.7	704.3	670.0	644.5	605.8	562.7	516.4	464.5	444.1	428.8	414.3	402.0	398.8	393.4	389.8	384.0	367.1	353.2	337.9	314.3	296.9	271.9	239.7	215.6	199.0	150.4	106.9	81.26	62.81	45.98	35.05	27.08	32.92	53.12	158.0	774.7	1008	32.31	3.857	2.484	2.207	2.157	2.187	2.638	2.578	2.822	2.770	2.798	3.311	3.251	3.209	3.208	3.384	3.295	3.400	3.049	3.097	3.071	3.172	2.821	2.965	2.998	2.929	2.883	2.981	2.938	2.737	3.050	3.058
445.0	1254	835.0	702.9	737.2	720.6	728.9	724.6	709.2	700.0	685.1	654.5	623.3	582.5	537.9	491.7	445.4	422.3	407.9	398.9	386.0	377.2	374.3	368.7	365.0	353.0	342.7	327.5	310.2	289.6	270.1	237.7	205.5	188.9	165.3	117.3	86.78	67.85	51.84	39.19	28.95	24.05	24.55	44.99	234.5	949.2	787.1	25.45	3.083	2.197	2.189	2.173	2.519	2.532	2.952	2.697	2.816	3.013	3.168	3.053	3.194	3.103	2.970	3.120	3.181	3.029	2.866	2.845	2.832	2.892	2.824	2.819	2.784	2.860	2.697	2.739	2.687	2.838
450.0	965.2	1305	744.8	682.8	677.8	682.1	693.9	682.4	672.5	652.9	621.5	589.6	555.3	502.1	455.8	410.1	393.0	378.0	368.7	356.9	349.3	347.1	342.5	338.5	331.4	320.5	309.4	292.4	276.8	260.0	230.4	198.7	174.2	160.7	134.9	97.82	73.83	57.47	44.95	34.29	26.28	21.58	22.19	61.86	274.6	692.9	763.8	118.5	7.678	2.394	2.117	2.396	2.510	2.745	2.608	2.689	2.872	3.060	2.837	3.053	2.956	3.007	2.821	2.913	2.905	2.855	2.748	2.523	2.707	2.665	2.736	2.623	2.575	2.573	2.537	2.577	2.603
455.0	586.1	1385	1076	616.6	625.9	632.6	638.6	637.7	617.6	606.9	591.8	551.6	509.9	462.9	418.7	378.9	359.5	343.7	333.7	326.2	319.2	314.1	312.2	308.6	303.2	294.0	283.2	273.2	260.6	246.7	221.1	192.4	165.4	144.5	135.3	112.7	81.42	61.09	48.66	37.62	29.87	23.49	19.54	25.08	69.85	167.8	459.7	882.0	172.2	7.273	2.285	2.278	2.496	2.735	2.454	2.502	2.606	2.747	2.796	2.817	2.848	2.674	2.708	2.724	2.799	2.714	2.610	2.316	2.543	2.556	2.464	2.440	2.418	2.504	2.442	2.354	2.456
460.0	424.6	1067	1441	670.7	584.6	591.7	597.2	591.9	584.0	578.3	562.4	523.1	478.3	434.9	392.5	355.4	327.8	319.9	309.2	302.1	293.4	290.6	287.7	287.4	282.7	272.7	264.3	258.2	244.4	232.5	213.2	185.3	160.0	137.4	124.1	117.6	91.50	65.00	50.47	40.92	32.12	26.23	20.23	18.13	25.59	45.09	122.5	609.3	806.5	121.6	3.885	2.576	2.386	2.426	2.447	2.408	2.594	2.720	2.635	2.547	2.826	2.712	2.537	2.668	2.815	2.533	2.587	2.437	2.298	2.340	2.096	2.418	2.276	2.427	2.346	2.281	2.214
465.0	394.6	696.2	1602	894.7	551.5	556.0	568.9	562.8	551.2	548.4	529.5	492.7	451.0	410.0	366.4	335.1	308.6	294.7	284.3	279.3	272.4	270.7	265.2	265.3	261.2	256.2	246.2	240.9	232.5	222.3	202.5	178.6	151.8	133.4	115.6	110.4	100.2	70.86	53.32	43.63	34.69	27.79	22.54	17.79	16.59	18.30	34.38	175.0	718.1	633.0	21.88	3.134	2.519	2.622	2.238	2.506	2.576	2.598	2.439	2.514	2.694	2.714	2.606	2.672	2.596	2.306	2.439	2.335	2.124	2.180	2.048	2.265	2.268	2.158	2.147	2.181	2.150
470.0	374.6	480.1	1156	1523	587.0	499.9	511.2	512.3	508.1	501.2	484.8	452.8	410.7	369.0	328.7	299.6	278.4	266.2	253.1	247.5	241.9	238.3	236.5	236.1	233.4	229.6	223.5	215.8	211.2	203.9	186.6	165.4	144.9	125.8	108.6	97.74	92.65	79.48	58.79	44.75	36.26	29.36	23.92	19.25	15.91	13.90	15.60	45.20	200.7	479.2	541.6	114.2	8.421	2.799	2.225	2.294	2.280	2.398	2.311	2.298	2.376	2.447	2.408	2.344	2.229	2.156	2.228	2.184	2.085	2.081	2.092	2.073	2.057	1.907	1.954	1.949	2.024
475.0	361.5	378.1	633.6	1585	961.2	457.0	460.9	466.7	458.1	453.0	430.9	409.1	365.3	333.0	293.4	268.2	249.2	235.5	226.9	218.1	211.2	208.3	207.5	207.8	206.5	200.4	198.7	194.0	187.9	182.6	169.4	153.8	132.9	116.2	101.7	87.96	79.02	77.16	66.22	48.21	37.28	31.17	25.70	20.69	17.04	13.82	12.05	17.34	50.17	113.3	265.0	593.8	170.2	11.51	2.276	2.229	2.239	2.150	2.019	2.138	2.107	2.249	2.155	2.163	2.027	1.960	1.977	1.877	2.042	1.949	2.048	1.907	1.732	1.750	1.777	1.749	1.835
480.0	361.6	371.4	441.1	1141	1397	489.6	419.1	431.6	428.7	422.4	396.6	375.3	344.1	309.0	273.7	242.4	225.0	216.7	205.9	200.3	192.7	190.7	187.7	189.6	188.2	181.7	182.3	178.4	173.0	169.5	158.9	143.7	127.3	110.5	96.25	85.58	73.31	68.23	67.49	52.30	38.53	31.55	26.39	21.38	18.17	15.34	12.48	11.52	17.39	30.06	67.94	332.6	582.3	183.7	4.704	2.264	2.083	2.058	2.053	2.021	1.834	2.043	1.924	2.082	2.063	1.945	1.798	1.812	1.858	1.817	1.770	1.704	1.817	1.696	1.677	1.643	1.804
485.0	321.5	378.3	380.7	679.8	1549	613.4	395.0	399.0	401.0	400.1	381.8	348.0	318.9	285.9	254.0	226.1	209.7	199.8	191.7	185.5	179.9	177.8	174.8	174.7	174.1	171.4	168.2	164.6	162.1	156.1	148.6	135.7	120.4	105.1	93.19	81.23	69.78	63.33	61.81	56.54	42.32	32.05	26.49	22.13	19.08	15.35	12.67	10.36	10.34	11.85	19.81	89.88	428.4	1061	27.03	3.171	2.181	2.042	1.903	1.932	1.828	1.991	1.944	1.812	1.783	1.873	1.800	1.953	1.723	1.656	1.651	1.662	1.609	1.634	1.651	1.550	1.590
490.0	277.3	368.8	346.2	419.3	1076	1299	431.1	371.5	366.1	368.1	348.5	323.0	297.0	263.3	231.7	207.0	191.6	182.7	172.2	165.6	161.9	160.1	159.1	157.9	156.5	154.0	151.1	149.0	147.6	144.5	135.9	124.2	110.7	98.82	87.69	77.60	67.86	59.04	54.95	53.18	47.77	35.34	27.54	22.83	20.28	16.34	13.79	11.11	9.748	8.343	9.277	24.30	112.6	648.9	453.2	120.1	10.80	2.105	1.883	1.831	1.894	1.968	1.712	1.853	1.711	1.725	1.677	1.761	1.575	1.619	1.499	1.577	1.462	1.540	1.479	1.471	1.411
495.0	218.5	339.0	357.6	327.3	521.8	1466	814.9	340.0	332.1	331.4	317.5	296.7	268.4	237.0	205.6	188.6	171.2	163.7	154.5	148.9	146.7	142.0	140.8	139.6	139.3	135.6	133.2	133.1	131.9	130.4	123.3	113.3	101.1	91.59	80.71	72.27	63.07	56.75	50.13	44.64	45.30	40.09	29.07	23.90	20.63	17.03	14.51	12.06	10.08	7.970	7.349	9.836	28.49	149.1	201.6	519.7	210.9	13.49	1.994	1.875	1.683	1.981	1.668	1.743	1.725	1.637	1.488	1.528	1.444	1.510	1.374	1.574	1.435	1.338	1.308	1.274	1.368
500.0	206.5	306.8	350.9	290.1	336.8	1033	1252	366.8	307.0	300.5	293.7	274.8	244.1	219.4	191.7	169.6	158.6	149.9	140.7	135.6	129.7	128.1	125.5	125.5	126.5	122.3	122.9	119.7	118.7	119.0	113.8	104.4	94.20	84.13	76.09	67.92	60.12	53.04	46.95	41.49	39.92	40.25	32.66	24.63	19.68	17.42	14.83	12.61	10.65	8.373	7.091	6.841	9.999	36.87	50.00	253.4	563.1	179.3	7.576	1.954	1.583	1.742	1.540	1.561	1.577	1.653	1.544	1.573	1.467	1.388	1.360	1.371	1.320	1.207	1.225	1.229	1.315
505.0	177.7	232.4	330.7	279.5	274.8	569.2	1467	587.9	285.2	280.3	270.7	251.3	223.6	202.6	175.3	158.5	145.0	135.3	128.8	122.4	120.3	116.0	114.7	114.7	113.1	110.5	112.0	109.6	109.1	109.1	104.9	96.26	85.82	77.43	70.53	63.00	56.23	49.44	44.44	39.45	35.74	36.20	34.44	25.88	19.72	17.12	14.31	12.43	10.85	8.775	7.222	6.226	6.246	11.74	14.07	64.10	326.3	524.3	31.80	3.484	1.723	1.674	1.502	1.297	1.519	1.480	1.375	1.428	1.281	1.266	1.245	1.203	1.341	1.149	1.127	1.271	1.043
510.0	156.4	198.8	270.8	289.7	244.6	308.9	987.4	1159	309.4	247.7	237.1	225.3	199.2	179.2	155.7	140.0	126.7	118.8	113.0	106.8	104.2	102.4	99.66	100.2	97.93	96.77	98.19	95.90	95.58	96.18	91.05	84.04	76.51	70.61	62.07	56.11	50.61	45.60	39.82	35.80	32.44	30.37	30.89	27.90	21.50	16.66	14.05	12.17	10.38	8.616	7.582	6.211	5.315	6.092	6.237	17.14	81.62	259.3	375.5	131.3	11.82	2.063	1.513	1.294	1.355	1.351	1.290	1.257	1.235	1.081	1.177	1.198	1.221	1.086	1.020	1.160	1.067
515.0	128.6	172.3	215.0	285.5	232.8	226.7	427.3	1356	691.3	221.8	210.0	199.8	174.7	156.1	136.4	119.4	110.2	103.8	98.28	93.47	88.56	87.44	86.98	85.00	84.29	82.58	82.73	82.31	83.42	82.38	78.24	72.13	67.43	62.02	55.43	50.05	45.30	41.32	37.13	32.35	28.60	26.27	24.90	25.77	23.84	17.53	13.56	11.99	10.16	8.436	7.539	6.399	5.208	4.784	4.412	6.515	20.52	60.25	131.7	377.1	212.6	18.88	1.507	1.277	1.362	1.207	1.153	1.155	1.069	1.047	1.031	1.046	1.191	0.980	0.944	1.025	0.909
520.0	128.4	155.0	172.9	247.9	243.1	195.3	246.0	934.2	1202	258.1	186.3	178.2	154.4	140.1	119.6	109.4	101.1	93.46	87.41	84.29	79.77	75.69	76.55	75.46	75.33	74.93	73.36	73.35	72.20	74.95	69.58	65.39	60.57	55.54	50.21	46.36	41.33	37.60	33.29	30.00	26.44	23.99	22.12	22.23	23.78	19.08	13.23	11.33	9.919	8.294	7.238	6.591	5.394	4.695	3.990	4.203	6.908	15.94	32.15	160.0	402.5	229.6	8.166	1.463	1.330	1.201	1.042	0.993	0.911	0.989	0.932	0.976	0.980	0.930	0.883	1.035	0.843
525.0	113.6	128.4	150.9	202.4	248.9	185.7	189.6	471.1	1486	479.7	170.5	157.9	144.3	126.5	114.4	98.31	92.10	83.23	79.03	75.69	72.47	69.48	68.39	69.38	67.49	67.36	66.11	65.42	65.49	65.97	62.36	58.58	54.01	49.76	44.95	41.03	38.39	34.15	31.12	27.25	24.46	22.40	20.40	19.00	20.46	19.72	14.57	10.72	9.525	8.038	7.252	6.241	5.692	4.782	3.905	3.735	3.903	5.925	9.297	39.49	200.1	805.3	121.7	3.886	1.358	1.078	0.986	0.961	0.945	0.902	0.954	0.907	0.970	0.923	0.845	0.975	0.950
530.0	107.9	114.2	141.6	148.7	218.6	194.6	158.1	231.1	967.2	1158	209.0	141.2	123.4	107.9	97.60	86.14	79.14	71.89	67.71	65.66	63.26	62.46	59.29	59.41	57.65	57.78	57.13	57.30	56.97	58.14	54.01	51.12	47.22	43.39	39.61	36.80	33.09	29.81	27.78	24.60	22.50	20.01	18.42	16.71	16.31	17.73	16.21	11.58	9.255	7.645	6.665	5.756	5.364	4.753	4.215	3.638	3.282	3.575	4.115	10.70	48.66	358.8	280.8	130.6	12.41	1.264	1.131	0.899	0.852	0.816	0.900	0.827	0.848	0.781	0.742	0.837	0.810
535.0	89.85	109.4	118.4	123.3	167.4	202.5	146.5	153.3	363.6	1346	618.2	126.1	107.6	93.93	83.93	74.99	66.14	61.08	59.08	55.87	54.15	52.01	50.66	50.30	49.10	48.29	48.67	48.16	48.77	48.41	46.21	44.21	40.84	37.44	33.88	31.58	28.78	25.83	24.22	21.84	19.63	17.49	16.72	14.50	13.67	13.58	14.63	12.95	9.225	7.221	6.282	5.412	4.837	4.498	4.270	3.789	3.201	2.719	3.132	4.316	12.49	81.76	85.97	256.9	197.7	15.91	1.073	0.892	0.946	0.893	0.724	0.729	0.696	0.639	0.736	0.698	0.816
540.0	83.45	104.4	103.3	105.5	129.3	202.3	151.3	128.8	176.1	872.4	1176	151.9	95.86	82.46	72.75	66.14	59.84	54.26	52.06	49.95	47.93	46.37	44.84	44.23	43.40	42.46	41.95	42.57	42.95	43.21	41.05	38.42	36.04	32.90	30.61	28.00	25.89	23.54	21.27	19.84	17.42	15.72	14.04	13.25	12.28	11.53	12.15	12.92	9.859	7.124	5.989	5.077	4.575	4.457	4.200	3.924	3.251	2.413	2.620	2.668	4.381	19.78	20.59	97.87	285.0	157.8	8.644	1.030	0.884	0.936	0.662	0.673	0.732	0.640	0.699	0.633	0.725
545.0	80.31	92.03	95.34	99.11	102.3	169.6	164.8	111.9	121.5	386.7	1444	226.6	84.83	73.18	64.98	56.33	52.49	48.01	46.60	43.43	42.64	40.08	39.61	39.17	38.08	37.53	37.54	37.16	38.05	36.68	36.54	33.70	30.99	29.00	26.74	24.77	22.90	20.62	19.02	17.87	16.37	14.87	13.00	12.26	11.16	10.25	10.32	10.89	10.11	7.445	5.295	4.610	4.283	3.891	3.500	3.667	3.507	2.385	2.320	2.292	2.339	5.995	5.893	23.45	128.3	293.5	101.7	3.124	0.804	0.836	0.685	0.654	0.722	0.739	0.714	0.585	0.649
550.0	77.61	87.81	86.60	88.15	82.50	119.5	170.2	105.5	94.98	161.4	857.2	934.4	113.8	63.09	54.54	47.72	44.10	40.77	38.22	36.96	35.01	33.28	32.82	32.39	31.98	31.75	31.17	30.73	31.52	31.10	30.27	28.39	26.26	24.20	22.52	20.63	19.10	18.19	16.08	15.27	13.82	13.11	11.12	10.44	10.00	8.793	8.370	8.501	9.167	7.786	5.558	4.454	3.866	3.716	3.317	3.055	3.281	2.932	2.210	2.068	1.870	2.629	2.531	6.311	30.90	118.8	204.2	106.3	11.08	0.853	0.738	0.590	0.602	0.630	0.580	0.544	0.580
555.0	77.14	76.61	77.47	74.44	72.81	81.31	136.1	122.2	81.16	93.64	279.8	1176	399.8	54.11	45.80	39.04	35.38	34.31	31.24	30.04	28.79	26.93	27.24	25.92	26.20	25.93	24.59	25.12	24.66	25.21	25.00	22.82	21.22	19.87	18.37	16.99	15.82	14.76	13.40	12.43	10.74	10.50	9.239	8.536	7.906	7.220	6.787	6.360	6.506	7.248	6.122	4.431	3.377	3.156	2.932	2.640	2.630	2.729	2.480	2.017	1.456	1.709	1.558	2.290	7.772	27.34	60.02	173.4	136.5	12.42	0.742	0.647	0.612	0.544	0.527	0.446	0.487
560.0	72.52	66.63	67.45	65.69	64.40	65.31	97.24	137.7	72.54	70.54	113.8	738.9	881.1	70.30	37.45	34.66	31.26	29.24	26.35	24.35	23.44	23.36	22.90	22.47	22.09	21.81	21.16	21.72	21.25	21.55	21.39	19.18	17.87	16.39	15.72	14.53	13.34	12.45	11.53	10.77	9.684	8.823	8.188	7.245	7.049	6.139	6.062	5.449	5.000	5.798	5.743	4.512	3.066	2.847	2.433	2.290	2.176	2.377	2.318	2.124	1.360	1.502	1.349	1.445	2.602	6.939	14.43	63.88	184.9	98.66	5.284	0.578	0.605	0.530	0.440	0.427	0.549
565.0	69.52	64.98	66.41	54.84	57.68	57.43	71.02	134.7	77.20	60.46	72.61	295.8	1169	144.6	33.15	30.34	26.79	23.91	22.31	20.20	20.76	19.79	19.31	18.67	18.77	18.83	18.47	18.30	17.90	18.09	17.59	16.16	14.99	14.53	13.23	12.35	10.92	10.34	10.23	8.931	8.236	7.591	7.195	6.489	6.324	5.551	5.482	4.756	4.519	4.508	4.889	4.747	3.130	2.775	2.201	2.176	1.950	1.966	1.942	2.035	1.615	1.488	1.127	1.147	1.365	2.301	3.932	15.45	80.27	171.0	32.47	1.957	0.643	0.461	0.462	0.397	0.605
570.0	63.66	69.35	65.11	50.14	46.20	45.67	51.62	97.40	102.4	55.38	54.73	107.4	697.4	674.3	54.43	24.61	21.46	19.66	18.61	16.82	16.80	15.99	15.91	15.47	15.21	15.15	14.80	14.46	14.26	14.82	14.07	13.36	12.14	11.64	10.72	10.12	9.167	8.962	8.098	7.588	6.706	6.475	5.954	5.507	5.269	4.743	4.435	3.918	3.682	3.311	3.493	4.036	3.300	2.711	2.071	1.866	1.698	1.745	1.515	1.816	1.677	1.530	1.114	1.080	1.027	1.258	1.570	4.127	19.21	67.11	113.0	69.37	8.569	0.570	0.459	0.455	0.508
575.0	61.60	70.31	68.11	48.08	37.59	36.77	41.10	58.54	107.4	65.42	46.29	58.53	213.0	873.7	248.5	20.40	17.37	16.30	14.63	13.73	13.13	12.90	12.24	12.51	12.01	12.00	11.39	11.40	11.78	11.63	10.86	10.82	9.852	9.547	8.732	8.110	7.711	7.277	6.726	5.976	5.720	5.194	4.694	4.622	4.307	4.058	3.768	3.350	2.940	2.750	2.587	2.867	3.237	2.758	2.026	1.586	1.536	1.472	1.300	1.365	1.493	1.803	1.203	1.014	0.969	0.986	1.048	1.489	4.855	15.53	33.27	104.3	85.89	7.798	0.495	0.523	0.487
580.0	63.07	72.18	65.82	43.56	36.74	34.45	36.83	42.14	95.85	79.67	44.66	46.90	78.89	550.1	606.6	28.88	14.41	14.16	12.41	11.57	10.74	10.73	10.14	10.41	10.27	10.04	9.184	9.634	9.886	9.930	9.511	9.058	8.511	8.220	7.574	6.982	6.428	6.045	5.900	5.411	4.951	4.536	4.010	3.862	3.799	3.313	3.297	2.961	2.600	2.315	2.201	2.281	2.582	2.852	2.080	1.618	1.293	1.311	1.160	1.189	1.249	1.658	1.287	0.984	0.938	0.927	0.826	0.876	1.622	4.159	8.004	37.92	112.3	34.72	3.499	0.548	0.430
585.0	65.79	62.49	56.81	43.56	32.47	34.03	33.05	35.11	68.03	97.60	46.00	43.50	44.12	209.7	811.3	84.40	12.82	12.95	11.01	10.09	9.602	9.165	9.303	9.070	8.712	8.676	8.195	8.387	8.377	8.377	8.207	7.944	7.184	6.804	6.353	5.671	5.628	5.354	5.008	4.637	4.303	3.910	3.381	3.320	3.192	2.986	2.838	2.658	2.344	2.105	1.870	1.860	1.989	2.348	2.116	1.617	1.219	1.205	1.111	1.024	1.033	1.191	1.465	1.069	0.847	0.871	0.728	0.735	0.884	1.565	2.324	9.203	47.57	99.65	28.90	1.448	0.451
590.0	63.44	60.38	57.72	38.18	30.14	28.59	29.64	31.00	44.25	93.65	61.74	41.41	36.01	69.79	481.5	412.6	22.06	10.87	9.039	8.660	7.902	7.734	7.494	7.215	7.129	7.209	6.650	7.180	7.207	7.394	6.462	6.517	5.916	5.632	5.159	4.845	4.631	4.340	3.868	3.833	3.464	3.149	3.027	2.769	2.676	2.493	2.270	2.272	1.991	1.715	1.657	1.612	1.594	1.884	2.059	1.770	1.294	1.188	0.970	0.978	0.960	0.873	1.035	1.142	1.057	0.858	0.716	0.607	0.776	0.834	1.021	2.576	11.43	39.40	68.16	44.44	5.916
595.0	53.89	53.22	53.36	32.42	28.78	25.56	25.21	28.75	33.90	65.45	82.27	41.70	34.76	34.27	141.9	572.1	89.87	8.682	7.421	7.269	6.243	6.720	6.089	5.629	5.952	5.614	5.515	5.724	5.686	5.738	5.450	4.958	4.906	4.553	4.316	3.957	3.739	3.721	3.163	3.028	2.595	2.766	2.527	2.111	2.268	2.115	1.817	1.920	1.635	1.615	1.319	1.385	1.364	1.273	1.606	1.713	1.318	1.080	0.949	0.887	0.880	0.841	0.885	0.878	1.130	0.907	0.705	0.649	0.651	0.707	0.710	1.014	3.003	9.167	19.57	60.00	36.19
600.0	55.41	57.44	50.11	36.73	26.71	23.38	23.70	25.36	30.17	47.58	88.24	46.08	33.38	26.99	47.06	371.5	328.0	11.29	6.521	6.318	5.829	5.444	5.161	4.516	4.976	4.903	4.880	4.656	4.934	5.005	4.763	4.101	4.332	3.883	3.854	3.399	3.329	3.050	2.573	2.628	2.584	2.210	2.066	1.881	1.837	1.973	1.653	1.616	1.445	1.297	1.184	1.097	1.187	1.050	1.227	1.369	1.446	1.136	0.877	0.725	0.740	0.784	0.714	0.726	0.937	1.021	0.821	0.660	0.669	0.602	0.607	0.658	1.093	2.398	4.842	21.42	61.46
605.0	56.91	56.66	48.01	32.70	27.98	23.25	24.28	26.33	29.95	39.48	79.63	58.38	33.63	25.80	24.05	144.2	484.2	42.30	5.795	5.403	5.144	4.414	4.866	3.927	4.395	4.267	3.975	4.148	4.326	4.217	3.814	3.687	3.606	3.376	3.259	2.961	2.947	2.615	2.459	2.403	2.258	2.022	1.716	1.829	1.538	1.638	1.389	1.308	1.318	1.188	1.125	1.117	1.017	1.011	0.934	1.101	1.437	1.094	0.815	0.781	0.743	0.704	0.650	0.688	0.842	0.929	0.878	0.612	0.633	0.710	0.595	0.531	0.651	0.904	1.440	5.273	26.27
610.0	53.91	49.53	43.28	29.37	24.33	23.20	23.05	26.74	29.22	36.35	57.61	73.82	38.54	25.50	19.97	44.54	321.0	241.4	9.417	4.312	4.324	3.765	3.880	3.348	3.485	3.539	3.382	3.436	3.396	3.304	3.363	3.105	2.939	2.744	2.624	2.428	2.412	2.172	1.909	2.019	1.851	1.718	1.529	1.542	1.403	1.422	1.170	1.170	1.146	1.067	0.940	0.952	0.795	0.795	0.810	0.881	1.185	1.145	0.925	0.755	0.669	0.574	0.687	0.611	0.685	0.736	0.865	0.830	0.576	0.620	0.544	0.495	0.518	0.551	0.629	1.547	6.441
615.0	48.85	49.96	41.21	29.85	24.96	21.42	21.94	24.38	27.79	33.79	43.27	74.14	48.65	26.09	19.53	19.35	95.79	369.8	57.55	3.906	3.654	3.312	3.333	3.027	2.966	2.911	2.809	2.867	2.803	2.665	2.895	2.588	2.386	2.176	2.006	1.948	1.921	1.761	1.671	1.531	1.522	1.342	1.275	1.182	1.303	1.269	0.988	0.893	0.997	0.879	0.791	0.736	0.708	0.744	0.718	0.789	0.866	1.000	0.942	0.833	0.629	0.632	0.604	0.564	0.617	0.562	0.730	0.783	0.856	0.574	0.549	0.521	0.620	0.478	0.532	0.685	1.757
620.0	46.75	47.23	33.68	26.07	20.65	20.17	21.53	23.53	26.81	31.98	38.84	60.51	59.87	27.47	17.53	13.19	29.64	268.9	201.2	5.040	3.184	3.014	2.666	2.875	2.625	2.437	2.655	2.449	2.411	2.386	2.202	2.193	2.099	1.985	1.709	1.813	1.668	1.503	1.419	1.303	1.399	1.128	1.212	1.176	1.181	1.068	0.902	0.797	0.869	0.702	0.703	0.645	0.660	0.721	0.619	0.588	0.674	0.737	0.846	0.860	0.646	0.665	0.437	0.585	0.505	0.561	0.693	0.683	0.786	0.692	0.524	0.514	0.527	0.446	0.456	0.484	0.743
625.0	49.14	50.71	31.40	26.24	19.21	19.05	20.95	22.21	26.17	32.57	35.62	48.10	65.84	31.46	18.94	12.34	13.11	112.7	326.9	19.34	3.010	2.713	2.401	2.393	2.296	2.151	2.301	1.907	2.122	2.156	2.038	2.031	1.958	1.640	1.718	1.515	1.583	1.295	1.265	1.217	1.181	1.074	1.087	1.011	0.986	0.910	0.855	0.761	0.832	0.701	0.559	0.642	0.633	0.591	0.547	0.514	0.582	0.630	0.767	0.789	0.681	0.598	0.517	0.523	0.490	0.541	0.588	0.484	0.731	0.692	0.540	0.505	0.385	0.522	0.457	0.399	0.465
630.0	42.33	47.81	36.10	24.80	20.37	20.94	20.89	20.71	23.67	31.24	33.40	39.95	57.40	40.11	18.57	12.31	9.748	32.29	243.3	137.4	4.426	2.339	2.132	1.915	1.987	1.829	1.781	1.798	1.665	1.845	1.711	1.692	1.549	1.379	1.394	1.220	1.291	1.164	1.095	1.076	0.951	0.918	0.900	0.882	0.829	0.841	0.772	0.702	0.692	0.596	0.503	0.577	0.546	0.557	0.515	0.508	0.502	0.498	0.619	0.665	0.650	0.572	0.552	0.455	0.487	0.471	0.547	0.488	0.580	0.631	0.653	0.539	0.362	0.461	0.392	0.388	0.415
635.0	42.02	45.46	31.59	23.79	18.59	18.13	19.48	21.84	24.94	31.33	34.05	36.86	43.10	49.71	22.02	13.02	9.760	12.22	76.06	271.5	34.51	2.004	1.736	1.832	1.643	1.477	1.600	1.588	1.474	1.653	1.504	1.517	1.299	1.111	1.163	1.013	0.973	0.953	0.922	0.992	0.934	0.794	0.810	0.776	0.697	0.628	0.582	0.649	0.545	0.574	0.496	0.499	0.495	0.448	0.462	0.428	0.505	0.477	0.538	0.565	0.634	0.719	0.520	0.529	0.488	0.486	0.437	0.456	0.471	0.460	0.649	0.543	0.496	0.448	0.371	0.369	0.424
640.0	40.40	39.44	36.19	24.49	19.51	19.32	18.89	20.45	23.63	31.48	31.93	34.94	35.91	48.75	28.01	13.45	9.951	8.186	22.01	217.0	126.0	2.474	1.631	1.645	1.491	1.414	1.309	1.362	1.369	1.378	1.290	1.216	1.118	1.089	0.995	1.086	0.850	0.844	0.848	0.820	0.937	0.656	0.843	0.646	0.663	0.672	0.567	0.501	0.572	0.450	0.501	0.427	0.450	0.521	0.434	0.337	0.443	0.500	0.475	0.480	0.556	0.664	0.492	0.505	0.531	0.459	0.506	0.471	0.448	0.506	0.460	0.650	0.594	0.527	0.371	0.396	0.393
645.0	46.05	44.64	38.84	24.16	19.03	18.84	18.70	20.12	21.87	31.09	32.41	34.37	34.34	40.62	34.13	14.67	10.46	7.734	9.022	100.3	227.3	9.734	1.833	1.460	1.415	1.221	1.163	1.248	1.232	1.204	1.271	1.040	1.060	0.846	1.036	0.984	0.728	0.899	0.635	0.664	0.693	0.660	0.783	0.633	0.539	0.552	0.502	0.530	0.520	0.413	0.363	0.405	0.427	0.436	0.419	0.374	0.454	0.437	0.407	0.427	0.492	0.521	0.503	0.488	0.447	0.427	0.511	0.527	0.532	0.485	0.476	0.507	0.621	0.501	0.398	0.431	0.372
650.0	45.66	45.83	40.44	23.44	20.65	18.49	18.34	20.51	21.60	28.72	31.04	32.70	32.23	34.89	38.44	16.61	10.57	7.661	6.411	31.41	236.1	48.60	1.555	1.359	1.214	1.312	1.145	1.007	1.245	1.247	1.097	1.089	0.931	0.708	0.851	0.950	0.729	0.880	0.701	0.674	0.597	0.632	0.697	0.505	0.534	0.592	0.442	0.541	0.427	0.465	0.459	0.435	0.389	0.390	0.355	0.402	0.437	0.404	0.338	0.404	0.457	0.449	0.495	0.458	0.447	0.428	0.488	0.474	0.444	0.500	0.460	0.461	0.566	0.475	0.402	0.395	0.405
