Sample:	'1
File name:	t2025072416’≈πŸ«≈.FD3
Run date:	'13:09:51, 07/25/2025
Operator:	Administrator
Comment:	'

Instrument
Model:	F-2700 FL Spectrophotometer
Serial number:	23B8-004
ROM Version:	4J14000 07

Instrument parameters
Measurement type:	3-D scan
Data mode:	Fluorescence
EX  Start WL:	220.0 nm
EX  End WL:	600.0 nm
EX Sampling interval:	5.0 nm
EM  Start WL:	230.0 nm
EM  End WL:	650.0 nm
EM Sampling interval:	5.0 nm
Scan speed:	12000 nm/min
EX Slit:	5.0 nm
EM Slit:	5.0 nm
PMT Voltage:	700 V
Response:	Auto 
Corrected spectra:	Off
Contour interval:	50.000

Peak integration
Integration method:	Rectangular
Sensitivity:	1
Threshold:	1.000

Peaks
No.	ApexEX/EM(nm)	Height(Data)
1	230.0/345.0	1777
2	240.0/265.0	373.8
3	240.0/385.0	1592
4	245.0/270.0	375.6
5	245.0/405.0	1613
6	250.0/275.0	500.4
7	255.0/280.0	566.5
8	255.0/440.0	1645
9	260.0/290.0	587.1
10	260.0/575.0	158.0
11	265.0/295.0	785.7
12	265.0/585.0	134.8
13	270.0/300.0	1084
14	270.0/600.0	113.8
15	275.0/305.0	1151
16	275.0/410.0	1926
17	275.0/610.0	98.17
18	280.0/315.0	1129
19	280.0/345.0	1328
20	280.0/355.0	1324
21	280.0/625.0	82.01
22	285.0/320.0	1238
23	285.0/635.0	64.79
24	290.0/325.0	1176
25	335.0/415.0	1175
26	495.0/270.0	2.086
27	500.0/435.0	6.825
28	505.0/275.0	2.965
29	510.0/280.0	3.414
30	515.0/285.0	3.540
31	530.0/290.0	3.454
32	530.0/425.0	6.651
33	540.0/295.0	4.523
34	545.0/300.0	5.400
35	550.0/305.0	5.532
36	560.0/310.0	5.298
37	570.0/315.0	5.507
38	575.0/290.0	44.63

Data points
	220.0	225.0	230.0	235.0	240.0	245.0	250.0	255.0	260.0	265.0	270.0	275.0	280.0	285.0	290.0	295.0	300.0	305.0	310.0	315.0	320.0	325.0	330.0	335.0	340.0	345.0	350.0	355.0	360.0	365.0	370.0	375.0	380.0	385.0	390.0	395.0	400.0	405.0	410.0	415.0	420.0	425.0	430.0	435.0	440.0	445.0	450.0	455.0	460.0	465.0	470.0	475.0	480.0	485.0	490.0	495.0	500.0	505.0	510.0	515.0	520.0	525.0	530.0	535.0	540.0	545.0	550.0	555.0	560.0	565.0	570.0	575.0	580.0	585.0	590.0	595.0	600.0
230.0	65.78	1358	3139	866.2	44.04	8.620	6.841	6.010	5.590	5.152	4.685	4.567	3.810	3.319	2.892	2.515	2.101	2.038	1.920	1.675	1.458	1.422	1.209	1.250	1.133	1.116	0.986	0.910	0.945	0.889	0.878	0.746	0.780	0.642	0.664	0.608	0.519	0.512	0.464	0.473	0.485	0.527	0.604	0.470	0.401	0.437	1.742	6.780	10.25	6.949	2.486	0.654	0.326	0.311	0.337	0.320	0.355	0.334	0.349	0.345	0.355	0.349	0.298	0.336	0.315	0.342	0.328	0.318	0.306	0.322	0.326	0.313	0.315	0.330	0.361	0.356	0.331
235.0	98.82	371.8	2001	3193	633.3	58.89	9.108	6.912	5.539	6.117	4.603	4.620	3.861	2.948	3.297	2.202	1.998	1.815	1.910	1.863	1.350	1.401	1.308	1.276	1.102	1.173	0.998	1.142	0.958	0.912	0.867	0.630	0.734	0.599	0.626	0.594	0.520	0.533	0.511	0.404	0.472	0.528	0.627	0.578	0.569	0.483	0.668	1.922	4.568	7.731	10.96	10.56	4.323	1.007	0.351	0.350	0.357	0.354	0.294	0.367	0.319	0.330	0.361	0.437	0.265	0.335	0.325	0.311	0.296	0.307	0.332	0.326	0.350	0.372	0.370	0.358	0.335
240.0	133.4	170.4	606.4	2859	3381	484.6	28.39	8.487	6.125	7.376	6.077	4.719	4.708	3.410	3.285	2.619	1.914	2.177	2.137	1.582	1.620	1.391	1.339	1.240	1.107	1.069	1.001	1.019	0.877	0.904	0.892	0.731	0.718	0.717	0.621	0.605	0.588	0.508	0.517	0.450	0.464	0.515	0.461	0.517	0.708	0.782	0.606	0.722	1.356	2.601	6.639	14.32	15.76	10.33	3.270	0.643	0.325	0.338	0.346	0.357	0.314	0.303	0.354	0.368	0.326	0.293	0.406	0.323	0.307	0.310	0.297	0.348	0.357	0.360	0.294	0.311	0.325
245.0	117.4	194.7	204.9	982.9	3876	3382	353.9	13.76	8.761	7.166	6.438	5.378	4.885	3.940	3.139	2.968	2.235	1.969	2.007	1.579	1.539	1.372	1.368	1.362	1.305	1.147	1.150	1.160	0.874	0.890	0.840	0.690	0.728	0.651	0.610	0.539	0.548	0.480	0.532	0.549	0.463	0.441	0.480	0.419	0.526	0.708	0.892	0.776	0.714	0.899	1.819	5.207	12.64	20.38	17.65	8.958	2.138	0.469	0.375	0.421	0.356	0.371	0.376	0.364	0.359	0.331	0.380	0.299	0.384	0.318	0.274	0.322	0.369	0.388	0.364	0.292	0.343
250.0	61.55	152.4	235.2	307.7	1286	3560	4108	1261	73.50	9.474	8.153	6.416	5.446	3.974	3.595	3.033	2.583	2.367	1.913	1.815	1.622	1.647	1.398	1.449	1.291	1.175	1.075	1.106	0.950	0.991	0.861	0.933	0.744	0.732	0.703	0.571	0.603	0.574	0.550	0.585	0.510	0.484	0.499	0.415	0.453	0.519	0.640	0.855	0.919	0.914	0.842	1.539	3.347	7.137	12.20	18.13	21.75	17.44	9.002	2.402	0.476	0.389	0.377	0.375	0.340	0.355	0.372	0.332	0.322	0.358	0.340	0.352	0.359	0.348	0.391	0.308	0.372
255.0	46.96	65.15	180.5	313.7	372.7	923.1	3635	6334	1740	62.92	11.21	8.578	5.636	4.696	4.149	3.567	2.749	2.405	2.479	1.890	1.797	1.666	1.386	1.405	1.412	1.372	1.165	1.320	1.010	1.004	0.967	0.969	0.873	0.705	0.698	0.567	0.652	0.492	0.467	0.455	0.458	0.453	0.532	0.529	0.464	0.476	0.472	0.576	0.635	0.947	1.455	1.362	1.204	1.949	3.073	4.681	9.167	21.18	34.00	27.04	12.85	2.416	0.418	0.370	0.392	0.346	0.376	0.356	0.357	0.330	0.439	0.381	0.439	0.331	0.341	0.328	0.371
260.0	40.31	39.80	82.33	269.7	317.7	261.0	1159	5745	6728	304.3	29.09	9.702	7.487	5.622	5.093	3.702	2.992	2.665	2.297	1.728	1.995	1.793	1.423	1.337	1.527	1.277	1.185	1.301	1.025	1.087	1.011	0.887	0.822	0.668	0.749	0.734	0.677	0.606	0.558	0.460	0.517	0.453	0.517	0.421	0.467	0.498	0.475	0.405	0.391	0.536	1.025	1.801	1.599	1.301	1.147	1.373	2.437	6.168	16.71	32.66	40.84	24.92	9.333	1.310	0.435	0.460	0.358	0.472	0.430	0.359	0.395	0.369	0.374	0.381	0.413	0.335	0.320
265.0	42.37	38.23	40.85	137.7	373.8	231.2	300.5	2069	7911	6185	239.7	14.99	9.363	6.394	5.681	3.971	3.322	2.775	2.520	2.247	1.927	1.761	1.372	1.325	1.509	1.349	1.182	1.282	1.108	1.060	0.973	0.977	0.859	0.763	0.712	0.686	0.687	0.568	0.558	0.482	0.520	0.439	0.605	0.447	0.552	0.475	0.483	0.403	0.368	0.410	0.568	0.994	1.707	1.973	1.456	0.878	0.926	1.807	4.273	10.21	26.13	43.82	33.14	20.87	4.938	0.662	0.410	0.413	0.382	0.351	0.353	0.372	0.383	0.402	0.354	0.367	0.386
270.0	52.02	40.47	39.06	57.65	191.4	375.6	277.7	521.9	2664	7212	7955	943.5	53.34	9.409	6.854	4.952	3.813	3.342	2.870	2.329	2.239	1.824	1.759	1.585	1.655	1.419	1.396	1.321	1.234	1.087	1.070	1.030	0.979	0.938	0.758	0.694	0.675	0.605	0.610	0.580	0.563	0.493	0.571	0.536	0.543	0.483	0.462	0.434	0.449	0.386	0.404	0.520	0.802	1.232	1.794	2.086	1.741	1.085	1.403	2.655	6.505	13.48	22.61	36.71	37.46	36.27	14.34	4.564	0.635	0.438	0.409	0.413	0.444	0.374	0.428	0.374	0.381
275.0	99.35	84.11	63.43	48.63	72.91	190.5	500.4	343.9	648.5	1876	6957	9999.9	1278	43.71	9.752	6.246	5.037	3.876	3.425	2.550	2.278	1.984	1.896	1.704	1.764	1.712	1.450	1.247	1.217	1.144	1.271	1.058	0.862	0.890	0.804	0.774	0.785	0.702	0.627	0.631	0.543	0.591	0.635	0.617	0.569	0.579	0.541	0.548	0.517	0.455	0.393	0.425	0.521	0.616	0.915	1.183	2.580	2.965	2.182	1.188	1.998	3.498	5.611	8.969	13.26	32.54	59.53	33.45	21.26	4.268	0.609	0.486	0.413	0.419	0.398	0.398	0.447
280.0	158.0	148.8	114.4	66.89	58.23	92.82	351.1	566.5	288.3	498.2	2156	9999.9	9983	175.9	20.09	8.481	6.730	4.392	3.991	3.124	2.453	2.012	2.018	1.658	1.607	1.596	1.628	1.492	1.265	1.195	1.231	1.112	1.038	0.934	0.934	0.846	0.853	0.743	0.714	0.677	0.615	0.751	0.714	0.721	0.675	0.657	0.670	0.705	0.649	0.573	0.518	0.530	0.492	0.577	0.600	0.654	1.374	2.243	3.414	2.619	1.527	1.391	1.918	2.651	3.563	8.771	22.95	45.56	67.57	31.98	15.50	1.793	0.552	0.448	0.511	0.413	0.429
285.0	210.8	215.7	169.8	111.4	64.27	70.91	167.0	559.8	385.7	247.8	608.3	3525	9999.9	7338	131.4	12.59	7.767	5.474	4.066	3.467	2.865	2.239	2.157	1.961	1.830	1.577	1.611	1.525	1.354	1.201	1.368	1.129	1.000	0.963	1.042	0.836	0.883	0.893	0.812	0.764	0.719	0.782	0.697	0.714	0.660	0.802	0.802	0.947	0.902	0.621	0.619	0.576	0.529	0.573	0.603	0.610	0.842	1.153	1.967	3.540	3.137	1.785	1.324	1.243	1.529	2.651	5.973	13.01	33.40	57.31	69.36	27.17	8.496	0.824	0.538	0.432	0.455
290.0	290.4	324.0	270.2	165.9	102.8	89.80	119.4	274.6	587.1	535.2	349.1	989.4	3571	9494	8374	508.1	29.73	7.991	5.596	4.038	3.372	2.729	2.467	2.192	1.968	1.672	1.511	1.463	1.462	1.434	1.271	1.165	1.057	1.145	1.126	1.023	1.017	0.986	0.858	0.863	0.782	0.804	0.839	0.822	0.921	1.108	0.978	1.088	1.106	0.839	0.781	0.726	0.748	0.664	0.650	0.667	0.819	0.858	1.068	1.661	2.297	3.123	3.454	2.447	1.640	1.687	2.369	3.923	8.564	16.27	31.39	44.63	40.54	45.64	17.47	7.065	0.961
295.0	345.6	415.9	350.3	240.9	153.5	130.9	137.7	200.0	345.4	785.7	733.4	540.5	1038	2477	7584	7694	702.4	25.06	7.886	5.341	4.423	3.365	2.767	2.532	2.176	1.914	1.647	1.515	1.629	1.518	1.305	1.317	1.076	1.158	1.149	1.131	1.093	1.199	0.892	0.949	0.887	0.906	0.866	0.946	1.094	1.380	1.238	1.420	1.307	0.988	0.992	0.986	0.855	0.830	0.742	0.829	0.973	0.902	1.004	1.267	1.347	1.907	2.666	3.964	4.523	3.065	2.187	2.276	3.170	4.857	8.108	11.05	12.41	31.17	60.40	71.62	27.04
300.0	411.2	470.0	414.2	289.8	205.7	167.4	183.2	224.0	307.2	583.6	1084	684.9	558.4	769.2	2274	9517	6462	100.2	13.84	6.922	4.963	4.155	3.102	2.609	2.495	2.001	2.165	1.698	1.662	1.501	1.367	1.163	1.277	1.199	1.289	1.116	1.252	1.076	1.077	1.026	0.946	0.968	1.019	0.981	1.017	1.306	1.330	1.519	1.612	1.368	1.028	1.186	0.892	0.852	0.792	1.040	1.157	0.984	1.195	1.177	1.456	1.601	1.976	2.676	4.341	5.400	4.190	2.740	2.294	2.545	3.233	3.629	3.755	8.284	20.32	48.34	72.36
305.0	439.6	508.1	458.2	339.6	241.8	209.2	236.8	282.6	357.9	516.6	977.7	1151	628.3	474.1	702.1	3249	9999.9	5073	79.43	9.977	6.974	4.813	3.823	2.691	2.452	2.209	2.069	1.744	1.664	1.670	1.504	1.336	1.273	1.144	1.387	1.316	1.297	1.072	1.239	1.151	1.051	0.944	1.106	1.110	1.206	1.391	1.521	1.815	1.751	1.465	1.277	1.365	1.177	1.070	1.108	1.152	1.315	1.391	1.424	1.379	1.597	1.664	2.031	2.272	3.116	4.231	5.532	5.051	3.426	2.642	2.552	2.416	2.273	3.047	5.474	12.70	28.94
310.0	457.3	568.7	510.6	391.0	290.3	259.0	293.9	351.8	429.5	558.1	778.5	1138	1081	597.7	435.1	902.4	3330	7803	6896	337.6	23.25	7.021	4.858	3.784	2.988	2.516	2.289	1.890	1.800	1.684	1.539	1.354	1.313	1.440	1.378	1.238	1.344	1.136	1.197	1.087	0.987	0.985	1.103	1.180	1.276	1.496	1.563	1.788	1.734	1.520	1.459	1.436	1.386	1.314	1.228	1.373	1.564	1.645	1.825	1.809	1.825	2.007	2.336	2.573	2.990	3.279	3.812	4.618	5.298	4.838	3.825	2.815	2.286	2.302	2.510	3.905	7.455
315.0	498.6	618.5	586.6	457.4	353.4	332.8	367.4	422.4	494.8	617.0	775.2	935.5	1129	1049	524.9	465.6	943.0	2004	6201	8849	505.3	20.76	6.756	4.581	3.374	3.015	2.675	2.256	2.016	1.838	1.709	1.455	1.531	1.402	1.405	1.227	1.279	1.213	1.117	1.043	1.059	1.128	1.154	1.210	1.301	1.480	1.619	2.006	1.932	1.754	1.460	1.715	1.845	1.531	1.554	1.480	1.874	1.702	1.999	1.999	2.079	2.249	2.597	2.716	3.030	3.380	3.532	3.832	4.131	4.715	5.507	5.267	3.540	2.590	2.384	2.219	3.102
320.0	573.7	728.4	706.8	538.2	450.3	428.5	434.3	480.5	570.3	695.2	843.3	965.8	1040	1238	870.5	504.9	522.4	673.2	1839	7971	4653	387.1	11.95	6.223	4.460	3.458	2.960	2.535	2.282	2.108	1.905	1.697	1.509	1.467	1.373	1.286	1.333	1.328	1.203	1.175	1.141	1.113	1.179	1.360	1.452	1.649	2.002	2.453	2.392	2.189	1.663	1.940	2.002	1.702	1.904	1.845	2.056	2.178	2.177	2.314	2.534	2.599	2.840	3.088	3.420	3.574	3.839	4.053	4.166	4.192	4.577	5.679	6.056	4.212	3.220	2.602	2.646
325.0	676.3	922.1	969.0	738.7	550.1	504.6	508.8	554.3	636.9	774.5	938.2	1050	1071	1133	1176	703.8	520.1	447.3	610.1	2597	8120	4005	60.46	8.863	5.262	4.441	3.602	3.066	2.299	2.306	1.824	1.704	1.646	1.266	1.360	1.256	1.335	1.236	1.282	1.249	1.201	1.119	1.171	1.601	1.715	2.146	2.447	2.861	2.906	2.524	2.243	2.626	2.290	2.194	2.030	2.217	2.313	2.437	2.468	2.623	2.831	2.682	3.032	3.365	3.599	3.853	4.139	4.255	4.518	4.678	4.288	5.159	5.408	6.045	4.965	3.594	2.951
330.0	801.3	1147	1296	1045	758.4	617.5	588.4	620.2	712.0	857.2	1016	1133	1163	1116	1124	1035	723.3	487.2	401.5	771.1	2584	5888	5514	1147	19.96	6.124	4.317	3.424	2.809	2.449	2.099	1.848	1.774	1.487	1.429	1.341	1.257	1.288	1.221	1.274	1.245	1.331	1.394	1.669	1.915	2.444	2.855	3.628	3.646	3.406	3.205	3.382	2.838	2.754	2.554	2.533	2.587	2.544	2.626	2.930	2.831	3.116	3.515	3.700	3.883	4.291	4.403	4.534	4.937	4.891	4.893	4.940	5.094	5.225	5.653	5.297	4.755
335.0	942.7	1353	1562	1335	1026	800.8	721.2	696.0	806.2	938.8	1106	1239	1272	1227	1144	1071	1068	688.5	459.1	441.4	732.5	1485	4678	7682	434.6	20.39	6.089	4.329	3.491	2.948	2.608	2.284	1.899	1.791	1.464	1.540	1.471	1.489	1.299	1.370	1.420	1.308	1.576	1.842	2.041	2.657	3.319	4.071	4.343	4.134	3.991	4.391	3.760	3.600	3.296	2.986	3.166	3.049	3.068	3.409	3.072	3.575	3.761	3.956	4.455	4.557	4.798	5.012	4.999	5.335	5.564	5.514	5.294	5.492	5.384	5.318	5.913
340.0	983.9	1442	1741	1523	1180	932.2	796.3	768.8	841.4	996.3	1142	1281	1319	1287	1193	1066	1103	893.6	547.6	412.6	354.6	445.2	1339	6316	6372	352.4	11.73	5.570	4.316	3.389	2.768	2.266	2.039	1.787	1.542	1.546	1.503	1.378	1.385	1.448	1.359	1.470	1.621	1.845	2.211	2.878	3.498	4.618	4.854	4.656	4.543	4.999	4.482	4.147	3.738	3.325	3.368	3.296	3.243	3.217	3.538	3.766	3.895	4.213	4.593	5.000	4.814	5.143	5.356	5.470	5.239	5.648	5.482	5.615	5.254	5.092	5.617
345.0	945.1	1456	1777	1584	1270	1002	852.0	820.5	904.6	1013	1172	1283	1328	1300	1212	1067	1000	997.6	700.2	444.5	303.8	244.9	403.0	1942	6946	3453	53.70	8.241	5.085	3.870	3.378	2.344	2.176	1.903	1.646	1.542	1.464	1.450	1.238	1.452	1.306	1.618	1.651	1.839	2.231	2.785	3.325	4.497	4.979	4.807	4.655	5.138	4.692	4.543	4.005	3.749	3.656	3.536	3.475	3.439	3.945	3.874	4.278	4.531	4.659	4.844	5.150	5.109	5.658	5.544	5.382	5.524	5.728	5.686	5.501	4.923	5.157
350.0	927.6	1398	1706	1618	1356	1125	963.2	915.4	970.6	1060	1177	1268	1318	1299	1213	1088	983.7	905.1	834.7	611.0	365.4	259.8	244.6	544.1	2087	4563	4512	1097	19.46	5.228	3.795	2.805	2.424	2.127	1.765	1.623	1.615	1.328	1.460	1.361	1.408	1.490	1.665	1.741	2.238	2.855	3.412	4.377	4.767	4.554	4.584	5.471	5.091	4.790	4.466	3.984	4.146	4.031	3.844	3.926	4.116	4.153	4.266	4.431	4.744	4.657	4.992	4.945	5.438	5.316	5.516	5.502	5.737	5.567	5.636	5.367	5.430
355.0	897.2	1343	1651	1645	1430	1230	1088	1032	1076	1141	1227	1289	1324	1281	1229	1112	1013	893.6	792.8	783.7	530.6	336.3	269.6	283.1	574.4	1136	3296	6262	407.6	22.35	5.891	3.657	2.788	2.365	1.859	1.665	1.681	1.433	1.542	1.312	1.377	1.580	1.574	1.606	2.134	2.572	3.290	4.162	4.601	4.438	4.586	5.620	5.357	5.091	5.121	4.443	4.385	4.185	4.108	4.228	4.454	4.311	4.519	4.671	5.172	4.806	4.844	5.064	5.526	5.276	5.448	5.427	5.749	5.561	5.829	5.762	5.551
360.0	882.9	1303	1604	1637	1468	1287	1171	1114	1130	1202	1267	1297	1314	1288	1234	1125	1030	910.7	786.7	757.4	680.4	443.5	325.4	267.4	277.0	355.8	912.7	4560	5602	355.5	13.79	5.020	3.447	2.646	2.004	1.699	1.636	1.490	1.637	1.460	1.352	1.533	1.631	1.790	2.126	2.527	3.180	3.952	4.209	4.566	4.455	5.469	5.361	5.263	5.029	4.547	4.856	4.746	4.468	4.650	4.481	4.938	4.840	5.112	5.230	4.980	4.965	4.895	5.246	5.422	5.437	5.248	5.841	5.632	5.745	5.919	5.592
365.0	827.3	1255	1542	1584	1488	1355	1235	1194	1204	1249	1294	1312	1302	1282	1222	1129	1042	932.7	808.5	740.5	721.6	599.0	398.2	312.3	252.5	215.3	295.8	1334	5403	3271	52.61	9.010	4.490	3.308	2.224	2.028	1.925	1.641	1.556	1.462	1.423	1.475	1.778	1.638	2.146	2.646	3.007	3.839	4.052	4.388	4.608	5.357	5.583	5.261	5.167	4.848	5.040	4.995	4.853	4.989	4.792	4.993	5.137	5.094	5.330	5.021	5.126	5.064	5.369	5.264	5.652	5.440	5.306	5.879	5.799	5.900	5.750
370.0	830.1	1191	1493	1584	1530	1419	1318	1269	1295	1315	1349	1333	1305	1279	1220	1136	1066	974.4	869.8	785.6	711.2	695.7	583.9	414.9	317.7	245.1	206.2	395.7	1561	3818	4110	1093	19.35	4.893	3.047	2.613	1.991	1.813	1.544	1.527	1.457	1.612	1.677	1.738	2.055	2.475	3.035	3.713	4.208	4.143	4.551	5.482	5.531	5.606	5.324	5.251	5.344	5.055	5.264	5.134	5.221	5.197	5.442	5.623	5.401	5.430	5.115	5.238	5.302	5.398	5.262	5.527	5.489	5.764	5.545	5.519	5.525
375.0	822.9	1168	1454	1566	1553	1482	1371	1336	1374	1371	1395	1370	1319	1270	1220	1149	1081	1011	927.9	848.8	757.1	704.9	710.2	591.5	417.8	324.1	251.7	234.1	449.2	947.8	2698	5536	1520	22.45	5.478	3.458	2.622	1.940	1.783	1.687	1.545	1.630	1.749	1.770	2.171	2.628	2.864	3.737	4.080	4.009	4.463	5.555	5.786	5.792	5.633	5.524	5.673	5.262	5.396	5.297	5.517	5.270	5.581	5.382	5.287	5.250	5.035	5.182	5.311	5.397	5.361	5.517	5.702	5.811	5.774	5.412	5.733
380.0	836.1	1148	1444	1542	1569	1520	1414	1383	1398	1414	1410	1385	1335	1267	1209	1137	1090	1033	957.6	889.5	801.6	742.3	716.4	708.3	528.1	396.0	307.2	237.2	234.3	304.8	747.5	3766	5211	307.7	13.64	5.344	3.073	2.370	2.023	1.645	1.732	1.747	1.794	1.793	2.248	2.462	2.694	3.549	4.038	3.883	4.507	5.318	5.916	5.666	5.929	5.596	5.794	5.483	5.564	5.633	5.463	5.423	6.056	5.834	5.342	5.511	5.358	5.395	5.195	5.549	5.390	5.408	5.604	5.574	5.655	5.406	5.763
385.0	803.3	1114	1407	1530	1592	1549	1435	1425	1416	1432	1420	1403	1353	1278	1215	1137	1100	1046	980.3	915.9	846.9	783.7	732.8	732.4	661.0	484.2	368.7	285.6	224.5	192.8	254.4	1079	4432	2729	232.1	9.481	4.829	3.271	2.350	1.859	1.734	1.846	1.810	1.806	2.236	2.552	2.746	3.603	3.915	4.113	4.577	5.557	5.475	5.670	5.792	5.527	6.276	5.697	5.837	5.552	5.376	5.574	5.784	5.856	5.821	5.745	5.336	5.534	5.354	5.475	5.322	5.531	5.525	5.465	5.549	5.652	5.597
390.0	817.2	1101	1399	1524	1578	1547	1494	1458	1457	1461	1456	1421	1369	1303	1228	1151	1109	1062	1012	962.6	906.2	847.5	797.7	756.2	735.6	647.0	488.8	376.8	302.1	240.1	202.7	345.0	1259	2837	3144	880.4	19.57	6.644	3.662	2.647	2.003	1.936	1.732	2.032	2.187	2.680	2.821	3.577	3.960	3.973	4.487	5.435	5.517	5.701	5.765	5.917	5.914	5.928	6.003	5.879	5.841	5.772	5.756	5.875	5.487	5.663	5.396	5.719	5.283	5.563	5.558	5.496	5.544	5.688	5.700	5.755	5.706
395.0	807.3	1105	1392	1532	1578	1563	1534	1506	1501	1534	1548	1522	1467	1383	1293	1199	1129	1089	1045	1013	963.7	928.5	900.2	850.4	806.9	790.7	696.8	539.2	440.0	369.9	298.7	266.3	417.0	751.7	1992	4031	299.3	25.51	7.109	3.849	2.403	2.120	1.946	2.075	2.349	2.696	2.915	3.683	4.046	3.856	4.190	5.464	5.787	5.884	5.746	5.855	6.103	6.256	6.165	6.089	5.996	6.119	5.924	5.915	6.062	5.780	5.447	5.652	5.570	5.797	5.756	5.524	5.598	5.701	5.826	5.669	5.851
400.0	771.6	1133	1388	1538	1588	1586	1584	1559	1578	1626	1652	1646	1602	1506	1368	1255	1170	1116	1076	1056	1031	1008	993.9	960.9	917.9	883.9	863.8	731.9	598.4	484.0	424.6	345.4	309.3	330.7	622.3	2707	3507	269.3	17.78	5.575	3.172	2.485	2.226	2.180	2.448	2.537	2.887	3.418	3.825	4.065	4.328	5.434	5.787	5.999	5.885	6.101	6.343	6.155	6.176	5.960	6.005	6.263	6.252	6.348	6.200	6.235	5.902	6.169	5.708	6.029	6.058	5.680	5.771	5.815	5.899	5.914	5.765
405.0	769.9	1064	1356	1515	1607	1613	1602	1611	1632	1713	1796	1814	1763	1644	1484	1337	1217	1152	1119	1097	1089	1087	1082	1075	1048	1004	989.1	936.3	785.5	669.7	582.3	472.9	370.4	307.4	320.4	863.9	3075	2314	205.3	9.421	4.057	3.408	2.470	2.456	2.398	2.675	3.139	3.643	3.983	4.108	4.436	5.405	5.618	6.269	6.364	6.240	6.589	6.285	6.465	6.122	6.199	6.378	6.586	6.578	6.284	6.654	6.295	6.444	6.153	6.134	6.098	5.880	5.904	6.178	6.073	5.747	6.116
410.0	799.1	1077	1335	1490	1591	1613	1618	1641	1680	1783	1896	1926	1878	1745	1570	1381	1236	1151	1122	1117	1129	1137	1161	1171	1157	1117	1081	1063	988.9	846.2	730.0	605.0	470.8	372.0	310.1	376.7	941.7	2168	2459	724.8	15.45	4.115	3.056	2.571	2.697	2.897	3.122	3.602	4.154	4.145	4.338	5.555	5.792	6.238	6.162	6.453	6.618	6.578	6.533	6.511	6.558	6.474	6.530	6.590	6.510	6.553	6.408	6.608	6.421	6.135	6.263	6.279	6.354	6.288	6.042	6.028	6.167
415.0	798.4	1099	1279	1438	1568	1608	1617	1637	1692	1770	1891	1908	1845	1715	1543	1349	1208	1125	1100	1096	1112	1130	1155	1175	1164	1140	1097	1055	1024	945.8	792.3	651.0	510.6	400.7	319.0	276.5	337.8	569.1	1461	2947	270.6	16.40	3.713	2.990	2.890	2.976	3.251	3.690	3.801	4.051	4.355	5.314	5.729	6.242	5.903	6.313	6.290	6.648	6.640	6.574	6.432	6.558	6.529	6.503	6.208	6.536	6.328	6.539	6.223	5.901	6.138	5.975	6.309	6.190	5.848	5.937	5.949
420.0	737.3	1015	1298	1410	1513	1569	1579	1617	1655	1737	1823	1845	1793	1655	1484	1303	1168	1095	1064	1060	1081	1100	1123	1144	1142	1114	1076	1032	987.3	954.8	823.6	655.4	517.6	407.1	323.3	253.1	204.1	199.9	402.8	1940	2212	231.3	9.267	3.645	2.911	3.178	3.211	3.423	3.806	3.862	4.186	5.202	5.801	5.967	6.126	6.045	6.588	6.211	6.452	6.338	6.486	6.296	6.385	6.406	5.988	6.416	6.090	6.224	6.023	5.694	6.326	5.956	6.155	5.932	5.575	5.540	5.672
425.0	738.5	994.4	1239	1391	1489	1549	1585	1611	1646	1716	1782	1816	1757	1614	1439	1270	1131	1052	1035	1034	1050	1069	1098	1119	1124	1102	1070	1029	971.9	936.1	858.7	683.5	535.2	416.8	336.0	255.7	181.7	124.4	132.7	548.7	2113	2007	36.04	5.263	3.607	3.340	3.555	3.646	3.671	3.813	4.094	5.460	5.647	5.884	5.879	6.063	6.465	6.138	6.495	6.532	6.359	6.369	6.651	6.395	6.081	6.215	5.996	6.033	5.989	5.995	6.104	5.481	5.839	5.663	5.434	5.660	5.340
430.0	843.6	959.6	1191	1333	1457	1543	1580	1607	1648	1704	1791	1796	1730	1609	1432	1245	1101	1027	1002	1005	1022	1046	1086	1117	1124	1117	1091	1058	1001	946.8	881.2	762.4	591.8	459.8	370.5	286.1	198.3	122.9	82.54	154.4	594.4	1657	1917	568.8	13.21	4.279	3.699	3.713	3.933	3.827	4.009	5.311	5.517	5.767	5.735	5.959	6.578	6.337	6.487	6.555	6.395	6.246	6.432	6.455	6.216	5.929	5.978	5.901	6.007	5.981	5.738	5.632	5.886	5.739	5.319	5.461	5.443
435.0	1294	955.4	1166	1316	1404	1547	1598	1631	1644	1693	1769	1794	1713	1582	1413	1220	1076	998.1	971.8	975.6	989.1	1019	1060	1101	1116	1111	1093	1071	1017	964.1	885.6	791.2	658.5	505.1	399.5	313.2	224.5	137.6	84.02	74.85	160.5	400.0	1174	2449	250.0	14.63	4.291	3.954	3.986	3.868	4.037	5.169	5.259	5.983	5.994	5.872	6.825	6.694	6.651	6.671	6.332	6.372	6.316	6.291	6.266	6.257	6.028	5.785	5.769	5.682	5.542	5.493	5.579	5.708	5.142	5.250	5.187
440.0	1787	1065	1120	1285	1414	1528	1561	1645	1617	1665	1725	1748	1655	1539	1359	1187	1043	965.5	939.9	942.9	950.0	977.3	1020	1062	1077	1074	1064	1038	999.2	951.2	866.0	767.6	664.8	529.3	411.1	321.8	232.9	147.7	90.61	64.24	68.70	113.0	319.7	1709	2011	206.2	8.705	4.782	4.147	3.849	3.933	5.011	5.298	5.753	6.034	5.915	6.488	6.588	6.578	6.623	6.263	6.455	6.565	6.230	6.078	5.811	5.721	5.747	5.771	5.692	5.596	5.500	5.239	5.292	5.367	5.102	4.987
445.0	2002	1445	1103	1220	1371	1496	1570	1602	1593	1611	1649	1641	1567	1442	1284	1125	995.1	927.4	900.5	892.3	897.3	918.2	957.7	994.5	1011	1019	1002	985.3	947.1	904.5	822.7	727.7	623.1	528.7	413.4	320.5	233.7	154.9	98.63	67.04	53.44	53.79	93.27	494.2	1967	1779	30.31	6.549	4.524	4.150	3.991	5.067	5.187	5.766	5.721	5.930	6.173	6.469	6.262	6.422	6.234	6.369	6.280	5.771	6.069	5.643	5.561	5.604	5.514	5.262	5.069	5.181	5.068	5.140	4.958	4.894	4.913
450.0	1362	2247	1250	1175	1308	1411	1519	1549	1512	1495	1521	1494	1425	1319	1167	1029	916.0	851.2	829.5	818.1	819.7	837.1	870.7	896.3	909.9	920.0	909.1	894.0	866.1	823.4	759.0	666.1	563.3	488.8	412.2	314.7	230.8	157.5	105.8	76.22	57.75	46.55	47.26	131.0	559.7	1524	1690	487.9	12.06	4.624	4.251	4.805	5.131	5.511	5.613	5.868	6.357	6.412	6.332	6.115	6.042	5.997	5.676	5.656	5.527	5.374	5.321	5.196	5.132	4.867	4.922	4.895	4.665	4.652	4.541	4.557	4.780
455.0	751.2	2232	2052	1132	1216	1358	1439	1468	1418	1394	1399	1364	1297	1189	1055	927.5	830.4	775.4	752.5	742.2	740.8	749.2	782.4	801.7	816.5	826.5	817.5	801.8	782.0	749.3	698.0	610.3	515.1	442.4	386.6	320.9	230.2	160.6	113.2	83.99	65.19	51.13	41.34	52.86	143.7	365.8	990.9	1924	206.6	12.98	4.649	5.199	5.082	5.140	5.485	5.214	5.943	6.213	6.150	5.638	5.476	5.584	5.480	5.092	5.104	5.098	4.826	4.600	4.765	4.588	4.347	4.737	4.297	4.318	4.330	4.124	4.489
460.0	559.3	1534	2812	1250	1147	1278	1360	1399	1339	1296	1305	1273	1214	1106	976.2	869.3	784.8	723.3	704.3	689.5	682.7	692.7	718.6	740.5	752.1	763.0	754.5	747.4	724.1	702.0	650.0	572.9	489.0	411.5	355.8	315.9	241.2	162.6	118.6	88.68	69.83	56.80	44.19	38.12	53.48	98.51	262.9	1327	1639	162.7	8.300	5.203	5.012	4.835	5.167	5.082	5.712	6.046	6.023	5.722	5.295	5.323	4.937	5.108	4.751	4.662	4.521	4.458	4.461	4.319	4.299	4.149	4.077	4.099	3.912	3.870	4.335
465.0	490.4	950.5	2875	1769	1091	1200	1280	1314	1267	1240	1228	1190	1124	1020	910.3	805.9	726.9	676.7	655.1	640.0	632.6	638.0	657.2	681.3	694.6	701.8	700.5	691.4	680.0	653.2	610.0	541.0	462.8	387.2	335.7	295.3	244.3	170.2	120.7	92.63	73.83	60.30	47.41	39.06	36.18	41.27	74.21	378.3	1527	1341	129.6	6.531	5.145	5.269	5.101	5.047	5.394	5.441	5.580	5.292	5.262	5.080	4.625	4.972	4.597	4.437	4.521	4.218	4.216	4.101	4.357	4.183	3.915	3.957	3.896	3.777	4.073
470.0	463.4	667.4	1860	2767	1255	1087	1168	1198	1157	1117	1101	1078	1010	916.7	823.6	725.0	648.8	607.0	584.5	570.8	560.4	563.0	580.3	601.8	612.8	618.5	618.3	613.4	603.9	581.9	544.7	489.1	421.6	357.3	306.8	262.2	224.4	177.4	126.7	95.50	77.68	62.77	51.41	41.68	35.03	30.52	33.43	98.22	428.8	1078	1215	392.4	12.79	5.426	4.940	4.874	5.094	5.267	4.971	4.971	4.889	4.554	4.254	4.492	4.290	4.205	4.175	4.047	3.952	3.687	3.761	3.755	3.583	3.531	3.557	3.302	3.573
475.0	433.5	551.5	962.4	2648	2089	1005	1066	1062	1035	998.7	980.3	943.9	889.6	813.6	714.8	638.9	570.9	533.4	519.6	500.6	487.4	491.5	501.4	518.8	526.3	531.6	530.3	529.1	521.9	508.8	478.1	432.3	373.0	320.6	277.1	235.5	194.6	167.6	136.1	100.8	78.88	65.69	54.30	44.67	36.84	31.11	26.41	37.12	107.1	254.9	626.3	1345	207.8	14.59	4.808	4.831	4.902	4.783	4.567	4.484	4.388	4.169	4.151	4.018	3.741	3.696	3.362	3.587	3.561	3.737	3.420	3.438	3.343	3.375	3.131	3.022	2.895
480.0	402.3	537.0	690.3	1789	2932	1106	964.8	995.4	959.1	915.5	899.2	859.5	814.2	736.2	655.3	578.5	521.5	487.5	473.0	459.0	440.4	444.6	452.0	463.5	472.5	476.3	472.5	473.1	470.5	457.8	429.7	392.0	338.8	294.2	252.9	216.3	180.9	151.7	135.2	107.3	81.67	66.87	56.07	46.00	39.23	32.44	26.53	25.24	37.16	67.27	161.7	794.9	1253	187.4	8.803	4.691	4.630	4.332	4.438	4.280	4.073	3.826	3.870	3.860	3.484	3.489	3.276	3.266	3.245	3.374	3.159	3.173	2.968	3.049	2.893	2.985	2.745
485.0	362.0	519.2	597.8	1053	3042	1632	909.6	932.8	885.5	852.2	825.5	802.8	742.4	674.9	604.6	534.7	484.6	451.5	432.6	421.0	404.8	402.2	409.9	419.2	428.6	434.8	432.0	428.8	428.0	418.8	394.0	361.3	312.4	273.6	237.1	203.9	171.2	141.9	127.0	112.8	86.65	68.66	58.04	48.89	40.05	34.07	28.75	23.72	23.14	26.66	45.73	221.2	1019	1138	30.04	6.180	4.870	4.379	4.296	4.230	3.904	3.835	3.614	3.732	3.738	3.248	2.982	2.899	3.067	3.114	2.898	2.870	2.783	2.660	2.750	2.737	2.666
490.0	322.2	494.8	543.8	707.2	1925	2669	1027	844.7	806.9	776.2	752.8	726.4	666.7	605.6	543.2	482.7	435.6	407.5	389.0	379.2	362.3	361.0	368.7	373.4	380.5	382.8	382.0	381.9	380.0	374.7	355.1	323.6	283.0	249.8	219.1	188.6	160.5	132.7	114.4	106.9	94.74	73.55	59.20	50.68	42.63	36.27	30.54	25.58	21.67	18.98	20.99	58.59	275.9	779.5	1017	381.3	13.86	4.539	4.200	4.049	3.726	3.580	3.405	3.292	3.277	2.986	3.017	2.865	2.825	2.723	2.865	2.676	2.647	2.588	2.525	2.533	2.545
495.0	272.9	460.0	535.5	561.8	964.3	2667	1820	764.3	739.3	702.0	676.9	653.9	601.2	539.6	486.5	427.9	386.0	361.4	346.6	335.6	319.7	318.3	324.2	329.2	333.8	337.7	334.8	337.7	337.5	330.3	314.3	288.9	254.9	225.9	200.6	172.6	149.1	124.9	105.9	94.61	92.04	80.42	61.58	52.22	44.57	37.55	32.30	26.83	22.88	18.85	16.74	22.87	70.02	183.7	531.4	1255	235.8	15.80	4.339	3.923	3.419	3.133	3.102	3.011	2.893	2.941	2.783	2.598	2.468	2.444	2.568	2.282	2.463	2.407	2.375	2.263	2.154
500.0	248.8	385.5	514.3	516.5	639.6	1821	2689	826.5	673.1	642.8	628.7	595.5	542.0	494.1	441.2	391.7	353.5	329.5	315.4	303.3	292.1	289.5	291.1	296.0	299.9	303.3	302.9	303.5	303.0	298.7	284.5	262.7	233.6	208.6	183.8	160.8	139.9	118.8	100.5	88.77	84.21	81.08	65.65	52.51	44.22	38.88	32.24	27.76	23.73	18.93	16.18	16.27	24.59	48.87	135.8	705.5	1205	204.9	9.375	3.638	3.520	3.169	3.017	2.712	2.771	2.454	2.496	2.406	2.375	2.514	2.369	2.195	2.285	2.221	2.252	2.013	2.039
505.0	240.6	327.5	490.3	493.9	541.7	1026	2958	1277	627.9	599.3	573.1	541.4	495.4	452.9	402.4	353.9	323.0	302.4	283.9	273.4	267.4	260.3	264.0	264.9	270.7	273.6	271.8	274.8	273.2	269.8	259.0	236.4	214.3	188.7	168.0	148.1	130.3	110.3	94.28	83.51	75.31	74.31	68.40	54.91	43.81	38.44	33.05	28.76	24.44	20.34	17.22	14.93	15.01	19.18	37.40	188.9	867.8	1073	32.82	5.338	3.467	2.956	2.744	2.564	2.511	2.399	2.173	2.115	2.364	2.047	2.192	2.066	2.047	2.074	2.073	1.933	1.877
510.0	214.1	289.4	401.5	474.0	473.6	604.0	1910	2397	699.6	528.6	508.1	477.7	438.7	398.1	349.6	311.3	282.3	266.9	250.8	237.1	232.5	227.4	230.4	230.8	232.8	235.1	234.9	236.2	235.8	233.2	225.0	206.9	187.4	167.4	149.1	132.5	115.9	100.4	87.82	78.35	69.38	64.35	62.99	57.67	45.62	37.63	32.18	28.55	24.01	20.41	17.35	14.81	13.23	12.92	15.95	48.87	227.9	654.2	834.3	326.4	13.37	3.097	2.893	2.532	2.390	2.178	2.050	2.041	2.011	1.934	1.893	1.886	1.783	1.780	1.767	1.781	1.687
515.0	174.6	256.1	322.8	432.0	435.4	459.3	856.7	2606	1415	465.8	441.4	415.3	382.0	346.1	301.8	267.4	248.4	227.6	218.4	206.0	197.2	194.1	196.5	196.1	197.7	199.9	199.0	200.1	200.8	198.8	190.0	177.5	161.1	144.5	129.8	116.9	103.4	89.14	78.39	70.70	63.38	57.03	54.62	54.76	48.48	37.47	31.83	27.61	23.46	20.15	17.47	15.45	13.04	11.35	11.64	17.61	56.67	152.1	361.7	924.4	238.3	16.10	2.938	2.312	2.159	2.049	1.972	1.787	1.703	1.745	1.647	1.740	1.553	1.585	1.529	1.575	1.524
520.0	169.2	230.4	288.7	376.4	411.9	399.4	506.1	1792	2404	516.1	399.6	369.3	338.4	310.6	275.6	241.8	222.2	202.1	195.2	181.6	173.8	172.9	173.4	172.9	173.6	175.4	174.6	175.3	176.4	175.7	168.9	156.6	142.6	128.9	115.8	104.0	93.02	82.15	72.84	65.80	59.20	53.33	49.59	48.40	47.94	39.34	31.75	27.00	22.76	19.52	17.40	15.60	13.33	11.54	10.46	10.93	18.77	38.97	89.59	454.5	877.7	208.8	9.343	2.675	2.022	1.846	1.786	1.698	1.681	1.616	1.581	1.661	1.756	1.611	1.388	1.405	1.437
525.0	143.4	200.1	251.6	320.2	396.8	356.2	392.6	914.6	2870	925.8	359.8	337.1	309.0	281.1	245.3	217.4	198.0	185.6	175.4	165.0	157.4	154.2	153.7	154.7	154.5	156.8	155.6	156.1	157.0	154.9	151.1	140.1	127.6	116.4	105.7	94.71	84.85	76.06	67.81	61.02	55.43	48.77	45.94	42.44	44.34	40.46	31.91	26.26	22.10	18.89	16.52	15.37	13.51	11.39	10.00	9.103	10.13	13.94	24.88	115.6	531.6	797.6	161.2	4.632	2.132	1.956	1.842	1.502	1.503	1.547	1.438	1.467	1.439	1.461	1.281	1.273	1.341
530.0	138.2	171.1	213.1	248.0	352.5	340.9	329.0	463.2	1837	2147	446.8	293.4	269.1	242.6	212.6	186.5	170.1	159.8	152.4	142.9	136.9	133.3	132.8	132.5	132.2	132.4	135.0	131.8	134.2	132.4	129.1	119.5	109.4	102.5	91.57	82.85	73.76	67.59	60.36	54.84	50.01	44.41	41.20	38.12	37.20	37.37	33.01	25.92	21.57	18.27	15.91	14.37	12.70	11.41	10.20	8.794	8.266	8.382	10.19	29.97	133.8	414.3	604.9	265.5	13.45	2.105	1.711	1.576	1.392	1.376	1.391	1.321	1.326	1.274	1.233	1.232	1.194
535.0	114.5	147.4	188.5	211.4	269.5	340.2	290.9	312.6	701.3	2509	1149	257.3	226.4	206.2	184.6	164.6	144.7	136.6	127.9	122.3	116.2	113.1	114.1	111.3	111.9	112.2	112.7	109.5	111.0	111.5	108.3	101.5	92.42	86.13	77.35	70.41	64.81	58.26	52.84	47.66	43.24	39.76	37.34	33.33	31.54	30.81	30.95	27.10	20.72	17.57	15.06	13.20	11.96	10.84	9.983	9.069	7.676	6.897	6.769	10.62	33.33	95.48	213.5	603.9	243.1	17.65	1.829	1.508	1.347	1.293	1.282	1.136	1.262	1.145	1.048	1.105	1.124
540.0	98.81	133.8	162.4	182.6	218.0	310.0	267.3	249.8	348.2	1620	2153	278.6	201.7	179.3	162.0	143.2	127.4	118.6	111.2	105.3	101.4	98.80	98.92	98.12	96.27	97.00	97.27	96.34	98.04	97.37	94.60	87.58	82.37	75.95	67.91	61.69	58.18	51.13	47.04	42.64	39.34	36.08	32.49	30.30	28.46	26.30	27.04	26.39	21.02	16.74	14.16	12.69	11.51	10.50	9.515	8.721	7.780	6.587	5.880	6.313	10.84	24.12	51.55	255.9	601.4	210.6	10.76	1.602	1.405	1.246	1.122	0.948	1.139	1.108	1.050	0.989	0.924
545.0	99.40	127.3	140.9	158.4	185.1	256.9	268.9	219.1	241.7	714.1	2663	630.5	181.5	158.2	143.0	126.6	114.9	105.0	97.93	93.38	88.18	86.00	85.43	85.69	86.23	85.41	84.18	84.77	85.09	85.80	84.12	77.22	71.79	65.28	61.05	54.88	51.34	45.93	42.03	38.27	34.99	32.51	30.11	27.70	25.77	23.68	23.01	23.38	21.14	16.62	13.44	11.93	10.43	9.651	8.623	8.119	7.737	6.394	5.453	5.020	5.585	8.111	14.10	62.52	302.2	565.2	160.8	4.681	1.357	1.153	1.006	1.062	0.998	0.954	0.951	0.947	0.906
550.0	98.22	106.0	121.1	136.1	152.0	182.8	254.7	198.0	189.7	304.0	1602	1786	207.7	134.6	119.2	104.7	95.86	87.77	82.47	78.84	74.13	71.79	71.14	71.32	70.74	70.28	70.18	69.78	70.70	69.71	68.79	64.40	58.95	53.99	50.29	45.87	42.65	38.76	35.51	32.82	29.82	27.68	25.53	23.51	21.76	20.42	19.18	18.60	18.73	16.12	12.96	10.67	9.497	8.575	7.965	7.356	6.922	6.220	5.095	4.527	4.420	4.450	5.617	16.05	73.15	244.8	396.8	144.1	14.08	1.426	1.145	1.032	0.876	0.861	0.853	0.932	0.796
555.0	87.47	95.89	110.7	113.0	120.5	140.9	207.6	203.7	148.0	179.7	525.0	2183	750.3	114.0	95.63	85.70	79.03	72.34	66.14	64.56	61.30	57.18	57.66	56.33	56.57	56.37	55.20	56.00	56.63	55.70	55.41	51.84	47.14	43.70	40.48	37.95	34.98	31.42	29.07	27.09	25.05	22.71	21.34	20.15	18.79	17.21	15.89	14.53	14.62	15.15	12.77	9.735	8.193	7.583	7.095	6.564	6.170	5.727	5.026	4.090	3.837	3.409	3.511	5.657	18.10	56.50	121.3	341.8	235.0	18.41	1.220	0.944	0.922	0.808	0.832	0.699	0.710
560.0	83.30	89.86	106.4	98.50	99.12	114.0	151.5	202.7	138.1	138.6	217.0	1377	1582	142.3	81.43	72.63	66.31	61.62	55.89	53.16	50.39	48.90	46.94	47.01	46.54	46.53	46.54	47.67	47.57	47.14	46.12	43.15	39.83	36.37	34.39	31.88	29.38	26.37	25.04	22.55	21.17	19.52	18.43	17.29	16.28	14.90	13.44	12.57	11.41	11.79	11.90	9.701	7.576	6.663	6.299	5.963	5.643	4.968	4.677	3.885	3.255	3.153	2.676	3.100	5.685	14.31	28.85	127.3	362.3	190.8	11.11	0.971	0.886	0.859	0.753	0.664	0.694
565.0	79.86	91.63	85.98	87.70	90.81	95.59	116.9	189.5	139.2	115.7	135.3	545.4	2111	376.3	70.39	61.68	57.19	50.75	47.64	44.68	42.90	41.27	40.76	40.63	40.22	39.70	38.87	39.87	39.55	40.09	38.48	37.11	33.81	31.46	29.12	26.92	25.10	22.56	21.21	19.22	18.57	17.20	16.27	14.24	14.05	13.05	12.05	11.03	9.973	9.697	10.30	9.353	6.966	6.128	5.585	5.247	4.894	4.513	4.360	4.118	3.122	2.698	2.446	2.342	2.856	4.683	8.032	30.80	152.1	343.2	129.9	4.611	0.976	0.844	0.731	0.726	0.662
570.0	77.48	81.52	78.63	74.42	78.35	83.33	89.14	138.5	158.0	101.4	101.7	198.2	1276	1287	103.9	50.07	46.18	41.37	39.24	36.67	34.10	33.42	33.46	32.51	32.13	31.94	31.72	31.55	31.92	31.80	31.60	29.03	27.46	25.00	23.36	22.00	20.36	18.57	17.45	15.61	15.37	13.86	13.22	12.16	11.45	10.86	9.862	9.023	8.029	7.707	7.843	8.039	6.925	5.771	4.757	4.399	4.210	3.803	3.352	3.515	3.168	2.702	2.250	2.166	1.987	2.441	3.060	8.257	36.22	130.4	223.6	129.4	13.66	0.983	0.728	0.630	0.603
575.0	78.08	78.51	71.14	68.06	62.53	67.72	68.63	88.78	158.0	103.6	85.56	104.8	388.4	1664	497.5	43.44	36.90	33.39	31.19	29.53	27.27	26.58	26.12	25.88	25.00	25.63	25.23	24.38	25.66	25.38	24.76	23.23	22.05	20.55	19.05	17.30	16.54	15.29	13.76	12.70	12.42	11.37	10.57	10.09	9.268	8.869	8.064	7.116	6.699	6.004	5.815	5.984	6.324	5.579	4.219	3.948	3.647	3.318	2.905	2.859	2.800	2.548	2.318	1.926	1.842	1.938	1.856	2.965	9.206	30.09	62.56	185.4	177.0	17.14	0.814	0.644	0.690
580.0	74.05	75.68	69.47	60.87	55.97	60.32	58.23	65.84	127.1	119.6	77.78	82.43	138.5	1047	1117	61.00	30.75	28.85	25.99	25.45	24.18	22.45	22.38	21.42	20.63	21.43	21.00	20.72	21.06	21.49	20.83	19.21	18.85	17.02	15.67	14.66	13.83	12.57	11.63	11.29	10.20	9.467	9.156	8.641	8.173	7.635	6.915	6.400	5.852	5.167	4.959	4.791	5.293	5.165	4.313	3.511	3.528	3.041	2.716	2.469	2.287	2.488	2.292	2.063	1.680	1.664	1.629	1.761	3.057	7.753	15.05	63.43	212.4	129.2	8.636	0.710	0.620
585.0	65.39	68.45	67.91	55.82	54.85	53.92	53.42	56.07	94.24	134.8	77.28	70.20	78.05	402.2	1517	129.6	28.17	24.82	22.78	21.72	20.18	19.49	19.14	18.40	18.66	18.44	18.41	17.82	17.67	17.91	17.90	16.65	16.27	14.61	13.40	12.52	11.89	10.51	9.983	9.428	9.079	8.107	7.462	7.283	7.036	6.329	6.032	5.413	4.955	4.674	4.094	4.221	4.339	4.918	4.301	3.329	2.880	2.675	2.408	2.267	2.193	1.960	2.313	1.909	1.491	1.562	1.437	1.387	1.785	2.658	4.348	15.52	84.10	204.0	35.76	3.530	0.660
590.0	61.53	68.63	65.71	52.68	47.08	46.74	47.18	49.70	66.69	123.9	89.41	65.77	59.39	129.2	925.4	765.9	47.70	21.35	18.71	17.83	16.75	16.12	15.42	14.85	15.34	14.75	14.96	14.54	14.72	14.50	14.41	13.11	12.61	11.42	10.87	10.26	9.765	8.834	8.284	7.647	7.164	6.623	6.470	6.068	5.707	5.417	5.093	4.616	4.287	3.959	3.636	3.533	3.340	3.697	3.964	3.263	2.570	2.526	2.187	2.019	1.953	1.805	1.911	1.949	1.703	1.485	1.379	1.295	1.384	1.437	1.852	4.298	19.98	74.27	125.1	84.63	11.45
595.0	59.20	66.50	57.41	47.81	41.85	41.36	40.65	43.78	49.76	87.43	113.5	65.62	53.92	59.87	268.9	1090	249.5	19.22	15.85	15.37	13.03	13.32	12.61	12.62	12.62	12.12	12.02	12.08	12.00	11.84	11.10	10.48	10.26	8.998	9.236	8.192	7.655	7.031	6.596	6.292	5.877	5.585	5.350	5.015	4.711	4.528	4.226	3.678	3.492	3.282	2.931	2.736	2.539	2.711	3.062	3.082	2.629	2.124	1.966	1.759	1.617	1.483	1.601	1.531	1.636	1.533	1.298	1.227	1.250	1.155	1.203	1.593	5.113	17.11	34.92	108.7	108.5
600.0	60.40	60.26	54.93	43.34	37.53	39.40	38.33	40.14	44.67	64.46	113.8	68.14	49.73	43.44	82.70	724.5	645.6	27.49	13.12	12.19	11.31	10.91	10.70	10.58	10.48	10.28	9.752	10.52	10.19	9.314	9.264	8.907	8.631	7.836	7.605	7.034	6.727	5.921	5.757	5.313	5.049	4.666	4.441	4.409	4.063	3.946	3.579	3.513	3.288	2.756	2.626	2.451	2.161	2.322	2.364	2.716	2.570	1.996	1.712	1.664	1.584	1.318	1.420	1.327	1.435	1.555	1.231	1.107	1.095	1.082	1.001	1.068	1.729	4.477	8.424	36.62	124.5
605.0	70.29	57.28	50.55	44.03	34.93	32.17	32.82	39.79	44.56	52.75	103.4	80.74	49.06	38.50	40.24	284.3	947.7	81.00	12.09	10.40	9.917	9.335	9.171	9.258	8.735	8.363	8.583	8.752	8.760	8.037	7.960	8.052	6.980	6.921	6.091	6.282	5.630	5.190	4.840	4.501	4.430	3.940	3.673	3.569	3.537	3.276	3.140	2.797	2.767	2.313	2.374	2.139	2.036	1.854	2.064	2.287	2.453	2.006	1.542	1.422	1.425	1.387	1.263	1.194	1.212	1.332	1.458	1.210	1.055	1.045	0.897	0.844	1.016	1.630	2.457	8.836	48.85
610.0	54.53	56.19	49.71	38.90	32.15	31.44	32.48	38.21	41.72	47.83	76.99	98.17	55.02	37.39	30.18	83.95	638.9	485.5	22.48	9.320	8.534	8.098	8.032	7.845	7.437	6.972	6.831	6.652	6.813	6.681	6.489	6.230	5.740	5.448	5.094	4.900	4.543	4.260	3.996	3.698	3.593	3.157	3.100	3.085	2.794	2.772	2.502	2.316	2.313	1.979	1.946	1.832	1.852	1.687	1.549	1.774	2.053	1.958	1.612	1.317	1.246	1.198	1.039	1.150	1.127	1.120	1.351	1.259	0.988	1.010	0.948	0.785	0.837	0.920	1.022	2.464	11.66
615.0	46.50	53.52	50.60	39.08	30.64	28.50	29.76	36.51	39.44	46.89	56.92	92.55	67.41	38.34	28.70	33.46	192.0	772.2	86.03	7.873	7.403	6.795	6.468	6.135	5.921	5.660	5.414	5.636	5.538	5.438	5.379	5.005	4.948	4.313	4.059	4.007	3.694	3.451	3.143	2.898	2.784	2.573	2.616	2.312	2.353	2.173	2.101	1.831	1.868	1.658	1.614	1.488	1.451	1.403	1.252	1.253	1.515	1.693	1.539	1.331	1.076	1.022	1.009	0.943	0.973	1.009	1.038	1.099	1.055	0.998	0.860	0.708	0.830	0.765	0.702	0.935	3.057
620.0	51.62	49.06	44.10	32.79	30.08	23.93	28.63	34.75	35.65	45.54	50.81	76.09	78.57	37.32	25.90	21.95	57.37	557.8	390.1	11.27	5.880	6.159	5.537	5.241	5.342	4.907	4.363	4.784	5.004	4.586	4.987	4.292	4.090	3.754	3.307	3.309	2.939	3.019	2.831	2.496	2.426	2.279	2.191	2.178	1.989	1.898	1.741	1.638	1.512	1.423	1.314	1.292	1.190	1.212	1.169	1.111	1.145	1.344	1.334	1.283	1.094	0.970	1.009	0.934	0.802	0.941	0.904	0.993	0.971	0.964	0.820	0.771	0.718	0.687	0.622	0.661	1.160
625.0	50.82	49.65	43.06	35.05	28.75	22.70	26.00	31.61	33.93	40.27	44.97	63.18	82.01	41.10	26.39	20.96	24.62	231.5	646.2	44.37	5.135	5.006	4.695	4.729	4.496	3.958	4.019	4.067	4.277	4.027	3.802	3.468	3.322	3.442	2.958	2.849	2.568	2.462	2.437	2.180	2.070	1.987	1.843	1.744	1.631	1.617	1.514	1.472	1.326	1.266	1.114	1.139	1.065	1.087	1.093	1.019	0.870	1.101	1.348	1.226	1.133	0.843	0.891	0.847	0.784	0.846	0.830	0.866	0.759	1.009	0.848	0.699	0.687	0.615	0.587	0.596	0.658
630.0	47.41	47.02	40.54	32.61	26.32	23.78	26.83	28.13	33.19	38.72	44.84	52.44	70.84	53.01	26.25	19.51	17.00	65.69	488.2	307.4	10.23	4.601	3.766	3.804	3.666	3.391	3.390	3.309	3.434	3.272	3.249	2.995	2.763	2.719	2.412	2.194	2.136	2.124	1.921	1.653	1.751	1.686	1.584	1.472	1.342	1.386	1.334	1.244	1.126	1.060	0.974	0.970	0.919	0.980	0.873	0.872	0.843	0.872	0.957	1.052	1.132	0.931	0.755	0.738	0.819	0.723	0.716	0.766	0.695	0.845	0.867	0.674	0.648	0.602	0.551	0.565	0.572
635.0	53.43	47.77	44.51	32.76	27.21	24.63	27.60	27.03	32.15	36.90	41.36	48.13	53.68	64.79	32.62	20.02	17.35	24.67	153.8	554.5	60.02	3.980	3.536	3.201	3.125	2.830	2.805	2.683	2.792	2.909	2.649	2.429	2.280	2.150	1.993	1.804	1.717	1.706	1.621	1.551	1.439	1.264	1.402	1.295	1.178	1.298	1.147	0.975	0.940	0.942	0.837	0.786	0.805	0.827	0.739	0.736	0.774	0.766	0.764	0.934	0.907	0.878	0.765	0.713	0.730	0.665	0.639	0.727	0.542	0.711	0.758	0.863	0.723	0.626	0.601	0.521	0.489
640.0	46.91	48.37	44.38	31.13	27.00	24.90	25.40	28.15	31.26	35.34	39.93	46.69	47.96	64.39	39.64	22.80	18.49	15.91	45.32	443.4	243.8	5.546	3.006	2.782	2.807	2.707	2.571	2.492	2.447	2.392	2.235	1.843	1.953	2.004	1.613	1.625	1.466	1.459	1.385	1.292	1.361	1.044	1.215	1.015	0.952	1.054	1.029	0.868	0.879	0.848	0.821	0.671	0.687	0.712	0.737	0.767	0.705	0.672	0.690	0.809	0.828	0.830	0.738	0.704	0.685	0.646	0.652	0.681	0.647	0.634	0.667	0.801	0.709	0.585	0.494	0.487	0.605
645.0	46.73	55.21	46.72	31.59	30.12	26.52	25.61	28.71	31.15	38.32	41.15	48.53	45.15	57.73	48.70	26.62	20.99	17.28	18.92	209.8	453.1	23.12	3.147	2.537	2.509	2.414	2.111	2.229	2.228	1.897	2.008	1.741	1.725	1.715	1.401	1.600	1.304	1.142	1.173	0.974	1.057	0.996	1.156	0.940	0.934	1.001	0.911	0.862	0.843	0.731	0.564	0.638	0.670	0.711	0.658	0.662	0.591	0.644	0.618	0.684	0.692	0.764	0.691	0.635	0.678	0.594	0.609	0.613	0.613	0.633	0.617	0.652	0.657	0.652	0.448	0.524	0.513
650.0	48.03	56.58	48.89	38.57	29.82	25.12	25.54	27.75	31.21	35.88	43.35	48.82	45.11	50.20	56.38	30.19	21.61	16.96	13.85	67.64	482.4	70.88	3.201	2.182	2.422	2.233	1.910	1.877	1.982	1.766	1.809	1.523	1.583	1.548	1.235	1.220	1.367	1.094	0.980	1.024	1.047	0.854	0.918	0.784	0.915	0.851	0.829	0.746	0.719	0.742	0.616	0.638	0.653	0.626	0.539	0.631	0.552	0.579	0.603	0.564	0.544	0.762	0.735	0.652	0.663	0.628	0.620	0.553	0.501	0.680	0.535	0.622	0.655	0.651	0.538	0.530	0.491
