Sample:	'1
File name:	w102906¿˚√Ò’¢.FD3
Run date:	'09:28:24, 10/31/2024
Operator:	horiz
Comment:	'

Instrument
Model:	F-2700 FL Spectrophotometer
Serial number:	23B8-004
ROM Version:	4J14000 07

Instrument parameters
Measurement type:	3-D scan
Data mode:	Fluorescence
EX  Start WL:	220.0 nm
EX  End WL:	600.0 nm
EX Sampling interval:	5.0 nm
EM  Start WL:	230.0 nm
EM  End WL:	650.0 nm
EM Sampling interval:	5.0 nm
Scan speed:	12000 nm/min
EX Slit:	5.0 nm
EM Slit:	5.0 nm
PMT Voltage:	700 V
Response:	Auto 
Corrected spectra:	Off
Contour interval:	50.000

Peak integration
Integration method:	Rectangular
Sensitivity:	1
Threshold:	1.000

Peaks
No.	ApexEX/EM(nm)	Height(Data)
1	230.0/345.0	3231
2	230.0/575.0	95.08
3	255.0/285.0	571.3
4	260.0/290.0	667.0
5	260.0/575.0	145.7
6	265.0/585.0	134.3
7	270.0/600.0	123.7
8	275.0/420.0	2747
9	275.0/615.0	141.2
10	280.0/335.0	2505
11	280.0/625.0	122.9
12	285.0/640.0	102.1
13	335.0/415.0	1623
14	475.0/345.0	9.334
15	505.0/275.0	2.923
16	505.0/450.0	8.415
17	510.0/280.0	3.157
18	515.0/285.0	3.718
19	535.0/295.0	5.638
20	575.0/320.0	12.98
21	580.0/415.0	10.24

Wavelength data
No.	EX/EM(nm)	Height(Data)	

Data points
	220.0	225.0	230.0	235.0	240.0	245.0	250.0	255.0	260.0	265.0	270.0	275.0	280.0	285.0	290.0	295.0	300.0	305.0	310.0	315.0	320.0	325.0	330.0	335.0	340.0	345.0	350.0	355.0	360.0	365.0	370.0	375.0	380.0	385.0	390.0	395.0	400.0	405.0	410.0	415.0	420.0	425.0	430.0	435.0	440.0	445.0	450.0	455.0	460.0	465.0	470.0	475.0	480.0	485.0	490.0	495.0	500.0	505.0	510.0	515.0	520.0	525.0	530.0	535.0	540.0	545.0	550.0	555.0	560.0	565.0	570.0	575.0	580.0	585.0	590.0	595.0	600.0
230.0	30.13	1004	3102	1189	48.19	5.945	4.881	4.348	4.105	4.378	4.338	4.545	4.226	3.743	3.426	2.895	2.500	2.313	2.165	2.087	1.803	1.794	1.653	1.517	1.497	1.426	1.223	1.210	1.040	1.113	1.035	0.970	0.923	0.833	0.815	0.732	0.708	0.593	0.472	0.460	0.466	0.538	0.493	0.447	0.450	0.430	1.245	4.870	10.06	8.256	3.099	0.658	0.307	0.300	0.237	0.244	0.236	0.237	0.231	0.185	0.199	0.174	0.157	0.149	0.157	0.153	0.130	0.142	0.109	0.100	0.105	0.105	0.084	0.068	0.082	0.081	0.055
235.0	66.31	284.8	2073	4284	613.5	79.65	6.541	5.524	5.446	5.399	4.700	5.199	4.310	3.640	3.512	3.256	2.703	2.459	2.246	2.147	1.821	1.765	1.687	1.705	1.664	1.631	1.316	1.237	1.333	1.118	1.040	1.066	0.862	0.919	0.728	0.718	0.708	0.617	0.517	0.570	0.436	0.489	0.546	0.604	0.459	0.460	0.631	1.547	4.209	8.627	14.12	15.78	6.917	1.410	0.261	0.227	0.272	0.263	0.224	0.205	0.201	0.175	0.180	0.189	0.210	0.160	0.134	0.089	0.117	0.120	0.126	0.075	0.096	0.048	0.075	0.090	0.064
240.0	113.5	126.1	627.0	3932	4624	495.6	36.65	7.412	6.154	6.991	6.033	5.584	4.593	4.072	3.943	3.243	2.826	2.423	2.310	2.133	1.830	1.825	1.820	1.919	1.627	1.609	1.338	1.349	1.288	1.123	1.196	0.962	0.757	0.871	0.759	0.877	0.838	0.556	0.501	0.532	0.509	0.409	0.485	0.552	0.505	0.631	0.609	0.681	1.277	2.825	8.265	21.57	24.63	16.55	4.879	0.636	0.274	0.306	0.277	0.264	0.178	0.180	0.186	0.179	0.195	0.171	0.168	0.103	0.098	0.095	0.114	0.076	0.122	0.070	0.099	0.092	0.049
245.0	78.44	161.4	192.9	1379	6122	3950	369.3	15.67	8.172	8.371	6.834	6.580	5.242	4.596	4.414	3.768	2.965	2.279	2.595	2.263	2.000	2.044	2.065	1.654	1.689	1.658	1.518	1.372	1.313	0.972	1.168	0.987	0.804	0.691	0.736	0.747	0.812	0.534	0.561	0.533	0.442	0.394	0.504	0.497	0.510	0.621	0.770	0.722	0.691	0.861	2.153	7.627	19.95	34.25	24.86	13.96	2.997	0.376	0.291	0.241	0.274	0.156	0.211	0.227	0.170	0.159	0.154	0.109	0.143	0.094	0.110	0.123	0.085	0.096	0.090	0.078	0.108
250.0	41.69	129.3	215.2	384.7	2035	5762	6972	1347	78.25	11.33	9.393	8.363	6.563	5.513	4.550	3.852	3.675	2.809	2.633	2.518	2.272	2.050	1.949	1.658	1.830	1.644	1.526	1.440	1.394	1.102	1.084	1.101	0.946	0.822	0.792	0.794	0.847	0.608	0.588	0.536	0.416	0.446	0.517	0.563	0.504	0.533	0.571	0.794	0.893	0.848	0.886	1.994	5.121	11.69	20.57	32.62	35.94	33.54	11.63	3.326	0.424	0.281	0.214	0.230	0.173	0.226	0.155	0.130	0.152	0.116	0.130	0.182	0.140	0.216	0.107	0.117	0.106
255.0	33.28	52.76	158.3	316.0	528.8	1505	7146	9999.9	1847	79.29	14.83	11.02	9.042	7.045	5.680	4.561	4.195	3.324	3.096	2.792	2.709	2.441	2.043	1.976	1.937	1.798	1.728	1.698	1.534	1.320	1.202	1.234	0.936	0.823	0.813	0.847	0.832	0.676	0.644	0.579	0.605	0.500	0.583	0.567	0.493	0.508	0.469	0.480	0.646	0.862	1.056	1.254	1.562	2.914	4.947	8.180	16.03	42.90	66.08	28.44	17.75	3.056	0.289	0.291	0.290	0.242	0.213	0.180	0.211	0.190	0.145	0.171	0.111	0.149	0.089	0.094	0.080
260.0	31.04	31.94	68.56	275.0	325.8	387.8	2275	9999.9	9999.9	1338	41.52	14.44	10.99	8.793	6.377	4.966	4.867	3.724	3.341	3.138	3.167	2.585	2.229	2.141	2.038	2.068	2.058	1.633	1.564	1.551	1.298	1.071	0.944	0.923	0.830	0.793	0.934	0.731	0.684	0.809	0.547	0.627	0.562	0.573	0.487	0.609	0.514	0.446	0.486	0.511	0.827	1.636	1.531	1.288	1.443	2.212	4.030	12.22	33.19	62.26	85.86	27.49	13.66	1.514	0.287	0.312	0.264	0.203	0.255	0.224	0.162	0.178	0.117	0.148	0.084	0.111	0.123
265.0	39.29	31.66	38.90	135.1	348.1	248.4	559.8	3828	9999.9	9999.9	210.9	24.31	14.97	10.51	7.925	6.480	5.143	4.048	3.610	3.276	3.022	2.614	2.097	2.347	2.034	1.824	1.933	1.749	1.628	1.584	1.388	1.316	1.044	1.165	0.876	0.751	0.902	0.760	0.718	0.771	0.593	0.654	0.637	0.627	0.543	0.646	0.502	0.404	0.493	0.411	0.507	1.047	1.688	1.791	1.235	0.994	1.300	3.288	8.042	20.13	55.96	95.11	100.6	24.37	7.821	0.691	0.349	0.266	0.329	0.260	0.198	0.185	0.142	0.225	0.169	0.125	0.134
270.0	47.26	42.36	41.86	58.94	183.6	362.8	317.9	929.1	4163	9999.9	9999.9	3256	58.28	16.53	11.65	8.362	6.914	5.695	4.420	4.020	3.393	3.063	2.628	2.514	2.380	2.182	1.936	1.849	1.820	1.684	1.495	1.462	1.300	1.320	1.001	0.900	0.949	0.809	0.677	0.682	0.681	0.672	0.684	0.644	0.606	0.670	0.542	0.521	0.508	0.513	0.465	0.586	0.799	1.229	1.846	1.904	1.628	1.362	2.229	4.937	13.54	29.60	58.81	82.76	99.84	78.35	15.78	7.076	0.847	0.374	0.321	0.242	0.216	0.225	0.237	0.190	0.229
275.0	94.31	112.7	106.0	81.05	84.34	195.8	480.9	412.0	1001	2821	9999.9	9999.9	1140	60.26	18.49	12.08	8.937	7.518	5.981	5.236	3.999	3.746	3.206	2.659	2.632	2.689	2.224	2.157	1.871	1.875	1.519	1.591	1.298	1.401	1.324	0.928	1.063	0.851	0.801	0.752	0.770	0.821	0.762	0.781	0.772	0.813	0.741	0.640	0.671	0.689	0.573	0.518	0.645	0.716	0.901	1.257	2.359	2.923	2.023	1.783	3.551	7.116	13.65	19.78	33.48	78.36	138.7	142.2	26.06	8.864	0.729	0.435	0.378	0.390	0.248	0.233	0.267
280.0	168.2	224.0	214.1	155.5	97.01	121.7	359.2	557.3	385.3	758.7	3635	9999.9	9999.9	816.1	36.25	17.32	11.81	8.907	7.241	5.856	4.668	4.375	3.435	2.974	3.051	3.008	2.647	2.283	1.966	2.033	1.871	1.719	1.519	1.486	1.408	1.194	1.211	1.055	0.942	0.807	0.785	0.813	0.866	0.858	0.796	0.972	1.078	0.937	0.900	0.863	0.739	0.672	0.679	0.732	0.715	0.772	1.380	2.461	3.157	2.724	1.853	2.370	3.806	5.257	8.463	20.30	54.02	128.2	180.3	143.1	21.53	4.108	0.598	0.549	0.349	0.280	0.339
285.0	291.7	347.7	361.6	250.4	144.3	127.0	212.3	571.3	506.8	366.9	1037	5353	9999.9	8215	115.6	26.74	16.73	11.34	9.159	7.037	6.118	4.786	3.769	3.399	3.115	3.177	2.604	2.566	2.095	2.253	2.035	1.700	1.663	1.558	1.479	1.383	1.352	1.123	0.942	0.910	0.875	0.917	1.060	0.943	1.128	1.270	1.242	1.278	1.164	1.153	1.150	1.109	0.952	0.866	0.874	0.761	1.028	1.393	2.280	3.718	3.356	2.348	1.964	2.182	3.151	5.745	13.39	34.57	86.79	173.1	193.5	31.50	16.05	1.945	0.531	0.424	0.458
290.0	411.5	539.7	554.7	391.8	240.1	191.0	203.9	352.0	667.0	663.0	605.4	1564	5521	9999.9	9999.9	2310	44.05	18.70	12.93	9.339	7.787	6.030	4.782	4.348	3.527	3.726	2.951	2.907	2.492	2.454	2.272	2.023	1.945	1.796	1.721	1.674	1.782	1.381	1.256	1.032	1.081	1.025	1.118	1.265	1.366	1.539	1.702	1.774	1.868	1.674	1.482	1.485	1.369	1.187	1.074	1.069	1.242	1.233	1.554	2.051	2.919	3.636	3.938	3.206	2.802	2.955	4.766	9.649	21.45	46.05	82.19	112.4	153.7	121.8	88.85	12.17	2.751
295.0	498.5	692.8	739.7	545.6	336.4	273.4	282.1	340.8	502.2	945.2	953.2	885.5	1658	2983	9999.9	9999.9	654.2	49.70	19.35	13.52	10.04	7.385	6.096	5.038	4.262	4.538	3.305	3.252	2.856	2.456	2.468	2.280	1.910	1.931	1.874	1.851	1.799	1.716	1.384	1.407	1.125	1.282	1.405	1.148	1.444	1.927	1.989	2.391	2.464	2.039	1.991	1.977	1.585	1.556	1.312	1.417	1.442	1.571	1.728	1.955	2.312	2.781	3.580	5.638	5.552	4.366	3.863	4.764	7.356	12.72	20.44	27.23	40.82	76.87	184.0	228.8	34.10
300.0	593.7	850.5	852.7	643.3	430.9	351.7	386.8	405.4	564.6	899.1	1409	1096	998.2	1098	3773	9999.9	9999.9	531.2	35.81	19.34	12.60	10.30	7.285	6.185	5.405	4.815	4.042	3.699	3.218	2.938	2.779	2.609	1.992	2.167	1.866	1.912	1.871	1.708	1.565	1.487	1.273	1.356	1.420	1.276	1.627	1.904	2.297	2.550	2.583	2.395	2.387	2.391	2.022	1.804	1.728	1.602	1.958	2.100	2.214	2.462	2.755	2.863	3.508	4.373	6.026	7.479	6.361	4.964	5.169	6.331	7.416	9.116	11.25	19.60	56.18	135.7	221.7
305.0	660.7	959.1	989.3	737.8	520.4	460.9	488.9	648.3	802.2	1097	1627	1639	1265	966.2	1378	5454	9999.9	9999.9	77.26	29.38	18.37	12.72	9.054	7.431	6.455	5.395	4.565	4.400	3.732	3.269	3.043	2.852	2.333	2.273	2.024	1.810	2.161	1.776	1.694	1.650	1.547	1.384	1.415	1.651	1.592	2.233	2.500	2.987	2.925	2.888	2.676	2.438	2.346	2.146	2.110	2.264	2.681	2.733	3.036	3.326	3.612	4.069	4.534	5.320	6.407	7.704	9.123	8.508	7.279	6.867	6.357	6.450	6.256	7.399	15.30	34.70	82.12
310.0	718.7	1050	1131	869.4	635.0	583.3	681.2	863.8	1050	1347	1726	2065	1955	1308	1072	1720	5562	9999.9	9999.9	1835	38.11	18.84	12.67	9.994	8.034	6.672	5.455	4.992	4.292	3.682	3.357	2.937	2.615	2.481	2.341	2.002	2.359	1.975	1.740	1.687	1.775	1.530	1.655	1.814	1.991	2.523	2.684	3.466	3.421	3.170	2.905	3.005	2.631	2.570	2.531	2.750	3.250	3.423	3.687	4.093	4.644	5.188	5.935	6.681	7.315	7.858	8.607	9.866	10.65	9.997	8.540	8.388	6.632	6.304	7.570	10.92	21.12
315.0	763.6	1173	1255	966.0	741.0	689.1	813.6	1007	1194	1497	1878	2086	2202	1860	1232	978.6	1703	2917	9999.9	9999.9	2733	42.27	19.96	13.58	10.96	8.280	6.511	5.475	5.063	4.265	3.917	3.354	2.858	2.782	2.488	2.415	2.237	2.078	2.018	1.692	1.727	1.723	1.813	1.905	2.132	2.560	2.898	3.651	3.903	3.332	3.309	3.494	2.907	3.046	2.945	2.975	3.649	3.975	4.234	4.772	4.997	6.111	6.580	7.534	7.575	8.261	8.915	9.894	10.56	11.20	11.43	11.73	8.678	7.470	6.441	6.359	7.984
320.0	844.3	1370	1419	1100	820.5	753.5	902.4	1099	1280	1615	2016	2217	2215	2133	1570	935.8	920.6	950.1	3463	9999.9	9999.9	426.6	35.96	18.49	13.75	9.929	7.631	6.600	5.503	5.013	4.251	3.834	3.130	2.823	2.631	2.545	2.514	2.345	2.157	1.849	1.723	1.823	2.072	2.149	2.343	2.956	3.458	4.269	4.315	3.773	3.566	3.514	3.431	3.358	3.445	3.362	3.974	4.282	4.779	5.141	5.397	6.375	7.013	7.888	8.689	9.236	9.707	10.95	11.02	11.45	11.40	12.98	11.15	9.462	7.224	6.117	6.032
325.0	1008	1696	1827	1422	948.5	851.5	954.4	1178	1365	1701	2114	2340	2288	2100	1856	1096	790.4	547.9	948.3	4788	9999.9	9999.9	340.9	27.98	17.95	12.94	9.021	7.365	6.279	5.439	4.569	4.041	3.435	3.127	2.882	2.649	2.572	2.452	2.110	1.999	1.940	2.020	2.164	2.246	2.619	3.439	3.972	5.109	5.317	4.633	4.421	4.599	3.834	3.547	3.616	3.525	4.391	4.591	5.097	5.277	5.750	6.556	7.553	8.456	9.039	9.816	10.47	11.06	11.34	11.74	11.03	12.36	11.61	11.04	9.352	7.152	5.737
330.0	1230	2091	2515	2073	1378	1028	1047	1239	1439	1753	2186	2434	2409	2134	1852	1403	929.2	534.5	444.4	1250	4852	9999.9	9999.9	1600	36.23	19.71	12.78	9.868	7.531	6.582	5.725	4.723	3.746	3.249	3.121	2.757	2.760	2.473	2.264	2.031	2.044	2.184	2.337	2.528	2.983	3.945	4.941	6.486	6.786	6.472	6.028	6.248	5.409	4.751	4.280	4.095	4.494	4.864	5.467	5.608	6.345	7.087	7.873	8.491	9.425	10.00	10.61	11.35	11.98	12.20	11.49	12.66	11.21	10.67	10.08	9.296	7.973
335.0	1309	2431	2977	2652	1875	1299	1167	1319	1508	1807	2251	2499	2505	2231	1864	1445	1210	682.5	433.0	523.2	1262	2725	9999.9	9999.9	2590	43.21	18.54	13.63	10.03	8.461	6.444	5.399	4.588	3.913	3.433	3.006	2.962	2.746	2.197	2.259	2.101	2.337	2.447	2.611	3.122	4.433	5.301	7.354	7.901	7.885	7.439	8.121	7.148	6.500	5.459	4.936	5.028	5.240	5.786	6.230	6.633	7.245	8.068	8.820	9.630	10.34	11.27	11.52	12.19	12.76	12.36	12.95	11.34	10.64	9.988	9.347	8.640
340.0	1395	2541	3188	2937	2101	1441	1245	1353	1525	1820	2248	2477	2495	2256	1881	1427	1235	905.1	514.6	412.8	509.5	787.7	3281	9999.9	9999.9	387.9	33.33	17.73	12.65	9.850	7.676	6.039	5.297	4.245	3.795	3.319	2.910	2.830	2.173	2.179	2.303	2.284	2.698	2.560	3.562	4.689	5.708	7.604	8.540	8.239	8.341	8.812	8.100	7.077	6.073	5.254	5.274	5.362	5.761	6.446	7.126	7.460	8.009	9.008	9.341	10.14	10.52	11.69	12.15	12.40	11.93	12.91	11.55	11.15	9.755	9.146	8.456
345.0	1402	2481	3231	2988	2201	1511	1284	1364	1527	1798	2154	2397	2422	2215	1866	1413	1153	991.8	642.1	442.5	382.5	387.2	902.8	4335	9999.9	9999.9	334.0	26.19	16.05	12.03	8.686	7.157	5.727	4.634	4.051	3.512	3.397	2.721	2.310	2.300	2.208	2.385	2.627	2.593	3.349	4.469	5.683	7.490	8.335	8.297	8.262	9.334	8.184	7.158	6.443	5.466	5.301	5.683	5.874	6.497	7.080	7.671	7.841	8.719	9.297	10.26	10.40	11.54	11.57	12.06	11.54	12.94	11.60	10.88	9.729	9.161	8.197
350.0	1273	2285	3073	2944	2265	1609	1351	1386	1521	1753	2066	2264	2282	2109	1818	1422	1143	947.5	821.2	620.6	444.4	371.2	423.7	1138	4411	9999.9	9999.9	1482	33.62	17.27	11.73	8.455	6.539	5.376	4.434	3.712	3.628	2.819	2.654	2.348	2.325	2.321	2.498	2.737	3.170	4.219	5.370	7.091	7.963	8.212	8.130	9.308	8.389	7.557	6.551	5.775	5.796	5.890	6.055	6.378	6.824	7.395	7.811	8.247	8.895	9.275	9.738	10.50	10.98	10.95	10.91	11.94	10.68	10.43	9.879	8.774	8.250
355.0	1188	2127	2789	2805	2249	1658	1422	1444	1532	1722	1956	2131	2146	1992	1751	1420	1179	974.0	841.3	812.4	618.7	455.0	389.5	471.2	1132	2591	9999.9	9999.9	2667	40.51	18.14	11.73	8.335	6.367	5.122	3.882	3.867	3.268	2.864	2.597	2.392	2.358	2.417	2.814	3.282	3.930	4.878	6.788	7.590	7.624	7.786	8.962	8.157	7.753	6.824	6.090	6.003	6.091	6.111	6.585	6.951	7.334	7.705	7.828	8.186	8.800	8.912	9.756	10.04	10.24	10.50	11.13	10.50	9.917	9.316	8.744	8.544
360.0	1080	1976	2554	2655	2189	1648	1438	1445	1543	1693	1900	2020	2036	1905	1696	1422	1214	1024	876.5	842.6	782.0	539.4	439.6	376.6	447.3	716.5	2908	9999.9	9999.9	2239	35.79	16.30	10.89	7.906	5.753	4.700	4.227	3.402	3.034	2.735	2.506	2.343	2.457	2.650	3.116	3.834	4.787	6.122	7.267	7.107	7.369	8.675	7.755	7.568	6.574	6.349	6.168	5.721	6.249	6.409	7.019	7.187	7.747	7.965	8.395	8.687	9.068	9.251	9.413	9.993	10.28	10.18	10.07	9.410	8.949	8.564	8.599
365.0	1006	1812	2392	2480	2122	1661	1476	1477	1558	1658	1838	1932	1942	1841	1664	1421	1242	1085	950.0	864.2	856.9	724.1	513.2	416.6	346.8	337.1	775.0	3653	9999.9	9999.9	341.6	28.11	14.55	10.26	6.927	5.621	4.612	3.851	3.368	2.913	2.907	2.400	2.473	2.665	3.221	3.736	4.478	5.968	6.421	6.466	6.930	7.949	7.914	7.253	6.858	6.319	6.095	6.309	6.404	6.612	6.795	7.519	7.571	7.963	8.111	8.404	8.490	8.941	8.921	9.467	9.558	9.852	9.509	9.782	8.606	8.518	8.685
370.0	957.4	1629	2157	2299	2045	1691	1509	1511	1564	1661	1795	1851	1837	1753	1604	1416	1280	1153	1044	960.1	899.5	862.1	727.0	538.1	416.4	331.0	358.0	957.9	3821	9999.9	9999.9	6297	32.17	15.56	9.510	7.277	5.661	4.547	3.736	3.247	2.818	2.649	2.633	2.716	3.022	3.440	4.141	5.266	6.093	6.153	6.518	7.715	7.763	7.216	6.869	6.231	6.348	6.531	6.493	6.663	6.862	7.408	7.481	7.767	7.895	8.154	8.151	8.513	8.623	8.762	8.928	9.667	9.124	9.125	8.790	8.638	8.667
375.0	879.8	1466	1993	2155	1981	1699	1534	1521	1560	1668	1752	1783	1771	1677	1553	1413	1296	1201	1122	1046	978.9	914.4	881.5	732.2	545.4	425.2	349.6	417.4	1001	2506	9999.9	9999.9	2455	37.09	15.18	10.34	7.611	5.075	4.275	3.583	3.190	2.950	2.919	2.832	3.056	3.495	3.959	4.962	5.505	5.690	5.975	7.368	7.433	7.248	6.689	6.259	6.377	6.499	6.535	6.784	6.923	7.256	7.462	7.979	7.670	7.829	8.195	7.980	8.132	8.354	8.696	9.098	8.560	8.666	8.598	8.628	8.275
380.0	887.4	1414	1907	2020	1922	1668	1550	1515	1583	1639	1716	1749	1725	1638	1525	1392	1306	1232	1171	1110	1044	974.1	920.6	868.2	676.7	519.5	417.6	360.2	427.5	712.9	2794	9999.9	9999.9	2034	30.86	13.62	9.529	6.331	4.876	4.119	3.308	3.070	2.856	3.052	2.892	3.546	3.888	4.587	5.329	5.426	5.837	7.251	7.165	7.088	6.431	6.107	6.556	6.670	6.737	6.545	6.997	7.257	7.126	7.884	7.455	7.826	7.835	7.540	8.031	8.077	8.048	8.503	8.401	8.653	8.698	8.547	8.329
385.0	852.2	1368	1771	1935	1870	1658	1560	1540	1573	1631	1698	1714	1697	1623	1506	1391	1317	1250	1204	1159	1101	1040	966.4	929.8	822.7	631.5	510.7	419.8	361.3	361.3	779.7	3384	9999.9	9999.9	290.0	24.16	12.68	8.159	5.957	4.683	3.926	3.288	3.112	3.057	3.019	3.457	3.908	4.642	5.140	5.397	5.456	6.694	6.908	7.012	6.629	6.462	6.803	6.692	6.625	6.701	7.276	7.132	7.102	7.799	7.602	7.787	7.651	7.476	7.564	8.271	8.033	8.547	8.528	8.233	8.531	8.065	8.728
390.0	810.9	1283	1695	1865	1832	1691	1603	1606	1631	1691	1737	1753	1727	1661	1543	1415	1324	1280	1250	1227	1179	1138	1079	1018	960.1	842.8	676.9	557.3	461.4	382.5	400.5	918.7	3359	9999.9	9999.9	5441	28.10	13.37	8.308	6.009	4.759	4.119	3.650	3.352	3.186	3.569	3.853	4.675	5.159	5.008	5.536	6.645	6.586	7.160	6.578	6.476	6.929	6.769	6.663	6.695	7.210	7.221	7.424	7.628	7.674	7.759	7.518	7.737	7.828	8.249	7.955	8.577	8.549	8.655	8.533	8.052	8.524
395.0	818.9	1257	1637	1810	1846	1747	1691	1690	1758	1827	1898	1918	1888	1809	1664	1491	1370	1330	1309	1312	1288	1265	1226	1175	1096	1038	923.7	751.6	627.2	515.3	416.7	440.8	902.3	2428	8260	9999.9	7971	32.53	13.11	8.363	6.113	5.146	4.282	3.788	3.536	3.990	3.959	4.939	5.162	5.103	5.494	6.635	6.649	6.679	6.805	6.507	6.713	7.069	6.963	7.068	7.282	7.276	8.021	7.766	8.017	7.618	7.705	7.921	8.184	8.569	8.382	9.017	8.764	9.051	8.388	8.699	8.519
400.0	850.3	1233	1602	1831	1857	1805	1762	1809	1883	1993	2097	2142	2101	2001	1818	1587	1434	1382	1367	1378	1381	1381	1358	1321	1241	1160	1100	939.0	773.8	639.6	504.6	395.2	402.9	674.9	2192	9999.9	9999.9	1849	27.40	11.69	7.445	5.785	4.678	4.256	3.796	4.080	4.236	4.796	5.222	5.007	5.384	6.804	6.718	6.942	6.673	6.606	7.365	7.346	7.081	7.390	7.690	7.531	7.939	8.240	8.030	8.259	8.285	8.453	8.487	8.416	9.036	9.256	9.281	8.926	8.846	8.965	8.942
405.0	823.1	1212	1581	1842	1901	1866	1869	1940	2039	2187	2336	2393	2346	2202	1967	1693	1494	1428	1421	1441	1462	1474	1481	1451	1376	1281	1211	1104	919.9	759.7	604.7	447.7	341.2	319.9	606.8	2959	9999.9	9999.9	1408	21.29	9.677	6.791	5.723	4.825	3.826	4.276	4.362	5.021	5.207	4.962	5.321	6.924	6.810	6.930	6.906	6.884	7.488	7.684	7.186	7.791	7.778	7.757	8.108	8.040	8.351	8.731	8.557	8.909	8.745	9.003	9.707	9.323	9.962	9.107	8.991	9.352	9.070
410.0	833.6	1229	1592	1819	1908	1951	1961	2043	2198	2408	2572	2631	2572	2426	2135	1796	1550	1464	1461	1489	1526	1562	1577	1569	1502	1413	1309	1219	1095	904.3	716.5	539.2	390.1	292.2	291.1	768.3	3002	9999.9	9999.9	4582	24.00	10.27	7.245	5.621	4.637	4.795	4.487	4.983	5.367	4.886	5.334	6.684	6.857	7.076	7.047	7.043	7.497	7.546	7.765	7.878	7.959	8.023	8.349	8.585	8.756	9.069	8.907	8.896	9.208	9.555	9.813	9.933	10.09	9.881	9.492	9.451	9.056
415.0	816.9	1212	1537	1760	1883	1950	2004	2096	2286	2495	2662	2744	2675	2512	2192	1806	1551	1452	1443	1475	1527	1570	1613	1623	1562	1477	1372	1263	1173	1034	810.5	611.9	449.0	330.5	254.2	303.9	758.1	2352	6605	9999.9	1924	28.87	10.48	7.086	5.844	5.319	4.787	5.115	5.078	5.167	5.268	6.749	6.541	7.156	7.203	6.859	7.586	7.884	7.749	7.600	8.302	8.030	8.585	8.821	8.770	8.737	9.197	8.883	9.650	9.323	9.983	10.23	10.24	9.854	9.381	9.549	9.062
420.0	831.1	1182	1538	1727	1863	1925	1999	2110	2296	2492	2678	2747	2675	2506	2175	1776	1519	1420	1407	1445	1497	1555	1593	1607	1560	1482	1382	1281	1180	1079	875.2	654.6	485.8	359.1	264.6	217.1	270.8	591.5	1703	8640	9999.9	1672	24.31	9.220	6.618	6.022	5.084	5.493	5.292	5.012	5.132	6.436	6.632	6.752	7.441	6.929	7.400	8.045	7.792	8.146	8.257	8.379	8.532	8.529	8.860	8.838	9.184	8.731	9.499	9.530	9.892	10.07	9.927	9.870	9.446	8.944	8.691
425.0	776.9	1099	1482	1675	1821	1925	2004	2130	2279	2465	2664	2737	2636	2473	2145	1760	1489	1390	1371	1409	1463	1516	1560	1582	1543	1470	1383	1285	1173	1065	921.6	696.2	511.1	384.5	286.9	212.1	176.1	209.7	432.8	2406	9999.9	9999.9	1291	18.12	8.569	6.728	5.812	5.759	5.442	4.953	5.207	6.538	6.645	6.848	7.249	7.059	7.499	7.786	7.867	8.222	8.335	8.329	8.612	8.464	8.449	8.630	9.431	9.010	9.425	9.198	9.639	9.975	9.647	9.651	9.291	8.845	9.149
430.0	765.0	1093	1442	1642	1784	1937	2030	2134	2281	2465	2656	2713	2631	2438	2109	1727	1455	1350	1331	1364	1410	1471	1512	1533	1505	1441	1362	1268	1165	1050	917.3	747.3	556.9	416.7	316.4	233.8	174.6	140.9	162.3	582.8	2755	8732	9999.9	3829	21.69	9.568	6.849	6.451	5.949	5.305	5.325	6.481	6.785	6.879	7.073	7.392	7.942	7.889	8.090	7.998	7.946	8.321	8.667	8.513	8.507	8.541	8.873	8.812	9.074	9.144	9.346	9.481	9.416	9.198	9.080	8.670	8.302
435.0	922.6	1080	1403	1624	1761	1933	2022	2129	2279	2455	2612	2663	2571	2361	2060	1682	1407	1304	1290	1312	1347	1405	1449	1469	1447	1392	1324	1237	1143	1032	896.7	753.9	607.5	457.6	344.8	264.7	196.0	144.0	117.0	186.7	653.7	2025	6084	9999.9	1804	26.74	9.726	7.690	6.380	5.720	5.434	6.372	6.857	6.935	6.915	7.169	7.963	8.130	8.101	8.536	8.233	7.946	8.782	8.322	8.619	8.450	8.601	8.550	8.878	8.985	9.015	9.782	9.429	9.114	8.376	8.217	7.897
440.0	1080	1116	1363	1583	1777	1931	2035	2142	2241	2382	2530	2593	2500	2285	1995	1631	1364	1262	1241	1258	1287	1338	1381	1403	1384	1331	1275	1193	1115	1010	881.1	740.3	618.6	488.5	367.8	280.7	211.7	156.1	117.1	107.1	192.0	485.7	1567	8347	9999.9	1529	21.12	9.391	7.635	6.047	5.855	6.682	7.035	7.203	7.325	7.178	7.980	8.202	8.290	8.542	8.085	8.060	8.463	7.932	8.153	8.074	8.505	8.189	8.598	8.663	8.563	9.189	8.743	8.982	8.075	7.922	7.913
445.0	1171	1271	1323	1509	1736	1874	2028	2110	2172	2298	2427	2473	2373	2176	1893	1551	1308	1207	1185	1188	1212	1260	1295	1323	1308	1260	1212	1139	1070	977.9	859.7	720.5	601.7	504.6	387.0	295.5	226.8	169.7	126.3	97.92	94.74	146.9	380.5	2358	9999.9	9999.9	208.4	17.20	8.715	6.666	5.993	6.899	7.173	7.548	7.410	7.462	7.998	8.239	7.982	8.314	8.181	7.863	7.802	7.704	7.855	7.680	8.180	7.784	8.369	8.354	8.460	8.867	8.336	8.751	8.010	7.775	7.421
450.0	939.7	1828	1363	1452	1637	1787	1942	2019	2049	2126	2214	2261	2166	1986	1724	1424	1202	1111	1087	1085	1100	1137	1173	1196	1187	1148	1105	1046	988.1	912.0	810.6	687.5	572.3	487.3	403.7	313.0	237.8	182.9	138.6	104.6	81.97	77.10	118.0	553.2	2778	8723	9999.9	3501	19.46	9.055	7.090	7.604	7.034	7.142	7.387	7.277	8.085	8.415	8.093	7.929	7.927	7.568	7.622	7.222	7.123	7.153	7.440	7.618	7.858	7.730	7.915	8.136	7.864	7.927	7.397	7.228	6.903
455.0	657.9	1988	2064	1354	1542	1707	1823	1884	1891	1927	2002	2038	1927	1772	1541	1275	1093	1002	976.6	970.8	973.0	1004	1038	1056	1047	1021	987.5	940.6	893.5	832.9	744.8	641.5	537.4	455.5	395.0	328.4	251.4	190.3	148.3	114.0	86.26	66.88	64.84	152.2	641.7	2020	5646	9999.9	1494	20.93	9.314	8.186	7.364	7.026	7.394	7.028	7.816	7.816	7.689	7.372	7.702	7.039	7.075	6.983	6.644	6.954	7.049	7.132	6.952	6.981	7.063	7.296	7.458	7.219	6.801	6.505	6.478
460.0	568.0	1592	2954	1452	1439	1613	1711	1775	1770	1788	1841	1860	1769	1617	1408	1172	1007	922.3	896.0	888.7	888.0	908.5	935.0	950.1	950.1	924.3	898.5	862.4	824.2	771.0	695.9	606.0	512.6	435.5	371.5	325.3	261.0	198.1	153.9	118.5	89.88	68.64	55.56	65.72	168.4	472.0	1421	7349	9999.9	1180	18.41	9.658	8.184	7.417	7.379	7.055	7.642	7.936	7.453	6.999	7.281	7.015	7.143	6.572	6.192	6.525	6.423	6.622	6.606	6.802	6.904	6.792	6.568	6.747	6.691	6.095	6.245
465.0	519.4	1027	3290	2104	1358	1504	1616	1671	1643	1660	1696	1700	1627	1482	1282	1070	925.0	847.8	822.8	810.0	806.1	822.3	852.9	862.2	861.8	842.4	817.5	783.7	754.6	710.3	644.4	564.7	483.8	413.6	353.3	307.6	264.3	204.5	156.1	122.0	94.02	72.19	56.19	49.30	64.77	127.2	337.7	2029	9485	9597	945.4	17.60	9.291	8.282	7.689	7.081	7.216	7.378	7.274	6.965	6.771	6.472	6.615	6.216	6.101	6.236	5.690	6.211	5.867	6.254	6.271	6.259	6.453	6.215	6.054	5.674	5.614
470.0	476.1	733.4	2255	3626	1561	1355	1471	1503	1474	1469	1495	1486	1418	1290	1124	944.2	818.5	754.4	725.7	709.9	701.7	711.3	737.3	745.0	746.8	727.7	708.0	685.4	660.8	631.4	578.8	511.3	440.8	382.4	326.3	280.7	244.8	207.4	161.1	123.8	97.02	74.88	58.50	47.78	44.18	52.95	95.68	471.6	2576	7084	8332	2862	19.91	9.755	7.947	7.223	7.549	7.225	7.189	6.602	6.298	6.215	6.016	5.697	5.514	5.669	5.388	5.655	5.521	5.569	5.778	5.553	5.673	5.433	5.186	4.999	4.922
475.0	451.0	602.7	1165	3795	2902	1226	1311	1308	1298	1283	1301	1288	1212	1105	971.9	819.1	709.4	653.2	626.5	609.9	600.6	606.1	623.5	636.8	631.2	619.9	605.1	584.7	569.0	549.4	508.2	452.6	394.4	346.1	296.7	254.4	221.2	195.0	163.3	125.8	96.17	77.35	61.16	49.51	41.46	37.25	42.95	123.0	588.4	1623	3958	9148	1502	23.78	9.185	7.319	7.244	6.766	6.408	5.920	5.763	5.667	5.407	5.069	5.100	4.815	4.898	5.060	5.001	4.922	4.914	4.877	4.893	4.740	4.441	4.521	4.575
480.0	376.3	565.5	795.8	2594	4371	1400	1177	1193	1162	1152	1162	1157	1087	988.1	861.6	730.2	639.6	585.2	560.9	547.1	530.5	539.3	546.9	559.5	559.3	550.7	534.4	522.8	512.7	493.0	459.2	414.2	365.6	320.9	277.3	240.9	205.7	178.5	158.8	129.7	97.72	76.97	61.32	50.20	42.08	34.83	32.22	46.04	146.7	375.1	972.6	5110	8804	1344	19.96	8.663	7.656	6.868	6.276	5.676	5.519	5.450	5.108	4.908	4.595	4.662	4.458	4.219	4.617	4.546	4.712	4.274	4.595	4.228	3.985	4.271	4.158
485.0	331.1	527.0	668.7	1441	4930	2261	1089	1099	1052	1057	1055	1043	988.7	893.3	775.6	662.5	582.3	531.7	509.3	494.0	480.7	485.9	492.5	500.6	500.7	496.1	485.6	470.4	465.6	452.7	417.1	379.8	337.8	300.6	260.0	226.5	195.5	168.4	149.8	130.2	101.4	76.97	62.41	50.62	42.93	36.18	30.85	29.26	49.28	97.00	229.9	1361	6876	8196	204.2	15.82	8.429	7.110	6.430	5.567	5.317	5.076	4.919	4.363	4.514	4.507	4.621	3.969	4.060	3.997	4.239	4.299	4.086	4.180	3.703	3.868	3.731
490.0	289.4	499.7	615.0	864.2	3166	4307	1347	986.0	957.6	935.1	938.7	911.0	868.0	779.5	682.6	584.8	513.1	470.2	449.3	431.4	422.9	422.1	431.8	436.7	436.2	432.4	424.5	416.7	408.0	397.6	372.8	339.0	304.1	272.6	238.6	209.8	182.5	157.1	137.7	121.8	103.5	81.36	64.13	52.57	44.44	38.03	32.64	27.93	28.60	36.34	63.96	316.0	1809	5373	7338	2868	20.96	8.832	6.829	5.777	5.416	4.894	4.677	4.175	4.103	4.102	3.960	3.912	3.742	3.729	3.697	3.776	3.690	3.853	3.467	3.407	3.205
495.0	256.0	441.8	567.6	648.0	1373	4542	2878	893.0	840.5	822.3	817.7	791.7	746.1	672.3	593.7	507.4	449.4	415.3	392.9	376.1	368.2	358.2	368.7	373.2	374.6	370.2	363.0	359.2	352.7	348.1	325.5	299.7	270.3	242.3	215.2	190.5	167.0	145.0	125.9	109.1	98.49	84.38	65.90	53.62	45.65	38.96	33.81	28.77	25.12	24.11	27.60	82.54	413.6	1227	3731	9030	1706	26.87	8.706	6.229	5.581	4.780	4.437	3.983	3.840	3.778	3.574	3.590	3.484	3.225	3.387	3.308	3.174	3.202	3.079	3.208	3.099
500.0	227.3	384.2	548.6	577.9	790.9	3008	4958	1027	759.0	729.2	735.9	715.4	666.7	601.9	528.6	451.8	396.6	368.2	348.9	334.0	325.2	319.8	327.0	332.2	331.9	326.3	323.6	319.3	313.8	312.7	293.9	267.3	244.1	220.1	197.3	175.2	156.2	133.4	116.5	101.3	89.94	83.50	68.49	52.79	46.06	39.87	33.96	29.18	25.26	21.38	20.25	30.64	103.2	283.8	914.8	4886	8701	1505	22.78	7.270	5.881	4.905	4.304	3.853	3.648	3.603	3.397	3.283	3.294	3.014	3.060	2.934	2.848	2.801	2.612	2.942	2.842
505.0	198.1	331.6	502.7	542.9	608.1	1520	5897	1835	683.2	658.3	661.4	633.7	593.1	542.9	472.5	401.4	351.3	326.9	313.1	300.1	288.3	282.3	288.4	292.7	294.9	288.9	286.8	283.7	280.6	277.6	264.4	242.5	220.9	199.5	179.0	160.8	143.2	124.4	108.8	94.40	82.84	76.09	68.31	54.86	45.16	39.58	34.09	29.09	25.51	21.93	18.52	19.64	33.95	73.42	214.3	1270	6126	7933	1159	16.82	6.551	4.752	4.419	3.674	3.499	3.348	3.018	3.036	2.873	2.912	2.947	2.705	2.700	2.773	2.491	2.558	2.572
510.0	176.9	281.2	404.5	507.1	512.5	758.8	3789	3965	879.1	567.4	561.2	549.4	506.3	457.7	398.3	346.9	303.7	278.9	265.8	255.4	243.9	242.5	244.4	249.5	248.8	246.2	243.9	241.0	241.0	235.6	224.8	210.5	191.5	174.7	155.9	142.0	125.5	111.6	98.02	85.23	75.11	66.11	61.89	55.91	45.97	38.31	33.54	28.99	25.26	21.84	18.66	17.08	18.75	26.26	57.10	292.6	1576	4742	6464	2469	20.59	6.704	4.619	3.715	3.607	3.086	2.958	2.668	2.608	2.647	2.486	2.502	2.433	2.357	1.992	2.208	2.161
515.0	139.9	241.5	318.5	456.9	455.5	522.2	1381	5135	2172	501.7	479.6	468.3	429.9	383.4	336.9	291.5	257.5	236.8	219.8	215.3	204.3	202.9	205.3	206.1	209.6	206.1	205.4	203.7	202.0	200.5	190.5	177.7	164.5	148.9	134.2	122.6	110.4	97.81	87.09	77.10	67.17	56.90	53.29	51.92	46.85	38.04	32.66	28.24	24.31	21.73	17.97	16.46	15.43	15.64	21.39	73.21	358.4	1074	2741	6992	1753	27.34	6.275	4.196	3.664	2.874	2.730	2.398	2.375	2.415	2.288	2.091	2.057	1.999	1.816	1.851	1.933
520.0	135.2	209.6	273.7	390.1	429.8	421.7	650.2	3517	4617	635.6	427.3	405.3	378.5	335.9	292.8	254.5	224.2	208.7	194.9	189.5	179.3	177.2	179.8	180.4	180.4	179.1	176.4	175.5	172.6	173.5	166.5	156.4	143.4	132.0	118.8	106.7	98.73	88.07	78.53	70.03	61.27	53.08	48.33	46.17	44.91	39.17	31.49	27.21	23.37	20.76	17.92	16.02	14.24	13.19	13.21	23.96	87.07	246.8	652.5	3472	6994	1553	22.57	5.200	4.058	2.812	2.763	2.417	2.328	2.148	2.071	2.083	1.844	1.890	1.691	1.753	1.763
525.0	130.8	204.1	245.6	323.5	408.8	372.1	439.9	1601	6043	1444	385.5	357.0	338.9	298.5	260.6	222.2	196.1	185.0	173.3	166.0	157.4	155.7	156.2	157.6	159.0	154.8	155.0	152.4	152.2	152.4	147.3	138.4	127.8	116.9	105.5	95.88	88.24	79.33	71.61	63.33	56.88	49.44	43.92	41.01	41.24	39.35	31.04	26.50	22.63	19.85	17.46	15.03	14.25	12.73	11.26	13.05	26.32	61.54	152.1	867.2	4278	6194	1236	16.45	4.506	3.188	2.727	2.504	2.384	2.098	1.900	1.707	1.792	1.705	1.605	1.558	1.620
530.0	100.1	165.8	205.7	252.5	357.0	354.1	348.1	636.5	4021	4380	579.9	310.4	284.4	254.3	221.9	189.2	167.9	155.2	147.3	140.2	133.2	131.1	131.8	133.4	133.9	131.1	130.8	129.0	130.6	129.3	125.0	118.3	109.9	100.1	92.05	83.39	76.08	69.21	62.58	55.32	50.21	44.58	39.91	36.65	34.69	34.79	31.87	25.81	21.13	18.54	16.12	14.36	12.89	11.50	10.41	9.895	12.08	19.45	39.35	199.2	1060	3249	4885	2068	92.30	5.049	3.118	2.372	2.190	1.953	1.736	1.658	1.575	1.529	1.481	1.477	1.523
535.0	96.40	127.8	179.3	208.1	271.5	332.3	297.6	353.5	1325	5818	1692	271.3	239.8	209.7	183.4	154.9	139.7	128.9	121.6	114.5	110.8	110.2	109.9	110.5	110.5	108.3	108.5	107.5	108.0	108.1	104.1	96.97	91.63	83.04	77.03	70.78	63.94	58.99	53.52	48.22	43.25	38.39	35.31	31.86	29.49	28.28	29.31	25.99	20.17	17.37	15.02	12.89	11.54	10.55	10.05	8.854	8.185	9.305	13.52	48.62	240.4	731.7	1760	4783	1814	28.71	4.514	2.817	2.319	2.042	1.571	1.622	1.456	1.404	1.362	1.245	1.245
540.0	83.42	121.2	155.5	182.0	209.4	304.9	263.6	255.9	488.2	3903	4768	358.4	209.2	182.3	158.8	138.2	122.2	111.9	103.9	97.30	94.45	93.29	94.19	93.72	95.35	93.32	92.26	91.60	92.69	92.13	89.72	85.08	79.19	72.49	65.16	61.85	55.63	51.51	47.18	42.21	38.14	34.67	31.54	28.47	27.05	25.19	24.95	24.10	20.37	16.18	13.90	12.04	10.98	9.651	8.948	8.338	7.454	6.941	7.348	14.90	57.62	166.8	408.4	2070	4787	1609	23.51	3.695	2.619	1.980	1.720	1.427	1.445	1.329	1.183	1.222	1.136
545.0	74.70	97.47	136.0	164.3	175.4	250.4	257.6	216.2	270.7	1603	6631	996.5	180.7	158.3	138.1	119.4	106.6	98.55	92.56	85.05	82.37	80.14	81.43	80.02	83.10	80.68	78.46	79.68	79.75	78.52	77.67	72.55	68.41	61.95	58.22	54.17	49.48	44.98	41.90	37.09	33.98	30.96	28.13	26.29	24.56	22.49	21.17	21.47	19.80	16.10	12.74	11.31	10.16	9.286	8.310	7.628	7.179	6.276	5.564	6.616	16.43	40.48	94.98	495.9	2501	4709	1221	17.78	3.125	2.011	1.951	1.386	1.331	1.227	1.195	1.108	1.020
550.0	68.07	86.64	122.3	137.1	144.3	178.4	238.2	194.0	189.9	515.6	4256	4022	296.4	131.7	114.1	97.67	86.90	81.10	75.23	69.42	68.11	66.86	67.01	65.95	67.25	65.87	64.18	63.90	65.07	64.40	63.33	59.32	55.90	51.02	47.73	44.70	41.29	37.52	34.61	31.28	28.98	26.06	23.81	22.08	20.67	19.10	17.51	16.93	16.71	15.28	12.05	10.09	9.115	8.275	7.194	6.708	6.371	5.787	4.834	4.580	6.738	11.94	24.26	113.6	597.3	2101	3225	1593	102.1	4.031	2.122	1.567	1.293	1.130	1.027	1.003	0.900
555.0	65.98	76.75	105.3	114.0	121.2	133.3	197.5	189.5	149.9	220.7	1266	5823	1146	112.6	93.10	79.37	69.97	63.46	61.12	56.22	54.19	52.89	52.70	53.01	52.13	51.83	51.42	51.69	51.96	51.68	49.48	47.21	44.75	40.79	38.56	36.03	32.13	30.04	28.33	25.19	23.58	21.40	19.45	18.16	17.00	15.85	14.48	13.50	13.18	13.60	11.62	9.045	7.738	7.068	6.254	5.825	5.484	4.693	4.396	3.668	4.202	4.967	7.982	27.82	135.3	471.4	1003	2872	1820	30.34	3.552	1.798	1.356	1.156	0.912	0.900	0.716
560.0	61.82	79.93	97.18	99.93	105.3	110.0	145.1	188.7	136.2	145.2	388.7	3928	3866	145.3	77.39	66.86	58.64	52.92	50.39	46.78	44.15	44.52	43.37	43.95	43.16	43.00	43.47	42.14	42.98	41.78	41.45	39.41	37.23	34.21	31.36	29.34	26.94	25.16	23.48	21.41	20.57	17.98	17.01	15.71	14.94	13.59	12.73	11.31	10.79	11.12	10.83	8.917	6.679	5.951	5.369	5.221	4.712	4.077	4.239	3.695	3.295	3.283	4.029	8.311	32.17	107.4	229.4	1078	3087	1533	25.40	2.780	1.578	1.193	1.093	0.865	0.658
565.0	52.89	83.92	92.18	95.34	91.82	97.02	108.7	177.4	127.6	119.4	176.5	1533	5858	607.2	69.52	57.20	49.51	44.81	43.00	40.43	38.29	37.92	36.22	36.49	36.29	35.76	35.62	35.96	36.26	35.97	35.04	33.53	30.90	28.72	26.92	24.80	22.75	21.47	19.44	18.78	17.07	15.04	14.55	13.43	12.58	12.14	11.19	10.17	9.056	8.969	9.314	8.528	6.298	5.266	4.905	4.697	4.274	3.617	3.861	3.490	3.129	2.904	2.913	3.797	9.226	25.92	53.70	251.5	1365	2954	1085	18.02	2.082	1.370	1.096	0.851	0.764
570.0	54.46	77.85	90.22	87.93	78.00	81.02	85.87	136.5	142.9	103.7	116.1	441.1	3903	3240	99.07	46.45	41.59	36.13	34.12	32.26	30.41	29.72	29.40	29.69	28.84	28.68	28.05	28.01	29.25	28.74	27.95	26.20	24.55	23.02	21.39	19.79	18.79	17.14	15.92	14.86	13.93	12.63	11.77	11.26	10.19	9.745	9.090	8.398	7.589	7.160	6.994	7.390	6.048	4.907	4.286	4.001	3.650	3.218	3.147	3.122	3.129	2.747	2.573	2.627	3.872	7.686	13.97	58.02	318.2	1149	2041	1044	102.1	3.077	1.170	0.907	0.701
575.0	52.86	77.21	95.08	81.40	66.09	68.24	72.09	92.16	145.7	105.1	95.79	168.3	1126	4989	768.1	41.53	33.90	29.20	27.45	25.77	24.38	23.81	23.82	24.08	23.12	22.47	22.40	22.74	22.24	23.10	21.73	20.80	18.98	18.66	16.74	15.30	15.21	13.89	12.76	11.52	10.76	9.951	9.373	8.600	8.248	7.756	7.436	6.948	6.257	5.688	5.362	5.643	5.500	4.657	3.624	3.377	3.243	2.825	2.772	2.534	2.490	2.838	2.390	2.237	2.610	3.232	4.750	14.52	72.65	257.9	577.0	1642	1511	30.78	2.381	1.111	0.683
580.0	62.72	82.63	83.11	76.02	63.14	60.42	63.64	73.11	124.9	118.1	85.46	103.9	316.9	3455	3005	70.06	30.28	26.43	24.17	21.54	20.66	20.57	19.40	20.18	19.12	18.73	18.84	18.91	18.50	18.90	18.35	17.46	16.06	15.56	14.28	13.06	12.61	11.19	10.61	9.713	9.066	8.433	8.083	7.217	7.178	6.799	6.246	5.915	5.401	4.973	4.444	4.448	4.725	4.505	3.639	3.040	2.898	2.403	2.393	2.201	2.227	2.398	2.324	2.131	2.085	2.366	2.508	4.654	17.85	59.12	131.2	570.9	1825	1093	25.31	1.475	0.856
585.0	59.17	75.47	83.22	71.20	59.15	60.58	57.25	64.27	97.44	134.3	88.89	88.00	127.3	1338	4770	351.0	26.06	22.50	20.39	18.47	17.55	16.82	16.84	16.75	16.30	16.33	16.26	16.18	15.36	15.89	15.51	14.63	14.07	12.94	12.08	11.43	10.30	9.594	8.714	8.682	7.830	7.226	7.017	6.232	6.228	5.883	5.600	5.235	4.534	4.215	3.826	3.676	3.736	3.907	3.434	2.886	2.342	2.323	2.133	2.000	1.802	2.002	2.459	2.196	1.679	1.776	1.895	2.329	5.375	14.60	30.51	131.8	723.2	1739	726.8	17.40	1.239
590.0	53.31	76.15	80.19	69.26	55.26	51.82	51.71	55.75	73.81	125.7	100.1	79.42	81.46	361.8	3234	2323	53.65	19.66	16.88	15.68	14.38	13.97	13.83	13.87	13.56	12.94	13.16	12.96	12.64	12.68	12.47	11.60	11.31	10.33	9.634	9.181	8.562	7.846	7.239	6.981	6.479	5.811	5.536	5.135	5.137	4.945	4.640	4.207	3.712	3.480	3.178	2.991	2.817	3.168	3.127	2.756	2.292	2.110	1.976	1.795	1.573	1.575	1.864	1.974	1.835	1.587	1.616	1.678	2.376	4.432	7.941	30.46	166.3	624.6	1146	712.7	95.62
595.0	47.38	65.43	79.90	65.23	50.33	47.23	46.51	52.97	59.22	98.35	118.8	79.91	68.29	117.5	912.5	3799	527.7	17.82	14.49	12.85	11.51	12.04	11.17	10.92	10.61	10.47	10.30	10.21	9.958	10.31	9.828	9.372	8.810	8.107	7.428	6.923	6.660	6.610	5.944	5.873	5.154	4.743	4.565	4.073	3.984	3.864	3.618	3.568	3.083	3.078	2.732	2.304	2.241	2.516	2.356	2.528	2.001	1.940	1.531	1.528	1.386	1.331	1.347	1.528	1.690	1.597	1.420	1.460	1.537	1.994	2.605	7.615	37.96	140.0	302.3	900.2	930.5
600.0	49.90	66.19	72.15	58.12	42.43	42.74	49.31	49.26	56.42	79.02	123.7	88.96	69.99	65.52	241.1	2749	2107	34.78	13.48	11.96	10.29	10.46	9.291	9.018	8.870	8.824	8.662	8.480	8.646	8.714	8.088	7.810	7.146	7.140	6.218	5.974	5.741	5.476	5.294	4.395	4.596	3.867	3.942	3.893	3.621	3.168	3.070	2.964	2.730	2.530	2.395	2.082	1.812	1.987	2.093	2.322	2.044	1.772	1.433	1.485	1.203	1.265	1.138	1.333	1.393	1.779	1.290	1.174	1.317	1.350	1.382	2.475	9.224	31.91	68.55	289.8	997.9
605.0	44.60	67.08	71.46	57.56	41.43	43.37	46.05	51.34	58.68	68.91	121.6	105.1	75.88	57.85	85.31	1115	3538	82.63	12.49	10.40	9.272	8.837	8.055	8.243	7.426	7.027	7.604	7.343	7.128	7.305	7.192	6.393	6.248	5.773	5.180	5.293	4.946	4.152	4.197	3.890	3.814	3.328	3.252	3.254	3.079	2.893	2.865	2.490	2.426	2.263	1.946	1.855	1.702	1.690	1.719	1.844	1.957	1.855	1.355	1.265	1.157	1.100	1.049	1.246	1.144	1.461	1.398	1.165	1.274	1.078	1.045	1.336	2.787	7.771	16.04	66.42	365.7
610.0	47.12	63.89	68.86	57.44	44.48	41.79	47.67	53.93	66.35	79.03	117.3	133.6	92.51	67.72	59.64	299.9	2638	1386	30.64	9.656	7.887	7.395	6.947	6.873	6.499	6.464	6.326	6.151	5.926	5.878	5.842	5.242	4.743	4.934	4.413	4.400	4.013	3.578	3.367	3.180	2.980	2.771	2.615	2.624	2.487	2.316	2.399	2.072	1.970	1.797	1.556	1.493	1.494	1.336	1.448	1.464	1.639	1.586	1.329	1.206	0.984	1.032	1.010	1.029	1.075	1.142	1.273	1.373	1.194	1.057	0.951	1.006	1.268	2.328	4.140	15.43	83.68
615.0	45.34	62.33	64.54	57.90	42.19	40.51	48.87	53.88	66.78	82.71	106.3	141.2	110.1	73.22	56.76	96.98	808.9	2797	347.3	9.237	7.445	6.776	5.758	5.719	5.188	5.482	4.851	4.953	4.773	4.594	4.452	4.413	3.895	3.959	3.482	3.439	3.148	2.824	2.732	2.527	2.515	2.261	2.140	2.007	2.078	1.891	1.902	1.797	1.661	1.491	1.325	1.291	1.083	1.175	1.182	1.083	1.202	1.414	1.343	1.159	1.001	0.912	1.078	1.015	1.118	1.018	1.044	1.364	1.358	0.946	1.052	0.904	0.907	1.157	1.448	3.915	19.00
620.0	40.43	54.17	64.45	53.22	45.37	37.28	48.34	54.56	63.27	80.81	98.65	125.4	119.0	74.18	56.07	51.40	219.4	2211	1357	16.62	7.048	5.733	5.537	5.214	4.492	4.398	4.181	4.242	4.290	3.957	4.130	3.680	3.193	3.382	2.940	2.946	2.791	2.571	2.497	2.163	2.161	1.929	1.925	1.856	1.683	1.847	1.682	1.664	1.550	1.353	1.262	1.172	0.974	1.032	1.058	0.935	0.982	1.173	1.250	1.023	0.990	0.890	0.976	1.048	0.921	0.960	0.964	1.104	1.301	1.074	1.064	0.851	0.792	0.826	0.810	1.413	4.622
625.0	36.74	58.35	63.65	53.94	43.32	37.18	43.38	54.75	64.23	79.11	96.03	113.3	122.9	77.91	56.12	39.70	74.58	980.0	2446	60.13	6.574	5.134	4.683	4.439	4.096	3.913	3.875	3.528	3.590	3.584	3.571	3.116	2.770	2.814	2.770	2.676	2.393	2.115	2.195	2.098	1.736	1.597	1.684	1.610	1.452	1.658	1.330	1.340	1.258	1.265	1.020	1.045	0.919	0.940	0.837	0.865	0.839	0.955	1.094	1.003	1.044	0.827	0.826	0.902	0.954	0.888	0.843	0.947	1.235	1.005	1.055	0.789	0.717	0.735	0.686	0.643	1.355
630.0	38.87	56.68	63.96	50.75	38.56	37.75	43.17	49.80	61.08	77.49	92.76	104.5	118.5	87.08	57.77	38.89	41.19	259.1	1987	1003	18.02	5.203	4.338	3.797	3.688	3.418	3.323	3.021	3.129	3.043	2.846	2.646	2.378	2.445	2.232	2.165	1.955	1.867	1.835	1.701	1.459	1.415	1.324	1.377	1.237	1.230	1.146	1.154	1.156	1.059	0.950	0.922	0.860	0.840	0.748	0.851	0.750	0.796	0.934	0.896	1.067	0.835	0.859	0.843	0.762	0.816	0.879	0.855	0.987	0.958	1.027	0.779	0.599	0.712	0.550	0.478	0.651
635.0	41.28	48.73	59.27	48.17	39.93	34.66	41.65	50.84	60.52	77.88	89.61	99.66	104.4	100.4	59.87	40.31	33.54	72.57	640.6	2173	213.7	5.445	3.941	3.557	3.603	2.841	2.796	2.652	2.727	2.412	2.300	2.220	1.992	2.028	1.888	1.854	1.678	1.657	1.446	1.358	1.240	1.173	1.081	1.210	1.031	1.025	1.066	1.008	1.037	0.831	0.770	0.813	0.674	0.715	0.720	0.675	0.602	0.693	0.746	0.758	0.894	0.851	0.861	0.795	0.793	0.697	0.732	0.757	0.804	0.743	0.878	0.961	0.667	0.600	0.477	0.449	0.487
640.0	41.54	54.55	64.52	50.82	39.50	38.10	40.32	49.09	60.25	74.01	90.11	97.91	97.21	102.1	66.19	40.86	32.80	29.69	164.4	1875	887.0	9.685	4.423	3.279	3.034	2.835	2.671	2.391	2.524	2.281	2.307	1.990	1.958	1.775	1.776	1.593	1.564	1.292	1.175	1.234	1.110	1.040	1.028	0.891	0.834	0.992	0.938	0.910	0.904	0.725	0.652	0.695	0.707	0.610	0.670	0.687	0.520	0.635	0.709	0.698	0.764	0.774	0.911	0.696	0.673	0.711	0.882	0.718	0.796	0.760	0.747	0.882	0.807	0.691	0.534	0.469	0.388
645.0	47.15	56.16	68.82	44.34	40.12	36.95	39.43	45.43	57.84	72.93	85.97	94.76	93.59	94.76	75.13	40.97	32.32	20.01	45.40	916.4	1769	44.25	4.509	2.932	2.778	2.707	2.564	2.290	2.282	1.897	2.052	1.945	1.763	1.742	1.721	1.519	1.419	1.200	1.097	1.104	0.999	1.047	0.863	0.908	0.753	0.969	0.710	0.762	0.865	0.702	0.641	0.660	0.658	0.656	0.583	0.571	0.592	0.666	0.724	0.602	0.639	0.715	0.823	0.769	0.672	0.767	0.801	0.658	0.790	0.720	0.728	0.806	0.835	0.684	0.483	0.458	0.409
650.0	34.77	58.97	72.39	48.24	39.54	37.84	40.19	44.78	52.50	69.54	87.09	92.29	87.90	86.82	77.63	42.66	31.36	19.56	18.39	278.1	1984	351.6	5.091	2.967	2.778	2.474	2.337	1.968	2.120	1.977	2.000	1.613	1.521	1.671	1.623	1.607	1.386	1.232	1.037	1.004	0.838	0.929	0.938	0.915	0.745	0.817	0.752	0.709	0.810	0.683	0.586	0.610	0.608	0.634	0.591	0.630	0.585	0.589	0.657	0.495	0.605	0.751	0.754	0.733	0.684	0.709	0.699	0.720	0.732	0.732	0.637	0.736	0.677	0.544	0.508	0.435	0.383
