Sample:	'1
File name:	Default_20231106_135755.FD3
Run date:	'13:51:34, 11/06/2023
Operator:	user
Comment:	'

Instrument
Model:	F-2700 FL Spectrophotometer
Serial number:	2190-003
ROM Version:	4J14000 07

Instrument parameters
Measurement type:	3-D scan
Data mode:	Fluorescence
EX  Start WL:	220.0 nm
EX  End WL:	600.0 nm
EX Sampling interval:	5.0 nm
EM  Start WL:	230.0 nm
EM  End WL:	650.0 nm
EM Sampling interval:	5.0 nm
Scan speed:	12000 nm/min
EX Slit:	5.0 nm
EM Slit:	5.0 nm
PMT Voltage:	700 V
Response:	Auto 
Corrected spectra:	Off
Contour interval:	50.000

Peak integration
Integration method:	Rectangular
Sensitivity:	1
Threshold:	1.000

Peaks
No.	ApexEX/EM(nm)	Height(Data)
1	225.0/265.0	214.3
2	225.0/305.0	252.3
3	225.0/485.0	240.2
4	225.0/500.0	228.1
5	225.0/515.0	225.1
6	225.0/555.0	213.3
7	225.0/580.0	185.6
8	225.0/630.0	183.6
9	230.0/585.0	193.4
10	230.0/595.0	189.7
11	235.0/505.0	241.9
12	240.0/520.0	214.9
13	245.0/530.0	188.3
14	245.0/560.0	131.3
15	250.0/365.0	 1704
16	250.0/545.0	189.4
17	255.0/555.0	146.5
18	255.0/605.0	97.79
19	260.0/285.0	397.8
20	260.0/565.0	151.1
21	260.0/625.0	95.57
22	265.0/290.0	450.1
23	265.0/580.0	120.1
24	270.0/295.0	583.2
25	270.0/590.0	114.8
26	275.0/305.0	709.8
27	275.0/600.0	105.2
28	280.0/310.0	683.4
29	280.0/615.0	89.92
30	285.0/315.0	651.2
31	290.0/320.0	612.2
32	290.0/400.0	454.8
33	290.0/640.0	59.13
34	295.0/330.0	481.7
35	300.0/335.0	436.3
36	300.0/595.0	641.0
37	305.0/340.0	455.2
38	305.0/400.0	424.5
39	305.0/605.0	517.5
40	310.0/345.0	400.7
41	315.0/255.0	14.80
42	315.0/355.0	354.8
43	320.0/360.0	388.4
44	325.0/240.0	11.81
45	325.0/365.0	367.3
46	330.0/285.0	11.14
47	335.0/260.0	11.45
48	335.0/380.0	370.6
49	340.0/385.0	372.1
50	350.0/400.0	326.0
51	355.0/405.0	313.4
52	360.0/300.0	8.459
53	360.0/410.0	286.2
54	365.0/260.0	7.452
55	365.0/415.0	271.5
56	370.0/265.0	7.104
57	370.0/425.0	254.4
58	380.0/320.0	6.718
59	380.0/340.0	7.711
60	400.0/465.0	118.6
61	420.0/260.0	5.118
62	425.0/335.0	4.935
63	430.0/505.0	44.50
64	435.0/510.0	35.77
65	440.0/285.0	4.729
66	445.0/365.0	5.084
67	445.0/525.0	26.40
68	450.0/530.0	22.04
69	455.0/535.0	18.60
70	470.0/560.0	9.656
71	490.0/365.0	6.748
72	495.0/280.0	4.258
73	495.0/355.0	6.897
74	500.0/360.0	7.219
75	515.0/405.0	5.993
76	520.0/285.0	4.070
77	535.0/425.0	4.738
78	535.0/500.0	4.590
79	540.0/300.0	4.820
80	540.0/440.0	4.558
81	545.0/620.0	3.962
82	550.0/305.0	4.526
83	555.0/310.0	4.743
84	565.0/460.0	4.609
85	570.0/315.0	4.516
86	575.0/320.0	5.139
87	580.0/325.0	5.189

Data points
	220.0	225.0	230.0	235.0	240.0	245.0	250.0	255.0	260.0	265.0	270.0	275.0	280.0	285.0	290.0	295.0	300.0	305.0	310.0	315.0	320.0	325.0	330.0	335.0	340.0	345.0	350.0	355.0	360.0	365.0	370.0	375.0	380.0	385.0	390.0	395.0	400.0	405.0	410.0	415.0	420.0	425.0	430.0	435.0	440.0	445.0	450.0	455.0	460.0	465.0	470.0	475.0	480.0	485.0	490.0	495.0	500.0	505.0	510.0	515.0	520.0	525.0	530.0	535.0	540.0	545.0	550.0	555.0	560.0	565.0	570.0	575.0	580.0	585.0	590.0	595.0	600.0
230.0	185.3	221.0	915.2	 1008	193.3	89.26	78.67	71.95	62.90	50.08	46.51	43.31	33.14	30.72	24.97	18.72	15.95	15.94	13.02	12.71	11.15	10.07	9.479	8.787	8.219	7.427	6.542	7.615	7.280	6.247	6.835	6.144	5.803	5.199	5.153	4.752	4.445	4.532	4.049	3.662	3.793	3.720	3.874	3.707	3.452	3.416	3.270	3.829	4.475	4.240	3.418	2.800	2.994	2.735	2.862	3.058	2.937	2.905	3.006	2.920	2.855	3.057	2.799	3.225	2.956	2.809	3.037	2.871	2.899	2.843	2.829	3.145	2.876	2.946	3.119	2.768	3.230
235.0	195.3	185.2	419.6	 1407	 1252	213.1	88.48	69.15	57.25	53.26	33.51	41.22	42.14	31.92	22.19	17.76	19.03	14.44	11.67	11.65	11.58	11.19	10.78	8.581	8.774	7.422	6.844	7.201	8.188	5.996	5.995	6.082	6.208	4.934	5.191	4.393	4.871	3.811	4.805	3.726	3.308	3.767	3.998	3.849	3.895	3.693	3.094	3.133	3.107	3.500	5.192	5.890	4.102	3.126	3.047	3.018	3.246	3.690	3.392	2.817	2.729	2.921	3.052	2.757	3.115	2.477	2.832	2.881	2.972	3.022	2.813	2.815	3.374	2.528	3.078	2.812	3.082
240.0	182.3	197.9	205.7	692.5	 1970	 1214	184.9	58.14	61.63	51.69	41.60	41.37	34.65	32.49	26.33	19.40	19.20	14.33	15.64	12.05	10.25	11.81	9.088	8.299	8.250	8.079	7.973	7.963	7.112	5.570	5.580	5.712	5.521	6.105	4.269	5.231	4.903	4.069	4.068	4.047	3.990	4.158	3.768	3.620	4.387	3.920	3.079	2.863	3.384	2.934	3.826	5.684	6.592	5.856	4.168	3.402	2.779	3.541	3.245	2.926	2.743	2.795	3.076	3.026	3.318	2.557	2.946	2.836	3.184	2.967	2.421	2.791	3.110	2.989	2.908	3.038	3.659
245.0	234.7	199.7	163.7	279.0	 1054	 2326	 1196	109.2	67.47	50.44	45.19	39.50	34.12	29.83	26.62	19.07	18.00	14.04	15.13	12.10	10.45	10.77	8.708	9.371	8.551	7.956	7.927	7.842	6.959	6.522	6.014	5.747	4.412	5.985	4.649	5.066	4.853	4.472	4.652	4.179	4.190	3.809	3.608	2.797	3.815	3.941	3.604	3.018	3.027	3.277	2.864	3.955	4.753	7.187	7.855	5.956	3.270	3.022	2.979	2.759	2.822	2.805	3.150	2.879	3.259	3.049	2.478	3.195	2.892	2.884	2.577	2.743	2.833	2.952	3.122	3.241	3.305
250.0	204.9	184.8	170.2	199.9	352.3	 1137	 2483	 1735	343.2	56.30	47.77	40.82	33.29	31.93	28.80	18.82	17.52	12.44	14.99	12.38	11.44	10.52	9.010	8.959	8.832	8.077	7.806	7.666	6.678	6.725	6.719	6.210	4.908	5.168	4.494	4.802	4.643	5.108	4.431	4.061	3.987	4.003	4.251	3.729	3.931	3.913	3.084	3.300	2.836	2.767	2.719	3.137	3.172	4.567	5.494	6.847	7.829	7.301	5.331	3.525	2.843	2.758	3.112	2.984	2.600	3.052	3.100	2.882	3.008	2.839	2.887	2.608	3.137	2.434	2.867	3.172	2.923
255.0	221.5	143.3	178.4	181.6	214.6	334.5	864.9	 2963	 2271	388.4	58.93	37.23	41.28	33.54	28.92	22.06	15.81	14.97	13.45	14.80	10.70	10.34	10.80	9.442	7.396	8.102	6.934	7.835	7.619	6.258	6.321	6.020	5.836	4.410	5.313	5.183	4.458	4.707	4.318	4.436	4.574	4.730	3.973	3.439	3.934	3.231	2.714	3.148	3.167	2.385	2.263	3.220	3.255	3.184	3.581	3.765	4.886	6.709	9.910	9.487	5.893	3.051	2.967	2.922	2.573	3.033	3.314	3.114	3.018	2.639	3.124	3.008	3.470	2.779	3.123	3.349	3.279
260.0	194.0	153.2	154.6	158.7	209.6	200.9	270.6	 1260	 3939	 1920	220.5	41.62	38.29	34.20	27.28	24.55	18.04	12.88	12.55	14.09	11.23	10.53	10.07	11.45	7.815	8.420	6.164	7.038	7.216	7.452	6.330	4.881	5.311	4.866	4.753	4.463	4.420	4.503	3.879	4.150	5.118	4.793	3.715	3.754	3.738	3.011	2.900	2.996	2.813	2.779	2.328	3.295	3.395	2.993	3.717	3.614	3.621	3.973	6.370	9.580	11.67	8.979	5.188	3.291	2.477	2.388	2.678	3.324	3.426	2.813	2.574	3.345	3.430	2.884	3.287	3.123	2.788
265.0	188.9	214.3	137.0	120.1	185.5	226.6	148.9	352.6	 1865	 4301	 1552	101.5	36.03	33.44	24.79	22.12	17.88	13.52	13.54	11.55	10.68	10.75	9.424	10.23	8.336	7.588	6.119	7.105	7.029	6.018	7.104	5.487	6.205	5.118	4.791	4.670	4.277	4.557	3.585	4.128	3.888	4.348	4.236	3.368	3.739	3.081	3.162	2.767	2.590	2.465	2.623	3.316	2.840	3.697	3.281	3.037	2.872	3.339	3.823	5.084	7.821	11.86	12.80	8.423	3.419	2.892	2.685	3.263	3.393	2.660	2.553	2.794	3.084	3.037	3.233	3.007	3.151
270.0	194.4	189.4	146.1	142.3	136.1	178.3	228.3	192.1	495.7	 1809	 3597	 2785	359.3	34.38	26.90	24.44	18.17	13.87	13.33	12.23	11.50	9.989	9.054	9.594	8.332	8.405	7.459	7.314	6.942	6.650	6.872	5.859	5.984	4.865	4.813	4.351	4.535	4.792	3.946	3.911	3.696	3.913	4.048	3.634	3.533	3.232	3.174	3.295	3.110	2.320	2.744	3.042	2.764	3.319	3.306	3.047	3.435	3.470	3.317	3.536	4.146	6.050	8.336	10.86	12.87	10.90	6.503	3.360	3.278	2.948	2.988	2.778	3.171	2.769	3.044	2.750	3.191
275.0	203.1	187.0	159.7	135.8	125.7	134.4	203.8	288.1	223.8	470.4	 1081	 3934	 4226	372.0	26.14	23.24	19.95	15.57	14.15	13.16	13.21	10.34	10.33	10.29	8.328	8.186	7.448	7.602	7.752	7.075	6.937	6.995	7.009	4.570	5.412	4.548	4.518	4.618	3.841	3.160	3.377	3.930	4.122	4.010	3.749	3.497	3.055	3.474	3.162	2.372	2.765	3.340	2.980	2.682	3.024	2.866	3.118	4.157	3.188	3.219	2.949	3.485	4.202	4.908	6.383	11.13	17.02	16.24	7.256	3.844	3.458	2.565	2.889	2.632	2.499	3.025	3.212
280.0	178.9	154.5	175.9	154.7	139.6	117.3	139.9	295.4	317.2	185.6	346.2	 1449	 5275	 3391	161.9	24.58	20.19	18.09	14.67	12.19	12.48	10.17	10.91	10.74	8.084	9.001	6.958	7.667	7.091	7.724	5.511	6.435	6.244	5.085	5.009	4.320	4.398	4.845	4.340	4.315	3.692	4.026	3.539	3.802	4.290	3.981	3.270	2.983	2.865	2.536	2.563	2.608	2.824	2.966	2.942	4.258	3.259	3.828	3.678	3.667	3.270	3.047	3.375	3.298	3.513	5.177	9.063	17.42	19.41	12.01	5.451	2.979	2.638	3.057	2.952	3.264	3.187
285.0	225.0	163.7	194.6	141.8	160.7	126.4	125.3	192.6	397.8	250.0	196.0	471.4	 2234	 6033	942.3	63.61	20.60	19.03	13.31	13.09	12.57	9.849	11.14	10.46	9.524	8.104	7.793	7.487	7.631	6.582	6.618	5.365	5.302	5.165	5.518	4.003	4.521	4.466	4.126	4.092	3.759	3.687	3.767	4.431	4.729	4.024	3.311	3.443	2.622	2.489	2.632	2.299	3.386	2.969	2.628	3.404	3.210	3.412	3.233	3.509	4.070	3.645	3.051	2.823	3.143	3.196	4.601	7.199	13.52	20.50	18.82	8.038	3.365	3.316	2.327	3.293	3.383
290.0	224.5	182.3	186.5	154.6	155.5	145.2	143.9	145.4	258.0	450.1	349.3	289.7	683.5	 2367	 4301	 2777	224.6	20.60	14.17	12.85	12.11	10.72	10.08	10.07	9.904	7.533	7.356	7.049	7.285	7.707	6.141	5.282	5.565	5.394	5.289	4.094	4.610	4.213	4.207	3.547	3.810	3.801	3.742	3.940	3.771	3.850	3.485	3.493	3.095	2.833	2.831	2.556	3.133	2.982	2.680	3.358	3.237	3.041	3.051	3.489	3.699	3.923	3.936	3.629	3.475	3.388	3.707	4.328	5.845	8.493	12.82	15.31	16.31	12.58	6.993	3.933	3.383
295.0	194.3	215.2	191.4	176.7	179.8	153.3	150.8	162.9	173.8	284.0	583.2	428.2	366.6	669.1	 1272	 4508	 3949	249.7	17.42	15.69	11.95	10.97	10.82	10.13	9.733	7.251	7.450	6.307	7.305	6.985	5.905	6.391	5.861	5.140	4.180	4.536	5.077	4.667	4.127	3.802	4.159	3.825	3.691	3.647	3.766	3.524	3.079	3.520	3.008	2.602	2.759	3.096	3.022	3.047	2.912	3.053	2.951	3.506	3.092	3.154	2.975	3.974	3.597	3.637	4.668	3.423	3.246	3.129	4.285	4.227	5.135	5.832	7.860	14.36	21.45	17.21	8.211
300.0	208.9	250.6	214.3	212.1	180.8	179.7	158.1	149.1	181.3	222.7	478.7	684.8	378.2	306.5	383.7	 1636	 5601	 3058	109.0	15.44	12.23	11.20	9.676	10.19	9.457	8.923	7.020	7.077	8.459	6.817	7.313	5.471	5.741	5.411	5.070	4.836	5.288	4.625	4.151	3.493	3.874	4.685	4.061	4.508	3.627	2.957	2.828	3.372	2.938	2.909	2.604	3.108	2.858	3.252	3.046	2.994	3.176	3.197	3.117	3.080	3.197	3.601	3.277	3.475	4.820	4.130	4.288	3.452	3.679	3.322	3.432	3.959	4.481	6.453	11.87	21.58	23.81
305.0	243.5	252.3	245.7	187.0	172.8	165.1	180.8	167.9	210.6	235.4	348.9	709.8	605.0	277.9	211.6	459.0	 2410	 6391	529.3	39.21	13.68	11.94	10.81	10.96	9.225	8.582	7.185	6.905	6.486	6.892	7.199	7.070	5.471	4.905	5.496	4.273	5.254	4.437	4.055	4.368	3.662	4.424	4.226	3.692	3.553	3.513	3.179	3.321	3.141	2.720	2.842	3.688	2.968	3.274	2.608	3.258	3.517	3.392	3.929	3.192	3.190	3.425	3.389	2.875	4.038	4.061	4.526	4.211	3.368	3.235	3.612	3.855	3.713	4.073	5.454	8.960	16.87
310.0	230.0	228.6	249.4	212.0	182.4	169.5	191.4	188.0	222.3	254.1	349.4	490.0	683.4	499.0	227.5	209.6	627.5	 2662	 4139	 1902	152.3	14.44	12.04	11.35	9.621	8.156	8.395	7.880	6.334	7.455	6.448	6.402	5.798	5.053	5.206	4.623	4.272	4.247	4.131	4.123	3.639	4.421	4.298	3.616	3.295	3.822	3.014	3.276	3.107	2.939	2.552	3.520	3.091	3.092	2.698	3.106	3.743	3.385	3.549	3.394	3.575	3.277	3.222	3.050	3.403	3.626	3.608	4.743	4.550	3.929	3.977	3.915	3.308	3.532	3.752	4.993	6.358
315.0	220.3	250.7	258.8	203.4	191.2	183.7	185.1	198.4	239.6	261.7	350.8	414.9	495.5	651.2	438.3	175.6	224.3	655.4	 1284	 4400	 2805	168.5	13.26	10.85	9.741	8.547	9.041	7.978	6.108	6.986	7.279	5.660	6.002	4.376	5.243	4.313	4.724	4.748	4.281	4.578	4.368	3.887	4.301	3.529	3.664	3.393	3.109	2.957	3.065	3.122	2.634	3.234	3.044	3.261	2.817	3.203	3.761	3.263	3.827	3.220	3.505	3.688	3.024	3.548	3.849	4.118	3.990	4.375	3.984	3.902	4.516	4.009	3.860	3.692	3.205	3.620	4.003
320.0	236.6	244.4	257.9	265.7	227.2	212.0	222.0	221.2	261.0	300.9	356.9	409.9	435.0	500.3	612.2	285.0	159.4	217.6	338.3	 1755	 5100	 2066	74.92	11.17	11.24	8.421	7.840	8.569	7.430	7.459	6.660	5.256	6.718	5.268	5.314	4.572	4.281	4.804	4.982	4.968	3.802	3.626	3.972	3.480	3.735	3.135	2.855	3.065	3.133	2.405	2.571	2.984	2.770	3.534	2.869	3.706	3.654	3.053	3.373	3.237	3.276	3.019	3.272	3.575	3.957	4.044	3.950	3.878	4.123	3.559	4.406	5.139	4.747	3.716	3.513	3.125	3.333
325.0	222.5	248.6	315.5	284.8	303.1	244.2	276.5	263.2	284.7	336.9	375.7	406.7	439.2	410.8	538.0	470.8	177.4	126.5	132.3	448.7	 2507	 4922	361.7	25.65	11.08	10.38	7.847	8.129	7.166	7.520	7.341	6.155	6.506	6.054	5.402	4.669	4.749	4.683	4.381	4.352	3.273	4.345	4.588	3.688	3.671	3.213	3.166	3.311	3.167	2.761	2.637	3.285	3.121	3.380	3.060	3.492	3.667	3.272	3.792	3.621	3.571	2.867	3.367	4.167	3.793	3.419	3.790	3.450	3.654	3.730	4.188	4.558	5.189	4.369	4.003	3.212	3.308
330.0	245.3	312.3	366.7	412.3	417.4	433.6	438.4	423.0	414.5	406.0	408.9	429.1	440.3	399.1	405.6	481.7	378.4	165.9	104.2	157.6	629.8	 2289	 3611	 1366	103.8	11.32	9.879	8.542	8.402	7.400	6.933	6.092	6.468	6.130	5.338	5.117	4.661	4.547	4.594	4.378	3.917	4.367	4.174	4.134	3.967	3.611	3.466	3.849	3.313	3.206	2.927	3.676	3.404	3.983	3.374	3.530	3.728	3.498	3.672	4.290	3.710	3.806	3.811	3.651	3.791	3.605	3.866	4.002	3.749	4.132	4.021	4.169	4.136	4.189	4.535	4.061	3.968
335.0	273.4	330.0	467.0	550.4	637.7	655.5	714.2	640.1	613.1	549.2	486.1	446.0	467.1	430.5	387.0	368.8	436.3	354.2	150.4	114.8	202.0	554.3	 1262	 4095	 2061	120.4	11.67	8.635	7.945	7.908	7.627	6.242	5.688	6.538	5.101	4.725	4.709	4.244	4.862	4.093	3.648	4.935	4.099	4.244	4.242	3.897	3.809	4.109	3.619	3.159	3.336	4.108	4.065	4.354	3.933	4.393	4.634	4.476	4.064	4.223	4.463	3.984	4.040	3.928	3.869	3.840	3.587	4.095	4.045	3.991	3.374	3.624	3.300	4.574	3.821	4.191	4.458
340.0	313.3	392.5	592.7	711.7	830.1	854.0	971.9	879.7	717.7	652.2	542.8	493.5	511.3	424.8	405.4	337.7	340.5	455.2	255.8	120.2	119.9	179.7	326.1	 1861	 4617	 1592	56.67	8.865	9.828	8.270	8.496	5.857	7.711	5.848	5.333	5.152	5.075	4.706	5.030	4.246	4.057	4.804	4.394	4.340	3.699	3.545	4.101	4.129	3.896	3.138	3.511	4.333	4.958	4.711	4.326	4.835	4.619	5.208	4.393	4.455	4.146	4.929	4.141	3.747	3.812	3.991	3.935	4.304	3.724	3.543	3.733	4.000	4.195	3.988	3.175	3.825	3.805
345.0	326.6	430.3	662.7	804.8	 1028	 1109	 1167	 1041	868.0	740.3	593.4	497.7	487.2	420.1	411.8	340.9	306.4	380.2	400.7	189.8	113.5	104.6	122.9	481.1	 2641	 4447	283.5	23.13	9.652	9.626	8.292	7.557	6.458	6.511	5.875	5.085	4.633	4.719	5.435	3.995	3.729	3.643	4.454	4.288	3.866	3.763	3.583	4.270	3.746	3.518	3.930	4.466	5.061	4.747	4.646	5.365	5.193	5.942	4.777	4.726	4.749	4.518	4.750	4.022	3.638	3.745	3.816	3.966	3.506	4.317	4.450	3.959	4.041	3.569	3.724	3.527	3.545
350.0	328.3	444.9	712.6	955.4	 1153	 1365	 1380	 1233	 1014	853.5	645.0	505.0	488.1	437.5	426.4	370.5	318.7	311.5	373.8	343.0	183.6	115.2	98.44	162.2	679.1	 2342	 3417	 1126	91.79	11.18	8.155	8.210	6.554	6.438	5.722	4.803	4.544	3.993	4.363	4.404	3.943	4.258	4.352	4.190	3.930	4.023	3.628	3.843	4.306	3.528	4.220	5.067	5.390	5.740	5.328	6.400	6.617	6.547	5.475	5.156	4.869	4.726	4.743	4.674	4.212	4.184	3.891	3.949	3.609	4.135	4.025	3.949	3.801	3.812	4.212	3.745	4.134
355.0	326.9	450.5	763.5	 1073	 1298	 1549	 1478	 1378	 1175	942.1	691.7	507.6	490.1	456.7	442.6	382.2	325.7	310.2	314.8	354.8	339.9	170.9	119.4	114.1	209.3	566.2	 1389	 3889	 1735	99.60	9.801	8.329	6.675	6.354	5.861	5.166	5.505	4.309	4.385	4.444	3.845	4.558	4.305	4.016	4.274	4.413	3.561	3.661	4.134	3.772	4.306	5.384	5.655	5.560	5.350	6.897	6.695	6.864	5.537	5.444	5.053	4.993	4.893	4.468	4.244	3.835	3.669	4.149	3.679	3.862	3.933	3.331	4.376	3.955	3.772	3.880	4.152
360.0	349.7	419.9	745.5	 1087	 1323	 1607	 1621	 1438	 1262	989.4	706.1	520.8	477.3	458.2	439.5	401.9	358.5	332.6	306.7	315.6	388.4	272.5	151.0	123.3	124.7	184.1	362.8	 1952	 4215	 1311	42.54	9.314	6.802	7.721	5.588	5.088	4.944	4.482	4.574	4.813	4.483	4.113	4.118	3.557	4.195	3.940	3.649	3.967	4.016	4.007	4.177	5.581	5.622	5.741	5.821	6.592	7.219	6.436	6.140	5.672	5.240	4.930	4.669	4.209	4.177	4.092	3.987	4.158	4.480	4.747	3.772	3.768	4.363	4.023	3.833	3.770	3.646
365.0	313.4	432.9	718.5	 1041	 1371	 1634	 1704	 1491	 1276	986.4	726.2	516.6	491.9	469.5	439.1	407.2	374.3	344.9	328.6	301.0	337.1	367.3	224.9	145.7	119.0	114.1	135.2	515.0	 2580	 4011	243.1	18.38	7.874	7.380	5.948	4.238	4.217	4.707	4.545	4.548	4.288	4.582	4.029	3.272	3.838	5.084	3.568	4.299	4.143	3.851	4.329	5.437	5.682	6.613	6.748	6.581	6.611	6.334	5.625	5.545	6.104	5.345	4.790	4.451	4.257	4.425	4.037	4.169	4.771	3.923	4.156	3.616	4.293	3.966	3.846	4.286	4.220
370.0	311.4	465.0	763.4	 1066	 1418	 1584	 1640	 1489	 1247	 1003	712.1	522.1	479.1	473.5	454.0	429.9	388.4	369.4	350.6	313.3	312.7	351.3	349.8	223.2	151.0	121.0	100.7	166.2	671.4	 2236	 3222	961.3	75.65	7.564	6.415	5.339	4.721	4.825	4.848	4.957	4.035	4.794	4.178	3.575	3.820	3.891	3.383	3.875	3.795	4.040	4.301	5.585	6.017	6.455	6.532	6.495	6.530	6.358	5.653	5.626	5.507	5.013	4.784	4.634	4.533	4.055	3.897	3.831	4.169	3.990	4.604	3.837	4.272	3.785	4.044	3.922	4.539
375.0	280.8	455.1	687.2	951.5	 1323	 1509	 1534	 1401	 1181	933.5	695.8	522.3	481.3	464.6	451.6	430.3	398.1	390.4	372.5	342.4	321.2	316.2	349.1	348.1	210.8	150.4	116.0	108.1	200.0	536.3	 1357	 3667	 1442	81.74	8.058	5.974	5.242	5.531	4.794	4.874	4.368	3.942	4.381	4.046	4.153	4.770	3.624	4.059	4.183	4.105	4.034	5.327	5.642	6.827	6.376	6.528	6.846	5.368	5.403	5.461	4.776	4.643	4.911	4.495	4.176	4.007	3.665	4.118	4.445	4.423	3.705	4.239	4.345	4.116	4.348	3.736	4.950
380.0	301.1	451.0	631.0	963.4	 1266	 1465	 1520	 1310	 1080	903.0	672.5	512.7	475.7	471.1	463.3	440.8	411.8	413.9	388.3	360.2	336.8	322.7	317.5	370.6	305.6	185.6	135.6	108.0	106.2	163.3	349.4	 1909	 3828	 1110	35.26	6.837	5.458	4.783	4.425	5.378	4.317	4.136	4.010	3.994	4.129	4.317	3.512	4.381	3.975	3.991	4.188	5.294	5.150	5.601	6.128	6.402	6.036	6.362	5.264	5.533	5.388	4.506	4.657	4.747	4.460	3.850	3.903	3.974	4.362	4.201	3.488	3.802	4.596	4.322	4.532	4.790	3.893
385.0	293.1	402.0	639.0	934.4	 1186	 1350	 1369	 1258	 1013	839.7	661.3	508.8	485.9	463.4	459.4	446.1	423.2	411.6	405.9	387.3	360.6	338.0	312.0	334.8	372.1	240.8	162.4	120.0	99.18	91.74	116.6	500.1	 2444	 3510	190.8	13.21	6.052	4.883	5.031	4.659	4.070	4.626	3.668	4.243	4.555	4.009	3.946	4.328	4.356	3.845	4.113	5.058	5.993	5.866	5.785	5.349	5.996	5.792	5.006	5.761	4.550	4.537	4.286	4.403	3.939	4.120	4.321	4.046	4.192	3.572	3.371	3.744	4.597	4.493	4.219	4.394	4.037
390.0	289.0	393.3	601.6	826.1	 1087	 1202	 1265	 1117	945.6	794.8	629.3	498.0	467.1	462.1	450.2	439.2	422.0	421.6	406.8	397.6	376.1	349.9	328.0	313.3	339.9	324.4	230.9	153.7	118.8	94.10	80.69	152.3	639.3	 1980	 2764	729.2	59.43	6.343	5.309	4.651	4.613	4.471	4.259	4.748	4.041	4.680	3.972	3.941	4.292	3.308	3.981	4.790	5.226	5.244	4.977	5.728	5.455	5.865	5.141	4.382	4.209	4.450	4.483	4.198	4.088	3.918	3.998	3.785	4.056	4.468	3.745	4.249	4.228	4.175	4.080	4.125	4.339
395.0	294.8	370.0	555.9	759.1	923.1	 1097	 1116	977.1	838.7	748.2	580.5	479.7	453.0	456.3	445.8	429.2	416.2	420.4	413.3	404.9	383.2	357.5	341.9	323.2	308.4	315.8	317.0	213.0	149.6	116.4	91.00	87.55	181.1	469.4	 1191	 2918	 1146	66.92	6.801	5.969	4.540	4.583	4.507	4.280	3.640	4.191	3.791	4.073	3.998	3.753	3.609	4.526	4.817	5.015	5.113	5.067	5.283	4.949	4.637	4.561	4.622	4.372	4.061	4.501	4.170	3.865	3.491	3.846	4.229	3.854	4.002	3.911	4.250	4.050	3.997	3.418	4.173
400.0	281.8	364.7	529.1	718.6	878.1	981.8	976.3	908.5	771.0	690.5	561.0	468.9	451.7	442.5	454.8	415.6	414.3	424.5	406.4	394.3	382.7	367.8	356.3	330.9	306.3	294.0	326.0	276.6	181.1	136.0	106.6	83.91	84.41	138.8	301.3	 1490	 2978	907.7	31.21	6.228	5.217	4.789	3.552	4.452	4.288	4.111	3.508	3.292	4.207	3.083	3.729	4.296	4.432	5.134	4.144	4.410	5.007	4.959	4.911	5.355	4.575	4.333	4.097	4.377	4.458	3.692	3.552	3.738	4.102	3.817	3.952	4.061	4.233	4.104	4.377	4.533	4.131
405.0	269.6	337.2	497.5	648.1	784.0	891.1	956.0	817.3	726.7	641.1	513.4	478.4	445.0	441.2	440.5	417.8	401.2	406.3	399.4	390.5	387.2	372.3	364.1	337.9	308.5	289.0	300.4	313.4	230.6	158.2	121.3	92.73	75.30	70.74	95.66	388.8	 1815	 2796	160.9	12.56	5.726	4.700	4.446	4.178	4.217	5.129	3.411	3.581	3.498	3.539	3.542	4.554	4.892	4.533	4.307	4.824	5.160	4.553	5.030	5.993	4.527	4.273	4.187	3.726	3.797	3.277	3.394	3.994	4.315	4.117	3.973	4.057	4.202	4.173	4.089	4.290	4.051
410.0	289.3	342.3	448.9	588.8	690.1	800.3	831.7	750.6	670.6	599.5	498.9	456.4	433.0	428.1	433.1	408.0	393.6	396.9	397.3	390.9	374.3	372.5	356.0	341.0	319.4	295.7	282.7	284.8	286.2	211.8	144.6	110.4	88.31	67.60	60.06	113.4	466.1	 1534	 2058	652.8	51.69	5.318	4.982	4.593	4.301	4.550	3.735	3.385	3.305	3.001	3.553	4.012	4.441	4.576	4.378	4.533	4.599	4.792	4.557	4.652	4.234	4.119	4.066	3.720	3.832	4.041	3.517	3.529	3.627	4.099	3.813	4.192	4.127	4.167	4.208	4.395	4.465
415.0	243.3	358.6	394.3	543.3	613.1	713.8	735.5	670.1	605.7	531.6	501.0	430.8	427.5	411.2	417.5	387.4	373.2	373.8	374.4	373.6	366.9	363.7	352.0	343.0	322.4	309.0	282.6	264.1	264.8	271.5	193.3	127.8	98.99	76.70	59.23	58.16	128.2	359.7	821.3	 2172	995.5	61.70	5.300	5.309	4.788	3.713	3.594	4.233	3.468	3.320	3.564	4.019	4.356	4.128	4.148	3.860	5.029	4.659	3.759	4.870	3.987	4.681	4.048	3.772	4.239	3.874	4.089	3.615	3.783	4.381	4.316	3.950	3.661	4.405	4.286	3.972	4.789
420.0	231.3	328.1	369.7	516.8	530.5	647.6	665.8	602.2	597.2	522.0	486.6	411.8	405.5	404.2	385.7	369.2	371.7	365.6	371.3	354.8	362.1	351.8	346.6	331.1	321.5	303.1	280.0	265.1	241.0	260.8	238.3	152.4	111.8	84.99	64.52	53.60	56.17	102.0	204.2	 1049	 2270	768.0	25.26	5.461	4.425	5.023	4.112	3.842	3.192	3.261	3.445	4.198	4.219	4.402	3.652	4.720	4.797	4.371	3.824	4.491	3.844	4.246	4.136	4.003	3.433	3.847	3.806	3.889	3.551	4.010	4.137	3.485	3.896	4.129	3.825	3.937	4.525
425.0	224.3	283.0	382.2	500.2	516.2	577.2	655.6	581.7	537.5	489.2	466.2	411.5	397.5	395.1	387.7	356.6	359.0	354.0	345.1	346.2	345.3	337.4	335.4	324.9	314.1	316.9	281.5	264.3	239.4	245.5	254.4	189.0	122.4	94.73	69.69	52.86	43.96	47.05	62.65	268.4	 1313	 2096	146.3	10.28	5.086	4.496	3.986	3.431	3.447	3.358	3.452	3.405	3.813	4.069	3.788	4.193	4.571	3.831	3.923	4.364	3.733	4.410	3.703	4.738	3.886	4.119	4.060	4.189	4.380	4.684	4.139	3.421	3.950	3.494	3.274	3.971	3.983
430.0	233.3	264.7	356.5	439.7	493.2	538.0	551.8	548.6	502.9	477.3	449.5	424.2	393.5	384.4	362.7	345.4	332.2	332.2	329.6	324.6	329.6	324.6	322.4	318.6	305.4	301.5	285.0	265.6	244.3	229.6	229.2	222.2	163.8	111.9	83.02	62.04	48.44	40.41	37.79	76.08	332.9	 1085	 1574	575.0	48.60	4.949	4.037	3.787	3.639	3.133	3.271	2.980	4.028	4.098	3.657	4.464	4.063	4.150	4.367	4.125	3.966	4.064	3.783	4.123	3.913	3.779	3.850	3.787	3.962	3.671	3.492	3.569	3.727	3.738	3.621	3.524	3.989
435.0	301.6	270.8	320.8	420.4	492.7	527.1	486.0	521.4	467.1	481.5	443.3	414.8	402.0	389.6	352.7	329.9	317.1	311.2	308.3	319.6	314.8	310.8	304.5	303.1	298.5	292.8	279.1	272.1	248.3	235.5	213.3	208.9	203.5	141.7	96.87	74.79	57.98	44.93	36.27	36.92	91.33	255.6	630.2	 1774	895.0	59.41	4.209	4.368	3.924	3.337	3.244	3.464	3.646	4.095	3.652	4.762	3.871	3.876	4.035	4.073	3.374	4.301	3.504	4.160	4.092	3.588	3.872	3.802	3.645	3.429	3.875	3.867	4.100	3.060	3.640	4.122	3.942
440.0	315.7	281.2	304.7	404.8	442.9	484.4	476.4	466.6	478.1	439.4	421.5	412.4	388.5	366.3	344.6	321.3	306.2	304.3	299.4	302.8	302.7	300.4	299.1	293.0	286.2	283.6	281.5	268.7	245.0	234.0	212.1	188.9	193.9	170.6	111.6	81.94	65.54	51.33	38.87	30.79	37.75	70.80	157.4	888.6	 1954	710.7	25.01	4.759	4.111	3.611	3.440	3.582	4.153	3.833	3.637	3.543	3.779	3.970	4.114	3.720	3.849	3.830	3.691	3.794	4.558	3.417	3.505	4.181	3.974	3.980	3.907	3.741	3.692	2.966	3.803	4.161	4.119
445.0	285.9	353.5	327.6	375.9	428.9	453.0	470.1	464.1	454.0	447.6	421.6	417.0	390.4	367.6	342.0	315.3	306.0	293.5	290.2	290.6	284.5	280.9	282.1	282.8	274.6	277.6	267.3	265.6	246.4	235.3	214.4	185.0	178.0	181.1	135.9	93.13	70.95	55.28	43.19	33.46	28.83	33.96	47.14	225.9	 1156	 1909	120.6	10.69	4.126	2.872	3.271	4.156	3.843	3.740	3.981	3.625	3.946	4.039	4.386	3.457	4.273	3.787	3.680	4.086	4.472	3.755	3.410	4.036	3.805	4.491	4.395	3.949	3.460	3.539	3.852	4.119	4.040
450.0	234.8	399.3	405.5	357.7	374.0	419.1	421.7	429.2	428.7	421.1	388.9	395.5	371.7	344.2	326.0	301.9	283.8	278.7	265.0	273.0	267.7	266.4	264.7	269.2	260.6	258.0	254.9	251.5	242.3	231.4	210.8	186.0	165.0	161.1	155.3	114.0	80.67	63.21	49.63	40.28	32.15	27.01	25.77	63.88	293.9	 1008	 1550	497.7	40.04	4.097	3.363	3.683	3.741	3.584	3.848	3.894	4.086	3.851	4.435	3.686	3.672	3.915	4.138	3.842	4.008	3.814	3.697	3.777	3.848	3.998	4.039	3.603	3.570	3.563	3.787	4.297	3.874
455.0	256.7	367.7	626.2	356.9	335.6	379.1	412.5	415.3	394.7	412.7	364.9	374.8	355.3	320.7	298.3	278.5	259.7	259.1	246.1	250.8	242.1	242.4	246.4	238.3	245.8	241.3	240.1	233.5	228.5	218.8	204.1	182.3	160.3	146.8	140.2	135.1	99.24	69.38	54.08	44.03	34.73	28.68	22.44	27.31	76.30	235.1	596.8	 1688	731.0	40.44	4.129	3.948	3.741	3.618	3.616	3.699	3.286	3.862	4.465	4.348	3.486	3.852	4.434	3.956	4.291	3.761	3.694	3.453	3.922	3.551	3.838	3.952	3.931	3.614	3.404	3.943	4.062
460.0	300.6	299.0	682.2	539.0	339.5	375.1	393.4	369.8	366.8	382.3	357.3	358.1	362.5	322.2	281.6	264.4	244.0	239.8	231.6	231.8	227.7	227.7	226.0	227.6	230.2	230.1	222.8	220.6	217.5	206.2	194.9	175.6	156.9	141.4	125.0	128.5	114.5	78.87	59.63	48.05	35.86	32.00	25.29	20.07	29.05	62.63	147.0	839.0	 1716	513.9	20.56	4.584	3.499	3.968	3.864	4.072	3.530	4.259	3.438	4.271	3.787	3.771	4.104	3.731	4.144	3.478	3.881	3.857	3.901	4.609	3.493	3.284	3.803	3.442	3.839	3.930	3.717
465.0	262.7	273.6	628.5	896.9	328.3	343.9	341.2	380.2	362.4	364.1	335.8	333.2	332.6	304.6	266.8	256.7	232.5	227.6	226.6	210.0	211.8	212.2	207.2	210.7	206.2	213.8	212.9	207.0	200.3	201.1	182.3	170.6	152.1	133.3	117.7	110.7	118.6	91.57	63.42	48.31	39.14	33.45	25.52	19.95	19.96	25.46	40.83	211.7	 1022	 1527	371.1	6.996	4.151	3.900	3.863	4.028	4.160	3.728	4.007	4.649	4.062	4.115	3.516	3.588	4.051	3.648	3.535	3.594	3.465	4.225	3.442	4.124	3.659	3.157	2.829	3.766	3.592
470.0	251.3	228.2	366.5	971.1	654.9	309.6	306.9	344.1	335.5	338.9	324.9	316.7	310.8	281.2	247.0	227.5	207.6	206.5	202.0	194.6	191.0	188.2	189.4	188.4	188.3	191.2	191.8	188.2	185.4	180.1	173.7	162.4	142.9	127.1	112.7	98.99	99.19	97.12	73.33	51.64	41.27	35.29	26.27	21.90	19.49	17.67	19.03	55.78	257.0	838.4	 1179	431.1	30.90	4.365	4.084	3.979	4.006	4.102	3.957	4.265	3.778	3.893	3.648	3.806	3.553	3.724	3.558	3.994	3.344	3.594	3.395	3.668	3.512	3.674	3.572	3.610	3.775
475.0	243.6	218.7	255.8	598.4	 1126	392.8	283.1	293.2	302.3	307.4	311.8	303.8	292.6	261.2	231.1	206.1	193.5	192.7	178.4	171.2	170.3	161.9	172.0	166.2	172.8	170.5	168.0	169.0	175.1	168.4	160.3	149.6	132.5	117.8	104.6	91.38	85.41	83.81	81.88	59.52	41.46	34.58	28.06	23.83	20.10	16.68	14.55	21.96	64.22	193.9	458.7	 1137	571.0	28.41	4.468	3.679	4.133	3.916	3.859	3.760	3.772	3.874	3.760	3.963	3.209	3.682	3.548	4.021	3.628	3.158	3.885	3.357	3.515	3.443	3.011	3.492	3.766
480.0	225.6	219.5	226.4	361.1	 1151	673.8	280.7	270.9	284.1	288.6	278.0	281.4	262.6	257.1	216.3	197.9	181.4	181.4	163.4	168.5	153.5	146.8	157.9	152.7	154.3	153.0	155.7	161.4	158.2	152.9	153.1	140.1	122.6	113.0	101.6	87.69	78.61	72.35	76.20	69.60	45.22	35.58	28.22	25.41	19.95	17.29	14.61	14.37	21.88	49.72	111.7	578.1	 1232	382.7	9.922	4.126	3.915	3.742	3.565	3.611	3.541	3.506	4.037	3.197	3.618	3.784	3.425	3.948	3.535	2.970	3.708	3.258	3.453	3.632	3.320	3.424	3.738
485.0	223.5	240.2	235.9	241.3	839.3	 1150	300.8	253.3	280.1	280.9	262.8	282.3	246.8	229.7	210.1	189.4	166.5	160.7	156.2	152.2	144.9	145.8	143.4	147.3	144.3	145.4	147.1	148.7	149.9	141.8	142.4	131.1	119.6	106.0	98.76	84.06	76.20	68.46	68.31	69.50	54.42	36.34	30.53	25.81	21.30	17.56	15.40	12.09	13.24	17.68	30.55	149.6	784.7	946.6	95.03	5.467	3.584	4.081	3.841	4.051	3.052	3.743	3.644	3.064	3.611	3.510	4.273	3.801	3.271	3.131	3.351	3.906	3.645	3.015	3.575	3.456	3.431
490.0	232.5	221.0	204.0	226.3	405.2	 1185	751.9	236.4	271.2	267.0	244.7	247.8	231.8	216.0	191.7	174.6	159.4	144.1	138.3	139.8	134.7	134.8	133.7	133.9	130.7	130.6	135.6	135.1	133.3	133.7	127.1	120.8	113.6	100.3	92.05	81.87	73.20	63.61	59.84	59.50	59.18	44.87	32.45	25.62	21.58	19.55	15.84	13.69	11.72	10.94	12.85	39.61	201.1	599.7	839.5	379.1	25.34	4.143	4.080	3.927	3.544	3.892	3.472	3.192	3.433	3.422	3.676	3.827	3.665	3.143	3.532	3.512	3.517	3.267	3.159	3.520	3.489
495.0	225.7	186.9	195.4	225.6	270.0	623.5	 1308	322.8	239.9	245.3	229.1	229.6	209.4	191.7	175.9	156.8	148.4	127.2	126.2	124.5	122.6	112.4	119.8	114.3	113.6	122.6	119.5	120.6	119.5	122.1	116.6	106.3	104.3	90.96	84.88	77.08	68.02	60.32	53.64	50.62	49.98	50.57	37.10	25.26	21.58	19.26	16.30	13.77	11.50	10.45	9.582	14.78	49.63	139.5	393.7	 1075	493.5	19.32	4.372	3.881	3.819	3.081	3.376	3.825	3.537	2.972	3.223	3.322	3.312	3.097	3.299	3.502	3.549	3.148	3.566	3.436	3.869
500.0	227.0	228.1	218.1	233.9	212.1	326.4	 1298	708.1	238.5	231.7	223.2	213.7	190.9	187.8	158.0	150.8	144.6	118.7	115.1	113.6	109.2	104.5	109.0	107.1	109.3	111.6	107.0	106.9	107.6	108.9	105.7	101.4	98.99	85.13	73.88	70.42	62.85	59.38	50.27	45.41	42.02	46.40	42.66	27.45	21.02	18.63	16.67	14.50	12.75	10.34	8.089	10.06	15.75	36.31	97.22	590.5	 1128	113.4	7.820	4.121	3.724	4.100	3.412	4.590	3.281	3.590	3.016	3.246	3.956	3.049	3.250	3.398	3.785	3.056	3.489	3.270	3.771
505.0	227.2	190.6	214.3	241.9	210.5	243.9	837.5	 1249	261.3	218.6	216.2	198.7	186.9	168.3	146.6	137.1	125.7	109.5	101.5	103.3	98.63	91.98	97.75	98.32	97.48	100.3	98.38	105.0	99.44	100.7	99.77	95.65	89.91	80.01	72.61	65.97	62.19	54.78	49.17	42.60	38.78	39.36	44.50	32.44	22.60	17.95	16.88	14.02	12.27	10.14	8.667	8.424	9.378	13.06	26.04	154.7	793.1	882.8	91.10	4.514	3.434	3.666	3.338	3.501	3.181	3.246	3.553	3.294	3.578	2.997	3.215	3.434	3.037	3.427	3.205	3.294	3.621
510.0	221.4	195.6	193.7	214.2	209.4	205.7	378.8	 1297	764.9	191.0	189.5	184.6	170.2	160.5	134.5	120.3	112.8	103.5	95.58	93.55	92.39	84.27	87.71	85.50	85.62	93.02	89.45	88.62	89.66	88.13	89.13	83.15	78.66	70.33	66.27	59.17	54.73	49.27	45.61	38.14	35.15	32.72	35.76	35.77	26.72	19.49	15.99	13.40	12.31	10.42	9.176	8.101	7.334	7.533	10.83	39.01	207.8	612.1	793.0	295.5	17.45	3.339	3.310	3.407	3.419	3.558	3.394	3.450	3.598	3.215	3.343	3.814	3.207	3.299	3.323	3.350	3.387
515.0	202.7	225.1	199.8	196.4	201.9	192.2	217.4	619.6	 1460	318.7	175.5	165.3	151.9	138.6	129.1	105.5	95.60	94.03	86.03	81.45	77.71	77.69	78.16	76.04	77.36	76.73	77.10	78.93	78.56	77.89	75.90	76.07	70.88	63.55	56.07	52.41	48.41	42.66	42.24	35.10	32.35	29.76	26.77	29.94	29.24	21.99	16.37	12.74	12.32	10.75	9.994	8.242	7.545	6.476	6.979	13.29	51.49	142.2	388.5	911.5	353.4	10.68	3.298	3.566	3.334	3.213	3.221	3.297	3.303	3.785	3.651	3.624	2.900	3.059	2.857	4.083	3.517
520.0	249.3	207.1	199.2	191.2	214.9	175.7	186.8	282.6	 1321	742.4	159.1	159.1	134.4	130.6	112.8	98.23	86.08	85.70	78.78	74.35	71.59	69.80	69.24	72.57	67.88	66.87	70.82	69.49	67.61	71.90	68.02	67.78	61.50	56.21	50.96	49.92	44.00	40.03	39.67	33.84	30.21	27.39	23.71	25.20	29.22	24.55	18.05	13.80	12.35	10.48	9.241	8.056	7.532	6.506	5.513	8.245	15.18	35.44	96.70	537.0	859.6	100.3	5.667	3.349	3.581	3.929	3.744	4.296	3.387	3.675	2.874	3.662	3.449	3.375	3.287	3.660	3.366
525.0	205.1	177.9	183.4	192.6	200.8	185.5	179.7	194.2	780.2	 1287	193.9	140.7	140.8	117.5	107.8	92.77	78.53	75.82	68.44	68.19	62.30	63.51	61.03	63.26	62.78	62.41	62.75	62.44	64.66	64.95	63.03	60.35	56.56	52.20	48.04	46.07	41.29	38.64	34.34	32.36	28.30	24.95	23.17	21.50	22.46	26.40	20.38	13.25	11.57	9.393	8.467	8.249	7.569	7.165	5.669	6.293	7.597	12.71	25.59	144.2	635.1	696.1	72.65	3.745	3.422	3.477	3.396	3.365	3.171	3.274	3.483	3.556	3.054	2.970	2.897	3.345	3.723
530.0	198.1	197.6	180.5	178.1	156.6	188.3	151.3	159.1	315.4	 1201	670.4	131.4	131.2	102.8	96.44	86.94	71.56	66.21	64.16	61.13	56.20	56.58	52.36	53.85	54.17	55.44	54.31	54.81	56.25	57.22	55.78	55.05	50.86	46.75	42.69	40.02	36.31	34.55	31.04	28.80	26.18	22.91	20.57	19.77	18.05	21.55	22.04	16.64	11.58	9.103	8.719	8.007	7.477	6.656	5.787	5.800	6.298	6.829	9.326	35.75	169.4	479.6	573.8	199.8	10.56	3.395	3.218	3.447	3.196	3.647	3.787	3.078	3.525	3.039	3.163	3.172	3.530
535.0	212.7	180.6	187.9	162.2	140.8	172.9	150.1	150.0	173.1	531.5	 1289	227.6	113.0	103.2	84.91	76.08	62.20	61.94	61.89	53.37	51.18	53.15	51.84	47.63	48.46	46.64	48.46	45.75	49.27	49.03	47.92	46.23	41.81	40.04	37.50	35.02	31.97	29.76	28.12	25.18	24.08	21.25	18.85	17.86	15.57	16.35	18.34	18.60	11.72	8.750	7.976	7.966	6.647	6.687	5.769	6.397	5.482	5.841	5.841	11.44	41.22	111.5	296.7	650.2	107.6	7.453	3.665	3.408	3.201	3.115	3.470	2.979	2.995	3.318	2.951	3.124	3.122
540.0	200.7	172.5	168.4	165.9	158.0	177.6	162.5	115.7	135.0	230.9	 1170	629.0	100.2	91.57	74.06	72.54	55.66	56.03	52.58	49.34	47.09	48.12	45.01	43.71	42.01	41.90	42.70	41.45	45.31	41.34	44.45	39.34	36.62	36.23	32.79	29.81	29.62	27.15	25.85	22.90	20.70	18.66	18.14	16.70	14.45	13.93	15.30	18.28	14.51	9.136	7.472	8.105	6.650	6.475	5.886	6.105	5.314	5.737	4.722	5.988	12.24	27.94	76.12	398.6	572.0	84.23	4.576	3.451	3.334	2.637	3.521	3.033	3.052	2.891	3.126	3.120	3.399
545.0	197.8	190.9	182.8	167.5	153.4	150.2	189.4	129.7	119.0	151.5	642.9	 1107	125.5	83.93	75.93	62.36	53.24	51.24	45.41	44.69	40.92	41.62	40.95	38.38	39.67	38.26	39.96	40.39	40.45	37.63	38.96	35.57	33.61	33.37	29.64	27.46	24.88	23.09	20.94	21.70	17.34	17.64	16.68	15.42	13.84	12.32	11.92	14.94	14.39	10.32	7.752	7.827	5.799	6.499	5.899	5.784	5.097	5.013	4.298	4.371	6.357	9.840	19.91	109.5	462.8	471.9	53.91	3.872	3.225	3.287	2.792	3.039	2.487	2.834	3.112	3.110	2.968
550.0	215.9	193.0	185.5	142.0	126.3	121.2	148.9	144.0	118.1	119.6	237.5	 1025	570.5	77.25	66.73	54.31	52.46	44.73	41.07	38.80	38.02	36.52	36.71	34.30	32.86	31.34	35.17	33.58	32.99	32.58	32.43	30.95	29.47	28.76	26.64	24.14	23.72	20.19	19.55	17.78	17.23	15.82	13.74	13.39	11.72	11.54	10.70	11.18	13.18	11.69	8.905	7.057	5.728	6.047	5.695	5.477	5.126	5.032	4.105	4.294	4.799	5.355	7.485	27.99	126.5	342.4	399.0	68.24	6.638	3.162	2.931	3.227	3.009	3.150	3.272	2.671	3.311
555.0	207.1	213.3	166.0	171.0	129.7	116.0	124.9	146.5	119.8	101.2	119.4	400.1	 1109	168.6	59.53	48.65	46.06	40.92	35.81	34.85	30.49	31.41	29.52	29.27	27.52	26.84	29.98	27.30	28.57	27.25	27.12	26.05	26.05	23.78	22.33	20.74	20.99	18.50	17.46	15.45	14.76	13.73	12.20	11.80	10.55	9.707	8.852	8.573	9.292	10.92	9.497	7.776	5.424	5.684	5.333	5.461	4.742	5.197	4.828	4.218	4.378	4.100	5.064	8.726	32.04	81.15	224.2	422.4	92.41	5.117	3.986	2.601	3.188	2.916	3.468	2.886	3.932
560.0	201.5	209.2	145.0	152.3	114.4	131.3	115.9	129.2	131.8	92.66	105.4	168.6	962.7	507.1	61.23	47.64	44.55	36.12	31.61	29.43	29.53	25.71	27.80	24.43	25.13	24.59	25.30	23.75	24.72	25.64	25.08	22.69	22.29	20.45	19.32	17.71	18.05	16.60	15.05	14.68	13.29	12.82	11.21	10.06	9.207	9.576	8.328	8.238	6.712	8.326	9.656	7.472	5.897	4.921	4.805	4.454	4.342	4.817	4.385	4.823	3.884	3.574	4.263	4.835	10.28	21.27	59.06	275.8	364.8	63.66	3.641	3.177	3.158	3.321	3.147	2.873	3.678
565.0	220.7	166.1	158.5	133.7	116.1	125.1	105.6	106.7	151.1	95.55	96.26	91.83	510.1	985.6	73.48	42.08	40.58	32.93	30.34	27.69	26.60	24.24	23.76	20.48	21.85	21.34	21.97	20.04	20.72	22.93	21.88	20.74	19.40	18.68	16.15	14.61	15.20	15.09	14.31	12.16	11.85	11.40	10.59	9.098	9.114	8.377	8.148	6.822	6.800	6.296	7.994	7.931	6.033	4.763	4.324	4.452	4.813	4.481	4.648	4.791	3.630	3.921	3.800	4.477	4.804	7.648	15.95	79.57	313.1	280.6	30.90	3.060	3.349	2.414	2.907	3.204	3.295
570.0	199.6	174.0	176.1	150.3	120.3	116.6	110.9	93.27	139.6	102.9	81.50	81.12	178.3	871.4	443.8	42.98	37.60	30.37	27.72	24.59	24.17	20.84	22.14	19.51	20.77	18.71	18.32	18.64	17.46	18.65	17.90	17.60	16.54	15.41	13.71	13.38	12.39	12.59	11.41	10.53	10.32	9.882	9.464	8.811	8.074	7.444	7.377	6.638	5.807	5.172	5.726	7.476	6.544	4.676	4.155	4.291	4.339	4.166	3.795	4.135	3.871	4.015	3.691	4.069	4.056	4.827	6.358	20.89	88.42	218.2	190.7	55.30	5.708	3.061	3.144	3.606	3.364
575.0	181.6	179.9	167.6	166.8	133.9	114.1	110.2	89.10	105.3	115.9	85.42	71.06	88.45	319.5	922.8	115.7	31.45	27.94	23.55	21.10	19.82	19.38	19.30	17.39	17.62	16.72	16.71	16.41	15.33	15.21	15.24	14.93	14.99	12.49	12.67	11.35	10.18	11.71	9.536	9.410	8.742	9.031	8.775	8.274	7.866	6.465	6.795	5.705	4.869	4.533	4.726	5.547	6.251	5.212	4.445	3.984	4.131	3.997	3.572	4.031	3.308	4.101	3.563	3.274	4.321	3.842	3.806	7.372	22.43	52.89	127.9	259.9	75.26	4.033	3.116	3.247	2.873
580.0	177.1	185.6	149.3	163.9	140.5	99.23	105.1	76.17	80.35	120.1	90.29	73.47	72.40	120.2	823.8	387.6	29.16	25.04	22.49	18.96	19.73	18.38	17.73	15.69	15.52	15.46	14.39	13.88	14.45	14.74	13.07	14.42	14.54	12.13	12.33	11.05	11.18	10.39	8.826	9.013	7.931	7.696	7.266	6.895	6.825	6.222	6.481	5.635	4.884	4.229	4.291	4.745	5.813	5.368	4.610	4.188	3.844	3.472	4.251	3.692	3.548	4.228	3.704	3.658	3.641	3.970	3.681	4.935	7.856	15.03	36.12	171.2	229.4	42.53	3.415	3.109	3.234
585.0	175.3	167.3	193.4	172.5	120.9	100.3	90.29	94.94	82.20	111.3	98.89	67.02	74.08	62.59	407.1	747.8	45.56	24.68	22.90	19.97	17.37	16.32	17.80	14.84	12.98	15.66	14.53	12.71	13.59	14.23	12.64	11.71	12.41	11.42	11.24	10.05	9.421	7.868	8.373	7.579	7.661	6.914	7.082	6.327	6.656	5.519	5.445	4.636	4.826	3.935	3.938	4.422	4.590	5.555	4.864	4.674	4.580	3.236	3.851	3.509	3.865	3.646	3.815	4.077	3.415	3.728	3.664	3.895	4.682	6.121	10.90	50.50	185.9	122.6	21.20	2.428	3.011
590.0	198.5	173.6	166.2	145.3	114.2	104.6	96.11	79.94	72.73	87.44	114.8	79.16	66.39	52.70	134.1	665.2	306.8	23.76	21.73	18.97	17.18	14.91	15.60	14.55	11.65	12.61	13.54	11.99	10.96	12.56	12.38	10.85	10.68	9.340	9.609	8.916	8.609	7.048	7.255	7.473	6.148	6.463	6.362	6.141	5.367	5.328	4.773	4.201	4.374	3.661	3.775	3.917	3.882	4.128	5.149	4.636	4.269	3.680	3.499	3.935	3.572	3.271	3.488	3.669	3.199	3.338	3.428	3.576	3.823	4.206	4.948	13.76	52.09	122.6	135.8	45.15	4.962
595.0	177.1	168.9	189.7	149.4	137.6	111.6	108.5	83.45	77.98	75.17	88.88	91.34	63.30	46.69	59.99	235.7	641.0	69.73	23.38	17.03	17.65	13.85	13.50	12.66	13.49	12.46	12.25	11.92	11.53	10.64	11.50	10.23	9.260	9.018	7.986	7.833	6.921	6.388	7.185	6.948	6.045	6.086	5.990	5.935	5.078	5.275	4.103	4.648	3.886	4.024	3.361	3.451	3.281	3.720	4.421	4.626	4.464	3.627	3.681	3.431	3.561	3.960	3.185	3.615	3.543	3.159	3.615	4.193	3.588	3.835	3.731	5.047	14.05	30.63	75.78	163.1	54.29
600.0	199.5	165.1	173.0	144.8	99.52	104.6	100.7	96.08	69.90	65.39	85.24	105.2	62.00	47.03	39.53	77.92	538.1	265.7	21.57	17.18	15.11	13.55	11.83	13.28	12.17	11.56	10.86	11.85	11.57	9.793	10.27	9.109	9.333	8.519	7.743	7.592	6.708	7.146	7.009	6.912	5.659	5.008	4.988	4.955	4.663	4.755	3.794	4.167	3.700	3.430	3.064	3.424	3.369	3.598	3.747	4.498	4.727	4.082	3.760	3.421	3.564	3.474	3.289	3.048	3.790	3.507	3.440	3.746	3.143	3.043	3.791	3.312	5.510	8.956	20.99	103.3	132.1
605.0	232.1	191.4	163.6	143.8	111.5	100.3	93.21	97.79	75.65	64.41	78.39	103.6	64.18	53.50	37.08	40.84	267.8	517.5	29.48	18.23	13.92	13.27	11.71	11.39	12.08	11.35	9.894	10.24	10.54	9.754	9.584	9.409	8.190	7.569	7.210	6.697	7.015	6.747	7.223	6.622	6.101	5.126	4.989	4.310	4.256	4.576	4.132	3.648	3.387	3.445	3.113	3.781	3.491	3.591	3.094	4.135	4.716	4.567	3.532	3.592	3.417	3.123	3.052	3.078	3.347	2.865	3.628	3.283	3.327	3.222	3.271	3.172	3.593	4.352	7.459	30.30	106.8
610.0	219.4	185.4	146.8	148.4	106.0	104.7	89.62	78.99	70.01	67.98	65.02	92.28	82.66	52.46	36.57	31.30	87.63	453.2	228.8	16.74	12.74	13.71	12.27	11.53	10.57	10.08	9.585	10.47	8.661	9.367	9.245	8.705	7.744	7.274	7.053	6.807	6.574	6.012	6.084	5.619	4.779	5.560	4.916	4.185	4.263	4.109	3.987	3.712	3.315	3.221	3.042	3.439	3.233	3.361	3.408	3.289	4.248	4.264	3.465	3.587	3.426	3.320	2.926	3.528	3.219	2.806	3.413	3.321	2.865	3.066	3.100	3.019	3.103	3.184	4.261	9.287	31.17
615.0	219.4	177.9	154.1	126.9	90.07	104.3	82.26	81.66	78.11	70.90	60.53	72.87	89.92	56.45	35.84	29.50	38.29	164.2	500.6	48.13	11.81	12.96	10.64	10.72	9.694	10.34	9.042	8.809	7.009	8.176	8.866	7.200	7.386	6.493	6.498	6.085	6.139	6.436	5.755	5.209	4.297	4.919	3.927	4.213	4.300	4.498	3.410	3.808	2.952	3.239	3.212	2.892	3.211	3.297	3.362	3.600	4.075	3.687	3.519	3.543	3.146	3.071	2.972	2.659	3.107	3.278	3.035	3.215	3.540	2.781	3.244	3.430	2.714	3.008	3.030	4.476	9.574
620.0	211.4	179.0	164.8	131.4	116.9	100.6	78.04	77.57	72.32	58.65	63.13	56.46	76.85	63.80	35.51	26.90	26.79	55.83	444.7	196.7	13.25	11.03	11.83	10.62	11.34	8.829	9.623	9.441	7.888	7.736	7.870	7.781	7.497	6.583	6.362	5.342	5.586	5.553	5.090	5.246	4.567	4.816	3.604	4.586	4.049	4.063	3.332	3.270	3.196	3.099	2.754	3.427	3.040	3.274	3.111	2.983	3.498	3.484	3.450	3.426	3.398	2.545	3.153	2.968	3.314	3.962	2.681	3.108	3.487	2.817	3.097	3.154	3.411	3.049	2.771	3.606	4.633
625.0	192.3	161.4	137.1	143.9	127.6	96.53	74.84	74.81	95.57	73.23	64.30	64.82	69.45	68.73	36.32	28.10	24.13	26.76	226.5	386.4	22.85	13.16	9.766	9.641	11.15	8.766	9.752	7.625	6.727	8.325	7.519	8.262	6.676	6.303	5.965	5.027	5.461	5.722	4.619	4.753	4.165	4.707	3.877	4.329	4.082	4.415	3.516	3.452	3.523	2.330	2.828	3.233	2.879	3.162	3.297	3.302	3.768	3.163	3.761	3.825	3.468	2.957	2.842	3.098	2.984	3.221	2.758	3.089	3.167	3.300	3.134	3.508	3.593	3.544	2.799	3.245	3.202
630.0	177.5	183.6	155.0	139.4	123.6	89.29	88.77	76.10	73.30	65.43	60.73	57.91	59.71	67.50	44.76	27.08	21.70	21.14	70.74	357.9	165.0	12.30	9.388	9.556	9.958	8.612	9.360	7.940	7.581	7.336	7.738	7.969	6.938	6.407	6.106	5.050	5.220	5.238	4.921	4.916	4.697	4.935	4.029	4.270	4.117	4.036	3.475	3.294	3.310	2.892	2.737	3.369	2.955	2.988	2.850	2.995	3.003	3.272	3.401	3.464	3.422	3.334	2.961	3.186	2.836	3.419	3.201	3.244	2.772	3.524	3.449	3.199	3.119	3.362	2.697	3.334	2.860
635.0	182.6	170.4	158.3	145.9	113.2	104.6	77.41	76.75	79.51	62.64	56.94	59.94	51.01	54.64	58.27	29.72	22.50	19.39	29.41	134.9	371.0	36.41	10.23	9.225	7.264	8.339	8.121	8.285	7.366	7.231	6.853	7.125	5.393	5.588	5.457	5.826	5.509	4.819	4.229	4.192	4.031	5.275	3.761	3.604	4.503	3.460	3.347	3.136	3.054	2.774	3.089	3.631	3.505	2.800	2.782	3.476	3.278	2.711	3.239	3.386	3.298	3.350	3.063	3.150	2.814	3.241	3.023	3.136	2.579	3.360	3.202	2.869	3.158	3.134	2.386	2.975	3.508
640.0	173.4	159.5	164.2	139.5	119.8	87.33	80.73	79.30	59.34	70.29	60.47	54.16	49.66	53.49	59.13	37.79	25.06	20.71	17.87	44.16	338.0	142.5	10.08	9.464	8.056	8.847	7.208	7.626	7.646	6.920	6.585	6.900	6.256	6.184	5.117	4.925	4.884	4.399	4.745	4.498	3.922	4.387	4.345	3.473	4.379	3.670	3.037	3.463	2.927	2.771	2.771	3.437	2.910	2.872	2.801	3.003	3.170	3.059	3.056	3.163	3.010	3.436	3.746	2.799	3.087	3.567	2.873	3.639	2.890	3.041	3.244	3.207	2.999	2.770	2.840	3.227	3.284
645.0	189.2	162.7	148.3	152.9	110.0	110.6	93.08	81.55	68.72	71.07	54.31	56.71	55.07	45.76	49.51	41.27	23.82	21.00	17.09	19.43	180.5	288.2	15.06	10.80	8.390	8.202	8.908	6.588	7.989	7.540	5.445	7.355	5.293	5.849	4.915	5.253	4.837	5.179	4.756	4.462	4.005	4.080	4.203	3.833	3.522	3.374	2.727	3.371	3.075	2.852	2.954	3.128	2.456	3.297	3.129	2.912	2.798	3.053	3.173	3.030	2.864	2.706	3.571	3.373	2.920	3.321	2.730	3.099	3.526	2.751	3.323	3.248	2.558	2.709	2.643	3.133	3.239
650.0	211.8	176.6	171.2	138.5	117.4	111.2	76.29	79.68	74.22	74.65	55.34	57.50	47.32	46.46	43.70	41.83	24.19	17.18	13.90	15.54	63.84	335.5	59.41	9.429	7.907	7.901	7.490	7.680	8.046	7.025	5.782	6.746	5.238	5.939	4.929	5.033	5.024	5.491	4.245	4.467	3.671	4.653	4.003	3.914	3.441	3.095	2.823	2.625	3.058	2.944	2.780	3.324	2.478	2.875	3.370	2.911	3.150	3.524	3.293	2.788	3.042	3.283	2.820	3.706	2.864	2.763	3.394	3.059	3.086	3.213	2.932	3.325	3.054	2.872	3.108	3.604	3.124
