Sample:	'1
File name:	T2025061002»ôÆÂÇÅÎ÷Ö§Á÷.FD3
Run date:	'09:32:05, 06/11/2025
Operator:	Administrator
Comment:	'

Instrument
Model:	F-2700 FL Spectrophotometer
Serial number:	23B8-004
ROM Version:	4J14000 07

Instrument parameters
Measurement type:	3-D scan
Data mode:	Fluorescence
EX  Start WL:	220.0 nm
EX  End WL:	600.0 nm
EX Sampling interval:	5.0 nm
EM  Start WL:	230.0 nm
EM  End WL:	650.0 nm
EM Sampling interval:	5.0 nm
Scan speed:	12000 nm/min
EX Slit:	5.0 nm
EM Slit:	5.0 nm
PMT Voltage:	700 V
Response:	Auto 
Corrected spectra:	Off
Contour interval:	50.000

Peak integration
Integration method:	Rectangular
Sensitivity:	1
Threshold:	1.000

Peaks
No.	ApexEX/EM(nm)	Height(Data)
1	225.0/335.0	1708
2	225.0/575.0	58.69
3	225.0/595.0	50.63
4	225.0/620.0	54.65
5	225.0/640.0	58.70
6	230.0/340.0	1704
7	230.0/500.0	351.9
8	230.0/600.0	48.97
9	235.0/510.0	299.3
10	240.0/520.0	248.0
11	245.0/425.0	668.3
12	245.0/535.0	204.4
13	250.0/545.0	171.6
14	255.0/280.0	591.0
15	255.0/560.0	146.6
16	260.0/285.0	606.0
17	260.0/570.0	115.4
18	265.0/290.0	637.0
19	265.0/585.0	111.0
20	270.0/300.0	1021
21	270.0/600.0	94.81
22	275.0/305.0	1405
23	275.0/610.0	97.74
24	280.0/310.0	1435
25	280.0/625.0	93.81
26	285.0/320.0	1563
27	285.0/635.0	78.40
28	315.0/355.0	401.4
29	320.0/360.0	385.3
30	325.0/370.0	354.3
31	330.0/375.0	344.1
32	335.0/380.0	341.6
33	340.0/390.0	305.6
34	350.0/400.0	288.1
35	415.0/485.0	54.01
36	430.0/505.0	34.97
37	445.0/525.0	21.35
38	460.0/340.0	5.240
39	505.0/275.0	3.371
40	515.0/280.0	3.591
41	520.0/285.0	3.763
42	530.0/290.0	3.796
43	540.0/295.0	5.045
44	555.0/305.0	7.247
45	560.0/310.0	7.764
46	570.0/315.0	7.978
47	580.0/320.0	7.879
48	585.0/325.0	7.593

Data points
	220.0	225.0	230.0	235.0	240.0	245.0	250.0	255.0	260.0	265.0	270.0	275.0	280.0	285.0	290.0	295.0	300.0	305.0	310.0	315.0	320.0	325.0	330.0	335.0	340.0	345.0	350.0	355.0	360.0	365.0	370.0	375.0	380.0	385.0	390.0	395.0	400.0	405.0	410.0	415.0	420.0	425.0	430.0	435.0	440.0	445.0	450.0	455.0	460.0	465.0	470.0	475.0	480.0	485.0	490.0	495.0	500.0	505.0	510.0	515.0	520.0	525.0	530.0	535.0	540.0	545.0	550.0	555.0	560.0	565.0	570.0	575.0	580.0	585.0	590.0	595.0	600.0
230.0	65.35	1258	5317	2518	140.1	7.106	5.646	4.778	3.792	3.612	3.373	3.576	3.285	3.309	2.361	2.351	1.787	1.928	1.615	1.564	1.331	1.313	1.019	1.137	0.913	0.966	0.914	0.780	0.791	0.788	0.673	0.668	0.699	0.606	0.596	0.546	0.484	0.478	0.449	0.361	0.451	0.620	0.696	0.516	0.342	0.376	1.133	7.732	17.51	16.56	7.115	1.554	0.338	0.240	0.212	0.233	0.234	0.186	0.179	0.157	0.146	0.144	0.163	0.162	0.142	0.108	0.096	0.099	0.124	0.092	0.096	0.076	0.063	0.073	0.072	0.050	0.047
235.0	181.8	347.3	2415	5540	2875	219.6	9.285	6.262	4.936	4.662	3.881	3.355	3.237	3.549	2.847	2.583	1.614	1.818	1.657	1.543	1.400	1.249	1.082	1.084	0.988	1.006	0.918	0.922	0.721	0.814	0.703	0.776	0.730	0.613	0.548	0.591	0.469	0.493	0.457	0.453	0.376	0.431	0.572	0.725	0.809	0.513	0.569	2.046	5.449	10.72	17.27	21.54	12.92	3.338	0.462	0.295	0.265	0.234	0.187	0.218	0.180	0.159	0.138	0.190	0.099	0.095	0.073	0.106	0.067	0.098	0.080	0.086	0.060	0.044	0.072	0.068	0.026
240.0	219.8	214.5	637.7	3495	6747	2483	131.4	9.498	6.493	5.847	5.490	4.129	3.687	4.002	3.213	2.609	1.648	1.861	1.714	1.893	1.752	1.156	1.214	1.163	1.173	0.923	0.947	0.854	0.889	0.882	0.775	0.860	0.771	0.622	0.568	0.545	0.532	0.438	0.439	0.430	0.364	0.342	0.453	0.549	0.860	0.810	0.715	0.834	1.441	2.874	6.984	19.08	31.75	23.46	11.53	2.030	0.334	0.291	0.228	0.169	0.161	0.214	0.191	0.092	0.161	0.164	0.109	0.104	0.119	0.179	0.094	0.063	0.076	0.048	0.073	0.053	0.038
245.0	122.6	290.5	257.3	999.6	5290	7399	1978	54.08	10.18	6.511	5.404	4.590	3.923	4.468	3.092	2.598	2.064	2.336	2.093	1.805	1.597	1.462	1.287	1.297	1.319	1.171	0.972	0.800	0.833	0.970	0.772	0.826	0.746	0.667	0.600	0.653	0.520	0.436	0.570	0.462	0.451	0.380	0.440	0.416	0.595	0.691	0.945	1.061	0.815	0.883	1.789	5.309	16.53	31.36	39.85	22.14	9.903	0.951	0.195	0.265	0.188	0.228	0.228	0.152	0.164	0.148	0.160	0.126	0.144	0.156	0.155	0.111	0.085	0.094	0.042	0.081	0.044
250.0	54.19	167.9	299.0	365.3	1466	5118	8804	3995	140.7	12.35	8.694	6.726	5.438	4.999	3.758	3.272	2.715	2.255	2.328	1.728	1.767	1.568	1.336	1.370	1.205	1.035	1.080	0.989	1.016	0.899	0.816	0.955	0.711	0.711	0.570	0.630	0.482	0.487	0.521	0.468	0.436	0.480	0.468	0.394	0.389	0.468	0.544	0.897	1.096	1.012	1.034	1.536	4.043	8.806	18.40	33.52	47.72	39.36	16.94	7.671	1.079	0.244	0.220	0.216	0.188	0.189	0.164	0.141	0.129	0.130	0.118	0.125	0.099	0.091	0.092	0.118	0.073
255.0	36.04	58.25	154.2	380.6	471.4	1206	4568	9999.9	6630	181.9	14.11	9.938	8.224	6.737	5.408	4.411	2.920	2.474	2.646	2.057	2.451	1.862	1.491	1.537	1.349	1.217	1.040	1.145	0.978	1.089	0.923	0.961	0.877	0.657	0.697	0.712	0.551	0.601	0.508	0.437	0.463	0.515	0.518	0.464	0.396	0.492	0.402	0.487	0.620	0.813	1.466	1.587	1.522	2.243	4.387	7.877	13.74	27.13	57.74	71.04	26.46	11.19	0.844	0.317	0.236	0.198	0.207	0.178	0.220	0.134	0.105	0.101	0.099	0.099	0.110	0.146	0.121
260.0	34.21	33.83	59.59	251.7	412.5	359.4	1197	7058	9999.9	1992	116.6	16.14	11.46	8.876	5.912	5.856	3.319	3.208	2.826	2.272	2.467	2.147	1.662	1.724	1.549	1.453	1.181	1.101	1.038	1.034	1.009	0.882	0.840	0.707	0.737	0.614	0.582	0.590	0.573	0.535	0.506	0.512	0.518	0.488	0.393	0.402	0.336	0.382	0.446	0.474	0.855	1.685	1.935	1.606	1.433	2.032	3.456	6.766	20.18	49.75	81.02	82.83	22.43	5.885	0.424	0.268	0.297	0.213	0.171	0.207	0.158	0.134	0.111	0.087	0.114	0.163	0.128
265.0	35.48	36.77	33.37	103.1	362.4	352.5	321.0	2018	9999.9	9999.9	1557	65.12	16.20	12.06	6.905	5.621	4.294	3.557	3.323	2.620	2.458	2.190	1.772	1.641	1.639	1.453	1.317	1.210	1.303	1.258	0.959	1.096	0.947	0.894	0.907	0.590	0.657	0.719	0.594	0.566	0.524	0.519	0.639	0.536	0.451	0.442	0.346	0.371	0.433	0.374	0.467	0.865	1.427	2.302	1.917	1.229	1.217	1.880	5.078	13.03	34.31	79.24	100.5	32.20	18.04	2.403	0.425	0.278	0.292	0.242	0.199	0.139	0.166	0.114	0.130	0.169	0.092
270.0	51.92	49.40	39.43	45.04	146.7	374.2	361.6	527.2	2814	9999.9	9999.9	6012	95.55	19.93	10.85	9.006	5.712	4.742	3.940	3.520	2.885	2.514	2.048	2.071	1.937	1.616	1.569	1.306	1.211	1.362	1.104	1.239	0.964	1.075	0.958	0.733	0.679	0.693	0.616	0.536	0.552	0.619	0.609	0.604	0.552	0.599	0.504	0.500	0.498	0.402	0.418	0.467	0.690	1.166	1.792	2.199	2.233	1.591	1.700	3.283	8.101	20.42	39.38	61.98	93.83	78.88	64.69	12.51	3.012	0.400	0.304	0.343	0.250	0.165	0.195	0.163	0.186
275.0	102.2	89.18	68.44	52.24	58.80	143.6	454.5	430.8	698.5	2347	6407	9999.9	8265	118.1	19.60	13.46	8.916	6.446	5.674	4.650	3.588	3.025	2.730	2.322	2.346	2.105	1.608	1.351	1.513	1.494	1.382	1.312	1.100	1.079	0.973	1.015	0.753	0.757	0.685	0.631	0.623	0.605	0.730	0.743	0.572	0.706	0.659	0.638	0.551	0.466	0.466	0.445	0.506	0.692	0.775	0.982	1.960	3.371	2.969	1.687	2.247	4.980	9.224	14.52	23.89	41.93	103.8	150.9	32.91	19.76	2.180	0.677	0.364	0.267	0.209	0.226	0.273
280.0	162.2	151.9	128.3	69.91	49.65	67.83	238.1	591.0	374.0	595.7	1663	9999.9	9999.9	5998	78.27	18.60	11.60	8.464	6.469	5.224	4.240	3.494	2.850	2.660	2.126	2.281	1.788	1.727	1.484	1.781	1.532	1.334	1.413	1.155	1.180	0.990	0.977	0.928	0.868	0.742	0.701	0.726	0.758	0.799	0.681	0.817	0.789	0.753	0.774	0.643	0.572	0.544	0.407	0.554	0.513	0.582	0.980	1.856	3.522	3.591	2.078	1.812	2.559	3.845	6.053	10.25	29.87	79.23	143.1	172.7	31.39	13.36	1.007	0.464	0.379	0.306	0.365
285.0	215.8	237.3	183.3	104.8	58.17	52.20	104.8	403.9	606.0	293.6	473.3	2829	9999.9	9999.9	897.7	47.78	16.35	11.13	8.017	6.698	5.318	4.057	3.227	3.036	2.330	2.356	2.080	1.937	1.612	1.749	1.551	1.397	1.387	1.520	1.391	1.216	1.125	0.998	0.950	0.889	0.884	1.004	0.915	0.984	0.910	0.992	1.063	1.065	0.978	0.818	0.654	0.584	0.642	0.589	0.589	0.524	0.664	0.985	1.767	2.995	3.763	3.031	1.597	1.694	2.046	2.943	7.349	19.53	48.93	118.5	168.3	159.0	26.23	7.242	0.719	0.444	0.338
290.0	327.1	344.7	283.8	165.9	91.30	71.44	90.93	183.9	491.2	637.0	368.5	812.7	2979	9999.9	9999.9	3616	58.14	17.81	11.77	8.876	6.742	5.049	4.080	3.612	3.028	2.779	2.369	2.141	1.966	1.992	1.586	1.475	1.540	1.497	1.552	1.505	1.406	1.390	1.245	1.165	1.018	1.099	1.077	1.211	1.173	1.290	1.261	1.332	1.150	1.102	0.913	0.768	0.734	0.641	0.670	0.672	0.702	0.816	0.981	1.290	2.092	3.341	3.796	3.297	2.195	1.682	2.643	5.413	12.09	28.97	53.82	96.27	123.0	138.5	102.3	17.81	7.453
295.0	453.7	480.6	411.0	257.2	145.5	116.2	125.0	169.6	279.0	617.8	852.1	523.9	918.2	2524	7535	9999.9	5132	69.00	18.86	13.59	9.302	6.522	5.141	4.285	3.614	3.283	2.747	2.501	2.271	2.301	1.879	2.019	1.740	1.582	1.637	1.736	1.581	1.702	1.497	1.280	1.304	1.227	1.247	1.282	1.530	1.533	1.524	1.845	1.496	1.323	1.238	1.082	1.027	0.864	0.842	0.859	0.950	0.932	1.010	1.069	1.334	1.910	2.422	3.972	5.045	3.940	2.695	2.959	4.313	7.972	13.32	22.64	29.55	47.59	106.1	182.4	169.1
300.0	540.3	607.5	529.3	331.5	206.1	172.5	191.5	242.2	312.5	541.4	1021	897.5	625.7	927.5	2085	9999.9	9999.9	3779	51.11	18.87	12.96	8.690	6.104	5.180	4.440	3.903	3.176	2.841	2.284	2.599	2.222	2.311	1.910	1.620	1.857	1.892	1.530	1.882	1.764	1.527	1.384	1.313	1.525	1.387	1.683	1.847	2.045	2.047	1.813	1.773	1.469	1.228	1.181	1.162	1.061	1.112	1.235	1.382	1.350	1.413	1.564	1.941	2.128	2.807	4.313	5.712	5.772	3.815	3.561	4.025	5.109	6.972	8.187	12.28	28.07	74.31	156.8
305.0	684.3	792.1	667.0	436.7	288.9	247.4	295.2	369.6	466.9	688.1	968.5	1405	939.2	785.5	849.7	3034	9999.9	9999.9	572.2	33.84	16.09	11.50	7.755	6.320	5.026	4.338	3.743	3.229	2.372	3.086	2.439	2.539	2.038	1.938	1.955	1.886	1.942	2.004	1.847	1.526	1.811	1.523	1.847	1.603	1.740	2.035	2.182	2.423	2.217	1.898	1.687	1.474	1.464	1.268	1.332	1.475	1.490	1.763	2.015	2.022	2.205	2.506	2.845	3.516	3.909	4.975	7.034	7.247	6.111	4.565	4.187	4.473	4.274	5.290	8.247	18.74	44.14
310.0	796.9	971.6	832.3	540.4	376.6	324.7	395.1	488.3	593.3	851.6	987.2	1314	1435	1081	711.5	1006	3171	9999.9	9999.9	2442	43.88	16.75	10.85	8.409	6.409	5.586	4.468	3.768	3.345	3.487	2.640	2.617	2.331	2.214	2.117	2.050	2.132	2.157	2.026	1.906	1.975	1.802	2.091	1.900	2.162	2.368	2.592	2.815	2.751	2.334	2.188	1.951	1.621	1.589	1.632	1.814	1.929	2.223	2.433	2.488	2.747	3.121	3.550	3.865	4.518	4.891	5.673	6.686	7.764	7.520	6.168	4.927	4.224	4.196	4.464	6.164	11.59
315.0	945.6	1134	992.7	658.5	457.2	402.1	485.1	572.8	692.7	1011	1068	1249	1394	1555	885.0	625.1	997.9	2470	8370	9999.9	3827	51.34	16.06	11.85	8.928	6.787	5.223	4.059	3.886	3.198	2.835	2.802	2.582	2.271	2.118	2.184	2.143	2.457	2.222	1.980	2.026	2.049	2.393	2.283	2.426	2.913	3.155	3.136	3.111	2.709	2.607	2.115	2.044	2.024	1.990	2.116	2.378	2.557	2.874	2.913	3.122	3.790	4.090	4.460	4.975	4.945	5.737	6.075	7.345	6.891	7.978	7.895	5.999	4.933	4.187	3.687	4.415
320.0	1045	1332	1124	751.6	524.3	450.3	530.6	630.2	746.4	1094	1120	1273	1336	1563	1132	612.8	547.4	743.8	2186	9999.9	9999.9	2877	37.20	15.75	11.19	8.489	5.959	4.792	4.442	3.965	3.068	2.990	2.764	2.409	2.382	2.256	2.222	2.306	2.382	2.218	2.055	2.468	2.394	2.556	2.772	3.460	3.338	3.938	3.661	3.262	2.774	2.430	2.303	2.064	2.234	2.200	2.560	2.952	3.192	3.099	3.282	4.032	4.274	4.910	5.123	5.127	5.864	6.295	7.306	6.756	6.932	7.139	7.879	6.765	4.892	3.720	3.348
325.0	1166	1514	1330	873.9	575.2	475.0	549.9	646.1	770.1	1136	1129	1279	1322	1420	1289	765.5	461.8	369.3	590.8	3014	9999.9	9999.9	430.6	25.96	13.78	10.18	7.392	5.707	4.503	4.531	3.487	3.130	3.016	2.564	2.769	2.501	2.444	2.522	2.297	2.033	2.194	2.453	2.519	2.708	3.141	3.409	3.799	4.269	4.432	3.678	3.179	2.857	2.343	2.187	2.434	2.375	2.743	2.822	3.165	3.383	3.410	4.156	4.418	4.895	5.295	5.155	5.833	6.396	7.330	6.772	6.574	6.342	7.123	7.593	6.529	4.669	3.397
330.0	1253	1623	1515	1068	710.9	536.1	565.4	652.9	770.1	1144	1116	1259	1303	1350	1108	900.2	577.4	309.7	253.0	759.9	3283	9999.9	9999.9	1826	35.59	15.22	10.31	7.232	5.791	5.577	4.138	3.708	3.292	3.033	2.607	2.442	2.513	2.542	2.328	2.283	2.203	2.319	2.462	2.864	3.234	3.615	4.035	4.632	4.773	4.114	3.695	3.481	2.964	2.692	2.643	2.608	2.805	3.128	3.212	3.241	3.485	4.008	4.454	4.848	5.509	5.014	5.987	6.349	7.337	6.762	6.244	6.071	5.954	6.039	5.970	5.546	4.936
335.0	1277	1708	1677	1234	869.6	621.2	593.7	669.7	768.1	1141	1096	1229	1271	1321	1016	780.1	736.2	424.3	214.3	281.0	808.9	2387	9152	9999.9	3095	42.29	15.68	10.06	7.673	6.943	4.956	4.306	3.588	3.387	2.923	2.552	2.788	2.587	2.499	2.307	2.345	2.458	2.580	2.947	3.171	3.716	4.259	4.981	5.080	4.351	4.137	3.863	3.616	3.391	3.067	2.769	2.945	3.189	3.163	3.346	3.473	3.918	4.234	4.846	5.034	5.127	5.758	6.026	7.312	6.793	5.950	5.952	5.613	5.318	5.297	4.608	4.732
340.0	1273	1696	1704	1315	925.8	663.6	615.2	658.7	745.7	1104	1046	1182	1216	1266	970.0	707.7	647.4	562.2	256.7	188.8	272.0	602.9	2406	9999.9	9999.9	2428	31.76	13.05	9.502	7.890	5.534	4.638	3.981	3.570	3.192	2.855	2.620	2.744	2.428	2.301	2.381	2.478	2.565	3.000	3.466	3.753	4.128	5.188	5.240	4.580	4.254	3.947	3.865	3.362	3.188	3.048	2.935	2.983	3.089	3.255	3.261	3.933	4.497	4.426	5.194	5.042	5.234	5.890	6.776	6.463	5.806	5.696	5.609	5.238	4.973	4.365	4.126
345.0	1219	1625	1629	1309	939.7	677.7	611.2	645.5	712.6	1054	983.8	1110	1146	1197	925.8	667.7	538.9	555.2	379.5	192.3	166.2	214.4	601.5	3163	9999.9	9999.9	381.0	19.96	11.66	9.538	6.689	5.500	4.464	3.794	3.236	2.989	2.630	2.812	2.283	2.251	2.295	2.362	2.612	2.859	3.322	3.662	4.252	4.749	5.042	4.757	4.460	4.175	3.805	3.550	3.132	2.767	2.838	3.104	3.261	3.289	3.400	3.674	3.884	4.357	4.761	4.911	5.348	5.477	6.569	6.138	5.638	5.662	5.367	4.904	4.724	4.208	3.694
350.0	1175	1492	1523	1263	948.0	714.4	617.9	630.1	688.1	992.1	903.9	1011	1040	1090	865.6	642.1	500.0	441.1	436.0	317.0	181.2	148.1	214.3	771.8	3338	9999.9	9999.9	1645	31.52	14.04	9.027	6.826	5.022	4.274	3.553	3.103	2.661	2.668	2.526	2.214	2.263	2.397	2.469	2.723	3.145	3.663	3.927	4.424	4.694	4.435	4.170	4.163	3.962	3.609	3.321	2.721	2.949	3.071	3.295	3.237	3.229	3.580	3.727	3.943	4.462	4.464	4.823	4.936	6.088	5.485	5.024	5.068	4.787	4.613	4.429	4.010	3.566
355.0	1041	1313	1400	1193	934.9	719.7	620.5	632.1	674.9	926.9	845.6	918.5	944.1	987.9	802.4	621.0	488.6	403.3	362.5	401.4	289.9	168.0	149.0	251.9	801.6	2371	8750	9999.9	2878	39.97	13.03	9.144	6.527	5.270	4.053	3.275	3.051	2.898	2.539	2.322	2.440	2.302	2.379	2.381	2.837	3.388	3.654	4.052	4.399	4.064	3.899	4.176	4.068	3.523	3.332	2.838	2.807	3.201	3.168	3.175	3.438	3.453	3.686	3.829	4.142	4.211	4.081	4.453	5.445	4.785	4.716	5.050	4.872	4.301	4.305	3.657	3.306
360.0	942.2	1208	1278	1128	910.2	712.5	642.1	635.0	661.2	885.7	790.1	864.6	871.9	913.4	757.9	598.3	487.9	405.7	344.1	356.4	385.3	228.4	153.4	149.6	246.5	581.5	2283	9999.9	9999.9	2421	29.53	12.24	8.308	6.133	4.462	3.554	3.247	2.942	2.635	2.307	2.362	2.406	2.343	2.294	2.761	3.060	3.507	3.851	4.145	3.945	3.524	3.833	3.803	3.322	3.289	2.923	3.079	3.158	2.993	3.199	3.201	3.565	3.535	3.687	3.910	4.165	3.926	4.266	5.187	4.570	4.357	4.407	4.158	4.359	4.071	3.529	3.422
365.0	922.4	1140	1195	1064	872.0	727.8	622.0	629.5	651.0	843.2	753.9	811.7	820.1	847.0	716.5	578.9	484.1	414.5	353.7	326.1	377.6	325.3	186.4	142.2	137.2	191.8	559.8	3031	9999.9	9999.9	372.5	21.72	10.86	7.399	5.730	3.983	3.369	3.270	2.835	2.402	2.391	2.390	2.408	2.294	2.718	2.937	3.228	3.599	3.760	3.571	3.248	3.868	3.642	3.411	3.308	3.098	3.040	3.031	2.994	3.430	3.113	3.393	3.413	3.441	3.610	3.744	3.795	4.068	4.524	4.062	4.251	4.200	4.294	4.206	3.880	3.850	3.556
370.0	853.0	1049	1098	982.0	853.7	723.2	644.0	625.3	648.8	799.7	716.4	766.1	754.2	787.8	674.7	562.2	483.8	426.3	373.3	337.2	326.9	354.3	298.1	184.4	137.4	125.7	188.6	727.3	3193	9999.9	9999.9	5477	29.01	11.02	7.498	5.146	3.976	3.667	3.250	2.655	2.553	2.453	2.523	2.524	2.527	2.826	3.027	3.442	3.445	3.283	3.128	3.668	3.626	3.405	3.170	3.004	3.078	3.061	3.197	3.220	3.122	3.518	3.506	3.603	3.539	3.611	3.567	3.891	4.228	3.870	4.012	4.054	3.955	3.934	3.791	3.626	3.303
375.0	784.5	952.2	1007	927.1	829.5	721.8	656.4	644.2	647.1	758.2	690.3	718.5	711.0	722.5	636.4	543.6	484.8	444.8	397.1	361.6	327.8	317.2	344.1	284.5	170.0	132.7	123.6	223.7	759.7	2370	8220	9999.9	2590	33.68	10.40	6.751	5.238	4.080	3.536	3.102	2.868	2.565	2.550	2.565	2.616	2.747	3.025	3.265	3.194	3.220	2.817	3.448	3.599	3.286	3.107	3.124	3.147	3.288	3.214	3.141	2.985	3.336	3.346	3.428	3.585	3.491	3.530	3.744	3.950	3.786	3.701	3.808	3.946	4.106	3.689	3.236	3.176
380.0	728.7	909.4	946.0	889.3	802.1	723.7	662.2	637.4	637.5	730.9	671.0	686.2	673.6	686.3	609.5	535.1	482.1	446.8	407.6	379.0	342.1	309.7	314.7	341.6	230.2	149.6	122.9	124.9	226.0	574.6	2140	9999.9	9999.9	2071	25.70	9.318	6.464	5.104	4.018	3.411	3.025	2.680	2.766	2.436	2.686	2.849	2.689	3.432	3.264	3.041	2.918	3.391	3.634	3.341	3.209	3.050	3.148	3.169	3.168	3.214	3.125	3.145	3.350	3.331	3.571	3.227	3.350	3.481	3.823	3.464	3.473	3.586	3.624	3.665	3.664	3.427	3.309
385.0	689.6	873.5	893.6	844.7	791.7	715.3	655.2	639.7	635.8	715.0	650.2	672.1	656.0	651.0	583.9	524.6	475.2	450.4	415.8	385.6	350.7	319.4	300.6	325.0	300.2	189.3	137.4	115.2	117.5	181.2	520.5	2980	9999.9	9999.9	313.3	17.64	8.040	6.248	4.925	3.637	3.249	2.974	3.045	2.768	2.571	2.834	2.617	3.234	3.062	3.127	2.840	3.179	3.542	3.231	3.280	3.108	3.196	3.266	3.049	3.223	2.992	3.204	3.301	3.322	3.169	3.223	3.307	3.321	3.650	3.306	2.990	3.394	3.432	3.600	3.394	3.315	3.534
390.0	707.5	843.0	855.8	817.4	775.2	709.9	669.8	644.5	636.0	684.1	636.4	647.0	630.5	617.1	562.1	512.9	471.9	447.9	422.6	394.3	367.2	333.6	306.9	297.1	305.6	269.3	180.7	135.4	111.6	107.7	167.1	706.8	2984	9999.9	9999.9	4256	23.88	8.774	6.251	4.321	3.720	3.228	2.990	2.817	2.806	2.961	2.719	3.200	3.110	2.901	2.739	3.144	3.375	3.279	3.253	3.202	3.221	3.417	3.139	3.231	3.097	3.154	3.126	3.320	3.095	3.392	3.196	3.258	3.338	3.218	3.154	3.436	3.243	3.450	3.172	3.230	3.210
395.0	691.0	809.8	819.2	802.3	753.9	708.7	681.5	653.0	639.8	664.2	625.1	624.3	612.0	586.3	536.7	497.1	463.8	445.3	425.4	396.9	376.8	349.6	322.7	302.9	281.7	289.5	259.1	171.1	131.4	109.8	104.1	206.8	701.1	2313	6455	9999.9	2216	30.99	8.978	5.866	4.248	3.990	3.314	2.987	2.830	3.148	2.760	2.971	3.139	2.812	2.729	3.075	3.059	3.456	3.205	3.026	3.123	3.408	3.221	3.126	3.204	3.101	3.079	3.181	3.035	3.123	3.272	3.043	3.104	3.208	3.010	3.123	3.246	3.181	3.108	3.130	2.990
400.0	674.5	779.3	780.1	778.2	760.3	701.5	672.0	650.6	636.8	655.9	619.6	607.6	591.7	574.4	521.3	485.5	457.1	438.3	423.7	397.7	377.9	354.6	331.5	309.5	280.4	269.5	288.1	223.1	153.7	123.8	100.2	103.7	198.6	548.3	1623	7845	9999.9	1926	24.91	7.415	5.354	4.420	3.637	3.429	3.065	3.025	2.899	3.013	3.081	2.617	2.623	3.243	3.094	3.268	3.239	2.963	3.161	3.300	3.255	3.165	3.238	3.165	3.292	3.146	3.204	3.037	3.003	2.908	3.031	3.046	2.920	3.051	3.196	3.133	2.967	3.251	3.200
405.0	686.7	751.3	774.3	761.5	741.4	691.7	674.7	650.4	634.3	652.6	619.5	599.1	578.4	559.6	513.5	469.8	448.1	434.2	414.7	396.2	380.7	358.3	337.0	316.4	286.8	264.3	274.2	268.7	185.4	140.2	110.1	89.85	92.60	159.4	391.1	2098	9452	9999.9	1482	18.16	6.930	5.315	4.331	3.534	3.374	3.184	2.960	3.066	3.109	2.844	2.717	3.071	3.235	3.111	3.302	2.875	3.549	3.116	3.194	3.264	3.185	3.267	3.057	3.186	2.905	3.014	2.887	2.800	3.091	3.027	2.712	3.103	3.097	2.933	2.962	2.905	2.914
410.0	651.8	719.5	750.8	736.7	717.1	697.2	679.1	657.2	635.7	643.2	610.3	587.3	559.9	540.4	498.4	454.6	430.7	419.3	403.2	389.4	374.7	358.8	339.9	321.1	295.7	271.0	256.1	262.3	242.8	175.8	126.4	97.15	79.69	78.43	119.7	493.5	2470	7719	9999.9	3903	22.96	7.633	5.480	4.352	3.710	3.308	3.053	3.159	2.930	2.823	2.633	3.098	3.229	3.168	3.268	3.020	3.349	3.192	3.315	3.158	3.273	2.984	3.086	3.103	3.041	3.032	2.964	2.840	3.030	2.935	2.966	2.950	2.883	2.851	3.060	2.847	2.844
415.0	627.8	678.4	699.9	716.8	711.0	675.3	665.5	653.9	635.7	625.5	603.2	574.5	544.2	515.0	475.8	434.8	415.9	402.5	392.4	378.1	363.8	351.8	339.0	317.6	300.1	274.4	255.0	242.5	245.6	227.2	152.8	109.8	85.86	68.50	65.18	139.3	572.5	1762	4767	9999.9	2091	30.78	7.722	5.469	4.228	3.756	3.053	3.511	2.970	2.869	2.781	3.109	3.097	3.000	3.175	3.139	3.161	3.146	3.399	3.378	3.257	3.056	3.149	2.951	3.000	2.863	2.745	2.811	3.036	2.860	2.802	2.823	2.780	3.037	2.702	2.838	2.772
420.0	622.8	693.2	699.6	682.2	692.8	656.6	645.7	639.4	634.0	619.4	593.9	562.5	534.1	500.8	460.5	423.2	399.7	391.3	378.0	368.8	353.8	341.8	330.8	315.5	301.0	281.5	257.6	237.6	227.9	236.9	189.2	124.0	93.11	71.01	57.28	63.97	152.4	413.1	1151	5769	9999.9	1914	25.25	7.245	4.859	4.567	3.604	3.298	3.081	2.897	2.631	3.097	3.316	3.131	3.070	2.968	3.090	3.212	3.316	3.381	3.353	2.866	3.285	3.054	3.032	2.810	2.604	2.720	3.146	2.706	2.710	2.676	2.713	2.680	2.580	2.884	2.781
425.0	652.5	668.3	689.1	670.5	661.2	668.3	637.1	641.0	613.9	600.7	591.2	554.0	518.9	478.7	444.5	403.0	385.8	378.4	365.9	351.2	343.9	333.2	321.7	312.8	296.2	277.6	258.3	238.7	219.3	220.7	214.7	149.3	102.7	77.95	61.33	50.89	61.75	112.9	275.6	1464	7028	9999.9	1534	19.06	6.269	4.951	4.136	3.574	3.146	3.105	2.512	3.135	3.494	3.151	3.073	3.066	3.181	3.271	3.105	3.260	2.925	3.127	3.110	3.083	2.992	2.765	2.563	2.732	2.761	2.892	2.756	2.559	2.716	2.615	2.708	2.678	2.788
430.0	1001	638.8	667.5	654.3	645.0	636.0	631.3	620.9	614.2	597.6	574.7	545.9	505.6	462.5	426.9	390.7	368.5	360.4	350.1	338.7	328.3	322.1	312.9	304.5	291.1	274.9	260.2	240.6	221.9	207.2	200.2	181.1	126.0	87.80	68.45	54.57	46.81	51.08	82.10	343.0	1752	5866	9199	4041	108.7	7.775	5.052	4.304	3.556	3.265	2.769	3.169	3.421	3.211	3.082	2.915	3.225	3.298	3.288	3.213	2.975	3.234	2.997	3.035	3.081	2.844	2.732	2.712	2.517	2.678	2.555	2.530	2.677	2.590	2.579	2.734	2.579
435.0	1991	707.7	631.9	627.3	611.7	608.6	622.5	606.1	596.6	590.5	562.8	533.5	495.6	449.5	409.6	371.5	347.3	344.3	333.4	325.4	314.4	306.4	303.6	294.4	283.3	270.3	256.0	239.4	222.0	205.3	186.6	177.2	160.3	108.2	77.77	60.49	49.47	42.00	42.13	95.41	405.1	1329	3544	9999.9	6336	31.72	7.322	5.469	4.063	3.706	2.999	3.086	3.286	3.114	3.293	3.271	3.253	3.286	3.341	3.221	3.105	3.312	3.497	3.112	3.026	3.054	2.631	2.812	2.701	2.606	2.638	2.635	2.554	2.460	2.404	2.580	2.569
440.0	2746	1112	620.2	610.5	595.3	605.4	595.4	596.2	598.8	579.2	556.0	522.0	481.2	429.7	393.3	360.3	334.8	329.1	321.0	311.1	304.1	297.1	295.1	286.5	276.3	263.4	253.0	236.0	222.8	205.3	182.9	164.5	162.4	131.1	87.27	65.62	53.89	43.20	35.79	42.85	107.7	311.1	834.4	4790	9999.9	1921	24.64	6.918	4.948	3.780	3.382	3.284	3.363	3.053	3.318	3.255	3.318	3.421	3.359	3.205	2.988	3.206	3.085	3.035	2.754	3.003	2.780	2.764	2.577	2.519	2.405	2.413	2.421	2.221	2.460	2.307	2.510
445.0	2519	1925	644.8	586.2	582.8	582.3	580.3	582.7	585.8	572.7	545.0	509.0	470.9	417.5	377.0	345.0	325.3	315.1	306.6	298.0	292.0	280.7	284.4	274.7	266.5	257.6	245.9	231.3	220.0	201.4	180.5	159.4	149.8	141.3	103.4	73.59	57.37	45.99	37.09	33.73	42.59	85.48	200.4	1165	5922	9999.9	1498	20.85	5.981	4.320	3.732	3.467	3.409	3.324	3.361	3.025	3.393	3.261	3.237	3.123	2.993	3.237	3.086	3.144	2.739	2.888	2.559	2.858	2.500	2.252	2.408	2.314	2.388	2.169	2.165	2.258	2.166
450.0	1363	3105	1089	551.9	561.2	555.0	547.7	565.5	560.0	544.5	522.7	487.5	443.6	398.7	358.3	323.5	303.1	294.1	284.6	274.3	269.0	264.7	263.1	258.5	249.8	242.4	232.6	222.6	213.0	197.3	178.2	154.5	135.0	128.9	118.5	88.51	62.71	50.07	41.45	34.47	30.73	36.55	59.74	273.3	1433	5157	8516	4504	99.02	7.233	4.498	3.965	3.716	3.708	3.203	3.106	3.511	3.274	3.172	2.972	3.036	3.077	2.999	2.954	2.823	2.753	2.564	2.513	2.464	2.445	2.391	2.282	2.313	2.201	2.144	2.133	2.098
455.0	640.7	2630	2866	636.3	519.4	504.5	510.2	516.8	527.5	509.6	495.5	464.0	414.8	370.3	330.5	303.8	278.7	270.4	259.6	251.9	246.8	243.9	241.1	238.4	232.0	225.0	218.7	209.5	201.9	188.0	170.9	149.2	129.8	114.7	110.0	103.2	75.38	54.53	44.21	36.67	30.84	27.91	29.20	74.68	330.9	1164	2845	8946	5477	24.73	6.557	5.121	4.448	3.790	3.342	3.176	3.346	3.005	3.195	2.954	2.898	2.831	2.876	2.728	2.836	2.398	2.577	2.284	2.071	2.313	2.110	2.257	2.181	2.085	2.007	2.104	1.792
460.0	465.9	1496	3891	949.4	487.7	489.1	493.6	496.5	498.2	494.9	472.2	434.9	392.4	349.2	313.6	280.4	263.1	249.8	241.4	236.1	230.3	226.0	223.7	222.0	217.4	209.2	203.4	196.5	192.7	179.3	165.0	147.0	124.8	109.8	97.90	99.79	86.22	58.91	46.70	37.53	31.39	26.64	23.68	31.12	85.89	271.2	657.6	3694	9340	1465	21.01	6.799	5.171	4.109	3.748	3.218	3.473	3.339	2.928	2.925	2.679	2.663	2.719	2.674	2.560	2.498	2.361	2.245	2.262	2.104	2.250	2.074	1.850	1.977	1.940	1.985	1.751
465.0	420.0	760.6	3517	2490	498.3	464.0	463.1	478.3	467.2	469.8	444.5	416.3	372.1	333.0	292.7	260.2	245.0	235.1	224.9	218.9	214.3	211.7	208.4	207.2	200.3	194.0	190.7	183.8	179.8	169.7	158.6	138.7	120.8	105.4	91.74	88.32	89.25	68.22	48.99	38.16	32.66	27.77	23.52	22.43	32.47	71.96	157.6	876.1	4744	8582	1297	20.85	6.121	4.554	4.282	3.499	3.477	3.205	3.050	2.952	2.713	2.792	2.597	2.512	2.633	2.515	2.541	2.168	2.136	2.112	2.056	1.950	1.919	1.945	1.958	1.831	1.852
470.0	423.5	487.6	1758	3976	1201	427.6	425.2	432.4	434.0	425.5	413.3	381.8	337.6	303.6	269.3	239.5	222.9	212.5	204.9	195.1	192.2	189.8	187.2	185.3	181.2	176.0	172.8	168.2	163.6	157.7	145.9	130.3	114.5	99.58	86.88	78.38	76.23	73.12	55.54	40.95	33.64	28.55	23.93	21.36	21.50	27.64	45.65	205.2	1129	3927	6438	3980	107.5	7.171	4.598	3.858	3.793	3.132	2.956	2.819	2.569	2.762	2.661	2.519	2.321	2.288	2.320	2.027	2.085	1.999	1.995	1.676	1.730	1.745	1.629	1.677	1.821
475.0	412.6	389.1	683.0	3090	3260	511.4	374.1	396.5	391.9	389.9	374.9	347.8	309.0	276.9	241.7	214.0	196.6	189.0	180.2	175.4	170.8	166.8	168.2	163.6	161.7	158.4	155.5	152.3	148.9	141.7	132.4	120.1	106.3	94.36	81.96	74.08	66.17	65.29	61.73	47.03	34.32	28.87	25.00	21.36	19.32	18.49	20.45	54.59	259.3	883.8	1978	6442	4759	28.31	6.491	4.299	3.982	3.145	2.847	2.708	2.500	2.595	2.604	2.226	2.208	2.202	1.978	1.791	1.826	1.889	1.822	1.691	1.545	1.416	1.549	1.695	1.558
480.0	360.5	365.4	417.4	1600	4557	1104	359.0	361.1	364.8	365.4	354.2	322.7	288.9	257.4	225.1	203.4	186.1	172.8	167.4	165.2	154.6	153.3	156.9	150.7	149.9	147.7	141.5	139.7	137.7	132.1	124.6	112.7	100.5	90.08	79.35	69.98	61.97	57.78	59.10	52.31	37.37	29.40	24.77	21.45	18.70	16.74	15.31	21.33	65.82	204.2	454.4	2426	7458	1695	26.34	5.675	4.554	3.577	3.130	2.881	2.546	2.611	2.473	2.250	2.122	2.054	1.963	1.748	1.852	1.651	1.682	1.627	1.476	1.348	1.415	1.536	1.388
485.0	326.6	386.8	343.3	709.0	4112	2543	374.0	345.7	344.9	338.0	333.5	310.5	273.7	242.3	215.8	189.9	175.3	160.7	157.1	152.6	145.5	142.0	141.4	141.0	138.6	137.2	133.7	129.8	129.3	123.0	119.0	106.6	96.38	85.54	76.03	67.74	59.64	53.24	52.51	54.01	42.32	30.65	25.93	21.57	19.26	17.14	15.31	14.44	22.86	52.75	108.6	570.9	3572	7249	1531	20.72	5.564	3.924	3.330	2.788	2.770	2.621	2.407	2.336	2.162	1.883	1.910	1.714	1.838	1.654	1.730	1.617	1.734	1.409	1.364	1.354	1.221
490.0	258.4	385.4	333.4	380.0	2005	4304	1006	320.9	321.5	312.3	307.5	286.7	254.8	226.4	199.1	174.6	159.9	148.9	141.8	137.6	132.0	130.7	128.4	127.8	127.0	124.1	120.4	120.8	117.7	114.7	109.4	99.35	90.25	80.54	72.03	63.99	57.32	50.48	46.48	46.95	45.77	35.43	27.03	22.62	19.71	17.44	14.88	13.79	13.86	19.43	30.84	134.0	843.2	3135	5976	3773	119.3	7.468	4.023	3.118	2.890	2.618	2.399	2.170	2.070	1.830	1.772	1.873	1.727	1.521	1.560	1.423	1.489	1.319	1.339	1.292	1.234
495.0	223.8	317.4	347.1	293.9	671.3	3503	3182	360.6	296.3	290.0	277.1	264.4	232.8	202.9	181.8	158.4	146.3	136.0	128.4	123.2	120.0	117.0	115.6	114.4	112.4	111.1	109.0	108.6	106.8	104.0	98.73	91.17	83.24	73.43	65.91	60.67	54.24	48.28	43.53	40.22	41.00	39.46	30.86	23.36	20.51	17.53	15.45	13.75	12.37	11.95	13.76	35.90	193.7	705.6	1911	6051	5648	181.7	6.265	3.747	2.930	2.757	2.405	2.296	1.999	2.014	1.676	1.730	1.655	1.506	1.449	1.307	1.262	1.251	1.194	1.122	1.329
500.0	195.2	256.5	351.9	282.6	335.9	1799	4826	897.9	273.4	270.2	259.4	245.2	215.3	187.5	167.3	147.1	132.8	125.8	118.8	113.0	111.4	106.7	107.2	105.1	103.1	101.3	100.5	99.52	97.30	95.82	91.09	84.41	76.98	68.62	61.36	56.17	50.78	45.73	40.54	37.27	34.92	37.79	33.62	24.60	20.52	18.17	15.53	13.90	11.92	10.31	9.950	13.92	48.53	162.7	438.7	2268	8255	1913	28.17	4.807	3.098	3.073	2.406	2.249	1.945	1.830	1.647	1.613	1.477	1.461	1.345	1.296	1.031	1.303	1.096	1.012	1.110
505.0	184.9	229.0	311.7	292.5	255.2	709.2	4595	2376	279.4	251.9	241.8	232.1	202.3	175.1	152.0	137.3	124.2	115.4	108.4	105.0	101.1	97.28	96.21	96.94	91.71	91.50	91.15	90.85	90.32	87.99	83.69	78.17	70.84	64.79	57.56	51.95	48.20	42.90	38.67	35.44	32.29	33.04	34.97	27.52	20.77	18.39	15.32	13.28	11.86	10.55	9.325	9.063	16.41	41.45	103.7	531.7	3769	7322	1634	22.09	3.980	3.409	2.608	2.396	1.920	1.796	1.571	1.352	1.441	1.381	1.407	1.256	1.156	1.160	1.162	1.084	1.044
510.0	162.4	187.5	242.1	299.3	227.0	318.5	2257	4704	816.9	223.0	217.6	203.9	180.1	154.8	138.5	121.9	110.0	101.8	97.50	91.58	89.33	87.57	84.36	84.66	81.66	81.12	79.66	78.75	79.52	77.66	74.95	68.97	63.34	58.36	51.93	47.38	44.32	39.19	36.14	32.36	29.62	28.28	29.51	28.63	23.13	17.81	14.78	13.25	11.68	10.08	9.239	8.232	9.000	14.15	27.89	123.4	883.0	3060	5288	3067	113.7	6.164	3.203	2.529	2.000	1.856	1.594	1.366	1.431	1.310	1.261	1.207	1.111	1.089	1.074	0.917	1.041
515.0	140.3	162.4	177.3	272.3	232.1	207.2	682.5	4191	2475	262.7	196.1	180.3	162.0	139.8	122.7	108.0	95.84	90.09	83.86	80.58	76.51	75.88	73.78	73.15	70.74	71.77	69.41	69.71	69.01	68.19	65.66	61.66	55.63	51.94	46.16	42.29	39.01	35.62	33.13	29.93	25.97	24.85	23.69	25.33	25.04	18.74	14.86	12.65	11.62	9.706	8.920	8.206	7.500	7.942	11.01	31.93	201.2	687.0	1596	4663	3729	31.71	5.164	3.025	2.172	1.894	1.625	1.535	1.298	1.281	1.188	1.116	1.005	0.993	0.947	0.919	0.876
520.0	122.2	142.6	160.9	220.7	248.0	176.9	288.8	2177	5093	705.4	183.3	165.6	145.7	130.2	111.7	97.14	87.16	83.69	76.23	72.68	69.96	69.38	67.23	65.26	64.51	64.89	61.40	62.37	62.90	62.28	60.33	55.35	49.50	46.24	42.37	39.24	36.10	32.15	29.91	26.59	24.69	22.60	21.08	21.61	23.82	20.75	15.44	12.46	10.96	9.887	8.612	7.772	7.256	6.624	6.862	11.26	49.13	157.6	364.7	1721	5217	1839	28.36	3.791	2.553	1.937	1.639	1.417	1.288	1.237	1.239	0.996	0.917	0.885	0.938	0.892	0.855
525.0	125.6	139.1	139.2	173.2	246.5	171.0	181.4	780.8	5385	1948	182.8	151.8	132.4	119.3	100.1	87.60	79.09	75.25	70.29	66.69	64.91	61.24	59.84	59.17	58.37	57.63	56.77	56.64	56.92	56.59	54.44	50.68	45.74	41.68	38.65	35.70	32.75	29.63	27.95	25.37	23.13	21.07	19.74	18.73	20.47	21.35	17.12	12.68	10.33	9.586	8.288	7.146	7.093	6.244	5.740	6.527	15.09	38.93	85.48	400.5	2307	5172	1581	20.96	3.363	2.260	1.624	1.526	1.373	1.298	1.134	1.011	0.932	0.818	0.805	0.789	0.908
530.0	109.9	119.5	119.1	132.8	203.1	195.8	147.1	286.6	2695	5179	653.3	133.6	119.2	105.9	89.85	78.05	70.37	65.55	61.62	57.94	56.45	53.63	52.68	52.08	50.61	50.65	49.58	48.60	50.25	49.42	47.22	44.49	40.39	37.66	34.33	32.17	29.31	26.95	25.24	22.68	20.71	19.27	17.92	16.64	16.63	18.53	17.81	13.40	10.22	8.934	7.871	6.976	6.551	6.082	5.730	5.295	7.013	12.10	22.30	92.79	541.1	2133	3990	2001	113.2	4.108	1.963	1.723	1.428	1.273	0.955	0.925	0.880	0.849	0.770	0.712	0.842
535.0	104.0	106.6	102.7	105.8	135.3	204.4	141.7	160.9	753.3	4959	3008	156.1	106.8	92.15	78.03	69.85	62.23	57.84	53.19	49.00	48.58	45.89	44.75	43.41	43.78	43.61	43.45	42.02	43.19	41.57	40.47	37.84	34.77	32.23	30.82	27.65	25.74	24.27	22.13	20.22	18.53	17.58	15.95	14.88	13.85	14.28	15.32	14.47	10.61	8.341	7.435	6.450	5.845	5.323	5.615	4.976	4.708	5.824	7.694	23.46	123.2	478.8	1183	3491	1961	31.65	3.356	2.029	1.553	1.341	0.952	0.914	0.821	0.815	0.777	0.766	0.691
540.0	83.16	92.02	85.66	89.55	101.2	183.0	151.4	123.7	257.5	2498	5470	229.1	94.96	81.37	66.90	60.56	55.24	49.69	48.51	42.50	42.86	40.42	39.59	38.26	38.33	37.55	37.59	37.50	37.80	36.48	36.26	33.59	31.37	28.34	26.87	25.01	22.71	21.47	20.05	18.23	17.30	15.95	14.31	13.57	12.42	11.86	12.56	14.31	11.26	8.139	6.832	6.207	5.514	5.058	5.121	4.691	4.196	4.070	4.361	7.645	29.82	109.3	270.1	1284	3717	1669	26.37	2.799	1.784	1.404	1.094	0.943	0.921	0.812	0.596	0.766	0.608
545.0	82.15	83.13	78.97	86.53	86.71	141.3	171.6	105.9	138.6	843.4	5828	1376	91.63	75.99	62.56	55.81	50.02	46.21	41.46	39.08	38.03	36.84	35.07	34.78	34.51	34.08	32.38	33.02	33.47	33.25	32.42	29.82	27.67	25.53	23.65	22.74	20.34	19.20	17.66	16.40	15.43	14.70	13.06	12.72	11.47	10.87	10.35	11.87	11.59	8.567	6.611	5.789	5.374	4.743	4.440	4.378	4.480	3.771	3.603	4.137	8.909	26.70	62.99	298.0	1650	3465	1270	19.41	2.188	1.652	1.244	0.916	0.829	0.718	0.607	0.608	0.656
550.0	66.97	71.50	74.11	72.90	72.63	93.58	162.5	109.7	99.45	264.9	2742	4831	376.3	65.97	54.22	47.08	42.37	38.14	34.80	33.71	31.46	30.22	29.22	29.07	28.49	28.18	27.83	27.35	28.26	27.54	27.03	25.09	23.62	21.59	20.05	18.68	17.13	16.13	15.12	13.83	13.06	12.28	11.23	10.80	9.845	9.101	8.909	9.053	9.861	9.028	6.772	5.449	4.632	4.156	3.883	3.750	3.971	3.731	3.108	2.964	3.893	7.941	16.06	68.69	384.5	1356	2464	1124	110.9	3.310	1.393	1.107	0.858	0.809	0.646	0.589	0.562
555.0	62.06	69.53	62.14	63.49	60.43	65.65	122.7	136.5	79.32	115.0	718.8	4884	1391	72.39	46.18	39.29	34.56	31.60	28.78	27.72	26.09	25.21	24.33	23.17	22.53	23.34	22.49	22.05	23.11	22.63	21.83	20.72	19.74	17.11	16.63	15.12	14.61	13.47	12.65	11.19	10.52	9.985	9.718	8.788	8.258	7.685	7.244	6.967	7.085	7.826	7.062	4.974	3.825	3.905	3.419	3.133	3.363	3.312	3.181	2.438	2.462	3.482	5.123	16.82	87.28	303.7	698.6	2083	1844	32.41	2.539	1.305	0.815	0.810	0.631	0.493	0.629
560.0	51.20	64.94	62.52	57.86	52.34	50.40	81.46	146.6	77.65	76.85	215.0	2447	4384	149.0	42.12	34.46	28.75	26.77	23.78	23.72	21.97	21.22	21.41	19.94	19.19	19.30	18.98	18.66	18.46	19.60	18.47	17.57	16.38	14.64	13.42	12.64	12.34	11.70	10.90	9.714	9.263	8.844	7.990	7.544	7.204	6.886	6.169	6.153	5.498	6.240	6.809	5.172	3.859	3.332	3.047	2.883	2.908	2.698	2.896	2.513	2.055	2.226	2.774	5.290	20.75	69.06	158.6	737.4	2487	1415	26.69	1.898	1.085	0.864	0.571	0.610	0.583
565.0	38.01	62.45	61.01	49.81	46.38	47.27	58.16	134.3	90.45	64.24	94.18	785.3	5259	975.9	38.78	30.67	25.87	23.51	22.15	20.79	18.97	18.39	17.69	17.14	17.53	15.86	16.54	16.68	16.67	15.79	15.82	15.17	14.35	12.88	11.88	10.45	10.47	9.749	9.155	8.366	8.362	7.532	7.176	6.695	6.259	5.790	5.386	5.233	4.679	4.863	5.613	5.191	3.926	3.034	2.819	2.629	2.415	2.512	2.488	2.634	2.063	1.723	1.914	2.396	6.039	16.74	36.80	170.0	1006	2295	956.7	18.86	1.574	0.950	0.684	0.678	0.561
570.0	44.61	54.38	49.02	43.68	36.57	38.66	44.13	87.46	115.4	58.65	59.08	219.7	2621	4251	233.5	26.44	21.63	19.84	17.81	16.64	15.66	15.01	14.39	14.65	13.43	13.30	13.21	13.06	13.47	12.94	12.83	12.35	11.56	10.66	9.393	9.147	8.479	8.415	7.653	6.957	6.550	6.190	5.779	5.441	5.176	5.072	4.616	4.403	4.092	3.794	3.894	4.375	4.096	3.023	2.410	2.268	2.064	2.001	2.006	2.081	2.123	1.706	1.631	1.697	2.486	4.791	9.416	39.14	231.7	836.4	1520	935.0	100.9	2.339	0.772	0.652	0.558
575.0	43.82	58.69	45.07	41.53	32.06	32.18	36.91	48.47	112.3	73.14	48.58	84.71	676.2	4590	998.4	29.08	19.55	16.68	14.78	14.33	13.51	12.12	12.28	11.44	11.22	11.18	10.65	10.29	10.58	10.77	9.436	9.502	9.235	8.821	7.686	7.481	6.879	7.013	6.227	5.739	5.574	5.248	4.829	4.466	4.279	4.243	3.873	3.588	3.285	3.035	2.929	3.070	3.646	3.257	2.230	2.001	1.754	1.748	1.545	1.718	1.830	2.076	1.606	1.372	1.510	2.004	3.207	9.717	52.71	187.5	402.3	1264	1198	32.18	1.712	0.774	0.550
580.0	47.08	55.31	41.36	36.58	31.72	27.52	32.70	34.05	87.48	92.92	45.21	54.06	183.3	2402	3690	87.61	17.76	14.96	13.52	11.51	11.17	10.44	10.34	9.913	9.597	9.333	9.068	9.111	9.078	9.100	8.394	8.053	7.538	7.406	7.085	6.264	6.029	6.066	5.173	4.852	4.719	4.387	4.225	3.776	3.871	3.627	3.204	3.221	2.819	2.784	2.455	2.401	3.069	3.160	2.354	1.826	1.702	1.480	1.419	1.456	1.324	1.744	1.745	1.254	1.237	1.402	1.581	2.977	12.73	42.75	91.31	414.3	1382	859.3	25.74	1.141	0.605
585.0	45.41	48.53	42.22	36.36	29.37	26.11	28.42	31.24	59.42	111.0	49.45	42.89	70.81	778.2	4585	620.4	16.27	13.22	12.47	10.38	9.576	9.509	8.750	8.504	8.043	7.772	7.312	7.799	7.764	7.624	7.475	6.792	6.391	6.095	6.275	5.338	5.343	5.054	4.459	4.280	3.982	3.929	3.460	3.365	3.214	3.331	2.934	2.829	2.720	2.476	2.103	2.059	2.269	2.729	2.298	1.837	1.586	1.464	1.375	1.251	1.118	1.280	1.542	1.451	1.123	1.059	1.016	1.502	3.782	10.45	21.38	94.96	524.6	1235	273.4	18.11	0.812
590.0	46.28	45.60	46.03	33.00	25.53	22.04	25.71	26.56	38.24	95.98	72.46	40.83	44.73	207.4	2343	2818	59.67	12.16	10.20	8.812	8.347	8.044	7.504	7.083	6.837	6.596	6.487	6.444	6.446	6.385	6.264	5.851	5.489	5.030	5.104	4.465	4.357	4.051	3.849	3.630	3.416	3.158	2.821	2.793	2.678	2.683	2.494	2.319	2.160	1.879	1.735	1.726	1.682	2.030	2.173	1.970	1.575	1.314	1.229	1.113	1.126	1.063	1.293	1.371	1.264	0.966	0.930	1.072	1.585	3.061	5.523	22.02	120.0	417.5	758.0	572.8	100.3
595.0	45.86	50.63	43.18	32.22	24.00	18.63	22.92	23.13	30.40	64.31	93.59	46.44	39.33	74.46	592.0	3231	677.1	14.08	8.546	7.609	6.589	6.796	6.148	6.104	5.449	5.680	5.217	4.902	5.180	5.046	5.024	4.962	4.539	4.171	3.902	3.656	3.583	3.256	2.994	3.101	2.730	2.720	2.477	2.271	2.305	2.282	2.130	1.962	1.843	1.533	1.405	1.453	1.300	1.419	1.750	1.901	1.644	1.233	1.003	0.974	0.926	0.914	0.965	0.984	1.157	1.239	0.868	0.730	0.922	1.408	1.786	5.585	27.27	93.50	193.9	625.0	810.8
600.0	48.57	43.69	48.97	33.99	21.48	20.56	20.93	25.05	29.04	51.28	94.81	57.55	38.40	44.09	154.6	1778	2184	49.37	8.365	6.750	6.338	5.929	5.660	5.381	4.503	4.641	4.613	4.669	4.506	4.433	4.284	4.080	3.760	3.357	3.263	3.176	3.138	2.858	2.497	2.652	2.442	2.357	2.068	1.913	1.832	1.946	1.769	1.720	1.616	1.559	1.242	1.198	1.158	1.085	1.257	1.558	1.569	1.324	0.923	0.870	0.828	0.702	0.835	0.840	0.954	1.191	1.005	0.828	0.809	0.855	0.990	1.790	6.624	21.32	43.91	189.8	775.2
605.0	48.37	42.49	46.13	30.90	22.18	19.95	22.45	25.26	30.31	49.18	81.20	77.76	42.54	40.98	55.89	576.6	2849	365.0	8.413	6.534	5.648	5.356	4.711	4.712	4.311	4.020	4.056	3.702	4.145	4.009	3.722	3.513	3.359	2.794	3.021	2.694	2.840	2.721	2.383	2.318	2.000	1.895	1.988	1.796	1.706	1.723	1.653	1.556	1.301	1.431	1.116	1.124	1.023	0.991	1.049	1.240	1.400	1.378	1.048	0.765	0.812	0.848	0.860	0.691	0.812	0.963	1.061	0.671	0.677	0.742	0.874	0.834	1.841	5.263	10.28	43.32	259.6
610.0	45.85	53.93	46.32	32.66	22.87	21.90	24.66	29.45	38.00	55.75	67.01	97.74	60.93	47.68	39.34	154.3	1585	1788	41.41	5.860	5.000	4.607	4.004	3.855	3.470	3.499	3.353	3.283	3.240	3.372	3.347	2.952	2.903	2.501	2.464	2.361	2.260	2.140	1.935	1.815	1.612	1.589	1.577	1.613	1.491	1.397	1.265	1.320	1.168	1.190	0.946	0.904	0.865	0.779	0.872	0.915	1.108	1.209	1.070	0.882	0.759	0.762	0.726	0.697	0.686	0.778	0.948	0.956	0.840	0.681	0.691	0.705	0.902	1.616	2.759	10.12	58.97
615.0	44.64	51.70	44.14	33.99	23.04	21.66	24.75	30.91	39.23	57.30	58.73	90.39	78.40	52.02	40.16	54.05	415.6	2255	509.0	6.647	4.899	3.967	3.335	3.289	3.037	2.694	2.853	2.667	2.745	2.903	2.813	2.382	2.385	2.179	2.123	1.955	1.764	1.873	1.737	1.481	1.356	1.194	1.232	1.488	1.221	1.062	1.064	1.027	0.964	0.977	0.874	0.824	0.727	0.680	0.704	0.802	0.832	1.023	1.069	0.826	0.693	0.559	0.727	0.738	0.585	0.700	0.765	0.861	0.949	0.671	0.707	0.628	0.542	0.798	1.058	2.606	13.50
620.0	46.06	54.65	45.49	32.20	22.66	22.50	23.35	31.64	39.36	58.64	55.25	75.43	90.51	54.99	39.57	32.90	110.6	1338	1610	25.80	5.107	3.565	3.419	2.930	2.737	2.652	2.452	2.242	2.228	2.395	2.333	2.224	1.865	1.841	1.808	1.803	1.636	1.528	1.639	1.384	1.204	1.143	1.028	1.066	1.072	1.051	0.916	0.862	0.929	0.770	0.706	0.787	0.779	0.587	0.684	0.699	0.716	0.835	0.937	0.793	0.680	0.564	0.673	0.593	0.635	0.725	0.602	0.755	0.933	0.767	0.624	0.603	0.564	0.578	0.544	0.949	3.366
625.0	45.85	53.66	49.85	32.66	27.79	21.65	25.44	30.39	38.45	56.84	54.75	65.89	93.81	59.73	39.23	27.75	40.76	455.6	2238	75.92	4.856	3.818	3.413	2.888	2.679	2.300	2.180	2.065	2.011	2.256	2.076	1.759	1.832	1.597	1.701	1.550	1.450	1.459	1.503	1.396	1.257	1.123	1.052	1.021	1.044	1.034	0.938	0.901	0.883	0.751	0.642	0.671	0.604	0.633	0.594	0.508	0.724	0.752	0.720	0.835	0.714	0.577	0.640	0.626	0.694	0.644	0.612	0.663	0.698	0.877	0.650	0.571	0.533	0.414	0.425	0.557	1.103
630.0	43.91	45.64	47.93	33.46	25.56	20.08	24.49	28.58	39.21	57.11	51.74	62.52	80.07	72.99	40.27	26.21	23.74	117.0	1361	1010	26.66	3.720	2.891	2.639	2.261	1.989	1.996	1.743	1.880	1.783	1.790	1.579	1.596	1.399	1.325	1.301	1.173	1.138	1.235	1.081	1.131	1.016	0.876	0.857	0.825	0.876	0.751	0.804	0.762	0.626	0.600	0.555	0.551	0.525	0.540	0.474	0.609	0.529	0.582	0.723	0.636	0.596	0.552	0.586	0.596	0.575	0.557	0.562	0.642	0.684	0.793	0.594	0.520	0.444	0.404	0.439	0.515
635.0	47.20	57.40	49.34	34.45	24.00	20.62	25.40	26.76	41.62	56.71	51.42	57.44	64.76	78.40	44.05	26.27	20.43	36.34	357.8	1610	369.1	4.342	2.969	2.372	1.992	1.767	1.841	1.371	1.669	1.639	1.521	1.494	1.271	1.307	1.122	0.993	0.998	1.069	0.995	0.916	0.919	0.913	0.788	0.704	0.737	0.713	0.709	0.724	0.675	0.575	0.540	0.483	0.509	0.473	0.475	0.459	0.437	0.444	0.441	0.520	0.638	0.514	0.564	0.486	0.502	0.525	0.496	0.518	0.493	0.566	0.637	0.667	0.556	0.427	0.400	0.369	0.337
640.0	51.25	58.70	51.99	34.08	26.81	19.45	25.78	29.06	38.34	54.37	51.11	56.15	60.51	75.73	50.90	26.75	19.32	17.73	88.01	1077	1165	14.21	3.038	2.187	1.766	1.733	1.649	1.230	1.562	1.248	1.169	1.418	1.163	1.141	1.077	1.032	1.021	0.850	0.813	0.801	0.890	0.737	0.707	0.613	0.594	0.747	0.629	0.622	0.635	0.477	0.505	0.424	0.490	0.441	0.457	0.515	0.434	0.439	0.420	0.435	0.531	0.539	0.602	0.568	0.480	0.453	0.511	0.508	0.624	0.506	0.506	0.664	0.497	0.527	0.357	0.382	0.230
645.0	53.88	56.84	47.74	34.25	23.41	22.56	24.35	26.78	38.47	53.57	50.95	54.32	57.66	65.58	57.28	27.37	18.82	14.00	25.75	406.0	1753	61.15	3.120	1.997	1.956	1.653	1.615	1.265	1.477	1.328	1.154	1.194	1.013	1.062	0.923	1.053	0.902	0.958	0.848	0.662	0.724	0.759	0.736	0.599	0.600	0.588	0.610	0.525	0.568	0.573	0.461	0.461	0.456	0.364	0.388	0.420	0.449	0.419	0.432	0.420	0.384	0.567	0.574	0.499	0.444	0.405	0.476	0.572	0.647	0.489	0.472	0.527	0.570	0.524	0.354	0.364	0.287
650.0	61.56	60.37	51.05	36.50	24.20	19.68	20.11	27.60	35.80	52.31	45.62	53.59	53.53	57.17	58.54	29.12	18.25	12.56	11.48	106.9	1519	471.0	4.410	2.223	1.942	1.468	1.659	1.176	1.493	1.377	1.177	1.323	0.942	0.898	0.903	0.972	0.812	0.798	0.702	0.663	0.649	0.668	0.713	0.578	0.602	0.608	0.614	0.507	0.556	0.516	0.455	0.460	0.394	0.356	0.370	0.408	0.431	0.427	0.397	0.330	0.352	0.515	0.536	0.552	0.463	0.404	0.495	0.436	0.420	0.373	0.464	0.439	0.499	0.553	0.436	0.341	0.368
