Sample:	'1
File name:	t2025062304Òó¼Ò´å¶«ÇÅ.FD3
Run date:	'14:27:29, 06/24/2025
Operator:	Administrator
Comment:	'

Instrument
Model:	F-2700 FL Spectrophotometer
Serial number:	23B8-004
ROM Version:	4J14000 07

Instrument parameters
Measurement type:	3-D scan
Data mode:	Fluorescence
EX  Start WL:	220.0 nm
EX  End WL:	600.0 nm
EX Sampling interval:	5.0 nm
EM  Start WL:	230.0 nm
EM  End WL:	650.0 nm
EM Sampling interval:	5.0 nm
Scan speed:	12000 nm/min
EX Slit:	5.0 nm
EM Slit:	5.0 nm
PMT Voltage:	700 V
Response:	Auto 
Corrected spectra:	Off
Contour interval:	50.000

Peak integration
Integration method:	Rectangular
Sensitivity:	1
Threshold:	1.000

Peaks
No.	ApexEX/EM(nm)	Height(Data)
1	225.0/590.0	71.43
2	225.0/600.0	65.68
3	225.0/615.0	85.53
4	230.0/345.0	5274
5	245.0/270.0	404.7
6	250.0/275.0	521.9
7	250.0/450.0	2442
8	255.0/280.0	543.3
9	260.0/290.0	537.4
10	260.0/575.0	132.6
11	265.0/380.0	1616
12	265.0/585.0	111.8
13	270.0/600.0	103.3
14	275.0/410.0	1967
15	275.0/615.0	115.9
16	280.0/340.0	2346
17	280.0/625.0	109.9
18	285.0/640.0	94.52
19	330.0/415.0	1240
20	460.0/340.0	13.36
21	475.0/350.0	13.63
22	505.0/275.0	3.122
23	505.0/450.0	10.32
24	510.0/280.0	3.376
25	510.0/455.0	10.46
26	520.0/285.0	3.429
27	525.0/290.0	3.310
28	535.0/270.0	54.84
29	565.0/340.0	11.14
30	570.0/335.0	11.38
31	570.0/405.0	8.244

Data points
	220.0	225.0	230.0	235.0	240.0	245.0	250.0	255.0	260.0	265.0	270.0	275.0	280.0	285.0	290.0	295.0	300.0	305.0	310.0	315.0	320.0	325.0	330.0	335.0	340.0	345.0	350.0	355.0	360.0	365.0	370.0	375.0	380.0	385.0	390.0	395.0	400.0	405.0	410.0	415.0	420.0	425.0	430.0	435.0	440.0	445.0	450.0	455.0	460.0	465.0	470.0	475.0	480.0	485.0	490.0	495.0	500.0	505.0	510.0	515.0	520.0	525.0	530.0	535.0	540.0	545.0	550.0	555.0	560.0	565.0	570.0	575.0	580.0	585.0	590.0	595.0	600.0
230.0	114.2	1930	3094	635.3	25.99	8.178	7.260	6.366	5.261	4.937	4.369	4.199	3.902	3.561	2.841	2.453	2.360	2.032	1.905	1.573	1.416	1.452	1.246	1.215	1.076	1.100	1.011	0.972	0.888	0.932	0.884	0.903	0.799	0.691	0.624	0.530	0.602	0.546	0.509	0.495	0.476	0.632	0.529	0.442	0.417	0.458	2.352	8.440	11.50	6.697	2.108	0.535	0.319	0.298	0.291	0.288	0.310	0.298	0.321	0.312	0.294	0.294	0.275	0.276	0.285	0.265	0.285	0.265	0.287	0.282	0.315	0.297	0.269	0.290	0.261	0.260	0.314
235.0	122.2	574.0	2605	3340	542.4	41.37	9.839	7.724	5.454	5.084	5.578	4.925	3.711	3.540	3.067	2.764	2.364	2.157	1.923	1.832	1.475	1.526	1.459	1.262	1.169	1.224	0.997	1.079	1.006	0.848	0.760	0.787	0.701	0.672	0.546	0.580	0.554	0.624	0.486	0.458	0.430	0.549	0.549	0.577	0.490	0.567	0.802	2.442	5.290	9.301	12.66	11.81	4.554	0.883	0.299	0.325	0.297	0.364	0.339	0.322	0.297	0.300	0.287	0.267	0.241	0.294	0.340	0.254	0.329	0.339	0.282	0.348	0.268	0.291	0.265	0.280	0.325
240.0	160.8	205.2	893.3	3609	3517	424.4	23.54	9.088	6.276	6.225	5.636	5.219	3.875	3.793	3.199	2.831	2.391	1.852	1.848	1.646	1.501	1.591	1.282	1.212	1.085	1.137	1.079	1.094	0.981	0.878	0.900	0.851	0.759	0.642	0.618	0.607	0.514	0.651	0.515	0.491	0.466	0.445	0.461	0.549	0.774	0.725	0.584	0.813	1.489	3.071	8.425	17.93	18.97	11.69	3.406	0.521	0.336	0.336	0.334	0.313	0.317	0.325	0.301	0.287	0.244	0.324	0.322	0.240	0.291	0.309	0.324	0.307	0.300	0.287	0.361	0.285	0.401
245.0	152.8	215.6	252.0	1470	4799	3272	314.1	12.44	8.115	7.377	6.356	5.180	4.698	4.029	3.832	2.708	2.470	2.009	1.733	1.644	1.440	1.482	1.392	1.273	1.039	1.295	1.231	1.059	0.944	0.895	0.922	0.783	0.783	0.663	0.596	0.563	0.530	0.515	0.459	0.497	0.443	0.432	0.414	0.510	0.608	0.812	0.822	0.795	0.673	0.927	2.226	6.862	16.46	24.50	21.50	10.20	2.264	0.415	0.330	0.339	0.295	0.329	0.337	0.328	0.286	0.326	0.300	0.258	0.274	0.293	0.303	0.296	0.325	0.256	0.340	0.303	0.368
250.0	75.91	173.7	239.4	406.3	1773	4492	4695	1183	61.07	10.58	7.357	6.335	5.627	4.438	3.951	3.295	2.591	2.292	1.919	1.869	1.757	1.502	1.490	1.336	1.195	1.237	1.210	1.117	1.091	0.889	0.982	0.866	0.769	0.649	0.657	0.579	0.575	0.541	0.467	0.477	0.515	0.484	0.422	0.434	0.446	0.544	0.661	0.878	0.971	0.827	0.924	1.866	4.251	8.778	15.94	22.30	27.53	18.79	10.40	2.562	0.411	0.319	0.336	0.333	0.317	0.308	0.335	0.341	0.294	0.299	0.297	0.287	0.384	0.299	0.292	0.351	0.395
255.0	48.55	69.88	204.5	319.4	466.0	1250	5002	7664	1623	54.56	10.82	8.280	7.165	5.312	4.077	3.624	2.771	2.780	2.184	2.089	1.786	1.442	1.565	1.475	1.116	1.193	1.249	1.098	1.155	1.082	1.098	0.783	0.739	0.667	0.727	0.621	0.600	0.585	0.546	0.516	0.432	0.460	0.515	0.533	0.481	0.448	0.494	0.503	0.649	0.950	1.343	1.402	1.405	2.273	3.964	5.706	12.52	27.63	46.44	28.70	15.68	2.551	0.474	0.306	0.356	0.349	0.313	0.264	0.293	0.400	0.307	0.306	0.316	0.298	0.320	0.319	0.316
260.0	38.99	37.36	96.55	307.3	312.7	337.9	1730	7855	8156	266.3	29.01	11.57	8.055	6.108	4.458	3.756	3.543	2.524	2.164	2.210	1.979	1.646	1.585	1.419	1.440	1.212	1.143	1.163	1.059	1.229	1.117	0.885	0.735	0.646	0.735	0.620	0.528	0.616	0.555	0.529	0.427	0.484	0.527	0.473	0.520	0.439	0.490	0.489	0.482	0.579	1.028	1.880	1.635	1.191	1.289	1.632	3.319	8.113	23.61	45.05	59.27	26.35	10.71	1.102	0.370	0.355	0.358	0.344	0.318	0.350	0.336	0.312	0.295	0.337	0.310	0.316	0.306
265.0	43.83	40.88	41.94	177.9	378.6	243.0	443.8	3059	9999.9	7546	210.2	18.24	10.75	7.942	5.969	4.244	3.721	3.184	2.657	2.285	2.133	1.754	1.755	1.517	1.496	1.301	1.293	1.267	1.141	1.202	1.232	1.059	0.828	0.827	0.760	0.657	0.567	0.664	0.564	0.627	0.422	0.544	0.610	0.563	0.519	0.427	0.529	0.455	0.423	0.455	0.514	1.092	1.845	1.964	1.390	0.911	1.150	2.280	5.854	14.98	38.12	61.04	64.61	23.08	5.656	0.657	0.450	0.405	0.363	0.381	0.420	0.344	0.313	0.319	0.366	0.311	0.314
270.0	54.08	44.04	40.24	75.37	232.3	404.7	311.8	765.3	3640	9896	9999.9	821.5	51.19	12.05	8.021	5.854	4.308	3.618	3.170	2.617	2.236	1.900	1.950	1.642	1.662	1.462	1.433	1.438	1.405	1.279	1.180	1.113	0.894	0.929	0.893	0.713	0.742	0.656	0.609	0.704	0.496	0.563	0.615	0.548	0.572	0.511	0.491	0.450	0.433	0.426	0.455	0.607	0.873	1.436	1.969	2.133	1.836	1.315	1.776	3.834	9.450	19.34	37.44	54.84	49.91	52.26	15.28	5.453	0.710	0.437	0.397	0.382	0.355	0.383	0.401	0.357	0.340
275.0	90.33	80.94	70.09	61.32	109.2	262.9	521.9	374.5	871.2	2610	9752	9999.9	1168	46.35	11.25	8.229	5.803	4.528	3.756	3.126	2.728	2.350	2.275	1.965	1.759	1.690	1.459	1.299	1.345	1.209	1.261	1.155	0.997	0.930	0.909	0.790	0.812	0.683	0.659	0.701	0.614	0.561	0.547	0.695	0.670	0.688	0.649	0.535	0.544	0.482	0.431	0.579	0.607	0.704	0.999	1.333	2.748	3.122	2.151	1.589	2.693	4.773	8.883	13.23	19.05	51.64	88.41	87.81	23.73	5.057	0.607	0.492	0.393	0.439	0.401	0.471	0.425
280.0	149.5	144.1	109.4	78.61	90.32	153.4	401.1	543.3	326.7	658.4	3018	9999.9	9999.9	823.0	24.50	10.75	7.364	5.554	4.670	3.614	2.874	2.981	2.290	2.047	1.663	1.773	1.587	1.484	1.447	1.384	1.233	1.292	1.021	0.887	0.888	1.018	0.890	0.912	0.755	0.653	0.686	0.615	0.723	0.730	0.788	0.774	0.669	0.787	0.632	0.624	0.551	0.572	0.573	0.620	0.809	0.885	1.515	2.693	3.376	2.787	1.688	1.691	2.551	3.629	4.949	13.50	34.82	78.55	104.8	33.00	18.40	2.467	0.516	0.572	0.425	0.507	0.457
285.0	231.0	218.1	172.1	107.2	90.91	116.6	214.7	541.2	356.4	270.0	788.8	3871	9999.9	8210	119.6	16.49	9.942	7.473	5.343	4.068	3.756	2.966	2.425	2.310	2.053	1.925	1.787	1.566	1.505	1.427	1.368	1.265	1.221	1.014	1.060	1.125	1.036	0.971	0.838	0.767	0.771	0.772	0.796	0.852	0.778	0.927	0.859	1.001	0.766	0.680	0.733	0.627	0.673	0.700	0.811	0.728	1.014	1.283	2.163	3.371	3.429	2.137	1.417	1.673	1.905	3.809	8.672	22.02	50.74	87.49	106.2	29.87	11.99	1.186	0.576	0.570	0.525
290.0	338.5	339.6	280.0	171.7	121.4	127.4	152.6	284.2	537.4	499.6	363.2	1046	3793	9999.9	9999.9	2101	35.72	10.71	6.846	5.357	4.016	3.289	2.821	2.492	2.320	2.151	1.862	1.539	1.513	1.553	1.494	1.392	1.353	1.280	1.230	1.207	1.242	1.072	1.030	0.836	0.974	0.917	1.040	0.943	1.004	1.123	1.260	1.317	1.142	0.965	0.801	0.814	0.783	0.812	0.782	0.795	0.892	0.936	1.251	1.670	2.596	3.310	3.219	2.781	1.835	1.980	2.972	6.070	12.67	24.16	46.85	62.81	83.37	67.98	19.99	9.976	1.622
295.0	445.0	479.9	403.8	257.0	182.0	165.2	181.9	226.0	357.4	741.0	713.1	553.8	1088	2591	8892	9999.9	703.3	36.75	10.34	7.025	5.048	4.222	3.393	3.090	2.639	2.414	2.269	1.840	1.842	1.627	1.438	1.433	1.319	1.342	1.392	1.292	1.390	1.310	1.147	0.998	0.987	1.064	1.056	1.044	1.288	1.359	1.325	1.536	1.498	1.146	1.103	1.149	1.008	0.942	0.863	0.986	1.006	1.177	1.229	1.291	1.691	1.820	2.631	4.675	5.127	3.322	2.431	3.060	4.306	6.911	11.70	15.21	22.91	42.65	85.96	112.6	33.05
300.0	569.2	665.6	568.2	369.6	269.4	246.6	289.6	330.3	365.7	681.5	1140	805.2	672.3	882.1	2610	9999.9	9999.9	546.1	21.98	9.372	6.366	5.027	4.079	3.421	2.677	2.703	2.254	1.992	1.965	1.809	1.718	1.566	1.539	1.442	1.571	1.423	1.554	1.508	1.101	1.239	1.214	1.289	1.301	1.294	1.435	1.734	1.653	1.989	1.965	1.527	1.394	1.328	1.312	1.280	1.298	1.307	1.633	1.619	1.806	1.880	2.024	2.166	2.689	3.642	5.191	6.015	4.794	3.552	3.185	3.773	4.580	5.127	6.737	11.30	27.76	67.17	106.8
305.0	724.7	890.0	772.9	553.3	432.3	418.4	461.8	567.4	669.8	875.4	1301	1506	977.7	771.2	1003	3448	9999.9	5357	79.40	14.86	8.904	6.430	4.907	4.107	3.457	3.006	2.661	2.034	2.040	1.591	1.825	1.591	1.524	1.376	1.600	1.540	1.481	1.491	1.326	1.405	1.446	1.420	1.562	1.458	1.670	1.997	2.247	2.703	2.626	2.035	1.856	2.014	1.781	1.762	1.719	2.155	2.352	2.359	2.565	2.860	2.990	3.258	3.877	4.436	5.064	6.262	7.538	6.877	5.458	4.769	4.241	4.201	4.163	4.831	8.447	18.10	40.16
310.0	958.2	1149	1049	790.5	614.9	607.3	709.8	815.6	921.5	1115	1379	1718	1630	1107	882.8	1220	3508	9522	9164	1755	28.76	9.119	6.519	5.147	3.891	3.354	2.928	2.489	2.363	2.127	1.902	1.631	1.763	1.644	1.672	1.707	1.703	1.741	1.540	1.670	1.678	1.454	1.745	1.849	2.135	2.624	2.990	3.422	3.338	2.708	2.580	2.824	2.574	2.374	2.535	2.722	3.079	3.375	3.552	3.872	4.095	4.298	5.048	5.318	5.934	6.605	7.256	7.748	8.759	8.175	6.978	5.839	5.030	4.789	4.966	7.034	11.62
315.0	1162	1510	1401	1033	812.1	782.8	900.8	989.1	1084	1278	1521	1730	1843	1713	1089	850.0	1224	2454	6891	9999.9	531.4	31.19	9.849	6.759	5.265	4.136	3.508	2.897	2.724	2.340	2.010	1.947	1.702	1.553	1.764	1.819	1.863	1.951	1.649	1.753	1.807	1.785	2.130	2.248	2.654	3.174	3.551	4.125	4.560	3.314	3.274	3.355	3.247	3.262	3.325	3.381	3.943	4.262	4.598	4.570	4.810	4.919	5.767	6.030	6.764	7.066	7.275	7.863	8.199	8.637	9.471	9.123	7.355	6.261	5.195	5.075	5.822
320.0	1427	1896	1804	1305	971.9	919.9	1017	1124	1195	1408	1650	1850	1890	1915	1472	902.0	798.4	840.3	1893	8954	9999.9	453.2	20.82	9.427	6.572	4.805	3.854	3.320	3.258	2.459	2.373	2.171	1.803	1.678	1.808	1.782	1.846	2.037	1.859	1.888	1.899	2.097	2.292	2.445	3.023	3.865	4.633	5.234	5.427	4.197	3.951	4.128	3.956	3.806	3.570	3.817	4.244	4.763	4.919	5.100	5.343	5.326	6.164	6.443	7.116	7.425	7.989	8.389	8.669	8.974	9.170	9.782	10.17	8.170	5.996	5.154	5.044
325.0	1805	2584	2605	1929	1249	1041	1110	1227	1286	1504	1788	1992	2010	1930	1773	1142	782.4	539.0	590.7	2638	9999.9	9606	64.43	14.78	8.222	5.734	4.502	3.566	3.209	2.755	2.773	2.312	2.018	1.864	2.027	1.826	1.711	2.022	2.082	1.998	1.920	2.160	2.540	3.097	3.806	4.994	5.962	7.273	7.613	6.249	5.918	5.902	4.952	4.599	4.195	4.366	4.476	5.194	5.375	5.821	5.852	5.873	6.611	6.914	7.545	8.148	8.813	8.717	9.384	9.815	9.629	9.666	10.07	10.26	8.461	6.835	5.706
330.0	2434	3537	3939	3068	1899	1312	1241	1335	1401	1640	1934	2171	2216	2061	1821	1479	993.3	579.8	391.3	760.9	2965	8550	7614	1555	26.12	8.810	6.238	4.710	3.705	3.455	3.068	2.573	2.211	1.861	2.009	1.899	1.928	1.948	2.232	2.237	2.264	2.645	2.971	3.688	4.932	6.553	7.852	10.20	10.86	9.648	9.174	9.593	7.486	6.234	5.198	4.976	5.220	5.576	5.819	5.995	6.211	6.242	6.988	7.533	8.097	8.663	9.390	9.671	10.12	10.49	10.36	10.50	10.15	10.22	9.446	8.740	7.814
335.0	2835	4268	4848	4000	2647	1688	1382	1420	1478	1712	2016	2266	2342	2209	1900	1515	1295	763.1	450.8	420.4	844.2	2099	5553	9999.9	2339	29.92	8.416	5.934	4.898	3.873	3.550	2.970	2.365	2.013	2.096	2.108	2.170	2.102	2.355	2.227	2.401	3.050	3.321	4.201	5.227	7.321	9.268	12.14	12.85	11.93	11.79	12.31	10.52	8.888	6.715	5.681	5.872	5.881	6.207	6.499	6.429	6.616	7.492	8.161	8.211	9.184	9.847	10.27	10.66	10.63	11.38	11.16	10.89	10.35	9.493	8.808	8.537
340.0	2925	4442	5253	4395	2916	1818	1429	1461	1519	1718	2020	2249	2346	2227	1911	1497	1268	959.5	536.5	381.6	400.0	630.3	1522	7920	9999.9	405.5	19.27	7.751	5.917	4.580	3.695	3.213	2.544	2.234	2.111	2.152	2.110	2.177	2.327	2.408	2.413	3.054	3.352	4.292	5.435	7.762	9.663	12.50	13.36	13.15	13.16	13.36	11.59	9.901	6.979	6.058	6.335	6.144	6.206	6.216	6.294	6.636	7.324	8.066	8.336	8.913	9.618	10.37	11.05	11.14	11.12	10.89	10.91	10.27	9.480	8.934	8.385
345.0	2900	4481	5274	4457	2978	1886	1443	1433	1510	1694	1955	2171	2271	2135	1863	1464	1155	976.8	673.0	405.4	326.5	324.4	462.3	2281	9734	8881	322.9	11.37	6.856	5.396	4.112	3.265	2.539	2.382	2.210	2.181	2.323	2.049	2.287	2.339	2.534	2.940	3.331	4.564	5.697	7.727	9.369	12.35	13.18	13.13	13.16	13.61	11.85	9.732	7.448	6.417	6.314	5.952	6.090	6.285	6.100	6.976	7.218	7.693	8.583	8.993	9.261	9.771	10.48	10.71	10.72	10.57	10.65	10.26	9.252	8.714	7.975
350.0	2709	4065	4853	4303	3037	1931	1468	1432	1484	1643	1847	2028	2106	2005	1770	1418	1112	881.6	752.0	541.3	363.4	293.5	259.9	609.0	2749	7460	6604	1410	23.72	7.647	5.147	3.924	3.099	2.561	2.418	2.160	2.139	2.226	2.130	2.257	2.399	2.735	3.296	4.127	5.313	7.172	8.714	11.26	12.82	12.07	12.39	13.63	11.51	9.755	7.815	6.320	6.133	5.964	5.988	6.273	6.232	6.779	6.992	7.688	7.914	8.227	8.599	9.257	9.571	9.932	10.24	10.16	9.943	9.831	9.141	8.088	7.772
355.0	2441	3640	4393	3942	2927	1946	1522	1461	1504	1615	1763	1879	1947	1865	1656	1363	1095	849.6	689.4	650.0	487.3	328.9	251.7	269.2	695.9	1764	4747	9999.9	2158	27.75	7.130	5.139	3.738	2.928	2.719	2.282	2.471	2.361	2.222	2.126	2.388	2.478	3.016	3.693	5.235	6.558	8.025	10.12	11.45	11.02	11.01	12.35	10.99	9.786	7.968	6.389	6.291	6.261	6.488	6.351	6.149	6.851	6.792	7.434	7.817	7.881	8.082	8.469	8.691	9.027	9.128	9.212	9.248	9.026	8.808	7.873	7.524
360.0	2185	3296	3941	3656	2755	1941	1529	1476	1498	1616	1704	1790	1824	1747	1559	1308	1062	843.7	677.3	620.1	589.7	398.7	274.6	216.6	257.8	462.7	1251	7174	9960	382.6	17.69	6.912	4.888	3.261	2.760	2.447	2.490	2.426	2.230	2.078	2.546	2.476	2.949	3.304	4.626	5.652	7.154	9.076	9.902	9.953	10.37	11.44	10.37	9.571	7.632	6.481	6.696	6.392	6.504	6.734	6.434	6.737	7.228	7.377	7.451	7.869	7.611	8.026	8.238	8.430	8.417	8.969	8.497	9.229	8.507	7.851	7.450
365.0	1985	2940	3508	3373	2638	1912	1561	1493	1518	1582	1659	1719	1715	1638	1481	1255	1039	842.5	682.7	595.1	589.6	505.3	319.4	230.1	187.5	193.4	343.5	2054	9169	8258	303.0	11.38	6.237	4.270	3.293	2.864	2.580	2.245	2.113	2.308	2.393	2.480	2.973	3.276	4.222	5.357	6.328	8.352	9.019	9.099	9.402	10.50	9.635	8.964	7.682	6.327	6.540	6.545	6.703	6.585	6.460	6.817	7.242	7.365	7.384	7.395	7.563	7.401	8.114	8.282	8.208	8.559	8.078	8.098	7.522	7.591	6.832
370.0	1821	2587	3085	3023	2481	1911	1589	1531	1523	1583	1626	1642	1628	1542	1390	1205	1020	846.9	710.2	612.4	559.7	554.6	448.3	298.3	216.9	174.8	177.5	535.6	2596	7206	6369	1286	22.95	7.265	4.635	3.380	2.865	2.405	2.204	2.224	2.301	2.542	2.870	3.024	3.923	5.058	5.583	7.385	8.045	7.947	8.406	9.735	9.160	8.584	7.751	6.629	6.635	6.497	6.746	6.419	6.588	6.712	7.008	7.312	7.121	7.061	7.227	7.187	7.692	7.551	7.961	7.720	7.671	7.987	7.366	7.330	7.065
375.0	1647	2287	2727	2746	2351	1903	1629	1543	1557	1599	1616	1617	1603	1491	1321	1162	998.8	861.6	742.8	650.8	581.0	541.8	534.5	437.0	292.6	233.2	208.7	260.0	676.8	1747	4829	9623	1906	26.61	7.278	4.682	3.273	2.893	2.449	2.383	2.386	2.478	2.785	2.972	3.809	4.778	5.094	6.500	7.009	6.952	7.508	9.029	8.493	8.055	7.565	6.952	6.853	6.855	6.614	6.505	6.566	6.707	7.013	7.191	7.410	7.112	7.365	7.259	7.457	7.714	7.902	7.639	7.367	7.458	6.831	6.908	6.441
380.0	1518	2076	2522	2514	2255	1901	1660	1583	1565	1616	1616	1610	1608	1472	1285	1130	988.3	873.4	762.6	689.3	616.2	564.3	541.5	543.9	394.7	299.2	266.3	246.7	290.8	508.1	1377	7063	8544	320.4	16.54	6.334	4.283	3.405	2.855	2.665	2.348	2.614	2.683	2.969	3.492	4.354	4.722	5.924	6.411	6.262	6.642	8.585	8.379	7.871	7.650	6.595	7.161	7.058	6.908	6.489	6.857	6.876	6.955	6.863	7.466	7.268	7.210	7.103	7.446	7.694	7.961	7.314	7.218	7.058	6.908	6.772	6.456
385.0	1448	1943	2329	2362	2197	1915	1668	1598	1575	1614	1616	1600	1598	1451	1255	1103	983.7	879.5	785.0	723.8	661.5	614.6	565.9	569.0	501.7	374.3	325.0	286.4	241.5	262.1	463.5	2130	7949	6565	244.4	11.43	6.268	4.229	3.143	2.729	2.334	2.462	2.604	2.751	3.431	4.161	4.443	5.750	6.024	6.274	6.302	8.101	8.048	7.542	7.621	6.873	6.892	7.092	7.078	6.697	6.966	6.881	7.274	7.207	7.023	7.471	7.323	7.390	7.443	7.903	7.529	7.159	6.893	6.580	6.740	6.178	6.381
390.0	1351	1791	2153	2225	2103	1893	1686	1624	1579	1608	1624	1591	1573	1434	1258	1118	1008	921.7	848.8	804.5	756.1	715.9	667.7	628.3	603.3	530.2	424.3	362.3	291.1	257.0	289.9	626.9	2317	5853	4905	996.3	20.34	7.221	4.411	3.328	2.824	2.771	2.673	2.994	3.507	4.050	4.227	5.278	5.556	5.834	6.074	7.744	7.364	7.672	7.363	6.853	6.910	7.200	6.885	6.872	6.528	6.769	6.914	7.238	7.295	7.282	7.101	7.126	7.219	7.507	7.129	6.934	6.856	6.598	6.779	6.265	6.360
395.0	1274	1697	1985	2073	2057	1900	1740	1648	1630	1649	1692	1669	1652	1499	1321	1183	1087	1006	951.8	925.5	908.6	884.6	846.9	796.6	736.4	707.1	637.8	519.5	419.6	361.7	344.8	365.1	661.6	1458	3894	7171	1485	23.74	7.410	4.359	3.448	2.903	2.847	3.214	3.465	3.928	4.301	4.929	5.335	5.564	5.736	7.213	7.323	7.738	7.383	6.954	7.019	7.570	6.978	7.040	7.097	6.852	7.172	7.145	7.567	7.310	7.238	7.261	6.581	7.645	7.536	7.177	6.708	6.768	6.851	6.655	6.631
400.0	1227	1605	1921	2019	2029	1947	1791	1690	1676	1708	1797	1785	1765	1608	1420	1267	1159	1079	1048	1042	1039	1028	1002	965.0	886.8	832.8	813.5	695.3	562.2	466.2	443.2	390.9	360.5	477.8	1144	5491	6251	265.7	15.91	5.940	3.979	3.056	3.209	3.482	3.332	3.691	4.132	5.050	5.608	5.502	5.631	7.151	7.225	7.785	7.517	7.271	7.347	7.513	7.427	7.538	7.133	7.311	7.616	7.133	7.656	7.627	7.566	7.591	7.131	7.751	7.978	7.239	6.788	6.809	7.076	7.034	6.801
405.0	1229	1600	1875	1984	2005	1956	1832	1750	1729	1798	1898	1910	1887	1719	1519	1344	1225	1151	1119	1122	1136	1147	1142	1102	1024	949.9	933.4	866.0	708.7	615.1	569.9	479.3	361.0	310.7	406.5	1694	6050	4723	205.8	8.731	4.941	3.620	3.220	3.575	3.323	3.916	4.133	5.077	5.673	5.221	5.402	7.003	7.472	7.664	7.411	7.421	7.455	7.612	7.835	7.508	7.529	7.636	7.673	7.734	7.929	7.966	7.620	7.716	7.451	8.027	8.244	7.818	7.237	7.028	7.307	6.954	6.948
410.0	1178	1506	1793	1884	1968	1951	1870	1798	1761	1837	1960	1967	1939	1779	1574	1401	1270	1193	1159	1173	1205	1220	1223	1193	1125	1051	996.0	952.0	850.7	737.6	658.1	553.6	413.5	322.2	281.9	520.0	1813	4410	3826	872.1	14.98	4.854	3.906	3.639	3.698	4.107	4.250	5.081	5.371	5.305	5.414	7.204	7.154	7.556	7.290	7.420	7.840	8.044	7.652	7.912	7.572	7.626	7.569	7.619	7.713	7.932	7.660	7.707	7.820	7.864	8.031	7.584	7.286	7.207	7.357	7.025	7.350
415.0	1112	1432	1719	1815	1916	1927	1868	1797	1751	1800	1929	1930	1885	1738	1551	1385	1261	1180	1152	1180	1209	1228	1240	1211	1152	1075	1007	938.9	881.6	806.5	683.0	567.6	436.4	333.9	263.0	262.8	498.7	1082	2957	5210	267.7	16.20	4.961	3.985	3.958	4.279	4.416	4.876	5.200	4.966	5.546	6.790	7.008	7.219	7.278	7.394	8.107	7.749	7.567	7.433	7.307	7.508	7.180	7.518	7.143	7.854	7.321	7.495	7.664	7.723	7.453	7.342	7.317	7.059	6.900	7.208	7.259
420.0	1082	1405	1635	1769	1865	1930	1897	1827	1732	1754	1858	1869	1817	1674	1504	1354	1232	1168	1145	1170	1201	1227	1232	1202	1152	1078	999.7	924.7	860.3	822.0	707.3	573.5	441.8	337.4	257.1	202.3	203.5	291.1	812.1	3957	4406	237.7	8.920	4.645	4.299	4.239	4.312	4.875	5.029	4.915	5.265	6.718	6.825	7.301	7.613	7.477	8.145	7.640	7.905	7.686	7.333	7.143	7.127	7.382	7.295	7.717	6.926	6.955	7.069	7.436	7.051	6.789	7.149	6.758	6.448	6.862	6.814
425.0	1085	1357	1601	1712	1845	1944	1937	1864	1738	1752	1813	1813	1783	1642	1466	1338	1215	1158	1143	1167	1198	1214	1223	1200	1147	1081	1002	930.0	852.4	809.0	742.0	591.4	450.5	345.1	264.9	194.9	141.3	117.4	208.9	1171	4358	2169	35.24	6.291	4.642	4.377	4.398	5.056	5.014	4.803	5.135	6.488	6.898	7.608	7.302	7.513	8.490	7.884	7.732	7.972	7.340	7.201	7.725	7.359	7.093	7.692	6.929	7.022	6.805	7.178	7.167	6.787	6.880	6.816	6.628	6.600	6.444
430.0	1165	1332	1575	1721	1891	2035	2052	1967	1803	1747	1781	1774	1745	1618	1460	1330	1221	1157	1143	1164	1184	1197	1210	1196	1148	1082	1015	949.6	874.2	809.4	758.5	647.5	490.8	374.9	288.9	211.8	141.5	88.01	79.26	281.4	1251	2900	3042	772.3	14.15	5.021	4.777	5.190	5.127	4.832	5.354	6.521	7.029	7.497	7.717	8.079	8.689	8.598	8.614	8.293	7.984	7.421	7.619	7.188	6.965	7.141	6.840	6.793	6.964	6.847	6.831	6.608	6.750	6.889	6.574	6.720	6.788
435.0	1551	1337	1547	1731	1958	2135	2223	2123	1886	1728	1730	1740	1699	1582	1442	1329	1212	1149	1126	1150	1153	1146	1166	1154	1113	1062	1005	944.5	886.9	815.4	745.9	666.7	539.2	406.1	311.2	230.3	154.8	91.46	57.16	85.95	294.6	689.5	2234	4309	252.4	16.56	5.542	5.431	5.194	4.805	4.996	6.605	7.208	7.707	8.040	8.453	9.636	9.371	9.377	8.457	8.380	7.848	7.732	7.019	6.879	6.537	6.672	6.661	6.720	6.695	6.522	6.936	6.856	6.784	6.725	6.386	6.802
440.0	2104	1425	1538	1743	1968	2207	2327	2228	1932	1716	1701	1670	1631	1520	1401	1295	1186	1121	1105	1106	1102	1098	1107	1101	1070	1026	975.2	914.5	866.4	804.4	724.2	641.6	544.6	419.1	315.4	234.2	158.9	94.26	55.84	45.21	83.22	167.2	603.7	3240	3855	223.9	10.16	5.700	5.504	5.072	5.063	6.867	7.333	7.931	8.225	8.933	9.603	9.864	9.764	9.369	8.690	7.981	7.652	7.145	7.143	6.394	6.553	6.321	6.581	6.577	6.345	6.527	6.773	6.506	6.022	6.782	6.465
445.0	2434	1825	1510	1744	2004	2265	2389	2286	1926	1669	1614	1585	1541	1454	1339	1240	1149	1089	1071	1057	1036	1033	1033	1038	1007	966.9	919.5	872.8	825.2	770.2	695.2	605.3	516.5	424.8	317.0	233.2	158.7	96.67	57.90	38.94	39.03	51.97	146.9	956.7	3752	1991	161.7	7.868	5.929	5.062	5.322	6.999	7.305	7.973	8.373	8.872	10.05	10.10	9.950	9.242	8.957	7.855	7.538	7.339	6.615	6.280	6.234	6.433	6.006	6.113	5.940	6.490	6.176	6.318	5.956	6.345	6.538
450.0	1971	2770	1653	1683	1999	2279	2442	2290	1909	1596	1470	1452	1408	1330	1230	1156	1084	1024	1006	987.4	951.2	930.1	936.2	934.9	909.4	877.3	838.3	800.8	759.2	711.6	647.0	557.3	466.7	395.7	316.3	228.0	154.9	97.58	62.06	41.25	31.97	28.75	45.77	224.5	1068	2548	2694	711.2	13.19	5.516	5.415	6.950	7.314	7.898	8.510	8.903	10.13	10.32	10.24	9.493	8.855	7.593	7.438	6.411	6.301	6.039	5.718	5.694	5.639	5.817	5.898	5.908	5.747	5.736	5.979	6.110	6.224
455.0	1262	3033	2471	1596	1931	2243	2440	2244	1840	1483	1339	1308	1265	1211	1128	1053	994.6	953.3	929.9	907.1	853.2	827.3	826.7	827.4	811.8	778.1	760.0	722.4	690.6	651.7	594.2	513.3	429.9	352.1	297.3	232.9	154.7	98.63	65.08	43.97	32.59	26.27	24.99	62.07	247.9	602.4	1754	3544	924.6	14.54	5.749	7.060	7.135	7.782	8.462	8.933	10.20	10.02	10.46	9.338	8.936	7.649	7.039	6.317	5.822	5.832	5.280	5.300	5.284	5.074	5.208	5.644	5.764	5.502	5.633	5.799	5.965
460.0	984.3	2414	3446	1683	1852	2162	2349	2185	1771	1401	1244	1208	1160	1118	1046	981.4	934.3	888.4	868.1	836.5	781.3	748.4	751.4	750.4	739.1	712.6	691.5	667.1	639.9	605.5	551.6	481.2	403.4	330.7	273.5	225.4	160.7	99.16	67.26	46.57	34.82	26.92	22.37	27.75	66.16	144.3	454.9	2409	3144	173.4	10.85	6.925	7.111	7.651	8.434	9.005	9.663	9.968	9.808	8.720	8.617	7.025	6.451	6.103	5.362	5.293	5.049	4.836	4.891	4.861	4.907	5.173	5.035	4.796	5.069	5.390	5.532
465.0	836.3	1630	3865	2190	1768	2079	2237	2093	1693	1330	1153	1114	1082	1028	967.8	910.6	860.2	825.1	800.6	773.4	713.9	678.4	679.5	681.1	672.9	654.5	633.9	614.5	594.1	562.2	516.1	451.1	377.7	312.2	252.0	211.8	162.5	103.9	67.34	49.27	36.95	29.12	23.21	21.04	26.88	42.82	111.5	675.2	2751	2439	145.4	9.052	6.967	7.409	7.983	8.554	9.675	9.676	9.267	8.444	8.133	6.955	6.296	5.616	4.957	4.856	4.756	4.533	4.453	4.635	4.398	4.758	4.764	4.629	4.805	5.092	5.112
470.0	764.8	1114	2714	3450	1823	1871	2046	1918	1545	1187	1022	993.7	959.9	910.5	856.9	803.2	768.6	732.6	710.5	680.0	619.7	585.4	581.8	584.0	579.3	567.6	550.3	535.0	518.9	496.8	460.7	399.8	338.7	280.4	226.9	184.9	148.2	108.7	72.02	50.19	37.97	30.79	24.71	21.45	19.54	21.00	35.10	160.3	753.8	1889	1825	672.5	15.21	7.490	7.707	7.960	8.941	8.838	8.518	7.826	7.280	6.547	5.749	5.048	4.657	4.404	4.214	4.168	4.093	4.146	4.183	4.284	4.171	4.302	4.455	4.387	4.789
475.0	708.0	891.6	1459	3638	2714	1707	1838	1725	1366	1049	890.4	863.4	824.7	782.0	737.1	695.1	665.5	634.1	615.9	578.4	520.4	493.9	488.7	491.2	484.1	478.3	468.5	456.0	441.3	423.9	396.6	347.8	296.7	243.7	202.1	161.0	125.7	102.3	77.99	51.77	39.64	31.34	25.87	22.32	19.38	17.49	18.53	45.36	176.1	435.1	962.7	2314	832.6	18.40	7.455	7.273	8.284	8.014	8.007	7.004	6.549	5.783	5.058	4.420	4.271	3.833	3.612	3.678	3.809	3.592	3.781	3.622	3.864	3.778	3.907	4.093	4.166
480.0	677.3	801.6	1001	2654	3725	1753	1677	1569	1241	964.0	818.7	769.8	747.8	704.0	657.7	622.6	598.4	568.9	552.7	516.1	461.5	434.9	426.9	429.6	424.6	418.2	406.8	401.7	391.9	375.7	351.0	310.4	266.4	221.6	182.6	145.0	113.8	89.55	77.45	56.68	40.39	31.75	26.47	22.90	19.58	17.21	14.90	19.97	47.64	103.7	238.1	1268	2265	211.3	14.04	7.055	7.672	7.395	7.281	6.394	6.166	5.437	4.598	3.953	3.452	3.533	3.497	3.223	3.287	3.410	3.317	3.311	3.439	3.342	3.560	3.615	3.585
485.0	637.4	755.1	856.5	1624	4088	2258	1544	1436	1134	884.0	744.1	702.3	668.6	641.6	591.3	564.4	539.3	518.2	501.1	468.0	414.8	389.4	384.3	384.8	379.4	371.4	365.0	360.5	352.5	338.0	315.1	279.3	243.0	203.3	167.5	134.2	104.9	81.14	71.19	60.37	42.91	32.42	27.56	23.24	20.17	17.61	15.09	14.43	18.83	30.06	59.87	332.5	1635	1731	179.1	9.556	7.450	7.004	6.964	6.348	5.886	5.189	4.417	3.900	3.477	3.384	3.186	2.986	3.065	3.112	3.116	3.101	3.187	3.156	3.505	3.133	3.453
490.0	528.5	719.9	758.8	1028	2821	3556	1617	1268	1008	783.6	659.8	627.8	595.8	560.7	525.4	499.2	475.4	454.4	434.9	406.9	361.9	335.9	328.5	333.2	330.4	323.7	318.2	315.9	310.0	297.1	278.3	248.7	215.3	181.6	150.8	123.5	95.54	74.74	61.61	56.71	49.26	36.03	28.23	23.61	20.66	18.43	15.90	14.03	12.86	13.94	19.55	80.32	421.0	1151	1673	714.1	18.10	6.894	6.433	5.884	5.344	4.655	3.928	3.685	3.323	3.185	3.119	2.732	2.759	2.776	2.785	2.897	2.860	2.814	2.914	2.840	3.098
495.0	435.9	625.2	689.7	795.2	1441	3739	2529	1105	873.8	684.5	581.4	557.5	522.3	487.1	452.9	435.4	404.5	389.4	377.9	346.6	309.5	285.3	280.5	283.9	282.0	279.0	272.2	269.4	265.3	258.7	240.8	218.5	188.3	158.2	132.5	109.6	87.45	68.28	55.81	48.89	48.37	41.32	30.46	23.91	20.89	18.77	16.29	14.20	12.18	10.43	11.04	24.02	99.46	264.0	739.7	2032	1089	23.00	6.090	5.308	4.651	4.208	3.637	3.361	2.963	2.729	2.636	2.686	2.519	2.494	2.523	2.562	2.572	2.742	2.831	2.668	2.528
500.0	391.2	544.0	669.3	700.9	936.2	2652	3659	1141	781.3	610.8	527.0	492.9	464.4	432.4	402.2	383.9	363.7	341.3	330.1	306.4	271.3	247.7	244.5	245.8	248.9	242.4	239.8	235.6	235.7	230.2	216.1	193.2	168.0	142.6	119.8	99.55	80.90	63.39	52.04	44.93	42.82	41.33	34.64	24.95	21.15	19.03	16.41	14.26	12.57	10.43	9.205	11.35	27.75	64.14	177.6	958.9	2176	240.5	17.63	5.418	4.364	3.823	3.414	2.819	2.569	2.511	2.360	2.417	2.391	2.213	2.276	2.390	2.305	2.448	2.327	2.409	2.431
505.0	340.5	470.4	604.0	630.3	757.1	1540	4069	1672	698.5	545.2	465.1	444.2	414.6	384.5	357.3	339.2	328.8	304.1	290.4	272.1	238.6	221.1	217.8	215.3	216.9	215.4	210.7	208.0	206.9	202.2	189.9	171.3	149.9	128.8	108.6	92.00	75.38	59.98	48.88	42.42	37.27	37.69	35.52	26.95	21.20	18.54	16.84	14.21	12.06	10.57	8.751	8.723	11.61	19.56	45.09	236.7	1218	1853	220.6	10.94	4.167	3.647	3.156	2.723	2.381	2.274	2.266	2.420	2.300	1.970	2.208	2.249	2.089	2.110	2.080	2.066	2.299
510.0	299.9	382.3	502.4	576.9	626.4	884.1	2696	3177	811.7	471.7	403.9	385.1	356.4	329.8	304.5	286.8	270.9	256.5	245.7	227.9	200.3	185.1	182.8	181.8	181.1	178.5	177.7	176.4	175.7	170.4	160.9	145.6	129.0	111.3	92.83	79.43	65.65	53.67	44.47	37.64	33.76	31.31	32.38	29.48	22.74	18.30	15.98	13.76	12.01	10.29	9.085	8.068	7.726	9.583	14.65	57.47	298.4	929.9	1405	714.7	17.66	3.590	2.965	2.664	2.286	2.072	2.084	2.070	2.034	1.853	1.816	1.957	1.896	1.866	1.881	1.855	2.055
515.0	273.2	323.9	385.4	514.2	549.9	635.4	1179	3586	1835	417.4	346.9	321.8	303.5	276.7	252.0	239.9	225.4	210.9	204.1	187.7	164.0	153.5	148.8	149.0	147.7	146.6	146.4	145.3	144.6	143.2	132.9	121.8	107.1	92.47	79.50	67.78	57.87	47.18	39.34	34.45	30.68	27.31	26.28	28.10	25.91	18.68	15.62	13.09	11.57	10.07	8.823	8.342	6.864	6.894	7.819	17.13	70.65	211.7	476.7	1425	932.0	24.02	2.857	2.540	2.088	2.035	1.669	1.963	1.599	1.718	1.690	1.702	1.534	1.656	1.568	1.678	1.528
520.0	229.7	283.5	336.3	446.6	497.9	527.3	668.8	2447	3216	514.9	303.0	286.8	263.8	242.0	223.3	206.0	196.0	182.2	175.7	163.4	143.1	131.1	128.0	128.4	127.7	127.5	125.9	125.7	124.8	123.2	116.0	104.6	92.99	80.58	71.24	59.97	50.69	42.38	36.48	31.01	27.71	24.78	23.35	23.72	25.45	20.84	15.42	12.71	11.21	9.624	8.477	8.034	6.942	6.038	6.111	8.127	19.75	51.14	111.8	581.3	1509	248.1	16.96	2.531	2.049	1.870	1.714	1.674	1.542	1.614	1.474	1.577	1.617	1.503	1.576	1.418	1.405
525.0	191.3	245.3	290.2	360.1	472.6	468.7	498.1	1219	3917	1149	273.9	253.8	232.8	213.3	196.6	180.8	169.4	160.6	154.3	141.6	125.4	115.5	113.0	112.6	112.3	111.1	109.5	109.5	110.1	107.0	101.4	92.71	81.93	71.07	61.99	53.91	45.80	39.13	33.52	29.46	26.55	23.08	21.25	19.89	22.23	21.83	16.54	12.72	10.64	9.467	8.049	7.349	7.133	6.257	5.524	5.740	8.268	14.88	28.32	139.0	727.4	1295	225.7	10.01	2.099	1.581	1.584	1.352	1.501	1.365	1.274	1.335	1.401	1.426	1.329	1.329	1.395
530.0	166.4	207.6	242.7	285.8	405.3	417.0	407.6	563.1	2481	2834	439.7	221.6	200.3	180.9	164.3	152.0	142.6	135.5	127.8	117.7	105.0	95.56	94.39	92.90	93.13	92.70	91.37	91.08	91.16	89.74	85.23	77.72	70.74	59.97	52.29	45.58	39.66	33.89	29.56	25.91	23.73	20.74	18.98	17.74	17.50	19.31	17.90	13.29	10.24	8.905	7.571	6.921	6.577	6.011	5.581	4.978	5.442	6.610	9.420	34.02	172.7	568.4	941.6	554.1	17.11	1.974	1.569	1.419	1.324	1.317	1.195	1.290	1.142	1.220	1.220	1.170	1.249
535.0	150.1	165.1	196.1	223.8	300.4	386.3	333.3	348.8	865.4	3499	1526	194.4	171.4	149.1	134.5	125.1	120.3	112.1	104.7	97.73	85.84	79.47	77.03	75.06	76.70	75.88	74.17	75.31	74.92	74.33	69.24	63.85	58.42	50.62	43.89	39.85	33.67	28.83	25.65	22.75	20.56	18.21	16.85	15.52	15.47	14.81	16.02	14.51	10.25	8.114	7.118	6.273	6.064	5.493	5.325	4.814	4.500	4.640	5.030	10.09	40.65	128.9	284.1	909.0	702.7	24.04	1.802	1.303	1.132	1.029	1.109	1.088	1.068	1.063	1.078	1.170	1.160
540.0	129.2	147.7	173.0	190.0	241.4	337.8	305.8	274.9	366.9	2222	3144	230.0	147.0	128.2	116.5	110.2	100.6	96.09	89.85	81.68	73.55	68.60	65.40	65.76	64.59	64.20	63.91	63.79	64.14	63.62	59.48	55.45	49.93	44.34	38.03	34.56	29.69	25.67	22.71	20.31	17.97	16.34	14.81	14.49	13.64	12.74	13.71	13.94	11.14	7.874	6.672	5.946	5.301	5.031	4.817	4.675	4.367	3.846	3.643	4.514	11.16	30.63	65.97	335.7	997.6	251.7	16.65	1.625	1.196	1.079	1.062	1.050	1.014	1.024	0.947	0.879	0.955
545.0	109.3	138.7	153.2	168.5	199.2	291.0	292.0	233.4	230.7	916.9	3905	789.1	134.7	112.9	102.7	95.52	88.33	83.70	77.33	70.60	63.55	59.69	56.11	56.07	56.03	55.52	55.43	54.69	55.02	54.32	52.50	48.72	43.43	38.21	34.33	30.04	26.21	23.49	20.52	17.98	16.50	14.74	13.70	13.23	11.65	11.31	11.09	12.33	11.45	8.494	6.231	5.513	4.930	4.772	4.367	4.621	4.302	3.427	3.194	3.108	4.502	8.834	16.58	79.10	439.0	879.8	216.5	7.905	1.347	1.185	1.172	1.022	0.988	0.855	0.837	0.910	0.857
550.0	99.91	114.0	125.2	136.8	161.1	212.0	271.1	198.3	172.7	325.0	2288	2399	234.9	95.22	84.97	77.07	71.05	67.78	63.13	57.43	51.23	47.27	46.04	45.12	45.55	45.00	44.43	45.20	44.60	43.77	42.38	39.34	35.51	31.59	28.21	24.88	22.07	19.10	17.32	15.55	14.17	13.17	12.01	10.85	10.14	9.781	9.087	9.241	10.15	8.653	6.536	4.999	4.406	4.179	3.918	3.845	4.091	3.681	2.910	2.755	2.918	3.693	5.464	19.28	103.2	363.1	618.6	375.7	16.25	1.509	1.105	1.046	0.958	0.872	0.781	0.803	0.789
555.0	85.70	106.0	102.8	111.4	133.2	151.0	216.7	191.2	136.5	156.5	683.0	3239	1026	82.71	70.38	62.49	57.51	54.23	50.17	45.72	40.44	38.33	36.43	36.64	36.39	34.97	35.59	34.59	35.01	34.05	33.54	30.78	28.78	25.17	22.08	20.43	17.56	15.83	14.36	13.14	11.73	10.85	10.27	9.252	8.609	8.084	7.601	6.953	7.334	7.904	6.937	4.854	4.034	3.552	3.468	3.302	3.290	3.327	3.053	2.530	2.207	2.631	2.708	5.860	24.48	82.47	184.1	562.6	258.7	20.92	1.377	1.135	0.937	0.873	0.686	0.763	0.599
560.0	79.03	88.24	97.05	93.40	106.0	118.5	162.5	192.5	123.1	106.9	228.9	2025	2481	125.5	58.79	52.33	48.50	44.98	41.66	38.39	34.34	31.53	30.17	29.97	30.20	29.19	29.05	28.72	29.71	28.97	27.92	26.01	23.68	20.80	18.77	17.53	15.16	13.09	12.03	11.15	10.20	9.091	8.930	7.823	7.556	6.734	6.424	5.889	5.746	6.184	6.460	5.115	3.806	3.285	3.102	3.010	2.929	2.824	2.960	2.634	2.233	2.276	2.188	3.041	7.035	20.00	43.00	203.4	555.5	234.6	13.06	1.151	0.997	0.828	0.738	0.619	0.650
565.0	79.46	83.42	87.95	80.94	92.83	95.05	123.4	181.1	117.0	91.09	111.9	773.7	3299	480.9	50.91	45.74	39.78	38.60	35.27	31.13	28.00	26.01	25.67	25.49	25.41	24.36	24.02	24.46	25.04	23.83	22.68	22.04	19.40	18.20	15.87	13.96	12.78	11.33	10.68	9.504	8.529	8.271	7.448	6.921	6.754	6.129	5.573	5.204	5.014	4.965	5.710	5.244	3.742	3.099	2.871	2.825	2.826	2.707	2.636	3.095	2.324	2.197	2.106	2.364	3.294	6.196	11.37	48.36	247.3	529.3	176.4	5.474	1.067	0.763	0.769	0.716	0.704
570.0	78.39	80.80	75.73	71.81	74.04	78.84	93.00	135.2	129.6	77.48	78.16	236.5	1977	1799	89.71	37.01	32.76	30.73	28.03	25.49	22.86	21.11	20.21	19.80	20.43	19.57	19.61	19.60	19.74	18.89	18.70	17.31	15.58	14.61	12.77	11.53	10.25	9.443	8.539	7.833	7.311	6.733	6.277	5.956	5.429	5.134	4.902	4.298	3.908	3.794	4.094	4.692	3.951	2.997	2.600	2.563	2.457	2.341	2.463	2.621	2.688	2.522	2.302	2.289	2.699	3.229	4.317	12.59	58.99	210.3	365.2	147.2	14.30	1.104	0.798	0.627	0.587
575.0	67.09	78.88	70.82	62.30	59.57	64.74	71.94	82.58	132.6	80.35	65.07	96.09	568.8	2539	674.1	31.76	27.26	24.06	22.00	20.92	17.48	16.76	16.66	15.70	15.90	15.93	15.46	15.13	15.49	15.01	14.67	13.59	12.77	11.52	10.59	9.111	8.316	7.509	6.888	6.651	6.092	5.269	5.125	4.588	4.515	4.405	3.811	3.411	3.345	3.273	2.960	3.626	3.589	3.218	2.495	2.392	2.201	2.188	2.102	2.245	2.415	2.855	2.438	2.222	2.639	2.558	3.013	4.630	14.89	48.65	106.4	298.1	234.1	18.03	0.983	0.707	0.531
580.0	65.67	68.38	70.54	53.56	55.47	55.05	58.54	62.84	115.9	98.01	59.97	67.39	171.4	1589	1773	56.71	23.97	20.76	18.29	16.98	15.29	14.48	13.96	12.84	13.51	13.71	13.35	12.72	12.68	12.70	12.89	11.45	10.42	9.736	8.617	7.799	6.805	6.401	6.120	5.567	4.917	4.746	4.604	4.098	3.912	3.650	3.396	3.048	3.093	2.760	2.598	2.705	3.086	3.382	2.553	2.250	1.999	1.998	1.962	2.142	2.188	2.572	2.646	2.508	2.348	2.478	2.398	2.859	5.289	12.60	25.55	108.8	336.1	179.5	9.655	0.821	0.642
585.0	75.81	65.58	67.75	50.67	48.27	49.16	50.27	54.92	84.92	111.8	60.79	56.40	73.81	589.2	2423	258.7	20.87	18.46	15.95	14.62	13.33	12.60	11.94	11.53	11.14	11.53	11.22	11.48	10.48	10.76	10.75	10.12	8.998	8.549	7.599	6.861	6.190	5.405	5.056	4.858	4.549	4.022	3.958	3.726	3.350	3.134	3.013	2.861	2.630	2.376	2.161	2.146	2.405	2.980	2.728	2.198	1.778	1.859	1.771	2.169	1.961	2.186	2.574	2.528	2.205	2.287	2.178	2.437	2.926	4.444	7.267	26.31	144.3	316.2	113.9	3.510	0.791
590.0	68.28	71.43	63.62	45.41	42.26	43.27	45.68	47.19	57.67	104.0	72.39	51.18	49.00	167.6	1443	1199	46.90	15.35	13.36	12.24	10.78	10.24	9.498	9.499	9.461	9.158	8.801	8.635	8.683	8.762	8.590	8.220	7.139	6.911	6.080	5.804	4.863	4.701	4.305	3.814	3.616	3.342	3.238	3.068	2.876	2.699	2.714	2.399	2.248	2.138	1.888	1.823	1.864	2.221	2.402	2.339	1.849	1.794	1.592	1.757	1.721	1.842	2.084	2.286	2.084	2.252	2.032	2.089	2.199	2.516	3.082	7.326	34.27	121.7	214.8	118.1	12.59
595.0	62.95	62.74	57.76	47.59	39.29	40.67	39.85	40.53	46.41	78.48	94.34	51.42	44.79	63.88	404.0	1741	371.0	13.21	11.06	10.02	8.801	8.589	7.744	7.453	7.970	6.860	6.630	7.066	7.184	7.191	6.803	6.404	5.817	5.482	4.729	4.519	4.146	3.852	3.571	3.143	2.972	2.782	2.653	2.505	2.415	2.412	2.157	1.907	1.815	1.719	1.619	1.546	1.415	1.457	1.915	2.138	1.856	1.510	1.427	1.490	1.469	1.779	1.583	1.751	2.185	1.896	1.892	1.967	1.821	1.890	2.064	2.800	8.454	27.93	60.81	176.6	156.3
600.0	58.18	65.68	58.02	44.28	36.95	36.99	41.86	41.63	44.14	67.44	103.3	63.39	46.45	41.89	114.9	1146	808.5	24.67	10.03	8.776	7.731	6.966	6.793	6.344	6.560	6.031	5.829	6.123	6.448	6.091	5.716	5.432	4.948	4.539	3.976	3.939	3.620	3.337	3.021	2.681	2.732	2.373	2.222	2.219	2.030	2.182	1.789	1.733	1.586	1.588	1.367	1.400	1.268	1.222	1.579	1.940	1.937	1.676	1.316	1.318	1.377	1.465	1.438	1.491	1.674	2.019	1.864	1.698	1.721	1.565	1.621	1.603	2.782	6.938	14.36	62.89	199.7
605.0	71.77	62.95	59.44	47.27	39.86	37.03	41.08	45.83	47.12	60.24	101.3	80.16	50.96	43.12	49.05	436.5	1498	81.34	9.552	7.953	6.615	6.040	5.775	5.376	5.660	5.255	5.260	5.271	5.426	5.181	5.128	4.690	4.535	3.980	3.378	3.286	3.383	2.773	2.517	2.265	2.302	2.157	2.065	1.959	1.777	1.861	1.610	1.599	1.435	1.467	1.261	1.095	1.206	1.183	1.319	1.661	1.777	1.669	1.228	1.238	1.311	1.247	1.328	1.362	1.497	1.882	1.919	1.623	1.599	1.363	1.405	1.273	1.397	2.227	3.882	14.86	80.95
610.0	68.21	75.40	66.30	51.16	40.48	40.55	48.48	51.27	55.68	66.53	93.94	111.0	69.54	51.95	44.11	129.8	1027	771.9	23.77	7.120	5.589	5.167	4.926	4.951	4.785	4.616	4.346	4.463	4.324	4.340	4.217	4.085	3.658	3.348	2.937	2.736	2.660	2.327	2.221	1.978	1.898	1.861	1.780	1.575	1.557	1.461	1.409	1.445	1.235	1.197	1.017	1.079	1.009	0.939	1.117	1.251	1.508	1.577	1.395	1.239	1.236	1.211	1.286	1.278	1.425	1.508	1.720	1.559	1.499	1.358	1.315	1.307	1.195	1.229	1.569	3.951	19.16
615.0	58.72	85.53	65.88	53.95	40.19	41.32	50.50	53.96	62.00	68.52	84.30	115.9	93.91	57.44	46.20	56.11	310.0	1239	200.9	6.552	5.208	4.720	4.317	4.057	3.753	3.709	3.981	3.523	3.435	3.431	3.436	3.261	3.034	2.798	2.449	2.272	2.267	1.882	2.084	1.695	1.570	1.649	1.402	1.426	1.319	1.225	1.213	1.041	1.086	0.967	0.966	1.007	0.887	0.895	1.009	0.990	1.220	1.338	1.434	1.362	1.194	1.175	1.106	1.220	1.188	1.331	1.466	1.530	1.491	1.493	1.355	1.353	1.128	1.006	1.049	1.440	4.911
620.0	65.84	85.26	65.31	54.76	41.80	43.17	48.05	54.23	60.41	68.93	80.08	104.3	105.4	62.63	47.63	40.26	96.26	903.4	593.7	10.68	4.555	4.275	3.761	3.302	3.587	3.109	3.328	3.475	3.074	3.094	2.987	2.856	2.695	2.488	2.016	1.976	1.847	1.784	1.928	1.585	1.485	1.447	1.298	1.231	1.168	1.082	1.091	1.063	0.966	0.883	0.892	0.831	0.839	0.748	0.790	0.902	1.063	1.080	1.206	1.303	1.058	1.026	1.047	1.123	1.199	1.090	1.239	1.360	1.514	1.487	1.245	1.104	1.001	0.865	0.898	0.899	1.595
625.0	73.36	84.35	74.92	59.50	46.15	41.92	47.21	54.61	58.93	67.01	77.18	90.81	109.9	67.59	48.69	36.12	44.84	376.2	1075	50.61	4.556	4.017	3.630	3.145	3.310	2.459	2.812	2.612	2.764	2.735	2.629	2.563	2.162	2.108	1.853	1.921	1.694	1.746	1.603	1.414	1.203	1.216	1.136	1.216	1.168	0.955	0.959	0.955	0.897	0.797	0.711	0.811	0.724	0.718	0.697	0.789	0.914	0.929	1.122	1.215	1.064	0.985	1.026	1.005	1.113	1.117	1.272	1.119	1.259	1.519	1.214	1.139	1.032	0.868	0.707	0.781	0.951
630.0	80.06	84.38	73.36	60.57	45.83	42.00	48.62	53.63	56.47	66.47	75.86	85.73	103.0	77.69	51.37	36.63	32.57	106.0	813.2	433.9	10.25	3.403	3.219	2.816	2.745	2.300	2.432	2.274	2.493	2.332	2.176	2.106	1.830	1.861	1.618	1.616	1.397	1.417	1.235	1.234	1.013	0.999	0.968	0.950	0.901	0.997	0.953	0.823	0.860	0.766	0.642	0.704	0.663	0.652	0.729	0.693	0.764	0.811	0.899	1.038	1.006	0.943	0.896	0.957	0.997	0.951	1.186	1.067	1.150	1.291	1.275	1.108	0.973	0.831	0.714	0.667	0.704
635.0	78.79	82.43	75.97	63.74	45.73	44.90	49.97	53.63	57.15	65.20	71.95	83.40	90.53	91.69	57.70	37.52	31.18	36.51	249.7	923.7	62.72	3.496	2.986	2.535	2.212	2.096	2.079	1.998	2.203	1.972	1.917	1.598	1.576	1.429	1.615	1.310	1.293	1.222	1.084	1.131	0.921	0.960	0.812	0.727	0.807	0.757	0.787	0.859	0.703	0.631	0.658	0.728	0.620	0.640	0.589	0.588	0.640	0.753	0.766	0.911	0.881	0.872	0.774	0.813	0.876	0.882	1.044	1.074	0.944	0.967	1.119	1.135	0.994	0.845	0.745	0.657	0.572
640.0	77.00	87.84	75.29	61.35	44.97	42.38	50.21	53.55	56.71	66.60	74.31	80.96	85.95	94.52	61.69	39.46	29.89	21.84	66.74	749.6	403.3	5.223	2.856	2.267	2.179	2.153	1.845	1.697	2.046	1.645	1.658	1.499	1.610	1.325	1.342	1.204	1.197	0.999	0.925	0.986	0.832	0.835	0.851	0.739	0.846	0.662	0.793	0.749	0.703	0.623	0.600	0.593	0.559	0.606	0.601	0.691	0.650	0.642	0.798	0.761	0.895	0.761	0.815	0.747	0.801	0.954	0.886	1.017	0.960	0.876	1.064	1.191	1.069	0.814	0.724	0.710	0.658
645.0	68.46	92.84	80.79	60.13	46.38	44.53	48.76	51.94	56.05	64.89	70.38	81.09	81.35	88.97	70.96	40.62	29.97	18.65	22.00	344.9	772.0	29.62	2.676	2.017	1.927	1.847	1.650	1.501	1.796	1.550	1.567	1.518	1.281	1.149	1.328	1.176	1.109	0.986	0.879	0.824	0.766	0.789	0.742	0.752	0.803	0.675	0.762	0.743	0.662	0.653	0.587	0.566	0.588	0.582	0.577	0.562	0.606	0.577	0.680	0.666	0.774	0.811	0.828	0.815	0.707	0.825	0.877	0.906	0.913	0.942	1.005	0.999	0.996	0.813	0.710	0.793	0.878
650.0	83.39	91.13	87.45	65.96	47.52	45.39	50.71	54.63	54.02	63.10	70.03	80.24	81.59	79.43	72.81	42.15	31.06	18.57	12.46	102.2	809.7	177.1	2.716	2.165	1.923	1.695	1.474	1.631	1.470	1.571	1.410	1.288	1.384	1.098	1.137	0.989	1.081	0.975	0.868	0.757	0.797	0.745	0.679	0.746	0.635	0.669	0.674	0.693	0.633	0.655	0.601	0.593	0.486	0.582	0.516	0.623	0.560	0.639	0.664	0.738	0.750	0.736	0.781	0.777	0.768	0.853	0.877	0.845	0.886	0.933	0.983	1.030	0.955	0.895	0.821	0.781	0.731
