Sample:	'1
File name:	G2025062001–§’Ú«≈ 5±∂.FD3
Run date:	'10:59:55, 06/24/2025
Operator:	Administrator
Comment:	'

Instrument
Model:	F-2700 FL Spectrophotometer
Serial number:	23B8-004
ROM Version:	4J14000 07

Instrument parameters
Measurement type:	3-D scan
Data mode:	Fluorescence
EX  Start WL:	220.0 nm
EX  End WL:	600.0 nm
EX Sampling interval:	5.0 nm
EM  Start WL:	230.0 nm
EM  End WL:	650.0 nm
EM Sampling interval:	5.0 nm
Scan speed:	12000 nm/min
EX Slit:	5.0 nm
EM Slit:	5.0 nm
PMT Voltage:	700 V
Response:	Auto 
Corrected spectra:	Off
Contour interval:	50.000

Peak integration
Integration method:	Rectangular
Sensitivity:	1
Threshold:	1.000

Peaks
No.	ApexEX/EM(nm)	Height(Data)
1	230.0/345.0	2445
2	240.0/265.0	411.4
3	245.0/270.0	459.1
4	250.0/275.0	592.0
5	255.0/280.0	609.8
6	255.0/560.0	185.3
7	260.0/290.0	548.4
8	260.0/575.0	132.6
9	265.0/295.0	674.7
10	265.0/585.0	109.5
11	270.0/300.0	925.6
12	270.0/600.0	90.32
13	275.0/305.0	1010
14	275.0/415.0	2858
15	275.0/430.0	2866
16	275.0/610.0	79.38
17	280.0/345.0	1038
18	280.0/625.0	65.91
19	285.0/320.0	922.6
20	285.0/635.0	53.38
21	290.0/325.0	892.1
22	315.0/355.0	587.8
23	335.0/415.0	1411
24	460.0/345.0	6.827
25	485.0/265.0	2.113
26	495.0/270.0	2.374
27	505.0/275.0	3.285
28	505.0/450.0	8.871
29	510.0/280.0	3.942
30	515.0/440.0	8.991
31	520.0/285.0	3.746
32	530.0/290.0	3.396
33	535.0/415.0	8.420
34	540.0/295.0	4.533
35	545.0/300.0	4.990
36	550.0/305.0	5.565
37	550.0/425.0	8.313
38	555.0/430.0	8.309
39	560.0/310.0	5.020
40	570.0/315.0	5.398
41	570.0/420.0	8.451

Data points
	220.0	225.0	230.0	235.0	240.0	245.0	250.0	255.0	260.0	265.0	270.0	275.0	280.0	285.0	290.0	295.0	300.0	305.0	310.0	315.0	320.0	325.0	330.0	335.0	340.0	345.0	350.0	355.0	360.0	365.0	370.0	375.0	380.0	385.0	390.0	395.0	400.0	405.0	410.0	415.0	420.0	425.0	430.0	435.0	440.0	445.0	450.0	455.0	460.0	465.0	470.0	475.0	480.0	485.0	490.0	495.0	500.0	505.0	510.0	515.0	520.0	525.0	530.0	535.0	540.0	545.0	550.0	555.0	560.0	565.0	570.0	575.0	580.0	585.0	590.0	595.0	600.0
230.0	107.4	1799	2463	480.2	19.13	7.797	6.078	5.258	4.751	3.980	3.839	3.371	2.696	2.410	2.272	1.956	1.770	1.609	1.369	1.374	1.336	1.134	1.291	1.111	0.964	0.889	0.977	0.811	0.809	0.820	0.695	0.794	0.634	0.627	0.501	0.516	0.493	0.507	0.368	0.410	0.515	0.681	0.578	0.425	0.340	0.490	1.975	5.898	7.555	4.075	1.440	0.407	0.310	0.292	0.268	0.263	0.312	0.308	0.294	0.290	0.311	0.273	0.286	0.262	0.288	0.283	0.292	0.287	0.271	0.308	0.270	0.293	0.280	0.283	0.304	0.276	0.289
235.0	136.6	528.9	2028	2708	468.6	23.15	6.911	5.532	4.525	4.615	4.249	3.593	2.914	2.476	2.482	2.217	1.714	1.498	1.339	1.352	1.409	1.095	1.389	1.120	0.983	0.824	0.935	0.774	0.964	0.833	0.753	0.795	0.659	0.599	0.632	0.492	0.588	0.495	0.410	0.426	0.449	0.489	0.602	0.799	0.489	0.517	0.740	1.779	3.765	5.733	9.107	7.296	2.596	0.713	0.321	0.303	0.293	0.252	0.290	0.283	0.301	0.261	0.290	0.247	0.240	0.285	0.281	0.293	0.286	0.249	0.267	0.301	0.291	0.258	0.303	0.296	0.282
240.0	214.7	208.5	694.7	2921	2152	315.9	13.95	5.648	5.847	5.138	4.194	3.609	3.076	2.601	2.330	2.065	1.927	1.773	1.259	1.512	1.401	1.113	1.234	1.253	1.019	0.945	0.886	0.890	0.861	0.917	0.798	0.838	0.681	0.605	0.609	0.519	0.657	0.504	0.445	0.441	0.480	0.472	0.437	0.715	0.766	0.911	0.603	0.669	1.160	2.050	6.351	11.42	11.40	6.078	1.724	0.467	0.328	0.275	0.319	0.272	0.246	0.255	0.268	0.292	0.245	0.224	0.277	0.321	0.336	0.287	0.340	0.236	0.313	0.264	0.285	0.295	0.328
245.0	174.9	233.6	208.3	1172	2804	1965	263.6	8.239	7.844	4.904	4.593	3.841	3.142	3.026	2.336	2.347	2.108	1.960	1.204	1.452	1.304	1.243	1.710	1.188	1.086	0.946	1.041	0.899	0.744	0.821	0.771	0.787	0.641	0.618	0.632	0.461	0.522	0.486	0.398	0.481	0.440	0.428	0.382	0.430	0.593	0.903	0.879	0.683	0.645	0.694	1.769	4.518	9.907	13.47	9.824	5.746	1.411	0.352	0.326	0.315	0.325	0.274	0.297	0.259	0.251	0.286	0.350	0.254	0.270	0.263	0.265	0.281	0.283	0.270	0.277	0.303	0.291
250.0	75.93	197.5	265.8	349.2	1010	2771	3410	857.6	46.61	6.389	5.147	4.352	3.218	3.099	3.011	2.763	2.075	1.783	1.604	1.642	1.416	1.183	1.539	1.146	1.078	1.072	0.960	0.927	0.792	0.830	0.840	0.742	0.730	0.680	0.598	0.500	0.517	0.459	0.420	0.451	0.462	0.416	0.454	0.404	0.465	0.537	0.717	0.960	1.051	0.919	0.808	1.316	2.714	5.007	7.669	14.57	17.49	12.85	9.158	1.847	0.373	0.325	0.303	0.286	0.295	0.298	0.304	0.278	0.265	0.303	0.330	0.257	0.306	0.283	0.296	0.282	0.274
255.0	42.36	71.65	228.6	343.9	298.9	795.4	3253	4637	1394	29.72	8.487	6.078	4.066	3.619	3.088	2.688	2.166	1.973	1.526	1.555	1.572	1.334	1.674	1.270	0.849	0.990	0.942	1.073	0.829	0.804	0.763	0.771	0.691	0.818	0.663	0.527	0.548	0.428	0.383	0.475	0.480	0.520	0.434	0.448	0.417	0.502	0.426	0.503	0.660	1.067	1.240	1.312	1.072	1.377	1.988	3.998	8.033	17.71	38.79	25.86	8.986	2.322	0.341	0.300	0.324	0.265	0.280	0.267	0.274	0.287	0.327	0.276	0.278	0.265	0.320	0.227	0.309
260.0	36.49	41.57	104.9	337.0	302.5	240.4	1092	4601	6286	240.2	19.71	7.163	5.450	4.091	3.677	3.372	2.428	1.958	1.717	1.705	1.660	1.338	1.570	1.412	1.180	0.993	1.032	0.990	0.850	0.861	0.878	0.795	0.671	0.729	0.631	0.557	0.499	0.475	0.379	0.511	0.453	0.533	0.497	0.420	0.416	0.520	0.396	0.373	0.414	0.584	0.886	1.820	1.761	1.077	0.844	1.255	2.245	5.329	19.81	31.86	30.34	25.28	6.054	0.791	0.361	0.316	0.304	0.296	0.309	0.326	0.355	0.295	0.279	0.256	0.295	0.258	0.362
265.0	34.41	34.10	45.72	189.7	411.4	247.2	314.8	1837	7824	2064	187.1	10.41	7.035	5.048	4.164	3.420	2.703	2.329	2.005	1.886	1.631	1.435	1.637	1.441	1.265	1.137	1.274	0.915	0.955	0.950	0.914	0.784	0.646	0.763	0.638	0.639	0.565	0.570	0.399	0.506	0.430	0.555	0.426	0.450	0.395	0.461	0.399	0.346	0.360	0.396	0.480	1.043	1.988	2.113	1.425	0.859	1.065	1.680	5.157	10.55	19.85	49.72	30.36	14.17	2.917	0.454	0.299	0.271	0.295	0.309	0.398	0.275	0.305	0.326	0.329	0.318	0.337
270.0	41.53	41.16	39.91	85.39	258.5	459.1	324.1	499.2	2728	4461	5319	736.6	32.66	6.640	5.818	4.532	3.278	2.869	1.925	2.114	1.859	1.648	1.995	1.544	1.266	1.056	1.193	1.023	0.925	1.036	0.940	0.932	0.840	0.842	0.668	0.644	0.596	0.558	0.538	0.508	0.413	0.509	0.464	0.496	0.428	0.517	0.445	0.391	0.327	0.402	0.380	0.553	0.907	1.477	2.120	2.374	2.160	1.369	1.779	2.857	5.069	15.35	18.58	23.34	29.02	29.33	11.70	3.014	0.429	0.332	0.377	0.359	0.337	0.326	0.336	0.320	0.354
275.0	90.43	80.29	66.77	64.16	138.6	318.4	592.0	369.3	676.5	1203	5284	8115	940.6	25.46	8.730	5.379	4.509	3.680	2.314	2.427	1.946	1.848	2.159	1.872	1.198	1.180	1.292	0.856	1.031	1.041	0.921	1.009	0.883	0.905	0.732	0.748	0.643	0.645	0.599	0.539	0.516	0.565	0.481	0.491	0.471	0.606	0.541	0.524	0.417	0.456	0.415	0.513	0.626	0.890	1.134	1.664	2.936	3.285	2.597	1.425	1.656	3.882	4.582	5.883	10.25	25.83	43.34	31.16	15.98	2.519	0.503	0.451	0.388	0.366	0.340	0.383	0.386
280.0	143.0	130.2	98.98	73.98	118.2	205.3	456.8	609.8	302.0	335.1	1643	7133	6216	142.1	19.41	7.298	5.418	4.463	2.536	2.577	2.243	1.857	2.231	1.832	1.344	1.186	1.270	1.090	1.088	1.076	0.986	0.957	0.839	1.066	0.888	0.779	0.901	0.705	0.521	0.651	0.492	0.666	0.554	0.619	0.534	0.627	0.620	0.590	0.562	0.495	0.528	0.551	0.672	0.764	0.857	1.109	1.578	2.645	3.942	3.161	1.655	1.463	1.579	1.907	2.924	7.031	17.18	30.69	42.02	27.92	14.92	1.360	0.387	0.391	0.384	0.421	0.434
285.0	204.2	184.0	133.1	102.2	119.7	163.6	254.9	593.6	360.3	186.7	471.7	2351	7043	5252	114.8	10.99	6.900	5.343	2.920	3.055	2.589	2.026	2.409	1.735	1.363	1.291	1.309	1.232	1.227	1.058	1.015	1.089	0.915	1.070	0.964	0.930	0.970	0.899	0.734	0.759	0.698	0.699	0.649	0.750	0.674	0.720	0.738	0.767	0.702	0.612	0.588	0.632	0.639	0.765	0.899	0.907	1.087	1.418	2.305	3.559	3.746	2.236	1.178	1.066	1.341	2.231	4.576	8.824	19.71	36.21	69.92	23.34	8.759	0.763	0.440	0.435	0.470
290.0	258.4	255.6	203.9	135.0	123.6	152.6	175.7	292.6	548.4	483.2	279.2	672.9	2217	5453	7723	447.3	27.96	7.418	3.821	3.803	3.158	2.434	2.847	1.991	1.587	1.411	1.377	1.297	1.109	1.119	1.078	1.108	0.918	1.089	1.152	1.095	1.012	0.947	0.747	0.971	0.700	0.846	0.749	0.827	0.768	0.952	0.911	0.968	0.883	0.742	0.694	0.768	0.726	0.800	0.842	0.896	0.960	1.033	1.260	1.711	2.444	3.138	3.396	2.632	1.606	1.453	1.938	2.825	5.323	10.21	28.97	29.06	43.68	31.72	17.01	7.668	0.925
295.0	326.2	325.1	272.7	178.2	147.0	150.4	163.7	191.4	298.7	674.7	647.0	382.5	653.3	1393	5409	9494	651.6	24.46	5.257	5.203	3.975	2.644	3.547	2.323	1.682	1.419	1.482	1.505	1.091	1.228	1.107	1.145	1.017	1.293	1.158	1.204	1.187	1.135	0.914	0.842	0.758	0.955	0.880	0.829	0.957	1.108	0.993	1.204	1.067	0.909	0.826	0.826	0.719	0.891	0.824	0.912	0.900	0.946	1.118	1.231	1.357	1.641	2.378	3.683	4.533	2.904	1.789	1.801	2.260	3.341	7.336	7.343	11.75	17.67	39.69	56.95	25.45
300.0	366.2	384.9	313.3	204.0	161.4	167.6	188.7	196.1	254.0	474.4	925.6	577.4	380.6	469.8	1534	8113	5878	88.68	10.38	6.391	5.103	3.250	3.835	2.535	1.815	1.769	1.657	1.579	1.233	1.385	1.213	1.115	0.979	1.355	1.151	1.256	1.266	1.144	1.032	0.892	0.820	0.954	0.977	0.906	0.961	1.253	1.193	1.230	1.209	0.958	0.955	0.846	0.806	0.917	0.925	1.019	1.006	1.105	1.164	1.237	1.381	1.541	1.774	2.528	4.027	4.990	4.119	2.435	1.781	2.117	2.735	2.572	3.625	4.917	12.25	31.52	50.17
305.0	422.8	416.2	366.6	241.2	196.1	198.3	230.6	249.7	306.3	424.3	794.2	1010	502.2	347.8	513.5	2629	8476	4705	69.46	9.325	6.847	3.822	4.757	2.847	1.854	1.771	1.995	1.663	1.366	1.579	1.518	1.229	1.078	1.407	1.407	1.384	1.405	1.117	1.119	1.150	1.037	0.996	1.045	1.065	1.095	1.356	1.325	1.361	1.234	1.084	0.987	0.989	1.077	1.003	0.913	1.118	1.119	1.328	1.405	1.524	1.739	1.640	1.876	2.230	3.000	4.131	5.565	5.300	3.205	2.381	2.181	1.819	2.092	2.283	3.750	8.282	19.63
310.0	464.3	468.1	407.6	284.0	229.4	226.5	267.9	309.8	367.6	454.0	622.5	919.1	913.1	490.6	351.3	740.6	2562	5418	4458	1360	23.58	5.469	6.179	3.718	2.321	1.843	1.985	1.914	1.585	1.511	1.433	1.265	1.104	1.441	1.298	1.380	1.436	1.309	1.140	1.256	0.997	1.090	1.069	1.185	1.118	1.476	1.418	1.475	1.406	1.191	1.123	1.177	1.145	1.151	1.093	1.142	1.441	1.475	1.668	1.863	1.964	1.965	2.215	2.501	2.698	3.242	3.841	4.772	5.020	4.962	3.749	2.482	2.191	2.073	2.122	2.910	5.468
315.0	512.9	558.4	485.5	335.4	270.2	265.6	301.9	346.5	408.5	503.5	593.9	707.6	862.6	875.2	435.5	360.4	723.0	1341	3126	8378	514.8	20.37	9.182	4.991	2.892	2.325	2.295	1.869	1.740	1.759	1.378	1.313	1.296	1.504	1.415	1.483	1.392	1.308	1.288	1.359	1.033	1.155	1.051	1.227	1.148	1.652	1.506	1.782	1.587	1.439	1.234	1.272	1.298	1.325	1.325	1.426	1.572	1.912	1.869	1.786	1.999	2.314	2.259	2.553	2.749	3.233	3.224	3.507	4.001	4.381	5.398	4.730	3.400	2.520	1.866	1.971	2.465
320.0	621.6	757.3	623.0	434.6	314.5	293.2	334.4	382.0	451.3	528.0	634.2	706.6	746.9	922.6	702.5	347.5	350.0	415.6	869.0	6041	9071	381.9	18.50	6.561	3.428	2.635	2.538	2.361	1.951	1.871	1.343	1.581	1.288	1.648	1.398	1.401	1.271	1.191	1.103	1.243	1.256	1.447	1.306	1.461	1.566	1.866	1.892	2.159	1.958	1.682	1.431	1.463	1.384	1.475	1.470	1.559	1.517	1.973	1.913	2.046	2.155	2.424	2.565	2.762	2.967	3.275	3.367	3.571	3.792	3.849	4.182	4.711	5.030	4.099	2.550	1.962	2.130
325.0	875.1	1101	1005	709.6	435.3	344.1	380.0	434.1	494.4	586.7	696.6	774.2	775.5	805.8	892.1	513.1	308.3	236.2	275.0	1734	8269	3799	63.68	10.79	4.269	2.831	2.837	2.413	1.897	1.990	1.753	1.679	1.381	1.638	1.455	1.439	1.379	1.254	1.239	1.310	1.238	1.471	1.682	1.773	1.870	2.407	2.708	3.030	2.987	2.468	2.258	2.082	1.948	1.639	1.551	1.665	1.804	2.030	2.161	2.109	2.399	2.698	2.783	3.090	3.292	3.515	3.727	3.803	3.817	3.824	3.887	4.019	4.685	5.407	4.651	3.121	2.437
330.0	1225	1649	1630	1214	726.1	484.2	447.8	494.1	565.3	676.9	795.9	877.2	877.7	827.8	810.6	748.3	477.9	264.5	196.7	491.2	2331	4373	7798	1304	19.41	4.530	3.814	2.830	2.088	2.242	1.772	1.718	1.423	1.879	1.508	1.373	1.421	1.413	1.387	1.440	1.361	1.725	1.884	2.300	2.654	3.308	3.852	4.426	4.660	4.045	3.895	3.773	3.170	2.657	2.075	1.936	2.136	2.199	2.363	2.489	2.658	2.836	3.087	3.360	3.659	3.820	4.142	4.323	4.244	4.389	4.284	4.329	4.404	4.549	4.767	4.796	4.321
335.0	1529	2038	2134	1705	1077	666.7	535.3	562.3	627.8	749.8	876.4	962.2	973.3	914.9	802.6	715.7	714.9	434.7	255.9	283.6	666.4	1124	5501	7916	418.9	20.16	5.568	3.737	2.654	2.509	2.230	1.942	1.662	1.983	1.667	1.566	1.625	1.392	1.278	1.605	1.397	1.891	2.141	2.608	3.215	3.948	4.500	5.515	5.999	5.270	5.103	5.211	4.415	3.534	2.889	2.513	2.523	2.438	2.712	2.657	2.921	3.229	3.342	3.812	3.929	4.231	4.785	4.816	4.776	4.724	4.647	4.681	4.561	4.495	4.235	4.187	4.673
340.0	1668	2199	2365	1904	1225	761.9	593.5	609.9	668.3	781.2	919.7	999.5	1020	958.3	834.1	691.5	686.6	614.3	341.5	275.1	326.2	396.9	1518	5582	3493	344.0	11.30	4.619	3.027	2.917	2.429	2.162	1.830	2.033	1.643	1.588	1.778	1.388	1.351	1.669	1.646	2.070	2.583	2.791	3.335	4.047	5.037	6.092	6.458	5.886	5.532	5.953	5.270	4.120	3.285	2.934	2.823	2.694	2.871	3.179	3.136	3.406	3.604	3.845	4.130	4.513	4.599	4.741	5.262	4.897	5.173	4.972	4.689	4.654	4.387	4.112	4.222
345.0	1711	2225	2445	2015	1273	826.0	640.9	636.6	705.4	804.0	927.6	1014	1038	976.1	853.6	704.7	618.9	646.1	488.3	310.8	276.8	262.2	490.8	1658	3681	3156	52.20	7.526	3.940	3.286	2.456	2.559	1.812	2.088	1.655	1.646	1.643	1.446	1.368	1.600	1.799	2.053	2.381	2.636	3.555	4.312	5.018	6.034	6.827	6.267	6.060	5.882	5.346	4.327	3.445	3.056	2.847	2.769	2.868	3.179	3.473	3.447	3.715	3.719	4.251	4.601	4.491	4.672	5.155	5.088	5.188	5.013	5.007	4.490	4.681	4.236	4.128
350.0	1615	2138	2339	1973	1343	876.8	687.7	668.1	725.6	805.4	920.1	988.2	1013	962.8	856.9	723.2	616.5	570.3	577.5	463.1	327.0	280.3	302.1	510.8	1109	2817	3672	1030	20.33	4.729	3.078	2.801	2.076	2.378	1.813	1.708	1.734	1.457	1.472	1.570	1.792	2.055	2.332	2.697	3.301	4.296	4.699	6.008	6.302	5.916	5.859	6.122	5.321	4.480	3.487	3.276	3.129	3.137	2.995	3.257	3.457	3.605	3.784	4.002	4.177	4.433	4.410	4.671	4.850	4.957	5.025	4.891	5.016	4.842	4.726	4.457	4.448
355.0	1494	1980	2148	1880	1341	927.9	736.6	727.7	759.3	819.7	911.7	970.9	976.1	941.7	859.3	745.5	648.5	566.6	542.3	587.8	468.6	339.3	303.6	295.6	367.5	720.4	2538	4960	1498	19.58	4.350	3.638	2.425	2.871	2.314	1.848	1.740	1.644	1.588	1.515	1.754	1.946	2.264	2.631	3.082	4.003	4.579	5.565	6.236	5.619	5.578	6.088	5.091	4.585	3.825	3.427	3.329	3.386	3.293	3.323	3.577	3.726	3.666	4.006	4.241	4.459	4.040	4.395	4.661	4.792	4.848	4.935	4.657	4.829	4.910	4.491	4.549
360.0	1426	1874	2015	1796	1313	957.7	793.8	770.6	798.7	862.2	917.3	953.9	958.4	928.1	853.2	761.5	679.3	605.5	549.4	576.3	596.2	431.9	343.8	278.6	236.5	262.0	718.2	3458	4646	338.8	10.92	4.750	2.992	3.071	2.330	1.983	1.839	1.687	1.472	1.612	1.714	1.927	2.273	2.481	2.796	3.669	4.151	5.003	5.647	5.159	5.117	5.654	5.047	4.572	3.949	3.367	3.508	3.373	3.696	3.655	3.915	3.872	3.928	3.947	4.455	4.562	4.194	4.753	4.517	4.581	4.693	4.916	4.787	4.691	5.031	4.538	4.540
365.0	1336	1738	1908	1688	1304	975.7	833.6	818.6	855.7	898.4	928.2	938.0	946.0	918.0	850.1	768.3	698.8	641.6	590.5	578.2	626.0	561.6	406.3	314.1	249.1	189.7	244.6	1021	3928	3107	49.25	7.494	3.823	3.811	2.713	2.135	2.030	1.756	1.492	1.589	1.719	1.926	2.264	2.395	2.935	3.747	3.885	4.732	5.298	4.693	4.888	5.441	5.037	4.770	4.068	3.622	3.658	3.594	3.829	3.842	3.841	3.895	4.014	4.358	4.579	4.198	4.276	4.627	4.373	4.787	4.755	4.936	5.060	4.908	4.725	4.610	4.506
370.0	1285	1581	1752	1613	1287	1022	902.5	885.1	913.3	935.0	944.2	933.5	928.0	896.6	847.2	786.1	733.2	692.3	655.5	635.1	627.4	642.4	559.2	406.7	311.8	229.4	180.9	315.3	1132	3434	3625	1051	16.77	5.809	3.481	2.586	2.250	1.778	1.712	1.882	1.664	2.049	2.229	2.315	2.822	3.450	3.677	4.355	4.699	4.543	4.574	5.303	5.118	4.669	4.036	3.861	4.033	3.814	3.941	4.185	4.030	4.008	4.197	4.536	4.458	4.348	4.426	4.480	4.396	4.632	4.576	4.932	4.879	4.882	4.800	4.687	4.676
375.0	1206	1481	1621	1480	1265	1068	954.4	937.6	949.2	970.6	956.8	935.6	920.6	885.2	851.9	793.3	754.2	728.1	707.4	690.8	665.2	649.3	662.6	556.1	398.3	301.7	224.9	203.6	347.2	868.7	2590	5483	345.0	23.79	5.138	3.583	2.584	1.914	1.735	1.817	1.797	1.984	2.026	2.331	2.688	3.357	3.425	4.107	4.521	4.146	4.263	4.843	4.826	4.478	4.114	4.365	4.182	4.199	4.166	4.358	4.297	4.313	4.548	4.755	4.519	4.508	4.512	4.416	4.501	4.387	4.487	4.694	4.868	4.607	4.821	4.717	4.892
380.0	1142	1427	1502	1440	1281	1096	993.4	973.8	978.1	995.9	971.2	948.6	917.1	888.3	846.4	798.8	776.8	755.2	741.9	730.6	705.4	674.6	669.8	656.8	494.4	363.2	280.2	218.9	209.1	288.4	738.4	3934	4449	313.2	10.77	4.847	3.593	2.312	1.815	1.820	1.788	1.896	2.092	2.317	2.638	3.134	3.501	4.082	4.144	4.023	4.188	4.953	4.728	4.470	4.276	4.156	4.341	4.061	4.089	4.206	4.491	4.300	4.702	4.692	4.551	4.622	4.423	4.390	4.383	4.359	4.658	4.917	4.644	4.757	4.858	4.656	4.729
385.0	1091	1382	1460	1413	1259	1116	1046	1017	1005	1027	997.3	970.2	938.7	903.8	861.1	809.5	780.5	769.7	764.9	759.0	742.3	719.1	686.1	683.0	613.1	442.1	343.5	271.0	220.8	193.3	256.6	1175	4105	4857	40.27	7.961	4.881	3.113	2.135	1.968	1.843	2.153	2.136	2.298	2.463	3.095	3.333	3.781	3.810	3.796	4.003	4.687	4.547	4.641	4.095	4.570	4.371	4.488	4.149	4.463	4.644	4.512	4.669	4.759	4.668	4.825	4.438	4.263	4.581	4.501	4.503	4.800	4.485	4.524	4.764	4.585	4.894
390.0	1112	1325	1429	1396	1303	1196	1133	1113	1114	1143	1118	1081	1041	997.0	931.0	860.6	815.7	801.4	805.1	811.0	806.2	795.3	762.6	726.8	707.6	610.1	469.9	375.2	310.4	251.4	210.7	369.9	1221	4452	3407	809.9	17.42	5.926	3.220	2.470	1.972	2.411	2.339	2.410	2.574	3.114	3.299	3.802	4.017	3.811	3.911	4.776	4.676	4.726	4.525	4.660	4.825	4.667	4.833	4.876	4.598	4.880	4.953	5.050	4.869	4.665	4.567	4.544	4.647	4.710	4.827	4.924	4.706	4.934	4.841	4.715	5.012
395.0	1129	1311	1435	1417	1385	1323	1288	1289	1333	1385	1401	1377	1321	1240	1112	985.9	901.7	865.4	872.3	893.9	908.0	910.0	888.6	859.2	818.8	789.5	694.5	551.2	450.2	387.6	307.3	278.6	406.8	1137	2620	4520	287.4	21.08	6.189	3.442	2.583	2.477	2.379	2.616	2.505	3.370	3.213	4.032	4.056	3.848	4.067	4.873	4.958	4.891	4.797	4.954	5.127	5.121	5.205	5.539	5.079	5.392	5.345	5.528	5.362	5.001	5.356	5.211	5.326	5.301	5.220	5.636	5.419	5.385	5.435	5.328	5.491
400.0	1178	1316	1429	1481	1454	1439	1461	1478	1561	1699	1764	1751	1692	1561	1368	1164	1007	948.8	950.2	980.2	1016	1033	1037	1017	981.1	933.4	895.0	756.2	634.3	541.6	430.7	351.3	299.4	406.2	807.2	3491	4394	237.1	12.59	4.953	3.209	2.905	2.579	2.735	2.685	3.441	3.242	3.628	4.048	3.926	4.141	4.908	5.034	5.118	5.447	5.386	5.848	5.513	5.669	6.078	6.059	5.920	6.137	6.088	6.239	6.184	5.794	6.320	5.846	6.124	6.162	6.256	6.073	6.032	5.962	5.629	5.929
405.0	1210	1376	1502	1525	1537	1574	1629	1693	1857	2073	2124	2224	2133	1944	1671	1366	1143	1050	1040	1082	1130	1173	1197	1195	1155	1107	1067	983.3	831.3	715.1	600.9	479.2	359.4	312.8	347.5	1129	4717	2179	36.65	7.961	3.873	3.491	2.919	2.918	2.915	3.590	3.353	3.816	4.115	3.955	4.163	4.943	5.314	5.144	5.726	5.687	6.292	6.196	6.282	6.280	6.457	6.621	6.843	6.999	7.356	7.294	6.984	7.088	7.044	7.165	7.045	7.125	6.930	6.978	6.356	6.244	6.287
410.0	1186	1344	1506	1578	1654	1725	1783	1937	2153	2427	2611	2692	2568	2331	1975	1570	1265	1128	1122	1169	1242	1302	1348	1369	1340	1288	1219	1157	1059	905.2	765.6	616.5	470.3	364.6	305.1	419.6	1478	2297	1896	600.1	12.35	4.187	3.398	3.267	2.933	3.785	3.520	3.959	4.235	4.139	4.371	5.338	5.491	5.655	5.869	5.990	6.761	6.549	6.787	7.186	6.996	7.197	7.575	7.964	8.165	8.198	7.829	7.971	8.115	8.214	8.116	7.890	7.973	7.807	6.851	6.670	6.509
415.0	1131	1311	1446	1566	1669	1775	1878	2027	2276	2567	2792	2858	2741	2482	2087	1646	1295	1151	1137	1186	1261	1333	1392	1411	1399	1348	1273	1198	1128	1012	838.4	677.2	520.6	397.4	314.6	273.6	447.4	598.1	1337	2876	248.0	12.55	4.316	3.619	3.326	3.760	3.497	3.866	4.276	4.010	4.312	5.479	5.394	5.879	5.748	6.341	6.541	6.636	7.020	7.508	7.343	7.500	7.579	8.420	8.240	8.285	7.808	8.096	7.961	8.308	8.139	8.291	7.852	7.773	6.855	7.015	6.409
420.0	1119	1294	1421	1520	1670	1797	1902	2057	2286	2551	2773	2838	2715	2464	2081	1631	1291	1133	1119	1167	1235	1308	1371	1393	1387	1335	1261	1181	1100	1027	868.6	686.2	531.6	403.5	317.1	240.8	218.9	197.3	381.1	2153	2147	214.3	6.329	4.169	3.285	3.920	3.501	3.857	4.076	4.074	4.220	5.397	5.424	5.723	6.035	6.153	6.784	7.070	7.272	7.383	7.367	7.617	7.870	8.171	7.923	8.156	8.195	8.154	8.110	8.125	8.451	7.969	7.752	7.589	7.178	6.606	6.531
425.0	1107	1279	1399	1507	1688	1834	1924	2108	2286	2520	2762	2816	2696	2441	2053	1607	1268	1114	1101	1140	1205	1278	1340	1372	1363	1322	1252	1171	1083	1013	897.5	702.7	540.4	413.7	323.5	240.8	172.9	111.8	120.0	639.8	2463	2045	31.10	4.995	3.644	4.114	3.686	4.110	4.166	3.912	4.047	5.115	5.421	5.810	6.021	5.993	7.167	7.470	7.177	7.616	7.055	7.642	7.693	7.722	7.992	8.043	8.313	8.276	8.016	8.066	8.269	8.129	7.539	7.556	6.741	6.532	6.335
430.0	1193	1256	1392	1527	1730	1899	2036	2207	2347	2583	2791	2866	2732	2477	2085	1624	1269	1114	1097	1126	1189	1255	1328	1354	1357	1319	1262	1184	1100	1011	913.3	762.5	582.7	443.7	351.1	262.6	179.2	105.5	69.47	167.7	701.7	2205	1923	549.0	10.64	4.771	3.851	4.261	4.345	4.039	4.300	5.335	5.635	6.127	6.220	6.701	7.599	7.738	7.747	7.780	7.557	7.776	7.760	8.054	8.164	8.271	8.190	8.309	8.173	8.132	8.110	7.908	7.439	7.601	7.054	6.646	6.233
435.0	1608	1306	1404	1551	1802	2002	2196	2314	2432	2605	2804	2858	2752	2480	2089	1631	1267	1109	1092	1116	1154	1228	1292	1321	1341	1302	1256	1186	1109	1015	907.5	790.8	632.1	477.5	375.0	284.7	195.6	117.2	67.71	68.10	177.1	527.0	1488	2640	221.7	13.18	4.561	4.569	4.269	4.088	4.203	5.518	5.731	6.619	6.806	7.336	7.840	8.449	8.305	8.360	8.072	7.950	8.015	8.076	8.082	7.908	7.908	8.075	8.080	8.201	8.057	8.198	7.623	7.437	7.100	6.447	6.279
440.0	2009	1370	1380	1549	1818	2056	2246	2353	2425	2560	2721	2770	2662	2399	2027	1589	1251	1092	1067	1081	1112	1171	1240	1272	1286	1260	1213	1151	1076	992.6	889.9	762.6	639.5	496.7	381.0	290.7	203.2	122.6	72.60	50.16	62.48	135.0	415.3	1941	1385	204.8	7.756	4.788	4.528	4.260	4.398	5.531	5.976	6.514	7.026	7.736	8.387	8.589	8.814	8.991	8.354	7.970	7.963	7.694	7.765	7.675	7.953	7.770	7.931	7.823	7.643	8.022	7.483	7.308	6.800	6.527	5.834
445.0	2166	1669	1355	1527	1829	2050	2266	2354	2351	2418	2565	2592	2501	2258	1911	1511	1197	1049	1022	1034	1046	1098	1157	1190	1199	1184	1140	1081	1015	944.4	841.7	717.2	604.2	494.0	381.9	284.6	201.2	126.7	76.29	50.49	40.12	50.22	107.8	563.6	1306	1920	29.17	5.709	4.785	4.183	4.754	5.474	6.003	6.380	6.818	7.593	8.644	8.743	8.733	8.621	8.296	7.945	7.438	7.541	7.760	7.797	7.470	7.116	7.269	7.364	7.589	7.136	6.888	6.867	6.565	6.187	6.104
450.0	1740	2350	1428	1466	1761	2017	2223	2289	2217	2194	2285	2311	2223	2018	1720	1375	1106	969.0	940.1	945.9	944.9	974.7	1026	1060	1067	1050	1018	967.3	914.2	850.4	765.8	652.8	540.1	452.5	374.7	276.2	194.0	128.2	81.13	55.40	40.91	34.77	41.73	139.6	376.8	2146	1751	441.2	11.46	4.569	4.878	5.481	5.871	6.400	6.810	7.537	8.450	8.871	8.671	8.539	7.964	7.532	7.067	7.003	6.987	6.897	6.621	6.556	6.888	6.642	6.819	6.592	6.550	6.382	6.004	5.835	5.652
455.0	1160	2519	2016	1410	1679	1927	2134	2151	2054	1986	2013	2026	1936	1774	1513	1227	994.7	888.3	850.9	846.9	835.6	854.9	893.2	924.2	931.9	921.5	889.6	853.2	811.2	754.5	683.9	590.9	486.1	403.4	346.8	275.2	191.0	126.7	84.76	60.60	45.25	36.29	30.53	46.93	96.05	506.6	1029	1834	203.3	12.95	5.024	5.547	5.738	6.400	6.677	7.176	8.274	8.072	8.382	8.047	7.495	7.072	6.697	6.492	6.503	6.159	5.916	6.239	5.742	6.108	5.950	5.790	5.897	5.823	5.357	5.175	5.239
460.0	951.0	2000	2818	1471	1584	1855	2059	2060	1914	1831	1825	1831	1754	1597	1374	1115	916.0	818.9	787.7	771.2	759.7	768.1	801.2	833.3	838.9	828.0	805.6	772.5	741.0	693.3	630.8	546.5	453.2	372.7	315.8	266.9	196.3	126.8	87.91	63.98	48.71	38.16	29.18	27.95	35.04	124.2	268.0	1235	1672	164.0	9.305	5.426	5.673	6.032	6.542	6.981	7.916	8.303	8.331	7.884	7.461	6.962	6.313	5.788	5.703	5.554	5.562	5.589	5.405	5.872	5.784	5.878	5.485	5.309	5.287	4.941	4.791
465.0	844.9	1413	3187	1888	1507	1745	1944	1940	1782	1677	1669	1672	1597	1453	1270	1027	850.9	755.6	727.5	706.2	688.6	696.0	724.8	751.2	762.3	751.8	730.8	704.6	678.1	639.8	584.7	504.0	422.3	347.7	290.9	247.0	196.8	129.4	89.38	65.25	51.01	40.45	31.41	25.31	22.49	39.90	69.85	346.1	1757	1353	137.1	6.914	5.877	5.685	6.318	6.887	7.762	7.959	7.798	7.605	7.145	6.875	6.000	5.449	5.351	5.384	4.926	5.090	5.036	5.137	5.309	5.306	5.176	4.829	4.736	4.741	4.652
470.0	794.2	991.5	2355	2951	1481	1582	1763	1746	1582	1469	1438	1438	1378	1265	1094	901.0	746.9	664.8	637.1	620.0	594.8	597.1	619.4	643.6	650.9	645.4	631.9	608.3	583.8	557.6	508.1	444.9	371.0	310.4	262.5	214.6	176.6	134.2	91.55	65.67	51.82	41.20	33.15	26.59	21.26	22.55	26.67	86.66	485.9	1083	1526	493.7	13.35	5.890	5.978	6.455	7.038	7.266	7.230	6.954	6.459	5.956	5.257	4.983	4.645	4.560	4.445	4.518	4.536	4.708	4.619	4.592	4.649	4.261	4.186	4.045	4.335
475.0	754.1	800.0	1275	2952	1938	1414	1553	1525	1363	1249	1206	1201	1154	1063	911.7	759.3	636.7	571.1	547.4	527.3	502.5	499.9	517.8	535.6	538.3	535.9	521.5	511.0	491.7	469.2	431.7	381.9	321.5	268.4	228.4	187.4	152.0	122.1	97.02	68.24	52.56	41.97	33.56	27.64	22.45	19.97	18.12	29.09	116.5	252.1	782.4	1575	209.7	15.05	5.910	5.945	6.313	6.537	6.251	5.982	5.503	5.285	4.738	4.382	4.018	3.793	4.079	4.084	3.950	4.081	3.978	3.838	3.872	3.708	3.677	3.399	3.572
480.0	712.8	768.0	882.0	2068	2621	1366	1397	1368	1239	1094	1063	1048	1005	927.9	797.9	672.5	567.3	510.4	484.4	466.2	436.7	432.9	445.3	462.4	467.2	468.3	455.5	444.1	428.6	411.1	379.6	335.9	284.1	241.2	205.8	169.4	136.0	109.0	95.49	72.78	52.93	42.06	34.27	28.39	22.91	20.40	16.87	17.15	34.64	63.45	194.5	847.4	1476	186.0	9.317	5.883	6.003	6.166	5.819	5.550	5.370	4.767	4.193	4.032	3.359	3.648	3.626	3.488	3.495	3.320	3.376	3.551	3.455	3.414	3.257	3.125	3.358
485.0	603.1	747.1	722.9	1277	2987	1620	1256	1236	1096	980.9	943.8	927.1	890.6	820.2	711.5	600.5	506.7	459.2	435.5	416.8	390.5	388.5	398.7	409.3	415.0	410.8	404.4	392.5	380.8	365.6	339.7	299.6	255.5	219.3	186.6	155.7	125.3	98.61	87.21	75.57	55.53	42.13	34.64	29.68	24.02	21.27	17.86	14.86	17.08	22.07	50.30	223.2	1096	1026	29.50	7.925	6.138	5.970	5.418	5.384	4.725	4.198	3.929	3.605	3.344	3.385	3.368	3.314	2.957	3.058	3.174	3.042	3.162	3.114	2.902	2.846	3.062
490.0	519.9	683.2	662.5	836.6	2254	2415	1258	1091	965.5	848.5	816.1	801.0	766.7	702.3	613.9	517.1	441.8	399.2	380.6	361.8	336.4	332.4	338.9	350.5	352.5	351.0	346.9	336.3	328.7	314.9	293.8	262.9	223.0	194.7	166.8	140.5	114.5	90.40	76.24	70.72	60.08	46.06	35.86	29.63	25.15	22.02	19.05	16.04	14.59	13.96	18.82	56.89	284.5	615.5	758.0	681.3	16.57	5.736	5.416	4.739	4.395	3.962	3.428	3.262	2.936	2.919	2.911	2.799	2.839	2.913	2.645	2.747	2.794	2.829	2.742	2.667	2.610
495.0	427.0	600.6	618.4	665.0	1169	2683	1669	962.2	821.5	721.5	683.0	678.6	649.5	589.0	520.2	440.7	379.0	341.9	325.5	306.3	287.7	282.6	287.6	294.7	300.2	297.5	292.9	285.4	277.6	266.7	251.2	225.7	194.0	167.7	146.6	124.5	102.9	82.18	68.31	60.18	56.94	49.86	38.22	30.90	25.69	22.98	19.93	17.40	14.73	12.73	12.66	20.19	69.83	144.3	336.2	2008	956.1	21.51	5.234	4.538	4.128	3.722	3.160	2.953	2.641	2.619	2.596	2.259	2.423	2.404	2.435	2.415	2.454	2.495	2.390	2.452	2.331
500.0	392.6	515.0	596.4	578.5	773.6	2035	2212	962.4	717.0	630.8	608.2	599.0	563.9	519.7	453.0	388.9	330.3	298.1	286.0	268.4	251.3	243.7	248.2	256.2	261.8	260.7	255.1	248.4	244.2	236.0	222.4	200.6	172.1	150.7	130.8	112.4	92.25	77.27	63.16	55.47	51.56	49.86	40.93	32.24	26.67	23.47	20.14	18.01	15.86	13.20	11.55	12.54	22.66	38.37	83.95	976.4	1940	233.7	16.29	4.670	3.798	3.346	2.783	2.558	2.594	2.453	2.202	2.295	2.318	2.418	2.291	2.393	2.229	1.967	2.089	2.268	2.197
505.0	344.9	451.0	547.3	532.1	624.6	1207	2336	1318	650.2	560.9	542.8	525.8	495.7	456.6	398.7	339.9	294.6	263.8	250.2	238.1	217.0	213.8	220.0	223.3	228.0	229.5	224.0	216.9	213.3	206.7	194.2	175.9	154.8	135.1	118.5	101.4	83.80	71.81	58.61	50.82	45.89	45.25	42.50	33.24	26.13	23.36	20.29	18.41	16.03	13.93	11.94	11.17	12.64	14.98	24.86	243.6	1091	1357	206.1	11.72	3.780	3.119	2.631	2.436	2.412	2.077	2.127	2.133	2.001	2.273	2.075	2.054	2.031	1.885	1.797	1.936	1.947
510.0	295.4	352.8	453.7	512.8	518.3	713.3	1587	2232	696.3	474.7	450.2	443.7	414.8	378.6	331.3	282.8	246.2	220.8	212.9	198.7	183.5	179.1	182.0	184.9	189.6	190.9	184.8	181.4	177.5	173.0	162.8	148.4	131.4	115.0	100.3	87.04	74.20	62.08	52.71	46.56	40.86	38.08	38.39	34.79	27.51	22.81	20.16	17.65	15.81	14.10	12.53	11.08	10.25	10.17	11.53	60.03	266.4	670.0	1127	904.5	17.13	3.055	2.399	2.221	2.009	1.983	1.877	1.809	1.778	1.931	1.762	1.792	1.822	1.723	1.615	1.606	1.807
515.0	250.9	289.3	336.9	455.4	453.2	506.3	806.7	2323	1405	404.4	376.7	369.1	343.4	310.6	276.1	233.8	201.0	182.5	175.0	163.6	149.1	145.8	149.8	151.0	156.0	154.4	152.0	148.0	145.0	141.7	133.7	121.6	110.0	95.64	84.34	73.80	63.10	54.00	46.81	42.73	37.15	33.07	32.61	32.42	29.82	23.94	19.33	17.54	15.42	13.57	12.39	11.63	10.01	8.908	8.234	18.74	64.30	154.0	385.7	2012	937.8	21.65	2.460	2.113	1.841	1.744	1.575	1.594	1.514	1.605	1.604	1.355	1.419	1.392	1.413	1.386	1.601
520.0	214.1	270.1	276.6	385.2	431.0	425.0	513.9	1624	2457	454.0	323.0	316.9	294.3	267.7	235.6	198.7	174.0	155.0	149.6	141.3	128.1	123.8	125.6	129.2	133.1	130.7	127.3	126.3	124.1	120.1	115.2	104.4	95.22	82.79	73.90	65.34	55.39	47.99	41.49	37.25	33.74	30.52	28.64	28.48	29.12	24.98	19.50	16.52	15.33	13.27	11.98	10.85	9.992	8.459	7.532	9.650	19.25	38.39	91.57	850.5	1518	237.3	14.48	2.259	1.805	1.593	1.474	1.310	1.410	1.543	1.534	1.365	1.341	1.287	1.322	1.228	1.502
525.0	181.7	231.8	248.4	323.1	406.9	372.9	420.8	868.3	3162	868.1	283.5	274.3	258.9	235.2	202.3	172.1	152.5	137.2	130.3	122.2	113.3	109.5	110.1	114.0	114.5	115.1	110.8	108.7	107.3	104.3	100.1	91.42	83.93	73.32	64.75	58.20	50.13	43.63	38.75	34.22	30.06	27.90	25.79	25.14	26.29	25.54	20.64	16.48	14.23	12.92	11.52	10.35	9.612	8.434	7.262	7.266	8.680	12.32	24.03	203.1	732.4	904.6	206.2	6.816	1.772	1.443	1.401	1.126	1.388	1.408	1.189	1.151	1.180	1.147	1.188	1.184	1.185
530.0	161.9	193.7	214.3	245.5	355.7	345.8	336.2	438.2	2073	2061	350.5	231.1	216.8	193.5	168.3	145.5	127.1	115.0	108.8	101.1	93.93	90.14	92.88	93.52	93.89	93.38	91.57	89.72	88.21	85.45	82.65	76.14	69.56	61.46	54.99	48.68	43.94	37.94	33.59	30.04	26.96	25.19	23.00	21.71	21.06	22.57	21.02	16.51	13.29	11.97	10.62	9.556	8.712	8.440	7.104	6.444	6.185	6.328	8.532	48.26	173.7	401.3	675.8	386.2	14.50	1.668	1.392	1.192	1.176	1.218	1.017	1.018	1.081	1.053	1.105	1.034	0.998
535.0	136.3	163.4	178.1	183.7	274.8	343.7	276.5	291.2	724.0	2310	966.3	200.9	177.1	158.8	139.4	118.9	103.2	94.58	88.22	83.56	76.99	74.18	76.76	76.84	77.38	77.20	74.33	73.06	72.36	70.03	67.94	63.72	57.27	51.08	45.88	41.35	37.12	31.88	29.24	26.05	23.74	21.70	20.01	18.10	17.91	17.89	19.08	17.13	13.25	10.79	9.669	8.937	7.800	7.610	6.738	6.330	5.213	4.789	4.649	13.29	40.98	91.53	203.9	759.0	247.4	21.67	1.489	1.110	1.042	1.140	1.008	0.968	0.917	0.870	1.003	0.924	0.889
540.0	121.5	136.1	153.3	167.1	215.9	313.4	263.7	228.5	316.3	1436	1832	222.8	152.3	137.7	117.6	101.6	87.47	79.81	76.25	71.95	66.53	63.76	64.13	65.16	65.95	65.87	62.77	61.77	61.31	58.37	57.58	53.78	48.03	44.12	40.18	35.13	32.07	28.22	25.67	22.90	21.24	19.50	17.64	16.70	15.63	15.07	16.22	17.19	13.42	10.45	9.186	8.490	7.282	6.755	6.407	5.805	4.869	4.143	3.644	5.371	11.33	22.24	47.75	294.1	523.8	238.0	13.05	1.019	1.003	1.165	0.953	0.847	0.881	0.835	0.845	0.762	0.857
545.0	104.0	122.0	131.2	150.9	170.5	255.3	259.3	197.3	203.5	621.4	2273	473.4	133.7	118.0	101.4	88.84	75.91	70.40	64.73	61.36	58.44	55.85	54.93	55.99	56.02	56.30	53.13	53.87	51.39	50.91	48.10	46.25	41.76	38.38	34.28	30.86	27.49	24.55	22.49	20.66	18.93	18.26	16.49	15.02	13.62	13.48	13.39	14.64	13.88	10.48	8.577	7.586	6.843	6.065	5.462	5.540	4.994	3.977	3.116	3.517	4.428	6.774	12.47	69.65	234.8	686.1	189.0	4.151	0.938	1.290	0.896	0.787	0.819	0.782	0.804	0.753	0.725
550.0	98.33	110.4	114.0	117.9	136.4	181.4	244.9	177.3	148.6	246.3	1330	1295	157.3	97.14	82.64	71.75	61.44	57.33	52.43	49.02	45.84	44.80	44.95	44.55	44.45	45.69	42.97	43.21	41.40	41.77	40.05	37.14	33.79	31.47	27.86	25.61	22.70	20.95	18.84	16.91	16.23	14.92	13.97	12.55	11.81	11.40	10.99	11.05	12.10	10.49	8.442	6.906	5.821	5.510	4.880	4.813	4.327	3.987	3.061	2.853	2.845	2.865	4.163	16.88	55.51	280.2	480.6	140.6	13.23	1.709	0.870	0.818	0.793	0.763	0.742	0.709	0.708
555.0	91.77	99.45	101.1	97.33	107.4	129.1	195.9	182.3	118.7	130.5	421.4	1594	619.2	79.22	66.84	57.00	49.21	44.12	42.30	38.91	34.79	34.58	35.22	34.08	34.02	35.72	33.93	33.68	32.22	32.38	31.73	28.51	26.73	24.51	22.84	20.56	17.88	16.77	15.40	13.73	12.73	12.51	11.33	10.88	9.808	9.346	8.704	8.566	8.787	9.327	7.951	6.382	5.013	4.609	4.281	3.860	3.730	3.639	3.086	2.697	2.286	1.988	2.103	4.964	13.27	63.44	143.4	274.8	199.8	25.91	0.959	0.808	0.757	0.680	0.622	0.663	0.608
560.0	81.88	89.24	78.58	83.85	91.10	101.2	145.4	185.3	105.4	96.95	162.7	1019	1301	94.00	55.75	45.87	40.27	36.53	34.98	31.62	29.13	28.50	28.95	28.06	28.46	28.67	28.10	27.55	26.72	26.50	25.12	24.01	21.80	20.52	18.89	17.16	15.24	14.15	13.13	11.51	10.91	9.844	9.507	9.069	8.688	8.269	7.688	7.114	7.009	7.672	7.752	6.123	4.488	4.054	3.745	3.356	3.257	3.029	2.689	2.522	2.080	1.704	1.512	2.254	3.873	15.11	33.25	103.4	260.3	255.7	10.99	0.789	0.698	0.691	0.633	0.627	0.605
565.0	72.46	73.49	72.10	68.83	79.12	87.11	106.0	168.0	105.2	80.23	93.44	415.9	1628	159.6	48.25	38.25	33.17	30.45	28.91	26.55	24.52	24.17	24.59	23.61	24.63	23.76	23.16	22.76	22.28	22.00	21.43	19.73	18.26	17.07	15.26	14.36	12.79	12.17	10.88	10.33	9.493	8.602	8.261	7.610	7.502	7.165	6.646	5.886	5.919	5.792	6.589	5.935	4.385	3.774	3.356	3.215	2.738	2.507	2.508	2.500	2.029	1.533	1.370	1.522	1.738	4.248	8.371	24.74	110.9	593.2	136.1	3.317	0.669	0.581	0.677	0.598	0.539
570.0	71.18	67.71	66.53	60.71	59.54	69.00	73.46	124.4	125.3	70.35	66.98	145.6	951.4	831.5	83.87	30.97	27.29	25.17	23.10	21.65	19.70	18.74	19.59	19.15	18.54	18.88	18.14	18.00	18.16	17.40	16.69	15.83	14.80	13.57	12.64	11.50	10.62	9.483	8.916	8.402	7.790	7.159	6.946	6.380	6.054	5.913	5.390	4.970	4.724	4.435	4.769	5.217	4.375	3.468	2.857	2.607	2.538	2.183	1.996	2.100	2.094	1.593	1.327	1.255	1.162	1.771	2.689	6.267	26.35	223.1	296.7	131.4	12.21	0.698	0.577	0.531	0.514
575.0	61.11	59.67	61.94	59.16	53.06	53.61	55.99	81.11	132.6	73.28	55.59	70.16	293.8	1074	651.7	27.37	21.34	19.19	17.66	17.34	14.87	14.66	15.02	14.92	15.17	14.77	14.16	13.78	14.46	13.35	13.08	12.51	11.34	10.81	10.35	8.775	8.469	7.547	7.049	6.878	6.253	6.344	5.445	5.224	4.872	4.855	4.343	4.012	3.902	3.494	3.357	3.662	4.061	3.542	2.554	2.255	2.108	1.761	1.742	1.593	1.726	1.797	1.271	1.051	0.984	1.144	1.337	1.962	6.573	50.59	89.53	215.5	183.7	14.63	0.591	0.477	0.529
580.0	65.30	55.38	56.43	50.04	44.80	46.57	46.81	56.84	108.4	94.95	50.44	50.80	100.3	665.6	1608	37.82	18.11	16.56	14.97	14.18	13.27	13.02	12.41	12.42	12.27	12.70	12.09	11.55	11.73	10.88	10.91	10.15	9.528	8.867	8.436	7.368	7.019	6.104	5.922	5.954	5.099	4.895	4.924	4.474	4.084	3.974	3.833	3.785	3.247	3.005	2.789	2.840	3.382	3.297	2.576	2.138	1.824	1.583	1.638	1.542	1.449	1.762	1.421	1.026	0.988	0.941	1.015	1.130	2.120	12.02	20.80	78.51	248.2	120.4	7.824	0.571	0.461
585.0	70.42	56.70	50.96	43.53	41.37	41.16	41.48	49.40	81.57	109.5	51.04	45.57	52.17	253.6	2125	103.6	16.20	14.52	13.40	12.35	10.97	10.78	11.10	10.15	10.33	10.17	10.06	9.656	9.744	9.326	9.223	8.696	8.141	7.242	7.232	6.185	6.206	5.406	5.141	4.706	4.495	4.247	4.049	4.033	3.584	3.485	3.490	3.238	2.930	2.763	2.412	2.379	2.605	3.141	2.766	1.919	1.726	1.505	1.370	1.529	1.118	1.342	1.412	1.231	0.914	0.888	0.890	0.965	0.968	3.243	5.277	18.53	105.0	205.9	35.75	2.378	0.458
590.0	58.61	53.55	45.97	38.78	36.50	34.22	35.84	39.09	51.30	101.5	67.81	41.99	39.47	82.31	1232	690.4	29.20	11.99	10.88	9.769	8.819	8.578	9.177	8.409	8.149	8.122	8.237	7.740	7.798	8.030	7.265	7.016	6.657	5.915	5.781	5.041	4.923	4.440	4.104	3.865	3.800	3.564	3.533	3.376	3.023	2.896	2.844	2.724	2.495	2.363	2.137	1.907	1.966	2.234	2.431	2.030	1.649	1.233	1.179	1.179	1.010	1.117	1.056	1.253	1.089	0.899	0.817	0.795	0.804	1.208	1.767	4.647	24.66	79.08	159.0	100.2	12.17
595.0	51.42	52.15	41.62	34.88	30.53	29.38	31.30	33.03	35.57	67.91	85.80	39.33	33.02	37.10	355.1	973.8	97.33	9.984	9.122	7.175	7.296	6.908	7.714	6.965	6.694	6.410	6.678	6.232	6.187	6.380	5.993	5.679	5.204	4.656	4.595	4.187	3.973	3.527	3.295	3.256	2.973	2.741	2.716	2.848	2.458	2.309	2.161	2.140	1.971	1.944	1.808	1.614	1.577	1.563	2.010	2.096	1.566	1.148	1.011	0.960	0.992	0.942	0.883	0.986	1.113	0.989	0.839	0.678	0.707	0.771	0.903	1.465	5.970	18.03	44.86	152.4	126.7
600.0	54.00	48.49	41.88	31.28	28.77	28.13	27.51	30.07	31.69	47.66	90.32	44.12	30.79	25.48	99.26	617.6	463.3	15.18	7.972	6.432	6.159	5.299	6.432	5.876	5.732	5.623	5.375	5.041	5.654	5.109	5.094	4.623	4.172	3.947	3.823	3.559	3.279	3.007	2.925	2.968	2.432	2.364	2.363	2.343	2.104	1.934	1.950	1.812	1.641	1.627	1.581	1.437	1.285	1.216	1.358	1.802	1.561	1.175	0.962	0.989	0.824	0.789	0.730	0.864	0.958	1.058	0.780	0.597	0.666	0.680	0.660	0.702	1.750	4.366	10.49	54.63	150.1
605.0	54.16	47.71	39.87	28.55	27.56	26.04	25.50	28.35	29.69	37.76	82.80	60.52	31.84	23.75	36.95	235.0	694.5	59.76	7.501	5.615	5.428	4.756	5.135	4.877	4.775	4.652	4.574	4.436	4.520	4.272	4.449	4.029	3.502	3.276	3.163	3.110	3.110	2.668	2.524	2.499	2.228	1.979	2.138	1.933	1.876	1.808	1.633	1.707	1.440	1.367	1.298	1.279	1.162	1.175	1.110	1.420	1.459	1.299	0.889	0.820	0.784	0.790	0.727	0.736	0.687	0.927	1.014	0.620	0.641	0.579	0.474	0.463	0.810	1.340	2.765	12.85	58.72
610.0	50.89	46.84	37.75	27.71	24.71	24.46	26.70	28.06	28.76	36.01	60.14	79.38	39.39	26.05	24.42	69.24	458.1	364.4	13.60	5.093	4.819	4.225	4.666	4.288	3.855	4.138	4.026	3.711	3.818	3.752	3.768	3.319	2.896	2.746	2.686	2.475	2.574	2.216	2.017	2.083	1.817	1.583	1.732	1.557	1.507	1.462	1.462	1.407	1.233	1.150	0.992	1.051	0.924	0.967	0.891	1.087	1.236	1.216	1.073	0.804	0.744	0.682	0.596	0.676	0.618	0.712	0.835	0.771	0.676	0.609	0.502	0.450	0.631	0.626	1.045	3.232	13.84
615.0	45.12	42.66	36.44	27.85	23.68	25.00	24.14	26.38	29.76	34.64	43.24	77.40	51.12	26.92	21.62	26.95	138.0	551.5	73.14	4.518	4.216	3.571	3.698	3.302	3.288	3.309	3.005	3.061	2.944	2.985	2.928	2.531	2.467	2.121	2.107	2.086	1.879	1.646	1.699	1.699	1.483	1.378	1.546	1.311	1.228	1.292	1.227	1.163	0.931	0.873	0.936	0.814	0.861	0.689	0.694	0.803	0.925	1.032	0.979	0.776	0.614	0.681	0.543	0.544	0.599	0.564	0.639	0.751	0.773	0.559	0.489	0.482	0.475	0.463	0.634	1.082	3.438
620.0	40.17	39.03	33.18	27.38	22.56	20.53	22.53	24.02	27.22	32.65	36.48	60.53	61.07	28.93	21.10	17.26	42.34	397.1	387.8	6.915	3.731	3.096	3.305	3.036	2.728	2.904	2.536	2.679	2.607	2.394	2.684	2.160	2.055	1.909	1.738	1.713	1.607	1.380	1.329	1.341	1.331	1.133	1.256	1.057	1.234	1.011	1.073	1.014	0.972	0.800	0.875	0.895	0.799	0.613	0.666	0.762	0.732	0.804	1.008	0.854	0.636	0.610	0.609	0.516	0.451	0.469	0.581	0.668	0.851	0.631	0.480	0.456	0.435	0.456	0.415	0.626	1.078
625.0	43.08	33.86	32.91	24.05	21.20	19.69	21.51	24.00	24.27	32.13	34.29	47.71	65.91	32.28	20.55	14.07	18.32	166.9	634.0	34.64	3.450	3.037	3.028	2.672	2.580	2.657	2.312	2.383	2.472	2.076	2.277	1.846	1.798	1.495	1.748	1.486	1.332	1.362	1.291	1.141	1.162	0.987	1.104	1.104	1.063	0.971	0.894	0.845	0.791	0.721	0.667	0.802	0.631	0.617	0.582	0.654	0.671	0.724	0.797	0.871	0.820	0.594	0.540	0.498	0.445	0.447	0.556	0.615	0.739	0.768	0.584	0.421	0.417	0.459	0.378	0.500	0.583
630.0	45.17	40.36	31.69	25.51	19.68	19.53	20.20	23.05	24.73	29.91	33.45	37.17	57.46	42.12	20.50	13.78	12.73	48.00	456.5	265.7	6.780	2.709	2.813	2.555	2.139	2.240	1.891	2.004	2.045	1.753	1.871	1.575	1.549	1.463	1.352	1.276	1.202	1.152	1.059	1.014	1.048	0.907	0.945	0.910	0.921	0.822	0.761	0.734	0.688	0.589	0.600	0.665	0.554	0.581	0.594	0.573	0.514	0.588	0.601	0.725	0.717	0.597	0.473	0.495	0.491	0.440	0.530	0.510	0.547	0.677	0.636	0.538	0.418	0.426	0.408	0.397	0.478
635.0	41.52	38.40	36.83	22.73	19.40	18.23	20.31	22.32	23.79	28.49	30.97	34.23	42.68	53.38	23.71	14.57	11.28	16.56	136.0	460.9	51.40	2.535	2.549	2.155	1.949	1.956	1.686	1.825	1.575	1.471	1.646	1.344	1.389	1.160	1.175	1.062	1.166	0.978	0.865	0.848	0.940	0.773	0.838	0.684	0.776	0.801	0.694	0.615	0.620	0.573	0.502	0.526	0.558	0.492	0.467	0.589	0.513	0.467	0.490	0.586	0.661	0.601	0.508	0.497	0.434	0.424	0.484	0.471	0.473	0.572	0.665	0.644	0.481	0.418	0.363	0.337	0.363
640.0	45.10	40.41	33.01	25.73	20.40	18.50	18.98	21.52	24.31	24.68	30.85	33.85	36.09	51.69	29.34	14.76	11.25	9.822	37.06	355.1	260.6	3.620	2.602	1.672	1.660	1.644	1.539	1.372	1.473	1.321	1.371	1.319	1.079	0.975	1.038	0.873	0.871	0.752	0.777	0.707	0.785	0.790	0.756	0.644	0.584	0.758	0.610	0.607	0.518	0.468	0.506	0.447	0.530	0.490	0.405	0.507	0.466	0.521	0.533	0.582	0.537	0.633	0.502	0.440	0.379	0.487	0.500	0.502	0.423	0.482	0.532	0.660	0.547	0.418	0.318	0.401	0.383
645.0	44.86	45.40	32.95	24.99	18.32	18.70	19.19	20.82	23.90	25.37	31.52	33.58	32.43	44.15	36.46	15.80	12.05	8.018	12.49	158.6	507.6	21.71	2.500	1.560	1.615	1.332	1.229	1.255	1.525	1.242	1.283	1.171	1.078	0.968	0.830	0.849	0.791	0.766	0.728	0.633	0.661	0.638	0.683	0.604	0.667	0.658	0.608	0.473	0.489	0.490	0.385	0.467	0.417	0.413	0.399	0.474	0.444	0.427	0.490	0.501	0.504	0.522	0.460	0.460	0.515	0.473	0.463	0.463	0.420	0.457	0.492	0.552	0.538	0.512	0.347	0.398	0.335
650.0	53.75	50.67	39.78	28.66	18.91	18.80	18.83	21.95	22.13	24.38	30.15	31.57	31.22	36.66	42.89	17.31	12.19	7.896	7.075	47.82	541.5	67.39	2.930	1.726	1.597	1.475	1.259	1.188	1.294	1.098	1.180	1.080	0.915	0.821	0.870	0.771	0.772	0.746	0.611	0.545	0.608	0.650	0.612	0.462	0.572	0.587	0.505	0.560	0.475	0.418	0.382	0.417	0.396	0.377	0.374	0.434	0.422	0.469	0.465	0.427	0.465	0.482	0.452	0.494	0.441	0.418	0.387	0.376	0.368	0.488	0.469	0.461	0.486	0.595	0.451	0.432	0.343
