Sample:	'1
File name:	W112803¶«Íõ¹«Ä¹ÇÅ2±¶.FD3
Run date:	'10:59:19, 11/29/2024
Operator:	Administrator
Comment:	'

Instrument
Model:	F-2700 FL Spectrophotometer
Serial number:	23B8-004
ROM Version:	4J14000 07

Instrument parameters
Measurement type:	3-D scan
Data mode:	Fluorescence
EX  Start WL:	220.0 nm
EX  End WL:	600.0 nm
EX Sampling interval:	5.0 nm
EM  Start WL:	230.0 nm
EM  End WL:	650.0 nm
EM Sampling interval:	5.0 nm
Scan speed:	12000 nm/min
EX Slit:	5.0 nm
EM Slit:	5.0 nm
PMT Voltage:	700 V
Response:	Auto 
Corrected spectra:	Off
Contour interval:	50.000

Peak integration
Integration method:	Rectangular
Sensitivity:	1
Threshold:	1.000

Peaks
No.	ApexEX/EM(nm)	Height(Data)
1	225.0/340.0	3700
2	225.0/585.0	97.06
3	225.0/625.0	69.88
4	230.0/345.0	3633
5	240.0/265.0	386.2
6	245.0/270.0	382.4
7	250.0/275.0	516.3
8	255.0/285.0	609.1
9	260.0/575.0	172.9
10	265.0/585.0	149.0
11	270.0/600.0	142.8
12	275.0/340.0	2447
13	275.0/415.0	5394
14	275.0/435.0	5170
15	275.0/615.0	147.4
16	280.0/625.0	120.3
17	345.0/415.0	3238
18	350.0/430.0	3095
19	460.0/345.0	8.390
20	505.0/275.0	2.619
21	510.0/280.0	3.146
22	520.0/285.0	3.492
23	550.0/305.0	8.434
24	560.0/335.0	10.42
25	575.0/415.0	16.49

Data points
	220.0	225.0	230.0	235.0	240.0	245.0	250.0	255.0	260.0	265.0	270.0	275.0	280.0	285.0	290.0	295.0	300.0	305.0	310.0	315.0	320.0	325.0	330.0	335.0	340.0	345.0	350.0	355.0	360.0	365.0	370.0	375.0	380.0	385.0	390.0	395.0	400.0	405.0	410.0	415.0	420.0	425.0	430.0	435.0	440.0	445.0	450.0	455.0	460.0	465.0	470.0	475.0	480.0	485.0	490.0	495.0	500.0	505.0	510.0	515.0	520.0	525.0	530.0	535.0	540.0	545.0	550.0	555.0	560.0	565.0	570.0	575.0	580.0	585.0	590.0	595.0	600.0
230.0	58.56	965.5	1832	428.0	12.92	5.448	3.945	3.900	3.419	3.454	3.504	3.339	2.919	2.619	2.178	1.797	1.569	1.358	1.248	1.233	1.118	1.126	1.071	1.045	1.059	0.991	0.979	0.970	0.863	0.891	0.756	0.600	0.505	0.472	0.383	0.410	0.327	0.293	0.259	0.226	0.250	0.338	0.277	0.202	0.178	0.201	1.084	3.750	5.089	2.966	0.830	0.177	0.152	0.130	0.152	0.151	0.138	0.139	0.119	0.119	0.122	0.126	0.123	0.110	0.121	0.115	0.113	0.108	0.126	0.113	0.119	0.127	0.110	0.120	0.115	0.111	0.111
235.0	94.90	298.1	1525	2101	432.7	17.21	4.557	4.552	3.774	3.689	3.409	3.581	2.897	3.080	2.582	2.153	1.794	1.549	1.234	0.870	1.032	1.113	1.166	0.991	0.964	0.890	0.989	0.996	0.881	0.784	0.784	0.565	0.578	0.441	0.446	0.441	0.374	0.376	0.342	0.243	0.179	0.202	0.302	0.315	0.353	0.259	0.394	1.117	2.359	4.204	5.959	5.179	1.790	0.366	0.158	0.153	0.109	0.149	0.135	0.148	0.140	0.136	0.134	0.099	0.106	0.123	0.126	0.114	0.120	0.126	0.140	0.121	0.122	0.106	0.114	0.126	0.099
240.0	166.4	135.1	525.9	2189	2061	318.4	11.48	4.906	3.954	3.788	4.215	3.179	3.046	2.876	2.625	2.276	1.651	1.658	1.327	1.195	1.016	1.146	1.096	1.062	1.004	0.925	1.042	0.973	0.950	0.764	0.854	0.650	0.629	0.490	0.432	0.395	0.369	0.329	0.296	0.243	0.251	0.199	0.215	0.282	0.484	0.530	0.334	0.436	0.689	1.449	4.077	8.581	8.710	4.964	1.408	0.223	0.146	0.120	0.134	0.107	0.102	0.116	0.128	0.117	0.119	0.135	0.124	0.129	0.098	0.116	0.155	0.149	0.137	0.107	0.118	0.127	0.100
245.0	134.4	192.2	170.6	882.1	2757	1934	199.0	7.682	5.039	4.655	3.910	3.716	3.281	3.116	2.285	2.222	1.780	1.553	1.278	1.243	1.244	1.181	1.013	1.006	1.093	1.011	0.915	0.996	0.950	0.812	0.677	0.614	0.542	0.465	0.423	0.386	0.355	0.333	0.272	0.212	0.237	0.219	0.172	0.208	0.347	0.476	0.544	0.459	0.329	0.475	1.145	3.541	8.008	11.90	9.838	4.311	0.910	0.144	0.135	0.132	0.133	0.124	0.121	0.144	0.123	0.122	0.117	0.140	0.127	0.097	0.132	0.137	0.121	0.109	0.149	0.094	0.098
250.0	56.77	173.9	234.1	277.8	1004	2555	2592	695.7	26.78	5.300	5.562	3.981	4.025	3.197	2.805	2.229	1.729	1.532	1.273	1.303	1.262	1.089	1.136	1.168	1.143	0.996	0.945	1.028	1.036	0.917	0.858	0.638	0.561	0.446	0.402	0.396	0.356	0.296	0.275	0.220	0.252	0.240	0.188	0.212	0.263	0.264	0.430	0.647	0.683	0.613	0.502	0.986	2.101	4.337	7.753	11.08	13.48	10.36	4.961	1.052	0.166	0.151	0.141	0.147	0.142	0.119	0.134	0.102	0.137	0.118	0.133	0.158	0.111	0.125	0.111	0.120	0.102
255.0	31.27	58.89	197.7	319.6	296.1	719.6	2814	3023	299.9	22.83	7.061	5.195	3.989	3.969	3.255	2.613	1.989	1.685	1.392	1.196	1.332	1.193	1.244	1.208	1.182	1.066	0.929	0.961	1.000	0.976	0.846	0.759	0.624	0.446	0.445	0.437	0.401	0.285	0.236	0.235	0.302	0.199	0.230	0.226	0.251	0.209	0.232	0.284	0.462	0.763	1.036	1.007	0.758	1.097	1.917	2.948	6.301	13.92	22.89	18.89	7.063	1.154	0.182	0.154	0.165	0.143	0.128	0.145	0.161	0.134	0.137	0.131	0.138	0.122	0.100	0.156	0.097
260.0	27.82	25.00	79.45	313.2	281.8	206.9	978.5	4050	2468	231.8	12.12	6.677	5.473	4.418	3.504	2.663	2.305	1.825	1.502	1.604	1.378	1.149	1.224	1.236	1.291	0.996	1.150	1.217	1.088	0.895	0.835	0.773	0.598	0.492	0.500	0.404	0.422	0.253	0.250	0.226	0.246	0.237	0.232	0.289	0.205	0.187	0.234	0.200	0.262	0.376	0.816	1.613	1.211	0.773	0.649	0.857	1.632	4.218	11.67	22.11	27.43	17.41	5.299	0.633	0.193	0.181	0.136	0.153	0.165	0.144	0.165	0.139	0.120	0.119	0.108	0.172	0.122
265.0	24.31	20.48	37.50	162.0	386.2	196.7	257.3	1640	5319	2096	164.3	10.76	6.990	4.520	3.996	2.829	2.527	1.769	1.737	1.822	1.507	1.350	1.161	1.198	1.169	1.112	1.108	1.230	1.036	0.907	0.799	0.763	0.550	0.582	0.533	0.431	0.433	0.277	0.238	0.257	0.234	0.288	0.251	0.278	0.191	0.285	0.210	0.216	0.189	0.200	0.351	0.825	1.579	1.498	1.004	0.511	0.603	1.143	2.982	7.040	17.91	30.46	28.17	14.31	3.068	0.318	0.148	0.197	0.170	0.146	0.168	0.118	0.135	0.138	0.168	0.157	0.123
270.0	41.73	40.94	32.91	61.77	211.3	382.4	251.4	422.5	1956	4800	4548	695.8	28.34	6.250	5.053	3.494	2.877	2.183	1.877	1.802	1.547	1.412	1.276	1.389	1.233	1.302	1.213	1.157	0.997	1.020	0.825	0.817	0.695	0.582	0.530	0.463	0.432	0.348	0.275	0.288	0.247	0.267	0.270	0.270	0.249	0.271	0.245	0.244	0.186	0.187	0.220	0.372	0.643	0.973	1.445	1.669	1.321	0.861	0.929	1.861	4.431	9.598	16.75	25.43	28.40	20.23	11.56	2.982	0.362	0.179	0.212	0.157	0.157	0.121	0.157	0.174	0.168
275.0	98.97	97.09	74.71	52.22	84.03	213.9	516.3	301.9	497.9	1339	5007	7559	869.0	20.91	6.793	4.782	3.664	2.558	2.150	1.889	1.640	1.617	1.398	1.516	1.532	1.267	1.249	1.241	1.149	1.157	1.001	0.759	0.725	0.670	0.618	0.655	0.540	0.338	0.382	0.292	0.326	0.331	0.327	0.386	0.305	0.367	0.345	0.302	0.365	0.255	0.241	0.332	0.360	0.497	0.595	1.178	2.344	2.619	1.680	0.885	1.337	2.513	4.121	6.271	9.773	20.93	41.14	30.63	17.09	2.782	0.311	0.178	0.184	0.164	0.125	0.122	0.164
280.0	159.6	185.9	142.4	91.72	83.11	128.1	397.1	570.8	271.2	416.9	1666	7392	6690	138.1	13.09	6.122	4.214	3.259	2.549	2.097	1.700	1.685	1.572	1.561	1.290	1.324	1.196	1.227	1.282	0.992	0.998	0.793	0.709	0.743	0.630	0.599	0.658	0.520	0.476	0.334	0.375	0.386	0.430	0.414	0.392	0.606	0.466	0.529	0.540	0.434	0.338	0.388	0.374	0.434	0.379	0.654	1.185	2.111	3.146	2.659	1.188	1.061	1.397	1.977	2.749	5.783	15.95	32.27	47.65	28.59	12.17	1.255	0.238	0.195	0.204	0.193	0.212
285.0	254.3	296.7	252.6	157.9	116.3	127.6	230.6	609.1	365.0	296.7	580.8	2676	8659	5192	98.04	8.593	5.647	3.861	3.269	2.533	1.875	1.866	1.732	1.520	1.435	1.283	1.222	1.256	1.266	1.047	1.052	0.823	0.836	0.762	0.666	0.816	0.751	0.626	0.514	0.496	0.453	0.464	0.431	0.492	0.516	0.707	0.634	0.791	0.708	0.498	0.499	0.513	0.494	0.515	0.570	0.629	0.731	1.110	1.993	3.276	3.492	2.000	1.228	1.241	1.546	2.333	4.541	9.461	22.14	41.66	50.62	24.35	6.722	0.632	0.242	0.251	0.218
290.0	412.0	506.3	448.2	279.4	196.7	184.1	221.7	383.2	690.5	716.4	561.7	991.9	2986	6622	5431	407.9	19.62	5.513	3.885	2.939	2.360	2.187	1.896	1.730	1.726	1.732	1.515	1.401	1.328	1.260	1.044	0.900	0.849	0.905	0.962	0.935	0.988	0.720	0.688	0.616	0.533	0.548	0.612	0.690	0.764	0.958	0.987	1.237	1.201	0.972	0.854	0.884	0.762	0.749	0.747	0.790	0.897	0.967	1.238	1.814	2.435	3.362	3.866	3.170	2.336	2.346	2.708	3.799	6.616	11.88	21.28	30.50	30.88	33.65	16.28	6.261	0.808
295.0	538.6	747.2	643.2	420.3	291.2	261.5	284.4	363.6	550.3	1049	1079	853.1	1142	1869	4692	6274	558.9	18.28	5.527	4.323	2.713	2.542	2.413	1.891	1.911	1.715	1.674	1.481	1.413	1.257	1.133	1.001	1.006	0.911	1.079	1.078	1.148	0.838	0.828	0.722	0.729	0.686	0.745	0.893	0.998	1.289	1.402	1.610	1.586	1.296	1.160	1.250	1.093	0.954	1.053	1.029	1.084	1.262	1.376	1.474	1.931	2.337	3.305	4.853	5.719	4.163	3.208	3.428	3.846	4.696	6.345	8.287	9.185	18.95	38.13	48.70	25.60
300.0	650.6	901.2	809.6	516.5	363.7	331.6	375.1	430.9	606.5	989.1	1565	1198	931.2	822.1	1502	5925	5217	82.80	11.22	5.549	3.627	2.949	2.534	2.080	2.104	2.132	1.610	1.513	1.605	1.269	1.286	1.119	1.076	0.964	1.141	1.159	1.204	1.011	0.880	0.851	0.783	0.830	0.936	0.965	1.109	1.485	1.823	2.052	1.917	1.618	1.331	1.449	1.279	1.227	1.277	1.342	1.303	1.557	1.739	1.976	2.166	2.448	2.931	4.233	5.885	7.318	6.021	4.867	4.355	4.051	3.985	3.899	3.749	5.752	12.42	28.89	47.32
305.0	748.4	997.3	923.7	603.7	451.4	448.6	503.0	617.0	833.3	1142	1715	1796	1264	842.2	754.4	2067	6776	4067	65.12	7.289	4.781	3.531	3.025	2.509	2.119	2.259	1.780	1.445	1.601	1.573	1.346	1.164	1.024	1.086	1.107	1.449	1.400	1.069	1.068	0.920	0.911	0.893	1.051	1.044	1.257	1.682	2.009	2.429	2.239	1.953	1.611	1.753	1.479	1.446	1.496	1.612	1.915	2.179	2.515	2.809	3.160	3.394	3.895	4.772	5.506	7.152	8.434	7.961	6.880	5.235	4.677	4.035	3.419	3.542	4.680	8.356	17.90
310.0	873.9	1134	1037	699.8	544.7	542.4	624.1	779.0	992.7	1314	1690	2037	1884	1141	772.6	835.5	2308	4719	4385	287.7	16.86	4.823	3.873	2.967	2.546	2.347	1.984	1.831	1.588	1.537	1.410	1.294	1.047	1.209	1.288	1.397	1.351	1.149	1.061	1.104	0.955	1.079	1.190	1.265	1.618	1.865	2.145	2.616	2.440	2.085	1.967	2.028	1.815	1.726	1.860	1.969	2.352	2.661	3.013	3.160	3.547	4.060	4.745	5.837	6.057	6.775	7.459	8.450	9.015	8.687	6.923	5.396	4.440	3.975	3.528	4.033	5.886
315.0	1019	1384	1194	815.8	620.5	631.3	719.7	895.9	1115	1441	1780	1990	2053	1711	1004	694.7	901.7	1304	3252	5329	436.4	15.02	5.004	4.007	2.974	2.897	2.475	2.102	1.966	1.663	1.508	1.402	1.277	1.131	1.446	1.370	1.314	1.171	1.117	1.133	1.105	1.127	1.322	1.488	1.884	2.381	2.553	3.044	2.996	2.460	2.212	2.490	2.057	2.010	2.062	2.179	2.556	3.258	3.342	3.679	3.800	4.616	5.121	6.175	6.753	7.225	7.362	7.765	8.814	9.149	9.147	8.758	6.428	5.196	3.999	3.710	3.853
320.0	1355	1849	1450	964.0	707.0	686.2	808.7	1015	1242	1577	1937	2135	2078	1988	1416	820.4	683.3	545.0	951.8	4132	3898	63.31	9.670	4.992	3.628	2.984	2.327	2.365	2.119	1.871	1.712	1.503	1.243	1.282	1.313	1.220	1.358	1.198	1.119	1.069	1.072	1.273	1.421	1.836	2.297	3.253	3.381	3.897	3.706	2.864	2.547	2.648	2.276	2.219	2.229	2.507	2.700	3.376	3.773	4.040	4.670	5.171	5.661	6.541	7.420	7.866	8.161	8.463	8.885	9.296	8.842	9.438	8.682	7.603	5.064	4.438	4.179
325.0	1783	2489	2061	1313	854.1	776.0	894.4	1088	1336	1697	2083	2264	2187	1993	1738	1067	705.1	424.4	357.2	1285	4424	3223	54.58	7.769	4.708	3.410	2.676	2.484	2.216	1.937	1.851	1.622	1.512	1.432	1.251	1.379	1.354	1.336	1.202	1.249	1.214	1.525	1.701	2.003	2.884	3.984	4.634	5.294	5.181	3.913	3.377	3.407	2.934	2.348	2.679	2.556	3.063	3.665	4.052	4.178	4.680	5.350	6.183	7.262	7.522	8.657	8.890	9.296	9.515	9.570	8.932	8.977	9.227	9.293	7.651	5.880	4.861
330.0	2153	3125	2803	1965	1218	946.8	984.7	1176	1432	1788	2169	2374	2313	2052	1729	1384	902.6	493.0	313.0	451.5	1392	3253	3403	896.7	19.15	5.239	3.469	3.010	2.548	2.361	2.049	1.643	1.504	1.400	1.402	1.421	1.306	1.272	1.253	1.247	1.237	1.609	1.956	2.520	3.611	4.783	5.871	6.671	6.832	5.477	4.961	5.197	4.145	3.527	3.207	3.082	3.409	3.809	4.237	4.696	5.142	5.659	6.689	7.450	7.806	8.734	9.086	9.810	9.921	9.955	9.679	9.355	9.067	8.764	8.177	7.652	6.745
335.0	2377	3523	3310	2475	1654	1183	1071	1234	1511	1852	2234	2440	2408	2162	1749	1403	1197	694.9	427.3	384.5	533.9	929.8	2431	4415	392.8	19.97	5.348	4.005	3.117	2.785	2.079	1.992	1.733	1.528	1.435	1.390	1.290	1.311	1.315	1.306	1.341	1.763	2.175	2.705	3.911	5.348	6.467	7.620	7.931	6.710	6.360	6.454	5.632	4.898	4.072	3.534	3.673	4.118	4.652	4.937	5.267	6.101	7.005	7.524	8.180	9.148	9.222	9.819	10.42	10.17	10.18	9.735	9.256	8.655	7.591	7.194	7.142
340.0	2462	3700	3583	2739	1868	1305	1127	1275	1529	1870	2218	2447	2421	2188	1789	1382	1194	925.1	549.1	436.0	400.0	433.9	815.6	3253	3270	319.3	10.82	4.978	3.407	2.732	2.531	2.068	1.782	1.589	1.628	1.389	1.400	1.274	1.297	1.370	1.284	1.732	2.165	2.833	4.037	5.482	6.648	8.014	8.389	7.350	7.165	7.331	6.429	5.270	4.534	3.885	3.804	4.321	4.779	4.972	5.601	6.308	7.184	7.407	8.303	8.888	9.249	9.895	10.37	10.15	10.08	10.13	9.787	8.897	7.795	7.354	7.064
345.0	2303	3626	3633	2833	1937	1358	1175	1300	1526	1840	2171	2385	2370	2150	1781	1384	1127	1005	692.4	516.0	431.7	382.9	411.5	1092	3547	2815	49.62	7.521	4.154	3.190	2.664	2.096	1.829	1.617	1.595	1.492	1.424	1.346	1.312	1.289	1.383	1.681	2.225	2.579	3.994	5.379	6.406	7.959	8.390	7.362	7.360	7.403	6.469	5.256	4.522	4.050	3.914	4.159	4.724	5.145	5.440	6.167	7.134	7.313	8.055	8.685	9.186	9.576	10.16	9.858	10.16	9.501	9.418	8.741	7.694	7.094	7.011
350.0	2161	3305	3415	2773	2001	1445	1247	1341	1532	1791	2062	2242	2234	2068	1750	1402	1146	975.7	909.3	733.2	550.5	473.2	408.6	471.8	1155	2607	2683	728.4	17.20	4.598	3.024	2.327	1.925	1.565	1.614	1.510	1.311	1.420	1.518	1.250	1.339	1.629	2.068	2.611	3.602	4.932	5.794	7.274	7.766	6.909	6.932	7.480	6.544	5.901	4.903	4.208	4.450	4.376	4.832	5.319	5.482	6.012	6.701	7.096	7.831	8.390	8.740	8.625	9.225	9.191	9.686	9.406	9.163	8.789	7.996	7.309	7.260
355.0	2016	2992	3111	2664	2036	1519	1341	1377	1542	1734	1959	2124	2115	1974	1716	1430	1226	1055	973.3	972.7	799.7	623.5	512.3	426.1	470.4	727.8	1748	3189	363.4	18.38	4.330	2.946	2.168	1.749	1.822	1.477	1.612	1.459	1.383	1.276	1.443	1.561	1.930	2.604	3.261	4.525	5.353	6.340	6.949	6.403	6.387	7.012	6.429	5.890	5.090	4.550	4.761	4.696	4.867	5.280	5.567	6.373	6.483	7.155	7.462	7.713	8.059	8.410	8.553	9.039	8.805	9.318	8.872	8.427	8.092	7.283	7.464
360.0	1820	2808	2897	2574	2002	1544	1351	1422	1562	1726	1906	2029	2015	1903	1691	1462	1296	1146	1057	1051	1018	794.7	633.9	492.6	392.0	343.7	545.4	2321	2952	302.7	10.58	4.209	2.835	1.945	1.674	1.602	1.519	1.461	1.315	1.324	1.439	1.482	1.871	2.473	3.051	3.711	4.811	5.856	6.474	6.123	6.133	6.881	6.266	5.890	5.172	4.883	4.700	5.035	5.163	5.449	5.978	6.107	6.515	7.191	7.203	7.406	8.099	8.332	8.456	8.702	8.611	8.849	8.539	8.503	7.619	7.781	8.027
365.0	1751	2572	2732	2457	2000	1622	1447	1487	1601	1750	1873	1941	1932	1854	1688	1490	1367	1256	1188	1135	1142	1015	774.8	606.5	458.5	324.5	272.6	750.9	2819	2561	46.94	7.487	3.589	2.415	1.906	1.690	1.596	1.399	1.280	1.303	1.309	1.539	1.870	2.302	2.797	3.759	4.356	5.599	5.988	6.015	6.050	6.716	6.530	5.881	5.086	5.028	5.053	5.374	5.245	5.774	6.167	6.271	6.965	7.023	7.256	7.478	7.925	7.965	8.095	8.236	8.067	8.905	8.289	8.640	8.109	8.061	7.677
370.0	1666	2455	2600	2407	2071	1756	1585	1613	1701	1798	1853	1874	1858	1799	1682	1539	1461	1396	1356	1309	1259	1216	1047	798.4	610.3	432.6	308.9	333.7	896.3	2204	2385	652.2	16.69	4.352	2.664	2.051	1.867	1.499	1.341	1.319	1.348	1.535	1.789	2.131	2.640	3.723	4.197	5.310	5.635	5.622	5.746	6.673	6.271	6.162	5.632	5.395	5.457	5.679	5.801	6.099	6.221	6.554	6.869	7.236	7.369	7.478	7.551	7.495	7.749	8.115	7.857	8.395	8.016	8.494	8.156	7.954	8.045
375.0	1592	2281	2450	2327	2094	1822	1669	1707	1765	1815	1826	1809	1794	1755	1656	1570	1532	1505	1494	1468	1397	1324	1248	1054	795.2	603.4	432.9	345.0	390.2	639.1	1560	2813	315.6	18.07	4.814	2.989	2.165	1.624	1.328	1.383	1.362	1.560	1.708	2.109	2.802	3.498	3.924	4.828	5.267	5.496	5.757	6.683	6.167	6.014	6.125	5.854	5.917	5.889	5.999	6.396	6.569	6.877	6.813	7.002	7.390	7.374	7.248	7.239	7.417	7.875	7.754	8.138	7.880	7.898	8.475	8.070	8.236
380.0	1517	2189	2374	2269	2069	1848	1717	1734	1773	1824	1800	1773	1755	1735	1655	1580	1569	1558	1559	1551	1498	1418	1331	1231	977.3	750.2	567.6	436.5	359.3	337.9	534.1	2049	2398	246.1	11.55	5.211	3.052	2.156	1.537	1.516	1.522	1.634	1.781	2.207	2.685	3.287	3.982	4.845	5.060	4.987	5.371	6.474	6.133	6.342	6.021	6.023	6.330	6.050	6.329	6.706	6.543	7.006	7.067	7.105	7.365	7.099	6.918	6.719	7.586	7.694	7.653	7.806	8.168	8.052	8.481	8.370	8.463
385.0	1527	2124	2291	2233	2099	1916	1806	1801	1839	1856	1820	1766	1769	1742	1669	1602	1591	1598	1621	1625	1588	1515	1417	1331	1176	919.0	721.2	577.2	444.8	358.4	318.7	704.9	2237	1910	39.27	10.65	5.682	3.259	2.091	1.607	1.676	1.728	1.843	2.074	2.744	3.226	3.864	4.957	5.144	4.937	5.285	6.551	6.463	6.396	6.056	6.162	6.405	6.049	6.253	6.544	6.736	7.047	7.187	7.320	7.264	6.965	7.292	6.910	7.588	7.619	7.129	7.804	7.909	8.047	8.501	8.487	8.929
390.0	1526	2084	2286	2249	2209	2060	1944	1961	1986	2004	1975	1928	1929	1890	1799	1691	1652	1658	1699	1727	1727	1679	1607	1511	1415	1243	1015	848.0	698.6	546.8	431.8	403.9	775.1	1683	1669	453.4	21.72	9.577	4.301	2.476	1.973	1.887	2.039	2.361	2.779	3.302	3.534	4.738	5.078	4.907	5.282	6.594	6.631	6.767	6.338	6.648	6.956	6.831	7.081	7.333	7.551	7.764	7.834	7.898	8.006	7.344	7.310	7.501	7.731	7.986	7.844	8.223	8.372	8.633	8.811	8.481	8.691
395.0	1540	2145	2329	2329	2317	2270	2186	2250	2310	2412	2463	2463	2434	2340	2178	1941	1794	1749	1798	1862	1904	1920	1898	1846	1763	1680	1517	1299	1121	941.2	748.0	558.8	467.8	593.3	1237	2028	262.4	30.83	12.78	4.885	2.822	2.281	2.232	2.486	2.875	3.637	3.715	4.965	5.074	5.431	5.603	7.184	7.337	7.349	7.001	7.381	7.952	7.772	8.109	7.940	8.453	8.530	9.164	9.038	8.829	8.995	8.623	8.904	9.047	9.028	9.133	9.624	9.846	9.700	9.754	9.702	9.516
400.0	1592	2229	2407	2407	2476	2477	2441	2548	2718	2971	3161	3224	3176	3013	2708	2310	1999	1872	1912	2000	2086	2165	2205	2225	2182	2114	2024	1827	1601	1384	1139	843.0	597.0	437.6	579.9	1633	1747	217.2	27.64	8.987	3.913	2.770	2.654	2.778	3.178	3.858	3.960	4.990	5.474	5.484	6.024	7.343	7.642	7.699	7.651	8.246	8.856	9.109	9.150	9.275	9.973	10.06	10.49	10.81	10.61	10.40	10.18	10.65	10.86	11.32	11.13	11.66	11.57	11.36	11.22	10.82	10.46
405.0	1649	2215	2451	2538	2655	2738	2738	2952	3229	3686	4062	4217	4128	3848	3379	2774	2265	2020	2040	2160	2300	2441	2555	2664	2673	2627	2557	2428	2168	1900	1596	1212	851.2	601.7	528.7	790.2	1784	1392	151.8	16.32	6.126	3.687	2.912	3.192	3.480	4.285	4.399	5.363	5.939	5.815	6.385	7.952	8.481	8.586	8.617	8.813	9.573	10.13	10.30	10.94	11.62	11.72	12.43	12.86	12.60	12.73	12.96	12.80	13.37	13.11	14.23	13.71	13.35	13.57	12.64	12.67	11.84
410.0	1699	2245	2544	2679	2864	2926	3052	3345	3748	4420	4978	5221	5084	4706	4065	3245	2517	2155	2149	2293	2480	2688	2899	3071	3145	3140	3082	2979	2768	2449	2076	1618	1154	823.8	673.5	650.3	830.1	1331	1242	146.6	15.02	5.102	3.781	3.526	3.677	4.382	4.652	5.590	6.159	6.025	6.622	8.217	8.933	9.547	9.234	9.731	10.80	11.21	11.53	12.43	12.90	13.58	14.27	14.44	15.08	15.24	15.04	15.31	15.36	15.47	16.12	15.94	15.82	15.58	14.62	13.72	13.00
415.0	1712	2222	2478	2659	2893	3002	3113	3433	3858	4511	5155	5394	5261	4862	4184	3318	2527	2137	2111	2245	2451	2676	2917	3131	3238	3238	3215	3097	2927	2662	2261	1772	1279	926.8	752.1	653.3	550.3	510.6	883.5	1328	213.5	11.91	4.849	4.090	3.909	4.275	4.885	5.342	6.453	6.223	6.679	8.542	8.974	9.703	9.697	10.15	11.01	11.70	11.91	12.71	13.14	14.15	14.50	15.17	15.45	15.69	15.47	15.63	15.94	15.93	16.36	16.49	16.40	15.73	14.84	13.87	13.12
420.0	1651	2138	2399	2629	2795	2953	3056	3376	3770	4370	4944	5181	5057	4673	4022	3177	2414	2048	2018	2151	2339	2561	2807	3020	3143	3155	3146	3026	2850	2632	2261	1761	1296	940.1	759.4	644.1	479.6	317.1	322.6	1020	1160	35.55	7.326	4.393	4.046	4.602	4.757	5.621	6.163	6.003	6.439	8.475	8.887	9.356	9.685	9.997	10.83	11.50	11.68	12.46	13.02	13.61	13.74	14.51	14.47	14.61	14.81	14.73	15.34	15.57	15.57	15.73	15.08	15.04	14.52	13.67	12.34
425.0	1582	2094	2327	2549	2769	2910	3040	3338	3706	4253	4768	5031	4883	4521	3900	3068	2328	1971	1944	2061	2232	2458	2701	2918	3049	3073	3071	2959	2793	2583	2264	1776	1303	959.2	775.1	651.0	471.5	280.5	175.7	343.7	1113	889.7	30.31	5.409	4.785	4.827	4.492	5.478	5.771	5.636	6.377	8.149	8.686	9.285	9.477	9.716	11.02	11.52	11.65	12.34	12.35	12.88	13.75	13.88	14.08	14.48	14.53	14.40	15.44	15.16	15.09	15.37	15.25	14.82	13.89	13.19	12.16
430.0	1637	2046	2274	2538	2811	3025	3162	3442	3758	4289	4861	5090	4965	4584	3939	3092	2323	1934	1896	1997	2180	2406	2655	2884	3034	3086	3095	2999	2843	2622	2324	1875	1387	1033	843.0	718.6	524.3	310.5	169.1	143.6	350.7	810.9	849.8	127.6	10.80	5.299	4.928	5.520	5.733	5.610	6.482	7.855	8.841	9.271	9.907	10.14	11.43	12.03	12.54	12.58	12.83	13.23	13.74	14.12	14.02	14.40	14.79	14.67	15.22	14.88	15.30	15.37	15.45	14.61	13.84	12.76	12.00
435.0	1792	2027	2283	2519	2856	3121	3326	3581	3854	4372	4931	5170	5010	4620	3956	3105	2327	1918	1854	1949	2109	2327	2597	2833	2991	3066	3083	3012	2866	2660	2352	1941	1485	1104	910.1	787.7	589.3	358.9	197.3	120.3	129.3	220.2	595.9	1045	192.6	10.49	5.752	5.694	6.036	5.829	6.462	8.227	8.475	9.461	10.19	10.72	12.29	12.80	13.28	13.27	13.45	13.69	13.41	14.29	14.13	14.54	14.80	14.32	15.23	15.13	15.20	15.21	15.25	15.01	13.67	12.98	12.27
440.0	1946	2043	2245	2505	2873	3154	3346	3585	3792	4256	4757	4977	4855	4456	3838	3012	2258	1866	1798	1864	2006	2216	2470	2701	2862	2938	2965	2907	2780	2585	2300	1895	1481	1125	928.5	801.9	610.1	384.5	216.6	125.9	89.57	86.73	182.2	810.8	965.7	32.00	7.374	6.091	6.234	5.641	6.501	8.338	8.640	9.662	10.21	10.54	12.39	12.60	13.69	13.25	13.28	13.43	13.59	13.82	14.43	13.98	14.26	14.30	14.57	14.83	14.82	15.02	14.62	14.62	13.30	12.64	11.97
445.0	2116	2093	2218	2434	2810	3129	3337	3505	3628	3977	4398	4580	4476	4129	3541	2810	2119	1770	1700	1750	1871	2042	2272	2489	2640	2723	2734	2700	2583	2404	2149	1786	1403	1104	912.2	780.1	600.7	389.4	229.0	137.3	89.60	63.86	70.86	260.0	939.3	769.8	26.04	6.891	6.311	5.555	6.544	7.874	8.354	9.525	10.21	10.59	12.28	12.29	13.07	12.84	12.87	12.93	13.06	13.45	13.46	13.40	12.99	13.47	13.41	13.62	14.00	13.68	13.73	12.84	12.79	11.98	11.06
450.0	1799	2470	2114	2301	2685	2994	3220	3323	3310	3493	3802	3936	3858	3577	3078	2473	1901	1596	1534	1558	1643	1776	1967	2151	2292	2354	2377	2353	2257	2121	1909	1592	1256	1008	859.0	730.1	564.5	378.9	236.7	151.7	101.1	69.12	53.52	84.33	284.5	699.4	745.6	116.5	10.68	6.038	6.234	7.553	7.800	8.875	9.528	10.16	11.39	11.88	12.02	11.92	12.18	12.24	11.84	11.57	11.92	12.01	11.75	11.63	12.12	12.13	12.19	12.11	12.09	11.45	11.22	10.62	10.23
455.0	1381	2550	2415	2118	2547	2857	3066	3076	3005	3072	3308	3406	3318	3076	2660	2168	1694	1436	1382	1376	1424	1536	1688	1842	1967	2026	2050	2032	1965	1854	1676	1413	1124	910.1	786.3	691.5	535.6	365.5	242.0	163.2	114.1	81.16	58.49	52.44	87.79	180.8	476.9	869.5	158.4	9.958	6.221	7.271	7.684	8.518	8.890	9.652	10.80	11.63	11.40	11.36	10.90	10.76	10.50	10.59	10.23	10.40	9.771	10.50	10.49	10.60	10.55	10.53	10.51	10.27	9.967	9.406	9.617
460.0	1143	2162	2848	2081	2401	2714	2902	2951	2789	2802	2994	3081	2985	2781	2401	1965	1554	1319	1272	1257	1293	1379	1511	1650	1765	1821	1843	1834	1773	1684	1529	1294	1040	851.2	732.4	661.0	522.9	361.5	245.1	170.7	122.4	88.62	64.39	50.11	47.90	60.99	138.9	631.9	741.7	113.8	7.625	7.405	7.540	7.978	8.505	9.299	10.31	10.93	11.02	10.54	9.751	9.914	9.743	9.878	9.563	9.562	8.821	9.436	9.530	9.695	9.686	9.836	9.760	9.414	9.145	8.575	8.188
465.0	1055	1686	3039	2294	2216	2556	2775	2766	2619	2586	2753	2810	2739	2528	2210	1818	1431	1213	1171	1155	1174	1240	1364	1493	1585	1639	1667	1658	1612	1534	1404	1198	968.2	798.9	689.9	614.6	508.4	358.9	244.9	173.5	128.1	95.46	69.77	53.67	42.93	38.01	49.70	195.2	698.0	595.2	22.45	8.035	7.414	7.619	8.188	8.902	9.651	9.954	10.32	10.33	9.562	9.636	9.070	9.003	9.032	8.547	8.426	8.680	8.192	8.472	9.251	8.937	9.042	8.723	8.269	7.971	7.583
470.0	967.5	1343	2338	3023	2127	2322	2494	2499	2323	2268	2377	2447	2358	2184	1915	1577	1251	1068	1025	1003	1013	1065	1167	1276	1358	1401	1429	1420	1385	1328	1216	1047	853.3	710.6	617.1	550.3	462.1	346.5	241.7	175.4	131.4	99.74	76.24	59.82	46.77	37.34	33.70	61.68	207.6	487.7	520.5	111.1	12.05	7.685	7.676	8.135	8.880	9.185	8.998	9.556	8.720	8.370	8.097	8.057	7.759	7.679	7.325	7.646	7.490	7.683	7.777	7.928	7.865	7.454	7.332	7.017	6.784
475.0	857.2	1141	1508	2943	2448	2062	2198	2177	1991	1930	1987	2049	1949	1808	1596	1328	1073	916.5	874.6	850.7	844.1	884.1	962.5	1052	1116	1156	1180	1172	1151	1108	1022	882.2	734.8	613.4	535.9	480.4	402.0	312.5	237.1	173.9	132.3	102.8	81.95	64.68	51.30	41.29	33.65	34.38	61.99	123.2	284.2	572.1	157.4	12.59	7.219	7.389	8.111	8.115	7.873	8.218	7.952	7.345	6.891	6.835	6.709	6.402	6.246	6.347	6.388	6.593	6.554	6.938	6.468	6.426	6.232	6.063	5.893
480.0	789.1	1030	1225	2275	2941	1930	1997	1950	1766	1705	1723	1772	1701	1559	1384	1152	945.2	819.6	775.8	750.7	733.4	765.7	831.7	903.5	954.9	990.5	1007	1009	994.1	957.7	885.6	771.4	648.0	550.0	482.9	431.7	362.1	285.4	227.1	175.6	131.1	103.4	83.65	67.45	55.02	44.83	36.29	30.90	32.15	41.65	81.45	349.3	552.8	134.4	8.784	7.686	7.628	7.496	7.255	7.229	7.020	6.370	6.318	6.123	5.964	5.394	5.779	5.720	5.573	5.748	5.900	5.841	5.513	5.667	5.313	5.205	5.392
485.0	733.9	967.0	1078	1599	3073	2106	1817	1787	1606	1524	1530	1551	1496	1380	1211	1031	840.1	735.1	701.4	669.4	654.9	676.3	732.2	797.5	839.6	864.7	884.1	881.1	870.4	840.8	780.2	689.1	582.5	495.0	437.5	394.6	332.2	263.6	212.8	175.7	133.6	104.8	84.93	70.18	57.75	48.10	39.44	32.59	27.49	25.25	30.89	104.3	442.0	505.1	27.45	7.664	7.337	7.235	7.124	6.652	6.218	5.842	5.524	5.513	5.437	5.094	4.971	4.863	5.097	5.163	5.125	5.163	5.260	5.336	5.045	4.650	4.605
490.0	625.2	905.2	954.4	1185	2310	2763	1717	1573	1417	1320	1313	1328	1282	1185	1036	882.8	733.6	640.3	611.6	582.8	565.3	580.8	626.5	679.2	718.8	737.1	753.4	750.5	739.8	719.4	669.1	594.2	506.5	438.0	390.0	351.6	298.2	240.5	193.5	163.6	136.0	108.5	87.09	72.96	61.02	52.13	44.11	36.43	29.55	24.71	22.68	36.73	126.9	334.4	440.7	116.9	13.93	7.061	6.550	6.199	5.553	5.292	4.834	4.805	4.704	4.536	4.366	4.468	4.646	4.598	4.697	4.340	4.447	4.623	4.385	4.105	4.043
495.0	522.9	786.1	892.9	983.8	1436	2838	2039	1370	1223	1126	1143	1146	1094	1017	883.9	757.1	631.2	554.9	523.6	501.5	484.0	493.4	531.5	574.9	601.8	621.1	630.7	631.1	623.6	608.6	570.1	506.4	441.3	379.0	340.7	310.9	266.5	217.9	177.6	148.3	130.6	111.3	90.07	74.40	64.54	54.44	47.43	39.62	34.10	27.41	23.84	23.79	41.44	87.12	223.3	522.2	195.5	14.88	6.449	5.678	4.922	4.790	4.413	4.129	4.151	4.216	3.871	3.726	3.787	3.990	3.905	3.752	3.778	4.021	3.792	3.465	3.401
500.0	475.4	709.1	852.5	863.7	1110	2163	2605	1294	1097	1017	1019	1009	965.7	896.5	778.0	664.4	562.4	492.1	463.5	444.7	426.8	434.2	461.9	497.8	527.8	545.4	552.6	549.3	542.3	530.8	496.8	446.3	391.4	338.9	306.1	278.6	240.1	198.8	164.0	137.7	121.1	109.3	92.65	75.31	64.90	56.17	49.76	42.24	36.24	29.87	25.75	22.69	23.78	32.06	63.21	280.3	543.7	161.7	9.863	5.527	4.669	4.384	4.017	3.680	3.811	3.693	3.493	3.429	3.765	3.529	3.519	3.523	3.536	3.428	3.340	3.390	3.272
505.0	411.1	599.6	772.4	787.7	923.9	1445	2848	1467	987.5	917.4	903.8	898.7	862.6	790.7	690.0	586.6	495.6	438.8	411.7	394.9	378.3	383.4	406.6	438.0	462.4	477.0	484.9	476.6	474.9	462.1	439.8	395.5	345.3	302.0	274.3	249.9	218.1	181.3	152.4	126.9	112.7	101.8	92.84	76.57	65.27	57.29	50.23	43.79	37.58	31.87	27.75	23.86	21.28	20.03	25.10	79.71	350.3	496.0	31.16	6.638	4.493	4.060	3.651	3.356	3.296	3.200	3.277	3.140	3.379	3.099	3.041	3.365	3.068	2.962	3.059	2.917	2.788
510.0	367.5	504.9	642.6	720.9	782.8	993.4	2033	2198	929.7	778.5	774.9	761.3	727.1	658.3	576.6	494.5	421.4	372.3	348.9	331.8	319.2	320.6	340.8	365.7	386.3	395.2	397.7	395.1	392.1	382.8	365.0	331.3	290.7	256.2	234.2	213.9	188.3	160.2	134.8	114.2	101.6	90.69	85.57	77.49	65.00	56.83	49.68	44.09	37.71	32.80	29.27	24.94	21.91	19.02	17.67	27.94	95.21	269.6	367.6	124.6	13.04	3.761	3.264	3.098	2.864	2.768	2.820	2.683	2.754	2.742	2.737	2.743	2.546	2.596	2.595	2.571	2.397
515.0	294.5	395.0	508.2	646.0	678.1	764.6	1101	2396	1335	644.4	649.5	627.1	597.5	547.9	470.3	409.6	346.8	305.8	292.4	275.5	260.2	263.5	279.1	297.2	313.2	320.2	322.7	319.4	316.7	311.6	296.9	270.8	239.6	212.6	196.6	179.1	160.8	137.5	118.9	102.3	91.05	81.32	74.84	71.68	66.05	56.29	47.82	42.70	37.20	32.84	29.10	25.85	21.78	18.61	16.19	16.80	29.61	67.44	145.8	369.7	199.3	14.99	3.320	2.698	2.611	2.396	2.390	2.315	2.326	2.240	2.284	2.285	2.283	2.024	2.286	2.034	2.101
520.0	253.4	358.1	445.7	570.9	633.6	640.0	747.6	1755	2012	621.4	553.9	545.3	514.6	465.2	403.3	347.1	301.0	266.1	254.8	236.8	224.8	224.7	240.8	253.0	270.1	276.0	274.5	271.1	271.6	264.5	252.1	233.7	205.7	184.3	172.6	155.7	141.3	121.6	106.3	92.94	84.86	73.62	67.91	63.67	64.41	56.21	46.25	41.55	36.60	32.30	28.66	25.85	22.44	18.85	16.22	14.48	15.38	22.38	39.38	168.3	389.8	160.9	8.772	2.616	2.412	2.041	2.024	2.087	2.239	2.077	1.940	2.035	1.759	1.927	1.973	1.888	1.773
525.0	233.1	325.6	396.1	481.5	593.1	566.9	602.2	1028	2426	857.7	489.4	479.6	455.1	409.8	355.1	304.9	264.9	232.9	221.3	206.5	200.0	197.2	208.7	221.2	231.4	238.2	236.4	233.3	232.6	231.1	219.7	202.6	180.7	161.5	149.7	137.8	124.9	108.8	96.89	84.79	75.25	68.81	62.77	58.32	58.14	55.19	46.56	39.35	35.05	30.63	27.94	24.97	21.66	19.09	16.08	13.49	12.16	12.04	14.52	45.08	207.6	364.1	32.19	4.133	2.312	2.063	1.816	2.069	1.960	1.988	1.769	1.803	1.679	1.817	1.719	1.784	1.769
530.0	206.3	276.5	322.3	374.5	518.3	509.9	501.3	602.2	1678	1751	490.1	404.4	380.5	340.1	295.6	254.2	221.2	199.0	186.5	174.7	167.0	165.6	172.2	183.8	192.2	198.7	195.0	192.6	191.6	190.3	182.0	168.8	150.0	136.6	126.9	118.0	105.8	93.54	83.40	73.98	66.91	60.58	55.31	52.06	49.74	49.47	45.47	38.29	32.80	29.33	26.56	23.02	20.33	18.19	15.54	12.92	11.10	9.661	8.955	14.66	53.37	168.7	223.0	123.0	11.80	2.093	1.707	1.667	1.702	1.684	1.605	1.461	1.499	1.421	1.417	1.467	1.354
535.0	163.0	220.5	265.7	303.5	402.1	461.6	426.5	432.7	739.5	2129	936.4	340.4	318.6	284.6	243.8	209.8	181.7	164.7	153.6	145.0	138.5	136.5	141.3	149.0	155.6	160.6	157.5	158.2	156.3	153.7	147.9	137.2	122.5	112.5	105.1	97.02	89.84	79.73	70.99	63.68	57.83	53.09	48.28	45.69	42.85	42.25	41.57	37.61	30.58	26.72	24.49	21.36	19.08	16.64	15.25	12.75	10.35	8.769	7.434	7.454	15.56	40.85	78.68	249.1	179.0	13.69	1.679	1.466	1.427	1.508	1.491	1.269	1.310	1.340	1.116	1.102	1.175
540.0	147.3	195.2	224.9	259.2	318.4	414.8	382.8	354.8	418.4	1472	1692	334.2	269.6	243.8	206.0	181.5	156.1	139.5	132.0	123.6	119.0	117.2	123.1	127.1	133.0	137.4	134.4	131.8	131.3	131.3	124.7	116.7	105.5	97.02	89.86	83.59	77.37	69.35	61.34	57.31	51.18	47.42	43.35	40.98	38.82	36.57	36.92	34.70	29.82	24.94	22.05	19.47	17.81	15.28	13.60	12.30	9.982	8.091	6.831	5.833	7.284	11.95	20.28	101.1	270.9	128.8	6.829	1.348	1.412	1.192	1.377	1.141	1.101	1.028	1.105	0.939	1.037
545.0	127.3	169.3	195.8	228.4	262.8	352.6	359.2	308.8	310.7	730.4	2162	513.5	234.8	208.9	178.5	156.0	132.9	120.7	114.4	106.6	102.8	99.19	103.7	108.9	113.7	118.7	114.1	112.3	111.3	110.9	107.6	99.68	90.80	82.82	76.73	72.48	66.43	60.18	54.30	50.12	45.74	42.33	39.92	36.57	34.83	33.14	31.53	31.11	28.54	23.29	20.11	18.42	16.08	14.49	12.49	11.15	9.552	7.698	6.411	5.455	5.211	5.476	6.937	25.72	127.0	248.9	32.04	3.072	1.161	1.113	1.260	0.954	1.018	0.845	0.926	0.920	0.853
550.0	110.9	134.9	169.5	179.2	211.8	263.3	320.6	261.3	240.3	335.1	1393	1355	239.5	167.2	145.7	125.9	109.4	97.96	92.44	86.18	81.14	80.72	84.52	87.19	92.01	93.66	91.95	89.76	89.49	89.18	86.88	79.45	73.06	66.80	62.21	58.39	53.84	49.28	44.30	41.40	38.88	35.19	33.03	31.39	29.58	27.91	26.44	25.46	24.75	21.99	18.30	16.09	14.12	12.50	10.80	9.851	8.640	7.232	6.102	4.749	4.132	3.770	3.855	7.500	31.16	102.3	162.3	95.12	11.08	1.145	1.057	0.886	0.844	0.780	0.860	0.720	0.785
555.0	105.8	133.0	140.4	153.5	171.5	192.3	255.5	240.6	185.6	204.1	505.2	1780	577.0	132.8	114.4	98.77	85.00	76.98	71.81	67.54	64.44	63.32	66.28	67.77	72.36	72.89	71.90	71.21	69.27	69.50	67.28	62.76	57.08	53.29	49.32	46.25	43.25	39.29	35.71	33.48	31.06	28.54	27.75	25.88	24.82	22.76	22.41	20.13	19.64	18.78	17.31	14.08	11.90	10.40	9.237	8.237	7.272	6.653	5.514	4.298	3.635	3.224	2.648	3.371	8.413	24.10	50.10	151.4	125.5	11.97	0.857	0.717	0.703	0.785	0.658	0.548	0.673
560.0	97.35	122.4	125.8	134.8	140.7	155.5	200.5	236.3	162.0	157.9	231.0	1222	1220	134.2	94.29	80.97	70.79	63.23	60.77	55.97	53.45	53.99	54.93	56.04	58.52	60.07	58.53	58.91	56.60	57.75	54.51	51.47	47.53	43.63	41.55	38.06	35.50	32.95	30.06	27.31	26.12	24.49	23.03	21.88	20.73	19.85	18.75	17.55	15.89	16.07	15.10	12.73	10.47	9.365	8.222	7.269	6.649	5.505	4.903	4.188	3.429	2.757	2.396	2.312	3.370	6.589	12.45	56.17	161.7	88.64	5.305	0.789	0.679	0.583	0.535	0.553	0.617
565.0	83.65	110.3	107.8	114.4	119.1	131.7	147.7	214.5	157.0	134.6	150.0	544.7	1667	170.7	80.37	67.26	59.90	52.75	50.92	46.59	45.25	43.43	45.38	46.14	47.98	49.88	48.57	47.32	47.31	47.16	45.38	42.05	39.28	36.95	34.14	32.08	29.39	27.78	25.59	23.31	21.67	20.82	19.72	18.98	18.04	16.99	15.96	14.65	13.67	13.28	13.02	11.75	9.268	8.119	7.293	6.518	5.871	4.775	4.306	4.067	3.245	2.726	2.219	1.950	2.046	2.735	3.830	13.76	70.56	151.3	31.46	2.217	0.633	0.501	0.477	0.484	0.550
570.0	77.12	99.37	100.1	97.01	100.7	109.4	117.1	163.2	166.7	119.3	120.3	215.9	1100	914.7	90.45	52.84	47.59	42.42	40.46	36.89	35.56	34.60	35.71	36.45	37.97	38.91	38.23	37.12	36.63	36.53	35.60	33.33	31.41	28.62	27.24	25.80	23.53	22.34	20.40	19.02	17.58	17.15	16.09	15.25	15.14	13.78	13.07	12.14	11.06	10.34	9.944	9.834	8.406	7.119	5.836	5.455	4.873	4.134	3.802	3.406	3.206	2.488	1.942	1.733	1.667	1.710	1.888	3.917	17.20	58.94	96.65	61.63	8.256	0.577	0.432	0.459	0.389
575.0	76.85	86.40	93.41	81.90	84.53	90.10	94.79	111.5	172.9	116.8	104.5	123.8	375.0	1360	321.1	43.05	37.31	33.08	32.54	28.25	28.01	26.68	28.19	28.58	29.09	28.63	29.82	28.33	28.90	27.17	27.26	25.86	23.72	22.26	20.89	20.36	18.28	17.29	15.89	15.15	13.78	13.52	12.36	12.30	11.95	10.74	10.67	9.514	8.857	8.164	7.583	7.176	7.519	6.442	5.306	4.685	4.139	3.410	3.152	2.613	2.571	2.599	1.868	1.618	1.468	1.362	1.347	1.851	4.736	13.82	28.24	85.87	77.46	7.789	0.439	0.444	0.372
580.0	79.29	84.35	90.38	78.45	78.35	77.34	82.11	89.97	150.7	132.0	100.6	100.5	150.3	955.4	804.9	44.69	32.19	27.78	26.13	23.06	23.39	21.91	23.17	23.69	23.76	23.39	24.48	23.33	23.13	22.70	22.85	21.57	20.15	18.15	17.12	16.36	15.23	14.79	13.31	12.22	11.61	11.46	10.29	10.23	9.851	9.163	8.937	8.299	7.419	7.161	6.346	5.985	6.251	6.015	4.871	3.868	3.553	3.125	2.517	2.271	2.211	2.260	2.102	1.682	1.346	1.289	1.219	1.299	1.770	3.736	7.187	30.46	96.12	33.93	3.316	0.432	0.331
585.0	80.00	97.06	84.64	70.22	67.68	67.00	75.05	76.84	121.8	149.0	100.5	94.98	94.77	407.8	1144	96.37	26.91	24.27	21.28	20.60	19.36	18.82	19.69	19.54	20.68	19.97	20.79	19.78	19.08	19.43	19.29	17.76	16.66	15.55	14.60	13.31	12.86	12.45	11.29	10.77	9.809	9.718	8.933	8.824	8.464	8.634	7.700	7.144	6.472	6.076	5.671	5.149	5.060	5.245	4.653	3.521	3.288	2.633	2.386	1.985	1.864	1.776	1.910	1.718	1.265	1.159	1.073	1.119	1.166	1.439	2.281	7.592	40.01	87.54	28.32	1.335	0.304
590.0	76.08	85.99	80.21	65.47	60.58	60.79	66.17	64.64	86.05	144.4	115.1	93.88	81.27	140.1	751.5	545.8	33.46	19.69	17.38	16.13	15.18	15.04	15.38	15.61	16.57	16.20	15.85	15.89	15.28	15.42	14.93	14.39	13.13	12.45	11.43	11.05	9.965	9.775	9.377	8.725	8.361	7.993	7.449	7.260	7.043	6.787	6.257	5.925	5.399	4.956	4.562	4.197	3.774	4.046	3.918	3.334	2.733	2.202	1.894	1.777	1.620	1.427	1.561	1.615	1.298	1.060	0.961	1.039	0.938	0.935	1.086	2.220	9.653	34.26	60.38	39.74	5.386
595.0	73.00	82.18	79.23	62.03	51.83	53.71	57.04	57.59	69.61	114.8	136.1	91.56	74.84	69.99	230.4	823.5	94.09	16.22	13.69	13.15	12.63	12.14	11.81	12.17	12.84	12.75	12.69	12.48	12.38	12.04	11.45	10.85	10.13	9.526	9.058	8.687	7.782	7.843	7.149	6.633	6.334	6.207	5.864	5.643	5.664	5.153	5.202	4.604	4.322	3.961	3.496	3.453	2.771	2.769	3.070	3.049	2.600	2.071	1.591	1.437	1.398	1.369	1.278	1.304	1.238	1.101	0.866	0.867	0.801	0.823	0.764	0.870	2.590	8.034	17.05	50.70	35.00
600.0	60.14	79.88	71.45	56.56	48.15	49.76	49.82	53.76	61.77	90.55	142.8	97.77	73.93	55.83	79.26	576.5	427.2	18.02	11.68	11.33	10.19	9.825	9.909	9.759	10.45	10.59	10.45	9.732	9.982	10.07	9.299	8.786	8.350	8.065	7.186	6.825	6.531	6.109	5.953	5.559	5.233	4.794	4.832	4.756	4.603	4.229	4.076	4.106	3.770	3.385	3.167	2.906	2.490	2.328	2.562	2.686	2.487	1.913	1.559	1.186	1.276	1.166	1.112	1.103	1.047	1.143	0.913	0.801	0.740	0.778	0.599	0.536	0.896	2.140	4.158	17.72	53.41
605.0	59.52	77.80	65.44	52.36	42.52	48.59	47.37	53.10	62.25	83.41	140.8	114.4	77.20	53.62	44.43	241.9	678.9	52.77	10.43	10.28	8.391	8.303	8.537	8.355	8.777	9.255	8.964	8.014	8.589	8.817	7.992	7.615	7.386	6.229	6.149	6.138	5.451	5.207	5.171	4.808	4.585	3.922	4.131	3.968	3.877	3.600	3.579	3.425	3.210	2.815	2.494	2.417	2.248	2.080	2.103	2.201	2.268	1.896	1.414	1.274	1.112	1.041	0.978	0.884	0.814	1.247	1.082	0.865	0.731	0.747	0.507	0.590	0.513	0.748	1.176	4.296	22.48
610.0	62.57	78.34	67.89	54.43	44.72	43.44	47.95	53.93	71.19	85.45	125.6	142.0	92.42	62.23	45.36	83.10	495.8	320.7	13.88	7.691	6.897	6.811	6.964	6.834	7.131	7.288	7.153	6.609	6.787	6.546	6.524	6.017	5.821	5.287	5.034	4.705	4.704	4.270	3.884	3.818	3.564	3.341	3.282	3.158	3.020	2.961	2.906	2.760	2.485	2.249	2.142	1.946	1.880	1.783	1.590	1.630	1.713	1.781	1.343	1.215	0.908	0.842	0.885	0.841	0.855	0.925	1.098	0.988	0.774	0.714	0.634	0.579	0.450	0.455	0.597	1.197	5.442
615.0	52.52	67.61	61.94	52.56	44.57	41.45	46.69	53.92	70.48	83.04	108.4	147.4	111.4	65.34	46.70	43.14	165.8	535.3	63.34	6.236	5.816	5.527	5.339	5.613	5.404	5.805	5.546	5.587	5.458	5.310	5.186	4.879	4.534	4.111	3.944	3.641	3.548	3.255	3.132	2.875	2.721	2.630	2.722	2.510	2.363	2.464	2.271	2.080	2.087	1.609	1.728	1.593	1.333	1.399	1.255	1.190	1.235	1.368	1.215	1.027	0.891	0.890	0.814	0.759	0.774	0.749	0.808	0.882	0.939	0.715	0.663	0.456	0.549	0.422	0.463	0.524	1.412
620.0	53.31	66.18	64.11	47.94	40.62	38.54	47.23	51.52	63.40	78.10	96.88	130.0	117.1	66.13	44.45	32.73	59.51	406.7	260.8	7.471	4.991	4.617	4.553	4.748	4.545	4.812	4.417	4.675	4.569	4.670	4.399	4.141	3.645	3.300	3.363	2.900	2.703	2.663	2.483	2.441	2.202	2.218	2.052	2.005	1.970	1.917	1.865	1.673	1.750	1.378	1.389	1.222	1.205	1.053	1.017	1.114	1.057	1.141	1.195	0.948	0.802	0.690	0.824	0.668	0.778	0.684	0.783	0.849	0.781	0.836	0.675	0.476	0.518	0.377	0.376	0.400	0.535
625.0	52.85	69.88	65.76	43.31	38.62	36.53	45.19	50.35	62.04	74.21	93.60	112.1	120.3	69.18	45.38	30.54	32.88	181.9	448.5	23.87	4.596	4.027	4.031	4.131	3.936	4.051	3.671	3.824	3.514	4.065	3.764	3.257	3.339	2.779	2.706	2.398	2.354	2.122	2.061	2.112	1.877	1.876	1.902	1.649	1.775	1.578	1.511	1.570	1.363	1.298	1.131	1.098	1.044	1.042	0.940	0.921	0.812	0.964	1.057	1.016	0.807	0.728	0.702	0.620	0.729	0.681	0.619	0.755	0.704	0.763	0.677	0.479	0.436	0.407	0.301	0.318	0.356
630.0	53.12	69.01	56.70	41.64	36.82	35.87	42.35	50.32	59.53	74.93	89.48	99.17	113.3	76.63	46.10	31.28	26.55	56.99	349.1	171.7	6.433	3.522	3.121	3.436	3.546	3.300	3.103	2.947	3.047	3.279	2.945	2.591	2.509	2.263	2.182	2.079	1.937	1.807	1.745	1.598	1.507	1.512	1.483	1.354	1.343	1.289	1.239	1.300	1.132	1.102	0.899	0.880	0.876	0.817	0.798	0.754	0.686	0.692	0.716	0.820	0.781	0.742	0.657	0.586	0.630	0.603	0.537	0.626	0.619	0.713	0.765	0.558	0.427	0.482	0.378	0.317	0.290
635.0	61.63	65.93	58.76	42.69	36.55	37.17	39.65	45.83	56.97	75.82	87.29	95.81	101.5	90.48	52.22	32.28	26.13	23.87	113.9	363.1	40.65	3.299	2.826	2.693	2.918	2.670	2.517	2.590	2.416	2.459	2.204	2.151	1.927	1.807	1.594	1.668	1.567	1.359	1.372	1.316	1.181	1.167	1.036	1.117	1.053	1.098	1.078	0.981	1.027	0.850	0.809	0.702	0.706	0.619	0.697	0.555	0.551	0.541	0.579	0.666	0.637	0.673	0.548	0.563	0.570	0.628	0.548	0.645	0.601	0.727	0.631	0.682	0.464	0.406	0.418	0.288	0.315
640.0	68.82	75.75	58.73	46.22	36.62	32.55	43.26	46.63	56.37	71.72	86.94	92.31	93.76	92.69	58.98	32.72	27.80	18.13	33.11	299.0	154.5	3.797	2.668	2.528	2.312	2.305	2.061	2.158	2.077	1.984	1.940	1.870	1.645	1.546	1.375	1.552	1.335	1.029	1.069	1.026	1.001	0.883	0.833	0.980	0.858	0.949	0.903	0.924	0.896	0.776	0.705	0.691	0.579	0.568	0.534	0.540	0.424	0.504	0.600	0.536	0.619	0.688	0.486	0.544	0.491	0.565	0.550	0.557	0.599	0.568	0.589	0.706	0.622	0.426	0.410	0.338	0.251
645.0	65.49	83.44	72.72	44.58	34.18	33.32	37.02	45.12	56.46	72.56	86.52	94.92	86.89	90.27	66.98	37.83	28.97	16.30	13.20	143.7	292.8	13.60	2.371	2.056	1.996	2.095	1.916	1.857	1.824	1.716	1.682	1.511	1.387	1.352	1.131	1.133	1.137	0.948	0.909	0.831	0.823	0.830	0.701	0.804	0.771	0.752	0.864	0.709	0.656	0.622	0.578	0.568	0.482	0.540	0.436	0.505	0.433	0.414	0.444	0.494	0.504	0.584	0.518	0.579	0.575	0.553	0.569	0.543	0.433	0.571	0.526	0.589	0.622	0.466	0.404	0.333	0.287
650.0	80.80	95.74	75.77	49.30	35.05	33.94	36.75	43.08	56.77	71.22	82.59	90.60	83.54	81.25	72.36	38.87	28.59	15.86	9.417	45.40	311.0	55.59	2.508	2.119	1.863	1.875	1.795	1.568	1.815	1.607	1.530	1.324	1.232	1.205	1.024	0.918	0.917	0.911	0.803	0.714	0.735	0.664	0.772	0.668	0.717	0.644	0.637	0.607	0.566	0.648	0.526	0.571	0.473	0.479	0.365	0.401	0.414	0.327	0.405	0.429	0.404	0.541	0.526	0.563	0.468	0.532	0.590	0.547	0.443	0.575	0.487	0.528	0.578	0.576	0.393	0.402	0.324
