Sample:	'1
File name:	大洋泊车股份有限公司.FD3
Run date:	'10:34:08, 04/01/2025
Operator:	Administrator
Comment:	'

Instrument
Model:	F-2700 FL Spectrophotometer
Serial number:	23B8-004
ROM Version:	4J14000 07

Instrument parameters
Measurement type:	3-D scan
Data mode:	Fluorescence
EX  Start WL:	220.0 nm
EX  End WL:	600.0 nm
EX Sampling interval:	5.0 nm
EM  Start WL:	230.0 nm
EM  End WL:	650.0 nm
EM Sampling interval:	5.0 nm
Scan speed:	12000 nm/min
EX Slit:	5.0 nm
EM Slit:	5.0 nm
PMT Voltage:	700 V
Response:	Auto 
Corrected spectra:	Off
Contour interval:	50.000

Peak integration
Integration method:	Rectangular
Sensitivity:	1
Threshold:	1.000

Peaks
No.	ApexEX/EM(nm)	Height(Data)
1	225.0/580.0	62.44
2	225.0/610.0	57.57
3	230.0/305.0	961.7
4	230.0/325.0	816.1
5	230.0/335.0	814.8
6	230.0/585.0	68.33
7	230.0/595.0	68.43
8	235.0/255.0	369.2
9	240.0/265.0	445.6
10	240.0/525.0	294.5
11	245.0/270.0	456.1
12	245.0/535.0	245.2
13	250.0/275.0	583.3
14	250.0/455.0	1196
15	250.0/550.0	191.4
16	255.0/280.0	679.1
17	255.0/560.0	153.0
18	260.0/575.0	131.9
19	265.0/585.0	122.4
20	270.0/300.0	1486
21	270.0/600.0	128.6
22	275.0/305.0	1500
23	275.0/610.0	100.9
24	280.0/625.0	76.82
25	285.0/635.0	47.18
26	290.0/325.0	683.5
27	295.0/330.0	512.7
28	300.0/335.0	485.8
29	305.0/345.0	428.7
30	310.0/350.0	361.9
31	315.0/355.0	354.8
32	320.0/360.0	350.6
33	320.0/405.0	281.9
34	325.0/370.0	311.6
35	330.0/375.0	307.9
36	330.0/410.0	282.5
37	335.0/380.0	314.0
38	335.0/415.0	281.0
39	340.0/390.0	281.9
40	345.0/395.0	281.3
41	350.0/400.0	291.0
42	360.0/415.0	253.4
43	365.0/420.0	241.8
44	430.0/505.0	23.66
45	445.0/525.0	13.63
46	455.0/540.0	8.243
47	460.0/305.0	2.535
48	470.0/560.0	4.249
49	485.0/265.0	2.214
50	495.0/270.0	2.014
51	505.0/275.0	3.086
52	505.0/455.0	4.830
53	510.0/280.0	3.806
54	520.0/285.0	4.157
55	530.0/290.0	4.187
56	540.0/295.0	6.078
57	545.0/300.0	7.273
58	550.0/305.0	7.163
59	560.0/310.0	6.077
60	570.0/315.0	5.432
61	580.0/320.0	4.384
62	585.0/325.0	4.118

Data points
	220.0	225.0	230.0	235.0	240.0	245.0	250.0	255.0	260.0	265.0	270.0	275.0	280.0	285.0	290.0	295.0	300.0	305.0	310.0	315.0	320.0	325.0	330.0	335.0	340.0	345.0	350.0	355.0	360.0	365.0	370.0	375.0	380.0	385.0	390.0	395.0	400.0	405.0	410.0	415.0	420.0	425.0	430.0	435.0	440.0	445.0	450.0	455.0	460.0	465.0	470.0	475.0	480.0	485.0	490.0	495.0	500.0	505.0	510.0	515.0	520.0	525.0	530.0	535.0	540.0	545.0	550.0	555.0	560.0	565.0	570.0	575.0	580.0	585.0	590.0	595.0	600.0
230.0	17.79	387.2	1009	331.5	10.75	2.215	1.409	1.473	1.220	1.211	1.148	1.109	0.922	0.983	0.635	0.457	0.471	0.352	0.378	0.371	0.377	0.265	0.250	0.264	0.221	0.186	0.203	0.172	0.141	0.107	0.143	0.108	0.140	0.119	0.154	0.135	0.121	0.069	0.094	0.102	0.097	0.142	0.113	0.083	0.069	0.048	0.368	1.734	3.178	2.273	0.830	0.136	0.032	0.027	0.032	0.031	0.042	0.029	0.025	0.030	0.039	0.042	0.031	0.022	0.000	0.023	0.010	0.009	0.010	0.013	0.009	0.008	0.028	-0.001	0.009	0.014	0.015
235.0	62.97	110.2	730.0	1343	450.9	17.77	2.031	1.686	1.631	1.163	1.081	0.942	1.059	0.906	0.537	0.350	0.457	0.433	0.408	0.518	0.312	0.315	0.260	0.290	0.306	0.197	0.232	0.160	0.134	0.128	0.111	0.121	0.090	0.127	0.204	0.114	0.107	0.078	0.105	0.091	0.112	0.137	0.113	0.142	0.159	0.097	0.123	0.472	1.299	2.563	3.871	4.175	1.842	0.343	0.054	0.038	0.060	0.062	0.017	0.010	0.023	0.033	0.012	0.027	0.036	0.007	0.047	0.062	0.012	0.009	0.007	-0.002	0.035	0.014	0.025	-0.006	0.018
240.0	99.16	83.84	231.7	1246	1602	364.2	9.579	2.415	1.596	1.694	1.146	0.912	0.852	0.963	0.536	0.560	0.445	0.393	0.405	0.410	0.332	0.369	0.251	0.260	0.239	0.240	0.214	0.147	0.145	0.187	0.188	0.127	0.154	0.167	0.127	0.053	0.070	0.067	0.083	0.084	0.133	0.076	0.055	0.132	0.255	0.362	0.214	0.177	0.380	0.781	2.369	5.606	7.137	4.530	1.374	0.188	0.042	0.053	0.031	0.028	0.034	0.035	0.024	0.020	0.021	0.003	0.012	0.030	0.034	0.011	-0.005	-0.003	0.030	0.011	0.021	0.001	0.005
245.0	82.64	170.3	108.9	446.5	1829	1684	241.8	5.059	2.705	1.975	1.782	1.085	1.375	0.957	0.670	0.636	0.548	0.449	0.391	0.364	0.436	0.306	0.261	0.263	0.235	0.298	0.183	0.153	0.182	0.184	0.191	0.153	0.093	0.132	0.122	0.060	0.051	0.121	0.103	0.098	0.107	0.063	0.099	0.111	0.200	0.439	0.492	0.361	0.248	0.210	0.608	2.038	5.069	8.506	7.853	3.880	0.858	0.080	0.045	0.026	0.032	0.040	0.056	0.030	0.004	0.015	-0.009	0.032	0.017	0.001	0.013	-0.007	0.026	0.023	0.011	0.007	-0.005
250.0	30.02	141.4	246.9	198.7	602.6	1708	2062	674.5	30.58	3.293	2.720	1.878	1.717	1.290	0.818	0.812	0.725	0.438	0.509	0.427	0.450	0.396	0.346	0.242	0.312	0.285	0.305	0.231	0.169	0.194	0.132	0.178	0.128	0.141	0.147	0.105	0.066	0.073	0.102	0.105	0.079	0.063	0.078	0.100	0.108	0.183	0.304	0.511	0.736	0.612	0.426	0.576	1.274	2.827	5.118	7.702	9.577	7.981	4.048	0.966	0.092	0.070	0.042	0.038	0.042	0.043	0.015	0.052	0.023	0.011	0.021	0.006	0.023	0.014	0.022	0.019	0.014
255.0	20.68	41.31	187.3	369.2	229.5	441.5	1630	3117	340.3	27.24	2.766	2.956	1.844	1.534	1.141	0.857	0.822	0.553	0.621	0.669	0.644	0.406	0.394	0.290	0.295	0.277	0.288	0.293	0.267	0.230	0.187	0.128	0.180	0.124	0.109	0.112	0.084	0.160	0.081	0.106	0.087	0.118	0.104	0.092	0.108	0.081	0.112	0.203	0.343	0.742	1.152	1.100	0.610	0.779	1.265	1.920	3.679	8.542	15.26	14.07	6.180	3.055	0.098	0.050	0.023	0.060	0.073	0.042	0.020	0.032	0.013	0.052	0.026	0.050	0.039	0.032	0.051
260.0	12.75	17.58	68.71	343.7	349.9	153.3	488.4	2611	2685	270.5	13.72	4.775	3.014	1.756	1.435	1.208	0.951	0.643	0.576	0.682	0.668	0.375	0.498	0.272	0.353	0.327	0.337	0.275	0.331	0.260	0.170	0.214	0.216	0.093	0.127	0.135	0.128	0.118	0.064	0.170	0.101	0.143	0.109	0.090	0.121	0.086	0.099	0.140	0.137	0.293	0.736	1.642	1.757	0.908	0.450	0.550	0.971	2.346	6.623	14.07	20.52	28.66	4.047	0.430	0.021	0.150	0.011	0.044	0.019	0.029	0.034	0.030	0.031	0.042	0.032	0.028	0.036
265.0	12.73	13.90	23.26	153.9	445.6	252.2	142.9	869.2	3366	2292	197.8	7.332	3.474	2.304	1.400	1.734	1.100	0.667	0.568	0.782	0.567	0.433	0.416	0.350	0.338	0.319	0.339	0.208	0.257	0.195	0.198	0.131	0.215	0.178	0.205	0.180	0.164	0.162	0.066	0.191	0.166	0.123	0.122	0.104	0.146	0.130	0.135	0.130	0.079	0.114	0.261	0.835	1.794	2.214	1.143	0.485	0.331	0.604	1.654	4.122	11.85	61.12	20.69	10.76	1.901	0.230	0.064	0.074	0.068	0.024	0.054	0.065	0.037	0.025	0.025	0.019	0.047
270.0	18.66	16.47	15.88	45.03	209.0	456.1	291.3	242.5	1082	2945	3347	798.2	30.47	3.502	2.056	1.863	1.257	1.013	0.695	0.784	0.721	0.625	0.539	0.439	0.429	0.315	0.390	0.276	0.227	0.263	0.229	0.175	0.258	0.180	0.262	0.197	0.174	0.187	0.113	0.135	0.117	0.163	0.134	0.109	0.156	0.091	0.135	0.122	0.082	0.095	0.118	0.262	0.603	1.129	1.686	2.014	1.743	0.741	0.625	1.104	2.895	17.38	10.86	16.05	18.22	16.40	8.483	1.879	0.195	0.059	0.061	0.033	0.050	0.028	0.023	0.047	0.055
275.0	35.14	41.57	27.91	27.08	61.66	200.7	583.3	335.3	289.6	757.0	2658	5598	968.3	21.90	3.620	2.142	1.408	1.035	0.799	0.900	0.852	0.740	0.678	0.612	0.623	0.445	0.511	0.460	0.366	0.297	0.276	0.228	0.204	0.285	0.203	0.239	0.213	0.200	0.230	0.148	0.153	0.168	0.178	0.132	0.172	0.107	0.148	0.136	0.102	0.119	0.119	0.148	0.221	0.364	0.502	0.932	2.336	3.086	2.370	0.812	0.877	4.166	2.645	3.903	5.692	12.83	24.06	24.86	11.22	1.920	0.178	0.047	0.087	0.110	0.098	0.069	0.043
280.0	90.78	98.28	91.11	51.85	42.52	75.79	368.8	679.1	239.0	252.4	814.3	4430	4592	162.0	10.96	3.021	2.133	1.186	0.999	1.036	1.123	0.827	0.699	0.678	0.517	0.581	0.494	0.487	0.353	0.292	0.279	0.322	0.319	0.417	0.267	0.244	0.222	0.235	0.194	0.156	0.206	0.193	0.179	0.240	0.261	0.268	0.270	0.338	0.341	0.215	0.214	0.145	0.183	0.235	0.236	0.365	0.863	1.925	3.806	3.018	1.459	1.416	0.993	1.266	1.638	3.471	8.806	19.50	28.07	22.08	7.428	1.044	0.130	0.086	0.054	0.087	0.078
285.0	180.0	253.8	225.4	129.0	70.47	58.57	164.5	619.9	620.7	250.7	362.4	1481	4712	3533	114.8	5.475	2.834	1.674	1.465	1.160	1.174	1.103	0.855	0.652	0.540	0.610	0.467	0.376	0.428	0.346	0.322	0.365	0.292	0.420	0.396	0.299	0.258	0.291	0.230	0.200	0.324	0.210	0.243	0.385	0.396	0.560	0.498	0.629	0.639	0.411	0.430	0.353	0.310	0.334	0.280	0.308	0.425	0.882	2.070	3.548	4.157	2.353	1.163	1.054	1.149	1.598	2.724	5.726	12.65	23.25	28.13	17.68	3.994	0.328	0.096	0.078	0.078
290.0	320.0	527.7	492.8	312.2	158.2	99.83	130.2	317.2	752.1	799.7	526.7	701.8	1608	3365	2652	461.3	20.03	3.055	2.253	1.808	1.569	1.193	0.995	0.900	0.612	0.615	0.549	0.496	0.431	0.390	0.336	0.379	0.440	0.454	0.439	0.350	0.467	0.353	0.333	0.249	0.362	0.371	0.347	0.503	0.624	0.867	1.077	1.407	1.428	1.134	0.910	0.791	0.581	0.479	0.448	0.339	0.474	0.597	0.979	1.674	2.511	4.044	4.187	3.328	2.307	1.980	2.205	2.811	4.379	7.198	12.06	17.66	20.16	18.94	11.25	3.632	0.499
295.0	467.2	742.8	768.6	517.2	266.9	166.0	163.5	252.8	485.7	1039	1156	740.7	782.5	978.3	2074	4161	610.0	14.66	3.445	2.419	1.756	1.270	1.167	1.034	1.016	0.846	0.629	0.484	0.465	0.488	0.421	0.479	0.456	0.636	0.623	0.572	0.443	0.414	0.329	0.329	0.434	0.421	0.531	0.688	0.997	1.117	1.615	2.156	1.985	1.619	1.488	1.388	1.002	0.731	0.648	0.605	0.634	0.778	0.840	1.274	1.687	2.586	3.235	5.351	6.078	4.600	3.218	3.103	3.285	3.504	4.078	4.990	5.644	10.25	20.94	25.80	15.47
300.0	527.4	874.3	925.0	608.0	337.0	211.8	202.4	261.9	426.9	796.6	1486	1077	668.5	452.1	623.4	3029	3513	95.30	6.937	3.250	2.424	1.873	1.185	1.109	1.028	0.946	0.636	0.573	0.455	0.455	0.450	0.410	0.504	0.607	0.668	0.646	0.576	0.454	0.374	0.307	0.521	0.478	0.623	0.793	1.026	1.547	1.854	2.234	2.377	2.241	1.783	1.645	1.364	1.101	0.873	0.772	0.782	0.900	0.995	1.328	1.550	2.155	2.582	3.669	5.573	7.273	6.157	4.197	3.405	2.800	2.718	2.355	1.886	2.806	6.454	14.62	25.85
305.0	545.2	893.4	961.7	665.5	374.7	253.0	233.4	284.4	434.6	682.6	1215	1500	788.6	369.9	239.0	912.7	3381	2623	70.51	4.570	2.952	2.094	1.398	1.497	1.097	0.821	0.690	0.715	0.581	0.468	0.609	0.472	0.485	0.668	0.610	0.680	0.551	0.474	0.488	0.405	0.403	0.597	0.530	0.796	0.988	1.435	1.904	2.415	2.535	2.394	1.761	1.880	1.540	1.127	1.010	0.790	1.023	1.000	1.145	1.306	1.480	2.109	2.387	3.120	3.933	5.651	7.163	6.668	4.590	3.161	2.445	1.759	1.148	1.265	1.919	3.872	9.488
310.0	505.4	847.8	923.3	661.9	396.8	284.5	251.0	298.3	414.6	622.7	893.6	1229	1179	492.5	178.3	270.4	990.9	2400	2738	326.7	15.27	3.083	2.167	1.551	1.326	1.193	0.964	0.762	0.708	0.638	0.561	0.452	0.522	0.597	0.672	0.567	0.653	0.527	0.487	0.400	0.432	0.476	0.532	0.735	0.983	1.261	1.745	2.433	2.521	2.237	1.989	1.866	1.530	1.263	1.167	1.023	1.053	0.995	1.178	1.314	1.569	1.949	2.392	2.806	3.105	3.905	4.652	5.595	6.077	5.517	3.754	1.960	1.195	0.952	0.963	1.225	2.425
315.0	453.4	753.6	815.2	614.2	399.1	289.8	256.8	291.4	387.3	550.6	729.9	857.8	965.4	867.6	267.7	143.6	274.9	594.7	1807	3859	482.5	12.44	2.952	1.997	1.787	1.458	0.997	0.850	0.787	0.676	0.574	0.581	0.521	0.483	0.744	0.618	0.497	0.546	0.442	0.390	0.432	0.393	0.524	0.678	0.862	1.293	1.605	2.076	2.259	2.012	1.711	1.706	1.536	1.262	1.158	0.990	1.097	0.991	1.139	1.207	1.486	1.904	2.030	2.474	2.903	3.424	3.729	3.624	4.076	4.328	5.432	4.509	2.401	1.224	0.807	0.773	0.975
320.0	426.0	693.1	802.8	581.0	382.8	291.4	255.3	284.1	375.8	524.6	668.8	724.3	719.5	833.4	535.4	146.2	130.8	179.4	496.2	2832	3876	73.36	6.283	2.736	2.027	1.549	1.111	0.785	0.648	0.667	0.596	0.621	0.576	0.562	0.669	0.675	0.520	0.543	0.366	0.380	0.343	0.460	0.458	0.704	0.838	1.224	1.520	1.880	2.334	1.882	1.562	1.713	1.404	1.258	1.180	1.035	1.103	1.124	1.159	1.242	1.465	1.666	1.992	2.289	2.668	3.095	3.030	2.969	3.100	3.242	3.419	4.180	4.384	2.798	1.310	0.797	0.686
325.0	406.5	698.6	816.1	582.8	392.1	294.6	265.2	286.2	363.0	491.0	626.4	664.7	617.6	594.3	683.5	308.4	120.5	99.10	150.5	839.8	3941	3164	60.86	4.465	2.654	1.786	1.333	1.064	0.955	0.714	0.642	0.663	0.512	0.680	0.541	0.674	0.487	0.426	0.360	0.352	0.435	0.441	0.398	0.602	0.779	1.084	1.538	1.816	2.198	2.074	1.699	1.705	1.504	1.195	1.121	1.157	0.948	1.143	1.090	1.280	1.524	1.550	1.992	2.180	2.548	2.890	2.928	2.756	3.026	2.774	2.718	2.638	3.303	4.118	2.969	1.675	0.924
330.0	375.0	660.1	781.1	626.4	420.6	310.4	274.3	283.0	345.0	460.1	570.8	612.5	566.5	472.5	479.1	512.7	274.9	103.1	88.15	229.7	1164	2921	3065	274.3	15.33	2.610	1.843	1.406	0.991	0.837	0.683	0.603	0.650	0.707	0.562	0.435	0.437	0.407	0.413	0.330	0.430	0.403	0.404	0.560	0.821	1.085	1.486	1.902	2.225	2.075	1.840	1.793	1.586	1.303	1.170	1.151	1.083	1.219	1.183	1.233	1.503	1.657	1.838	1.991	2.328	2.575	2.582	2.510	2.647	2.553	2.410	2.087	2.167	2.487	2.848	3.118	2.649
335.0	356.4	620.6	814.8	663.5	487.9	361.2	305.6	298.5	348.1	451.5	537.2	583.4	555.9	461.4	378.2	389.7	485.8	237.8	100.8	113.2	308.4	717.7	2023	3633	426.9	12.28	2.724	1.935	1.292	0.981	0.970	0.764	0.724	0.655	0.578	0.439	0.453	0.493	0.482	0.265	0.386	0.540	0.419	0.516	0.776	0.961	1.436	1.992	2.058	2.127	2.059	1.931	1.794	1.625	1.579	1.359	1.237	1.356	1.217	1.364	1.531	1.655	1.690	2.055	2.138	2.497	2.458	2.461	2.587	2.495	2.293	2.076	1.915	2.006	1.991	1.972	2.624
340.0	373.8	621.6	814.5	706.2	534.5	408.1	338.1	331.6	365.7	455.5	536.1	578.2	549.5	462.2	371.4	314.8	416.1	422.3	159.8	102.8	133.7	211.4	563.9	2630	3293	62.34	5.362	2.174	1.555	1.105	1.063	0.825	0.702	0.640	0.585	0.542	0.468	0.422	0.381	0.324	0.315	0.523	0.417	0.563	0.777	0.978	1.314	2.016	2.102	2.087	2.230	2.069	2.074	1.923	1.617	1.523	1.285	1.311	1.267	1.515	1.533	1.691	2.014	1.986	2.220	2.387	2.316	2.440	2.519	2.521	2.231	2.335	1.898	2.114	1.826	1.704	1.778
345.0	326.8	589.2	796.0	732.3	562.2	428.3	349.9	347.3	366.7	450.5	519.0	553.4	530.1	470.1	374.9	307.8	299.8	428.7	295.6	126.8	106.7	108.2	175.4	789.0	3099	2457	52.24	3.668	1.889	1.228	1.116	0.814	0.655	0.663	0.613	0.545	0.421	0.417	0.356	0.338	0.341	0.411	0.493	0.472	0.674	0.946	1.229	1.744	2.046	2.074	1.954	2.243	2.078	1.842	1.718	1.628	1.591	1.454	1.529	1.360	1.694	1.753	1.820	2.005	2.055	2.293	2.250	2.370	2.156	2.513	2.175	2.261	2.231	2.130	1.753	1.526	1.578
350.0	299.8	535.0	714.3	698.1	562.1	450.2	371.5	350.3	368.4	430.3	483.5	512.3	501.7	457.2	374.3	313.5	267.9	290.7	361.9	259.0	132.2	101.1	103.9	226.4	908.2	2176	2247	240.0	12.68	1.889	1.390	0.964	0.750	0.682	0.607	0.526	0.478	0.434	0.366	0.325	0.351	0.373	0.435	0.435	0.679	0.868	1.131	1.560	2.044	1.971	1.924	2.276	1.998	1.943	1.819	1.608	1.674	1.416	1.546	1.573	1.560	1.813	1.881	1.909	1.979	2.277	2.059	2.285	2.273	2.288	2.199	2.168	2.100	2.017	1.904	1.757	1.647
355.0	278.5	471.9	651.9	665.7	570.1	451.6	391.4	358.4	369.9	422.9	471.3	483.4	475.9	440.1	375.2	322.6	274.9	245.7	260.4	354.8	244.8	125.8	106.4	118.1	244.8	532.2	1487	2682	366.7	8.293	1.956	1.165	1.000	0.779	0.729	0.556	0.498	0.488	0.516	0.307	0.393	0.405	0.471	0.397	0.498	0.968	1.120	1.451	1.793	1.767	1.939	2.254	1.981	2.088	1.841	1.659	1.743	1.573	1.623	1.435	1.506	1.762	1.917	2.004	1.870	2.138	1.982	2.042	2.024	2.105	2.250	2.213	1.878	2.077	1.957	1.709	1.644
360.0	255.2	448.9	612.2	633.6	561.6	465.7	393.4	371.7	375.8	424.9	451.1	465.1	460.6	423.2	373.3	327.5	282.0	244.7	226.9	291.5	350.6	183.6	121.7	105.1	107.0	152.8	414.1	2022	2378	56.45	3.673	1.590	1.227	0.910	0.703	0.552	0.536	0.468	0.415	0.360	0.394	0.442	0.435	0.431	0.515	0.809	1.001	1.341	1.537	1.747	1.765	2.018	1.968	2.061	1.885	1.603	1.694	1.546	1.540	1.565	1.679	1.943	1.922	1.797	1.942	1.989	2.004	2.043	2.052	2.121	2.033	2.095	1.777	1.758	1.966	1.676	1.742
365.0	243.7	406.0	577.7	604.8	555.2	467.8	395.3	373.7	375.6	419.7	436.6	445.7	437.5	410.8	364.5	323.9	287.2	252.0	227.6	239.1	331.7	290.0	151.7	115.1	85.46	77.67	124.0	610.2	2368	1835	44.57	2.401	1.478	1.187	0.745	0.545	0.525	0.508	0.320	0.389	0.418	0.365	0.368	0.369	0.484	0.630	0.978	1.245	1.415	1.580	1.649	1.954	1.881	1.961	1.852	1.638	1.661	1.589	1.655	1.564	1.467	1.979	1.668	1.859	1.831	2.044	2.011	1.968	2.054	2.084	1.999	2.020	1.919	1.954	1.687	1.806	1.752
370.0	220.6	371.1	522.7	568.3	538.4	466.9	406.1	370.2	375.2	411.2	424.2	424.0	418.2	394.0	359.9	323.4	292.1	266.0	242.1	232.6	256.1	311.6	261.0	152.7	103.5	78.29	70.46	167.2	707.9	1764	1749	202.7	9.861	1.601	1.049	0.682	0.586	0.484	0.355	0.388	0.370	0.363	0.353	0.398	0.552	0.625	0.885	1.167	1.275	1.422	1.576	1.803	1.934	1.910	1.818	1.692	1.692	1.628	1.656	1.671	1.546	1.774	1.673	1.711	1.849	1.826	1.856	1.781	1.837	2.036	1.984	1.995	1.884	1.822	1.843	1.834	1.700
375.0	192.8	350.8	483.8	540.5	528.3	484.0	427.6	383.0	373.7	395.6	411.6	410.9	403.9	376.4	342.6	321.9	298.9	275.4	256.5	243.5	238.3	248.5	307.9	253.6	135.1	98.40	75.70	80.54	188.7	435.9	1271	2081	298.1	6.513	1.590	0.988	0.608	0.483	0.446	0.325	0.324	0.418	0.380	0.375	0.455	0.679	0.858	1.063	1.223	1.339	1.428	1.704	1.924	1.886	1.791	1.701	1.700	1.751	1.572	1.514	1.580	1.768	1.751	1.586	1.496	1.763	1.668	1.546	1.944	1.970	1.786	1.706	1.841	1.680	1.681	1.618	1.825
380.0	191.0	319.4	470.9	542.4	522.7	495.8	441.1	400.1	384.6	386.2	396.8	406.5	395.2	374.2	341.6	317.5	299.6	282.1	263.9	252.9	242.5	236.8	270.3	314.0	194.2	120.4	92.38	73.31	83.51	126.1	360.9	1643	1885	46.03	3.069	1.310	0.801	0.605	0.506	0.391	0.393	0.390	0.376	0.333	0.551	0.632	0.661	0.970	1.152	1.269	1.471	1.751	1.855	1.909	1.962	1.978	1.697	1.894	1.540	1.743	1.521	1.803	1.672	1.536	1.490	1.932	1.659	1.802	1.915	1.844	1.645	1.869	1.784	1.756	1.858	1.591	1.719
385.0	176.3	328.1	456.7	520.5	559.3	521.5	465.9	417.2	388.3	394.5	399.0	398.4	382.8	366.1	336.4	317.4	298.2	284.2	273.7	263.5	252.2	242.5	241.9	296.5	272.5	157.3	111.2	86.78	70.92	65.80	107.2	509.2	1956	1363	35.31	2.042	0.958	0.735	0.585	0.464	0.478	0.360	0.436	0.365	0.505	0.787	0.736	1.002	1.110	1.307	1.447	1.823	1.731	2.053	1.822	1.932	1.822	2.039	1.740	1.797	1.782	1.893	1.579	1.819	1.642	1.907	1.777	1.584	1.718	1.750	1.657	1.831	1.919	1.928	1.845	1.641	1.642
390.0	175.4	313.1	454.1	539.3	583.1	569.2	526.1	462.2	411.6	408.8	410.0	405.3	389.5	368.5	341.4	318.3	302.0	288.0	279.1	271.9	263.1	252.8	244.9	254.0	281.9	248.7	157.9	114.9	89.77	69.50	62.29	140.0	592.6	1311	904.8	156.0	6.991	1.155	0.746	0.558	0.513	0.415	0.440	0.436	0.554	0.550	0.754	1.070	1.194	1.403	1.465	1.814	1.898	2.195	1.951	2.091	2.061	2.111	2.022	1.958	1.786	1.880	1.646	1.796	1.696	1.744	1.717	1.730	1.804	1.790	1.777	1.860	1.773	1.926	1.736	1.669	1.664
395.0	194.6	319.7	440.6	552.1	630.3	634.6	590.5	517.2	439.3	420.8	429.5	422.3	400.1	370.8	346.8	321.4	302.4	287.9	279.4	279.4	273.5	267.2	259.4	253.9	250.8	281.3	244.9	155.5	117.2	88.93	66.89	67.57	155.3	324.2	791.6	1356	225.2	4.644	1.137	0.681	0.581	0.614	0.528	0.473	0.539	0.580	0.748	1.078	1.179	1.417	1.450	1.883	2.206	2.306	2.431	2.264	2.535	2.243	2.319	2.092	1.862	1.821	1.821	1.906	1.732	1.702	1.884	1.664	1.589	1.681	1.791	1.849	1.728	1.868	1.808	1.799	1.822
400.0	196.2	303.0	464.8	581.8	656.2	686.5	648.3	561.6	461.3	431.7	428.0	417.7	398.8	379.3	348.6	327.5	300.7	285.5	281.4	276.4	278.9	274.3	268.8	265.7	248.6	259.9	291.0	213.2	142.0	109.6	80.41	60.54	64.59	91.80	229.0	1047	1093	38.63	2.323	0.823	0.669	0.626	0.476	0.489	0.543	0.675	0.775	0.995	1.125	1.330	1.496	1.930	2.130	2.514	2.469	2.402	2.803	2.443	2.342	2.227	2.060	1.948	1.949	1.721	1.832	1.780	1.916	1.851	1.885	1.873	1.715	1.679	1.901	1.844	1.730	1.717	1.793
405.0	207.9	330.4	471.3	598.2	673.4	710.4	681.5	584.2	469.8	438.1	434.8	432.0	404.6	391.0	353.7	330.0	302.3	283.0	280.7	280.1	281.9	276.7	280.5	270.5	260.9	251.2	275.5	274.0	177.8	126.5	95.84	68.64	51.41	44.55	67.15	319.3	1072	817.3	30.17	1.402	0.778	0.670	0.489	0.534	0.551	0.746	0.836	0.956	1.113	1.263	1.428	2.008	2.130	2.777	2.729	2.547	2.693	2.575	2.518	2.420	2.109	2.082	1.831	1.789	1.903	1.878	1.965	1.662	1.814	1.810	1.900	1.700	1.981	1.826	1.712	1.860	1.704
410.0	194.5	322.4	468.6	595.6	711.5	733.8	738.2	619.6	494.7	452.6	447.3	430.2	407.9	392.4	355.2	328.4	296.8	280.8	276.1	277.0	277.8	282.3	282.5	279.0	269.9	257.1	252.3	270.4	242.9	163.6	114.9	81.80	57.43	41.71	35.60	86.07	315.1	757.6	629.3	140.5	6.274	0.969	0.687	0.621	0.591	0.778	0.816	1.056	1.118	1.340	1.534	2.077	2.324	2.502	2.871	2.722	2.965	2.743	2.673	2.449	2.155	2.250	1.848	1.976	1.864	1.843	1.934	1.762	1.843	1.838	1.943	1.771	1.835	1.868	1.797	1.787	1.702
415.0	187.8	321.3	470.2	621.2	708.5	760.5	757.4	648.6	521.4	464.9	447.7	431.7	403.9	381.5	351.9	318.6	290.0	275.2	268.1	270.7	270.6	276.0	278.4	281.0	274.0	264.3	248.5	241.0	253.4	222.9	141.1	94.60	67.86	48.27	34.54	38.32	83.01	186.3	494.6	901.0	200.4	4.558	0.960	0.681	0.707	0.749	0.893	1.045	1.214	1.474	1.700	1.987	2.550	2.688	2.757	3.020	3.241	3.089	2.876	2.308	2.355	2.291	1.932	1.810	1.795	1.848	1.840	1.722	1.657	1.952	1.825	1.988	1.862	1.897	1.662	1.850	1.764
420.0	184.1	319.5	447.7	607.9	734.1	805.6	794.0	675.9	543.0	477.7	446.4	433.2	404.7	375.8	344.9	315.5	288.3	271.5	267.0	270.1	265.3	269.3	272.4	275.1	273.9	265.8	252.3	234.8	230.5	241.8	178.6	107.3	77.36	54.84	39.10	30.74	33.95	52.13	138.0	661.5	839.4	36.11	1.951	0.964	0.726	0.808	0.886	1.087	1.258	1.391	1.625	2.199	2.344	2.672	2.719	2.919	3.246	3.137	3.023	2.621	2.424	2.549	2.004	1.723	1.874	1.750	1.727	1.848	1.823	1.913	1.843	1.971	1.973	1.827	1.780	1.787	1.797
425.0	190.1	309.8	449.2	612.1	736.7	843.0	831.3	728.4	560.2	482.9	443.7	429.5	400.7	380.2	342.7	318.1	287.3	271.1	263.9	264.5	259.2	264.2	266.5	270.1	271.2	265.0	253.8	234.8	220.7	223.0	210.6	129.6	85.67	61.95	44.74	33.38	25.82	23.85	39.66	196.9	764.0	694.6	28.83	1.440	0.870	0.873	0.793	1.074	1.304	1.346	1.514	2.329	2.539	2.946	2.898	3.204	3.292	3.254	3.294	2.798	2.537	2.896	1.957	1.887	1.942	1.706	1.762	1.914	1.754	1.766	1.879	1.845	1.727	1.609	1.712	1.926	1.709
430.0	194.5	319.8	466.1	632.0	780.4	878.6	897.7	807.1	613.3	501.4	441.3	417.9	388.5	372.1	345.8	320.9	291.8	277.1	271.1	263.1	253.2	254.5	256.6	265.2	264.8	263.2	253.6	237.1	221.6	205.6	202.4	172.4	111.2	74.39	54.35	41.47	29.58	21.65	20.43	51.67	217.2	582.2	519.5	134.1	6.723	1.148	0.941	1.221	1.353	1.398	1.528	2.211	2.683	2.910	3.154	3.331	3.524	3.568	3.474	3.149	2.912	2.685	2.141	1.913	1.924	1.736	1.697	1.770	1.688	1.736	1.810	1.707	1.858	1.676	1.674	1.878	1.712
435.0	253.3	331.3	478.6	658.6	825.5	946.2	1002	890.2	680.1	533.0	445.5	419.0	389.2	373.0	342.1	324.7	304.6	288.7	280.8	268.1	252.7	243.9	248.1	256.4	257.5	256.9	253.0	241.3	225.2	207.1	186.0	180.7	151.8	97.70	66.03	50.65	37.18	26.41	19.63	22.25	55.40	139.5	368.0	809.0	200.9	5.694	1.244	1.270	1.318	1.504	1.727	2.348	2.723	2.945	3.344	3.432	4.072	4.053	3.893	3.371	3.199	2.880	2.312	2.120	1.813	1.902	1.749	1.830	1.695	1.626	1.660	1.908	1.820	1.717	1.758	1.861	1.956
440.0	375.0	353.6	503.0	669.5	844.0	1002	1086	970.8	740.8	549.7	450.5	410.1	384.8	371.4	347.8	334.0	316.5	299.8	289.1	274.0	249.4	236.4	240.0	248.2	253.3	252.8	249.5	239.7	228.3	211.9	184.0	168.7	164.3	121.1	77.83	57.07	43.03	30.65	22.00	16.93	20.85	36.89	99.76	552.3	806.7	34.39	2.918	1.501	1.521	1.515	1.833	2.210	2.748	3.258	3.311	3.667	4.293	4.331	4.015	3.738	3.312	3.015	2.353	2.153	1.835	1.925	1.926	1.730	1.757	1.699	1.768	2.005	1.817	1.814	1.786	1.858	1.847
445.0	410.4	432.7	509.1	668.2	872.7	1033	1121	1032	781.7	552.4	447.1	401.6	381.0	369.5	346.7	334.4	319.5	305.3	294.5	274.9	244.7	229.0	231.3	240.3	243.6	245.8	247.1	237.2	228.4	214.7	187.4	162.4	153.8	142.3	94.17	63.50	47.12	33.70	23.49	17.13	13.96	14.78	27.65	157.4	682.0	669.5	26.68	2.315	1.684	1.696	1.887	2.295	2.953	3.292	3.485	3.884	4.326	4.419	4.470	3.824	3.343	3.294	2.677	2.295	2.134	1.886	1.765	1.759	1.743	1.631	1.617	1.910	1.828	1.908	1.911	1.902	2.059
450.0	346.3	650.6	548.8	669.4	882.2	1080	1163	1079	804.2	563.6	436.2	391.3	370.6	357.6	340.2	331.9	321.6	308.6	299.0	276.2	235.9	215.5	218.2	224.7	228.7	234.2	236.3	231.6	225.0	212.2	188.8	161.4	140.2	135.4	118.2	78.66	53.45	38.89	28.30	20.11	15.01	11.79	12.44	39.94	187.3	511.0	640.6	127.4	7.755	1.894	1.911	2.461	3.008	3.448	3.887	4.001	4.562	4.712	4.579	4.106	3.604	3.259	2.649	2.221	1.986	1.637	1.669	1.582	1.625	1.576	1.567	1.819	1.666	1.720	1.913	1.840	1.890
455.0	235.5	708.2	792.7	655.4	872.1	1072	1196	1084	799.2	544.7	418.8	371.3	347.4	345.3	325.2	327.7	313.7	303.3	293.4	265.9	225.8	198.3	200.7	206.0	212.3	220.4	220.4	220.1	217.6	207.4	184.2	160.6	137.4	120.1	113.8	100.7	65.48	42.79	31.49	23.10	17.15	13.26	10.52	14.89	46.11	120.5	330.6	724.8	185.6	8.291	2.089	2.608	2.963	3.530	4.047	3.968	4.458	4.830	4.573	4.385	3.687	3.338	2.668	2.262	1.844	1.513	1.633	1.522	1.625	1.613	1.456	1.631	1.589	1.712	1.701	1.818	1.757
460.0	182.1	548.9	1104	684.1	831.3	1043	1174	1059	781.6	528.8	394.3	348.2	334.5	327.1	313.7	311.6	303.8	297.1	284.4	257.3	215.3	185.6	184.0	190.3	198.4	206.0	210.0	212.8	206.8	198.1	180.7	158.1	133.5	112.5	103.5	102.2	77.30	47.61	33.76	25.59	19.62	15.09	11.32	9.664	15.70	31.28	83.89	433.6	706.0	137.2	4.351	2.772	2.791	3.182	3.577	3.991	4.447	4.735	4.446	4.255	3.648	3.253	2.609	2.069	1.902	1.547	1.418	1.322	1.435	1.481	1.404	1.543	1.342	1.674	1.710	1.707	1.715
465.0	173.4	384.3	1209	867.6	798.3	982.9	1110	1020	759.7	507.7	370.9	331.6	318.1	311.4	300.7	295.9	292.0	282.0	272.6	245.8	198.7	170.7	172.1	176.9	184.9	191.2	196.3	197.8	198.3	188.3	172.1	151.5	131.4	109.4	93.15	89.53	84.97	55.38	35.21	27.00	20.47	15.88	12.87	9.662	9.488	12.15	23.01	117.2	541.8	624.5	23.81	3.325	2.764	3.034	3.751	3.831	4.304	4.513	4.383	4.034	3.931	3.087	2.443	2.000	1.769	1.566	1.456	1.326	1.515	1.417	1.437	1.510	1.350	1.415	1.615	1.590	1.770
470.0	184.6	285.2	822.1	1335	833.7	900.4	1019	948.7	711.7	472.3	343.0	303.4	287.7	284.6	273.1	268.6	265.2	258.9	249.2	221.6	181.4	154.2	153.4	159.1	164.6	172.6	175.4	180.6	179.5	173.8	161.2	143.0	121.9	104.2	87.42	76.04	74.33	64.42	41.86	28.25	21.53	16.95	13.17	10.70	8.710	8.480	9.922	30.53	143.3	409.5	482.2	118.6	9.555	2.950	3.330	3.571	4.097	4.255	3.778	3.741	3.348	2.889	2.054	1.774	1.488	1.431	1.275	1.201	1.270	1.359	1.311	1.293	1.383	1.247	1.458	1.524	1.568
475.0	178.4	252.4	447.2	1343	1213	819.6	916.9	854.7	637.8	424.0	313.9	273.6	257.1	249.9	242.3	244.3	240.7	228.7	222.5	198.8	160.7	136.5	135.0	140.9	145.2	150.7	157.0	159.1	160.9	154.6	146.2	129.4	114.0	96.77	80.78	68.10	59.78	57.83	51.23	32.88	21.79	17.17	13.18	10.94	9.132	7.791	7.060	11.04	35.50	95.25	211.1	462.8	173.2	11.17	3.309	3.278	3.737	3.738	3.448	3.353	3.122	2.664	1.975	1.555	1.247	1.177	1.093	1.044	1.217	1.230	1.058	1.120	1.242	1.145	1.292	1.332	1.507
480.0	181.3	248.4	340.3	916.0	1628	853.7	825.6	784.2	580.0	402.6	290.0	247.8	238.5	228.1	225.8	224.8	220.0	213.4	203.5	181.7	146.3	123.8	122.1	128.3	132.2	136.8	142.9	145.0	147.8	143.6	135.0	123.1	106.9	91.29	76.56	64.18	54.95	48.17	50.49	38.61	23.83	17.68	13.84	11.35	9.494	8.071	6.658	6.897	11.43	24.16	52.29	234.8	451.7	148.3	6.571	3.118	3.395	3.402	3.114	3.281	2.793	2.491	1.899	1.511	1.343	1.248	1.124	1.094	1.122	1.201	1.123	1.139	1.115	1.188	1.178	1.287	1.356
485.0	175.1	268.1	290.8	564.3	1627	1074	767.4	722.3	543.5	372.5	268.5	236.8	220.6	215.8	206.2	205.7	203.3	196.9	189.0	169.9	136.3	114.1	114.1	115.1	123.7	125.7	130.2	134.3	137.2	134.0	127.8	114.6	100.8	86.49	73.84	61.01	51.29	43.33	43.11	42.61	28.83	17.90	14.01	11.59	9.824	8.120	6.562	6.058	6.050	8.209	14.03	61.07	293.9	415.8	29.92	4.003	3.245	3.252	3.170	2.918	2.537	2.242	1.816	1.368	1.348	1.037	1.048	0.895	1.030	0.935	0.963	0.992	1.177	1.158	1.077	1.127	1.288
490.0	128.9	272.4	282.8	398.2	1069	1582	814.7	642.1	485.7	333.6	245.9	214.6	198.1	194.6	185.2	183.2	181.5	176.6	170.3	150.9	122.2	104.5	99.77	103.5	108.8	113.6	116.6	119.8	123.2	120.1	116.7	103.7	92.46	79.07	67.78	57.02	48.14	39.34	35.49	36.36	33.33	22.43	14.58	11.62	9.738	7.991	7.066	5.923	4.996	4.625	5.552	15.98	74.93	220.2	278.1	125.7	12.56	3.009	2.829	2.551	2.358	2.197	1.632	1.370	1.052	0.991	0.971	0.873	0.913	0.924	0.946	0.933	0.991	0.909	0.919	1.006	1.019
495.0	102.5	219.5	284.7	317.0	567.3	1492	1182	565.5	431.0	298.1	220.2	192.0	176.3	174.4	165.6	162.1	156.0	152.7	148.1	132.2	106.7	92.82	88.39	91.49	94.66	98.32	103.6	105.5	107.5	106.9	103.7	91.50	84.11	70.00	61.24	52.70	45.81	36.32	30.33	27.84	30.45	28.68	17.30	11.99	9.221	8.083	6.902	6.164	5.189	3.814	3.479	5.776	18.75	51.55	120.7	379.2	210.1	15.19	2.647	2.604	2.164	1.949	1.584	1.369	0.948	0.954	0.829	0.742	0.776	0.966	0.876	0.779	0.852	0.900	0.788	0.927	0.917
500.0	88.44	179.3	296.9	292.5	409.4	997.0	1584	576.6	385.5	260.2	204.5	172.5	160.4	154.6	147.3	143.0	140.2	135.2	131.5	117.4	96.36	81.84	79.87	81.92	86.43	88.08	90.98	93.82	95.62	96.58	93.31	83.43	74.95	63.81	57.43	48.23	41.29	33.87	28.01	25.06	24.67	27.82	21.26	12.59	9.287	7.838	6.754	5.672	5.245	4.082	3.229	3.351	6.159	13.42	30.14	170.4	437.4	172.3	7.622	2.285	2.135	1.758	1.344	1.111	0.859	0.847	0.829	0.751	0.760	0.742	0.814	0.698	0.772	0.793	0.816	0.796	0.857
505.0	76.56	140.4	272.8	290.2	336.3	588.2	1632	785.2	344.3	232.7	183.2	161.5	145.2	139.8	132.2	127.9	125.3	122.6	118.6	105.9	84.95	73.57	72.29	74.60	76.95	78.39	82.15	84.33	85.73	86.62	83.20	75.15	67.65	59.47	51.69	44.82	37.48	31.69	26.09	22.56	20.44	23.10	23.66	14.98	9.589	8.031	6.515	5.529	4.819	4.319	3.248	2.818	3.345	4.960	8.800	42.98	238.0	425.6	33.35	4.606	2.029	1.675	1.302	0.983	0.995	0.778	0.595	0.763	0.747	0.617	0.682	0.605	0.621	0.759	0.713	0.596	0.741
510.0	61.67	110.9	226.8	296.6	282.9	385.9	1015	1313	363.8	204.5	159.0	139.9	127.3	119.7	112.8	111.3	108.0	104.1	99.87	89.59	73.81	63.65	63.09	63.86	65.70	67.74	70.71	72.23	74.02	74.49	71.21	66.02	59.38	51.45	45.68	39.06	33.57	28.03	23.29	19.80	17.82	16.92	19.82	18.48	12.04	7.789	6.193	5.243	4.254	3.867	3.388	2.781	2.550	2.837	3.792	11.44	58.96	202.3	297.0	208.2	14.69	1.742	1.161	0.831	0.886	0.673	0.579	0.646	0.620	0.530	0.599	0.580	0.583	0.584	0.594	0.550	0.652
515.0	53.85	94.31	148.5	267.2	273.8	289.6	492.5	1332	727.5	176.8	137.5	121.5	110.1	101.5	95.61	93.32	90.69	88.10	82.82	74.83	61.92	53.63	52.46	53.83	53.34	57.47	58.76	61.41	61.94	62.81	61.16	56.38	50.91	43.93	39.88	34.11	29.58	24.78	21.36	17.82	15.83	13.80	13.78	16.72	15.69	9.403	6.065	4.569	4.059	3.440	3.180	3.158	2.404	2.305	2.421	3.943	14.80	46.93	102.7	384.5	243.5	18.40	1.132	0.824	0.798	0.621	0.533	0.568	0.576	0.536	0.554	0.489	0.419	0.488	0.457	0.448	0.518
520.0	49.99	88.95	118.0	226.2	283.8	244.2	307.9	854.3	1207	210.0	118.9	109.1	94.89	91.76	83.39	81.54	78.61	75.91	72.11	64.92	53.61	47.25	45.87	46.08	46.67	50.29	51.16	53.96	55.38	55.70	53.73	48.56	45.20	39.57	34.40	30.51	25.91	22.71	19.22	16.05	14.56	12.11	10.80	12.68	15.32	11.91	6.637	4.591	3.971	3.220	2.792	3.134	2.853	2.287	2.211	2.377	4.764	12.07	24.87	146.4	492.6	229.4	6.359	0.859	0.711	0.554	0.537	0.457	0.568	0.540	0.529	0.480	0.436	0.481	0.526	0.414	0.481
525.0	43.21	71.05	105.3	173.3	294.5	225.6	236.5	442.4	1374	343.4	110.6	98.01	85.62	80.35	73.46	71.39	69.43	66.38	63.16	58.43	47.61	41.12	40.69	40.97	42.27	45.05	45.21	48.62	48.38	49.08	47.56	42.70	40.25	34.80	30.94	27.18	23.72	20.87	17.03	15.07	12.55	10.81	9.803	9.409	12.75	13.63	8.370	5.078	3.821	3.159	2.767	2.662	2.929	2.169	2.056	2.023	2.407	3.935	6.929	35.57	244.8	732.9	33.10	2.445	0.657	0.670	0.398	0.443	0.526	0.341	0.398	0.416	0.413	0.430	0.492	0.457	0.404
530.0	35.22	59.46	83.13	119.7	238.5	231.4	196.3	244.6	839.5	992.9	160.5	84.00	75.40	67.36	61.90	59.84	58.88	55.61	53.15	47.87	40.35	35.87	33.98	35.36	35.03	38.12	38.50	40.24	40.83	41.42	39.61	37.66	33.80	30.22	26.81	23.61	20.97	17.77	15.13	13.00	11.36	9.360	8.535	7.677	8.433	11.01	10.36	6.267	3.795	2.864	2.475	2.137	2.257	2.319	2.293	1.805	1.812	2.200	2.567	9.052	58.98	338.9	255.1	119.4	10.21	0.661	0.418	0.420	0.367	0.334	0.360	0.325	0.364	0.364	0.443	0.356	0.358
535.0	28.57	48.58	65.82	81.38	160.3	245.2	170.4	170.7	310.7	1124	519.1	76.15	62.70	56.93	53.57	49.66	46.61	45.90	43.02	39.82	33.12	29.60	28.57	29.44	29.18	30.43	32.17	32.24	33.90	34.08	33.14	30.31	28.63	25.42	21.75	19.46	17.57	15.05	13.35	11.55	9.924	8.151	7.347	6.704	6.331	7.027	8.981	7.988	4.535	2.781	2.389	1.949	1.900	1.800	2.250	1.771	1.462	1.500	1.524	2.997	14.12	76.64	94.24	228.2	158.8	11.57	0.464	0.396	0.365	0.313	0.371	0.391	0.341	0.312	0.333	0.353	0.308
540.0	26.34	44.40	57.95	70.09	118.8	225.7	168.2	134.9	156.6	690.3	1032	101.4	53.82	48.98	45.37	42.87	40.94	39.32	37.14	33.51	29.07	25.50	24.67	25.21	25.87	27.02	28.19	28.29	29.11	29.08	28.12	26.00	23.91	21.76	19.21	17.51	15.88	12.87	11.69	10.19	8.585	7.517	6.534	5.982	5.149	5.098	6.651	8.243	5.761	2.997	2.137	1.978	1.757	1.662	1.864	2.004	1.673	1.260	1.236	1.513	4.050	18.06	22.23	89.89	245.1	111.4	4.524	0.420	0.348	0.309	0.302	0.360	0.248	0.246	0.273	0.318	0.246
545.0	25.39	36.77	42.35	60.10	87.03	175.2	186.2	110.2	109.5	286.4	1257	223.2	47.56	42.69	39.71	37.98	35.14	34.34	30.97	30.85	24.20	22.14	21.80	21.79	22.88	23.23	23.48	24.22	26.13	25.49	24.31	22.53	21.30	19.09	16.41	15.28	13.52	11.69	10.47	9.313	7.654	6.906	5.850	5.271	4.720	4.332	4.564	6.793	6.392	3.778	2.116	1.671	1.578	1.497	1.444	1.867	2.058	1.257	1.129	1.193	1.695	4.788	5.572	21.71	116.7	230.5	31.96	1.573	0.353	0.252	0.255	0.218	0.194	0.237	0.212	0.247	0.228
550.0	23.02	30.82	41.60	51.96	63.91	114.4	191.4	109.5	81.71	114.1	725.1	815.7	74.29	36.65	32.98	30.17	28.03	27.51	25.56	23.93	19.85	17.82	18.09	17.82	18.44	18.35	18.91	19.19	21.02	21.10	20.38	18.54	16.67	15.48	14.27	12.49	11.13	9.712	8.799	7.388	6.691	5.715	5.086	4.441	3.986	3.450	3.384	4.391	5.611	5.056	2.826	1.611	1.507	1.239	1.129	1.362	1.727	1.499	1.119	0.920	0.933	1.690	1.696	5.321	27.98	99.61	155.8	85.32	8.729	0.351	0.233	0.286	0.174	0.186	0.206	0.207	0.221
555.0	22.22	27.02	31.71	42.05	51.32	67.14	149.5	134.5	63.61	64.74	217.6	976.1	207.3	29.83	25.82	24.47	22.79	21.84	20.60	18.22	16.11	13.77	14.13	13.87	14.07	14.29	15.17	15.34	16.26	16.19	16.38	14.78	13.49	12.05	11.32	10.01	9.015	7.512	7.376	6.142	5.305	5.051	4.320	3.844	3.493	2.734	2.753	2.648	3.478	4.676	3.907	2.172	1.317	1.020	0.982	1.042	1.152	1.497	1.314	0.859	0.805	0.900	0.825	1.551	6.553	22.59	48.75	147.1	107.9	8.491	0.318	0.230	0.192	0.158	0.119	0.170	0.190
560.0	21.41	25.66	29.43	36.61	42.43	51.14	99.04	153.0	61.41	49.39	85.12	597.8	652.9	41.61	22.01	19.67	18.74	17.41	16.80	14.25	13.66	11.75	12.00	11.43	11.67	12.44	12.50	12.59	13.56	12.38	13.53	12.40	10.91	10.38	9.221	8.397	7.635	6.565	6.225	5.239	4.193	4.010	3.423	3.429	2.961	2.350	2.352	2.056	2.407	3.448	4.249	2.770	1.247	1.094	0.919	0.737	0.844	1.042	1.309	0.959	0.724	0.604	0.636	0.670	1.727	5.343	11.37	56.69	160.3	35.49	3.288	0.248	0.197	0.154	0.132	0.143	0.114
565.0	18.02	29.15	29.89	38.39	37.34	42.70	65.32	147.4	77.11	45.50	53.15	229.7	869.6	127.0	19.07	15.99	15.46	14.39	14.11	12.33	10.90	10.20	9.923	9.514	9.798	10.18	10.39	10.68	11.77	10.65	11.26	10.55	9.556	8.689	7.916	7.116	6.422	5.605	5.258	4.440	3.731	3.343	2.953	2.679	2.512	2.089	1.954	1.688	1.698	2.332	3.375	3.176	1.507	0.873	0.840	0.701	0.767	0.760	1.003	1.157	0.806	0.555	0.448	0.472	0.599	1.518	2.804	13.41	71.82	137.2	29.75	1.162	0.142	0.144	0.106	0.135	0.100
570.0	22.86	39.51	37.36	37.01	32.54	36.29	45.35	105.9	113.8	48.39	48.47	87.35	529.0	498.9	34.15	13.45	12.40	11.72	11.08	9.634	8.573	8.074	8.039	7.797	7.749	7.856	7.939	8.732	9.219	8.934	8.882	8.117	7.245	6.976	6.382	5.691	5.273	4.505	4.330	3.564	3.135	2.892	2.654	2.194	1.955	1.915	1.627	1.519	1.286	1.438	2.081	2.661	2.174	1.186	0.750	0.650	0.621	0.595	0.664	0.832	1.056	0.658	0.485	0.420	0.373	0.604	0.891	3.306	16.97	58.03	95.96	55.56	6.213	0.215	0.127	0.125	0.083
575.0	33.71	45.39	49.56	36.67	30.56	31.06	35.52	59.94	131.9	68.14	51.72	57.63	167.2	645.4	133.9	11.35	9.238	8.915	8.421	7.566	6.887	6.056	6.011	6.057	6.277	6.214	6.397	6.336	7.170	7.105	6.964	6.424	5.628	5.702	4.966	4.417	4.034	3.498	3.124	2.739	2.505	2.272	2.029	1.759	1.456	1.426	1.352	1.301	1.042	1.102	1.170	1.647	2.198	1.769	0.837	0.586	0.547	0.529	0.537	0.618	0.652	0.967	0.572	0.419	0.345	0.478	0.549	1.047	4.015	13.17	29.76	91.18	35.66	4.981	0.176	0.157	0.120
580.0	32.62	62.44	60.58	38.81	29.70	27.20	31.60	40.70	112.5	96.41	55.72	53.66	69.70	408.2	405.5	16.54	8.113	7.460	6.846	6.804	5.750	5.220	5.121	5.074	5.157	5.078	5.210	5.421	5.678	5.907	5.686	5.491	4.558	4.692	4.161	3.684	3.357	2.896	2.788	2.585	2.143	2.013	1.672	1.483	1.368	1.280	1.145	1.120	0.949	1.038	0.903	1.021	1.540	1.659	1.149	0.577	0.502	0.483	0.551	0.389	0.444	0.938	0.855	0.411	0.340	0.365	0.421	0.484	1.116	3.187	6.983	34.81	88.19	32.23	1.846	0.139	0.073
585.0	31.59	56.88	68.33	48.85	31.39	23.48	26.48	33.68	83.23	122.4	63.98	54.81	51.01	161.7	566.9	59.95	6.603	6.540	5.954	5.430	4.647	4.305	4.227	4.112	4.542	4.374	4.767	4.312	4.315	5.122	4.640	4.509	4.065	3.708	3.499	3.091	2.961	2.597	2.321	2.202	1.967	1.735	1.390	1.292	1.177	1.116	1.148	0.904	0.928	0.950	0.784	0.714	1.110	1.704	1.515	0.808	0.579	0.494	0.422	0.390	0.350	0.569	0.929	0.664	0.345	0.385	0.357	0.377	0.521	0.960	1.766	8.229	41.78	84.91	24.66	0.787	0.083
590.0	35.11	57.57	66.59	46.67	30.31	21.71	25.15	31.27	52.95	120.2	86.83	57.49	47.35	56.44	345.8	241.3	13.36	5.522	4.975	4.416	3.925	3.501	3.420	3.504	3.601	3.609	3.891	3.504	3.649	3.856	3.815	3.544	3.142	3.084	2.780	2.395	2.324	2.145	1.762	1.732	1.500	1.391	1.261	1.138	1.065	0.978	0.943	0.818	0.876	0.700	0.676	0.634	0.732	1.035	1.465	1.041	0.591	0.445	0.363	0.369	0.318	0.434	0.540	0.817	0.677	0.357	0.329	0.301	0.351	0.450	0.591	2.030	9.971	35.52	59.50	34.45	3.979
595.0	46.21	54.86	68.43	51.71	28.36	23.22	24.34	28.16	40.13	84.05	116.2	62.26	45.85	31.06	99.70	374.6	78.89	4.768	3.950	3.398	3.204	3.061	2.639	2.732	2.833	2.798	2.877	2.782	2.761	2.949	2.831	2.973	2.684	2.291	2.089	1.913	1.808	1.651	1.423	1.427	1.289	1.145	1.020	0.777	0.860	0.747	0.825	0.717	0.758	0.591	0.532	0.520	0.465	0.559	0.968	1.079	0.854	0.479	0.349	0.288	0.276	0.376	0.370	0.615	0.844	0.575	0.379	0.294	0.252	0.277	0.298	0.587	2.309	8.045	17.57	53.74	34.13
600.0	41.05	56.28	68.00	48.00	28.26	21.92	19.94	26.91	36.16	63.24	128.6	70.10	43.87	25.82	32.32	250.3	225.3	6.969	3.500	2.972	3.020	2.607	2.154	2.196	2.441	2.374	2.470	2.431	2.309	2.365	2.466	2.211	2.190	1.810	1.795	1.634	1.469	1.326	1.245	1.181	0.928	0.812	0.845	0.759	0.652	0.678	0.626	0.653	0.630	0.467	0.478	0.413	0.439	0.430	0.701	0.960	1.047	0.611	0.378	0.283	0.306	0.331	0.423	0.420	0.640	0.680	0.438	0.402	0.265	0.261	0.271	0.273	0.592	1.885	4.077	19.84	55.51
605.0	36.88	55.72	64.18	44.86	29.52	20.39	19.75	22.24	34.20	50.77	114.5	85.48	46.20	23.80	16.23	95.53	323.2	30.71	2.766	2.527	2.356	2.188	2.314	1.984	2.132	2.090	2.108	1.811	1.896	2.186	1.974	1.790	1.761	1.647	1.645	1.459	1.247	0.988	0.995	1.054	0.764	0.829	0.648	0.627	0.565	0.583	0.671	0.583	0.512	0.504	0.393	0.405	0.315	0.357	0.426	0.723	0.983	0.716	0.323	0.340	0.271	0.270	0.368	0.305	0.448	0.634	0.576	0.356	0.244	0.256	0.241	0.197	0.227	0.554	0.998	4.716	24.07
610.0	33.03	57.57	57.06	41.63	27.62	21.56	19.42	20.93	30.95	42.85	79.56	100.9	50.31	22.66	11.64	27.58	208.6	153.7	6.040	2.109	1.881	1.802	1.663	1.583	1.571	1.629	1.567	1.540	1.570	1.716	1.686	1.561	1.421	1.271	1.255	1.062	1.034	0.877	0.797	0.775	0.655	0.596	0.638	0.543	0.479	0.467	0.502	0.511	0.506	0.419	0.363	0.365	0.304	0.292	0.350	0.395	0.666	0.788	0.555	0.406	0.243	0.234	0.300	0.242	0.328	0.382	0.536	0.525	0.286	0.258	0.224	0.173	0.156	0.203	0.287	1.118	5.636
615.0	25.17	45.70	54.15	41.26	27.02	19.61	19.10	20.08	28.33	35.76	53.43	93.78	61.12	22.69	10.38	10.51	60.05	238.2	55.78	2.022	1.561	1.723	1.433	1.183	1.385	1.283	1.149	1.330	1.203	1.230	1.195	1.166	1.119	0.975	0.935	0.741	0.914	0.692	0.600	0.541	0.523	0.591	0.519	0.401	0.403	0.396	0.344	0.431	0.412	0.386	0.301	0.287	0.253	0.357	0.227	0.223	0.411	0.707	0.635	0.459	0.257	0.202	0.233	0.148	0.254	0.247	0.395	0.632	0.450	0.311	0.182	0.144	0.156	0.080	0.104	0.309	1.287
620.0	26.49	46.81	50.61	41.07	21.42	16.75	18.39	21.16	25.63	34.10	46.77	75.65	73.87	23.24	10.40	6.972	18.06	165.3	168.9	3.397	1.375	1.428	1.265	1.078	1.138	1.189	1.038	1.014	1.097	1.023	1.012	1.072	0.951	0.744	0.824	0.692	0.631	0.647	0.519	0.598	0.504	0.369	0.336	0.358	0.364	0.329	0.354	0.395	0.300	0.314	0.278	0.242	0.202	0.259	0.196	0.175	0.258	0.484	0.528	0.509	0.360	0.205	0.224	0.169	0.218	0.272	0.318	0.463	0.528	0.368	0.157	0.175	0.112	0.066	0.078	0.108	0.311
625.0	25.53	44.41	43.57	35.25	23.21	16.59	15.97	19.67	23.88	33.17	41.53	56.35	76.82	26.68	10.02	5.828	7.556	66.14	254.4	18.27	1.207	1.310	1.055	1.006	0.906	0.929	0.815	0.912	0.844	0.949	0.837	0.931	0.697	0.672	0.697	0.513	0.553	0.522	0.567	0.408	0.402	0.350	0.278	0.339	0.336	0.330	0.380	0.303	0.288	0.243	0.236	0.201	0.192	0.217	0.172	0.152	0.295	0.250	0.403	0.443	0.343	0.185	0.222	0.184	0.161	0.302	0.212	0.265	0.439	0.462	0.286	0.113	0.113	0.062	0.107	0.078	0.106
630.0	25.33	37.14	40.96	30.81	19.59	14.69	14.34	17.49	21.64	29.26	37.08	41.57	63.00	37.91	9.964	5.660	4.598	18.55	171.6	131.2	2.966	1.008	1.036	0.824	0.783	0.737	0.780	0.630	0.660	0.684	0.726	0.750	0.633	0.553	0.591	0.454	0.430	0.417	0.425	0.315	0.372	0.279	0.247	0.213	0.228	0.259	0.241	0.277	0.284	0.249	0.201	0.200	0.181	0.155	0.161	0.159	0.182	0.170	0.226	0.383	0.382	0.291	0.172	0.151	0.174	0.235	0.222	0.225	0.276	0.348	0.391	0.131	0.108	0.059	0.124	0.062	0.060
635.0	18.90	32.76	32.76	31.42	17.70	13.30	13.63	13.67	18.86	23.83	32.06	35.68	43.26	47.18	13.13	5.286	3.996	6.429	51.69	230.9	37.83	0.921	0.878	0.675	0.760	0.617	0.554	0.499	0.592	0.610	0.690	0.519	0.591	0.518	0.450	0.363	0.342	0.303	0.277	0.238	0.258	0.179	0.163	0.132	0.165	0.205	0.221	0.229	0.216	0.184	0.188	0.170	0.141	0.164	0.113	0.128	0.110	0.100	0.140	0.254	0.344	0.289	0.204	0.146	0.164	0.184	0.202	0.148	0.146	0.216	0.251	0.346	0.187	0.051	0.086	0.108	0.091
640.0	15.37	25.67	32.22	25.39	17.97	14.56	12.64	11.94	17.61	22.73	28.21	32.73	32.44	44.74	19.52	6.089	3.772	3.863	14.20	172.5	132.8	1.536	0.752	0.710	0.646	0.509	0.486	0.537	0.507	0.647	0.563	0.429	0.513	0.350	0.369	0.411	0.316	0.243	0.253	0.214	0.288	0.174	0.168	0.153	0.138	0.176	0.188	0.177	0.219	0.145	0.154	0.137	0.150	0.136	0.089	0.117	0.079	0.103	0.108	0.179	0.266	0.296	0.259	0.181	0.161	0.164	0.187	0.120	0.098	0.162	0.172	0.301	0.219	0.086	0.047	0.084	0.074
645.0	18.65	31.15	25.96	20.37	18.68	12.66	11.83	11.05	16.22	20.77	28.13	29.40	26.83	34.41	27.80	6.812	3.940	3.145	4.986	73.12	228.1	12.39	0.760	0.609	0.496	0.483	0.447	0.438	0.358	0.635	0.424	0.298	0.359	0.310	0.336	0.329	0.219	0.213	0.254	0.157	0.167	0.205	0.225	0.148	0.157	0.155	0.158	0.152	0.154	0.156	0.111	0.153	0.167	0.111	0.109	0.099	0.063	0.124	0.117	0.098	0.174	0.240	0.266	0.209	0.130	0.126	0.171	0.133	0.095	0.116	0.153	0.225	0.287	0.104	0.061	0.054	0.042
650.0	20.43	28.55	28.34	22.80	16.24	12.78	10.21	11.49	16.75	21.71	26.93	27.33	24.22	26.36	33.13	9.501	3.826	3.261	2.868	21.77	216.8	61.30	0.749	0.460	0.537	0.476	0.303	0.385	0.424	0.389	0.298	0.353	0.364	0.339	0.211	0.283	0.166	0.176	0.222	0.140	0.171	0.122	0.160	0.129	0.145	0.145	0.130	0.089	0.159	0.125	0.096	0.114	0.128	0.071	0.131	0.074	0.073	0.112	0.130	0.100	0.062	0.163	0.178	0.147	0.139	0.113	0.122	0.159	0.131	0.110	0.177	0.152	0.267	0.246	0.096	0.075	0.032
