Sample:	'1
File name:	Default_20250716_142409.FD3
Run date:	'14:17:48, 07/16/2025
Operator:	dsjg
Comment:	'

Instrument
Model:	F-2700 FL Spectrophotometer
Serial number:	2198-001
ROM Version:	4J14000 07

Instrument parameters
Measurement type:	3-D scan
Data mode:	Fluorescence
EX  Start WL:	220.0 nm
EX  End WL:	600.0 nm
EX Sampling interval:	5.0 nm
EM  Start WL:	230.0 nm
EM  End WL:	650.0 nm
EM Sampling interval:	5.0 nm
Scan speed:	12000 nm/min
EX Slit:	5.0 nm
EM Slit:	5.0 nm
PMT Voltage:	700 V
Response:	Auto 
Corrected spectra:	Off
Contour interval:	50.000

Peak integration
Integration method:	Rectangular
Sensitivity:	1
Threshold:	1.000

Peaks
No.	ApexEX/EM(nm)	Height(Data)
1	225.0/455.0	 2322
2	230.0/350.0	 8715
3	240.0/265.0	178.3
4	245.0/270.0	160.7
5	250.0/275.0	175.1
6	250.0/460.0	 3857
7	255.0/280.0	191.9
8	265.0/585.0	55.20
9	275.0/610.0	206.7
10	280.0/335.0	 4902
11	300.0/455.0	 1188
12	340.0/440.0	566.8
13	345.0/445.0	564.3
14	360.0/455.0	581.8
15	475.0/350.0	32.65
16	505.0/460.0	20.01
17	565.0/335.0	25.72

Data points
	220.0	225.0	230.0	235.0	240.0	245.0	250.0	255.0	260.0	265.0	270.0	275.0	280.0	285.0	290.0	295.0	300.0	305.0	310.0	315.0	320.0	325.0	330.0	335.0	340.0	345.0	350.0	355.0	360.0	365.0	370.0	375.0	380.0	385.0	390.0	395.0	400.0	405.0	410.0	415.0	420.0	425.0	430.0	435.0	440.0	445.0	450.0	455.0	460.0	465.0	470.0	475.0	480.0	485.0	490.0	495.0	500.0	505.0	510.0	515.0	520.0	525.0	530.0	535.0	540.0	545.0	550.0	555.0	560.0	565.0	570.0	575.0	580.0	585.0	590.0	595.0	600.0
230.0	77.45	 1010	 1916	442.3	23.42	13.24	11.19	8.695	7.395	6.984	6.606	6.233	5.484	5.155	4.466	3.712	3.608	3.020	2.476	2.181	1.818	1.773	1.565	1.523	1.486	1.471	1.261	1.387	1.274	1.241	1.239	1.128	1.146	1.018	0.954	0.975	0.985	0.881	0.930	0.860	0.833	0.966	1.012	0.851	0.778	0.746	0.817	2.554	5.660	5.814	3.321	1.259	0.654	0.650	0.609	0.644	0.701	0.632	0.659	0.670	0.632	0.652	0.649	0.717	0.675	0.724	0.713	0.705	0.672	0.695	0.702	0.688	0.655	0.662	0.749	0.750	0.774
235.0	91.61	294.8	 1212	 1690	413.2	24.51	11.62	10.01	8.828	7.426	7.376	6.355	5.973	4.907	5.122	3.872	3.803	3.161	2.342	2.238	1.905	1.797	1.520	1.560	1.388	1.458	1.437	1.346	1.329	1.299	1.241	1.157	1.122	1.067	0.948	0.942	0.936	0.890	0.942	0.924	0.732	0.821	0.911	0.939	0.959	0.896	0.650	1.135	2.048	3.285	5.116	6.850	4.295	1.582	0.762	0.639	0.658	0.609	0.624	0.710	0.676	0.677	0.735	0.689	0.669	0.623	0.670	0.734	0.623	0.704	0.677	0.668	0.649	0.692	0.668	0.677	0.687
240.0	129.6	128.0	392.1	 1481	 1562	290.8	14.90	12.36	8.790	7.123	7.142	6.455	5.737	5.109	5.095	3.934	3.906	2.899	2.396	2.314	1.820	1.730	1.495	1.552	1.475	1.364	1.339	1.349	1.298	1.312	1.123	1.190	1.066	1.061	1.009	0.914	0.955	0.931	0.963	0.840	0.852	0.837	0.818	0.832	0.925	1.157	0.845	0.897	0.950	1.269	2.314	5.604	8.364	7.063	3.400	1.077	0.690	0.579	0.702	0.710	0.651	0.725	0.649	0.662	0.613	0.577	0.668	0.794	0.664	0.730	0.707	0.668	0.733	0.626	0.688	0.712	0.763
245.0	128.9	135.3	128.1	553.5	 1689	 1423	182.7	10.84	8.819	7.450	7.557	6.079	5.535	4.885	4.761	4.288	3.543	3.069	2.757	2.291	1.990	1.845	1.721	1.446	1.525	1.448	1.425	1.366	1.331	1.254	1.083	1.167	1.042	1.088	1.009	0.826	0.894	0.926	0.983	0.900	0.899	0.845	0.734	0.798	0.837	0.945	0.982	1.052	0.808	0.747	0.980	2.121	4.369	7.743	8.972	5.844	2.381	0.771	0.680	0.689	0.632	0.653	0.602	0.704	0.694	0.640	0.736	0.747	0.669	0.677	0.744	0.694	0.812	0.739	0.757	0.803	0.793
250.0	71.35	124.5	142.8	171.1	578.7	 1408	 1432	223.2	28.65	7.662	7.818	6.679	5.970	5.218	5.005	4.282	3.567	3.010	2.684	2.244	1.961	1.852	1.635	1.692	1.573	1.446	1.329	1.334	1.365	1.295	1.156	1.212	1.023	1.028	0.952	0.845	0.878	0.831	0.883	0.914	0.819	0.872	0.799	0.781	0.775	0.813	0.787	0.948	1.099	0.977	0.812	1.056	1.548	2.692	4.620	6.205	7.460	6.478	4.238	1.807	0.803	0.665	0.635	0.678	0.687	0.762	0.687	0.720	0.753	0.693	0.756	0.679	0.791	0.697	0.739	0.708	0.801
255.0	51.81	58.15	118.9	166.0	170.9	379.2	 1135	 1723	288.6	26.67	7.851	7.265	6.317	5.781	4.849	4.400	3.779	3.075	2.649	2.156	1.874	1.841	1.845	1.570	1.562	1.258	1.396	1.464	1.503	1.242	1.182	1.126	1.132	1.037	1.077	0.886	1.026	0.816	0.849	0.879	0.881	0.863	0.796	0.795	0.668	0.756	0.701	0.767	0.773	0.829	1.058	1.375	1.181	1.134	1.534	1.891	2.829	5.027	8.325	9.425	6.010	1.889	0.758	0.644	0.642	0.681	0.682	0.759	0.672	0.667	0.743	0.694	0.688	0.630	0.704	0.719	0.880
260.0	43.03	44.05	64.59	152.2	144.5	113.9	361.9	 1420	 1574	228.9	14.33	7.834	7.015	6.438	5.435	4.358	3.979	3.286	2.661	2.256	2.015	1.713	1.948	1.598	1.400	1.416	1.448	1.294	1.312	1.349	1.226	1.274	1.096	1.027	0.966	0.956	1.028	0.807	0.871	0.820	0.807	0.792	0.834	0.799	0.774	0.779	0.720	0.666	0.600	0.615	0.842	1.267	1.465	1.297	1.019	0.964	1.267	1.878	3.625	7.253	10.53	8.642	4.304	1.248	0.711	0.701	0.683	0.714	0.720	0.711	0.658	0.733	0.736	0.685	0.713	0.685	0.748
265.0	41.01	34.78	37.06	88.51	178.3	109.4	99.44	496.7	 1572	 1368	172.1	9.480	7.352	6.113	5.121	4.396	4.037	3.223	2.915	2.372	2.178	1.894	1.792	1.656	1.565	1.482	1.390	1.251	1.233	1.161	1.237	1.369	1.183	1.039	0.973	0.943	1.024	0.833	0.836	0.724	0.787	0.825	0.833	0.718	0.820	0.744	0.683	0.735	0.627	0.564	0.607	0.898	1.101	1.546	1.364	0.915	0.888	0.989	1.385	2.558	5.192	8.946	10.20	7.334	2.714	0.806	0.682	0.700	0.754	0.782	0.689	0.799	0.675	0.662	0.778	0.704	0.760
270.0	42.96	33.43	30.16	39.42	100.1	160.7	113.3	136.7	509.1	 1199	 1339	542.6	43.46	6.973	5.789	4.926	4.104	3.682	2.830	2.533	2.166	1.983	1.751	1.714	1.478	1.459	1.413	1.359	1.329	1.300	1.168	1.148	1.127	1.076	0.997	0.999	0.959	0.998	0.875	0.799	0.789	0.787	0.803	0.784	0.766	0.711	0.690	0.676	0.645	0.569	0.595	0.728	0.752	1.082	1.248	1.444	1.539	1.142	0.983	1.138	1.804	2.947	4.708	6.862	8.065	7.302	4.983	2.357	0.922	0.740	0.691	0.667	0.721	0.754	0.724	0.761	0.774
275.0	48.55	38.58	30.89	24.90	37.41	85.08	175.1	131.6	135.1	315.1	859.8	 1578	755.0	37.69	6.831	5.289	4.618	4.194	3.033	2.317	2.170	1.906	1.847	1.620	1.721	1.556	1.423	1.513	1.238	1.400	1.190	1.274	1.039	1.124	1.025	1.109	1.043	0.884	0.894	0.871	0.839	0.801	0.753	0.813	0.725	0.674	0.686	0.687	0.618	0.567	0.587	0.749	0.625	0.769	0.754	0.885	1.288	1.681	1.869	1.196	1.046	1.238	1.625	2.266	2.884	4.668	7.820	10.15	6.981	2.322	0.767	0.662	0.777	0.735	0.660	0.666	0.805
280.0	55.06	47.55	34.99	25.27	24.72	39.55	123.9	191.9	100.9	92.40	269.7	 1065	 1562	162.1	17.78	5.590	5.197	4.050	2.957	2.608	2.296	1.773	1.906	1.700	1.785	1.617	1.546	1.398	1.359	1.324	1.397	1.178	1.161	1.215	1.055	1.018	1.065	0.917	0.888	0.876	0.844	0.810	0.780	0.786	0.703	0.737	0.693	0.708	0.639	0.622	0.590	0.743	0.657	0.705	0.702	0.670	0.892	1.271	1.811	1.772	1.517	0.911	0.881	1.082	1.289	1.763	3.232	6.489	10.15	9.452	4.596	1.250	0.746	0.732	0.734	0.851	0.731
285.0	63.66	52.71	38.86	27.94	23.68	26.96	58.26	170.2	180.7	74.31	88.60	364.3	 1192	 1237	126.8	8.795	5.694	4.598	3.200	2.616	2.255	1.998	1.763	1.732	1.857	1.757	1.436	1.286	1.285	1.388	1.376	1.194	1.260	1.078	0.954	0.975	1.082	1.025	0.874	0.877	0.773	0.763	0.866	0.761	0.762	0.746	0.769	0.715	0.662	0.653	0.575	0.752	0.637	0.767	0.744	0.645	0.788	0.868	1.185	1.527	2.114	1.515	1.106	0.877	0.957	1.038	1.406	2.276	4.543	7.892	10.52	7.509	3.130	0.895	0.775	0.824	0.805
290.0	73.17	71.19	58.58	45.22	38.94	37.61	48.05	97.39	188.8	210.1	119.8	145.6	404.5	894.3	 1064	464.1	35.79	8.426	4.278	2.786	2.475	2.138	1.989	1.667	1.826	1.761	1.380	1.322	1.404	1.438	1.321	1.220	1.212	1.181	1.086	1.104	1.167	1.115	0.958	0.955	0.858	0.844	0.804	0.758	0.848	0.821	0.754	0.855	0.852	0.715	0.653	0.729	0.751	0.802	0.757	0.762	0.818	0.904	1.016	1.062	1.418	1.735	2.026	1.838	1.521	1.157	1.146	1.377	1.856	2.873	4.593	6.403	8.154	7.589	5.300	2.253	0.887
295.0	139.0	146.9	132.7	105.8	97.40	100.0	123.7	154.5	213.9	358.7	426.6	223.8	257.2	400.9	706.3	 1380	708.0	59.79	10.52	3.978	2.856	2.499	2.183	1.993	1.784	1.559	1.373	1.697	1.493	1.275	1.333	1.225	1.251	1.300	1.213	1.314	1.211	1.328	1.168	1.051	1.131	1.043	0.945	0.952	0.984	0.942	1.037	1.003	1.161	0.930	0.855	0.965	0.932	1.083	0.978	1.066	1.179	1.344	1.462	1.452	1.519	1.889	2.089	2.819	3.459	3.147	2.128	1.918	2.108	2.260	2.529	2.879	3.593	4.942	8.555	10.63	6.905
300.0	301.2	352.4	325.9	246.8	237.2	285.5	362.6	366.3	701.5	986.6	 1260	 1236	 1054	913.2	898.4	 1333	 2106	625.1	56.20	8.681	3.540	2.886	2.380	2.269	2.075	1.673	1.657	1.620	1.721	1.386	1.560	1.289	1.431	1.386	1.576	1.602	1.531	1.722	1.708	1.554	1.613	1.553	1.471	1.437	1.475	1.445	1.603	1.748	1.652	1.419	1.412	1.631	1.686	1.713	1.656	1.871	2.238	2.876	3.055	3.402	4.013	4.548	5.088	5.886	6.645	7.360	7.698	6.950	6.435	5.927	5.504	5.389	5.386	5.939	6.604	9.159	13.68
305.0	631.8	726.9	633.8	499.6	486.8	541.4	870.1	 1153	 1633	 2150	 2658	 2993	 2685	 2146	 1952	 1748	 2479	 2398	434.3	22.59	5.758	3.533	2.764	2.351	2.269	2.005	1.839	1.734	1.759	1.524	1.564	1.532	1.398	1.630	1.962	2.160	2.329	2.488	2.464	2.427	2.484	2.327	2.088	2.148	2.175	2.425	2.569	3.109	2.767	2.481	2.169	2.677	2.651	2.795	3.093	3.333	4.374	5.194	5.982	6.565	7.906	9.534	10.70	12.63	13.03	14.70	16.11	16.67	15.09	13.65	12.60	11.01	11.51	11.66	10.05	10.11	12.94
310.0	 1001	 1193	 1024	810.7	756.4	894.7	 1254	 1651	 2137	 2797	 3356	 3806	 3719	 3060	 2676	 2153	 2318	 2177	 1397	338.8	26.67	5.035	3.644	2.860	2.379	2.150	2.038	2.011	1.750	1.578	1.640	1.557	1.576	1.801	2.173	2.498	2.852	3.070	3.095	3.073	3.031	2.879	2.904	2.802	3.008	3.488	3.806	4.237	4.337	3.822	3.360	3.957	3.895	3.892	4.102	4.747	6.032	7.308	8.272	9.343	10.55	11.92	13.71	15.81	16.53	18.37	19.48	20.27	20.87	19.17	17.99	15.79	16.00	15.44	13.28	11.82	12.98
315.0	 1434	 1733	 1506	 1179	 1041	 1180	 1545	 1940	 2421	 3135	 3788	 4319	 4315	 3825	 3263	 2526	 2451	 1773	817.5	 1302	503.9	24.89	5.482	3.415	2.788	2.276	2.231	2.082	1.883	1.972	1.738	1.540	1.670	1.854	2.415	2.475	3.036	3.362	3.405	3.415	3.605	3.440	3.591	3.671	3.871	4.614	5.344	6.020	6.062	5.077	4.464	5.403	5.054	5.049	5.270	5.980	7.260	8.839	9.730	10.82	11.70	13.27	15.24	18.08	19.09	20.35	21.77	22.67	23.39	21.92	21.72	20.25	19.10	17.95	15.55	13.60	14.42
320.0	 1759	 2173	 1940	 1440	 1212	 1330	 1705	 2085	 2534	 3268	 3949	 4536	 4543	 4104	 3666	 2744	 2563	 1723	522.8	737.5	 1360	369.9	16.14	4.703	3.222	2.364	2.367	2.155	2.200	1.891	1.823	1.651	1.569	1.813	2.341	2.814	3.189	3.698	3.605	3.682	3.842	3.586	4.253	4.089	4.418	5.469	6.288	7.550	7.235	6.289	5.710	6.414	6.066	6.000	6.052	6.640	8.144	9.771	10.81	11.57	12.59	13.77	15.70	18.49	19.56	21.32	22.59	23.88	24.63	23.48	22.42	21.83	22.34	20.34	16.98	15.15	15.12
325.0	 2176	 2896	 2811	 2050	 1468	 1441	 1759	 2110	 2494	 3176	 3856	 4453	 4528	 4111	 3771	 2894	 2541	 1673	505.8	342.1	892.9	 1325	66.45	13.27	4.810	2.949	2.450	2.041	2.215	1.852	1.849	1.754	1.713	1.948	2.442	2.776	3.274	3.576	3.627	3.817	3.787	3.855	4.489	4.822	5.559	7.068	7.807	9.775	10.06	9.379	8.089	8.705	7.384	6.998	6.774	7.324	8.646	10.22	11.11	11.81	12.56	13.53	15.01	18.05	18.96	20.88	21.98	23.55	24.22	23.33	22.86	21.98	22.78	21.63	17.96	15.82	15.25
330.0	 3219	 4582	 4945	 4022	 2821	 1985	 1946	 2172	 2492	 3150	 3838	 4473	 4638	 4320	 3934	 3223	 2773	 1827	756.7	444.6	492.5	931.0	 1163	268.0	28.79	5.359	2.995	2.518	2.332	1.847	1.843	1.892	1.803	1.995	2.364	2.862	3.184	3.671	3.918	4.145	4.141	4.665	5.313	5.905	7.741	9.778	11.51	14.80	16.32	15.67	15.20	16.43	14.45	13.02	10.76	9.373	9.600	10.87	11.80	12.01	12.61	13.32	15.16	17.53	18.93	20.71	21.98	23.77	24.24	23.99	23.64	22.86	22.97	21.87	19.62	18.45	17.29
335.0	 4288	 6534	 7488	 6633	 4999	 2943	 2296	 2351	 2610	 3219	 3942	 4639	 4902	 4755	 4356	 3627	 3254	 2281	 1188	786.4	630.3	636.2	799.2	 1398	428.5	28.73	4.922	2.814	2.592	2.223	2.194	1.904	1.852	2.120	2.622	2.966	3.476	4.010	4.164	4.561	4.793	5.498	6.424	7.341	9.433	13.29	15.26	20.05	23.22	23.19	24.00	27.63	25.38	23.00	17.70	13.02	12.58	11.80	12.93	12.78	13.13	14.35	15.78	17.92	19.24	21.05	22.66	24.25	25.22	25.72	25.49	24.87	25.00	23.92	22.48	20.99	20.38
340.0	 4742	 7226	 8501	 7775	 5705	 3261	 2373	 2353	 2547	 3099	 3805	 4490	 4806	 4709	 4356	 3638	 3196	 2415	 1370	920.1	709.5	610.1	565.1	895.4	 1362	323.4	11.30	3.560	2.702	2.518	2.312	2.045	1.881	2.165	2.754	2.935	3.242	4.048	4.263	4.690	5.220	5.933	6.913	7.963	10.34	13.94	16.55	22.22	25.69	25.99	27.09	31.06	29.52	26.81	20.49	14.55	13.02	12.58	12.98	12.96	12.95	13.97	14.92	17.02	18.21	20.54	21.85	23.77	24.97	24.34	24.66	24.90	24.76	24.44	21.97	20.55	20.24
345.0	 4923	 7371	 8706	 7944	 5768	 3275	 2282	 2246	 2372	 2871	 3535	 4156	 4480	 4451	 4118	 3461	 2975	 2295	 1462	955.4	725.5	610.7	508.4	472.3	910.7	 1197	54.96	5.507	3.042	2.427	2.343	1.992	2.123	2.174	2.504	2.946	3.380	3.727	3.969	4.322	5.030	5.634	6.836	8.263	10.20	14.03	16.92	21.87	26.16	27.29	27.67	31.14	29.98	26.88	20.44	14.86	13.07	12.28	12.55	12.39	12.69	13.03	14.30	15.78	17.05	19.27	19.83	22.36	23.13	22.91	23.76	23.64	23.27	23.52	20.98	19.35	19.21
350.0	 4822	 7180	 8715	 8122	 6026	 3354	 2209	 2092	 2181	 2611	 3183	 3752	 4078	 4082	 3828	 3264	 2787	 2129	 1503	 1086	789.6	644.6	531.0	384.8	332.2	705.1	924.8	231.2	17.82	2.964	2.730	2.001	2.061	2.091	2.386	2.699	3.013	3.352	3.667	4.211	4.621	5.366	6.381	7.861	9.949	13.49	16.17	21.80	25.45	26.90	28.14	32.65	31.24	27.84	21.53	14.79	12.62	11.55	11.45	11.39	11.58	12.03	13.11	14.03	15.78	17.32	18.68	20.12	21.01	21.30	21.90	22.15	21.85	21.69	19.85	18.87	18.19
355.0	 4388	 6615	 8148	 7774	 5869	 3237	 2055	 1896	 1947	 2304	 2794	 3275	 3584	 3631	 3415	 2966	 2533	 1950	 1389	 1103	862.2	654.2	538.4	378.9	191.0	205.5	390.4	 1044	374.8	19.76	2.986	2.132	2.118	2.205	2.229	2.546	2.652	2.935	3.552	3.775	4.348	4.984	5.828	7.298	9.252	12.29	15.38	20.55	23.67	25.82	26.97	31.51	30.77	27.05	20.80	14.59	11.77	10.68	10.72	10.60	10.52	11.01	11.53	12.60	13.99	15.45	16.48	17.43	18.16	19.21	19.60	19.91	19.78	19.32	18.05	17.29	16.68
360.0	 3920	 5910	 7303	 6960	 5349	 2970	 1863	 1676	 1741	 2022	 2430	 2853	 3129	 3178	 2995	 2625	 2230	 1735	 1251	983.5	852.1	654.6	507.2	347.3	161.0	97.70	120.8	534.0	 1136	289.8	8.557	2.510	2.367	2.089	2.174	2.508	2.750	2.765	3.152	3.341	3.917	4.528	5.494	6.513	8.309	10.95	13.27	17.81	21.43	22.90	24.14	29.14	27.62	24.87	18.43	13.56	10.96	9.958	9.382	9.243	9.292	9.859	10.18	11.26	12.30	13.52	14.05	15.25	16.71	16.97	16.76	17.09	17.49	16.99	16.58	15.18	14.65
365.0	 3475	 5273	 6446	 6222	 4760	 2676	 1668	 1499	 1536	 1781	 2118	 2488	 2713	 2773	 2628	 2308	 1965	 1539	 1127	875.6	763.0	670.1	490.0	321.8	155.9	81.89	59.92	157.4	727.5	 1071	51.41	4.302	2.561	2.229	2.254	2.250	2.385	2.572	3.013	3.070	3.507	4.058	4.692	5.838	7.375	9.920	11.68	16.28	19.05	20.57	21.30	25.73	24.62	22.62	16.99	12.31	9.678	8.521	8.505	8.142	8.622	8.898	9.267	10.19	10.81	11.64	12.15	13.60	14.43	14.65	15.07	15.02	15.11	15.05	14.58	13.54	12.51
370.0	 2946	 4437	 5419	 5335	 4138	 2347	 1473	 1296	 1323	 1519	 1800	 2092	 2280	 2324	 2219	 1960	 1684	 1345	 1006	787.8	656.3	612.5	525.8	328.9	162.5	90.32	58.59	65.83	204.6	623.6	859.5	210.9	15.39	2.605	2.367	2.225	2.372	2.442	2.787	2.840	3.008	3.504	4.033	4.981	6.481	8.435	10.07	13.44	16.09	17.28	18.30	22.03	21.58	19.95	14.91	10.68	8.896	7.720	7.392	7.157	7.485	7.524	8.126	8.767	9.112	10.01	10.12	11.18	11.83	12.30	12.68	12.92	13.11	12.68	12.60	11.55	11.10
375.0	 2380	 3581	 4425	 4397	 3469	 2006	 1283	 1123	 1133	 1285	 1495	 1714	 1881	 1907	 1822	 1629	 1408	 1148	879.4	703.3	578.7	519.8	494.4	375.4	186.1	109.0	74.80	59.92	76.82	163.2	359.7	945.9	325.8	16.84	2.880	2.485	2.124	2.270	2.490	2.430	2.557	3.095	3.691	4.530	5.376	6.847	8.310	11.37	13.09	14.40	15.14	17.53	18.20	16.54	13.07	9.265	7.567	6.883	6.489	6.206	6.574	6.256	6.783	7.655	7.825	8.564	8.862	9.023	10.16	10.35	10.89	10.70	10.62	10.68	10.54	9.746	9.729
380.0	 2043	 3046	 3756	 3705	 2999	 1771	 1147	 1008	 1007	 1117	 1299	 1480	 1607	 1632	 1562	 1402	 1223	 1008	793.5	644.9	532.9	473.6	433.5	385.8	235.7	130.2	94.17	71.71	62.44	67.09	108.5	485.7	984.4	246.3	7.708	3.117	2.376	2.301	2.407	2.404	2.503	2.886	3.011	3.776	4.718	6.008	7.218	9.667	11.42	11.95	12.83	15.39	15.36	14.49	11.27	8.036	6.873	6.373	6.195	5.764	5.542	6.258	6.248	6.411	7.039	7.405	7.639	7.882	8.632	8.874	9.099	9.188	9.330	9.187	8.948	8.566	8.698
385.0	 1798	 2648	 3183	 3227	 2597	 1603	 1073	913.4	922.7	 1007	 1171	 1309	 1414	 1440	 1366	 1238	 1093	908.4	733.5	602.1	513.7	451.8	403.7	352.2	289.2	169.1	115.5	91.53	71.48	57.57	55.25	145.9	639.7	886.3	41.84	4.960	2.848	2.491	2.208	2.274	2.280	2.741	2.919	3.565	3.939	5.445	6.558	8.349	9.806	10.46	11.19	13.59	13.73	12.64	10.10	7.316	6.515	5.944	5.593	5.428	5.185	5.374	5.584	5.767	6.092	6.472	6.548	7.249	7.450	7.889	7.955	8.476	8.147	7.978	8.053	7.788	7.542
390.0	 1531	 2207	 2688	 2726	 2258	 1456	 1015	869.4	845.9	908.1	 1038	 1157	 1245	 1249	 1191	 1081	960.9	818.3	681.6	580.3	499.4	446.9	402.5	339.4	299.8	258.0	176.9	129.8	104.3	82.10	66.40	70.79	186.7	520.8	660.1	168.1	14.89	3.623	2.548	2.273	2.214	2.237	2.723	3.107	3.639	4.661	5.441	7.038	8.174	8.642	9.385	11.44	11.60	10.71	9.049	6.892	6.108	5.466	5.403	5.120	5.054	4.915	4.986	5.206	5.608	5.836	5.858	6.519	6.716	7.096	7.167	7.380	7.460	7.351	7.226	6.843	6.425
395.0	 1290	 1879	 2247	 2319	 1983	 1355	 1015	864.5	802.8	852.7	956.1	 1056	 1127	 1124	 1058	969.6	862.0	755.1	651.9	574.8	511.9	468.2	428.7	371.1	315.4	302.6	281.8	199.5	153.0	125.0	100.7	82.25	86.27	152.3	290.2	722.1	266.0	16.39	3.629	2.441	2.268	2.212	2.626	2.893	3.338	4.020	4.854	6.021	6.981	7.395	8.005	9.565	10.02	9.457	8.214	6.667	5.965	5.675	5.396	4.921	5.015	4.740	4.795	4.964	5.183	5.521	5.606	5.668	6.179	6.422	6.419	6.341	6.713	6.586	6.186	6.052	6.162
400.0	 1179	 1647	 2000	 2080	 1808	 1323	 1026	880.0	804.4	840.0	931.8	 1016	 1070	 1062	997.8	909.5	814.6	725.2	651.4	583.8	529.4	494.8	462.6	409.4	357.7	325.3	332.8	278.0	201.0	162.1	132.4	106.0	85.27	85.61	107.4	384.1	746.7	198.9	8.062	2.942	2.357	2.180	2.381	2.606	3.016	3.904	4.208	5.642	6.268	6.695	7.134	8.649	8.797	8.734	7.719	6.411	6.168	5.699	5.205	5.144	4.961	4.837	4.777	4.657	5.376	5.395	5.352	5.539	6.094	5.826	6.305	6.012	6.313	6.102	5.935	6.028	5.834
405.0	 1061	 1498	 1816	 1902	 1692	 1309	 1059	906.2	826.8	843.5	926.3	998.9	 1043	 1016	951.6	877.6	792.5	715.0	654.7	601.1	554.8	526.7	495.4	450.8	399.4	360.2	347.1	341.1	258.4	199.5	166.7	134.6	104.2	86.41	76.24	133.0	477.4	661.8	37.59	4.397	2.757	2.533	2.468	2.631	2.970	3.784	3.954	5.129	5.691	6.054	6.650	7.737	8.392	8.554	7.172	6.503	6.242	5.858	5.222	5.153	4.821	4.904	4.856	4.960	5.251	5.323	5.312	5.740	5.897	5.636	6.096	6.200	5.754	5.777	5.951	5.704	5.671
410.0	983.3	 1351	 1642	 1735	 1622	 1337	 1127	975.4	872.4	857.7	922.5	983.2	 1013	987.7	921.8	851.2	781.0	715.4	666.3	624.1	580.7	548.9	528.1	489.9	442.1	403.2	372.4	358.7	334.0	264.2	208.4	169.9	135.0	108.6	87.77	81.97	151.4	390.4	506.0	150.0	11.56	2.834	2.654	2.692	2.837	3.362	3.659	4.740	5.180	5.509	5.958	7.207	7.705	7.990	7.057	6.726	6.461	6.100	5.842	5.561	5.062	4.997	4.949	4.713	5.190	5.084	5.349	5.278	5.510	5.636	5.839	5.667	5.436	5.561	5.545	5.505	5.333
415.0	931.2	 1275	 1528	 1610	 1582	 1414	 1260	 1106	943.8	890.0	909.3	972.2	993.5	967.5	899.1	837.8	779.5	725.2	684.6	640.3	593.5	563.5	542.7	509.9	476.3	432.7	399.9	366.9	354.2	336.6	261.4	206.6	166.7	135.6	107.4	82.62	77.54	113.4	222.1	540.0	222.4	11.90	3.144	2.975	2.913	3.165	3.501	4.481	4.894	5.082	5.610	6.822	7.304	7.584	7.419	7.079	6.938	6.974	6.506	6.210	5.687	5.013	5.143	5.004	5.111	5.019	5.077	4.950	5.371	5.700	5.586	5.515	5.617	5.330	5.198	5.369	5.397
420.0	906.7	 1205	 1481	 1586	 1604	 1528	 1423	 1251	 1033	918.3	915.6	956.8	980.1	958.3	899.9	847.5	798.2	752.4	720.2	669.5	608.7	565.7	549.4	517.9	488.0	456.5	423.4	389.3	365.1	363.6	316.9	238.9	192.2	157.3	125.6	94.51	68.92	56.80	70.29	276.4	559.7	160.9	6.202	3.145	3.059	3.272	3.777	4.677	4.681	4.949	5.226	6.860	7.338	7.872	7.462	7.802	7.803	7.666	7.928	6.972	6.389	5.502	5.500	5.225	5.275	5.231	5.020	5.114	5.133	5.732	5.522	5.413	5.396	5.280	5.496	5.577	5.658
425.0	923.0	 1212	 1454	 1586	 1697	 1686	 1645	 1435	 1154	959.2	917.1	962.4	979.0	964.4	914.8	871.9	832.0	791.1	759.0	701.7	626.6	576.8	555.0	535.4	504.5	475.7	446.6	417.6	388.6	375.1	361.3	287.9	224.5	182.8	145.8	109.7	76.23	51.26	38.17	83.49	354.6	490.0	33.90	4.115	3.420	3.441	3.591	4.410	4.701	4.757	5.216	6.964	7.431	8.416	8.357	8.711	8.925	9.196	8.368	7.973	7.056	6.217	5.835	5.153	5.253	5.046	5.178	5.104	5.122	5.607	5.352	5.578	5.199	5.601	5.480	5.688	5.681
430.0	975.9	 1248	 1492	 1700	 1902	 2049	 2060	 1815	 1382	 1044	947.5	968.7	997.8	993.3	951.2	937.2	914.3	878.4	846.7	771.3	666.3	590.4	566.0	551.8	530.1	510.4	487.4	461.1	437.1	413.4	394.1	360.3	289.4	225.9	181.6	137.6	97.50	63.23	40.16	38.62	101.6	290.3	328.4	131.6	10.95	3.926	3.897	4.576	4.799	4.753	5.503	7.197	8.023	9.160	9.574	10.07	11.00	11.36	10.80	9.854	8.539	7.728	6.414	5.778	5.354	5.049	5.117	5.129	5.209	5.525	5.433	5.705	5.555	5.874	5.943	6.062	6.345
435.0	 1182	 1307	 1542	 1846	 2182	 2505	 2624	 2266	 1668	 1156	974.1	977.5	 1022	 1043	 1016	 1016	 1009	983.9	951.6	859.5	710.8	600.3	573.9	562.7	556.4	541.8	528.9	513.6	492.6	470.8	440.0	407.5	365.7	288.3	223.4	171.5	121.5	80.69	51.25	36.09	40.66	77.89	154.3	440.5	194.2	10.86	4.617	4.944	5.376	5.265	5.777	7.595	9.116	10.41	11.15	11.81	13.54	13.85	13.63	12.45	10.42	8.768	7.392	6.298	5.661	5.132	4.998	5.262	5.217	5.576	5.840	5.800	5.825	5.905	6.334	6.415	6.682
440.0	 1487	 1382	 1595	 1954	 2411	 2838	 2991	 2626	 1864	 1227	975.5	985.5	 1030	 1060	 1056	 1078	 1081	 1057	 1027	916.5	733.5	603.9	568.4	564.1	566.8	557.1	551.3	542.3	531.3	510.7	478.1	434.7	398.9	336.5	255.1	192.9	139.7	94.03	60.24	40.67	30.56	32.75	47.27	244.0	471.6	35.30	6.407	5.493	5.376	5.388	5.955	7.967	9.817	11.15	12.54	13.61	15.09	15.79	15.82	14.31	12.00	9.890	8.197	6.547	5.625	5.325	5.294	5.359	5.340	5.749	5.973	6.111	6.169	6.223	6.864	7.022	6.926
445.0	 1812	 1474	 1647	 2029	 2601	 3096	 3323	 2898	 2031	 1282	983.7	977.2	 1034	 1077	 1084	 1125	 1128	 1117	 1083	956.8	747.4	601.4	557.5	561.4	563.5	564.3	564.2	562.0	558.0	542.1	507.8	457.7	413.7	367.6	285.3	212.2	154.3	104.2	69.05	46.93	32.70	25.77	24.07	73.51	327.5	389.5	27.76	6.257	5.790	5.716	6.062	8.467	10.21	11.86	13.33	14.63	16.75	17.74	17.21	15.80	13.17	10.86	8.679	6.656	5.453	5.161	5.007	5.457	5.215	5.890	5.910	6.049	6.452	6.751	6.722	7.354	7.340
450.0	 1839	 1895	 1718	 2118	 2774	 3351	 3638	 3190	 2192	 1336	969.2	945.8	 1017	 1073	 1099	 1162	 1177	 1168	 1132	988.2	741.3	582.5	534.1	541.2	550.4	558.4	569.0	573.5	578.1	567.4	537.4	486.3	427.6	374.2	319.1	239.2	170.8	117.7	79.91	55.83	39.65	29.63	23.17	29.88	93.76	265.6	295.3	113.7	11.04	5.978	6.664	8.798	10.56	12.52	14.34	16.04	18.13	19.17	18.79	17.23	14.28	11.16	8.736	6.895	5.591	5.140	4.985	5.233	5.312	5.747	5.937	6.275	6.167	6.595	7.174	7.465	7.725
455.0	 1412	 2322	 1873	 2156	 2822	 3475	 3812	 3350	 2268	 1338	930.6	906.5	973.7	 1034	 1086	 1150	 1188	 1174	 1141	988.8	730.9	551.8	503.6	509.4	525.8	541.1	561.0	566.9	581.8	573.1	550.1	499.9	439.2	374.3	315.2	262.1	188.7	127.2	90.28	64.02	47.43	35.62	27.04	23.22	33.51	70.13	145.5	385.7	156.9	10.85	6.848	8.898	10.85	12.99	15.08	16.52	19.16	19.93	19.63	17.76	14.92	11.81	8.461	6.555	5.123	4.882	4.752	5.058	5.005	5.534	5.948	6.003	6.299	6.617	7.386	7.570	8.064
460.0	 1203	 2257	 2147	 2111	 2815	 3508	 3857	 3368	 2268	 1321	887.5	856.2	934.4	 1008	 1059	 1131	 1163	 1154	 1119	969.6	705.4	520.7	476.6	485.4	502.6	521.3	544.0	557.8	569.5	568.3	543.9	495.8	436.6	368.8	309.1	261.7	201.6	133.2	93.84	69.03	51.02	39.85	29.46	23.88	21.08	26.75	42.92	215.2	385.7	27.34	8.141	9.441	10.53	12.63	14.48	16.69	19.43	20.01	19.83	17.71	14.93	11.72	8.948	6.426	5.234	4.559	4.820	4.842	4.815	5.360	5.411	5.887	6.322	6.318	7.031	7.091	7.849
465.0	 1114	 1794	 2424	 2122	 2741	 3409	 3796	 3282	 2220	 1266	833.3	814.5	889.1	957.3	 1013	 1088	 1128	 1122	 1087	931.6	670.0	491.2	449.2	457.1	475.7	497.5	516.5	537.0	548.0	551.4	529.5	485.8	424.8	359.1	299.1	247.0	205.1	140.8	97.00	70.69	53.16	41.96	32.10	24.63	19.42	17.66	18.99	62.95	280.4	309.3	24.03	9.555	10.64	12.54	14.64	16.40	19.08	19.85	19.64	17.49	14.71	11.45	8.439	6.478	4.935	4.437	4.534	4.818	4.627	5.265	5.150	5.509	6.085	6.283	6.993	6.952	7.289
470.0	 1020	 1399	 2178	 2402	 2574	 3199	 3532	 3083	 2074	 1170	768.5	735.0	800.9	872.8	929.5	 1001	 1044	 1039	 1001	853.0	614.4	446.3	402.0	410.6	429.4	453.1	473.6	494.7	509.6	509.5	493.7	454.6	397.2	339.4	281.8	227.4	186.0	144.4	102.3	71.06	54.55	42.93	32.98	26.05	20.21	16.42	13.94	22.18	79.06	216.2	222.1	102.2	14.33	11.96	13.56	15.47	17.81	18.46	18.50	16.51	13.95	10.83	8.113	6.055	4.601	4.258	4.120	4.387	4.285	4.557	5.040	5.080	5.409	5.954	6.288	6.644	6.900
475.0	950.4	 1168	 1564	 2597	 2518	 2928	 3220	 2798	 1892	 1051	683.5	646.3	714.6	778.5	834.8	900.5	942.3	931.6	906.5	769.6	545.1	394.6	354.8	364.4	382.8	403.2	423.5	442.9	458.3	465.0	447.6	414.6	362.3	314.2	259.5	208.5	165.4	131.6	106.2	74.85	54.82	42.95	34.24	26.87	21.27	16.52	13.14	13.26	24.56	55.26	108.4	290.2	118.8	14.11	12.60	13.99	16.39	16.52	17.44	14.46	12.64	9.363	7.129	5.377	4.494	3.586	3.621	4.001	3.851	4.192	4.370	4.782	5.211	5.558	5.832	6.089	6.226
480.0	897.8	 1064	 1282	 2301	 2640	 2705	 2978	 2586	 1750	966.7	627.8	593.8	657.0	711.0	763.4	825.4	867.0	859.4	830.3	709.1	494.7	358.4	323.5	331.2	347.8	367.8	389.0	407.5	421.2	428.6	414.3	382.8	335.6	290.1	241.2	194.8	154.9	119.8	100.6	79.33	55.14	42.11	34.04	26.99	21.20	17.50	13.52	11.78	12.41	18.62	31.89	156.7	283.2	32.10	12.74	13.89	14.89	15.08	15.46	13.67	11.39	8.790	6.530	4.856	3.973	3.420	3.310	3.581	3.672	3.893	3.969	4.422	4.565	4.953	5.498	5.559	6.041
485.0	829.5	980.5	 1129	 1839	 2721	 2565	 2722	 2373	 1614	886.7	585.5	542.2	595.8	659.5	701.2	758.1	794.1	785.2	761.3	647.8	454.6	328.6	294.4	301.9	318.7	339.6	358.3	373.3	386.9	393.3	382.8	352.6	313.3	268.6	224.3	182.3	144.8	110.6	90.95	79.03	59.10	42.64	32.61	26.60	21.38	17.59	14.26	11.45	10.13	10.82	13.44	46.65	205.1	225.2	28.60	12.72	14.03	14.41	14.40	12.55	10.53	7.891	6.300	4.468	3.775	3.344	3.251	3.172	3.436	3.720	3.859	4.127	4.412	4.573	4.774	5.450	5.343
490.0	740.2	886.5	988.0	 1390	 2341	 2602	 2391	 2100	 1419	788.9	509.1	482.2	535.7	582.2	616.4	664.5	695.4	688.6	668.2	569.0	399.1	286.8	256.4	263.6	277.8	295.8	315.8	328.1	343.0	349.4	339.2	313.9	278.3	239.6	200.5	163.4	129.6	99.50	79.60	69.05	60.63	45.57	32.73	26.03	21.72	17.67	14.56	11.79	10.10	8.942	9.227	17.06	59.26	155.7	216.0	91.33	16.35	12.96	12.78	11.28	9.233	7.286	5.570	4.140	3.315	3.030	3.080	3.118	3.161	3.263	3.431	3.746	3.879	3.813	4.436	4.703	4.937
495.0	624.7	786.3	853.3	 1123	 1709	 2533	 2207	 1794	 1217	677.4	438.7	421.1	457.6	499.1	534.4	571.1	592.8	589.0	572.9	486.8	339.6	245.7	221.4	226.0	239.5	255.4	268.2	283.2	294.5	300.4	294.2	269.6	241.7	208.1	177.1	143.3	115.8	88.28	69.93	58.23	54.24	47.54	34.23	26.18	21.33	17.44	14.06	11.84	10.33	9.005	8.248	9.915	19.77	42.37	111.9	252.5	109.9	14.03	11.10	9.848	7.968	6.480	4.827	3.608	2.838	2.580	2.712	2.605	3.003	2.846	3.062	3.203	3.512	3.558	3.817	4.300	4.489
500.0	519.4	680.6	760.6	967.0	 1350	 2164	 2223	 1571	 1058	593.0	391.0	374.8	401.2	439.6	467.4	504.5	521.3	517.4	497.3	423.6	299.7	214.9	192.4	198.2	210.0	224.9	236.1	248.2	257.8	264.3	258.3	241.0	214.9	182.8	156.4	129.0	103.6	81.16	64.66	52.59	46.35	46.09	37.56	26.34	21.07	17.23	14.17	11.80	10.61	8.932	7.865	8.416	10.92	16.09	33.49	138.9	255.4	33.49	10.56	8.622	7.405	5.610	4.293	3.286	2.838	2.492	2.415	2.476	2.790	2.748	2.764	3.063	3.031	3.316	3.499	3.865	3.940
505.0	467.0	602.3	690.6	852.2	 1159	 1690	 2185	 1465	928.1	521.9	353.0	335.2	358.9	383.9	408.4	444.5	459.9	456.9	438.3	371.8	265.8	191.0	169.9	175.5	186.0	198.5	209.4	219.2	228.3	234.0	228.3	211.5	190.3	164.1	139.6	116.7	93.74	73.24	60.50	47.94	41.55	39.68	37.38	28.42	20.59	16.68	13.80	11.91	10.54	8.857	8.045	7.864	8.739	9.557	13.88	42.50	180.7	210.4	28.00	8.105	6.635	5.262	4.043	3.064	2.593	2.336	2.256	2.241	2.456	2.390	2.528	2.846	2.779	3.126	3.272	3.347	3.689
510.0	406.4	493.0	590.5	739.0	948.8	 1251	 1758	 1497	782.7	443.8	299.0	282.3	303.1	325.7	345.5	368.6	381.5	377.3	360.2	310.1	220.2	159.6	142.9	146.6	155.3	164.9	174.9	184.3	192.2	196.9	191.4	178.9	160.3	138.9	118.6	98.65	80.13	64.21	52.82	42.80	36.98	33.31	32.24	29.75	22.25	16.40	13.48	11.73	10.06	8.764	8.157	7.794	7.777	7.920	9.108	15.68	52.21	137.7	173.5	72.17	9.029	4.497	3.504	2.812	2.203	2.092	2.074	1.983	2.063	2.231	2.298	2.421	2.484	2.704	2.870	2.958	3.080
515.0	344.4	410.0	482.2	617.4	789.1	958.4	 1204	 1435	773.9	365.5	247.0	233.7	251.7	268.6	282.4	301.3	307.1	307.8	291.9	248.3	180.7	131.6	117.2	120.5	128.8	136.3	145.4	150.8	159.4	160.5	158.5	145.8	131.7	114.9	98.89	82.71	67.24	54.52	45.97	37.74	31.97	28.71	25.65	25.93	24.37	17.07	12.87	11.16	9.808	8.059	7.959	7.637	7.062	7.261	7.779	8.855	17.29	36.85	79.53	188.6	34.16	6.170	3.101	2.403	1.946	1.906	1.719	1.847	1.861	1.890	1.966	2.072	2.289	2.227	2.469	2.480	2.419
520.0	296.0	352.7	400.9	528.2	677.7	808.5	916.7	 1162	886.2	324.7	215.3	209.0	218.6	233.2	242.9	258.8	265.9	261.5	247.6	211.0	155.1	114.8	101.7	102.4	110.7	116.8	122.3	130.2	134.0	138.2	135.5	126.5	113.8	99.90	86.69	72.07	59.87	48.65	40.79	33.96	29.54	25.25	22.61	21.90	23.91	18.63	13.13	10.64	9.484	8.172	7.556	7.678	7.107	6.769	6.724	7.145	9.160	13.32	23.71	102.0	171.5	29.46	3.449	2.214	1.912	1.684	1.666	1.710	1.601	1.836	1.782	1.892	1.989	1.979	2.256	2.413	2.308
525.0	255.5	298.8	334.7	454.6	597.4	691.9	761.0	848.4	933.7	355.2	193.5	180.2	194.0	203.5	211.4	224.6	230.6	229.4	213.2	183.4	132.2	99.87	89.15	90.02	96.93	102.2	106.7	112.5	117.4	121.1	118.2	111.5	98.75	87.05	76.40	64.13	52.31	43.28	36.28	30.70	26.55	23.58	20.60	18.64	20.30	19.74	14.24	10.69	9.405	7.971	7.169	7.086	6.902	6.541	6.157	6.280	6.927	7.654	9.973	29.62	120.6	152.9	22.19	2.343	1.716	1.515	1.613	1.464	1.522	1.553	1.753	1.689	1.774	1.787	2.115	2.172	2.245
530.0	209.5	254.9	287.2	372.5	488.1	571.7	617.5	592.0	702.4	523.0	184.3	153.7	163.3	171.2	175.3	185.6	190.4	186.0	176.9	152.0	110.4	83.28	75.04	75.87	79.95	85.00	88.28	93.18	98.01	100.0	97.61	91.66	82.05	72.68	63.24	53.80	45.15	37.89	31.37	27.14	23.57	20.60	18.47	16.25	15.73	17.05	16.00	11.88	9.159	7.508	6.904	6.867	6.420	6.398	5.832	5.674	6.071	6.010	6.219	10.16	33.43	95.05	118.9	49.80	4.113	1.490	1.566	1.427	1.506	1.385	1.638	1.490	1.566	1.605	1.870	1.960	1.785
535.0	185.2	215.5	234.0	298.5	387.8	471.7	487.0	439.9	410.1	551.7	268.5	129.3	134.4	140.7	145.0	149.3	151.2	148.3	142.8	122.0	90.75	68.96	61.22	62.52	65.93	68.69	71.97	75.93	78.67	81.23	81.26	74.03	67.49	59.70	52.30	44.41	38.02	32.08	27.46	23.46	20.46	18.12	16.17	14.22	13.42	13.09	14.69	13.63	9.482	7.371	6.780	6.401	5.859	5.824	5.853	5.639	5.150	5.154	5.218	5.434	10.24	23.67	50.66	131.7	32.29	3.428	1.504	1.489	1.407	1.350	1.362	1.452	1.513	1.537	1.702	1.757	1.522
540.0	159.5	178.1	195.0	254.4	324.2	404.1	414.4	361.8	285.0	405.4	418.9	128.2	118.6	121.8	126.4	126.1	128.3	125.5	121.1	104.0	76.26	59.54	52.62	54.94	56.81	60.77	62.62	64.96	67.75	69.22	69.00	62.81	58.71	51.21	46.11	38.22	32.94	28.07	24.47	21.37	18.71	16.77	14.65	13.08	12.15	11.31	11.97	13.18	10.26	7.431	6.394	6.270	5.822	5.347	5.422	5.421	5.300	4.835	4.415	4.341	4.979	7.485	13.84	67.41	122.8	26.74	1.929	1.278	1.283	1.341	1.249	1.275	1.373	1.450	1.377	1.398	1.446
545.0	134.1	162.7	171.0	222.5	271.7	352.2	359.7	312.4	234.0	257.3	448.9	194.2	104.2	105.7	109.5	109.3	112.1	107.6	104.8	89.08	67.94	51.85	47.20	48.49	48.38	51.52	54.24	57.17	58.96	60.85	58.53	54.97	51.10	45.04	39.55	33.85	29.24	25.39	21.78	18.96	16.38	15.12	13.70	11.92	11.27	10.23	9.800	11.47	10.69	7.715	6.472	5.872	5.460	5.129	4.935	5.359	5.106	4.390	4.402	3.855	3.506	3.911	5.072	18.33	81.83	107.5	19.33	1.475	1.200	1.183	1.149	1.261	1.209	1.156	1.373	1.336	1.352
550.0	118.1	143.8	147.1	181.0	219.5	271.9	302.3	255.5	185.1	148.0	295.7	332.5	112.4	88.93	90.10	90.11	92.74	88.14	85.49	72.86	55.13	43.20	38.12	39.03	40.54	42.56	44.71	46.83	48.31	49.63	48.05	45.61	41.74	37.45	33.07	28.33	24.90	21.16	18.52	16.39	14.61	13.50	11.91	10.84	9.750	8.987	8.222	8.604	9.651	8.763	6.783	5.401	4.974	4.675	4.564	4.500	4.504	4.177	3.885	3.455	3.157	2.769	2.803	5.672	21.83	63.34	85.93	22.32	3.326	1.230	1.167	1.168	1.161	1.205	1.277	1.281	1.301
555.0	105.9	117.7	117.1	141.0	177.2	206.6	237.3	213.4	147.3	103.7	134.0	316.3	194.1	74.40	70.94	74.44	73.99	70.80	68.53	58.15	43.56	35.13	31.82	32.06	32.05	33.89	35.13	36.55	39.38	40.15	38.89	36.98	32.66	30.14	27.30	23.43	20.42	17.42	15.32	13.70	12.30	11.23	10.18	9.483	8.306	7.940	7.199	6.754	7.107	8.098	7.670	5.578	4.449	4.223	4.032	4.000	4.139	3.878	3.626	3.216	2.951	2.403	2.304	2.761	6.117	15.39	33.90	85.95	31.03	2.611	1.107	1.134	1.103	1.082	1.176	1.242	1.141
560.0	95.14	100.4	102.6	120.7	142.9	169.7	196.3	187.5	124.2	83.57	77.69	211.6	295.4	79.25	60.94	64.09	61.29	59.74	57.03	48.54	35.93	30.22	26.26	27.11	27.47	27.85	30.11	30.48	32.41	33.81	32.56	30.65	27.82	25.57	22.45	20.03	17.65	15.16	13.55	11.65	10.78	9.979	9.131	8.108	7.645	7.054	6.231	6.061	6.026	6.530	7.577	5.868	4.247	3.847	3.880	3.633	3.663	3.696	3.357	3.061	2.743	2.332	2.080	1.965	2.581	4.615	9.073	43.08	85.14	23.13	1.775	1.252	0.929	1.055	1.102	1.086	1.094
565.0	89.55	83.20	91.28	103.0	124.8	136.1	155.5	154.7	107.0	69.66	58.58	112.8	290.2	139.1	53.24	54.46	51.47	50.50	47.50	40.31	30.73	25.13	23.35	23.11	22.95	24.51	25.50	25.89	27.65	28.14	27.67	26.23	23.16	21.54	18.96	16.73	15.03	13.35	11.66	10.44	9.368	8.726	8.215	7.036	6.768	6.333	5.733	5.358	5.201	5.044	6.499	6.036	4.249	3.602	3.463	3.426	3.361	3.088	3.114	2.900	2.526	2.191	1.946	1.655	1.835	2.329	3.257	11.69	52.42	71.61	14.79	1.233	1.056	0.917	0.972	0.987	0.906
570.0	87.14	71.44	75.86	81.72	93.71	108.8	114.2	115.7	96.61	56.92	46.44	59.02	167.8	225.3	68.31	42.31	40.50	39.32	35.62	31.89	24.16	19.91	18.47	18.30	18.65	18.99	19.60	20.50	20.93	21.60	21.78	20.51	18.48	16.99	15.15	13.29	11.93	10.90	9.154	8.708	7.707	7.057	6.418	5.859	5.582	5.197	4.748	4.539	4.150	3.932	4.379	5.064	4.408	3.521	2.953	2.872	2.811	2.606	2.613	2.500	2.343	2.045	1.836	1.580	1.625	1.659	1.888	3.823	13.83	38.44	43.09	19.72	2.273	0.992	1.036	0.896	0.958
575.0	71.15	66.07	60.36	64.43	69.64	84.46	83.56	82.07	77.76	51.55	37.53	38.74	71.77	183.0	144.2	33.72	31.10	29.46	26.93	23.88	18.42	15.34	13.96	13.84	14.20	14.57	14.93	15.37	16.19	16.74	16.27	15.88	14.10	12.50	11.34	10.22	8.972	9.000	7.437	6.938	6.240	5.490	5.064	4.700	4.503	4.206	4.003	3.747	3.218	3.167	3.205	3.414	3.964	3.677	2.781	2.427	2.330	2.429	2.327	2.060	1.964	1.716	1.762	1.397	1.389	1.463	1.493	1.827	4.014	9.664	17.59	48.42	24.33	1.860	0.995	0.933	0.980
580.0	58.49	60.60	52.35	56.55	58.71	64.06	65.59	63.99	62.82	54.83	34.79	32.40	40.24	109.7	204.6	44.47	25.01	23.69	21.59	19.70	15.25	12.28	11.36	11.42	11.58	11.95	11.75	12.24	12.85	13.27	13.30	12.59	11.51	10.73	9.142	8.392	7.601	7.544	6.286	5.960	5.102	4.624	4.235	4.071	3.899	3.549	3.407	3.063	2.841	2.584	2.527	2.770	3.163	3.395	2.863	2.381	2.048	1.992	1.856	1.819	1.712	1.664	1.663	1.425	1.414	1.301	1.308	1.288	1.870	3.085	4.994	22.76	47.56	14.71	1.226	0.970	0.834
585.0	55.29	51.64	47.87	53.58	49.74	55.61	57.93	52.09	52.41	55.20	35.26	27.93	30.56	58.40	181.8	100.1	21.29	20.03	17.95	15.74	12.87	9.993	9.942	9.443	9.544	10.12	9.754	10.38	10.73	10.59	10.67	9.954	9.624	8.850	7.769	7.351	6.245	6.221	5.364	5.089	4.225	4.103	3.703	3.519	3.302	3.095	2.891	2.676	2.554	2.370	2.073	2.333	2.432	3.043	2.878	2.248	1.942	1.848	1.719	1.545	1.527	1.517	1.466	1.548	1.446	1.211	1.203	1.245	1.251	1.495	1.971	6.426	27.85	37.52	8.313	0.964	0.804
590.0	52.96	51.84	45.19	43.04	42.45	47.46	48.67	44.12	42.03	48.55	42.25	29.81	29.18	32.96	94.96	161.5	43.96	16.52	14.42	12.22	10.26	8.441	8.016	7.830	7.752	8.108	8.118	8.094	8.915	8.569	8.419	8.134	7.466	6.856	6.211	5.638	5.029	4.746	4.372	3.998	3.554	3.395	3.121	2.820	2.742	2.667	2.511	2.507	2.218	1.965	1.799	1.845	1.908	2.203	2.522	2.300	2.033	1.757	1.589	1.433	1.375	1.343	1.290	1.334	1.375	1.220	1.149	1.034	1.090	1.129	1.237	2.126	7.610	20.02	28.22	13.26	1.587
595.0	54.67	55.44	41.76	39.86	43.90	40.74	45.28	43.74	39.70	44.95	53.42	40.45	35.23	32.79	46.47	121.1	108.5	17.92	11.91	10.14	8.079	6.719	6.576	6.565	6.296	6.279	6.462	6.488	6.693	6.788	6.688	6.636	5.915	5.526	4.967	4.533	4.161	3.542	3.433	3.265	2.969	2.866	2.627	2.438	2.307	2.170	2.205	2.021	1.893	1.620	1.537	1.578	1.597	1.610	2.103	2.280	2.010	1.673	1.508	1.346	1.214	1.257	1.265	1.378	1.324	1.211	1.154	1.051	1.105	1.156	1.081	1.234	2.408	5.168	10.54	28.10	14.98
600.0	57.73	58.44	47.94	43.59	43.34	43.67	47.12	51.57	51.92	59.08	76.57	72.25	60.02	49.98	50.96	84.22	169.1	44.59	11.41	8.478	6.841	5.766	5.735	5.370	5.313	5.394	5.616	5.511	5.613	5.921	5.882	4.964	5.061	4.747	4.186	3.862	3.704	2.986	3.118	2.858	2.535	2.729	2.392	2.071	2.022	1.959	1.817	1.814	1.608	1.448	1.435	1.460	1.366	1.551	1.704	1.936	2.024	1.802	1.437	1.235	1.242	1.235	1.297	1.313	1.316	1.303	1.311	1.197	1.118	1.247	1.321	1.142	1.412	1.995	3.227	13.38	27.37
605.0	74.27	65.93	56.27	50.90	45.62	48.99	58.88	69.16	85.54	102.4	127.8	140.8	116.6	94.01	87.76	84.83	178.5	97.28	14.05	7.731	6.394	5.234	4.751	4.673	4.915	4.735	4.698	4.543	4.850	5.065	4.810	4.285	4.325	3.956	3.782	3.150	3.202	3.006	2.723	2.555	2.294	2.496	2.099	1.873	1.924	1.761	1.708	1.810	1.497	1.472	1.427	1.391	1.212	1.400	1.411	1.655	1.958	1.834	1.497	1.350	1.340	1.405	1.415	1.426	1.718	1.562	1.746	1.606	1.508	1.485	1.354	1.311	1.315	1.497	1.605	4.194	15.56
610.0	82.80	79.98	70.31	55.71	51.72	62.26	75.80	94.66	120.5	153.5	179.7	206.7	183.6	147.9	134.2	110.9	153.2	178.5	39.51	7.318	5.574	4.375	4.028	4.063	4.025	3.849	3.776	3.787	4.088	4.074	4.040	3.774	3.499	3.301	3.155	2.831	2.779	2.676	2.213	2.125	2.002	2.048	1.866	1.776	1.642	1.579	1.566	1.576	1.326	1.312	1.234	1.291	1.240	1.203	1.244	1.437	1.661	1.769	1.695	1.552	1.536	1.655	1.695	1.666	1.877	1.766	1.937	2.014	1.766	1.670	1.565	1.437	1.472	1.468	1.486	2.118	4.814
615.0	93.28	88.57	78.15	58.68	57.01	59.41	77.25	99.24	122.8	151.2	177.3	205.0	200.4	158.9	141.9	113.6	122.2	146.0	90.39	8.395	4.483	3.548	3.540	3.439	3.235	3.196	3.508	3.108	3.399	3.493	3.108	3.296	3.036	2.841	2.670	2.517	2.206	2.246	2.035	1.724	1.757	1.752	1.670	1.633	1.491	1.402	1.410	1.346	1.350	1.267	1.205	1.153	1.141	1.079	1.273	1.247	1.369	1.568	1.654	1.630	1.591	1.510	1.507	1.614	1.753	1.777	1.896	1.843	2.020	1.780	1.551	1.471	1.586	1.624	1.480	1.532	2.120
620.0	92.07	91.48	77.69	60.82	56.86	60.99	81.47	97.98	119.6	150.1	177.7	196.5	198.4	163.4	143.0	115.1	113.2	106.9	120.8	24.42	4.070	3.534	3.384	2.996	3.075	2.750	3.123	2.826	3.282	3.037	2.779	2.903	2.688	2.432	2.237	2.202	1.975	2.115	2.087	1.658	1.745	1.590	1.442	1.418	1.362	1.403	1.194	1.276	1.272	1.116	1.069	1.124	1.058	1.121	1.161	1.102	1.207	1.424	1.470	1.637	1.586	1.570	1.498	1.567	1.671	1.717	1.730	1.678	1.888	1.759	1.597	1.502	1.545	1.521	1.283	1.432	1.605
625.0	94.92	94.26	80.55	64.09	57.12	61.89	80.47	96.15	114.1	144.9	173.2	195.8	196.9	167.3	141.7	111.7	109.4	85.55	94.92	66.77	4.602	3.292	3.214	2.791	2.799	2.572	2.630	2.790	2.728	2.626	2.584	2.454	2.234	2.191	2.174	1.847	1.977	1.917	1.853	1.637	1.616	1.568	1.376	1.289	1.291	1.328	1.141	1.213	1.119	1.033	1.070	1.075	1.070	1.015	1.082	1.097	1.134	1.331	1.318	1.556	1.464	1.520	1.342	1.602	1.694	1.661	1.642	1.849	1.832	1.640	1.599	1.412	1.458	1.520	1.302	1.291	1.603
630.0	100.9	103.2	90.52	68.90	61.46	63.75	81.49	94.60	113.3	144.4	170.0	191.9	194.5	172.8	145.6	115.2	108.3	76.09	48.85	91.68	24.49	2.987	2.705	2.431	2.344	2.312	2.299	2.429	2.325	2.350	2.240	2.367	2.106	1.989	1.865	1.676	1.738	1.635	1.505	1.436	1.458	1.359	1.340	1.221	1.160	1.244	1.060	1.131	1.115	0.957	0.983	1.031	1.083	1.013	1.015	1.080	1.145	1.147	1.277	1.471	1.476	1.513	1.408	1.507	1.645	1.679	1.620	1.868	1.786	1.748	1.694	1.524	1.521	1.485	1.383	1.316	1.370
635.0	98.66	110.8	96.28	72.78	62.67	67.19	80.94	93.62	112.0	142.7	169.9	190.4	191.1	176.4	153.9	115.7	108.2	73.99	26.12	52.13	70.54	4.235	2.485	2.207	2.083	2.115	2.016	1.947	2.038	2.244	1.990	1.944	1.982	1.830	1.670	1.536	1.623	1.391	1.463	1.359	1.323	1.168	1.226	1.122	1.086	1.197	0.962	1.125	1.086	0.899	0.913	1.005	0.990	1.000	0.916	1.021	1.030	1.081	1.180	1.223	1.340	1.386	1.439	1.422	1.572	1.667	1.751	1.787	1.763	1.849	1.640	1.650	1.598	1.555	1.370	1.387	1.410
640.0	102.4	121.4	98.00	72.31	67.54	68.14	79.46	95.27	106.4	134.4	166.8	185.7	185.9	167.2	157.0	116.7	105.3	71.93	20.60	24.74	87.43	19.14	2.365	2.154	2.069	1.633	1.953	2.036	1.907	1.932	2.034	1.881	1.703	1.680	1.597	1.449	1.408	1.226	1.337	1.219	1.210	1.179	1.154	1.054	0.993	1.191	1.011	1.140	0.966	0.890	0.950	0.980	0.969	0.943	0.839	0.980	1.088	1.121	1.179	1.242	1.277	1.333	1.456	1.418	1.639	1.434	1.617	1.764	1.748	1.839	1.636	1.511	1.575	1.525	1.381	1.231	1.367
645.0	103.3	121.9	107.8	81.12	64.41	65.37	76.72	87.74	100.1	127.5	151.8	172.2	175.2	161.5	149.7	111.4	101.1	67.35	20.20	12.86	61.43	51.88	2.863	2.094	2.028	1.783	1.878	1.849	1.611	1.762	1.799	1.695	1.580	1.489	1.439	1.428	1.375	1.305	1.188	1.091	1.132	1.120	1.196	1.103	1.028	1.079	1.046	1.032	1.036	0.862	0.796	0.954	0.886	0.989	0.867	0.946	0.953	1.095	1.077	1.230	1.183	1.329	1.340	1.432	1.402	1.329	1.527	1.648	1.668	1.697	1.527	1.446	1.478	1.427	1.433	1.389	1.277
650.0	105.8	133.6	128.3	89.90	66.34	60.99	72.35	80.65	91.71	119.3	142.4	158.9	163.6	147.5	138.9	106.7	92.64	63.66	20.13	9.751	30.49	77.39	9.256	2.154	2.104	1.761	1.721	1.675	1.475	1.476	1.829	1.330	1.399	1.379	1.362	1.139	1.328	1.191	1.097	1.065	1.094	1.050	1.054	1.034	1.052	0.941	0.984	1.000	1.107	0.918	0.799	1.006	0.940	0.986	0.932	0.836	0.840	1.038	1.156	1.202	1.127	1.174	1.303	1.337	1.309	1.439	1.363	1.447	1.495	1.517	1.498	1.442	1.456	1.498	1.439	1.422	1.338
