Sample:	'1
File name:	t2025060608Ωπ«≈’Ú«≈.FD3
Run date:	'15:12:41, 06/09/2025
Operator:	Administrator
Comment:	'

Instrument
Model:	F-2700 FL Spectrophotometer
Serial number:	23B8-004
ROM Version:	4J14000 07

Instrument parameters
Measurement type:	3-D scan
Data mode:	Fluorescence
EX  Start WL:	220.0 nm
EX  End WL:	600.0 nm
EX Sampling interval:	5.0 nm
EM  Start WL:	230.0 nm
EM  End WL:	650.0 nm
EM Sampling interval:	5.0 nm
Scan speed:	12000 nm/min
EX Slit:	5.0 nm
EM Slit:	5.0 nm
PMT Voltage:	700 V
Response:	Auto 
Corrected spectra:	Off
Contour interval:	50.000

Peak integration
Integration method:	Rectangular
Sensitivity:	1
Threshold:	1.000

Peaks
No.	ApexEX/EM(nm)	Height(Data)
1	225.0/585.0	65.52
2	225.0/615.0	56.92
3	230.0/345.0	2564
4	230.0/635.0	53.46
5	240.0/260.0	309.4
6	245.0/270.0	305.8
7	250.0/275.0	352.7
8	250.0/545.0	216.8
9	255.0/280.0	470.1
10	255.0/555.0	161.6
11	260.0/285.0	504.1
12	260.0/570.0	121.4
13	265.0/585.0	107.3
14	270.0/595.0	92.57
15	275.0/435.0	1730
16	275.0/610.0	105.3
17	280.0/315.0	1527
18	280.0/335.0	1585
19	280.0/415.0	1848
20	280.0/620.0	99.03
21	285.0/320.0	1539
22	285.0/635.0	77.87
23	340.0/415.0	1172
24	445.0/525.0	25.30
25	465.0/340.0	6.827
26	475.0/350.0	7.546
27	505.0/275.0	2.651
28	510.0/280.0	3.007
29	520.0/285.0	3.373
30	545.0/410.0	6.835
31	550.0/305.0	7.104
32	560.0/310.0	7.670
33	565.0/420.0	6.777
34	570.0/315.0	7.973
35	580.0/320.0	7.897
36	585.0/325.0	8.018

Data points
	220.0	225.0	230.0	235.0	240.0	245.0	250.0	255.0	260.0	265.0	270.0	275.0	280.0	285.0	290.0	295.0	300.0	305.0	310.0	315.0	320.0	325.0	330.0	335.0	340.0	345.0	350.0	355.0	360.0	365.0	370.0	375.0	380.0	385.0	390.0	395.0	400.0	405.0	410.0	415.0	420.0	425.0	430.0	435.0	440.0	445.0	450.0	455.0	460.0	465.0	470.0	475.0	480.0	485.0	490.0	495.0	500.0	505.0	510.0	515.0	520.0	525.0	530.0	535.0	540.0	545.0	550.0	555.0	560.0	565.0	570.0	575.0	580.0	585.0	590.0	595.0	600.0
230.0	41.40	497.5	1745	670.4	35.48	5.359	4.481	3.532	3.338	3.119	2.850	2.899	2.586	2.214	1.657	1.462	1.347	1.176	1.075	0.920	0.859	0.882	0.844	0.882	0.800	0.738	0.678	0.616	0.613	0.601	0.661	0.570	0.533	0.375	0.401	0.375	0.338	0.320	0.335	0.320	0.328	0.393	0.471	0.430	0.279	0.292	0.609	2.579	5.965	5.371	2.001	0.473	0.216	0.212	0.260	0.212	0.199	0.215	0.200	0.177	0.200	0.183	0.184	0.208	0.203	0.199	0.179	0.175	0.199	0.197	0.179	0.184	0.189	0.205	0.221	0.211	0.229
235.0	116.8	153.1	890.8	1921	561.9	51.44	5.484	4.268	4.265	3.383	3.205	2.930	2.816	2.322	1.745	1.593	1.385	1.042	1.107	0.924	0.843	0.879	0.765	0.919	0.771	0.691	0.702	0.695	0.664	0.584	0.691	0.519	0.546	0.362	0.368	0.336	0.316	0.335	0.338	0.288	0.291	0.357	0.406	0.560	0.491	0.348	0.350	0.801	2.119	3.744	5.938	7.683	3.816	0.817	0.274	0.199	0.185	0.180	0.175	0.195	0.213	0.198	0.178	0.195	0.193	0.194	0.215	0.203	0.163	0.257	0.182	0.161	0.190	0.193	0.220	0.294	0.192
240.0	163.8	136.3	256.2	1312	2281	434.8	27.23	4.812	4.223	3.478	3.124	3.357	2.657	2.388	2.189	1.612	1.733	1.241	1.171	1.050	0.825	0.912	0.743	0.830	0.734	0.744	0.729	0.699	0.704	0.640	0.680	0.574	0.474	0.427	0.437	0.380	0.283	0.335	0.345	0.356	0.221	0.344	0.368	0.425	0.533	0.578	0.425	0.408	0.685	1.135	2.745	7.815	10.58	8.229	3.142	0.522	0.213	0.194	0.204	0.183	0.214	0.204	0.187	0.210	0.185	0.209	0.169	0.170	0.205	0.242	0.184	0.227	0.167	0.218	0.229	0.246	0.175
245.0	112.7	202.7	127.1	412.3	1927	2369	323.4	13.06	4.582	3.902	3.797	3.611	3.124	2.726	2.354	1.655	1.522	1.343	1.063	1.167	0.951	0.889	0.771	0.734	0.673	0.836	0.697	0.558	0.639	0.514	0.662	0.495	0.458	0.366	0.433	0.375	0.318	0.295	0.348	0.362	0.335	0.340	0.359	0.329	0.377	0.559	0.796	0.803	0.442	0.452	0.839	2.397	6.184	11.37	13.34	7.904	2.406	0.352	0.229	0.200	0.210	0.244	0.198	0.188	0.203	0.227	0.223	0.191	0.207	0.205	0.200	0.220	0.184	0.212	0.183	0.222	0.162
250.0	46.15	123.0	223.9	196.8	577.8	1784	2554	1111	76.56	5.310	4.302	4.129	3.489	2.909	2.272	1.944	1.792	1.622	1.239	1.089	0.933	1.052	1.027	0.767	0.757	0.785	0.736	0.657	0.710	0.591	0.766	0.508	0.484	0.433	0.461	0.357	0.335	0.332	0.327	0.398	0.352	0.288	0.324	0.379	0.345	0.370	0.452	0.689	0.877	0.853	0.628	0.788	1.667	3.481	6.887	10.52	14.34	13.43	8.175	2.524	0.377	0.231	0.216	0.198	0.208	0.260	0.233	0.248	0.224	0.191	0.190	0.247	0.193	0.225	0.140	0.203	0.183
255.0	32.20	46.72	136.6	298.9	250.7	444.2	1519	3703	1648	91.27	6.048	5.854	3.670	2.980	2.274	2.169	1.862	1.718	1.574	1.110	1.022	0.969	1.022	0.885	0.743	0.794	0.749	0.808	0.685	0.689	0.914	0.605	0.546	0.444	0.537	0.389	0.335	0.350	0.343	0.313	0.293	0.262	0.370	0.330	0.313	0.335	0.308	0.401	0.532	0.745	1.097	1.378	0.877	1.020	1.756	2.596	4.749	10.84	21.46	22.56	12.92	2.956	0.369	0.203	0.249	0.233	0.221	0.250	0.222	0.210	0.265	0.227	0.205	0.236	0.177	0.188	0.263
260.0	29.93	24.91	53.40	227.3	309.4	167.2	431.6	2457	4364	1286	46.96	6.543	4.271	3.709	3.077	2.575	1.985	1.535	1.366	1.201	1.034	1.065	1.034	0.843	0.889	0.826	0.735	0.745	0.657	0.730	0.866	0.571	0.512	0.494	0.495	0.368	0.364	0.322	0.355	0.316	0.321	0.347	0.336	0.424	0.296	0.270	0.279	0.290	0.327	0.380	0.747	1.404	1.705	1.130	0.722	0.799	1.372	2.948	8.226	18.25	27.54	23.37	10.01	1.703	0.296	0.229	0.244	0.232	0.197	0.223	0.212	0.246	0.177	0.230	0.183	0.272	0.244
265.0	31.89	25.51	26.83	97.79	298.6	243.0	134.1	743.6	3503	4682	226.9	19.52	5.814	4.045	3.756	2.526	1.992	1.673	1.639	1.351	1.147	1.049	0.976	0.995	0.859	0.899	0.822	0.754	0.677	0.763	0.783	0.654	0.562	0.509	0.498	0.429	0.455	0.338	0.373	0.316	0.317	0.316	0.262	0.424	0.368	0.321	0.328	0.251	0.260	0.268	0.343	0.651	1.296	1.822	1.506	0.709	0.578	0.951	2.106	5.109	13.01	26.22	31.56	22.32	6.988	0.902	0.292	0.245	0.218	0.230	0.265	0.314	0.188	0.241	0.184	0.296	0.283
270.0	40.97	37.69	35.43	42.21	126.8	305.8	261.0	223.8	1018	3351	4820	1980	62.57	6.798	4.710	3.136	2.355	1.804	1.757	1.587	1.269	1.169	1.134	1.071	0.965	0.844	0.908	0.809	0.736	0.715	0.934	0.707	0.642	0.564	0.488	0.458	0.459	0.400	0.378	0.365	0.326	0.373	0.342	0.482	0.411	0.353	0.328	0.316	0.297	0.264	0.270	0.342	0.538	0.898	1.564	1.746	1.614	1.069	0.892	1.410	3.250	7.187	13.66	22.59	26.55	28.17	15.81	6.132	0.841	0.276	0.259	0.274	0.264	0.232	0.254	0.231	0.278
275.0	96.43	118.7	100.2	57.97	54.55	128.4	352.7	327.2	283.6	824.6	2550	6775	1259	69.66	6.729	4.560	2.807	2.559	1.895	1.748	1.627	1.173	1.073	1.135	1.032	0.996	0.975	0.815	0.847	0.803	0.961	0.774	0.739	0.756	0.597	0.524	0.525	0.467	0.472	0.442	0.356	0.399	0.464	0.546	0.436	0.436	0.547	0.443	0.496	0.406	0.284	0.303	0.368	0.497	0.686	0.843	1.700	2.651	2.305	1.124	1.098	2.038	3.396	5.529	7.634	15.78	33.43	42.43	24.43	7.027	0.909	0.353	0.222	0.327	0.248	0.319	0.318
280.0	174.0	180.1	168.3	96.32	52.55	66.86	205.4	470.1	264.6	257.8	721.7	3968	6881	946.1	32.61	5.700	3.956	3.102	2.418	1.879	1.952	1.321	1.348	1.260	1.125	1.253	0.902	0.894	0.804	0.858	0.983	0.661	0.763	0.764	0.687	0.684	0.604	0.555	0.455	0.516	0.418	0.498	0.470	0.546	0.528	0.697	0.674	0.645	0.661	0.575	0.471	0.437	0.343	0.437	0.447	0.488	0.842	1.618	3.007	2.839	1.670	1.059	1.181	1.702	2.286	4.251	10.86	25.73	43.60	32.97	22.09	3.698	0.420	0.395	0.286	0.292	0.318
285.0	242.8	274.5	253.1	146.3	74.64	61.43	103.4	347.7	504.1	224.5	275.5	1176	5212	6269	620.0	12.65	5.367	3.403	2.935	2.258	1.864	1.546	1.333	1.324	1.214	1.150	1.036	1.007	0.948	0.792	1.095	0.720	0.592	0.893	0.749	0.758	0.755	0.599	0.657	0.615	0.564	0.597	0.529	0.684	0.693	0.826	0.822	0.847	0.862	0.746	0.627	0.549	0.445	0.468	0.512	0.444	0.544	0.775	1.533	2.646	3.373	2.556	1.212	1.105	1.158	1.722	3.155	7.004	16.43	30.65	55.56	30.26	13.41	1.827	0.377	0.322	0.302
290.0	317.6	391.0	374.8	224.5	120.4	91.67	108.6	196.2	447.3	552.5	346.8	461.6	1522	4207	5446	1739	34.91	5.673	3.807	2.527	2.106	2.029	1.523	1.395	1.334	1.259	1.164	1.014	0.955	0.887	1.242	0.694	0.761	0.811	0.905	0.954	0.840	0.747	0.711	0.709	0.611	0.671	0.654	0.885	0.881	0.969	1.075	1.140	1.186	1.027	0.809	0.770	0.736	0.556	0.647	0.556	0.588	0.732	1.083	1.227	2.186	2.924	3.283	2.826	1.910	1.709	1.735	2.624	4.780	8.281	18.76	24.91	34.34	33.42	20.29	9.834	1.882
295.0	400.6	485.9	468.7	311.1	184.4	141.2	158.1	203.0	299.5	575.2	778.6	483.5	610.4	1149	2634	6489	713.7	38.18	5.511	3.078	2.779	2.176	1.844	1.568	1.649	1.236	1.284	1.076	1.048	1.085	1.256	0.986	0.736	0.831	0.979	1.001	0.902	0.846	0.913	0.810	0.702	0.711	0.739	1.049	0.956	1.167	1.231	1.391	1.669	1.168	1.039	0.999	0.857	0.793	0.804	0.715	0.989	1.021	1.046	1.209	1.420	1.938	2.470	3.863	4.889	3.779	2.377	2.227	2.599	3.367	5.460	6.604	9.093	14.05	29.10	46.91	30.93
300.0	432.0	564.3	555.1	381.3	249.5	214.9	239.4	295.5	339.9	558.4	983.6	900.8	601.0	582.5	867.8	3787	5753	562.8	19.66	5.048	3.391	2.717	2.452	1.774	1.428	1.346	1.487	1.184	1.019	1.075	1.265	0.956	0.880	0.947	1.029	1.004	0.991	0.929	0.935	0.919	0.727	0.816	0.855	1.173	1.165	1.287	1.550	1.790	1.732	1.644	1.325	1.226	1.189	1.156	1.100	1.015	1.277	1.388	1.498	1.850	1.697	2.143	2.584	3.036	4.299	5.952	5.395	4.006	3.206	2.791	3.256	3.188	3.583	4.575	8.747	21.61	39.57
305.0	544.2	669.5	685.2	474.9	344.1	326.5	372.1	465.3	567.1	745.1	1065	1440	1026	704.5	619.1	1275	4832	4874	79.15	9.333	4.435	2.891	2.718	1.986	1.860	1.650	1.431	1.224	1.116	1.092	1.417	1.023	0.936	0.891	1.086	1.068	1.117	1.146	1.123	1.038	0.954	0.969	0.972	1.294	1.233	1.443	1.644	2.100	2.057	1.751	1.680	1.655	1.476	1.455	1.488	1.560	1.707	1.950	2.363	2.722	2.833	3.199	3.609	3.899	4.385	5.721	7.104	6.995	5.937	4.271	4.121	3.696	3.314	3.586	3.916	6.862	13.11
310.0	590.8	778.4	777.2	582.7	441.3	420.2	479.7	594.2	714.0	897.1	1122	1440	1503	1044	727.4	678.0	1587	3836	4470	1249	21.99	4.213	3.237	2.563	2.016	1.934	1.508	1.559	1.274	1.324	1.647	0.992	0.949	0.972	1.077	1.180	1.239	1.126	1.138	1.049	1.033	0.999	1.049	1.327	1.335	1.606	1.970	2.254	2.242	2.006	1.873	1.957	1.853	1.815	1.976	1.948	2.107	2.655	2.974	3.256	3.435	3.874	4.223	4.717	5.014	5.597	6.121	6.756	7.670	7.466	6.343	4.947	4.377	4.349	3.388	3.864	5.026
315.0	670.9	898.6	933.1	700.2	540.6	514.7	575.6	693.3	817.4	993.9	1191	1398	1527	1478	961.9	651.2	746.1	1113	2543	5347	503.6	20.30	4.549	3.311	2.477	2.145	1.799	1.801	1.474	1.267	1.772	1.073	0.998	1.013	1.014	1.151	1.154	1.143	1.102	1.048	1.072	1.054	1.113	1.483	1.510	1.867	2.079	2.620	2.659	2.444	2.059	2.331	2.200	2.184	2.357	2.214	2.605	2.899	3.344	3.617	3.658	4.125	4.611	5.350	5.543	6.222	6.128	6.645	6.731	7.298	7.973	7.537	6.033	5.172	4.005	3.629	3.625
320.0	760.9	1095	1114	839.5	624.4	579.8	648.0	764.1	870.5	1068	1270	1449	1509	1539	1285	760.1	628.8	542.3	751.4	3480	4129	389.6	9.417	4.300	3.165	2.575	1.794	1.789	1.660	1.351	2.060	1.187	0.973	0.947	1.101	1.137	1.224	1.055	1.112	1.091	1.039	1.014	1.275	1.687	1.675	2.222	2.645	3.217	3.157	2.876	2.439	2.739	2.570	2.357	2.640	2.539	2.860	3.323	3.606	3.894	3.885	4.434	4.898	5.636	6.264	6.187	6.795	6.867	7.198	7.209	7.428	7.867	7.897	7.005	4.964	4.151	3.714
325.0	910.0	1377	1364	1117	731.4	644.0	704.8	806.5	917.2	1098	1308	1487	1541	1473	1440	948.5	649.8	447.1	315.6	1043	4051	3524	57.51	6.422	3.878	2.990	2.063	2.156	1.719	1.440	2.232	1.412	1.158	0.928	1.089	1.185	1.287	1.192	1.122	1.117	1.057	1.253	1.243	2.042	2.042	2.687	3.129	4.028	4.267	3.605	3.175	3.325	3.146	2.562	2.944	2.822	3.130	3.513	3.681	4.155	4.090	4.790	4.973	5.518	6.347	6.543	6.715	7.310	7.367	7.318	7.487	7.156	7.575	8.018	6.909	5.365	4.236
330.0	1100	1705	1955	1612	1089	788.4	756.9	830.9	938.7	1113	1343	1516	1567	1474	1358	1164	829.4	491.2	282.8	368.4	1211	3148	3437	920.7	17.06	3.852	2.905	2.614	1.989	1.794	2.451	1.436	1.203	1.106	1.189	1.174	1.134	1.129	1.159	1.259	1.202	1.300	1.456	2.115	2.285	3.062	3.964	5.083	5.415	5.212	4.681	4.841	4.342	3.615	3.454	3.130	3.520	3.739	3.888	4.212	4.247	4.812	5.139	5.643	6.248	6.637	6.770	7.321	7.372	7.518	7.640	7.233	6.982	7.318	7.032	6.783	6.066
335.0	1225	1939	2331	2064	1476	1011	843.7	889.0	953.7	1131	1347	1537	1585	1521	1347	1135	1048	666.9	360.8	288.3	405.4	819.1	2271	4465	404.5	16.16	4.027	2.708	2.467	2.095	3.033	1.399	1.361	1.144	1.282	1.244	1.117	1.125	1.078	1.192	1.255	1.409	1.642	2.347	2.645	3.477	4.441	5.789	6.415	6.319	5.771	6.168	5.674	5.021	4.457	3.640	3.705	3.989	4.200	4.210	4.403	4.660	5.397	5.715	6.181	6.557	6.950	7.402	7.372	7.394	7.535	7.555	7.249	7.232	6.699	6.247	6.474
340.0	1280	2018	2516	2267	1655	1124	893.9	894.9	970.2	1124	1332	1507	1584	1521	1347	1105	1011	845.0	451.9	309.7	260.5	302.1	668.9	3199	3385	322.5	8.184	3.698	2.667	2.289	3.496	1.535	1.398	1.338	1.297	1.235	1.243	1.177	1.032	1.111	1.446	1.460	1.846	2.175	2.691	3.412	4.468	6.029	6.802	6.827	6.588	6.819	6.238	5.492	4.574	3.932	4.050	3.884	4.192	4.384	4.551	4.743	5.312	5.955	6.296	6.482	6.551	6.940	7.258	7.319	7.462	7.707	7.376	7.002	6.428	6.499	5.946
345.0	1273	2040	2564	2365	1707	1160	912.6	898.5	972.5	1101	1295	1462	1532	1474	1323	1094	932.1	851.6	597.1	356.2	255.0	212.2	251.5	979.9	3616	2913	49.06	5.305	3.061	2.434	3.959	1.640	1.495	1.277	1.263	1.187	1.182	1.193	1.061	1.157	1.260	1.450	1.829	2.540	2.443	3.547	4.592	6.052	6.937	6.764	6.739	7.393	6.672	5.763	4.712	3.962	4.258	4.159	4.180	4.284	4.405	4.817	5.009	5.821	6.094	6.225	6.662	6.891	7.088	6.649	7.231	7.211	7.240	7.087	6.399	6.128	5.820
350.0	1195	1900	2436	2318	1789	1231	958.4	939.3	975.9	1081	1234	1374	1444	1408	1284	1081	915.5	773.3	690.3	516.1	324.2	245.0	202.9	317.3	1093	2695	2832	743.9	14.78	3.329	4.745	1.879	1.519	1.280	1.227	1.235	1.214	1.083	1.120	1.192	1.166	1.330	1.588	2.393	2.554	3.343	4.299	5.632	6.617	6.385	6.576	7.546	6.896	5.953	4.912	4.294	4.433	4.391	4.070	4.350	4.517	4.836	5.099	5.504	5.763	5.950	6.197	6.443	6.479	6.734	6.773	6.866	6.837	7.042	6.404	6.017	5.881
355.0	1133	1765	2209	2211	1786	1289	1023	975.2	990.5	1085	1193	1311	1357	1333	1235	1074	923.9	774.4	663.2	640.7	475.6	312.1	243.6	213.0	336.8	681.5	1900	3326	366.0	15.40	6.738	2.402	1.790	1.472	1.363	1.346	1.077	0.983	1.104	1.066	1.131	1.304	1.571	2.126	2.434	3.156	3.865	5.287	6.032	6.035	6.339	7.171	6.920	6.429	5.146	4.406	4.722	4.613	4.245	4.645	4.576	4.638	5.016	5.413	5.294	5.925	5.685	6.329	6.306	6.546	6.634	6.788	6.577	6.576	6.046	6.035	5.876
360.0	1042	1674	2050	2110	1732	1297	1053	993.5	1007	1086	1168	1260	1302	1289	1201	1064	925.0	794.1	672.9	632.5	601.0	405.6	292.6	225.6	199.5	234.0	544.1	2560	3041	300.4	14.04	3.090	2.255	1.759	1.442	1.453	1.019	1.117	1.115	1.219	1.014	1.374	1.553	2.124	2.276	2.878	3.713	4.690	5.590	5.617	5.864	6.821	6.615	6.136	5.517	4.546	4.762	4.558	4.812	4.646	4.944	5.190	4.886	5.476	5.633	5.778	5.681	6.140	6.124	6.376	6.195	6.411	6.422	6.541	6.019	5.953	6.067
365.0	983.1	1546	1962	1997	1691	1311	1084	1012	1020	1102	1167	1234	1263	1244	1171	1052	935.2	822.5	706.0	636.1	633.2	536.8	364.0	270.9	205.1	166.7	196.9	792.3	3136	2663	50.79	5.146	2.952	2.075	1.522	1.424	1.363	1.223	1.146	1.170	1.171	1.246	1.372	2.016	2.068	2.941	3.433	4.646	5.315	5.364	5.491	6.411	6.598	6.038	5.455	4.930	4.682	4.555	4.830	4.662	4.955	5.118	5.150	5.289	5.505	5.540	5.448	5.940	5.894	6.017	6.076	6.442	6.461	6.128	6.038	5.839	5.995
370.0	920.6	1445	1814	1869	1651	1337	1123	1048	1063	1101	1154	1193	1216	1200	1129	1034	947.0	853.6	753.0	681.5	629.2	615.5	517.8	361.2	269.6	204.9	163.2	261.2	958.0	2459	7032	686.7	14.13	3.207	2.193	1.694	1.506	1.225	1.155	1.197	1.188	1.274	1.399	2.072	2.090	2.641	3.145	4.237	4.891	4.934	5.394	6.168	6.204	5.972	5.691	4.888	4.854	4.891	4.554	4.997	4.939	5.179	5.139	5.319	5.518	5.549	5.418	5.628	5.531	5.828	5.731	5.982	6.030	5.763	5.818	5.775	5.617
375.0	836.1	1336	1659	1739	1595	1333	1141	1085	1094	1099	1148	1176	1179	1150	1098	1014	951.7	878.3	798.3	734.9	673.6	620.7	617.8	504.0	355.6	273.4	209.5	186.1	302.5	630.4	6150	3013	319.6	14.40	3.274	2.243	1.745	1.383	1.179	1.230	1.374	1.251	1.443	1.979	2.154	2.545	2.816	3.885	4.494	4.482	4.785	5.799	5.940	5.659	5.718	4.977	4.985	5.025	5.005	4.851	5.083	5.298	5.219	5.269	5.214	5.271	5.299	5.406	5.682	5.548	5.598	5.874	5.939	5.762	5.586	5.531	5.715
380.0	836.2	1232	1586	1653	1552	1326	1161	1092	1093	1099	1134	1160	1152	1131	1074	999.9	947.5	885.9	821.1	765.8	706.5	645.3	622.1	600.9	447.5	327.1	255.1	205.1	186.4	221.0	1702	2293	2612	254.0	7.501	3.360	2.257	1.715	1.426	1.089	1.340	1.237	1.398	1.967	1.999	2.533	2.924	3.725	4.359	4.322	4.372	5.808	5.927	5.727	5.515	4.921	5.013	5.348	5.043	4.836	4.713	5.130	5.423	5.369	5.434	5.135	5.150	5.178	5.437	5.322	5.606	5.978	5.549	5.770	5.671	5.752	6.026
385.0	807.1	1211	1493	1587	1505	1340	1172	1114	1093	1107	1130	1148	1147	1115	1059	995.5	939.6	892.2	834.7	788.5	732.7	679.8	630.7	624.0	551.4	397.4	307.7	243.9	191.7	159.7	464.2	708.1	2542	2204	39.10	5.893	3.647	2.264	1.569	1.377	1.365	1.344	1.460	1.952	1.963	2.485	2.841	3.496	4.005	4.150	4.273	5.348	5.808	5.497	5.369	5.201	5.446	5.024	5.201	5.053	5.353	5.398	5.373	5.439	5.096	5.257	5.086	5.349	5.585	4.977	5.445	5.768	5.397	5.415	5.448	5.554	5.915
390.0	769.1	1130	1402	1522	1468	1315	1186	1137	1125	1118	1159	1158	1151	1120	1060	991.1	937.5	891.2	850.9	816.2	772.7	733.6	683.7	648.5	623.5	537.7	412.5	333.1	265.5	211.5	240.1	254.1	767.5	1846	2004	604.1	16.26	4.871	2.524	1.726	1.401	1.456	1.644	2.074	2.024	2.328	2.730	3.403	3.870	4.026	4.039	5.192	5.538	5.444	5.193	5.071	5.250	5.292	5.408	5.216	5.261	5.391	5.279	5.287	5.188	5.167	5.280	5.224	5.339	5.226	5.332	5.711	5.270	5.311	5.368	5.571	5.658
395.0	753.4	1105	1351	1459	1447	1304	1219	1193	1164	1188	1251	1259	1259	1200	1125	1036	967.7	907.6	878.1	853.9	835.3	804.0	775.9	744.8	708.5	684.1	613.8	462.7	408.9	343.5	295.4	238.7	300.1	517.2	1260	2383	276.4	21.22	5.730	2.630	1.882	1.659	1.569	2.323	2.105	2.281	2.747	3.508	3.909	3.940	3.977	5.140	5.354	5.507	5.579	5.358	5.444	5.339	5.367	5.265	5.485	5.565	5.393	5.403	5.458	5.421	5.448	5.261	5.470	5.584	5.587	5.841	5.635	5.427	5.485	5.458	5.697
400.0	751.6	1046	1331	1412	1423	1335	1261	1238	1231	1296	1374	1416	1435	1348	1252	1125	1011	938.9	911.7	898.0	896.3	886.9	878.5	867.8	840.6	814.6	802.1	687.3	583.7	463.4	418.1	345.0	280.1	276.5	435.0	1658	2119	240.7	15.18	4.367	2.187	1.863	1.596	2.363	2.098	2.192	2.559	3.354	3.769	3.767	3.902	5.133	5.542	5.365	5.698	5.219	5.561	5.653	5.445	5.464	5.678	6.129	5.850	5.863	5.664	5.711	5.867	5.776	5.924	5.936	5.935	5.987	5.767	5.777	5.641	6.057	5.699
405.0	762.0	1063	1281	1368	1417	1364	1294	1285	1322	1423	1544	1628	1644	1549	1410	1223	1074	987.8	959.5	954.3	959.2	977.2	997.2	1012	996.7	974.1	965.6	929.0	795.8	681.1	605.5	496.0	377.6	303.9	280.9	578.9	1787	1802	181.3	7.982	2.913	2.247	1.829	2.523	1.956	2.541	2.971	3.376	3.777	4.082	4.158	5.142	5.465	5.729	5.914	5.368	5.704	6.005	5.810	5.830	5.981	6.337	6.361	6.347	6.381	6.340	6.246	5.880	6.258	6.128	6.412	6.585	6.481	6.599	6.123	6.339	5.799
410.0	753.1	1025	1265	1366	1388	1362	1324	1340	1401	1539	1704	1829	1843	1727	1556	1329	1125	1015	977.1	985.4	1015	1057	1095	1140	1147	1134	1117	1101	1026	898.4	788.3	658.3	509.2	390.2	315.5	322.0	595.5	1325	1548	518.0	14.14	3.041	2.258	2.806	2.178	2.753	2.833	3.121	4.020	3.925	4.012	5.136	5.423	5.701	5.903	5.591	6.247	6.241	6.297	6.219	6.455	6.467	6.833	6.770	6.724	6.835	6.698	6.485	6.745	6.500	6.567	6.731	6.676	6.576	6.210	6.089	5.817
415.0	717.9	984.1	1202	1335	1356	1346	1331	1354	1411	1553	1710	1824	1848	1739	1548	1323	1104	982.9	958.1	961.8	1004	1053	1098	1151	1172	1169	1150	1114	1076	996.3	854.4	711.2	555.3	424.4	332.9	273.6	269.6	374.3	804.1	1728	256.8	16.94	2.804	3.485	2.315	2.737	2.829	3.238	3.668	3.585	3.719	4.922	5.274	5.348	5.823	5.674	6.152	6.291	6.130	6.198	6.487	6.416	6.700	6.662	6.670	6.802	6.616	6.366	6.583	6.662	6.304	6.756	6.521	6.088	5.819	6.053	5.944
420.0	675.4	936.5	1141	1287	1310	1313	1304	1317	1388	1512	1663	1761	1776	1674	1489	1262	1056	941.5	918.2	923.4	964.1	1015	1069	1116	1142	1143	1120	1086	1033	990.8	871.2	702.5	552.0	422.9	329.7	256.5	190.4	154.7	226.7	993.7	1586	229.7	9.135	4.108	2.613	2.840	2.695	3.126	3.369	3.646	3.735	4.732	5.287	5.329	5.720	5.687	6.082	6.112	6.036	6.324	6.405	6.267	6.545	6.675	6.756	6.655	6.711	6.595	6.400	6.777	6.498	6.605	6.299	6.043	5.704	5.465	5.493
425.0	675.8	960.6	1112	1240	1266	1285	1298	1319	1373	1497	1613	1722	1726	1616	1442	1218	1013	912.9	886.1	890.4	936.7	980.6	1037	1088	1115	1120	1105	1069	1013	961.5	890.8	713.0	551.6	426.2	333.5	254.2	175.4	108.0	87.19	271.4	1130	1408	178.1	8.801	3.110	2.811	2.765	3.179	3.403	3.440	3.787	4.700	4.904	5.556	5.647	5.617	6.089	6.109	5.923	6.237	6.168	6.233	6.264	6.458	6.739	6.376	6.265	6.148	6.114	6.601	6.223	6.155	6.099	5.718	5.705	5.412	5.474
430.0	705.8	906.2	1075	1191	1241	1297	1307	1340	1377	1494	1635	1725	1717	1610	1434	1201	996.3	888.4	861.9	870.0	913.5	957.8	1022	1081	1117	1125	1120	1090	1035	973.8	905.7	780.3	602.9	458.4	360.7	278.2	190.2	110.2	63.48	84.37	298.6	860.4	1181	1089	14.67	3.517	2.947	3.214	3.365	3.453	3.695	4.632	5.064	5.318	5.685	5.611	6.110	6.240	6.146	6.259	6.301	6.197	6.426	6.364	6.437	6.385	6.293	6.243	6.144	6.372	6.121	6.019	6.010	5.897	5.541	5.540	5.344
435.0	846.9	841.7	1021	1138	1227	1310	1328	1361	1393	1493	1624	1730	1718	1598	1419	1175	967.1	867.6	832.4	842.6	877.5	927.2	990.0	1063	1096	1117	1117	1099	1048	983.1	907.5	799.0	654.2	497.8	390.3	301.7	210.5	124.7	67.93	48.72	85.43	206.1	499.0	4918	1030	21.71	3.790	3.402	3.423	3.333	3.596	4.800	5.207	5.279	5.469	5.739	6.401	6.279	6.349	6.418	6.458	6.252	6.142	6.244	6.645	6.427	6.186	6.225	6.047	6.201	5.885	6.286	5.873	5.579	5.481	5.301	5.201
440.0	940.5	895.1	999.7	1127	1225	1266	1323	1367	1386	1455	1572	1663	1637	1516	1350	1133	932.8	830.8	798.7	809.1	831.6	879.9	945.8	1013	1048	1070	1072	1058	1015	955.1	876.9	763.4	643.8	510.8	391.6	303.9	214.6	130.0	72.94	44.01	42.31	61.59	127.9	2482	1934	247.1	13.72	3.706	3.585	3.289	3.627	4.442	5.167	5.250	5.424	5.499	6.183	6.214	6.348	6.313	6.321	6.182	6.232	6.410	5.930	6.079	6.285	6.080	6.018	5.908	5.554	5.570	5.770	5.482	5.502	4.864	5.016
445.0	965.3	1065	978.8	1103	1176	1254	1314	1349	1347	1388	1459	1544	1515	1415	1257	1057	882.0	782.5	753.5	763.8	781.8	820.6	878.9	936.7	969.7	995.5	997.9	984.9	943.0	896.9	818.5	708.9	592.3	494.6	383.5	291.9	208.1	130.4	76.45	47.72	35.57	32.75	42.44	614.5	1038	1899	186.6	8.190	3.841	3.334	3.380	4.486	4.789	5.009	5.139	5.231	6.122	6.070	6.182	6.189	6.102	6.212	6.032	5.825	5.879	5.734	5.724	5.854	5.759	5.338	5.545	5.350	5.394	5.340	5.116	4.887	5.060
450.0	744.4	1331	1063	1042	1118	1207	1261	1293	1270	1268	1333	1381	1356	1252	1118	941.7	798.2	709.9	686.1	687.5	698.8	731.5	776.2	829.3	856.4	875.3	880.2	863.3	833.9	791.3	730.4	631.6	522.7	436.3	363.9	280.2	197.5	128.0	80.46	53.03	38.45	29.68	26.28	150.6	259.4	934.9	1389	462.9	14.09	3.597	3.467	4.125	4.485	4.860	5.202	5.095	5.820	5.894	5.825	6.001	5.901	5.652	5.450	5.612	5.392	5.360	5.090	5.091	5.158	4.928	4.964	4.970	4.929	4.848	4.639	4.441	4.721
455.0	552.3	1285	1427	976.5	1034	1134	1190	1212	1192	1153	1188	1222	1192	1118	990.1	841.0	712.6	641.1	617.2	613.6	619.8	645.3	682.7	723.1	751.6	764.8	769.8	760.3	729.1	699.0	648.2	565.2	469.3	386.4	326.7	273.9	195.8	126.5	82.83	57.64	43.16	33.55	25.15	49.22	68.98	217.7	506.1	1074	632.3	17.53	3.752	4.075	4.341	4.658	4.798	4.750	5.193	5.635	5.641	5.793	5.654	5.337	4.826	5.136	4.651	4.801	4.525	4.789	4.485	4.337	4.470	4.360	4.445	4.363	4.235	4.170	4.063
460.0	461.9	979.9	1764	1093	971.8	1079	1140	1144	1115	1076	1116	1125	1090	1017	901.7	773.9	659.8	594.3	567.8	564.6	566.2	590.7	618.5	654.8	680.5	691.2	696.9	696.3	666.6	641.6	596.0	522.5	434.8	356.9	298.5	260.3	197.8	127.1	85.16	61.19	46.49	35.56	27.60	28.23	28.40	58.94	123.9	474.7	1136	182.9	12.60	4.264	3.999	4.438	4.764	4.578	4.865	5.439	5.517	5.248	5.422	5.412	4.710	5.008	4.573	4.428	4.434	4.380	4.265	4.310	4.093	3.807	4.193	4.117	3.770	3.762	3.759
465.0	449.8	720.4	1696	1422	918.4	991.9	1069	1075	1036	1021	1035	1043	1008	942.6	829.7	709.5	605.5	547.8	522.8	516.2	518.8	535.9	563.0	594.5	621.7	631.1	638.4	633.8	616.1	589.9	550.8	485.7	407.7	334.9	279.2	238.7	195.5	131.2	86.67	63.46	48.03	37.37	29.88	24.88	20.84	24.69	37.11	119.9	628.3	980.4	154.7	9.300	4.339	4.271	4.571	4.436	4.827	5.066	5.171	4.800	5.091	4.807	4.582	4.372	4.519	4.152	4.250	4.234	3.998	3.981	3.797	3.824	3.684	3.473	3.422	3.598	3.435
470.0	418.7	567.4	1175	1838	1077	903.1	972.7	996.2	940.2	901.2	914.1	919.5	888.6	816.8	729.0	620.5	534.9	485.0	464.6	455.7	455.5	466.3	488.9	513.8	536.6	548.1	551.3	545.7	537.3	515.1	484.1	427.1	360.1	298.5	250.9	207.9	173.3	132.4	91.70	65.09	49.81	40.04	31.40	25.86	20.88	18.37	18.81	35.28	157.1	491.9	728.1	402.7	14.79	4.330	4.447	4.135	4.265	4.688	4.777	4.510	4.511	4.485	4.008	4.053	4.045	3.761	3.947	3.564	3.497	3.535	3.411	3.475	3.186	3.254	3.064	3.084	3.133
475.0	411.0	498.3	732.8	1608	1594	853.0	869.6	868.4	832.9	787.6	788.6	791.4	757.4	694.8	620.8	534.2	461.0	418.0	402.7	391.7	391.0	394.5	414.8	434.0	448.4	460.3	463.7	459.5	449.3	433.0	410.0	361.4	307.9	256.9	217.5	183.2	146.6	118.7	96.14	69.40	51.42	41.14	33.19	27.31	21.63	18.30	15.48	17.63	42.56	115.7	241.6	694.6	214.0	19.20	4.578	3.847	4.239	4.424	4.112	4.128	4.032	3.822	4.059	3.367	3.504	3.356	3.347	3.211	3.291	3.346	3.069	3.015	2.884	2.899	2.830	2.543	2.810
480.0	400.9	489.2	560.0	1115	1983	982.7	806.8	793.9	765.8	727.8	710.0	709.4	680.4	613.6	551.1	476.1	417.6	374.0	359.1	352.8	346.8	347.6	366.2	383.9	392.8	403.3	403.9	405.5	392.9	382.3	361.3	321.2	273.8	230.3	195.1	165.5	133.9	106.2	91.59	73.24	53.83	41.35	34.22	28.29	23.31	19.46	15.78	14.21	17.16	32.47	60.12	279.8	729.9	202.9	16.58	3.536	3.913	4.227	3.741	3.618	3.666	3.441	3.404	3.286	3.305	3.255	2.870	2.846	2.910	2.951	2.869	2.645	2.557	2.638	2.544	2.474	2.369
485.0	349.2	490.3	506.9	743.5	1890	1362	745.0	746.0	705.3	668.7	652.2	647.5	618.0	558.7	496.8	429.7	377.5	344.6	329.9	319.2	312.2	316.0	328.3	341.1	352.6	358.5	362.1	356.1	352.1	344.2	325.4	286.3	247.7	212.0	179.5	152.8	124.4	98.15	83.27	74.33	57.53	42.57	34.41	28.57	24.18	20.11	17.09	13.96	12.53	14.14	19.53	70.77	402.4	732.0	202.6	7.923	3.865	3.996	3.799	3.498	3.286	3.404	3.222	3.068	3.071	2.807	2.706	2.652	2.616	2.711	2.612	2.417	2.354	2.444	2.182	2.400	2.190
490.0	293.3	438.6	475.6	554.1	1203	1881	897.9	677.8	628.0	594.7	578.8	574.1	542.8	493.8	437.1	380.3	338.5	308.9	293.7	282.7	275.2	276.9	285.0	296.2	306.2	311.6	311.0	311.4	307.5	298.9	283.8	253.1	220.3	190.0	161.4	137.4	114.7	90.97	74.45	67.34	61.15	46.99	35.51	30.03	25.12	21.56	18.15	15.27	12.60	11.16	10.89	21.40	100.3	339.4	1196	317.5	15.66	4.867	3.506	3.380	3.038	3.097	2.932	2.796	2.714	2.474	2.531	2.404	2.385	2.281	2.350	2.144	2.073	2.197	2.062	2.007	2.245
495.0	227.8	381.2	475.8	462.9	668.6	1662	1468	624.4	554.7	531.6	509.4	508.0	472.0	425.4	380.0	332.1	296.9	269.5	257.3	247.2	243.1	239.9	248.3	254.1	261.0	267.6	269.8	264.6	264.1	258.2	246.5	220.9	191.7	168.3	142.8	121.7	102.1	83.54	68.41	58.18	55.12	51.09	38.80	31.15	26.19	22.14	18.53	15.84	13.49	10.87	9.669	10.48	27.56	80.21	401.8	635.8	471.4	26.64	3.574	3.117	2.887	2.704	2.616	2.494	2.278	2.470	2.372	2.107	2.065	2.058	2.224	1.912	1.982	2.088	1.899	1.778	1.734
500.0	212.9	325.2	459.5	431.4	497.2	1065	1914	723.1	508.2	481.8	468.2	460.2	423.4	385.5	340.9	298.1	261.9	243.0	231.0	222.9	212.9	214.3	218.9	226.4	233.4	234.8	236.9	235.2	235.7	229.5	217.9	197.5	172.5	151.0	131.0	111.3	93.98	77.24	64.42	54.35	50.07	49.29	42.03	31.94	26.02	22.13	18.75	16.31	14.05	11.51	9.682	8.362	11.47	22.50	95.46	256.2	739.7	995.4	14.40	3.245	2.960	2.310	2.320	2.449	2.390	2.186	2.227	1.890	1.943	1.925	2.046	1.895	1.774	1.731	1.606	1.749	1.777
505.0	199.4	275.8	413.3	424.0	417.8	639.5	1858	1110	464.1	433.9	421.4	409.6	380.1	350.1	306.9	266.5	238.0	218.2	207.7	197.7	194.5	190.0	193.4	201.2	207.5	209.9	211.1	206.8	208.1	205.5	196.3	176.7	156.0	135.3	119.3	103.2	86.76	71.78	60.08	50.88	44.92	44.29	42.76	33.92	25.96	22.25	18.99	16.42	14.01	12.06	10.01	8.184	8.258	9.598	25.87	63.95	365.9	1893	178.4	6.942	2.796	2.586	2.259	2.352	2.190	1.886	2.018	2.121	1.810	1.819	1.924	1.610	1.678	1.540	1.614	1.570	1.630
510.0	179.8	229.1	326.3	406.6	378.0	437.3	1115	1718	599.8	377.4	364.6	352.2	329.6	299.7	263.9	230.8	205.4	187.2	177.7	170.4	165.7	162.5	165.0	171.7	176.4	177.6	176.6	177.4	177.1	172.4	164.5	150.9	134.3	116.5	103.5	90.60	77.05	64.35	54.62	46.42	41.83	37.84	37.71	35.70	27.94	21.93	18.57	16.05	13.95	11.90	10.25	8.603	7.404	6.924	10.34	18.51	90.12	765.7	513.0	248.6	14.37	2.558	2.182	2.083	1.882	1.666	1.773	1.781	1.631	1.640	1.558	1.428	1.416	1.433	1.404	1.390	1.348
515.0	153.5	193.4	254.7	359.1	356.8	341.8	536.5	1532	1207	345.8	313.4	307.4	279.2	252.8	222.7	193.6	173.7	158.7	151.8	144.0	138.8	137.9	138.4	143.5	146.7	147.4	146.9	146.7	146.1	142.2	139.6	126.4	111.0	99.46	87.33	77.66	66.84	56.66	48.94	41.87	37.08	33.34	31.04	32.45	29.19	22.85	17.95	15.76	13.86	11.40	9.756	8.975	7.538	6.479	7.065	8.295	23.79	174.6	165.1	483.2	232.4	18.77	2.229	1.786	1.693	1.540	1.388	1.486	1.429	1.444	1.345	1.301	1.358	1.258	1.212	1.194	1.194
520.0	128.8	159.9	225.6	306.4	347.9	299.6	353.6	953.8	1757	442.7	281.0	273.0	247.4	221.6	197.2	171.0	154.2	141.0	136.7	125.3	121.5	119.3	121.2	124.5	126.1	126.5	125.8	127.5	124.8	123.2	120.0	110.0	97.25	86.58	76.68	68.63	59.47	51.20	44.91	38.73	34.43	31.41	27.28	27.65	28.07	24.57	18.51	15.56	13.37	11.30	9.783	8.608	7.616	6.517	6.456	6.066	9.064	42.47	40.40	195.7	508.6	202.7	11.08	1.951	1.671	1.474	1.444	1.347	1.383	1.175	1.363	1.167	1.174	1.088	1.102	1.012	1.055
525.0	125.4	150.2	195.4	253.5	326.0	284.5	290.9	497.7	1798	863.2	252.2	243.5	219.6	198.5	179.1	155.6	135.9	125.1	120.1	112.8	106.6	106.6	107.8	110.1	111.3	110.6	110.3	111.3	109.2	109.3	104.6	96.92	86.87	77.30	67.95	60.90	54.08	46.29	41.75	35.82	31.80	28.86	25.09	24.28	25.06	25.30	19.22	15.01	12.61	11.20	9.445	8.644	7.973	6.944	5.978	5.233	5.764	12.88	11.93	48.45	252.5	491.6	150.1	4.502	1.658	1.287	1.442	1.257	1.215	1.151	1.188	1.096	1.136	1.103	0.955	0.882	0.879
530.0	106.4	142.7	172.1	203.9	275.1	278.3	246.7	297.1	1016	1591	380.4	206.5	189.3	170.2	150.5	133.1	117.8	106.8	101.6	94.99	91.35	91.92	92.32	93.91	93.73	93.26	92.92	94.23	92.72	91.81	88.58	82.04	74.18	66.44	59.14	52.36	46.49	40.06	35.96	32.35	28.64	25.67	22.76	21.28	20.81	21.75	20.72	16.18	12.12	10.57	9.092	8.269	7.318	6.807	5.995	5.191	4.945	6.400	5.633	13.39	62.09	217.9	359.1	135.3	12.62	1.427	1.251	1.227	1.110	1.118	1.002	0.985	1.021	0.975	0.888	0.870	0.932
535.0	97.22	123.6	155.2	162.2	203.8	265.7	211.0	217.1	394.4	1465	1030	188.0	160.9	142.3	125.2	113.3	99.73	90.04	84.47	81.10	78.26	77.57	75.09	77.55	78.93	76.78	78.15	77.32	77.79	76.19	74.11	68.32	61.63	55.41	50.31	44.84	39.97	35.46	31.32	27.83	24.96	22.33	19.84	19.40	17.93	17.45	18.37	17.06	12.43	9.828	8.534	7.628	6.918	6.307	5.890	5.435	4.587	4.676	4.038	5.603	15.92	50.75	114.4	329.9	212.4	16.79	1.335	1.107	0.982	0.940	0.994	0.913	0.830	0.863	0.783	0.670	0.747
540.0	81.71	107.7	130.8	142.1	170.6	236.7	210.6	182.6	221.9	830.3	1648	222.0	142.5	125.2	111.6	99.26	86.96	78.62	74.50	71.26	68.15	66.20	65.70	67.19	67.11	67.52	67.52	66.38	66.84	65.55	63.24	58.62	53.78	47.89	43.54	39.03	34.45	31.10	27.57	24.68	22.55	20.40	18.45	17.09	15.77	14.90	15.15	16.04	13.16	9.908	8.084	7.080	6.484	5.863	5.687	5.551	4.597	4.052	3.656	3.567	5.602	13.29	27.80	132.9	358.0	193.5	7.936	1.115	1.045	0.808	0.966	0.816	0.716	0.668	0.767	0.771	0.653
545.0	75.85	101.3	106.7	125.9	135.4	186.9	216.8	157.7	164.4	370.9	1673	604.0	127.2	112.2	95.80	86.40	74.96	69.09	65.82	62.60	59.69	55.37	57.23	59.05	58.72	57.19	58.45	57.63	57.94	56.77	54.86	52.16	46.66	42.16	38.61	34.20	31.09	26.82	24.63	22.94	20.27	18.74	16.71	15.61	13.99	13.72	12.81	13.54	13.12	10.01	7.884	6.713	5.934	5.437	5.103	4.977	4.551	3.954	3.379	3.269	3.331	4.805	8.000	32.69	172.2	432.9	33.09	3.267	0.977	0.952	0.874	0.671	0.824	0.753	0.659	0.690	0.562
550.0	66.35	88.75	99.80	110.5	110.1	139.2	195.6	154.3	130.8	180.2	855.1	1345	160.8	93.90	79.84	71.40	62.25	57.98	53.74	51.68	48.13	47.11	47.49	47.76	47.56	47.31	47.66	46.32	47.12	46.90	44.47	41.51	38.22	34.91	31.41	28.66	25.79	22.73	20.50	19.39	17.01	16.22	14.46	13.51	12.42	11.61	10.45	10.46	11.32	10.10	7.610	6.140	5.310	4.836	4.433	4.204	4.313	3.999	3.220	2.864	2.726	2.643	3.289	8.776	41.75	181.9	209.0	122.6	11.26	0.971	0.795	0.624	0.738	0.665	0.567	0.595	0.517
555.0	52.12	81.31	89.92	95.72	89.04	98.57	148.7	161.6	112.2	119.0	286.3	1269	697.7	77.56	65.26	56.26	49.72	46.56	42.98	41.39	39.22	37.14	37.18	37.62	38.03	35.99	38.07	36.44	37.25	37.46	35.40	33.52	30.83	27.74	25.53	23.36	20.80	18.40	17.32	15.99	14.01	13.38	11.51	11.24	10.92	9.555	8.969	8.085	8.451	8.987	7.766	5.636	4.614	4.449	3.920	3.583	3.505	3.471	3.485	2.691	2.413	2.038	2.080	3.223	10.48	41.62	66.47	212.1	162.5	13.68	0.823	0.663	0.703	0.605	0.490	0.497	0.567
560.0	56.30	79.97	78.00	79.10	79.46	82.23	111.8	158.7	101.1	95.81	133.2	678.0	1258	117.6	55.64	47.28	42.47	39.20	35.96	34.30	32.05	31.74	32.09	32.13	31.94	30.61	30.77	30.46	30.93	30.39	29.05	27.59	25.06	23.67	21.05	19.58	17.21	15.57	14.61	13.38	11.96	11.40	10.02	9.694	9.273	8.381	7.989	6.670	6.904	7.141	7.200	5.713	4.274	3.665	3.480	3.281	3.002	3.013	3.147	2.616	2.040	2.040	1.555	1.799	3.507	10.42	16.06	79.78	225.4	119.7	6.043	0.765	0.573	0.565	0.504	0.442	0.526
565.0	61.51	72.84	78.64	72.99	73.49	71.31	80.52	143.5	108.0	78.46	89.01	267.5	1373	364.6	48.84	40.44	36.20	32.23	30.92	29.68	27.85	27.04	27.02	27.30	26.02	24.98	25.65	25.74	25.93	25.11	25.68	23.07	21.31	19.78	17.74	16.76	14.53	13.22	12.76	11.90	10.47	9.456	8.974	8.243	7.841	7.093	6.998	6.040	5.775	5.635	6.250	6.010	4.196	3.372	3.164	2.981	2.804	2.626	2.589	2.546	2.125	1.810	1.557	1.476	1.903	3.415	4.466	19.39	99.01	212.9	33.05	2.453	0.653	0.460	0.467	0.377	0.468
570.0	63.71	74.58	78.20	67.93	58.82	58.83	62.13	99.48	121.4	75.65	70.75	112.7	704.5	974.9	84.93	32.92	29.32	26.55	25.34	23.80	22.55	21.28	21.08	20.77	20.30	20.64	21.02	20.65	20.62	20.13	20.24	18.42	16.96	15.96	14.06	12.85	12.05	10.97	10.27	9.301	8.661	7.625	7.512	6.856	6.589	6.005	5.721	5.113	4.686	4.259	4.592	5.062	4.221	3.279	2.693	2.670	2.241	2.252	2.087	2.151	2.134	1.726	1.476	1.351	1.300	1.642	1.880	5.154	23.73	83.68	137.4	80.23	9.766	0.609	0.491	0.389	0.487
575.0	61.81	67.49	72.26	59.92	48.04	51.57	50.83	62.84	109.7	84.02	60.99	69.65	217.2	975.8	449.7	29.69	25.06	21.56	20.10	19.78	17.33	17.28	16.81	16.80	16.47	15.80	16.20	16.20	15.84	15.92	15.85	14.68	13.88	12.24	11.12	10.45	9.339	8.371	8.180	7.328	6.788	6.381	5.818	5.507	5.138	4.756	4.696	4.090	3.762	3.425	3.277	3.752	3.784	3.322	2.497	2.344	1.928	2.047	1.866	1.690	1.804	1.943	1.507	1.231	1.199	1.175	1.202	1.952	6.060	19.47	40.69	116.9	102.4	10.71	0.590	0.379	0.401
580.0	56.48	64.20	67.62	53.12	44.42	43.67	46.15	52.92	84.95	100.3	58.47	58.30	87.15	523.5	887.6	50.02	20.82	17.88	17.33	16.27	14.26	14.99	13.73	13.95	13.19	13.54	13.62	13.55	13.73	13.54	13.28	12.10	11.55	10.27	9.385	8.435	7.854	7.095	6.641	6.019	5.741	5.026	4.950	4.955	4.411	4.167	3.902	3.749	3.386	3.057	2.746	2.959	3.225	3.150	2.563	2.055	1.817	1.725	1.713	1.527	1.503	1.634	1.653	1.270	1.109	1.016	0.982	1.209	2.067	4.985	9.852	41.58	129.9	78.76	4.686	0.423	0.372
585.0	51.85	65.52	62.96	51.89	40.60	41.74	40.90	45.21	64.36	107.3	63.06	52.75	53.75	194.6	1006	112.9	17.76	16.31	14.11	13.54	12.53	12.56	12.02	11.91	11.60	11.24	11.17	11.60	11.05	11.29	10.88	10.03	9.638	8.466	7.656	7.152	6.840	6.231	5.697	5.150	5.022	4.619	4.544	4.241	4.039	3.782	3.405	3.282	2.894	2.735	2.439	2.269	2.382	2.783	2.654	2.130	1.753	1.724	1.408	1.202	1.259	1.366	1.674	1.398	1.146	0.994	0.894	1.073	1.152	1.691	2.767	10.08	53.00	123.8	31.90	2.251	0.312
590.0	51.18	63.89	61.20	47.88	37.89	34.74	36.77	38.92	48.00	92.07	80.52	52.40	46.20	72.36	509.5	603.3	38.95	13.57	11.63	10.85	10.57	10.06	9.585	9.863	9.625	9.398	9.060	9.093	9.154	8.961	8.749	8.272	7.788	6.795	6.419	5.914	5.552	5.296	4.825	4.510	4.112	3.962	3.609	3.642	3.400	3.004	2.711	2.654	2.593	2.209	1.976	1.841	1.775	2.088	2.444	2.209	1.630	1.423	1.179	1.282	1.189	1.142	1.270	1.285	1.151	0.937	0.886	0.811	0.925	0.976	1.192	2.778	12.56	44.98	77.05	54.12	9.060
595.0	47.63	61.59	58.07	44.86	32.12	29.93	34.25	34.89	38.40	61.39	92.57	53.90	42.05	42.21	145.5	658.0	236.3	11.57	9.699	8.534	8.806	8.107	7.577	7.824	8.004	7.523	7.121	7.053	7.011	6.834	7.334	6.432	6.059	5.598	5.348	4.893	4.421	4.300	3.907	3.463	3.184	3.283	3.201	2.819	2.823	2.350	2.217	2.217	2.095	1.859	1.679	1.532	1.444	1.555	1.820	2.034	1.649	1.326	1.183	1.069	1.125	0.847	0.894	0.986	1.176	1.082	0.816	0.789	0.795	0.766	0.676	1.038	3.219	10.35	20.73	64.04	67.09
600.0	47.86	57.29	56.56	41.27	30.99	31.88	31.74	33.77	38.40	49.74	89.80	66.63	44.28	37.68	51.38	365.4	529.5	21.08	8.618	7.411	7.395	7.268	6.576	6.302	6.669	6.515	5.730	6.319	5.735	5.847	6.246	5.021	5.066	4.829	4.467	4.092	3.831	3.414	3.354	2.947	2.702	2.659	2.490	2.489	2.319	1.988	2.166	1.855	1.651	1.682	1.563	1.161	1.247	1.306	1.534	1.801	1.631	1.216	0.988	0.953	0.910	0.735	0.763	0.803	0.946	0.950	0.870	0.678	0.782	0.673	0.519	0.564	1.076	2.688	4.918	20.55	71.42
605.0	46.96	57.66	48.11	42.90	33.88	32.90	31.58	35.44	42.44	49.41	81.59	85.36	50.13	41.25	33.31	135.0	648.7	75.99	7.753	6.976	6.518	5.815	5.892	5.429	5.430	5.205	5.172	5.039	5.292	5.348	5.112	4.592	4.592	4.280	3.579	3.317	3.310	3.092	2.938	2.475	2.383	2.293	2.052	2.112	2.005	1.819	1.771	1.717	1.433	1.245	1.336	1.060	1.149	1.065	1.130	1.432	1.657	1.300	1.056	0.914	0.747	0.830	0.912	0.778	0.836	0.904	0.937	0.815	0.650	0.605	0.572	0.685	0.605	0.953	1.438	5.012	26.03
610.0	49.62	54.07	51.78	40.64	33.96	33.05	35.28	40.60	48.02	57.07	76.46	105.3	72.73	51.83	39.93	54.16	366.4	387.0	19.16	5.660	5.320	4.993	4.858	4.488	4.553	4.235	4.194	4.266	4.072	4.088	4.190	3.717	3.617	3.467	3.076	2.885	2.602	2.557	2.338	2.021	1.878	1.909	1.706	1.804	1.681	1.515	1.438	1.304	1.355	1.163	1.135	0.990	0.920	0.836	0.857	1.038	1.263	1.297	1.127	0.874	0.752	0.800	0.819	0.730	0.772	0.767	0.903	0.979	0.758	0.595	0.604	0.637	0.506	0.593	0.661	1.487	6.237
615.0	48.64	56.92	51.73	43.40	34.46	33.58	35.95	40.91	51.63	60.57	71.70	97.84	90.58	55.38	44.51	35.48	114.7	470.0	78.73	5.106	4.304	4.197	3.894	3.845	3.765	3.603	3.562	3.398	3.519	3.184	3.337	3.030	2.839	2.800	2.641	2.354	2.283	2.126	2.032	1.728	1.616	1.562	1.414	1.468	1.317	1.236	1.173	1.185	0.994	1.051	0.926	0.821	0.809	0.734	0.717	0.782	0.819	1.212	1.152	0.984	0.864	0.701	0.677	0.736	0.741	0.761	0.809	1.021	0.842	0.680	0.611	0.623	0.534	0.484	0.504	0.668	1.668
620.0	57.60	47.07	46.19	43.17	31.50	30.54	34.83	40.76	49.17	56.02	67.31	84.93	99.03	58.74	42.71	31.23	46.74	282.3	332.2	9.140	3.961	3.579	3.406	3.333	2.932	3.096	3.195	3.008	2.857	2.740	2.965	2.565	2.432	2.220	2.385	1.971	2.043	1.830	1.741	1.578	1.398	1.320	1.216	1.267	1.118	1.049	1.065	1.040	1.030	0.848	0.790	0.693	0.676	0.706	0.683	0.690	0.684	1.005	0.964	0.844	0.804	0.674	0.706	0.682	0.670	0.770	0.669	0.822	0.821	0.817	0.573	0.568	0.459	0.502	0.469	0.476	0.700
625.0	46.87	48.52	47.10	38.51	29.01	30.76	33.77	41.00	47.07	52.65	62.96	73.94	95.58	64.18	44.03	29.97	29.58	108.9	456.9	47.79	3.667	2.951	2.810	2.890	3.001	2.656	2.801	2.571	2.451	2.443	2.701	2.293	2.286	1.967	2.038	1.962	1.805	1.548	1.458	1.285	1.255	1.140	1.046	1.045	1.036	0.961	0.995	0.908	0.819	0.773	0.734	0.624	0.654	0.634	0.554	0.602	0.617	0.819	0.786	0.862	0.810	0.564	0.612	0.619	0.677	0.688	0.729	0.680	0.735	0.842	0.761	0.633	0.511	0.527	0.451	0.437	0.492
630.0	49.31	47.91	48.95	37.69	29.69	28.92	34.02	37.99	42.22	51.06	60.13	68.71	82.78	73.15	44.58	29.78	25.12	38.09	273.3	256.0	9.345	2.618	2.393	2.497	2.302	2.134	2.187	1.999	1.900	1.973	2.268	1.816	1.719	1.777	1.792	1.607	1.470	1.467	1.192	1.054	1.008	0.984	0.837	0.950	0.772	0.839	0.766	0.702	0.688	0.667	0.612	0.538	0.573	0.506	0.526	0.567	0.568	0.578	0.607	0.695	0.709	0.568	0.575	0.585	0.545	0.563	0.572	0.623	0.626	0.743	0.759	0.573	0.512	0.510	0.470	0.400	0.426
635.0	45.02	50.63	53.46	37.30	31.77	28.52	32.63	36.23	41.39	49.05	59.12	63.53	73.71	77.87	51.01	30.45	26.27	21.19	78.02	350.3	59.72	2.530	2.200	1.995	2.071	1.731	1.749	1.670	1.658	1.667	1.817	1.530	1.429	1.470	1.388	1.380	1.205	1.130	1.090	0.972	0.835	0.856	0.757	0.825	0.637	0.697	0.660	0.585	0.582	0.508	0.528	0.568	0.431	0.480	0.457	0.493	0.497	0.561	0.516	0.600	0.647	0.652	0.566	0.506	0.468	0.599	0.580	0.574	0.570	0.592	0.772	0.731	0.520	0.476	0.432	0.479	0.342
640.0	47.00	52.00	50.61	37.20	29.68	33.03	32.86	35.73	40.97	48.83	58.31	60.49	66.33	75.18	58.59	33.08	27.56	17.47	24.36	230.2	219.9	4.722	1.837	1.840	1.833	1.715	1.561	1.527	1.330	1.418	1.717	1.332	1.341	1.200	1.285	1.300	1.123	1.022	0.969	0.772	0.805	0.738	0.786	0.670	0.603	0.655	0.608	0.641	0.571	0.477	0.439	0.512	0.411	0.423	0.376	0.394	0.510	0.482	0.509	0.576	0.542	0.666	0.631	0.513	0.453	0.601	0.570	0.467	0.553	0.574	0.593	0.672	0.618	0.505	0.433	0.411	0.380
645.0	51.36	57.34	49.67	44.14	32.35	29.58	29.52	35.66	40.58	45.35	58.25	62.52	65.01	66.85	63.28	35.40	28.07	17.18	11.48	88.22	325.6	30.86	1.845	1.761	1.554	1.257	1.416	1.455	1.279	1.228	1.328	1.195	1.306	1.127	1.117	1.095	0.980	1.014	0.739	0.701	0.655	0.640	0.690	0.608	0.571	0.645	0.473	0.584	0.487	0.463	0.398	0.422	0.435	0.435	0.427	0.365	0.456	0.504	0.478	0.435	0.482	0.596	0.689	0.551	0.432	0.528	0.515	0.456	0.543	0.567	0.512	0.579	0.623	0.561	0.455	0.400	0.370
650.0	51.00	56.79	59.82	46.02	31.98	27.45	29.67	34.33	38.19	45.62	55.90	61.60	60.96	57.45	63.53	37.27	25.94	17.58	9.275	26.80	279.2	122.3	2.147	1.581	1.487	1.256	1.217	1.287	1.273	1.180	1.324	1.267	1.094	0.969	1.019	0.920	0.957	0.856	0.730	0.770	0.660	0.648	0.603	0.549	0.524	0.535	0.464	0.483	0.486	0.486	0.386	0.346	0.410	0.397	0.420	0.339	0.413	0.519	0.527	0.373	0.396	0.505	0.526	0.592	0.436	0.534	0.472	0.549	0.488	0.527	0.500	0.492	0.593	0.618	0.467	0.440	0.456
