Sample:	'1
File name:	Default_20250711_081858.FD3
Run date:	'08:12:38, 07/11/2025
Operator:	GSeeker
Comment:	'

Instrument
Model:	F-2700 FL Spectrophotometer
Serial number:	22A5-003
ROM Version:	4J14000 07

Instrument parameters
Measurement type:	3-D scan
Data mode:	Fluorescence
EX  Start WL:	220.0 nm
EX  End WL:	600.0 nm
EX Sampling interval:	5.0 nm
EM  Start WL:	230.0 nm
EM  End WL:	650.0 nm
EM Sampling interval:	5.0 nm
Scan speed:	12000 nm/min
EX Slit:	5.0 nm
EM Slit:	5.0 nm
PMT Voltage:	700 V
Response:	Auto 
Corrected spectra:	Off
Contour interval:	50.000

Peak integration
Integration method:	Rectangular
Sensitivity:	1
Threshold:	1.000

Peaks
No.	ApexEX/EM(nm)	Height(Data)
1	235.0/345.0	 2523
2	240.0/635.0	12.52
3	255.0/455.0	 3076
4	260.0/285.0	180.8
5	270.0/240.0	2.092
6	275.0/235.0	0.538
7	275.0/615.0	64.65
8	280.0/620.0	63.38
9	285.0/345.0	 2042
10	285.0/430.0	 2823
11	285.0/635.0	53.99
12	290.0/245.0	2.602
13	310.0/235.0	1.718
14	335.0/430.0	 2268
15	470.0/345.0	6.148
16	475.0/355.0	6.338
17	505.0/455.0	8.295

Data points
	220.0	225.0	230.0	235.0	240.0	245.0	250.0	255.0	260.0	265.0	270.0	275.0	280.0	285.0	290.0	295.0	300.0	305.0	310.0	315.0	320.0	325.0	330.0	335.0	340.0	345.0	350.0	355.0	360.0	365.0	370.0	375.0	380.0	385.0	390.0	395.0	400.0	405.0	410.0	415.0	420.0	425.0	430.0	435.0	440.0	445.0	450.0	455.0	460.0	465.0	470.0	475.0	480.0	485.0	490.0	495.0	500.0	505.0	510.0	515.0	520.0	525.0	530.0	535.0	540.0	545.0	550.0	555.0	560.0	565.0	570.0	575.0	580.0	585.0	590.0	595.0	600.0
230.0	-28.00	4.627	554.7	932.6	138.7	-0.848	-3.332	-2.549	-1.464	-2.014	-0.920	-1.808	-0.519	0.207	1.065	0.243	0.709	0.081	0.460	0.852	1.019	0.585	0.528	0.617	0.550	0.547	0.356	0.347	0.235	0.239	0.215	-0.124	0.262	0.313	0.008	0.165	0.291	0.123	0.103	0.003	-0.156	-0.004	0.042	-0.041	-0.088	-0.141	0.079	0.584	1.846	2.359	1.056	0.056	-0.122	-0.232	-0.165	-0.154	-0.209	-0.304	-0.321	-0.289	-0.170	-0.287	-0.213	-0.256	-0.262	-0.325	-0.325	-0.246	-0.285	-0.198	-0.326	-0.305	-0.272	-0.269	-0.393	-0.294	-0.403
235.0	-17.33	-9.055	186.8	 1267	 1574	248.6	3.759	-1.119	-1.054	-4.029	-1.672	0.538	-2.025	-1.723	1.364	1.289	0.352	0.231	1.718	0.560	0.871	0.812	0.583	0.885	1.097	0.244	0.259	0.474	0.445	0.317	0.853	-0.433	-0.034	-0.039	0.144	-0.110	0.336	0.005	0.026	0.278	-0.043	-0.178	-0.215	-0.199	-0.331	0.014	0.124	0.035	0.412	1.570	3.741	4.431	2.444	0.178	-0.188	-0.086	-0.353	-0.348	-0.254	-0.311	-0.267	-0.180	-0.205	-0.333	-0.351	-0.147	-0.217	-0.170	-0.180	-0.371	-0.425	-0.452	-0.187	-0.184	-0.237	-0.410	-0.472
240.0	-21.82	-15.31	39.10	534.3	 2379	 1475	175.1	-2.346	0.716	-0.988	2.092	0.453	-0.870	1.057	1.770	1.273	1.017	-0.093	0.392	1.077	0.089	0.202	0.809	0.879	0.381	0.362	0.882	0.263	0.584	0.581	0.595	0.068	0.325	0.164	0.363	-0.159	0.228	-0.145	0.056	-0.111	-0.004	-0.165	-0.204	-0.069	-0.073	0.054	0.039	0.038	0.122	0.279	1.649	4.452	6.860	5.203	1.973	0.069	-0.242	-0.117	-0.238	-0.258	-0.141	-0.217	-0.247	-0.420	-0.264	-0.150	-0.330	-0.156	-0.208	-0.203	-0.423	-0.120	-0.358	-0.342	-0.337	-0.290	-0.529
245.0	-28.66	-22.25	13.17	128.3	 1252	 3243	 1215	72.15	0.416	1.974	0.642	-0.909	-0.660	0.771	2.602	0.789	1.275	0.957	1.132	1.372	0.204	0.940	0.900	1.105	0.406	0.663	0.500	0.297	0.393	0.581	0.573	0.211	0.262	0.389	0.287	0.220	0.128	-0.300	0.308	0.195	0.059	-0.123	-0.053	-0.109	-0.104	-0.183	0.227	0.063	0.082	0.205	0.253	1.232	4.153	7.345	8.199	4.602	0.664	-0.008	-0.258	-0.232	-0.108	-0.218	-0.168	-0.459	-0.282	-0.058	-0.219	-0.179	-0.256	-0.275	-0.305	-0.176	-0.392	-0.381	-0.204	-0.357	-0.359
250.0	-27.08	-28.17	17.67	57.77	303.5	 1482	 2864	 2032	308.0	4.671	1.340	-1.308	1.708	1.290	1.958	0.782	0.768	1.148	1.120	0.956	0.347	1.076	1.017	1.305	0.693	0.999	0.129	0.562	0.512	0.484	0.434	0.266	0.320	0.195	0.190	0.181	-0.062	-0.201	0.037	0.327	0.080	-0.004	-0.089	-0.124	-0.069	-0.275	0.118	0.047	-0.076	0.127	-0.009	0.165	0.900	2.047	4.248	6.781	7.718	6.639	3.497	0.673	-0.174	-0.257	-0.240	-0.294	-0.298	-0.265	-0.415	-0.204	-0.300	-0.351	-0.439	-0.294	-0.315	-0.291	-0.217	-0.217	-0.431
255.0	-25.87	-20.73	-4.689	52.75	120.3	345.5	945.9	 3197	 2811	295.5	5.075	2.276	2.404	4.549	2.015	1.186	0.764	0.874	0.455	1.184	0.850	0.706	0.924	0.829	0.343	0.113	0.225	0.518	0.646	0.616	0.187	0.235	0.294	0.332	0.062	0.019	0.114	-0.170	-0.221	0.368	0.192	0.032	0.256	-0.216	-0.138	-0.218	0.124	0.003	0.021	0.300	0.089	0.187	0.164	0.383	0.885	1.499	2.500	5.999	10.65	9.378	4.287	0.624	-0.116	-0.268	-0.274	-0.150	-0.219	-0.132	-0.316	-0.258	-0.238	-0.312	-0.270	-0.370	-0.240	-0.318	-0.361
260.0	-30.14	-19.06	-8.595	18.27	99.91	121.1	224.4	 1372	 4131	 1111	146.6	3.740	3.563	3.622	1.197	1.337	0.315	1.507	-0.030	0.874	0.878	1.265	0.981	0.627	0.413	0.602	0.690	0.566	0.554	0.402	0.205	0.447	0.164	0.035	0.098	0.037	-0.140	-0.104	-0.261	0.023	-0.128	0.139	0.192	-0.110	0.184	-0.131	0.238	-0.297	0.135	0.294	0.010	0.230	0.197	0.131	0.010	0.230	0.424	1.310	4.089	8.381	11.50	8.089	2.966	0.299	-0.221	-0.074	-0.273	-0.289	-0.380	-0.280	-0.145	-0.218	-0.312	-0.363	-0.308	-0.214	-0.503
265.0	-29.36	-16.72	-9.558	5.309	67.68	112.6	76.97	335.4	 2147	 4213	914.7	58.33	4.033	4.174	1.597	3.481	1.644	1.955	1.603	2.069	1.128	1.778	1.863	1.324	1.643	0.297	0.463	1.188	0.343	0.286	0.200	0.459	0.296	0.199	-0.262	0.046	-0.216	0.149	-0.201	-0.171	-0.058	0.180	-0.053	0.205	0.011	-0.079	0.203	0.056	0.007	-0.051	0.003	0.044	0.039	0.227	0.091	-0.104	0.201	0.204	0.781	2.085	5.979	9.810	12.02	6.714	1.701	-0.065	-0.234	-0.252	-0.231	-0.226	-0.148	-0.329	-0.308	-0.282	-0.186	-0.250	-0.466
270.0	-26.07	-19.41	-16.89	6.865	20.18	77.37	105.2	109.5	535.2	 2141	 3855	 2251	229.8	6.633	2.644	3.014	2.672	2.050	1.963	1.866	1.955	0.925	1.530	0.952	1.318	0.457	1.130	1.167	0.246	0.446	0.490	0.239	0.447	0.137	0.120	-0.049	-0.106	0.205	-0.142	-0.014	-0.102	-0.286	-0.069	0.045	0.104	0.019	-0.001	0.069	-0.063	-0.001	-0.039	-0.143	0.005	0.086	0.220	0.136	0.099	-0.089	0.207	0.237	1.235	2.633	5.260	7.602	9.338	7.939	4.769	1.265	-0.087	-0.265	-0.176	-0.270	-0.300	-0.240	-0.323	-0.257	-0.271
275.0	-12.11	-14.35	0.676	8.824	5.289	24.28	90.43	126.0	152.6	500.4	 1514	 4796	 3043	248.4	5.279	4.880	2.362	2.266	2.496	2.024	2.113	1.203	1.267	1.555	1.358	1.202	0.990	1.081	0.257	0.471	-0.100	0.117	0.578	0.099	0.195	-0.113	0.250	0.066	-0.100	-0.197	0.008	-0.337	0.316	0.007	-0.139	0.151	0.024	-0.040	0.186	-0.053	-0.029	-0.160	-0.083	-0.069	-0.017	-0.026	0.195	0.293	0.127	-0.045	0.157	0.480	0.949	1.545	2.655	5.922	11.71	11.93	6.278	1.449	-0.170	-0.152	-0.427	-0.115	-0.476	-0.395	-0.340
280.0	-33.27	-10.17	-1.942	17.33	8.178	12.29	37.78	146.9	134.1	151.0	393.7	 2383	 5551	 2159	109.5	4.616	2.803	2.496	2.070	2.016	1.564	1.741	0.939	1.364	1.396	1.593	1.248	0.649	0.429	0.332	0.133	0.567	0.247	0.324	0.088	0.265	0.116	0.083	-0.047	-0.138	-0.062	-0.119	0.092	-0.243	0.013	0.490	0.042	-0.089	0.377	0.190	-0.018	-0.052	0.049	-0.070	-0.035	-0.134	-0.048	0.149	0.521	0.222	-0.147	-0.005	0.064	0.193	0.516	1.402	4.331	9.319	13.82	11.00	4.436	0.641	-0.163	-0.236	-0.338	-0.432	-0.433
285.0	-23.58	-10.34	12.19	23.89	20.49	21.30	25.25	95.80	180.8	118.0	147.5	638.6	 3472	 5255	542.4	45.40	5.085	3.369	2.925	2.204	2.726	1.481	1.504	2.391	2.135	1.455	1.440	0.786	0.931	0.271	0.551	0.483	0.475	0.075	0.086	0.158	0.053	0.087	0.138	-0.003	-0.316	-0.015	0.197	0.002	-0.129	-0.064	0.012	0.117	0.043	0.146	0.033	0.080	-0.004	-0.166	0.125	-0.061	-0.129	-0.061	0.100	0.298	0.200	0.034	0.096	-0.164	0.068	0.275	0.949	2.297	6.366	12.60	14.67	8.688	2.368	0.251	-0.310	-0.253	-0.325
290.0	-25.31	3.098	38.80	60.60	45.41	36.67	39.03	65.39	139.0	213.1	176.8	256.5	963.4	 3117	 4245	 1796	148.3	7.550	4.745	2.967	3.046	1.478	1.982	1.665	2.031	1.681	1.080	1.060	0.783	0.690	0.570	0.295	0.183	0.059	0.042	0.121	0.100	0.086	-0.080	0.027	-0.102	-0.057	0.006	-0.178	-0.227	0.081	0.185	0.252	0.146	0.281	0.141	0.135	-0.009	-0.048	0.056	-0.099	-0.194	-0.118	-0.038	-0.016	0.212	0.219	0.354	0.197	0.042	0.195	0.223	0.484	1.309	3.199	6.054	9.158	13.04	11.87	6.847	2.410	0.251
295.0	-21.57	16.96	73.23	80.24	72.03	54.59	63.72	76.30	120.3	230.5	327.7	271.8	382.0	826.8	 1990	 5474	 2531	177.4	6.481	4.201	3.268	2.448	1.537	1.555	1.490	1.272	0.968	0.817	1.278	1.202	1.003	0.400	0.620	0.163	0.252	0.052	0.236	0.249	0.181	0.018	0.138	-0.219	-0.113	-0.130	-0.214	0.150	0.218	0.138	0.344	0.363	0.320	0.258	0.031	0.022	0.057	-0.006	0.119	-0.076	0.173	-0.142	0.047	0.244	0.303	0.414	0.647	0.225	0.289	0.295	0.296	0.998	1.372	2.093	3.616	7.644	14.22	17.31	10.78
300.0	-19.05	31.76	86.74	104.7	101.5	86.26	92.79	129.4	169.8	243.8	404.2	435.7	363.8	389.1	600.3	 3010	 6117	 1964	105.5	6.559	3.684	3.437	2.541	1.060	1.448	1.743	1.303	1.488	0.862	0.789	1.208	0.872	0.394	0.390	0.235	0.170	0.223	0.110	0.348	-0.079	-0.104	-0.095	-0.094	0.020	-0.030	-0.061	0.430	0.168	0.306	0.347	0.348	0.286	0.129	0.263	0.142	0.128	0.268	-0.093	0.110	0.100	0.414	0.206	0.387	0.307	0.667	0.579	0.775	0.258	0.230	0.610	0.612	0.678	0.961	1.882	4.464	12.36	19.26
305.0	-5.921	32.09	116.2	143.4	145.3	135.9	158.5	212.5	275.9	373.3	505.4	682.7	600.9	457.4	417.0	928.0	 4272	 6071	 1408	41.98	4.040	3.030	4.103	2.700	1.961	1.638	1.473	1.006	1.400	0.851	1.407	0.980	0.450	0.528	0.425	0.293	0.514	0.178	0.027	0.188	-0.174	0.077	-0.078	0.135	0.015	0.301	0.216	0.104	0.276	0.299	0.420	0.329	0.279	0.288	0.312	0.304	0.154	0.200	0.482	0.340	0.565	0.650	0.627	0.666	0.984	0.919	1.130	0.982	0.768	0.754	0.723	0.596	0.794	0.934	1.274	3.146	7.385
310.0	-0.571	31.39	122.4	201.2	206.0	193.9	225.3	294.1	375.6	484.5	636.3	800.0	881.7	709.2	538.3	516.2	 1308	 3764	 5351	 1220	108.2	5.871	3.960	3.168	2.201	1.877	1.676	1.271	1.481	0.840	1.197	0.772	0.768	0.603	0.673	0.341	0.194	0.233	0.069	0.259	-0.109	-0.076	-0.204	-0.228	-0.215	0.095	0.043	0.069	0.279	0.369	0.404	0.494	0.548	0.494	0.392	0.540	0.494	0.502	0.621	0.610	0.639	0.864	0.878	1.083	1.046	1.359	1.391	1.464	1.420	1.493	1.291	1.008	0.950	1.019	1.122	1.303	2.031
315.0	6.962	61.05	183.4	258.4	268.8	250.3	298.4	357.1	458.2	569.3	725.6	888.3	969.9	981.5	728.6	530.8	619.3	 1083	 2360	 6024	 1907	134.1	6.015	4.889	4.344	1.838	1.779	1.489	1.479	1.294	1.091	0.995	0.771	0.652	0.719	0.387	0.144	0.359	0.110	0.072	-0.092	0.226	0.025	0.084	-0.037	0.251	0.002	0.397	0.440	0.390	0.610	0.438	0.951	0.616	0.630	0.618	0.893	0.870	0.821	1.023	0.722	0.952	1.046	1.273	1.385	1.521	1.463	1.601	1.747	1.390	1.946	1.779	1.301	1.173	0.917	0.914	0.824
320.0	9.258	108.5	295.5	474.9	374.1	331.3	362.6	440.8	531.8	676.7	873.0	 1018	 1101	 1126	985.8	678.9	562.6	545.4	679.0	 3306	 6481	 1546	82.05	6.902	5.243	3.646	2.018	1.401	1.538	1.365	1.470	1.127	1.094	0.579	0.682	0.503	0.193	0.437	0.113	-0.098	-0.031	0.090	-0.026	0.110	0.277	0.364	0.290	0.468	0.858	0.802	1.018	0.698	0.911	0.863	0.687	0.922	0.892	0.832	1.073	1.082	1.154	1.231	1.707	1.284	1.752	1.901	1.779	2.049	2.024	1.700	2.183	2.013	1.960	1.522	1.656	1.495	1.223
325.0	14.21	178.3	569.5	847.9	639.7	459.0	428.8	527.1	655.0	824.6	 1042	 1241	 1320	 1324	 1219	935.5	668.4	512.0	352.9	935.7	 4374	 6266	 1218	39.62	7.028	4.617	3.092	2.181	1.863	1.429	0.962	1.601	1.238	0.601	0.700	0.745	0.232	0.420	-0.178	0.054	0.207	0.063	-0.101	-0.065	0.190	0.462	0.861	0.873	1.937	1.823	1.817	1.587	1.006	1.337	1.182	1.207	1.327	1.235	1.287	1.377	1.280	1.359	1.811	1.530	1.855	2.167	2.457	1.909	2.322	2.370	2.457	2.394	2.611	2.224	2.359	1.757	1.681
330.0	51.53	263.7	896.3	 1481	 1268	809.7	614.6	667.0	790.9	993.3	 1238	 1504	 1634	 1614	 1461	 1251	946.5	650.3	410.1	436.4	 1258	 3762	 5930	 2459	89.38	8.478	5.511	3.491	2.481	1.721	1.384	1.330	0.859	0.669	0.565	0.564	0.185	0.492	0.479	-0.070	0.142	0.349	0.041	0.027	0.199	0.455	1.064	1.595	3.067	3.440	3.315	3.303	2.651	2.175	1.680	1.539	1.815	1.527	1.635	1.742	1.636	1.557	1.908	1.979	2.639	2.589	2.784	2.695	2.734	3.235	3.037	2.870	2.926	2.930	3.020	2.687	2.150
335.0	52.38	355.8	 1195	 2075	 1875	 1226	866.0	818.1	950.8	 1125	 1392	 1706	 1871	 1874	 1747	 1443	 1233	910.9	602.1	489.4	603.4	 1108	 2657	 6719	 3635	117.0	7.935	4.384	4.424	2.503	2.289	1.844	1.598	1.027	1.079	0.514	0.332	0.195	-0.005	0.294	0.193	0.355	0.006	0.135	0.372	0.512	1.173	2.170	3.641	4.679	4.919	4.969	4.474	3.399	2.646	2.229	2.399	2.134	2.193	2.017	1.913	2.040	1.776	2.733	2.935	2.550	2.855	3.392	3.143	3.612	3.419	3.589	3.691	3.573	3.301	3.242	2.951
340.0	65.44	366.0	 1313	 2413	 2165	 1460	 1019	922.1	 1018	 1226	 1509	 1807	 1995	 2042	 1867	 1610	 1323	 1096	764.5	586.7	535.2	577.4	879.7	 3513	 7401	 1330	77.16	6.706	4.934	3.411	2.394	1.851	1.802	1.044	0.949	0.730	0.580	0.396	0.266	0.274	0.495	0.544	0.054	0.454	0.122	0.678	1.527	2.485	4.727	5.179	5.455	5.928	5.144	4.150	3.224	2.262	2.439	2.296	2.151	1.862	2.065	2.305	2.455	2.545	2.907	2.866	3.127	3.743	3.383	3.472	3.745	3.702	3.902	3.947	3.362	3.463	3.660
345.0	65.56	371.1	 1368	 2523	 2336	 1580	 1065	944.5	 1038	 1271	 1534	 1820	 2031	 2042	 1914	 1657	 1352	 1133	895.2	665.0	558.0	516.2	503.0	 1076	 4662	 6708	 1103	38.55	6.494	4.104	2.942	2.550	2.031	1.085	1.175	1.062	0.811	0.489	0.401	0.243	0.411	0.237	0.362	0.278	0.409	0.685	1.440	2.554	4.572	5.469	6.148	6.088	5.281	4.555	3.305	2.726	2.231	2.240	2.089	2.504	2.401	2.448	2.753	2.870	2.931	3.296	3.305	3.605	3.500	4.062	3.754	3.997	4.225	4.341	3.532	4.106	3.822
350.0	66.73	363.4	 1283	 2375	 2328	 1685	 1113	959.7	 1059	 1260	 1489	 1767	 1950	 1987	 1867	 1661	 1395	 1152	976.1	823.1	660.0	561.0	478.3	519.6	 1310	 3801	 5552	 2825	77.84	8.250	4.516	3.517	2.282	1.624	1.080	1.114	0.842	0.728	0.423	0.434	0.477	0.290	0.244	0.196	0.258	0.592	1.367	2.574	4.107	5.125	5.785	6.270	5.418	4.443	3.352	2.814	2.333	2.221	2.147	2.269	2.063	2.386	2.760	2.626	2.874	3.283	2.990	3.352	3.554	3.977	3.977	3.560	4.153	3.795	3.818	3.708	3.547
355.0	70.37	339.4	 1173	 2200	 2257	 1693	 1168	998.7	 1066	 1229	 1450	 1675	 1838	 1873	 1806	 1627	 1394	 1181	998.3	910.7	793.4	647.9	536.7	450.4	512.4	997.7	 2211	 6379	 3688	106.2	7.404	4.002	3.070	2.416	1.918	1.037	0.961	0.540	0.612	0.506	-0.121	0.319	0.443	0.044	0.180	0.526	1.206	2.698	3.984	4.497	5.582	6.338	5.462	4.517	3.922	2.861	2.602	2.224	2.423	1.919	2.244	2.459	2.768	2.659	2.820	2.965	2.946	3.249	3.303	3.451	3.557	3.815	3.545	3.374	3.707	3.647	3.771
360.0	72.06	314.9	 1054	 1999	 2159	 1613	 1129	973.0	 1046	 1207	 1369	 1576	 1729	 1766	 1732	 1577	 1386	 1205	 1036	925.3	870.9	735.7	595.3	481.0	380.3	400.5	611.2	 3053	 7019	 1219	72.50	7.246	3.317	2.956	1.752	1.580	0.955	0.769	0.335	0.560	0.318	0.560	0.316	0.378	0.227	0.439	1.074	2.256	3.483	4.660	4.998	5.906	5.188	4.326	3.414	2.907	2.623	2.208	2.270	2.052	2.345	2.241	2.493	2.560	2.677	2.813	2.879	3.196	3.217	3.094	3.483	3.635	3.389	3.821	3.729	3.287	3.375
365.0	61.47	270.6	956.8	 1800	 2015	 1526	 1098	 1010	 1036	 1157	 1321	 1476	 1617	 1648	 1643	 1509	 1353	 1195	 1054	948.2	893.8	833.2	659.3	531.4	394.5	310.7	271.9	815.5	 4124	 6658	 1038	40.94	5.051	3.201	2.345	1.638	1.152	1.057	0.493	0.691	0.246	0.245	0.294	0.525	0.126	0.705	0.763	2.359	3.139	3.890	4.383	5.291	5.045	4.134	3.570	3.301	2.624	1.988	2.065	2.141	2.262	2.245	2.488	2.402	2.843	2.529	2.892	3.038	2.841	2.956	3.268	3.125	3.347	3.108	3.414	3.385	3.242
370.0	38.00	235.7	826.1	 1590	 1790	 1464	 1097	993.5	 1021	 1133	 1264	 1393	 1507	 1537	 1536	 1431	 1328	 1188	 1086	994.1	929.8	884.1	794.1	627.9	465.9	356.9	251.1	307.7	 1083	 3532	 5442	 2893	68.74	6.964	3.309	2.387	1.627	1.233	0.790	0.580	0.184	0.365	0.415	0.359	0.344	0.616	0.895	1.703	2.683	3.383	3.825	4.858	4.520	3.995	3.706	2.840	2.782	2.343	2.155	2.194	2.188	2.113	2.414	2.496	2.479	2.711	2.493	2.581	2.603	2.989	2.815	3.017	3.165	3.088	3.190	3.135	3.134
375.0	38.33	230.9	731.0	 1386	 1588	 1416	 1114	999.9	 1002	 1102	 1206	 1317	 1409	 1430	 1435	 1339	 1278	 1173	 1093	 1034	978.4	921.1	874.7	774.3	584.8	451.1	324.4	259.5	381.2	881.9	 2024	 5987	 3695	94.49	6.473	3.666	2.499	1.830	1.262	0.446	0.459	0.417	0.647	0.572	0.645	0.617	0.984	1.721	2.148	2.899	3.451	4.595	3.830	3.895	3.022	2.639	2.538	2.607	1.983	2.283	1.850	1.884	2.085	2.505	2.181	2.465	2.328	2.123	2.420	2.852	3.005	2.688	2.753	3.254	2.990	2.940	3.095
380.0	52.08	221.6	603.8	 1187	 1488	 1332	 1106	 1012	998.9	 1091	 1175	 1271	 1338	 1365	 1352	 1274	 1228	 1164	 1113	 1059	 1020	963.7	901.2	838.8	694.7	534.7	398.7	306.0	264.0	324.4	552.1	 2686	 6453	998.5	63.46	6.130	3.530	2.639	1.580	0.970	0.876	0.635	0.268	0.209	0.390	0.505	0.884	1.465	1.943	2.851	3.462	3.680	4.135	3.311	3.202	2.956	2.231	2.333	2.004	2.171	2.124	1.774	1.893	2.528	2.191	2.334	2.079	2.483	2.372	2.625	2.746	2.303	2.850	3.129	2.653	3.227	2.865
385.0	34.57	185.3	582.2	 1119	 1389	 1322	 1111	 1035	 1018	 1059	 1162	 1238	 1310	 1356	 1311	 1245	 1200	 1161	 1123	 1085	 1052	 1004	940.3	870.9	799.0	632.9	479.1	370.5	291.0	243.7	244.1	718.6	 3529	 5764	836.9	35.65	6.629	4.367	1.940	1.077	0.787	0.799	0.378	0.120	0.398	0.336	0.665	1.380	1.784	2.414	2.919	3.619	3.708	3.398	3.152	2.935	2.345	2.540	2.267	2.349	1.661	1.930	1.824	2.298	1.868	2.531	2.389	2.374	2.389	2.368	2.640	2.410	2.452	2.684	2.857	3.049	2.238
390.0	15.90	170.7	508.7	 1042	 1304	 1311	 1160	 1104	 1073	 1124	 1207	 1305	 1352	 1371	 1348	 1269	 1228	 1167	 1146	 1149	 1118	 1100	 1062	988.2	924.7	815.9	654.9	517.4	414.0	328.5	260.4	307.1	936.2	 2897	 4418	 2360	59.42	9.165	4.307	1.939	1.329	0.658	0.686	0.293	0.401	0.604	0.596	1.169	1.555	2.272	2.616	3.271	3.486	3.268	3.360	2.979	2.814	2.757	2.680	2.326	2.149	2.298	2.327	2.360	2.126	2.314	2.182	2.343	2.364	2.626	2.614	2.143	2.659	2.554	2.714	2.856	2.644
395.0	37.35	147.6	486.3	964.1	 1266	 1362	 1288	 1223	 1232	 1252	 1393	 1484	 1561	 1541	 1523	 1390	 1306	 1241	 1240	 1254	 1273	 1286	 1271	 1229	 1142	 1051	937.6	769.9	626.1	509.2	400.0	329.7	390.9	776.3	 1629	 4769	 3181	79.29	10.20	3.670	2.182	1.188	1.313	0.665	0.740	0.662	0.955	1.055	1.732	2.144	2.714	3.151	3.434	3.690	3.582	3.056	3.395	2.840	3.184	2.695	2.506	2.452	2.549	2.366	2.446	2.211	2.335	2.627	2.698	2.810	3.004	2.532	2.823	3.097	3.211	2.725	3.051
400.0	19.59	158.2	469.3	985.0	 1265	 1433	 1398	 1390	 1338	 1445	 1573	 1757	 1814	 1826	 1777	 1562	 1430	 1335	 1337	 1392	 1443	 1490	 1495	 1493	 1416	 1310	 1194	 1035	846.1	694.6	562.4	441.2	355.4	371.6	510.9	 2143	 5256	817.8	56.47	5.853	3.601	1.844	1.516	0.889	0.782	0.931	0.783	1.809	1.480	2.275	2.915	3.140	3.701	4.152	3.632	3.706	3.842	3.322	3.433	3.230	2.774	2.504	2.752	2.727	2.766	2.262	3.152	3.175	3.203	3.151	2.752	3.163	3.111	3.164	3.372	2.732	3.166
405.0	30.52	148.2	437.3	951.3	 1336	 1513	 1539	 1505	 1503	 1631	 1829	 2073	 2157	 2158	 2061	 1758	 1564	 1464	 1483	 1548	 1608	 1702	 1755	 1770	 1710	 1581	 1427	 1295	 1085	899.0	743.8	578.2	439.7	358.3	314.1	639.8	 2782	 4517	705.8	32.15	4.927	2.587	1.871	0.964	0.838	1.007	0.890	1.432	1.741	2.335	2.648	3.323	4.182	3.963	4.159	3.881	4.229	3.897	4.238	3.467	3.279	2.797	3.533	3.224	3.048	3.230	3.060	3.165	3.471	3.425	3.229	3.806	3.359	3.589	3.121	3.129	3.365
410.0	27.11	148.4	485.1	965.3	 1375	 1614	 1663	 1696	 1717	 1811	 2088	 2394	 2500	 2502	 2374	 1990	 1709	 1578	 1616	 1697	 1800	 1922	 2008	 2063	 1998	 1881	 1702	 1525	 1357	 1142	942.5	750.4	581.9	450.4	344.5	336.2	779.3	 2237	 3538	 1922	48.86	4.787	2.652	1.538	1.251	1.074	1.138	1.363	2.065	2.197	2.655	3.503	4.205	4.289	4.655	4.229	4.393	4.376	4.547	4.103	3.480	3.507	3.927	3.528	3.801	3.391	3.722	3.550	3.704	3.813	3.937	3.820	3.812	3.356	3.410	3.525	3.373
415.0	29.73	148.1	483.4	996.2	 1394	 1708	 1788	 1881	 1878	 1960	 2243	 2552	 2689	 2693	 2512	 2097	 1766	 1629	 1698	 1779	 1890	 2021	 2136	 2210	 2165	 2048	 1870	 1672	 1495	 1330	 1109	879.7	688.3	535.5	404.7	311.4	321.0	582.9	 1249	 3767	 2508	65.76	4.697	2.345	2.132	1.621	1.325	1.515	2.188	2.307	2.731	3.741	4.065	4.462	4.845	4.635	4.913	4.549	4.592	4.660	3.998	4.040	4.088	4.015	3.769	3.905	3.960	3.860	3.893	3.675	3.880	3.650	4.339	3.938	3.449	3.452	3.709
420.0	46.53	170.0	507.8	997.8	 1421	 1784	 1918	 1993	 1958	 2037	 2302	 2616	 2755	 2745	 2545	 2162	 1803	 1649	 1708	 1792	 1915	 2049	 2167	 2244	 2225	 2094	 1930	 1740	 1558	 1401	 1201	962.0	753.7	589.5	449.2	328.8	238.3	226.2	338.1	 1623	 4136	722.6	43.51	3.713	2.558	1.286	1.497	2.001	2.256	2.474	3.075	3.773	4.589	4.758	5.008	5.001	5.601	5.013	5.292	4.599	4.797	4.125	3.815	4.112	3.686	3.993	4.025	4.229	4.344	3.684	4.233	3.895	3.956	3.910	3.877	3.624	3.690
425.0	78.35	161.9	479.1	976.1	 1425	 1831	 2005	 2109	 2055	 2093	 2325	 2614	 2800	 2801	 2602	 2163	 1804	 1678	 1709	 1819	 1913	 2051	 2176	 2260	 2248	 2131	 1976	 1784	 1588	 1428	 1263	 1032	808.2	637.3	482.3	359.4	240.4	159.2	140.2	418.6	 2129	 3613	621.6	23.46	3.352	2.184	1.519	1.752	1.936	2.645	2.833	4.301	4.468	5.179	5.226	5.091	5.732	5.812	5.057	4.850	4.808	4.079	4.125	4.394	4.563	3.799	3.953	4.146	4.526	3.790	4.094	4.277	3.852	3.937	3.741	3.786	3.589
430.0	202.2	161.7	486.6	988.2	 1496	 1965	 2209	 2349	 2270	 2211	 2380	 2645	 2806	 2823	 2618	 2225	 1862	 1703	 1752	 1837	 1926	 2043	 2178	 2268	 2260	 2152	 2013	 1838	 1655	 1486	 1322	 1114	893.0	697.9	538.7	400.2	271.5	171.9	112.7	143.4	536.6	 1754	 2872	 1589	41.59	4.582	2.524	2.329	2.432	2.764	2.841	4.517	4.733	5.127	5.568	5.845	6.207	5.890	5.692	5.286	4.978	4.446	4.268	4.139	3.955	3.852	4.003	4.027	4.039	4.291	3.934	4.069	4.193	4.056	3.701	3.611	3.616
435.0	250.7	201.6	495.1	994.4	 1589	 2105	 2426	 2594	 2462	 2349	 2434	 2691	 2819	 2822	 2627	 2247	 1879	 1743	 1783	 1861	 1925	 2020	 2145	 2252	 2236	 2161	 2016	 1868	 1696	 1541	 1364	 1159	975.2	772.6	594.4	452.5	309.7	201.2	129.9	98.73	165.9	423.2	 1019	 3190	 2123	57.26	4.335	3.227	3.151	3.147	3.491	4.686	4.931	5.799	6.661	6.589	6.752	6.924	6.261	5.991	5.589	5.375	4.913	3.983	4.176	4.105	4.070	3.780	4.241	4.065	4.221	3.655	4.446	3.764	3.766	3.552	3.929
440.0	182.0	272.8	504.1	 1056	 1659	 2211	 2642	 2758	 2652	 2402	 2426	 2634	 2739	 2778	 2599	 2228	 1872	 1748	 1791	 1851	 1897	 1953	 2081	 2195	 2182	 2125	 1970	 1850	 1692	 1554	 1376	 1178	995.9	824.0	637.9	477.4	338.0	226.3	146.4	101.1	93.51	132.5	261.5	 1416	 3620	643.8	35.42	4.462	3.540	3.602	3.934	4.321	5.246	6.240	6.459	6.616	6.952	7.539	6.912	6.407	5.717	5.322	5.020	4.505	4.454	4.141	4.023	3.695	4.285	4.130	3.990	3.832	4.161	3.832	4.172	3.808	3.653
445.0	121.1	359.0	526.2	 1078	 1721	 2299	 2731	 2913	 2704	 2458	 2406	 2522	 2614	 2658	 2503	 2180	 1849	 1719	 1761	 1817	 1828	 1873	 1981	 2081	 2086	 2027	 1903	 1804	 1665	 1538	 1378	 1176	997.1	839.7	668.9	502.3	355.0	245.3	163.6	113.9	90.30	79.65	94.21	363.5	 1943	 3446	506.8	23.58	4.364	3.742	4.178	4.426	5.238	6.375	7.051	6.566	6.768	7.187	7.125	6.309	5.847	5.284	4.655	4.382	3.906	3.569	3.482	3.476	3.957	4.104	4.063	3.744	3.754	3.724	3.778	4.017	3.809
450.0	63.44	325.6	664.2	 1021	 1716	 2334	 2811	 3048	 2797	 2397	 2256	 2336	 2426	 2474	 2329	 2067	 1775	 1656	 1691	 1733	 1712	 1719	 1811	 1898	 1912	 1867	 1784	 1685	 1584	 1467	 1332	 1155	980.8	823.6	676.7	527.9	377.4	265.7	187.6	138.0	106.5	84.82	70.89	117.8	491.6	 1752	 2724	 1422	34.90	5.237	4.506	4.884	5.740	6.747	6.924	7.213	7.325	7.946	7.410	6.990	5.847	5.140	4.642	4.568	4.086	3.523	3.591	3.528	3.661	3.638	3.637	3.614	3.707	3.565	3.552	3.801	3.725
455.0	70.91	239.3	879.7	 1071	 1641	 2340	 2847	 3076	 2764	 2311	 2120	 2145	 2233	 2254	 2135	 1916	 1679	 1561	 1602	 1619	 1570	 1558	 1624	 1710	 1721	 1701	 1634	 1555	 1461	 1377	 1265	 1112	939.2	796.4	654.7	531.1	398.4	289.2	210.9	160.6	128.0	99.90	79.38	72.46	142.9	414.5	966.8	 2852	 1754	41.91	5.843	5.640	5.904	6.798	7.103	7.083	7.775	8.295	7.308	6.922	6.081	5.163	4.320	4.321	3.688	3.329	3.239	3.212	3.506	3.213	3.195	3.307	3.243	3.242	3.149	3.313	3.123
460.0	58.14	180.3	870.5	 1337	 1623	 2245	 2773	 2979	 2710	 2209	 1998	 2004	 2045	 2058	 1977	 1776	 1561	 1483	 1504	 1527	 1463	 1452	 1495	 1557	 1585	 1581	 1498	 1447	 1372	 1314	 1208	 1056	908.1	768.7	638.2	523.5	409.9	298.1	224.7	176.9	141.1	113.6	88.93	68.29	69.82	121.2	239.5	 1272	 3048	465.6	28.99	6.241	5.891	6.844	7.106	7.294	7.733	7.948	7.403	6.617	6.002	4.987	4.161	3.915	3.409	2.945	2.872	3.056	3.066	3.268	3.055	3.451	2.893	3.048	2.742	3.028	2.962
465.0	37.37	182.0	698.4	 1677	 1699	 2204	 2698	 2878	 2639	 2125	 1859	 1854	 1899	 1923	 1821	 1665	 1472	 1385	 1427	 1424	 1348	 1316	 1376	 1432	 1458	 1437	 1390	 1335	 1273	 1226	 1134	 1014	871.8	738.6	618.6	510.2	410.3	311.1	233.8	185.0	150.3	119.8	96.06	73.39	58.77	57.53	74.93	318.8	 1674	 2628	400.2	20.26	6.388	6.701	6.597	7.471	7.216	7.797	7.445	6.213	5.511	4.682	4.297	3.502	3.369	2.817	2.691	2.926	2.816	2.795	3.077	2.947	2.910	2.719	2.767	3.101	2.998
470.0	33.29	151.2	490.9	 1639	 2087	 2056	 2497	 2702	 2446	 1970	 1696	 1652	 1686	 1699	 1598	 1492	 1324	 1253	 1273	 1277	 1198	 1161	 1189	 1252	 1272	 1262	 1232	 1191	 1145	 1097	 1028	925.1	808.3	688.0	584.1	482.9	390.1	314.9	245.6	194.6	160.6	130.2	104.5	79.84	60.46	49.29	42.44	90.09	417.8	 1380	 2056	 1104	33.59	7.166	7.079	6.571	7.222	7.267	7.036	5.901	5.214	4.373	3.656	3.307	2.848	2.642	2.664	2.459	2.451	2.297	2.539	2.402	2.284	2.471	2.818	2.679	2.739
475.0	18.46	118.3	389.7	 1122	 2619	 2122	 2283	 2443	 2206	 1784	 1529	 1441	 1465	 1466	 1403	 1302	 1157	 1100	 1117	 1121	 1049	995.3	 1022	 1077	 1087	 1077	 1067	 1028	994.0	963.2	922.8	821.6	736.1	628.3	538.4	446.3	370.4	300.8	250.3	201.6	164.9	134.4	110.8	87.65	66.76	49.65	40.56	42.28	109.3	319.8	737.7	 2070	 1204	44.18	7.015	6.269	6.681	6.806	6.173	5.367	4.879	4.234	3.295	3.033	2.801	2.269	2.262	2.488	2.054	1.954	2.209	1.910	1.946	2.460	2.361	2.315	2.222
480.0	24.86	98.98	350.2	832.7	 2454	 2489	 2128	 2235	 2012	 1658	 1394	 1321	 1301	 1310	 1249	 1154	 1057	996.8	991.4	 1006	936.7	884.2	899.1	946.2	966.1	960.5	945.0	914.1	897.5	880.9	834.0	752.9	671.7	586.8	502.6	425.2	351.0	290.3	244.8	204.8	168.4	140.4	111.5	89.65	68.14	52.18	40.87	33.43	42.06	84.31	178.9	903.8	 2228	496.4	30.76	7.343	6.442	6.468	5.618	5.469	4.181	3.674	3.263	2.852	2.266	2.351	1.872	1.850	1.983	2.044	2.116	1.810	2.092	2.118	2.042	1.831	1.951
485.0	24.49	97.46	330.6	718.7	 1862	 2964	 2079	 2087	 1867	 1495	 1268	 1194	 1210	 1179	 1136	 1054	953.7	896.5	915.7	907.5	848.6	798.4	813.9	854.7	858.2	869.0	858.0	827.2	816.3	801.7	763.7	697.8	622.2	551.7	469.8	406.2	331.4	276.6	237.6	206.7	170.5	140.1	113.1	90.22	70.45	53.25	41.60	32.25	28.56	32.84	51.81	226.6	 1291	 2060	407.8	15.65	6.892	6.353	5.345	5.260	3.923	3.838	2.824	2.503	1.989	1.915	1.933	1.740	1.961	2.022	1.474	1.807	1.723	1.823	1.844	1.860	1.995
490.0	9.209	99.77	306.2	620.2	 1217	 2763	 2464	 1901	 1702	 1350	 1140	 1066	 1050	 1044	984.9	922.0	835.7	799.3	802.8	798.8	746.6	706.3	706.2	735.0	747.4	748.9	743.6	729.5	726.9	710.7	681.1	625.4	565.0	503.7	434.7	375.2	315.8	264.9	225.7	197.4	170.2	142.2	113.6	91.11	74.01	56.90	45.30	34.90	28.03	23.78	24.81	61.61	324.5	 1049	 1710	846.9	34.70	7.108	5.364	4.911	3.865	3.371	2.623	2.483	2.038	1.934	1.784	1.499	1.669	1.547	1.511	1.439	1.588	1.479	1.556	1.873	1.559
495.0	18.12	87.66	257.9	552.1	949.6	 1825	 2935	 1848	 1486	 1212	997.1	950.0	913.1	886.1	860.7	796.5	724.6	699.4	694.1	686.8	647.4	604.0	602.4	637.6	637.0	639.0	644.6	634.3	626.4	621.4	597.9	555.2	504.4	450.4	394.8	344.4	290.8	251.5	213.7	186.5	162.1	141.4	115.3	93.65	74.45	59.67	47.60	37.64	30.46	24.46	19.79	26.77	83.39	245.0	676.2	 1923	549.1	44.57	6.173	4.665	3.965	2.616	2.613	2.199	1.768	1.356	1.686	1.360	1.086	1.319	1.143	1.227	0.910	1.404	1.269	1.441	1.250
500.0	2.891	85.16	233.8	505.4	848.0	 1266	 2687	 2145	 1335	 1094	909.3	846.5	823.6	790.9	771.2	704.9	647.7	622.7	624.8	611.3	571.1	536.0	537.8	573.7	565.6	563.7	573.2	565.6	556.1	556.4	537.6	504.5	459.3	408.2	364.4	320.7	271.9	234.4	202.4	175.8	154.4	136.8	114.5	93.37	74.62	60.11	49.00	39.63	31.18	25.85	20.93	20.12	30.28	65.24	166.4	900.1	 2019	501.0	27.24	4.948	3.922	3.081	2.357	2.229	1.765	1.373	1.481	1.168	1.118	1.355	1.072	0.852	0.843	1.239	1.128	1.438	1.210
505.0	10.07	71.64	220.8	482.8	756.7	 1054	 2020	 2463	 1263	995.0	831.0	762.6	735.9	709.4	680.5	636.9	568.7	547.5	554.9	544.7	505.4	485.9	486.7	502.5	503.1	504.4	506.5	496.6	503.9	502.7	484.1	455.6	415.6	374.7	336.5	295.4	254.8	220.7	192.1	166.4	146.3	129.0	112.8	91.61	72.91	60.40	48.13	41.16	32.67	26.70	22.40	20.17	19.60	26.41	48.33	228.7	 1226	 1918	396.8	12.57	4.175	2.736	2.295	1.962	1.670	1.168	1.560	1.149	1.152	1.247	0.971	0.943	1.110	0.994	1.093	1.373	1.007
510.0	5.255	70.32	198.5	404.7	664.5	897.4	 1294	 2299	 1524	866.3	727.7	668.6	627.2	605.6	575.7	536.9	484.8	473.9	468.9	459.6	429.0	403.6	407.2	425.0	419.9	424.9	431.0	421.8	430.4	431.4	418.0	394.0	361.7	328.6	295.4	263.1	229.8	201.5	176.1	152.2	135.9	118.7	104.2	89.34	72.76	58.74	48.28	40.40	32.87	27.89	23.52	21.03	18.23	18.81	22.53	61.63	310.9	 1018	 1498	664.1	30.12	3.352	2.429	1.966	1.652	1.148	1.304	0.995	0.889	0.880	0.917	0.950	0.899	0.995	0.947	1.100	0.865
515.0	-19.28	33.54	152.4	362.0	581.8	748.9	959.6	 1516	 1964	848.5	615.2	577.4	531.4	519.9	468.8	446.2	401.7	390.0	398.6	388.7	355.2	342.6	335.5	350.0	351.0	357.2	354.7	350.5	359.1	362.0	355.2	336.8	312.7	286.9	255.8	228.0	207.3	179.1	158.6	139.8	124.7	107.6	95.44	82.50	70.27	57.08	47.34	38.98	33.06	28.83	24.98	22.00	18.53	17.38	16.75	24.60	79.18	236.6	597.4	 1574	527.2	37.60	2.468	1.922	1.557	1.005	1.134	1.167	0.864	0.570	0.827	0.598	0.716	0.747	1.008	0.760	0.591
520.0	-15.49	39.09	146.1	315.0	513.8	646.8	785.9	 1003	 1944	 1050	561.6	515.5	477.6	440.3	406.9	391.6	352.2	346.7	348.1	337.5	321.0	296.6	292.0	304.5	303.9	310.4	308.2	306.1	317.8	318.8	311.4	296.8	274.5	254.1	229.2	205.3	185.1	163.7	143.5	127.3	114.8	100.4	86.54	76.89	67.75	56.93	46.38	37.78	33.22	27.88	24.73	22.01	18.92	16.82	15.16	16.24	27.31	61.22	146.1	762.6	 1561	451.2	21.93	1.854	1.184	0.883	1.085	0.847	0.946	0.690	0.585	0.581	0.599	0.594	0.455	0.501	0.761
525.0	0.577	27.22	133.3	288.1	442.2	595.9	677.9	775.3	 1515	 1455	527.1	463.6	428.2	398.7	370.1	342.7	321.8	302.4	304.9	300.2	276.6	260.5	258.3	267.4	264.4	270.7	270.7	266.3	276.2	278.0	274.7	264.5	246.2	226.7	205.9	182.5	167.1	148.2	134.5	118.0	105.9	93.13	81.50	69.18	62.47	56.60	46.39	36.86	32.52	27.59	24.22	21.29	18.22	17.22	15.19	14.43	15.76	21.76	39.81	192.3	935.5	 1456	341.3	8.169	1.635	0.996	0.966	0.948	0.902	0.609	0.503	0.626	0.593	0.806	0.422	0.552	0.355
530.0	-17.28	13.51	107.2	228.4	379.2	512.8	572.7	624.3	856.1	 1587	779.6	387.5	362.0	332.9	314.6	287.6	272.6	258.6	256.4	251.1	239.3	220.7	223.7	222.0	224.0	227.5	227.0	228.8	230.9	236.9	234.3	224.5	211.6	196.3	180.4	161.1	145.0	131.3	119.6	105.5	94.53	83.10	73.51	62.58	56.48	51.21	44.95	36.46	30.75	26.32	23.28	21.18	18.25	16.35	14.71	13.43	12.53	12.83	15.41	47.99	234.6	765.0	 1125	502.5	26.66	1.574	1.046	0.903	0.847	0.427	0.382	0.510	0.400	0.607	0.270	0.421	0.487
535.0	-24.68	9.670	90.39	194.3	306.2	453.2	489.6	497.1	543.4	 1065	 1275	398.0	307.7	279.0	259.5	248.6	228.8	219.9	216.6	207.0	198.3	183.7	182.9	184.1	187.5	189.9	187.8	191.1	192.9	198.2	200.4	188.5	180.8	170.2	154.2	139.9	127.5	114.3	105.4	90.55	82.62	72.86	65.10	55.56	50.38	45.13	41.70	35.84	29.12	25.24	22.09	19.90	17.98	15.87	13.84	13.96	11.49	10.25	10.33	16.02	56.52	174.9	432.3	 1148	495.4	32.82	1.493	0.983	0.696	0.592	0.445	0.429	0.431	0.361	0.251	0.101	0.377
540.0	-23.44	11.25	77.78	178.8	275.1	378.6	440.8	422.9	442.0	613.1	 1449	559.3	259.7	242.4	224.5	215.8	192.2	189.0	187.7	185.3	176.8	158.8	160.9	164.8	164.2	164.1	161.5	166.8	172.8	174.2	173.7	165.9	159.8	148.4	135.6	123.8	114.0	102.5	92.24	84.78	75.66	67.25	57.91	51.96	46.14	41.89	37.34	35.04	28.39	24.02	21.22	18.40	17.32	14.89	14.23	12.61	10.96	10.19	8.581	9.256	17.12	42.61	103.5	547.3	 1184	405.2	17.44	1.170	0.600	0.592	0.533	0.312	0.384	0.372	0.266	0.235	0.129
545.0	-14.56	-5.458	77.38	138.4	235.3	327.4	378.7	390.9	372.3	381.5	 1154	886.9	244.5	220.6	202.2	193.0	166.1	166.6	164.7	161.5	154.0	140.9	141.6	145.6	143.2	142.5	143.5	144.7	152.4	152.9	153.1	149.2	142.1	133.7	120.8	110.9	101.9	92.17	82.29	77.21	67.89	60.75	53.85	47.55	41.86	36.92	33.86	32.51	27.91	23.57	20.48	17.66	15.63	14.10	13.20	12.35	10.94	9.310	8.232	7.507	8.758	13.39	26.21	136.1	684.9	 1120	292.9	5.714	0.782	0.630	0.459	0.408	0.435	0.219	0.439	0.179	0.429
550.0	-27.94	1.355	55.45	114.0	198.3	249.7	309.1	340.6	304.8	288.8	582.5	 1174	406.0	183.5	169.3	161.0	142.3	140.7	137.4	135.5	127.4	118.1	119.8	119.3	120.9	118.7	118.2	122.0	125.3	128.3	130.3	126.8	120.1	111.5	101.9	95.65	87.49	80.46	73.08	67.10	60.19	52.00	48.20	42.34	37.15	32.62	30.24	27.80	26.05	22.80	19.00	16.80	14.73	13.44	12.25	11.84	10.38	9.230	7.797	6.561	6.154	6.221	8.751	32.75	169.6	570.8	848.6	288.5	24.97	0.776	0.448	0.451	0.152	0.288	0.172	0.141	0.140
555.0	-24.47	-8.280	48.66	101.4	161.2	200.5	256.0	286.8	250.7	229.1	299.1	854.8	785.0	175.2	140.5	132.7	116.6	116.7	114.3	112.8	107.1	100.4	96.87	98.20	97.34	96.22	97.71	100.3	103.4	107.5	106.3	103.3	101.1	95.09	84.64	81.66	74.47	66.39	61.99	57.22	52.31	46.09	41.35	35.79	32.56	28.26	25.56	23.38	21.20	21.13	18.35	15.04	13.73	12.80	11.18	10.35	10.03	9.017	7.199	6.334	5.318	4.843	5.118	9.671	39.75	130.0	313.7	838.2	452.1	29.90	0.656	0.451	0.247	0.135	0.225	0.014	0.014
560.0	-15.10	-4.475	34.81	87.62	130.6	172.9	200.8	240.6	218.8	194.2	202.6	455.9	 1071	265.4	125.6	111.9	102.6	100.5	99.09	97.76	91.51	84.57	80.88	85.15	83.86	81.50	82.87	85.59	87.70	91.76	91.79	88.37	85.41	78.56	74.59	71.31	64.49	57.96	54.20	48.05	45.64	40.21	36.05	31.22	28.40	25.77	23.20	20.81	18.70	18.74	16.85	14.36	12.44	10.83	10.66	9.470	8.580	8.074	6.274	6.087	5.224	4.423	3.723	4.524	10.59	30.64	73.63	400.5	871.9	341.9	13.81	0.722	0.091	0.060	0.102	-0.061	-0.099
565.0	-13.09	-18.99	26.86	70.93	124.1	158.7	170.1	202.0	187.2	169.1	162.5	224.4	989.4	504.5	113.1	98.78	89.47	89.63	85.61	80.02	79.71	71.65	70.24	72.21	70.76	68.41	71.25	73.21	73.53	76.99	77.15	74.61	72.51	67.90	64.02	61.40	56.07	51.35	47.26	42.61	38.93	33.61	31.57	28.17	26.16	23.00	20.43	18.67	17.34	15.71	14.55	13.58	11.92	9.913	9.633	8.577	7.464	6.952	5.774	5.433	4.555	3.923	3.406	3.064	4.127	8.288	18.09	99.02	488.9	784.1	67.83	5.239	0.495	0.151	0.065	-0.116	-0.253
570.0	-21.57	-7.694	28.27	53.88	98.77	115.6	142.9	156.1	162.6	145.0	130.2	134.7	488.9	855.6	205.1	76.30	69.08	68.26	65.92	65.56	63.73	56.11	56.03	56.50	55.44	55.64	57.96	58.66	58.94	60.24	61.35	59.98	57.35	53.85	50.99	49.48	43.83	40.62	37.69	34.39	31.41	28.09	25.76	23.26	21.04	19.11	17.36	15.34	14.36	12.54	11.90	12.09	10.31	8.482	8.033	7.345	6.449	6.106	5.072	4.715	4.123	3.439	2.917	2.540	2.238	3.249	5.176	23.26	119.8	387.4	488.9	252.9	21.12	0.446	0.081	0.050	0.108
575.0	-10.17	-9.964	18.66	43.87	59.52	80.71	95.05	109.6	122.6	110.7	103.6	99.61	174.8	743.5	501.0	69.63	52.10	52.04	51.73	48.79	48.31	45.46	45.46	44.21	40.55	43.77	41.42	44.54	44.91	47.18	46.87	45.24	45.64	40.20	40.11	37.83	33.68	32.39	29.49	27.46	25.26	21.72	20.12	18.31	16.80	14.84	13.80	12.35	11.51	10.05	9.231	9.132	8.819	7.299	6.965	6.211	5.516	4.843	4.186	4.087	3.558	3.049	2.562	2.426	1.913	1.967	2.406	6.172	27.45	87.42	182.8	514.9	330.1	22.98	0.392	0.304	0.020
580.0	-23.14	-3.951	4.289	32.62	55.56	66.90	84.53	91.45	92.37	106.4	91.93	81.65	87.27	385.4	775.0	133.4	42.70	43.25	41.49	39.65	39.00	35.68	35.78	34.69	34.86	35.53	34.73	34.73	35.94	38.99	38.55	38.72	36.79	34.61	31.66	30.44	27.21	26.45	24.63	22.13	20.23	18.80	16.51	15.32	14.06	12.45	11.33	10.55	9.576	8.430	7.831	7.150	7.556	6.147	5.566	5.007	4.575	4.082	3.490	3.216	3.035	2.762	2.250	1.929	1.660	1.542	1.672	2.460	6.759	20.21	43.03	230.7	529.6	215.1	9.482	0.257	0.039
585.0	-30.58	-6.232	3.846	34.85	45.41	62.88	66.75	77.42	91.11	96.16	79.07	73.62	68.74	145.3	791.9	307.8	40.03	35.57	34.97	31.73	31.02	30.38	31.59	29.41	30.17	29.16	28.37	30.07	30.75	32.07	32.20	32.36	29.18	29.05	26.74	25.74	22.43	23.34	20.27	18.58	16.79	15.17	14.31	12.49	11.94	10.25	9.744	8.810	8.145	7.244	6.377	5.986	5.780	5.787	5.663	4.695	3.844	3.650	3.118	2.994	2.697	2.237	1.879	1.715	1.749	1.309	1.241	1.447	2.270	5.169	10.14	56.35	282.9	458.7	62.46	3.367	0.013
590.0	-14.64	-25.47	5.077	23.96	35.91	42.22	52.87	57.61	62.50	72.97	72.63	62.81	56.72	67.33	397.2	579.6	102.3	28.01	28.66	25.07	23.84	23.72	25.03	23.24	23.37	22.82	21.17	23.49	24.18	23.80	24.99	24.45	23.05	22.94	20.86	19.83	17.98	18.30	16.17	14.62	13.00	12.28	11.47	9.295	9.161	8.665	8.114	7.087	6.223	5.819	5.164	4.861	4.573	4.672	4.663	4.043	3.287	3.140	2.787	2.494	2.212	1.932	1.621	1.496	1.444	1.360	0.957	1.113	1.045	1.621	2.794	13.11	68.41	216.3	313.5	163.8	16.96
595.0	-35.21	-23.62	11.36	17.09	33.25	40.32	44.47	47.15	48.46	55.93	68.16	58.64	48.68	43.37	119.5	578.2	328.1	28.04	20.45	20.32	19.10	18.96	18.99	18.44	18.19	17.11	17.13	18.36	19.68	20.00	19.77	19.90	18.14	17.83	16.37	14.47	13.70	13.50	12.91	10.90	10.61	9.490	8.764	8.082	6.881	6.894	6.489	6.012	5.305	4.567	4.016	3.988	3.401	3.498	3.494	3.398	3.218	2.398	2.624	1.960	1.929	1.588	1.242	1.358	1.106	1.105	0.754	0.655	0.743	1.046	1.128	3.342	15.29	48.79	110.3	307.0	198.1
600.0	-20.95	-15.90	1.604	15.84	26.01	28.37	36.59	34.50	43.78	46.39	63.10	56.44	44.43	38.03	51.18	313.2	565.0	66.70	19.84	17.90	15.33	14.84	15.50	14.78	16.30	13.67	15.10	15.48	15.95	15.80	15.48	16.29	15.60	15.12	13.93	12.33	11.54	11.37	10.19	10.50	9.138	8.288	7.096	6.629	5.936	5.715	5.476	5.056	4.167	4.040	3.637	3.284	2.847	2.586	2.886	3.165	3.123	2.333	1.969	1.585	1.308	1.348	1.219	1.108	1.152	0.804	0.755	0.728	0.610	0.607	0.518	0.928	3.505	11.07	25.51	133.7	308.0
605.0	-29.08	-27.68	2.435	8.879	15.03	29.14	31.73	33.31	39.58	43.14	51.62	56.96	43.16	39.39	34.08	107.5	623.9	189.5	16.79	15.54	12.71	13.07	13.13	13.17	11.76	11.42	11.69	12.20	12.98	13.39	13.76	13.51	13.04	12.75	11.68	10.60	10.11	8.602	8.397	8.167	6.857	6.789	6.061	5.949	5.267	4.852	4.514	3.992	3.746	3.589	2.968	3.108	2.559	2.440	2.380	2.377	2.688	2.464	1.604	1.452	1.026	1.576	1.049	0.934	0.893	0.726	0.514	0.318	0.579	0.417	0.378	0.518	0.754	2.780	5.764	32.22	161.6
610.0	-34.39	-17.56	-6.459	12.48	18.56	23.34	29.80	31.85	35.53	45.12	49.67	61.50	52.47	42.98	34.61	47.13	334.8	438.8	59.80	11.93	10.66	11.39	10.25	9.892	9.262	9.636	9.262	9.530	10.20	10.45	10.57	10.72	10.01	9.785	9.483	8.205	7.813	7.475	6.891	6.667	5.331	5.276	4.985	4.363	4.464	3.941	3.703	3.157	2.967	2.857	2.410	2.347	2.022	1.931	1.824	1.895	2.047	1.979	1.583	1.168	1.032	0.864	0.847	0.770	0.883	0.581	0.500	0.436	0.461	0.260	0.270	0.285	0.220	0.734	1.392	7.213	38.96
615.0	-22.77	-21.83	-13.37	11.88	18.50	17.50	24.93	32.15	38.62	39.65	49.22	64.65	62.57	47.72	37.93	33.28	99.80	481.0	239.3	12.03	8.773	8.904	8.118	7.907	8.221	6.685	7.349	7.279	8.350	7.921	8.397	7.936	7.441	7.608	6.899	6.451	6.093	5.904	5.443	5.110	4.483	3.964	3.896	3.519	3.431	2.957	2.943	2.630	2.388	2.058	1.937	1.640	1.613	1.286	1.437	1.237	1.537	1.522	1.288	0.917	0.605	0.791	0.655	0.507	0.637	0.465	0.532	0.379	0.313	0.379	0.135	0.123	-0.009	0.285	0.077	1.670	8.587
620.0	-40.86	-26.76	-11.52	7.768	16.34	18.28	24.67	21.93	38.13	39.81	50.25	57.53	63.38	49.53	38.92	29.35	40.03	282.2	431.8	37.79	8.287	8.065	6.521	6.690	5.791	6.437	6.012	6.504	7.587	6.709	6.900	6.722	6.733	5.846	5.905	5.499	5.204	4.690	4.319	4.118	3.790	3.107	3.432	2.847	2.816	1.986	2.241	2.184	2.085	1.673	1.730	1.452	1.000	1.200	1.337	1.004	1.202	1.374	1.243	0.785	0.570	0.427	0.680	0.188	0.274	0.371	0.293	0.160	0.318	0.211	0.228	0.097	0.196	0.124	0.125	0.511	1.753
625.0	-38.27	-33.87	-2.263	3.301	14.15	19.25	19.62	19.84	28.31	33.59	42.52	55.88	61.03	51.10	39.68	29.25	24.54	103.2	505.7	127.0	5.413	5.824	5.677	5.638	4.710	5.785	5.407	4.793	5.359	5.251	5.758	5.806	5.305	4.619	4.737	4.889	4.510	4.241	3.131	3.010	3.860	3.036	2.472	2.497	2.172	2.065	1.831	1.564	1.570	1.432	1.509	0.957	1.073	0.853	1.391	0.673	1.081	1.063	1.123	0.894	0.691	0.404	0.567	0.285	0.183	0.363	0.157	0.276	0.276	0.167	0.065	0.085	0.027	0.007	0.012	0.280	0.243
630.0	-34.43	-21.90	-1.507	5.091	10.45	14.49	15.14	20.92	29.65	33.22	44.11	48.06	55.98	53.22	38.24	28.55	22.48	37.85	284.3	335.3	31.62	4.445	5.432	4.124	4.618	4.278	4.061	4.487	3.971	4.473	4.408	4.370	4.126	3.636	3.606	3.494	3.484	3.147	2.627	2.536	2.576	2.184	1.951	1.892	1.591	1.646	1.263	1.349	1.416	1.162	0.965	0.790	0.830	0.841	0.758	0.652	0.732	0.819	0.853	0.680	0.522	0.510	0.319	0.306	0.249	0.333	0.236	0.177	0.075	0.197	0.036	-0.029	-0.014	0.026	-0.051	-0.108	-0.049
635.0	-17.73	-26.66	-1.657	3.092	12.52	7.351	16.29	19.13	26.49	32.59	44.13	43.48	50.96	53.99	40.19	28.10	22.43	23.86	76.85	396.9	160.6	5.237	3.956	3.808	3.500	3.225	2.796	3.748	3.343	3.639	3.074	3.345	2.983	3.124	2.456	2.769	2.179	2.274	2.181	1.772	1.971	1.883	1.311	1.390	1.339	1.246	1.019	0.899	1.032	0.814	1.015	0.804	0.599	0.584	0.228	0.766	0.325	0.343	0.343	0.630	0.359	0.281	0.277	0.158	0.167	0.270	0.252	-0.013	-0.040	0.281	0.124	-0.046	0.044	-0.073	-0.040	-0.149	-0.270
640.0	-22.04	-27.35	7.169	9.288	10.13	13.65	21.50	19.05	28.65	30.88	44.89	49.88	51.49	51.37	46.26	29.62	23.54	19.91	25.88	249.9	330.6	19.49	3.097	2.852	3.171	2.336	2.906	3.161	2.922	2.245	2.490	2.819	2.575	2.732	1.585	1.976	2.064	1.866	1.626	1.648	1.295	1.187	1.322	1.128	0.829	0.928	1.040	0.682	0.579	0.763	0.691	0.521	0.443	0.422	0.474	0.433	0.448	0.292	0.261	0.426	0.254	0.336	0.057	0.144	0.016	0.265	-0.021	0.056	0.186	0.011	0.192	-0.187	0.239	0.036	-0.061	-0.197	-0.402
645.0	-34.24	-30.03	-4.857	4.554	13.52	20.56	15.53	19.77	24.15	29.09	37.34	45.23	53.13	50.71	51.25	30.83	24.85	18.57	13.98	90.09	411.4	80.83	3.530	2.912	2.371	2.211	2.464	2.370	2.083	1.986	2.321	2.274	1.516	1.485	2.169	1.250	1.630	1.765	1.467	1.332	0.967	0.855	0.755	1.097	0.715	0.649	0.604	0.801	0.673	0.324	0.413	0.193	0.185	0.366	0.462	0.302	0.316	0.268	0.288	0.258	0.171	0.382	0.079	0.135	0.052	-0.045	-0.014	0.036	0.089	0.042	0.076	-0.152	-0.026	0.072	0.032	-0.348	-0.284
650.0	-20.90	-21.00	1.190	9.263	10.38	13.86	9.423	20.60	24.42	30.20	39.99	47.74	58.96	50.41	51.52	36.16	24.77	20.37	11.74	26.62	325.5	208.5	7.585	2.536	2.164	2.656	2.338	1.894	1.939	1.325	1.893	1.773	1.613	1.697	2.044	1.260	1.078	1.346	1.154	0.971	0.737	0.681	0.629	0.785	0.419	0.443	0.377	0.393	0.481	0.472	0.528	0.516	0.336	0.308	0.328	0.056	0.062	0.129	0.118	0.186	0.004	0.275	0.201	-0.062	0.121	-0.107	-0.073	0.124	0.015	-0.158	0.059	-0.101	-0.005	-0.090	-0.054	-0.240	-0.148
