Sample:	'1
File name:	G2025080806袁家屋子东南闸.FD3
Run date:	'13:22:23, 08/11/2025
Operator:	Administrator
Comment:	'

Instrument
Model:	F-2700 FL Spectrophotometer
Serial number:	23B8-004
ROM Version:	4J14000 07

Instrument parameters
Measurement type:	3-D scan
Data mode:	Fluorescence
EX  Start WL:	220.0 nm
EX  End WL:	600.0 nm
EX Sampling interval:	5.0 nm
EM  Start WL:	230.0 nm
EM  End WL:	650.0 nm
EM Sampling interval:	5.0 nm
Scan speed:	12000 nm/min
EX Slit:	5.0 nm
EM Slit:	5.0 nm
PMT Voltage:	700 V
Response:	Auto 
Corrected spectra:	Off
Contour interval:	50.000

Peak integration
Integration method:	Rectangular
Sensitivity:	1
Threshold:	1.000

Peaks
No.	ApexEX/EM(nm)	Height(Data)
1	225.0/615.0	47.90
2	230.0/350.0	1030
3	230.0/360.0	996.1
4	230.0/585.0	67.96
5	240.0/405.0	1179
6	245.0/410.0	1182
7	245.0/535.0	290.0
8	245.0/615.0	26.67
9	250.0/415.0	1183
10	250.0/545.0	237.1
11	255.0/280.0	617.0
12	255.0/560.0	190.7
13	260.0/285.0	594.1
14	260.0/430.0	1144
15	260.0/570.0	144.0
16	265.0/585.0	126.7
17	270.0/300.0	966.5
18	270.0/595.0	103.5
19	275.0/305.0	1092
20	275.0/610.0	87.34
21	280.0/310.0	976.0
22	280.0/345.0	929.9
23	280.0/625.0	73.12
24	285.0/320.0	961.5
25	285.0/635.0	55.09
26	290.0/325.0	912.0
27	305.0/345.0	674.0
28	310.0/350.0	596.8
29	315.0/355.0	594.9
30	320.0/365.0	618.2
31	505.0/275.0	2.602
32	515.0/280.0	3.131
33	520.0/285.0	3.344
34	520.0/440.0	4.655
35	525.0/435.0	4.540
36	530.0/290.0	3.168
37	540.0/295.0	4.301
38	545.0/300.0	4.458
39	550.0/305.0	4.734
40	560.0/310.0	4.390
41	575.0/315.0	4.519
42	580.0/320.0	4.708
43	585.0/325.0	4.399

Data points
	220.0	225.0	230.0	235.0	240.0	245.0	250.0	255.0	260.0	265.0	270.0	275.0	280.0	285.0	290.0	295.0	300.0	305.0	310.0	315.0	320.0	325.0	330.0	335.0	340.0	345.0	350.0	355.0	360.0	365.0	370.0	375.0	380.0	385.0	390.0	395.0	400.0	405.0	410.0	415.0	420.0	425.0	430.0	435.0	440.0	445.0	450.0	455.0	460.0	465.0	470.0	475.0	480.0	485.0	490.0	495.0	500.0	505.0	510.0	515.0	520.0	525.0	530.0	535.0	540.0	545.0	550.0	555.0	560.0	565.0	570.0	575.0	580.0	585.0	590.0	595.0	600.0
230.0	68.76	1418	4119	1492	68.89	9.829	7.169	5.900	5.372	4.467	4.463	3.826	3.382	2.998	2.796	2.236	1.867	1.769	1.548	1.391	1.294	1.297	1.091	1.029	1.035	0.927	0.876	0.856	0.777	0.807	0.725	0.615	0.645	0.605	0.553	0.526	0.485	0.473	0.420	0.404	0.410	0.531	0.567	0.461	0.370	0.336	1.299	6.574	12.36	9.466	3.838	0.824	0.299	0.239	0.275	0.275	0.278	0.290	0.266	0.276	0.295	0.267	0.290	0.293	0.277	0.276	0.292	0.279	0.225	0.268	0.248	0.279	0.236	0.263	0.274	0.263	0.270
235.0	125.7	391.8	2244	4206	737.9	114.2	10.19	8.330	5.601	5.138	5.470	3.586	3.464	3.215	2.937	2.255	1.864	1.754	1.662	1.439	1.274	1.318	1.010	0.989	0.992	0.955	0.912	0.863	0.743	0.741	0.673	0.742	0.646	0.576	0.502	0.536	0.548	0.466	0.456	0.489	0.366	0.421	0.556	0.605	0.530	0.458	0.582	1.794	4.229	7.749	12.62	14.16	6.933	1.666	0.366	0.277	0.298	0.303	0.266	0.247	0.265	0.243	0.301	0.404	0.255	0.295	0.267	0.261	0.215	0.321	0.236	0.260	0.299	0.293	0.284	0.241	0.281
240.0	171.7	182.7	656.3	3035	4584	613.1	56.30	9.047	7.010	6.447	5.772	4.117	3.802	3.556	2.939	2.511	2.236	1.799	1.603	1.481	1.341	1.408	1.217	1.110	0.993	1.077	0.927	0.948	0.797	0.781	0.700	0.902	0.622	0.520	0.446	0.523	0.489	0.469	0.419	0.466	0.408	0.393	0.414	0.550	0.554	0.640	0.638	0.717	1.176	2.273	5.952	15.03	19.75	15.51	6.455	1.126	0.315	0.319	0.283	0.257	0.239	0.240	0.320	0.291	0.244	0.262	0.255	0.327	0.225	0.239	0.244	0.242	0.272	0.324	0.333	0.257	0.241
245.0	118.9	216.4	234.1	962.4	4324	4516	471.1	27.17	9.139	6.194	5.831	5.226	4.543	3.164	3.142	2.645	1.997	2.021	1.682	1.598	1.180	1.648	1.236	1.180	1.021	1.089	0.904	0.846	0.846	0.751	0.708	0.715	0.725	0.528	0.479	0.566	0.540	0.420	0.406	0.443	0.437	0.437	0.410	0.420	0.446	0.560	0.775	0.920	0.664	0.781	1.592	4.558	11.39	21.70	24.35	14.73	4.756	0.842	0.264	0.316	0.322	0.253	0.267	0.251	0.262	0.283	0.230	0.301	0.249	0.252	0.293	0.236	0.291	0.262	0.271	0.238	0.263
250.0	61.30	141.1	263.0	326.6	1296	3957	5178	1724	122.9	9.403	8.251	6.097	4.961	4.091	3.314	2.843	2.529	2.288	1.971	1.775	1.490	1.453	1.347	1.155	1.184	1.125	0.912	0.905	0.866	0.850	0.761	0.696	0.723	0.525	0.539	0.532	0.576	0.487	0.461	0.428	0.478	0.415	0.393	0.387	0.421	0.416	0.473	0.825	0.900	0.930	0.864	1.368	2.897	6.446	12.21	19.19	25.12	22.58	14.19	5.154	0.808	0.282	0.297	0.250	0.297	0.268	0.291	0.309	0.310	0.286	0.302	0.253	0.261	0.260	0.296	0.239	0.269
255.0	37.49	57.71	158.9	343.7	405.7	963.5	3386	8403	2506	148.7	11.00	8.532	5.964	4.996	4.224	3.223	2.474	2.277	2.101	1.726	1.448	1.409	1.329	1.315	1.208	1.309	1.144	1.000	0.973	1.010	0.794	0.804	0.747	0.574	0.607	0.654	0.522	0.487	0.558	0.396	0.478	0.449	0.427	0.387	0.412	0.411	0.389	0.482	0.546	0.774	1.258	1.440	1.272	1.747	3.018	4.672	7.700	17.18	35.07	32.69	22.88	6.563	0.729	0.315	0.292	0.278	0.321	0.282	0.322	0.327	0.282	0.300	0.269	0.269	0.308	0.243	0.241
260.0	42.72	38.43	61.43	255.8	375.5	294.0	945.1	5660	9677	1981	80.72	10.46	7.287	6.148	5.126	3.934	2.928	2.920	2.335	1.936	1.817	1.588	1.475	1.172	1.197	1.300	1.114	1.063	1.098	0.910	0.787	0.758	0.637	0.700	0.565	0.555	0.494	0.498	0.541	0.432	0.438	0.408	0.468	0.466	0.466	0.404	0.359	0.400	0.362	0.443	0.659	1.458	1.774	1.477	1.007	1.332	2.106	4.475	12.48	27.78	47.48	32.54	19.04	4.100	0.451	0.374	0.377	0.274	0.303	0.332	0.292	0.309	0.270	0.271	0.360	0.255	0.293
265.0	43.66	36.17	38.70	112.0	364.2	295.4	266.0	1698	8158	9999.9	1444	31.65	9.628	8.606	6.234	4.423	3.475	3.021	2.460	2.192	1.692	1.444	1.532	1.342	1.315	1.205	1.068	1.030	1.107	1.034	0.758	0.669	0.738	0.652	0.552	0.588	0.480	0.496	0.479	0.488	0.504	0.438	0.425	0.436	0.447	0.384	0.405	0.378	0.356	0.400	0.367	0.814	1.352	1.981	1.527	0.860	0.810	1.341	3.222	7.545	19.76	38.20	56.31	30.56	14.22	1.674	0.500	0.304	0.345	0.371	0.318	0.368	0.296	0.312	0.385	0.283	0.356
270.0	60.81	60.66	51.15	56.45	164.1	374.2	333.2	447.1	2363	7674	9999.9	3697	88.94	11.87	8.146	5.618	4.452	3.356	2.791	2.270	2.040	1.937	1.662	1.501	1.369	1.429	1.289	1.167	1.146	1.028	0.853	0.925	0.807	0.760	0.662	0.670	0.526	0.591	0.521	0.535	0.623	0.531	0.457	0.482	0.545	0.466	0.472	0.520	0.451	0.381	0.317	0.467	0.596	1.021	1.433	1.833	1.895	1.319	1.160	2.082	4.871	10.09	21.71	33.60	48.47	43.74	20.51	10.23	1.804	0.422	0.376	0.336	0.320	0.325	0.340	0.304	0.347
275.0	133.3	120.3	107.6	68.18	71.79	163.2	484.8	411.9	594.2	1840	5806	9999.9	1669	102.3	11.52	7.230	5.210	4.371	3.396	2.807	2.439	2.242	1.825	1.778	1.354	1.306	1.300	1.114	1.167	0.992	1.018	0.881	0.854	0.863	0.862	0.743	0.617	0.783	0.679	0.543	0.516	0.563	0.512	0.557	0.701	0.696	0.604	0.595	0.560	0.425	0.347	0.517	0.466	0.618	0.628	0.905	1.727	2.602	2.601	1.398	1.583	2.681	5.247	7.955	12.39	22.33	49.53	70.89	31.40	13.66	1.268	0.396	0.405	0.346	0.322	0.308	0.350
280.0	192.2	200.5	166.0	95.64	57.72	83.97	274.0	617.0	331.7	481.2	1570	8244	9999.9	1288	59.95	10.06	7.156	5.182	4.312	3.376	2.344	2.537	2.005	1.794	1.454	1.469	1.294	1.436	1.096	1.107	0.967	0.913	0.881	0.817	0.929	0.766	0.795	0.760	0.645	0.571	0.520	0.635	0.574	0.579	0.806	0.825	0.751	0.852	0.787	0.530	0.421	0.498	0.488	0.458	0.452	0.543	0.859	1.635	2.927	3.131	1.812	1.270	1.674	2.274	3.368	5.611	14.75	36.98	63.58	74.09	26.95	7.172	0.672	0.448	0.380	0.357	0.361
285.0	250.4	276.9	225.3	135.3	68.33	66.70	128.6	466.0	594.1	256.9	453.2	2454	9999.9	9999.9	885.7	22.28	9.102	6.240	4.842	3.797	2.793	2.562	2.490	1.771	1.747	1.564	1.325	1.202	1.379	1.183	1.084	0.969	0.904	0.880	0.972	0.881	0.891	0.842	0.709	0.634	0.573	0.761	0.751	0.663	0.805	0.975	0.959	1.046	0.896	0.645	0.644	0.528	0.478	0.441	0.520	0.524	0.659	0.857	1.566	2.646	3.344	2.397	1.331	1.137	1.419	1.867	3.903	9.311	21.57	51.85	76.73	35.81	20.50	3.159	0.470	0.391	0.345
290.0	303.1	365.6	302.7	192.7	97.92	86.84	103.7	222.4	540.8	560.6	313.0	718.7	2920	8966	9999.9	2882	50.46	9.202	6.198	4.918	3.560	2.928	2.558	2.330	2.003	1.774	1.710	1.309	1.460	1.251	1.110	1.119	0.938	0.902	1.001	0.995	1.025	0.884	0.828	0.792	0.776	0.827	0.877	0.759	0.927	1.136	1.182	1.124	1.118	0.905	0.799	0.636	0.565	0.580	0.546	0.645	0.589	0.665	0.841	1.247	1.841	2.710	3.168	2.800	1.811	1.368	1.738	2.942	5.661	13.00	25.06	35.57	54.37	48.68	40.86	13.40	3.327
295.0	368.9	442.4	380.2	233.6	137.7	115.7	125.4	165.1	288.8	639.0	784.9	403.2	854.6	2206	5897	9999.9	906.6	56.82	9.682	6.487	4.616	3.585	3.310	2.654	2.239	1.910	1.783	1.628	1.534	1.330	1.125	1.146	1.011	0.964	1.002	1.137	1.072	0.910	0.968	0.741	0.807	0.942	0.920	0.934	1.005	1.094	1.263	1.447	1.242	0.996	0.824	0.884	0.750	0.699	0.689	0.634	0.646	0.822	0.820	0.985	1.265	1.515	1.951	3.205	4.301	3.391	2.085	1.751	2.375	3.818	6.571	8.890	13.33	19.41	46.83	75.80	36.98
300.0	398.2	445.4	417.3	268.4	170.5	142.4	153.0	187.8	253.2	446.9	966.5	705.2	476.3	688.3	1602	7900	9999.9	736.8	30.24	8.190	5.396	4.028	3.601	2.948	2.338	2.146	1.852	1.825	1.580	1.152	1.389	1.229	0.971	0.989	1.131	1.058	1.056	0.975	0.912	0.874	0.819	0.909	0.917	0.913	1.031	1.098	1.460	1.409	1.328	0.951	0.986	0.837	0.826	0.853	0.797	0.822	0.986	0.806	0.999	1.024	1.201	1.278	1.459	2.141	3.124	4.458	4.150	2.663	1.951	2.034	2.708	3.019	3.778	5.233	12.93	32.87	61.70
305.0	422.6	469.2	438.8	293.5	191.6	168.6	190.3	218.7	277.7	390.8	745.5	1092	586.2	410.7	519.2	2265	9999.9	6536	528.6	14.25	6.852	5.349	4.499	3.302	2.649	2.148	1.907	1.892	1.657	1.412	1.386	1.209	1.073	1.063	1.227	0.996	0.946	1.164	1.038	0.945	0.842	0.898	0.930	1.109	1.358	1.255	1.409	1.398	1.494	1.171	1.034	0.882	0.951	0.896	0.910	0.906	0.922	1.084	1.064	1.059	1.350	1.310	1.484	1.720	2.070	3.243	4.734	4.659	3.553	2.139	1.989	1.961	2.067	2.053	3.676	8.206	18.94
310.0	437.2	508.0	439.5	303.1	218.0	198.5	224.0	263.3	323.9	417.4	585.6	906.6	976.0	538.9	338.9	637.0	2812	7266	8115	2017	33.54	7.604	5.243	4.050	3.283	2.642	2.098	1.984	1.800	1.529	1.433	1.445	1.191	1.063	1.135	1.168	1.200	1.271	0.984	1.004	0.916	1.012	1.001	1.040	1.158	1.306	1.449	1.492	1.424	1.228	1.225	1.043	1.003	0.980	0.966	1.014	1.013	1.131	1.233	1.287	1.466	1.543	1.692	1.792	2.171	2.421	3.076	3.665	4.390	4.347	3.417	2.341	1.877	1.743	1.813	2.822	5.020
315.0	453.0	510.9	481.5	344.7	244.4	238.2	269.1	309.3	369.4	456.6	589.5	710.4	883.4	933.6	445.2	325.0	748.1	1751	5097	9999.9	624.2	35.57	7.456	5.393	3.817	3.138	2.381	2.358	1.952	1.824	1.583	1.402	1.273	1.187	0.932	1.223	1.116	1.302	1.090	1.083	1.080	0.993	0.984	1.169	1.060	1.340	1.518	1.597	1.385	1.367	1.172	1.175	1.223	1.137	1.044	1.027	1.242	1.311	1.384	1.361	1.587	1.642	1.929	2.130	2.280	2.301	2.663	2.844	3.097	3.664	4.437	4.519	3.266	2.175	1.729	1.794	2.125
320.0	477.5	574.6	540.7	392.6	299.6	265.0	295.0	346.7	418.5	502.5	638.5	709.1	763.7	961.5	728.6	328.7	335.2	501.9	1363	7185	9299	518.4	18.95	6.959	5.249	3.715	2.812	2.732	2.348	2.168	1.609	1.445	1.471	1.292	1.219	1.154	1.342	1.222	1.140	1.057	1.011	1.061	1.054	1.148	1.250	1.361	1.562	2.026	1.658	1.450	1.366	1.442	1.320	1.283	1.159	1.178	1.380	1.416	1.499	1.515	1.776	1.869	2.086	2.271	2.264	2.631	2.732	2.563	2.992	3.123	3.374	3.968	4.708	3.535	2.468	1.717	1.583
325.0	530.9	680.8	671.6	482.2	351.1	311.0	326.4	388.5	454.5	558.2	679.0	737.8	752.2	800.3	912.0	494.9	285.2	251.8	398.0	2061	8605	4703	73.18	11.10	6.136	4.396	3.122	2.999	2.382	2.232	1.748	1.423	1.391	1.233	1.296	1.101	1.285	1.235	1.274	1.245	1.145	1.143	1.193	1.300	1.393	1.594	1.798	2.308	1.837	1.687	1.537	1.657	1.368	1.341	1.274	1.341	1.526	1.725	1.697	1.557	2.020	2.120	2.124	2.272	2.654	2.746	2.793	2.781	2.958	3.072	3.206	3.333	3.762	4.399	4.040	2.444	1.850
330.0	615.1	787.4	821.4	629.6	462.6	391.4	385.6	433.9	508.6	613.7	732.9	803.3	808.8	757.5	774.0	735.3	454.1	253.1	221.0	556.2	2437	5837	6349	1549	26.11	6.402	4.217	3.484	2.714	2.379	2.127	1.718	1.395	1.377	1.206	1.277	1.297	1.209	1.197	1.152	1.228	1.200	1.194	1.346	1.491	1.771	1.853	2.436	2.357	2.070	1.813	2.046	1.834	1.831	1.468	1.631	1.792	1.887	1.891	1.717	2.025	2.256	2.453	2.527	2.721	2.944	3.006	2.907	3.348	3.336	3.331	3.175	3.400	3.466	3.863	3.886	3.547
335.0	631.8	887.1	931.8	767.8	612.2	508.0	473.0	493.1	566.7	677.3	798.6	862.4	878.9	810.7	719.0	677.6	713.2	418.1	239.2	263.0	634.2	1412	4449	9031	496.1	28.95	6.269	4.818	3.611	2.627	2.387	1.946	1.691	1.614	1.493	1.444	1.410	1.129	1.230	1.146	1.202	1.224	1.286	1.504	1.550	2.045	2.130	2.522	2.665	2.271	2.196	2.327	2.307	2.289	1.884	1.823	1.943	2.064	2.108	2.138	2.258	2.402	2.742	2.694	3.055	3.143	3.184	3.283	3.480	3.683	3.704	3.484	3.185	3.501	3.438	3.181	3.470
340.0	675.3	946.6	1002	849.8	673.7	579.2	508.1	529.0	606.1	714.2	836.8	887.1	905.5	860.1	749.9	634.7	690.0	611.3	315.8	228.4	258.6	395.1	1205	6417	7775	428.2	14.80	5.681	4.506	3.103	2.866	2.205	1.819	1.689	1.425	1.519	1.368	1.384	1.276	1.193	1.243	1.385	1.334	1.393	1.754	1.975	2.077	2.453	2.861	2.491	2.421	2.494	2.517	2.340	2.082	1.979	2.163	2.200	2.431	2.392	2.417	2.477	2.737	2.876	3.028	3.304	3.358	3.488	3.447	3.588	3.860	3.635	3.461	3.307	3.292	3.203	3.059
345.0	692.9	952.2	1023	884.5	752.6	625.5	556.1	578.2	629.8	747.1	833.4	907.6	929.9	876.7	767.5	644.5	598.4	674.0	470.6	264.3	204.5	193.2	346.6	1875	7519	3852	61.13	8.974	5.308	3.786	2.829	2.217	2.080	1.642	1.550	1.505	1.474	1.282	1.211	1.156	1.393	1.385	1.392	1.241	1.713	2.054	2.150	2.682	2.859	2.570	2.569	2.714	2.599	2.589	2.015	2.081	2.332	2.113	2.461	2.482	2.423	2.722	2.811	2.877	3.098	3.150	3.568	3.720	3.575	3.849	3.586	3.706	3.364	3.433	3.248	3.235	3.133
350.0	670.3	914.7	1030	931.5	809.6	690.9	615.4	628.4	679.7	761.8	842.7	906.8	920.1	884.5	797.9	678.7	594.6	583.7	596.8	436.6	262.1	200.4	197.9	505.8	2174	5012	5028	1263	22.24	5.494	3.802	2.733	2.243	1.749	1.585	1.533	1.407	1.365	1.201	1.229	1.306	1.352	1.370	1.435	1.625	1.956	2.030	2.599	2.871	2.658	2.629	2.894	2.753	2.659	2.505	2.481	2.592	2.447	2.525	2.629	2.705	2.848	2.773	3.139	3.111	3.217	3.472	3.589	3.687	3.751	3.657	3.857	3.613	3.509	3.421	3.421	3.391
355.0	667.7	900.5	983.1	978.9	852.3	760.4	696.3	697.2	735.0	793.8	866.9	914.9	918.9	900.5	820.5	720.5	643.2	582.1	552.0	594.9	421.6	272.2	219.8	242.5	577.1	1229	3585	6951	442.8	24.90	5.376	3.599	2.388	2.188	1.829	1.585	1.575	1.542	1.423	1.249	1.358	1.444	1.473	1.578	1.670	2.038	2.267	2.614	2.857	2.496	2.759	3.133	2.891	2.874	2.603	2.594	2.760	2.892	2.823	2.851	3.035	3.026	3.121	3.305	3.176	3.294	3.232	3.619	3.597	3.684	3.892	3.737	3.773	3.941	3.680	3.677	3.654
360.0	676.2	892.5	996.1	974.1	888.0	808.6	752.8	753.9	775.5	824.7	875.5	927.7	928.4	913.4	835.0	752.3	678.2	610.3	558.4	584.3	578.4	369.5	267.1	224.0	253.8	361.7	989.4	5150	6231	379.6	12.82	4.769	3.258	2.346	2.050	1.717	1.534	1.559	1.326	1.173	1.344	1.381	1.350	1.397	1.617	1.955	2.268	2.667	2.755	2.534	2.652	3.189	3.014	2.973	2.889	2.790	2.965	2.911	2.941	3.135	3.211	3.383	3.539	3.363	3.220	3.524	3.292	3.830	3.538	3.855	3.622	3.471	3.745	3.786	3.464	3.632	3.720
365.0	652.4	855.8	995.8	977.6	953.5	842.7	807.0	795.2	811.5	847.8	910.1	922.6	934.8	907.6	850.1	776.9	714.9	655.7	602.2	565.4	618.2	519.9	339.8	262.0	217.0	197.9	302.5	1537	6228	3481	55.54	8.199	4.549	2.912	2.318	2.066	1.709	1.559	1.513	1.243	1.296	1.232	1.313	1.468	1.734	1.891	2.160	2.515	2.554	2.625	2.686	3.347	3.040	3.037	2.985	2.987	3.050	3.153	3.235	3.279	3.146	3.404	3.559	3.417	3.459	3.605	3.519	3.655	3.685	3.608	3.640	3.511	4.061	3.702	3.472	3.632	3.838
370.0	654.3	867.6	992.0	1013	979.8	914.8	860.5	854.9	865.8	901.4	935.0	946.5	934.1	922.1	864.4	808.2	762.4	711.3	665.4	613.1	596.0	613.0	512.5	355.9	271.2	214.7	191.4	428.8	1823	4435	4620	1115	19.17	4.605	3.156	2.367	1.883	1.676	1.554	1.380	1.467	1.365	1.398	1.573	1.729	1.993	2.116	2.519	2.702	2.540	2.622	3.595	3.271	3.317	3.313	3.190	3.271	3.261	3.382	3.478	3.486	3.543	3.613	3.521	3.678	3.630	3.683	3.692	3.726	3.566	3.787	3.701	3.716	4.000	3.650	3.817	3.891
375.0	644.4	873.3	1017	1044	1003	978.1	924.1	921.8	912.6	936.5	953.1	963.8	961.7	925.8	873.8	828.6	788.6	764.5	726.1	677.3	638.0	610.5	627.8	515.3	357.1	279.1	216.9	221.3	493.9	1098	3394	6090	374.6	21.03	4.605	3.170	2.163	1.919	1.802	1.564	1.618	1.448	1.418	1.549	1.719	2.071	2.124	2.688	2.770	2.502	2.817	3.646	3.453	3.476	3.536	3.436	3.665	3.342	3.419	3.594	3.472	3.718	3.607	3.641	3.664	3.639	3.830	3.739	3.645	4.087	3.874	3.750	3.698	3.981	3.858	4.029	4.137
380.0	678.4	853.8	998.1	1080	1050	1016	964.7	956.7	950.5	954.9	976.6	972.3	964.9	928.3	883.8	841.7	819.7	795.4	762.6	724.9	679.1	632.8	627.6	621.8	458.1	334.1	258.8	208.5	226.2	325.0	943.4	4554	5175	306.8	11.19	4.127	3.030	2.284	1.960	1.670	1.647	1.595	1.603	1.561	1.830	2.103	2.218	2.595	2.599	2.626	2.803	3.711	3.473	3.608	3.671	3.554	3.925	3.589	3.628	3.540	3.495	3.965	3.564	3.613	3.693	3.764	3.910	3.976	3.591	4.042	4.075	4.190	4.014	4.024	3.960	4.218	4.038
385.0	651.5	895.0	1030	1079	1102	1051	1010	993.9	977.7	984.5	994.8	993.4	976.0	943.2	889.2	854.6	837.1	818.9	790.5	767.5	720.8	670.6	633.4	641.2	574.4	406.0	306.0	239.7	196.4	176.6	283.5	1353	5091	2861	44.82	7.033	3.932	2.803	2.202	1.854	1.557	1.744	1.647	1.613	1.825	2.001	2.185	2.563	2.803	2.652	2.785	3.573	3.573	3.772	3.573	3.559	4.181	3.857	3.608	3.701	3.555	3.802	3.874	3.932	3.717	3.890	3.870	3.851	3.599	3.988	3.857	4.148	4.041	4.093	4.093	4.064	3.949
390.0	675.9	904.1	1053	1120	1130	1077	1063	1034	1022	1017	1023	1007	983.8	942.0	909.5	871.0	857.2	844.5	817.8	796.1	760.6	716.9	673.1	637.4	627.5	545.0	395.2	305.6	241.6	191.2	171.5	375.1	1469	3383	3482	896.2	16.43	4.189	2.889	2.344	1.778	1.805	1.806	1.769	2.071	2.051	2.117	2.658	2.741	2.800	3.024	3.777	3.759	3.814	3.925	3.779	3.929	4.021	3.859	3.940	3.736	3.937	3.977	4.051	3.695	3.902	3.929	3.800	3.779	3.768	3.928	3.997	4.050	4.168	4.131	4.201	4.142
395.0	701.8	888.1	1088	1145	1160	1124	1088	1080	1058	1051	1054	1021	1006	961.7	918.1	883.5	866.6	861.5	844.4	824.2	797.3	757.9	718.1	675.9	631.0	614.3	528.9	387.2	310.6	247.1	188.9	190.6	399.1	836.5	2389	4594	312.6	19.05	4.412	2.920	2.507	1.933	1.903	1.827	1.993	2.200	2.262	2.650	2.953	2.868	2.915	3.771	3.874	3.844	4.096	4.158	4.072	4.238	4.033	4.057	3.992	4.227	3.930	4.031	3.828	3.962	4.064	3.763	3.852	3.920	3.946	4.121	4.102	4.423	4.261	4.131	4.176
400.0	712.6	945.2	1078	1146	1161	1156	1127	1110	1079	1080	1063	1043	1018	982.2	925.8	885.0	870.1	870.3	853.1	835.4	811.4	789.2	747.4	704.9	652.0	620.1	605.1	483.4	364.7	293.1	225.2	175.1	179.9	250.6	656.9	3218	3937	271.3	10.88	3.752	2.714	2.161	2.056	2.071	1.892	2.270	2.309	2.725	3.019	2.940	2.923	3.752	3.925	3.937	4.342	3.950	4.255	4.322	4.311	4.282	4.312	4.210	3.895	4.183	3.798	4.165	4.007	3.708	3.896	4.252	4.116	3.959	4.226	4.219	4.339	4.066	4.588
405.0	703.6	926.7	1081	1139	1179	1179	1151	1130	1109	1096	1092	1067	1026	990.1	929.7	886.0	871.7	866.1	856.4	839.3	818.3	794.9	772.7	727.2	677.9	632.0	614.7	575.5	430.9	341.2	269.0	199.5	154.6	136.5	204.9	929.0	3600	2439	39.89	6.577	3.474	2.679	2.318	2.256	1.981	2.216	2.411	2.747	3.150	2.865	3.078	4.060	3.956	4.257	4.119	4.242	4.059	4.368	4.238	4.454	4.475	4.330	4.492	4.278	3.988	4.331	3.818	3.881	4.140	4.396	4.150	3.980	4.176	3.987	4.225	4.135	4.422
410.0	715.4	930.1	1072	1135	1167	1182	1181	1149	1133	1124	1112	1077	1025	984.5	918.4	875.6	856.7	849.5	848.3	833.7	819.6	804.3	785.0	748.3	701.9	654.1	614.5	595.5	533.7	414.1	318.9	242.5	180.8	136.8	121.2	260.3	1015	2478	2706	800.9	15.18	3.528	2.784	2.358	2.232	2.288	2.411	2.834	3.035	2.944	3.131	3.875	3.971	4.235	4.176	4.092	4.359	4.543	4.331	4.353	4.300	4.534	4.511	4.408	4.218	4.211	3.840	3.935	4.007	4.020	4.061	4.069	3.934	3.980	4.051	4.115	4.477
415.0	694.9	900.4	1063	1120	1164	1173	1183	1173	1139	1118	1111	1051	1025	963.8	904.0	857.5	835.4	831.6	826.6	812.9	808.4	790.5	772.7	744.8	718.7	667.9	626.6	580.2	562.7	503.6	376.5	282.7	213.7	162.0	122.3	125.8	272.3	600.7	1638	3420	288.1	17.97	3.770	2.859	2.728	2.565	2.512	2.885	2.903	2.943	2.962	3.814	3.592	4.218	3.966	4.103	4.395	4.353	4.485	4.306	4.395	4.469	4.460	4.380	4.002	4.230	3.832	3.832	3.890	3.882	4.008	3.920	4.122	4.004	3.948	3.992	4.163
420.0	672.7	875.7	1054	1106	1129	1155	1174	1159	1146	1128	1103	1058	1004	947.8	881.3	835.9	809.7	804.7	794.7	787.7	784.3	775.4	758.0	738.0	712.9	670.0	628.7	581.7	550.1	534.5	430.2	312.6	236.3	180.8	135.2	106.1	115.7	170.8	435.0	2189	3018	256.2	10.35	3.578	2.838	2.722	2.787	3.012	2.914	2.817	3.009	3.734	4.042	4.145	4.179	4.272	4.521	4.411	4.518	4.105	4.200	4.099	4.407	4.645	4.101	4.245	4.024	3.916	3.931	3.960	3.952	3.753	4.158	4.116	3.829	4.080	4.208
425.0	685.2	893.3	1032	1102	1103	1157	1153	1154	1139	1132	1092	1049	985.6	929.5	864.8	813.6	785.5	781.1	773.5	773.8	762.0	752.9	740.5	728.5	699.5	667.8	632.9	583.5	549.3	525.1	476.2	351.4	261.2	198.5	152.1	112.8	89.90	82.58	128.5	607.6	2471	2217	200.7	6.323	3.647	2.943	2.807	3.190	2.832	2.988	3.128	3.691	3.842	4.119	4.088	4.101	4.285	4.417	4.525	4.252	4.121	4.401	4.406	4.446	4.334	3.937	4.130	3.711	3.780	3.899	3.924	3.600	4.053	3.924	3.822	3.812	3.973
430.0	919.6	847.8	979.8	1073	1109	1132	1144	1138	1144	1131	1098	1046	970.4	903.7	841.1	788.3	760.0	747.8	740.7	741.0	731.3	726.6	722.3	710.3	686.9	659.2	627.5	589.5	552.6	509.9	475.6	409.9	303.3	224.7	175.9	132.5	99.26	76.37	69.21	164.6	669.0	1778	2244	759.1	15.78	3.856	3.150	3.199	3.092	2.999	3.098	3.648	3.743	3.945	4.065	4.027	4.218	4.316	4.445	4.300	4.354	4.352	4.267	4.254	4.160	4.160	3.958	3.779	3.957	3.881	3.728	3.474	3.698	3.680	3.724	3.875	3.948
435.0	1585	872.8	971.1	1031	1086	1116	1145	1141	1136	1115	1102	1025	953.6	879.8	815.2	757.9	731.1	717.2	711.3	706.5	700.0	692.3	690.4	688.8	665.9	648.1	625.8	588.2	556.1	510.9	459.9	416.6	354.2	263.1	200.8	152.7	117.7	89.00	68.04	75.36	177.4	423.9	1152	2857	1127	20.56	4.063	3.706	3.337	2.966	2.997	3.663	3.725	3.848	4.190	3.911	4.407	4.398	4.275	4.371	4.393	4.540	4.273	4.103	4.201	4.060	3.762	3.743	3.511	3.507	3.819	3.528	3.597	3.582	3.381	3.801	3.800
440.0	2133	1075	944.8	1012	1059	1079	1111	1122	1118	1117	1081	1014	931.6	864.5	789.4	730.7	701.1	683.3	685.9	679.6	671.3	661.5	661.7	659.4	650.6	633.8	606.7	584.8	552.8	516.9	457.7	405.9	369.1	297.7	217.4	168.0	130.7	98.90	74.79	62.02	73.05	119.0	299.3	1652	2919	254.1	13.93	4.407	3.474	3.200	3.099	3.506	3.544	3.764	3.816	3.950	4.218	4.189	4.318	4.252	4.655	4.412	4.201	4.143	4.476	3.921	3.901	3.864	3.480	3.425	3.678	3.637	3.674	3.538	3.293	3.567	3.466
445.0	2179	1740	916.4	963.8	1012	1057	1079	1106	1113	1078	1062	996.4	907.8	841.9	764.1	710.4	670.1	657.6	655.7	648.9	645.4	633.9	631.4	632.4	629.0	611.5	589.8	569.8	540.8	510.7	455.1	401.3	355.4	319.7	239.4	180.1	140.8	110.1	85.29	66.63	55.86	56.24	90.21	442.3	2034	2079	198.2	9.009	3.905	3.359	3.115	3.769	3.445	3.866	3.814	3.898	4.061	4.233	4.116	4.289	4.302	4.471	3.992	4.218	4.102	3.858	3.728	3.627	3.631	3.768	3.523	3.568	3.351	3.412	3.387	3.430	3.538
450.0	1358	2639	1229	924.8	960.1	1003	1037	1061	1055	1041	1010	963.4	871.1	795.7	725.4	669.2	629.5	615.2	604.5	597.0	593.5	586.5	591.1	588.9	585.8	575.8	557.7	539.8	518.2	491.6	442.1	390.5	336.8	305.2	263.8	200.4	153.3	121.0	95.24	74.64	59.74	49.60	47.72	120.5	532.3	1491	1958	751.1	15.21	4.131	3.507	3.681	3.634	3.746	3.721	3.814	4.093	3.802	4.095	4.105	4.142	4.298	4.009	4.089	3.970	3.875	3.667	3.826	3.526	3.447	3.518	3.530	3.365	3.163	3.145	3.365	3.215
455.0	712.9	2399	2551	920.1	920.0	949.6	972.7	1005	988.8	990.2	960.2	916.4	822.2	751.6	665.3	619.0	583.6	569.3	555.0	548.9	546.6	538.5	540.5	537.0	533.1	526.7	518.0	501.8	483.5	465.1	422.7	375.8	323.6	284.0	256.4	224.6	170.1	130.2	105.5	83.68	67.65	54.26	44.08	52.73	138.5	351.4	837.7	2318	1041	18.82	4.282	3.864	3.564	3.519	3.581	3.653	4.120	3.785	3.832	3.990	4.197	4.057	4.020	3.719	3.872	3.878	3.710	3.352	3.317	3.278	3.420	3.064	3.068	3.222	2.968	3.011	2.836
460.0	515.6	1468	3402	1132	854.8	880.2	909.3	928.9	945.0	937.3	914.1	855.8	781.1	709.6	629.6	581.2	547.4	526.3	517.8	512.8	500.7	495.1	498.9	499.0	494.8	492.7	479.7	472.5	457.5	441.0	405.4	364.7	314.2	272.0	238.3	226.0	185.9	138.1	110.0	89.35	72.40	57.52	47.08	40.27	53.45	96.20	210.6	1155	2297	197.1	14.87	4.601	3.785	3.732	3.456	3.432	3.764	3.774	3.596	3.863	4.077	3.740	3.823	3.752	3.780	3.390	3.425	3.167	3.136	2.922	3.248	2.807	3.023	2.827	3.056	2.763	2.679
465.0	444.3	835.9	3165	2157	806.6	829.3	870.9	894.3	897.8	895.2	869.0	807.2	737.6	672.1	601.1	541.7	507.3	493.5	483.1	471.6	462.2	461.5	466.2	461.1	460.3	460.8	450.1	442.6	433.0	417.5	386.8	347.1	303.3	266.3	227.5	209.7	191.6	148.0	113.8	92.21	76.51	61.78	49.83	40.17	37.51	40.65	62.79	297.8	1428	1581	181.0	11.17	4.341	3.834	3.516	3.457	3.706	3.573	3.537	3.646	3.811	3.471	3.629	3.479	3.890	3.229	3.201	3.025	3.022	2.925	3.092	2.765	2.852	2.648	2.630	2.733	2.744
470.0	448.3	583.8	1781	3340	1191	762.5	794.0	815.8	820.9	824.0	794.2	751.8	681.4	611.1	544.1	493.5	464.6	443.7	434.9	421.9	417.3	413.1	414.1	413.7	413.2	411.0	403.6	400.8	392.5	381.2	355.6	323.0	284.4	250.3	216.0	192.0	176.0	156.1	123.0	96.53	80.09	64.79	53.48	44.20	36.79	32.06	31.83	81.26	363.5	995.1	1376	702.7	16.19	4.456	3.737	3.253	3.434	3.501	3.459	3.382	3.419	3.499	3.184	3.183	3.294	3.148	3.070	2.702	2.776	2.764	2.772	2.575	2.666	2.495	2.675	2.486	2.474
475.0	447.9	507.6	852.5	2722	2633	741.0	718.0	748.8	756.6	732.4	726.8	679.6	620.5	554.7	495.8	447.0	416.5	398.0	383.8	379.3	371.1	366.2	362.7	366.8	368.7	364.1	359.7	358.0	356.4	344.8	324.7	297.1	264.0	233.5	203.1	180.9	157.7	147.5	133.6	101.6	82.71	67.45	57.12	47.43	38.79	32.39	27.77	33.96	93.56	233.4	518.6	1492	819.4	22.03	4.195	3.224	3.469	3.270	3.174	3.077	3.173	3.011	3.180	2.981	3.050	2.975	2.917	2.613	2.587	2.592	2.398	2.445	2.278	2.297	2.484	2.269	2.369
480.0	412.4	459.7	594.1	1614	3626	1050	667.3	702.8	702.6	706.7	684.3	637.1	580.1	520.1	463.3	413.9	388.8	365.6	356.1	346.4	338.3	335.7	335.7	336.4	338.8	334.8	330.7	328.9	328.3	322.1	303.9	277.7	250.8	222.1	195.0	171.8	149.5	135.6	131.3	110.4	85.10	69.69	58.37	49.97	41.08	33.40	27.91	25.21	34.72	63.37	128.4	668.3	1631	235.7	15.82	3.669	3.281	3.131	3.178	3.055	2.730	2.828	2.864	2.952	2.669	2.819	2.656	2.475	2.432	2.464	2.247	2.494	2.187	2.157	2.231	2.366	2.096
485.0	371.4	469.9	513.2	878.7	3390	1959	639.7	658.9	663.0	657.0	650.4	603.8	548.8	491.0	432.3	390.8	366.3	346.1	333.9	321.8	318.0	311.6	310.9	310.9	311.9	311.7	309.4	308.4	307.6	300.0	285.0	262.9	237.6	212.2	187.6	164.6	143.8	129.4	122.2	115.1	90.88	71.77	60.47	50.81	43.53	35.37	29.75	24.62	22.81	26.02	38.52	170.7	930.6	1456	203.7	9.996	3.696	3.332	2.806	2.874	2.895	2.691	2.590	2.821	2.770	2.827	2.580	2.298	2.472	2.332	2.208	2.356	2.197	2.138	2.275	2.141	2.148
490.0	304.8	458.4	472.3	584.6	1843	3268	986.7	603.6	616.0	611.4	595.5	562.0	511.9	451.8	401.6	361.9	339.2	318.0	306.3	296.0	289.6	285.1	282.9	282.4	283.5	282.0	280.4	280.5	280.8	277.9	264.2	244.1	221.8	199.4	176.5	156.5	138.6	123.5	111.1	105.7	97.03	77.86	62.13	53.41	45.20	37.73	32.08	26.61	22.03	19.67	19.49	47.70	232.7	742.0	1238	666.0	17.89	3.988	3.172	2.709	2.848	2.620	2.684	2.706	2.502	2.512	2.511	2.414	2.323	2.144	2.129	2.061	1.942	1.922	1.911	1.851	1.928
495.0	265.6	401.4	478.4	471.6	807.8	2832	2341	585.6	550.3	557.3	542.3	509.4	465.5	412.6	364.9	325.2	303.3	284.9	277.1	264.4	259.2	253.9	253.4	248.0	252.3	255.2	252.1	250.5	250.8	248.5	238.9	221.2	203.3	182.0	162.8	147.1	131.7	117.0	103.8	94.67	91.12	83.67	65.00	53.56	46.35	38.87	33.76	28.43	23.56	19.59	16.47	20.91	60.57	173.1	453.2	1347	896.4	25.01	3.872	2.894	2.745	2.438	2.506	2.510	2.336	2.279	2.286	2.098	2.111	2.026	2.063	1.974	1.848	1.847	1.837	1.730	1.716
500.0	244.2	336.2	460.6	427.0	514.4	1651	3395	791.3	511.6	522.7	504.5	484.3	427.7	381.4	335.2	302.7	278.1	260.6	251.0	242.4	236.6	232.2	227.2	229.5	230.1	230.1	230.3	227.5	229.6	227.4	219.8	205.7	189.0	169.9	152.0	136.9	124.4	109.7	98.25	88.04	82.38	80.90	69.28	55.22	46.99	39.43	34.11	29.05	24.80	20.01	16.52	15.45	22.80	46.53	110.4	571.4	1518	255.6	18.44	3.082	2.737	2.490	2.461	2.309	2.177	2.159	2.188	2.110	1.933	1.889	1.865	1.782	1.736	1.921	1.922	1.564	1.535
505.0	221.0	273.3	439.8	420.2	414.3	827.6	3337	1544	482.3	482.9	470.0	443.0	402.1	351.6	311.8	281.2	258.7	237.9	229.8	222.2	217.2	211.2	207.5	209.1	208.1	210.8	209.8	208.4	209.1	206.6	202.2	188.7	172.2	157.7	142.8	130.9	115.2	105.0	94.37	82.94	76.41	73.97	70.64	56.72	45.66	39.55	34.48	29.59	25.25	21.19	17.41	14.73	14.45	18.41	31.49	142.0	779.2	1344	227.5	11.06	2.789	2.578	2.496	2.309	1.996	1.998	2.089	2.038	1.811	1.727	1.877	1.598	1.660	1.555	1.669	1.541	1.562
510.0	194.0	260.1	347.3	410.6	373.8	477.8	1835	2976	709.3	435.3	420.1	396.6	358.7	317.9	278.2	246.1	228.5	212.7	204.2	193.5	190.6	186.2	183.5	184.9	184.2	183.6	182.3	182.8	184.4	184.8	178.8	167.6	152.2	141.8	127.6	117.6	104.9	96.16	86.07	76.52	69.96	65.22	64.04	58.71	48.33	39.26	33.78	29.29	24.71	20.90	18.14	14.93	12.83	12.43	14.22	37.92	191.3	624.7	996.3	553.9	17.79	2.865	2.487	2.272	1.900	1.872	1.856	1.773	1.683	1.678	1.740	1.475	1.526	1.481	1.459	1.505	1.468
515.0	160.5	232.8	289.9	373.4	352.8	358.6	720.2	2865	1872	405.7	374.7	348.6	318.5	274.9	245.7	218.9	200.8	190.2	178.1	169.8	165.1	162.2	158.5	161.1	158.8	158.2	160.2	158.3	161.5	161.4	155.4	146.9	136.9	124.6	113.3	103.6	93.46	86.12	79.08	69.76	63.59	58.71	54.29	54.20	50.14	39.99	33.48	27.96	24.59	20.67	18.18	15.66	12.75	11.65	10.80	14.75	48.53	144.8	330.7	998.4	708.0	24.73	2.768	2.238	1.768	1.775	1.778	1.562	1.613	1.586	1.466	1.379	1.425	1.277	1.289	1.296	1.355
520.0	171.7	205.3	248.6	331.7	342.8	308.0	401.7	1714	3118	541.1	336.4	320.3	288.8	252.3	224.5	199.8	182.2	170.3	163.9	152.2	150.4	145.6	142.1	143.4	141.9	140.7	141.8	140.4	146.6	144.7	141.1	133.7	121.3	112.9	102.9	93.18	86.31	79.10	72.21	64.76	59.61	54.53	48.80	47.77	49.06	41.64	32.70	27.39	23.93	20.39	17.70	15.33	13.54	11.33	10.04	9.703	16.32	37.57	79.75	405.8	1091	255.3	17.54	2.403	1.988	1.566	1.712	1.488	1.373	1.537	1.333	1.445	1.280	1.231	1.222	1.197	1.232
525.0	136.1	178.8	213.9	274.6	349.5	289.2	308.7	787.1	3416	1198	315.6	288.1	261.0	230.3	206.7	182.5	166.7	154.2	147.0	138.8	134.8	129.0	126.6	127.5	128.4	127.1	126.1	128.0	130.8	130.3	127.2	120.1	110.2	102.7	94.00	87.58	79.11	72.86	66.57	60.82	55.36	50.48	45.17	42.30	43.62	42.11	33.05	26.42	23.24	20.12	17.58	15.07	13.27	11.78	9.900	9.030	9.520	13.13	22.19	99.36	524.1	962.4	222.8	8.458	2.042	1.720	1.529	1.535	1.443	1.335	1.239	1.156	1.200	1.097	1.233	1.201	1.149
530.0	126.3	162.3	192.2	211.8	304.6	287.8	263.2	379.3	1963	2729	479.7	253.4	228.6	205.6	179.4	158.3	146.3	136.5	128.8	122.0	117.8	114.5	112.4	111.9	112.0	110.8	109.8	112.3	112.6	113.4	110.5	105.4	97.57	89.84	83.36	76.39	70.75	63.99	58.73	54.38	49.84	45.01	41.50	38.61	36.59	37.80	34.22	26.81	21.96	18.94	16.75	14.48	12.75	11.51	10.19	8.727	8.089	8.058	9.307	25.96	127.6	428.2	700.6	349.1	16.54	2.070	1.488	1.444	1.241	1.289	1.190	1.081	1.059	1.076	1.024	1.082	1.028
535.0	110.4	133.4	161.0	177.5	232.2	290.0	231.4	260.8	683.5	2882	1487	231.3	196.0	176.2	155.0	136.9	127.7	120.4	110.2	105.8	101.5	97.33	96.06	98.42	95.41	95.27	94.58	96.12	95.73	96.83	93.83	89.71	83.97	78.36	71.60	66.15	61.02	55.48	52.11	47.57	44.02	40.16	37.00	34.21	31.97	30.31	31.51	27.32	21.27	17.67	15.42	13.34	12.06	10.69	10.07	8.839	7.537	6.827	6.382	9.553	31.69	98.48	222.6	674.5	264.3	22.83	1.824	1.466	1.163	1.180	1.026	0.926	1.079	0.915	1.062	0.907	0.882
540.0	91.50	128.2	148.1	158.3	181.2	278.1	226.8	213.0	315.5	1732	2521	277.4	175.5	156.3	138.1	121.5	112.6	106.5	98.07	92.80	88.01	88.69	86.31	84.92	86.28	84.41	82.89	84.97	85.47	85.02	84.14	78.73	74.64	68.47	64.09	58.94	53.97	49.78	47.04	42.81	39.31	36.92	33.31	31.27	28.56	26.61	27.66	26.75	22.38	17.24	14.74	12.50	11.47	9.981	9.291	9.136	7.701	6.526	5.961	5.811	10.50	24.81	53.13	262.7	684.2	247.1	15.30	1.486	1.325	1.131	1.156	0.896	0.980	0.897	0.956	0.785	0.872
545.0	103.7	118.1	139.2	151.1	163.6	226.8	237.1	181.8	213.5	724.3	3141	762.8	161.2	137.5	125.4	110.0	96.92	94.22	85.09	84.45	79.67	77.18	75.80	73.84	73.97	75.22	74.04	74.31	76.07	75.14	73.98	69.56	65.57	59.88	56.92	52.27	49.53	45.36	41.62	39.13	35.71	32.87	30.10	27.35	25.72	24.10	22.80	23.48	22.21	16.83	14.11	12.52	10.67	9.770	8.741	8.490	7.712	6.399	5.370	4.904	5.638	8.289	14.33	63.58	325.1	677.6	198.0	6.388	1.375	1.007	1.078	0.926	0.970	0.928	0.811	0.685	0.776
550.0	88.89	112.7	118.2	127.7	132.4	159.0	230.0	170.5	164.9	290.3	1811	2183	204.8	120.4	103.6	93.52	82.92	78.57	73.24	71.12	66.92	65.51	62.88	61.59	61.95	61.31	61.09	62.09	63.03	62.78	62.30	58.50	55.30	50.87	47.53	44.56	40.81	38.56	35.82	33.52	30.39	27.99	26.06	24.00	22.41	21.19	19.36	19.16	19.24	16.70	13.37	11.25	9.585	8.851	7.997	7.494	6.811	6.450	5.135	4.445	4.301	4.454	5.463	16.29	78.40	283.0	477.5	236.2	15.77	1.335	1.095	0.890	0.866	0.778	0.648	0.672	0.704
555.0	80.42	99.77	103.6	108.7	106.3	117.7	182.5	180.8	133.1	163.9	569.1	2578	911.5	106.1	85.94	76.07	67.90	65.02	61.09	55.37	53.01	53.86	51.61	50.63	50.21	49.00	49.72	50.55	51.08	50.82	50.68	47.85	44.26	42.33	38.07	36.28	33.99	31.01	29.17	27.67	25.39	23.13	21.68	19.89	19.11	17.30	16.11	14.90	15.12	15.02	13.22	10.29	8.654	7.561	6.911	6.476	6.154	5.818	5.103	4.214	3.550	3.285	3.161	5.415	19.19	64.94	144.5	405.0	255.5	20.54	1.133	0.832	0.714	0.754	0.627	0.635	0.743
560.0	79.64	91.92	96.80	95.48	84.22	102.2	138.2	190.7	122.9	117.0	220.6	1582	1810	143.7	75.22	65.07	60.44	54.42	50.56	46.45	46.33	46.32	43.74	43.17	42.47	41.68	41.39	42.62	43.18	44.24	42.84	40.62	37.51	35.80	33.26	30.63	29.05	26.27	24.38	24.39	21.64	19.90	18.49	17.80	16.35	15.18	14.04	12.93	11.92	12.60	11.94	9.758	7.678	6.725	6.510	5.732	5.206	5.145	4.508	4.055	3.154	2.852	2.696	2.977	5.934	15.92	34.10	151.0	425.2	214.3	11.68	1.027	0.775	0.588	0.613	0.679	0.633
565.0	76.19	86.64	86.02	83.52	76.55	86.90	104.0	180.7	126.0	100.6	125.5	632.8	2556	421.5	65.55	57.13	51.48	46.56	43.93	41.06	40.33	39.39	36.97	36.92	36.65	35.68	35.61	35.36	36.97	36.68	35.95	34.95	33.04	30.18	28.07	26.63	24.62	22.59	21.03	20.30	18.41	17.34	16.04	15.30	14.01	12.80	12.20	11.53	10.05	10.25	10.66	9.839	7.245	6.261	5.663	5.199	4.713	4.734	4.220	3.959	2.976	2.608	2.378	2.304	2.916	4.867	8.782	36.24	183.0	405.8	145.7	4.355	0.873	0.552	0.659	0.710	0.552
570.0	68.87	81.89	78.90	71.84	64.42	70.20	80.21	126.7	144.0	91.04	92.98	211.2	1561	1544	105.3	47.27	42.47	38.49	35.57	33.07	32.53	31.47	30.27	29.86	29.30	29.68	28.60	29.04	29.65	29.56	29.11	27.99	26.35	24.03	23.05	21.35	19.99	18.85	17.49	16.43	15.24	14.18	13.43	12.52	11.66	10.84	10.38	9.419	8.646	7.713	8.053	8.235	7.160	5.685	4.856	4.466	4.192	3.847	3.744	3.466	3.144	2.489	2.011	1.922	1.974	2.365	3.089	9.180	43.48	158.8	279.5	144.7	13.86	0.789	0.596	0.556	0.530
575.0	68.37	78.71	68.14	63.85	58.63	57.69	65.64	84.78	142.1	93.30	77.40	101.1	464.0	1992	585.3	40.73	35.22	30.85	29.83	26.69	27.18	24.17	24.34	23.55	23.75	24.47	23.16	24.08	23.95	23.74	23.79	22.48	20.52	19.37	18.23	17.54	16.40	14.51	13.73	13.50	11.74	11.53	10.87	9.999	9.670	9.299	8.707	7.901	6.951	6.373	6.088	6.101	6.517	5.530	4.313	4.042	3.536	3.235	2.985	2.974	2.724	2.530	2.120	1.711	1.735	1.515	1.642	2.961	10.54	36.29	80.46	233.3	203.3	16.69	0.771	0.601	0.548
580.0	70.60	69.41	65.40	56.05	51.50	54.71	53.56	62.08	121.5	113.4	70.05	71.50	153.2	1275	1277	62.24	29.82	26.25	25.03	23.27	21.94	21.10	21.17	20.32	19.74	20.39	19.59	20.09	20.23	19.56	19.69	18.64	17.04	16.29	15.48	14.97	13.98	12.64	11.82	10.95	10.05	9.688	9.399	8.850	7.991	7.721	7.276	6.888	5.935	5.420	5.105	4.918	5.532	5.237	4.226	3.540	3.235	3.006	2.799	2.581	2.247	2.453	2.229	1.721	1.338	1.462	1.271	1.464	3.237	9.066	18.99	83.86	255.3	142.3	8.576	0.755	0.585
585.0	56.76	64.36	67.96	52.54	43.53	46.80	44.88	53.04	86.85	126.7	69.06	64.16	74.09	484.9	1861	138.4	25.52	22.83	21.87	20.22	19.22	18.02	18.52	17.39	16.78	16.96	17.26	17.10	17.24	16.73	16.47	16.01	15.10	13.80	13.39	12.49	11.69	11.03	10.14	9.847	8.929	8.318	8.405	7.469	7.055	6.955	6.330	5.712	5.219	4.630	4.205	4.327	4.400	4.754	4.122	3.362	2.909	2.574	2.490	2.201	2.041	2.168	2.152	1.737	1.405	1.424	1.263	1.147	1.534	2.772	4.943	20.00	104.3	238.6	37.13	3.134	0.658
590.0	63.18	62.36	58.54	47.21	41.69	38.67	41.43	45.32	59.00	112.1	82.50	57.07	54.99	149.0	1132	859.7	49.62	19.65	18.01	16.65	16.04	15.31	15.05	14.43	13.85	13.96	14.08	13.92	13.79	13.92	13.82	13.04	12.25	11.50	10.82	10.12	9.573	8.979	8.416	7.993	7.324	6.696	6.546	6.226	5.945	5.625	5.322	4.676	4.390	3.955	3.680	3.479	3.324	3.851	3.852	3.474	2.736	2.346	2.154	1.930	1.936	1.767	1.677	1.705	1.655	1.238	1.090	1.062	1.107	1.314	1.752	5.088	24.65	89.91	147.9	96.36	12.35
595.0	52.05	56.25	55.16	43.50	35.07	34.03	35.02	37.49	44.10	79.19	103.5	55.15	45.20	61.19	321.8	1260	293.2	18.87	14.86	14.11	12.99	12.62	12.38	11.38	11.35	11.12	10.73	11.64	10.90	11.06	11.35	10.32	9.599	9.189	8.291	8.157	7.905	7.154	6.835	6.007	5.852	5.602	5.258	5.221	4.733	4.624	4.124	3.913	3.490	3.246	2.942	2.763	2.836	2.790	3.060	3.215	2.825	2.147	1.879	1.745	1.644	1.370	1.303	1.480	1.421	1.254	1.071	1.002	0.950	0.932	1.100	1.667	6.164	20.57	41.82	129.8	125.6
600.0	59.11	49.72	51.90	39.81	31.46	29.76	33.76	35.73	38.78	57.33	101.4	61.61	42.01	41.26	95.92	838.6	769.7	27.40	13.21	11.43	11.27	10.65	9.936	9.486	9.670	9.238	9.549	9.415	8.767	9.665	9.540	8.684	8.261	8.048	7.099	6.848	6.257	6.440	5.650	5.312	5.072	4.684	4.615	4.196	4.270	3.764	3.500	3.338	2.891	2.844	2.673	2.520	2.385	2.254	2.444	3.043	2.658	2.008	1.609	1.558	1.344	1.144	1.180	1.171	1.403	1.383	0.944	0.892	0.808	0.804	0.914	1.129	1.926	5.068	9.935	44.04	146.2
605.0	46.22	48.54	45.94	35.25	29.06	28.28	32.11	32.45	33.54	45.81	89.58	74.74	42.07	34.35	40.41	321.5	1109	90.17	11.15	10.01	10.38	9.490	8.722	8.080	8.645	8.381	8.347	7.929	7.955	8.266	7.762	7.332	6.816	6.573	5.976	5.918	5.462	5.208	5.005	4.778	4.536	4.017	3.961	3.572	3.568	3.247	3.273	2.785	2.639	2.483	2.291	2.319	1.991	1.838	2.064	2.242	2.640	2.054	1.542	1.298	1.470	1.142	1.121	1.043	1.173	1.164	1.087	0.890	0.822	0.774	0.742	0.824	0.910	1.581	2.718	10.47	56.87
610.0	42.40	45.41	41.05	34.15	25.91	24.22	28.47	28.82	34.14	37.97	62.73	87.34	46.12	32.59	27.79	91.70	716.2	570.2	25.18	8.415	8.268	7.664	7.334	7.013	6.638	6.601	6.784	6.541	6.849	6.405	6.544	6.252	5.883	5.474	5.018	4.973	4.702	4.402	4.044	3.862	3.510	3.163	3.186	3.000	3.103	2.845	2.565	2.472	2.170	2.050	1.915	1.829	1.581	1.575	1.601	1.639	1.955	1.818	1.559	1.210	1.159	1.000	1.008	1.031	0.906	0.946	1.014	0.974	0.853	0.784	0.711	0.605	0.636	0.763	1.003	2.732	13.37
615.0	45.33	47.90	38.11	31.62	23.50	26.67	25.16	27.72	31.16	35.20	45.41	77.98	58.84	31.62	22.54	32.90	204.3	854.6	95.83	8.064	6.524	6.205	5.969	5.771	4.988	5.255	5.364	5.172	5.635	5.404	5.306	4.856	4.719	4.562	4.468	4.204	4.002	3.504	3.183	3.109	2.720	2.771	2.491	2.415	2.323	2.058	2.192	1.961	1.868	1.496	1.684	1.572	1.372	1.246	1.248	1.315	1.386	1.595	1.493	1.301	1.045	0.871	0.999	0.889	0.786	0.744	0.727	0.895	0.856	0.808	0.651	0.561	0.563	0.644	0.558	0.967	3.293
620.0	44.05	44.69	40.43	30.72	22.31	20.79	24.23	24.82	27.28	33.92	39.25	62.05	69.78	31.88	22.36	19.27	57.56	580.4	486.3	13.60	6.126	5.871	5.179	4.674	4.555	4.353	4.546	4.398	4.448	4.472	4.282	4.058	4.097	3.891	3.834	3.739	3.542	3.377	2.507	2.615	2.318	2.294	2.143	2.046	2.029	1.854	1.737	1.766	1.544	1.392	1.339	1.312	1.105	1.151	1.141	1.163	1.072	1.386	1.416	1.233	1.052	0.791	0.891	0.771	0.663	0.696	0.660	0.619	0.835	0.699	0.655	0.601	0.508	0.511	0.473	0.546	1.050
625.0	38.19	44.78	38.93	30.10	20.90	19.59	22.75	24.68	27.80	29.41	34.53	49.32	73.12	35.41	21.43	16.15	22.62	225.8	762.4	60.33	5.512	4.717	4.295	4.456	4.004	3.841	3.732	3.845	4.301	3.712	3.738	3.408	3.562	3.113	3.066	3.230	3.262	2.661	2.280	2.408	2.010	1.911	1.879	1.897	1.689	1.509	1.417	1.383	1.316	1.248	1.064	1.080	1.026	1.019	0.944	1.004	0.902	1.013	1.209	1.238	1.022	0.781	0.800	0.653	0.688	0.641	0.663	0.723	0.802	0.878	0.682	0.596	0.440	0.455	0.489	0.570	0.646
630.0	46.62	39.88	33.84	27.72	22.78	19.40	20.66	22.75	25.93	28.54	34.96	41.48	62.08	45.59	21.99	15.10	13.46	62.40	525.3	389.7	13.12	4.216	3.937	3.601	3.233	3.183	3.294	3.147	3.279	3.069	3.205	2.853	2.768	2.866	2.524	2.577	2.552	2.244	1.924	1.811	1.781	1.510	1.464	1.577	1.418	1.368	1.173	1.148	1.080	1.059	0.890	0.901	0.843	0.854	0.836	0.874	0.866	0.845	0.857	0.970	1.045	0.817	0.791	0.605	0.584	0.587	0.610	0.617	0.594	0.677	0.788	0.633	0.451	0.415	0.423	0.471	0.412
635.0	37.88	35.53	29.75	28.31	23.93	19.11	21.32	21.21	25.25	28.19	34.83	35.32	44.07	55.09	25.26	15.25	11.34	20.35	150.5	631.8	74.08	3.747	3.624	3.025	2.704	2.691	2.645	2.716	2.467	2.520	2.311	2.353	2.151	2.154	2.087	2.126	1.865	1.761	1.586	1.439	1.536	1.324	1.370	1.262	1.250	1.146	1.085	1.129	0.981	0.927	0.695	0.740	0.779	0.633	0.682	0.602	0.700	0.750	0.708	0.739	0.876	0.787	0.735	0.612	0.467	0.545	0.515	0.578	0.517	0.518	0.643	0.695	0.597	0.474	0.403	0.474	0.372
640.0	34.75	36.86	29.56	24.03	22.15	18.23	19.15	21.86	23.79	28.83	32.99	32.51	38.34	52.70	32.94	15.20	11.40	11.41	40.57	458.3	336.2	7.704	2.899	2.830	2.479	2.339	2.445	2.153	2.403	2.081	1.980	1.906	1.910	1.887	1.812	1.813	1.621	1.611	1.404	1.309	1.380	1.149	1.257	1.063	1.022	0.947	0.984	0.930	0.824	0.787	0.687	0.702	0.736	0.608	0.617	0.597	0.548	0.669	0.593	0.666	0.690	0.696	0.647	0.496	0.469	0.519	0.460	0.564	0.526	0.452	0.526	0.551	0.583	0.483	0.384	0.404	0.420
645.0	38.99	39.38	31.74	25.13	22.26	18.30	19.75	19.00	21.60	28.87	30.94	30.95	33.46	44.12	40.88	17.22	10.96	10.12	14.32	186.6	553.5	41.74	2.555	2.619	2.162	2.003	2.190	1.883	1.815	1.907	1.958	1.847	1.677	1.754	1.583	1.613	1.567	1.386	1.364	1.316	1.162	1.149	0.999	0.965	0.994	0.910	0.870	0.784	0.787	0.646	0.630	0.610	0.605	0.554	0.631	0.547	0.584	0.625	0.534	0.537	0.584	0.649	0.636	0.537	0.499	0.512	0.455	0.475	0.464	0.449	0.463	0.491	0.505	0.526	0.387	0.373	0.381
650.0	46.88	37.95	34.60	26.53	21.01	17.92	18.49	19.31	22.06	28.36	29.66	32.77	33.63	36.06	42.53	20.22	12.93	9.402	8.036	53.58	512.5	178.0	3.263	2.378	2.112	2.181	1.774	1.898	1.611	1.870	1.791	1.604	1.524	1.694	1.446	1.493	1.471	1.186	1.129	1.155	1.100	0.984	0.972	0.800	0.789	0.747	0.751	0.667	0.603	0.520	0.649	0.561	0.488	0.490	0.547	0.590	0.572	0.629	0.535	0.529	0.497	0.608	0.580	0.522	0.541	0.437	0.438	0.462	0.370	0.479	0.470	0.440	0.558	0.460	0.403	0.417	0.401
