Sample:	'1
File name:	Default_20230830_155112.FD3
Run date:	'15:44:51, 08/30/2023
Operator:	dsjg
Comment:	'

Instrument
Model:	F-2700 FL Spectrophotometer
Serial number:	2198-001
ROM Version:	4J14000 07

Instrument parameters
Measurement type:	3-D scan
Data mode:	Fluorescence
EX  Start WL:	220.0 nm
EX  End WL:	600.0 nm
EX Sampling interval:	5.0 nm
EM  Start WL:	230.0 nm
EM  End WL:	650.0 nm
EM Sampling interval:	5.0 nm
Scan speed:	12000 nm/min
EX Slit:	5.0 nm
EM Slit:	5.0 nm
PMT Voltage:	700 V
Response:	Auto 
Corrected spectra:	Off
Contour interval:	50.000

Peak integration
Integration method:	Rectangular
Sensitivity:	1
Threshold:	1.000

Peaks
No.	ApexEX/EM(nm)	Height(Data)
1	235.0/360.0	658.4
2	240.0/385.0	903.5
3	255.0/285.0	159.3
4	260.0/290.0	171.3
5	265.0/585.0	38.76
6	270.0/595.0	32.10
7	275.0/610.0	33.97
8	280.0/340.0	534.5
9	280.0/385.0	974.7
10	280.0/405.0	908.2
11	280.0/425.0	707.4
12	280.0/620.0	31.01
13	285.0/320.0	507.6
14	320.0/405.0	387.6
15	335.0/385.0	403.6
16	335.0/405.0	414.9
17	355.0/385.0	440.1
18	355.0/405.0	511.9
19	370.0/425.0	310.3
20	375.0/405.0	442.9
21	440.0/520.0	15.96
22	445.0/525.0	13.99
23	565.0/385.0	7.018
24	580.0/325.0	3.948

Data points
	220.0	225.0	230.0	235.0	240.0	245.0	250.0	255.0	260.0	265.0	270.0	275.0	280.0	285.0	290.0	295.0	300.0	305.0	310.0	315.0	320.0	325.0	330.0	335.0	340.0	345.0	350.0	355.0	360.0	365.0	370.0	375.0	380.0	385.0	390.0	395.0	400.0	405.0	410.0	415.0	420.0	425.0	430.0	435.0	440.0	445.0	450.0	455.0	460.0	465.0	470.0	475.0	480.0	485.0	490.0	495.0	500.0	505.0	510.0	515.0	520.0	525.0	530.0	535.0	540.0	545.0	550.0	555.0	560.0	565.0	570.0	575.0	580.0	585.0	590.0	595.0	600.0
230.0	116.4	 1060	 1917	300.4	15.84	11.03	8.831	6.681	5.718	5.204	4.653	4.017	3.486	2.951	2.613	2.243	2.075	1.904	1.640	1.548	1.447	1.401	1.356	1.293	1.283	1.200	1.207	1.180	1.154	1.153	1.181	1.065	1.035	0.922	0.915	0.910	0.924	0.916	0.906	0.798	0.807	0.839	0.835	0.786	0.741	0.708	0.692	0.974	1.606	1.707	1.153	0.743	0.611	0.613	0.605	0.602	0.596	0.602	0.604	0.604	0.666	0.655	0.634	0.670	0.676	0.644	0.636	0.621	0.670	0.691	0.664	0.689	0.656	0.662	0.670	0.686	0.720
235.0	57.38	389.3	 2138	 2447	316.8	18.36	9.741	7.234	6.270	5.006	4.623	4.120	3.497	2.690	2.464	2.164	2.165	1.777	1.895	1.634	1.363	1.403	1.363	1.345	1.357	1.126	1.251	1.062	1.202	1.091	1.179	1.113	1.015	0.926	0.811	0.915	0.834	0.926	0.936	0.896	0.747	0.788	0.782	0.824	0.731	0.842	0.667	0.706	0.971	1.377	2.102	2.634	1.857	0.842	0.629	0.519	0.655	0.636	0.666	0.624	0.701	0.617	0.705	0.596	0.632	0.638	0.648	0.639	0.716	0.650	0.689	0.686	0.674	0.678	0.731	0.690	0.714
240.0	55.63	115.2	920.6	 3190	 2494	224.7	11.97	7.298	6.492	4.954	4.923	4.207	3.404	2.665	2.638	2.286	2.225	1.966	1.824	1.572	1.319	1.361	1.485	1.391	1.380	1.247	1.326	1.181	1.113	1.246	1.210	1.089	1.113	0.954	0.787	0.833	0.822	0.943	0.928	0.915	0.827	0.868	0.792	0.819	0.745	0.781	0.780	0.669	0.668	0.795	1.206	2.820	3.835	3.516	1.716	0.694	0.653	0.658	0.677	0.618	0.601	0.599	0.638	0.597	0.676	0.621	0.583	0.671	0.691	0.658	0.727	0.753	0.611	0.752	0.703	0.682	0.658
245.0	63.36	70.51	245.6	 1618	 3833	 1994	126.8	8.051	6.870	5.857	5.109	4.191	3.734	2.776	2.810	2.264	2.005	1.751	1.662	1.581	1.622	1.451	1.424	1.254	1.285	1.248	1.318	1.254	1.120	1.242	1.223	1.099	1.030	0.935	0.890	0.771	0.782	0.942	0.932	0.886	0.831	0.868	0.855	0.791	0.742	0.716	0.837	0.826	0.716	0.613	0.712	1.265	2.579	4.552	5.021	3.398	1.347	0.728	0.661	0.625	0.671	0.598	0.668	0.651	0.632	0.613	0.645	0.607	0.651	0.689	0.681	0.741	0.637	0.782	0.709	0.699	0.719
250.0	51.35	67.21	111.7	417.9	 1642	 3302	 2178	156.9	23.67	5.928	5.521	4.612	3.679	3.169	2.960	2.346	2.032	1.915	1.851	1.725	1.611	1.378	1.365	1.336	1.268	1.262	1.261	1.118	1.168	1.191	1.182	1.068	0.950	0.963	0.962	0.813	0.839	0.834	0.882	0.937	0.816	0.786	0.826	0.788	0.765	0.767	0.762	0.824	0.831	0.725	0.669	0.786	1.122	1.831	3.104	4.665	5.831	5.285	3.299	1.309	0.722	0.637	0.663	0.647	0.638	0.676	0.655	0.636	0.653	0.696	0.688	0.680	0.613	0.699	0.742	0.672	0.761
255.0	44.25	43.89	96.16	171.8	393.4	 1074	 2898	 1958	210.9	13.79	5.668	4.739	3.666	3.389	3.065	2.432	1.941	1.934	1.720	1.686	1.652	1.444	1.353	1.381	1.277	1.302	1.336	1.119	1.092	1.175	1.276	1.025	0.902	0.954	0.928	0.814	0.798	0.769	0.751	0.862	0.806	0.842	0.815	0.779	0.762	0.804	0.771	0.760	0.702	0.732	0.771	0.960	0.882	0.955	1.180	1.530	2.639	5.362	8.503	8.651	4.597	1.452	0.774	0.613	0.654	0.661	0.642	0.601	0.655	0.617	0.708	0.667	0.660	0.718	0.698	0.728	0.708
260.0	44.32	32.12	58.34	130.0	149.5	266.5	 1193	 2738	 2699	148.9	7.138	5.146	4.435	3.680	2.869	2.555	2.100	1.913	1.876	1.715	1.714	1.537	1.371	1.334	1.470	1.296	1.217	1.101	1.214	1.182	1.262	1.223	0.961	0.900	0.995	0.811	0.746	0.777	0.822	0.820	0.800	0.789	0.806	0.855	0.754	0.793	0.650	0.678	0.637	0.649	0.726	1.037	1.125	0.945	0.813	0.822	1.221	1.953	4.294	8.456	10.85	8.361	3.447	0.910	0.715	0.608	0.676	0.743	0.663	0.645	0.623	0.609	0.616	0.716	0.657	0.709	0.790
265.0	46.65	32.62	36.27	86.46	135.1	103.7	299.9	 1244	 3513	 1235	99.91	6.115	4.959	3.890	3.331	2.771	2.434	1.891	1.748	1.753	1.549	1.564	1.485	1.397	1.397	1.257	1.280	1.152	1.103	1.167	1.267	1.165	0.988	1.079	1.010	0.826	0.805	0.806	0.795	0.836	0.728	0.766	0.789	0.853	0.867	0.798	0.712	0.636	0.621	0.598	0.581	0.842	1.075	1.259	1.061	0.803	0.867	0.965	1.565	3.192	6.878	11.74	11.64	6.501	2.001	0.720	0.667	0.701	0.651	0.665	0.652	0.619	0.657	0.686	0.714	0.701	0.841
270.0	53.11	34.06	31.06	41.91	90.76	125.0	121.0	315.0	 1348	 1831	 1211	396.0	22.59	4.251	3.504	2.724	2.539	2.113	2.000	1.873	1.728	1.638	1.501	1.448	1.371	1.361	1.323	1.300	1.206	1.344	1.242	1.162	1.087	1.016	0.951	0.863	0.770	0.865	0.816	0.749	0.731	0.789	0.776	0.820	0.789	0.846	0.739	0.708	0.622	0.605	0.583	0.668	0.754	0.909	1.070	1.164	1.154	0.938	0.985	1.310	2.143	4.193	6.767	9.530	11.00	9.222	5.212	1.964	0.748	0.745	0.665	0.659	0.645	0.715	0.689	0.705	0.803
275.0	57.62	43.96	37.27	31.69	40.04	90.43	149.4	136.0	326.2	531.3	 1088	 1677	555.4	19.11	4.071	3.399	2.455	2.322	2.133	1.832	1.716	1.620	1.419	1.518	1.348	1.350	1.371	1.297	1.243	1.182	1.111	1.165	1.115	1.062	0.850	0.904	0.944	0.782	0.767	0.816	0.720	0.810	0.719	0.733	0.846	0.932	0.806	0.762	0.706	0.628	0.573	0.699	0.687	0.692	0.776	0.976	1.117	1.521	1.452	1.061	1.058	1.545	2.057	2.905	4.455	8.785	13.71	13.49	6.780	1.639	0.621	0.677	0.698	0.778	0.686	0.670	0.782
280.0	64.88	55.39	46.15	36.83	31.21	50.48	132.0	157.1	124.5	148.5	385.6	 1415	 1646	106.6	9.052	3.716	2.904	2.567	2.175	1.893	1.946	1.689	1.523	1.695	1.352	1.337	1.512	1.326	1.374	1.125	1.320	1.151	1.064	1.054	0.868	0.848	0.843	0.748	0.774	0.771	0.807	0.741	0.761	0.776	0.849	0.914	0.749	0.836	0.797	0.691	0.620	0.737	0.691	0.656	0.744	0.803	0.943	1.299	1.704	1.502	1.252	1.035	1.060	1.291	1.695	3.022	6.357	12.40	15.70	11.38	3.984	0.984	0.719	0.749	0.681	0.677	0.845
285.0	75.26	68.25	58.29	42.38	34.53	37.34	75.20	159.3	143.6	78.65	125.1	546.3	 1570	 1423	81.72	5.278	3.361	2.777	2.399	2.002	1.969	1.604	1.562	1.565	1.385	1.430	1.470	1.366	1.439	1.241	1.322	1.227	1.140	1.074	0.940	0.824	0.843	0.829	0.836	0.758	0.731	0.838	0.748	0.781	0.763	0.885	0.914	0.907	0.929	0.712	0.679	0.766	0.720	0.727	0.727	0.747	0.801	0.983	1.159	1.625	1.684	1.431	0.989	0.889	1.118	1.413	2.140	4.423	9.091	14.52	15.34	8.830	2.016	0.838	0.688	0.767	0.798
290.0	86.81	85.45	78.41	56.55	45.80	44.58	53.93	105.2	171.3	154.8	102.7	179.5	552.0	 1218	 1100	330.6	20.53	3.472	2.753	2.296	2.192	1.837	1.719	1.613	1.524	1.445	1.463	1.324	1.402	1.279	1.302	1.228	1.117	1.022	0.907	0.950	0.926	0.817	0.792	0.786	0.795	0.824	0.731	0.807	0.786	0.857	0.816	0.911	0.951	0.762	0.751	0.777	0.745	0.740	0.757	0.783	0.868	0.873	0.947	1.104	1.419	1.581	1.737	1.535	1.206	1.132	1.162	1.773	2.969	5.009	8.281	11.63	12.99	10.83	5.999	1.803	0.783
295.0	94.62	109.7	98.08	80.02	62.62	64.92	67.74	85.90	131.2	212.7	180.8	139.9	196.3	357.0	830.6	 1718	499.4	20.64	3.564	2.786	2.239	2.148	1.983	1.658	1.615	1.557	1.408	1.342	1.345	1.408	1.334	1.327	1.070	1.071	0.916	0.927	0.903	0.864	0.872	0.767	0.818	0.759	0.773	0.844	0.768	0.841	0.733	0.943	0.963	0.829	0.750	0.884	0.808	0.900	0.850	1.027	0.884	0.918	1.044	0.981	1.157	1.271	1.542	2.120	2.317	1.689	1.255	1.351	1.594	2.136	2.701	3.588	5.166	9.915	16.76	16.63	7.445
300.0	107.3	120.7	117.0	101.1	86.32	89.70	95.75	111.6	138.8	216.0	297.4	247.5	157.5	168.2	323.2	 1210	 1897	377.6	10.62	3.327	2.669	2.265	2.086	1.836	1.657	1.612	1.482	1.518	1.321	1.498	1.344	1.218	1.162	1.100	0.941	0.987	0.872	0.977	0.932	0.743	0.772	0.785	0.746	0.849	0.833	0.808	0.796	0.921	0.950	0.839	0.912	0.983	0.979	1.010	0.904	1.171	1.019	1.058	1.125	1.140	1.271	1.241	1.405	1.937	2.303	2.620	2.217	1.951	1.636	1.580	1.862	1.870	2.102	3.692	7.984	15.62	20.37
305.0	124.5	133.1	143.2	130.1	119.8	125.7	144.4	168.7	201.0	258.1	358.6	419.6	293.0	211.0	211.8	496.1	 1534	 1869	58.77	5.477	3.114	2.431	2.288	2.045	1.827	1.684	1.520	1.533	1.377	1.341	1.380	1.302	1.120	1.171	1.089	0.899	0.839	0.937	0.845	0.873	0.796	0.784	0.755	0.779	0.844	0.862	0.871	0.976	1.014	0.856	0.971	1.028	1.154	1.087	1.090	1.218	1.299	1.345	1.323	1.454	1.656	1.705	1.767	2.061	2.516	2.829	3.183	3.033	2.468	2.051	2.080	1.997	1.789	2.304	3.009	5.966	11.81
310.0	131.9	170.1	177.3	163.1	149.8	164.1	191.4	216.2	254.7	306.9	370.8	453.3	454.2	325.3	242.7	254.3	571.3	 1334	 1632	666.5	16.81	3.032	2.529	2.204	2.102	1.920	1.594	1.563	1.626	1.427	1.313	1.286	1.167	1.166	1.041	0.953	0.938	0.972	0.863	0.833	0.823	0.801	0.831	0.807	0.842	0.908	0.927	1.103	1.066	1.036	1.044	1.257	1.252	1.236	1.245	1.300	1.427	1.528	1.597	1.713	1.855	2.080	2.104	2.388	2.607	2.802	2.939	3.289	3.563	3.285	2.703	2.309	2.226	2.108	2.103	2.700	4.161
315.0	151.0	209.4	220.8	195.5	180.5	197.9	228.7	250.3	291.8	342.8	400.5	451.5	489.9	475.4	325.7	234.5	272.9	414.5	873.7	 2047	395.6	18.17	3.338	2.679	2.402	1.881	1.812	1.665	1.599	1.453	1.440	1.374	1.243	1.281	1.114	0.867	0.953	1.008	0.937	0.893	0.852	0.788	0.924	0.846	0.896	0.953	1.020	1.170	1.214	1.133	1.060	1.335	1.435	1.382	1.448	1.473	1.666	1.686	1.824	1.925	1.987	2.307	2.356	2.565	2.718	2.847	2.838	3.200	3.322	3.608	3.677	3.558	2.744	2.586	2.213	2.038	2.572
320.0	172.9	242.6	259.4	225.6	209.9	221.1	253.2	275.4	316.3	373.3	430.5	477.8	489.5	507.6	433.1	266.4	225.9	202.0	283.0	 1197	 2096	315.4	8.985	3.122	2.610	1.950	2.005	1.652	1.717	1.599	1.474	1.477	1.355	1.144	1.176	1.016	0.984	0.992	0.945	0.810	0.822	0.792	0.823	0.859	0.935	1.062	1.046	1.381	1.391	1.299	1.244	1.351	1.504	1.536	1.437	1.562	1.747	1.879	1.932	2.074	2.090	2.426	2.539	2.712	2.784	2.909	3.162	3.249	3.300	3.409	3.693	3.865	3.642	3.123	2.490	2.072	2.220
325.0	194.8	298.3	326.9	273.3	242.1	237.0	268.0	295.7	328.1	382.6	441.0	494.6	492.6	478.8	472.0	330.4	226.7	160.9	115.3	378.5	 1525	 2041	47.98	4.716	2.896	2.257	2.144	1.829	1.849	1.513	1.580	1.484	1.375	1.167	1.086	1.109	1.046	0.967	0.908	0.884	0.800	0.860	0.884	0.902	0.978	1.119	1.135	1.390	1.604	1.501	1.385	1.553	1.633	1.541	1.569	1.672	1.783	1.955	2.077	2.093	2.182	2.405	2.451	2.810	2.887	2.974	3.277	3.477	3.343	3.429	3.501	3.538	3.948	3.728	2.925	2.370	2.261
330.0	229.1	365.1	436.5	385.7	306.4	272.8	293.2	318.9	347.6	399.3	456.9	504.1	505.6	473.7	438.9	389.4	289.9	170.7	96.58	129.3	451.7	 1344	 1798	721.9	16.05	2.970	2.498	2.157	1.902	1.654	1.720	1.538	1.374	1.283	1.168	1.135	1.105	0.978	0.902	0.885	0.829	0.877	0.881	0.900	0.995	1.213	1.350	1.638	1.838	1.781	1.834	2.107	1.940	1.849	1.729	1.849	1.953	2.080	2.175	2.302	2.372	2.493	2.692	2.785	3.051	3.002	3.302	3.488	3.417	3.684	3.431	3.471	3.472	3.429	3.460	3.127	2.641
335.0	262.9	428.1	534.0	502.3	380.9	320.3	327.3	346.9	374.8	415.5	470.7	513.9	521.5	488.3	432.6	363.2	356.1	234.0	119.5	95.48	148.7	348.5	880.3	 2325	340.0	18.01	3.391	2.486	2.280	1.825	1.721	1.732	1.482	1.387	1.248	1.158	1.005	0.983	0.977	0.851	0.899	0.937	0.967	0.985	0.943	1.222	1.452	1.737	2.047	2.120	2.206	2.469	2.341	2.106	1.957	2.054	2.171	2.296	2.318	2.446	2.449	2.577	2.828	2.937	3.020	3.238	3.265	3.581	3.788	3.568	3.599	3.352	3.639	3.224	3.278	3.170	3.039
340.0	267.6	459.6	593.1	558.5	442.1	362.1	359.5	373.8	392.0	423.8	479.1	520.0	534.5	497.8	436.4	355.6	332.7	294.1	156.6	103.3	97.03	123.5	261.3	 1316	 2380	287.2	8.832	2.869	2.420	2.151	1.868	1.820	1.545	1.393	1.282	1.129	1.072	1.084	0.943	0.922	0.892	0.789	1.001	0.956	0.964	1.323	1.462	1.885	2.188	2.250	2.425	2.707	2.606	2.270	2.234	2.182	2.361	2.526	2.748	2.521	2.530	2.635	2.843	3.079	3.009	3.287	3.279	3.653	3.574	3.575	3.559	3.621	3.584	3.158	3.113	2.810	3.054
345.0	266.5	469.6	617.7	614.8	487.8	400.1	394.3	405.2	413.3	439.7	484.2	522.0	532.3	503.9	442.8	357.6	310.1	302.4	226.1	129.5	101.2	90.60	103.5	395.6	 1767	 2189	42.11	4.637	2.767	2.454	2.140	1.979	1.701	1.397	1.290	1.083	1.052	0.990	1.001	0.866	0.939	0.878	0.984	1.049	1.039	1.313	1.465	1.855	2.305	2.307	2.547	3.098	2.740	2.686	2.442	2.390	2.484	2.622	2.677	2.688	2.623	2.711	2.985	2.979	2.996	3.396	3.272	3.397	3.675	3.554	3.773	3.570	3.490	3.379	3.047	2.737	2.806
350.0	271.2	472.6	633.5	646.8	540.6	457.2	436.8	440.0	443.4	464.5	493.6	518.5	527.2	499.1	444.8	370.5	314.6	278.5	263.1	211.2	138.3	108.1	91.31	136.7	500.8	 1478	 1922	722.0	15.11	3.256	2.645	2.269	1.878	1.505	1.350	1.171	1.096	1.007	0.973	0.965	0.916	0.965	0.996	1.035	1.096	1.239	1.533	1.874	2.192	2.402	2.474	3.114	2.956	2.872	2.518	2.552	2.573	2.714	2.773	2.867	2.843	2.915	3.214	3.264	3.189	3.306	3.396	3.422	3.524	3.530	3.575	3.576	3.431	3.226	3.100	2.939	2.897
355.0	263.3	462.2	619.8	657.0	578.7	498.9	477.1	472.0	464.8	481.5	497.3	511.9	515.1	497.9	445.3	379.6	327.8	284.1	255.2	264.3	217.1	145.0	113.6	101.7	158.2	369.9	932.3	 2429	317.5	18.24	3.683	2.892	2.220	1.768	1.508	1.246	1.233	1.135	0.934	0.941	0.980	0.935	1.010	1.018	0.994	1.154	1.491	1.892	2.155	2.379	2.559	3.081	3.177	2.971	2.747	2.753	2.925	2.950	2.855	3.019	3.153	3.071	3.163	3.264	3.237	3.307	3.501	3.410	3.805	3.462	3.636	3.450	3.379	3.481	3.240	3.053	2.937
360.0	245.3	443.0	614.9	658.4	595.1	530.3	503.6	500.2	486.3	491.1	500.4	511.1	513.5	495.1	443.9	386.4	343.0	300.6	267.1	260.4	270.7	192.2	136.3	109.4	97.21	122.3	261.3	 1387	 2451	280.4	9.408	3.940	2.560	1.818	1.573	1.314	1.261	1.255	1.031	1.007	0.963	0.961	0.896	1.001	1.058	1.244	1.344	1.943	2.081	2.293	2.471	3.086	3.134	3.032	2.857	2.876	2.932	3.049	3.156	2.980	3.232	3.096	3.171	3.315	3.297	3.349	3.365	3.313	3.504	3.409	3.422	3.409	3.376	3.333	3.103	3.173	3.026
365.0	251.6	433.0	601.6	654.5	627.6	561.6	534.9	521.7	509.1	504.5	507.5	511.1	511.2	494.5	446.1	393.2	355.1	314.5	287.2	263.5	275.8	252.8	170.5	127.5	100.1	83.60	96.89	401.2	 1888	 2266	40.27	7.910	3.966	2.232	1.632	1.353	1.221	1.195	1.141	0.984	1.016	0.980	0.997	1.064	1.128	1.240	1.359	1.926	2.113	2.214	2.444	3.214	3.285	3.262	3.030	2.940	3.139	3.059	3.178	3.157	3.267	3.240	3.145	3.416	3.245	3.250	3.384	3.241	3.441	3.461	3.626	3.419	3.666	3.172	3.317	3.171	3.250
370.0	248.3	407.5	584.2	661.1	660.3	602.5	565.7	547.9	532.8	531.9	544.0	537.8	554.4	512.0	452.1	400.9	369.3	341.4	314.3	290.0	279.7	284.2	250.5	183.8	141.0	112.6	106.7	165.9	555.9	 1648	 2105	750.9	21.78	7.577	2.787	1.797	1.507	1.321	1.181	1.114	1.015	1.009	1.014	1.067	1.193	1.227	1.414	1.834	2.091	2.179	2.428	3.148	3.196	3.359	3.234	3.207	3.283	3.186	3.324	3.316	3.426	3.334	3.413	3.519	3.496	3.490	3.607	3.521	3.773	3.943	3.771	3.556	3.625	3.224	3.347	3.216	3.403
375.0	244.8	418.5	613.2	727.6	770.2	689.3	606.9	586.2	585.1	602.3	654.5	642.2	745.1	616.2	469.3	413.2	388.5	363.5	342.9	328.7	318.3	304.9	315.7	307.6	237.8	201.5	228.2	261.1	285.4	512.7	 1251	 2787	 1058	30.80	6.930	2.746	1.983	1.494	1.305	1.235	1.075	0.951	1.051	1.115	1.174	1.239	1.389	1.872	2.256	2.341	2.541	3.338	3.731	4.024	3.906	3.607	3.510	3.375	3.436	3.448	3.697	3.765	3.577	3.782	4.196	4.270	3.975	4.085	4.485	5.339	4.596	3.981	3.645	3.628	3.476	3.392	3.411
380.0	241.9	418.4	643.8	777.7	861.1	754.4	634.4	602.6	622.6	660.2	741.8	723.5	897.7	700.9	484.0	424.1	398.7	385.0	368.3	354.2	348.8	329.1	338.4	386.4	329.1	276.7	328.3	365.5	294.9	309.4	592.0	 1892	 2426	254.3	14.54	3.726	2.385	1.676	1.360	1.237	1.216	1.140	1.029	1.248	1.134	1.335	1.476	1.910	2.137	2.416	2.672	3.545	3.951	4.302	4.365	3.820	3.781	3.685	3.643	3.628	3.846	3.873	3.992	4.048	4.606	4.640	4.489	4.563	5.276	6.159	5.449	3.997	3.624	3.701	3.415	3.217	3.511
385.0	248.3	426.1	647.9	800.4	903.5	780.4	648.4	620.6	640.7	686.1	779.3	771.9	974.7	743.2	488.8	431.4	405.5	394.9	381.3	369.7	366.3	353.0	358.1	403.6	400.9	333.0	391.6	440.1	335.0	295.0	456.7	885.7	 2086	 2001	178.8	5.502	2.719	1.878	1.554	1.351	1.171	1.146	1.171	1.199	1.279	1.326	1.469	1.783	2.181	2.298	2.652	3.665	3.938	4.589	4.465	4.028	3.865	3.824	3.784	3.724	3.727	4.029	4.129	4.209	4.885	4.946	4.535	4.570	5.679	7.018	5.582	4.415	3.778	3.491	3.399	3.355	3.643
390.0	243.2	408.2	598.7	745.7	844.1	745.7	643.5	618.6	625.1	662.7	739.5	725.7	888.8	697.0	480.5	429.9	404.4	395.9	386.6	376.9	373.9	362.1	358.4	380.0	385.3	360.5	383.3	405.6	310.1	262.6	365.1	498.6	691.4	 1522	 1787	589.6	11.92	2.348	1.784	1.542	1.284	1.240	1.299	1.228	1.252	1.283	1.565	1.841	2.097	2.256	2.603	3.386	3.801	4.152	4.420	3.959	3.820	3.819	3.607	3.619	3.618	3.967	3.997	4.159	4.722	4.826	4.516	4.347	5.162	6.370	5.239	3.990	3.761	3.549	3.373	3.437	3.505
395.0	237.5	392.9	566.3	720.3	815.2	729.7	633.1	610.1	615.6	648.4	717.9	703.3	857.0	675.1	478.9	423.4	404.5	394.0	386.7	383.8	379.6	372.8	372.0	383.1	371.0	369.7	418.9	415.1	315.9	262.7	344.1	396.8	292.0	394.9	949.8	 2158	232.0	13.40	2.354	1.920	1.367	1.313	1.253	1.164	1.250	1.318	1.520	1.811	2.150	2.248	2.547	3.346	3.612	4.110	4.117	3.855	3.641	3.717	3.663	3.787	3.758	3.728	3.999	3.936	4.404	4.656	4.330	4.440	5.165	6.072	5.276	3.920	3.649	3.541	3.553	3.513	3.617
400.0	226.5	395.0	579.0	726.8	814.0	731.1	636.8	615.8	624.2	660.7	741.9	726.5	891.0	692.5	481.3	420.9	399.2	390.7	387.6	387.3	385.0	381.4	386.2	404.4	386.3	376.3	453.1	474.7	349.0	294.3	380.4	424.9	224.2	143.6	256.9	 1309	 1860	209.1	6.237	2.207	1.578	1.352	1.278	1.280	1.225	1.374	1.496	1.866	2.244	2.274	2.593	3.337	3.510	4.206	4.077	3.803	3.713	3.708	3.752	3.621	3.783	3.690	3.960	4.003	4.456	4.848	4.468	4.456	5.326	6.228	5.742	3.990	3.737	3.541	3.573	3.430	3.561
405.0	226.4	378.3	582.3	710.9	798.7	727.8	635.6	614.4	635.2	672.9	747.6	737.8	908.2	699.8	475.9	417.2	392.7	388.5	384.0	383.7	387.6	384.5	390.3	414.9	400.9	381.2	456.4	511.9	380.4	316.2	400.4	442.9	218.2	93.11	83.51	369.2	 1528	 1654	29.53	3.421	1.952	1.572	1.402	1.329	1.301	1.449	1.394	1.920	2.194	2.262	2.544	3.336	3.629	4.160	4.242	3.871	3.798	3.650	3.672	3.501	3.757	3.724	4.147	4.113	4.602	4.858	4.339	4.278	5.281	6.303	5.686	4.123	3.916	3.596	3.497	3.670	3.355
410.0	226.3	364.7	535.7	657.8	752.9	689.3	617.8	601.4	608.6	639.6	707.3	701.9	814.2	650.9	467.6	408.3	382.2	374.9	370.0	371.3	370.6	372.0	376.6	392.6	380.6	362.5	406.5	446.2	370.2	302.7	348.2	371.1	189.9	82.00	49.77	101.6	422.1	 1226	 1424	462.1	10.01	2.030	1.551	1.395	1.365	1.423	1.455	1.774	2.064	2.144	2.377	3.174	3.446	3.868	3.950	3.673	3.740	3.686	3.676	3.622	3.633	3.798	3.817	3.865	4.348	4.422	4.063	4.267	4.941	5.686	5.118	3.936	3.891	3.675	3.478	3.522	3.387
415.0	211.3	338.0	493.8	594.0	684.2	654.8	598.1	587.9	597.2	617.4	663.7	657.4	726.7	602.7	455.8	393.0	362.9	355.7	353.6	354.1	354.3	354.1	358.6	368.3	353.3	342.2	359.9	371.6	331.2	298.1	297.8	293.5	161.5	81.45	49.05	47.20	110.3	291.5	770.9	 1668	213.2	11.70	1.955	1.550	1.440	1.489	1.482	1.777	2.029	2.075	2.244	2.902	3.132	3.546	3.799	3.430	3.525	3.570	3.548	3.472	3.702	3.659	3.761	3.844	4.020	4.155	3.984	4.132	4.227	4.988	4.533	3.909	3.718	3.578	3.341	3.420	3.266
420.0	205.4	329.9	472.5	575.8	647.6	638.2	596.4	584.6	594.2	616.7	653.7	649.3	698.2	587.0	452.2	386.4	352.8	345.0	341.1	339.9	342.7	342.7	345.3	358.4	347.1	334.9	349.0	353.4	309.0	293.2	298.7	272.1	159.1	85.78	52.95	38.70	43.94	78.27	200.5	 1016	 1534	187.5	5.406	1.823	1.624	1.554	1.521	1.692	1.895	1.913	2.214	2.882	3.020	3.407	3.390	3.298	3.564	3.556	3.571	3.622	3.660	3.564	3.779	3.940	3.930	4.041	4.149	4.258	4.398	4.897	4.327	3.834	3.630	3.409	3.209	3.152	3.210
425.0	199.8	321.7	463.5	560.8	632.2	624.8	596.8	585.1	592.9	622.3	663.3	654.7	707.4	585.8	452.4	378.1	344.4	335.0	330.2	331.4	332.5	333.2	340.9	351.6	344.6	333.9	346.9	349.3	305.7	286.2	310.3	280.1	163.4	92.45	59.08	40.77	32.18	32.30	55.33	286.0	 1234	 1295	28.37	2.778	1.831	1.553	1.673	1.848	1.982	1.990	2.230	2.896	3.071	3.358	3.501	3.408	3.714	3.664	3.431	3.645	3.481	3.686	3.781	4.039	4.065	4.112	4.293	4.189	4.277	4.828	4.355	3.779	3.385	3.506	3.127	3.239	3.063
430.0	199.0	312.2	442.8	538.7	612.2	608.2	590.5	585.8	597.5	628.2	661.4	662.2	693.0	577.9	450.6	368.1	329.4	319.3	315.1	315.0	320.9	322.4	329.8	338.2	335.3	326.2	336.0	340.9	301.0	274.5	292.7	284.0	174.0	101.6	68.39	48.21	35.61	27.10	26.39	73.83	342.9	965.3	 1117	366.5	9.220	1.906	1.774	1.854	1.969	1.979	2.141	2.727	2.998	3.241	3.327	3.302	3.544	3.563	3.455	3.602	3.662	3.663	3.776	4.006	4.203	4.246	4.137	4.058	4.422	4.792	4.311	3.912	3.578	3.329	3.163	3.164	3.149
435.0	193.0	302.8	419.4	523.1	574.3	596.1	577.0	587.3	594.9	623.2	655.6	658.0	660.6	568.6	446.6	360.0	316.5	300.8	299.7	298.3	304.5	308.8	315.5	321.5	322.8	312.2	318.6	318.9	288.0	263.3	261.7	255.0	185.1	114.9	78.22	56.61	41.58	30.93	23.54	29.28	86.00	227.7	614.5	 1378	200.7	10.28	2.070	1.914	1.965	1.981	2.082	2.657	2.869	2.966	3.265	3.044	3.446	3.511	3.441	3.551	3.477	3.859	3.931	4.048	4.111	4.148	4.115	4.019	4.322	4.549	4.235	3.809	3.497	3.243	3.080	2.925	2.932
440.0	222.1	290.4	400.8	496.3	552.5	568.8	567.4	576.0	591.9	621.0	648.5	646.8	639.5	553.6	438.6	349.6	303.1	291.7	286.4	287.0	290.8	297.9	303.4	310.0	310.6	301.7	307.0	304.4	279.7	259.3	248.2	229.3	182.3	128.2	85.79	61.71	46.02	33.98	25.22	21.15	29.80	58.97	161.1	906.7	 1312	159.5	3.968	2.090	2.138	2.095	2.150	2.668	2.750	2.959	3.159	3.014	3.471	3.347	3.382	3.418	3.737	3.825	3.828	4.077	4.266	4.021	3.958	4.037	4.231	4.557	4.123	3.617	3.622	3.228	3.010	2.810	2.689
445.0	294.2	291.4	392.3	481.7	537.1	550.9	554.2	572.2	588.2	617.3	636.6	639.1	623.9	541.6	430.0	336.4	293.9	280.4	274.5	276.7	280.7	284.2	288.8	300.0	298.5	294.2	294.5	292.4	272.3	252.5	238.3	215.0	172.6	138.3	95.93	66.41	50.52	36.95	27.45	21.51	19.41	22.42	43.14	265.2	 1145	 1074	23.07	2.967	2.305	2.156	2.206	2.643	2.810	2.990	3.074	2.912	3.325	3.392	3.366	3.511	3.635	3.618	3.758	3.935	4.168	3.985	3.993	3.961	4.048	4.272	4.037	3.784	3.576	3.335	3.124	2.873	2.774
450.0	394.2	375.6	374.5	460.3	509.4	530.0	532.8	550.9	569.4	597.5	612.5	616.6	600.1	517.6	408.5	318.2	276.7	260.2	256.7	256.2	260.8	267.9	272.1	279.2	281.0	277.8	277.9	276.2	259.7	244.7	231.2	205.5	161.3	133.3	107.6	75.78	54.98	41.45	31.29	23.87	19.04	15.98	17.89	65.67	320.5	884.5	993.2	301.5	7.710	2.143	2.209	2.559	2.695	2.900	2.816	2.969	3.151	3.370	3.252	3.523	3.485	3.561	3.689	3.747	4.010	3.844	3.865	3.895	3.893	4.049	3.816	3.528	3.413	3.030	2.823	2.759	2.727
455.0	346.5	666.3	430.9	421.8	472.7	493.0	512.2	526.5	541.7	564.9	589.0	582.0	559.9	485.2	384.0	297.3	254.6	239.4	235.5	237.4	241.4	245.1	250.3	255.3	259.8	257.4	259.8	256.1	242.5	232.2	217.2	195.3	154.1	123.7	104.6	88.18	60.84	44.06	34.08	27.11	20.70	16.29	13.86	22.03	77.24	209.2	558.3	 1160	164.9	8.000	2.298	2.579	2.619	2.820	2.693	2.780	2.916	3.214	2.979	3.339	3.442	3.401	3.421	3.753	3.769	3.742	3.820	3.881	3.930	3.807	3.617	3.434	3.370	2.710	2.668	2.681	2.579
460.0	231.4	885.6	647.1	398.6	446.1	470.6	483.5	495.8	515.2	537.8	560.8	555.8	529.0	458.1	363.9	282.0	237.8	222.4	218.1	221.7	222.4	228.1	236.3	236.1	242.5	240.5	243.5	240.3	229.9	218.3	204.6	183.8	148.8	116.3	96.99	88.06	67.87	47.83	35.98	29.32	22.17	17.53	14.23	13.21	23.84	51.74	144.2	758.8	 1031	121.4	3.969	2.655	2.648	2.797	2.594	2.671	2.874	2.991	2.939	3.226	3.367	3.376	3.494	3.534	3.685	3.532	3.621	3.513	3.654	3.721	3.469	3.464	3.054	2.680	2.526	2.372	2.549
465.0	168.4	820.3	 1131	419.8	418.9	440.7	460.5	474.7	495.0	507.9	529.3	525.2	498.7	433.5	343.3	263.6	221.8	208.2	204.8	206.3	207.2	213.1	219.9	223.1	224.6	225.6	226.3	222.5	215.0	205.8	194.2	172.3	140.8	112.2	91.94	81.72	72.32	51.69	37.48	29.96	23.32	18.45	14.86	12.14	12.51	17.22	37.06	219.2	927.7	811.9	18.98	3.134	2.683	2.648	2.641	2.717	2.685	2.713	2.894	3.197	3.280	3.263	3.530	3.171	3.461	3.389	3.495	3.302	3.465	3.348	3.252	3.148	2.930	2.586	2.516	2.148	2.369
470.0	140.4	445.6	 1507	841.5	391.8	407.0	416.1	436.0	452.5	471.2	485.8	481.4	457.3	394.9	314.1	237.5	201.2	187.7	186.1	185.3	185.2	191.9	194.9	200.7	201.9	203.0	202.6	200.8	194.9	188.0	177.3	157.6	130.1	106.4	87.00	72.89	65.74	57.02	41.55	30.41	24.28	19.82	15.71	12.72	10.79	10.44	13.44	53.50	263.2	673.0	730.0	97.06	7.816	2.688	2.512	2.509	2.683	2.651	2.730	2.925	2.926	2.931	3.233	3.091	3.106	3.063	3.154	3.217	3.177	3.187	3.015	2.954	2.657	2.455	2.327	2.087	2.199
475.0	122.5	233.5	 1005	 1648	476.2	363.0	375.8	393.8	408.6	426.8	439.1	431.2	408.3	353.5	277.5	214.0	178.7	169.0	163.9	163.9	165.6	168.3	174.1	177.8	180.4	180.6	179.6	178.9	173.1	167.2	159.1	141.0	119.0	99.44	80.60	67.47	56.91	52.52	47.43	32.86	25.05	20.29	16.49	13.17	11.28	9.454	8.848	16.62	62.55	157.9	385.0	804.6	157.1	7.771	2.506	2.542	2.522	2.596	2.531	2.637	2.743	2.653	3.034	2.830	2.926	2.837	2.911	2.961	2.832	3.002	2.863	2.722	2.504	2.306	2.131	2.131	1.997
480.0	123.0	172.9	511.0	 1775	911.0	344.5	346.4	367.5	376.6	396.1	401.8	401.4	371.7	320.1	258.3	196.0	164.8	154.5	151.0	150.6	151.6	154.8	159.8	161.7	165.0	165.8	165.8	165.0	160.0	154.7	146.0	130.5	110.8	92.02	76.04	63.74	54.32	46.96	46.61	36.42	26.22	20.32	16.79	13.96	11.64	9.667	7.948	8.884	17.96	38.75	98.73	497.8	755.4	128.2	3.964	2.532	2.470	2.466	2.505	2.451	2.505	2.555	2.767	2.753	2.750	2.826	2.977	2.869	2.698	2.814	2.610	2.568	2.373	2.114	2.038	2.097	1.893
485.0	125.7	161.4	284.3	 1301	 1483	388.1	329.0	342.5	352.6	366.1	378.1	366.3	344.6	301.4	239.3	180.9	153.1	142.6	139.7	137.8	139.4	142.0	147.1	149.4	151.8	153.1	151.7	153.2	147.4	144.3	134.8	121.6	103.9	86.72	73.11	61.02	51.04	43.89	41.84	38.87	28.05	21.09	17.00	14.28	11.65	9.871	8.123	7.421	8.513	12.36	25.23	138.9	648.1	673.9	22.83	2.909	2.438	2.356	2.449	2.409	2.436	2.429	2.579	2.615	2.724	2.627	2.661	2.629	2.586	2.776	2.372	2.504	2.257	2.066	2.015	1.893	1.841
490.0	116.7	154.7	214.3	605.5	 1618	 1009	312.8	306.9	321.3	330.2	340.5	332.1	310.7	268.8	215.2	163.1	138.1	128.3	124.4	123.2	124.7	127.3	130.2	133.4	134.2	135.7	134.9	135.9	132.3	128.8	120.5	109.5	95.05	80.07	67.73	56.83	48.11	40.61	36.19	35.30	31.85	23.57	17.75	14.56	12.28	10.50	8.820	7.592	6.764	6.697	9.126	34.16	178.2	500.6	605.6	102.4	7.670	2.467	2.294	2.233	2.289	2.294	2.390	2.431	2.532	2.624	2.385	2.444	2.414	2.417	2.292	2.281	2.177	1.973	1.848	1.814	1.762
495.0	99.57	148.8	190.4	294.6	937.7	 1853	354.8	273.5	284.9	293.4	300.2	292.8	273.4	235.1	189.6	147.0	123.8	113.6	109.0	110.0	109.8	110.5	113.7	117.3	117.4	118.2	119.5	118.8	116.4	112.6	107.5	98.86	83.64	71.57	61.75	51.84	43.98	37.73	32.56	30.03	29.82	26.57	19.74	14.76	12.61	11.10	9.176	7.881	6.799	5.523	5.767	10.94	42.47	117.9	358.3	739.7	169.5	7.256	2.297	2.124	2.225	2.135	2.301	2.222	2.405	2.333	2.255	2.213	2.336	2.179	2.145	1.950	1.898	1.709	1.683	1.538	1.641
500.0	90.20	134.7	175.2	207.1	446.1	 1881	669.1	251.7	253.5	268.3	272.7	268.2	247.2	210.3	170.4	132.9	111.0	103.2	99.51	98.80	99.39	99.52	102.8	103.9	105.2	106.4	105.9	104.8	104.2	102.4	97.83	88.05	76.25	65.74	56.63	48.04	41.32	35.58	30.75	27.43	25.91	26.22	22.14	15.98	13.02	11.08	9.727	7.882	7.088	5.913	5.277	5.739	12.43	29.06	91.83	460.5	721.7	132.2	3.962	2.192	2.111	2.064	2.262	1.972	2.321	2.177	2.040	2.196	2.220	2.019	1.918	1.851	1.863	1.726	1.514	1.451	1.600
505.0	84.31	124.2	165.0	184.3	253.2	 1279	 1052	278.2	233.5	244.7	241.5	240.9	223.0	188.7	155.1	119.8	100.5	91.71	88.37	89.03	89.34	89.25	91.69	93.07	94.29	95.70	96.09	95.68	94.00	92.51	88.17	80.16	70.57	59.82	51.93	43.39	39.02	33.30	29.17	25.32	23.60	23.32	22.73	17.33	13.24	11.49	9.746	8.247	7.240	6.348	5.353	5.023	5.894	9.577	23.06	127.4	584.6	614.9	24.38	2.529	2.112	2.052	2.155	2.018	2.068	2.078	1.865	2.009	2.057	1.743	1.802	1.741	1.613	1.624	1.468	1.460	1.520
510.0	80.64	108.4	149.7	162.3	186.7	530.9	 1031	516.8	223.4	214.7	213.7	208.9	190.3	165.5	133.9	104.5	87.97	79.71	76.63	76.82	77.85	77.88	79.21	80.98	81.74	82.57	81.58	81.72	81.41	79.76	76.47	70.03	61.60	53.12	45.92	39.53	35.05	30.25	26.72	23.41	20.76	19.29	20.22	18.99	14.31	11.36	9.552	8.373	7.345	6.478	5.505	5.096	4.458	5.091	7.743	30.73	158.8	435.2	504.7	107.1	7.654	2.072	1.927	1.906	1.894	1.880	1.815	1.801	1.843	1.601	1.705	1.590	1.518	1.453	1.427	1.472	1.331
515.0	69.18	90.49	127.5	148.3	150.5	234.9	525.3	776.0	377.0	182.8	185.9	179.8	166.3	142.6	113.8	89.39	75.27	69.87	66.05	65.54	65.46	67.18	68.05	68.40	70.00	69.88	69.57	68.69	69.33	67.41	65.82	59.03	52.17	46.00	39.75	34.59	30.71	27.23	23.97	21.50	18.52	16.95	16.07	17.07	15.68	12.03	9.678	8.307	7.379	6.302	5.622	5.041	4.206	4.075	4.155	8.997	37.57	100.9	255.2	565.9	163.5	6.213	1.850	1.797	1.752	1.692	1.754	1.786	1.690	1.599	1.512	1.541	1.426	1.274	1.223	1.288	1.275
520.0	63.35	83.00	106.5	138.9	135.2	156.8	253.8	703.6	704.5	175.4	165.4	160.1	147.8	127.0	100.8	79.13	66.42	60.48	60.40	58.22	58.26	60.01	59.82	60.11	60.63	60.85	62.23	61.73	60.32	59.64	57.86	52.64	47.32	41.26	35.58	31.33	27.98	24.56	21.89	20.48	17.52	15.57	14.17	14.63	15.96	13.30	9.995	8.330	7.186	6.338	5.438	4.946	4.099	3.703	3.341	4.255	10.47	24.44	64.59	340.5	539.2	27.49	2.913	1.916	1.767	1.624	1.601	1.561	1.614	1.509	1.434	1.477	1.387	1.245	1.278	1.249	1.338
525.0	62.60	75.62	97.36	125.3	133.2	128.8	155.8	447.6	997.4	201.8	147.9	142.7	130.0	110.8	90.29	70.80	59.53	54.79	53.93	52.03	50.82	52.45	53.08	54.00	53.81	54.27	54.45	54.39	54.29	53.93	52.08	47.31	42.60	36.96	32.47	28.56	25.12	22.01	20.00	18.23	16.29	14.42	13.07	12.60	13.95	13.99	10.55	7.898	6.988	6.021	5.270	4.928	4.075	3.799	3.101	3.307	4.296	7.278	16.38	92.48	406.9	424.6	23.77	1.959	1.701	1.657	1.398	1.516	1.426	1.345	1.459	1.410	1.388	1.237	1.209	1.175	1.147
530.0	58.71	67.88	83.12	102.7	122.3	116.2	119.4	209.1	792.3	422.3	143.1	123.2	110.7	96.05	76.66	61.52	51.63	47.22	46.41	44.66	44.01	44.99	45.42	46.23	46.10	46.80	46.14	46.60	46.07	45.76	43.74	40.68	36.32	31.97	27.87	25.03	22.10	19.58	17.56	16.00	14.84	13.08	11.80	11.01	10.98	12.08	11.67	8.761	6.794	5.938	5.149	4.661	3.997	3.733	3.275	2.984	2.891	3.323	5.282	22.37	107.9	298.5	297.2	101.0	6.383	1.563	1.329	1.343	1.333	1.366	1.306	1.220	1.223	1.136	1.077	1.124	1.042
535.0	54.80	58.87	68.98	84.75	105.0	107.6	99.84	121.7	343.5	569.3	190.3	105.2	94.57	81.66	64.73	51.70	42.82	40.44	39.06	37.69	38.10	37.75	38.32	38.59	38.64	39.39	38.67	38.71	38.69	38.62	36.95	34.49	30.62	26.77	23.79	21.13	18.79	16.96	15.42	14.10	12.69	11.51	10.75	9.952	9.248	9.747	10.40	9.584	6.980	5.393	4.751	4.435	3.904	3.569	3.159	2.787	2.535	2.596	2.772	6.500	25.33	69.12	158.8	403.0	145.8	5.093	1.295	1.212	1.425	1.212	1.190	1.164	1.117	1.127	1.039	0.979	1.015
540.0	48.46	55.26	67.30	70.93	89.54	102.3	92.49	95.69	157.3	471.1	360.0	103.3	83.26	71.67	57.76	45.89	38.40	35.86	34.69	32.86	33.96	33.14	33.84	34.06	34.32	34.33	34.29	34.65	33.91	33.62	32.77	30.44	27.12	23.48	20.86	18.84	16.90	15.15	14.01	12.86	11.68	10.45	9.866	9.045	8.467	8.194	8.830	9.313	7.649	5.411	4.577	4.106	3.660	3.188	3.063	2.794	2.494	2.160	2.155	2.869	7.032	16.76	39.94	230.3	393.3	27.75	2.416	1.323	1.288	1.264	1.204	1.264	1.051	1.001	0.989	0.977	0.969
545.0	49.25	52.56	58.84	68.01	76.38	93.42	89.16	83.50	101.1	280.6	438.9	149.4	72.75	63.00	51.20	41.97	34.69	32.64	31.41	30.04	29.90	29.46	30.01	29.84	30.13	30.61	30.24	30.55	30.27	30.35	29.13	27.21	24.31	21.23	19.19	17.12	15.35	13.67	12.77	11.49	10.70	9.718	9.101	8.326	7.659	7.403	7.263	7.926	7.595	5.775	4.533	3.989	3.419	3.075	2.799	2.721	2.655	2.144	1.949	2.002	2.891	5.198	10.33	61.73	283.1	311.9	23.36	1.396	1.295	1.180	1.119	1.030	1.082	0.929	1.010	0.958	0.986
550.0	48.48	49.53	52.37	56.74	63.21	76.02	86.01	74.23	79.61	130.1	309.8	311.3	82.24	53.95	43.80	34.59	29.78	27.35	26.75	25.66	25.15	25.53	25.06	25.29	26.03	25.80	25.48	25.24	25.63	25.32	24.40	22.58	20.75	18.45	16.41	14.72	13.37	12.10	11.30	10.09	9.441	8.500	7.787	7.489	6.834	6.544	6.080	6.249	6.816	6.216	4.826	3.807	3.251	2.894	2.651	2.293	2.510	2.295	1.822	1.789	1.932	2.365	3.522	15.00	74.59	209.7	238.6	90.94	5.519	1.104	1.055	1.040	0.991	0.973	0.936	0.902	0.921
555.0	47.76	44.03	45.66	47.88	53.79	60.68	75.14	70.00	64.43	75.67	138.0	338.6	187.1	45.07	36.48	29.11	25.33	22.97	21.76	21.33	20.80	21.15	20.96	21.13	21.35	21.57	20.43	21.18	21.36	20.60	20.38	18.74	17.12	15.32	13.64	12.28	11.16	10.17	9.347	8.518	8.270	7.222	6.991	6.560	6.081	5.776	5.226	4.988	5.310	5.678	5.066	3.722	3.086	2.712	2.385	2.133	2.207	2.251	1.842	1.704	1.672	1.654	1.842	4.333	17.66	48.32	114.7	285.5	114.6	3.959	0.951	0.992	0.929	0.932	0.977	0.918	0.921
560.0	43.50	40.08	44.09	46.14	45.90	48.66	62.31	68.10	56.73	58.25	74.34	232.0	299.3	54.15	31.08	25.46	21.28	20.29	19.05	18.38	17.98	18.09	17.95	18.33	18.08	18.69	17.52	18.01	18.03	17.79	17.88	16.41	14.52	13.21	11.69	10.51	9.726	8.789	7.889	7.633	7.092	6.295	6.140	5.914	5.256	4.990	4.504	4.347	4.282	4.673	4.988	3.998	2.921	2.398	2.272	2.052	2.020	2.025	1.761	1.674	1.486	1.479	1.330	1.978	4.864	11.74	28.59	156.6	269.4	27.39	1.804	0.989	0.911	0.960	0.934	0.902	0.871
565.0	41.37	39.37	41.81	40.31	41.12	43.55	51.76	63.98	52.23	49.20	52.79	122.8	320.5	105.6	27.17	21.96	18.71	17.53	16.25	15.74	15.76	15.57	15.47	15.57	15.64	15.59	15.37	15.85	15.69	14.90	15.45	14.00	12.73	11.05	9.855	9.178	8.461	7.899	7.013	6.730	6.445	5.540	5.428	5.147	4.675	4.634	4.131	3.822	3.680	3.654	4.201	4.160	2.867	2.313	1.996	1.948	1.682	1.807	1.624	1.615	1.421	1.359	1.304	1.437	1.991	3.419	7.277	41.48	186.1	208.0	21.36	1.183	0.926	0.921	0.794	0.907	0.929
570.0	39.36	35.61	36.25	34.56	36.19	36.36	39.64	51.66	52.07	40.93	41.63	57.81	187.6	232.2	47.03	17.85	15.33	13.92	13.34	12.91	12.41	12.54	12.73	12.59	12.37	12.52	12.43	12.53	12.56	12.23	12.21	11.34	10.22	8.961	8.191	7.372	6.743	6.456	5.701	5.432	5.153	4.609	4.590	4.307	3.991	3.840	3.495	3.257	2.976	2.834	3.010	3.493	3.001	2.341	1.807	1.657	1.520	1.533	1.373	1.395	1.287	1.243	1.242	1.249	1.301	1.513	2.439	10.17	48.77	135.6	159.8	57.18	3.331	0.832	0.853	0.872	0.849
575.0	40.23	34.56	32.94	29.18	29.58	30.56	29.97	37.74	48.90	38.49	34.07	36.04	73.04	211.5	154.3	15.76	11.85	11.09	10.52	10.31	9.934	9.732	9.876	9.903	9.836	9.642	9.525	9.624	9.769	9.708	9.126	8.949	7.838	7.172	6.418	5.683	5.064	4.931	4.621	4.123	3.948	3.866	3.687	3.419	3.290	3.118	2.820	2.745	2.494	2.216	2.264	2.318	2.672	2.466	1.677	1.436	1.496	1.420	1.253	1.172	1.182	1.233	1.203	1.066	1.096	1.074	1.233	2.974	11.56	31.54	71.40	161.1	29.12	2.367	0.836	0.834	0.876
580.0	38.57	32.69	28.63	28.92	27.39	26.43	26.31	29.39	42.31	37.33	29.89	27.96	35.31	127.8	230.8	32.43	10.37	9.316	8.947	8.592	8.441	8.128	7.698	8.431	8.166	7.974	8.176	7.762	7.855	7.874	7.346	7.395	6.404	5.854	5.413	4.629	4.528	4.014	3.885	3.613	3.420	3.404	3.024	2.982	2.956	2.602	2.492	2.223	2.139	1.906	1.872	1.866	2.212	2.394	1.897	1.494	1.279	1.249	1.163	1.065	1.130	1.190	1.130	1.117	1.012	1.002	1.015	1.338	3.233	7.766	17.90	89.43	138.4	23.67	1.229	0.820	0.842
585.0	36.87	35.13	25.98	26.19	25.53	22.78	23.06	26.29	34.03	38.76	27.37	24.73	24.91	61.35	211.9	80.97	9.184	7.803	7.804	7.482	7.095	6.961	6.653	6.874	6.732	6.767	6.634	6.849	6.576	6.789	6.451	5.849	5.704	4.900	4.636	4.217	3.912	3.672	3.175	3.120	2.906	2.847	2.694	2.574	2.443	2.291	2.195	2.178	1.897	1.722	1.628	1.621	1.816	2.080	1.798	1.472	1.195	1.190	1.185	1.074	1.004	1.030	1.066	1.066	0.915	0.937	0.913	1.110	1.456	2.442	4.609	24.03	99.56	112.7	16.36	0.938	0.832
590.0	36.58	31.00	26.89	26.20	22.31	19.96	20.64	23.37	26.52	33.63	29.72	22.62	20.50	26.36	109.9	181.5	33.02	6.632	6.142	6.005	5.830	5.907	5.638	5.617	5.779	5.384	5.401	5.422	5.470	5.424	5.311	4.611	4.558	3.996	3.720	3.378	3.108	3.029	2.875	2.665	2.473	2.330	2.207	2.161	2.135	1.892	1.877	1.762	1.619	1.455	1.373	1.353	1.362	1.532	1.731	1.551	1.279	1.109	1.058	0.958	1.003	0.969	1.017	1.044	1.015	0.913	0.847	0.937	1.028	1.161	1.657	6.010	26.50	72.23	86.74	19.46	2.341
595.0	33.79	30.12	26.48	23.63	21.67	19.17	19.05	20.65	21.20	27.48	32.10	21.28	18.09	17.09	38.35	142.5	129.8	7.275	5.287	5.293	4.826	4.957	4.762	4.645	4.615	4.516	4.476	4.444	4.212	4.500	4.492	4.067	3.691	3.557	3.153	2.602	2.618	2.438	2.315	2.224	2.110	2.058	1.970	1.797	1.853	1.639	1.524	1.466	1.367	1.239	1.130	1.189	1.194	1.174	1.358	1.426	1.355	1.011	0.916	0.936	0.935	0.890	0.815	0.850	0.977	0.901	0.911	0.832	0.826	0.859	0.929	1.986	6.568	16.93	39.04	85.61	27.01
600.0	34.93	29.25	25.35	21.60	22.62	19.57	18.47	19.69	19.85	23.20	31.59	24.14	19.06	15.14	17.41	79.13	185.0	25.28	4.950	4.368	4.225	4.049	4.132	3.838	3.813	4.111	3.841	3.945	3.912	3.881	3.472	3.452	3.229	3.164	2.624	2.304	2.306	2.155	2.047	1.919	1.837	1.618	1.782	1.588	1.587	1.463	1.350	1.458	1.219	1.070	1.000	1.109	1.006	0.980	1.118	1.237	1.377	1.079	0.901	0.967	0.876	0.847	0.763	0.856	0.863	0.931	0.905	0.775	0.789	0.847	0.864	1.042	2.135	4.355	10.07	48.23	81.13
605.0	34.50	30.89	27.11	22.89	22.33	19.66	19.25	19.85	20.30	22.93	30.98	30.04	21.26	16.02	14.34	35.68	162.3	66.16	4.760	3.954	3.932	3.524	3.358	3.412	3.637	3.233	3.295	3.312	3.294	3.565	3.137	3.117	2.839	2.731	2.280	2.158	1.966	1.932	1.734	1.680	1.649	1.490	1.595	1.398	1.367	1.352	1.294	1.246	1.136	0.970	0.918	0.989	0.955	0.865	0.989	1.038	1.227	1.126	0.972	0.866	0.853	0.814	0.804	0.739	0.787	0.898	0.893	0.780	0.758	0.808	0.776	0.918	1.134	1.568	2.858	13.36	56.25
610.0	34.19	29.69	24.39	22.22	20.94	18.98	20.43	20.91	21.86	24.01	29.35	33.97	24.93	18.47	15.35	17.76	79.71	151.1	28.65	3.537	3.543	3.136	2.916	3.015	2.911	2.899	2.912	2.971	2.869	2.973	2.781	2.670	2.414	2.203	2.018	1.788	1.751	1.748	1.612	1.548	1.385	1.398	1.293	1.317	1.261	1.200	1.134	1.100	1.038	0.894	0.855	0.909	0.849	0.765	0.913	0.841	1.046	1.122	1.041	0.902	0.816	0.814	0.822	0.749	0.787	0.874	0.915	0.847	0.788	0.805	0.830	0.831	0.831	0.968	1.229	3.608	15.25
615.0	33.61	29.16	22.43	22.38	21.19	17.32	19.40	18.42	21.67	22.30	25.80	31.42	29.78	19.71	16.03	13.82	28.97	110.7	114.5	4.922	2.883	2.750	2.522	2.591	2.582	2.504	2.418	2.622	2.383	2.656	2.333	2.355	2.059	1.962	1.775	1.591	1.564	1.516	1.411	1.310	1.257	1.200	1.091	1.122	1.122	1.050	0.995	1.001	0.859	0.807	0.761	0.852	0.786	0.809	0.763	0.812	0.907	0.989	1.075	0.902	0.822	0.819	0.858	0.774	0.809	0.716	0.851	0.794	0.912	0.836	0.866	0.761	0.753	0.911	0.872	1.446	4.063
620.0	31.91	27.48	22.78	21.12	19.63	17.41	19.23	18.94	20.36	21.88	23.79	29.47	31.01	20.63	15.93	12.09	14.79	57.18	156.5	24.68	2.621	2.751	2.288	2.293	2.488	2.277	2.234	2.234	2.164	2.286	2.067	2.191	1.860	1.861	1.594	1.485	1.418	1.431	1.185	1.137	1.155	1.253	1.020	1.035	1.001	0.962	0.948	1.016	0.828	0.768	0.762	0.775	0.747	0.754	0.725	0.795	0.807	0.851	0.896	0.962	0.861	0.771	0.811	0.760	0.790	0.823	0.781	0.819	0.884	0.889	0.875	0.761	0.751	0.755	0.706	0.845	1.574
625.0	34.94	30.81	23.07	22.02	20.21	17.61	20.49	19.76	19.83	20.49	22.25	26.26	29.48	22.69	15.92	12.07	11.18	24.63	125.6	59.25	2.761	2.457	2.210	2.067	2.249	2.111	2.001	1.924	1.897	2.077	1.789	1.853	1.619	1.818	1.480	1.307	1.301	1.262	1.147	1.035	1.047	1.055	0.947	1.018	0.884	0.928	1.019	0.869	0.764	0.701	0.696	0.723	0.777	0.714	0.703	0.752	0.714	0.716	0.904	0.941	0.864	0.793	0.732	0.813	0.750	0.829	0.749	0.700	0.816	0.903	0.863	0.754	0.790	0.777	0.717	0.855	0.873
630.0	32.75	28.30	23.56	21.21	18.26	16.86	17.98	17.86	19.10	20.08	22.26	24.26	26.19	25.44	16.46	11.72	10.40	11.32	54.46	125.5	24.92	2.272	2.066	1.902	2.010	1.945	1.746	1.751	1.632	1.660	1.687	1.584	1.623	1.566	1.314	1.211	1.142	1.124	1.106	1.017	1.012	1.012	0.917	0.939	0.867	0.877	0.860	0.752	0.763	0.693	0.664	0.748	0.710	0.656	0.699	0.689	0.730	0.719	0.764	0.866	0.880	0.872	0.733	0.820	0.780	0.751	0.812	0.752	0.779	0.888	0.885	0.763	0.746	0.792	0.720	0.801	0.837
635.0	37.29	29.83	24.49	21.59	18.32	17.27	17.03	18.13	19.13	20.02	21.86	23.74	22.59	24.87	19.42	12.49	10.06	8.487	16.70	82.23	101.2	3.606	1.902	1.864	1.760	1.657	1.647	1.581	1.514	1.475	1.477	1.497	1.461	1.350	1.193	1.127	1.149	0.988	1.054	0.923	0.895	0.970	0.886	0.854	0.933	0.856	0.771	0.680	0.720	0.719	0.578	0.690	0.675	0.709	0.625	0.628	0.745	0.674	0.695	0.845	0.832	0.802	0.815	0.763	0.692	0.761	0.760	0.767	0.836	0.762	0.914	0.849	0.795	0.759	0.823	0.699	0.766
640.0	34.49	29.37	25.12	21.06	18.97	17.40	17.32	17.12	17.60	20.56	22.13	22.65	21.85	23.04	21.12	12.82	10.41	8.026	6.916	38.35	134.6	21.01	1.811	1.804	1.716	1.674	1.554	1.639	1.517	1.541	1.434	1.414	1.386	1.139	1.134	1.224	1.044	0.950	0.997	0.963	0.783	0.869	0.816	0.836	0.894	0.790	0.710	0.760	0.712	0.604	0.567	0.640	0.674	0.632	0.651	0.658	0.746	0.680	0.719	0.752	0.813	0.797	0.744	0.725	0.679	0.733	0.824	0.740	0.769	0.721	0.813	0.800	0.839	0.797	0.751	0.721	0.709
645.0	33.41	30.27	26.03	20.94	19.71	17.69	16.05	17.77	17.72	19.80	20.68	22.48	21.13	21.33	21.41	14.12	9.428	7.576	4.732	14.19	105.3	52.31	2.016	1.785	1.661	1.442	1.408	1.523	1.549	1.392	1.363	1.275	1.273	1.097	1.024	1.055	1.010	0.921	0.848	0.809	0.856	0.908	0.760	0.807	0.785	0.752	0.774	0.787	0.643	0.584	0.579	0.628	0.686	0.655	0.643	0.627	0.636	0.700	0.672	0.719	0.690	0.724	0.756	0.760	0.690	0.718	0.769	0.729	0.805	0.828	0.791	0.771	0.793	0.761	0.763	0.784	0.790
650.0	32.88	29.20	26.11	21.74	17.63	14.82	15.43	18.08	16.59	19.52	19.02	21.56	20.36	19.01	19.65	14.49	10.08	7.212	3.967	5.824	53.37	115.0	8.179	1.757	1.599	1.379	1.585	1.503	1.419	1.329	1.272	1.370	1.148	1.055	1.060	0.995	0.963	0.899	0.814	0.862	0.786	0.865	0.805	0.811	0.755	0.712	0.702	0.761	0.677	0.559	0.530	0.611	0.638	0.696	0.609	0.585	0.705	0.725	0.671	0.709	0.712	0.756	0.734	0.777	0.717	0.736	0.760	0.691	0.787	0.714	0.744	0.730	0.902	0.816	0.765	0.787	0.760
