Sample:	'1
File name:	Default_20230214_145024.FD3
Run date:	'14:44:03, 02/14/2023
Operator:	dsjg
Comment:	'

Instrument
Model:	F-2700 FL Spectrophotometer
Serial number:	2198-001
ROM Version:	4J14000 07

Instrument parameters
Measurement type:	3-D scan
Data mode:	Fluorescence
EX  Start WL:	220.0 nm
EX  End WL:	600.0 nm
EX Sampling interval:	5.0 nm
EM  Start WL:	230.0 nm
EM  End WL:	650.0 nm
EM Sampling interval:	5.0 nm
Scan speed:	12000 nm/min
EX Slit:	5.0 nm
EM Slit:	5.0 nm
PMT Voltage:	700 V
Response:	Auto 
Corrected spectra:	Off
Contour interval:	50.000

Peak integration
Integration method:	Rectangular
Sensitivity:	1
Threshold:	1.000

Peaks
No.	ApexEX/EM(nm)	Height(Data)
1	235.0/260.0	122.0
2	235.0/515.0	92.60
3	240.0/265.0	148.0
4	240.0/380.0	528.6
5	240.0/525.0	80.06
6	245.0/270.0	139.5
7	245.0/535.0	71.26
8	250.0/275.0	167.0
9	250.0/550.0	61.14
10	255.0/280.0	184.1
11	255.0/375.0	549.3
12	255.0/560.0	50.50
13	260.0/285.0	178.0
14	260.0/570.0	37.97
15	265.0/295.0	208.6
16	265.0/585.0	32.47
17	270.0/300.0	276.4
18	270.0/595.0	27.38
19	275.0/305.0	313.7
20	275.0/605.0	22.78
21	280.0/310.0	288.2
22	280.0/620.0	18.76
23	285.0/320.0	294.9
24	285.0/630.0	15.81
25	290.0/325.0	304.9
26	295.0/330.0	269.1
27	300.0/335.0	266.2
28	305.0/340.0	252.9
29	310.0/350.0	221.6
30	315.0/355.0	210.3
31	320.0/360.0	210.0
32	325.0/370.0	205.4
33	330.0/375.0	229.8
34	335.0/380.0	241.0
35	340.0/385.0	221.6
36	345.0/395.0	189.9
37	350.0/400.0	174.6
38	355.0/405.0	152.5
39	365.0/420.0	114.2
40	370.0/425.0	108.3
41	385.0/445.0	73.91
42	400.0/465.0	46.05
43	415.0/485.0	27.11
44	425.0/495.0	19.76
45	430.0/505.0	17.44
46	435.0/510.0	14.25
47	440.0/520.0	12.17
48	445.0/525.0	10.73
49	450.0/530.0	8.817
50	460.0/545.0	6.257

Data points
	220.0	225.0	230.0	235.0	240.0	245.0	250.0	255.0	260.0	265.0	270.0	275.0	280.0	285.0	290.0	295.0	300.0	305.0	310.0	315.0	320.0	325.0	330.0	335.0	340.0	345.0	350.0	355.0	360.0	365.0	370.0	375.0	380.0	385.0	390.0	395.0	400.0	405.0	410.0	415.0	420.0	425.0	430.0	435.0	440.0	445.0	450.0	455.0	460.0	465.0	470.0	475.0	480.0	485.0	490.0	495.0	500.0	505.0	510.0	515.0	520.0	525.0	530.0	535.0	540.0	545.0	550.0	555.0	560.0	565.0	570.0	575.0	580.0	585.0	590.0	595.0	600.0
230.0	10.56	262.4	621.6	116.9	3.345	1.274	0.927	0.889	0.562	0.603	0.527	0.620	0.508	0.431	0.316	0.348	0.288	0.295	0.262	0.252	0.227	0.227	0.189	0.242	0.202	0.169	0.152	0.176	0.172	0.144	0.147	0.129	0.139	0.095	0.147	0.210	0.273	0.208	0.195	0.157	0.180	0.172	0.187	0.160	0.128	0.129	0.155	0.453	1.223	1.513	0.844	0.211	0.080	0.059	0.067	0.063	0.050	0.054	0.045	0.043	0.035	0.040	0.036	0.033	0.037	0.034	0.034	0.053	0.034	0.021	0.017	0.018	0.017	0.016	0.004	0.019	0.014
235.0	12.83	79.05	523.4	558.6	187.0	6.346	1.473	1.442	0.753	0.839	0.729	0.721	0.430	0.557	0.293	0.298	0.319	0.331	0.291	0.260	0.201	0.218	0.184	0.219	0.287	0.154	0.156	0.197	0.177	0.124	0.177	0.134	0.118	0.123	0.101	0.113	0.198	0.242	0.195	0.182	0.180	0.157	0.176	0.134	0.200	0.135	0.116	0.189	0.469	0.960	1.634	2.361	1.663	0.435	0.112	0.070	0.050	0.067	0.050	0.082	0.037	0.054	0.039	0.033	0.029	0.043	0.027	0.038	0.015	0.017	0.025	0.014	0.012	0.024	0.014	0.000	0.007
240.0	21.84	28.78	185.6	621.9	703.0	148.4	3.519	1.464	1.083	1.161	0.687	0.706	0.491	0.548	0.526	0.380	0.373	0.343	0.387	0.293	0.197	0.238	0.204	0.189	0.251	0.196	0.156	0.174	0.116	0.160	0.136	0.103	0.113	0.110	0.067	0.126	0.161	0.229	0.166	0.202	0.235	0.164	0.149	0.153	0.193	0.203	0.220	0.171	0.190	0.320	0.714	2.152	3.631	3.078	1.302	0.245	0.062	0.084	0.063	0.053	0.048	0.054	0.026	0.022	0.037	0.046	0.024	0.016	0.034	0.024	0.041	0.033	0.027	0.009	0.012	0.009	0.037
245.0	23.93	43.22	52.89	259.9	866.0	721.4	91.75	2.058	1.645	1.267	1.092	0.673	0.664	0.590	0.561	0.338	0.343	0.296	0.316	0.252	0.288	0.286	0.229	0.267	0.216	0.218	0.149	0.151	0.140	0.111	0.104	0.094	0.155	0.104	0.094	0.181	0.136	0.181	0.213	0.190	0.204	0.241	0.129	0.172	0.169	0.190	0.223	0.285	0.153	0.162	0.255	0.649	1.963	4.049	4.799	2.985	0.868	0.110	0.109	0.027	0.060	0.075	0.072	0.026	0.025	0.047	0.028	0.013	0.025	0.015	0.026	0.015	0.012	0.004	0.017	0.007	0.031
250.0	11.45	45.98	73.13	83.13	324.9	827.9	739.8	162.1	15.23	1.764	1.085	0.897	0.843	0.776	0.683	0.500	0.366	0.368	0.307	0.312	0.294	0.300	0.267	0.251	0.226	0.193	0.199	0.121	0.162	0.127	0.170	0.142	0.155	0.124	0.118	0.145	0.105	0.116	0.145	0.159	0.208	0.204	0.188	0.151	0.162	0.158	0.165	0.261	0.359	0.352	0.280	0.265	0.574	1.266	2.331	3.875	4.888	4.500	2.722	0.915	0.131	0.065	0.064	0.028	0.022	0.027	0.040	0.007	0.030	0.033	0.034	0.014	0.025	0.033	0.017	0.020	0.027
255.0	4.744	15.94	76.90	105.0	98.97	235.4	766.9	 1223	218.6	13.17	1.987	1.059	0.878	0.737	0.747	0.667	0.493	0.324	0.292	0.357	0.428	0.305	0.248	0.269	0.191	0.176	0.249	0.218	0.217	0.134	0.167	0.186	0.162	0.135	0.126	0.137	0.094	0.129	0.108	0.115	0.203	0.185	0.170	0.187	0.136	0.153	0.158	0.146	0.216	0.306	0.483	0.550	0.410	0.366	0.605	1.001	1.669	3.697	6.783	7.584	4.351	1.038	0.084	0.053	0.043	0.042	0.072	0.018	0.053	0.032	0.025	0.024	0.030	0.029	0.007	0.054	0.032
260.0	2.757	6.705	33.59	122.0	104.4	68.51	266.6	 1099	 1275	174.7	7.443	1.895	1.097	0.924	0.734	0.581	0.595	0.387	0.451	0.439	0.418	0.263	0.402	0.262	0.207	0.143	0.231	0.232	0.196	0.135	0.192	0.184	0.138	0.162	0.113	0.143	0.165	0.102	0.108	0.089	0.182	0.182	0.188	0.182	0.196	0.154	0.136	0.162	0.188	0.202	0.288	0.584	0.780	0.507	0.310	0.286	0.455	1.099	2.810	6.309	8.883	7.040	2.894	0.402	0.040	0.047	0.067	0.015	0.025	0.041	0.017	0.066	0.031	0.015	0.031	0.066	0.016
265.0	3.239	4.874	12.09	67.10	148.0	77.06	71.89	411.2	 1390	 1215	132.7	3.883	1.470	1.202	1.042	0.741	0.574	0.668	0.637	0.412	0.301	0.257	0.351	0.221	0.246	0.188	0.198	0.208	0.184	0.155	0.152	0.168	0.168	0.116	0.121	0.146	0.103	0.116	0.094	0.099	0.141	0.172	0.202	0.194	0.176	0.162	0.128	0.184	0.154	0.148	0.145	0.285	0.605	0.853	0.633	0.293	0.240	0.315	0.733	1.947	4.616	8.655	9.910	5.878	1.463	0.160	0.075	0.052	0.035	0.025	0.019	0.044	0.043	0.043	0.024	0.021	0.010
270.0	4.620	7.066	7.038	20.64	82.62	139.5	91.65	111.2	471.9	 1160	 1344	506.2	30.40	1.692	1.199	0.880	0.696	0.592	0.516	0.419	0.352	0.293	0.388	0.281	0.314	0.217	0.257	0.259	0.183	0.207	0.146	0.190	0.198	0.100	0.150	0.146	0.121	0.106	0.095	0.092	0.100	0.100	0.184	0.204	0.165	0.197	0.179	0.171	0.174	0.122	0.120	0.146	0.246	0.441	0.644	0.707	0.704	0.478	0.311	0.535	1.170	2.547	4.546	6.746	7.990	7.277	4.256	1.298	0.128	0.035	0.025	0.037	0.043	0.045	0.029	0.019	0.025
275.0	8.339	10.60	10.54	9.791	23.96	75.45	167.0	116.8	124.1	309.1	952.8	 1681	725.0	30.42	1.959	1.062	0.961	0.776	0.581	0.556	0.455	0.377	0.351	0.353	0.271	0.311	0.196	0.220	0.237	0.177	0.184	0.210	0.205	0.168	0.162	0.137	0.116	0.121	0.129	0.093	0.079	0.072	0.093	0.136	0.210	0.171	0.166	0.212	0.169	0.141	0.139	0.095	0.152	0.184	0.262	0.329	0.725	1.164	0.922	0.541	0.400	0.656	1.112	1.656	2.605	5.511	9.356	10.37	6.032	1.045	0.087	0.027	0.049	0.055	0.030	0.051	0.012
280.0	15.99	22.92	15.68	10.15	12.27	29.79	125.3	184.1	97.23	91.80	308.0	 1206	 1743	555.2	10.67	1.435	1.113	1.162	0.719	0.571	0.483	0.397	0.396	0.312	0.297	0.321	0.294	0.241	0.253	0.222	0.225	0.274	0.140	0.198	0.147	0.200	0.106	0.141	0.145	0.107	0.088	0.091	0.147	0.114	0.159	0.195	0.212	0.250	0.208	0.155	0.201	0.141	0.159	0.143	0.131	0.162	0.348	0.720	1.163	1.139	0.661	0.381	0.384	0.503	0.764	1.621	3.729	7.662	11.51	9.250	3.602	0.382	0.046	0.056	0.018	0.063	0.038
285.0	22.21	28.30	24.04	17.10	13.17	17.74	55.52	166.0	178.0	70.74	102.3	427.0	 1401	 1650	96.88	3.763	1.293	1.084	0.911	0.779	0.556	0.448	0.473	0.385	0.344	0.342	0.307	0.243	0.235	0.174	0.184	0.208	0.194	0.161	0.139	0.175	0.132	0.121	0.103	0.148	0.084	0.093	0.125	0.168	0.156	0.186	0.219	0.288	0.257	0.264	0.153	0.198	0.184	0.158	0.150	0.143	0.233	0.326	0.515	0.992	1.226	0.918	0.378	0.274	0.392	0.551	1.039	2.425	5.592	9.907	12.43	6.941	1.401	0.083	0.068	0.044	0.028
290.0	30.59	37.40	35.36	25.09	19.82	20.59	32.16	83.66	176.0	185.8	106.2	147.5	462.9	 1130	 1376	369.0	22.46	1.683	1.104	0.885	0.687	0.577	0.497	0.466	0.407	0.333	0.301	0.302	0.246	0.238	0.183	0.228	0.194	0.166	0.136	0.182	0.184	0.180	0.138	0.148	0.118	0.102	0.108	0.166	0.157	0.154	0.209	0.281	0.293	0.252	0.233	0.223	0.204	0.203	0.189	0.197	0.201	0.242	0.294	0.469	0.746	0.983	1.144	1.020	0.679	0.406	0.476	0.819	1.568	3.008	5.698	7.974	8.898	8.006	4.274	1.077	0.069
295.0	35.95	45.79	48.00	32.65	28.67	29.25	32.84	51.58	96.66	208.6	206.8	130.3	161.0	311.7	764.4	 1604	555.5	24.96	1.705	1.252	0.905	0.767	0.557	0.573	0.517	0.394	0.331	0.248	0.234	0.287	0.270	0.251	0.239	0.190	0.172	0.199	0.200	0.155	0.134	0.163	0.123	0.160	0.123	0.158	0.158	0.130	0.159	0.259	0.293	0.305	0.277	0.235	0.224	0.272	0.207	0.226	0.224	0.242	0.293	0.267	0.397	0.505	0.692	1.206	1.629	1.120	0.657	0.554	0.683	0.933	1.493	2.053	3.120	6.011	10.70	11.96	5.366
300.0	43.84	48.29	52.76	39.69	34.80	36.42	41.90	49.54	73.39	152.4	276.4	186.8	114.4	117.9	246.2	 1004	 1768	429.0	8.420	1.740	1.160	0.880	0.761	0.647	0.460	0.452	0.300	0.316	0.304	0.308	0.300	0.307	0.178	0.220	0.244	0.197	0.205	0.196	0.207	0.118	0.187	0.117	0.116	0.137	0.133	0.187	0.244	0.254	0.327	0.313	0.283	0.321	0.267	0.247	0.243	0.202	0.238	0.255	0.333	0.282	0.331	0.439	0.522	0.818	1.274	1.662	1.451	0.918	0.590	0.583	0.614	0.692	0.924	1.802	4.419	9.987	13.61
305.0	39.54	53.95	58.00	49.47	44.50	46.91	48.87	59.25	74.09	117.0	227.3	313.7	154.2	91.38	96.27	339.5	 1265	 1833	63.28	3.553	1.383	1.117	0.711	0.668	0.471	0.558	0.391	0.392	0.392	0.276	0.251	0.280	0.189	0.233	0.253	0.182	0.208	0.227	0.188	0.179	0.165	0.148	0.128	0.151	0.155	0.178	0.229	0.241	0.305	0.307	0.287	0.289	0.315	0.259	0.262	0.315	0.324	0.290	0.382	0.313	0.378	0.462	0.509	0.541	0.822	1.278	1.696	1.684	0.948	0.658	0.526	0.432	0.469	0.613	1.257	3.137	7.158
310.0	40.29	60.28	67.77	56.48	54.96	61.13	64.04	74.92	88.29	114.7	168.6	257.3	288.2	162.7	81.73	115.9	394.0	 1145	 1479	663.4	16.95	1.442	1.147	0.810	0.705	0.562	0.489	0.449	0.416	0.311	0.348	0.297	0.233	0.248	0.216	0.213	0.242	0.180	0.227	0.182	0.206	0.140	0.147	0.151	0.152	0.184	0.254	0.242	0.266	0.288	0.293	0.311	0.380	0.333	0.349	0.387	0.350	0.382	0.426	0.472	0.471	0.492	0.561	0.595	0.723	0.866	1.057	1.464	1.631	1.523	1.032	0.597	0.473	0.469	0.566	0.916	1.927
315.0	49.62	69.53	79.88	66.42	67.05	72.72	83.61	90.41	103.8	127.0	161.5	197.6	256.2	293.1	116.0	86.65	133.9	303.8	723.1	 1834	412.8	17.00	1.480	1.194	0.787	0.606	0.521	0.572	0.469	0.460	0.359	0.341	0.300	0.224	0.301	0.211	0.218	0.188	0.218	0.172	0.179	0.147	0.163	0.146	0.195	0.178	0.242	0.263	0.323	0.311	0.270	0.345	0.368	0.377	0.417	0.455	0.445	0.486	0.602	0.510	0.539	0.557	0.604	0.684	0.711	0.801	0.842	0.901	1.042	1.388	1.905	1.530	0.852	0.568	0.429	0.462	0.697
320.0	64.56	100.7	110.6	84.05	78.42	85.65	97.76	107.0	125.7	148.3	179.5	198.4	224.6	294.9	253.8	102.4	92.10	113.9	222.6	 1003	 1803	319.4	6.839	1.612	1.211	0.807	0.609	0.625	0.578	0.409	0.405	0.322	0.254	0.258	0.315	0.232	0.216	0.223	0.198	0.193	0.143	0.178	0.175	0.181	0.231	0.203	0.318	0.324	0.369	0.387	0.340	0.369	0.433	0.419	0.475	0.524	0.534	0.554	0.607	0.544	0.630	0.658	0.699	0.689	0.855	0.824	0.950	0.847	1.014	1.066	1.439	1.788	1.681	0.980	0.582	0.506	0.513
325.0	85.30	145.0	161.1	116.0	94.09	97.17	113.5	123.7	143.8	169.8	202.1	224.7	230.3	251.9	304.9	199.2	98.06	84.27	89.66	308.6	 1259	 1689	49.11	2.982	1.425	0.994	0.714	0.612	0.544	0.481	0.413	0.381	0.397	0.330	0.301	0.280	0.190	0.231	0.220	0.205	0.219	0.200	0.203	0.183	0.227	0.285	0.404	0.545	0.504	0.569	0.429	0.480	0.432	0.483	0.558	0.577	0.551	0.690	0.701	0.606	0.711	0.778	0.798	0.836	0.908	0.956	1.162	1.063	1.028	1.086	1.210	1.284	1.756	1.668	1.102	0.744	0.684
330.0	105.2	179.6	205.3	154.0	116.4	113.4	126.8	140.3	161.4	191.9	226.7	254.7	255.0	242.7	254.4	269.1	184.6	100.0	72.84	103.7	366.1	 1072	 1489	596.9	14.13	1.496	1.061	0.796	0.625	0.525	0.573	0.410	0.440	0.290	0.298	0.291	0.273	0.209	0.238	0.190	0.213	0.217	0.240	0.195	0.278	0.340	0.448	0.600	0.710	0.692	0.590	0.624	0.535	0.576	0.553	0.592	0.627	0.674	0.802	0.730	0.723	0.838	0.942	0.959	1.129	1.060	1.135	1.162	1.260	1.238	1.199	1.133	1.346	1.383	1.576	1.481	1.186
335.0	122.1	212.2	254.5	193.4	152.2	143.9	151.9	167.9	189.4	219.0	258.7	282.0	289.4	272.8	242.2	233.4	266.2	172.1	87.85	68.88	114.8	271.9	709.3	 1853	342.5	15.79	1.689	1.089	0.846	0.652	0.536	0.598	0.427	0.347	0.369	0.308	0.260	0.248	0.246	0.236	0.219	0.221	0.216	0.197	0.287	0.425	0.493	0.673	0.833	0.843	0.697	0.783	0.718	0.665	0.648	0.668	0.746	0.861	0.944	0.845	0.931	0.908	0.917	0.994	1.257	1.227	1.293	1.345	1.349	1.313	1.304	1.310	1.317	1.451	1.219	1.366	1.582
340.0	140.4	243.1	291.3	237.1	194.3	179.6	184.5	192.4	216.8	246.7	280.5	310.9	319.0	302.2	262.7	222.1	239.0	252.9	124.6	71.90	67.80	91.90	202.6	 1034	 1837	281.3	5.623	1.569	1.077	0.805	0.581	0.550	0.401	0.362	0.411	0.338	0.252	0.290	0.234	0.251	0.202	0.206	0.198	0.205	0.345	0.453	0.611	0.737	0.936	0.946	0.875	0.885	0.804	0.808	0.821	0.749	0.824	0.981	0.994	0.931	0.994	1.048	1.080	1.285	1.348	1.423	1.374	1.500	1.525	1.618	1.531	1.420	1.435	1.458	1.343	1.192	1.311
345.0	140.2	262.5	320.7	274.6	235.5	211.5	217.7	223.4	245.3	265.6	300.1	330.1	339.0	320.3	280.1	229.2	209.1	250.8	195.6	89.67	65.29	59.90	74.51	306.3	 1361	 1693	42.65	2.868	1.316	1.089	0.682	0.664	0.554	0.489	0.422	0.331	0.257	0.312	0.225	0.278	0.227	0.195	0.278	0.274	0.318	0.435	0.630	0.793	0.984	1.092	1.042	1.022	1.053	0.955	0.969	0.884	0.927	0.967	1.161	1.096	1.145	1.215	1.229	1.336	1.382	1.421	1.476	1.594	1.575	1.710	1.686	1.643	1.528	1.360	1.372	1.281	1.046
350.0	138.6	262.9	341.9	330.0	297.0	281.0	283.9	293.7	303.0	319.1	341.8	359.0	364.6	345.1	306.1	252.1	209.4	204.1	221.6	170.5	89.83	65.94	58.40	98.90	385.2	 1138	 1480	576.6	12.63	1.494	0.979	0.751	0.554	0.479	0.448	0.339	0.326	0.313	0.278	0.256	0.263	0.278	0.278	0.294	0.354	0.390	0.580	0.846	1.053	1.098	1.073	1.221	1.282	1.184	1.165	1.111	1.200	1.384	1.414	1.490	1.406	1.454	1.539	1.548	1.608	1.567	1.608	1.726	1.775	1.817	1.712	1.787	1.623	1.520	1.446	1.283	1.271
355.0	147.6	261.0	360.6	373.8	367.0	365.6	378.6	394.1	392.5	382.9	390.3	399.6	391.6	374.9	335.9	280.1	229.6	201.5	187.3	210.3	160.0	87.42	67.30	65.14	116.9	283.2	718.5	 1903	315.8	14.71	1.590	1.057	0.762	0.655	0.465	0.392	0.407	0.350	0.315	0.265	0.267	0.277	0.314	0.313	0.335	0.492	0.632	0.809	1.063	1.161	1.096	1.291	1.456	1.431	1.540	1.365	1.624	1.620	1.806	1.819	1.867	1.913	1.967	1.863	1.893	1.802	1.829	1.859	1.829	1.801	1.874	1.872	1.835	1.631	1.610	1.463	1.331
360.0	143.4	265.3	367.3	401.1	404.2	403.3	425.1	454.1	445.7	424.8	420.2	417.9	414.6	392.7	351.4	295.6	247.4	208.9	180.5	185.3	210.0	127.7	80.15	65.96	63.74	89.57	198.0	 1082	 1770	264.9	5.625	1.347	0.842	0.576	0.581	0.425	0.359	0.389	0.302	0.308	0.311	0.257	0.279	0.362	0.407	0.501	0.655	0.835	1.062	1.136	1.155	1.356	1.484	1.615	1.635	1.567	1.792	1.912	2.057	2.151	2.089	2.185	2.207	2.010	1.937	1.876	1.847	1.963	1.982	1.969	2.016	1.985	1.884	1.841	1.625	1.544	1.531
365.0	137.2	250.8	362.5	418.4	426.4	424.7	457.2	476.3	489.0	454.9	439.1	431.8	417.1	394.0	360.8	306.5	255.3	216.6	188.7	168.4	196.1	185.4	104.9	76.94	61.16	55.00	69.09	307.7	 1352	 1644	40.20	2.696	1.233	0.792	0.713	0.492	0.413	0.415	0.365	0.331	0.331	0.247	0.294	0.325	0.346	0.467	0.637	0.754	0.958	1.178	1.144	1.421	1.643	1.755	1.685	1.694	2.062	1.932	2.238	2.268	2.285	2.337	2.464	2.192	2.041	2.131	1.858	1.846	2.077	1.958	1.954	1.963	1.912	1.871	1.572	1.628	1.636
370.0	142.0	255.1	379.5	453.8	480.6	477.3	492.4	524.1	525.7	498.1	476.2	459.6	431.1	398.9	365.5	314.1	271.3	236.7	210.3	185.1	181.2	205.4	191.7	125.3	90.90	72.69	61.21	99.16	381.5	 1145	 1506	505.6	11.66	1.381	0.843	0.628	0.514	0.416	0.364	0.327	0.347	0.308	0.324	0.363	0.380	0.498	0.608	0.785	1.004	1.221	1.303	1.668	1.869	1.929	1.848	1.893	2.139	2.221	2.402	2.347	2.463	2.366	2.494	2.339	2.358	2.297	2.105	2.113	2.097	2.045	2.031	2.019	1.984	1.888	1.696	1.659	1.675
375.0	143.8	260.1	397.9	485.6	527.8	514.2	515.1	549.3	547.8	528.8	516.1	501.3	445.2	402.1	366.5	320.9	285.6	253.5	232.0	210.4	196.3	201.4	229.8	213.9	143.6	117.9	89.22	71.44	116.7	283.6	769.5	 1758	280.1	13.41	1.299	0.851	0.650	0.496	0.384	0.355	0.345	0.314	0.427	0.340	0.432	0.495	0.636	0.738	1.055	1.190	1.332	1.807	2.020	2.116	2.095	2.200	2.239	2.285	2.551	2.491	2.642	2.568	2.504	2.616	2.523	2.400	2.400	2.337	2.140	2.091	2.019	1.966	2.089	1.893	1.782	1.771	1.671
380.0	132.3	242.2	381.5	479.9	528.6	515.3	505.4	543.9	544.2	526.5	515.1	499.3	442.7	399.5	358.7	314.7	285.1	257.4	239.3	218.4	202.4	200.5	208.4	241.0	187.9	134.2	99.60	71.76	63.12	89.43	213.3	 1025	 1605	225.1	4.711	1.030	0.841	0.606	0.447	0.421	0.417	0.301	0.330	0.374	0.436	0.510	0.546	0.752	1.109	1.134	1.333	1.728	2.195	2.175	2.024	2.110	2.151	2.339	2.446	2.579	2.616	2.552	2.536	2.439	2.390	2.460	2.359	2.361	2.155	1.991	1.977	1.866	1.974	1.997	1.803	1.915	1.704
385.0	125.9	233.4	367.0	465.5	512.6	502.4	492.3	524.6	528.8	511.5	492.7	482.5	432.6	387.2	350.3	312.5	279.6	259.3	240.0	221.4	201.9	198.6	192.8	215.6	221.6	150.3	103.0	75.11	56.86	49.90	73.22	298.6	 1241	 1360	33.08	1.879	0.884	0.722	0.567	0.469	0.370	0.343	0.349	0.371	0.476	0.512	0.582	0.847	1.023	1.073	1.300	1.668	2.089	2.134	2.026	2.122	2.062	2.335	2.289	2.382	2.434	2.433	2.458	2.360	2.356	2.399	2.295	2.331	2.031	1.978	2.081	1.902	1.918	2.005	1.678	1.930	1.715
390.0	126.1	222.5	356.0	450.8	495.4	481.7	481.6	494.7	499.6	482.2	466.9	458.6	409.0	366.8	332.9	302.2	278.2	259.1	242.7	221.7	209.9	201.3	193.1	191.7	205.8	189.0	124.6	83.47	60.53	46.26	46.75	89.37	342.6	944.9	 1178	404.0	9.829	0.995	0.711	0.608	0.405	0.379	0.332	0.394	0.470	0.526	0.548	0.711	0.954	1.115	1.247	1.638	1.915	1.932	2.061	1.897	2.079	2.156	2.068	2.294	2.286	2.387	2.337	2.312	2.136	2.243	2.139	2.150	2.011	1.930	1.972	1.862	1.892	1.876	1.612	1.757	1.639
395.0	126.7	206.1	321.1	426.3	478.4	465.0	450.4	468.1	463.4	454.2	439.5	433.8	384.7	344.4	316.7	288.1	273.2	255.8	238.9	224.4	213.6	205.6	198.0	187.9	182.3	189.9	169.5	102.3	68.63	50.46	44.81	45.26	92.32	224.6	599.7	 1392	232.0	11.55	1.008	0.762	0.578	0.475	0.359	0.362	0.474	0.524	0.525	0.710	0.910	1.038	1.110	1.642	1.878	1.934	1.922	1.890	1.938	1.957	2.084	2.115	2.131	2.312	2.202	2.148	1.919	1.923	2.085	2.086	1.921	1.917	1.845	1.740	1.742	1.612	1.595	1.646	1.616
400.0	106.7	204.1	303.8	403.8	451.6	441.8	440.6	436.5	441.7	433.9	413.5	414.0	365.8	329.6	303.4	278.0	263.7	244.7	233.3	220.3	211.2	203.5	192.8	183.3	173.6	167.9	174.6	133.0	76.75	56.38	47.96	39.91	39.15	61.41	155.4	808.2	 1292	196.3	4.313	0.847	0.610	0.542	0.392	0.383	0.417	0.448	0.530	0.687	0.850	0.973	1.182	1.555	1.833	1.832	1.907	1.810	1.931	1.854	2.159	1.975	1.975	2.149	2.108	1.796	1.919	1.782	2.007	1.859	1.826	1.814	1.889	1.665	1.658	1.587	1.535	1.633	1.537
405.0	108.0	195.2	302.3	384.7	433.1	424.0	415.6	414.1	422.5	407.0	387.6	385.6	347.7	317.6	290.5	267.4	250.8	236.6	225.0	213.6	203.2	197.5	188.9	177.5	167.8	152.1	149.5	152.5	96.34	62.98	52.33	42.09	31.02	27.94	44.28	222.2	955.9	 1144	29.66	1.817	0.762	0.561	0.561	0.405	0.421	0.453	0.564	0.683	0.740	0.928	1.042	1.551	1.759	1.748	1.806	1.789	1.869	1.871	1.894	1.884	2.024	2.079	2.005	1.817	1.860	1.648	1.881	1.817	1.662	1.653	1.633	1.630	1.700	1.545	1.523	1.449	1.507
410.0	102.9	180.9	276.4	351.1	407.5	403.9	404.9	396.5	392.0	375.0	360.1	350.5	321.1	297.1	275.3	253.5	236.2	224.9	214.2	204.1	193.3	187.6	178.3	169.4	158.1	142.5	129.1	133.0	122.9	82.39	58.01	46.36	33.61	24.76	23.06	59.38	257.9	774.9	955.3	340.8	8.996	0.827	0.656	0.565	0.472	0.449	0.554	0.631	0.783	0.944	1.010	1.395	1.538	1.672	1.714	1.655	1.770	1.776	1.832	1.896	1.882	1.864	1.876	1.648	1.640	1.489	1.681	1.645	1.476	1.557	1.551	1.462	1.550	1.404	1.376	1.539	1.538
415.0	98.49	175.9	252.4	331.3	382.7	382.4	385.0	385.2	368.3	346.2	335.4	327.9	295.4	272.8	253.0	236.4	222.2	213.6	205.0	192.0	184.5	176.8	169.8	160.8	152.3	136.8	120.0	111.4	115.6	114.2	74.40	50.47	37.78	27.77	21.68	25.68	66.85	183.6	480.2	 1110	209.4	10.54	0.932	0.633	0.472	0.501	0.516	0.655	0.781	0.944	0.939	1.235	1.491	1.565	1.639	1.608	1.812	1.709	1.765	1.692	1.747	1.674	1.698	1.576	1.605	1.628	1.564	1.457	1.359	1.395	1.372	1.322	1.398	1.443	1.247	1.421	1.433
420.0	100.4	164.7	236.1	312.8	358.7	369.4	371.9	374.6	353.2	335.5	317.9	308.5	280.7	257.7	237.2	222.9	212.9	202.5	192.3	182.5	175.6	170.5	161.9	154.8	146.5	132.8	119.2	106.0	100.6	114.2	96.01	57.47	40.68	30.44	23.39	19.43	25.38	49.32	123.0	622.2	 1080	176.2	4.327	0.783	0.580	0.580	0.544	0.695	0.704	0.882	0.932	1.157	1.466	1.457	1.625	1.539	1.772	1.880	1.725	1.700	1.646	1.746	1.544	1.571	1.518	1.453	1.377	1.440	1.370	1.258	1.211	1.256	1.359	1.348	1.261	1.313	1.277
425.0	94.13	154.3	224.1	302.4	339.1	353.4	368.3	356.3	334.9	316.2	305.6	288.6	267.2	244.3	227.3	210.2	199.8	192.7	182.4	175.0	165.2	162.3	155.5	148.7	139.2	129.5	116.5	103.6	95.73	99.43	108.3	72.96	45.05	33.37	25.66	19.93	17.86	19.59	33.99	167.3	786.2	904.1	28.52	1.464	0.730	0.634	0.582	0.606	0.696	0.782	0.873	1.068	1.254	1.371	1.550	1.603	1.626	1.795	1.703	1.690	1.560	1.673	1.411	1.508	1.690	1.457	1.352	1.308	1.385	1.387	1.146	1.181	1.338	1.129	1.121	1.173	1.229
430.0	87.66	139.2	208.0	270.4	320.4	332.4	349.6	344.5	321.6	302.3	287.0	273.1	252.2	231.6	214.6	198.1	188.3	180.9	173.2	163.8	157.6	151.7	146.5	141.0	134.7	125.1	114.3	103.8	94.19	88.82	95.21	91.67	60.20	38.28	28.98	22.58	17.79	14.83	15.15	42.79	209.8	599.9	755.8	294.3	8.393	0.840	0.651	0.687	0.724	0.787	0.879	1.105	1.281	1.321	1.483	1.522	1.536	1.681	1.653	1.660	1.547	1.445	1.403	1.359	1.348	1.283	1.319	1.268	1.348	1.185	1.109	1.165	1.178	1.080	1.128	1.042	1.243
435.0	96.25	136.1	198.1	251.9	300.1	318.6	331.4	331.8	309.8	286.7	272.0	256.2	237.2	217.3	201.6	182.2	177.2	165.9	162.6	154.1	146.4	142.8	138.8	134.0	126.6	120.5	111.6	102.4	94.43	87.03	83.38	84.49	81.54	51.02	33.27	25.73	20.30	15.92	12.75	15.99	51.23	139.9	366.5	959.5	195.9	9.891	0.901	0.742	0.831	0.768	0.839	1.058	1.159	1.254	1.300	1.385	1.533	1.583	1.645	1.587	1.514	1.325	1.350	1.303	1.289	1.307	1.205	1.226	1.308	1.238	1.127	1.180	1.116	1.067	1.056	1.052	1.199
440.0	134.4	134.2	188.4	241.9	280.1	313.0	327.4	322.6	298.8	276.3	262.4	246.6	226.7	208.9	191.5	174.6	167.8	157.6	152.3	146.4	140.6	136.0	132.5	127.5	121.9	117.3	109.1	102.9	94.97	87.77	80.00	74.75	80.48	66.44	38.52	28.21	21.65	16.78	13.27	10.86	16.43	35.09	92.47	563.6	951.4	157.1	2.920	0.889	0.863	0.768	0.769	0.979	1.139	1.143	1.302	1.325	1.501	1.494	1.548	1.535	1.345	1.267	1.429	1.324	1.269	1.271	1.119	1.112	1.176	1.140	1.125	1.081	1.007	1.041	0.988	0.997	1.056
445.0	173.7	128.6	185.9	232.6	273.2	298.3	325.2	315.2	293.4	269.9	257.2	238.8	218.4	201.4	183.8	166.6	158.7	150.0	144.0	138.3	133.3	128.5	125.2	122.9	117.3	112.4	106.9	100.2	95.74	87.98	80.02	70.80	70.92	73.91	49.31	30.91	23.09	18.53	14.28	10.82	9.506	12.20	24.23	155.5	743.0	825.0	23.14	1.470	0.858	0.837	0.762	0.874	1.048	1.155	1.231	1.316	1.583	1.499	1.544	1.510	1.291	1.243	1.328	1.269	1.201	1.177	1.120	1.023	1.096	1.112	1.116	1.004	0.985	1.004	0.931	0.872	1.018
450.0	161.1	196.9	170.5	216.7	251.4	276.4	301.2	296.0	273.4	254.4	236.5	224.2	205.5	186.8	170.1	153.3	145.1	137.6	131.7	127.3	123.3	119.2	115.8	114.3	110.2	105.5	100.8	96.30	92.69	86.09	78.64	69.15	61.60	63.43	60.12	39.71	26.04	19.88	15.24	11.79	9.357	8.064	9.453	38.11	199.1	583.7	714.6	254.0	7.088	0.957	0.832	0.872	1.085	1.088	1.150	1.247	1.407	1.394	1.332	1.357	1.388	1.312	1.233	1.283	1.238	1.054	1.066	1.022	1.016	0.993	0.969	0.988	0.907	0.897	0.903	0.800	0.889
455.0	103.5	301.0	191.2	200.2	229.8	248.4	282.1	271.6	255.4	238.2	224.7	211.1	190.7	174.9	156.6	142.7	130.9	123.2	119.6	116.3	110.8	108.8	106.7	104.2	100.9	98.34	94.83	91.14	87.89	83.71	75.43	67.04	58.61	51.82	52.64	51.52	32.88	21.49	16.99	13.33	10.21	8.398	6.893	12.44	47.53	135.4	347.4	814.1	165.1	8.102	0.954	0.979	1.050	0.992	1.098	1.149	1.234	1.239	1.302	1.351	1.363	1.197	1.188	1.202	1.073	0.937	0.966	1.031	1.058	0.919	0.912	0.881	0.939	0.876	0.867	0.765	0.758
460.0	71.59	311.0	261.4	181.4	207.5	234.2	268.2	262.3	240.7	226.4	213.1	195.7	179.8	160.1	146.8	132.8	120.8	114.5	110.7	107.5	103.2	101.7	99.21	98.46	95.32	92.50	89.41	87.47	83.73	80.79	74.43	65.11	55.77	48.07	43.72	49.89	41.62	24.35	17.81	14.10	10.75	8.570	6.862	6.786	14.09	33.00	86.40	467.5	772.6	123.8	3.147	0.967	1.118	0.914	1.051	1.068	1.187	1.289	1.218	1.352	1.196	1.093	1.099	1.080	1.066	0.912	0.969	0.981	0.884	0.752	0.839	0.830	0.892	0.809	0.802	0.730	0.675
465.0	54.85	247.5	364.0	196.7	200.5	222.9	244.3	248.2	229.0	218.8	201.2	186.1	169.9	148.7	137.8	122.3	112.2	107.1	103.0	99.71	95.29	93.21	92.55	91.35	89.46	86.00	84.12	82.87	78.87	77.06	72.81	62.63	53.66	46.94	40.00	42.17	46.05	29.73	19.41	14.72	11.81	9.267	7.548	6.320	6.859	10.64	21.79	126.5	601.3	647.5	18.73	1.603	1.108	0.885	1.029	1.090	1.259	1.238	1.232	1.212	1.195	1.012	1.131	0.977	1.017	0.936	0.895	0.880	0.990	0.902	0.774	0.841	0.833	0.752	0.832	0.672	0.738
470.0	47.26	134.5	384.2	374.0	186.1	204.2	222.8	224.3	212.2	199.0	187.2	172.5	153.6	138.6	125.5	110.6	101.0	96.85	92.43	89.71	85.71	83.98	83.19	82.79	80.55	77.70	77.18	75.89	74.02	71.61	67.48	59.65	51.77	44.47	37.86	34.56	37.43	35.66	24.34	15.88	12.34	9.940	8.019	6.634	5.880	5.765	7.580	30.74	162.2	453.8	544.3	93.36	7.007	1.055	1.015	1.050	1.081	1.120	1.151	1.092	1.077	0.906	0.961	0.936	0.969	0.877	0.827	0.808	0.866	0.785	0.741	0.718	0.743	0.676	0.744	0.677	0.663
475.0	47.46	81.39	233.4	596.3	242.3	184.6	201.8	197.3	195.9	183.3	170.6	156.0	137.7	126.4	112.9	99.66	90.70	85.55	81.17	79.66	76.75	75.51	73.59	73.60	72.23	69.64	69.18	67.98	67.76	66.24	62.66	56.04	48.28	42.03	35.49	31.29	29.01	31.00	30.82	20.14	12.79	10.76	8.713	6.888	6.122	5.048	4.806	9.368	38.35	104.6	246.5	584.1	156.0	7.255	1.030	0.972	0.946	1.032	1.078	0.969	0.937	0.876	0.907	0.818	0.848	0.848	0.785	0.742	0.721	0.692	0.647	0.688	0.591	0.658	0.591	0.583	0.525
480.0	48.47	69.91	140.3	582.1	376.4	174.9	181.8	188.5	179.8	173.1	162.8	148.3	131.3	117.6	103.6	90.78	82.31	78.87	74.14	73.08	70.90	69.24	67.49	66.95	65.90	65.00	65.17	64.28	63.27	60.57	58.84	51.84	45.65	39.54	34.18	30.13	26.29	25.73	29.65	25.14	14.64	10.97	9.016	7.329	6.315	5.317	4.461	4.854	10.82	25.35	61.21	319.0	594.4	126.3	2.737	1.025	1.076	0.930	1.055	0.897	0.955	0.862	0.885	0.696	0.808	0.753	0.636	0.727	0.690	0.655	0.634	0.589	0.552	0.633	0.539	0.590	0.523
485.0	50.12	66.34	102.5	398.1	517.0	210.1	171.4	176.1	172.2	161.0	147.8	138.3	125.0	109.9	95.74	85.51	77.42	74.03	68.89	67.14	63.78	62.87	62.66	61.78	61.39	60.90	60.40	59.59	59.51	57.12	55.03	49.19	43.46	37.98	33.59	28.55	25.23	22.81	24.69	27.11	18.78	11.67	9.337	7.822	6.480	5.630	4.633	4.062	4.855	7.759	15.69	84.23	450.4	561.5	22.35	1.459	1.151	0.983	1.031	0.946	0.827	0.801	0.810	0.702	0.801	0.769	0.664	0.637	0.663	0.640	0.580	0.578	0.557	0.535	0.494	0.528	0.544
490.0	46.30	67.93	88.11	194.8	473.4	374.1	169.1	160.2	151.9	145.8	135.1	126.5	114.7	101.1	88.19	77.71	69.89	66.98	61.98	60.36	58.31	56.83	56.94	55.73	54.88	55.53	54.60	53.41	53.93	52.59	50.28	46.03	40.58	35.72	31.15	27.22	24.10	21.04	19.98	22.25	22.22	15.33	9.951	8.181	6.960	5.956	5.047	4.334	3.985	4.157	5.419	20.64	119.0	363.9	452.4	97.89	6.912	1.015	0.943	0.883	0.791	0.756	0.800	0.681	0.690	0.701	0.645	0.616	0.548	0.575	0.543	0.562	0.476	0.518	0.499	0.413	0.412
495.0	38.07	67.66	82.48	116.1	260.3	547.4	246.8	144.6	135.1	132.1	125.5	115.7	104.8	90.98	79.80	68.62	61.57	58.38	55.05	53.75	51.23	49.61	50.20	49.92	48.44	49.41	48.08	48.47	48.33	48.31	45.87	41.45	36.65	32.46	29.09	25.50	22.55	19.62	17.53	17.14	19.32	19.76	12.73	8.567	7.354	6.293	5.335	4.570	3.838	3.581	3.316	6.654	28.22	84.23	233.9	550.5	162.0	6.491	0.988	0.843	0.816	0.749	0.749	0.756	0.636	0.637	0.551	0.554	0.544	0.531	0.541	0.499	0.500	0.496	0.391	0.387	0.416
500.0	30.66	66.87	84.47	93.77	146.7	482.8	374.2	135.8	125.9	120.1	114.8	107.6	93.54	83.60	73.40	62.24	55.67	53.26	50.23	47.92	46.90	44.79	45.18	44.41	44.75	43.68	43.98	43.85	44.48	44.29	42.19	38.03	33.86	29.95	26.24	23.81	21.50	18.83	16.82	14.79	15.32	18.98	15.83	9.802	7.477	6.370	5.313	4.586	4.116	3.564	2.961	3.678	8.109	20.51	58.60	308.3	576.8	124.5	2.497	0.910	0.771	0.621	0.735	0.662	0.580	0.554	0.551	0.493	0.556	0.498	0.493	0.441	0.460	0.368	0.391	0.286	0.413
505.0	30.39	55.30	88.31	84.98	107.7	304.9	539.0	181.0	116.5	112.0	106.0	97.59	86.97	76.72	65.86	59.11	51.54	47.73	45.52	44.17	43.56	41.03	42.04	39.75	40.52	40.86	40.45	39.50	40.71	40.03	38.49	35.15	31.29	27.54	24.39	21.62	20.08	17.59	15.70	14.10	13.00	15.58	17.44	11.86	7.735	6.348	5.661	4.640	4.394	3.796	3.079	2.902	3.625	6.203	14.66	81.69	425.9	494.8	22.88	1.267	0.821	0.670	0.651	0.666	0.585	0.562	0.508	0.459	0.500	0.421	0.416	0.434	0.382	0.316	0.417	0.294	0.324
510.0	23.32	40.92	80.12	84.66	87.71	151.7	446.3	370.1	119.8	100.3	94.26	84.57	76.20	68.43	57.97	51.18	45.50	41.92	39.74	38.39	36.89	35.94	35.51	35.21	35.41	35.28	35.49	34.95	35.29	34.76	33.78	30.93	28.01	24.49	22.36	20.06	18.25	16.25	14.35	13.10	11.67	11.93	14.13	14.25	9.932	6.665	5.679	4.746	4.226	3.784	3.320	2.926	2.722	3.164	4.937	19.69	111.8	315.4	295.2	101.3	6.180	0.712	0.570	0.586	0.524	0.518	0.454	0.460	0.442	0.374	0.373	0.332	0.342	0.297	0.337	0.296	0.323
515.0	17.64	32.28	62.28	92.60	76.37	91.84	213.3	505.0	225.3	87.34	82.53	74.11	68.84	59.65	51.74	44.02	38.14	35.21	34.57	32.65	31.83	30.89	30.43	31.11	30.80	30.52	29.84	30.49	30.29	30.87	29.27	27.29	24.19	21.61	20.28	17.75	16.55	14.44	13.24	11.85	10.39	10.22	10.40	11.97	12.12	8.047	5.590	4.826	4.189	3.826	3.278	3.140	2.686	2.431	2.780	5.827	26.21	72.64	158.1	452.7	147.2	4.490	0.627	0.535	0.458	0.448	0.443	0.371	0.359	0.362	0.311	0.322	0.339	0.257	0.249	0.270	0.281
520.0	18.14	30.11	48.04	85.78	77.68	73.80	112.0	405.8	396.2	90.64	74.79	66.06	60.89	51.99	46.58	38.81	35.95	32.75	30.69	28.70	28.45	27.91	27.66	27.71	27.36	26.78	26.32	26.58	26.84	26.95	26.43	23.92	21.75	19.63	18.12	16.51	14.89	13.32	12.21	11.12	9.723	9.036	8.336	9.650	12.17	9.559	6.064	4.688	4.130	3.725	3.191	2.964	2.622	2.272	2.160	2.736	7.087	17.44	39.54	255.0	413.9	25.81	1.643	0.591	0.481	0.459	0.480	0.432	0.338	0.341	0.302	0.359	0.285	0.224	0.218	0.239	0.299
525.0	15.75	27.73	39.99	69.64	80.06	66.74	79.73	228.8	511.6	148.7	66.98	62.60	54.77	47.36	42.87	35.29	32.58	29.26	27.29	26.38	25.28	24.57	25.45	24.73	24.26	23.77	23.93	23.89	24.51	24.63	23.58	21.60	19.63	18.11	16.19	14.74	13.86	12.38	11.37	10.08	9.261	8.259	7.564	7.517	9.624	10.73	7.319	5.075	4.176	3.510	3.192	2.889	2.603	2.403	2.143	1.944	2.855	5.074	9.960	66.99	295.8	324.5	21.40	0.817	0.450	0.408	0.414	0.420	0.281	0.312	0.283	0.281	0.287	0.193	0.189	0.248	0.216
530.0	13.72	21.26	30.57	50.94	78.75	67.47	62.93	107.0	373.9	314.2	81.25	54.09	48.43	42.34	37.03	30.90	28.15	25.28	23.57	22.57	22.18	21.38	21.62	21.45	21.27	20.98	21.16	20.78	21.13	21.32	20.70	18.86	17.05	15.76	14.14	13.46	12.07	11.05	10.14	9.064	8.248	7.623	7.108	6.383	6.837	8.716	8.817	5.977	4.038	3.311	2.995	2.719	2.417	2.397	2.150	1.892	1.886	2.279	3.112	15.88	76.73	215.5	236.9	89.13	4.643	0.381	0.387	0.307	0.278	0.303	0.280	0.225	0.236	0.201	0.182	0.216	0.218
535.0	10.63	18.11	26.62	36.34	61.08	71.26	54.00	67.41	156.3	398.4	187.4	46.43	42.13	37.71	31.01	27.13	24.05	21.84	20.54	19.35	18.29	18.89	18.44	17.71	18.28	17.29	17.70	17.75	18.44	18.09	17.63	16.38	14.69	13.42	12.11	11.49	10.80	9.637	9.113	8.076	7.454	6.834	6.291	5.629	5.604	5.979	7.790	7.428	4.781	3.192	2.759	2.624	2.286	2.172	2.038	1.853	1.634	1.517	1.590	4.372	17.87	49.39	115.1	308.2	118.1	3.226	0.415	0.294	0.304	0.227	0.230	0.203	0.216	0.179	0.188	0.215	0.183
540.0	11.36	17.03	27.06	32.02	48.50	69.61	54.02	50.19	73.28	287.7	357.4	62.03	36.96	32.31	27.63	24.34	21.78	19.18	18.48	17.66	17.14	16.59	16.16	15.82	15.69	15.45	15.27	15.90	16.06	16.30	15.10	14.35	13.25	12.05	10.86	10.24	9.381	8.751	8.139	7.449	6.847	6.213	5.584	5.148	5.105	4.783	5.791	7.142	5.775	3.351	2.759	2.447	2.180	1.889	1.977	1.843	1.597	1.283	1.189	1.785	4.674	11.73	28.42	168.0	293.9	25.40	1.176	0.336	0.275	0.226	0.174	0.181	0.256	0.176	0.239	0.143	0.196
545.0	8.742	14.89	24.85	29.86	36.41	63.35	58.92	45.22	48.62	155.2	405.2	133.8	32.99	29.41	26.00	20.86	18.87	17.38	16.72	16.03	14.69	14.58	14.25	14.05	14.10	13.84	13.71	13.96	14.54	14.16	13.88	12.72	11.92	10.93	10.19	8.945	8.532	8.154	7.509	6.744	6.384	5.598	5.114	4.717	4.531	4.223	4.300	5.919	6.257	4.154	2.613	2.164	2.012	1.901	1.677	1.690	1.550	1.290	1.067	1.066	1.645	3.181	6.938	44.14	207.9	201.6	19.49	0.476	0.272	0.241	0.222	0.187	0.251	0.153	0.180	0.126	0.156
550.0	8.204	13.41	20.50	24.77	29.01	45.06	61.14	42.85	40.47	66.86	255.4	297.5	55.96	25.20	22.22	18.22	16.29	14.83	13.93	13.49	12.88	12.62	12.19	12.14	11.75	11.51	11.87	11.87	12.41	11.80	11.81	11.06	10.20	9.705	8.581	8.012	7.340	6.887	6.337	5.903	5.370	4.887	4.487	4.176	3.905	3.741	3.492	3.895	5.167	4.727	3.180	2.153	1.782	1.664	1.462	1.449	1.372	1.331	1.036	0.959	1.032	1.295	2.036	10.33	53.98	148.6	190.0	72.35	3.249	0.252	0.246	0.151	0.200	0.140	0.118	0.116	0.116
555.0	7.144	12.07	15.59	18.84	23.97	31.11	50.53	46.75	34.29	38.74	97.30	289.7	147.2	21.83	18.93	15.14	13.12	12.13	11.22	10.90	10.83	10.11	10.53	10.09	9.681	9.712	10.21	9.859	10.11	9.891	9.915	9.236	8.435	7.943	7.012	6.606	6.080	5.850	5.248	4.928	4.760	4.123	3.883	3.627	3.480	3.236	3.035	2.722	3.258	4.264	4.091	2.516	1.769	1.471	1.317	1.242	1.228	1.095	1.099	0.861	0.836	0.797	0.877	2.731	12.35	33.92	85.48	214.7	26.90	2.271	0.235	0.146	0.179	0.120	0.142	0.109	0.156
560.0	7.446	12.28	13.64	17.28	19.49	24.69	38.46	50.50	31.78	29.26	44.50	183.8	280.6	41.37	16.74	13.53	11.22	11.05	9.699	9.433	9.105	8.736	8.515	8.269	8.347	8.220	8.426	8.294	8.480	8.420	8.442	7.961	6.985	6.589	6.094	5.810	5.420	4.927	4.447	4.410	4.177	3.616	3.468	3.030	2.960	2.589	2.673	2.393	2.364	3.203	3.782	2.948	1.810	1.423	1.170	1.037	1.079	0.992	1.044	0.927	0.719	0.651	0.508	1.020	3.035	7.883	20.73	114.8	196.8	23.80	0.824	0.182	0.129	0.118	0.144	0.105	0.094
565.0	6.174	8.932	12.04	15.13	16.11	20.23	27.21	46.63	35.59	26.20	27.32	88.09	284.1	111.1	14.91	11.38	10.24	9.179	8.699	8.148	7.943	7.352	7.461	7.261	7.088	6.975	7.341	7.168	6.995	7.353	7.125	6.797	6.245	5.611	5.299	4.756	4.625	4.468	3.894	3.870	3.476	3.254	2.892	2.846	2.386	2.349	2.319	1.924	1.926	2.188	3.100	3.028	1.879	1.314	1.038	1.027	0.987	0.872	0.853	0.962	0.801	0.563	0.521	0.567	1.000	2.125	4.953	29.32	139.3	159.6	17.96	0.325	0.144	0.132	0.113	0.106	0.113
570.0	6.158	9.632	10.88	13.17	13.79	17.00	19.08	35.08	37.97	23.57	21.73	35.63	156.4	227.7	42.18	9.301	8.242	7.519	7.204	6.369	6.260	5.979	5.910	5.658	5.734	5.589	5.770	5.815	5.662	5.820	5.580	5.253	4.959	4.537	4.221	3.677	3.657	3.420	3.116	2.985	2.857	2.539	2.349	2.341	1.997	2.010	1.811	1.676	1.478	1.572	1.910	2.511	2.085	1.530	0.949	0.834	0.835	0.734	0.699	0.770	0.751	0.580	0.419	0.419	0.470	0.757	1.345	6.805	35.79	99.85	122.4	43.87	1.921	0.143	0.095	0.099	0.090
575.0	5.316	8.558	9.940	9.842	11.31	13.50	13.43	21.10	35.22	27.04	18.68	20.00	52.41	186.0	152.3	8.430	6.521	5.585	5.449	4.696	4.840	4.709	4.291	4.329	4.479	4.174	4.537	4.273	4.263	4.335	4.231	3.732	3.950	3.550	3.163	3.206	2.739	2.631	2.492	2.323	2.185	1.984	1.764	1.894	1.677	1.584	1.443	1.376	1.244	1.126	1.261	1.497	1.782	1.773	1.077	0.789	0.641	0.556	0.521	0.605	0.499	0.506	0.516	0.357	0.308	0.401	0.535	1.708	8.166	22.69	51.94	121.0	25.92	1.318	0.119	0.062	0.098
580.0	5.277	6.149	7.910	9.082	11.00	11.14	10.48	14.76	29.33	30.24	16.57	15.68	22.70	105.2	214.3	31.97	5.015	4.602	4.015	3.982	3.583	4.087	3.631	3.802	3.687	3.381	3.677	3.629	3.364	3.618	3.359	3.225	3.107	2.578	2.570	2.533	2.318	2.187	1.963	1.976	1.802	1.645	1.595	1.521	1.466	1.256	1.225	1.114	1.066	1.005	0.882	0.997	1.379	1.749	1.282	0.722	0.601	0.511	0.482	0.466	0.394	0.434	0.454	0.378	0.320	0.300	0.322	0.557	1.958	5.194	12.50	63.01	113.2	20.46	0.455	0.091	0.095
585.0	4.972	5.974	7.491	8.264	8.427	10.51	8.474	13.20	20.73	32.47	18.12	13.13	13.79	45.14	190.9	88.68	4.495	3.912	3.457	3.275	3.235	3.350	2.904	3.130	3.084	2.901	3.026	2.699	2.953	3.085	2.926	2.655	2.391	2.291	2.113	2.033	1.973	1.820	1.554	1.694	1.374	1.347	1.200	1.179	1.227	1.097	0.972	0.907	0.840	0.764	0.711	0.768	0.941	1.305	1.322	0.772	0.568	0.464	0.442	0.394	0.358	0.349	0.380	0.387	0.300	0.222	0.205	0.296	0.622	1.291	2.944	16.13	76.67	89.27	12.82	0.176	0.051
590.0	4.519	5.809	7.150	6.643	7.147	7.898	7.830	10.60	13.59	26.95	23.94	12.70	10.72	17.06	92.50	171.3	33.92	3.278	2.813	2.722	2.460	2.544	2.409	2.339	2.335	2.287	2.434	2.295	2.389	2.559	2.262	2.157	1.900	1.816	1.715	1.642	1.550	1.369	1.265	1.243	1.149	1.077	0.962	0.973	0.940	0.905	0.795	0.746	0.705	0.623	0.601	0.577	0.553	0.863	1.095	0.958	0.553	0.398	0.327	0.305	0.285	0.307	0.307	0.338	0.301	0.224	0.185	0.158	0.294	0.384	0.774	3.706	19.46	53.73	64.92	16.86	1.246
595.0	4.927	3.749	6.764	4.953	6.705	6.138	8.224	8.164	9.869	17.73	27.38	14.06	10.17	9.289	27.75	121.0	131.0	4.642	2.419	2.051	2.090	2.026	1.984	1.970	1.828	1.605	2.009	1.844	1.993	1.944	1.734	1.698	1.615	1.424	1.415	1.291	1.265	1.137	1.025	1.058	0.939	0.843	0.788	0.749	0.687	0.712	0.678	0.552	0.552	0.479	0.418	0.475	0.377	0.503	0.676	0.825	0.724	0.399	0.308	0.232	0.267	0.251	0.229	0.250	0.274	0.284	0.208	0.145	0.168	0.161	0.273	0.914	4.390	12.18	27.31	67.35	23.37
600.0	3.977	3.952	6.770	5.532	5.477	6.044	6.527	8.157	8.242	13.26	24.75	19.13	9.486	7.533	10.54	60.41	176.2	28.47	2.137	1.876	1.843	1.653	1.625	1.778	1.589	1.432	1.514	1.514	1.468	1.542	1.506	1.391	1.372	1.279	1.100	1.041	0.995	1.016	0.867	0.935	0.798	0.746	0.614	0.578	0.547	0.610	0.563	0.497	0.429	0.449	0.400	0.398	0.362	0.334	0.403	0.646	0.819	0.482	0.334	0.241	0.256	0.209	0.184	0.204	0.214	0.288	0.246	0.165	0.109	0.125	0.131	0.276	1.041	2.793	6.539	34.47	61.46
605.0	2.522	4.775	6.832	5.400	5.907	6.351	6.774	7.634	8.262	10.96	20.38	22.78	9.918	7.295	6.036	23.10	138.5	72.46	2.180	1.735	1.396	1.412	1.359	1.359	1.337	1.267	1.226	1.107	1.320	1.318	1.234	1.188	1.162	0.929	0.867	0.877	0.811	0.765	0.685	0.760	0.689	0.636	0.491	0.590	0.465	0.536	0.467	0.450	0.375	0.332	0.313	0.327	0.339	0.290	0.283	0.460	0.725	0.587	0.325	0.194	0.218	0.159	0.165	0.186	0.241	0.245	0.276	0.154	0.112	0.109	0.088	0.146	0.283	0.698	1.547	8.827	39.91
610.0	3.621	4.603	4.943	5.659	5.000	5.659	5.218	6.134	7.890	9.222	13.87	21.76	13.70	7.122	5.015	7.959	60.20	134.7	29.71	1.461	1.316	1.187	1.105	1.080	1.127	0.998	1.001	0.956	1.082	1.023	1.015	0.954	0.894	0.787	0.754	0.751	0.624	0.636	0.591	0.540	0.535	0.508	0.448	0.466	0.433	0.394	0.397	0.371	0.317	0.275	0.264	0.263	0.257	0.224	0.218	0.291	0.398	0.576	0.412	0.257	0.154	0.156	0.153	0.126	0.157	0.158	0.200	0.201	0.152	0.095	0.087	0.104	0.126	0.222	0.424	2.024	10.07
615.0	2.590	5.059	4.970	5.028	5.043	5.774	5.262	5.542	7.319	8.219	9.790	17.13	17.98	7.309	4.656	4.342	17.01	86.04	108.4	3.569	1.018	0.944	0.908	1.015	0.813	0.832	0.847	0.802	0.760	0.797	0.700	0.718	0.711	0.648	0.657	0.558	0.483	0.466	0.441	0.424	0.473	0.400	0.368	0.331	0.324	0.250	0.305	0.303	0.272	0.208	0.203	0.200	0.202	0.176	0.184	0.209	0.244	0.379	0.449	0.334	0.137	0.102	0.160	0.126	0.163	0.138	0.149	0.152	0.188	0.128	0.112	0.119	0.117	0.099	0.132	0.491	2.286
620.0	3.032	4.694	4.023	4.808	4.040	4.656	5.449	6.034	7.295	8.395	8.660	13.14	18.76	10.19	4.778	3.721	6.005	39.60	134.7	28.37	1.069	0.781	0.754	0.823	0.843	0.753	0.755	0.608	0.664	0.687	0.641	0.618	0.644	0.573	0.537	0.468	0.478	0.417	0.376	0.376	0.345	0.282	0.279	0.306	0.319	0.291	0.251	0.219	0.191	0.185	0.163	0.178	0.203	0.162	0.182	0.151	0.195	0.251	0.379	0.335	0.255	0.103	0.150	0.108	0.120	0.119	0.087	0.116	0.134	0.187	0.093	0.093	0.077	0.082	0.064	0.159	0.534
625.0	2.591	4.724	3.973	4.879	4.019	4.512	5.815	5.611	6.071	6.731	7.986	10.38	16.90	12.54	4.724	3.871	3.513	13.98	97.76	63.50	1.291	0.722	0.776	0.627	0.717	0.544	0.694	0.608	0.467	0.554	0.618	0.559	0.469	0.529	0.508	0.351	0.445	0.279	0.400	0.342	0.282	0.219	0.308	0.223	0.240	0.222	0.242	0.200	0.177	0.169	0.144	0.158	0.149	0.150	0.131	0.122	0.175	0.170	0.252	0.296	0.278	0.129	0.109	0.096	0.102	0.117	0.064	0.127	0.174	0.154	0.107	0.131	0.052	0.082	0.063	0.095	0.160
630.0	2.350	3.573	4.368	4.506	3.483	3.952	5.176	4.856	5.326	6.641	7.430	8.598	13.05	15.81	6.500	3.733	3.143	5.207	38.83	110.6	26.25	0.624	0.577	0.537	0.543	0.472	0.536	0.478	0.483	0.526	0.448	0.430	0.378	0.376	0.344	0.266	0.320	0.255	0.289	0.252	0.244	0.206	0.245	0.175	0.225	0.172	0.185	0.163	0.172	0.158	0.124	0.112	0.127	0.128	0.106	0.119	0.147	0.125	0.161	0.226	0.242	0.189	0.132	0.103	0.100	0.099	0.090	0.090	0.102	0.121	0.137	0.112	0.063	0.052	0.043	0.065	0.068
635.0	2.751	4.364	4.682	5.070	4.310	3.373	5.172	5.210	5.016	6.473	7.465	7.921	10.33	14.59	9.998	4.339	3.271	3.024	10.57	61.42	92.00	2.752	0.557	0.500	0.441	0.396	0.407	0.379	0.336	0.363	0.462	0.371	0.292	0.323	0.274	0.197	0.262	0.223	0.252	0.214	0.194	0.140	0.208	0.116	0.163	0.125	0.169	0.167	0.143	0.107	0.136	0.098	0.123	0.086	0.097	0.094	0.116	0.152	0.098	0.122	0.167	0.234	0.144	0.081	0.069	0.086	0.083	0.104	0.083	0.081	0.099	0.126	0.099	0.049	0.041	0.049	0.060
640.0	3.728	4.924	3.342	4.389	4.302	3.319	4.542	4.507	5.931	6.745	7.982	8.503	9.214	12.57	12.67	5.306	3.422	2.936	3.852	25.28	110.1	22.62	0.641	0.404	0.388	0.342	0.377	0.314	0.276	0.348	0.359	0.299	0.227	0.244	0.210	0.226	0.192	0.199	0.144	0.186	0.159	0.187	0.138	0.137	0.127	0.136	0.120	0.131	0.113	0.107	0.108	0.100	0.096	0.085	0.102	0.082	0.087	0.107	0.094	0.090	0.145	0.240	0.161	0.067	0.110	0.079	0.069	0.087	0.044	0.038	0.066	0.094	0.135	0.044	0.066	0.050	0.039
645.0	4.991	4.156	4.992	3.689	3.617	3.791	5.297	5.414	5.528	6.780	7.980	9.013	9.212	9.886	13.98	6.720	3.766	3.119	2.292	8.459	76.63	55.06	0.859	0.382	0.401	0.304	0.332	0.297	0.225	0.235	0.351	0.223	0.262	0.188	0.205	0.191	0.192	0.201	0.158	0.125	0.121	0.111	0.136	0.148	0.139	0.104	0.136	0.091	0.101	0.093	0.097	0.086	0.095	0.064	0.075	0.075	0.080	0.096	0.097	0.071	0.098	0.168	0.160	0.157	0.114	0.100	0.068	0.070	0.086	0.073	0.076	0.086	0.138	0.070	0.035	0.049	0.028
650.0	4.955	5.909	6.681	5.115	4.485	4.349	5.004	5.122	5.521	6.708	7.817	8.665	8.791	9.206	12.57	8.895	3.990	3.250	2.268	3.275	35.16	98.36	8.318	0.400	0.366	0.368	0.276	0.240	0.217	0.227	0.227	0.215	0.222	0.210	0.206	0.165	0.134	0.178	0.154	0.115	0.144	0.135	0.116	0.109	0.147	0.112	0.102	0.102	0.117	0.074	0.113	0.059	0.074	0.065	0.057	0.075	0.071	0.074	0.072	0.077	0.085	0.108	0.127	0.118	0.104	0.054	0.050	0.071	0.064	0.083	0.075	0.073	0.090	0.126	0.062	0.071	0.093
