Sample:	'1
File name:	Default_20220327_171458.FD3
Run date:	'17:08:37, 03/27/2022
Operator:	user
Comment:	'

Instrument
Model:	F-2700 FL Spectrophotometer
Serial number:	2190-003
ROM Version:	4J14000 07

Instrument parameters
Measurement type:	3-D scan
Data mode:	Fluorescence
EX  Start WL:	220.0 nm
EX  End WL:	600.0 nm
EX Sampling interval:	5.0 nm
EM  Start WL:	230.0 nm
EM  End WL:	650.0 nm
EM Sampling interval:	5.0 nm
Scan speed:	12000 nm/min
EX Slit:	5.0 nm
EM Slit:	5.0 nm
PMT Voltage:	700 V
Response:	Auto 
Corrected spectra:	Off
Contour interval:	50.000

Peak integration
Integration method:	Rectangular
Sensitivity:	1
Threshold:	1.000

Peaks
No.	ApexEX/EM(nm)	Height(Data)
1	225.0/305.0	 2156
2	225.0/335.0	 2319
3	225.0/415.0	 2692
4	225.0/595.0	169.3
5	225.0/640.0	99.54
6	240.0/415.0	 2594
7	245.0/265.0	164.5
8	245.0/410.0	 2592
9	260.0/565.0	179.1
10	265.0/580.0	204.8
11	270.0/590.0	226.8
12	275.0/305.0	 3049
13	275.0/380.0	 2219
14	275.0/600.0	216.7
15	280.0/615.0	174.4
16	305.0/410.0	 2605
17	395.0/305.0	7.687
18	445.0/325.0	9.356
19	455.0/340.0	8.685
20	485.0/420.0	10.71
21	495.0/410.0	10.73
22	550.0/305.0	12.34
23	555.0/310.0	11.65

Data points
	220.0	225.0	230.0	235.0	240.0	245.0	250.0	255.0	260.0	265.0	270.0	275.0	280.0	285.0	290.0	295.0	300.0	305.0	310.0	315.0	320.0	325.0	330.0	335.0	340.0	345.0	350.0	355.0	360.0	365.0	370.0	375.0	380.0	385.0	390.0	395.0	400.0	405.0	410.0	415.0	420.0	425.0	430.0	435.0	440.0	445.0	450.0	455.0	460.0	465.0	470.0	475.0	480.0	485.0	490.0	495.0	500.0	505.0	510.0	515.0	520.0	525.0	530.0	535.0	540.0	545.0	550.0	555.0	560.0	565.0	570.0	575.0	580.0	585.0	590.0	595.0	600.0
230.0	1.814	281.7	 1959	 1069	55.52	0.665	0.341	1.193	1.114	0.890	0.790	1.616	2.325	1.784	1.197	1.581	1.297	1.334	1.112	1.151	1.007	0.995	0.887	0.817	0.781	0.768	0.558	0.558	0.387	0.349	0.290	0.362	0.273	0.262	0.257	0.221	0.134	0.103	0.099	-0.040	0.033	0.113	0.156	0.101	-0.014	-0.007	0.372	3.559	7.659	6.211	2.019	0.159	-0.015	-0.106	-0.020	-0.127	-0.083	-0.179	-0.132	-0.144	-0.119	-0.125	-0.157	-0.183	-0.201	-0.197	-0.298	-0.272	-0.290	-0.292	-0.245	-0.294	-0.220	-0.309	-0.323	-0.291	-0.339
235.0	36.47	67.40	770.0	 2124	558.3	88.26	2.682	1.502	1.170	0.602	1.489	2.300	2.274	1.655	1.109	1.284	1.380	0.815	1.285	1.098	0.542	1.162	0.780	0.780	0.985	0.866	0.826	0.477	0.379	0.245	0.309	0.361	0.097	0.173	0.181	0.324	-0.001	0.238	0.042	-0.036	-0.040	0.123	0.064	0.246	0.265	0.028	0.050	0.804	2.484	4.847	8.180	8.393	3.286	0.348	0.043	0.013	-0.062	-0.217	-0.160	-0.250	-0.192	-0.139	-0.240	-0.209	-0.281	-0.246	-0.291	-0.319	-0.252	-0.307	-0.254	-0.253	-0.282	-0.364	-0.297	-0.372	-0.358
240.0	33.93	48.94	192.1	 1146	 2558	479.9	51.96	2.661	1.462	1.902	1.452	1.419	2.782	2.372	1.667	1.465	1.908	1.364	1.404	1.326	0.980	1.112	0.538	0.823	1.129	0.740	0.818	0.425	0.603	0.419	0.475	0.220	0.499	0.098	-0.102	0.247	0.110	0.234	0.094	-0.035	0.120	-0.070	0.024	0.155	0.250	0.302	0.144	0.183	0.629	1.205	3.856	10.04	12.36	8.673	2.238	0.086	-0.155	-0.170	-0.141	-0.166	-0.130	-0.221	-0.247	-0.185	-0.163	-0.172	-0.280	-0.336	-0.237	-0.242	-0.277	-0.266	-0.378	-0.322	-0.336	-0.260	-0.403
245.0	13.44	60.61	72.59	304.4	 1774	 3348	400.4	22.04	4.166	3.758	2.409	3.110	2.738	2.576	2.316	1.578	1.870	1.730	1.309	1.222	1.338	0.886	1.087	0.618	0.888	0.875	0.834	0.530	0.502	0.331	0.424	0.254	0.387	0.410	0.208	0.110	0.084	0.146	0.154	0.040	-0.010	0.084	0.039	0.062	0.158	0.225	0.268	0.289	0.178	0.310	0.798	2.948	7.742	15.56	15.55	7.705	1.192	-0.190	-0.176	-0.101	-0.212	-0.158	-0.203	-0.233	-0.182	-0.227	-0.271	-0.291	-0.202	-0.265	-0.385	-0.301	-0.331	-0.398	-0.274	-0.110	-0.253
250.0	-0.822	30.65	83.71	113.6	462.5	 1990	 3349	 1629	139.7	7.559	5.548	4.941	4.526	3.979	2.646	2.070	2.101	1.732	1.438	1.407	1.349	1.188	1.281	0.847	0.825	0.783	0.639	0.503	0.511	0.280	0.449	0.285	0.242	0.322	0.169	0.201	0.108	0.159	0.241	0.105	0.012	-0.014	0.064	0.024	-0.006	0.151	0.137	0.326	0.349	0.343	0.314	0.705	1.780	4.849	9.318	15.89	19.64	16.54	8.493	1.289	-0.159	-0.124	-0.133	-0.185	-0.225	-0.197	-0.312	-0.215	-0.219	-0.305	-0.377	-0.292	-0.294	-0.310	-0.214	-0.239	-0.312
255.0	-0.370	7.383	43.16	126.4	163.4	460.7	 1419	 5653	 2695	189.2	10.24	5.396	6.235	4.221	3.498	2.425	2.383	2.168	1.913	1.301	1.436	1.601	1.363	0.786	0.783	1.137	0.866	0.543	0.788	0.633	0.540	0.429	0.289	0.323	0.150	0.226	0.276	0.089	0.262	0.085	0.054	0.118	0.049	-0.043	-0.024	0.134	0.066	0.069	0.093	0.227	0.698	0.701	0.547	1.043	2.137	3.727	7.238	18.56	33.61	26.47	11.72	0.828	-0.159	-0.194	-0.057	-0.173	-0.175	-0.364	-0.162	-0.180	-0.297	-0.352	-0.251	-0.226	-0.200	-0.210	-0.266
260.0	-2.998	8.024	15.05	82.58	162.1	145.1	351.1	 2763	 8463	 2316	119.0	11.39	7.811	6.429	4.179	3.702	2.847	1.957	2.266	1.839	1.368	1.408	1.284	1.179	0.996	1.246	0.661	0.708	0.813	0.405	0.632	0.450	0.183	0.244	0.262	0.303	0.297	0.139	0.076	0.126	0.107	0.147	-0.057	0.192	0.104	0.067	0.076	0.130	0.069	0.115	0.514	0.903	0.812	0.490	0.577	0.798	1.628	4.801	14.69	32.41	43.87	23.77	6.704	0.031	-0.138	-0.284	-0.292	-0.339	-0.220	-0.240	-0.373	-0.233	-0.285	-0.288	-0.327	-0.294	-0.249
265.0	0.348	3.287	5.468	32.33	134.5	164.5	105.4	715.1	 4916	9999.9	 1861	54.30	9.950	7.767	5.750	3.789	3.252	2.825	2.478	2.225	1.636	1.720	1.125	0.959	1.333	1.201	0.752	0.982	0.729	0.685	0.701	0.554	0.215	0.406	0.439	0.244	0.322	0.204	0.158	0.225	0.064	0.038	0.075	0.028	0.025	0.061	0.085	-0.025	-0.031	0.018	0.110	0.288	0.590	0.897	0.686	0.172	0.377	1.032	3.343	9.847	26.35	47.44	32.03	18.27	2.460	-0.250	-0.165	-0.126	-0.182	-0.223	-0.259	-0.200	-0.201	-0.283	-0.234	-0.307	-0.272
270.0	61.22	48.75	24.54	21.89	54.58	163.6	200.8	222.0	 1253	 5027	9999.9	 6482	109.1	13.49	8.402	5.479	4.744	3.677	2.788	2.543	1.970	1.689	1.253	1.358	1.363	1.194	0.900	0.903	0.750	0.697	0.742	0.685	0.663	0.693	0.671	0.609	0.487	0.401	0.406	0.438	0.375	0.402	0.479	0.289	0.461	0.176	0.211	0.122	0.105	0.105	0.074	0.082	0.130	0.313	0.818	1.057	0.803	0.643	0.834	2.296	6.284	14.20	24.53	42.53	41.91	40.10	11.78	1.922	-0.053	-0.138	-0.213	-0.142	-0.212	-0.254	-0.221	-0.357	-0.193
275.0	272.2	183.5	105.2	56.94	46.65	87.06	240.7	336.8	440.7	 1299	 3689	9999.9	 9764	134.1	14.45	8.428	6.556	5.027	3.937	3.015	2.321	2.187	1.464	1.638	1.631	1.272	0.992	0.905	0.590	0.651	0.882	0.815	1.188	1.790	1.622	1.549	1.186	1.068	0.874	1.109	1.255	1.213	1.424	1.230	1.139	0.840	0.846	0.465	0.533	0.263	0.227	0.025	0.144	0.269	0.417	0.696	1.285	1.588	1.271	1.071	1.912	3.764	6.096	10.58	17.19	45.88	75.32	31.41	15.48	0.848	-0.250	-0.052	-0.179	-0.275	-0.055	-0.249	-0.184
280.0	549.7	396.3	247.9	117.8	76.88	97.34	184.2	471.2	421.5	591.5	 1252	 5017	9999.9	 7403	87.54	13.29	7.993	5.973	4.856	4.241	2.808	2.253	2.020	2.099	1.672	1.489	1.151	1.263	0.940	0.710	1.100	1.074	1.928	2.653	2.688	2.805	2.420	2.180	1.800	1.910	1.982	2.093	2.237	2.284	2.270	1.863	1.261	1.295	0.903	0.652	0.356	0.277	0.192	0.398	0.345	0.584	0.767	1.408	2.340	2.257	1.706	2.079	3.014	3.813	5.341	13.29	34.65	66.96	90.03	27.48	7.959	0.128	-0.050	-0.070	-0.134	-0.145	-0.048
285.0	890.1	686.5	444.5	224.5	127.3	141.0	205.2	449.4	775.9	770.6	963.0	 1868	 7121	9999.9	 1157	49.79	12.37	7.911	5.705	4.223	3.302	2.765	2.376	2.478	1.806	2.025	1.355	1.324	0.986	0.781	1.127	1.580	2.556	3.890	3.836	3.993	3.461	3.003	2.790	2.892	2.785	3.135	3.364	3.397	3.327	2.858	2.472	2.342	1.592	0.999	0.735	0.520	0.369	0.644	0.491	0.648	1.088	1.266	1.995	3.290	3.490	2.679	2.966	3.232	3.929	5.498	10.50	22.47	55.91	90.02	82.95	20.32	2.316	-0.028	0.018	-0.060	-0.047
290.0	 1359	 1215	872.2	474.8	273.5	245.4	321.8	511.9	898.0	 1380	 1524	 1662	 2636	 6526	9999.9	 7861	66.95	14.35	8.831	6.113	4.440	3.901	2.969	2.767	2.177	2.253	1.469	1.449	1.141	1.124	1.204	2.039	3.310	5.324	5.567	5.478	5.062	4.346	3.875	4.051	3.854	4.600	4.891	4.941	5.216	4.850	4.475	3.970	3.054	2.104	1.591	1.360	1.009	0.922	1.050	1.128	1.419	1.830	2.363	2.930	3.951	5.153	5.811	5.984	5.789	6.020	6.845	8.948	16.18	29.72	52.91	71.77	62.35	55.35	12.75	2.515	0.037
295.0	 1782	 1724	 1343	802.7	473.5	373.3	449.2	656.4	 1012	 1654	 2330	 2197	 1999	 2257	 3674	9999.9	 6552	85.87	14.11	9.626	6.277	5.336	3.994	3.207	2.899	2.735	1.778	1.606	1.583	1.317	1.487	2.354	4.281	6.500	6.970	6.786	6.728	5.661	5.150	5.076	4.769	5.576	5.626	6.287	6.538	6.650	6.689	5.900	4.709	3.389	2.717	2.199	1.853	1.615	1.588	1.774	2.065	2.347	2.888	3.527	4.289	5.380	7.084	8.674	9.835	8.654	8.152	8.158	8.565	10.30	14.40	18.60	28.29	74.24	114.6	35.09	17.68
300.0	 1987	 2015	 1603	 1050	618.5	475.1	543.9	777.6	 1126	 1736	 2537	 2776	 2144	 1511	 1288	 4811	9999.9	 5351	65.04	13.64	8.740	6.500	4.567	3.814	2.932	2.745	2.118	2.044	1.788	1.445	1.847	2.586	4.354	6.698	7.471	7.472	7.291	6.136	5.316	5.514	5.399	6.238	6.164	6.503	7.161	7.540	7.278	7.039	5.582	4.298	3.415	3.153	2.506	1.970	1.969	2.134	2.428	2.716	3.299	4.038	4.898	5.790	7.298	8.878	10.95	11.43	10.62	8.937	7.870	7.077	6.679	6.073	7.862	20.89	56.55	102.5	122.2
305.0	 2062	 2156	 1829	 1210	720.9	570.1	627.9	843.1	 1231	 1809	 2485	 3049	 2522	 1517	855.2	 1361	 6925	9999.9	 4083	44.86	12.07	8.339	6.027	4.891	3.689	3.299	2.630	2.379	1.851	1.584	1.688	2.459	4.368	6.436	7.652	7.687	7.116	6.309	5.166	5.527	5.473	5.958	6.648	6.755	7.570	7.736	8.005	7.534	6.508	4.847	4.122	3.793	2.848	2.504	2.466	2.444	2.983	3.299	3.469	4.560	5.170	6.447	7.420	8.914	10.20	11.50	12.34	10.86	8.795	7.164	5.709	4.241	3.653	5.820	14.13	35.06	88.29
310.0	 1986	 2145	 1868	 1305	843.5	672.3	705.2	905.6	 1251	 1799	 2402	 2836	 2788	 1860	946.0	643.4	 1818	 6419	9999.9	 8108	251.7	14.50	8.742	6.406	4.873	3.766	3.291	2.537	2.214	1.862	1.781	2.561	4.162	5.776	6.963	6.802	6.626	6.341	5.310	5.555	5.356	5.878	6.153	6.890	7.559	8.187	7.550	7.895	6.714	5.141	4.372	4.154	3.199	2.736	2.707	2.816	3.133	3.674	3.951	4.529	5.455	6.285	7.804	8.868	9.659	10.43	11.46	11.65	10.53	8.495	6.400	4.475	3.246	2.873	4.322	8.869	21.92
315.0	 2062	 2090	 1807	 1321	900.0	732.8	779.2	965.7	 1277	 1751	 2313	 2659	 2592	 2213	 1276	622.3	668.6	 1596	 3482	9999.9	9999.9	64.71	13.95	9.150	6.471	4.862	3.674	3.162	2.535	2.311	2.034	2.515	3.690	5.444	5.976	6.163	6.025	5.572	5.044	5.197	4.945	5.758	5.957	6.907	7.950	8.080	7.719	7.662	6.483	5.282	4.574	4.501	3.391	3.261	2.935	3.030	3.632	3.677	4.353	4.788	5.419	6.257	7.542	8.557	9.371	10.12	10.40	10.34	9.848	9.934	9.139	6.446	4.328	3.094	2.663	3.481	6.108
320.0	 2163	 2215	 1864	 1306	921.5	765.4	819.5	 1005	 1295	 1762	 2264	 2616	 2551	 2193	 1632	807.1	494.1	571.9	929.4	 4916	9999.9	 4000	52.89	12.33	8.275	5.622	4.482	3.515	3.075	2.940	2.227	2.770	3.388	4.871	5.535	5.753	5.536	5.223	4.800	5.036	5.076	5.595	6.621	7.096	8.150	8.582	7.542	7.654	6.660	5.160	4.417	4.353	3.427	3.413	2.973	3.326	3.831	4.003	4.466	4.914	5.762	6.421	7.646	8.274	9.414	9.839	10.34	9.988	9.568	9.295	9.149	8.363	6.324	4.154	2.616	2.536	2.860
325.0	 2264	 2260	 1972	 1345	936.6	792.3	862.1	 1042	 1318	 1763	 2210	 2569	 2524	 2144	 1718	 1095	563.0	407.4	389.4	 1274	 6782	9999.9	 3289	39.47	11.01	7.205	5.735	3.914	3.551	3.116	2.352	2.385	3.541	4.352	4.652	4.845	5.462	5.083	4.361	4.634	5.017	5.703	6.581	7.374	8.579	9.356	8.098	8.486	6.892	5.563	4.758	4.309	3.649	3.688	3.255	3.565	3.754	3.973	4.784	5.141	6.071	6.565	7.495	8.249	9.259	9.957	9.644	9.866	9.384	8.917	8.486	7.722	7.507	6.042	3.834	3.029	2.614
330.0	 2241	 2297	 2006	 1425	 1028	875.4	891.2	 1067	 1339	 1737	 2166	 2493	 2488	 2165	 1660	 1252	857.8	507.6	358.4	471.2	 1736	 6223	9999.9	 7564	214.8	13.42	7.839	5.762	4.690	3.647	3.016	2.958	3.398	4.021	4.361	4.519	4.825	4.535	4.377	4.329	4.660	5.538	6.328	7.366	8.496	9.173	8.066	8.355	7.245	5.662	4.979	4.795	4.016	3.879	3.608	3.706	3.911	4.124	4.760	5.105	5.829	6.359	6.970	8.063	8.745	9.601	9.348	9.883	9.819	9.055	8.681	7.861	7.242	6.302	5.403	5.079	3.901
335.0	 2209	 2319	 2023	 1528	 1123	965.2	948.1	 1116	 1363	 1725	 2107	 2419	 2463	 2191	 1713	 1235	 1033	778.5	460.8	367.2	578.7	 1524	 3602	9999.9	9999.9	55.52	12.37	8.400	6.069	4.487	3.815	3.598	3.611	3.761	3.944	4.208	4.120	4.164	4.136	4.555	4.374	5.494	6.307	7.171	8.004	8.532	7.909	8.372	7.390	5.783	5.300	5.223	4.362	4.347	3.772	4.038	4.421	4.446	4.752	5.033	5.859	6.160	6.844	7.705	8.736	9.497	9.264	9.874	9.366	9.279	9.110	8.241	7.301	6.498	5.513	5.825	5.923
340.0	 2126	 2251	 2006	 1586	 1212	 1017	989.3	 1149	 1383	 1733	 2074	 2359	 2394	 2174	 1748	 1257	997.9	936.5	632.5	403.7	370.5	514.4	940.4	 5034	9999.9	 3379	47.53	11.76	7.655	5.183	4.236	3.788	3.719	3.625	3.967	3.672	3.946	3.835	3.834	4.508	4.250	5.354	6.208	7.040	7.558	8.291	8.156	8.685	7.067	5.590	5.498	5.523	4.555	4.801	3.775	4.144	4.315	4.844	4.785	5.340	5.936	6.452	7.043	7.671	8.416	8.786	9.291	9.841	9.412	9.220	9.013	8.385	7.503	6.538	5.694	5.721	5.650
345.0	 1972	 2123	 1925	 1604	 1263	 1066	 1047	 1190	 1415	 1710	 2016	 2276	 2316	 2129	 1747	 1294	993.2	910.0	817.0	508.7	377.2	337.5	367.4	 1297	 7135	9999.9	 2951	36.34	10.33	6.985	5.460	4.028	3.485	3.684	3.652	3.779	3.612	3.592	3.654	4.114	4.185	5.182	5.584	6.568	7.406	7.953	7.572	7.915	7.404	5.969	5.452	5.733	4.896	4.960	4.279	4.289	4.463	4.923	5.078	5.213	5.744	6.399	7.326	7.449	8.184	8.585	9.024	9.197	9.533	9.446	9.101	8.524	7.409	6.723	5.887	5.476	5.481
350.0	 1801	 1970	 1834	 1601	 1353	 1192	 1169	 1281	 1473	 1725	 2007	 2196	 2235	 2069	 1747	 1344	 1058	906.0	849.9	731.1	509.3	382.3	314.4	456.3	 1831	 6469	9999.9	 7506	196.4	12.19	7.511	5.511	3.948	4.070	3.837	3.690	3.502	3.304	3.583	3.816	3.957	4.979	5.308	6.169	6.885	7.497	7.001	7.404	6.714	5.748	5.370	6.002	5.366	5.332	4.968	4.669	4.941	5.113	5.489	5.612	6.047	6.849	7.049	7.646	8.133	8.373	8.648	8.984	9.174	9.013	8.683	8.434	7.843	6.950	6.653	6.257	5.936
355.0	 1635	 1807	 1753	 1590	 1450	 1349	 1327	 1427	 1604	 1801	 2028	 2163	 2177	 2031	 1762	 1408	 1158	992.9	871.6	831.5	743.7	506.8	382.0	335.0	578.4	 1559	 3845	9999.9	9999.9	50.81	11.69	7.387	5.271	4.637	4.141	3.588	3.352	3.423	3.384	3.982	4.028	4.266	5.060	5.358	6.526	6.778	6.674	6.866	6.358	5.482	5.411	6.298	5.644	5.708	5.514	5.432	5.570	5.903	6.226	5.972	6.218	6.865	7.562	7.584	7.818	8.207	7.944	8.808	8.886	8.643	9.001	8.794	8.557	7.300	7.410	6.578	6.598
360.0	 1561	 1701	 1709	 1610	 1528	 1426	 1424	 1525	 1704	 1895	 2040	 2135	 2138	 2013	 1770	 1475	 1239	 1078	944.3	849.5	846.8	672.0	466.5	366.7	344.6	497.7	981.0	 5367	9999.9	 3115	40.67	10.25	7.239	5.577	4.279	3.568	3.560	3.423	3.633	4.107	4.127	4.375	5.062	5.256	6.094	6.481	6.539	6.493	6.241	5.409	5.895	6.400	5.713	6.198	5.590	5.703	5.953	6.255	6.384	6.442	6.898	7.245	7.871	7.870	7.748	8.274	8.570	8.720	8.950	8.482	8.603	8.560	8.570	7.542	7.538	7.296	6.821
365.0	 1510	 1679	 1681	 1641	 1587	 1529	 1519	 1619	 1772	 1941	 2088	 2146	 2126	 2012	 1798	 1536	 1333	 1175	 1042	908.1	865.0	830.3	576.4	437.3	343.9	300.9	345.9	 1381	 7544	9999.9	 2598	29.34	8.994	6.848	5.463	4.027	3.931	4.067	4.108	4.014	4.177	4.498	4.643	5.087	6.055	6.168	6.438	6.289	6.265	5.553	5.800	6.419	6.235	6.586	5.979	6.272	6.715	6.590	6.595	6.560	7.598	7.473	8.022	8.236	8.041	8.660	8.517	8.708	8.956	8.822	8.611	9.021	8.803	8.492	7.654	7.617	7.374
370.0	 1504	 1652	 1697	 1683	 1693	 1669	 1634	 1721	 1854	 2011	 2134	 2165	 2134	 2034	 1866	 1651	 1483	 1342	 1200	 1056	950.2	896.8	807.1	598.8	441.7	336.6	267.5	437.6	 1938	 6957	9999.9	 5788	151.5	10.24	7.235	5.100	4.390	4.512	4.489	4.475	4.381	4.841	5.370	5.363	5.869	6.100	6.213	6.619	6.404	5.744	6.120	7.031	6.827	6.861	6.775	6.644	6.995	6.982	6.935	7.084	7.742	7.649	7.871	8.360	8.110	8.528	8.431	8.882	8.944	9.271	9.047	9.059	8.912	8.942	8.730	8.184	8.410
375.0	 1582	 1702	 1755	 1806	 1802	 1809	 1768	 1816	 1927	 2062	 2136	 2189	 2169	 2090	 1956	 1800	 1673	 1554	 1401	 1250	 1115	993.0	928.8	841.5	607.7	453.8	341.4	297.5	566.3	 1650	 4475	9999.9	 7574	40.56	9.863	6.693	5.950	4.729	5.262	4.935	4.914	5.433	5.835	5.875	6.205	6.778	6.424	6.637	6.382	5.782	6.289	7.554	7.472	7.794	7.451	7.053	7.325	7.440	7.572	7.486	7.857	7.817	8.346	8.148	8.061	8.452	8.343	9.171	8.915	9.740	9.534	9.376	9.194	9.416	9.459	9.549	9.766
380.0	 1638	 1772	 1796	 1896	 1925	 1925	 1880	 1876	 1971	 2095	 2145	 2219	 2214	 2153	 2049	 1914	 1828	 1713	 1573	 1405	 1250	 1111	 1004	953.2	790.0	572.8	430.5	328.4	315.0	495.5	 1131	 6260	9999.9	 2499	31.00	9.216	7.116	5.880	5.838	5.677	5.615	5.944	6.304	6.461	6.591	7.096	6.822	7.103	6.945	6.130	6.644	7.781	7.643	8.328	7.664	7.897	8.264	7.946	7.976	7.733	8.309	8.081	8.453	8.201	8.486	8.152	8.791	9.172	9.332	9.559	9.970	10.02	9.807	9.925	10.17	10.52	10.23
385.0	 1722	 1868	 1906	 1966	 2023	 2020	 1951	 1947	 2006	 2078	 2132	 2184	 2223	 2206	 2136	 2045	 1981	 1880	 1733	 1569	 1397	 1236	 1112	 1010	936.3	714.7	525.5	397.9	311.3	282.0	366.9	 1656	 8447	9999.9	 1827	20.97	8.864	7.219	6.669	6.777	6.229	6.129	6.364	7.043	7.119	7.028	7.223	7.621	7.241	6.736	6.561	8.371	8.132	8.641	8.089	8.385	8.485	8.298	7.985	8.079	8.144	7.938	8.393	8.508	8.501	8.079	8.904	8.985	9.710	9.665	10.13	10.38	10.44	10.53	11.04	11.24	11.72
390.0	 1973	 2099	 2108	 2124	 2197	 2179	 2128	 2082	 2071	 2080	 2103	 2161	 2230	 2248	 2243	 2216	 2185	 2120	 1977	 1801	 1611	 1437	 1288	 1141	 1036	916.8	703.4	520.8	401.3	306.9	253.8	480.1	 2242	 7003	9999.9	 3843	26.68	10.39	8.427	8.145	7.530	7.495	7.630	7.807	7.899	8.252	8.007	8.143	7.785	7.127	7.387	8.733	8.666	9.298	8.871	9.136	9.070	8.877	8.316	8.229	8.123	8.265	8.038	8.087	8.250	7.961	8.661	9.076	9.350	9.836	10.27	11.02	11.44	11.19	12.02	12.34	12.81
395.0	 2245	 2329	 2321	 2308	 2349	 2349	 2294	 2233	 2159	 2115	 2084	 2135	 2226	 2274	 2342	 2359	 2387	 2338	 2215	 2037	 1834	 1654	 1489	 1330	 1171	 1048	923.6	691.3	521.5	394.6	291.5	263.8	597.1	 1641	 4732	9999.9	 2326	32.92	11.15	9.681	8.849	8.884	8.738	8.978	8.536	8.788	8.802	9.134	8.778	7.830	7.998	9.684	9.518	9.653	9.462	9.561	10.33	9.627	8.980	8.525	8.324	8.456	8.286	7.829	8.277	8.318	8.697	8.647	9.265	9.972	10.41	11.46	12.03	12.60	13.33	13.30	13.68
400.0	 2472	 2479	 2487	 2430	 2468	 2493	 2416	 2312	 2198	 2094	 2049	 2096	 2210	 2309	 2396	 2445	 2501	 2480	 2375	 2189	 1988	 1800	 1630	 1454	 1287	 1128	 1025	840.4	627.6	470.9	346.7	249.4	254.6	444.4	 1187	 6130	9999.9	 1945	26.29	11.92	10.38	10.16	9.441	9.636	9.142	9.530	9.127	9.194	8.959	8.093	8.428	10.08	9.547	9.948	9.541	10.04	10.23	9.858	9.557	9.335	8.570	8.097	8.073	8.002	7.967	8.063	7.983	9.095	8.929	9.782	10.70	10.90	12.32	12.64	13.20	14.63	14.43
405.0	 2527	 2632	 2529	 2534	 2523	 2549	 2474	 2376	 2235	 2083	 2003	 2055	 2166	 2287	 2405	 2492	 2559	 2561	 2479	 2298	 2098	 1913	 1730	 1553	 1371	 1200	 1064	944.2	736.7	543.7	399.0	280.4	204.3	194.4	326.9	 1647	 7365	 9395	 1407	20.03	11.93	10.96	10.54	9.983	10.39	10.23	9.512	10.08	8.853	8.113	8.947	10.24	10.20	10.16	10.26	10.33	10.40	10.23	9.913	8.992	8.766	8.150	7.984	7.791	7.767	8.064	7.870	8.658	8.995	9.958	10.79	11.17	12.11	12.91	13.70	14.94	14.70
410.0	 2633	 2672	 2608	 2540	 2571	 2592	 2534	 2424	 2238	 2028	 1922	 1966	 2090	 2213	 2352	 2477	 2569	 2605	 2526	 2377	 2181	 1993	 1808	 1630	 1451	 1273	 1109	975.0	847.2	651.2	467.3	327.6	228.0	167.3	154.0	422.8	 1953	 6061	 7758	 1247	25.24	12.90	11.85	11.17	10.96	10.63	10.03	10.34	9.320	8.144	8.886	10.39	10.17	10.42	10.04	10.73	10.66	10.32	9.820	9.129	8.539	8.151	7.808	7.489	7.265	7.630	7.824	8.319	9.086	9.482	10.52	11.48	11.76	12.83	13.59	14.83	15.18
415.0	 2680	 2692	 2613	 2504	 2594	 2589	 2532	 2409	 2199	 1978	 1844	 1871	 1987	 2120	 2273	 2407	 2526	 2560	 2512	 2369	 2197	 2007	 1838	 1666	 1491	 1313	 1145	994.7	870.8	752.8	547.4	378.8	268.0	185.7	137.9	164.7	486.4	 1407	 3759	 8186	 2000	30.76	13.60	11.85	10.95	11.21	9.864	10.27	9.351	8.382	8.571	10.15	10.23	10.21	9.955	10.60	10.21	10.32	9.638	9.034	8.559	7.877	7.393	7.028	6.817	7.335	7.177	8.058	8.611	8.932	9.728	10.46	11.90	12.21	13.24	14.23	14.96
420.0	 2620	 2660	 2560	 2463	 2500	 2525	 2484	 2350	 2153	 1924	 1785	 1789	 1895	 2028	 2182	 2310	 2442	 2490	 2449	 2318	 2167	 1990	 1824	 1650	 1491	 1322	 1157	 1001	870.1	770.8	614.0	419.5	295.2	208.7	149.1	120.9	169.5	357.4	945.0	 5026	 7903	 1567	24.85	12.92	11.70	11.63	10.40	10.24	9.078	8.224	8.913	10.37	9.804	10.71	9.641	10.48	10.50	9.906	9.978	8.897	8.313	7.675	7.455	7.169	6.490	6.408	7.141	7.645	7.900	8.529	9.054	10.24	11.03	12.03	13.02	13.71	14.55
425.0	 2537	 2557	 2491	 2414	 2404	 2482	 2438	 2301	 2102	 1856	 1743	 1719	 1810	 1930	 2084	 2212	 2336	 2401	 2353	 2257	 2117	 1956	 1789	 1634	 1480	 1308	 1156	 1008	869.1	757.6	654.3	470.8	323.3	231.7	167.5	124.0	108.5	131.5	249.8	 1378	 5931	 6785	267.0	17.95	12.21	11.50	10.09	10.24	9.474	7.786	8.410	10.08	9.704	10.56	9.697	10.32	9.895	9.705	9.116	8.617	7.941	7.483	7.393	7.002	6.133	6.464	7.080	6.961	7.252	8.380	8.797	10.15	10.38	11.59	12.33	13.40	14.05
430.0	 2485	 2410	 2350	 2292	 2311	 2354	 2352	 2221	 2019	 1786	 1648	 1635	 1700	 1816	 1950	 2073	 2197	 2267	 2233	 2140	 2013	 1869	 1722	 1582	 1430	 1283	 1141	 1003	878.5	753.2	643.4	531.2	378.4	265.6	195.4	146.0	112.8	95.07	104.6	344.2	 1601	 4643	 5742	 1125	23.66	12.25	10.64	10.07	9.253	8.000	8.154	9.481	9.010	9.607	9.146	9.711	9.628	9.346	8.818	8.250	7.653	7.208	6.830	6.564	5.976	6.491	6.591	6.634	6.957	7.536	8.519	9.207	9.865	10.89	11.77	12.30	13.12
435.0	 2688	 2290	 2189	 2162	 2196	 2199	 2208	 2129	 1931	 1735	 1586	 1546	 1592	 1678	 1814	 1913	 2037	 2088	 2081	 1998	 1889	 1758	 1633	 1507	 1376	 1236	 1115	990.7	875.2	759.5	639.7	533.7	436.9	311.7	225.0	170.4	133.7	101.8	84.31	121.8	390.5	 1082	 3132	 6896	 1788	27.64	11.47	9.770	8.981	7.720	7.900	8.944	8.739	9.179	8.636	9.178	9.495	8.906	8.681	7.626	7.760	6.812	6.481	6.481	6.050	6.314	6.015	6.112	6.623	7.274	7.601	8.213	9.224	9.918	10.62	11.45	12.14
440.0	 2794	 2251	 2092	 2043	 2083	 2094	 2124	 2036	 1853	 1657	 1518	 1470	 1509	 1582	 1684	 1793	 1895	 1958	 1953	 1880	 1789	 1668	 1553	 1441	 1323	 1197	 1086	966.9	865.8	757.9	641.6	525.0	448.6	353.4	250.2	188.7	146.4	111.4	88.65	79.74	127.2	271.9	801.6	 4445	 6960	 1385	20.79	10.18	8.978	7.782	7.820	8.559	8.504	9.090	8.501	8.318	8.851	8.689	8.501	7.468	7.537	6.286	6.165	5.912	5.746	5.509	5.687	5.827	6.176	6.752	7.139	7.786	8.697	9.124	9.730	10.68	11.68
445.0	 2635	 2418	 1968	 1907	 1944	 1989	 2006	 1946	 1781	 1590	 1446	 1403	 1432	 1476	 1573	 1668	 1758	 1819	 1816	 1760	 1669	 1573	 1470	 1371	 1264	 1148	 1045	939.3	845.8	749.2	640.2	523.0	434.6	374.1	277.9	203.1	156.7	122.2	96.44	76.76	73.70	94.82	205.9	 1237	 5438	 6092	222.8	14.99	9.380	8.104	7.437	8.405	8.086	8.601	8.246	7.845	8.573	8.318	7.744	7.284	6.948	6.251	5.612	5.699	5.492	5.193	5.395	5.474	5.948	6.245	6.543	7.141	7.777	8.379	9.065	10.00	10.83
450.0	 2067	 2572	 1994	 1744	 1792	 1812	 1845	 1786	 1655	 1477	 1351	 1301	 1306	 1346	 1413	 1502	 1579	 1625	 1630	 1580	 1505	 1425	 1337	 1255	 1164	 1067	973.2	883.6	803.1	718.3	622.0	514.2	421.5	361.4	306.4	230.4	172.0	133.3	106.8	83.90	68.30	61.09	77.77	302.2	 1477	 4345	 5211	977.8	18.59	8.191	7.336	7.915	7.704	7.849	7.308	7.579	7.859	7.964	7.224	6.677	6.337	5.888	5.476	5.361	5.070	5.005	4.992	5.276	5.403	5.563	6.150	6.546	7.017	7.597	8.342	8.340	9.354
455.0	 1603	 2236	 2368	 1594	 1594	 1624	 1662	 1627	 1506	 1346	 1248	 1181	 1170	 1202	 1257	 1318	 1382	 1426	 1425	 1391	 1331	 1273	 1203	 1119	 1050	973.9	888.6	817.6	752.7	685.0	597.0	503.2	413.2	343.4	297.7	255.6	191.0	144.9	116.9	93.83	74.27	60.06	54.33	96.25	352.6	 1013	 2776	 5714	 1390	18.53	7.653	7.676	6.949	6.997	6.905	6.766	7.196	7.293	6.749	6.197	5.839	5.403	5.170	4.824	4.648	4.613	4.346	4.539	4.795	4.756	5.414	6.110	6.238	6.439	7.169	7.749	8.220
460.0	 1360	 1695	 2595	 1667	 1438	 1506	 1529	 1495	 1403	 1259	 1150	 1099	 1078	 1096	 1135	 1186	 1234	 1281	 1277	 1252	 1201	 1149	 1094	 1026	961.9	893.1	827.7	760.5	707.0	648.4	571.6	483.2	401.2	334.7	281.5	256.2	208.3	152.7	122.6	98.11	78.97	63.53	53.13	53.31	104.7	247.5	706.1	 3748	 5203	919.1	14.64	7.970	6.857	7.121	6.644	6.424	6.590	6.223	5.956	5.614	5.188	4.951	4.681	4.526	4.321	4.239	4.177	4.171	4.631	4.567	4.890	5.221	5.398	5.946	6.515	6.846	7.391
465.0	 1270	 1343	 2406	 2039	 1339	 1377	 1411	 1374	 1298	 1171	 1071	 1011	995.6	 1004	 1034	 1070	 1123	 1162	 1155	 1134	 1091	 1045	985.4	937.5	884.7	821.7	766.5	713.4	658.6	611.7	542.6	464.0	387.9	327.2	271.7	239.3	214.5	164.6	126.5	100.3	83.28	67.37	55.74	47.21	51.77	78.37	176.7	 1050	 4278	 4088	180.2	9.545	6.799	6.746	6.291	6.148	6.403	5.991	5.539	4.950	4.972	4.871	4.208	4.135	4.079	4.137	3.738	3.899	4.131	4.090	4.438	4.720	5.220	5.363	5.580	6.136	6.556
470.0	 1115	 1161	 1579	 2425	 1490	 1201	 1244	 1221	 1162	 1057	966.7	909.8	889.1	881.5	902.9	929.0	969.1	990.1	993.9	967.9	937.4	902.8	863.8	825.9	779.8	729.2	683.2	638.1	597.4	554.0	499.9	431.8	364.8	308.7	259.9	222.9	198.0	174.5	137.4	105.7	86.53	72.25	59.90	50.17	44.23	43.88	60.04	252.1	 1169	 3148	 3347	789.3	15.65	6.943	5.949	5.870	5.990	5.395	5.215	4.706	4.303	4.408	4.042	3.915	3.819	3.574	3.454	3.463	3.596	3.816	3.863	4.169	4.477	4.661	4.674	5.264	5.746
475.0	958.4	975.6	 1080	 1924	 2176	 1097	 1073	 1085	 1019	936.8	870.4	815.8	788.4	775.0	778.1	797.0	829.4	845.6	842.9	829.5	796.7	776.3	745.1	714.8	683.0	635.5	602.5	566.7	536.9	499.8	454.6	394.6	340.6	292.4	245.4	210.3	183.5	165.0	148.6	115.4	91.13	76.53	64.67	53.94	45.93	39.53	37.10	75.34	275.8	731.3	 1869	 3673	 1102	18.81	6.023	5.712	5.534	4.921	4.760	4.411	3.921	3.932	3.775	3.497	2.918	3.213	3.203	3.080	2.983	3.227	3.549	3.470	3.513	3.965	4.289	4.183	5.242
480.0	861.2	876.2	886.7	 1275	 2528	 1305	972.4	991.2	946.3	874.3	800.2	744.2	711.0	705.4	703.1	717.8	741.8	749.5	750.5	738.2	717.6	694.2	670.9	646.7	614.6	579.6	552.1	518.2	496.1	468.0	428.3	373.7	325.4	280.3	236.3	206.5	177.2	157.7	147.0	126.0	96.19	79.70	67.07	56.57	48.49	40.61	33.86	37.05	78.01	176.3	479.2	 2470	 3617	224.2	12.29	5.958	5.146	4.707	4.222	4.201	3.867	3.527	3.257	3.261	3.223	3.025	2.911	2.882	2.721	2.806	3.200	3.258	3.446	3.489	3.829	4.167	4.227
485.0	779.4	815.0	801.7	912.4	 2161	 1918	931.8	918.1	878.1	807.4	752.6	693.6	654.8	650.7	644.0	650.3	669.8	676.9	681.2	669.0	650.8	630.2	610.7	588.5	566.0	536.1	509.6	484.3	463.8	438.4	404.6	357.9	312.2	266.8	232.6	200.4	173.2	153.3	140.4	132.3	105.3	84.13	71.07	60.25	50.91	43.55	35.32	29.96	34.96	53.66	119.1	709.0	 3082	 3109	180.5	8.056	5.628	4.728	4.353	3.975	3.394	3.325	3.230	3.012	2.877	2.568	2.609	2.625	2.625	2.849	2.959	3.077	3.285	3.228	3.414	3.578	3.961
490.0	663.8	717.9	721.1	745.9	 1243	 2501	 1305	822.6	797.3	743.8	685.8	634.0	595.5	580.4	577.2	577.7	583.7	594.8	593.4	583.2	570.9	552.5	539.4	524.6	504.8	476.9	458.1	439.8	420.8	401.0	374.7	332.6	293.2	253.9	224.0	194.5	170.2	147.9	133.1	124.1	113.3	92.11	74.11	62.70	54.47	45.60	37.73	30.88	27.54	27.59	39.29	169.7	848.7	 2369	 2560	804.3	15.77	4.929	4.487	3.746	3.363	3.095	3.030	2.609	2.609	2.379	2.332	2.233	2.373	2.426	2.539	2.658	2.835	2.884	2.953	3.205	3.191
495.0	542.2	626.9	659.9	638.6	778.6	 1760	 2435	782.4	699.6	671.8	614.6	573.0	536.5	517.3	501.9	499.9	504.3	511.5	507.8	495.9	492.6	484.9	468.9	457.6	436.6	421.4	403.0	391.5	374.8	362.0	336.9	302.2	274.2	238.4	208.2	184.7	161.2	140.6	127.0	114.0	107.1	99.38	78.91	65.15	56.52	47.73	39.32	32.48	27.04	23.13	22.94	49.43	198.8	549.7	 1594	 3663	 1226	18.81	4.520	3.688	3.224	2.912	2.833	2.468	2.410	2.204	2.186	2.113	2.153	2.010	2.061	2.364	2.432	2.255	2.529	2.569	2.642
500.0	493.0	542.1	593.9	580.9	630.7	 1004	 2866	 1192	643.0	610.8	560.9	518.2	488.3	470.9	450.5	446.4	451.7	454.2	451.9	438.9	434.2	425.8	416.9	409.3	390.8	377.7	367.4	355.3	341.9	329.4	310.4	280.1	249.3	220.2	197.3	172.2	154.9	136.0	122.7	109.4	100.2	97.28	84.32	66.98	57.54	48.48	39.95	32.89	27.73	22.40	19.91	23.07	54.67	132.0	407.1	 2327	 3531	235.6	11.29	3.900	3.060	2.770	2.407	2.126	2.103	2.061	1.790	1.775	1.970	1.814	1.854	2.226	2.182	2.137	2.098	2.273	2.403
505.0	434.9	490.3	539.2	532.2	554.4	661.8	 2212	 2147	612.2	555.5	514.1	480.1	452.8	424.7	403.7	400.2	401.2	403.9	403.1	396.2	388.7	377.3	371.0	362.3	351.8	342.1	330.9	318.3	310.2	302.3	283.1	256.6	232.7	205.3	182.5	161.0	146.8	131.0	117.7	104.4	95.57	90.86	85.66	70.45	57.23	48.15	40.44	33.09	27.99	23.03	19.85	17.28	23.13	38.81	99.71	637.6	 2768	 2787	193.1	5.395	3.370	2.892	2.513	2.161	1.835	1.847	1.934	1.708	1.839	1.569	1.673	1.909	1.689	2.015	2.005	2.000	2.292
510.0	385.5	417.7	444.9	490.2	472.0	514.5	 1061	 2829	 1282	493.7	453.3	424.3	395.9	370.9	349.9	345.7	343.1	344.0	343.6	336.1	330.2	322.6	319.1	313.5	303.7	293.7	286.6	279.3	272.9	266.1	251.1	229.9	206.4	184.3	165.7	149.0	134.2	120.5	109.3	97.83	87.30	80.23	77.15	71.81	58.89	47.46	39.89	33.54	27.85	23.03	19.59	16.84	16.23	18.27	30.84	150.1	744.8	 1976	 2124	688.0	13.40	3.005	2.490	2.125	1.696	1.710	1.690	1.431	1.568	1.376	1.445	1.588	1.552	1.693	1.732	1.635	2.007
515.0	317.3	337.1	375.6	409.7	433.5	437.4	552.3	 1729	 2848	553.5	393.7	375.3	337.6	321.6	302.2	294.2	293.1	291.7	288.3	281.5	277.6	271.8	268.4	265.3	260.3	251.7	246.5	238.8	237.1	230.7	219.9	201.5	183.9	163.1	146.3	133.9	121.3	109.7	98.88	89.76	80.22	72.24	66.78	65.93	61.18	48.64	38.53	31.95	27.47	23.24	19.41	16.78	14.87	13.98	15.32	41.33	172.7	454.2	 1155	 2528	897.5	16.06	2.574	2.052	1.735	1.675	1.511	1.400	1.342	1.307	1.233	1.442	1.402	1.315	1.384	1.616	1.589
520.0	277.5	293.6	308.9	352.6	415.4	384.2	409.2	814.1	 3303	 1249	362.0	336.2	307.8	287.7	269.5	260.1	255.6	255.9	252.4	247.7	243.5	239.6	235.3	231.6	228.8	223.0	217.8	214.3	211.4	207.0	197.7	178.8	165.3	147.9	135.1	121.2	111.5	101.9	91.93	82.75	75.51	67.33	62.36	58.60	57.16	50.15	38.05	30.78	26.58	22.51	19.20	16.40	14.60	13.06	12.21	17.08	45.36	107.3	289.8	 1552	 2129	225.9	7.850	2.220	1.542	1.538	1.347	1.289	1.140	1.071	1.126	1.050	1.135	1.116	1.301	1.088	1.291
525.0	247.8	269.7	285.7	314.3	374.2	346.5	344.0	447.9	 2271	 2548	362.6	296.7	282.0	256.2	242.3	233.0	232.9	227.9	222.3	218.7	217.4	211.8	209.4	204.9	203.1	199.4	195.7	191.1	189.0	187.6	179.3	163.8	150.7	135.1	124.1	111.3	102.4	92.89	85.42	77.70	69.86	62.67	57.10	51.93	51.84	49.42	39.66	30.00	25.44	21.91	18.87	16.37	14.28	13.01	11.22	11.52	17.26	29.82	69.90	416.9	 1703	 1814	174.3	3.521	1.738	1.531	1.217	1.184	1.200	0.904	0.999	1.109	0.859	1.064	0.977	1.095	1.161
530.0	205.4	229.9	247.4	263.3	306.6	326.6	299.7	322.5	896.3	 3214	 1359	262.3	242.5	220.7	207.6	199.5	195.2	191.9	190.3	186.3	187.1	181.2	179.5	176.3	174.3	170.5	166.7	163.7	163.3	161.2	155.6	143.6	132.3	120.1	108.7	99.20	91.34	83.19	76.31	69.19	62.84	56.32	52.49	46.88	44.47	43.57	39.28	30.95	24.59	20.47	17.36	15.43	13.84	12.71	11.23	10.08	10.76	12.41	20.62	97.42	450.0	 1255	 1526	513.1	11.80	1.603	1.148	1.050	0.972	0.878	0.859	0.795	0.809	0.699	0.908	0.993	0.906
535.0	180.3	187.8	206.5	227.4	241.1	285.4	274.0	261.9	397.5	 1565	 3365	295.7	208.8	193.3	176.6	168.6	164.2	163.3	159.5	156.6	153.6	151.3	148.1	147.3	145.5	143.6	141.8	138.5	137.3	136.8	132.9	122.3	111.8	102.6	94.87	85.53	78.98	72.68	67.05	61.03	55.88	49.78	45.62	41.26	38.42	36.18	35.65	31.36	24.67	19.08	16.65	14.43	13.05	12.22	10.79	9.911	8.701	8.646	9.407	25.86	103.9	286.8	756.0	 1709	247.7	13.45	1.380	1.002	0.938	0.730	0.672	0.685	0.811	0.662	0.882	0.741	0.748
540.0	161.8	169.8	185.3	186.4	212.0	240.5	260.2	230.2	267.4	602.8	 3488	 1320	187.7	169.5	155.5	148.3	142.9	143.6	137.6	136.1	132.8	130.4	130.9	129.5	127.0	125.6	123.5	122.0	121.6	120.2	116.2	107.5	100.2	91.53	82.53	76.54	70.89	64.70	59.70	54.02	50.73	45.59	40.74	37.41	35.09	31.76	30.49	29.69	24.87	19.20	15.52	13.77	12.40	10.93	10.43	9.119	8.126	7.145	6.620	9.901	26.75	66.85	185.4	978.3	 1509	211.2	5.554	1.110	0.952	0.770	0.684	0.876	0.595	0.670	0.518	0.616	0.698
545.0	152.3	154.4	165.0	176.3	178.2	197.5	244.4	214.9	215.0	300.0	 2091	 2893	209.6	148.2	139.7	127.5	124.4	123.4	123.6	119.3	114.7	113.1	114.6	115.1	112.2	110.1	108.9	108.6	108.9	107.0	103.4	96.49	89.15	80.37	74.10	68.20	62.96	58.04	54.36	49.44	45.18	40.85	36.95	33.81	31.81	28.88	26.40	26.14	24.20	18.42	14.72	12.66	11.73	10.05	9.866	9.260	8.076	6.844	6.274	5.775	9.180	17.69	44.17	256.7	 1139	 1270	32.55	2.122	1.070	0.619	0.817	0.682	0.470	0.634	0.483	0.420	0.650
550.0	139.6	143.5	144.1	148.9	147.7	161.3	206.7	202.0	182.9	206.9	715.1	 3147	 1176	130.7	117.5	110.0	105.2	103.3	100.6	99.25	96.76	93.97	94.45	94.26	92.90	89.99	89.90	89.00	89.98	87.73	86.28	79.98	74.88	67.98	62.00	57.73	53.37	49.21	45.56	42.01	38.69	35.43	31.47	29.24	27.48	24.69	22.41	20.91	20.81	18.34	14.45	11.56	10.62	9.220	8.755	8.206	7.342	6.806	5.554	4.922	5.155	6.718	12.26	59.61	297.4	842.2	985.4	141.2	9.260	0.947	0.658	0.502	0.494	0.451	0.268	0.289	0.417
555.0	131.0	133.4	119.1	122.1	123.4	132.4	155.3	196.7	169.8	171.8	289.4	 1327	 3217	193.8	96.94	90.26	85.99	81.49	81.18	79.79	76.89	76.55	76.03	74.82	73.93	73.02	71.60	70.13	71.36	70.30	69.72	65.06	60.48	54.12	50.52	47.16	43.58	40.45	38.24	34.50	31.82	29.17	26.64	25.02	22.67	20.51	18.55	16.32	16.03	16.37	14.02	11.12	9.163	7.883	7.570	6.804	6.170	6.063	5.360	4.359	3.780	4.037	4.808	15.39	68.44	191.9	488.2	 1041	228.0	7.735	0.700	0.543	0.471	0.345	0.191	0.200	0.146
560.0	149.5	121.1	113.4	106.1	104.2	114.2	123.7	172.8	171.4	158.1	192.4	468.6	 3195	 1145	81.90	76.30	72.64	69.87	67.67	64.79	65.52	63.28	63.39	61.99	61.28	61.14	59.60	58.90	59.52	59.66	57.29	55.27	51.91	46.86	43.29	39.56	36.83	33.76	32.24	29.57	27.10	24.60	23.24	21.45	19.42	17.54	16.36	14.24	13.31	13.04	13.18	10.55	8.272	7.545	6.690	6.313	5.653	5.654	4.870	4.126	3.409	3.569	3.204	5.498	17.35	44.44	120.2	631.7	924.8	166.6	1.835	0.684	0.526	0.213	0.197	0.263	0.083
565.0	154.4	135.4	114.4	99.06	93.32	97.96	109.2	144.6	179.1	161.3	170.8	224.1	 1773	 2645	112.5	63.43	60.81	57.27	57.93	54.14	54.89	51.93	53.11	52.09	52.08	51.33	50.06	50.56	50.69	50.39	48.86	45.48	43.78	39.59	36.05	34.14	31.16	28.67	27.40	24.70	23.08	21.34	20.12	18.34	16.95	15.06	13.78	12.51	11.30	10.36	11.13	10.13	7.986	6.869	6.020	5.682	5.209	4.792	4.115	4.008	3.640	2.940	2.740	3.111	5.718	11.47	28.57	170.1	724.3	717.1	28.05	0.778	0.367	0.213	0.224	0.178	0.098
570.0	156.9	138.3	114.7	86.75	81.56	83.93	92.73	119.2	174.8	169.7	171.8	179.6	582.6	 2689	884.3	55.24	49.96	46.89	47.07	44.48	42.92	42.67	42.86	41.39	42.03	41.30	40.44	40.29	40.04	40.21	38.62	36.44	34.47	32.00	28.72	27.65	25.61	23.67	21.93	19.87	19.37	17.09	15.90	14.74	14.23	12.65	11.33	10.37	9.111	8.113	8.100	8.628	7.630	6.203	5.178	4.898	4.573	4.053	3.600	3.454	3.201	2.755	2.711	2.352	3.040	4.181	7.816	39.48	192.8	505.6	440.4	125.3	5.029	0.305	0.227	0.075	0.151
575.0	163.9	139.4	120.1	84.95	72.15	73.34	82.96	100.7	148.7	198.0	181.0	185.4	241.4	 1039	 2689	122.4	39.57	37.48	37.21	35.80	34.33	33.83	33.02	32.90	32.32	32.50	31.83	30.64	31.91	31.17	29.87	29.00	26.93	24.76	22.93	22.14	21.02	18.81	17.19	15.79	15.18	13.43	12.91	11.81	11.41	10.48	9.094	8.364	6.967	6.719	6.269	6.209	6.560	5.712	4.855	4.226	3.917	3.354	3.053	2.885	2.853	2.698	2.418	2.221	2.302	2.412	3.077	9.924	44.06	115.7	274.1	600.7	163.7	2.638	0.316	0.062	0.084
580.0	160.5	156.0	126.4	85.67	62.26	72.66	78.67	93.74	132.6	204.8	196.1	190.3	167.9	338.7	 2547	870.9	36.21	31.77	31.91	30.04	27.53	27.46	28.04	27.47	26.87	26.17	26.16	26.10	26.46	26.71	24.73	24.08	22.13	20.71	19.66	18.30	16.96	15.92	15.17	13.29	12.60	11.51	10.78	10.03	9.765	8.869	7.708	7.326	6.337	5.682	5.271	4.734	5.335	5.277	4.792	3.755	3.291	3.121	2.873	2.440	2.686	2.426	2.494	2.069	2.057	2.061	2.138	3.226	10.99	26.54	69.64	385.6	531.0	31.12	0.617	-0.019	-0.073
585.0	164.5	152.9	126.8	87.61	61.64	66.52	70.12	87.54	118.6	193.8	218.5	197.4	161.8	152.6	 1316	 2142	65.36	28.88	26.07	25.64	23.75	23.08	23.64	22.99	22.88	22.51	21.86	22.45	22.70	22.18	21.96	20.55	19.48	17.66	16.92	15.84	14.63	13.36	12.76	11.27	10.86	10.00	9.059	8.692	8.328	7.835	7.157	6.156	5.529	4.870	4.578	3.894	4.189	4.777	4.362	3.598	3.110	2.673	2.316	2.358	2.258	2.095	2.261	1.887	1.776	1.928	1.754	1.639	3.363	6.697	16.38	106.4	450.9	270.8	22.37	0.152	-0.042
590.0	159.0	166.2	132.0	92.43	63.10	60.29	66.60	82.11	111.3	166.7	226.8	200.5	160.9	110.8	388.4	 2054	880.6	26.89	21.80	20.32	19.93	19.52	19.42	18.85	18.31	17.68	17.82	17.84	18.18	17.11	17.47	16.40	15.31	14.17	13.64	12.56	12.09	10.99	10.08	9.258	8.711	8.151	7.676	7.188	6.803	6.317	5.573	5.369	4.652	4.169	3.752	3.341	3.057	3.470	3.964	3.513	2.782	2.180	2.087	2.005	1.809	1.821	1.795	1.929	1.760	1.722	1.532	1.413	1.556	2.266	4.093	24.27	124.1	282.6	299.5	83.59	1.969
595.0	167.8	169.3	127.3	89.32	57.08	58.64	58.31	71.92	101.9	140.2	216.3	213.9	158.7	104.7	128.8	743.2	 2030	87.14	18.19	17.34	15.58	16.32	14.34	15.19	14.43	14.44	13.97	13.71	13.64	13.42	13.73	13.39	12.33	10.95	10.45	9.788	9.175	8.519	7.946	7.514	6.775	6.192	6.223	5.835	5.514	5.112	4.676	4.462	3.757	3.320	2.877	2.646	2.449	2.526	3.133	2.995	2.690	2.031	1.577	1.775	1.402	1.581	1.566	1.448	1.688	1.548	1.397	1.116	1.113	1.143	1.415	5.744	27.89	65.31	188.9	353.2	34.79
600.0	151.7	154.3	126.8	83.96	55.58	55.51	52.87	71.05	97.95	138.0	198.1	216.7	161.9	102.9	71.73	208.9	 1835	658.5	17.41	14.60	13.10	13.15	12.84	12.68	12.51	11.81	11.89	11.69	11.62	11.01	11.45	10.55	10.29	9.080	8.657	8.602	7.628	7.161	6.805	6.338	5.649	5.409	5.324	4.739	4.694	4.187	3.884	3.693	3.162	2.923	2.668	2.273	2.226	2.243	2.463	2.593	2.449	1.915	1.525	1.513	1.334	1.281	1.392	1.129	1.674	1.538	1.262	0.925	0.887	0.796	0.773	1.719	6.448	14.82	49.27	246.9	271.8
605.0	134.0	148.4	130.2	87.53	56.19	51.18	53.45	69.14	94.62	129.3	176.7	216.2	162.9	103.2	58.30	68.75	930.1	 1595	44.51	12.82	11.94	12.20	11.71	11.31	10.24	10.45	10.03	9.671	9.493	9.540	9.462	9.142	8.379	8.084	7.653	7.061	6.515	6.317	5.724	5.371	4.830	4.455	4.252	4.121	4.091	4.088	3.434	3.240	2.799	2.443	2.119	2.045	1.920	1.741	1.922	1.887	2.483	1.743	1.545	1.366	1.259	1.082	1.092	1.071	1.362	1.505	1.298	0.948	0.696	0.753	0.622	0.832	1.601	3.566	11.10	71.58	264.8
610.0	128.4	131.4	118.3	86.23	56.71	46.65	48.73	63.39	87.99	119.2	154.0	195.9	169.9	101.7	56.15	37.83	259.7	 1534	689.0	13.07	9.740	9.591	9.278	8.588	8.115	8.726	8.161	8.158	7.857	7.789	7.451	7.446	6.722	6.285	6.223	5.573	5.684	5.000	4.638	4.189	4.005	3.645	3.392	3.352	3.335	3.223	2.863	2.540	2.318	2.153	1.876	1.691	1.511	1.492	1.416	1.566	1.689	1.657	1.494	1.085	1.006	1.089	0.884	0.952	1.007	1.226	1.254	0.985	0.644	0.611	0.486	0.355	0.507	0.900	2.453	16.05	75.53
615.0	115.6	119.0	104.0	77.79	53.14	43.04	44.68	55.82	81.63	111.8	143.0	169.0	174.4	106.0	55.95	30.46	72.55	547.2	 1602	65.19	7.998	7.752	7.087	7.416	7.029	6.927	6.358	6.110	6.198	6.487	6.068	5.982	5.099	5.032	4.631	4.254	4.325	4.123	3.691	3.307	3.248	3.159	2.728	2.762	2.782	2.624	2.178	2.223	1.721	1.690	1.433	1.321	1.098	1.063	0.898	1.170	1.172	1.220	1.306	1.028	0.900	0.666	0.629	0.568	0.742	1.043	0.924	0.764	0.743	0.432	0.253	0.126	0.161	0.259	0.463	3.510	16.72
620.0	104.1	115.1	99.43	76.28	49.06	40.12	44.68	54.04	74.83	104.3	134.6	151.7	161.2	112.3	54.66	30.68	31.00	146.6	 1458	518.6	7.818	6.457	6.341	6.456	6.055	5.687	5.363	5.178	5.207	5.452	5.007	4.577	4.340	4.706	3.833	3.530	3.424	3.614	3.128	2.713	2.817	2.508	2.557	2.191	1.983	2.154	1.868	1.858	1.697	1.327	1.002	1.075	0.929	0.791	0.705	1.033	1.020	0.995	1.128	1.172	0.799	0.607	0.491	0.682	0.759	0.788	0.758	0.655	0.801	0.577	0.222	0.112	0.129	0.004	0.135	0.728	3.637
625.0	101.9	106.0	100.3	67.92	43.33	40.63	40.95	51.51	67.41	93.52	125.9	143.2	148.4	121.7	57.51	32.39	21.95	44.14	741.5	 1284	29.58	6.203	5.481	5.292	5.253	4.972	4.639	4.215	4.484	4.272	4.097	3.888	3.899	3.830	3.588	3.156	2.932	2.841	2.408	2.332	2.209	2.109	2.018	1.722	1.575	1.773	1.636	1.405	1.344	1.256	0.889	0.926	0.629	0.663	0.769	0.705	0.824	0.726	1.011	1.088	0.672	0.731	0.521	0.694	0.654	0.568	0.689	0.499	0.534	0.495	0.308	0.158	0.091	0.186	0.018	0.042	0.798
630.0	91.00	95.94	88.43	62.54	44.52	34.93	38.79	47.82	63.04	87.28	117.3	130.0	131.3	120.4	64.68	32.45	19.87	20.11	203.2	 1267	411.0	7.187	4.811	4.332	4.063	3.871	3.503	3.556	3.707	3.125	3.169	3.162	3.026	2.945	2.871	2.497	2.464	2.060	2.018	1.704	1.958	1.603	1.447	1.365	1.181	1.305	1.308	1.201	1.106	0.918	0.823	0.768	0.579	0.605	0.617	0.593	0.656	0.540	0.750	0.723	0.713	0.664	0.528	0.482	0.490	0.487	0.426	0.510	0.362	0.435	0.367	0.241	0.163	0.096	-0.083	0.005	0.029
635.0	87.05	93.78	75.70	56.82	39.83	36.32	37.34	48.19	62.03	81.00	106.6	122.7	120.1	105.2	77.05	35.49	20.75	15.64	53.57	463.8	 1269	51.14	4.439	3.638	3.316	3.130	2.912	2.852	3.000	2.662	2.285	2.611	2.518	2.170	2.233	1.831	1.962	1.812	1.377	1.282	1.537	1.559	1.102	1.184	1.218	1.049	1.047	1.001	0.932	0.781	0.662	0.567	0.497	0.499	0.523	0.608	0.443	0.516	0.311	0.475	0.626	0.513	0.484	0.349	0.425	0.327	0.478	0.273	0.328	0.299	0.303	0.105	0.107	-0.044	0.015	-0.046	-0.076
640.0	87.27	99.54	78.04	56.27	42.38	35.67	39.68	47.24	58.25	80.81	97.78	114.9	111.4	95.41	81.47	38.34	21.91	14.70	20.19	122.7	 1194	415.0	4.420	3.135	2.749	2.963	2.577	2.458	2.416	2.186	2.057	2.077	2.086	1.798	1.674	1.633	1.441	1.413	1.278	1.084	1.129	1.249	1.005	0.893	0.885	0.867	0.978	0.898	0.769	0.678	0.579	0.438	0.520	0.512	0.401	0.315	0.210	0.272	0.296	0.313	0.376	0.376	0.395	0.367	0.381	0.289	0.439	0.336	0.377	0.302	0.264	0.164	0.132	-0.153	-0.023	-0.079	-0.055
645.0	85.23	92.89	83.70	58.84	38.77	32.96	34.59	43.47	55.84	76.38	91.92	107.5	108.6	90.13	79.49	43.69	23.42	14.71	13.12	34.37	626.0	999.6	18.28	3.332	2.473	2.600	2.226	2.319	2.268	1.810	2.049	1.690	1.535	1.670	1.476	1.556	1.021	1.400	0.942	0.913	0.850	1.110	0.892	0.779	0.791	0.786	0.822	0.747	0.647	0.550	0.500	0.390	0.375	0.345	0.344	0.320	0.294	0.106	0.186	0.277	0.251	0.386	0.432	0.304	0.287	0.325	0.342	0.277	0.296	0.270	0.219	0.017	0.187	0.086	-0.197	-0.082	-0.167
650.0	88.84	82.33	79.30	52.66	35.70	31.68	30.78	39.91	54.85	70.86	86.01	102.4	102.6	85.52	72.21	51.05	24.01	16.03	12.40	14.66	197.4	 1215	64.54	3.054	2.622	2.096	2.001	1.899	1.632	1.615	1.433	1.304	1.276	1.468	1.027	1.417	0.908	1.181	1.015	0.501	0.731	0.858	0.753	0.843	0.859	0.548	0.602	0.539	0.456	0.564	0.480	0.319	0.354	0.271	0.243	0.257	0.220	0.224	0.244	0.288	0.180	0.260	0.230	0.224	0.400	0.320	0.297	0.355	0.214	0.119	0.221	-0.010	0.127	-0.002	0.051	0.027	-0.142
