Sample:	'1
File name:	G2025080805¿˚√Ò’¢.FD3
Run date:	'13:13:57, 08/11/2025
Operator:	Administrator
Comment:	'

Instrument
Model:	F-2700 FL Spectrophotometer
Serial number:	23B8-004
ROM Version:	4J14000 07

Instrument parameters
Measurement type:	3-D scan
Data mode:	Fluorescence
EX  Start WL:	220.0 nm
EX  End WL:	600.0 nm
EX Sampling interval:	5.0 nm
EM  Start WL:	230.0 nm
EM  End WL:	650.0 nm
EM Sampling interval:	5.0 nm
Scan speed:	12000 nm/min
EX Slit:	5.0 nm
EM Slit:	5.0 nm
PMT Voltage:	700 V
Response:	Auto 
Corrected spectra:	Off
Contour interval:	50.000

Peak integration
Integration method:	Rectangular
Sensitivity:	1
Threshold:	1.000

Peaks
No.	ApexEX/EM(nm)	Height(Data)
1	225.0/610.0	71.92
2	230.0/615.0	71.08
3	235.0/345.0	4611
4	240.0/265.0	361.0
5	245.0/270.0	369.9
6	250.0/275.0	480.3
7	255.0/280.0	642.1
8	260.0/570.0	161.0
9	265.0/585.0	139.2
10	270.0/600.0	129.0
11	275.0/435.0	4350
12	275.0/615.0	156.2
13	280.0/415.0	4582
14	280.0/625.0	143.8
15	285.0/340.0	4140
16	285.0/640.0	143.2
17	350.0/415.0	3274
18	355.0/435.0	3288
19	475.0/345.0	14.13
20	500.0/445.0	9.768
21	505.0/275.0	2.855
22	515.0/280.0	2.994
23	520.0/285.0	3.515
24	530.0/290.0	3.576
25	555.0/415.0	11.46

Data points
	220.0	225.0	230.0	235.0	240.0	245.0	250.0	255.0	260.0	265.0	270.0	275.0	280.0	285.0	290.0	295.0	300.0	305.0	310.0	315.0	320.0	325.0	330.0	335.0	340.0	345.0	350.0	355.0	360.0	365.0	370.0	375.0	380.0	385.0	390.0	395.0	400.0	405.0	410.0	415.0	420.0	425.0	430.0	435.0	440.0	445.0	450.0	455.0	460.0	465.0	470.0	475.0	480.0	485.0	490.0	495.0	500.0	505.0	510.0	515.0	520.0	525.0	530.0	535.0	540.0	545.0	550.0	555.0	560.0	565.0	570.0	575.0	580.0	585.0	590.0	595.0	600.0
230.0	44.58	671.2	2356	847.7	45.69	7.996	6.988	5.729	5.358	4.866	5.087	4.805	4.291	4.019	3.319	2.891	2.540	2.144	1.897	1.832	1.586	1.619	1.418	1.363	1.412	1.317	1.192	1.204	1.234	1.146	1.085	0.961	0.817	0.782	0.652	0.658	0.559	0.474	0.416	0.388	0.407	0.426	0.428	0.405	0.327	0.362	0.727	3.556	6.930	5.829	2.372	0.637	0.267	0.286	0.253	0.257	0.281	0.255	0.249	0.248	0.265	0.284	0.242	0.238	0.245	0.261	0.287	0.251	0.257	0.240	0.246	0.267	0.237	0.214	0.290	0.275	0.277
235.0	75.00	193.4	1251	2609	689.0	77.07	9.146	7.494	5.675	4.988	5.586	5.522	3.997	3.795	3.378	3.378	2.582	2.190	1.797	1.967	1.586	1.438	1.538	1.532	1.248	1.246	1.284	1.311	1.298	1.078	1.070	0.872	0.795	0.794	0.727	0.567	0.567	0.517	0.471	0.411	0.420	0.400	0.448	0.467	0.523	0.404	0.405	1.038	2.339	4.682	7.468	9.113	4.685	1.213	0.296	0.277	0.253	0.308	0.251	0.255	0.270	0.328	0.293	0.304	0.209	0.258	0.282	0.218	0.219	0.284	0.275	0.253	0.260	0.263	0.247	0.293	0.241
240.0	112.8	120.9	363.3	1865	3063	555.5	41.93	7.947	6.137	6.386	5.725	4.768	4.252	4.525	4.659	3.144	2.784	2.625	1.864	1.822	1.510	1.584	1.489	1.435	1.370	1.236	1.384	1.446	1.171	1.213	1.200	1.036	0.861	0.776	0.654	0.523	0.568	0.475	0.456	0.356	0.368	0.390	0.416	0.402	0.543	0.452	0.484	0.505	0.735	1.369	3.308	9.122	12.66	10.11	4.226	0.852	0.281	0.293	0.219	0.317	0.251	0.276	0.290	0.265	0.290	0.278	0.256	0.224	0.232	0.298	0.246	0.270	0.304	0.240	0.253	0.255	0.246
245.0	81.14	171.6	156.5	577.1	2766	3362	428.2	21.30	8.269	6.524	6.447	5.310	5.149	4.639	4.389	3.000	2.597	2.452	2.139	2.125	1.637	1.615	1.705	1.528	1.529	1.353	1.282	1.510	1.265	1.375	1.147	1.098	0.908	0.902	0.675	0.487	0.554	0.460	0.436	0.385	0.369	0.379	0.458	0.331	0.404	0.518	0.680	0.722	0.447	0.530	0.936	2.767	7.107	13.82	15.65	9.957	3.336	0.523	0.280	0.269	0.309	0.256	0.336	0.271	0.312	0.329	0.298	0.222	0.238	0.280	0.263	0.266	0.259	0.265	0.277	0.291	0.261
250.0	47.57	125.6	224.8	231.0	825.4	2659	3888	1513	102.3	8.931	7.061	6.249	5.394	5.204	3.964	3.325	2.958	2.458	2.214	2.073	1.823	1.656	1.580	1.436	1.327	1.363	1.322	1.385	1.338	1.215	1.193	1.107	0.896	0.843	0.741	0.549	0.540	0.479	0.464	0.438	0.385	0.402	0.395	0.367	0.341	0.388	0.457	0.666	0.799	0.787	0.681	0.928	1.885	4.136	7.706	12.38	16.95	16.38	10.39	3.456	0.670	0.285	0.304	0.287	0.278	0.288	0.270	0.222	0.233	0.276	0.235	0.299	0.316	0.312	0.246	0.282	0.302
255.0	34.56	55.81	146.7	314.4	295.9	651.1	2353	5885	2219	125.9	9.941	8.202	6.169	5.154	4.439	4.039	2.999	3.246	2.109	2.084	2.062	1.552	1.540	1.559	1.581	1.414	1.441	1.409	1.239	1.276	1.337	1.049	1.021	0.933	0.708	0.677	0.592	0.544	0.504	0.457	0.403	0.420	0.378	0.338	0.356	0.328	0.355	0.421	0.408	0.662	1.059	1.347	0.974	1.269	1.966	3.146	5.215	11.66	23.03	28.08	16.82	4.413	0.534	0.275	0.337	0.269	0.287	0.324	0.250	0.280	0.237	0.297	0.292	0.310	0.251	0.268	0.349
260.0	34.59	36.61	61.50	244.2	347.3	222.6	657.1	3883	6937	1745	59.21	11.09	8.145	6.643	4.931	4.305	3.510	2.989	2.469	2.192	1.855	1.816	1.682	1.630	1.571	1.485	1.374	1.458	1.319	1.440	1.270	1.117	1.065	0.846	0.704	0.628	0.594	0.498	0.411	0.474	0.453	0.436	0.436	0.353	0.370	0.368	0.322	0.328	0.333	0.366	0.615	1.419	1.582	1.172	0.882	1.040	1.528	3.147	8.095	19.43	31.20	28.62	14.58	2.743	0.329	0.279	0.316	0.353	0.227	0.253	0.243	0.279	0.246	0.252	0.279	0.248	0.327
265.0	33.08	29.28	33.62	105.6	361.0	278.9	193.6	1159	5730	7234	293.5	26.85	9.489	8.225	6.056	4.277	3.813	3.482	2.512	2.298	1.906	2.094	1.691	1.761	1.553	1.514	1.496	1.302	1.454	1.559	1.373	1.279	0.960	0.821	0.707	0.590	0.537	0.529	0.471	0.451	0.440	0.403	0.475	0.386	0.386	0.451	0.314	0.321	0.307	0.306	0.357	0.715	1.308	1.892	1.490	0.800	0.668	0.963	2.209	5.208	13.13	28.34	39.50	26.56	10.22	1.234	0.402	0.315	0.335	0.287	0.292	0.252	0.268	0.258	0.255	0.255	0.297
270.0	60.19	48.08	46.58	49.72	160.8	369.9	316.1	328.9	1657	5436	7705	2758	80.51	11.03	7.470	5.501	4.757	4.139	3.157	2.661	2.059	2.008	1.804	1.748	1.745	1.362	1.582	1.452	1.531	1.475	1.378	1.138	0.966	0.903	0.781	0.682	0.632	0.513	0.483	0.445	0.442	0.465	0.437	0.408	0.420	0.458	0.415	0.383	0.414	0.349	0.313	0.462	0.554	1.021	1.519	1.860	1.842	1.149	0.948	1.521	3.311	7.497	15.46	24.63	29.11	32.18	18.48	8.299	1.316	0.394	0.363	0.335	0.343	0.314	0.321	0.336	0.285
275.0	124.5	130.9	117.4	73.25	77.54	167.7	480.3	388.9	455.2	1335	4275	9999.9	1608	88.41	10.63	7.499	5.885	4.310	3.914	3.058	2.368	2.367	2.104	1.853	1.735	1.581	1.734	1.525	1.559	1.415	1.396	1.405	1.063	0.912	0.947	0.840	0.748	0.642	0.561	0.540	0.604	0.508	0.464	0.473	0.532	0.621	0.530	0.537	0.430	0.497	0.390	0.485	0.468	0.565	0.608	0.935	1.783	2.855	2.428	1.255	1.204	2.147	3.972	6.000	7.841	15.92	35.11	49.24	28.81	9.922	1.014	0.396	0.406	0.381	0.386	0.357	0.320
280.0	193.4	236.7	218.1	134.9	88.12	101.8	298.6	642.1	344.5	410.8	1205	6576	9999.9	1193	43.58	9.329	6.690	5.192	3.818	2.988	2.776	2.208	2.145	1.862	1.995	1.662	1.666	1.698	1.405	1.423	1.379	1.229	1.153	1.034	0.912	0.877	0.814	0.718	0.731	0.580	0.546	0.593	0.594	0.606	0.767	0.785	0.814	0.830	0.732	0.700	0.554	0.546	0.632	0.564	0.527	0.539	0.920	1.635	2.815	2.994	1.667	1.145	1.534	1.908	2.510	4.294	10.47	25.79	47.89	36.44	23.03	4.952	0.664	0.415	0.387	0.358	0.330
285.0	276.8	365.8	318.8	221.3	121.2	102.1	165.0	508.3	632.7	306.1	449.6	1966	8658	9155	160.0	19.33	8.406	6.359	4.362	3.964	3.242	2.392	2.269	2.069	2.149	1.926	1.786	1.856	1.726	1.251	1.559	1.264	1.172	1.025	1.127	0.987	0.893	0.690	0.675	0.705	0.606	0.674	0.682	0.722	0.888	0.991	1.047	1.033	1.017	0.793	0.808	0.801	0.654	0.722	0.532	0.555	0.679	0.925	1.454	2.753	3.515	2.473	1.454	1.146	1.302	1.845	3.188	6.904	16.28	31.80	52.90	33.12	16.95	2.327	0.401	0.365	0.474
290.0	389.2	499.9	478.2	321.7	195.3	150.5	165.9	297.1	641.0	745.4	472.7	721.6	2526	6906	8044	2274	47.16	9.495	5.532	4.648	3.666	2.763	2.445	2.209	2.222	1.920	1.867	1.881	1.815	1.488	1.544	1.250	1.269	1.271	1.299	1.111	1.061	0.880	0.847	0.887	0.728	0.751	0.805	0.914	1.045	1.146	1.419	1.461	1.412	1.167	1.065	1.069	0.901	0.866	0.719	0.699	0.805	0.857	1.074	1.600	2.289	2.865	3.576	3.078	2.334	1.727	2.014	2.719	4.811	8.630	17.33	26.13	38.70	37.22	22.40	11.56	2.489
295.0	489.1	635.3	613.3	432.5	273.9	224.8	230.1	300.2	458.7	858.1	1034	669.7	943.2	1825	4327	9999.9	888.0	53.97	8.554	6.189	4.514	3.375	3.079	2.278	2.220	2.277	1.914	1.984	1.601	1.651	1.610	1.509	1.245	1.272	1.372	1.286	1.184	1.058	0.823	0.746	0.851	0.856	0.899	0.925	1.146	1.376	1.545	1.671	1.608	1.481	1.317	1.302	1.182	1.090	0.981	1.017	1.206	1.046	1.303	1.464	1.682	2.007	2.518	3.899	5.197	4.054	2.768	2.674	2.895	3.554	5.363	7.128	10.15	14.39	31.11	52.99	34.63
300.0	523.8	743.4	717.7	526.5	383.0	329.8	368.2	450.4	598.1	884.9	1489	1230	908.8	897.4	1404	6318	7288	710.6	30.31	8.819	5.341	4.203	3.608	2.544	2.528	2.419	2.093	1.997	1.792	1.693	1.770	1.577	1.430	1.521	1.402	1.382	1.197	1.193	1.125	0.969	0.896	0.891	0.876	1.090	1.194	1.536	1.773	2.002	1.913	1.758	1.625	1.564	1.609	1.399	1.283	1.342	1.578	1.633	1.961	2.284	2.290	2.311	2.817	3.812	4.707	6.406	6.142	4.667	3.930	3.612	3.687	3.591	4.107	4.916	9.323	23.25	44.44
305.0	620.7	867.8	863.0	657.8	508.0	481.2	561.7	737.8	930.2	1245	1741	2111	1503	1091	998.1	2140	7525	6271	489.5	17.24	7.727	4.835	4.287	3.140	3.001	2.893	2.598	2.244	2.039	1.869	1.784	1.737	1.493	1.361	1.585	1.309	1.375	1.244	1.158	1.130	1.120	0.981	0.988	1.204	1.422	1.559	2.005	2.415	2.430	2.099	2.111	2.060	1.948	1.910	1.718	2.047	2.322	2.534	2.881	3.227	3.376	3.745	4.631	5.121	5.371	6.570	7.650	8.404	6.834	5.695	5.341	4.381	4.481	4.162	4.679	7.409	14.41
310.0	704.9	995.8	1049	837.2	668.3	647.7	771.1	964.5	1179	1516	1863	2306	2274	1521	1199	1169	2639	6166	6275	1691	36.42	8.723	5.781	4.451	3.541	3.105	2.631	2.508	2.268	2.181	1.888	1.830	1.578	1.468	1.620	1.372	1.256	1.275	1.233	1.147	1.129	1.110	1.298	1.311	1.756	1.971	2.277	2.707	2.947	2.523	2.432	2.673	2.484	2.444	2.464	2.564	2.953	3.363	3.620	3.931	4.291	4.749	5.491	6.145	6.400	6.953	7.733	8.377	9.108	9.055	7.755	6.453	5.687	5.502	5.035	5.007	6.129
315.0	848.6	1273	1383	1181	1000	995.7	1071	1195	1431	1777	2154	2485	2622	2484	1810	1275	1477	2080	3983	8023	618.4	40.36	9.221	5.747	4.326	3.558	3.376	2.879	2.816	2.299	2.003	1.902	1.639	1.636	1.630	1.454	1.332	1.334	1.306	1.254	1.272	1.323	1.383	1.380	1.996	2.343	2.966	3.537	3.549	3.197	3.364	3.651	3.684	3.475	3.500	3.665	3.939	4.177	4.350	4.731	4.917	5.643	6.550	7.434	7.631	8.166	8.719	8.897	9.335	10.02	10.50	10.93	9.090	8.136	6.970	6.198	6.607
320.0	1053	1613	1835	1613	1414	1368	1364	1438	1657	2055	2510	2876	2974	3092	2723	2046	1925	1595	1683	5706	5074	493.6	21.81	7.893	5.018	4.539	3.767	3.323	2.936	2.707	2.165	2.085	1.749	1.712	1.815	1.464	1.460	1.417	1.459	1.536	1.520	1.592	1.639	1.855	2.446	2.864	3.465	4.394	4.821	4.308	4.252	4.770	4.690	4.860	4.947	4.867	5.109	4.934	5.363	5.763	5.839	6.749	7.173	8.455	8.908	9.500	9.940	10.31	11.17	11.30	11.72	12.35	12.74	12.44	10.09	9.597	9.310
325.0	1302	2115	2449	2177	1812	1667	1590	1612	1829	2227	2721	3137	3280	3313	3336	2659	2324	1760	1286	2182	5996	4442	73.82	12.32	6.496	5.178	3.970	3.598	2.898	2.916	2.456	2.407	1.785	1.854	1.757	1.629	1.506	1.690	1.569	1.447	1.656	1.668	1.801	2.262	2.620	3.427	4.305	5.581	6.317	5.609	5.556	6.639	5.770	6.083	5.718	5.715	6.050	5.794	5.984	6.467	6.335	7.274	8.054	8.720	9.594	9.875	11.12	11.30	12.08	12.21	12.46	12.74	13.68	14.75	13.82	12.18	11.13
330.0	1610	2659	3383	3138	2565	2085	1794	1742	1982	2385	2887	3341	3555	3577	3549	3280	2838	2088	1441	1327	2055	4492	4861	1303	26.67	7.093	5.109	4.254	3.575	3.111	2.723	2.505	1.944	1.897	1.756	1.840	1.742	1.588	1.630	1.566	1.705	1.857	2.045	2.391	3.183	4.285	5.361	7.301	8.256	7.802	8.158	9.281	8.518	8.069	7.243	6.640	7.182	6.771	6.572	6.740	6.653	7.715	8.661	9.149	10.05	10.87	11.24	12.30	12.63	13.66	13.97	13.72	14.58	15.24	15.29	15.02	14.42
335.0	1840	3119	4179	4146	3589	2701	2123	1923	2169	2585	3127	3620	3916	4024	3998	3750	3607	2720	1864	1459	1043	1290	3347	6503	487.9	28.83	7.382	5.310	4.512	3.613	2.924	2.896	2.228	1.947	1.895	1.894	1.694	1.610	1.869	1.763	1.907	2.047	2.313	2.596	3.597	5.156	6.409	8.291	9.834	9.866	10.62	12.68	12.07	10.69	9.508	8.279	8.182	7.672	7.546	7.095	7.724	8.330	9.010	10.21	10.61	11.72	12.22	12.95	14.07	15.17	15.05	15.59	16.19	17.38	17.15	16.98	16.86
340.0	1931	3309	4469	4566	3909	2938	2256	2008	2234	2646	3166	3669	4013	4140	4107	3839	3718	3078	2089	1564	883.1	591.2	1069	4677	4036	404.6	15.66	6.431	5.120	4.358	3.367	3.096	2.465	2.380	1.912	1.751	1.706	1.806	1.882	1.708	1.827	2.085	2.195	2.824	3.812	4.939	6.994	9.095	10.28	10.64	11.75	13.60	12.81	11.63	10.40	9.154	8.679	7.638	7.567	7.577	8.316	8.418	9.187	10.26	10.75	11.94	12.69	13.24	14.43	15.48	15.81	16.55	16.92	18.17	17.30	17.47	17.52
345.0	1897	3233	4454	4611	3871	2944	2226	1987	2190	2573	3061	3492	3823	3994	3962	3718	3490	3048	2211	1587	872.4	476.7	477.8	1482	5036	3636	60.45	10.13	6.135	4.362	3.762	3.177	2.368	2.430	2.021	1.844	1.726	1.847	1.802	1.841	1.780	2.183	2.530	2.937	3.752	5.079	6.824	8.801	10.45	10.72	11.97	14.13	12.85	11.91	10.17	9.085	8.571	7.598	7.148	7.799	8.078	8.427	9.298	9.917	10.47	11.11	12.01	12.77	13.08	14.75	15.13	16.15	16.01	17.32	16.78	16.44	16.66
350.0	1778	3042	4209	4454	3864	2952	2222	1963	2132	2449	2861	3271	3555	3743	3748	3521	3304	2819	2271	1723	948.4	533.9	419.9	552.0	1568	3741	3941	1056	21.46	6.185	4.163	3.413	2.776	2.433	2.175	1.798	1.844	1.771	1.765	1.688	1.746	2.023	2.271	2.763	3.594	4.790	6.391	8.269	9.996	10.27	11.53	13.49	12.89	12.39	10.54	9.000	8.811	7.571	7.196	7.816	7.726	8.108	8.941	9.421	9.922	10.65	11.24	11.98	12.12	13.53	14.13	14.62	15.67	16.70	16.20	16.16	15.89
355.0	1641	2800	3905	4163	3765	2943	2223	1959	2084	2373	2697	3056	3299	3478	3510	3331	3137	2677	2146	1840	1126	637.7	488.4	408.3	532.7	978.6	2697	5169	430.3	23.10	6.361	4.369	3.236	2.474	2.203	1.859	1.788	1.762	1.871	1.732	1.762	1.829	2.207	2.470	3.194	4.680	5.495	7.642	9.036	9.679	10.84	12.67	12.27	11.78	9.982	9.101	8.914	7.836	7.216	7.100	7.374	7.656	8.409	9.220	10.03	10.06	10.74	10.98	11.81	12.57	13.24	13.45	14.73	15.11	15.36	15.16	15.02
360.0	1531	2586	3580	3829	3534	2787	2177	1944	2037	2272	2547	2843	3068	3224	3243	3096	2932	2519	2045	1750	1257	753.5	556.9	422.8	349.7	366.7	780.9	3791	3601	354.6	13.19	5.266	3.607	2.678	2.304	2.286	1.855	1.896	1.709	1.771	1.594	1.724	2.076	2.432	2.868	4.158	4.974	6.703	8.581	9.099	9.673	11.74	11.60	11.36	9.536	8.549	8.655	7.333	7.065	7.063	7.275	7.500	7.851	8.550	9.149	9.635	9.823	10.14	11.17	11.38	11.97	12.65	12.94	14.13	13.59	13.97	14.16
365.0	1471	2363	3214	3526	3293	2652	2071	1900	1992	2186	2441	2647	2834	2969	2991	2860	2738	2364	1950	1643	1273	916.1	641.1	479.6	358.5	271.6	288.7	1165	4343	3258	54.87	8.111	4.411	3.392	2.729	2.220	1.829	1.716	1.758	1.692	1.646	1.648	1.976	2.300	2.952	3.698	4.747	6.445	7.673	8.244	8.890	11.01	10.68	10.65	9.205	8.214	8.248	6.872	7.021	6.792	7.296	7.753	7.856	8.084	8.465	9.092	9.453	9.520	10.17	10.91	11.79	11.77	12.14	12.77	12.96	13.01	13.39
370.0	1292	2105	2857	3175	3023	2524	2049	1893	1936	2107	2291	2450	2595	2689	2718	2602	2508	2214	1874	1595	1228	1024	830.0	591.5	440.3	317.2	239.0	376.8	1320	3393	3707	936.2	18.84	5.271	3.528	2.739	2.118	1.856	1.748	1.681	1.613	1.635	2.053	2.210	2.782	3.494	4.316	5.879	6.773	7.300	8.052	9.947	9.898	9.626	8.709	8.191	7.972	7.115	7.054	6.817	6.900	7.351	7.763	7.875	8.104	8.376	8.706	9.162	9.319	9.749	10.28	10.86	11.11	11.39	11.49	11.99	12.14
375.0	1155	1881	2563	2863	2769	2380	1989	1850	1874	2018	2146	2291	2407	2438	2454	2364	2293	2068	1793	1565	1244	1031	972.3	784.8	554.1	408.5	303.3	262.0	418.0	875.0	2613	4558	363.7	21.19	6.205	4.218	2.872	2.238	1.978	1.809	1.597	1.697	1.962	2.073	2.493	3.331	4.034	5.147	6.024	6.565	7.161	9.140	8.884	8.882	7.986	7.632	7.630	7.334	6.875	6.925	6.682	6.980	7.518	7.910	7.810	7.903	7.981	8.717	8.695	9.016	9.824	10.14	9.893	10.31	10.45	11.02	11.14
380.0	1102	1713	2336	2651	2621	2278	1927	1809	1835	1942	2069	2176	2240	2282	2267	2189	2133	1949	1727	1539	1258	1060	988.6	917.6	683.2	498.2	374.4	290.4	261.9	313.9	768.3	3343	3042	294.0	14.42	7.140	4.512	2.836	2.124	1.833	1.639	1.640	1.918	2.003	2.432	3.201	3.807	4.841	5.683	5.946	6.796	8.149	8.341	8.470	7.618	7.441	7.278	7.185	6.486	6.966	6.657	6.998	7.305	7.655	7.619	7.481	7.619	8.222	8.281	8.303	8.643	9.122	9.292	9.591	9.776	10.15	10.38
385.0	1014	1613	2165	2473	2468	2205	1889	1792	1814	1897	2014	2104	2164	2147	2135	2057	1985	1840	1653	1506	1274	1103	998.9	954.1	833.2	603.9	462.2	364.3	286.0	240.6	299.7	1037	3507	2665	45.49	14.68	8.241	4.495	2.702	1.803	1.836	1.704	1.739	1.934	2.364	2.944	3.483	4.437	5.487	5.505	6.207	7.749	7.584	7.917	7.502	7.242	6.994	6.924	6.912	6.439	6.566	7.014	7.046	7.415	7.333	7.279	7.629	7.534	8.188	8.066	8.134	9.031	8.989	9.306	9.067	9.477	9.735
390.0	958.2	1501	2012	2287	2323	2145	1908	1813	1842	1928	2049	2119	2168	2141	2083	1965	1881	1750	1609	1510	1341	1205	1127	1063	1012	882.4	700.6	578.2	446.4	388.2	344.8	446.7	1136	2634	2757	766.9	29.06	14.80	5.758	2.892	2.006	1.860	1.921	1.879	2.333	2.830	3.259	4.234	5.071	5.183	5.668	7.250	7.346	7.934	7.424	7.021	7.038	6.859	6.500	6.417	6.732	6.695	6.814	7.080	7.364	7.367	7.263	7.458	7.730	7.860	7.975	8.446	8.267	8.686	8.469	8.968	9.263
395.0	907.1	1426	1892	2143	2281	2113	1959	1897	1985	2158	2373	2491	2496	2425	2290	2082	1895	1751	1649	1592	1495	1442	1426	1404	1359	1340	1242	1076	951.3	843.2	740.3	637.5	609.2	931.5	1980	3491	313.7	40.18	17.04	5.894	2.944	2.387	2.143	1.854	2.405	2.849	3.350	4.201	4.646	5.102	5.408	7.091	7.359	7.744	7.753	7.298	7.492	7.221	7.070	6.840	7.212	7.193	7.426	7.697	8.237	8.035	7.849	7.684	8.092	8.204	8.269	8.271	8.405	8.621	8.561	8.578	8.905
400.0	868.2	1334	1821	2108	2238	2152	2076	2072	2240	2530	2877	3102	3127	2965	2692	2340	2038	1837	1752	1736	1726	1757	1813	1864	1878	1882	1887	1755	1586	1466	1312	1099	887.9	797.9	964.4	2634	2523	283.5	36.71	11.28	4.682	2.929	2.534	2.282	2.575	2.849	3.381	4.268	4.898	4.757	5.648	7.526	7.528	7.798	7.923	7.867	7.720	7.915	7.377	7.357	7.727	8.124	8.216	8.105	8.971	9.352	8.572	8.873	9.004	9.022	9.181	9.146	8.806	9.388	9.319	8.712	8.991
405.0	867.9	1300	1835	2096	2241	2226	2190	2257	2519	2980	3542	3842	3895	3673	3245	2704	2246	1964	1882	1927	1990	2109	2271	2406	2493	2532	2588	2547	2358	2200	2010	1702	1354	1094	949.4	1263	2789	2276	220.3	19.76	6.639	3.894	2.871	2.459	2.811	3.079	3.512	4.648	5.196	5.315	5.747	7.669	7.829	7.868	8.348	8.279	8.465	8.380	8.156	8.188	8.565	8.641	9.272	9.551	9.907	9.988	10.01	10.21	9.878	9.964	9.903	10.37	10.00	10.03	9.384	9.100	9.558
410.0	849.6	1290	1758	2052	2224	2276	2314	2459	2818	3434	4133	4559	4573	4260	3723	3037	2400	2065	1983	2070	2209	2408	2658	2882	3044	3142	3203	3216	3100	2898	2651	2277	1816	1446	1185	1032	1228	2067	2159	631.9	18.48	5.222	3.503	2.911	3.065	3.395	3.549	4.501	5.117	5.414	5.894	7.617	8.026	8.545	8.633	8.785	9.063	9.129	8.914	8.751	9.375	9.396	9.820	10.44	10.67	11.04	11.03	11.10	10.94	10.82	10.95	10.90	10.34	10.61	9.948	9.923	9.584
415.0	790.5	1252	1701	1986	2181	2258	2304	2490	2851	3455	4159	4576	4582	4273	3732	2980	2355	2010	1947	2031	2184	2417	2694	2922	3103	3221	3274	3270	3206	3059	2777	2378	1906	1513	1225	962.1	758.9	709.5	1264	2395	281.2	18.18	4.293	3.129	3.240	3.483	3.453	4.389	5.241	5.208	5.704	7.159	7.683	8.030	8.368	8.546	9.255	9.504	8.906	9.053	9.138	9.483	10.25	10.33	10.74	10.87	10.95	11.46	10.93	11.28	10.70	10.60	10.66	10.51	9.348	9.433	9.047
420.0	756.3	1197	1630	1880	2108	2227	2284	2450	2786	3307	3984	4356	4348	4060	3540	2840	2229	1907	1852	1939	2101	2317	2592	2810	2995	3108	3153	3145	3052	2960	2693	2296	1838	1459	1179	908.0	620.5	381.7	400.5	1539	2153	242.0	9.680	4.031	3.475	3.734	3.188	4.188	4.848	5.093	5.653	6.955	7.564	8.059	7.985	8.379	8.711	8.983	8.914	8.669	9.574	9.139	9.838	9.977	10.43	10.02	10.54	10.68	10.68	10.67	10.25	10.25	9.677	9.756	9.288	9.009	8.430
425.0	746.8	1148	1569	1872	2055	2221	2294	2462	2742	3265	3874	4250	4241	3937	3411	2752	2146	1840	1788	1886	2034	2257	2517	2754	2936	3049	3103	3094	2999	2896	2691	2289	1819	1448	1171	892.7	589.3	311.8	181.1	446.3	1724	1842	37.75	6.068	3.824	3.596	3.543	4.321	4.498	4.869	5.402	7.192	7.255	8.457	7.868	8.479	9.023	9.047	8.983	8.881	9.430	9.716	9.910	9.822	9.951	10.19	10.05	10.28	10.27	10.34	10.22	9.960	9.595	9.728	8.938	8.336	8.518
430.0	820.3	1098	1490	1824	2061	2210	2384	2548	2814	3346	3966	4323	4305	3993	3455	2761	2141	1824	1765	1874	2032	2269	2554	2812	3019	3160	3238	3225	3142	3022	2834	2465	1968	1554	1261	971.6	637.5	326.9	149.2	146.6	474.5	1301	1605	569.3	15.05	4.495	3.991	4.392	4.608	4.797	5.307	6.739	7.401	8.026	8.218	8.612	9.075	9.150	9.389	9.120	9.475	9.597	10.08	10.11	10.25	10.21	10.40	10.38	10.23	10.29	10.13	9.885	9.645	9.574	8.790	8.385	8.522
435.0	1085	1080	1474	1788	2049	2290	2486	2665	2899	3373	3949	4350	4320	3987	3449	2734	2121	1797	1739	1841	2006	2246	2527	2810	3027	3186	3283	3288	3209	3086	2896	2551	2091	1645	1329	1027	688.1	357.1	158.2	90.77	138.1	316.0	805.7	2011	267.6	19.17	4.870	4.590	4.785	4.799	5.454	7.277	7.408	8.378	8.681	8.842	9.409	9.725	9.541	9.679	9.487	9.590	9.669	9.953	10.50	9.674	9.997	10.34	10.16	10.15	9.991	9.323	9.726	9.453	9.032	8.262	7.921
440.0	1419	1197	1436	1751	2027	2323	2511	2646	2839	3237	3796	4109	4076	3797	3283	2615	2027	1723	1674	1751	1911	2130	2398	2678	2872	3024	3121	3140	3070	2960	2769	2431	2021	1614	1295	1003	679.5	357.9	166.0	85.02	67.87	95.96	213.1	1146	1919	239.4	13.11	5.249	5.037	4.896	5.362	6.886	7.169	7.965	8.462	8.785	9.641	9.943	9.563	9.503	9.480	9.657	9.099	9.504	9.800	9.654	9.870	9.993	9.920	9.485	9.374	9.326	8.949	8.827	8.153	8.281	7.643
445.0	1356	1500	1409	1731	2009	2290	2473	2603	2720	3029	3503	3791	3744	3475	2999	2416	1891	1605	1566	1634	1763	1939	2200	2431	2626	2752	2839	2856	2799	2697	2531	2204	1827	1502	1206	927.7	627.4	342.4	166.1	86.52	57.51	51.14	68.88	310.0	1377	1744	181.5	8.661	5.306	4.794	5.579	6.643	7.226	7.921	8.629	8.433	9.768	9.478	9.550	9.514	9.322	8.826	8.681	9.105	8.792	8.895	9.290	9.311	9.107	9.057	8.910	8.600	8.304	8.071	7.771	7.529	7.256
450.0	945.9	1987	1509	1622	1921	2182	2379	2506	2531	2706	3050	3293	3238	3000	2607	2118	1674	1445	1405	1453	1545	1687	1898	2093	2254	2361	2438	2448	2406	2322	2174	1899	1562	1289	1067	822.9	554.9	312.9	164.2	93.44	61.30	47.33	41.00	88.89	364.6	1099	1463	552.7	15.45	5.521	5.141	6.600	6.871	7.604	7.991	8.484	9.063	9.143	9.482	9.109	8.693	8.488	8.156	8.438	8.115	8.347	8.018	8.000	8.207	7.869	7.694	7.863	7.451	7.246	7.080	6.923	6.821
455.0	668.4	1759	2252	1527	1800	2068	2275	2357	2338	2439	2680	2869	2798	2587	2258	1851	1487	1287	1249	1283	1346	1468	1642	1806	1939	2033	2101	2114	2077	2010	1883	1648	1359	1119	931.8	751.3	507.2	293.3	162.8	99.40	69.46	52.16	40.09	43.64	99.32	261.6	597.3	1594	742.1	18.59	5.513	6.320	6.679	6.994	7.088	7.739	8.410	8.747	9.057	8.149	8.189	7.958	7.574	7.680	7.534	7.254	7.499	7.612	7.229	6.974	7.206	7.014	6.717	6.503	6.112	6.360	6.215
460.0	561.7	1238	2766	1663	1692	1979	2144	2212	2176	2244	2475	2587	2555	2358	2060	1683	1361	1181	1153	1177	1226	1326	1473	1629	1741	1834	1893	1914	1882	1822	1713	1499	1249	1021	845.1	692.2	489.9	284.5	162.0	102.7	74.56	55.82	43.23	37.03	42.20	74.22	152.4	790.9	1580	193.4	14.21	6.646	6.627	6.430	6.922	7.507	7.998	8.653	8.508	7.892	7.668	7.395	7.189	6.993	6.928	6.942	6.731	6.391	6.734	6.691	6.523	6.550	6.361	5.940	5.694	5.813	5.619
465.0	529.4	914.5	2607	2252	1591	1833	2044	2094	2029	2083	2246	2354	2315	2152	1873	1541	1247	1089	1058	1074	1112	1197	1331	1473	1577	1657	1716	1734	1710	1666	1567	1382	1143	938.0	777.1	635.0	469.1	282.4	161.7	105.8	77.67	60.06	47.21	36.66	31.84	34.08	48.05	206.1	976.1	1309	172.2	11.72	6.699	6.521	6.704	7.009	7.732	8.237	7.661	7.852	7.449	6.788	6.787	6.725	6.395	6.269	5.809	5.931	6.131	6.243	6.023	5.979	5.781	5.420	5.146	5.544	5.124
470.0	476.5	718.3	1656	2964	1757	1648	1848	1892	1811	1829	1946	2044	1992	1843	1607	1329	1093	954.9	923.2	934.1	960.2	1029	1137	1248	1339	1409	1461	1477	1460	1427	1337	1187	987.6	816.3	676.0	548.3	409.7	271.0	163.6	107.0	79.90	63.65	50.63	39.90	32.39	27.73	26.88	59.10	250.8	724.4	1011	442.2	17.07	6.776	6.429	6.684	7.172	7.203	7.171	7.139	6.761	6.387	5.934	5.908	5.833	5.712	5.502	5.326	5.479	5.408	5.365	5.169	5.283	5.250	4.749	4.845	4.727
475.0	443.3	646.8	1005	2487	2612	1502	1647	1673	1581	1573	1647	1727	1663	1530	1343	1118	926.2	812.9	788.6	793.3	799.3	851.4	943.0	1027	1103	1150	1188	1207	1199	1165	1102	979.9	822.1	682.0	566.0	461.5	340.2	239.2	164.2	111.4	81.69	64.59	52.81	42.70	34.76	28.46	23.86	27.75	67.74	171.6	369.8	1002	594.1	22.57	6.574	6.132	6.580	6.528	6.327	6.153	5.744	5.782	5.393	5.037	4.952	4.730	4.852	4.572	4.703	4.769	4.525	4.501	4.281	4.270	4.225	4.174	4.032
480.0	410.8	591.8	804.1	1678	3282	1613	1498	1508	1428	1392	1440	1501	1458	1345	1168	980.8	817.2	724.4	698.6	697.8	702.3	743.8	810.8	881.0	942.5	986.1	1019	1032	1024	998.5	944.2	839.1	713.7	592.7	494.3	401.1	300.4	209.8	157.5	117.1	84.18	66.73	54.53	45.12	36.27	30.47	24.69	21.94	27.33	48.33	93.63	450.1	1145	228.3	16.22	5.989	6.161	5.977	6.094	5.473	5.442	5.205	4.817	4.753	4.532	4.221	4.010	4.310	4.376	4.147	4.109	3.906	3.768	3.534	3.743	3.735	3.455
485.0	377.0	571.1	728.1	1114	3054	2231	1386	1383	1300	1250	1285	1327	1289	1184	1047	876.4	735.0	656.5	628.8	628.5	629.7	660.7	718.7	773.3	824.9	863.1	892.9	900.5	895.3	877.5	823.3	740.1	629.3	526.1	444.8	360.6	272.1	191.9	144.4	119.5	89.13	69.58	56.00	46.10	38.61	31.83	26.55	21.73	20.18	21.87	30.41	117.3	645.9	1034	188.1	10.46	6.124	5.734	5.686	5.372	4.921	4.786	4.299	4.162	4.152	4.012	3.842	3.979	3.877	3.764	3.738	3.642	3.512	3.477	3.401	3.217	3.225
490.0	314.1	529.8	672.6	836.8	1881	3083	1504	1220	1145	1102	1130	1150	1110	1029	906.3	765.2	647.2	575.8	552.5	544.5	544.6	570.7	616.5	666.0	705.9	736.6	758.7	766.0	765.7	749.6	708.2	634.9	541.8	453.9	387.7	318.5	243.3	175.1	129.8	110.4	94.97	74.31	57.97	47.73	40.70	34.63	28.21	23.93	19.66	17.21	16.98	35.24	163.8	516.6	865.7	486.1	18.74	5.963	5.168	4.956	4.627	4.434	4.038	3.721	3.765	3.515	3.774	3.609	3.471	3.390	3.136	3.206	3.178	3.125	3.063	2.877	2.984
495.0	271.4	454.5	627.7	705.1	1081	2633	2373	1105	1007	960.1	974.8	987.0	945.3	875.1	771.7	656.3	552.4	500.5	476.5	466.3	466.5	484.4	522.4	561.7	592.4	622.3	640.2	646.3	644.9	636.5	601.7	542.1	466.3	390.8	335.4	277.2	216.6	159.0	119.3	97.43	90.22	80.58	61.06	48.73	41.87	35.91	30.52	25.28	20.82	17.43	15.22	17.19	44.80	122.7	315.7	930.9	629.6	24.53	5.323	4.661	4.262	3.745	3.625	3.480	3.401	3.321	3.090	3.111	3.072	2.999	2.775	2.741	2.755	2.819	2.707	2.458	2.621
500.0	231.6	382.0	592.3	642.7	801.8	1710	3144	1159	899.2	873.2	879.7	884.8	833.8	761.9	678.2	579.3	490.7	442.7	425.1	417.2	414.1	429.9	458.0	492.8	519.3	540.6	565.1	567.9	565.9	551.7	528.6	475.4	410.6	346.3	300.2	250.0	198.1	145.6	112.6	91.22	82.02	78.60	65.22	50.38	42.66	36.35	31.36	25.77	21.50	18.48	15.57	14.11	18.10	35.26	79.19	393.8	1045	247.4	17.91	4.631	3.967	3.503	3.498	3.280	3.047	2.844	2.870	2.710	2.727	2.607	2.720	2.527	2.803	2.651	2.390	2.573	2.332
505.0	222.0	337.1	532.9	600.1	686.8	1058	3055	1684	809.8	781.1	785.7	789.1	736.1	680.3	595.1	513.2	439.9	394.4	377.5	368.6	362.3	378.1	399.2	430.8	455.1	468.0	487.8	494.2	496.8	482.6	462.1	418.1	360.9	308.2	265.0	222.9	178.5	135.3	104.4	85.80	74.69	71.47	67.20	52.32	42.69	36.25	31.32	26.95	22.23	19.53	16.06	13.56	12.71	15.95	24.70	100.1	534.1	943.7	208.3	10.14	3.775	3.330	3.260	2.877	2.725	2.819	2.827	2.273	2.455	2.511	2.457	2.390	2.563	2.449	2.098	2.252	1.974
510.0	195.5	294.1	440.3	559.2	581.1	733.7	1826	2704	904.1	673.0	662.0	660.8	623.1	573.5	506.6	433.7	373.4	335.3	323.0	315.3	306.1	314.8	335.0	355.7	376.0	390.7	402.5	407.3	409.2	400.2	384.8	348.9	302.3	260.5	224.4	189.4	154.4	119.6	93.44	79.03	68.15	61.88	60.37	55.82	44.65	35.52	30.55	26.31	22.88	19.15	16.71	13.96	12.13	11.68	12.72	28.62	132.9	433.3	703.5	346.9	17.60	3.526	2.968	2.738	2.455	2.463	2.448	2.147	2.208	2.200	2.165	2.117	2.071	2.052	2.097	1.923	1.834
515.0	163.1	241.0	351.8	501.1	524.4	577.8	888.7	2540	1730	583.7	554.8	557.2	517.1	470.6	417.9	361.8	308.4	281.1	273.0	261.9	254.5	258.1	272.6	289.2	307.5	314.7	324.6	332.1	332.9	326.0	310.7	285.1	247.5	214.3	185.0	160.9	131.8	103.9	84.30	71.67	62.21	55.58	51.71	51.31	47.07	37.41	29.55	25.42	22.89	19.46	16.73	14.39	12.64	11.06	10.53	12.79	35.55	101.6	232.4	679.6	257.3	23.20	3.251	2.335	2.105	2.235	1.976	1.982	1.942	2.023	1.850	1.699	1.679	1.798	1.548	1.637	1.541
520.0	142.4	225.3	298.0	418.2	498.4	505.2	598.8	1605	2661	642.9	484.7	486.8	455.1	412.8	361.5	314.1	272.9	246.0	236.6	227.0	221.6	223.4	234.7	247.4	260.0	269.2	276.3	278.8	280.4	276.5	263.8	243.0	212.8	186.5	160.5	140.3	115.7	94.67	76.20	66.19	57.80	50.84	47.22	45.23	46.91	39.17	30.16	25.38	22.63	19.05	16.45	14.72	12.96	10.41	9.910	9.241	13.71	27.78	57.63	277.0	691.6	239.7	15.86	2.432	2.360	2.035	2.102	1.942	1.619	1.677	1.627	1.644	1.724	1.649	1.480	1.549	1.412
525.0	135.1	202.5	256.6	355.8	483.5	448.3	479.1	858.5	2862	1115	434.2	429.1	401.0	358.0	318.3	277.5	240.0	217.3	209.3	201.3	192.7	195.6	206.7	217.3	222.8	232.7	238.3	238.9	240.4	239.1	227.9	212.1	183.9	164.1	141.7	122.5	103.9	83.66	71.11	60.50	53.31	47.97	43.95	39.96	41.39	40.17	31.04	24.82	21.68	18.83	16.21	14.64	12.86	10.79	9.743	8.450	8.655	11.46	17.60	69.00	342.9	678.4	195.6	7.280	2.140	1.880	1.668	1.652	1.721	1.551	1.316	1.472	1.431	1.499	1.392	1.355	1.388
530.0	115.5	180.6	228.4	284.3	408.5	419.1	405.0	501.0	1702	2285	534.3	364.7	340.5	303.1	272.8	233.0	203.8	186.8	177.5	172.4	164.9	163.9	171.2	179.7	185.8	191.8	197.2	197.7	200.5	198.9	191.6	175.2	153.6	136.8	119.6	104.9	89.86	73.37	62.72	54.74	48.67	43.60	39.09	36.72	35.17	35.69	31.98	25.19	20.63	17.60	15.43	13.78	12.26	10.86	9.832	8.262	7.849	7.750	8.563	19.46	84.68	298.8	499.9	248.5	16.15	2.185	1.645	1.570	1.444	1.409	1.275	1.304	1.346	1.251	1.181	1.198	1.165
535.0	98.57	153.5	190.6	233.5	318.3	399.8	346.3	360.5	675.4	2416	1298	310.2	282.5	255.0	226.0	191.0	170.7	154.9	146.7	140.6	136.8	134.9	141.1	148.9	152.6	155.6	159.7	163.3	162.3	160.5	156.8	142.8	127.6	112.8	99.02	87.50	75.39	63.27	55.44	47.93	42.31	38.13	35.16	31.88	30.89	28.45	29.93	26.14	19.94	16.62	14.49	12.52	11.60	10.35	9.722	8.474	7.613	6.900	6.183	8.287	22.37	69.85	158.6	461.1	255.4	20.81	1.930	1.353	1.314	1.269	1.218	1.099	1.143	1.071	1.089	1.094	0.958
540.0	90.00	123.3	172.6	206.7	252.7	352.6	321.2	303.7	367.4	1483	2287	311.6	240.0	222.7	192.1	166.2	148.1	134.2	126.5	121.8	118.6	116.3	122.6	129.0	131.0	132.2	136.5	138.7	138.6	136.5	132.4	122.3	110.8	98.42	87.24	75.56	66.33	55.81	49.19	42.17	38.84	35.21	32.11	29.33	27.39	25.76	25.69	24.89	20.46	16.11	13.83	11.96	10.92	9.909	9.055	8.805	7.317	6.465	5.578	5.676	8.190	18.50	38.73	179.1	491.2	220.8	12.95	1.533	1.280	1.288	1.147	1.075	1.006	1.046	1.029	0.990	0.920
545.0	83.57	110.9	149.0	183.5	208.5	293.3	319.6	264.0	269.8	664.8	2639	681.5	214.3	192.0	166.0	145.7	128.4	115.3	110.4	107.0	102.0	101.6	103.7	108.7	112.7	113.3	116.5	116.0	117.2	117.6	114.0	106.4	94.77	84.65	76.40	66.28	58.05	49.01	43.39	38.17	34.93	32.70	29.24	26.54	24.40	22.98	21.67	22.66	20.38	15.81	13.07	11.70	10.53	9.043	8.499	7.963	7.216	6.040	5.442	4.786	5.247	7.103	11.49	44.28	227.3	475.2	162.5	5.336	1.278	1.219	1.147	1.032	0.944	0.927	0.905	0.923	0.969
550.0	79.21	98.14	135.9	151.9	176.0	216.2	287.9	229.7	214.1	304.4	1513	1775	230.4	157.8	137.2	119.7	106.6	95.73	91.20	87.98	84.68	83.70	84.43	87.47	90.90	90.87	94.05	94.63	94.06	94.05	91.72	84.83	77.54	68.34	62.39	54.96	48.09	41.67	36.78	32.05	29.46	27.16	24.80	22.99	21.33	19.73	18.20	18.17	18.05	15.77	12.49	10.49	9.221	8.161	7.518	6.875	6.647	5.860	4.961	4.375	4.090	4.363	4.862	12.10	55.16	195.9	334.0	146.5	14.60	1.430	1.030	0.959	0.898	0.839	0.783	0.794	0.814
555.0	74.91	101.2	129.9	128.3	137.4	158.5	227.1	229.6	171.5	189.1	509.6	2093	767.8	133.9	109.3	96.05	86.53	78.12	72.88	69.55	66.86	66.61	67.16	69.31	70.15	70.77	73.29	73.74	71.86	74.53	71.53	66.54	60.48	54.47	49.25	43.87	38.67	33.85	30.57	26.91	24.65	22.83	20.84	19.35	17.91	16.46	15.12	14.79	14.33	14.25	12.32	9.830	7.908	7.119	6.563	6.063	5.855	5.472	4.877	4.275	3.613	3.563	3.173	4.678	14.03	45.28	100.2	277.1	223.6	18.12	1.176	1.045	0.784	0.749	0.678	0.808	0.737
560.0	75.31	98.46	99.96	109.7	119.9	126.1	169.5	225.5	154.4	148.2	220.7	1320	1593	156.2	94.39	78.99	72.56	66.98	61.82	58.16	55.44	54.09	55.94	56.98	57.51	58.35	60.74	59.61	60.71	59.90	58.56	54.69	50.00	44.47	40.59	36.98	31.83	28.08	24.93	23.17	21.19	19.49	17.70	16.56	15.67	14.40	13.29	12.33	11.27	11.96	11.71	9.288	7.299	6.256	5.875	5.440	5.013	4.680	4.505	4.020	3.343	2.889	2.704	2.898	4.730	11.46	24.30	103.7	310.7	163.6	9.013	1.002	0.762	0.786	0.572	0.615	0.717
565.0	72.05	87.51	100.8	100.4	105.0	109.0	128.6	205.0	147.9	126.7	144.5	540.0	2109	358.2	81.46	68.21	59.40	54.93	53.66	48.23	46.44	45.53	46.37	47.35	47.80	48.44	50.84	49.40	50.39	49.99	48.98	45.93	41.71	37.56	34.17	31.21	26.82	24.41	21.29	19.87	18.08	16.15	15.42	14.29	13.92	12.01	11.40	10.67	9.520	9.572	9.872	8.984	7.024	5.978	5.472	4.679	4.777	4.192	3.883	3.908	3.240	2.580	2.327	2.265	2.900	3.969	6.827	25.30	133.4	282.7	36.41	3.626	0.793	0.727	0.590	0.601	0.615
570.0	78.01	84.81	98.26	92.27	87.61	88.76	102.3	154.8	161.0	111.0	113.9	204.8	1278	1208	108.9	54.68	48.23	44.73	42.28	38.95	37.48	35.68	36.40	37.83	37.55	38.95	39.78	39.22	39.84	39.30	38.69	37.17	32.70	30.04	27.02	24.72	22.13	19.80	17.62	15.98	14.94	13.80	12.96	11.93	11.42	10.49	9.754	8.841	7.922	7.508	7.662	7.819	6.856	5.533	4.739	4.200	3.933	3.752	3.263	3.236	3.291	2.591	2.168	2.088	2.099	2.243	2.901	6.931	31.96	110.1	175.0	106.3	12.42	0.899	0.650	0.569	0.495
575.0	74.23	82.25	85.33	83.12	74.83	76.79	83.07	103.1	160.7	113.3	95.82	115.1	398.9	1609	472.7	45.95	39.73	35.82	34.26	30.46	29.57	29.35	29.15	29.20	29.39	30.31	30.18	30.15	31.14	30.91	30.89	27.94	25.49	23.07	21.65	18.96	17.31	15.69	13.98	13.22	12.21	10.65	10.37	9.424	9.218	8.763	7.901	7.392	6.713	5.952	5.935	6.063	6.213	5.599	4.150	3.853	3.456	3.037	2.934	2.734	2.632	2.818	2.195	1.874	1.730	1.687	1.830	2.711	8.200	25.66	51.11	160.2	139.5	14.10	0.701	0.593	0.580
580.0	68.35	82.71	81.73	75.28	68.11	66.22	73.44	81.22	137.5	125.4	88.68	89.54	148.2	1034	1117	60.31	34.14	30.27	28.19	25.91	24.47	24.11	23.50	24.05	24.77	24.87	24.96	24.46	25.80	25.55	25.01	22.67	20.64	19.54	17.84	15.60	14.81	12.86	12.25	11.24	10.23	9.266	8.968	8.511	7.786	7.458	6.636	6.225	5.793	5.460	4.664	4.874	5.171	5.336	4.065	3.324	2.908	2.902	2.626	2.404	2.249	2.477	2.247	1.840	1.531	1.675	1.520	1.685	2.947	6.782	12.52	57.55	175.7	100.9	6.234	0.560	0.513
585.0	65.55	82.64	77.53	73.21	58.86	65.29	66.02	68.96	104.7	139.2	87.93	80.16	86.17	406.5	1514	133.3	30.59	25.92	24.42	21.61	21.03	20.31	20.12	20.95	20.34	21.13	20.83	20.80	21.93	20.91	21.03	19.97	17.85	16.57	15.45	13.89	12.64	10.81	10.15	9.129	9.182	8.446	7.718	7.252	6.611	6.549	5.870	5.625	4.835	4.730	3.904	4.089	4.181	4.693	4.160	3.226	2.589	2.591	2.355	2.342	1.996	1.921	2.203	1.954	1.605	1.545	1.467	1.464	1.648	2.529	3.595	13.99	72.68	167.3	34.93	2.522	0.587
590.0	66.77	77.81	75.37	62.01	56.02	53.45	55.68	58.67	76.56	130.3	102.5	75.00	70.61	135.4	943.8	738.5	46.48	22.09	20.04	18.41	17.12	16.76	16.53	16.87	16.58	16.55	17.14	16.83	17.22	17.40	16.60	15.91	14.24	13.34	12.16	11.12	10.22	8.974	8.282	7.790	7.235	6.935	6.182	5.875	5.631	5.379	4.977	4.647	4.061	3.876	3.354	3.367	3.224	3.738	3.793	3.149	2.618	2.209	1.986	1.823	1.837	1.724	1.691	1.853	1.650	1.443	1.280	1.259	1.281	1.471	1.693	3.813	17.40	62.48	104.5	69.77	10.03
595.0	65.31	71.69	76.37	61.44	48.87	49.09	51.11	56.73	61.89	98.41	122.8	79.79	65.25	67.63	278.2	1047	123.5	18.72	15.67	15.57	14.15	13.36	13.55	13.32	13.28	12.99	13.43	13.72	13.63	13.80	12.72	12.21	11.04	10.18	9.860	8.853	8.388	7.288	6.321	6.163	5.659	5.500	5.004	4.615	4.684	4.166	4.163	3.678	3.353	3.068	2.849	2.765	2.458	2.510	2.947	3.018	2.590	2.141	1.775	1.497	1.444	1.433	1.353	1.498	1.453	1.514	1.166	1.121	1.113	1.092	1.118	1.428	4.501	14.46	29.21	90.68	87.00
600.0	52.36	68.55	71.35	67.40	46.97	45.42	47.27	54.85	57.33	79.00	129.0	89.03	63.31	55.03	94.28	697.6	594.3	26.64	14.24	12.73	11.46	11.92	11.09	10.96	11.77	11.59	11.07	11.51	11.33	10.97	10.98	9.887	9.305	8.432	8.300	7.456	7.094	6.259	5.553	5.359	4.990	4.665	4.297	4.174	3.916	3.685	3.649	3.114	2.944	2.585	2.488	2.308	2.089	2.188	2.275	2.732	2.330	2.056	1.677	1.317	1.457	1.122	1.176	1.315	1.274	1.569	1.275	0.985	1.047	1.007	0.919	0.862	1.464	3.689	7.013	30.52	100.4
605.0	57.91	68.09	71.66	60.29	46.48	44.72	48.05	53.04	63.99	74.81	125.8	110.9	74.57	57.53	55.12	278.3	898.2	83.54	13.49	11.14	9.874	10.12	9.478	9.240	9.564	9.228	9.421	9.274	9.414	9.747	9.361	8.234	7.924	7.271	6.970	6.250	6.154	4.953	4.901	4.522	4.330	3.895	3.664	3.427	3.351	3.112	3.045	2.760	2.515	2.279	2.141	2.072	1.848	1.874	1.883	2.190	2.281	2.159	1.609	1.343	1.286	1.042	1.224	1.215	1.202	1.252	1.310	1.097	1.054	0.928	0.814	0.838	0.877	1.328	2.016	7.508	38.16
610.0	55.83	71.92	68.50	59.93	49.10	46.73	51.14	60.32	75.96	92.64	124.3	150.5	102.9	76.44	60.23	103.1	610.5	476.8	23.25	9.991	8.467	8.382	7.856	8.032	7.899	7.726	7.777	7.629	7.801	7.879	7.599	6.902	6.326	5.892	5.593	5.308	4.889	4.334	4.005	3.651	3.411	3.083	2.979	2.878	2.793	2.564	2.494	2.303	2.166	1.890	1.773	1.669	1.628	1.542	1.540	1.660	1.868	1.931	1.612	1.204	1.171	0.989	1.150	1.179	1.205	1.144	1.286	1.201	1.042	0.931	0.876	0.829	0.786	0.815	1.015	2.188	9.121
615.0	67.93	69.95	71.08	58.20	51.49	45.53	54.51	63.24	75.47	90.80	115.2	156.2	126.7	86.00	67.83	61.13	199.9	712.0	92.28	8.424	7.016	6.227	6.371	6.160	6.417	5.878	5.901	6.045	6.315	6.487	5.873	5.622	4.896	4.629	4.351	4.168	3.917	3.426	3.235	2.767	2.659	2.685	2.296	2.448	2.156	2.126	1.925	1.812	1.768	1.550	1.560	1.308	1.276	1.263	1.317	1.275	1.424	1.656	1.579	1.266	1.165	0.907	1.001	1.085	1.139	1.014	1.061	1.258	1.205	1.002	0.823	0.849	0.793	0.636	0.714	0.963	2.525
620.0	55.60	66.24	66.94	55.21	48.73	42.31	52.24	62.36	74.04	91.12	111.2	137.9	138.0	87.67	65.88	50.50	79.80	493.9	395.2	12.80	6.057	5.326	5.281	5.145	5.202	5.033	4.941	5.093	5.432	5.496	5.296	4.754	4.385	4.075	3.937	3.442	3.264	2.836	2.881	2.353	2.357	2.100	1.876	1.839	1.792	1.844	1.631	1.700	1.496	1.511	1.289	1.105	1.150	1.104	1.136	1.064	1.206	1.327	1.572	1.251	1.006	0.888	1.072	0.931	1.042	0.866	1.066	1.026	1.095	1.107	0.842	0.808	0.699	0.648	0.540	0.710	0.955
625.0	55.62	66.66	70.21	56.38	47.81	44.22	48.90	61.03	71.42	86.17	100.5	123.5	143.8	93.58	69.83	50.30	53.18	203.5	631.6	52.86	5.659	4.769	4.429	4.401	4.577	4.692	4.524	4.557	4.439	4.515	4.352	4.038	3.775	3.631	3.187	2.926	2.788	2.415	2.296	2.370	1.954	1.944	1.737	1.720	1.577	1.651	1.444	1.396	1.190	1.239	1.177	1.138	0.956	1.114	0.904	0.939	1.062	1.060	1.278	1.373	0.948	0.941	0.872	0.800	0.915	0.882	1.007	0.974	0.993	1.099	0.843	0.726	0.676	0.621	0.575	0.587	0.754
630.0	60.05	66.91	69.78	56.80	53.32	49.87	52.40	62.22	71.84	84.29	101.5	115.3	138.5	109.9	75.93	55.25	50.14	73.62	438.7	320.9	12.58	4.531	3.956	3.838	3.881	3.990	3.708	3.645	3.616	3.872	3.584	3.228	3.033	2.831	2.789	2.341	2.273	2.095	2.009	1.755	1.598	1.488	1.467	1.485	1.339	1.360	1.301	1.242	1.057	1.115	0.973	0.935	0.885	0.965	0.855	0.879	0.843	1.005	0.962	1.165	1.042	0.924	0.820	0.851	0.837	0.847	0.823	0.800	0.878	0.963	1.015	0.810	0.739	0.598	0.635	0.565	0.645
635.0	57.57	74.93	75.73	66.18	57.21	56.16	63.70	60.85	71.21	89.58	102.6	118.8	127.8	131.8	92.02	70.63	62.60	51.71	143.0	518.4	69.62	5.206	3.547	3.332	3.479	3.269	3.041	3.321	3.008	3.044	3.070	2.743	2.465	2.255	2.409	1.952	1.961	1.630	1.508	1.448	1.347	1.238	1.187	1.141	1.088	1.092	1.019	1.017	0.923	0.891	0.831	0.770	0.718	0.870	0.902	0.669	0.780	0.783	0.819	0.808	0.969	0.908	0.793	0.814	0.761	0.915	0.752	0.852	0.871	0.787	1.025	0.839	0.870	0.758	0.741	0.657	0.672
640.0	60.74	75.58	81.94	72.14	63.83	61.26	61.43	67.81	73.17	88.92	107.9	123.8	131.3	143.2	112.3	87.79	77.51	56.67	61.70	384.2	275.9	7.791	3.472	2.884	2.872	2.857	2.804	2.846	2.718	2.625	2.474	2.294	2.169	1.987	1.876	1.773	1.492	1.256	1.468	1.225	1.335	1.084	1.102	0.977	0.982	1.064	0.864	0.848	0.853	0.740	0.710	0.665	0.760	0.663	0.714	0.622	0.739	0.765	0.669	0.633	0.876	0.933	0.776	0.757	0.743	0.727	0.827	0.922	0.946	0.779	0.925	0.924	0.831	0.755	0.768	0.718	0.814
645.0	65.81	82.90	88.43	78.17	72.10	67.52	67.46	69.69	77.14	93.26	112.0	130.9	132.2	141.7	131.3	97.24	89.14	64.56	47.38	173.1	453.6	33.21	3.182	2.770	2.467	2.418	2.677	2.251	2.413	2.593	2.215	2.330	2.028	1.683	1.543	1.316	1.474	1.222	1.242	1.071	1.049	0.918	1.033	0.834	0.808	0.928	0.699	0.851	0.721	0.648	0.641	0.696	0.694	0.638	0.713	0.663	0.706	0.641	0.666	0.674	0.817	0.820	0.861	0.723	0.826	0.855	0.841	0.877	0.931	0.746	0.811	0.877	0.928	0.813	0.728	0.660	0.727
650.0	57.84	90.23	97.33	79.05	72.00	74.10	67.90	67.93	75.28	93.84	107.1	128.7	130.0	133.6	138.6	101.0	93.00	67.92	47.18	71.28	424.8	80.53	3.762	2.630	2.189	2.194	2.243	2.059	2.213	2.127	2.245	1.971	1.643	1.515	1.450	1.264	1.419	1.168	1.142	0.911	0.911	0.941	0.833	0.786	0.692	0.856	0.754	0.820	0.894	0.679	0.654	0.712	0.596	0.645	0.708	0.632	0.792	0.604	0.684	0.646	0.715	0.758	0.786	0.823	0.681	0.740	0.756	0.767	0.755	0.836	0.790	0.885	0.868	0.940	0.887	0.679	0.705
