Sample:	'1
File name:	T2025060601–§’Ú«≈ œ° Õ3±∂.FD3
Run date:	'14:04:05, 06/09/2025
Operator:	Administrator
Comment:	'

Instrument
Model:	F-2700 FL Spectrophotometer
Serial number:	23B8-004
ROM Version:	4J14000 07

Instrument parameters
Measurement type:	3-D scan
Data mode:	Fluorescence
EX  Start WL:	220.0 nm
EX  End WL:	600.0 nm
EX Sampling interval:	5.0 nm
EM  Start WL:	230.0 nm
EM  End WL:	650.0 nm
EM Sampling interval:	5.0 nm
Scan speed:	12000 nm/min
EX Slit:	5.0 nm
EM Slit:	5.0 nm
PMT Voltage:	700 V
Response:	Auto 
Corrected spectra:	Off
Contour interval:	50.000

Peak integration
Integration method:	Rectangular
Sensitivity:	1
Threshold:	1.000

Peaks
No.	ApexEX/EM(nm)	Height(Data)
1	225.0/585.0	67.99
2	225.0/605.0	57.69
3	230.0/345.0	3524
4	240.0/265.0	335.6
5	245.0/270.0	336.5
6	250.0/275.0	417.1
7	250.0/450.0	2775
8	255.0/280.0	530.2
9	255.0/445.0	2795
10	260.0/285.0	532.9
11	260.0/570.0	145.8
12	265.0/585.0	119.3
13	270.0/300.0	963.8
14	270.0/375.0	1277
15	270.0/595.0	99.35
16	275.0/305.0	1228
17	275.0/415.0	2995
18	275.0/430.0	3020
19	275.0/610.0	94.11
20	280.0/310.0	1197
21	280.0/345.0	1597
22	280.0/625.0	82.62
23	285.0/320.0	1243
24	285.0/635.0	65.26
25	335.0/415.0	1755
26	475.0/345.0	9.975
27	495.0/250.0	16.34
28	495.0/270.0	1.941
29	505.0/275.0	3.035
30	510.0/445.0	11.58
31	515.0/280.0	3.047
32	520.0/285.0	3.297
33	530.0/290.0	3.395
34	540.0/295.0	5.032
35	545.0/300.0	5.536
36	550.0/305.0	6.242
37	560.0/310.0	6.469
38	570.0/345.0	8.282
39	580.0/415.0	10.04

Data points
	220.0	225.0	230.0	235.0	240.0	245.0	250.0	255.0	260.0	265.0	270.0	275.0	280.0	285.0	290.0	295.0	300.0	305.0	310.0	315.0	320.0	325.0	330.0	335.0	340.0	345.0	350.0	355.0	360.0	365.0	370.0	375.0	380.0	385.0	390.0	395.0	400.0	405.0	410.0	415.0	420.0	425.0	430.0	435.0	440.0	445.0	450.0	455.0	460.0	465.0	470.0	475.0	480.0	485.0	490.0	495.0	500.0	505.0	510.0	515.0	520.0	525.0	530.0	535.0	540.0	545.0	550.0	555.0	560.0	565.0	570.0	575.0	580.0	585.0	590.0	595.0	600.0
230.0	43.45	547.2	1707	644.5	37.49	6.047	5.529	4.499	3.343	3.430	3.381	3.126	3.238	2.272	2.069	1.626	1.665	1.420	1.336	1.281	1.235	1.126	1.015	1.142	0.997	0.846	0.804	0.768	0.841	0.783	0.665	0.725	0.554	0.507	0.447	0.423	0.386	0.361	0.372	0.315	0.383	0.405	0.500	0.338	0.300	0.277	0.662	2.700	5.168	4.248	2.083	0.490	0.255	0.231	0.206	0.234	0.237	0.201	0.204	0.195	0.216	0.200	0.194	0.193	0.211	0.210	0.223	0.213	0.222	0.204	0.216	0.191	0.197	0.198	0.222	0.206	0.232
235.0	116.5	180.6	907.3	1741	564.6	80.21	6.967	4.866	3.928	3.860	3.776	3.270	3.520	2.282	2.358	1.655	1.576	1.351	1.295	1.345	1.087	1.199	0.857	1.107	0.983	0.892	0.828	0.696	0.816	0.712	0.622	0.658	0.606	0.580	0.484	0.436	0.364	0.343	0.367	0.361	0.353	0.368	0.520	0.542	0.581	0.380	0.359	0.861	2.013	3.428	6.264	6.634	3.604	0.900	0.260	0.296	0.249	0.218	0.224	0.191	0.218	0.213	0.175	0.201	0.239	0.221	0.248	0.211	0.205	0.221	0.212	0.192	0.211	0.195	0.208	0.185	0.199
240.0	147.0	143.4	266.7	1284	2266	486.3	41.29	5.510	4.672	4.036	3.998	3.433	3.436	3.039	2.120	1.626	1.732	1.640	1.461	1.479	1.128	1.141	1.002	1.010	0.999	0.890	0.765	0.767	0.763	0.808	0.781	0.744	0.552	0.524	0.518	0.496	0.347	0.356	0.314	0.332	0.373	0.315	0.425	0.381	0.580	0.603	0.492	0.414	0.668	1.045	3.117	7.103	10.39	8.332	5.589	0.803	0.223	0.200	0.207	0.210	0.219	0.189	0.217	0.196	0.201	0.198	0.232	0.178	0.160	0.197	0.183	0.183	0.203	0.195	0.187	0.198	0.202
245.0	106.1	204.8	140.2	398.5	2080	2914	361.9	16.39	5.566	4.772	3.900	3.894	4.023	2.697	2.070	1.761	1.680	1.538	1.296	1.349	1.241	1.096	1.314	0.977	1.029	0.898	0.887	0.933	0.722	0.729	0.894	0.675	0.565	0.495	0.444	0.520	0.397	0.387	0.369	0.382	0.363	0.293	0.323	0.338	0.367	0.604	0.841	0.817	0.478	0.409	0.864	2.258	6.548	12.17	21.23	11.33	2.094	0.379	0.225	0.182	0.250	0.227	0.175	0.188	0.182	0.202	0.223	0.198	0.201	0.176	0.205	0.229	0.194	0.153	0.248	0.174	0.241
250.0	43.58	134.3	235.6	195.2	623.5	2293	4166	1108	72.24	6.686	4.814	4.858	5.420	3.383	2.485	1.795	1.891	1.510	1.392	1.295	1.240	1.204	1.298	1.163	1.077	0.947	1.003	0.880	0.815	0.752	0.830	0.750	0.550	0.519	0.492	0.450	0.409	0.385	0.342	0.394	0.339	0.294	0.322	0.328	0.326	0.370	0.470	0.781	0.927	0.837	0.689	0.764	1.727	3.696	10.90	16.34	13.96	10.70	6.979	2.155	0.431	0.210	0.258	0.268	0.202	0.234	0.221	0.223	0.242	0.191	0.256	0.222	0.169	0.210	0.230	0.223	0.287
255.0	32.29	49.95	142.7	303.3	253.3	561.6	2747	3853	1482	89.91	8.253	6.230	6.272	3.419	2.830	2.106	1.967	1.791	1.598	1.491	1.417	1.322	1.344	0.979	1.042	1.060	0.979	0.886	0.795	0.834	0.773	0.744	0.507	0.569	0.478	0.569	0.450	0.347	0.358	0.367	0.328	0.367	0.390	0.321	0.351	0.369	0.304	0.393	0.527	0.721	1.156	1.456	0.978	1.079	2.723	4.024	4.754	9.056	19.10	20.26	11.29	2.592	0.385	0.251	0.213	0.273	0.243	0.213	0.219	0.289	0.246	0.211	0.208	0.197	0.211	0.266	0.261
260.0	27.14	27.77	53.79	231.4	327.6	199.2	756.6	2533	4192	1231	43.69	7.518	8.067	4.143	3.043	2.516	2.061	2.139	1.412	1.501	1.484	1.315	1.308	1.165	1.161	1.092	0.959	1.026	0.901	0.877	0.841	0.760	0.626	0.620	0.525	0.540	0.438	0.405	0.323	0.333	0.324	0.403	0.339	0.310	0.321	0.375	0.268	0.306	0.287	0.356	0.663	1.499	1.636	1.124	0.993	1.135	1.309	2.501	7.500	16.71	25.10	21.22	10.16	1.903	0.244	0.297	0.277	0.224	0.220	0.246	0.379	0.251	0.210	0.237	0.188	0.283	0.264
265.0	31.86	24.76	23.60	95.52	335.6	260.2	211.8	765.5	3509	4720	223.4	22.86	10.29	5.030	3.579	2.590	2.324	1.963	1.677	1.609	1.731	1.409	1.184	1.277	1.143	1.142	0.979	1.035	0.934	0.881	0.842	0.741	0.661	0.687	0.617	0.522	0.417	0.444	0.396	0.351	0.388	0.331	0.445	0.370	0.352	0.340	0.249	0.314	0.223	0.288	0.312	0.764	1.489	2.065	1.482	0.751	0.562	0.808	1.984	4.661	12.15	24.29	32.23	24.85	6.139	0.788	0.268	0.307	0.253	0.277	0.290	0.264	0.204	0.249	0.177	0.257	0.249
270.0	42.43	37.19	29.49	40.34	140.9	336.5	296.9	226.2	1023	3556	5033	2354	73.74	7.536	4.994	3.457	2.780	2.562	2.032	1.855	1.688	1.620	1.497	1.450	1.303	1.191	1.204	0.904	0.994	0.899	0.858	0.878	0.758	0.731	0.667	0.550	0.473	0.459	0.425	0.432	0.396	0.318	0.401	0.354	0.367	0.409	0.285	0.346	0.291	0.290	0.276	0.383	0.606	0.974	1.682	1.941	1.652	1.074	0.793	1.349	3.039	6.835	14.71	30.09	27.50	31.13	16.27	5.931	0.735	0.285	0.275	0.256	0.240	0.239	0.210	0.228	0.308
275.0	79.86	82.10	67.73	42.01	53.28	136.6	417.1	324.3	279.7	869.6	2710	9530	1307	62.76	7.179	4.792	3.775	3.222	2.424	2.271	2.002	1.721	1.447	1.724	1.397	1.226	1.271	0.846	1.083	0.942	0.924	0.992	0.728	0.718	0.740	0.612	0.548	0.539	0.498	0.473	0.433	0.378	0.451	0.373	0.379	0.422	0.435	0.480	0.399	0.342	0.335	0.367	0.427	0.485	0.673	0.906	1.949	3.035	2.216	1.135	0.995	1.879	3.656	7.138	7.838	18.28	42.79	45.15	24.25	6.632	0.610	0.346	0.326	0.275	0.234	0.254	0.379
280.0	137.5	128.2	108.7	70.40	42.26	63.22	237.3	530.2	249.9	260.8	753.7	5905	9999.9	900.9	26.57	6.419	4.479	3.808	2.926	2.445	2.201	1.552	1.666	1.756	1.507	1.222	1.362	1.073	1.027	0.995	1.073	1.033	0.754	0.784	0.801	0.667	0.684	0.529	0.644	0.506	0.425	0.458	0.453	0.434	0.456	0.604	0.610	0.629	0.528	0.432	0.399	0.370	0.403	0.438	0.471	0.533	0.884	1.907	2.868	3.047	1.421	0.921	1.301	2.046	2.209	4.810	14.20	27.66	45.17	32.52	17.59	3.145	0.361	0.300	0.331	0.331	0.372
285.0	187.0	193.6	171.0	104.6	58.62	55.32	111.3	419.9	532.9	198.5	265.9	1707	9999.9	7476	123.5	12.13	6.369	4.605	3.463	2.615	2.216	1.919	2.049	1.746	1.518	1.296	1.396	1.082	1.120	1.011	1.002	0.876	0.823	0.748	0.982	0.860	0.780	0.678	0.664	0.628	0.470	0.502	0.626	0.563	0.607	0.787	0.801	0.841	0.769	0.578	0.491	0.464	0.418	0.442	0.478	0.492	0.562	0.869	1.508	3.025	3.297	2.270	1.106	1.156	1.196	1.796	3.979	7.362	16.55	32.61	46.79	29.01	11.49	1.473	0.366	0.323	0.312
290.0	279.8	283.7	260.2	164.8	92.26	79.70	90.94	202.1	490.3	574.9	301.1	542.6	2834	5541	5871	1610	31.54	6.480	4.376	2.993	2.688	2.169	2.238	2.046	1.766	1.281	1.423	1.035	1.358	1.237	1.055	0.998	0.880	0.827	1.031	0.890	0.813	0.818	0.707	0.734	0.578	0.611	0.719	0.701	0.759	0.852	0.924	1.064	1.011	0.815	0.686	0.590	0.527	0.531	0.590	0.595	0.649	0.684	0.831	1.329	2.168	3.089	3.395	2.861	1.808	1.395	1.825	2.600	4.559	8.656	16.51	25.68	33.24	34.99	21.05	11.12	2.547
295.0	321.4	379.5	353.9	234.5	144.4	119.6	126.2	170.1	282.8	609.7	761.2	422.0	852.0	1412	3116	6773	694.0	33.25	6.539	4.502	2.939	2.902	2.643	2.416	1.725	1.501	1.620	1.159	1.290	1.284	1.037	1.162	0.932	0.873	1.196	1.053	1.060	0.896	0.852	0.737	0.649	0.740	0.725	0.767	0.855	1.124	1.091	1.232	1.191	1.029	0.946	0.827	0.726	0.789	0.644	0.695	0.744	0.810	0.892	1.081	1.329	1.620	2.239	3.780	5.032	3.339	2.097	1.949	2.271	3.162	4.809	6.725	8.695	14.73	34.30	64.53	34.58
300.0	377.5	448.3	416.4	288.7	193.7	161.1	184.6	219.6	286.9	475.0	963.8	746.3	526.4	548.9	925.5	4416	5813	525.5	17.43	5.788	3.899	3.068	2.966	2.529	1.914	1.659	1.572	1.304	1.242	1.071	1.111	1.223	0.912	1.069	1.263	0.970	1.039	1.049	0.904	0.896	0.761	0.810	0.964	0.877	1.023	1.289	1.184	1.390	1.344	1.247	1.088	0.990	0.839	0.941	0.764	0.873	1.127	0.990	1.085	1.270	1.449	1.694	1.920	2.807	4.071	5.536	4.740	2.968	2.572	2.453	2.620	2.880	3.081	4.315	9.889	30.88	58.80
305.0	442.6	512.7	489.6	351.9	243.7	223.2	266.8	315.8	403.6	537.3	875.2	1228	740.0	501.5	477.0	1348	6066	4896	76.75	8.403	4.701	3.637	3.473	2.889	2.147	1.934	1.722	1.504	1.569	1.232	1.102	1.315	0.870	1.218	1.172	1.041	1.190	1.061	1.010	1.025	0.870	0.907	1.046	0.935	1.105	1.540	1.341	1.681	1.474	1.278	1.239	1.020	1.011	1.145	1.173	1.059	1.344	1.476	1.585	1.742	2.191	2.303	2.427	3.039	3.588	4.476	6.242	6.198	4.620	3.200	2.971	2.658	2.487	2.564	3.795	8.305	18.34
310.0	494.5	574.6	573.8	425.7	317.8	297.9	343.0	410.3	498.1	633.9	820.0	1134	1197	730.8	484.0	546.6	1857	4640	5448	1218	21.29	5.222	4.146	3.760	2.324	2.140	1.970	1.526	1.675	1.406	1.288	1.436	1.046	1.179	1.283	1.191	1.085	1.020	1.068	1.023	0.945	0.985	1.046	0.990	1.234	1.521	1.565	1.762	1.785	1.468	1.345	1.360	1.339	1.258	1.435	1.353	1.598	1.824	1.997	1.981	2.409	2.640	2.913	3.275	3.777	3.932	4.736	5.660	6.469	5.858	5.021	3.605	3.079	2.838	2.854	3.626	5.589
315.0	552.7	677.0	678.6	508.5	382.2	349.8	406.1	478.6	572.7	710.8	854.2	1022	1162	1155	659.1	445.2	659.4	1211	3416	6392	488.3	21.37	5.667	4.742	3.093	2.449	2.280	1.666	1.721	1.566	1.466	1.448	0.989	1.117	1.316	1.069	1.043	1.099	1.036	1.060	1.087	1.024	1.060	1.308	1.391	1.753	1.883	1.995	2.084	1.537	1.500	1.627	1.634	1.530	1.601	1.605	1.916	2.094	2.089	2.411	2.622	2.987	3.299	3.425	4.017	4.147	4.621	4.804	5.075	5.694	6.685	6.575	4.800	3.619	3.266	2.792	2.973
320.0	710.8	970.2	919.6	652.5	464.7	418.3	460.4	542.9	649.0	787.0	958.7	1076	1123	1243	971.0	525.9	460.5	461.4	950.2	4655	4194	376.0	12.34	6.627	3.557	2.810	2.562	1.960	1.888	1.635	1.566	1.731	1.158	1.231	1.402	1.204	1.108	1.126	1.131	1.049	0.987	1.023	1.309	1.441	1.820	2.121	2.470	2.894	2.753	2.280	1.917	2.098	1.945	1.791	1.934	1.892	2.320	2.305	2.547	2.637	2.961	3.281	3.481	3.917	4.554	4.567	4.782	5.226	5.139	5.486	5.871	6.989	6.556	5.802	4.169	3.088	2.949
325.0	958.6	1388	1322	914.4	663.3	511.8	532.9	617.1	721.6	877.0	1058	1185	1210	1198	1202	745.7	480.0	338.9	337.1	1400	5541	3650	58.82	10.44	4.743	3.392	2.814	2.122	2.217	1.777	1.701	1.692	1.209	1.351	1.352	1.255	1.186	1.262	1.189	1.116	1.202	1.089	1.375	1.704	2.171	2.900	3.560	4.183	4.224	3.525	3.184	3.138	2.405	2.440	2.106	1.975	2.638	2.656	2.866	3.048	3.294	3.640	3.786	4.177	4.677	5.126	5.459	5.701	6.104	5.748	5.895	6.182	6.926	7.281	6.331	4.592	3.369
330.0	1379	2104	2369	1891	1163	723.3	649.8	712.0	826.9	1013	1210	1363	1389	1296	1203	1055	690.0	410.7	282.8	465.9	1705	4133	4366	1219	19.60	5.197	3.915	2.354	2.395	1.845	1.850	1.873	1.288	1.392	1.307	1.293	1.206	1.300	1.340	1.240	1.430	1.393	1.935	2.186	3.122	4.260	5.061	6.154	6.679	6.177	5.552	5.472	4.504	3.576	2.920	2.669	2.878	3.144	3.160	3.388	3.819	4.234	4.512	4.980	5.385	5.807	6.201	6.475	6.738	6.643	6.815	6.730	6.660	7.063	6.996	6.681	5.619
335.0	1717	2673	3081	2682	1804	1097	812.3	824.1	929.5	1113	1330	1503	1535	1452	1270	1101	1007	630.1	392.0	378.4	605.6	1141	3196	7641	402.3	20.16	5.538	2.863	3.011	2.295	2.033	2.211	1.388	1.596	1.363	1.339	1.320	1.335	1.483	1.462	1.602	1.804	2.370	2.750	3.641	4.976	6.222	7.921	8.612	8.059	7.734	8.259	6.730	5.600	4.310	3.711	3.547	3.562	3.658	3.657	4.217	4.711	5.222	5.583	5.972	6.163	6.797	7.026	7.325	7.129	7.692	7.592	7.409	7.267	6.864	6.518	6.501
340.0	1935	2968	3472	3066	2130	1278	918.8	883.2	994.6	1176	1386	1555	1596	1526	1342	1111	1013	839.8	505.9	409.7	413.9	485.0	1040	5996	3428	330.8	12.33	4.140	3.758	2.363	2.358	2.135	1.473	1.585	1.538	1.259	1.342	1.315	1.455	1.667	1.483	1.954	2.320	2.885	3.743	5.360	6.609	8.394	9.348	8.939	8.820	9.468	7.948	6.679	5.161	4.185	4.131	4.192	3.934	4.017	4.548	4.908	5.282	5.860	5.963	6.566	6.928	7.366	7.659	7.686	7.783	7.651	7.435	7.199	7.056	6.450	6.329
345.0	1937	2955	3524	3266	2262	1357	974.7	927.7	1026	1196	1395	1567	1597	1539	1366	1126	949.8	892.1	655.4	461.5	402.6	373.6	467.5	1931	4867	3046	51.66	6.824	4.527	2.891	2.639	2.509	1.561	1.554	1.538	1.192	1.310	1.460	1.486	1.646	1.507	1.938	2.343	3.105	4.000	5.539	6.759	8.870	9.631	9.748	8.884	9.975	8.378	6.751	5.433	4.544	4.174	4.304	4.031	4.304	4.562	5.072	5.405	5.765	6.277	6.647	7.058	7.245	7.907	7.963	8.282	7.708	7.637	7.659	6.992	6.697	6.274
350.0	1804	2807	3442	3184	2278	1449	1038	982.2	1051	1184	1365	1500	1540	1488	1350	1132	948.0	823.4	769.9	622.5	469.0	404.6	391.7	649.4	1601	3176	3654	218.2	16.15	4.273	3.311	3.039	1.632	1.705	1.605	1.272	1.349	1.428	1.512	1.548	1.629	1.915	2.308	2.950	3.937	5.321	6.342	8.391	9.345	9.455	8.772	9.646	8.873	6.912	5.811	4.874	4.446	4.344	4.190	4.493	4.805	4.868	5.280	5.618	6.066	6.294	6.733	6.877	7.291	7.731	7.694	7.498	7.581	7.521	7.101	6.865	6.283
355.0	1680	2564	3133	2983	2245	1489	1095	1021	1062	1178	1303	1435	1452	1424	1308	1137	964.9	820.2	747.7	768.2	602.0	479.1	424.7	408.3	532.5	846.4	2635	3217	366.6	16.55	5.089	3.905	2.126	1.940	1.969	1.326	1.346	1.460	1.562	1.620	1.498	1.773	2.241	2.639	3.688	4.656	5.767	7.478	8.349	8.679	8.333	8.942	8.582	6.960	6.166	4.767	4.789	4.313	4.295	4.454	4.769	5.067	5.007	5.548	5.720	6.227	6.410	6.526	7.343	6.989	7.699	6.941	6.903	7.380	7.011	6.761	6.491
360.0	1519	2365	2920	2811	2133	1460	1103	1033	1083	1185	1285	1381	1394	1357	1268	1119	973.6	839.6	756.4	768.6	751.2	565.8	473.9	396.0	341.5	335.2	767.2	2772	3175	288.7	10.62	5.840	2.606	2.179	2.025	1.536	1.403	1.486	1.446	1.729	1.490	1.906	2.109	2.409	3.382	4.429	5.399	6.817	7.683	7.659	7.569	8.396	8.161	6.865	5.675	4.760	4.877	4.408	4.831	4.705	4.836	5.020	5.007	5.611	5.434	6.176	6.423	6.135	6.673	6.745	7.183	6.976	7.133	7.184	7.041	6.420	6.426
365.0	1434	2129	2695	2606	2059	1452	1147	1082	1116	1192	1277	1320	1343	1307	1239	1101	989.0	882.5	800.1	776.2	806.5	719.6	549.1	443.9	356.6	268.8	288.3	892.7	4143	2618	48.36	9.211	3.494	2.832	2.324	1.576	1.477	1.540	1.632	1.524	1.442	1.812	1.953	2.377	3.246	4.343	5.128	6.427	7.089	7.307	7.250	7.951	7.751	6.767	5.721	5.077	5.171	4.644	4.865	5.052	4.971	5.094	5.081	5.719	5.848	5.854	6.281	6.234	6.630	6.390	6.719	6.699	7.085	6.770	6.880	6.567	6.657
370.0	1326	1948	2420	2431	1979	1486	1217	1161	1184	1237	1271	1282	1285	1251	1195	1094	1018	941.2	877.4	843.3	834.2	845.0	738.9	565.1	448.4	338.1	250.2	329.4	1316	2717	3997	1073	15.83	4.714	3.215	1.961	1.628	1.720	1.669	1.734	1.570	1.732	2.000	2.325	3.090	3.881	4.539	5.839	6.634	6.719	6.665	7.549	7.411	6.474	5.829	5.245	5.127	4.858	5.022	5.337	5.236	5.402	5.455	5.862	5.800	5.888	5.950	5.899	6.089	6.261	6.335	6.375	6.630	6.704	6.730	6.603	6.483
375.0	1182	1751	2206	2226	1887	1483	1265	1219	1230	1260	1277	1241	1232	1207	1166	1092	1037	979.7	951.0	928.5	905.9	885.2	881.6	745.3	575.7	446.3	326.6	273.8	436.5	734.8	3001	6781	324.2	20.08	5.363	2.829	2.107	1.961	1.809	1.706	1.819	1.681	1.966	2.202	2.816	3.535	3.882	5.126	6.062	6.023	5.971	6.722	7.044	6.412	5.847	5.336	5.331	5.409	5.471	5.453	5.379	5.574	5.777	5.687	6.192	5.960	5.627	5.948	5.845	6.040	5.903	5.981	6.175	6.499	6.743	6.660	6.629
380.0	1088	1623	2072	2089	1800	1493	1298	1239	1244	1277	1266	1225	1215	1184	1137	1072	1033	1001	985.5	972.3	952.2	930.9	918.0	875.4	692.8	539.1	411.0	319.7	292.7	301.8	885.1	5338	2738	282.4	10.89	4.127	2.806	2.206	1.755	1.902	1.771	1.783	1.889	1.852	2.629	3.409	3.801	4.751	5.523	5.486	5.867	6.404	6.868	6.033	5.801	5.279	5.545	5.328	5.537	5.297	5.329	5.498	5.717	6.022	5.949	5.890	5.644	5.660	5.840	5.744	6.137	5.810	6.249	6.648	6.523	6.605	6.373
385.0	1129	1569	1922	1965	1785	1522	1341	1278	1277	1293	1276	1227	1218	1184	1140	1075	1031	1017	1015	1009	1004	981.1	945.9	928.7	836.1	640.5	502.5	399.5	324.6	255.0	333.1	1660	3220	2543	41.04	7.363	4.084	2.673	2.070	2.052	1.707	1.780	1.915	2.042	2.503	3.331	3.629	4.637	5.342	5.226	5.326	6.310	6.481	5.972	6.137	5.512	5.655	5.303	5.396	5.602	5.592	5.465	5.962	6.155	6.053	5.843	5.832	5.816	6.005	5.811	6.037	5.883	6.092	6.420	6.538	6.345	6.244
390.0	1059	1528	1824	1914	1776	1573	1414	1375	1379	1394	1378	1315	1303	1258	1203	1117	1068	1046	1060	1075	1087	1080	1049	1008	971.4	845.7	667.8	543.4	447.2	351.7	290.5	519.7	999.6	2594	2988	633.8	17.17	5.865	3.350	2.603	1.838	1.787	1.901	2.122	2.439	3.217	3.588	4.591	4.969	5.034	5.127	6.227	6.342	6.202	6.139	5.754	5.972	5.840	5.810	5.812	6.115	5.824	6.002	6.129	6.273	6.006	5.909	6.105	5.845	6.053	6.165	6.062	6.438	6.522	6.464	6.459	6.788
395.0	1068	1437	1798	1880	1787	1656	1564	1548	1550	1602	1622	1590	1540	1492	1384	1238	1143	1109	1134	1164	1192	1213	1204	1168	1115	1054	929.6	760.1	641.6	522.9	408.4	367.6	392.3	713.1	2012	2792	277.9	21.54	6.573	3.757	2.389	2.030	2.134	2.199	2.732	3.128	3.240	4.300	4.957	4.950	5.002	6.101	6.583	6.457	6.557	6.273	6.486	6.230	6.440	6.209	6.541	6.360	6.436	6.751	6.653	6.742	6.669	6.699	6.337	6.711	6.847	7.117	6.707	7.193	7.048	6.835	7.122
400.0	1111	1443	1777	1886	1840	1785	1708	1690	1756	1855	1941	1949	1901	1801	1630	1403	1246	1179	1200	1248	1308	1343	1365	1339	1285	1215	1144	989.4	837.6	701.8	568.2	426.1	343.6	336.1	635.8	1908	2266	238.2	16.81	5.448	2.979	2.597	2.423	2.273	2.785	3.522	3.514	4.338	4.962	4.813	4.868	6.078	6.638	6.638	6.721	6.412	6.718	6.609	6.747	6.599	7.070	6.708	7.066	7.729	7.455	7.751	7.180	7.644	7.515	7.880	7.641	7.699	7.481	7.594	7.477	7.402	7.821
405.0	1138	1475	1787	1956	1921	1890	1880	1884	1985	2153	2317	2360	2307	2175	1914	1609	1372	1271	1282	1344	1423	1486	1525	1521	1484	1400	1334	1229	1055	895.9	744.4	581.0	412.1	329.2	327.1	637.4	2124	2114	203.9	9.408	3.995	3.035	2.694	2.573	3.060	3.527	3.601	4.534	4.759	4.660	4.955	6.417	6.573	6.846	7.071	6.947	6.856	7.439	7.440	7.459	7.439	8.010	7.851	8.176	8.452	8.181	8.428	8.482	8.613	8.588	8.395	8.880	8.474	8.598	8.273	7.890	8.041
410.0	1157	1485	1786	1959	2001	2021	2033	2101	2230	2484	2718	2811	2744	2558	2232	1815	1485	1356	1362	1430	1527	1616	1683	1701	1671	1600	1507	1427	1306	1121	939.9	745.6	560.3	414.2	326.7	321.7	677.0	1745	2108	873.0	14.76	3.975	3.112	2.768	3.272	3.634	3.681	4.458	4.877	4.740	4.980	6.358	6.880	6.846	7.180	7.258	7.822	7.998	8.026	8.042	8.004	8.325	8.400	9.004	9.445	8.952	9.393	9.587	9.492	9.630	9.570	9.530	9.333	9.053	9.011	8.686	8.394
415.0	1103	1466	1745	1935	2017	2066	2138	2226	2355	2626	2871	2995	2921	2698	2358	1883	1521	1369	1376	1448	1551	1646	1726	1755	1738	1681	1575	1481	1393	1253	1042	833.6	636.5	474.2	355.0	275.6	283.5	467.2	1104	3482	260.4	18.81	4.012	2.909	3.312	3.643	3.899	4.162	4.815	4.571	4.694	6.393	6.813	6.962	7.286	7.227	8.019	8.361	8.551	8.387	8.694	8.666	8.965	9.459	9.534	9.665	9.707	9.727	9.604	9.693	9.674	9.744	10.04	9.298	9.121	8.749	8.753
420.0	1079	1443	1710	1877	2026	2103	2157	2268	2387	2626	2877	2993	2903	2706	2352	1868	1506	1349	1354	1424	1517	1611	1697	1729	1721	1675	1576	1477	1380	1272	1087	862.5	659.9	495.4	370.3	271.8	200.5	182.2	306.2	2061	2101	243.1	9.866	3.825	3.531	3.729	3.753	4.403	4.720	4.590	4.607	6.153	6.908	7.063	7.339	7.313	8.322	8.320	8.726	8.846	8.951	8.604	8.752	9.629	9.283	9.539	9.385	9.868	9.695	9.642	9.974	9.849	9.990	9.437	8.973	8.835	8.418
425.0	1101	1388	1661	1864	2012	2154	2246	2315	2407	2637	2874	2988	2883	2691	2333	1862	1487	1330	1328	1399	1478	1564	1660	1698	1696	1646	1565	1469	1368	1264	1117	891.5	678.4	515.9	389.8	282.4	191.2	127.4	114.5	561.5	1638	1725	172.1	6.728	4.066	3.922	3.706	4.196	4.623	4.606	4.627	6.332	7.179	6.923	7.612	7.687	8.548	8.924	8.905	8.873	9.089	8.991	8.767	9.582	9.276	9.245	9.152	9.656	9.588	9.338	9.668	9.653	9.652	9.106	8.999	8.606	8.099
430.0	1166	1370	1652	1871	2070	2248	2405	2475	2529	2677	2899	3020	2940	2729	2363	1879	1497	1338	1324	1378	1442	1526	1623	1666	1671	1633	1554	1473	1382	1266	1136	955.5	732.8	554.7	423.8	313.2	212.3	131.2	84.89	161.0	439.6	1057	1416	487.0	15.89	4.591	4.014	4.408	4.765	4.440	4.707	6.386	7.161	7.351	7.960	8.172	8.841	9.319	9.370	9.571	9.346	9.215	9.173	9.461	9.225	9.132	9.389	9.278	9.344	9.349	9.889	9.779	9.648	9.131	8.807	8.393	7.870
435.0	1387	1386	1675	1901	2155	2383	2573	2658	2644	2713	2902	3006	2925	2719	2347	1881	1494	1336	1312	1363	1400	1475	1561	1611	1620	1590	1533	1460	1374	1269	1127	973.9	788.7	597.7	457.8	343.6	238.4	149.3	92.05	82.43	128.1	258.1	662.9	1408	1242	22.19	4.819	4.842	5.010	4.618	4.868	6.314	7.317	7.541	8.450	8.894	9.688	10.20	10.02	10.61	9.779	9.725	9.335	9.956	9.622	9.014	9.637	9.133	9.776	9.311	9.262	9.704	9.639	9.528	8.582	8.404	7.842
440.0	1617	1507	1660	1894	2206	2454	2699	2742	2659	2692	2813	2890	2840	2639	2280	1828	1470	1308	1287	1316	1344	1407	1492	1539	1544	1524	1474	1415	1332	1239	1105	948.3	786.7	623.0	469.0	357.4	250.4	162.4	101.3	71.39	63.96	82.12	173.9	713.7	2776	244.5	14.83	5.176	4.957	5.004	4.941	6.111	7.245	7.834	8.776	9.024	10.37	10.62	10.90	10.56	10.21	9.526	9.360	9.307	9.433	8.831	8.871	9.083	9.193	9.407	9.262	9.200	9.334	9.219	8.336	8.000	7.800
445.0	1571	1763	1624	1888	2204	2494	2747	2795	2639	2597	2660	2714	2670	2485	2164	1744	1420	1265	1237	1259	1271	1321	1397	1438	1450	1431	1386	1333	1263	1175	1057	904.5	751.4	623.4	475.8	354.6	254.5	170.4	110.3	74.88	55.79	46.93	59.80	188.2	1718	1952	185.1	11.29	5.227	5.085	4.959	6.528	7.597	7.550	8.954	9.028	10.59	11.17	11.58	11.21	10.21	9.783	9.219	8.936	8.638	8.415	8.573	8.436	8.705	8.940	8.666	8.732	9.098	8.675	8.486	7.914	7.720
450.0	1248	2093	1768	1815	2148	2500	2775	2770	2547	2391	2392	2436	2401	2239	1957	1603	1311	1180	1157	1156	1149	1171	1237	1276	1294	1281	1247	1201	1147	1074	967.6	835.0	690.2	573.8	468.3	356.0	254.5	174.2	119.3	84.55	61.65	45.89	38.46	60.42	434.2	1117	1372	693.2	15.77	5.476	5.167	6.545	7.436	7.868	9.027	9.497	10.68	11.21	11.42	10.84	9.912	9.479	8.758	8.274	7.737	7.746	7.872	7.807	7.955	8.186	8.180	8.137	8.039	8.284	7.679	7.060	7.213
455.0	992.8	1892	2250	1723	2045	2413	2695	2670	2423	2187	2139	2165	2124	1985	1739	1445	1194	1080	1054	1038	1018	1032	1082	1114	1128	1129	1103	1062	1021	962.0	880.1	761.7	632.0	519.9	435.0	351.5	256.4	177.2	125.9	92.25	68.47	50.90	38.84	35.69	113.8	263.2	497.8	1535	731.9	19.21	5.899	6.451	6.905	7.729	9.171	9.355	10.68	11.05	10.90	10.20	9.370	8.909	8.071	7.845	7.336	7.164	6.801	7.001	7.192	7.178	7.594	7.167	6.963	7.374	6.973	6.752	6.846
460.0	868.1	1552	2594	1819	1969	2300	2586	2573	2289	2018	1941	1977	1927	1808	1586	1325	1114	1005	981.3	957.4	927.2	927.1	965.9	1005	1019	1013	998.1	964.0	932.6	882.6	808.1	704.0	589.0	488.7	403.6	337.8	258.8	180.1	129.6	96.35	73.08	55.39	41.05	32.56	45.38	73.47	125.6	683.9	1300	184.9	14.14	6.459	7.171	7.810	8.698	9.149	10.23	10.22	10.49	10.05	9.069	8.529	7.886	7.147	6.918	6.387	6.660	6.511	6.688	6.745	6.775	6.422	6.609	6.470	6.462	6.400	6.440
465.0	811.4	1223	2433	2123	1883	2191	2461	2429	2143	1866	1789	1797	1751	1652	1445	1222	1025	930.2	905.1	877.9	838.0	834.8	869.3	910.4	922.8	920.1	900.2	872.4	852.7	811.4	747.0	651.3	549.7	459.0	380.8	313.1	257.0	184.8	130.0	98.84	76.06	58.71	44.87	34.54	30.67	33.40	41.59	173.4	706.3	1123	155.3	11.89	7.262	7.454	8.308	8.615	9.756	9.915	9.733	9.356	8.509	8.178	7.260	6.624	6.438	5.870	6.271	6.038	6.035	6.223	6.165	6.404	6.043	6.008	5.941	5.824	6.065
470.0	787.8	1003	1712	2456	1953	2007	2232	2219	1932	1651	1554	1551	1519	1425	1259	1062	907.0	823.6	796.5	768.0	728.2	719.6	749.6	777.9	790.4	785.3	776.5	754.9	738.0	708.2	656.9	579.1	490.0	411.5	342.7	282.9	232.3	182.7	134.7	99.77	77.08	61.82	48.23	37.68	29.73	26.29	24.25	51.04	178.2	564.3	868.3	461.7	17.53	7.495	7.940	8.261	9.043	9.305	9.526	8.961	7.970	7.449	6.613	5.938	5.462	5.311	5.463	5.343	5.277	5.615	5.361	5.499	5.479	5.528	5.174	5.303	5.310
475.0	712.0	894.5	1173	2124	2471	1834	1985	1961	1687	1419	1318	1322	1280	1202	1071	905.3	784.8	713.7	690.3	660.3	621.9	605.0	631.5	648.6	660.8	660.6	651.4	642.4	624.2	602.1	560.2	496.5	427.1	359.5	303.5	248.9	202.3	165.0	136.7	102.2	77.72	61.94	48.47	39.89	32.35	26.98	22.01	24.85	50.32	134.4	298.4	839.5	775.5	22.63	7.651	7.822	8.073	8.206	8.531	8.039	7.119	6.681	5.679	5.198	5.053	4.828	4.686	4.716	4.638	4.607	4.713	4.886	4.772	4.588	4.511	4.779	4.731
480.0	629.5	801.1	971.2	1575	2779	1864	1808	1781	1524	1277	1166	1166	1127	1054	945.0	806.3	698.0	639.3	619.4	587.1	546.5	532.0	549.3	570.3	580.6	580.1	571.6	558.4	549.6	533.3	496.3	444.0	384.9	323.5	273.8	228.0	185.8	151.0	130.0	105.8	78.03	61.70	49.19	40.98	33.67	27.04	22.31	20.18	22.59	39.41	75.83	343.8	1414	212.0	18.30	7.647	7.822	7.911	7.657	7.071	6.523	5.848	5.403	4.698	4.545	4.565	4.111	4.170	4.217	4.310	4.183	4.423	4.174	4.169	4.195	4.264	4.358
485.0	553.4	774.4	866.9	1154	2594	2253	1661	1629	1383	1164	1045	1042	1003	936.1	848.3	723.1	632.7	579.9	559.6	528.4	490.0	475.3	486.3	507.3	510.9	515.2	508.9	500.5	491.2	481.0	448.2	400.9	351.0	297.0	253.8	210.8	174.5	139.8	119.2	106.1	82.21	62.66	50.43	41.44	34.88	28.35	23.97	20.08	17.81	18.78	25.88	89.02	762.4	975.7	203.4	15.35	8.087	7.508	7.111	6.778	6.055	5.247	4.968	4.500	3.830	3.912	3.703	3.862	3.801	4.126	3.699	3.748	4.049	3.885	3.607	3.707	3.761
490.0	484.5	718.4	799.6	930.0	1748	2815	1903	1418	1223	1016	916.1	902.7	867.9	817.0	732.0	632.1	551.1	511.0	490.9	461.3	424.8	412.2	420.3	436.6	444.3	443.2	440.7	433.0	428.0	416.2	391.3	354.3	310.1	264.1	226.5	193.2	159.3	130.4	108.4	96.07	84.53	67.72	51.75	42.47	36.00	30.43	25.62	21.85	17.90	15.99	15.65	28.76	188.6	457.4	1228	757.5	19.56	7.178	6.782	6.186	5.422	4.921	4.497	4.142	3.486	3.547	3.557	3.396	3.454	3.500	3.512	3.469	3.467	3.514	3.427	3.277	3.242
495.0	404.7	618.9	744.9	799.7	1137	2482	2916	1260	1060	876.9	792.9	772.0	742.2	696.7	628.0	540.2	476.1	439.0	420.1	396.4	362.3	349.7	357.5	369.8	376.5	376.2	374.9	367.0	365.7	354.7	336.4	306.8	268.5	233.7	201.5	171.7	144.3	117.5	100.1	85.48	77.82	69.58	54.65	42.93	36.88	31.51	26.82	23.70	19.48	16.72	14.39	16.01	50.91	109.9	414.1	1320	971.2	23.28	6.581	5.382	4.830	4.510	3.927	3.705	3.161	3.221	3.006	3.013	2.900	2.965	3.259	2.954	3.135	2.992	2.931	3.024	2.908
500.0	363.7	535.6	708.3	737.2	891.5	1731	3474	1266	951.8	784.5	707.0	681.1	654.3	616.7	546.7	475.9	422.4	384.6	370.1	348.3	317.2	305.7	312.5	323.8	327.0	330.3	327.8	322.9	318.4	313.3	299.3	273.4	239.3	209.6	181.7	155.9	131.4	108.1	91.90	78.01	71.19	67.14	56.93	43.47	37.27	32.56	27.60	24.09	21.26	17.92	14.71	13.74	20.96	32.68	101.4	519.6	1609	224.9	17.34	5.438	4.469	4.044	3.600	3.344	2.966	2.955	2.696	2.760	2.595	2.557	2.830	2.711	2.782	2.760	2.766	2.600	2.545
505.0	316.1	491.0	626.8	676.4	770.7	1127	3072	1556	841.4	690.9	629.5	611.5	584.3	541.1	477.0	421.6	373.8	341.5	328.3	307.1	280.5	270.1	274.5	284.4	286.7	292.1	286.7	283.6	283.4	277.2	263.4	242.1	213.3	187.5	163.5	141.3	120.8	100.4	86.70	73.91	64.07	60.65	55.96	45.63	37.48	31.96	27.74	24.63	21.13	18.24	15.64	13.90	14.31	15.91	30.61	128.8	795.6	763.9	188.7	9.919	4.292	3.888	3.353	3.015	2.666	2.569	2.460	2.431	2.406	2.479	2.526	2.356	2.310	2.374	2.340	2.346	2.516
510.0	260.1	401.4	512.2	619.9	663.8	820.1	1773	2066	871.6	582.6	529.0	520.9	495.0	454.5	406.2	355.0	315.6	285.2	276.0	258.1	236.5	225.9	231.3	239.4	239.8	242.0	240.3	237.0	235.9	232.7	222.4	204.6	181.7	160.1	140.2	123.1	105.1	89.33	77.91	66.89	58.63	52.71	51.12	46.87	39.13	31.08	27.25	24.21	21.11	18.57	16.45	14.38	12.97	12.57	14.92	36.22	193.6	347.3	605.6	296.6	16.00	3.752	3.098	2.569	2.338	2.283	2.233	2.207	2.152	2.055	2.173	2.042	2.052	2.105	2.136	2.002	2.138
515.0	220.2	346.5	402.1	542.6	585.0	647.7	924.8	1828	1359	506.5	444.7	436.8	410.0	382.3	333.9	291.5	262.1	236.7	231.7	213.5	195.5	188.0	188.0	194.7	198.1	199.1	197.4	195.3	193.9	191.8	182.6	169.6	151.3	134.5	117.2	104.6	90.13	78.51	68.33	59.90	53.01	46.20	42.92	42.88	39.64	32.67	26.12	23.65	20.86	18.07	16.23	15.22	12.91	12.11	11.44	15.46	49.88	83.34	198.7	577.1	239.5	22.49	3.085	2.616	2.140	2.086	1.985	1.917	2.059	1.759	1.876	1.840	1.799	1.860	1.916	1.865	1.831
520.0	199.8	292.3	339.4	458.9	546.3	556.1	655.6	1215	1868	569.3	386.0	372.0	359.9	328.9	290.3	255.9	226.5	207.4	199.5	184.5	170.0	161.1	162.5	168.3	170.5	171.5	171.6	169.2	167.5	164.8	159.1	147.2	133.0	118.5	103.4	91.68	79.66	71.25	61.46	54.88	48.78	43.24	39.35	37.74	38.00	33.24	26.82	22.88	20.44	17.77	16.39	14.79	13.05	11.51	10.35	10.47	17.60	24.14	49.54	233.0	675.9	221.7	13.31	2.590	2.161	2.047	1.904	1.656	1.754	1.611	1.613	1.582	1.440	1.455	1.499	1.636	1.698
525.0	167.2	243.9	300.6	365.1	509.9	498.0	526.0	728.1	1944	955.0	343.6	321.8	314.7	289.0	255.2	217.2	195.0	182.7	174.1	162.2	147.7	140.1	141.8	145.4	146.6	149.6	147.4	145.4	144.2	145.2	139.3	129.6	116.5	105.1	92.88	83.30	72.45	62.93	56.46	50.87	44.33	39.81	35.78	33.13	34.12	33.47	27.24	22.53	19.49	17.26	15.86	14.59	12.94	11.31	10.01	9.891	9.952	10.95	15.68	58.23	335.8	589.4	190.2	5.564	2.184	1.791	1.763	1.567	1.557	1.694	1.532	1.393	1.328	1.400	1.448	1.399	1.456
530.0	151.5	210.8	254.0	301.3	422.3	450.3	435.7	481.8	1178	1822	426.0	279.3	262.5	239.5	213.8	184.8	163.9	153.9	145.4	135.9	122.5	117.6	119.5	121.2	123.4	125.4	122.0	122.0	121.4	121.4	116.5	109.3	97.61	87.53	78.99	70.35	63.03	54.84	49.51	44.67	39.65	35.31	32.44	29.69	28.93	29.39	27.37	22.21	18.46	16.47	14.74	13.66	11.97	10.93	9.920	8.807	8.492	7.641	7.960	16.88	82.52	261.1	649.9	244.6	14.55	1.970	1.722	1.366	1.390	1.355	1.283	1.291	1.285	1.233	1.271	1.252	1.272
535.0	128.5	181.7	216.7	236.3	313.5	410.7	371.3	356.1	518.5	1820	983.8	245.2	219.0	200.5	176.2	155.7	135.0	125.9	118.6	112.2	101.1	97.92	100.2	100.6	99.40	101.6	99.76	99.42	100.6	99.79	95.91	89.85	80.35	73.01	65.71	58.62	53.37	47.02	42.64	38.62	34.39	31.68	27.94	26.65	24.82	23.48	24.56	22.23	18.00	15.14	13.43	12.63	10.99	10.10	9.663	8.603	7.646	6.425	6.180	7.400	21.59	60.86	212.7	502.8	246.0	21.13	1.823	1.360	1.269	1.139	1.204	1.068	1.154	1.155	1.050	1.024	0.996
540.0	118.0	162.7	181.6	206.1	259.8	360.2	335.9	296.6	314.4	1078	1628	307.0	189.2	169.7	151.1	130.9	116.2	108.0	101.0	94.96	86.51	83.55	86.17	85.53	85.37	85.81	85.46	85.20	85.19	84.57	82.46	76.30	68.84	64.11	56.26	51.85	46.12	41.22	37.68	34.65	31.08	27.95	25.09	24.12	22.50	21.04	20.99	21.72	18.21	14.40	12.73	11.63	10.23	9.448	8.782	8.221	7.206	6.051	5.201	5.060	7.662	15.97	50.46	201.7	581.0	224.3	11.80	1.394	1.114	0.952	1.145	0.997	0.909	0.966	0.964	1.017	0.949
545.0	97.07	147.0	165.8	184.0	214.7	295.0	318.8	261.2	235.2	474.9	1788	715.5	164.9	150.2	131.3	112.4	100.0	94.81	87.74	81.75	75.10	71.54	73.36	71.93	75.08	73.17	73.18	72.94	72.57	72.19	71.18	66.15	60.04	55.75	49.13	45.38	40.13	36.30	32.61	30.55	28.06	25.42	22.99	21.64	19.76	19.28	18.04	19.09	18.27	14.23	11.67	10.59	9.323	8.803	7.902	7.725	7.184	5.774	4.832	4.322	4.293	6.188	13.43	48.71	277.4	586.1	189.8	4.799	1.239	1.033	1.109	0.950	1.017	0.856	0.934	0.803	0.797
550.0	95.16	118.1	137.1	150.0	169.6	212.4	285.9	228.8	187.0	230.7	971.3	1756	275.9	120.7	104.9	90.64	81.63	76.25	71.31	65.80	60.91	57.86	57.96	59.25	60.03	59.49	59.02	58.34	59.82	57.96	57.10	54.18	48.55	44.46	40.51	37.02	33.14	30.30	27.99	25.57	23.49	21.39	19.75	18.33	17.35	16.41	15.19	15.05	15.49	13.83	11.25	9.460	8.384	7.775	7.016	6.689	6.204	5.576	4.529	3.949	3.433	3.529	4.902	12.55	66.62	253.2	601.1	138.3	12.48	1.116	1.035	0.863	0.835	0.761	0.804	0.724	0.710
555.0	92.09	99.84	111.7	124.6	133.7	150.7	219.7	217.9	155.0	148.0	331.8	1834	1060	99.98	83.60	72.20	65.35	60.41	56.83	52.43	47.39	45.38	45.97	46.08	46.64	46.44	46.82	45.51	46.32	45.16	44.99	42.26	39.80	35.34	32.27	29.27	26.40	23.48	22.44	20.68	19.17	17.65	16.05	15.24	14.22	13.74	12.29	11.64	11.63	12.11	11.05	8.848	7.326	6.494	6.070	5.983	5.070	4.934	4.462	3.325	2.817	2.637	2.696	4.272	16.14	57.63	188.0	292.0	224.9	16.21	0.937	0.779	0.685	0.712	0.676	0.739	0.653
560.0	75.93	82.80	102.7	105.8	111.8	127.0	159.9	212.1	134.4	117.6	150.3	1004	2334	123.3	68.54	60.54	53.59	49.18	47.58	43.76	40.03	37.58	37.82	38.13	37.97	38.75	37.98	37.94	37.50	36.90	37.01	35.35	31.49	29.21	26.69	24.00	22.25	20.42	18.94	17.64	15.88	15.02	13.56	13.12	12.20	11.43	10.44	9.759	9.297	9.738	10.03	8.205	6.613	5.699	5.421	5.030	4.603	4.271	4.106	3.485	2.751	2.304	2.067	2.394	4.936	14.04	43.52	114.0	401.4	156.3	10.71	0.763	0.659	0.586	0.646	0.601	0.537
565.0	71.80	80.79	86.75	91.70	94.84	102.7	123.2	185.1	135.1	98.87	102.8	380.6	2839	321.1	58.82	51.53	43.92	40.95	39.27	35.98	33.37	32.22	31.88	31.95	32.49	32.04	31.69	31.62	30.75	31.01	30.97	30.29	26.41	24.76	22.90	20.25	18.90	17.45	15.94	14.56	13.78	13.10	11.73	11.25	10.22	9.708	9.271	8.838	8.043	7.958	8.257	7.893	5.970	5.178	4.612	4.363	4.216	3.654	3.608	3.490	2.605	2.106	1.918	1.860	2.224	4.274	10.90	27.35	190.0	282.5	129.7	2.438	0.602	0.623	0.587	0.543	0.511
570.0	65.38	73.59	79.58	78.58	81.00	80.08	92.21	135.3	145.8	86.34	81.31	143.6	1494	990.9	86.26	40.87	34.72	31.86	30.60	28.35	25.92	25.25	25.10	24.91	25.60	24.74	24.65	24.65	24.64	24.77	24.46	22.85	21.23	19.90	17.71	16.27	15.27	14.28	12.89	11.93	11.14	10.53	9.727	9.054	8.788	8.186	7.758	6.982	6.888	6.063	6.199	6.670	5.829	4.651	3.857	3.606	3.542	3.048	2.985	2.763	2.690	2.070	1.780	1.510	1.564	1.904	3.312	7.009	45.48	111.9	227.6	93.20	9.883	0.649	0.578	0.463	0.453
575.0	59.35	68.48	73.32	63.15	65.27	65.57	72.03	85.93	139.6	89.55	66.55	79.19	413.8	1121	481.6	32.11	27.12	26.59	23.41	21.98	20.78	19.38	19.48	19.28	19.81	19.06	18.93	18.95	19.20	18.85	19.32	17.80	16.25	14.86	13.60	12.86	12.13	10.98	10.34	9.385	8.750	8.622	7.562	7.117	6.984	6.615	6.162	5.468	5.735	5.053	4.507	4.889	5.138	4.468	3.463	3.162	2.960	2.730	2.308	2.225	2.196	2.200	1.685	1.503	1.235	1.291	1.572	2.404	10.86	25.62	65.53	151.7	103.3	12.43	0.647	0.445	0.479
580.0	54.94	58.40	65.31	55.94	57.02	54.32	62.96	65.10	108.0	104.8	62.80	62.36	132.8	645.3	1017	46.47	23.43	21.34	19.57	18.77	17.18	16.08	15.59	16.20	16.40	15.95	15.83	15.62	15.95	16.05	15.02	14.63	13.61	12.64	11.63	10.88	9.718	9.289	8.960	7.933	7.465	7.357	6.376	6.115	5.996	5.757	5.137	4.895	4.936	4.018	3.838	3.757	4.286	4.240	3.329	2.916	2.474	2.183	2.120	1.879	1.886	1.935	1.787	1.338	1.173	1.134	1.103	1.286	3.051	6.366	15.44	55.39	132.5	92.50	7.881	0.498	0.465
585.0	59.00	67.99	56.07	52.45	50.76	48.31	53.29	51.49	77.23	119.3	61.34	55.69	67.05	248.2	1338	107.7	20.35	18.61	16.89	15.42	14.45	14.05	13.24	13.49	13.88	13.99	13.79	13.45	13.31	13.21	13.10	12.32	11.38	10.39	10.00	9.111	8.100	7.753	7.363	6.653	6.365	6.453	5.475	5.168	5.273	4.903	4.857	4.127	4.077	3.596	3.340	3.093	3.420	3.831	3.288	2.664	2.357	1.836	1.965	1.653	1.711	1.575	1.823	1.504	1.097	0.988	0.995	1.043	1.384	1.996	4.107	13.21	54.30	157.5	35.25	3.191	0.432
590.0	52.23	60.29	52.54	49.64	42.31	40.96	45.11	44.73	52.97	101.8	79.92	50.57	48.93	86.47	730.4	619.2	40.30	15.04	13.46	12.48	11.95	11.07	10.43	10.82	10.82	10.91	10.65	10.90	10.82	10.39	10.31	9.607	9.073	8.124	7.974	7.211	6.721	6.245	5.755	5.576	5.247	4.958	4.611	4.282	4.271	4.096	3.838	3.653	3.416	2.899	2.680	2.639	2.523	2.806	3.060	2.589	2.077	1.733	1.624	1.446	1.306	1.226	1.414	1.450	1.202	0.955	0.905	0.814	0.931	1.051	1.386	3.425	12.88	58.52	119.0	79.93	11.87
595.0	46.31	50.36	49.98	42.69	37.21	32.45	35.70	40.14	42.17	68.71	99.35	49.69	42.47	42.60	204.9	777.1	270.0	12.96	11.00	9.641	9.404	8.216	8.912	8.462	9.038	8.738	8.376	8.774	8.426	8.258	8.003	7.754	7.177	6.397	6.232	5.608	5.375	4.698	4.750	4.331	4.191	4.079	3.660	3.402	3.341	3.444	2.996	3.205	2.802	2.407	2.299	2.146	1.963	2.074	2.474	2.327	2.103	1.599	1.367	1.312	1.200	0.971	1.083	1.035	1.205	0.973	0.840	0.810	0.712	0.765	0.747	1.250	3.268	13.38	32.38	102.8	112.6
600.0	51.41	55.30	45.23	40.41	30.96	30.30	31.65	37.00	35.53	50.34	94.84	58.93	41.25	33.01	64.81	470.6	681.0	18.00	9.040	8.551	7.899	6.833	7.705	7.000	7.756	7.138	6.734	6.866	6.845	7.198	6.721	6.275	5.998	5.507	5.231	4.616	4.799	4.164	3.843	3.946	3.487	3.390	3.196	2.643	2.762	2.852	2.628	2.373	2.327	2.131	1.962	1.772	1.700	1.738	1.848	1.959	1.982	1.574	1.272	1.071	1.016	0.987	0.882	0.869	0.933	1.084	0.819	0.676	0.708	0.718	0.643	0.737	1.134	3.287	7.620	33.14	123.1
605.0	43.61	57.69	47.58	36.67	29.56	29.45	29.90	33.60	37.13	43.61	84.13	75.22	43.33	33.27	33.25	171.6	931.5	66.37	8.528	7.465	6.705	6.011	6.095	6.112	6.197	5.748	6.444	6.114	5.961	5.770	5.753	5.453	5.281	4.418	4.296	4.027	3.950	3.493	3.387	3.242	3.096	2.848	2.662	2.418	2.611	2.532	2.191	2.173	1.795	1.678	1.716	1.525	1.497	1.416	1.488	1.612	1.689	1.605	1.202	0.979	0.942	0.900	0.859	0.788	0.764	0.958	1.047	0.670	0.678	0.644	0.654	0.593	0.738	1.128	2.016	7.864	44.60
610.0	45.79	47.67	43.02	34.75	29.78	29.85	29.56	34.03	38.60	45.84	66.94	94.11	53.24	37.71	29.71	56.97	564.2	385.7	18.34	6.209	5.752	5.042	4.919	5.189	4.754	5.071	4.923	4.808	4.926	4.673	4.594	4.444	4.200	3.722	3.563	3.089	3.086	2.950	2.601	2.577	2.366	2.113	2.147	2.068	2.060	1.975	1.883	1.699	1.535	1.472	1.358	1.370	1.221	1.216	1.255	1.218	1.300	1.393	1.161	0.915	0.802	0.769	0.823	0.668	0.716	0.780	1.005	0.822	0.678	0.606	0.545	0.500	0.554	0.618	0.835	2.158	10.43
615.0	42.65	42.17	40.31	36.08	28.55	26.60	29.76	35.18	36.97	45.04	56.14	86.79	69.55	39.37	29.63	29.13	161.2	523.9	77.65	5.380	4.682	4.370	4.302	4.130	3.845	3.808	3.920	3.786	3.592	3.842	3.861	3.511	3.324	3.205	2.894	2.285	2.334	2.424	2.103	2.159	1.954	1.800	1.841	1.760	1.556	1.663	1.414	1.317	1.213	1.179	1.194	1.006	0.841	0.914	0.981	0.878	0.993	1.149	1.206	1.027	0.870	0.779	0.688	0.635	0.685	0.594	0.792	0.807	0.793	0.536	0.615	0.596	0.482	0.465	0.502	0.877	2.630
620.0	43.29	42.66	42.11	31.69	29.46	25.04	29.59	33.65	36.62	43.88	49.81	71.84	80.22	41.07	30.18	22.79	50.59	337.6	420.8	8.172	4.062	3.414	3.543	3.469	3.193	3.203	3.307	3.396	3.119	3.085	3.075	2.977	2.759	2.491	2.376	2.017	1.916	1.935	1.991	1.839	1.562	1.592	1.739	1.401	1.438	1.245	1.141	1.227	1.143	1.041	0.902	0.893	0.776	0.827	0.888	0.705	0.781	0.873	1.093	0.984	0.730	0.725	0.603	0.662	0.603	0.605	0.654	0.746	0.929	0.662	0.624	0.522	0.501	0.445	0.380	0.473	0.937
625.0	44.78	42.94	42.86	34.12	28.06	24.95	26.79	30.87	33.47	41.70	50.02	58.57	82.62	46.72	30.38	20.83	24.90	126.0	638.8	40.27	3.772	2.991	2.897	3.375	2.637	2.920	2.776	2.752	2.673	2.474	2.490	2.389	2.085	2.198	1.961	1.677	1.740	1.730	1.563	1.462	1.263	1.369	1.329	1.189	1.232	1.210	0.945	0.989	0.932	0.870	0.871	0.850	0.746	0.650	0.807	0.633	0.739	0.751	0.958	0.848	0.628	0.661	0.549	0.626	0.607	0.495	0.583	0.560	0.705	0.840	0.730	0.556	0.407	0.461	0.370	0.425	0.522
630.0	41.29	40.47	41.15	31.77	24.77	23.71	25.95	30.28	33.47	39.50	44.20	51.74	67.87	57.88	31.61	20.26	18.62	38.88	408.2	267.6	9.003	2.895	2.758	2.912	2.301	2.376	2.291	2.376	2.153	2.162	2.217	2.029	1.778	1.850	1.635	1.379	1.340	1.367	1.244	1.153	1.154	1.199	1.114	1.054	1.024	1.019	0.784	0.884	0.783	0.727	0.727	0.680	0.684	0.644	0.614	0.638	0.632	0.601	0.676	0.721	0.724	0.663	0.533	0.551	0.510	0.524	0.553	0.532	0.561	0.638	0.662	0.576	0.438	0.412	0.364	0.367	0.398
635.0	40.29	45.80	38.90	34.16	26.27	22.14	25.99	30.67	32.25	38.28	43.78	49.33	54.13	65.26	37.06	22.03	18.30	16.89	112.0	428.8	59.81	2.548	2.542	2.798	1.858	1.853	1.876	1.977	2.107	1.598	1.651	1.709	1.283	1.528	1.316	1.224	1.128	1.084	0.983	0.895	0.999	0.872	0.860	0.998	0.796	0.838	0.817	0.724	0.648	0.579	0.560	0.577	0.546	0.485	0.450	0.517	0.526	0.572	0.504	0.531	0.608	0.733	0.576	0.448	0.452	0.505	0.548	0.478	0.532	0.516	0.596	0.636	0.539	0.450	0.343	0.357	0.328
640.0	42.87	43.47	44.64	31.10	26.91	22.19	28.08	26.87	32.66	38.69	43.98	49.26	51.31	63.39	43.96	24.13	18.89	13.12	31.50	304.3	277.0	4.213	2.275	2.250	1.746	1.685	1.728	1.550	1.492	1.397	1.478	1.360	1.320	1.270	1.103	1.039	0.958	0.899	0.844	0.853	0.825	0.800	0.765	0.734	0.712	0.706	0.595	0.674	0.552	0.505	0.490	0.529	0.491	0.403	0.501	0.466	0.446	0.406	0.477	0.522	0.502	0.630	0.622	0.394	0.424	0.459	0.522	0.429	0.531	0.433	0.469	0.534	0.534	0.500	0.365	0.397	0.324
645.0	42.72	55.15	45.61	34.88	27.48	24.26	26.47	27.41	31.62	37.04	45.63	49.59	48.60	54.49	51.50	25.90	19.64	12.05	12.53	122.6	448.4	24.46	2.030	1.937	1.618	1.717	1.465	1.425	1.381	1.249	1.260	1.307	1.251	1.104	1.059	0.821	0.819	0.730	0.741	0.734	0.684	0.725	0.659	0.563	0.708	0.670	0.547	0.640	0.516	0.491	0.455	0.419	0.382	0.450	0.491	0.391	0.440	0.392	0.444	0.408	0.460	0.565	0.606	0.450	0.460	0.424	0.482	0.386	0.478	0.447	0.498	0.442	0.502	0.525	0.413	0.372	0.312
650.0	44.53	55.55	57.66	36.32	28.12	24.06	23.87	28.11	30.40	37.00	42.26	48.69	47.16	47.94	53.84	28.43	18.76	12.29	8.824	35.99	416.8	66.56	2.014	2.080	1.565	1.400	1.457	1.388	1.501	1.232	1.093	1.191	1.075	1.021	0.988	0.755	0.776	0.667	0.741	0.735	0.497	0.544	0.685	0.540	0.605	0.534	0.463	0.596	0.521	0.420	0.456	0.428	0.416	0.405	0.492	0.383	0.412	0.332	0.350	0.393	0.414	0.408	0.513	0.454	0.491	0.383	0.480	0.366	0.404	0.423	0.478	0.416	0.557	0.567	0.416	0.374	0.307
