Sample:	'1
File name:	L2025090910Ê¤ÀûÂ·ÇÅ.FD3
Run date:	'16:33:20, 09/09/2025
Operator:	Administrator
Comment:	'

Instrument
Model:	F-2700 FL Spectrophotometer
Serial number:	3064-004
ROM Version:	4J14000 07

Instrument parameters
Measurement type:	3-D scan
Data mode:	Fluorescence
EX  Start WL:	220.0 nm
EX  End WL:	600.0 nm
EX Sampling interval:	5.0 nm
EM  Start WL:	230.0 nm
EM  End WL:	650.0 nm
EM Sampling interval:	5.0 nm
Scan speed:	12000 nm/min
EX Slit:	5.0 nm
EM Slit:	5.0 nm
PMT Voltage:	700 V
Response:	Auto 
Corrected spectra:	Off
Contour interval:	50.000

Peak integration
Integration method:	Rectangular
Sensitivity:	1
Threshold:	1.000

Peaks
No.	ApexEX/EM(nm)	Height(Data)
1	225.0/585.0	44.92
2	225.0/620.0	32.01
3	225.0/635.0	30.40
4	230.0/575.0	44.90
5	230.0/615.0	31.13
6	230.0/625.0	30.14
7	235.0/350.0	752.9
8	235.0/510.0	218.2
9	235.0/605.0	33.50
10	240.0/520.0	226.5
11	240.0/595.0	32.21
12	245.0/265.0	345.6
13	245.0/530.0	210.5
14	245.0/630.0	24.14
15	250.0/545.0	198.9
16	255.0/280.0	653.2
17	255.0/555.0	185.5
18	260.0/285.0	840.8
19	260.0/570.0	160.5
20	265.0/290.0	879.3
21	265.0/580.0	153.9
22	270.0/295.0	 1201
23	270.0/385.0	 1011
24	270.0/590.0	138.3
25	275.0/305.0	 1486
26	275.0/375.0	 1023
27	275.0/605.0	140.1
28	280.0/310.0	 1433
29	280.0/345.0	 1067
30	280.0/360.0	 1042
31	280.0/615.0	115.4
32	285.0/315.0	 1414
33	285.0/335.0	 1066
34	285.0/630.0	93.34
35	290.0/320.0	 1334
36	290.0/645.0	75.74
37	295.0/330.0	 1059
38	300.0/335.0	911.7
39	305.0/340.0	905.0
40	310.0/345.0	773.5
41	315.0/355.0	675.7
42	320.0/360.0	746.4
43	325.0/365.0	723.7
44	335.0/380.0	685.3
45	340.0/385.0	662.0
46	350.0/400.0	574.5
47	355.0/405.0	556.0
48	365.0/420.0	458.7
49	370.0/425.0	431.2
50	380.0/285.0	9.718
51	410.0/475.0	132.7
52	415.0/485.0	113.4
53	430.0/505.0	69.94
54	440.0/515.0	48.46
55	445.0/525.0	42.02
56	450.0/530.0	34.80
57	460.0/340.0	3.912
58	460.0/545.0	23.13
59	505.0/275.0	3.398
60	510.0/280.0	3.842
61	520.0/285.0	4.064
62	520.0/350.0	4.856
63	530.0/290.0	4.263
64	545.0/300.0	6.921
65	550.0/305.0	7.573
66	560.0/310.0	6.890
67	570.0/315.0	7.557
68	575.0/320.0	7.241
69	580.0/325.0	6.886
70	590.0/330.0	5.914

Data points
	220.0	225.0	230.0	235.0	240.0	245.0	250.0	255.0	260.0	265.0	270.0	275.0	280.0	285.0	290.0	295.0	300.0	305.0	310.0	315.0	320.0	325.0	330.0	335.0	340.0	345.0	350.0	355.0	360.0	365.0	370.0	375.0	380.0	385.0	390.0	395.0	400.0	405.0	410.0	415.0	420.0	425.0	430.0	435.0	440.0	445.0	450.0	455.0	460.0	465.0	470.0	475.0	480.0	485.0	490.0	495.0	500.0	505.0	510.0	515.0	520.0	525.0	530.0	535.0	540.0	545.0	550.0	555.0	560.0	565.0	570.0	575.0	580.0	585.0	590.0	595.0	600.0
230.0	33.94	901.0	 5242	 2235	219.9	14.81	10.39	8.304	9.528	7.679	5.970	6.392	5.200	5.573	4.032	3.644	3.017	2.863	2.508	2.153	2.245	2.073	1.671	1.812	1.830	1.549	1.557	1.364	1.359	1.277	1.254	1.321	1.059	1.046	0.796	1.072	1.080	0.958	0.864	0.931	0.910	1.011	1.024	0.948	0.689	0.716	1.969	6.529	9.637	6.982	2.827	0.799	0.544	0.605	0.466	0.426	0.564	0.473	0.567	0.472	0.464	0.542	0.487	0.446	0.450	0.488	0.440	0.473	0.435	0.455	0.369	0.445	0.479	0.423	0.444	0.401	0.430
235.0	75.17	236.4	 2372	 5521	 3725	268.4	10.56	8.464	8.641	6.891	8.545	8.754	4.672	6.309	4.383	3.250	2.883	2.632	2.496	1.947	2.927	2.069	1.511	1.980	1.728	1.811	1.741	1.120	1.645	1.486	1.171	1.019	1.184	1.079	0.960	1.048	0.985	0.731	0.982	0.822	0.683	0.892	0.987	0.940	0.975	0.874	0.924	2.050	4.107	7.134	9.594	8.873	4.305	1.035	0.513	0.453	0.608	0.627	0.681	0.413	0.512	0.516	0.561	0.455	0.401	0.382	0.414	0.593	0.339	0.331	0.486	0.621	0.516	0.425	0.376	0.401	0.388
240.0	72.08	123.1	610.7	 3554	 7397	 2316	98.71	12.00	12.03	10.64	8.893	7.942	5.909	6.030	4.420	4.438	3.056	3.405	3.131	2.545	2.765	2.504	1.808	1.741	1.477	1.975	1.420	1.241	1.541	1.256	1.073	0.986	0.917	1.024	1.018	0.780	0.973	0.875	1.017	0.832	0.687	0.892	0.756	0.830	0.894	1.210	0.880	0.992	1.486	2.597	5.845	12.70	14.37	8.949	3.015	0.635	0.506	0.574	0.514	0.597	0.531	0.496	0.629	0.568	0.460	0.620	0.424	0.451	0.442	0.389	0.437	0.441	0.505	0.381	0.387	0.484	0.435
245.0	48.97	119.7	211.8	992.6	 5179	 5657	800.4	37.85	11.92	11.15	10.25	10.08	6.521	5.969	4.716	5.193	2.931	2.944	2.967	2.628	2.261	2.782	1.957	1.760	1.559	1.681	1.144	1.300	1.270	1.466	1.312	1.214	0.719	1.212	0.977	1.036	0.845	0.929	0.916	0.620	0.871	0.788	0.593	0.822	0.867	1.009	1.296	1.064	0.908	1.169	1.816	5.013	11.46	17.40	14.86	7.593	2.002	0.502	0.420	0.534	0.525	0.643	0.617	0.612	0.391	0.615	0.501	0.460	0.399	0.546	0.631	0.630	0.478	0.541	0.425	0.699	0.483
250.0	29.35	77.52	178.2	333.3	 1386	 3718	 5354	 2601	206.4	14.16	11.60	10.20	7.050	7.040	5.312	5.166	3.465	3.294	3.095	2.367	2.589	2.261	1.962	1.684	1.594	1.554	1.362	1.429	1.169	1.313	1.086	1.208	1.095	1.147	0.977	0.788	0.934	0.949	0.881	0.707	0.920	0.765	0.720	0.827	0.694	0.949	1.048	1.257	1.348	1.153	1.011	1.654	3.325	5.990	10.44	15.73	17.79	14.41	7.586	2.030	0.703	0.647	0.627	0.391	0.595	0.484	0.418	0.593	0.519	0.502	0.542	0.555	0.397	0.465	0.537	0.703	0.536
255.0	25.39	42.24	102.1	276.9	448.2	888.4	 2382	 7372	 3892	256.1	14.18	13.89	8.149	8.440	6.753	5.170	4.270	3.864	2.844	2.864	2.644	2.266	1.687	1.707	1.762	1.914	1.432	1.406	1.344	1.603	1.064	1.332	1.089	1.125	1.144	0.989	0.825	0.855	0.809	0.776	0.870	0.730	0.776	0.817	0.939	0.915	0.717	0.776	0.793	1.169	1.562	1.710	1.499	1.858	3.061	4.220	8.094	18.87	30.24	25.86	10.26	2.091	0.572	0.467	0.594	0.543	0.516	0.583	0.412	0.597	0.701	0.556	0.412	0.402	0.548	0.616	0.466
260.0	29.91	28.79	52.79	180.2	373.0	289.7	599.3	 3939	 8821	 3245	126.3	16.61	10.63	9.522	7.319	6.331	4.032	3.979	2.872	3.165	2.755	2.425	2.212	2.053	1.522	1.877	1.931	1.551	1.393	1.438	1.154	1.086	1.231	1.174	1.002	0.906	0.839	0.851	0.802	1.041	0.907	0.888	0.793	0.839	0.932	0.764	0.599	0.681	0.817	0.783	1.062	1.898	1.899	1.452	1.248	1.476	2.440	5.987	15.76	30.79	38.37	24.80	7.297	1.032	0.510	0.612	0.569	0.677	0.449	0.490	0.447	0.764	0.384	0.327	0.429	0.401	0.540
265.0	42.37	32.05	41.83	75.83	298.0	345.6	191.1	 1059	 5535	 9961	 2453	54.38	15.90	10.91	7.488	5.630	5.831	4.334	3.388	3.180	3.314	3.174	2.350	2.243	1.734	1.656	1.857	1.484	1.818	1.716	1.523	1.274	1.233	0.904	0.934	1.024	1.100	0.925	0.787	0.890	0.758	0.794	0.884	0.975	0.896	0.830	0.826	0.740	0.642	0.797	0.769	1.231	1.773	2.407	1.632	1.053	1.013	1.820	4.226	10.48	25.82	42.18	42.60	19.52	3.309	0.564	0.730	0.655	0.404	0.420	0.545	0.584	0.468	0.512	0.408	0.422	0.489
270.0	56.44	36.07	44.33	42.91	113.8	324.3	386.3	333.1	 1451	 5310	 9977	 5543	163.5	15.52	11.54	7.137	6.635	4.799	4.155	3.398	3.390	2.976	2.542	2.358	2.050	1.851	1.883	1.595	1.515	1.532	1.629	1.292	1.546	1.242	1.034	0.927	1.237	1.126	0.870	0.832	0.821	0.821	0.965	0.942	0.947	0.892	0.773	0.843	0.822	0.702	0.659	0.847	0.888	1.383	2.121	2.351	2.068	1.492	1.502	2.942	6.826	14.19	26.26	38.18	44.29	31.17	16.00	3.373	0.728	0.473	0.589	0.491	0.436	0.527	0.473	0.534	0.484
275.0	76.52	72.02	67.62	49.97	59.88	113.0	408.3	554.2	418.9	 1267	 3866	9999.9	 8583	198.5	17.01	10.11	7.910	5.885	4.269	4.336	3.969	3.158	3.127	2.586	1.765	2.088	2.025	1.476	1.845	1.616	1.328	1.534	5.739	1.120	1.235	1.042	1.143	1.108	1.052	1.068	1.025	0.953	0.994	1.076	1.012	0.926	0.793	0.905	0.773	0.700	0.520	0.664	0.780	0.895	1.032	1.232	2.668	3.398	2.386	1.455	2.106	3.748	6.830	9.675	18.09	41.12	66.91	47.07	21.58	2.295	0.779	0.467	0.594	0.403	0.436	0.498	0.465
280.0	100.0	108.5	97.55	66.03	46.58	57.85	190.8	653.2	486.7	382.5	 1012	 5110	9999.9	 2499	108.8	13.30	9.145	7.500	5.573	4.847	4.010	3.580	3.338	2.502	2.505	2.172	2.115	2.155	1.893	1.479	1.431	1.613	8.636	1.432	1.138	0.939	1.238	1.223	1.188	0.988	1.124	0.993	1.088	1.016	1.212	1.175	1.126	1.109	0.723	0.795	0.713	0.619	0.752	0.698	0.734	0.725	1.551	2.768	3.842	3.191	1.856	1.523	2.392	2.881	5.204	11.91	30.71	61.46	80.33	41.36	10.18	1.052	0.545	0.481	0.582	0.535	0.421
285.0	110.1	131.8	126.2	98.16	53.05	52.75	98.18	379.8	840.8	386.6	382.7	 1406	 6844	9999.9	 1824	48.14	11.73	8.861	6.598	5.717	4.563	3.163	3.666	2.675	2.459	2.273	2.205	2.138	1.719	1.803	1.479	1.493	9.718	1.216	1.175	1.173	1.248	1.194	1.283	1.179	1.172	1.160	0.933	1.178	1.206	1.256	1.140	1.254	1.069	1.002	0.915	0.646	0.819	0.667	0.845	0.825	1.061	1.466	2.355	3.949	4.064	2.578	1.592	1.452	1.946	3.918	8.124	18.66	46.11	78.71	54.77	30.16	4.563	0.676	0.488	0.529	0.561
290.0	162.2	194.0	192.3	145.4	91.60	75.89	90.22	190.9	538.8	879.3	449.3	588.4	 1893	 6094	9999.9	 6110	100.6	12.18	8.708	6.917	5.148	4.221	3.390	3.499	2.492	2.356	2.344	2.146	1.856	1.998	1.682	1.775	5.335	1.279	1.347	1.268	1.166	1.328	1.620	1.356	1.258	1.392	1.382	1.513	1.239	1.515	1.500	1.563	1.252	1.212	0.980	0.966	0.910	0.799	0.886	0.905	1.097	1.041	1.570	1.987	3.053	4.053	4.263	3.077	2.226	2.201	3.266	5.672	12.04	23.74	36.80	59.22	228.0	51.24	20.29	3.999	0.595
295.0	197.9	243.2	253.5	190.9	143.9	115.2	127.6	174.1	300.6	627.8	 1201	689.3	762.3	 1613	 3439	9999.9	 8800	125.6	12.99	7.989	6.549	5.063	3.882	3.861	2.939	3.067	2.646	2.372	2.166	2.176	1.822	1.670	2.570	1.407	1.290	1.573	1.216	1.702	1.466	1.612	1.521	1.317	1.667	1.461	1.450	1.665	1.558	1.530	1.389	1.411	1.027	1.145	1.113	0.941	0.892	1.016	1.215	0.942	1.540	1.500	1.902	2.056	3.240	5.652	5.713	3.458	2.778	3.145	4.415	6.923	9.481	14.30	180.7	48.47	87.33	55.36	27.65
300.0	214.5	260.7	297.2	229.5	166.0	146.4	161.3	211.1	275.9	431.9	 1067	 1310	644.6	680.4	986.3	 4185	9999.9	 6152	83.68	12.08	7.318	6.532	4.488	3.709	3.123	3.056	2.454	2.003	2.567	2.238	1.945	1.408	1.821	1.569	1.121	1.492	1.664	1.625	1.781	1.648	1.515	1.399	1.693	1.373	1.619	1.869	1.917	1.724	1.492	1.411	1.160	1.220	1.301	1.185	0.961	1.299	1.284	1.270	1.406	1.561	1.884	1.931	2.266	3.510	6.050	6.921	5.209	3.133	3.348	3.362	3.981	4.617	42.31	12.88	34.03	71.07	100.4
305.0	224.2	277.7	317.9	286.5	202.2	179.9	201.3	247.3	311.8	420.2	757.7	 1486	 1076	568.1	492.3	 1140	 5647	9999.9	 1191	44.77	10.60	7.226	5.293	4.439	3.673	3.214	2.407	2.742	2.188	2.214	1.901	2.033	1.773	1.451	1.701	1.322	1.976	1.520	1.729	1.718	1.483	1.641	1.658	1.597	1.769	1.761	2.198	1.937	1.618	1.663	1.398	1.459	1.292	1.417	1.241	1.548	1.458	1.460	1.623	1.700	1.918	2.012	2.296	2.826	3.957	5.618	7.573	5.894	4.282	2.853	3.111	2.699	10.98	4.252	8.730	20.06	49.25
310.0	222.5	298.8	341.1	299.8	228.1	213.1	240.9	293.4	364.8	472.2	662.7	 1014	 1433	 1015	498.1	473.6	 1467	 5131	 9246	 4802	73.79	11.04	7.070	5.359	4.459	3.491	3.036	2.751	2.293	2.447	1.964	2.108	1.691	1.810	1.548	1.424	1.692	1.677	1.619	2.004	1.655	1.578	1.744	1.692	1.983	1.754	1.985	1.851	1.892	1.727	1.406	1.583	1.560	1.588	1.340	1.404	1.725	1.658	1.665	1.984	2.062	2.237	2.405	2.771	3.142	4.002	5.182	5.605	6.890	5.910	3.983	2.861	4.157	2.588	3.371	5.740	12.36
315.0	249.7	316.1	380.0	343.2	258.5	230.1	279.8	332.2	412.7	531.7	678.6	875.9	 1057	 1414	887.8	416.8	525.5	 1277	 2851	9999.9	 6977	98.14	10.84	7.406	5.133	4.002	3.207	3.375	2.690	2.572	2.220	2.037	1.907	2.076	1.507	1.507	1.629	1.589	1.616	1.921	1.750	1.551	1.743	1.572	1.627	1.943	1.973	1.760	2.110	1.579	1.346	1.729	1.660	1.609	1.479	1.429	1.809	1.837	1.884	2.388	2.165	2.503	2.588	3.098	3.379	3.502	4.205	4.327	4.770	6.161	7.557	5.031	3.557	2.465	2.454	2.966	4.301
320.0	296.8	365.7	479.3	400.4	302.9	253.9	306.2	357.9	459.5	587.6	721.0	863.6	957.6	 1156	 1334	592.3	370.8	453.0	753.1	 3770	9999.9	 5129	63.80	9.949	6.285	5.334	3.572	3.592	2.867	2.943	2.208	2.030	1.851	1.858	1.765	1.146	1.806	1.787	1.964	1.819	1.735	1.761	1.726	1.697	1.878	2.129	2.268	2.402	2.418	1.733	1.600	1.615	1.651	1.655	1.815	1.764	1.823	2.110	1.887	2.422	2.472	2.597	2.961	3.153	3.619	3.552	3.810	3.855	4.414	4.936	6.112	7.241	6.489	4.112	2.490	2.570	2.565
325.0	345.3	444.4	587.8	532.0	368.4	288.3	335.4	387.9	484.5	626.5	785.7	924.3	992.5	 1023	 1266	 1011	427.5	305.8	303.9	963.7	 5325	9999.9	901.2	36.75	8.299	6.113	4.541	3.603	3.296	3.084	2.735	1.825	1.869	1.911	1.792	1.337	1.879	1.879	1.696	1.910	1.694	1.684	2.107	1.796	1.967	1.889	2.684	2.908	2.679	2.388	2.146	1.902	1.771	1.313	1.679	1.783	1.945	1.988	1.837	2.332	2.418	2.536	2.978	3.453	3.567	3.759	4.255	4.095	4.606	4.769	5.076	5.499	6.886	6.470	4.725	2.989	2.517
330.0	370.2	477.9	676.0	642.5	453.4	335.0	353.6	419.5	520.0	651.0	818.1	948.0	 1035	 1027	994.2	 1059	810.5	383.0	249.0	342.0	 1327	 4702	 9119	 3712	57.36	9.238	5.747	4.315	3.786	3.401	2.866	2.292	1.946	1.863	1.816	1.483	1.761	1.854	1.790	2.020	1.524	1.712	2.009	1.885	1.950	2.446	2.588	2.938	3.143	2.868	2.562	2.352	1.984	1.761	1.917	1.726	1.991	1.981	2.329	2.500	2.493	2.669	3.067	3.690	3.554	3.767	4.283	4.395	4.689	4.650	4.536	4.867	5.023	5.140	5.914	5.557	4.273
335.0	350.9	521.8	719.8	709.1	518.0	410.0	395.3	450.6	557.8	685.8	848.5	985.0	 1050	 1066	940.0	829.2	911.7	738.2	322.2	254.5	422.2	 1143	 2831	 9729	 5573	78.83	9.287	6.432	4.401	3.897	2.973	2.877	2.351	2.036	1.921	1.917	1.973	1.859	1.802	1.940	1.696	1.705	1.895	2.322	1.843	2.399	2.980	3.098	3.301	2.899	2.749	2.405	2.446	2.172	1.747	1.998	2.166	2.287	2.343	2.384	2.710	2.749	2.969	3.629	3.774	3.792	4.564	4.204	4.538	4.750	4.711	4.752	4.443	4.785	4.437	4.455	5.837
340.0	341.6	504.5	727.5	746.8	557.7	465.7	467.4	486.2	573.8	697.3	859.5	995.5	 1062	 1056	948.4	801.4	741.6	905.0	512.4	270.9	249.8	370.4	725.0	 3815	9999.9	 4223	54.50	8.479	6.047	4.053	4.450	3.202	2.706	2.077	2.104	1.951	2.052	1.818	1.875	1.684	1.887	1.857	2.110	2.212	1.832	2.740	2.658	3.400	3.912	3.304	2.796	2.751	2.810	2.176	2.265	2.211	2.196	2.273	2.435	2.736	3.090	2.955	3.040	3.830	3.980	4.339	4.409	4.194	4.484	4.645	4.703	5.010	4.671	4.295	4.451	3.873	4.408
345.0	301.6	490.7	740.1	749.5	598.0	507.7	503.3	502.9	594.1	717.5	863.2	972.9	 1067	 1048	949.3	802.4	667.5	757.2	773.5	375.9	248.1	231.0	268.4	962.1	 5298	9999.9	743.8	32.01	7.489	5.176	4.732	3.391	2.885	2.532	2.139	1.843	2.063	1.978	2.022	1.844	1.770	1.919	2.113	1.855	2.128	2.148	2.796	3.264	3.605	3.260	2.886	2.834	2.965	2.455	2.135	2.118	2.324	2.420	2.365	2.804	3.976	3.068	3.723	3.670	4.236	3.983	4.348	4.225	4.743	5.026	4.486	4.431	4.463	4.037	4.074	3.850	3.631
350.0	307.0	455.4	666.1	752.9	668.8	582.2	569.4	585.1	660.8	746.9	875.0	955.1	 1028	 1034	957.4	832.4	688.9	632.3	710.1	662.0	370.1	254.6	215.2	331.4	 1322	 4824	 8259	 3132	50.53	8.162	5.550	3.919	3.152	2.845	2.204	1.741	2.052	1.932	1.890	1.966	1.830	1.851	1.855	1.898	2.123	2.338	2.571	3.071	3.347	3.042	2.564	3.012	2.900	2.680	2.294	2.449	2.677	2.591	2.968	3.011	4.856	3.313	3.661	3.726	3.608	4.258	4.135	4.539	4.497	4.694	4.915	4.251	4.328	4.290	4.002	4.269	3.968
355.0	303.0	422.1	644.8	738.9	699.7	693.0	675.2	666.7	745.0	808.5	898.1	966.1	 1040	 1018	967.5	855.1	731.4	639.9	592.7	675.7	668.5	365.0	257.9	240.9	416.3	 1162	 2784	 9064	 4722	68.78	7.146	5.252	3.708	3.073	2.723	1.849	2.128	2.163	1.856	2.011	1.654	1.794	1.875	1.950	1.873	2.507	2.704	2.998	3.155	2.993	2.579	3.137	3.334	2.839	3.010	2.603	2.811	2.821	3.073	3.616	4.380	3.434	4.251	3.842	3.871	4.256	4.549	4.403	4.777	4.855	4.717	4.340	4.721	4.277	4.563	4.470	3.877
360.0	287.5	420.7	627.2	736.6	721.1	738.9	736.9	738.4	787.9	869.2	931.2	990.2	 1042	 1028	973.0	892.3	756.9	668.7	600.8	592.1	746.4	557.4	317.6	253.5	243.6	371.1	710.5	 3869	9999.9	 3575	45.05	7.218	3.972	3.382	3.026	2.519	2.024	2.259	1.986	1.903	1.725	1.989	2.002	1.861	2.184	2.648	2.386	2.782	3.022	3.060	2.707	3.161	3.186	2.894	3.092	3.005	3.499	3.340	3.278	3.513	3.773	3.928	4.031	4.420	4.004	4.418	4.631	4.269	4.491	4.557	4.741	4.560	4.791	4.879	4.512	4.515	4.532
365.0	262.6	409.9	612.5	717.9	768.1	770.8	805.8	801.8	832.7	895.5	949.0	 1018	 1021	 1026	992.6	895.5	791.8	703.5	626.7	580.6	659.1	723.7	440.4	291.9	243.6	221.5	258.2	976.1	 5518	9999.9	661.6	24.94	5.528	3.978	3.090	2.600	2.267	2.281	1.785	2.062	1.982	2.097	2.423	1.991	2.045	2.363	2.306	2.938	2.710	2.769	2.403	3.089	3.032	3.081	3.160	3.206	3.494	3.435	3.728	3.919	3.836	4.189	4.061	4.120	4.173	4.112	4.666	4.165	4.363	4.988	4.618	4.389	4.865	4.633	4.500	4.795	4.282
370.0	259.4	383.1	557.5	699.9	762.2	792.5	833.5	845.6	875.3	932.4	984.3	 1016	 1016	 1022	986.1	904.5	817.6	740.5	677.8	619.8	601.5	662.6	652.0	426.2	295.5	232.2	194.0	314.5	 1375	 4949	 7662	 2747	41.78	6.388	4.303	2.957	2.681	2.353	1.997	1.809	2.055	2.047	1.961	2.163	2.245	2.202	2.245	2.720	2.569	2.843	2.724	3.157	3.382	3.477	3.438	3.161	3.875	3.785	3.725	4.051	4.071	3.887	4.190	4.274	4.359	4.267	4.184	4.183	4.695	4.871	4.669	4.725	4.815	4.673	4.340	4.658	4.339
375.0	279.8	369.9	566.0	668.0	771.8	837.6	864.6	879.2	898.2	965.2	997.3	 1023	 1014	 1004	972.7	891.1	830.4	783.3	716.9	668.3	621.3	598.5	647.1	651.2	397.0	286.8	223.8	205.1	394.8	 1171	 2827	 8662	 3892	53.07	6.457	4.274	3.285	2.775	2.476	2.270	1.951	2.150	1.706	1.764	2.039	2.015	2.501	2.466	2.752	2.481	2.597	3.060	3.290	3.591	3.708	3.645	3.737	3.604	3.939	4.297	3.873	4.101	4.252	4.280	4.758	4.072	4.348	4.299	5.151	4.555	4.971	4.934	5.095	5.273	4.347	4.800	5.052
380.0	240.5	343.5	547.1	665.2	743.4	830.4	881.5	883.1	935.0	973.9	998.2	 1010	 1007	998.4	966.9	894.6	830.5	777.9	737.0	695.9	651.0	602.7	589.5	685.3	555.3	345.0	262.0	207.4	206.5	341.5	705.3	 3998	 9058	 2709	32.57	5.801	3.773	3.644	2.665	2.279	1.982	2.267	1.947	1.876	2.085	2.324	2.580	2.633	2.416	2.498	2.332	3.451	3.485	3.456	3.478	3.563	3.662	3.683	4.191	4.086	3.952	4.080	4.317	4.158	4.686	3.886	4.514	4.700	4.580	4.618	5.129	4.589	5.060	4.865	4.606	4.455	5.333
385.0	229.7	348.0	517.8	675.9	770.7	841.7	887.2	890.0	912.4	953.9	 1011	 1008	 1003	965.8	948.6	877.6	814.6	787.5	748.1	716.0	668.5	619.3	581.4	608.8	662.0	444.3	305.5	238.8	186.6	178.2	228.3	 1004	 5265	 8162	508.0	15.71	5.121	3.473	2.872	2.428	2.433	2.355	1.989	1.959	2.052	2.258	2.210	2.911	2.359	2.540	2.522	3.214	3.179	3.756	3.438	3.667	3.787	3.574	4.016	3.902	3.901	3.824	4.684	4.008	4.374	3.898	4.288	4.724	4.690	4.504	4.434	4.655	4.813	4.548	4.545	4.411	4.554
390.0	234.9	347.6	509.2	659.6	750.4	837.1	899.9	903.8	920.1	939.0	976.9	981.9	960.4	934.6	911.9	862.7	814.5	782.5	755.1	721.2	680.9	643.4	598.4	573.6	602.6	589.5	415.3	283.1	216.4	175.0	149.7	293.1	 1325	 4373	 5126	 2047	32.01	5.183	3.524	2.960	2.352	2.363	1.935	1.999	2.150	2.421	2.367	2.367	2.234	2.298	2.423	3.204	3.393	3.519	3.429	3.568	3.936	3.845	3.901	3.784	3.667	3.703	4.058	4.249	4.271	4.029	4.198	4.681	4.256	4.193	4.335	4.562	4.743	4.474	4.613	4.610	4.745
395.0	246.7	332.5	454.8	632.1	713.1	810.5	890.9	881.4	912.9	924.3	957.1	943.7	942.8	923.7	873.1	829.5	809.2	770.0	735.7	719.0	687.4	651.0	612.8	582.1	544.8	566.7	564.6	370.1	263.2	210.8	161.5	156.6	357.5	 1022	 2185	 6795	 2961	42.07	5.636	3.586	3.596	2.431	2.661	2.277	2.196	2.445	2.233	2.206	2.504	2.308	2.657	3.025	3.116	3.332	3.609	3.482	4.035	3.709	3.885	3.456	3.986	4.124	3.717	4.003	4.522	4.068	3.835	4.340	4.604	4.039	4.259	4.281	4.090	4.599	4.573	4.625	4.802
400.0	255.0	329.3	448.3	604.0	708.1	800.9	887.3	855.0	895.9	912.1	923.8	932.1	939.4	894.0	854.5	804.6	789.9	758.0	737.9	722.5	695.8	655.7	624.5	590.2	540.8	528.0	574.5	481.5	309.0	239.5	184.6	145.9	154.8	280.9	546.2	 3340	 6931	 2014	25.67	4.659	4.209	2.985	2.589	2.113	2.221	2.601	2.290	2.372	2.494	2.224	2.532	2.743	3.159	3.215	3.377	3.067	3.845	3.785	3.923	3.950	3.882	3.858	3.969	4.153	4.485	3.950	4.067	3.986	4.372	4.011	4.024	3.798	3.986	4.315	4.298	4.199	4.749
405.0	254.7	326.3	442.9	552.9	693.2	765.5	866.0	862.7	883.2	894.3	901.6	897.4	895.4	865.5	845.2	790.2	758.3	732.5	726.7	711.1	680.5	653.7	626.9	588.0	551.8	511.7	517.0	556.0	395.1	270.2	209.3	161.3	125.6	126.3	166.7	844.9	 4267	 6200	423.2	11.35	4.593	3.312	2.826	2.459	2.176	2.372	2.507	2.422	2.259	2.233	2.229	2.848	3.174	2.726	2.808	3.384	3.950	4.121	4.203	3.948	3.595	3.802	3.775	3.779	3.816	3.600	4.155	3.939	3.933	4.043	3.781	3.618	4.361	4.249	4.182	4.206	4.910
410.0	229.5	305.2	433.6	586.1	659.7	739.4	813.7	832.0	874.6	878.6	881.3	856.8	851.4	815.8	798.4	763.8	731.0	708.6	695.6	682.5	670.4	644.7	618.9	593.2	555.0	521.9	489.0	502.8	494.1	354.6	246.7	188.3	141.2	110.5	95.57	228.3	 1074	 3440	 4259	 1613	27.04	4.323	3.293	2.866	2.368	2.410	2.289	2.304	2.343	2.197	2.200	2.856	3.068	2.994	3.205	3.294	3.559	3.899	4.144	3.530	3.349	3.538	3.643	3.942	3.703	3.741	4.039	3.686	4.067	3.806	3.784	4.018	3.922	4.373	4.220	4.013	4.174
415.0	217.3	294.9	444.8	536.8	638.5	695.2	779.2	807.5	838.9	854.1	876.3	825.2	824.4	796.2	773.8	722.3	697.8	683.1	668.1	659.0	651.2	631.7	613.9	580.3	556.2	523.7	485.4	455.0	466.3	457.3	313.4	215.2	163.4	122.0	92.07	101.3	274.5	796.4	 1826	 5231	 2359	36.67	4.254	3.382	2.540	2.610	2.611	2.238	2.385	1.956	2.337	2.914	2.841	2.974	2.815	3.201	3.546	3.598	3.686	3.814	3.463	3.701	3.856	3.667	3.582	3.762	4.031	3.885	3.938	4.415	3.564	3.681	3.741	3.883	4.329	4.164	4.015
420.0	215.1	290.8	398.1	507.0	610.5	684.4	754.0	782.6	849.4	849.6	836.1	795.7	780.0	774.4	738.5	687.2	667.9	649.3	647.8	638.1	619.6	609.7	585.7	567.2	544.0	519.1	479.6	450.9	423.7	458.7	389.7	248.9	179.3	137.3	102.2	82.78	102.5	207.0	448.5	 2591	 5349	457.0	20.60	4.078	3.334	2.801	2.479	2.265	2.168	2.196	2.334	2.473	3.025	2.889	2.715	3.183	3.606	3.498	3.598	3.876	3.890	3.495	3.748	3.500	3.268	3.495	3.740	3.917	3.868	3.801	3.751	3.619	3.939	4.090	3.499	4.155	4.029
425.0	203.9	275.0	408.3	501.4	606.1	641.4	732.9	770.7	808.6	847.4	829.3	805.1	762.6	741.2	710.9	664.6	648.1	631.0	618.1	612.4	589.9	589.2	574.7	556.5	545.4	522.3	485.1	450.0	414.3	415.2	431.2	302.6	197.0	148.9	112.4	85.53	70.58	81.11	126.5	655.2	 3311	 3707	373.7	8.951	3.816	3.529	2.476	2.563	2.217	2.151	1.960	2.654	2.657	2.679	2.988	3.035	3.327	3.683	3.122	3.795	3.936	3.618	3.789	3.725	3.178	3.450	3.714	3.864	3.234	3.381	3.692	3.570	3.942	3.701	3.693	3.819	3.484
430.0	526.0	271.5	372.4	474.1	575.0	625.5	704.3	751.4	788.8	806.0	801.3	787.3	728.4	716.7	677.2	627.2	606.3	599.2	584.9	580.6	565.2	558.2	546.1	536.7	523.0	508.3	477.4	452.4	418.5	385.2	388.3	366.4	253.7	171.8	128.9	99.55	76.22	63.26	60.27	171.6	831.4	 2386	 3451	 1381	24.38	4.113	3.139	2.923	2.284	2.313	2.242	2.651	2.647	2.912	2.948	3.015	3.213	3.279	3.374	3.706	3.711	3.569	3.813	3.902	3.276	3.551	3.581	3.679	3.358	3.340	3.512	3.401	3.341	3.410	3.673	3.359	3.374
435.0	 1236	331.3	342.8	459.0	529.8	604.7	667.0	736.1	765.7	797.0	770.1	756.5	711.4	683.8	645.2	601.4	582.4	570.0	555.6	542.6	538.2	534.5	522.6	507.1	501.0	484.1	465.7	448.7	413.2	382.7	351.9	339.9	325.0	215.8	146.7	115.9	87.10	69.82	54.68	69.06	208.4	552.7	 1423	 4236	 2036	32.67	3.940	3.370	2.616	2.637	2.420	2.696	2.514	2.639	2.779	2.949	3.201	3.143	3.261	3.554	3.637	3.008	3.671	3.228	3.235	3.657	3.066	3.645	3.299	3.224	3.414	3.436	3.291	3.152	3.403	3.462	3.376
440.0	 1564	791.4	344.9	463.6	511.7	607.3	651.7	715.3	747.8	778.4	757.4	740.6	690.0	657.3	627.4	585.8	560.5	542.9	532.9	516.4	514.6	500.8	498.1	497.4	484.0	470.8	459.5	438.1	413.7	387.9	346.2	310.4	322.4	271.4	166.0	125.5	98.03	76.25	60.10	50.92	72.18	143.6	347.9	 2100	 4558	414.3	18.01	3.725	3.167	2.617	2.319	2.706	2.496	2.764	2.483	2.879	3.225	3.280	3.458	3.148	3.478	3.376	3.585	3.473	3.422	3.093	3.096	3.354	3.549	3.109	3.291	3.159	3.170	3.012	3.137	3.593	3.366
445.0	 1252	 1603	362.2	421.5	495.8	572.9	621.2	683.5	733.4	750.2	756.2	708.1	680.1	634.8	601.2	549.8	539.8	508.1	507.8	492.3	491.1	487.8	474.2	480.7	461.3	454.3	447.7	428.9	407.3	378.0	341.2	297.5	286.6	289.6	205.4	134.5	105.1	83.27	66.57	51.29	46.24	55.21	96.97	527.6	 2817	 3364	316.6	8.509	3.705	2.802	2.418	2.665	2.472	2.642	2.709	2.980	2.964	3.008	3.243	3.197	3.470	3.053	3.217	3.337	3.175	3.173	3.299	3.057	3.598	2.988	3.125	2.997	2.737	3.092	2.491	3.303	3.617
450.0	560.0	 2101	785.0	389.7	462.2	533.3	605.4	643.2	703.4	715.8	716.8	683.6	650.3	604.3	569.5	520.2	491.6	475.7	468.0	462.4	460.2	450.6	446.1	442.2	436.0	434.8	422.6	409.4	396.0	370.4	334.9	297.7	263.0	254.7	239.0	169.7	118.9	92.99	74.09	57.75	47.73	40.81	44.05	135.8	706.1	 2147	 3055	 1222	20.82	3.585	2.635	2.797	2.475	2.543	2.552	2.682	2.967	2.937	3.037	2.832	3.144	3.286	3.232	3.359	3.395	3.461	3.233	2.977	3.391	3.122	2.878	3.020	2.845	3.298	2.874	2.868	3.204
455.0	239.1	 1304	 1615	619.8	418.4	500.1	569.4	634.6	675.3	675.2	665.2	653.5	606.4	564.4	522.8	482.5	458.8	448.0	429.3	426.4	419.0	413.9	412.8	406.1	403.2	404.6	395.2	383.8	373.0	355.0	325.8	293.4	251.0	226.4	215.5	208.2	142.7	100.1	80.45	65.59	51.94	41.49	36.40	51.34	173.1	494.8	 1240	 3707	 1716	25.25	3.527	3.233	2.727	2.580	2.629	2.684	3.058	2.898	2.959	2.930	2.964	3.113	3.405	3.418	3.115	3.080	3.389	3.175	3.262	2.755	2.857	2.685	2.353	3.159	2.810	2.857	2.898
460.0	167.8	599.6	 2311	 1382	391.6	470.9	528.9	600.1	626.8	634.9	626.2	611.5	573.3	542.8	483.3	454.4	430.5	412.0	403.3	390.0	386.9	382.4	385.1	379.7	375.2	377.6	373.4	362.8	357.1	343.4	314.3	279.5	246.9	215.5	189.4	207.5	173.1	111.5	84.89	70.52	57.14	45.00	36.93	34.02	56.17	125.2	298.3	 1802	 3869	323.0	13.88	3.713	3.095	2.778	2.563	2.562	2.739	2.786	2.826	2.708	3.145	3.187	2.926	3.129	2.845	3.078	2.924	2.865	3.181	2.871	2.859	2.732	2.702	2.793	2.650	2.793	2.837
465.0	140.7	290.3	 1843	 4098	409.6	436.1	490.2	550.4	589.2	617.6	609.3	594.8	545.5	507.6	465.9	424.7	403.4	382.4	376.5	367.6	353.8	362.6	360.3	355.6	353.0	353.0	346.5	340.7	337.0	324.0	302.9	268.4	236.8	206.9	179.6	179.7	180.4	134.5	92.85	74.85	60.98	49.32	40.67	32.46	33.56	44.08	80.29	450.5	 2387	 2608	259.1	7.691	3.522	2.904	2.603	2.446	2.764	2.610	2.813	2.785	3.128	2.755	2.771	3.108	2.953	2.859	2.715	2.827	2.881	2.832	2.535	2.765	2.539	2.345	2.569	2.646	2.662
470.0	145.4	200.2	817.5	 4632	917.8	403.7	454.1	503.4	552.0	568.1	565.6	540.8	502.6	466.7	420.5	391.5	366.9	349.0	340.7	332.8	324.7	328.3	325.4	318.3	323.7	319.1	315.7	316.4	310.1	299.5	282.1	255.2	225.1	200.3	170.0	157.3	155.1	149.0	111.9	80.86	64.60	54.51	43.41	35.65	29.98	28.28	33.42	113.5	594.7	 1691	 2300	992.3	20.13	3.688	2.809	2.661	2.904	2.642	2.690	2.738	2.762	2.659	2.764	2.760	2.460	2.522	2.687	2.529	2.695	2.524	2.264	2.384	2.353	2.340	1.992	2.372	2.683
475.0	134.0	193.5	334.2	 2431	 2937	474.8	409.5	472.7	495.4	512.1	511.7	498.8	458.5	416.7	379.3	353.7	327.3	308.6	296.1	295.8	290.8	283.7	287.9	287.0	282.9	285.4	286.6	282.5	283.2	273.5	259.3	238.4	212.1	185.9	159.3	145.0	130.8	131.5	132.7	92.70	68.32	54.43	45.87	38.14	31.42	26.93	24.48	39.55	144.1	387.8	899.1	 2529	 1181	25.54	3.522	2.828	2.965	2.599	2.277	2.546	2.751	2.399	2.460	2.144	2.331	2.341	2.520	2.528	2.331	2.188	2.243	2.401	2.131	2.107	2.085	2.219	1.994
480.0	125.1	183.8	216.0	971.5	 4089	938.8	387.9	434.2	458.4	485.7	484.2	463.5	427.3	390.3	359.5	329.2	303.9	284.8	282.6	274.3	271.4	257.4	261.2	262.0	260.1	262.9	261.9	261.3	261.0	259.8	242.7	219.5	202.3	178.1	154.8	137.4	123.1	113.1	122.6	108.8	75.54	56.41	48.57	39.94	32.60	28.04	23.30	24.43	44.20	96.76	215.8	 1137	 2632	356.9	14.26	3.059	2.915	2.632	2.576	2.438	2.520	2.582	2.207	2.447	2.313	2.585	2.497	2.327	2.208	2.024	2.286	1.961	2.152	2.020	2.091	1.988	2.049
485.0	122.9	179.4	193.7	396.2	 3409	 2044	386.3	401.2	417.7	449.2	447.7	435.9	411.8	365.2	336.8	303.6	284.7	265.1	255.9	250.5	245.8	243.6	244.3	238.6	235.7	243.5	240.8	242.3	237.4	239.9	223.1	204.7	187.7	168.3	146.1	132.0	116.7	105.1	106.0	113.4	86.53	60.74	49.61	40.31	34.17	29.67	24.90	21.53	23.31	32.00	57.66	281.0	 1555	 2271	278.5	6.570	2.764	2.763	2.764	2.294	2.188	2.316	2.127	2.221	2.399	2.385	2.909	2.220	1.871	1.923	1.948	1.665	1.976	1.792	2.016	1.921	1.899
490.0	95.85	157.9	194.9	264.2	 1358	 2528	 1051	364.0	390.9	422.0	412.4	393.3	360.3	336.7	302.0	274.3	258.7	240.5	233.0	224.3	218.4	217.6	220.6	213.3	215.7	218.4	221.3	218.1	215.9	214.9	204.0	190.3	174.5	155.2	138.9	125.8	110.3	100.4	91.00	94.66	94.12	70.74	49.77	41.39	35.94	30.27	25.84	22.29	19.34	18.58	22.73	71.28	383.3	 1195	 1861	819.8	20.54	2.853	2.598	2.444	2.398	2.133	2.147	2.274	2.048	2.366	2.476	2.158	1.827	1.887	1.961	1.909	1.826	1.775	1.934	1.614	1.704
495.0	89.92	124.2	208.5	222.1	473.1	 1463	 2424	452.1	353.6	366.2	370.4	363.5	334.9	307.6	281.6	253.3	226.1	218.3	208.3	199.3	198.3	194.7	192.1	190.2	187.9	191.1	193.2	198.5	194.5	192.8	182.6	175.5	157.4	142.3	129.6	117.7	103.3	94.60	83.11	76.82	84.51	79.71	59.14	43.58	36.02	31.24	26.15	22.36	20.45	17.15	15.35	24.54	92.44	273.8	704.9	 2120	 1154	26.24	3.076	2.661	2.305	2.144	2.128	2.132	2.004	1.856	2.439	2.178	1.978	1.848	1.713	1.672	1.812	1.776	1.536	1.606	1.606
500.0	72.27	98.52	184.2	210.1	261.1	621.3	 2779	800.1	328.3	341.0	340.8	335.6	302.0	287.0	254.7	226.9	210.4	196.6	190.3	175.3	184.5	176.1	171.6	173.3	172.1	177.8	176.4	178.6	178.7	177.9	168.9	158.6	147.3	128.5	120.1	107.7	96.38	88.71	78.73	70.60	71.16	76.15	67.71	45.68	36.18	31.74	27.15	22.89	20.00	16.85	13.81	14.02	28.21	67.67	167.2	946.0	 2379	371.5	13.89	2.745	2.504	2.367	1.972	2.175	1.903	1.924	2.592	1.640	1.840	1.958	1.766	1.710	1.626	1.639	1.494	1.892	1.697
505.0	74.74	88.56	156.3	212.5	212.2	311.0	 1975	 2092	319.6	311.1	320.7	300.1	278.5	257.8	229.1	209.9	196.0	180.2	169.1	160.7	168.3	158.4	158.4	158.8	157.0	161.0	159.8	162.9	160.6	160.9	153.1	147.3	136.7	123.8	111.0	102.2	91.07	82.91	75.13	67.48	61.61	64.97	69.94	52.02	36.89	30.45	27.44	22.95	19.47	16.72	13.68	12.47	13.69	21.11	42.75	229.7	 1332	 2119	292.4	4.997	2.577	2.116	2.071	2.114	1.944	1.838	2.418	1.615	1.656	1.563	1.492	1.333	1.238	1.395	1.607	1.801	1.531
510.0	69.25	81.37	120.8	218.2	197.6	216.0	785.5	 2619	 1033	286.6	280.7	269.8	249.6	232.0	209.8	186.2	172.5	158.5	149.6	146.4	145.7	138.6	139.3	136.7	137.6	140.1	140.4	142.4	142.9	142.4	136.7	130.6	121.1	108.3	99.56	91.42	83.61	75.61	68.79	61.13	56.09	52.23	56.87	56.53	43.24	30.92	26.69	22.82	19.39	16.13	14.04	12.23	10.47	10.81	15.09	56.08	323.8	 1089	 1653	688.4	19.31	2.620	2.236	2.023	1.732	1.726	2.023	1.553	1.634	1.498	1.382	1.279	1.262	1.444	1.216	1.613	1.532
515.0	60.52	78.84	96.01	164.5	218.8	171.4	317.0	 1419	 2659	386.7	252.2	240.6	218.9	203.6	186.0	166.0	149.6	136.4	133.4	132.6	125.8	122.5	120.1	119.2	119.6	117.8	120.2	121.2	124.6	125.5	120.8	114.6	105.6	95.42	87.68	79.99	73.83	68.83	62.22	55.47	50.63	46.15	43.89	48.27	48.46	35.20	25.66	21.45	19.43	15.61	13.84	12.07	9.580	8.862	8.788	18.16	76.68	247.6	602.9	 1767	397.1	23.65	2.588	2.067	2.094	1.732	2.104	1.524	1.436	1.366	1.164	1.288	1.140	1.213	1.172	1.303	1.041
520.0	51.54	66.88	91.34	135.3	226.5	162.6	202.2	568.5	 3050	 1060	219.6	223.6	196.1	188.9	162.7	147.2	136.2	124.3	120.4	115.6	111.3	107.6	107.7	109.3	106.5	105.5	107.3	110.7	108.5	109.8	109.4	103.7	94.51	83.67	79.39	73.39	67.10	63.27	56.46	50.06	47.06	42.31	39.37	39.69	44.61	39.56	26.42	21.63	18.55	15.66	12.77	12.62	9.927	8.798	7.830	8.938	21.72	59.51	142.3	792.4	 1732	347.3	10.36	1.985	1.775	1.650	1.784	1.349	1.355	1.152	1.330	1.279	1.156	1.135	1.189	1.295	1.186
525.0	48.28	65.74	75.69	112.6	218.0	194.0	169.1	266.6	 2090	 2422	244.2	201.4	178.8	172.2	148.6	138.8	129.4	113.7	107.4	108.0	100.1	98.78	95.88	97.11	95.32	94.20	98.06	100.5	99.63	100.9	97.45	92.45	86.71	76.70	72.57	68.72	63.22	58.58	52.39	45.95	43.28	38.81	34.87	34.03	37.71	42.02	31.57	20.60	17.92	15.42	12.91	11.52	10.86	8.970	7.307	6.937	8.922	17.30	35.37	191.5	 1002	 1596	53.21	3.608	1.969	1.805	1.638	1.451	1.359	1.235	0.981	1.083	1.221	1.129	1.055	1.219	1.253
530.0	49.51	57.07	62.33	91.53	159.9	210.5	149.2	176.2	768.1	 2965	 1076	178.5	162.0	150.8	135.4	123.4	111.0	98.55	95.22	93.44	87.00	85.59	86.27	85.47	84.80	84.77	86.28	86.04	86.55	87.22	85.66	80.28	75.50	68.02	65.43	59.55	56.72	51.89	46.76	41.16	38.18	36.41	32.11	30.46	30.25	33.67	34.80	24.89	17.22	14.44	12.25	10.99	10.11	8.863	7.245	6.651	6.375	7.939	11.90	46.27	244.3	819.8	 1160	489.4	17.14	1.903	1.477	1.444	1.404	1.138	1.152	1.291	1.215	1.191	1.023	1.018	1.080
535.0	50.23	50.73	57.41	77.78	106.1	195.6	167.7	139.4	280.6	 1447	 2994	300.4	144.1	132.5	116.6	107.1	98.71	88.33	82.40	78.94	76.78	76.31	75.12	72.26	74.70	70.91	73.10	72.13	75.85	73.40	73.57	70.09	66.44	61.74	54.53	52.38	48.61	45.32	42.21	38.76	34.73	31.24	28.69	26.48	24.44	25.13	30.07	29.26	19.82	13.78	11.37	10.43	9.257	7.795	7.355	6.697	6.024	5.433	6.640	13.59	57.67	186.0	436.5	 1273	380.8	18.40	1.477	1.700	1.088	1.025	1.252	1.069	1.138	0.926	0.881	0.905	0.961
540.0	50.68	49.99	58.74	65.02	78.84	153.3	186.0	131.8	165.5	512.8	 3257	 1062	132.5	108.3	101.8	93.80	84.35	75.30	71.61	71.51	67.37	67.70	63.76	65.54	65.49	64.93	64.38	64.44	65.58	64.96	64.78	61.23	58.34	53.93	49.35	46.47	42.94	41.21	38.09	33.78	32.07	28.38	26.28	23.56	21.83	19.78	22.89	27.18	22.98	14.85	11.34	10.27	8.369	6.969	6.772	7.180	5.673	5.440	4.839	6.312	15.97	44.18	102.7	583.6	 1264	297.1	5.643	1.547	1.161	0.942	1.167	0.989	0.897	0.784	0.902	0.887	1.190
545.0	48.09	41.47	52.28	60.69	76.00	112.7	198.9	125.2	128.7	221.7	 2051	 2572	151.7	101.3	91.61	82.66	75.14	70.14	65.86	64.08	60.99	57.89	56.32	58.09	57.93	57.56	56.77	57.48	55.41	57.39	56.92	54.08	51.27	47.49	45.62	42.02	38.78	35.51	33.54	30.48	28.10	26.25	23.58	20.39	20.10	18.45	18.77	22.02	23.13	16.94	10.68	9.574	8.241	6.740	6.298	6.655	5.818	5.128	4.080	4.792	6.091	12.44	25.52	141.7	753.9	 1120	50.82	2.625	1.600	1.169	1.101	1.221	1.134	0.931	0.762	0.920	0.970
550.0	41.40	46.36	44.33	59.52	68.60	77.04	156.6	158.4	112.9	132.0	689.7	 3009	961.4	92.57	79.58	68.86	65.37	59.68	56.31	54.32	51.65	47.82	49.65	50.51	46.59	46.37	48.19	48.55	48.54	48.77	47.76	46.47	43.64	41.72	38.28	35.27	32.55	30.14	27.85	27.29	24.51	22.48	20.61	18.24	17.33	15.95	15.51	16.00	18.87	18.63	12.20	8.738	7.490	6.390	5.910	5.494	5.189	5.292	4.168	4.154	4.334	5.323	8.176	33.88	185.7	597.4	803.5	218.7	13.54	1.494	1.211	1.044	0.995	0.799	0.755	0.904	0.815
555.0	37.99	44.26	40.24	52.54	62.59	67.95	101.1	185.5	105.3	97.73	227.7	 1334	 2870	183.4	68.05	57.70	55.34	50.57	46.94	43.09	43.02	42.09	39.61	39.89	39.46	39.92	38.78	40.08	40.39	39.88	38.98	40.48	36.90	33.55	32.44	28.33	26.98	24.21	22.50	21.09	20.10	18.74	17.17	16.36	14.82	13.61	12.60	12.61	12.86	15.68	13.97	9.551	6.481	5.659	5.332	5.180	4.631	4.732	4.491	4.043	3.475	3.918	4.088	9.895	43.64	135.7	318.2	834.1	314.8	10.63	1.673	1.211	1.076	0.723	0.636	0.944	0.809
560.0	38.07	45.33	33.48	47.16	52.20	54.64	67.09	158.9	126.7	81.74	120.3	432.6	 3128	834.8	58.61	48.54	45.41	42.92	41.33	37.66	36.00	36.19	33.34	34.97	34.96	32.07	32.15	34.63	34.36	34.44	33.89	32.78	29.64	28.72	27.39	25.33	23.41	21.79	20.51	19.38	16.61	16.24	15.18	14.21	12.32	12.08	11.02	10.98	10.41	11.89	13.43	10.48	6.475	5.416	5.025	4.658	4.435	3.826	4.302	4.061	3.299	3.229	3.165	4.415	12.11	32.64	76.12	404.3	804.1	55.87	3.678	1.470	1.033	1.052	0.794	0.892	0.889
565.0	35.23	41.82	37.34	40.67	45.88	45.09	54.29	114.8	151.7	79.01	82.19	160.6	 1854	 2185	69.91	42.94	41.25	36.36	33.86	33.78	30.93	29.34	28.90	29.42	28.84	28.05	27.97	28.90	28.77	30.09	28.35	27.36	26.43	24.89	23.02	21.39	19.39	18.77	17.66	16.77	14.43	13.44	12.80	11.84	11.28	9.814	9.767	9.644	9.000	8.799	11.37	10.92	7.852	5.237	4.316	4.101	3.910	3.968	3.809	3.808	3.575	3.507	3.056	3.160	5.221	9.822	19.40	100.4	512.1	625.9	44.41	1.888	1.059	0.897	0.834	0.778	1.018
570.0	38.29	38.52	39.84	37.64	38.36	40.75	48.07	74.63	160.5	99.70	73.98	95.22	580.7	 2621	711.4	39.02	32.56	30.07	27.83	25.27	25.74	22.88	24.15	24.12	22.89	23.74	23.51	22.96	23.31	24.04	23.30	21.75	20.73	19.89	18.43	17.55	16.14	14.76	14.04	13.37	12.28	11.69	10.89	9.986	9.234	8.468	8.001	7.890	7.227	6.320	7.373	8.992	8.117	5.590	4.077	3.638	3.603	3.474	3.615	3.844	4.110	3.679	3.361	3.231	4.028	4.944	6.802	24.87	128.7	367.9	429.6	162.4	7.266	0.990	0.834	0.832	0.792
575.0	33.61	35.82	44.90	41.67	39.80	36.39	42.46	53.13	108.3	147.1	72.26	72.26	181.2	 1089	 2245	97.85	28.63	24.04	23.64	21.29	20.00	18.30	19.58	18.51	18.01	19.76	19.13	18.01	17.18	17.89	17.46	18.32	16.55	15.64	15.10	14.37	12.90	12.09	11.17	10.39	10.44	9.286	8.448	8.342	7.167	6.916	6.444	6.234	5.880	5.145	4.830	6.163	7.906	5.901	4.017	3.350	2.944	3.481	3.156	3.129	3.953	4.057	3.640	3.336	3.496	3.505	4.068	7.993	31.05	84.78	189.9	485.5	56.78	4.441	0.940	0.766	0.648
580.0	35.73	34.18	35.22	38.34	33.02	37.88	35.46	44.60	76.37	153.9	77.03	63.71	85.17	337.1	 2558	565.0	26.01	19.27	19.99	16.45	16.79	15.96	15.70	15.16	17.49	15.46	15.11	14.96	15.30	14.88	14.65	14.69	13.66	12.47	12.24	11.76	10.70	10.22	9.269	9.436	8.477	8.004	7.135	6.848	6.250	5.926	5.352	5.306	4.979	4.514	3.785	4.277	5.860	6.016	4.507	3.252	2.876	2.925	3.279	2.798	3.197	3.848	3.922	3.575	3.800	3.628	3.405	3.813	9.148	20.95	46.40	253.3	420.9	48.34	1.860	0.718	0.524
585.0	31.89	44.92	37.17	35.42	25.55	33.10	33.71	38.68	55.63	141.4	99.85	62.17	59.29	115.8	 1505	 1608	31.87	19.84	17.91	15.79	14.32	14.86	14.15	13.29	14.44	14.68	13.62	12.43	12.31	13.38	13.16	12.76	11.36	11.50	10.35	9.873	9.598	8.719	8.331	7.969	7.158	7.170	5.821	6.156	5.750	5.186	5.002	4.303	4.169	3.877	3.670	3.383	4.062	4.972	4.997	3.725	2.898	2.690	2.842	2.830	3.112	2.960	3.766	3.335	3.208	3.090	2.845	2.996	4.001	6.266	12.03	64.40	298.9	344.6	33.84	0.969	0.963
590.0	31.42	35.96	35.45	32.44	25.73	30.87	30.46	36.50	44.79	95.26	138.3	69.45	58.35	60.56	447.8	 1953	459.9	17.99	14.71	13.40	12.46	11.84	11.56	10.91	11.64	11.50	10.42	10.52	10.53	10.23	10.83	9.762	10.19	9.421	8.429	7.800	7.397	6.944	7.079	6.376	5.813	5.690	5.143	4.958	4.838	4.293	3.987	3.823	3.442	3.504	2.798	2.777	2.920	3.418	4.447	4.066	2.920	2.533	2.575	2.181	2.214	2.371	2.897	3.078	2.983	2.663	2.224	2.432	2.473	2.766	4.051	15.60	76.56	220.1	262.2	88.32	3.752
595.0	34.82	37.10	35.65	26.36	32.21	24.22	28.47	34.98	43.80	54.28	135.5	97.64	57.34	46.67	124.6	805.2	 1588	48.14	12.12	11.84	9.547	10.01	10.59	9.116	9.146	9.724	8.150	9.430	8.801	8.362	8.070	7.812	7.858	7.189	7.070	6.606	6.565	5.773	5.464	5.009	4.877	4.271	4.460	4.204	4.152	3.538	3.107	2.885	2.923	2.916	2.487	2.034	2.046	2.268	3.334	3.549	3.059	2.157	2.115	1.934	2.073	2.055	1.878	2.266	2.834	2.188	1.999	2.042	2.096	1.802	2.055	4.477	17.95	50.12	119.3	282.8	53.46
600.0	27.67	31.46	30.42	33.46	30.36	28.55	27.74	29.14	40.48	45.68	101.6	125.0	55.63	45.19	51.75	238.0	 1793	179.1	11.67	8.652	8.747	8.913	7.915	7.788	8.535	7.938	7.376	7.824	7.874	7.152	6.906	7.429	6.473	6.396	5.917	5.558	5.509	5.174	5.270	4.536	4.296	3.819	3.614	3.543	3.332	2.972	2.750	2.853	2.741	2.354	2.026	2.008	1.807	1.645	2.149	3.451	3.802	2.455	1.889	1.904	1.911	1.564	1.740	2.199	2.255	2.320	2.057	1.753	1.637	1.741	1.430	1.826	4.887	12.00	29.23	158.4	250.4
605.0	30.33	31.26	31.58	33.50	25.32	25.93	25.73	30.72	38.74	36.06	74.31	140.1	62.20	44.34	36.97	74.41	 1054	 1035	16.45	8.133	7.783	7.869	7.348	7.134	6.762	6.203	6.701	6.543	5.740	6.805	6.272	5.474	5.361	5.373	5.388	5.260	4.825	4.319	4.187	3.888	3.550	3.667	3.301	2.863	2.563	2.788	2.478	2.403	2.226	2.056	1.634	1.682	1.256	1.632	1.634	2.470	3.304	2.757	1.921	1.772	1.563	1.419	1.489	1.653	1.794	2.155	2.032	1.615	1.304	1.329	1.235	1.370	1.882	3.798	7.078	40.38	183.4
610.0	27.96	32.24	28.61	31.45	25.86	21.51	24.83	29.53	35.71	38.51	56.10	112.0	92.55	43.69	32.06	33.72	309.0	 1354	308.9	8.172	7.205	6.426	6.044	6.099	5.528	5.469	5.541	5.364	5.251	5.560	5.334	5.018	4.820	4.358	4.304	3.881	3.786	3.593	3.482	3.085	3.003	2.915	2.743	2.240	2.279	2.158	2.269	2.108	1.949	1.565	1.543	1.594	1.485	1.447	1.398	1.700	2.163	2.464	1.956	1.639	1.414	1.291	1.387	1.558	1.428	1.639	1.808	1.449	1.263	1.248	1.092	1.085	1.145	1.395	2.089	9.477	47.06
615.0	26.35	30.32	31.13	28.03	21.66	22.39	21.65	31.47	32.21	37.51	49.47	73.17	115.4	50.35	30.58	23.67	82.59	581.8	 1136	28.94	6.368	5.397	5.143	4.469	4.823	4.443	4.381	4.467	4.522	4.860	4.835	4.008	3.651	3.522	3.293	3.517	3.320	3.240	2.580	2.255	2.503	2.356	2.207	1.872	1.965	1.663	1.857	1.956	1.616	1.311	1.301	1.255	1.147	1.332	1.435	1.247	1.363	1.919	2.068	1.937	1.260	1.251	1.326	1.294	1.345	1.381	1.586	1.207	1.404	1.138	0.948	0.835	0.799	0.958	0.930	2.686	11.02
620.0	24.96	32.01	27.53	24.86	24.92	21.18	21.43	29.41	33.88	36.21	42.65	55.91	107.2	64.31	31.41	23.04	32.15	168.6	 1323	137.4	5.915	4.633	4.864	3.827	4.248	4.357	3.669	3.666	4.110	3.673	3.822	3.274	3.625	3.247	2.839	3.069	2.937	2.629	2.535	2.304	1.990	1.913	1.847	1.802	1.776	1.613	1.626	1.735	1.436	1.238	1.150	1.141	1.287	0.920	1.207	1.060	1.143	1.573	1.663	1.523	1.392	1.255	1.268	1.279	1.031	1.260	1.369	1.119	1.334	1.278	0.910	0.782	0.636	0.641	0.750	1.143	2.878
625.0	25.10	27.73	30.14	26.66	26.65	21.35	26.71	25.86	31.33	37.70	44.69	50.11	86.51	87.10	32.00	21.89	19.06	49.36	798.2	736.9	8.569	4.487	4.106	3.942	3.665	3.065	3.388	3.462	3.193	3.193	3.175	3.192	3.182	2.875	2.519	2.567	2.330	2.329	2.068	2.010	1.914	1.697	1.496	1.667	1.795	1.389	1.537	1.467	1.315	0.987	0.989	1.118	0.887	0.970	1.023	1.046	0.896	1.222	1.549	1.830	1.396	1.156	1.035	1.149	0.986	0.912	1.159	1.142	1.312	1.222	0.972	0.796	0.735	0.770	0.670	0.606	1.051
630.0	23.88	28.20	29.80	28.57	22.38	24.14	22.35	25.67	32.02	36.12	41.87	45.28	59.83	93.34	42.84	22.72	17.01	20.19	235.4	 1025	210.7	4.270	3.864	3.736	3.119	2.754	2.970	2.854	2.840	2.538	2.670	2.604	2.381	2.598	2.425	2.102	2.048	1.911	1.723	1.710	1.453	1.603	1.294	1.485	1.274	1.152	1.175	1.166	1.191	1.055	0.924	0.906	0.833	0.956	0.732	0.887	0.898	0.909	1.125	1.541	1.482	1.236	0.925	1.094	1.082	0.915	1.045	0.809	1.178	1.137	1.407	0.809	0.846	0.614	0.586	0.528	0.783
635.0	22.87	30.40	28.31	21.76	23.50	19.46	19.95	22.71	30.46	31.91	42.40	44.93	49.97	75.88	61.66	21.76	15.78	14.31	59.49	455.7	816.7	16.66	3.945	3.341	2.519	2.511	2.289	2.788	2.609	1.978	1.929	2.180	2.196	2.126	2.029	1.786	1.479	1.780	1.473	1.621	1.478	1.476	1.220	1.312	1.073	1.051	0.987	0.936	0.930	0.875	0.742	0.724	0.793	0.700	0.679	0.803	0.635	0.726	0.948	1.177	1.399	1.189	0.826	1.009	0.710	0.771	0.846	0.867	0.915	0.984	1.258	1.275	0.802	0.610	0.627	0.655	0.593
640.0	21.64	24.09	25.39	22.72	22.02	17.43	20.68	24.97	32.51	31.42	36.92	44.31	45.79	58.41	73.94	26.59	15.43	13.53	19.94	133.5	991.8	104.9	3.759	2.650	2.426	2.184	2.164	2.579	1.658	2.148	2.061	1.818	2.040	2.129	2.092	1.527	1.450	1.376	1.224	1.219	1.422	1.249	1.150	1.072	0.948	1.301	0.931	0.976	0.887	0.886	0.606	0.807	0.709	0.774	0.796	0.630	0.759	0.747	0.698	0.812	1.152	1.088	1.042	0.998	0.813	0.829	0.961	0.800	0.919	0.796	0.910	0.975	0.883	0.565	0.662	0.555	0.792
645.0	34.13	26.36	29.26	25.23	19.96	19.75	22.03	22.55	27.35	34.91	35.68	45.67	43.01	47.85	75.74	36.35	17.90	13.76	11.91	36.49	637.2	515.6	4.918	2.589	2.583	2.283	2.258	2.182	1.954	2.137	1.737	1.916	1.743	1.440	1.635	1.364	1.430	1.296	1.143	1.096	1.146	0.953	1.188	1.315	1.112	0.899	1.010	0.984	1.022	0.699	0.563	0.655	0.771	0.749	0.709	0.668	0.552	0.674	0.539	0.605	0.904	1.107	1.141	0.903	0.803	0.767	0.969	0.780	0.765	0.744	0.825	0.826	0.859	0.723	0.486	0.651	0.686
650.0	43.16	26.91	35.19	31.39	23.08	23.33	19.18	21.12	29.04	34.40	37.98	46.17	44.74	44.82	64.10	50.13	18.19	14.16	9.829	14.67	235.2	852.9	36.79	2.859	2.358	2.141	2.005	2.102	2.147	2.096	1.721	1.792	1.686	1.508	1.388	1.466	1.540	1.277	1.329	1.024	1.021	0.825	0.912	1.065	0.920	0.712	0.794	0.894	0.847	0.601	0.461	0.681	0.640	0.705	0.709	0.570	0.618	0.701	0.539	0.590	0.723	0.826	0.836	0.960	0.763	0.795	0.804	0.658	0.641	0.704	0.702	0.576	0.862	0.830	0.617	0.534	0.654
