Sample:	'1
File name:	w111208¶«Íõ¹«Ä¼.FD3
Run date:	'13:54:37, 11/12/2024
Operator:	Administrator
Comment:	'

Instrument
Model:	F-2700 FL Spectrophotometer
Serial number:	23B8-004
ROM Version:	4J14000 07

Instrument parameters
Measurement type:	3-D scan
Data mode:	Fluorescence
EX  Start WL:	220.0 nm
EX  End WL:	600.0 nm
EX Sampling interval:	5.0 nm
EM  Start WL:	230.0 nm
EM  End WL:	650.0 nm
EM Sampling interval:	5.0 nm
Scan speed:	12000 nm/min
EX Slit:	5.0 nm
EM Slit:	5.0 nm
PMT Voltage:	700 V
Response:	Auto 
Corrected spectra:	Off
Contour interval:	50.000

Peak integration
Integration method:	Rectangular
Sensitivity:	1
Threshold:	1.000

Peaks
No.	ApexEX/EM(nm)	Height(Data)
1	230.0/345.0	5714
2	230.0/605.0	93.84
3	230.0/630.0	84.59
4	255.0/285.0	476.1
5	265.0/585.0	185.0
6	275.0/420.0	7045
7	275.0/615.0	194.4
8	275.0/640.0	155.5
9	280.0/340.0	4472
10	280.0/625.0	172.0
11	335.0/415.0	5112
12	475.0/350.0	17.05
13	565.0/345.0	20.42
14	565.0/415.0	24.60
15	570.0/340.0	20.19

Data points
	220.0	225.0	230.0	235.0	240.0	245.0	250.0	255.0	260.0	265.0	270.0	275.0	280.0	285.0	290.0	295.0	300.0	305.0	310.0	315.0	320.0	325.0	330.0	335.0	340.0	345.0	350.0	355.0	360.0	365.0	370.0	375.0	380.0	385.0	390.0	395.0	400.0	405.0	410.0	415.0	420.0	425.0	430.0	435.0	440.0	445.0	450.0	455.0	460.0	465.0	470.0	475.0	480.0	485.0	490.0	495.0	500.0	505.0	510.0	515.0	520.0	525.0	530.0	535.0	540.0	545.0	550.0	555.0	560.0	565.0	570.0	575.0	580.0	585.0	590.0	595.0	600.0
230.0	66.39	2309	5429	1783	82.20	14.93	11.51	10.88	9.981	9.307	9.033	8.483	7.924	7.082	6.090	5.150	4.461	4.075	3.758	3.657	3.472	3.298	3.086	2.986	2.873	2.662	2.647	2.315	2.360	2.236	2.038	1.869	1.737	1.516	1.236	1.193	1.041	1.039	0.922	0.841	0.763	0.802	0.727	0.690	0.662	0.666	2.804	11.08	17.88	11.96	4.555	1.100	0.531	0.482	0.457	0.451	0.433	0.465	0.479	0.418	0.363	0.401	0.394	0.393	0.396	0.391	0.385	0.345	0.377	0.360	0.383	0.361	0.351	0.363	0.336	0.354	0.365
235.0	79.96	618.3	4120	6726	2431	146.0	14.84	12.85	10.17	10.59	9.610	8.799	8.227	7.369	6.928	5.296	5.104	4.374	3.971	3.639	3.560	3.221	3.218	2.787	2.857	2.751	2.551	2.400	2.341	2.359	2.088	1.978	1.618	1.632	1.361	1.271	1.059	1.011	0.917	0.904	0.772	0.754	0.778	0.801	0.799	0.621	1.106	3.223	7.955	16.05	21.88	20.25	9.930	1.984	0.526	0.463	0.469	0.496	0.505	0.442	0.378	0.381	0.372	0.408	0.370	0.451	0.360	0.390	0.433	0.380	0.375	0.400	0.359	0.416	0.357	0.347	0.345
240.0	88.54	203.4	1261	7753	8692	2047	73.64	16.73	12.98	11.12	10.91	9.675	9.891	8.022	6.672	5.927	5.332	4.770	3.947	3.592	3.988	3.229	3.303	3.096	3.241	2.739	2.580	2.556	2.335	2.281	2.106	2.032	1.646	1.581	1.338	1.204	1.124	0.924	0.894	0.892	0.781	0.805	0.727	0.853	0.803	0.779	0.757	1.201	2.221	5.267	14.66	34.34	41.32	20.73	8.045	1.186	0.513	0.493	0.539	0.485	0.434	0.418	0.482	0.423	0.398	0.440	0.392	0.393	0.422	0.426	0.414	0.378	0.372	0.385	0.387	0.365	0.369
245.0	78.53	150.8	337.0	2797	9999.9	9030	428.9	30.41	16.07	13.78	12.35	11.41	10.80	8.448	7.096	5.930	5.355	5.222	4.368	4.014	3.909	3.163	3.312	3.282	3.073	2.901	2.582	2.513	2.496	2.286	2.214	2.075	1.808	1.397	1.293	1.262	1.124	1.067	0.965	0.865	0.819	0.864	0.768	0.704	0.770	0.744	0.770	0.951	0.992	1.592	3.863	13.05	34.71	53.89	27.73	18.31	5.594	0.701	0.552	0.540	0.498	0.431	0.478	0.395	0.399	0.424	0.408	0.405	0.445	0.392	0.379	0.397	0.341	0.346	0.352	0.355	0.400
250.0	60.95	114.5	199.9	701.7	3414	9999.9	9999.9	1527	110.1	18.94	15.67	13.02	11.51	9.456	7.812	6.593	6.261	5.012	4.695	4.306	4.006	3.394	3.332	3.584	3.190	3.086	2.688	2.725	2.689	2.339	2.311	2.005	1.807	1.566	1.387	1.267	1.150	1.078	0.942	0.891	0.852	0.879	0.744	0.702	0.729	0.668	0.693	0.788	0.988	0.983	1.349	3.396	8.853	19.21	31.22	51.52	51.42	49.65	14.32	5.665	0.772	0.502	0.520	0.451	0.428	0.474	0.488	0.468	0.386	0.439	0.427	0.387	0.372	0.383	0.404	0.356	0.416
255.0	62.34	66.46	137.4	341.0	830.8	2569	9999.9	9999.9	2200	124.6	23.29	17.21	14.16	11.40	9.742	7.635	6.906	5.536	5.075	4.655	4.463	3.777	3.438	3.545	3.553	3.256	3.132	2.996	3.042	2.666	2.441	2.102	1.961	1.727	1.469	1.361	1.147	1.111	1.023	0.958	0.847	0.779	0.801	0.804	0.755	0.677	0.691	0.673	0.752	0.945	1.276	1.678	2.542	4.768	7.439	12.95	25.72	65.56	101.1	86.76	21.97	6.136	0.645	0.622	0.508	0.546	0.516	0.414	0.428	0.417	0.419	0.437	0.414	0.394	0.450	0.431	0.426
260.0	60.14	53.70	73.00	230.0	354.6	631.6	3178	9999.9	9999.9	1707	74.20	21.26	17.34	13.91	10.63	8.433	7.182	5.848	5.196	4.937	4.823	3.869	3.642	3.779	3.738	3.270	3.363	2.919	2.943	2.625	2.439	2.181	1.810	1.762	1.545	1.346	1.225	1.215	1.044	1.003	0.909	0.814	0.854	0.877	0.859	0.752	0.662	0.647	0.690	0.630	0.975	1.503	1.596	1.808	2.155	3.413	6.496	18.68	51.09	101.8	121.9	30.16	17.31	2.889	0.548	0.566	0.581	0.535	0.494	0.413	0.428	0.457	0.455	0.442	0.412	0.477	0.438
265.0	70.68	55.16	46.99	128.9	290.0	277.0	771.5	4551	9999.9	9999.9	1201	35.48	23.92	16.27	12.19	9.761	8.458	6.335	5.751	5.336	4.843	4.238	3.889	3.813	3.453	3.691	3.450	3.155	2.962	2.800	2.543	2.162	2.091	1.783	1.639	1.387	1.292	1.069	1.062	1.057	0.996	1.020	0.859	0.879	0.838	0.823	0.657	0.634	0.626	0.626	0.645	0.956	1.456	1.838	1.440	1.354	2.064	4.740	12.47	32.33	79.58	128.1	136.4	28.52	11.96	1.219	0.669	0.637	0.514	0.494	0.461	0.566	0.463	0.435	0.392	0.461	0.433
270.0	89.06	65.70	54.20	73.52	154.5	298.9	338.9	1107	4979	9999.9	9999.9	4433	78.24	24.12	17.16	12.61	9.769	7.802	6.858	6.316	5.487	4.872	4.486	4.234	3.794	3.642	3.362	3.185	3.196	3.028	2.662	2.464	2.173	1.830	1.567	1.545	1.270	1.218	1.085	1.103	1.070	0.994	1.000	0.992	0.897	0.834	0.770	0.722	0.670	0.633	0.595	0.683	0.955	1.260	1.593	1.813	1.742	1.940	3.420	7.915	19.34	40.54	78.03	113.0	138.8	105.0	18.03	9.278	1.379	0.701	0.585	0.632	0.523	0.564	0.507	0.516	0.516
275.0	134.0	113.6	106.7	84.73	91.26	178.1	395.8	435.8	1202	3063	9999.9	9999.9	1271	81.99	25.62	18.35	13.11	10.44	8.230	7.454	6.122	5.831	5.070	4.829	4.420	3.843	3.730	3.571	3.464	3.257	2.871	2.601	2.387	2.151	1.834	1.719	1.437	1.299	1.153	1.090	0.992	1.018	1.004	1.094	0.950	0.906	0.914	0.814	0.927	0.745	0.699	0.722	0.764	0.891	1.032	1.356	2.253	2.470	2.340	2.695	4.983	9.933	18.31	27.03	46.42	103.1	178.3	192.3	28.68	11.22	1.222	0.752	0.761	0.609	0.528	0.499	0.588
280.0	174.9	180.2	180.3	136.5	105.9	135.4	307.3	439.7	447.1	843.1	4129	9999.9	9999.9	976.0	51.96	24.13	16.15	12.61	10.26	8.114	7.078	6.054	5.747	5.386	4.717	4.164	3.863	3.783	3.756	3.318	2.847	2.648	2.546	2.445	2.048	1.748	1.646	1.447	1.269	1.206	1.200	1.049	1.030	1.164	1.120	1.167	1.076	1.128	1.125	0.863	0.847	0.891	0.866	0.889	0.929	1.078	1.517	2.088	2.839	2.675	2.231	3.195	5.088	7.221	11.66	27.02	71.07	167.2	214.6	164.1	23.71	5.372	0.961	0.761	0.617	0.594	0.659
285.0	243.9	293.0	276.2	209.7	154.8	149.3	220.4	476.1	386.5	415.2	1204	6446	9999.9	9999.9	647.9	37.97	20.44	15.81	11.39	9.304	8.018	6.767	6.052	5.529	4.915	4.415	4.057	4.082	3.917	3.649	3.397	2.789	2.574	2.352	2.176	1.935	1.630	1.546	1.427	1.252	1.322	1.161	1.033	1.136	1.137	1.289	1.286	1.421	1.307	1.094	1.073	1.032	0.989	1.082	1.070	1.233	1.251	1.553	2.238	3.160	3.097	2.500	2.508	3.026	4.043	7.706	17.58	46.53	107.1	201.1	228.0	32.93	17.29	2.250	0.892	0.702	0.844
290.0	317.6	436.2	455.1	336.7	244.0	228.6	256.6	373.2	608.1	672.6	726.1	1922	6829	9999.9	9999.9	2596	51.18	23.70	16.16	12.53	9.867	8.099	7.188	6.376	5.491	5.001	4.520	4.354	4.107	3.680	3.499	3.086	2.853	2.535	2.289	2.060	1.892	1.792	1.589	1.477	1.458	1.341	1.189	1.307	1.265	1.484	1.530	1.732	1.751	1.511	1.418	1.395	1.446	1.395	1.341	1.419	1.461	1.594	1.826	2.281	2.975	3.509	3.949	3.612	3.390	4.098	6.145	12.73	26.70	55.05	100.6	128.7	179.8	134.1	95.51	12.59	3.211
295.0	432.5	584.2	639.5	495.8	350.9	337.9	354.1	411.9	574.0	960.9	1063	1123	2093	3368	9999.9	9999.9	690.5	55.85	24.68	17.81	12.84	10.65	8.707	7.321	6.650	5.926	5.319	5.080	4.459	4.109	3.464	3.300	3.214	2.881	2.406	2.233	1.902	1.930	1.724	1.574	1.565	1.461	1.325	1.613	1.696	1.622	1.854	2.065	2.179	1.905	1.882	1.929	1.747	1.721	1.620	1.800	1.966	2.027	2.143	2.335	2.687	3.016	3.974	5.442	5.773	5.003	4.965	6.288	9.153	15.32	25.07	31.09	49.64	91.84	205.2	245.1	34.60
300.0	500.2	725.7	804.7	630.3	471.2	444.7	473.8	578.5	727.5	1070	1563	1378	1344	1355	4359	9999.9	9999.9	561.9	43.10	23.58	16.29	12.94	10.28	8.909	7.917	6.233	5.747	5.516	4.988	4.845	4.011	3.887	3.076	3.057	2.531	2.315	2.207	2.087	1.822	1.666	1.569	1.683	1.343	1.666	1.722	1.970	2.102	2.537	2.626	2.307	2.035	2.105	2.295	2.260	2.002	2.226	2.403	2.599	2.785	3.166	3.261	3.692	4.540	5.146	6.964	7.907	6.958	6.228	6.969	7.815	9.410	10.30	14.02	24.19	64.41	155.2	241.6
305.0	549.7	868.9	986.5	776.9	624.1	595.8	722.4	889.1	1131	1513	2017	2270	1544	1297	1750	6615	9999.9	9999.9	406.3	34.31	21.94	15.78	11.89	9.789	8.608	6.965	6.325	6.173	5.321	5.019	4.618	3.812	3.286	3.321	2.803	2.476	2.214	2.408	1.832	1.900	1.646	1.895	1.442	1.917	1.930	2.275	2.502	3.014	3.089	2.681	2.628	2.703	2.656	2.747	2.783	2.971	3.218	3.766	4.202	4.556	4.898	5.338	6.358	7.093	8.164	9.114	10.52	10.53	9.617	8.797	8.364	7.458	8.230	10.03	18.41	40.90	91.89
310.0	670.3	1033	1170	975.9	789.7	807.5	969.9	1203	1499	1955	2421	2843	2572	1868	1529	2258	6574	9999.9	9999.9	1924	42.68	22.65	16.60	12.63	10.74	8.573	7.318	6.897	6.166	5.413	5.035	4.234	3.578	3.552	2.974	2.701	2.497	2.466	2.061	2.083	1.967	1.897	1.711	1.872	2.146	2.576	2.797	3.316	3.610	3.184	3.124	3.297	3.292	3.340	3.447	3.757	4.119	4.915	5.420	5.721	6.330	7.004	8.491	9.352	9.925	10.62	11.73	12.40	12.96	12.29	11.13	9.597	8.712	8.831	9.464	13.99	24.84
315.0	840.5	1256	1414	1172	962.9	985.0	1162	1454	1764	2270	2752	3095	3071	2564	1810	1464	2232	3140	9999.9	9999.9	2828	45.13	24.03	17.79	13.35	10.26	8.919	8.079	7.205	5.842	5.504	5.041	4.270	3.544	3.157	2.823	2.582	2.432	2.120	2.166	2.232	1.957	2.096	2.211	2.529	2.924	3.410	3.917	4.298	3.740	3.609	3.989	4.045	3.981	3.979	4.246	4.904	5.492	6.169	6.638	7.406	8.188	9.180	10.28	11.63	12.03	12.68	13.19	14.28	13.88	14.14	12.91	11.49	10.11	8.990	8.984	10.70
320.0	1038	1678	1797	1395	1132	1107	1304	1623	1994	2538	3088	3433	3356	3055	2277	1529	1411	1190	3679	9999.9	9999.9	440.7	39.75	23.39	17.03	12.22	10.03	8.918	7.626	7.221	6.456	5.168	4.398	3.967	3.131	3.292	2.693	2.616	2.217	2.329	2.272	2.002	2.136	2.570	2.828	3.307	4.061	5.051	5.210	4.551	4.202	4.597	4.561	4.351	4.552	4.639	5.305	6.032	6.840	7.458	8.307	9.631	10.03	11.30	12.89	13.39	14.30	14.73	15.30	14.73	14.79	15.49	14.63	12.57	10.58	8.873	8.833
325.0	1312	2111	2538	1993	1432	1262	1426	1777	2159	2742	3325	3715	3635	3274	2723	1791	1337	833.0	1099	5256	9999.9	9999.9	348.4	34.97	21.43	15.51	11.38	10.05	8.822	7.625	6.790	5.581	4.762	4.259	3.650	3.168	2.755	2.752	2.382	2.568	2.280	2.401	2.489	2.875	3.355	4.111	5.150	6.618	6.826	5.908	5.659	6.175	5.373	4.886	5.026	5.137	5.911	6.911	7.338	8.047	8.824	9.671	11.07	12.02	13.55	14.77	14.84	16.25	16.71	16.58	16.08	15.95	15.71	15.04	12.85	10.76	9.243
330.0	1684	3047	3870	3365	2247	1643	1662	1987	2402	3008	3627	4052	4019	3613	3027	2289	1595	948.3	687.5	1520	5221	9999.9	9999.9	1651	41.88	23.28	15.58	12.77	10.67	9.048	7.375	6.339	5.284	4.711	4.012	3.464	2.953	2.914	2.573	2.612	2.526	2.425	2.632	2.969	3.883	5.361	6.540	9.031	9.836	9.462	9.339	9.920	8.327	7.193	6.523	6.240	6.854	7.301	8.075	9.044	9.848	10.57	12.01	13.61	14.57	16.03	16.41	17.52	18.11	18.16	18.00	17.75	16.88	15.97	14.64	14.04	12.17
335.0	1989	3728	4981	4668	3341	2251	1952	2195	2618	3255	3887	4331	4366	3986	3339	2598	2068	1302	868.3	916.0	1620	2977	9999.9	9999.9	2723	46.37	23.17	17.52	12.81	10.53	8.529	7.427	6.296	5.188	4.306	3.877	3.332	3.255	2.719	2.760	2.613	2.629	2.872	3.504	4.356	6.072	8.059	11.05	12.34	12.20	12.81	14.25	12.16	10.41	8.792	7.842	8.074	8.397	8.881	9.466	10.47	11.18	13.27	14.53	15.71	16.26	17.37	18.83	19.48	19.32	19.53	19.57	18.34	17.29	16.20	15.01	14.36
340.0	2072	4049	5502	5313	3869	2590	2139	2332	2751	3343	3986	4404	4472	4138	3506	2741	2201	1612	1076	913.9	957.4	1159	3585	9999.9	9999.9	400.4	39.55	22.18	16.09	12.38	9.486	8.221	6.583	5.710	4.474	4.176	3.456	3.475	2.971	2.961	2.873	2.688	3.323	3.667	4.958	6.396	8.477	11.70	13.70	13.56	13.80	16.40	14.04	12.10	9.882	8.555	8.607	8.834	9.455	9.741	11.05	11.94	13.42	14.54	15.64	16.86	17.93	19.07	19.69	19.98	20.19	20.16	19.50	18.17	17.00	15.63	14.96
345.0	2188	4060	5714	5644	4028	2719	2222	2386	2760	3337	3940	4361	4423	4143	3558	2813	2213	1787	1312	1032	915.9	858.7	1311	4646	9999.9	9999.9	341.5	32.82	20.19	14.86	11.21	9.159	6.698	5.960	4.891	4.407	3.513	3.598	3.068	2.910	2.837	3.012	3.118	3.694	4.742	6.662	8.711	11.91	14.00	14.40	14.72	16.83	14.90	12.74	10.39	8.982	8.978	9.023	10.04	9.762	11.08	11.99	13.37	14.45	15.82	16.70	17.76	18.31	19.24	20.42	19.93	19.85	19.70	18.60	17.50	16.28	15.15
350.0	2103	3953	5522	5573	4263	2892	2366	2466	2787	3291	3811	4182	4265	4013	3526	2874	2319	1889	1609	1345	1109	973.1	950.7	1533	4681	9999.9	9999.9	6051	38.57	21.74	14.33	10.94	8.283	6.761	5.206	4.479	3.886	3.734	3.105	2.839	2.866	2.846	2.920	3.642	4.488	6.246	8.371	11.32	13.44	13.88	14.73	17.05	15.19	13.51	10.77	9.513	9.346	9.517	9.757	10.39	11.29	12.22	13.61	14.50	15.41	16.15	17.17	17.78	18.69	19.30	19.01	19.31	19.49	18.49	17.56	16.60	16.09
355.0	1886	3593	5192	5298	4292	3045	2493	2566	2819	3225	3665	3986	4049	3866	3460	2931	2457	2061	1808	1695	1446	1213	1060	987.8	1494	2710	9999.9	9999.9	2764	45.20	20.92	14.76	10.45	7.868	5.864	5.092	4.394	3.776	3.418	2.877	2.809	2.891	3.014	3.500	4.335	5.950	7.851	10.28	12.17	12.99	13.97	16.19	14.87	13.49	11.24	10.06	10.16	9.863	10.35	10.77	11.58	12.37	13.08	14.17	15.07	15.77	16.49	17.00	17.71	18.34	18.11	18.39	18.68	18.01	17.04	16.56	16.58
360.0	1791	3247	4797	5030	4150	3058	2575	2620	2870	3225	3578	3830	3879	3732	3384	2950	2552	2215	1993	1880	1751	1477	1246	1013	931.2	982.6	2922	9999.9	9999.9	2372	39.36	20.78	12.92	9.508	6.998	5.635	4.708	4.027	3.671	3.167	3.379	2.996	2.861	3.375	4.265	5.560	6.842	9.698	11.62	12.37	13.32	15.90	14.49	12.98	11.46	10.51	10.45	10.28	10.88	10.68	11.57	12.44	13.28	14.23	14.55	15.07	16.02	16.42	17.37	17.26	17.57	17.84	17.71	17.39	17.33	16.51	16.54
365.0	1688	3123	4482	4750	4081	3111	2717	2750	2953	3285	3561	3705	3746	3610	3340	2968	2655	2396	2201	2074	1996	1804	1493	1205	975.4	762.3	999.2	3568	9999.9	9999.9	353.5	35.52	18.21	12.09	8.148	6.295	5.052	4.322	3.904	3.701	3.184	3.108	3.148	3.432	4.266	5.359	6.576	9.490	10.88	11.59	12.68	15.23	14.18	13.29	11.41	10.52	10.86	10.75	11.20	11.47	12.45	12.50	13.41	14.20	14.81	14.88	15.27	15.56	16.02	16.42	17.03	17.50	17.61	17.21	17.17	16.57	17.03
370.0	1566	2860	4149	4526	4063	3277	2914	2970	3143	3387	3525	3589	3601	3510	3286	3016	2792	2625	2492	2397	2295	2179	1927	1571	1264	966.5	782.3	1196	3825	9999.9	9999.9	6997	37.61	20.77	11.96	8.491	6.199	5.028	4.414	3.947	3.627	3.298	3.229	3.457	4.143	5.019	6.247	8.790	10.25	10.63	11.98	14.36	13.92	13.21	11.81	11.13	11.41	11.40	11.75	12.25	12.95	13.15	13.80	14.32	14.61	14.90	14.95	15.22	15.42	15.98	16.01	16.67	17.28	17.12	17.10	16.68	16.90
375.0	1478	2646	3842	4300	3962	3369	3057	3118	3267	3448	3482	3481	3489	3420	3227	3029	2886	2800	2734	2677	2599	2476	2317	2015	1642	1309	1013	899.0	1319	2686	9999.9	9999.9	2544	42.83	21.07	12.98	8.272	6.649	4.984	4.765	3.985	3.490	3.479	3.747	4.180	5.091	5.861	8.040	9.615	9.799	11.44	13.76	13.81	13.00	12.54	11.53	12.28	11.78	12.51	12.71	13.23	13.89	14.15	14.62	14.83	14.93	15.02	14.72	15.04	15.43	15.52	16.07	16.39	16.58	16.61	17.04	17.27
380.0	1454	2517	3630	4132	3871	3405	3164	3184	3343	3469	3472	3437	3433	3356	3192	3027	2935	2888	2863	2851	2808	2687	2547	2349	1982	1619	1292	1056	949.4	1088	2903	9999.9	9999.9	2185	37.76	19.40	11.89	8.045	6.111	5.211	4.077	3.598	3.375	3.740	4.392	5.030	5.592	7.778	9.294	9.724	10.97	13.59	13.42	13.10	12.28	11.78	12.47	12.44	12.30	13.15	13.21	13.87	14.53	14.60	14.67	14.99	14.31	14.53	15.04	15.21	15.63	15.65	16.20	16.81	17.00	17.13	17.52
385.0	1411	2395	3432	4047	3847	3492	3269	3301	3381	3530	3497	3439	3453	3371	3221	3050	2972	2962	2972	3005	3003	2913	2792	2637	2355	1969	1623	1345	1100	926.0	1147	3329	9999.9	9999.9	300.9	34.10	18.51	11.64	7.234	5.674	4.855	3.887	3.679	4.079	4.557	4.797	5.673	7.730	8.799	9.145	10.41	13.07	12.92	13.18	12.43	12.01	12.63	12.70	12.83	13.28	14.02	15.04	14.48	14.62	15.25	14.36	14.72	14.44	14.98	15.35	15.76	15.69	16.09	16.93	16.58	16.86	17.36
390.0	1372	2336	3405	3942	3918	3662	3501	3522	3677	3779	3755	3676	3679	3605	3412	3182	3080	3090	3140	3230	3282	3259	3199	3058	2853	2558	2193	1876	1569	1279	1068	1314	3387	9999.9	9999.9	5611	116.6	22.13	11.56	7.842	5.986	4.650	4.165	4.368	4.598	5.174	5.916	7.711	8.753	8.995	10.29	13.04	13.31	13.67	12.97	12.78	13.55	13.69	13.99	14.54	14.86	15.55	15.21	16.00	15.97	15.39	15.18	15.37	15.22	15.97	16.37	16.75	16.73	17.27	17.23	17.46	17.96
395.0	1380	2329	3384	3929	4034	3881	3765	3859	4024	4233	4303	4275	4290	4200	3879	3492	3261	3253	3338	3490	3624	3689	3707	3631	3456	3245	2919	2568	2225	1870	1483	1215	1370	2693	7325	9999.9	2192	145.2	22.59	12.21	8.007	5.803	4.895	5.035	4.879	5.483	5.985	8.034	9.008	9.088	10.31	13.17	13.49	13.84	13.75	13.47	14.28	14.48	14.63	15.73	15.95	16.91	16.88	17.72	17.30	16.98	16.55	16.89	16.75	17.47	17.82	18.12	18.06	18.56	18.55	18.26	18.64
400.0	1392	2367	3353	3952	4092	4025	3988	4094	4388	4719	4920	4988	5007	4853	4410	3821	3457	3409	3505	3713	3903	4052	4133	4116	3993	3756	3519	3175	2795	2401	1943	1492	1159	1183	2198	9931	9999.9	1975	36.24	18.13	10.40	7.480	5.737	5.481	5.158	5.936	6.494	8.020	9.107	9.240	10.34	13.28	13.29	13.79	13.95	13.90	15.11	14.78	15.98	16.76	17.15	18.76	18.51	19.36	19.43	18.87	18.43	18.52	18.83	18.63	20.20	19.86	19.92	20.61	19.06	19.65	18.76
405.0	1420	2421	3375	3960	4140	4193	4251	4389	4771	5245	5596	5779	5774	5549	4956	4149	3649	3554	3665	3905	4154	4370	4525	4569	4471	4274	4035	3747	3341	2903	2397	1855	1360	1044	1031	3011	9999.9	9999.9	1453	29.76	14.68	8.923	6.847	6.087	5.580	6.081	6.362	8.107	9.339	9.626	10.78	13.17	13.84	14.48	14.52	14.64	15.78	15.83	16.83	17.72	18.37	19.68	20.17	20.89	20.53	21.00	20.48	20.99	20.83	20.82	21.27	21.47	21.40	21.82	20.50	20.01	19.52
410.0	1496	2431	3353	4020	4256	4350	4453	4691	5131	5760	6287	6563	6566	6263	5503	4481	3804	3667	3779	4051	4353	4639	4861	4978	4920	4759	4517	4251	3905	3448	2891	2293	1712	1262	962.7	1164	2991	9832	9999.9	4533	100.2	13.98	8.900	7.485	6.781	6.685	6.764	8.587	9.585	9.499	10.78	13.37	14.31	15.08	14.92	15.41	16.53	17.07	17.72	18.43	19.36	20.65	22.03	22.94	22.90	22.75	22.80	22.86	22.99	23.41	23.15	23.17	23.43	23.16	21.61	20.61	20.05
415.0	1487	2391	3295	3971	4285	4394	4557	4854	5309	5966	6632	6952	6938	6585	5723	4599	3833	3650	3754	4041	4359	4680	4956	5112	5106	4988	4765	4519	4231	3821	3235	2601	1985	1480	1087	861.6	1039	2442	5615	9999.9	1992	31.91	13.54	9.899	7.843	7.552	7.372	8.667	9.650	9.822	10.94	13.53	14.43	15.17	15.01	15.92	16.90	17.44	18.06	18.59	19.94	21.40	22.39	23.15	23.99	23.11	23.34	24.02	24.14	24.60	23.83	24.19	23.66	23.72	21.77	20.63	19.42
420.0	1454	2291	3253	3905	4270	4421	4627	4900	5300	6022	6636	7045	7000	6637	5762	4603	3792	3577	3679	3948	4278	4616	4904	5075	5096	5014	4815	4587	4299	3944	3414	2756	2123	1607	1189	854.5	659.2	794.6	1509	7761	9999.9	1706	27.35	13.15	9.236	8.080	7.861	9.058	9.388	9.776	10.70	13.46	14.41	15.01	15.00	16.08	17.22	18.03	18.88	19.62	20.51	21.57	22.51	23.61	23.80	23.78	23.51	23.81	23.84	24.56	24.21	24.28	23.74	23.23	21.53	20.23	18.96
425.0	1434	2268	3204	3880	4241	4460	4658	4913	5335	5999	6664	7042	7007	6660	5762	4555	3738	3498	3589	3849	4162	4505	4816	4996	5034	4961	4782	4591	4322	3979	3514	2855	2222	1708	1277	914.1	626.5	471.1	513.3	2152	9685	9999.9	254.9	23.00	11.69	9.494	8.429	9.119	9.436	9.838	10.48	13.24	14.00	14.84	15.15	16.12	17.34	18.01	19.01	19.61	20.30	21.56	22.52	23.15	23.73	24.02	23.47	23.20	23.85	24.10	23.96	23.95	23.50	22.56	21.37	20.25	19.20
430.0	1461	2217	3113	3822	4257	4554	4819	5063	5376	5994	6661	7030	7029	6626	5707	4517	3682	3433	3493	3728	4013	4344	4655	4840	4896	4848	4696	4539	4287	3971	3540	2962	2340	1829	1392	1018	699.3	467.1	346.4	629.5	2635	7622	9650	3789	24.21	12.82	9.896	9.897	10.17	9.822	10.81	13.30	14.27	15.25	15.53	16.30	18.06	18.99	19.77	19.70	20.18	21.57	22.63	23.17	23.50	23.58	23.54	23.25	23.82	23.90	23.64	23.62	23.28	22.43	21.02	19.89	19.12
435.0	1802	2157	3040	3753	4250	4656	4992	5223	5426	5930	6545	6915	6938	6505	5604	4430	3598	3349	3391	3578	3838	4128	4436	4627	4686	4651	4536	4403	4192	3895	3506	2982	2432	1923	1494	1118	786.4	532.9	367.2	336.9	716.5	1810	4921	9999.9	1820	28.34	13.19	11.61	11.14	10.48	11.17	13.55	14.88	15.53	16.01	17.17	18.49	19.35	19.92	20.66	20.65	22.10	22.63	22.54	23.19	23.13	22.91	22.97	23.45	23.28	23.20	22.74	22.93	21.65	20.60	19.57	18.35
440.0	2169	2226	2966	3699	4272	4706	5102	5247	5418	5776	6376	6695	6687	6281	5417	4290	3520	3264	3284	3433	3658	3935	4206	4405	4463	4442	4330	4229	4055	3796	3425	2935	2436	1964	1538	1169	849.0	585.8	409.9	302.4	313.4	505.4	1273	7472	9999.9	1522	22.92	14.07	12.02	10.67	11.18	14.13	14.86	16.14	16.18	17.26	19.18	20.02	21.02	20.56	20.64	21.57	22.04	22.51	22.83	22.69	22.55	22.00	22.55	22.85	22.24	22.12	22.27	20.89	19.97	18.93	18.06
445.0	2461	2482	2913	3607	4242	4709	5098	5257	5312	5552	6045	6355	6348	5954	5145	4110	3383	3129	3134	3259	3452	3676	3937	4134	4199	4186	4094	4012	3860	3632	3305	2850	2387	1967	1560	1204	891.2	629.7	450.0	320.5	247.6	233.4	365.6	2065	9076	9999.9	213.6	20.66	13.56	11.29	11.44	13.52	14.93	15.91	16.45	17.71	19.58	19.73	20.76	20.44	21.02	21.23	21.55	21.36	21.96	21.90	21.04	21.27	22.20	22.30	21.09	21.43	20.93	20.55	19.52	18.52	16.86
450.0	1900	3470	2996	3424	4098	4644	5025	5118	5047	5158	5510	5801	5764	5412	4698	3788	3145	2903	2896	2982	3099	3295	3523	3697	3764	3766	3705	3648	3519	3348	3069	2675	2254	1890	1547	1209	912.5	670.6	494.5	360.4	263.5	198.1	182.4	531.6	2456	7463	9125	3022	22.28	13.22	12.28	14.16	14.38	15.93	16.40	17.27	19.23	19.49	20.37	20.13	20.09	20.11	20.32	20.01	20.09	20.14	19.56	19.62	20.47	20.06	19.76	19.41	19.41	18.85	17.78	17.22	16.55
455.0	1262	3936	4037	3254	3883	4422	4830	4857	4718	4717	4944	5189	5120	4827	4208	3421	2865	2643	2621	2667	2742	2888	3079	3231	3308	3321	3274	3233	3140	3017	2779	2457	2093	1767	1481	1195	921.9	695.2	528.8	397.4	292.8	212.7	161.4	204.5	608.9	1742	4522	9999.9	1502	22.80	14.53	14.44	14.71	15.44	16.31	16.61	18.68	18.49	18.68	19.52	18.96	18.72	18.72	18.58	18.49	18.18	17.77	17.88	17.99	18.18	17.91	17.84	17.39	17.19	16.02	15.47	15.13
460.0	1040	2958	5365	3378	3687	4211	4605	4652	4420	4353	4540	4753	4670	4406	3831	3137	2645	2445	2417	2435	2479	2596	2766	2901	2963	2978	2951	2916	2853	2760	2556	2276	1959	1667	1402	1160	919.2	702.4	541.9	417.4	314.3	229.7	170.4	143.5	208.6	443.5	1138	6327	9999.9	1132	21.34	15.64	14.97	15.16	15.81	16.07	17.96	18.29	18.33	18.42	17.85	17.53	17.46	17.65	16.64	16.48	15.93	16.98	16.58	16.92	16.72	16.70	15.99	15.93	15.27	14.26	14.12
465.0	951.8	1993	5978	4168	3487	4008	4359	4381	4109	4033	4156	4331	4259	4019	3504	2892	2446	2255	2223	2218	2247	2338	2489	2610	2675	2693	2665	2644	2595	2515	2346	2096	1829	1574	1325	1108	896.3	700.9	548.1	428.1	326.6	243.8	181.8	141.0	129.0	161.7	302.5	1708	8003	7383	171.2	21.52	16.10	15.18	15.22	15.67	17.36	17.64	17.60	17.58	16.93	16.45	16.24	16.32	15.42	15.21	14.73	15.22	15.17	15.15	15.37	15.02	14.62	14.73	13.87	13.34	13.44
470.0	837.9	1508	4179	6452	3676	3630	3958	3960	3700	3566	3648	3782	3716	3487	3052	2526	2157	2000	1953	1941	1944	2011	2137	2239	2295	2307	2294	2279	2243	2189	2058	1856	1631	1417	1206	1017	839.0	679.0	539.1	426.8	331.9	254.6	195.3	151.3	122.7	109.2	125.4	427.1	2137	5164	6527	2262	23.67	17.00	15.07	15.32	16.45	16.45	16.32	16.49	15.74	15.05	14.72	14.56	13.68	13.78	13.19	13.63	13.76	13.52	13.58	13.56	13.12	12.81	12.53	12.26	11.69
475.0	713.8	1231	2294	6673	5346	3284	3506	3524	3237	3089	3132	3247	3164	2970	2595	2170	1864	1730	1682	1659	1643	1693	1790	1869	1921	1937	1926	1917	1907	1868	1766	1605	1428	1254	1080	919.2	766.2	636.4	521.6	419.9	329.4	259.3	204.4	161.8	129.0	106.3	94.81	147.7	516.5	1198	3051	6854	1469	27.11	15.98	14.73	15.29	15.54	15.09	14.59	13.90	13.34	13.33	12.86	12.10	12.39	11.67	12.15	11.94	11.80	12.03	11.37	11.82	11.26	10.39	10.62	10.37
480.0	645.8	1127	1734	4659	7672	3431	3202	3189	2947	2762	2807	2874	2802	2638	2309	1940	1670	1555	1506	1475	1456	1491	1580	1648	1693	1702	1699	1693	1686	1655	1576	1446	1289	1140	993.0	848.7	715.7	596.6	504.6	413.8	328.4	262.4	207.9	169.1	135.9	112.3	92.70	90.69	159.9	302.5	758.7	3700	6741	1306	23.96	15.53	15.18	14.38	14.21	13.56	13.30	12.20	12.24	11.78	10.94	10.97	10.65	10.74	10.69	10.83	10.69	10.92	10.71	10.19	9.728	9.610	9.596
485.0	608.3	1047	1470	2861	8265	4470	2960	2937	2703	2528	2552	2598	2534	2371	2080	1762	1520	1417	1375	1332	1304	1339	1411	1473	1510	1527	1520	1512	1517	1493	1427	1315	1177	1049	913.4	791.3	672.4	563.4	481.9	406.1	328.1	262.4	211.5	174.5	142.5	118.9	97.92	82.81	86.90	108.0	202.2	983.1	5062	7047	204.0	20.86	15.48	14.48	13.77	13.09	12.57	11.26	11.34	10.45	10.13	9.788	9.965	10.04	9.994	10.03	9.842	9.997	9.445	9.286	8.725	8.826	8.886
490.0	536.6	975.7	1330	1944	5442	7419	3172	2631	2410	2256	2261	2289	2229	2074	1827	1549	1347	1254	1205	1168	1141	1160	1221	1278	1314	1320	1318	1316	1317	1303	1252	1160	1047	938.2	827.9	716.0	617.5	525.7	450.1	385.6	323.3	265.0	215.2	179.8	151.5	127.8	108.0	90.22	77.85	71.95	84.45	252.9	1338	4661	5542	2073	24.70	15.24	13.39	12.46	11.24	10.37	10.55	9.562	9.236	9.063	8.964	9.161	8.841	8.992	9.007	8.847	8.479	8.296	7.950	7.883	7.910
495.0	476.8	838.5	1194	1543	2751	7656	5194	2334	2113	1977	1984	1991	1931	1789	1577	1342	1176	1093	1041	1009	982.8	991.8	1046	1090	1120	1131	1124	1123	1121	1117	1082	1000	914.8	824.8	734.2	643.9	560.2	480.3	416.1	356.5	307.4	261.6	215.2	181.8	157.6	134.8	116.0	99.01	82.78	70.66	64.11	95.73	330.6	1082	2880	6599	1646	27.85	14.46	12.30	11.10	9.717	9.410	8.907	8.384	8.682	7.903	7.906	7.695	7.934	7.768	7.700	7.473	7.193	6.893	7.104	7.037
500.0	445.4	756.0	1094	1366	1871	5278	7694	2388	1899	1776	1769	1782	1726	1594	1391	1193	1047	969.0	924.9	893.1	869.0	876.8	924.5	961.3	981.9	993.7	986.1	988.6	988.1	984.5	955.1	886.9	815.1	736.7	661.3	583.4	510.7	446.0	387.3	334.4	289.7	253.8	213.9	181.9	158.0	138.7	120.0	103.5	87.87	74.18	64.09	64.36	109.2	271.9	722.4	3600	6447	1306	23.94	12.53	10.58	9.397	8.821	8.277	7.426	7.543	7.569	6.879	7.055	6.997	7.080	7.220	7.047	6.903	6.394	6.526	6.150
505.0	391.5	652.7	994.9	1227	1542	3003	8556	3152	1712	1598	1600	1605	1546	1426	1238	1060	933.6	860.3	826.6	789.6	769.9	784.3	816.0	847.6	868.0	876.2	866.4	869.8	871.2	871.1	846.9	791.5	728.5	660.2	595.3	532.4	467.7	409.6	357.9	311.8	273.5	239.8	212.2	180.9	156.3	136.9	120.9	106.3	91.04	78.06	67.38	58.66	62.15	93.21	188.9	946.0	4467	5462	224.2	18.60	10.71	8.849	8.322	7.851	6.886	6.750	6.713	6.656	6.488	6.472	6.579	6.759	6.270	6.038	5.692	5.917	5.497
510.0	339.7	562.7	850.2	1095	1296	1785	5569	6652	1905	1376	1382	1383	1317	1209	1055	904.4	798.0	732.5	704.9	672.9	653.5	660.3	688.6	713.6	729.9	737.1	730.7	730.6	732.2	734.3	716.3	671.7	618.4	567.6	512.8	461.2	409.2	361.6	320.6	280.6	248.3	219.0	197.1	173.9	154.0	135.7	119.7	105.9	91.68	80.75	69.85	59.79	54.23	55.58	72.06	235.7	1156	3288	4655	997.9	21.33	9.674	8.091	7.324	6.632	6.351	6.108	5.945	5.807	5.894	5.827	5.570	5.290	5.275	4.969	5.127	4.862
515.0	286.0	489.7	701.3	952.0	1107	1339	2453	7623	4233	1195	1161	1168	1104	1013	872.9	758.1	669.2	612.7	589.3	566.2	543.5	547.2	566.1	590.3	607.6	611.8	601.9	599.5	609.3	604.6	594.3	558.8	518.6	476.6	434.4	390.6	351.6	313.2	281.1	249.6	221.3	195.2	175.7	163.3	148.5	129.8	116.7	102.7	91.02	79.58	70.02	60.81	52.82	47.67	46.02	78.26	278.6	756.3	2008	5211	1607	26.45	8.802	6.809	6.088	5.660	5.354	5.383	5.220	5.137	5.208	4.810	4.745	4.621	4.681	4.368	4.275
520.0	244.2	415.7	629.4	826.0	986.4	1106	1438	5244	7780	1312	1025	1022	962.6	882.5	762.1	658.5	584.2	538.5	512.7	490.3	472.5	474.8	491.6	512.6	524.9	528.6	519.8	519.6	525.2	521.5	510.6	487.4	452.7	415.9	382.9	344.6	311.9	280.2	251.7	226.9	201.6	179.8	161.0	151.7	141.5	124.9	111.1	98.90	88.23	78.04	69.26	61.44	52.67	46.28	40.32	43.24	83.79	186.0	484.4	2623	4842	1342	21.71	7.119	5.967	5.263	4.956	4.859	4.693	4.666	4.278	4.084	4.232	4.192	4.010	3.998	3.648
525.0	229.3	364.3	546.1	724.3	886.1	964.2	1102	2645	9721	2103	911.3	909.7	859.2	777.8	677.5	578.2	511.9	470.4	451.3	430.3	413.6	415.1	428.9	447.6	459.9	460.1	457.3	452.8	455.3	454.6	448.7	426.8	395.9	368.2	338.0	307.6	278.6	250.4	228.5	206.8	183.9	164.9	149.7	139.0	129.9	121.6	107.1	95.17	85.09	75.61	67.33	59.08	51.46	44.20	38.20	35.26	39.61	59.00	122.4	656.5	2968	4256	236.3	15.19	6.097	5.226	4.816	4.322	4.345	4.370	4.301	3.570	3.745	3.508	3.545	3.554	3.655
530.0	203.0	311.2	465.5	608.1	771.2	823.0	883.0	1270	6276	6015	1125	774.2	725.5	658.4	568.4	485.3	434.9	399.4	377.7	362.3	349.5	349.1	361.5	373.1	384.9	383.9	381.3	378.0	380.8	381.9	377.7	355.7	334.3	310.5	285.7	261.7	238.3	216.5	197.4	179.9	162.6	147.3	134.0	124.6	117.0	111.2	101.9	89.18	79.09	70.65	63.29	54.96	48.29	42.23	36.35	31.43	28.28	29.48	40.32	157.5	737.4	2193	3666	1030	19.93	5.904	4.669	4.310	4.032	3.676	3.662	3.316	3.321	3.179	3.026	2.947	3.151
535.0	169.4	255.5	383.0	502.0	618.1	715.9	729.6	823.6	2235	7501	3178	664.6	605.7	545.6	472.4	402.5	359.9	331.3	313.7	299.9	289.1	289.4	297.5	305.8	315.7	317.1	310.8	308.2	311.3	311.8	307.7	291.8	274.5	257.7	237.5	217.2	198.9	183.0	168.0	154.3	139.2	127.9	117.6	108.7	102.6	95.14	90.97	83.17	72.35	64.93	57.96	51.48	44.88	39.63	34.01	29.08	24.76	21.90	21.23	45.34	172.6	497.8	1312	3531	1620	26.74	5.269	4.345	3.560	3.359	2.990	3.083	2.981	2.867	2.590	2.668	2.652
540.0	157.4	243.0	339.6	427.3	522.3	632.2	646.2	641.2	953.5	4976	6483	752.9	529.4	465.1	407.2	345.9	311.9	286.4	268.6	257.0	248.2	244.9	252.0	262.7	266.9	272.3	266.6	264.0	263.7	267.4	264.2	250.1	233.4	220.2	203.5	189.0	173.1	160.4	147.9	135.4	124.6	114.0	104.4	98.52	92.47	86.83	81.81	77.14	67.64	59.82	53.26	47.64	41.39	37.50	31.25	27.95	23.56	19.05	16.49	20.19	46.69	118.2	306.2	1527	3181	1354	22.02	4.442	3.658	3.005	3.060	2.711	2.760	2.742	2.310	2.206	2.253
545.0	143.8	213.4	293.9	374.7	445.7	546.5	560.2	532.3	592.0	2191	8356	1438	458.7	402.6	351.9	300.9	264.2	246.3	233.8	220.9	212.5	210.3	218.9	225.3	228.5	232.1	228.4	226.4	225.5	226.7	226.5	215.3	201.3	189.9	175.0	162.6	150.4	139.6	128.5	119.5	110.3	99.93	94.10	87.14	83.71	76.79	72.48	68.62	63.67	54.55	48.50	43.21	38.48	33.70	29.16	26.08	21.98	18.17	14.69	13.87	17.91	33.03	74.90	365.1	1556	3176	974.5	16.99	3.791	3.226	2.976	2.446	2.562	2.301	2.285	2.150	2.215
550.0	122.3	183.7	250.9	316.5	355.3	421.3	477.6	448.8	445.8	825.7	5212	5112	602.9	331.3	286.3	244.2	215.9	198.8	188.5	180.3	173.0	171.4	176.2	181.1	185.2	187.1	183.9	181.8	181.9	183.2	181.9	173.1	162.8	153.3	141.8	131.8	123.1	114.0	106.0	98.43	91.30	83.88	78.72	73.72	70.53	65.72	61.71	57.14	54.51	48.58	42.87	37.67	33.18	29.55	25.74	22.95	20.19	16.49	13.26	11.63	11.11	13.46	22.25	86.56	369.1	1351	2196	1040	94.42	4.132	2.778	2.371	2.260	1.996	1.990	1.986	1.930
555.0	105.7	142.8	208.2	255.2	288.8	324.1	373.2	389.1	346.4	427.9	1658	6783	1376	274.9	227.1	194.8	171.7	155.9	148.3	142.1	135.0	135.0	139.2	143.9	145.7	146.1	144.2	140.8	141.8	143.0	142.7	136.4	126.8	120.3	112.6	103.5	97.26	91.13	84.48	79.18	74.27	68.72	64.40	60.49	57.62	54.73	50.58	47.08	44.01	41.97	37.14	32.32	27.80	24.60	22.28	19.33	16.96	14.35	11.99	10.13	8.752	8.166	9.666	23.51	85.90	304.7	646.2	1922	1557	29.73	3.293	2.329	2.080	1.648	1.860	1.561	1.540
560.0	97.01	135.5	176.6	226.2	244.7	267.6	304.7	342.9	291.8	305.3	599.6	4456	4866	341.4	188.1	160.4	141.3	131.3	123.0	118.5	112.5	111.2	115.2	118.6	120.6	121.2	118.6	115.3	116.8	118.7	116.8	110.9	103.6	99.40	92.20	86.51	80.14	76.01	71.78	65.82	62.02	58.40	54.22	52.11	48.55	46.89	43.32	40.06	37.72	35.37	32.74	28.53	24.17	21.92	19.31	16.81	14.43	12.49	10.64	9.214	7.373	6.772	6.920	9.097	22.44	71.12	148.8	691.7	2062	1114	24.30	2.555	2.174	1.776	1.613	1.411	1.371
565.0	94.13	132.4	161.5	187.6	213.8	233.2	245.9	298.1	266.3	255.7	322.2	1807	6930	872.4	161.8	135.0	120.8	110.0	102.4	97.68	94.33	94.22	95.45	99.13	100.4	100.4	99.88	97.77	97.38	98.06	97.60	94.19	88.40	84.12	77.43	71.98	66.99	64.47	60.63	55.72	52.49	47.93	46.71	43.83	42.32	38.88	37.47	34.74	31.29	29.59	27.97	25.12	21.24	19.40	16.74	15.19	13.12	11.13	9.838	8.469	6.487	5.876	5.558	5.585	8.263	18.94	36.04	161.5	849.8	1894	737.2	16.05	2.193	1.725	1.502	1.352	1.376
570.0	83.98	118.4	144.3	158.3	172.5	187.9	196.3	232.6	241.3	209.5	223.8	586.1	4397	3900	275.6	109.4	95.49	87.62	81.52	78.19	73.54	73.88	75.96	78.41	78.62	78.64	78.36	76.58	77.13	77.80	76.96	73.29	68.47	65.66	60.61	56.93	53.10	50.69	47.58	44.37	42.03	39.17	37.24	35.42	34.61	32.44	30.38	28.29	25.74	23.78	22.40	20.53	18.32	16.41	14.02	12.55	11.05	9.517	8.149	7.192	6.071	5.235	4.621	4.434	4.593	6.748	10.63	38.48	197.1	702.2	1225	728.9	94.46	2.876	1.406	1.260	1.267
575.0	76.54	110.2	125.3	135.9	137.6	151.0	157.4	170.7	214.0	186.3	182.8	260.0	1297	5474	926.4	92.17	75.80	71.01	64.15	61.47	59.09	59.17	57.61	61.54	61.43	60.86	59.93	58.49	59.02	60.12	59.51	55.98	53.18	49.95	47.72	44.34	41.87	39.77	37.49	34.78	32.98	31.12	28.81	28.31	26.99	26.38	24.37	22.73	20.60	18.93	17.44	16.24	14.96	13.85	11.65	10.37	9.120	8.049	6.914	5.876	5.394	4.594	4.284	3.468	3.398	4.181	4.801	10.64	45.79	158.3	323.5	935.3	1059	30.66	2.098	1.297	1.208
580.0	77.48	95.67	116.9	117.4	121.9	131.7	130.9	145.7	185.2	179.5	165.3	177.8	409.5	3590	3794	113.3	63.64	58.24	54.41	50.92	49.22	48.15	48.38	49.60	49.90	50.68	48.74	47.89	49.60	50.76	48.42	46.34	44.03	41.00	39.29	36.40	34.93	33.12	31.05	28.99	27.79	25.67	24.70	23.89	22.40	22.12	20.49	19.29	17.70	16.23	14.83	13.39	12.68	12.48	9.927	9.026	8.365	7.056	6.133	5.185	4.837	4.251	4.006	3.272	3.145	3.225	3.159	4.384	12.03	37.13	74.26	300.1	1149	746.1	24.98	1.465	1.207
585.0	85.16	92.29	113.0	107.4	106.7	117.8	114.2	127.5	156.6	185.0	158.4	153.3	193.2	1382	5619	509.0	55.51	49.66	47.08	43.17	41.28	40.95	41.15	41.27	42.75	42.78	41.32	40.87	41.72	42.25	40.68	39.46	37.08	34.59	33.11	30.91	29.33	27.07	26.65	24.58	23.41	22.73	21.52	20.22	19.29	18.73	17.40	16.68	15.29	13.99	12.73	11.83	11.10	10.50	9.396	8.260	7.213	6.213	5.562	4.699	4.009	3.768	3.747	3.197	2.862	2.790	2.724	2.982	4.416	9.851	18.20	69.54	418.5	1052	256.7	16.26	1.284
590.0	77.76	83.56	102.5	103.1	96.44	100.0	102.7	110.7	121.6	166.8	155.1	139.8	133.9	406.7	3596	2751	77.62	41.93	40.04	35.80	33.68	32.85	33.15	33.68	34.30	33.86	33.77	32.92	32.85	33.13	32.52	31.82	29.67	27.96	26.83	24.65	23.43	22.00	21.36	19.62	19.13	17.92	16.92	16.34	16.06	15.20	14.36	13.33	12.69	11.24	10.28	9.717	8.731	8.309	7.970	7.100	6.200	5.127	4.691	4.009	3.606	3.335	3.104	3.034	2.732	2.504	2.258	2.313	2.491	3.624	5.461	16.83	96.22	354.5	659.8	486.6	21.12
595.0	68.57	74.77	92.90	89.76	85.48	84.43	87.76	93.47	101.7	133.7	162.9	128.9	116.3	157.7	1024	4151	583.0	35.58	31.89	29.11	27.55	26.45	27.12	27.54	27.15	26.54	25.98	26.23	26.17	26.69	25.88	24.87	23.80	22.35	21.15	19.16	18.41	17.54	17.09	15.40	14.83	14.23	13.37	12.93	12.69	12.08	11.39	10.93	9.828	9.137	8.478	7.685	7.151	6.633	6.398	6.146	5.147	4.602	3.663	3.352	3.057	2.811	2.714	2.582	2.570	2.200	2.144	2.171	2.028	2.145	2.438	4.908	22.50	80.06	169.6	535.4	603.1
600.0	66.26	76.93	90.73	83.50	79.06	78.46	82.38	88.94	96.17	114.9	164.3	132.3	112.8	103.5	286.8	2891	2194	58.01	27.11	24.54	23.18	22.71	21.92	22.81	22.39	21.94	21.80	21.87	21.80	22.08	21.28	19.87	19.47	18.68	16.89	16.08	15.25	14.24	14.32	12.64	12.15	12.03	11.18	10.75	10.72	10.18	9.474	9.352	8.073	7.707	6.840	6.577	6.013	5.527	5.230	5.307	4.775	4.253	3.501	3.132	2.911	2.468	2.365	2.258	2.175	2.306	1.974	1.998	1.745	1.655	1.658	2.181	5.946	18.89	38.96	165.0	605.8
605.0	67.93	82.61	93.84	82.40	74.84	74.66	79.30	84.96	100.3	114.4	163.9	150.3	119.7	97.93	119.5	1153	3472	269.2	24.23	21.15	20.16	19.23	19.07	19.44	19.01	18.38	18.82	18.44	18.26	18.57	17.67	16.89	16.19	15.31	14.11	13.31	12.83	12.49	11.54	10.68	10.42	10.07	9.499	9.259	9.004	8.660	7.935	7.737	7.179	6.485	5.699	5.494	5.345	4.769	4.257	4.359	4.280	3.737	3.112	2.783	2.611	2.293	2.154	2.204	1.878	2.208	2.034	1.784	1.676	1.575	1.459	1.491	2.288	5.183	9.616	38.20	212.0
610.0	71.96	80.96	89.02	80.44	71.45	73.55	82.57	90.14	108.7	131.6	169.9	188.3	144.1	112.7	94.52	330.1	2457	1538	45.69	18.47	16.92	15.71	16.03	15.58	15.66	15.38	14.57	15.12	14.88	14.99	14.60	13.70	12.75	12.02	11.29	10.64	10.20	9.816	9.125	8.720	8.618	8.064	7.849	7.631	7.124	6.843	6.591	6.100	5.936	5.291	4.807	4.714	4.349	3.926	3.562	3.579	3.560	3.415	2.935	2.470	2.339	2.146	2.028	2.022	1.866	1.939	1.944	1.894	1.685	1.546	1.526	1.421	1.509	2.121	3.028	9.357	48.78
615.0	76.49	81.20	86.14	81.22	68.48	67.58	81.08	88.54	110.0	133.0	164.1	194.4	159.4	119.5	93.57	123.8	750.0	2946	425.3	16.86	13.30	13.69	13.01	13.04	12.61	12.20	11.70	11.95	11.70	11.87	11.42	11.21	9.943	9.728	8.914	8.706	8.107	7.806	7.255	6.707	6.787	6.477	6.060	6.028	5.632	5.635	5.323	4.871	4.515	3.910	3.853	3.763	3.461	3.328	2.946	2.664	2.801	2.823	2.521	2.188	2.069	1.869	1.823	1.762	1.756	1.642	1.649	1.770	1.742	1.470	1.430	1.375	1.293	1.404	1.461	2.857	11.69
620.0	76.41	79.15	85.04	78.04	64.77	63.55	74.57	89.61	102.4	123.4	154.8	178.3	166.3	118.1	88.08	76.88	221.6	2245	1655	26.93	11.85	12.01	11.56	11.10	10.88	10.51	10.16	9.946	9.764	9.695	10.03	9.033	8.189	8.140	7.585	7.177	6.440	6.522	6.005	5.776	5.598	5.398	5.065	5.159	4.459	4.591	4.344	4.112	3.951	3.428	3.394	3.055	2.932	2.637	2.587	2.335	2.410	2.366	2.291	2.071	1.908	1.613	1.709	1.747	1.585	1.731	1.522	1.684	1.753	1.477	1.375	1.353	1.225	1.123	1.074	1.388	3.313
625.0	65.99	75.62	83.21	74.34	62.12	63.60	76.17	88.89	102.7	123.5	145.1	169.8	172.0	123.2	88.30	65.90	90.21	963.6	2840	69.61	12.14	10.05	10.52	9.565	9.372	9.083	8.829	8.499	8.420	8.000	8.089	7.953	7.056	6.598	6.506	5.899	5.650	5.394	5.012	5.013	4.986	4.359	4.252	4.240	3.753	3.774	3.814	3.530	3.415	3.008	2.762	2.777	2.524	2.231	2.220	2.116	1.957	2.042	1.935	1.868	1.819	1.563	1.596	1.594	1.411	1.460	1.551	1.374	1.469	1.656	1.275	1.311	1.144	0.943	0.959	1.004	1.394
630.0	65.45	75.15	84.59	75.20	61.52	63.52	70.33	85.63	99.00	120.5	143.3	157.3	162.1	129.1	89.68	62.58	59.79	263.8	2188	1124	24.20	9.617	8.890	8.155	7.990	7.619	7.545	7.371	6.768	6.949	6.706	6.378	6.159	5.400	5.261	4.882	4.382	4.422	4.069	3.972	3.952	3.628	3.429	3.411	3.388	3.193	3.205	2.925	2.694	2.469	2.274	2.238	2.081	1.992	1.888	1.792	1.672	1.670	1.650	1.573	1.639	1.444	1.426	1.424	1.440	1.400	1.399	1.310	1.377	1.442	1.415	1.278	1.110	1.017	0.964	0.933	0.934
635.0	66.52	84.37	81.98	75.47	60.53	62.20	64.45	74.67	99.55	118.7	138.6	153.3	151.3	137.2	94.32	65.53	54.41	82.49	687.3	2379	258.5	9.082	7.583	7.222	6.875	6.877	6.175	5.918	5.697	5.532	5.411	5.313	5.129	4.609	4.356	4.071	3.597	3.531	3.196	3.163	2.851	2.854	2.576	2.638	2.744	2.490	2.640	2.266	2.059	1.952	1.984	1.816	1.700	1.663	1.495	1.496	1.451	1.304	1.393	1.354	1.394	1.364	1.387	1.331	1.263	1.274	1.344	1.253	1.360	1.243	1.259	1.326	1.116	1.011	0.818	0.859	0.851
640.0	68.16	88.28	83.02	73.51	61.10	58.11	67.65	74.93	98.41	114.7	142.0	155.5	152.9	143.4	103.4	70.00	54.28	42.63	182.9	1984	1002	13.58	7.396	6.731	5.824	5.890	5.431	4.930	4.881	5.076	4.850	4.416	4.445	3.914	3.349	3.381	3.169	3.026	2.590	2.697	2.397	2.476	2.347	2.236	2.403	2.231	2.139	1.961	1.932	1.748	1.652	1.560	1.384	1.430	1.362	1.298	1.231	1.212	1.163	1.234	1.240	1.311	1.303	1.132	1.271	1.245	1.186	1.213	1.177	1.174	1.229	1.333	1.150	1.132	0.854	0.815	0.902
645.0	60.68	92.19	88.99	71.39	57.90	57.39	64.86	79.61	94.93	117.9	141.9	153.4	152.1	139.9	109.7	71.70	55.38	34.20	55.45	934.0	1913	50.93	7.281	5.724	5.357	5.138	5.001	4.639	4.429	4.540	4.164	4.130	3.528	3.237	3.198	2.982	2.756	2.756	2.265	2.243	2.199	2.022	1.929	1.880	1.995	1.816	1.866	1.576	1.563	1.532	1.392	1.397	1.196	1.258	1.093	1.082	1.268	1.075	1.051	1.107	1.131	1.254	1.182	1.135	1.200	1.181	1.177	1.163	1.333	1.183	1.119	1.221	1.246	1.098	0.944	0.819	0.858
650.0	72.05	93.81	98.60	78.92	59.50	55.25	65.02	79.46	90.88	113.3	140.1	151.2	146.4	134.8	114.0	72.23	53.44	32.05	25.77	280.0	2053	389.9	7.578	5.384	5.238	4.725	4.588	4.252	4.118	3.853	3.740	3.414	3.212	2.976	2.850	2.449	2.381	2.377	1.965	1.963	1.964	1.802	1.670	1.827	1.673	1.723	1.616	1.466	1.485	1.368	1.279	1.326	1.153	1.227	1.106	0.998	1.105	0.937	1.000	1.071	1.084	1.195	1.175	1.228	1.165	1.217	1.120	1.199	1.228	1.188	1.106	1.138	1.181	1.057	0.916	0.849	0.856
