Sample:	'1
File name:	S2025080914Í¬ÐËÂ·ÇÅ.FD3
Run date:	'15:50:46, 08/10/2025
Operator:	Administrator
Comment:	'

Instrument
Model:	F-2700 FL Spectrophotometer
Serial number:	3064-004
ROM Version:	4J14000 07

Instrument parameters
Measurement type:	3-D scan
Data mode:	Fluorescence
EX  Start WL:	220.0 nm
EX  End WL:	600.0 nm
EX Sampling interval:	5.0 nm
EM  Start WL:	230.0 nm
EM  End WL:	650.0 nm
EM Sampling interval:	5.0 nm
Scan speed:	12000 nm/min
EX Slit:	5.0 nm
EM Slit:	5.0 nm
PMT Voltage:	700 V
Response:	Auto 
Corrected spectra:	Off
Contour interval:	50.000

Peak integration
Integration method:	Rectangular
Sensitivity:	1
Threshold:	1.000

Peaks
No.	ApexEX/EM(nm)	Height(Data)
1	230.0/565.0	80.61
2	230.0/590.0	69.44
3	230.0/615.0	60.09
4	230.0/625.0	54.84
5	235.0/355.0	 1165
6	235.0/510.0	291.4
7	235.0/585.0	69.21
8	235.0/595.0	63.91
9	240.0/520.0	277.3
10	245.0/265.0	316.1
11	245.0/530.0	258.5
12	250.0/545.0	245.1
13	255.0/280.0	681.0
14	255.0/555.0	213.2
15	260.0/285.0	927.4
16	260.0/570.0	195.9
17	265.0/290.0	 1117
18	265.0/580.0	190.4
19	270.0/295.0	 1591
20	270.0/380.0	 1748
21	270.0/595.0	184.1
22	275.0/305.0	 1923
23	275.0/605.0	165.5
24	280.0/310.0	 1847
25	280.0/340.0	 1561
26	280.0/615.0	135.9
27	285.0/315.0	 1694
28	285.0/630.0	107.6
29	290.0/645.0	82.68
30	305.0/340.0	 1036
31	315.0/355.0	903.8
32	320.0/360.0	967.2
33	325.0/365.0	951.2
34	335.0/380.0	987.1
35	340.0/385.0	959.1
36	455.0/340.0	4.721
37	505.0/275.0	3.761
38	515.0/280.0	3.948
39	520.0/285.0	4.541
40	530.0/290.0	4.992
41	540.0/295.0	7.647
42	545.0/300.0	8.396
43	550.0/305.0	8.408
44	560.0/310.0	8.382
45	570.0/315.0	8.016
46	575.0/320.0	8.084
47	585.0/325.0	7.778

Data points
	220.0	225.0	230.0	235.0	240.0	245.0	250.0	255.0	260.0	265.0	270.0	275.0	280.0	285.0	290.0	295.0	300.0	305.0	310.0	315.0	320.0	325.0	330.0	335.0	340.0	345.0	350.0	355.0	360.0	365.0	370.0	375.0	380.0	385.0	390.0	395.0	400.0	405.0	410.0	415.0	420.0	425.0	430.0	435.0	440.0	445.0	450.0	455.0	460.0	465.0	470.0	475.0	480.0	485.0	490.0	495.0	500.0	505.0	510.0	515.0	520.0	525.0	530.0	535.0	540.0	545.0	550.0	555.0	560.0	565.0	570.0	575.0	580.0	585.0	590.0	595.0	600.0
230.0	32.44	450.1	 3005	 1726	115.9	13.90	10.44	10.75	9.422	8.402	8.181	7.268	6.733	6.189	5.127	4.275	3.734	3.619	3.180	2.773	2.690	2.301	2.345	2.116	1.935	1.820	1.547	1.655	1.570	1.352	1.540	1.399	1.210	1.188	1.240	1.137	1.251	1.119	1.026	1.011	1.036	1.040	1.002	0.964	0.821	0.844	1.784	6.009	10.46	8.707	3.994	1.111	0.723	0.620	0.586	0.656	0.672	0.609	0.623	0.513	0.575	0.576	0.517	0.506	0.544	0.452	0.527	0.488	0.492	0.548	0.491	0.560	0.507	0.489	0.493	0.556	0.478
235.0	51.42	133.3	 1249	 3172	 1107	163.3	13.35	10.94	8.573	8.828	7.981	8.321	5.684	6.264	4.138	3.775	3.953	3.651	3.025	3.359	2.665	2.653	2.184	2.198	2.239	1.743	1.694	1.772	1.646	1.620	1.316	1.513	1.195	1.131	0.930	0.983	1.171	1.278	1.215	0.927	1.075	0.866	0.877	1.119	0.821	0.987	1.006	2.014	4.060	7.338	10.60	10.58	5.289	1.567	0.635	0.580	0.600	0.585	0.532	0.647	0.402	0.679	0.524	0.465	0.689	0.612	0.562	0.677	0.453	0.421	0.497	0.614	0.460	0.544	0.513	0.562	0.427
240.0	59.59	97.49	331.1	 1710	 3888	957.5	86.91	13.62	11.58	8.502	7.673	8.178	6.946	4.984	5.496	4.508	3.740	3.597	3.243	3.627	2.769	3.072	2.273	2.510	2.252	2.354	1.857	1.649	2.229	1.445	1.391	1.540	1.233	1.083	0.999	0.861	1.143	1.132	1.192	1.092	1.068	1.028	0.774	1.108	1.021	1.191	0.954	1.078	1.422	2.427	5.156	12.16	15.80	10.50	4.316	1.044	0.632	0.556	0.508	0.530	0.529	0.571	0.623	0.356	0.622	0.743	0.609	0.530	0.408	0.406	0.505	0.621	0.616	0.432	0.732	0.574	0.554
245.0	38.44	104.0	136.1	457.1	 2652	 4512	784.3	43.47	10.97	10.78	8.916	8.550	7.985	6.891	5.096	4.628	3.863	3.430	3.180	3.068	2.819	2.880	2.826	2.253	2.114	1.990	1.794	1.529	1.757	1.730	1.363	1.486	1.206	1.178	1.340	1.179	1.017	1.133	0.956	1.327	0.905	0.839	0.894	0.822	0.902	1.066	1.478	1.145	1.184	1.063	1.668	4.288	10.41	16.17	17.32	9.140	2.777	0.578	0.461	0.425	0.491	0.584	0.514	0.457	0.483	0.744	0.465	0.561	0.474	0.522	0.505	0.450	0.565	0.622	0.650	0.640	0.489
250.0	23.64	60.54	149.9	200.2	695.1	 2655	 4736	 2706	229.3	14.13	11.44	11.09	8.853	7.688	5.832	4.742	3.879	3.926	3.428	3.262	3.139	3.051	2.590	2.463	2.045	2.052	1.762	1.774	1.605	1.596	1.486	1.503	1.196	1.353	1.293	1.077	1.085	1.239	1.048	1.145	1.061	0.926	0.872	0.884	0.854	0.783	1.016	1.364	1.372	1.075	1.169	1.583	2.927	5.283	9.831	14.56	18.29	15.58	8.969	3.015	0.596	0.642	0.610	0.527	0.581	0.577	0.568	0.607	0.596	0.557	0.526	0.431	0.556	0.568	0.546	0.559	0.450
255.0	20.29	27.43	82.36	246.8	289.5	623.9	 1962	 6592	 4188	310.1	15.74	11.67	10.30	6.584	5.904	5.613	5.970	4.266	3.419	3.856	3.192	3.090	3.042	2.513	1.790	2.480	2.130	1.825	1.616	1.836	1.687	1.341	1.340	1.253	1.151	1.017	1.002	1.233	0.968	0.947	0.835	0.868	0.894	1.155	1.048	0.958	0.854	0.826	1.145	0.992	1.480	1.698	1.467	1.789	2.608	3.891	7.087	15.13	27.03	29.31	14.60	3.458	0.772	0.637	0.659	0.671	0.687	0.594	0.577	0.534	0.556	0.523	0.616	0.736	0.541	0.634	0.458
260.0	21.64	22.80	34.41	161.1	317.9	224.7	490.9	 3225	 8906	 3539	187.3	12.67	10.93	8.659	7.354	6.510	5.523	4.112	4.041	3.450	3.497	3.331	2.832	2.351	2.333	2.709	1.976	2.084	1.816	1.919	1.498	1.523	1.707	1.364	1.178	1.229	0.894	1.194	0.904	1.004	0.809	1.014	0.973	1.083	1.062	0.941	0.756	0.645	0.852	0.829	1.116	1.642	1.718	1.341	1.163	1.452	2.106	4.498	11.70	25.88	37.53	30.17	11.58	2.061	0.608	0.670	0.621	0.524	0.540	0.640	0.523	0.443	0.589	0.539	0.536	0.504	0.637
265.0	29.56	31.26	26.25	61.10	260.7	316.1	168.0	846.1	 5160	9999.9	 2785	86.96	16.20	13.05	8.362	7.305	5.579	4.182	4.022	4.087	3.737	3.197	3.272	2.316	2.079	2.320	1.897	2.077	1.600	1.676	1.446	1.757	1.266	1.530	1.001	1.293	0.958	1.170	1.161	1.003	0.786	0.918	1.088	1.016	1.140	0.896	1.055	0.855	0.788	0.716	0.881	1.006	1.593	2.247	1.429	1.228	1.257	1.626	3.426	8.143	19.50	38.30	46.01	27.26	6.555	1.010	0.619	0.581	0.606	0.544	0.464	0.426	0.684	0.537	0.576	0.452	0.517
270.0	76.56	53.77	45.05	39.03	103.1	294.3	370.9	305.1	 1359	 5018	 9895	 5745	184.8	17.25	12.47	9.313	7.207	5.057	4.611	4.105	3.855	3.120	3.137	2.732	2.243	2.224	2.143	2.139	1.846	1.648	1.806	1.665	1.566	1.477	1.236	1.361	1.378	1.229	1.372	1.196	0.997	1.109	1.238	1.059	1.349	0.944	0.937	0.969	0.903	0.867	0.890	0.861	0.964	1.413	1.923	2.238	2.195	1.622	1.512	2.515	5.213	11.48	21.38	34.06	42.51	41.04	21.30	5.813	0.796	0.679	0.627	0.510	0.544	0.411	0.652	0.561	0.500
275.0	185.0	140.1	99.45	69.88	56.17	124.3	385.2	582.3	487.0	 1281	 3531	9999.9	 9386	231.6	18.78	11.51	8.295	7.114	5.452	4.645	3.928	3.563	3.275	2.690	2.622	2.184	2.276	2.360	2.200	2.412	1.729	1.834	1.542	1.490	1.240	1.405	1.398	1.308	1.246	1.441	1.278	1.330	1.265	1.574	1.431	1.334	1.056	1.159	1.102	0.977	0.911	0.934	0.975	1.023	1.028	1.065	2.367	3.761	2.706	1.931	2.256	3.511	5.640	8.777	13.89	29.31	59.67	53.01	29.43	5.707	0.811	0.452	0.651	0.497	0.554	0.693	0.432
280.0	255.8	217.7	195.3	113.6	79.19	93.90	220.5	681.0	573.1	532.5	 1067	 4500	9999.9	 2556	142.4	13.95	10.96	7.462	6.423	5.422	3.616	4.194	3.500	3.198	3.166	2.915	2.613	2.208	2.335	2.174	2.015	1.896	1.701	1.489	1.449	1.562	1.547	1.678	1.315	1.649	1.598	1.786	1.716	1.915	1.889	1.881	1.299	1.272	1.390	1.151	1.168	0.913	0.907	0.938	1.031	1.018	1.456	2.693	3.784	3.948	2.460	1.982	2.421	3.437	4.671	8.341	22.32	49.22	80.03	48.74	19.10	1.881	0.768	0.657	0.721	0.547	0.613
285.0	302.4	294.6	289.3	185.8	118.6	103.4	167.6	451.1	927.4	578.3	603.0	 1372	 6052	9999.9	 1941	75.91	13.42	9.794	6.438	6.119	5.309	3.922	3.633	3.353	2.591	2.880	2.841	2.489	2.523	2.428	2.404	2.023	1.547	1.694	1.536	1.817	1.682	1.842	1.654	1.848	2.157	1.819	2.449	1.933	2.237	2.209	2.106	2.040	1.650	1.461	1.135	1.001	0.921	0.822	1.106	1.145	1.304	1.808	2.432	3.947	4.541	3.162	2.606	2.404	2.876	3.364	6.254	14.31	35.93	68.60	85.61	37.74	8.359	1.203	0.761	0.708	0.577
290.0	361.7	427.4	427.8	303.6	190.0	143.4	188.8	328.2	709.4	 1117	881.8	821.4	 1860	 5540	9999.9	 6949	113.1	14.72	9.838	6.787	5.564	4.628	4.191	3.414	3.207	2.922	3.033	2.577	2.524	2.629	2.346	2.143	1.642	1.641	1.571	2.067	2.011	2.013	2.017	2.039	2.335	2.022	2.408	2.314	2.634	2.396	2.333	2.638	2.088	1.828	1.475	1.571	1.346	1.115	1.373	1.238	1.426	1.619	1.867	2.489	3.517	4.347	4.992	4.450	3.769	3.291	3.907	5.388	10.18	19.69	37.30	53.60	55.32	58.28	25.20	7.633	0.905
295.0	397.6	517.8	550.6	408.8	269.9	209.7	242.7	345.7	557.9	939.6	 1591	 1087	 1075	 1650	 3194	9999.9	 9596	146.3	14.20	10.41	7.599	5.888	5.100	3.940	3.699	3.603	3.186	2.277	2.713	2.813	2.167	2.086	1.943	1.519	1.805	1.825	2.096	2.425	2.371	2.436	2.316	2.307	2.359	2.465	2.905	2.330	2.873	2.720	2.343	1.967	1.848	1.533	1.522	1.281	1.470	1.437	1.388	1.761	1.971	2.094	2.571	3.288	4.532	5.781	7.647	5.784	4.128	4.669	4.885	6.577	10.41	13.79	16.89	39.30	82.05	59.76	35.06
300.0	403.9	553.3	595.5	461.6	322.7	260.1	275.6	374.6	562.3	825.9	 1509	 1735	 1080	895.4	 1013	 3890	9999.9	 6914	100.1	13.30	9.860	6.209	5.839	4.454	4.218	3.914	3.044	2.818	2.605	2.705	2.092	2.096	2.080	1.702	1.898	2.045	2.366	2.631	2.439	2.255	2.561	2.525	2.616	2.227	2.778	2.989	3.039	2.681	2.594	2.440	1.998	1.738	1.605	1.683	1.403	1.731	1.486	1.903	2.204	2.434	2.499	3.459	4.104	4.488	6.763	8.396	6.926	5.304	4.562	4.353	4.839	4.893	5.363	10.79	28.44	62.40	101.3
305.0	406.0	570.9	605.8	514.8	355.5	298.3	330.0	428.1	591.0	822.8	 1243	 1923	 1514	870.3	618.8	 1106	 5292	9999.9	 1248	62.38	11.90	8.185	7.088	4.932	4.453	3.471	3.421	2.702	2.794	2.667	2.691	2.119	2.264	1.942	1.971	1.908	1.947	2.546	2.371	2.263	2.539	2.527	2.646	2.535	2.784	3.025	2.667	2.699	2.979	2.597	2.352	2.060	1.769	1.841	1.594	1.857	1.780	2.070	2.294	2.672	2.872	3.145	3.733	4.677	5.562	6.845	8.408	8.187	6.558	4.852	4.159	3.563	2.985	3.966	7.831	17.06	44.24
310.0	385.1	554.1	602.6	528.6	396.8	344.6	378.6	480.0	631.7	858.8	 1156	 1542	 1847	 1319	658.9	535.4	 1398	 5029	9999.9	 4942	79.43	12.22	9.460	6.656	4.950	4.289	3.794	3.195	3.320	2.976	2.760	2.473	2.182	1.915	2.068	2.038	2.269	2.478	2.325	2.418	2.423	2.350	2.268	2.453	2.654	2.982	2.687	2.963	2.766	2.375	2.056	2.016	2.240	2.114	1.895	2.125	2.040	2.340	2.421	2.867	2.928	3.500	4.061	4.616	4.832	5.686	6.540	7.715	8.382	7.628	5.328	3.865	3.178	2.942	3.258	5.586	11.54
315.0	379.9	506.0	629.3	560.6	416.8	384.4	393.6	505.0	658.5	901.5	 1136	 1378	 1535	 1694	 1056	514.3	550.0	 1282	 2985	9999.9	 7328	107.6	12.40	8.899	6.509	4.764	4.431	3.572	3.329	3.595	2.741	2.521	1.920	2.150	2.087	1.921	2.015	2.198	2.070	1.969	2.322	2.219	2.257	2.259	2.551	2.865	2.827	2.810	2.919	2.261	2.450	1.949	2.145	2.095	1.985	2.297	2.559	2.534	2.737	3.076	3.534	3.424	4.136	4.531	4.750	5.286	5.610	6.308	6.554	7.300	8.016	6.775	4.577	3.019	2.947	2.943	4.306
320.0	371.9	559.8	712.7	610.3	452.9	405.0	439.6	554.7	697.7	923.1	 1167	 1377	 1454	 1505	 1499	700.9	433.6	498.7	811.4	 3790	9999.9	 5617	77.57	11.30	8.075	6.151	4.653	4.373	4.066	3.256	2.508	3.025	1.893	2.270	1.955	1.836	1.930	2.492	2.061	2.074	2.166	2.458	2.510	2.522	2.597	2.762	2.890	3.294	2.952	2.474	2.452	2.196	1.912	2.169	2.074	2.084	2.401	2.852	2.451	3.055	3.664	3.508	4.258	4.464	5.183	5.396	5.893	5.970	6.165	6.115	6.846	8.084	7.267	4.991	2.972	3.054	3.030
325.0	366.6	657.0	845.5	744.4	499.9	428.6	455.0	577.4	739.5	960.0	 1183	 1403	 1487	 1396	 1465	 1101	508.9	380.4	362.6	995.3	 5339	9999.9	931.6	47.66	9.765	7.148	5.365	4.483	3.800	3.567	2.868	3.019	2.290	2.248	2.096	1.980	2.174	2.499	2.249	2.101	1.982	2.150	2.411	2.726	2.692	3.213	3.106	3.563	3.533	3.027	2.668	2.689	2.068	2.084	2.104	2.115	2.149	3.503	2.635	3.152	3.736	3.926	4.095	4.781	5.322	5.527	6.031	6.419	6.627	5.937	5.960	6.278	7.225	7.778	5.407	3.429	3.256
330.0	397.8	680.8	960.3	886.0	616.2	492.1	509.4	605.3	754.2	972.2	 1213	 1422	 1494	 1411	 1279	 1208	902.8	485.1	333.9	404.0	 1364	 4888	 9921	 3810	63.12	12.02	7.578	5.561	4.198	3.961	3.310	3.452	2.414	2.310	2.049	2.092	2.125	2.415	2.318	2.193	2.192	2.066	2.397	2.510	2.759	3.494	3.448	3.987	3.941	3.432	3.084	2.947	2.609	2.415	2.158	2.521	2.626	2.907	2.990	3.084	3.696	4.016	4.622	4.506	5.223	5.454	5.815	6.222	6.606	6.347	6.408	6.137	5.976	6.680	6.603	6.041	5.485
335.0	433.3	693.3	 1049	 1023	758.5	589.9	577.1	657.0	791.7	 1002	 1236	 1433	 1531	 1473	 1261	 1060	 1056	834.4	427.7	343.6	491.5	 1224	 3089	9999.9	 5862	86.99	11.42	7.509	5.665	4.535	4.232	3.773	2.417	2.465	1.960	2.183	2.298	2.157	2.401	2.090	2.089	2.176	2.400	2.624	2.766	3.497	3.591	4.474	4.451	3.888	3.312	3.207	3.421	3.042	2.486	2.938	2.915	3.006	3.501	3.546	3.590	3.759	4.590	4.979	5.562	5.526	5.876	6.143	6.900	6.556	6.208	5.874	5.592	6.027	5.721	5.843	6.493
340.0	426.3	730.0	 1064	 1077	861.7	702.0	650.9	708.6	848.9	 1036	 1247	 1446	 1561	 1504	 1316	 1069	947.2	 1036	635.9	388.7	351.7	456.4	829.0	 4063	9999.9	 4623	62.84	11.13	6.662	5.528	4.492	4.387	3.211	2.567	2.107	2.240	2.176	2.230	2.113	2.033	2.439	2.490	2.264	2.692	2.565	3.267	4.010	4.721	4.371	4.057	3.690	4.045	3.334	3.295	2.780	3.032	2.868	2.957	3.467	3.851	3.724	3.987	4.615	5.078	5.265	5.846	6.056	6.156	6.178	6.903	6.357	7.011	5.841	5.913	5.321	5.223	5.361
345.0	424.6	719.9	 1082	 1116	945.2	774.5	755.2	788.6	925.4	 1058	 1244	 1451	 1520	 1516	 1365	 1117	913.2	947.4	912.4	516.3	371.7	339.2	362.0	 1067	 5671	9999.9	768.4	39.89	8.557	6.891	4.754	4.158	3.370	2.815	2.287	2.610	2.415	2.370	2.128	2.352	2.303	2.126	2.332	2.773	2.787	3.215	3.772	4.453	4.209	3.969	3.942	3.942	3.352	3.459	3.125	3.182	3.148	3.529	3.654	3.782	4.219	3.927	4.677	5.575	5.169	5.196	6.199	6.079	6.752	6.772	6.502	7.097	6.352	5.884	5.574	5.693	5.045
350.0	401.7	680.7	 1029	 1140	 1041	919.6	901.8	927.6	 1038	 1171	 1321	 1486	 1550	 1539	 1414	 1191	984.2	875.6	915.2	822.1	528.1	396.6	335.0	428.4	 1467	 5199	 9306	 3241	54.15	10.28	6.723	5.181	3.803	2.899	2.627	2.623	2.498	2.125	2.097	2.302	2.198	2.296	2.401	2.564	2.906	3.147	3.332	4.105	4.336	3.930	4.031	4.084	3.980	3.959	3.709	3.776	3.979	3.654	4.327	4.055	4.576	4.845	4.925	5.642	5.545	5.880	6.330	6.528	6.936	6.769	6.353	6.804	7.148	6.424	5.789	5.964	5.639
355.0	397.9	665.5	996.0	 1165	 1105	 1081	 1094	 1112	 1200	 1319	 1442	 1520	 1576	 1592	 1456	 1264	 1084	934.1	860.2	903.8	844.0	541.6	421.3	367.8	524.1	 1298	 3175	9999.9	 5019	73.00	10.43	7.102	4.883	3.997	2.726	2.378	2.632	2.392	2.370	2.183	2.256	2.587	2.400	2.269	3.040	3.168	3.507	4.191	4.238	3.810	3.867	4.091	4.654	4.425	4.272	4.133	4.545	4.361	5.236	4.967	5.018	6.210	5.576	5.860	5.834	6.738	6.421	6.534	6.915	6.619	6.569	7.393	6.686	6.428	6.169	7.003	5.943
360.0	387.8	656.3	975.3	 1143	 1174	 1190	 1196	 1233	 1308	 1423	 1535	 1576	 1625	 1590	 1500	 1316	 1143	 1002	903.7	862.7	967.2	748.8	500.0	414.2	365.8	466.3	847.1	 4400	9999.9	 3898	50.25	8.445	5.793	4.240	3.589	2.970	2.820	2.131	2.317	2.469	2.499	2.038	2.072	2.850	2.898	3.066	3.423	3.907	4.096	3.643	3.812	4.576	4.900	4.368	4.786	4.887	4.966	4.803	5.223	5.013	5.307	6.282	6.081	5.982	6.292	6.761	6.229	6.696	6.969	7.338	6.871	7.293	7.056	7.059	6.336	6.751	6.541
365.0	369.8	607.7	929.1	 1141	 1233	 1262	 1277	 1333	 1410	 1525	 1595	 1626	 1645	 1603	 1518	 1353	 1194	 1061	963.4	878.0	913.3	951.2	643.1	478.4	380.3	330.1	345.6	 1140	 6089	9999.9	676.2	29.32	7.365	5.806	4.052	3.192	2.804	3.103	2.442	2.719	2.358	2.159	2.216	2.726	2.731	2.917	3.226	3.886	4.058	3.730	3.861	4.911	4.769	4.310	4.939	4.912	5.165	5.281	5.514	5.355	5.829	6.073	6.919	6.265	6.160	6.306	6.569	6.659	7.299	6.869	6.800	6.798	7.377	7.388	6.932	6.806	7.050
370.0	377.7	587.5	884.3	 1132	 1234	 1316	 1337	 1413	 1493	 1592	 1659	 1678	 1672	 1610	 1526	 1385	 1253	 1131	 1039	959.5	909.4	942.1	892.2	637.9	473.8	376.2	293.9	404.3	 1556	 5548	 9052	 2806	43.85	8.253	4.968	4.376	3.233	3.446	2.893	2.372	2.392	2.405	2.547	2.840	2.706	3.007	3.155	3.997	4.033	3.701	3.752	4.739	4.964	4.983	5.305	5.299	5.344	5.630	5.665	5.764	5.945	6.032	6.469	6.494	6.632	6.887	6.455	6.966	6.957	6.781	6.847	7.044	7.503	7.389	7.379	6.948	7.075
375.0	369.7	544.1	859.8	 1132	 1301	 1357	 1418	 1491	 1544	 1654	 1704	 1726	 1689	 1632	 1541	 1403	 1288	 1191	 1108	 1046	979.4	934.8	949.4	902.0	642.5	490.3	375.5	309.3	498.2	 1339	 3418	9999.9	 4110	56.57	8.092	5.403	3.669	3.585	2.814	2.792	2.606	2.611	2.582	2.433	3.204	2.763	2.905	3.447	3.852	3.549	3.895	5.076	5.131	5.293	5.110	5.867	5.631	5.799	6.221	5.806	6.452	6.794	6.727	7.178	7.224	6.913	7.385	6.855	6.927	7.336	7.487	7.494	7.772	6.894	7.243	7.126	7.523
380.0	359.0	556.0	833.1	 1118	 1290	 1402	 1469	 1510	 1579	 1658	 1748	 1743	 1696	 1628	 1539	 1409	 1313	 1218	 1152	 1091	 1031	978.6	936.8	987.1	819.2	586.8	454.6	342.1	308.6	430.2	874.6	 4754	9999.9	 2977	36.14	7.063	4.473	4.248	3.450	3.118	2.948	2.597	2.738	2.295	3.154	3.136	3.133	3.253	3.840	3.411	3.796	4.304	4.895	5.237	5.719	5.987	5.925	6.087	5.788	6.431	6.868	6.846	7.428	7.109	7.504	6.744	7.094	7.411	7.314	7.307	7.700	7.364	7.021	7.418	7.493	6.862	7.596
385.0	352.0	553.4	820.7	 1079	 1258	 1371	 1483	 1505	 1592	 1677	 1734	 1726	 1678	 1613	 1521	 1384	 1298	 1234	 1178	 1122	 1067	 1025	957.1	948.9	959.1	719.5	525.8	399.7	306.2	261.6	308.3	 1226	 6254	 9684	519.0	19.45	6.370	4.964	3.635	3.205	2.902	2.632	3.040	2.489	3.447	3.055	3.000	3.354	4.006	3.780	3.652	4.595	5.271	5.435	5.570	5.984	6.502	5.964	5.614	6.247	6.406	6.703	6.757	7.243	7.224	6.571	7.108	7.133	6.982	7.617	7.310	7.673	7.091	7.014	7.087	6.768	7.295
390.0	362.2	557.1	793.9	 1057	 1244	 1378	 1464	 1487	 1559	 1630	 1669	 1662	 1658	 1561	 1495	 1372	 1295	 1237	 1185	 1150	 1094	 1062	991.0	933.0	935.5	870.0	651.5	475.1	362.4	277.4	227.6	381.2	 1598	 5323	 7268	 2132	34.10	7.500	5.081	3.793	3.094	2.781	3.054	2.905	3.002	2.938	3.154	3.281	3.606	3.638	3.807	4.634	4.790	5.039	5.035	5.608	6.042	5.874	5.994	5.984	6.468	6.591	6.815	6.782	7.064	6.697	7.005	6.960	7.313	7.502	7.080	7.364	7.390	7.158	6.846	7.421	7.611
395.0	349.0	519.9	764.9	998.2	 1245	 1371	 1455	 1492	 1526	 1587	 1601	 1631	 1595	 1519	 1445	 1343	 1271	 1224	 1194	 1158	 1118	 1081	 1027	961.6	914.8	874.1	830.7	598.3	435.0	338.3	258.7	236.5	462.3	 1264	 2934	 8251	 3207	43.50	7.770	5.004	3.983	3.490	2.808	3.171	2.942	2.857	3.328	3.513	3.439	3.566	3.555	4.606	5.167	4.984	4.875	5.529	5.805	6.085	6.080	6.187	6.742	6.189	7.021	6.194	6.382	6.254	6.899	7.290	6.806	7.064	6.465	7.221	6.983	6.863	6.693	7.123	7.438
400.0	312.0	498.7	727.1	939.0	 1201	 1333	 1418	 1483	 1502	 1560	 1585	 1575	 1541	 1496	 1398	 1321	 1245	 1207	 1189	 1148	 1112	 1081	 1035	982.3	915.4	855.4	851.7	720.9	501.1	394.5	304.2	236.1	233.2	372.9	749.2	 4164	 8391	 2264	28.65	6.644	4.497	4.100	3.098	3.118	3.060	2.867	3.492	3.430	3.190	3.899	3.727	4.217	4.860	5.513	5.141	5.414	5.844	5.743	6.299	5.977	6.169	6.385	6.689	6.153	6.386	6.468	6.391	7.199	6.525	6.874	6.227	7.227	6.860	7.173	6.743	6.781	7.473
405.0	318.9	514.7	706.4	957.9	 1152	 1287	 1409	 1425	 1494	 1515	 1560	 1535	 1509	 1436	 1372	 1296	 1229	 1180	 1174	 1122	 1108	 1069	 1037	985.8	921.7	854.1	814.5	803.5	601.1	440.2	348.0	268.0	214.0	197.6	254.3	 1085	 5299	 7464	430.2	14.90	5.504	4.225	3.599	3.214	3.134	2.767	3.282	3.556	3.236	3.546	3.457	4.257	4.931	5.115	5.065	5.386	5.573	5.867	5.711	5.732	6.036	6.267	6.132	6.309	6.184	6.391	6.388	6.517	6.549	6.566	6.553	6.877	6.018	7.010	6.580	6.302	6.912
410.0	310.5	495.2	692.7	907.4	 1111	 1234	 1354	 1381	 1437	 1471	 1494	 1484	 1435	 1372	 1309	 1231	 1179	 1148	 1129	 1093	 1086	 1050	 1018	980.3	920.1	861.7	790.5	759.5	715.1	546.0	405.6	315.4	246.4	192.5	165.1	322.5	 1361	 4308	 4770	 1689	29.14	6.018	4.354	3.782	3.373	3.091	3.383	3.392	3.338	3.444	3.611	4.201	4.497	4.571	5.070	4.937	5.430	5.866	5.663	5.683	5.626	6.174	5.717	5.886	6.078	6.308	5.930	6.611	6.478	5.966	6.357	6.398	6.334	6.318	6.962	6.483	6.799
415.0	307.0	454.8	663.7	877.4	 1067	 1193	 1298	 1326	 1400	 1410	 1427	 1407	 1365	 1290	 1243	 1171	 1122	 1097	 1083	 1064	 1038	 1011	990.1	954.0	910.0	859.2	791.2	732.1	696.6	656.4	486.1	360.1	283.1	215.5	165.4	167.4	371.4	 1013	 2184	 6344	 2614	38.09	5.735	4.571	3.544	3.306	3.262	3.495	3.196	3.390	3.237	4.163	4.178	4.364	4.868	4.744	5.400	5.368	6.112	5.514	5.699	6.128	5.661	5.900	6.034	6.196	5.765	6.161	6.110	5.796	5.782	5.728	6.186	5.358	6.738	5.813	6.293
420.0	280.2	461.2	622.0	838.3	974.3	 1148	 1255	 1311	 1371	 1367	 1387	 1360	 1307	 1248	 1199	 1122	 1092	 1042	 1052	 1013	 1001	983.8	954.8	936.6	886.1	852.0	796.3	725.9	666.7	666.9	569.3	402.3	307.2	238.4	181.7	146.5	161.7	279.3	549.2	 3268	 6499	463.0	22.75	5.492	3.936	3.696	3.240	3.105	3.319	3.155	3.235	4.046	4.051	4.585	4.438	5.068	4.767	4.697	5.670	5.382	5.047	5.565	6.297	5.606	5.722	5.907	6.019	6.091	5.487	5.425	5.536	5.843	5.630	5.320	5.989	6.511	6.439
425.0	273.7	418.6	610.0	826.6	953.6	 1066	 1213	 1277	 1312	 1335	 1369	 1316	 1273	 1196	 1155	 1093	 1048	 1010	 1004	985.0	964.2	949.7	920.9	910.5	868.8	830.5	792.6	723.9	666.7	637.4	617.6	466.2	330.9	260.0	197.1	156.6	126.8	125.5	167.0	843.6	 4163	 5318	386.1	11.13	4.625	4.070	3.580	3.042	3.043	3.276	3.343	4.007	4.294	4.286	4.109	4.538	5.395	4.898	5.000	5.010	5.472	5.560	6.215	5.580	5.552	5.706	5.225	5.263	5.453	5.523	5.645	5.638	5.453	5.342	6.177	5.950	6.325
430.0	445.2	399.7	573.6	770.7	897.7	 1033	 1138	 1233	 1265	 1298	 1326	 1266	 1215	 1155	 1087	 1030	980.9	965.8	951.7	923.5	917.4	904.0	884.8	871.1	845.5	811.5	765.1	713.9	665.4	610.5	580.0	539.2	401.7	290.1	225.7	178.4	137.0	107.0	94.39	229.2	 1062	 3169	 3935	 1473	26.07	5.316	4.319	3.490	3.399	3.263	3.193	3.719	3.927	4.061	4.196	4.191	4.786	4.941	4.943	4.906	5.789	5.418	5.431	5.590	5.036	5.568	5.433	5.424	5.423	5.265	5.452	5.565	5.524	5.195	5.652	5.688	5.890
435.0	832.6	432.1	553.1	712.6	834.7	999.8	 1066	 1158	 1221	 1261	 1270	 1231	 1178	 1075	 1027	970.6	910.6	910.4	901.6	873.4	862.4	848.0	832.6	825.4	804.5	779.0	748.3	713.2	662.1	611.0	556.2	511.8	474.0	346.0	254.5	199.0	155.3	121.4	93.44	105.6	275.4	740.1	 1729	 5125	 2292	34.71	5.686	4.308	4.103	3.508	3.091	3.550	3.828	3.957	4.057	4.468	4.846	4.799	4.935	5.278	5.213	5.374	4.831	5.589	4.679	5.338	5.218	5.387	5.697	5.341	5.043	5.034	4.881	5.138	5.866	5.096	5.239
440.0	 1023	607.7	534.8	670.9	815.4	944.7	 1060	 1143	 1221	 1225	 1226	 1174	 1125	 1050	993.1	918.9	875.3	865.8	848.7	841.0	822.9	805.5	807.7	794.8	775.8	755.8	723.9	694.9	648.0	612.2	548.5	496.7	476.9	394.5	278.1	213.5	170.7	131.0	101.4	84.83	107.6	200.0	429.5	 2588	 5524	419.1	22.31	5.212	4.046	3.823	3.232	3.655	3.754	3.735	4.056	4.402	4.854	4.647	4.968	5.404	5.359	5.429	5.077	5.693	4.684	5.099	4.605	4.972	5.447	5.250	4.557	4.906	4.520	4.913	5.390	5.094	5.413
445.0	893.2	 1008	537.5	630.4	776.1	897.8	 1029	 1108	 1150	 1177	 1191	 1134	 1066	 1012	943.9	877.1	839.8	825.9	802.1	799.5	786.7	773.1	775.0	753.8	744.4	731.3	702.3	674.3	634.8	603.6	549.6	482.8	441.7	422.6	319.3	230.8	185.5	142.8	115.6	89.69	77.80	85.49	125.6	660.5	 3430	 4833	339.4	12.75	5.200	4.028	3.442	4.055	4.048	3.887	4.187	4.267	4.826	4.575	4.899	5.034	5.209	5.208	5.032	5.473	4.914	5.151	4.585	4.447	5.318	4.930	4.655	4.612	4.638	4.710	4.747	4.923	4.896
450.0	469.3	 1395	840.6	621.9	723.2	845.2	957.0	 1049	 1113	 1135	 1121	 1078	 1012	944.0	886.8	831.1	781.5	767.0	740.7	737.1	729.9	722.0	711.8	704.4	695.2	687.0	669.7	644.0	620.5	583.8	535.2	478.6	419.0	385.9	354.6	268.8	202.3	159.6	130.0	102.9	81.48	68.74	67.24	177.4	865.6	 2815	 3452	 1474	23.87	5.127	3.910	4.117	3.925	3.929	3.973	3.978	4.301	4.583	4.914	4.695	5.132	4.879	4.904	5.172	4.925	4.934	4.564	4.347	4.623	4.555	4.364	4.594	4.376	4.475	4.458	4.813	4.440
455.0	260.4	956.7	 1640	656.7	689.6	799.2	878.3	987.1	 1041	 1062	 1045	 1004	938.0	888.3	813.7	761.0	724.2	699.2	682.8	671.5	661.3	658.3	653.5	647.1	641.4	634.8	622.8	603.9	580.1	557.3	519.1	463.2	403.1	357.7	327.8	303.6	229.8	174.7	144.2	117.3	93.46	74.57	61.45	75.55	220.2	652.9	 1425	 4575	 2109	29.27	5.299	4.494	3.814	4.185	3.838	3.804	4.186	4.181	4.419	4.388	4.755	4.636	4.411	4.652	4.915	4.546	4.490	4.556	4.200	4.513	4.279	4.675	4.180	4.077	4.134	4.467	4.742
460.0	190.5	507.0	 2078	 1015	639.3	748.4	848.6	930.0	987.1	 1021	 1011	952.9	895.9	837.0	774.8	704.5	671.2	642.3	636.7	619.6	615.1	617.8	606.8	603.7	594.1	597.5	585.7	575.5	557.6	524.3	498.6	448.7	394.8	347.9	311.6	300.7	260.3	188.3	152.7	125.0	100.6	81.08	65.85	54.94	80.96	170.0	348.4	 2145	 4758	 1511	21.23	5.488	4.061	4.031	3.647	3.949	4.350	4.075	4.465	4.439	4.503	4.171	4.344	4.627	4.576	4.311	4.020	3.875	3.996	4.199	4.193	4.132	3.968	3.857	3.765	4.266	4.317
465.0	194.3	305.9	 1673	 1809	615.0	692.6	791.9	873.2	938.8	942.9	955.2	912.9	835.9	794.0	732.5	663.5	627.0	597.2	592.4	586.4	578.0	571.3	561.6	559.3	557.2	558.0	550.2	532.1	520.9	501.8	474.9	431.3	377.9	335.7	296.9	270.1	264.7	207.5	157.7	130.4	106.4	86.92	71.79	57.16	53.08	66.17	99.60	532.5	 2725	 4381	300.5	13.52	4.823	4.367	3.863	3.680	3.688	4.173	4.355	4.135	4.220	4.133	4.196	4.038	3.992	3.902	3.927	4.165	3.619	3.751	4.038	3.911	3.715	3.661	3.095	3.831	4.255
470.0	183.0	246.1	797.6	 2346	 1162	616.8	709.9	802.0	849.7	867.7	865.9	827.4	772.4	716.6	660.0	611.3	567.5	546.6	527.9	530.4	516.6	512.9	507.3	505.4	506.7	505.1	495.3	488.8	478.9	461.2	444.2	406.1	360.3	314.3	281.2	246.5	237.4	222.3	175.5	135.2	111.9	92.47	76.36	61.27	50.73	45.90	47.23	139.0	673.1	 2231	 2557	 1364	24.29	5.211	4.427	3.996	3.983	3.852	4.224	3.909	3.940	4.084	3.574	3.898	4.115	3.673	3.959	3.892	3.467	3.623	3.598	3.702	3.394	3.491	3.321	3.638	3.517
475.0	171.9	239.3	422.1	 1537	 2403	666.6	654.9	715.7	767.9	793.8	790.5	757.5	698.0	656.7	591.7	553.0	514.0	493.9	479.2	471.4	462.1	452.0	452.8	451.0	453.7	447.5	440.9	434.4	434.4	420.2	403.4	371.0	329.7	300.3	260.9	233.9	209.3	203.9	191.8	149.4	115.1	95.98	82.27	66.53	54.76	46.04	39.01	53.46	168.3	512.7	955.9	 3012	 1780	34.45	5.554	4.152	3.888	3.917	3.828	3.603	3.999	3.740	3.598	3.600	3.636	3.598	3.308	3.684	3.162	3.518	3.417	3.296	3.410	2.971	2.999	3.502	3.046
480.0	146.2	225.7	325.1	763.6	 2774	 1041	592.2	660.7	707.3	743.7	735.7	724.4	647.6	610.9	562.6	505.0	466.3	449.5	435.2	436.2	426.8	421.5	412.0	408.5	414.6	409.7	408.8	403.1	402.0	391.3	374.9	353.0	312.9	285.6	251.3	225.0	200.7	185.5	183.7	162.0	119.4	98.01	81.00	68.88	56.75	46.62	39.36	36.22	57.15	130.3	231.0	 1284	 3383	 1261	22.99	4.713	4.573	4.117	3.592	3.434	3.439	3.574	3.371	3.467	3.194	2.956	3.312	3.214	3.211	3.046	3.111	3.079	3.463	2.954	3.026	3.261	3.104
485.0	146.0	221.3	277.2	443.5	 2116	 2103	583.0	626.1	671.6	690.7	701.3	660.3	605.3	572.1	531.2	461.3	444.6	419.0	406.6	396.0	386.4	389.3	382.3	381.7	384.0	375.7	380.1	373.7	375.7	371.3	353.8	332.1	296.8	271.6	238.2	214.3	193.3	173.6	166.0	166.4	133.2	101.0	82.36	69.52	58.95	49.15	41.39	34.30	33.03	45.82	65.76	315.8	 1788	 3085	336.8	13.17	4.844	3.853	3.438	3.207	3.309	3.129	3.154	3.160	3.264	2.669	3.169	3.230	3.284	2.888	3.170	3.020	2.768	2.723	2.871	3.284	2.839
490.0	129.9	214.5	259.3	332.9	954.7	 2674	 1222	571.8	609.3	631.9	644.6	602.8	564.5	517.0	473.5	421.6	396.1	381.2	369.9	355.3	353.1	349.3	340.8	340.9	346.2	341.2	340.4	338.9	339.0	333.3	322.3	302.6	278.0	249.1	225.0	201.7	181.5	162.3	149.2	145.9	138.0	110.2	85.39	70.47	61.61	52.31	45.70	37.27	31.39	29.28	30.59	83.66	435.6	 1442	 2327	 1277	26.39	4.957	3.881	3.503	3.517	3.143	3.233	3.041	3.189	2.950	3.075	2.931	3.206	2.691	2.821	2.697	2.800	2.499	2.865	2.910	2.670
495.0	106.2	177.4	272.0	301.7	499.5	 1669	 2612	630.1	555.5	574.3	572.3	545.6	508.0	459.2	426.9	385.9	358.1	337.4	330.7	320.1	312.3	308.9	301.7	302.1	309.7	302.4	300.1	306.0	301.8	298.8	290.3	275.4	250.5	226.1	209.7	185.0	166.6	150.4	138.1	128.3	126.0	119.8	91.87	71.40	63.48	53.57	47.87	38.64	32.43	28.26	24.55	34.72	110.1	333.8	803.8	 2632	 1707	36.02	4.508	3.641	3.551	3.303	3.034	2.939	2.968	2.762	2.701	2.685	2.666	2.571	2.596	2.585	2.317	2.358	2.629	2.814	2.128
500.0	90.64	145.9	262.3	286.7	351.7	784.0	 3070	 1166	525.6	513.7	536.8	512.8	468.6	433.7	392.2	361.0	323.8	306.9	304.4	289.0	281.1	277.7	276.4	275.9	280.1	274.7	272.9	275.6	279.6	276.4	268.3	252.6	229.3	212.2	193.1	176.4	158.9	144.5	131.1	119.5	112.3	113.7	99.30	76.07	61.99	53.25	48.48	41.22	34.24	29.95	24.02	24.53	38.87	86.31	193.3	 1101	 3006	 1200	23.99	4.530	3.761	3.490	2.768	2.610	2.897	2.621	2.645	2.506	2.428	2.422	2.773	2.409	2.380	2.245	2.462	2.165	2.394
505.0	95.28	134.7	232.2	280.1	293.2	431.1	 2298	 2250	503.2	480.7	484.9	467.1	431.7	391.3	360.7	328.0	304.0	282.3	278.3	262.2	259.3	254.3	245.5	249.7	253.7	249.3	249.8	255.0	256.0	253.1	244.4	232.7	213.2	195.0	180.9	165.2	148.8	135.3	126.5	112.1	102.2	103.5	99.97	80.06	63.09	53.95	47.92	40.52	36.43	31.25	26.45	22.34	24.11	32.73	55.86	269.0	 1559	 2912	358.4	11.08	4.209	3.478	3.248	2.532	2.693	2.550	2.264	2.341	2.678	2.180	2.481	2.409	2.367	1.988	2.225	2.301	2.223
510.0	75.25	119.8	178.6	291.4	262.8	315.6	990.6	 2976	 1137	430.4	439.5	418.1	384.3	347.5	325.6	291.3	266.7	250.1	241.9	238.3	229.6	221.2	218.9	218.4	221.7	220.0	220.8	224.6	223.6	224.0	215.5	204.6	191.5	175.3	162.1	148.0	136.0	124.2	114.8	103.7	91.74	89.02	87.68	83.71	68.60	54.99	47.04	41.07	36.97	31.74	27.62	23.16	21.33	22.05	25.31	71.62	381.4	 1358	 2081	946.6	24.98	4.079	3.243	2.624	2.741	2.533	2.104	2.059	2.387	2.038	2.100	2.275	2.284	1.870	2.003	2.104	2.464
515.0	66.05	103.2	150.9	243.4	271.6	279.1	430.4	 1797	 2788	495.4	385.0	362.6	343.8	311.7	284.1	257.2	231.8	219.4	212.5	207.3	199.7	194.4	193.3	191.5	189.4	192.0	193.4	194.3	196.8	194.4	189.2	183.2	167.6	156.6	143.3	132.2	122.3	109.9	104.9	94.30	86.01	80.45	72.94	78.40	72.44	58.31	47.29	41.40	35.51	31.81	27.40	23.97	21.03	19.51	19.11	28.27	96.13	312.3	725.9	 2156	 1302	32.83	3.694	2.682	2.853	2.387	2.504	2.145	2.135	2.056	1.909	1.675	2.224	2.091	1.911	1.927	2.455
520.0	64.40	89.27	140.2	193.2	277.3	248.3	298.8	790.0	 3384	 1066	349.0	331.7	306.7	291.8	252.8	230.1	211.1	196.6	187.8	186.8	175.9	178.5	170.4	172.2	173.4	174.5	174.8	172.6	175.3	174.3	171.6	165.6	151.2	138.4	129.7	123.6	110.0	104.1	95.45	89.14	79.33	74.78	66.43	65.56	70.33	61.01	46.64	40.20	33.98	31.55	27.71	23.65	21.25	19.61	17.20	18.50	32.11	79.17	173.4	930.2	 2351	393.8	19.49	3.054	2.722	2.409	2.266	2.001	1.750	1.963	1.787	1.483	1.627	1.819	1.675	1.687	1.753
525.0	61.58	83.35	129.3	159.9	258.4	246.6	245.9	400.1	 2523	 2369	349.4	308.2	276.2	258.3	234.4	206.6	193.7	179.6	171.5	168.4	165.5	159.5	155.3	156.1	153.3	153.7	158.1	157.4	157.8	157.9	154.2	149.7	136.6	127.7	120.0	112.4	102.1	95.50	86.27	81.53	73.93	68.55	62.30	57.64	60.32	60.80	49.69	38.97	33.95	30.33	26.43	24.00	20.50	18.73	16.90	16.02	17.30	26.45	46.11	226.4	 1234	 2026	320.7	7.530	3.038	2.390	2.188	2.018	1.831	1.874	1.910	1.815	1.662	1.747	1.577	1.481	1.633
530.0	61.24	74.37	105.1	136.0	212.2	258.5	222.1	275.2	 1001	 3178	 1025	265.9	242.3	223.6	208.5	181.6	171.1	160.8	149.4	148.0	143.5	139.5	135.5	137.2	135.8	135.4	136.5	135.8	140.5	138.7	138.3	131.0	120.5	114.0	107.7	100.9	91.61	84.96	79.12	72.30	66.64	61.36	55.20	52.12	50.83	51.98	51.09	40.64	32.30	27.89	24.92	22.85	19.85	18.04	17.04	15.02	14.02	14.93	17.51	56.74	299.8	 1000	 1531	681.1	21.85	2.807	2.273	1.846	1.935	1.590	1.888	1.813	1.568	1.508	1.639	1.396	1.430
535.0	58.86	68.83	96.36	116.9	155.5	244.8	220.0	222.3	399.6	 1796	 2889	344.1	217.5	198.9	186.5	161.3	148.1	137.1	134.5	127.4	122.2	122.8	116.1	119.2	117.3	120.1	117.3	117.4	121.3	118.2	120.8	113.8	103.9	99.41	92.06	84.92	79.12	73.62	70.62	65.58	58.47	55.54	50.03	46.09	44.68	42.03	45.75	43.11	33.49	27.28	23.69	21.60	18.42	16.92	16.01	14.09	12.72	12.94	11.19	18.39	72.11	228.4	548.9	 1628	407.8	26.21	2.294	1.881	1.815	1.483	1.499	1.553	1.329	1.432	1.419	1.324	1.445
540.0	66.55	63.04	88.00	109.3	129.9	195.1	228.6	196.6	254.5	726.1	 3491	913.0	194.8	177.1	166.6	146.2	130.8	119.6	118.5	114.4	110.7	109.0	104.4	101.9	103.9	101.4	104.3	103.5	105.6	107.2	105.9	102.0	93.88	89.94	82.66	76.35	71.97	66.55	62.44	58.79	54.36	50.78	46.63	42.50	39.96	37.65	38.72	41.50	34.88	26.36	22.15	20.25	17.13	16.36	15.10	14.43	12.80	10.64	9.442	10.12	21.06	55.36	129.6	732.4	 1581	355.0	11.14	2.298	1.912	1.677	1.428	1.302	1.583	1.549	1.312	1.551	1.015
545.0	57.78	64.22	83.05	95.02	112.2	171.0	245.1	179.0	208.0	333.3	 2516	 2254	196.8	161.2	142.6	130.0	118.5	107.0	106.1	100.9	97.53	96.73	92.53	90.14	93.86	94.01	92.84	93.82	93.73	94.50	92.37	87.26	83.63	79.39	73.48	68.61	64.15	59.59	57.90	51.74	49.88	45.85	42.39	38.41	35.68	33.13	32.89	35.83	35.63	27.10	21.44	18.83	16.70	15.50	13.78	13.34	12.30	9.899	8.423	7.902	9.678	16.43	32.81	178.9	923.2	 1429	244.9	4.526	2.046	1.469	1.322	1.463	1.300	1.048	1.215	1.023	1.151
550.0	60.79	62.44	82.87	78.93	95.61	127.7	208.4	193.1	173.9	212.0	933.0	 3106	793.9	145.5	121.4	111.2	100.4	93.40	89.51	87.10	82.05	80.74	78.19	79.92	77.99	77.92	79.58	78.55	78.47	78.93	78.21	74.94	70.20	66.09	64.13	57.84	54.89	51.32	47.68	45.06	43.23	38.96	36.75	33.10	30.74	29.36	27.18	27.64	29.35	27.66	21.07	17.20	14.59	13.63	12.72	11.67	11.00	9.441	7.666	7.007	6.613	7.757	10.67	43.19	227.1	749.6	 1065	232.1	16.77	1.703	1.662	1.461	1.282	1.112	1.176	1.068	1.140
555.0	69.94	70.24	74.35	70.14	78.19	102.3	145.8	213.2	162.8	168.5	338.0	 1632	 2600	182.3	104.6	91.06	85.09	75.15	74.26	70.45	66.40	66.11	65.08	64.82	64.42	62.22	64.92	63.48	63.52	63.99	63.97	62.26	61.06	55.70	52.01	48.03	44.62	42.35	38.87	37.98	36.46	32.31	31.21	28.42	26.21	25.39	23.94	22.37	22.24	24.41	22.04	16.09	13.68	12.43	11.36	9.998	10.03	9.246	7.723	6.438	5.445	6.504	5.911	12.63	53.67	170.6	413.0	 1046	363.3	16.58	1.890	1.467	1.344	1.241	1.187	0.984	1.172
560.0	58.70	75.46	77.57	68.89	80.69	84.16	107.3	206.3	170.2	140.6	199.1	591.8	 3195	353.5	88.22	79.76	75.11	66.87	64.43	62.91	56.63	56.42	56.56	53.63	54.22	53.63	55.27	54.08	53.40	54.98	54.67	53.01	48.68	45.45	44.10	40.81	39.18	36.35	34.71	32.26	30.89	28.56	26.67	26.62	22.81	21.03	21.12	19.43	18.32	19.98	20.66	16.41	11.75	11.02	10.24	8.889	9.058	8.092	7.431	6.155	5.321	5.226	4.530	5.595	15.09	41.04	98.33	509.1	 1023	262.0	5.587	1.603	1.349	1.194	1.313	0.980	1.066
565.0	57.49	68.23	80.61	75.56	68.59	71.65	86.14	158.6	182.0	135.4	149.6	232.5	 2180	 1749	88.47	69.76	60.08	55.89	54.72	54.22	50.27	49.76	47.33	45.92	48.01	45.62	46.09	45.13	45.65	46.08	46.23	45.21	41.58	39.82	38.40	33.88	33.05	30.77	29.36	27.36	26.72	23.72	22.01	21.08	19.54	17.83	17.68	17.10	15.16	15.44	17.47	15.78	11.41	10.19	8.873	8.318	8.071	7.099	6.007	6.177	5.578	4.674	4.199	4.033	6.353	11.94	24.98	126.6	636.2	850.7	50.22	2.364	1.357	1.030	1.187	1.003	1.004
570.0	61.31	70.35	71.55	64.61	64.70	62.78	75.54	109.6	195.9	136.1	127.2	142.6	740.6	 2614	570.2	57.80	50.08	46.47	44.97	40.95	39.68	40.19	38.92	37.69	38.07	37.01	37.34	36.71	38.03	36.79	37.76	35.92	34.25	32.10	30.77	28.07	26.45	24.98	23.04	22.40	21.39	19.61	18.56	17.58	16.17	15.31	14.82	13.49	12.67	12.07	12.59	13.40	11.79	9.490	7.368	7.409	6.726	6.071	5.560	5.413	5.476	4.484	4.385	3.736	4.375	5.561	8.164	30.69	159.6	478.2	506.6	197.0	10.71	1.242	1.219	0.865	0.830
575.0	52.68	69.43	70.94	64.52	56.59	57.88	53.74	75.87	155.4	181.5	117.1	119.8	238.4	 1312	 2061	90.10	42.14	39.77	37.99	32.64	30.86	32.20	32.79	30.58	30.15	29.59	29.22	28.52	30.52	28.39	29.29	28.04	27.29	25.57	24.01	21.38	20.41	19.68	17.88	18.39	17.40	15.62	15.20	13.96	13.10	12.24	12.00	11.41	9.993	9.486	8.907	9.163	10.48	9.346	6.746	5.942	5.741	5.407	5.388	4.535	4.614	4.426	3.952	3.757	3.864	3.815	4.531	9.590	37.63	109.6	233.6	623.9	239.3	6.749	1.224	0.839	0.848
580.0	58.82	68.57	65.65	60.51	49.33	52.36	55.05	71.02	112.7	190.4	128.3	115.1	134.2	442.0	 2606	240.0	36.89	32.69	32.53	29.79	26.67	26.09	25.35	24.78	26.33	25.07	25.48	23.67	25.84	24.52	24.47	23.32	22.72	21.87	19.97	18.44	16.93	17.06	15.46	14.85	14.57	13.02	13.11	11.34	11.20	10.75	10.19	9.607	9.229	7.624	7.214	7.262	8.376	8.511	7.246	5.480	5.126	4.445	4.625	3.870	4.011	4.120	4.325	4.005	3.990	3.438	3.544	4.335	10.27	26.41	57.44	321.7	579.7	54.03	2.581	0.984	0.825
585.0	59.44	63.77	67.10	69.21	53.14	50.42	53.49	64.33	88.91	186.5	145.5	109.7	103.2	164.6	 1725	 1346	38.15	28.81	29.73	25.50	22.87	23.32	21.64	21.24	21.58	22.22	21.54	20.51	21.17	21.66	20.01	19.88	18.83	17.89	17.57	15.66	14.97	14.43	13.77	13.31	12.40	11.99	11.64	10.55	9.992	9.389	8.597	8.179	8.087	6.740	6.077	5.731	7.134	7.325	7.109	5.241	4.844	4.169	3.753	3.581	3.551	3.612	3.920	3.508	3.534	3.255	3.335	3.341	4.149	7.811	14.65	82.27	384.0	425.2	42.21	1.294	0.993
590.0	54.48	57.30	69.44	57.76	50.33	44.06	49.60	58.96	78.11	139.5	173.5	107.4	94.23	89.78	547.8	 1971	389.8	26.26	22.09	20.77	19.05	19.49	17.22	17.45	17.56	17.93	16.93	17.25	17.48	17.97	16.54	16.17	15.43	14.64	14.11	13.05	12.66	11.60	11.03	10.33	10.54	9.707	8.670	8.567	7.891	7.698	7.226	7.036	6.550	5.873	5.369	4.715	4.844	5.686	6.486	5.890	4.374	3.874	3.524	3.431	3.358	3.087	3.229	3.531	3.408	2.851	2.939	2.851	2.765	3.469	4.830	19.95	98.24	275.8	343.0	118.9	5.689
595.0	57.41	56.39	60.88	63.91	44.96	43.24	44.72	56.85	63.48	94.15	184.1	119.8	90.53	72.84	159.3	932.0	 1483	45.92	18.44	17.50	16.22	14.13	14.07	13.69	14.54	13.45	13.11	13.70	13.50	13.96	14.02	13.42	12.02	11.44	11.14	11.08	9.822	9.451	8.965	8.342	8.252	7.571	7.097	6.888	6.491	6.186	5.978	5.709	5.131	4.783	4.528	3.886	3.774	4.064	4.854	5.583	4.154	3.398	2.914	3.085	2.851	2.702	2.456	2.852	3.177	2.844	2.823	2.281	2.241	2.220	2.360	5.722	22.96	63.19	157.6	366.1	58.34
600.0	51.16	54.12	57.45	53.18	41.47	40.39	41.73	50.19	61.18	80.59	150.5	146.6	93.06	70.46	68.32	290.5	 1842	168.8	15.78	15.06	14.25	11.95	13.32	12.72	12.60	11.48	11.91	11.39	12.20	12.57	11.84	10.66	10.35	9.606	9.097	9.236	9.004	8.309	7.042	7.084	6.955	6.454	5.631	5.581	5.164	4.748	4.887	4.475	4.349	3.758	3.798	3.539	3.194	3.218	3.376	4.578	4.384	3.416	2.797	2.447	2.463	2.513	2.609	2.443	2.543	2.728	2.316	1.967	2.056	1.658	1.726	2.244	6.384	14.83	38.50	205.7	316.2
605.0	37.32	50.78	56.80	50.81	40.01	36.95	40.52	47.11	61.57	73.66	118.1	165.5	96.73	68.56	51.07	89.55	 1205	913.1	20.04	13.44	12.20	11.27	10.92	10.16	10.62	9.735	9.366	10.58	10.48	10.51	9.477	9.720	9.193	8.285	8.186	7.857	8.016	6.874	6.648	6.279	5.662	5.624	4.980	4.764	4.459	4.380	4.456	4.249	3.778	3.389	3.276	3.303	2.851	3.027	2.854	3.221	3.970	3.392	2.516	2.330	2.382	2.154	2.398	1.924	1.902	2.221	1.946	1.959	1.613	1.629	1.362	1.472	2.337	4.286	9.647	53.97	234.4
610.0	47.37	50.31	58.87	47.87	34.01	37.11	37.85	48.28	57.66	73.07	94.44	152.2	121.6	69.81	46.36	41.25	370.7	 1383	275.1	10.66	10.91	9.230	9.082	8.560	8.759	8.086	8.295	8.540	8.153	8.367	8.180	8.315	7.702	7.216	6.655	6.405	6.519	5.357	5.917	5.234	4.862	4.681	3.899	4.208	3.824	3.971	3.707	3.771	3.368	3.000	2.829	2.949	2.363	2.472	2.274	2.569	2.986	3.170	2.650	2.102	2.044	2.012	2.025	1.777	1.696	1.864	1.977	1.844	1.479	1.393	1.328	1.198	1.411	1.839	2.933	12.87	60.88
615.0	36.07	46.15	60.09	50.17	35.42	36.58	32.91	42.10	53.20	65.14	80.63	108.9	135.9	72.62	46.70	30.88	97.81	656.2	 1087	27.95	8.281	7.816	8.197	7.137	7.319	6.940	7.037	7.488	6.534	6.657	6.180	6.789	5.886	5.867	5.219	5.771	5.181	5.074	4.614	4.516	3.727	3.733	3.609	3.191	3.411	3.200	2.819	2.966	2.815	2.455	2.237	2.450	2.089	1.959	1.928	1.836	2.147	2.449	2.387	2.176	1.528	1.808	1.635	1.556	1.474	1.516	1.632	1.566	1.440	1.309	1.126	1.161	0.919	1.346	1.229	3.576	14.04
620.0	35.82	45.64	46.96	50.06	33.06	33.45	33.47	35.77	48.58	63.32	74.69	93.27	134.7	80.08	46.28	28.25	38.33	201.5	 1363	131.0	7.690	7.032	7.517	5.909	6.118	5.604	6.282	6.003	5.905	5.738	5.316	5.196	4.932	4.633	4.634	4.908	4.103	3.660	3.673	3.536	3.163	2.955	2.736	2.727	2.915	2.763	2.223	2.408	2.314	2.069	1.812	2.016	1.742	1.781	1.581	1.594	1.837	1.772	2.351	1.990	1.889	1.457	1.439	1.499	1.354	1.468	1.497	1.579	1.740	1.176	1.057	1.083	0.980	1.061	1.103	1.293	3.816
625.0	29.72	37.00	54.84	47.67	39.47	28.85	34.13	41.58	43.98	59.37	70.13	80.59	112.4	95.59	42.88	27.88	23.21	58.80	888.7	705.6	10.79	6.208	5.873	5.396	5.456	4.368	5.099	4.932	4.908	4.775	4.424	4.484	4.411	4.187	3.907	4.041	3.629	3.192	2.972	3.256	3.039	2.690	2.339	2.419	2.155	2.330	2.044	2.192	2.179	1.718	1.484	1.736	1.354	1.465	1.451	1.328	1.632	1.399	2.216	2.007	2.202	1.299	1.466	1.497	1.413	1.508	1.316	1.221	1.537	1.352	1.041	0.953	0.944	0.692	0.945	0.891	1.412
630.0	39.31	38.77	46.12	42.00	34.34	30.37	31.27	38.48	43.07	53.33	65.97	75.34	90.21	107.6	51.39	27.87	21.56	24.98	268.7	 1068	205.4	6.393	5.283	4.971	4.550	4.705	4.305	4.200	4.194	4.163	4.099	3.996	3.782	3.501	3.217	3.307	3.033	2.771	2.785	2.481	2.717	2.347	2.008	2.247	1.919	2.082	1.722	1.849	1.716	1.452	1.220	1.366	1.278	1.460	1.186	1.109	1.395	1.175	1.638	1.741	1.841	1.275	1.285	1.258	1.156	1.201	1.162	1.221	1.145	1.311	1.018	0.941	0.809	0.917	0.867	0.838	0.912
635.0	28.99	41.04	42.14	32.34	27.61	27.31	34.62	36.16	40.36	50.88	60.86	69.55	74.32	92.57	69.31	29.77	21.37	18.71	69.22	516.7	834.1	19.22	4.802	4.500	4.106	4.025	3.417	3.670	3.161	3.266	3.056	3.361	2.919	3.236	2.958	2.491	2.482	2.557	2.049	2.251	1.957	2.011	1.680	2.090	1.670	1.534	1.384	1.623	1.559	1.226	1.173	1.271	1.096	1.304	1.057	1.178	1.120	1.089	1.105	1.303	1.353	1.523	1.353	1.201	0.943	0.965	0.886	1.105	1.116	1.019	1.052	1.252	0.960	0.677	0.797	0.795	1.015
640.0	29.75	41.68	42.82	38.88	29.79	26.73	30.48	30.17	42.15	43.41	55.89	67.13	72.58	71.56	80.53	30.99	22.76	16.65	25.00	151.9	 1039	110.7	5.248	3.657	3.572	3.831	2.870	2.963	3.215	2.910	2.572	2.478	2.489	3.243	2.468	2.488	1.978	2.144	1.630	1.673	1.658	1.811	1.609	1.691	1.613	1.340	1.478	1.387	0.970	1.015	1.024	1.196	0.990	1.064	1.057	0.947	1.034	1.068	1.106	0.900	1.248	1.235	1.214	0.851	0.951	0.854	0.950	0.989	0.884	0.824	1.080	1.114	1.055	0.784	0.876	0.712	0.853
645.0	35.14	34.95	48.59	41.38	31.53	26.69	28.12	32.78	39.44	47.56	54.21	65.29	69.06	62.89	82.68	38.51	23.29	15.49	15.42	43.79	678.6	538.5	7.192	3.390	3.120	2.538	2.986	2.540	2.814	2.909	3.030	2.053	2.490	2.518	2.089	2.223	2.013	1.889	1.435	1.429	1.563	1.521	1.673	1.567	1.213	1.379	1.274	1.209	1.063	0.959	1.029	1.102	0.923	1.012	0.851	0.734	1.101	1.025	1.064	0.910	0.923	1.278	1.362	1.047	1.037	0.931	1.003	0.966	0.844	0.873	0.891	0.906	1.116	0.830	0.672	0.697	0.701
650.0	46.52	40.29	51.28	45.37	29.27	24.30	24.30	32.16	36.09	45.42	58.75	62.80	66.54	59.97	70.57	51.10	22.34	15.56	13.55	17.31	255.1	888.4	47.89	3.121	3.108	2.727	2.654	2.299	2.930	2.526	2.352	2.196	2.202	2.369	1.639	2.004	1.751	1.457	1.494	1.427	1.328	1.185	1.408	1.220	1.108	1.370	1.098	1.189	0.880	1.062	0.871	1.034	0.690	0.841	0.849	0.703	0.918	0.688	1.115	0.770	0.749	1.061	1.189	1.027	0.812	0.992	0.781	0.890	0.923	0.830	0.756	0.776	1.012	0.815	0.823	0.720	0.546
