Sample:	'1
File name:	S20255080916¶«ÈýÂ·ÇÅ.FD3
Run date:	'14:12:33, 08/10/2025
Operator:	Administrator
Comment:	'

Instrument
Model:	F-2700 FL Spectrophotometer
Serial number:	3064-004
ROM Version:	4J14000 07

Instrument parameters
Measurement type:	3-D scan
Data mode:	Fluorescence
EX  Start WL:	220.0 nm
EX  End WL:	600.0 nm
EX Sampling interval:	5.0 nm
EM  Start WL:	230.0 nm
EM  End WL:	650.0 nm
EM Sampling interval:	5.0 nm
Scan speed:	12000 nm/min
EX Slit:	5.0 nm
EM Slit:	5.0 nm
PMT Voltage:	700 V
Response:	Auto 
Corrected spectra:	Off
Contour interval:	50.000

Peak integration
Integration method:	Rectangular
Sensitivity:	1
Threshold:	1.000

Peaks
No.	ApexEX/EM(nm)	Height(Data)
1	225.0/625.0	23.87
2	230.0/580.0	50.73
3	235.0/350.0	863.8
4	235.0/605.0	35.88
5	240.0/520.0	282.0
6	240.0/615.0	29.30
7	245.0/265.0	337.2
8	245.0/530.0	258.4
9	245.0/625.0	22.89
10	245.0/635.0	21.96
11	250.0/545.0	239.8
12	255.0/280.0	644.8
13	255.0/555.0	222.3
14	260.0/285.0	803.7
15	260.0/570.0	173.8
16	265.0/290.0	881.5
17	265.0/580.0	167.0
18	270.0/295.0	 1226
19	270.0/380.0	 1470
20	270.0/595.0	149.9
21	275.0/305.0	 1455
22	275.0/605.0	144.3
23	280.0/310.0	 1395
24	280.0/615.0	110.6
25	285.0/315.0	 1362
26	285.0/630.0	87.86
27	290.0/320.0	 1281
28	290.0/640.0	68.16
29	295.0/330.0	 1038
30	300.0/335.0	941.6
31	305.0/340.0	941.2
32	315.0/355.0	813.3
33	320.0/360.0	891.8
34	325.0/370.0	873.2
35	330.0/375.0	893.0
36	335.0/380.0	943.7
37	340.0/385.0	930.4
38	445.0/525.0	59.44
39	460.0/545.0	34.06
40	505.0/275.0	2.818
41	510.0/280.0	3.770
42	520.0/285.0	3.853
43	530.0/290.0	3.931
44	540.0/295.0	5.536
45	545.0/300.0	6.500
46	550.0/305.0	7.222
47	560.0/310.0	6.607
48	565.0/380.0	6.726
49	570.0/315.0	6.629
50	575.0/320.0	6.604
51	580.0/325.0	6.442
52	590.0/330.0	5.782

Data points
	220.0	225.0	230.0	235.0	240.0	245.0	250.0	255.0	260.0	265.0	270.0	275.0	280.0	285.0	290.0	295.0	300.0	305.0	310.0	315.0	320.0	325.0	330.0	335.0	340.0	345.0	350.0	355.0	360.0	365.0	370.0	375.0	380.0	385.0	390.0	395.0	400.0	405.0	410.0	415.0	420.0	425.0	430.0	435.0	440.0	445.0	450.0	455.0	460.0	465.0	470.0	475.0	480.0	485.0	490.0	495.0	500.0	505.0	510.0	515.0	520.0	525.0	530.0	535.0	540.0	545.0	550.0	555.0	560.0	565.0	570.0	575.0	580.0	585.0	590.0	595.0	600.0
230.0	15.25	418.4	 2762	 1821	102.4	7.843	7.202	5.894	4.990	5.411	4.242	4.917	4.154	3.997	3.023	2.697	2.615	2.456	2.026	1.898	1.949	1.777	1.612	1.367	1.412	1.206	1.161	1.286	1.034	1.027	0.901	0.956	0.969	0.758	0.803	0.861	0.784	0.646	0.668	0.737	0.612	0.772	0.667	0.626	0.506	0.608	1.383	5.332	10.64	8.353	3.441	0.932	0.401	0.354	0.358	0.371	0.387	0.366	0.341	0.298	0.286	0.282	0.273	0.251	0.173	0.287	0.258	0.208	0.302	0.215	0.155	0.197	0.186	0.232	0.204	0.262	0.234
235.0	46.38	114.4	 1126	 3264	 1117	164.6	8.390	5.087	7.212	4.698	4.723	5.222	3.777	5.452	3.612	2.581	2.880	1.881	1.968	1.878	1.749	1.547	1.687	1.262	1.673	1.257	1.476	1.298	0.923	1.280	0.877	0.818	0.757	0.891	0.838	0.722	0.819	0.740	0.689	0.720	0.648	0.719	0.877	0.557	0.654	0.516	0.812	1.702	3.997	7.080	9.804	10.71	5.381	1.272	0.446	0.454	0.446	0.418	0.258	0.427	0.225	0.318	0.262	0.159	0.139	0.203	0.267	0.287	0.276	0.302	0.194	0.264	0.359	0.220	0.264	0.190	0.274
240.0	48.98	76.94	281.0	 1791	 3932	954.8	76.51	7.093	7.796	7.359	6.826	5.254	4.976	5.179	4.035	2.511	3.033	2.190	1.309	1.707	1.840	1.760	1.638	1.242	1.522	1.097	1.642	1.550	1.118	1.089	1.080	0.833	0.986	0.807	0.849	0.832	0.819	0.803	0.743	0.973	0.682	0.647	0.595	0.574	0.653	0.928	0.799	0.900	1.287	2.222	5.051	11.61	15.33	9.647	3.740	0.680	0.492	0.389	0.285	0.371	0.230	0.256	0.439	0.235	0.163	0.229	0.210	0.252	0.231	0.224	0.094	0.147	0.178	0.147	0.238	0.163	0.206
245.0	32.05	97.21	115.8	481.3	 2666	 4664	787.5	39.19	8.208	7.388	6.097	6.765	4.962	5.771	3.658	3.526	2.558	2.373	1.930	1.936	2.459	1.944	1.395	1.405	1.530	1.430	1.409	1.279	1.041	0.926	1.033	1.276	0.943	0.836	0.815	0.666	0.788	0.678	0.917	0.898	0.782	0.570	0.638	0.549	0.537	0.962	0.951	1.048	0.727	0.990	1.530	3.766	9.337	16.68	16.12	8.818	2.512	0.501	0.437	0.291	0.220	0.211	0.295	0.417	0.164	0.258	0.140	0.359	0.270	0.184	0.157	0.185	0.202	0.182	0.202	0.196	0.186
250.0	16.96	51.12	147.0	207.1	697.5	 2678	 4664	 2690	225.1	11.59	7.850	6.973	6.513	5.218	3.854	3.740	2.530	2.758	2.459	2.264	2.103	1.803	1.784	1.528	1.730	1.265	1.388	1.342	1.155	1.096	1.094	1.065	0.717	0.970	0.847	0.742	0.572	0.651	0.716	0.739	0.702	0.633	0.607	0.476	0.595	0.794	0.658	0.897	0.957	1.025	0.916	1.309	2.558	5.034	9.136	13.80	17.52	14.99	8.959	2.901	0.487	0.266	0.365	0.257	0.269	0.230	0.235	0.284	0.280	0.210	0.218	0.232	0.171	0.183	0.292	0.188	0.216
255.0	9.626	25.60	64.06	237.8	295.1	629.5	 1934	 6310	 4173	312.0	14.41	8.031	7.030	6.116	5.237	4.427	2.937	2.718	2.355	2.822	2.082	2.239	1.793	1.495	1.593	1.521	1.476	1.266	1.188	1.064	1.237	1.065	0.728	0.848	0.829	0.679	0.611	0.607	0.560	0.579	0.573	0.797	0.599	0.697	0.568	0.640	0.624	0.633	0.786	0.996	1.219	1.374	1.302	1.626	2.545	3.538	6.137	13.86	26.22	25.14	14.68	2.951	0.474	0.304	0.243	0.354	0.450	0.247	0.348	0.345	0.246	0.218	0.240	0.242	0.136	0.185	0.214
260.0	13.25	20.35	23.40	148.1	350.6	227.8	481.2	 3054	 8364	 3555	178.9	11.80	8.732	6.942	6.226	4.643	3.843	3.297	2.641	2.376	2.039	2.150	2.182	1.791	1.769	2.000	1.681	1.322	1.427	1.397	1.150	1.026	1.063	0.824	0.881	0.685	0.603	0.853	0.556	0.458	0.629	0.535	0.467	0.741	0.657	0.699	0.835	0.549	0.544	0.560	0.730	1.411	1.444	1.304	0.957	1.304	1.886	3.957	11.09	23.43	34.96	28.08	10.33	1.347	0.356	0.332	0.451	0.228	0.329	0.317	0.202	0.213	0.179	0.191	0.364	0.170	0.120
265.0	11.16	17.28	13.67	58.24	272.6	337.2	164.6	798.4	 4762	9999.9	 2726	80.73	10.97	9.221	7.057	5.618	5.071	3.858	3.258	2.631	2.517	2.522	1.894	2.162	1.809	1.680	1.723	1.775	1.560	1.535	1.198	0.959	1.133	0.876	0.787	0.775	0.691	0.700	0.625	0.605	0.654	0.683	0.553	0.695	0.556	0.737	0.571	0.711	0.493	0.395	0.534	0.900	1.332	1.938	1.503	0.977	0.814	1.404	3.039	6.897	18.46	34.63	40.95	25.40	6.260	0.674	0.500	0.173	0.406	0.333	0.215	0.280	0.401	0.183	0.279	0.265	0.219
270.0	25.16	27.29	30.61	32.48	98.77	307.7	375.3	274.6	 1214	 4908	 9299	 5394	178.7	13.98	9.286	6.728	4.979	4.541	3.676	2.842	3.176	2.589	2.161	2.273	2.024	1.790	1.956	1.632	1.387	1.409	1.283	1.109	1.309	1.122	0.934	0.867	0.774	0.658	0.770	0.605	0.551	0.727	0.729	0.712	0.706	0.897	0.762	0.716	0.523	0.508	0.474	0.581	0.761	1.146	1.893	2.055	1.920	1.344	1.211	1.962	4.739	9.993	19.07	31.24	38.67	34.74	19.72	5.153	0.803	0.315	0.242	0.301	0.334	0.318	0.294	0.366	0.317
275.0	63.59	62.74	78.29	44.77	47.30	109.2	375.9	536.9	379.1	 1173	 3240	9999.9	 8712	226.2	16.18	9.966	6.475	4.501	4.501	2.877	2.751	2.537	2.261	2.331	1.771	2.300	2.022	2.023	1.601	1.422	1.243	1.204	1.326	0.934	0.946	1.252	0.881	0.776	0.797	0.805	0.603	0.844	0.756	0.733	0.889	0.968	0.812	0.784	0.768	0.695	0.418	0.563	0.538	0.580	0.877	1.048	1.970	2.818	2.447	1.171	1.532	2.708	4.982	7.598	12.59	26.17	53.12	51.02	29.55	4.531	0.469	0.360	0.320	0.351	0.306	0.391	0.379
280.0	95.59	105.4	123.5	74.32	48.07	57.88	174.9	644.8	477.2	381.0	880.3	 4186	9999.9	 2535	137.1	12.83	7.885	6.516	4.917	4.036	3.054	2.880	3.129	2.140	1.979	1.835	1.569	1.645	2.008	1.538	1.550	1.325	1.113	0.969	0.758	1.107	0.837	0.988	0.700	0.746	0.795	0.897	0.874	0.894	1.000	1.027	0.897	1.022	0.872	0.652	0.624	0.700	0.663	0.622	0.522	0.552	1.259	2.065	3.770	2.973	2.058	1.343	1.869	2.433	3.626	7.266	19.28	44.28	70.77	46.17	17.12	1.563	0.373	0.142	0.294	0.290	0.399
285.0	134.4	168.9	161.8	114.5	65.68	52.46	94.34	361.0	803.7	402.5	371.1	 1157	 5602	9999.9	 1928	66.66	10.57	7.723	6.028	5.008	4.500	3.684	3.044	2.321	2.536	1.449	2.085	1.427	1.643	1.878	1.887	1.353	1.310	1.072	1.029	1.241	0.886	0.939	1.029	0.949	0.941	1.198	1.002	1.010	1.292	1.176	1.182	1.114	1.041	0.972	0.939	0.773	0.729	0.563	0.492	0.635	0.965	1.184	2.152	3.021	3.853	2.568	1.376	1.494	1.658	2.502	5.336	12.22	30.73	61.90	72.94	36.32	7.287	0.626	0.387	0.224	0.484
290.0	154.3	229.8	243.0	168.6	106.0	89.66	106.8	194.8	523.1	881.5	588.6	560.1	 1573	 5051	9999.9	 6540	109.1	11.92	7.540	6.506	4.958	3.597	3.131	2.733	2.386	1.977	2.149	1.727	1.998	2.020	1.532	1.476	1.689	1.076	1.092	1.253	1.058	1.053	1.089	1.056	1.101	1.156	1.241	1.338	1.350	1.525	1.463	1.512	1.378	1.133	0.985	0.851	0.756	0.710	0.689	0.675	0.864	0.949	1.424	1.587	2.592	3.641	3.931	3.356	2.393	2.137	2.549	4.148	8.168	17.00	31.14	46.53	51.07	50.27	23.69	6.255	0.693
295.0	180.5	250.0	288.0	220.6	140.2	138.8	140.4	200.5	316.0	635.6	 1226	720.3	729.5	 1380	 3061	9999.9	 8948	141.6	12.52	8.301	6.207	4.672	3.787	3.361	2.857	2.734	2.224	1.919	2.029	1.814	1.435	1.623	1.551	1.223	1.095	1.298	1.381	1.423	1.221	1.204	1.232	1.121	1.131	1.385	1.217	1.395	1.549	1.559	1.322	1.264	1.090	0.847	1.138	0.959	0.897	0.716	0.905	1.122	1.282	1.224	1.761	2.089	2.950	4.385	5.536	3.944	2.752	2.690	3.513	4.991	8.258	11.58	15.32	34.92	71.36	57.87	33.90
300.0	176.1	253.2	297.7	251.2	182.4	156.5	183.6	222.3	312.6	472.0	 1076	 1282	656.1	642.0	896.6	 3643	9999.9	 6384	97.37	9.630	7.606	5.726	4.346	3.311	3.131	2.621	2.215	2.205	2.181	2.081	1.582	1.734	1.349	1.187	1.256	1.072	1.319	1.338	1.256	1.023	1.245	1.353	1.369	1.397	1.357	1.562	1.458	1.577	1.452	1.390	1.261	1.014	1.222	1.132	0.944	1.000	0.940	1.274	1.300	1.084	1.696	1.663	2.179	2.671	4.905	6.500	5.213	3.180	3.006	2.722	3.360	4.076	4.449	9.100	24.36	53.88	90.38
305.0	183.6	267.0	325.3	284.9	205.1	191.7	215.9	270.7	358.4	472.0	780.9	 1455	 1065	557.8	457.3	989.9	 4864	9999.9	 1243	55.48	10.16	6.026	5.323	3.793	3.781	2.215	2.206	2.604	2.031	1.973	1.852	1.596	1.203	1.215	1.191	1.132	1.350	1.447	1.252	1.283	1.137	1.253	1.448	1.622	1.383	1.440	1.434	1.681	1.698	1.396	1.366	1.399	1.095	1.196	0.880	1.139	1.148	1.207	1.404	1.307	1.661	1.834	2.060	2.398	3.284	5.016	7.222	5.903	3.679	3.078	2.833	2.628	2.060	3.339	6.489	14.46	39.36
310.0	189.0	284.5	338.7	296.8	234.1	221.3	247.9	312.1	402.7	520.4	709.9	 1030	 1395	989.6	475.8	439.9	 1262	 4623	 8631	 4823	79.02	9.855	7.256	4.810	4.279	3.373	2.717	2.740	2.133	2.075	1.909	1.629	1.613	1.327	1.306	1.317	1.336	1.334	1.267	1.219	1.288	1.411	1.364	1.375	1.459	1.441	1.465	1.599	1.586	1.442	1.298	1.577	1.313	1.241	1.304	1.209	1.339	1.347	1.571	1.575	1.871	2.041	2.313	2.564	3.025	3.572	4.858	5.561	6.607	5.329	3.810	3.026	2.106	2.179	2.669	4.171	9.817
315.0	177.1	307.0	353.5	325.3	268.4	260.7	287.0	353.0	443.5	565.7	722.5	888.9	 1056	 1362	856.7	396.5	471.7	 1162	 2575	 9811	 7063	105.3	10.01	7.059	5.666	4.222	3.416	2.816	2.645	2.060	1.900	1.719	2.064	1.352	1.147	1.284	1.387	1.408	1.121	1.409	1.188	1.449	1.160	1.329	1.244	1.799	1.893	1.821	1.787	1.448	1.396	1.459	1.403	1.224	1.481	1.447	1.424	1.536	1.724	2.092	1.865	2.102	2.425	2.981	3.447	3.560	3.919	4.467	4.783	5.527	6.629	5.509	2.906	2.321	1.995	2.183	3.414
320.0	218.3	356.3	453.3	396.1	302.4	285.9	320.9	385.3	476.4	601.4	765.8	909.7	975.8	 1150	 1281	575.3	349.4	426.4	691.2	 3526	9999.9	 5239	73.13	10.32	6.783	4.622	3.444	3.483	2.531	2.511	1.991	1.700	2.004	1.310	1.437	1.292	1.639	1.498	1.240	1.509	1.390	1.390	1.127	1.483	1.869	1.700	1.797	2.082	2.149	1.727	1.481	1.702	1.524	1.492	1.474	1.467	1.360	1.625	1.801	1.947	1.967	2.822	2.803	3.254	3.360	3.331	3.748	3.907	4.011	4.541	5.489	6.604	5.663	3.761	2.440	2.169	2.163
325.0	241.5	437.7	572.1	497.0	361.7	308.1	341.8	415.3	510.2	662.6	803.7	956.1	 1001	 1024	 1239	962.9	415.6	311.7	303.2	915.1	 4916	9999.9	926.2	44.96	7.971	5.684	4.350	3.450	3.092	2.594	1.881	2.292	2.049	1.639	1.440	1.254	1.457	1.217	1.200	1.406	1.418	1.323	1.356	1.334	1.802	2.379	1.941	2.417	2.157	2.096	1.814	1.813	1.799	1.451	1.513	1.725	1.615	1.791	1.751	2.494	2.146	2.851	3.113	3.139	3.382	3.545	3.832	4.057	4.351	4.417	4.559	5.078	6.442	6.330	4.675	2.641	2.526
330.0	270.2	492.1	706.3	653.4	461.3	373.6	383.6	441.8	551.7	682.4	854.5	975.3	 1058	 1026	 1000	 1038	802.8	404.2	279.3	360.9	 1247	 4490	 8510	 3731	61.56	8.890	5.567	4.514	3.619	3.179	2.687	1.991	2.260	1.980	1.520	1.381	1.222	1.424	1.167	1.510	1.402	1.273	1.561	1.389	1.819	2.399	2.061	2.709	2.759	2.543	2.219	1.954	1.977	1.868	1.685	1.785	1.954	2.030	2.115	2.430	2.278	2.908	2.906	3.363	3.488	3.791	4.065	4.333	4.753	4.515	4.465	4.405	4.691	5.004	5.782	5.545	4.412
335.0	286.9	504.0	767.0	731.7	543.5	461.2	442.1	505.3	582.7	716.5	895.2	 1000	 1094	 1073	971.0	856.7	941.6	754.8	368.6	298.7	443.8	 1120	 2631	 9095	 5645	83.21	9.527	6.096	4.711	3.757	3.078	2.093	2.005	2.076	1.560	1.408	1.541	1.296	1.187	1.422	1.531	1.754	1.470	1.695	2.200	2.320	2.503	2.876	2.836	2.883	2.595	2.384	2.138	2.020	2.110	2.043	2.189	2.335	2.443	2.341	2.454	2.888	2.963	3.519	3.518	4.488	4.773	4.503	4.876	4.620	4.781	4.657	4.584	4.689	5.033	4.355	5.844
340.0	285.0	507.3	812.9	822.2	607.6	533.4	501.0	538.2	637.8	746.2	930.5	 1039	 1128	 1097	 1010	846.1	795.2	941.2	564.0	330.1	306.1	401.9	703.3	 3577	9999.9	 4293	59.52	8.672	6.014	4.376	3.031	2.461	2.164	2.250	1.895	1.344	1.707	1.315	1.232	1.491	1.669	1.577	1.406	1.568	2.134	2.075	2.650	3.335	3.027	2.896	2.768	2.762	2.800	2.448	2.173	2.078	2.238	2.044	2.922	2.474	2.835	2.978	3.619	3.547	3.557	4.476	4.333	4.444	4.970	5.402	4.723	4.766	4.481	4.352	4.574	4.285	4.515
345.0	280.2	522.8	819.0	843.0	696.4	589.7	559.9	590.3	690.2	782.2	933.1	 1034	 1115	 1117	 1035	873.3	733.9	840.4	826.6	445.8	321.5	288.9	307.7	931.4	 5100	9999.9	762.6	36.43	7.692	5.351	3.663	2.897	2.402	2.261	2.198	1.428	1.669	1.356	1.498	1.764	1.688	1.527	1.541	1.670	2.088	2.324	2.661	3.260	3.211	3.112	2.905	2.931	2.705	2.760	2.354	2.401	2.427	2.106	2.785	2.871	2.851	3.079	3.618	3.564	3.993	4.175	4.187	4.294	4.794	5.108	5.327	4.398	4.891	4.426	4.697	4.529	3.731
350.0	264.3	464.7	741.4	863.8	748.1	701.8	676.6	712.5	783.8	885.3	976.8	 1097	 1146	 1143	 1058	921.6	784.7	739.8	814.2	750.3	464.7	342.3	290.0	370.3	 1311	 4726	 7891	 3152	52.73	8.906	5.533	3.958	3.124	2.558	2.073	1.801	1.923	1.730	1.446	1.418	1.873	1.555	1.370	1.921	1.952	2.234	2.373	3.132	3.034	3.008	2.953	3.057	2.948	2.890	2.816	2.869	2.961	2.939	2.794	3.049	3.333	3.685	3.710	4.167	4.100	4.139	4.583	4.636	5.140	4.673	5.286	4.955	4.921	4.679	4.888	4.399	4.537
355.0	256.4	467.1	699.5	857.8	870.0	822.5	826.0	839.9	952.3	 1017	 1088	 1142	 1182	 1185	 1117	995.1	879.9	794.9	740.6	813.3	773.1	473.4	365.4	322.3	470.2	 1180	 2688	 8701	 4763	72.43	8.443	5.636	3.700	3.423	2.306	2.014	2.097	1.605	1.574	1.511	1.689	1.486	1.590	1.657	1.868	2.285	2.339	3.014	3.129	3.081	3.012	3.402	3.389	3.757	3.181	2.834	3.083	3.343	3.359	3.494	3.964	3.707	3.832	4.055	4.565	4.821	4.767	5.259	5.055	5.114	5.364	5.112	5.117	5.120	5.556	5.028	4.885
360.0	266.0	440.8	722.0	862.8	930.5	907.8	924.5	989.0	 1043	 1129	 1186	 1210	 1222	 1239	 1150	 1045	939.8	845.2	773.8	767.0	891.8	684.0	449.1	366.5	332.1	428.7	729.2	 3765	9999.9	 3596	48.47	7.927	4.643	3.804	2.745	2.393	1.873	1.586	1.646	1.802	1.601	1.420	1.638	1.765	1.988	1.999	2.473	2.893	3.147	2.967	3.176	3.359	3.614	4.015	3.963	3.508	3.867	3.965	4.139	4.083	4.354	3.935	4.196	4.798	4.925	5.442	5.644	5.064	5.807	5.319	4.733	5.187	4.562	5.566	5.198	5.414	5.400
365.0	263.3	443.7	715.0	853.8	959.2	990.6	 1020	 1055	 1137	 1218	 1265	 1267	 1272	 1245	 1185	 1095	988.9	903.5	828.7	780.7	848.9	870.0	594.2	441.7	358.9	308.7	316.4	989.8	 5467	 9923	671.4	28.06	6.320	4.524	3.216	2.385	1.761	2.163	1.735	1.963	1.659	1.629	1.841	1.578	1.951	2.032	2.369	2.523	3.099	3.124	3.170	3.686	3.627	3.541	3.773	3.793	3.851	4.238	4.116	4.530	4.700	4.808	4.758	5.240	5.272	5.261	5.199	4.885	5.621	5.253	5.425	6.124	4.975	5.029	5.365	5.509	5.521
370.0	238.3	422.3	690.7	882.0	981.7	 1066	 1098	 1139	 1239	 1317	 1335	 1343	 1297	 1281	 1208	 1127	 1047	961.0	911.8	854.2	818.8	873.2	840.8	605.6	450.9	360.3	290.4	373.6	 1403	 4982	 7623	 2729	42.50	7.218	4.264	3.012	2.567	2.193	2.161	1.865	1.714	1.595	1.639	1.573	1.763	2.260	2.311	2.710	2.682	2.864	2.947	3.592	3.780	4.049	3.823	4.349	4.195	4.515	4.198	4.951	4.802	5.019	4.905	5.379	5.315	5.177	5.754	5.593	5.506	5.444	5.261	5.769	5.347	5.472	5.435	5.866	6.020
375.0	242.9	424.5	695.0	884.3	994.4	 1158	 1149	 1244	 1298	 1398	 1417	 1404	 1360	 1318	 1221	 1161	 1091	 1031	984.4	930.0	888.2	855.3	893.0	869.5	607.3	469.6	366.0	298.6	460.5	 1215	 2868	 8563	 3899	54.12	7.116	4.510	3.493	2.307	2.424	1.901	1.586	1.884	1.682	1.845	2.003	2.327	2.100	2.567	3.025	2.990	3.107	3.792	3.906	4.391	4.282	4.347	4.461	4.557	4.820	4.774	5.194	5.133	5.118	5.295	6.059	5.665	5.409	5.793	5.892	6.342	5.858	6.087	5.497	5.858	5.689	6.215	5.777
380.0	243.7	423.5	680.2	873.9	 1047	 1137	 1224	 1282	 1360	 1418	 1470	 1432	 1394	 1339	 1264	 1179	 1109	 1053	 1016	969.9	934.0	904.3	876.6	943.7	805.8	559.7	442.9	336.0	297.1	405.4	750.9	 4039	 9054	 2719	35.26	6.364	3.983	3.440	2.594	2.085	1.740	2.092	1.804	1.890	2.257	2.253	2.108	2.495	2.973	2.974	3.226	3.359	4.002	4.192	4.172	4.295	5.018	4.989	4.976	4.878	5.266	5.801	5.399	5.992	5.862	5.713	5.780	5.936	6.339	6.726	5.895	6.131	5.629	5.893	5.990	6.538	6.899
385.0	256.6	405.0	699.7	864.3	 1047	 1168	 1261	 1306	 1347	 1430	 1456	 1454	 1404	 1321	 1279	 1173	 1108	 1081	 1045	 1010	974.7	940.0	895.9	907.8	930.4	703.9	510.8	395.3	303.8	258.5	282.5	 1051	 5369	 8187	511.5	17.08	5.096	4.114	3.185	2.213	2.087	2.176	2.040	1.857	2.299	2.133	2.103	2.611	3.088	2.769	3.014	3.678	3.866	3.755	4.247	4.469	5.226	4.570	4.840	4.996	5.219	5.685	5.270	5.739	6.222	6.180	5.807	5.921	5.837	6.230	6.074	5.464	5.390	5.561	6.191	6.239	6.480
390.0	240.6	402.5	660.6	874.7	 1045	 1196	 1273	 1291	 1376	 1425	 1456	 1447	 1392	 1324	 1264	 1180	 1125	 1096	 1065	 1040	 1014	990.4	942.3	901.4	911.7	865.1	661.1	484.1	370.4	286.0	231.9	352.3	 1385	 4446	 5178	 2059	32.96	6.231	3.944	2.853	2.465	2.337	2.137	2.278	2.253	2.246	2.326	2.879	2.735	2.701	2.998	3.759	4.093	4.205	4.481	4.705	5.113	4.750	5.322	5.352	5.106	5.706	5.489	5.784	5.569	6.150	5.796	6.077	6.327	5.849	5.791	5.614	5.968	5.551	5.938	5.748	6.202
395.0	231.1	407.0	646.5	864.5	 1044	 1168	 1261	 1310	 1371	 1436	 1440	 1427	 1380	 1308	 1220	 1151	 1120	 1084	 1072	 1053	 1036	 1013	973.2	939.7	890.4	880.5	848.6	610.7	455.6	358.6	283.0	244.9	421.9	 1072	 2256	 6929	 3000	41.98	6.134	4.431	3.117	2.331	2.390	2.243	2.209	2.382	2.442	2.568	2.755	2.879	2.967	3.477	4.063	4.184	4.377	4.612	5.359	4.914	4.976	5.449	4.915	5.685	5.814	5.541	5.642	5.575	5.663	6.220	6.094	5.428	6.203	5.919	5.884	5.976	5.823	6.005	6.599
400.0	257.9	417.8	627.7	827.6	 1028	 1133	 1219	 1324	 1357	 1421	 1433	 1434	 1380	 1290	 1214	 1145	 1106	 1080	 1061	 1054	 1052	 1022	 1004	953.6	907.0	863.8	881.8	755.4	535.0	419.5	333.6	259.6	237.7	336.1	594.6	 3461	 7102	500.8	27.12	5.840	3.801	2.849	2.516	2.383	2.076	2.392	2.366	2.859	2.661	2.733	3.157	3.670	3.825	4.090	4.139	4.538	4.569	4.572	4.895	5.193	5.069	5.483	5.184	5.856	5.768	5.397	6.047	5.558	5.743	5.693	5.572	5.900	5.422	5.976	5.684	6.594	6.319
405.0	257.4	389.4	611.9	833.5	994.6	 1138	 1228	 1284	 1333	 1394	 1404	 1399	 1334	 1269	 1204	 1131	 1081	 1075	 1051	 1051	 1036	 1027	 1007	963.6	921.9	872.6	849.7	840.7	650.3	483.0	385.5	297.5	232.1	203.8	221.1	908.8	 4431	 5887	422.0	12.73	4.633	3.171	3.096	2.604	2.575	2.611	2.432	2.513	2.711	2.780	3.067	3.623	3.492	3.857	4.519	4.237	4.883	4.570	4.829	5.130	4.540	5.678	5.478	5.749	6.035	5.446	6.103	5.624	5.818	5.343	5.464	5.707	5.305	5.642	5.547	6.089	5.608
410.0	269.8	401.7	600.1	793.8	982.6	 1106	 1193	 1258	 1340	 1385	 1403	 1382	 1316	 1226	 1160	 1092	 1059	 1039	 1034	 1019	 1015	 1017	994.5	973.2	940.4	894.5	836.5	811.7	778.0	606.8	464.0	364.2	274.8	209.8	166.4	284.2	 1146	 3458	 4227	 1594	28.27	5.237	3.851	2.868	2.612	2.519	2.806	2.435	2.806	2.743	2.936	3.725	3.527	3.699	4.033	4.410	5.013	4.414	5.094	4.956	5.209	5.161	5.807	5.462	5.575	5.290	5.817	5.719	5.377	5.954	5.725	5.389	5.214	5.388	5.424	5.741	5.758
415.0	249.2	382.4	582.6	773.0	972.0	 1076	 1185	 1244	 1315	 1362	 1360	 1363	 1293	 1190	 1117	 1053	 1011	997.1	987.3	990.7	988.2	987.1	981.4	966.6	945.3	911.7	860.1	804.8	773.9	753.2	566.5	423.2	320.9	245.8	180.6	163.8	328.0	821.1	 1868	 5346	 2367	36.43	5.416	3.853	2.746	2.643	2.723	2.800	2.578	2.566	2.816	3.433	3.548	3.891	4.038	4.717	4.551	4.569	5.242	4.806	5.151	5.367	5.586	5.279	5.485	5.157	5.466	5.790	5.507	5.356	5.173	5.306	4.981	5.724	5.598	5.464	5.121
420.0	229.3	385.0	571.4	778.0	936.4	 1038	 1136	 1210	 1278	 1325	 1343	 1356	 1271	 1171	 1077	 1016	969.6	962.0	961.9	967.1	964.9	962.4	969.6	954.5	937.9	909.1	864.3	816.2	770.2	773.0	664.5	482.6	361.8	276.6	203.7	155.2	154.5	237.4	474.5	 2729	 5429	456.8	21.72	4.592	3.496	2.782	2.758	2.791	2.578	2.609	3.000	3.763	3.623	4.161	3.780	4.546	4.595	4.276	5.046	4.637	5.018	5.319	5.391	5.703	5.141	5.011	4.910	5.519	5.371	5.268	5.119	5.205	4.855	4.831	5.387	5.155	5.202
425.0	230.3	361.3	539.4	739.7	905.2	 1027	 1129	 1207	 1243	 1318	 1331	 1312	 1218	 1140	 1042	974.9	934.7	931.6	935.1	927.3	924.0	935.8	948.7	943.2	923.9	918.2	862.9	832.2	773.5	743.9	717.4	553.0	400.0	306.0	227.9	163.5	128.6	118.0	150.9	709.1	 3422	 3690	374.9	9.540	4.203	3.190	3.255	2.808	2.848	2.913	2.956	3.752	3.795	3.924	3.703	4.144	4.562	4.593	4.653	4.360	4.372	5.043	4.898	5.451	5.052	4.846	5.071	5.882	5.162	5.656	4.964	4.862	5.066	4.597	4.723	5.136	4.638
430.0	357.9	365.1	545.8	709.1	869.5	997.2	 1086	 1174	 1239	 1316	 1315	 1291	 1203	 1107	 1008	934.2	895.3	882.5	890.6	897.0	888.8	892.8	904.2	908.2	910.8	893.5	866.6	835.9	778.5	737.0	696.9	633.5	477.4	345.5	258.1	192.1	142.8	109.5	92.32	197.6	874.9	 2467	 3474	 1367	25.27	4.528	3.697	3.197	2.970	2.829	2.703	3.742	3.500	3.764	3.998	4.217	4.425	4.295	4.811	4.760	4.835	5.197	4.992	5.376	5.066	5.052	5.077	5.273	5.159	4.995	4.772	5.095	4.755	4.646	4.434	5.009	4.508
435.0	693.3	357.0	510.6	702.9	821.5	943.9	 1052	 1154	 1199	 1264	 1280	 1268	 1175	 1073	958.3	887.7	849.1	838.4	841.8	849.1	842.9	852.5	867.4	878.0	873.0	872.7	856.5	824.3	785.7	744.4	668.1	624.8	556.0	403.4	285.6	218.2	163.3	123.1	91.61	96.87	233.3	580.5	 1472	 4325	 2057	33.93	5.011	3.770	3.272	3.052	3.056	3.278	3.462	3.354	3.619	4.248	4.108	4.338	4.613	5.053	4.889	4.797	4.484	5.161	5.300	5.562	5.134	5.058	5.107	4.872	4.412	4.708	5.250	4.573	4.334	4.797	4.406
440.0	866.0	544.0	492.3	647.7	796.7	917.8	 1018	 1132	 1174	 1226	 1239	 1238	 1153	 1043	930.6	860.5	827.2	810.0	805.5	816.1	805.2	816.5	833.3	846.8	847.5	855.0	836.9	813.7	785.3	752.8	676.3	603.2	555.9	451.8	317.5	233.5	179.3	137.2	99.54	84.44	96.41	162.2	367.1	 2157	 4601	417.2	20.77	4.792	3.744	3.300	3.080	3.022	3.313	3.340	3.516	3.863	4.280	3.938	4.255	4.883	4.627	4.512	4.835	4.615	4.823	5.034	5.010	4.732	4.903	4.393	4.838	4.212	4.897	4.539	4.117	4.455	4.306
445.0	769.0	938.6	478.5	636.0	774.4	898.9	979.7	 1114	 1159	 1208	 1223	 1192	 1123	 1004	899.2	817.1	790.7	775.3	757.0	768.0	768.9	790.8	804.2	813.6	824.4	828.2	821.1	803.3	775.8	736.6	673.8	593.3	518.6	476.0	357.5	249.4	194.3	148.9	113.7	87.40	73.13	75.29	111.2	550.1	 2819	 3343	333.4	11.36	4.902	3.507	3.133	3.371	3.551	3.735	3.712	3.884	3.919	4.011	4.449	4.677	4.721	4.761	4.692	4.729	4.822	5.341	4.991	4.932	4.944	4.545	4.271	3.609	4.876	4.212	4.004	4.104	3.890
450.0	388.0	 1277	811.6	607.7	738.5	855.6	938.8	 1054	 1113	 1162	 1163	 1140	 1055	950.9	855.1	768.6	738.6	724.1	712.2	723.6	719.6	734.9	747.9	758.0	764.7	777.0	776.4	763.8	743.7	715.1	661.7	576.8	494.6	440.6	385.9	291.2	210.9	162.3	128.4	97.43	78.19	64.84	59.66	150.7	713.7	 2159	 3066	 1279	22.88	4.246	3.617	3.740	3.466	3.464	3.461	3.741	3.859	4.319	4.579	4.278	4.611	4.502	5.078	4.517	4.674	4.775	4.692	4.675	4.671	4.212	4.092	3.581	4.553	4.205	4.019	4.175	3.972
455.0	219.5	891.5	 1646	609.2	678.7	774.7	861.8	971.0	 1049	 1073	 1104	 1060	997.5	879.8	786.6	718.0	671.0	655.2	653.6	658.0	658.0	665.7	674.9	699.2	703.7	706.4	727.3	711.3	699.3	671.6	636.5	562.0	481.0	408.1	363.3	323.5	237.3	173.9	140.4	110.5	88.31	70.59	58.61	67.00	183.8	503.5	 1213	 3786	 1929	28.73	5.259	3.847	3.567	3.427	3.533	3.408	3.696	4.252	4.091	3.964	4.789	3.980	4.615	4.647	3.990	4.173	4.281	4.262	4.712	4.045	4.044	4.060	3.864	4.300	3.802	4.028	3.994
460.0	166.6	490.8	 2005	 1025	632.6	756.1	815.1	900.1	 1012	 1044	 1041	994.4	949.6	835.7	744.4	675.5	621.9	611.0	608.7	609.5	614.1	617.6	626.4	652.0	666.8	669.4	677.1	672.1	658.3	647.2	597.8	538.8	461.3	388.5	339.9	314.1	268.5	191.1	146.3	117.5	96.69	77.97	61.73	53.41	69.76	134.5	298.9	 1764	 4002	 1284	19.93	4.735	3.903	3.414	3.771	2.965	3.430	4.024	3.599	3.690	4.603	4.190	4.471	3.845	3.900	3.773	4.029	3.962	3.754	3.621	3.691	3.716	3.486	3.516	3.438	3.586	3.675
465.0	174.4	285.7	 1549	 1845	628.6	727.8	785.0	849.4	954.0	 1001	987.2	948.5	896.4	786.2	693.9	626.2	591.1	579.1	569.7	569.4	571.4	581.6	586.5	597.3	616.2	626.6	632.9	624.7	621.1	608.2	566.3	512.4	450.7	375.9	322.2	285.0	273.0	209.2	155.3	124.0	102.0	83.67	66.13	52.07	48.24	56.66	87.11	438.9	 2264	 3561	293.9	12.59	4.712	3.483	3.768	3.398	3.835	3.569	3.794	3.698	3.771	3.878	4.316	3.916	3.858	4.063	3.958	3.752	4.031	3.246	4.002	3.471	3.601	3.055	3.323	3.553	3.429
470.0	159.6	236.1	760.2	 2349	 1217	656.4	714.2	788.3	864.8	919.0	914.1	879.6	806.9	725.2	638.9	571.2	538.0	527.4	516.5	506.6	521.5	523.6	527.5	542.3	559.5	561.5	567.4	568.5	568.4	555.1	524.8	473.8	418.2	357.2	303.8	262.2	241.3	222.9	174.6	129.7	105.3	86.68	72.13	57.73	47.79	42.89	43.65	117.8	559.8	 1799	 2291	 1249	23.61	4.602	3.794	3.430	3.788	3.350	3.482	3.583	3.530	3.754	3.883	3.576	3.646	3.841	3.620	3.736	3.734	3.327	3.630	3.303	3.132	3.102	3.188	2.923	3.207
475.0	158.4	217.2	401.6	 1486	 2475	678.4	631.5	725.8	766.9	817.9	823.7	806.2	737.8	661.3	587.9	510.8	493.2	474.4	464.5	462.5	458.0	467.7	472.3	477.0	492.5	499.1	508.5	513.3	505.7	504.3	468.2	429.1	382.5	336.3	283.8	242.2	214.4	197.7	190.5	142.7	108.4	90.94	74.45	61.14	51.33	43.19	36.74	48.47	141.9	415.5	827.8	 2540	 1506	33.64	4.169	3.409	3.043	3.333	3.209	3.324	3.318	3.579	3.328	3.518	3.450	3.314	3.189	3.042	3.191	3.338	3.107	2.995	3.101	2.643	2.904	2.720	2.910
480.0	144.0	189.4	302.7	731.4	 2783	 1070	590.2	651.8	728.6	763.8	763.6	759.1	680.9	602.6	539.9	475.6	459.6	433.1	427.1	429.9	419.5	423.5	432.5	437.5	450.6	455.8	460.7	471.5	458.3	461.1	433.8	402.6	357.4	312.4	269.1	233.6	204.2	178.3	180.7	158.3	113.9	92.58	77.24	64.55	53.99	45.62	37.66	34.64	52.01	107.7	201.1	 1068	 2785	 1111	21.71	4.023	3.065	3.274	3.184	3.143	3.345	2.926	3.284	3.416	3.141	3.006	3.405	2.652	3.309	3.051	2.850	2.523	3.024	2.512	2.673	2.848	2.577
485.0	136.3	203.9	272.6	443.3	 2060	 2197	566.7	617.0	673.5	710.0	715.8	701.3	632.1	569.7	500.8	444.6	417.2	399.7	396.0	391.9	391.8	391.7	394.9	399.2	418.9	422.6	423.1	432.3	428.7	426.3	411.0	374.5	337.6	293.3	257.4	224.4	194.6	170.3	161.5	159.7	125.6	95.19	79.38	67.76	55.59	47.83	38.80	33.17	31.94	40.86	58.64	263.6	 1458	 2642	328.0	11.58	4.248	3.626	3.318	2.909	3.017	2.889	3.096	3.219	3.086	2.898	2.778	3.107	2.786	3.017	2.794	2.742	2.335	2.558	2.675	2.451	2.541
490.0	94.63	191.4	254.4	338.4	941.7	 2718	 1256	554.9	623.5	656.2	644.9	635.3	572.3	516.2	455.9	410.6	382.5	365.8	355.1	349.5	349.1	349.6	354.5	361.0	370.4	374.7	380.8	387.5	387.7	383.7	370.0	338.9	306.7	273.3	237.0	208.5	182.1	161.7	144.5	140.2	135.7	107.0	81.60	66.96	58.52	49.73	41.57	35.68	29.55	28.11	28.29	71.20	356.2	 1223	 1977	 1089	25.20	4.125	3.465	3.556	3.020	2.810	2.910	3.139	2.830	2.627	2.804	2.950	2.693	2.824	2.553	2.339	2.395	2.221	2.217	2.207	2.196
495.0	87.95	147.2	271.2	305.8	465.6	 1659	 2681	634.2	552.1	580.9	597.7	570.6	520.2	463.1	415.8	375.0	345.5	321.1	318.5	312.0	309.8	307.8	314.3	318.0	317.9	328.3	331.6	336.7	343.4	342.5	325.5	308.5	271.2	250.4	216.4	191.4	168.7	150.9	133.1	124.6	122.1	118.9	92.03	69.53	58.70	52.35	43.90	38.46	33.12	26.34	22.83	30.10	90.94	282.9	676.6	 2177	 1462	34.53	4.530	3.503	2.932	2.865	2.662	2.769	2.644	2.326	2.308	2.621	2.456	2.552	2.295	2.334	2.446	2.061	1.844	2.006	1.763
500.0	74.39	128.1	245.5	279.1	347.3	788.1	 2975	 1153	494.0	548.8	534.4	519.9	477.7	433.9	380.6	340.1	311.2	299.7	293.5	283.2	280.8	282.6	278.8	294.0	293.7	297.7	302.6	305.2	315.1	304.3	292.9	277.9	250.4	226.4	202.1	177.7	157.0	140.0	128.7	115.4	107.5	109.8	98.54	71.50	57.91	52.47	46.03	40.23	32.93	26.72	22.22	21.49	31.95	73.24	163.2	904.0	 2533	401.0	23.05	4.075	3.117	2.970	2.669	2.594	2.445	2.697	2.377	2.431	2.242	2.669	2.283	1.779	2.146	1.944	1.831	2.088	2.039
505.0	83.90	112.2	222.2	290.6	293.4	453.5	 2226	 2236	488.1	486.5	498.9	480.5	446.3	392.5	347.5	309.3	290.8	278.1	265.8	263.7	259.3	260.4	258.2	264.3	265.4	273.2	273.5	277.6	279.3	280.0	270.8	253.5	229.5	208.7	184.6	164.7	147.8	133.4	120.9	107.7	97.74	99.09	98.55	76.90	59.87	51.06	45.79	39.23	32.77	28.40	23.25	20.56	19.90	27.34	46.55	219.7	 1297	 2323	348.9	10.82	3.393	2.996	2.504	2.472	2.385	2.538	2.335	2.264	2.188	2.076	1.899	1.805	1.853	1.634	2.021	1.877	2.012
510.0	77.05	100.4	177.6	279.4	276.4	329.0	961.1	 2850	 1142	445.7	437.8	429.1	388.1	357.6	312.5	279.1	255.6	242.9	232.8	227.3	230.4	226.7	228.6	232.1	230.7	234.8	237.2	240.5	247.2	244.6	239.6	222.9	203.3	184.4	164.9	148.9	135.6	120.7	108.9	98.79	89.65	84.26	84.55	81.87	64.36	51.29	43.95	39.35	33.92	29.16	24.41	20.95	17.91	17.37	19.83	57.78	315.8	 1108	 1772	828.4	24.41	3.327	2.766	2.251	2.280	2.152	2.174	2.035	1.933	1.757	1.583	1.650	1.738	1.548	1.788	1.740	1.791
515.0	64.56	89.86	137.9	229.5	276.5	275.9	431.1	 1712	 2694	514.2	395.7	377.7	339.8	310.1	273.9	244.6	225.1	211.7	205.3	196.7	197.0	195.1	192.7	201.6	200.8	201.1	205.5	211.8	210.8	210.1	206.0	194.6	178.7	164.8	147.2	133.4	120.2	109.2	100.0	89.45	83.23	74.49	70.52	72.87	70.63	54.17	43.01	38.64	32.89	28.89	24.96	21.14	18.17	15.40	14.49	22.20	78.93	254.5	613.6	 1871	 1125	31.64	3.163	2.474	2.021	1.956	1.951	1.997	1.886	1.394	1.715	1.637	1.645	1.585	1.374	1.395	1.485
520.0	54.32	77.10	118.8	195.2	282.0	251.1	305.0	760.7	 3205	 1074	353.9	340.4	303.8	284.4	248.1	225.0	202.4	190.6	186.4	184.0	173.8	173.2	174.5	179.2	177.2	181.2	185.5	189.4	189.2	191.4	186.8	175.4	158.6	147.1	134.3	120.1	111.2	99.78	92.68	83.72	75.95	69.06	64.72	63.05	66.57	57.99	44.81	36.66	32.77	28.25	23.88	21.53	18.36	14.85	13.63	15.06	25.73	64.17	146.9	805.6	 1983	383.1	18.52	2.536	2.243	1.964	1.928	1.691	1.742	1.353	1.513	1.262	1.173	1.329	1.227	1.288	1.356
525.0	49.40	73.74	115.6	155.7	256.1	247.1	244.7	394.9	 2370	 2306	357.1	312.9	285.6	248.5	230.1	206.0	189.8	176.6	169.6	165.5	160.2	157.7	160.1	157.2	160.7	164.6	163.9	168.5	166.7	170.4	166.3	157.2	142.0	133.8	122.2	110.4	102.4	93.67	84.57	76.80	70.74	64.50	59.65	55.15	56.98	59.44	48.52	36.39	32.02	27.54	24.43	21.69	18.61	15.78	14.10	12.79	14.31	21.18	39.08	196.2	 1037	 1737	307.3	6.297	2.191	2.138	1.901	1.607	1.697	1.391	1.394	1.363	1.131	1.253	1.358	1.096	1.359
530.0	40.69	69.02	99.63	139.6	191.9	258.4	220.1	273.0	956.0	 3002	 1000	277.1	253.7	223.9	199.0	177.4	166.3	156.1	151.0	142.8	139.7	138.0	140.0	137.8	137.4	142.5	144.3	145.7	147.6	149.0	142.3	137.4	127.1	117.4	107.2	95.73	88.61	81.85	76.15	68.91	63.41	58.91	53.32	48.54	48.05	50.84	49.76	39.13	30.90	26.04	23.46	20.16	17.12	15.58	13.96	11.84	11.26	11.73	14.66	49.24	251.3	844.9	 1314	572.8	21.07	2.327	1.810	1.636	1.469	1.494	1.357	1.177	1.031	1.157	1.107	1.124	1.131
535.0	37.94	66.63	93.55	111.1	149.1	242.1	217.6	214.0	375.7	 1671	 2756	327.2	216.2	201.6	180.6	156.0	141.6	135.6	132.8	119.2	121.5	118.9	122.9	116.1	118.7	119.0	122.9	121.5	125.6	123.9	123.3	117.2	110.7	101.5	91.42	84.27	76.78	72.51	66.35	60.15	56.91	51.79	48.78	44.44	40.26	40.50	43.08	40.19	31.52	24.46	21.50	18.70	15.79	14.57	14.22	12.18	10.76	9.566	9.002	16.25	60.48	193.1	467.2	 1343	403.2	25.24	2.377	1.621	1.546	1.464	1.240	1.398	1.033	1.086	0.957	1.021	1.200
540.0	33.37	56.19	82.06	100.6	128.4	204.3	222.6	179.2	247.1	666.1	 3295	863.5	192.5	179.3	155.1	142.3	127.5	118.9	119.9	110.5	109.2	107.6	107.9	103.8	105.4	105.2	108.6	107.5	109.8	108.8	107.9	104.7	97.07	87.77	81.40	75.98	71.21	64.25	59.38	55.60	51.28	48.12	43.32	40.85	36.58	36.61	36.07	38.60	33.18	24.96	20.53	18.05	15.49	13.80	13.21	11.70	10.06	9.173	7.471	8.967	18.32	47.04	110.5	604.2	 1347	338.9	10.53	1.562	1.521	1.467	1.073	1.206	0.758	1.092	0.632	1.020	0.979
545.0	26.76	46.28	76.43	87.37	111.5	158.6	239.8	171.9	191.8	300.4	 2322	 2125	191.6	154.8	138.1	127.9	114.1	104.5	105.5	99.32	98.83	93.01	95.09	94.31	91.78	95.73	96.82	96.34	95.92	97.77	95.22	91.03	84.97	78.34	72.55	66.63	61.35	58.00	53.69	48.90	46.20	43.85	39.46	37.45	34.48	31.46	31.23	33.79	34.06	25.03	20.09	16.56	15.73	12.99	11.82	10.88	10.45	8.501	7.165	7.105	8.589	14.43	28.29	147.8	781.9	 1222	54.74	3.720	1.462	1.290	1.079	1.258	0.967	1.050	0.772	0.804	0.742
550.0	31.17	45.48	71.30	80.80	95.40	124.1	199.5	191.2	162.4	191.7	840.2	 2846	770.7	135.1	118.0	107.1	96.17	91.63	86.09	84.97	80.83	78.97	81.82	77.62	77.39	79.11	81.15	78.38	80.96	82.28	81.98	77.71	72.13	67.05	61.55	57.12	53.11	51.31	46.61	43.35	39.94	37.34	33.88	32.40	30.17	27.22	25.71	25.67	28.98	26.35	19.84	14.92	13.36	11.80	10.87	9.572	9.730	8.257	6.877	6.287	6.062	6.855	9.634	36.16	192.2	631.2	875.4	228.1	16.45	1.562	1.207	1.242	1.036	0.807	0.758	0.864	0.740
555.0	30.29	50.83	52.20	74.10	83.00	98.58	139.9	222.3	144.4	148.7	293.7	 1482	 2425	166.8	97.79	86.13	77.15	74.74	71.63	67.92	68.43	64.58	63.26	65.17	64.51	64.72	65.91	67.96	65.95	68.41	64.91	63.27	58.53	54.62	50.04	49.06	43.30	40.92	37.57	35.37	33.86	31.24	28.17	26.55	24.47	23.47	21.93	19.30	20.93	23.28	20.59	15.22	12.42	10.53	9.570	8.637	8.184	7.633	6.599	5.802	5.184	4.885	4.922	11.05	45.33	143.9	342.5	888.7	347.8	16.26	1.381	1.006	0.851	0.600	0.813	0.673	0.686
560.0	27.51	42.60	43.68	63.16	72.13	74.72	104.6	204.8	141.1	120.3	165.5	529.7	 2909	347.8	83.94	75.83	65.69	65.04	59.00	58.93	55.83	54.36	55.34	55.04	53.81	54.97	55.74	55.05	57.60	57.72	55.18	53.32	49.29	45.60	42.48	39.66	38.31	35.74	32.61	29.74	28.40	26.21	23.79	23.71	20.77	19.73	18.88	16.21	15.97	18.53	18.87	15.80	11.59	9.390	8.342	7.527	7.491	6.941	6.466	5.410	4.820	4.191	4.247	5.253	12.87	34.54	81.63	430.1	884.2	243.4	4.440	1.179	0.823	0.756	0.715	0.696	0.784
565.0	38.56	39.71	47.54	58.89	62.83	68.12	80.53	150.2	156.5	111.5	118.6	208.0	 1938	 1624	83.43	67.09	58.95	55.66	51.12	49.11	47.39	45.53	46.56	45.36	48.38	46.19	49.75	45.98	47.31	47.24	48.49	44.16	42.29	39.21	35.52	34.41	31.70	29.54	26.74	25.43	24.76	21.84	21.04	19.92	17.26	17.34	16.80	14.11	13.73	14.72	15.87	14.54	11.15	8.397	7.549	7.371	6.551	5.952	5.728	5.196	4.348	4.016	3.837	4.112	5.625	10.35	20.54	107.5	539.7	735.9	49.10	1.870	0.912	0.795	0.774	0.561	0.606
570.0	25.86	40.82	49.25	48.10	51.52	55.98	60.18	93.52	173.8	120.4	100.6	116.4	650.5	 2353	538.1	54.61	49.45	46.76	43.20	41.29	38.44	37.05	37.00	37.33	37.19	36.82	37.54	35.43	37.27	37.63	38.19	34.67	33.92	30.65	28.28	27.17	25.42	23.61	21.58	21.95	19.46	18.30	17.05	16.09	15.10	14.44	13.34	11.91	11.32	11.16	11.15	12.11	10.64	8.063	6.928	6.176	5.710	5.429	5.166	5.228	4.613	4.045	3.620	3.513	3.585	4.937	6.735	26.15	135.6	407.9	461.8	185.1	10.09	0.788	0.787	0.462	0.510
575.0	30.72	28.00	46.53	35.69	42.87	48.20	55.31	61.75	130.6	147.6	88.21	88.91	208.1	 1146	 1917	81.38	40.02	35.21	33.59	32.32	30.78	29.39	29.76	29.11	28.61	27.74	30.12	28.84	28.92	30.26	29.84	28.84	26.53	24.45	22.45	21.78	20.30	19.10	17.70	16.48	15.47	14.19	13.71	12.73	11.78	11.18	10.80	9.856	9.447	8.447	8.078	8.649	9.631	8.693	6.057	5.477	4.672	4.777	4.356	4.254	3.758	3.641	3.153	3.174	3.324	3.261	3.572	7.547	32.02	93.17	203.7	535.3	213.9	7.123	0.878	0.551	0.388
580.0	22.31	30.13	50.73	40.38	42.95	38.96	44.56	51.13	90.06	167.0	88.94	82.44	101.0	378.8	 2328	237.1	33.60	29.80	29.94	26.54	26.85	24.26	24.06	24.10	24.28	23.75	23.95	23.90	25.35	24.40	25.30	23.80	22.44	19.98	19.48	17.48	16.35	15.45	14.11	14.39	13.52	12.59	11.75	10.82	9.885	9.856	9.108	8.506	7.716	7.081	6.653	6.522	8.249	8.467	6.727	5.007	4.600	4.256	3.550	3.740	3.218	3.270	3.484	2.960	2.907	2.994	2.706	3.687	9.098	22.35	49.46	273.6	495.4	53.46	2.085	0.574	0.473
585.0	30.07	35.42	43.40	40.44	38.26	38.52	43.97	51.59	63.06	157.4	109.8	78.04	75.41	131.1	 1511	 1214	34.54	24.70	24.29	22.33	22.42	22.13	21.98	20.76	21.29	20.36	20.45	20.84	20.65	21.95	20.66	19.23	18.33	17.31	16.02	15.23	13.57	13.20	12.08	12.77	11.31	10.14	9.371	9.804	9.034	8.185	7.776	7.439	6.937	6.375	5.970	5.356	6.797	7.123	6.760	5.031	3.837	3.724	3.718	3.431	2.852	3.196	3.007	3.083	2.589	2.459	2.296	2.561	3.545	6.304	12.44	69.59	330.0	382.7	39.91	0.830	0.424
590.0	20.72	33.98	37.76	38.16	34.89	37.37	37.35	40.96	51.63	106.5	146.9	75.36	66.60	69.50	477.4	 1732	356.7	23.10	20.09	19.08	18.70	18.87	17.44	16.18	16.53	16.37	16.62	16.60	17.06	17.25	16.59	15.43	15.26	14.44	13.52	12.17	11.57	10.84	10.31	10.10	9.326	8.189	7.885	7.713	7.192	6.511	6.237	6.153	5.728	5.095	4.730	4.511	4.629	5.045	5.505	5.156	3.807	2.996	3.110	2.632	2.593	2.628	2.538	2.744	2.530	2.240	2.094	1.895	2.082	2.493	3.712	16.40	84.13	236.1	299.6	104.8	4.955
595.0	16.73	27.96	37.53	32.04	29.69	30.21	36.42	35.88	42.01	62.93	149.9	89.07	62.29	51.94	132.5	808.2	 1321	40.07	18.59	15.68	13.99	14.23	13.23	13.13	13.04	13.28	13.03	12.69	13.07	12.84	13.44	12.25	12.26	11.63	10.54	9.455	9.039	8.282	8.066	8.166	6.965	6.896	6.548	6.118	5.918	5.744	5.456	4.865	4.801	4.358	3.697	3.359	3.103	3.418	4.287	4.451	3.736	3.140	2.570	2.081	2.362	2.068	2.077	2.305	2.213	2.087	1.976	1.652	1.870	1.586	1.637	4.374	19.54	53.61	136.7	316.7	56.88
600.0	18.04	32.48	35.33	27.84	30.13	30.82	29.36	36.89	36.75	49.83	114.3	122.1	63.56	47.63	54.45	249.1	 1615	164.1	16.18	13.49	11.21	12.48	11.40	11.21	11.13	10.48	11.29	11.27	10.49	11.57	11.64	10.69	9.436	8.849	8.554	7.866	7.959	7.824	7.059	6.425	5.868	5.505	5.854	5.399	5.382	4.826	4.366	3.656	4.054	3.978	3.431	3.045	2.586	2.665	2.966	3.981	4.065	3.202	2.237	2.122	2.060	1.921	1.872	1.844	2.028	2.093	1.934	1.435	1.565	1.343	1.103	1.451	5.053	12.61	33.24	175.0	270.1
605.0	20.14	32.93	32.80	35.88	25.43	23.39	30.43	32.71	38.44	47.03	87.10	144.3	65.95	49.33	38.34	77.69	 1036	822.5	17.11	11.85	10.99	11.60	10.13	9.143	9.428	8.848	10.02	9.268	9.107	9.203	9.768	8.488	7.687	7.262	7.384	6.797	7.104	6.805	6.177	5.548	4.966	4.976	4.699	4.735	4.395	4.165	3.777	3.498	3.402	3.133	2.901	2.472	2.109	2.453	2.500	3.122	3.563	3.049	2.397	1.791	1.937	1.624	1.628	1.819	1.680	1.640	1.799	1.215	1.255	1.380	0.927	1.165	1.822	3.529	7.943	46.21	195.4
610.0	20.05	21.04	29.32	29.41	20.43	20.74	24.08	30.06	36.68	43.88	65.39	116.6	88.57	47.17	34.69	35.63	313.1	 1211	250.4	9.802	9.038	8.987	8.119	7.779	7.574	7.283	7.226	7.773	7.672	7.782	7.512	7.033	6.937	6.252	5.990	5.547	5.555	5.118	5.121	4.574	4.103	4.002	3.524	3.666	3.449	3.231	2.881	2.674	2.828	2.651	2.289	2.239	1.992	1.969	1.964	1.967	2.731	2.838	2.323	1.730	1.410	1.377	1.239	1.324	1.337	1.273	1.550	1.438	1.263	1.066	0.777	0.776	0.996	1.235	2.154	10.86	50.53
615.0	16.55	20.87	21.09	24.73	29.30	18.63	21.02	30.02	35.40	43.46	51.94	77.04	110.6	50.79	30.91	26.39	83.37	567.3	964.3	24.44	7.288	6.657	6.773	6.463	6.548	6.459	6.008	6.278	6.332	6.366	6.444	5.603	5.706	4.854	4.121	4.552	4.405	3.711	4.416	3.441	3.194	2.969	3.180	2.785	2.318	2.843	2.376	2.420	2.555	2.155	1.880	1.605	1.770	1.498	1.614	1.740	1.529	2.363	2.218	1.731	1.324	1.224	1.200	0.986	1.172	0.814	1.152	1.400	1.228	0.957	0.699	0.841	0.668	0.657	1.075	2.896	11.65
620.0	24.74	23.19	20.57	24.78	21.43	19.98	20.63	27.49	30.66	35.38	51.06	63.48	104.8	60.70	31.72	24.26	29.95	174.8	 1178	126.8	6.952	6.023	5.808	5.535	5.712	5.995	5.222	4.970	5.564	5.212	5.378	4.790	4.512	4.033	3.863	4.125	3.757	2.938	3.565	3.352	2.744	2.625	2.708	2.250	2.157	2.091	2.068	1.714	2.177	1.899	1.482	1.406	1.320	1.249	1.245	1.405	1.289	1.812	1.880	1.775	1.276	1.127	1.041	0.848	0.973	0.774	1.000	1.099	1.241	1.018	0.712	0.822	0.767	0.501	0.586	1.025	2.881
625.0	13.75	23.87	20.75	23.44	20.31	22.89	20.02	24.98	27.38	34.58	46.84	54.45	89.74	77.86	33.03	22.05	18.99	50.81	769.1	624.9	9.636	6.223	5.446	4.851	4.909	4.679	4.619	4.962	4.239	4.672	4.035	4.025	3.978	3.241	3.206	3.123	3.157	2.634	2.845	2.801	2.666	2.226	2.342	1.852	1.962	1.931	1.641	1.454	1.760	1.495	1.389	1.374	1.016	1.146	1.153	1.225	0.905	1.328	1.489	1.668	1.337	1.233	1.066	0.875	0.791	0.905	0.743	0.958	1.074	1.115	0.678	0.625	0.701	0.678	0.495	0.527	0.947
630.0	15.08	17.76	23.56	21.18	20.91	18.49	19.95	23.87	25.51	34.04	44.95	49.17	63.62	87.86	39.17	21.03	16.49	20.72	232.4	916.9	187.7	5.357	4.376	4.202	4.185	3.665	3.902	3.771	3.752	3.272	3.145	3.284	3.299	2.898	2.755	2.626	2.383	2.391	2.114	2.146	2.171	1.696	1.778	1.465	1.504	1.603	1.320	1.398	1.276	1.166	1.172	1.101	0.896	0.907	0.990	1.058	0.874	0.988	1.058	1.436	1.360	1.145	1.063	0.807	0.788	0.867	0.740	0.792	0.748	1.022	0.788	0.654	0.649	0.435	0.374	0.464	0.590
635.0	12.44	18.79	24.60	19.70	17.05	21.96	19.02	21.29	32.20	34.53	40.19	48.76	53.14	72.55	56.22	23.51	16.88	13.64	60.09	430.7	732.6	17.38	3.768	3.825	3.539	2.979	3.010	2.752	2.907	2.765	3.105	2.600	2.083	2.474	2.365	1.937	2.172	1.805	1.856	1.677	1.572	1.508	1.067	1.337	1.146	1.387	1.093	1.260	0.950	1.000	0.923	0.785	0.727	0.711	0.714	0.786	0.921	0.820	0.862	1.007	1.150	1.142	0.867	0.695	0.636	0.806	0.673	0.541	0.547	0.796	0.744	0.822	0.452	0.349	0.354	0.482	0.561
640.0	12.11	22.34	24.80	20.43	18.12	19.61	19.23	23.79	28.30	36.03	38.51	42.63	48.12	54.78	68.16	25.71	17.65	12.36	20.16	128.1	907.2	104.9	3.508	3.055	2.788	2.684	2.389	2.808	2.537	2.346	2.842	2.377	1.822	1.917	2.200	1.538	2.036	1.692	1.619	1.087	1.178	1.356	1.023	1.196	1.057	1.165	1.006	0.925	0.862	0.790	0.823	0.737	0.918	0.671	0.843	0.810	0.782	0.863	0.951	0.751	0.908	1.092	0.934	0.725	0.709	0.752	0.611	0.667	0.529	0.771	0.487	0.989	0.478	0.452	0.289	0.429	0.420
645.0	17.53	21.44	27.52	27.73	19.28	19.76	22.42	27.00	26.07	31.99	38.60	43.17	44.89	45.06	67.97	33.97	18.51	13.68	11.47	36.65	589.7	486.5	5.279	2.750	2.558	2.599	2.039	2.337	2.056	2.392	2.377	2.100	1.635	1.646	1.577	1.652	1.279	1.475	1.233	1.212	1.151	1.255	1.134	0.927	0.779	0.803	0.887	0.990	1.014	0.719	0.617	0.591	0.780	0.712	0.719	0.624	0.623	0.613	0.587	0.671	0.659	0.957	0.927	0.914	0.571	0.674	0.629	0.832	0.510	0.534	0.478	0.605	0.709	0.454	0.487	0.397	0.405
650.0	15.25	22.40	26.84	23.79	15.85	14.99	15.22	21.21	27.84	30.05	41.43	43.00	44.21	43.44	54.85	45.51	16.84	13.28	10.94	14.79	216.6	786.1	43.01	2.378	1.889	2.170	2.012	1.985	2.077	2.208	1.900	1.735	1.657	1.325	1.634	1.169	1.313	1.369	1.105	1.185	0.940	1.076	0.872	0.939	0.839	0.850	0.717	0.790	0.709	0.667	0.671	0.694	0.719	0.557	0.764	0.559	0.604	0.787	0.649	0.665	0.555	0.706	0.724	0.653	0.716	0.490	0.611	0.617	0.564	0.563	0.490	0.618	0.783	0.561	0.367	0.439	0.264
