Sample:	'1
File name:	t2025041501Ò»·Ö¸É.FD3
Run date:	'13:43:42, 04/17/2025
Operator:	Administrator
Comment:	'

Instrument
Model:	F-2700 FL Spectrophotometer
Serial number:	23B8-004
ROM Version:	4J14000 07

Instrument parameters
Measurement type:	3-D scan
Data mode:	Fluorescence
EX  Start WL:	220.0 nm
EX  End WL:	600.0 nm
EX Sampling interval:	5.0 nm
EM  Start WL:	230.0 nm
EM  End WL:	650.0 nm
EM Sampling interval:	5.0 nm
Scan speed:	12000 nm/min
EX Slit:	5.0 nm
EM Slit:	5.0 nm
PMT Voltage:	700 V
Response:	Auto 
Corrected spectra:	Off
Contour interval:	50.000

Peak integration
Integration method:	Rectangular
Sensitivity:	1
Threshold:	1.000

Peaks
No.	ApexEX/EM(nm)	Height(Data)
1	225.0/575.0	55.26
2	230.0/340.0	655.7
3	230.0/380.0	481.5
4	230.0/395.0	491.2
5	230.0/500.0	262.2
6	235.0/515.0	222.1
7	240.0/265.0	369.9
8	240.0/410.0	480.3
9	240.0/525.0	201.4
10	245.0/270.0	374.6
11	245.0/405.0	475.3
12	245.0/535.0	171.8
13	250.0/275.0	476.1
14	250.0/550.0	139.6
15	255.0/285.0	502.8
16	255.0/565.0	118.4
17	260.0/290.0	487.7
18	260.0/575.0	100.4
19	265.0/295.0	580.6
20	265.0/585.0	87.92
21	270.0/300.0	760.5
22	270.0/600.0	75.93
23	275.0/305.0	731.7
24	275.0/610.0	59.53
25	280.0/340.0	421.6
26	280.0/625.0	50.70
27	285.0/320.0	679.5
28	285.0/640.0	40.64
29	290.0/325.0	594.7
30	300.0/335.0	408.0
31	305.0/345.0	363.9
32	310.0/350.0	298.7
33	315.0/355.0	286.8
34	320.0/360.0	276.7
35	325.0/370.0	257.6
36	330.0/375.0	254.7
37	335.0/380.0	258.1
38	340.0/390.0	225.4
39	345.0/395.0	213.1
40	350.0/400.0	216.4
41	355.0/405.0	201.1
42	365.0/420.0	177.2
43	410.0/480.0	45.55
44	425.0/500.0	29.95
45	430.0/505.0	26.42
46	440.0/520.0	19.04
47	455.0/540.0	10.63
48	485.0/265.0	2.366
49	505.0/275.0	3.278
50	510.0/280.0	3.471
51	515.0/285.0	3.538
52	530.0/290.0	3.443
53	540.0/295.0	4.247
54	545.0/300.0	4.887
55	550.0/305.0	4.736
56	560.0/310.0	4.215
57	570.0/315.0	4.628
58	580.0/320.0	4.538
59	585.0/325.0	4.704

Data points
	220.0	225.0	230.0	235.0	240.0	245.0	250.0	255.0	260.0	265.0	270.0	275.0	280.0	285.0	290.0	295.0	300.0	305.0	310.0	315.0	320.0	325.0	330.0	335.0	340.0	345.0	350.0	355.0	360.0	365.0	370.0	375.0	380.0	385.0	390.0	395.0	400.0	405.0	410.0	415.0	420.0	425.0	430.0	435.0	440.0	445.0	450.0	455.0	460.0	465.0	470.0	475.0	480.0	485.0	490.0	495.0	500.0	505.0	510.0	515.0	520.0	525.0	530.0	535.0	540.0	545.0	550.0	555.0	560.0	565.0	570.0	575.0	580.0	585.0	590.0	595.0	600.0
230.0	67.13	828.0	2045	666.2	39.13	10.09	8.633	6.871	5.958	4.933	4.489	4.055	3.583	3.209	2.782	2.413	2.145	1.910	1.776	1.707	1.587	1.577	1.305	1.245	1.153	1.113	1.147	1.101	1.038	1.059	0.947	0.934	0.880	0.854	0.774	0.776	0.766	0.757	0.700	0.675	0.755	0.779	0.788	0.684	0.609	0.633	1.173	4.249	7.300	5.347	2.410	0.773	0.522	0.517	0.491	0.502	0.504	0.506	0.531	0.539	0.530	0.486	0.501	0.494	0.506	0.514	0.531	0.502	0.490	0.540	0.505	0.521	0.553	0.518	0.547	0.507	0.557
235.0	125.5	252.2	1306	2337	537.0	50.53	9.054	7.768	5.845	5.037	5.154	4.656	3.878	3.356	2.813	2.188	2.028	2.108	2.085	1.521	1.566	1.532	1.254	1.162	1.185	1.256	1.139	1.070	1.111	1.013	0.957	0.901	0.848	0.866	0.823	0.834	0.763	0.808	0.704	0.750	0.756	0.729	0.845	0.881	0.874	0.743	0.755	1.462	3.072	5.338	8.453	8.347	3.689	1.095	0.563	0.538	0.537	0.546	0.506	0.575	0.518	0.522	0.561	0.514	0.529	0.499	0.527	0.578	0.527	0.502	0.557	0.520	0.502	0.514	0.578	0.548	0.567
240.0	182.8	158.1	406.9	2071	2595	421.4	24.36	10.21	6.245	5.760	4.864	5.109	4.009	3.568	3.105	2.225	2.260	2.030	2.136	1.580	1.524	1.413	1.333	1.255	1.343	1.180	1.227	1.116	0.969	1.077	0.942	0.922	0.853	0.877	0.774	0.835	0.733	0.804	0.722	0.793	0.657	0.695	0.707	0.821	0.797	0.890	0.742	0.881	1.079	1.872	4.876	10.64	12.98	8.759	2.981	0.856	0.566	0.493	0.535	0.525	0.512	0.534	0.531	0.510	0.492	0.497	0.522	0.540	0.492	0.537	0.515	0.525	0.500	0.545	0.557	0.523	0.560
245.0	153.3	228.7	162.3	729.2	2916	2927	298.6	14.42	7.478	6.139	5.691	4.729	4.053	3.325	3.261	2.637	2.328	2.292	1.908	1.599	1.601	1.424	1.421	1.303	1.334	1.292	1.341	1.173	1.001	0.987	0.951	0.997	0.825	0.811	0.804	0.793	0.758	0.945	0.724	0.704	0.680	0.675	0.708	0.696	0.733	0.967	1.065	1.001	0.761	0.796	1.568	3.886	9.437	16.03	14.54	7.602	2.083	0.611	0.515	0.522	0.539	0.557	0.485	0.514	0.541	0.604	0.478	0.525	0.498	0.476	0.508	0.557	0.552	0.522	0.561	0.524	0.541
250.0	76.73	177.2	254.9	251.1	972.3	3191	3459	1024	48.49	8.552	6.779	5.863	4.752	3.801	3.407	2.613	2.498	2.311	1.981	1.663	1.772	1.580	1.482	1.334	1.281	1.245	1.265	1.189	1.088	1.070	0.991	0.954	0.882	0.840	0.778	0.780	0.766	0.766	0.760	0.714	0.758	0.709	0.719	0.708	0.644	0.700	0.832	1.138	1.164	0.971	0.972	1.334	2.716	5.567	9.932	15.50	18.35	15.49	7.780	2.117	0.593	0.579	0.592	0.554	0.571	0.558	0.514	0.537	0.512	0.509	0.478	0.560	0.536	0.498	0.569	0.558	0.545
255.0	54.94	72.24	188.9	326.1	301.8	844.0	3125	5343	1256	40.23	9.172	6.739	5.669	4.629	3.558	3.127	2.449	2.230	2.207	1.980	1.837	1.694	1.475	1.224	1.303	1.344	1.253	1.139	1.146	1.139	1.071	0.925	0.949	0.910	0.801	0.753	0.757	0.795	0.727	0.755	0.754	0.729	0.779	0.641	0.667	0.665	0.568	0.774	0.879	1.120	1.599	1.440	1.190	1.774	2.736	4.179	7.922	18.65	29.36	24.23	10.75	2.134	0.586	0.584	0.595	0.546	0.545	0.560	0.537	0.619	0.527	0.535	0.521	0.542	0.563	0.688	0.677
260.0	55.10	45.42	83.09	294.8	291.8	240.2	1023	5107	5134	241.9	20.05	9.064	6.848	4.945	4.104	3.353	2.775	2.449	2.199	2.008	1.928	1.733	1.677	1.365	1.392	1.408	1.240	1.187	1.217	1.209	1.036	0.938	0.975	0.894	0.911	0.806	0.839	0.780	0.812	0.721	0.739	0.733	0.742	0.714	0.694	0.677	0.619	0.589	0.643	0.659	1.219	1.980	1.796	1.315	1.148	1.453	2.329	5.707	14.79	28.81	31.96	22.28	7.670	1.321	0.555	0.587	0.502	0.536	0.620	0.598	0.584	0.582	0.580	0.535	0.573	0.557	0.659
265.0	51.62	39.46	42.70	155.4	369.9	218.4	268.6	1901	6351	4676	177.4	12.80	8.560	6.228	4.582	3.473	3.418	2.485	2.449	2.241	1.979	1.863	1.795	1.560	1.346	1.429	1.236	1.279	1.310	1.316	1.123	1.131	1.051	0.922	0.937	0.881	0.810	0.837	0.802	0.720	0.713	0.731	0.722	0.716	0.689	0.627	0.575	0.604	0.607	0.540	0.650	1.185	1.912	2.366	1.473	0.891	1.161	1.752	3.946	9.757	22.59	41.39	31.29	19.10	4.132	0.830	0.591	0.521	0.665	0.618	0.568	0.629	0.596	0.536	0.541	0.514	0.570
270.0	58.85	42.07	35.01	58.50	192.4	374.6	257.4	477.4	2183	5862	5202	734.0	36.50	8.763	5.959	4.446	3.850	3.227	2.767	2.418	2.240	1.987	1.841	1.734	1.544	1.461	1.393	1.368	1.270	1.313	1.220	1.087	1.046	1.034	0.977	0.855	0.783	0.818	0.740	0.700	0.756	0.707	0.691	0.726	0.740	0.645	0.636	0.687	0.574	0.519	0.539	0.708	0.950	1.583	2.088	2.141	1.818	1.374	1.402	2.716	5.894	13.17	21.25	35.54	36.45	40.53	13.48	4.215	0.840	0.612	0.592	0.557	0.589	0.597	0.550	0.596	0.611
275.0	67.12	60.16	44.68	39.34	64.86	192.8	476.1	296.3	524.4	1539	5586	9999.9	966.5	26.05	8.698	5.906	4.798	3.851	3.292	2.621	2.654	2.303	1.859	1.858	1.658	1.591	1.436	1.429	1.536	1.243	1.144	1.117	1.093	1.032	1.031	0.851	0.930	0.826	0.873	0.759	0.869	0.783	0.713	0.829	0.773	0.712	0.689	0.731	0.579	0.552	0.500	0.628	0.634	0.897	0.941	1.548	2.542	3.278	2.155	1.266	1.900	3.490	5.297	8.915	13.72	36.53	54.87	32.31	21.80	3.903	0.764	0.691	0.653	0.663	0.568	0.590	0.596
280.0	87.58	70.99	58.83	45.59	39.65	75.69	334.9	498.7	222.8	388.9	1761	9999.9	8384	135.5	13.81	7.356	5.823	4.655	3.820	2.949	2.946	2.458	2.336	1.663	1.661	1.718	1.451	1.520	1.232	1.326	1.204	1.254	1.106	1.068	1.010	1.003	0.916	0.912	0.851	0.764	0.892	0.939	0.776	0.793	0.725	0.817	0.709	0.805	0.630	0.570	0.505	0.641	0.576	0.646	0.715	0.976	1.432	2.642	3.471	2.662	1.389	1.361	1.763	2.609	3.697	9.765	22.20	43.68	73.54	30.36	16.24	2.076	0.635	0.568	0.611	0.641	0.675
285.0	111.4	104.3	85.60	58.21	41.46	49.25	139.9	502.8	310.3	155.0	455.1	3472	9999.9	5934	96.36	10.68	7.563	5.300	4.256	3.296	3.081	2.566	2.405	1.759	1.676	1.713	1.652	1.600	1.234	1.378	1.303	1.383	1.037	1.117	1.065	0.978	1.007	1.052	0.867	0.874	0.868	0.854	0.910	0.823	0.766	0.790	0.722	0.927	0.687	0.621	0.657	0.775	0.615	0.617	0.630	0.771	0.896	1.296	2.394	3.538	3.404	1.889	1.156	1.227	1.496	2.967	5.776	12.68	35.07	55.22	82.90	27.31	9.616	1.074	0.697	0.671	0.678
290.0	141.4	148.6	122.8	79.02	52.45	47.77	71.45	213.6	487.7	393.1	212.3	870.0	3452	8326	7464	407.6	21.83	7.598	5.717	4.294	3.440	2.749	2.670	2.053	1.875	1.837	1.742	1.698	1.375	1.403	1.358	1.223	1.285	1.229	1.211	1.036	1.039	1.067	0.973	0.895	0.911	0.917	0.943	0.915	0.846	0.914	0.864	0.975	0.870	0.731	0.746	0.793	0.692	0.658	0.743	0.765	0.817	0.881	1.181	1.699	2.618	3.238	3.443	2.321	1.527	1.508	2.108	3.711	8.949	15.49	36.93	46.25	59.64	48.35	17.78	8.076	1.253
295.0	188.5	190.5	172.9	110.0	75.06	61.88	68.87	107.2	220.4	580.6	468.5	326.8	871.8	2157	7149	9999.9	562.6	17.59	7.721	5.429	4.655	3.419	2.981	2.434	2.072	2.010	1.954	1.840	1.675	1.475	1.394	1.438	1.176	1.392	1.228	1.174	1.136	1.126	0.955	0.967	0.985	0.931	1.009	1.075	0.886	0.978	0.954	1.115	0.982	0.825	0.739	0.840	0.790	0.684	0.727	0.792	0.818	0.911	0.939	1.032	1.288	1.714	2.495	4.154	4.247	2.508	1.514	1.865	3.016	4.321	9.072	11.34	16.59	29.76	58.21	77.83	28.94
300.0	194.3	229.6	194.9	137.7	91.34	79.52	87.45	100.8	146.4	364.0	760.5	379.2	330.6	586.7	2150	9894	5553	82.23	11.94	7.158	5.736	3.947	3.376	2.604	2.504	2.343	1.951	1.814	1.593	1.636	1.422	1.383	1.378	1.485	1.263	1.248	1.187	1.163	0.932	0.894	0.994	0.979	0.965	1.122	0.930	1.082	1.015	1.062	1.026	0.945	0.815	0.910	0.838	0.774	0.831	0.832	0.887	0.985	0.992	1.004	0.989	1.242	1.621	2.335	3.960	4.887	3.383	2.109	1.754	2.114	3.007	3.577	4.641	7.874	18.67	50.03	76.88
305.0	204.1	259.5	231.3	160.3	113.9	101.0	111.9	128.0	152.2	249.8	612.8	731.7	305.5	262.9	577.6	3342	9999.9	4473	63.43	9.557	7.037	5.058	3.953	2.904	2.855	2.535	2.281	2.051	1.773	1.813	1.451	1.507	1.330	1.316	1.390	1.200	1.188	1.066	1.068	1.071	1.062	1.066	1.051	1.143	1.010	1.058	1.139	1.209	1.152	1.003	0.843	1.024	1.020	0.871	0.927	0.964	0.983	0.977	1.159	1.230	1.277	1.289	1.555	1.708	2.293	3.578	4.736	4.410	2.609	1.910	1.963	1.957	2.248	2.751	5.066	13.01	28.97
310.0	242.2	286.7	259.3	187.9	134.4	122.6	136.5	157.1	184.9	247.7	386.9	662.7	644.3	309.2	251.6	832.8	3293	7750	7185	293.7	19.98	7.129	4.877	3.751	3.087	2.719	2.523	2.135	1.892	1.882	1.596	1.541	1.420	1.426	1.455	1.180	1.234	1.167	1.127	1.061	1.072	1.070	1.027	1.167	1.034	1.139	1.167	1.322	1.266	1.075	0.963	1.121	1.070	1.023	1.015	1.044	1.142	1.065	1.203	1.336	1.277	1.514	1.606	1.713	1.920	2.266	2.982	3.851	4.215	4.185	2.991	2.027	1.911	1.831	2.134	3.908	7.442
315.0	262.0	317.2	286.5	218.7	160.5	145.5	159.1	184.0	213.3	272.0	335.3	430.3	626.1	626.7	247.6	281.2	805.7	1922	6789	9585	450.3	16.87	6.940	4.993	4.004	3.263	2.903	2.579	1.989	2.052	1.892	1.626	1.551	1.405	1.497	1.268	1.365	1.372	1.155	1.081	1.146	1.211	1.040	1.201	1.114	1.228	1.358	1.548	1.306	1.189	1.074	1.085	1.048	1.197	1.011	1.093	1.122	1.224	1.523	1.279	1.500	1.689	1.734	1.840	1.886	2.074	2.332	2.513	2.766	3.643	4.628	3.846	2.818	1.942	1.798	1.919	2.703
320.0	302.2	386.4	345.6	242.7	177.5	158.9	172.8	203.1	234.2	293.8	347.9	391.8	463.3	679.5	421.8	188.5	264.2	484.9	1927	8708	8928	64.76	11.11	6.214	4.855	3.929	3.191	3.002	2.202	2.187	2.081	1.561	1.680	1.416	1.483	1.393	1.341	1.300	1.056	1.172	1.184	1.187	1.166	1.206	1.232	1.217	1.433	1.696	1.469	1.329	1.098	1.154	1.182	1.119	1.080	1.132	1.156	1.346	1.414	1.464	1.562	1.757	1.752	1.952	2.055	2.133	2.155	2.221	2.476	2.778	3.255	4.299	4.538	3.262	2.173	1.593	1.634
325.0	343.1	463.9	454.0	297.3	196.4	173.4	187.7	216.3	251.6	310.2	368.6	407.9	407.9	512.9	594.7	258.8	154.1	172.1	473.9	2757	9999.9	3702	54.63	8.495	5.992	4.748	3.660	3.157	2.260	2.341	2.053	1.838	1.564	1.469	1.535	1.427	1.320	1.453	1.169	1.148	1.261	1.296	1.215	1.285	1.336	1.513	1.601	2.054	1.871	1.473	1.223	1.372	1.257	1.273	1.138	1.208	1.256	1.374	1.547	1.514	1.702	1.833	1.947	2.022	2.140	2.261	2.216	2.170	2.598	2.701	2.406	2.875	3.991	4.704	3.481	2.178	1.759
330.0	379.2	511.0	528.2	365.0	240.5	195.5	202.1	233.6	263.5	327.7	377.6	413.6	408.6	407.1	453.4	441.1	227.9	112.1	156.2	658.2	3201	6597	6007	1157	17.97	6.378	4.579	3.904	2.820	2.617	2.321	1.929	1.736	1.699	1.445	1.427	1.414	1.344	1.208	1.235	1.372	1.264	1.264	1.422	1.334	1.665	1.682	2.133	2.041	1.591	1.469	1.564	1.432	1.357	1.258	1.263	1.358	1.357	1.646	1.610	1.607	1.782	1.915	2.046	2.095	2.203	2.472	2.371	2.518	2.634	2.390	2.521	2.979	3.237	3.289	3.458	3.093
335.0	402.7	546.9	615.9	419.5	291.7	228.7	219.8	249.0	276.7	336.4	391.2	420.0	420.1	396.2	345.3	355.9	408.0	180.5	100.9	195.1	750.5	1600	5234	8624	402.8	19.57	6.590	5.231	3.620	3.177	2.739	2.095	1.913	1.801	1.527	1.496	1.345	1.319	1.376	1.195	1.334	1.305	1.239	1.363	1.532	1.650	1.657	2.160	2.180	1.807	1.640	1.702	1.605	1.409	1.366	1.314	1.542	1.501	1.709	1.769	1.753	1.801	1.924	2.089	2.082	2.331	2.298	2.515	2.472	2.577	2.522	2.402	2.651	2.667	2.337	2.472	3.173
340.0	414.5	573.6	655.7	487.7	318.1	253.5	225.9	260.3	286.0	342.2	396.6	420.4	421.6	392.0	324.5	278.2	369.6	318.9	120.8	101.6	213.1	392.4	1441	7100	6859	337.4	10.70	6.428	4.098	3.631	2.872	2.492	2.157	2.086	1.705	1.469	1.369	1.438	1.227	1.124	1.383	1.323	1.488	1.410	1.577	1.587	1.723	2.149	2.192	1.952	1.729	2.065	1.781	1.591	1.587	1.504	1.542	1.566	1.730	1.625	1.767	1.954	2.037	1.960	2.190	2.355	2.470	2.478	2.426	2.645	2.485	2.476	2.580	2.415	2.018	2.211	2.382
345.0	420.7	561.6	648.4	479.7	347.4	269.3	244.4	273.6	296.7	346.4	392.2	411.0	418.5	389.4	322.9	258.5	265.4	363.9	218.7	90.48	101.4	129.8	356.0	2145	7484	3308	50.11	8.351	5.289	4.134	3.504	2.700	2.202	1.935	1.861	1.458	1.468	1.486	1.388	1.246	1.339	1.425	1.270	1.494	1.672	1.566	1.805	2.301	2.262	2.004	1.794	2.001	1.869	1.806	1.604	1.552	1.460	1.669	1.840	1.700	1.842	1.926	1.904	2.133	2.284	2.210	2.437	2.386	2.511	2.435	2.455	2.427	2.661	2.212	2.175	2.177	2.062
350.0	380.7	538.7	600.2	492.4	378.9	295.6	269.9	282.0	298.0	338.7	376.4	399.6	403.5	381.1	324.8	261.1	228.6	256.2	298.7	191.9	101.4	84.08	124.1	514.7	2198	5502	5237	1217	18.69	5.770	4.043	2.942	2.454	2.094	1.858	1.627	1.525	1.503	1.398	1.296	1.386	1.279	1.267	1.429	1.461	1.675	1.821	2.019	2.082	1.967	1.808	1.992	1.879	1.801	1.709	1.605	1.663	1.671	1.686	1.772	1.883	1.985	1.957	2.119	2.194	2.185	2.348	2.348	2.501	2.435	2.497	2.348	2.622	2.389	2.260	2.237	2.177
355.0	360.7	510.7	573.2	491.8	398.7	322.4	296.6	303.9	313.4	345.1	368.1	384.9	390.5	371.5	323.7	270.7	232.3	215.7	226.0	286.8	185.4	98.76	90.01	160.4	523.2	1306	3786	7944	394.8	22.95	5.830	3.807	2.983	2.545	1.858	1.690	1.611	1.562	1.403	1.317	1.423	1.332	1.274	1.356	1.479	1.543	1.716	2.072	1.984	1.987	1.738	1.925	1.886	1.935	1.827	1.796	1.837	1.846	1.846	1.791	1.848	2.030	2.069	2.146	2.020	2.170	2.187	2.246	2.361	2.389	2.393	2.356	2.392	2.412	2.423	2.126	2.286
360.0	362.0	470.4	542.3	476.4	406.3	349.2	315.1	316.7	323.6	345.8	365.3	376.6	381.1	365.2	326.6	280.3	241.0	216.5	201.2	247.7	276.7	143.8	94.12	92.78	159.8	323.7	989.6	5592	6686	361.7	14.77	4.952	3.706	2.724	2.310	1.960	1.668	1.743	1.428	1.334	1.411	1.329	1.234	1.507	1.284	1.557	1.663	1.941	1.963	1.890	1.822	2.041	1.892	1.862	1.948	1.816	1.963	1.917	1.852	1.925	1.802	2.110	2.157	2.182	2.059	2.141	2.248	2.287	2.350	2.424	2.617	2.246	2.506	2.400	2.298	2.164	2.308
365.0	333.6	450.9	520.8	469.0	413.9	356.2	332.2	329.7	339.6	346.4	365.2	375.8	375.3	361.0	326.9	283.4	255.6	225.8	203.9	206.9	274.0	230.9	118.9	89.76	87.99	113.0	251.1	1569	6167	6245	290.7	8.143	4.628	3.449	2.682	2.218	1.884	1.784	1.507	1.335	1.491	1.387	1.283	1.396	1.361	1.625	1.742	1.868	2.048	1.648	1.834	2.032	1.861	1.987	1.882	1.923	1.902	1.980	2.006	1.814	1.947	1.917	2.074	2.107	2.129	2.067	2.255	2.274	2.235	2.330	2.500	2.324	2.473	2.369	2.148	2.186	2.132
370.0	334.0	424.2	499.3	470.8	428.2	379.8	359.9	351.9	350.4	359.4	375.4	375.9	371.7	360.1	325.9	292.7	267.0	244.2	219.6	206.4	220.6	257.6	210.9	120.6	88.42	78.89	96.97	381.0	1710	5070	5034	1219	19.66	4.712	3.427	2.567	2.220	1.989	1.598	1.494	1.585	1.387	1.350	1.537	1.324	1.488	1.553	1.797	1.898	1.674	1.856	1.979	1.926	1.937	2.054	1.956	2.061	2.053	1.966	1.926	2.030	2.126	2.091	2.169	2.290	2.171	2.243	2.154	2.327	2.250	2.448	2.397	2.445	2.391	2.348	2.258	2.252
375.0	325.7	424.2	474.0	466.5	445.9	402.9	385.8	378.7	366.0	366.3	378.9	377.6	366.2	353.1	326.5	299.1	275.6	258.0	239.6	220.3	210.2	212.0	254.7	207.5	113.0	86.52	75.12	125.4	410.7	1179	3232	6937	1918	23.73	4.660	3.386	2.422	2.316	1.782	1.650	1.712	1.479	1.378	1.451	1.381	1.408	1.631	1.707	1.930	1.699	1.864	2.085	2.009	2.081	1.940	1.933	2.145	2.080	2.118	1.957	2.144	2.140	2.146	2.238	2.313	2.211	2.265	2.269	2.374	2.346	2.474	2.367	2.203	2.362	2.364	2.358	2.383
380.0	349.0	411.1	481.5	470.3	454.5	424.4	406.2	388.1	377.9	375.4	382.7	375.7	366.1	353.3	325.3	301.1	281.7	266.7	250.4	232.8	216.0	201.9	221.1	258.1	162.3	101.7	80.35	76.44	128.1	290.6	826.7	4383	6788	319.8	14.70	4.152	3.013	2.592	2.016	1.865	1.704	1.456	1.432	1.428	1.468	1.456	1.624	1.742	1.894	1.629	1.929	1.977	2.067	2.136	2.131	1.946	2.126	2.091	2.230	2.156	1.997	2.041	2.199	2.162	2.397	2.309	2.260	2.183	2.399	2.225	2.513	2.454	2.271	2.316	2.282	2.350	2.473
385.0	319.1	402.5	471.7	455.7	472.9	443.4	403.4	402.6	387.6	380.8	382.2	375.7	365.9	354.3	324.5	300.9	288.5	273.2	257.5	244.7	226.4	207.6	199.1	235.6	223.7	130.5	92.80	76.86	74.14	98.07	211.8	1173	5193	5284	263.9	7.808	3.786	2.905	2.164	1.977	1.777	1.637	1.449	1.541	1.464	1.615	1.549	1.834	1.735	1.749	1.755	2.121	2.195	2.147	2.100	2.070	2.188	2.155	2.119	2.342	2.253	2.135	2.132	2.227	2.234	2.412	2.186	2.140	2.299	2.059	2.598	2.324	2.270	2.294	2.309	2.289	2.457
390.0	320.0	415.3	474.0	478.3	474.3	451.7	428.3	419.8	401.1	385.3	383.4	373.2	362.2	353.0	324.9	302.8	291.7	280.3	264.0	252.8	238.0	218.5	203.0	202.4	225.4	200.5	124.8	90.22	74.36	67.24	80.97	286.3	1371	3750	3765	1045	17.74	4.068	2.738	2.304	2.139	1.776	1.622	1.680	1.566	1.545	1.591	1.863	1.755	1.732	1.817	2.119	2.151	2.167	2.153	2.237	2.182	2.284	2.247	2.240	2.289	2.142	2.225	2.267	2.200	2.258	2.230	2.264	2.234	2.188	2.501	2.228	2.357	2.430	2.274	2.465	2.463
395.0	341.3	427.5	491.2	482.7	477.0	456.4	438.7	434.0	405.1	398.3	393.7	378.6	367.0	347.7	325.6	303.5	291.3	283.8	274.2	262.1	244.4	230.1	215.9	199.3	193.0	213.1	191.6	118.1	88.36	72.09	61.47	96.25	327.6	866.1	2207	5582	1679	22.37	3.462	2.692	2.638	2.028	1.733	1.812	1.613	1.665	1.699	1.855	1.831	1.793	1.852	1.951	2.225	2.222	2.216	2.364	2.390	2.368	2.269	2.342	2.310	2.355	2.435	2.257	2.179	2.356	2.439	2.349	2.256	2.252	2.275	2.181	2.277	2.445	2.253	2.427	2.353
400.0	342.9	402.9	487.4	482.1	476.7	458.7	447.3	434.7	422.5	406.4	391.4	378.8	364.5	346.3	322.6	302.8	290.3	280.8	273.0	263.5	246.4	234.8	219.8	202.2	188.4	187.0	216.4	158.3	103.3	81.29	64.55	59.00	100.4	212.7	551.5	3316	5414	284.1	13.79	3.444	3.316	2.302	2.077	2.030	1.615	1.666	1.681	1.991	1.980	1.880	1.863	2.049	2.188	2.295	2.047	2.381	2.494	2.334	2.407	2.386	2.298	2.228	2.430	2.156	2.258	2.277	2.343	2.154	2.198	2.388	2.107	2.243	2.273	2.265	2.287	2.391	2.465
405.0	332.4	412.7	464.5	469.8	471.8	475.3	455.8	441.8	426.1	410.5	402.1	379.2	361.9	343.6	320.4	300.0	288.4	282.8	271.9	260.9	250.5	236.9	223.1	208.7	193.0	180.4	197.8	201.1	129.7	91.33	72.52	55.53	54.41	70.23	140.1	868.4	3986	4831	237.6	6.842	3.782	2.520	2.064	2.034	1.757	1.726	1.735	2.063	1.905	1.761	1.859	2.269	2.117	2.359	2.274	2.280	2.384	2.330	2.475	2.448	2.461	2.459	2.528	2.248	2.199	2.160	2.242	2.206	2.022	2.483	2.313	2.248	2.305	2.217	2.312	2.484	2.479
410.0	328.4	405.2	456.1	473.3	480.3	474.9	465.0	451.2	430.6	415.5	402.6	379.0	358.2	336.9	312.8	294.7	279.8	275.9	266.7	257.8	249.0	235.8	227.1	213.0	196.7	182.6	175.7	189.5	177.5	119.9	83.79	63.83	51.01	44.67	52.19	209.1	1038	3304	3022	946.5	17.60	3.442	2.618	2.276	1.808	1.914	1.788	1.976	1.828	1.739	1.828	2.224	2.206	2.276	2.263	2.224	2.378	2.342	2.542	2.404	2.534	2.542	2.392	2.365	2.356	2.310	2.250	2.183	2.239	2.294	2.228	2.135	2.353	2.186	2.256	2.434	2.359
415.0	307.7	400.8	454.1	470.7	478.6	474.9	457.9	444.2	433.9	419.7	411.9	378.8	355.1	329.1	305.0	283.6	271.9	264.7	257.1	249.3	243.0	236.8	223.3	214.9	200.1	184.8	174.0	164.0	177.4	166.7	104.9	74.28	56.55	43.89	37.88	64.97	244.6	757.7	1648	4256	1658	19.86	3.428	2.678	2.199	2.024	1.893	2.113	1.865	1.710	1.881	2.129	2.207	2.111	2.223	2.209	2.401	2.373	2.413	2.481	2.350	2.544	2.420	2.262	2.455	2.418	2.204	2.176	2.298	2.265	2.083	2.204	2.292	2.122	2.311	2.236	2.324
420.0	303.7	375.9	436.6	456.6	456.0	474.1	449.0	445.0	431.8	418.1	406.7	376.7	348.2	321.3	296.5	274.9	266.4	256.7	251.7	240.7	235.9	230.9	221.5	211.7	199.9	187.7	173.0	160.3	158.8	177.2	135.7	85.38	62.61	47.80	37.14	36.35	70.31	181.3	408.8	2498	5436	257.6	13.20	3.535	2.536	2.226	2.073	1.934	2.114	1.759	1.859	2.130	2.138	2.285	2.258	2.218	2.511	2.372	2.402	2.510	2.314	2.292	2.450	2.276	2.384	2.264	2.137	2.139	2.221	2.136	2.011	2.285	2.067	2.008	2.114	2.228	2.200
425.0	307.6	374.9	427.7	438.4	455.3	460.2	453.7	448.2	429.0	417.8	398.3	373.5	346.8	315.5	286.2	266.6	253.1	249.7	242.8	234.8	230.4	224.8	216.2	209.8	198.0	187.0	172.0	160.7	148.6	159.7	158.8	102.6	68.55	52.27	40.08	32.50	34.19	54.06	102.2	649.3	3888	3596	222.2	6.792	2.776	2.357	2.283	2.042	1.910	1.833	1.702	2.037	2.217	2.181	2.190	2.299	2.410	2.454	2.339	2.500	2.324	2.544	2.582	2.351	2.389	2.245	2.198	2.162	2.046	2.232	2.196	2.347	2.132	2.147	2.013	2.141	2.256
430.0	365.4	354.3	421.4	446.4	447.8	447.0	447.3	443.0	432.2	418.6	401.4	370.3	334.9	303.6	275.7	256.2	243.3	239.9	231.1	227.2	222.0	216.6	210.0	203.4	194.9	184.8	173.9	161.6	148.3	143.1	148.2	133.0	88.46	59.97	45.98	36.14	29.76	29.01	35.75	155.0	1006	2570	2891	897.9	14.13	3.142	2.570	2.347	2.033	1.871	1.793	1.966	2.155	2.088	2.156	2.321	2.399	2.329	2.427	2.425	2.430	2.416	2.477	2.361	2.362	2.383	2.203	2.180	2.111	2.217	2.085	2.101	2.122	2.041	2.108	2.145	2.094
435.0	581.3	350.3	411.5	445.6	437.6	437.8	442.1	432.5	431.7	418.0	402.7	365.2	329.1	298.8	272.4	248.2	235.1	228.4	222.6	217.5	210.6	207.2	204.3	198.3	191.9	180.6	171.6	159.3	152.4	140.3	130.9	130.8	115.6	74.17	52.32	40.53	32.86	26.37	23.49	46.31	233.7	590.7	1647	4647	1271	17.39	3.186	2.685	2.173	1.804	1.920	2.125	2.135	2.129	2.212	2.277	2.467	2.395	2.376	2.337	2.429	2.460	2.549	2.309	2.557	2.358	2.237	2.108	2.091	2.065	2.131	2.029	2.046	2.006	2.063	2.188	2.216
440.0	844.8	427.5	393.2	436.8	426.4	434.4	431.3	437.3	436.5	413.9	400.4	366.5	328.3	290.8	266.5	239.6	230.8	219.6	214.4	208.8	203.2	198.0	194.8	192.2	187.4	180.0	170.4	159.5	152.6	138.6	125.4	117.0	121.9	94.59	58.38	43.75	36.05	28.63	22.84	24.44	63.05	140.7	413.5	2930	3847	232.5	10.67	3.287	2.414	2.023	2.061	2.236	2.200	2.140	2.173	2.226	2.409	2.425	2.442	2.358	2.445	2.377	2.405	2.402	2.362	2.343	2.264	2.055	2.285	2.033	2.015	2.028	2.008	2.031	2.024	2.044	2.256
445.0	967.2	666.7	397.8	411.4	419.6	422.0	417.1	425.7	422.2	412.8	393.4	353.3	320.8	284.7	256.7	233.9	217.3	211.7	205.0	200.1	197.5	192.3	187.1	186.4	181.2	175.7	166.8	159.5	151.1	139.0	125.1	110.5	111.0	107.9	71.55	48.73	37.93	31.63	24.37	20.78	26.58	40.97	100.7	784.1	2995	3211	181.2	5.841	3.076	2.188	2.183	2.327	2.121	2.208	2.171	2.345	2.357	2.425	2.479	2.407	2.538	2.565	2.218	2.480	2.315	2.187	2.167	2.077	2.077	1.930	2.003	2.142	1.940	1.869	2.006	1.911	1.956
450.0	711.7	1143	501.6	380.8	385.6	398.9	402.2	407.6	408.2	392.7	376.9	340.7	307.9	274.4	242.7	218.7	204.4	199.0	190.0	187.3	184.4	180.0	176.7	174.0	171.9	165.9	160.0	154.0	147.5	136.2	122.4	107.2	96.72	96.99	87.37	60.40	42.86	33.75	27.11	21.90	20.23	20.09	31.50	183.4	791.0	2360	2577	775.5	11.81	2.803	2.497	2.455	2.229	2.194	2.142	2.268	2.328	2.338	2.388	2.386	2.312	2.393	2.363	2.432	2.221	2.237	2.106	2.007	2.074	2.025	2.115	1.921	1.982	1.797	1.931	1.953	1.928
455.0	380.6	1267	1020	374.3	362.8	375.1	383.3	384.2	382.3	370.1	362.9	325.9	292.8	257.1	227.2	203.2	188.7	184.1	174.7	171.6	169.5	165.5	163.6	162.6	157.1	154.7	149.8	145.1	138.3	131.1	119.6	104.6	92.06	82.21	83.49	76.50	49.89	36.73	28.96	24.52	20.22	17.53	17.54	49.10	183.2	542.2	1441	3642	1029	13.40	3.068	2.544	2.365	2.176	2.255	2.174	2.296	2.258	2.297	2.370	2.265	2.359	2.287	2.325	2.039	1.973	2.153	2.008	1.865	1.934	1.938	2.073	1.940	1.648	1.864	1.764	1.828
460.0	274.8	852.1	1511	529.8	339.1	356.3	363.3	358.5	364.0	352.4	345.2	312.0	278.3	244.3	213.0	190.0	177.7	173.0	161.0	160.0	156.3	153.4	153.3	151.9	146.5	145.8	140.6	135.7	131.3	125.9	115.6	101.9	88.69	77.50	71.93	76.17	61.36	39.69	31.27	25.86	21.04	17.77	15.12	20.14	48.21	127.5	358.7	2216	3213	175.7	9.464	3.066	2.447	2.262	2.399	2.294	2.398	2.246	2.031	2.268	2.327	2.181	2.157	2.320	1.973	2.032	2.007	1.864	1.895	1.946	1.909	1.843	1.913	1.824	1.662	1.858	1.801
465.0	230.1	492.8	1668	870.1	329.0	340.0	339.7	351.0	342.2	339.0	330.1	300.6	266.0	231.0	202.9	179.6	164.0	159.5	152.4	151.0	146.3	144.3	141.7	144.0	138.8	136.1	132.7	129.2	125.3	119.1	109.7	98.81	85.84	74.18	66.18	66.71	65.94	45.82	31.88	26.92	21.73	18.29	15.18	14.22	18.59	35.18	86.05	590.9	2577	2682	153.6	5.362	2.867	2.576	2.277	2.266	2.258	2.215	2.328	2.243	2.158	2.106	2.245	2.113	2.069	2.131	1.953	1.917	1.746	1.773	1.764	1.771	1.674	1.769	1.826	1.707	1.646
470.0	239.8	300.2	1067	2091	475.5	311.7	306.2	326.2	319.2	315.9	304.0	281.9	245.3	210.6	186.6	164.7	151.7	143.1	138.0	135.1	130.9	129.2	128.7	128.1	126.0	123.0	118.8	118.2	115.3	109.6	102.4	90.23	81.20	70.33	60.43	55.92	57.92	53.18	37.88	27.95	22.84	19.03	15.97	13.67	13.19	15.16	25.64	137.5	685.1	1943	1916	678.1	11.80	2.874	2.581	2.374	2.237	2.057	2.125	2.031	2.021	2.096	2.094	1.985	2.020	2.122	1.859	1.805	1.783	1.711	1.706	1.679	1.701	1.686	1.673	1.640	1.622
475.0	250.7	249.7	457.5	2109	1207	305.7	275.7	295.8	290.3	290.7	276.4	256.3	226.1	193.0	168.1	146.8	136.1	126.2	123.0	121.4	116.3	114.1	113.3	113.7	110.0	109.8	106.8	106.2	103.6	100.1	92.25	84.04	74.67	66.21	57.48	50.56	47.27	49.37	44.92	31.91	23.12	19.90	16.38	13.49	12.48	11.57	12.63	36.20	157.2	443.7	1009	2529	873.7	14.79	2.881	2.388	2.269	2.022	1.986	1.964	1.929	2.124	1.967	1.783	1.777	1.815	1.702	1.637	1.729	1.809	1.511	1.459	1.525	1.470	1.512	1.587	1.408
480.0	231.3	240.7	273.0	1325	1947	467.5	265.3	276.4	274.9	274.9	264.7	238.1	213.7	182.8	157.3	138.1	126.7	118.8	115.9	110.5	107.7	108.0	104.5	103.4	101.3	102.8	100.4	97.13	96.76	94.09	87.60	79.56	71.51	62.94	54.72	48.21	43.70	41.81	45.55	37.28	24.99	20.08	17.07	14.57	12.25	10.98	9.968	13.76	39.90	103.2	247.9	1445	2511	205.1	8.617	2.695	2.501	2.172	2.131	1.886	1.913	1.915	1.890	1.634	1.732	1.721	1.630	1.563	1.651	1.579	1.529	1.378	1.421	1.331	1.502	1.513	1.294
485.0	210.5	250.7	227.7	650.1	2156	1020	253.9	263.1	262.6	260.9	247.0	227.2	199.6	172.1	147.2	130.6	120.1	111.7	107.5	102.0	100.9	99.56	96.55	98.31	95.12	93.77	93.20	91.31	91.34	88.79	83.68	75.80	68.99	60.30	52.29	46.63	41.90	37.86	40.46	39.92	28.22	20.52	16.99	15.15	12.89	11.51	9.824	9.143	13.95	27.57	59.41	383.0	1910	1708	163.8	4.635	2.705	2.203	2.096	1.974	1.828	1.757	1.898	1.618	1.808	1.782	1.591	1.599	1.607	1.416	1.497	1.356	1.370	1.355	1.462	1.457	1.307
490.0	182.7	264.6	222.8	322.3	1356	2507	353.9	240.1	239.0	238.1	231.1	212.1	186.5	161.7	138.5	122.2	110.4	102.9	98.45	94.40	92.26	90.06	88.88	89.61	87.07	86.13	84.99	83.91	82.77	80.78	77.08	70.84	63.70	56.25	49.91	44.49	39.32	35.43	33.53	36.34	33.88	23.97	17.73	15.31	13.07	11.56	10.06	8.697	8.496	10.79	17.47	89.63	501.5	1321	1831	678.9	13.22	2.580	2.164	2.024	1.880	1.749	1.748	1.676	1.654	1.717	1.526	1.536	1.531	1.446	1.423	1.310	1.344	1.370	1.346	1.349	1.368
495.0	146.5	242.1	257.4	225.2	535.8	3222	1011	227.7	217.8	219.8	209.8	193.1	170.7	150.5	126.8	111.5	100.8	93.11	90.26	86.30	82.49	81.59	80.24	79.86	79.07	76.50	76.18	75.81	75.55	74.27	69.87	64.43	57.46	51.81	46.96	42.12	37.38	32.91	30.59	29.00	31.83	28.71	20.12	15.74	13.74	11.66	10.45	9.365	8.093	7.397	8.011	23.92	115.1	302.0	961.2	2509	1004	15.49	2.461	2.120	1.903	1.757	1.747	1.703	1.648	1.652	1.509	1.550	1.523	1.410	1.323	1.248	1.348	1.268	1.232	1.365	1.306
500.0	122.1	212.3	262.2	196.4	269.2	2276	1786	302.9	202.2	209.1	198.0	180.4	158.8	138.0	116.2	102.5	93.28	86.49	83.21	79.61	75.54	74.57	73.52	72.15	72.79	70.33	70.30	68.75	69.07	68.57	64.28	59.19	53.49	48.75	43.35	39.51	35.09	31.67	28.34	26.48	26.24	29.95	23.54	16.55	13.88	11.54	10.29	9.011	7.892	6.713	6.092	9.117	29.12	70.66	235.1	1417	2587	221.9	9.191	2.343	1.989	1.747	1.897	1.721	1.819	1.551	1.519	1.456	1.367	1.258	1.384	1.295	1.282	1.211	1.198	1.219	1.204
505.0	121.8	166.6	247.8	197.4	191.6	1021	2149	623.9	187.7	188.3	183.2	165.1	146.0	126.3	109.6	96.25	86.61	78.62	75.39	73.02	68.51	68.64	66.33	65.59	66.24	64.36	64.55	62.46	63.72	63.32	60.95	55.54	50.23	45.16	41.27	37.53	33.37	30.17	27.28	24.43	22.99	26.10	26.42	18.52	13.95	11.57	10.18	8.808	7.990	6.947	6.039	5.904	10.21	18.87	55.73	368.1	1809	1801	180.8	4.654	2.406	1.923	1.733	1.679	1.596	1.439	1.393	1.481	1.462	1.343	1.303	1.285	1.308	1.174	1.149	1.135	1.169
510.0	117.9	144.6	206.7	221.3	162.2	368.8	1415	1609	253.8	171.5	164.8	148.7	132.3	114.7	97.85	86.08	78.11	72.13	67.20	64.11	61.40	59.22	59.87	58.24	57.73	57.51	56.70	55.72	56.50	54.88	53.55	49.35	44.47	41.24	37.23	33.85	30.63	27.80	24.74	22.62	20.33	20.33	22.59	21.12	15.59	11.68	10.21	8.947	7.821	6.900	6.163	5.296	5.547	7.303	15.49	85.06	464.4	1164	1588	597.0	13.05	2.164	1.835	1.611	1.558	1.464	1.356	1.341	1.328	1.306	1.184	1.202	1.239	1.140	1.189	1.128	1.092
515.0	108.4	118.0	146.4	222.1	167.1	193.4	509.9	2028	869.0	157.5	147.3	133.2	116.7	99.46	85.37	74.94	69.88	61.92	57.48	55.21	54.47	52.02	51.36	50.38	49.80	49.10	49.05	49.57	48.39	48.79	47.31	43.85	39.60	36.30	32.53	30.26	27.31	24.09	22.30	20.44	18.24	17.55	16.96	20.65	18.54	12.60	9.791	8.676	7.610	6.659	5.989	5.513	4.781	4.717	6.404	21.83	106.0	264.1	695.1	1770	775.8	17.25	2.218	1.718	1.600	1.437	1.305	1.239	1.150	1.265	1.122	1.107	1.226	1.072	1.169	1.031	1.048
520.0	94.78	110.9	128.9	191.9	185.4	143.3	224.0	1404	1763	211.8	131.9	119.3	106.5	93.36	78.44	67.81	60.75	57.73	53.66	51.39	49.23	46.24	46.39	45.66	44.95	44.06	44.13	43.73	43.14	43.91	41.55	39.21	36.00	32.63	29.96	27.45	24.72	22.81	20.71	19.07	17.31	15.99	14.98	16.35	19.04	14.48	10.15	8.183	7.201	6.346	5.752	5.495	4.794	4.265	4.174	7.492	26.19	61.27	165.7	874.6	1719	230.5	11.44	2.084	1.787	1.464	1.322	1.180	1.232	1.181	1.046	1.046	1.073	1.031	1.075	0.997	1.024
525.0	87.92	99.93	107.7	151.6	201.4	131.0	148.1	645.4	2344	537.1	120.0	108.2	96.33	83.45	71.82	62.17	56.56	51.58	48.28	46.17	43.97	42.23	41.53	41.56	40.27	40.50	39.43	39.54	39.49	39.44	38.22	35.39	33.06	30.67	27.42	25.16	22.69	21.30	19.72	17.68	16.00	14.55	13.28	13.13	15.97	15.93	11.30	7.791	6.875	6.146	5.311	5.254	4.941	4.051	3.621	4.232	8.408	16.05	39.39	216.9	1044	1478	198.9	4.984	1.800	1.492	1.337	1.141	1.181	1.146	1.056	0.980	1.149	0.856	1.061	1.031	0.903
530.0	78.17	93.11	96.95	109.6	182.1	145.9	114.2	240.4	1577	1638	177.2	97.39	84.95	74.89	63.26	55.72	49.06	45.63	42.53	40.66	38.29	37.03	36.95	36.41	34.86	35.19	34.06	34.52	34.96	34.79	33.51	31.47	28.96	26.87	24.43	22.19	20.29	18.99	17.36	15.68	14.31	12.96	12.13	11.38	12.17	13.97	13.03	8.924	6.531	5.919	5.232	4.774	4.523	4.316	3.684	3.540	4.331	5.698	11.01	50.53	258.2	786.8	1155	485.5	14.48	1.737	1.345	1.136	1.068	1.095	1.032	1.087	1.012	0.928	0.947	0.929	0.940
535.0	69.10	78.64	81.84	88.39	131.4	171.8	102.0	124.3	516.2	2179	858.8	91.13	74.87	64.98	54.93	49.33	43.76	39.34	37.68	33.69	33.17	31.82	31.77	31.68	29.76	29.99	29.65	29.92	30.06	30.05	27.73	27.04	25.15	23.60	21.04	19.49	17.36	16.71	15.19	13.92	12.19	11.67	10.41	10.11	9.722	10.34	12.20	10.47	7.055	5.350	4.767	4.386	3.915	3.924	3.873	3.541	3.247	3.162	4.450	13.11	59.09	177.8	408.6	1157	822.6	20.97	1.616	1.272	1.053	1.081	0.933	1.074	0.899	0.911	0.850	0.915	0.849
540.0	70.84	77.36	71.45	73.76	95.12	166.7	108.0	89.45	187.5	1450	1787	132.6	67.06	58.81	50.26	44.21	37.66	35.11	32.81	30.29	29.95	27.99	27.63	26.75	26.40	25.35	26.05	26.03	26.45	26.88	25.20	23.55	22.39	20.37	18.72	16.94	15.83	14.57	13.71	12.20	11.14	10.43	10.09	9.141	8.668	8.198	9.781	10.63	7.672	5.371	4.369	4.364	3.702	3.634	3.454	3.733	2.919	2.612	2.761	4.551	14.92	41.37	94.70	490.6	1435	245.8	14.31	1.361	1.126	1.058	0.932	1.032	0.937	0.804	0.794	0.896	0.790
545.0	69.89	68.88	63.84	70.44	71.39	137.3	129.7	78.67	101.5	594.8	2512	402.6	60.12	51.96	43.10	38.39	33.48	30.65	29.07	27.27	27.69	25.69	23.74	24.32	22.93	23.15	22.92	23.24	23.02	23.07	21.81	21.05	19.68	17.49	16.35	14.97	14.22	13.00	12.04	10.80	10.24	9.379	9.510	8.209	7.542	7.188	7.415	9.056	8.545	5.542	4.308	3.881	3.542	3.166	3.063	3.184	3.056	2.708	2.308	2.571	4.942	10.75	22.73	116.3	702.2	1301	216.8	7.202	1.421	1.025	0.934	1.076	0.873	0.905	0.833	0.951	0.837
550.0	65.06	60.94	58.46	60.37	59.77	89.53	139.6	81.82	72.20	195.0	1523	1523	102.8	44.85	38.03	33.92	29.86	26.53	24.91	23.09	22.81	21.05	20.25	20.28	19.72	19.46	19.30	19.35	19.18	19.47	18.59	17.87	16.76	14.95	14.00	12.79	11.92	11.27	10.51	9.617	8.976	8.288	7.681	7.049	6.502	6.265	6.076	6.437	7.716	6.348	4.466	3.616	3.162	2.883	2.739	2.867	2.898	2.906	2.195	2.060	2.511	3.808	6.418	27.34	166.1	573.7	839.4	444.5	16.66	1.616	1.094	1.028	0.846	0.849	0.775	0.865	0.771
555.0	59.06	60.83	56.33	54.95	47.60	57.17	110.8	101.3	59.81	85.04	454.0	2046	553.4	39.09	31.13	27.25	25.26	22.13	20.10	19.21	18.39	17.36	17.02	16.77	16.21	16.04	15.99	15.24	15.70	16.00	16.01	14.54	13.48	12.35	11.49	10.34	10.13	9.276	8.574	7.923	7.175	6.885	6.505	5.817	5.664	5.512	5.059	4.826	5.373	6.061	5.013	3.666	2.774	2.603	2.443	2.387	2.319	2.740	2.336	1.916	1.861	2.128	2.617	7.223	38.06	129.1	253.1	689.2	607.6	24.37	1.363	1.058	0.966	0.870	0.872	0.894	0.795
560.0	57.78	55.45	49.67	47.06	43.85	47.61	79.23	117.3	56.80	56.11	143.4	1293	1297	65.63	27.40	23.35	21.86	19.55	17.38	16.86	15.69	14.49	14.08	13.85	14.26	13.51	13.33	13.19	13.27	13.05	12.68	12.20	11.90	10.34	9.631	9.067	8.520	7.898	7.459	7.256	6.262	5.997	5.482	5.295	4.749	4.563	4.278	4.144	4.049	4.759	5.083	3.969	2.708	2.318	2.155	2.191	2.102	2.129	2.287	2.031	1.579	1.634	1.768	2.651	9.471	29.89	58.25	245.7	807.4	254.4	18.51	1.153	0.903	0.805	0.902	0.812	0.792
565.0	54.96	52.18	47.82	39.97	39.50	39.71	50.67	118.4	62.44	43.93	64.36	489.5	1897	147.2	25.08	20.63	18.36	17.23	15.33	14.63	13.77	13.00	12.56	11.82	12.17	11.66	11.49	10.95	11.73	11.21	11.03	10.13	10.09	9.166	8.288	7.784	7.529	6.801	6.236	5.994	5.586	5.191	4.575	4.675	4.347	4.259	3.705	3.662	3.333	3.671	4.238	4.050	2.831	2.159	2.069	1.941	1.851	1.939	1.945	2.088	1.704	1.354	1.373	1.609	3.210	7.772	14.01	57.18	324.6	725.3	233.7	10.42	0.919	0.892	0.791	0.734	0.724
570.0	56.41	50.84	41.83	37.91	32.58	33.52	36.19	83.74	88.49	40.85	43.86	144.6	1166	1170	64.30	17.55	15.72	14.19	12.62	12.54	11.42	10.40	10.48	10.13	9.833	9.878	9.223	9.383	9.476	9.358	9.167	8.586	8.244	7.581	6.822	6.433	6.140	5.560	5.376	4.967	4.831	4.217	4.038	3.926	3.755	3.400	3.166	3.030	2.748	2.535	3.079	3.689	2.983	2.171	1.869	1.775	1.673	1.556	1.582	1.785	1.933	1.533	1.256	1.309	1.668	2.716	4.122	13.71	75.14	270.7	509.1	347.6	18.12	1.356	0.844	0.814	0.712
575.0	53.50	55.26	41.63	33.29	30.50	28.10	32.13	45.69	100.4	48.99	36.14	56.74	330.8	1609	543.5	16.15	13.59	12.11	10.89	9.926	9.112	8.340	8.304	8.575	7.893	8.114	7.713	7.661	7.726	7.565	7.576	6.993	6.456	6.305	5.804	5.262	4.914	4.534	4.358	4.214	4.136	3.494	3.723	3.216	3.022	2.872	2.828	2.684	2.289	2.129	2.215	2.615	3.242	2.501	1.893	1.648	1.516	1.424	1.385	1.347	1.568	1.756	1.472	1.127	1.238	1.517	1.732	4.002	17.59	61.32	134.5	397.2	410.3	25.59	1.236	0.739	0.649
580.0	57.38	43.82	41.04	31.63	26.13	25.34	26.10	33.23	83.43	69.68	31.97	34.79	96.64	1029	1437	31.45	12.47	10.28	9.217	8.567	8.071	7.229	7.221	7.050	6.744	6.949	6.431	6.561	6.463	6.588	6.345	5.950	5.763	5.541	5.311	4.547	4.321	4.034	3.892	3.792	3.365	3.184	3.065	2.836	2.625	2.470	2.346	2.278	2.081	1.841	1.854	2.031	2.641	2.525	1.843	1.432	1.428	1.316	1.246	1.328	1.263	1.555	1.699	1.114	1.107	1.179	1.126	1.752	4.727	14.49	31.00	125.8	437.4	248.8	19.37	0.797	0.769
585.0	47.12	43.02	39.87	30.35	26.22	26.78	25.02	26.79	58.11	87.92	32.84	28.27	41.00	389.3	1976	99.20	11.63	9.035	8.450	7.878	7.274	7.247	6.448	6.379	5.964	6.291	5.712	5.546	5.908	5.545	5.267	5.091	5.064	4.930	4.361	3.976	3.881	3.534	3.415	3.301	2.923	2.890	2.663	2.535	2.476	2.222	2.178	1.956	1.907	1.773	1.576	1.634	1.852	2.307	2.171	1.421	1.388	1.281	1.177	1.269	1.154	1.349	1.565	1.136	1.091	1.027	1.051	1.205	1.928	3.982	7.677	29.25	157.4	421.6	211.2	8.646	0.879
590.0	55.46	45.92	39.23	29.89	22.96	22.33	21.52	22.22	35.55	81.57	49.03	26.60	27.40	109.9	1188	815.3	32.89	8.680	7.386	6.851	6.101	5.966	5.507	5.374	5.052	4.798	5.068	4.843	4.572	4.846	4.543	4.185	4.207	4.008	3.659	3.449	3.294	2.893	2.785	2.648	2.577	2.463	2.326	2.281	2.095	2.015	1.811	1.708	1.605	1.528	1.346	1.418	1.352	1.850	2.082	1.710	1.326	1.192	1.100	1.082	1.026	1.102	1.104	1.323	1.226	1.038	0.935	0.995	1.160	1.591	2.388	7.268	36.37	143.2	305.2	198.9	17.20
595.0	48.35	41.80	36.04	28.90	21.83	20.78	21.72	20.27	24.92	52.03	71.40	28.30	22.16	38.56	331.2	1210	327.5	7.975	6.248	5.830	5.096	4.617	4.813	4.508	4.464	3.805	4.124	3.943	3.979	4.158	3.789	3.636	3.521	3.354	3.325	2.749	2.781	2.575	2.304	2.252	2.126	2.140	2.071	1.880	1.834	1.667	1.574	1.456	1.373	1.274	1.196	1.235	1.081	1.379	1.682	1.773	1.404	1.057	0.985	0.900	1.031	0.978	0.950	1.165	1.249	1.201	0.963	0.901	0.903	0.969	1.158	2.265	8.766	32.51	77.63	219.2	250.7
600.0	47.36	42.90	34.23	28.11	20.74	19.60	20.32	18.97	20.31	35.58	75.93	32.47	20.95	20.76	89.13	823.2	765.0	15.50	5.932	5.485	4.682	4.518	4.004	3.926	3.814	3.601	4.034	3.578	3.631	3.666	3.360	3.269	2.884	2.900	2.710	2.572	2.283	2.171	2.185	1.999	1.775	1.721	1.779	1.670	1.547	1.635	1.349	1.221	1.216	1.175	1.116	1.095	0.951	1.081	1.190	1.557	1.576	1.122	0.971	0.831	0.910	0.965	0.845	1.044	1.001	1.292	1.013	0.793	0.843	0.816	0.880	1.083	2.492	7.823	17.96	67.07	264.0
605.0	49.06	41.68	33.63	25.86	21.35	19.82	18.54	16.78	19.79	26.65	65.38	44.64	20.44	17.85	30.14	322.8	1518	66.47	5.447	4.660	4.355	4.006	3.701	3.573	3.292	3.540	3.439	3.430	3.041	2.939	3.075	2.949	2.657	2.474	2.354	2.491	2.150	1.984	1.851	1.781	1.548	1.658	1.448	1.538	1.409	1.403	1.214	1.231	1.091	1.060	1.027	0.924	0.912	0.983	1.012	1.263	1.578	1.189	1.027	0.917	0.823	0.807	0.771	0.922	0.897	1.052	1.103	0.897	0.835	0.745	0.748	0.809	1.103	2.309	4.539	15.74	93.08
610.0	52.18	39.49	32.58	26.22	20.00	18.33	17.28	17.73	19.76	22.18	44.44	59.53	23.88	18.15	16.86	87.54	1063	623.1	14.24	4.561	4.071	3.483	3.270	2.957	2.861	2.887	2.784	2.665	2.747	2.689	2.553	2.257	2.358	2.204	2.068	1.969	1.835	1.836	1.660	1.569	1.494	1.439	1.471	1.433	1.214	1.174	1.109	1.149	0.984	0.901	0.937	0.827	0.795	0.917	0.907	1.028	1.261	1.227	1.023	0.889	0.795	0.781	0.712	0.831	0.881	0.858	0.975	1.068	0.798	0.766	0.756	0.714	0.844	1.050	1.546	4.084	21.59
615.0	45.58	42.00	33.22	24.49	16.75	15.77	17.05	17.44	19.76	20.15	29.41	58.45	36.10	18.55	14.09	27.39	306.0	1034	73.41	4.640	3.559	3.164	3.058	2.599	2.334	2.574	2.489	2.543	2.263	2.367	2.217	2.036	2.025	1.874	1.621	1.609	1.524	1.594	1.321	1.323	1.347	1.265	1.246	1.136	1.057	1.085	0.962	1.031	0.892	0.792	0.745	0.766	0.757	0.748	0.771	0.822	0.910	1.155	1.106	0.920	0.827	0.745	0.629	0.718	0.828	0.780	0.807	0.969	0.984	0.820	0.743	0.675	0.732	0.727	0.900	1.455	5.321
620.0	47.62	41.03	32.96	22.84	18.65	16.41	16.91	15.41	16.72	19.02	23.54	45.94	45.89	18.40	12.71	14.03	79.51	766.7	440.0	7.848	3.411	2.688	2.548	2.597	2.294	2.259	2.305	2.158	1.948	2.122	2.032	1.905	1.896	1.738	1.562	1.395	1.392	1.483	1.227	1.087	1.194	1.170	1.086	1.084	0.997	0.946	0.855	0.955	0.773	0.833	0.674	0.705	0.738	0.668	0.717	0.779	0.802	0.889	1.186	1.014	0.819	0.724	0.711	0.739	0.719	0.719	0.681	0.790	1.095	0.883	0.728	0.692	0.690	0.652	0.705	0.850	1.627
625.0	47.72	44.93	30.75	21.47	18.38	15.86	15.65	14.53	15.83	18.78	23.10	33.92	50.70	21.20	12.63	10.19	24.36	327.0	772.8	44.28	3.399	2.533	2.379	2.592	2.078	2.083	2.243	1.991	1.832	2.038	1.917	1.724	1.656	1.560	1.331	1.313	1.347	1.294	1.173	1.269	1.074	1.091	1.051	0.988	0.904	0.959	0.801	0.816	0.752	0.700	0.689	0.719	0.725	0.735	0.707	0.718	0.770	0.717	0.978	0.975	0.775	0.736	0.727	0.730	0.702	0.715	0.677	0.730	0.977	0.867	0.763	0.703	0.683	0.687	0.598	0.757	0.845
630.0	49.52	39.55	29.47	21.74	19.19	15.26	15.43	15.03	16.03	18.12	22.16	24.56	43.70	31.33	13.38	9.043	11.49	87.31	600.4	410.4	8.075	2.434	2.245	2.141	1.843	1.836	1.936	1.665	1.732	1.696	1.674	1.476	1.583	1.442	1.224	1.212	1.185	1.160	1.071	1.075	0.984	0.979	0.954	0.980	0.831	0.907	0.781	0.756	0.755	0.656	0.673	0.633	0.639	0.640	0.665	0.688	0.762	0.706	0.771	0.862	0.846	0.722	0.726	0.668	0.725	0.721	0.705	0.717	0.786	0.772	0.815	0.765	0.720	0.706	0.623	0.671	0.644
635.0	45.03	40.93	30.53	20.10	18.50	15.21	14.92	14.65	15.71	17.22	20.05	19.69	29.86	40.13	15.46	9.369	7.753	24.10	188.6	863.1	58.36	2.391	2.220	2.022	2.002	1.765	1.758	1.445	1.702	1.486	1.488	1.354	1.305	1.249	1.115	1.119	1.020	0.997	1.084	0.868	0.881	0.969	0.882	0.862	0.838	0.870	0.710	0.720	0.759	0.584	0.623	0.622	0.596	0.636	0.596	0.610	0.655	0.594	0.708	0.721	0.724	0.736	0.809	0.634	0.732	0.672	0.696	0.676	0.659	0.711	0.712	0.824	0.675	0.650	0.606	0.654	0.663
640.0	50.91	38.96	30.55	20.04	16.69	15.63	14.19	14.18	15.87	16.23	19.50	19.86	22.48	40.64	20.80	9.277	7.525	9.501	50.06	710.2	373.4	3.545	2.098	1.902	1.721	1.856	1.602	1.496	1.428	1.381	1.360	1.298	1.346	1.137	1.064	0.984	0.947	0.985	0.942	0.842	0.856	0.829	0.774	0.763	0.819	0.829	0.654	0.740	0.616	0.622	0.619	0.600	0.542	0.586	0.608	0.648	0.633	0.683	0.702	0.638	0.755	0.715	0.793	0.644	0.625	0.651	0.711	0.611	0.628	0.673	0.722	0.794	0.755	0.704	0.553	0.632	0.613
645.0	46.42	50.65	31.26	20.86	18.26	15.71	14.23	13.69	15.29	16.14	20.66	19.71	19.76	35.06	27.24	8.923	6.715	6.573	14.79	331.9	731.6	19.12	2.115	1.755	1.619	1.585	1.524	1.478	1.287	1.276	1.176	1.403	1.111	1.151	1.035	0.952	0.914	0.908	0.875	0.852	0.854	0.824	0.766	0.825	0.696	0.808	0.636	0.639	0.644	0.620	0.563	0.580	0.574	0.541	0.610	0.636	0.607	0.574	0.595	0.701	0.672	0.689	0.761	0.653	0.609	0.661	0.694	0.656	0.600	0.608	0.666	0.649	0.764	0.760	0.637	0.568	0.692
650.0	50.21	45.24	33.98	22.21	17.37	15.41	13.71	15.06	14.28	16.40	19.86	19.33	18.73	25.55	31.79	9.873	6.621	5.718	6.334	99.76	788.5	63.60	2.320	1.889	1.423	1.527	1.595	1.350	1.318	1.316	1.169	1.299	1.047	1.148	1.049	0.977	0.892	0.922	0.966	0.770	0.850	0.754	0.755	0.720	0.667	0.709	0.589	0.637	0.625	0.563	0.520	0.560	0.517	0.533	0.595	0.535	0.595	0.601	0.642	0.630	0.571	0.629	0.695	0.619	0.720	0.657	0.580	0.583	0.666	0.622	0.578	0.636	0.783	0.830	0.761	0.582	0.645
