Sample:	'1
File name:	H2025082708养鸡场上游旁1号坑塘入水沟.FD3
Run date:	'10:36:00, 08/28/2025
Operator:	Administrator
Comment:	'

Instrument
Model:	F-2700 FL Spectrophotometer
Serial number:	23C7-003
ROM Version:	4J14000 07

Instrument parameters
Measurement type:	3-D scan
Data mode:	Fluorescence
EX  Start WL:	220.0 nm
EX  End WL:	600.0 nm
EX Sampling interval:	5.0 nm
EM  Start WL:	230.0 nm
EM  End WL:	650.0 nm
EM Sampling interval:	5.0 nm
Scan speed:	12000 nm/min
EX Slit:	5.0 nm
EM Slit:	5.0 nm
PMT Voltage:	700 V
Response:	Auto 
Corrected spectra:	Off
Contour interval:	50.000

Peak integration
Integration method:	Rectangular
Sensitivity:	1
Threshold:	1.000

Peaks
No.	ApexEX/EM(nm)	Height(Data)
1	225.0/635.0	19.02
2	235.0/635.0	19.49
3	260.0/285.0	201.3
4	270.0/300.0	524.6
5	270.0/435.0	1582
6	275.0/305.0	682.1
7	275.0/610.0	70.76
8	280.0/315.0	732.1
9	280.0/620.0	61.11
10	285.0/635.0	45.70
11	325.0/410.0	1563

Data points
	220.0	225.0	230.0	235.0	240.0	245.0	250.0	255.0	260.0	265.0	270.0	275.0	280.0	285.0	290.0	295.0	300.0	305.0	310.0	315.0	320.0	325.0	330.0	335.0	340.0	345.0	350.0	355.0	360.0	365.0	370.0	375.0	380.0	385.0	390.0	395.0	400.0	405.0	410.0	415.0	420.0	425.0	430.0	435.0	440.0	445.0	450.0	455.0	460.0	465.0	470.0	475.0	480.0	485.0	490.0	495.0	500.0	505.0	510.0	515.0	520.0	525.0	530.0	535.0	540.0	545.0	550.0	555.0	560.0	565.0	570.0	575.0	580.0	585.0	590.0	595.0	600.0
230.0	18.44	47.19	246.5	185.5	18.62	6.571	5.409	4.969	4.543	4.498	4.361	3.993	3.628	3.417	3.126	2.851	2.618	2.326	2.281	2.092	1.954	1.829	1.757	1.773	1.568	1.536	1.322	1.330	1.327	1.192	1.067	1.115	0.969	0.973	0.815	0.807	0.674	0.686	0.634	0.593	0.523	0.550	0.517	0.555	0.470	0.456	0.438	0.573	0.964	1.395	0.943	0.505	0.349	0.358	0.349	0.335	0.377	0.349	0.367	0.351	0.335	0.325	0.348	0.328	0.339	0.335	0.346	0.359	0.350	0.342	0.352	0.353	0.352	0.361	0.342	0.360	0.375
235.0	21.25	22.53	159.7	626.6	396.2	47.60	7.000	4.869	5.023	4.504	4.809	3.895	3.401	3.344	3.425	2.898	2.737	2.417	2.193	2.064	1.880	2.041	1.965	1.812	1.687	1.528	1.347	1.484	1.304	1.341	1.138	1.094	0.957	0.999	0.789	0.764	0.661	0.674	0.577	0.580	0.510	0.560	0.554	0.494	0.480	0.457	0.430	0.476	0.582	1.198	2.324	3.799	2.852	0.946	0.404	0.349	0.336	0.368	0.336	0.366	0.299	0.322	0.339	0.311	0.318	0.317	0.320	0.365	0.298	0.308	0.350	0.318	0.338	0.404	0.365	0.337	0.396
240.0	21.48	19.25	53.60	538.6	1455	366.6	28.26	5.890	5.963	5.468	5.317	4.577	4.121	3.407	3.494	2.739	2.593	2.580	2.193	2.325	2.128	2.188	1.911	1.771	1.779	1.530	1.453	1.331	1.328	1.342	1.310	1.032	1.041	0.960	0.837	0.718	0.665	0.774	0.657	0.617	0.569	0.653	0.548	0.497	0.512	0.492	0.370	0.434	0.444	0.590	1.272	4.196	7.320	6.536	2.994	0.675	0.381	0.359	0.382	0.381	0.362	0.304	0.334	0.368	0.348	0.378	0.429	0.363	0.345	0.400	0.350	0.328	0.354	0.425	0.333	0.358	0.384
245.0	23.45	25.23	25.68	171.1	1298	2153	299.9	14.60	6.728	5.350	5.290	5.146	4.609	3.927	3.371	2.832	3.134	2.505	2.425	2.289	2.266	2.130	1.923	1.685	1.777	1.594	1.593	1.353	1.374	1.238	1.212	1.172	0.975	0.928	0.853	0.782	0.778	0.687	0.656	0.614	0.548	0.562	0.537	0.560	0.499	0.550	0.419	0.502	0.469	0.411	0.602	1.606	4.783	9.725	11.63	7.370	2.230	0.503	0.344	0.335	0.360	0.323	0.346	0.328	0.374	0.377	0.390	0.328	0.378	0.378	0.360	0.326	0.339	0.336	0.328	0.323	0.392
250.0	28.28	21.91	31.48	60.61	377.0	1595	2692	1128	86.62	7.698	5.663	5.574	4.964	4.295	3.545	3.259	3.447	2.650	2.453	2.393	2.147	2.210	2.018	1.872	1.815	1.712	1.579	1.465	1.408	1.384	1.213	1.091	1.080	0.934	0.851	0.804	0.709	0.721	0.655	0.650	0.581	0.528	0.527	0.539	0.509	0.540	0.415	0.527	0.450	0.414	0.448	0.670	1.401	3.333	6.872	10.70	13.98	13.29	8.060	2.790	0.584	0.415	0.419	0.359	0.376	0.356	0.391	0.329	0.354	0.383	0.368	0.340	0.389	0.341	0.384	0.358	0.379
255.0	28.01	22.57	24.17	60.05	116.6	377.9	1542	4294	1702	107.9	8.303	7.051	5.753	5.113	4.003	3.547	3.348	2.802	2.688	2.477	2.311	2.175	2.183	1.827	1.831	1.815	1.613	1.567	1.441	1.481	1.343	1.072	1.115	0.979	0.896	0.792	0.843	0.626	0.643	0.682	0.627	0.551	0.529	0.583	0.467	0.474	0.419	0.455	0.427	0.470	0.488	0.600	0.669	1.050	1.908	2.779	5.299	13.31	23.86	23.19	12.50	2.898	0.543	0.355	0.332	0.380	0.368	0.440	0.389	0.349	0.344	0.375	0.427	0.335	0.351	0.362	0.336
260.0	26.78	17.36	17.67	49.77	96.32	110.3	400.8	2704	5474	1391	64.81	10.31	7.179	5.734	4.400	3.511	3.267	3.202	3.006	2.570	2.345	2.114	2.268	1.929	1.894	1.767	1.429	1.564	1.476	1.383	1.315	1.218	1.043	1.065	0.816	0.836	0.865	0.599	0.627	0.642	0.579	0.539	0.496	0.494	0.510	0.497	0.454	0.461	0.441	0.401	0.375	0.626	0.763	0.700	0.740	0.970	1.532	3.741	10.49	23.48	33.50	22.21	9.525	1.460	0.412	0.426	0.366	0.449	0.401	0.332	0.360	0.362	0.407	0.335	0.335	0.331	0.390
265.0	23.52	16.12	15.16	25.38	85.49	90.20	109.0	761.0	4235	6393	1077	26.71	8.643	6.727	5.384	4.131	3.607	3.123	3.119	2.383	2.645	2.357	2.264	2.073	2.033	1.750	1.631	1.629	1.444	1.536	1.358	1.245	1.036	1.049	0.985	0.833	0.906	0.667	0.655	0.678	0.546	0.601	0.590	0.540	0.492	0.508	0.396	0.442	0.416	0.390	0.387	0.414	0.606	0.796	0.747	0.652	0.649	1.185	2.739	7.144	18.78	34.91	39.55	19.58	5.260	0.678	0.424	0.391	0.435	0.344	0.376	0.387	0.391	0.417	0.378	0.396	0.385
270.0	24.95	20.19	15.75	15.66	38.38	98.69	105.4	195.1	1165	4551	7379	2963	66.54	9.788	6.794	4.975	4.175	3.400	3.245	2.845	2.709	2.319	2.379	2.138	1.926	1.980	1.748	1.611	1.636	1.622	1.405	1.181	1.163	1.051	0.895	1.008	0.823	0.697	0.693	0.648	0.629	0.625	0.599	0.664	0.539	0.543	0.448	0.486	0.407	0.401	0.372	0.400	0.450	0.645	0.831	0.906	0.901	0.738	0.968	1.947	4.714	10.79	20.78	32.25	32.72	33.31	12.76	4.814	0.721	0.411	0.464	0.399	0.402	0.421	0.421	0.448	0.389
275.0	29.22	23.69	19.04	16.43	21.12	42.42	125.5	143.9	285.9	1073	3943	9999.9	4344	79.19	10.60	6.309	5.191	4.250	3.611	3.240	2.827	2.548	2.556	2.457	2.007	1.995	1.657	1.723	1.599	1.695	1.523	1.218	1.142	1.176	0.999	0.970	0.815	0.679	0.656	0.670	0.740	0.655	0.581	0.624	0.546	0.560	0.460	0.512	0.472	0.365	0.362	0.372	0.405	0.497	0.558	0.635	1.040	1.324	1.057	0.885	1.446	2.781	5.038	7.948	11.95	31.34	57.32	56.65	19.15	4.424	0.620	0.478	0.395	0.459	0.455	0.465	0.405
280.0	31.21	25.39	22.34	17.84	17.82	23.78	78.88	186.6	140.0	273.6	1032	6628	9999.9	924.0	45.87	9.280	6.541	5.165	4.199	3.704	3.146	2.828	2.687	2.498	2.441	1.967	1.736	1.884	1.678	1.694	1.472	1.405	1.255	1.203	1.035	0.947	0.855	0.759	0.775	0.761	0.662	0.576	0.564	0.569	0.575	0.634	0.509	0.455	0.464	0.381	0.423	0.398	0.430	0.399	0.460	0.497	0.607	1.099	1.318	1.180	0.958	1.045	1.455	2.235	3.222	8.487	23.78	54.46	73.58	28.08	13.33	1.948	0.518	0.509	0.455	0.441	0.400
285.0	32.77	26.04	33.62	27.95	22.51	22.91	41.16	140.6	201.3	127.9	291.1	1881	9294	7678	653.6	20.52	8.771	5.823	4.951	4.124	3.354	3.197	2.765	2.554	2.413	1.959	2.049	1.772	1.854	1.801	1.462	1.401	1.262	1.130	1.139	1.039	0.982	0.865	0.771	0.655	0.578	0.593	0.606	0.607	0.597	0.627	0.570	0.549	0.500	0.434	0.443	0.412	0.431	0.423	0.496	0.453	0.512	0.742	0.972	1.388	1.480	0.989	0.879	0.930	1.319	2.485	5.969	15.83	39.55	68.92	77.41	23.91	7.161	0.847	0.495	0.607	0.451
290.0	36.69	36.37	51.95	52.05	38.92	38.33	47.42	86.96	198.6	253.2	198.6	550.4	2605	7853	9552	2295	40.40	9.289	6.351	5.244	4.318	3.563	3.216	3.049	2.536	2.400	2.190	2.075	1.862	1.922	1.617	1.487	1.317	1.268	1.117	0.971	0.940	0.905	0.767	0.693	0.632	0.674	0.641	0.644	0.616	0.619	0.550	0.576	0.567	0.531	0.527	0.548	0.512	0.490	0.516	0.481	0.617	0.617	0.701	0.939	1.221	1.543	1.676	1.368	1.249	1.431	2.285	4.356	10.01	20.27	39.35	57.10	69.85	56.47	14.60	6.559	0.835
295.0	41.57	46.47	76.48	77.92	64.57	63.00	71.60	93.32	144.7	307.5	404.8	372.6	795.5	1950	5697	9999.9	3336	47.76	10.10	6.754	5.124	4.502	3.569	3.369	2.975	2.616	2.537	2.043	2.120	1.984	1.922	1.669	1.529	1.154	1.202	0.934	1.019	1.003	0.751	0.767	0.679	0.667	0.679	0.648	0.661	0.636	0.603	0.615	0.692	0.653	0.609	0.651	0.629	0.601	0.633	0.576	0.703	0.784	0.657	0.779	0.956	1.290	1.653	2.538	2.453	1.895	1.822	2.236	3.461	5.726	9.979	14.12	21.85	49.51	91.46	96.73	23.28
300.0	42.67	62.76	92.23	101.9	81.64	77.36	92.76	117.5	160.0	271.7	524.6	485.8	472.2	648.4	1526	8196	9999.9	541.2	31.90	9.500	6.498	4.911	4.102	3.568	3.390	2.934	2.901	2.395	2.324	2.117	1.976	1.539	1.743	1.529	1.240	1.218	1.030	1.010	0.829	0.737	0.735	0.693	0.736	0.633	0.613	0.679	0.687	0.718	0.800	0.656	0.570	0.761	0.722	0.570	0.710	0.766	0.806	0.779	0.821	0.952	1.011	1.226	1.442	2.085	2.771	3.062	2.565	2.146	2.118	2.844	3.599	4.518	5.934	12.94	33.76	84.96	119.8
305.0	40.26	68.69	105.4	113.0	99.16	95.99	115.4	145.8	191.8	279.3	481.3	682.1	506.8	416.9	509.1	2265	9999.9	9999.9	415.4	18.34	8.780	6.368	4.763	3.946	3.794	3.155	2.948	2.438	2.157	2.186	1.980	1.808	1.584	1.403	1.300	1.214	1.043	1.011	0.906	0.792	0.710	0.797	0.657	0.726	0.576	0.647	0.710	0.733	0.780	0.749	0.678	0.764	0.745	0.738	0.786	0.785	0.788	0.985	0.974	1.084	1.129	1.260	1.632	1.951	2.320	3.006	3.648	3.125	2.679	2.519	2.549	2.623	2.575	4.039	8.488	22.66	55.34
310.0	48.32	72.48	120.4	137.8	119.9	119.2	142.4	178.8	238.2	332.0	470.1	663.6	725.5	493.4	344.9	631.2	2714	9127	9057	1702	30.62	9.177	6.809	5.148	4.193	3.476	3.318	2.656	2.420	2.247	2.045	1.848	1.706	1.491	1.376	1.215	1.078	1.009	0.936	0.892	0.762	0.839	0.697	0.761	0.617	0.723	0.677	0.771	0.779	0.821	0.758	0.798	0.847	0.822	0.853	0.948	0.973	0.996	1.095	1.283	1.423	1.442	1.867	1.910	2.258	2.553	3.093	3.602	3.933	3.592	2.937	2.467	2.171	2.285	3.021	5.983	13.33
315.0	47.21	81.03	136.0	157.0	144.9	143.9	172.3	219.9	280.3	388.4	508.6	636.7	732.1	717.5	414.2	317.0	707.0	2131	5687	9999.9	2625	36.41	9.664	7.101	5.024	4.342	3.538	3.017	2.803	2.396	2.347	1.849	1.757	1.494	1.376	1.247	1.219	1.006	0.974	1.015	0.786	0.795	0.756	0.751	0.643	0.704	0.665	0.787	0.810	0.885	0.860	0.884	0.908	0.962	0.990	1.021	1.066	1.195	1.290	1.408	1.702	1.830	1.951	2.319	2.499	2.753	3.046	3.273	3.391	3.864	4.427	3.536	2.629	2.261	2.188	2.676	3.963
320.0	55.61	89.70	168.6	195.8	171.9	168.4	199.4	253.5	320.9	433.9	560.7	671.9	719.4	767.7	580.7	308.0	296.3	557.3	1437	8001	9999.9	407.6	26.35	8.943	6.567	4.940	3.869	3.369	3.036	2.587	2.281	1.974	1.925	1.607	1.430	1.306	1.170	1.195	0.982	0.917	0.832	0.819	0.816	0.744	0.652	0.787	0.678	0.735	0.951	1.012	0.915	1.080	1.005	1.066	0.940	1.188	1.170	1.154	1.479	1.516	1.762	1.842	2.173	2.361	2.705	2.673	3.137	3.258	3.535	3.696	4.213	4.429	3.926	3.094	2.442	2.149	2.168
325.0	59.24	104.6	237.8	294.7	229.5	205.5	226.7	284.8	367.1	489.3	632.3	752.0	792.8	771.5	746.5	445.1	268.9	249.8	402.7	2149	9999.9	9999.9	333.2	16.82	8.234	6.500	4.525	3.587	3.390	3.024	2.787	2.249	2.166	1.908	1.474	1.382	1.173	1.189	0.950	0.957	0.890	0.835	0.839	0.690	0.777	0.795	0.772	0.936	1.105	1.201	1.314	1.258	1.242	1.174	1.154	1.203	1.347	1.494	1.638	1.752	2.016	2.123	2.417	2.730	3.017	3.115	3.397	3.688	3.887	4.113	4.081	4.287	4.630	4.404	3.248	2.675	2.290
330.0	63.16	131.5	301.7	393.7	299.4	267.2	288.3	348.7	436.9	565.7	712.3	838.4	884.4	836.0	761.1	636.1	412.2	254.1	222.4	575.5	2670	8703	9999.9	1474	27.09	9.037	6.217	4.589	4.139	3.397	2.909	2.523	2.259	1.954	1.617	1.349	1.333	1.128	1.027	1.000	0.922	0.944	0.854	0.791	0.817	0.779	0.891	1.041	1.218	1.470	1.580	1.646	1.541	1.482	1.397	1.440	1.626	1.748	1.856	2.047	2.336	2.458	2.581	3.100	3.427	3.540	3.985	4.116	4.267	4.416	4.392	4.342	4.420	4.462	4.175	4.119	3.534
335.0	65.36	144.4	322.8	446.2	376.5	341.5	360.6	413.2	499.0	623.3	773.9	895.8	950.6	902.9	785.3	651.0	595.5	376.0	248.5	275.3	703.8	2053	5612	9999.9	2481	34.71	9.652	6.751	4.984	4.169	3.517	2.874	2.216	1.971	1.739	1.571	1.347	1.183	1.306	0.973	0.970	0.958	0.983	0.939	0.809	0.844	0.837	1.094	1.291	1.643	1.739	1.857	1.854	1.649	1.706	1.822	1.857	1.933	2.094	2.362	2.508	2.822	2.923	3.280	3.671	3.850	4.217	4.325	4.542	4.803	4.555	4.611	4.569	4.497	4.121	4.233	4.236
340.0	66.15	152.4	361.2	499.0	439.2	406.1	424.1	476.4	547.7	680.3	821.2	943.5	998.3	970.5	846.6	691.4	623.4	537.1	335.2	261.7	314.5	578.1	1433	7682	9999.9	1938	25.81	9.518	6.735	4.839	3.643	3.154	2.408	2.258	1.851	1.602	1.510	1.158	1.295	0.969	1.058	1.026	0.836	0.913	0.910	0.894	0.885	1.211	1.515	1.640	1.885	2.163	2.201	1.916	2.038	2.041	2.209	2.274	2.321	2.500	2.774	2.912	3.502	3.516	3.728	4.059	4.496	4.659	4.924	5.019	4.921	4.948	5.137	4.893	4.263	4.243	4.354
345.0	72.77	159.1	374.7	533.2	487.7	469.6	483.2	530.1	603.3	715.4	853.3	976.5	1033	1008	899.3	748.4	635.6	610.0	478.6	323.0	281.1	296.3	440.6	2073	9811	9999.9	319.2	18.45	8.406	5.615	4.085	3.444	2.789	2.436	2.000	1.690	1.507	1.365	1.186	1.081	1.142	1.053	0.965	0.986	0.867	0.892	1.003	1.244	1.562	1.725	1.937	2.135	2.221	2.188	2.218	2.307	2.436	2.253	2.626	2.869	2.902	3.188	3.397	3.662	3.954	3.974	4.590	4.658	4.850	5.157	5.169	5.049	5.498	4.949	4.696	4.469	4.612
350.0	66.63	163.6	362.6	539.6	556.2	562.9	576.1	607.5	664.1	766.5	877.9	986.3	1042	1039	953.4	821.6	712.0	641.3	622.9	509.1	388.0	327.3	301.0	612.8	2604	7799	9999.9	1461	26.89	8.818	5.854	4.086	3.148	2.830	2.185	1.823	1.619	1.452	1.351	1.203	1.206	1.058	0.962	0.945	0.843	0.942	1.003	1.214	1.461	1.817	1.895	2.382	2.400	2.468	2.567	2.549	2.709	2.780	2.864	3.127	3.297	3.440	3.621	3.882	4.136	4.239	4.579	4.753	4.817	4.900	5.368	5.272	5.715	5.412	5.053	4.966	5.162
355.0	76.60	160.8	358.1	544.4	622.1	662.0	677.4	695.8	747.2	828.8	924.2	1014	1070	1070	1011	899.6	812.3	744.9	699.2	691.9	588.8	453.1	378.1	380.4	757.6	1878	4779	9999.9	2430	34.36	9.425	5.819	4.296	2.925	2.463	2.205	1.838	1.640	1.384	1.205	1.267	1.050	1.016	0.872	0.844	0.911	0.912	1.254	1.549	1.892	2.012	2.652	2.641	2.874	3.027	2.979	3.232	3.317	3.421	3.516	3.477	3.723	3.829	3.761	4.295	4.388	4.600	4.647	4.900	5.186	5.415	5.644	5.665	5.605	5.662	5.600	5.329
360.0	73.46	160.9	377.5	580.6	679.6	749.9	758.1	768.0	809.5	884.0	968.9	1053	1098	1100	1062	970.2	894.3	842.9	789.8	769.9	760.4	608.6	486.6	407.0	414.2	591.5	1239	6310	9999.9	2014	27.30	8.503	5.424	4.051	3.005	2.471	2.064	1.675	1.560	1.283	1.302	1.110	0.990	0.899	0.975	0.972	0.901	1.243	1.650	1.872	2.088	2.703	2.775	3.047	3.239	3.387	3.493	3.469	3.590	3.785	3.891	3.972	4.136	4.263	4.449	4.486	4.653	4.861	5.126	5.374	5.557	5.833	5.823	5.915	5.901	5.844	6.053
365.0	77.37	161.0	377.4	605.0	734.6	812.9	844.9	860.7	878.8	939.6	1017	1095	1133	1136	1109	1038	982.3	939.1	896.4	855.1	850.8	788.1	617.5	503.9	414.3	367.5	437.0	1686	8254	9999.9	320.9	20.03	7.720	5.005	3.385	2.683	2.272	1.951	1.561	1.438	1.238	1.231	1.102	1.005	0.975	0.944	0.999	1.295	1.571	1.859	2.140	2.787	3.113	3.417	3.585	3.668	3.852	3.931	4.023	3.950	3.974	4.204	4.285	4.502	4.614	4.696	4.774	5.025	5.281	5.477	5.718	5.901	6.270	5.845	6.119	6.330	6.764
370.0	80.60	175.8	398.2	649.9	805.1	910.6	947.3	961.5	968.9	1024	1088	1142	1178	1195	1169	1121	1092	1067	1041	1005	972.8	949.8	848.6	681.1	542.6	428.4	350.0	550.9	2164	6927	9999.9	3848	25.93	7.970	4.972	3.645	2.709	2.079	1.862	1.623	1.431	1.221	1.178	1.107	1.023	1.106	1.075	1.317	1.600	1.874	2.206	2.868	3.363	3.718	3.785	3.791	4.373	4.181	4.345	4.357	4.369	4.490	4.681	4.814	4.626	5.030	5.042	5.294	5.539	5.674	5.793	6.139	6.463	6.500	6.446	6.764	7.344
375.0	85.15	186.4	409.9	687.3	887.2	1009	1053	1066	1072	1106	1162	1217	1237	1246	1241	1209	1194	1193	1188	1156	1127	1082	1032	914.8	719.5	561.8	436.0	387.5	663.2	1673	4117	9999.9	2310	32.05	8.367	5.068	3.582	2.532	2.107	1.643	1.675	1.445	1.315	1.109	1.001	1.089	1.068	1.381	1.757	2.043	2.435	3.104	3.679	4.046	4.194	4.278	4.527	4.724	4.723	4.756	4.884	4.968	4.956	5.020	5.122	5.229	5.350	5.723	5.582	5.997	6.322	6.514	6.732	6.725	7.282	7.398	7.896
380.0	84.73	179.1	421.8	721.4	957.3	1063	1127	1131	1138	1171	1222	1266	1281	1293	1288	1265	1266	1276	1277	1264	1241	1188	1122	1062	876.7	683.0	531.3	411.2	387.6	537.7	1061	5218	9999.9	1937	25.78	7.606	4.791	3.046	2.291	1.899	1.731	1.489	1.447	1.357	1.142	1.165	1.149	1.409	1.704	2.178	2.405	3.361	3.945	4.156	4.200	4.380	4.956	5.137	4.962	4.873	5.028	5.216	5.371	5.338	5.485	5.412	5.820	5.711	5.827	6.177	6.464	6.713	6.901	7.310	7.340	7.827	8.068
385.0	102.8	191.8	432.1	767.3	991.1	1136	1191	1200	1204	1224	1271	1311	1324	1325	1330	1318	1320	1341	1353	1339	1334	1281	1211	1137	1026	814.3	641.7	498.5	394.6	339.1	387.0	1360	6484	9999.9	274.4	18.93	6.610	3.901	2.892	2.116	1.851	1.676	1.420	1.323	1.215	1.134	1.247	1.479	1.721	2.127	2.599	3.382	3.999	4.203	4.361	4.813	5.124	5.403	5.160	5.113	5.118	5.595	5.578	5.538	5.773	5.771	5.851	6.011	6.165	6.493	6.693	7.046	7.249	7.265	7.757	8.302	8.227
390.0	100.1	204.2	456.7	798.8	1062	1227	1276	1285	1292	1307	1332	1366	1372	1379	1381	1371	1382	1409	1431	1435	1428	1392	1329	1241	1138	997.4	803.4	636.5	505.4	394.4	315.6	457.3	1657	5365	7679	3306	22.43	7.441	4.230	2.944	2.264	1.891	1.526	1.422	1.293	1.357	1.364	1.608	1.879	2.259	2.631	3.666	4.241	4.505	4.831	5.063	5.508	5.627	5.514	5.730	5.694	5.789	5.830	5.725	5.917	5.971	6.137	6.183	6.379	6.641	6.865	7.316	7.444	7.498	7.851	8.471	9.075
395.0	111.5	220.2	475.8	839.5	1122	1296	1356	1367	1365	1383	1391	1421	1426	1431	1422	1415	1432	1464	1490	1500	1504	1478	1431	1345	1241	1121	991.3	796.7	644.3	511.1	386.0	330.0	525.5	1301	2743	8403	1955	29.22	7.883	4.563	3.044	2.281	1.743	1.760	1.335	1.426	1.430	1.648	1.974	2.248	2.750	3.834	4.530	4.771	5.157	5.142	5.610	5.806	5.922	6.095	6.071	6.249	5.883	6.119	6.014	6.267	5.934	6.301	6.644	6.786	7.200	7.235	7.534	7.823	8.242	8.703	9.179
400.0	108.0	219.8	494.5	856.8	1154	1343	1402	1426	1416	1417	1457	1466	1456	1457	1447	1437	1450	1493	1516	1535	1535	1531	1491	1420	1312	1188	1086	930.3	757.0	608.5	475.1	357.2	317.4	426.0	712.1	3519	8320	1769	24.20	6.868	4.062	2.574	1.949	1.722	1.468	1.402	1.469	1.617	2.007	2.419	2.704	3.898	4.772	5.058	5.561	5.482	5.736	6.057	6.090	6.199	6.412	6.288	6.280	6.081	6.228	6.182	6.176	6.612	6.609	6.665	7.311	7.452	7.997	8.044	8.259	8.863	9.076
405.0	105.2	235.0	496.8	886.5	1190	1353	1447	1458	1458	1458	1492	1493	1473	1479	1465	1442	1467	1494	1524	1550	1557	1562	1529	1460	1367	1250	1137	1033	866.2	704.6	560.6	421.3	322.3	267.9	277.4	899.9	4304	7883	1367	18.95	5.974	3.687	2.694	2.020	1.569	1.551	1.436	1.812	2.112	2.265	2.862	4.142	4.711	5.051	5.658	5.687	5.942	6.237	6.437	6.322	6.522	6.625	6.426	6.311	6.323	6.708	6.410	6.550	6.776	7.258	7.270	7.393	7.858	8.147	8.309	9.098	9.437
410.0	108.0	237.6	516.4	906.1	1203	1399	1485	1499	1510	1508	1529	1518	1500	1486	1464	1442	1454	1481	1520	1541	1553	1563	1543	1496	1411	1309	1199	1101	991.8	836.2	669.6	520.9	395.6	296.6	230.3	317.1	1085	3700	5913	2802	97.39	6.728	3.916	2.767	2.053	1.750	1.619	1.887	2.098	2.487	3.116	4.105	4.888	5.231	5.674	5.962	6.200	6.229	6.510	6.456	6.616	6.652	6.670	6.589	6.671	6.482	6.658	6.676	6.708	6.993	7.289	7.461	7.780	8.102	8.446	8.871	9.103
415.0	101.7	233.9	525.0	895.5	1235	1416	1488	1531	1539	1539	1557	1541	1507	1478	1446	1419	1434	1451	1488	1512	1529	1540	1530	1505	1439	1348	1247	1151	1065	959.0	786.1	620.2	480.0	364.9	274.9	231.7	356.7	903.0	1895	5923	1842	28.04	7.139	4.240	2.704	2.086	1.791	1.955	2.105	2.598	3.050	4.264	5.011	5.323	5.781	5.919	6.285	6.382	6.476	6.542	6.797	6.781	7.074	6.811	6.913	6.630	6.733	6.921	6.887	7.024	7.325	7.429	7.576	7.724	8.200	8.421	9.074
420.0	104.7	233.7	526.4	901.3	1209	1405	1507	1539	1552	1552	1573	1537	1508	1459	1426	1397	1402	1425	1452	1473	1493	1508	1508	1487	1434	1357	1267	1180	1093	1006	869.1	689.9	542.7	418.2	318.9	247.6	221.3	300.7	495.2	2257	6200	1680	23.63	6.231	3.769	2.828	2.135	2.353	2.190	2.725	3.040	4.124	4.955	5.189	5.646	6.034	6.237	6.288	6.591	6.780	6.598	6.914	7.049	6.894	7.077	6.659	6.533	6.558	6.876	7.168	7.707	7.289	7.529	7.645	7.826	8.576	8.730
425.0	113.3	224.9	517.9	888.5	1206	1418	1496	1548	1560	1554	1579	1540	1498	1444	1398	1362	1365	1393	1410	1429	1455	1467	1477	1461	1410	1354	1277	1193	1111	1025	924.1	758.2	594.1	469.8	365.5	282.4	218.5	189.3	196.1	578.0	2876	6160	1349	18.78	5.418	3.430	2.547	2.248	2.239	2.705	3.105	4.175	5.037	5.337	5.599	5.735	6.373	6.418	6.180	6.494	6.419	6.880	7.008	6.854	6.859	6.583	6.509	6.963	6.860	7.291	7.166	7.575	7.608	7.514	7.877	8.073	8.347
430.0	122.2	225.8	514.4	869.2	1205	1401	1497	1550	1568	1567	1580	1533	1490	1422	1371	1332	1325	1350	1359	1381	1399	1416	1425	1421	1386	1338	1274	1206	1134	1053	948.9	822.4	669.4	530.8	423.1	331.1	259.0	199.2	158.9	210.4	719.9	2639	4756	2529	94.95	6.898	3.859	2.840	2.783	2.856	3.071	4.222	4.778	5.254	5.501	5.689	6.317	6.444	6.522	6.736	6.733	6.752	6.893	6.945	6.855	6.469	6.661	6.839	6.669	6.825	7.177	7.047	7.451	7.470	7.879	8.105	8.438
435.0	122.9	227.8	501.3	863.6	1193	1394	1491	1552	1561	1569	1582	1533	1467	1399	1339	1298	1282	1298	1303	1322	1338	1358	1376	1374	1349	1306	1256	1205	1147	1073	973.8	856.9	736.5	596.0	476.7	380.7	305.5	237.0	182.3	155.1	239.0	645.4	1432	4996	4003	26.95	7.034	4.162	3.234	3.178	3.099	4.249	4.864	5.256	5.552	5.740	6.414	5.831	6.432	6.663	6.758	7.062	6.977	6.675	6.701	6.426	6.728	6.623	6.701	6.666	6.963	6.953	7.088	7.276	7.604	7.675	8.309
440.0	138.6	236.5	493.8	854.5	1198	1353	1480	1537	1557	1568	1571	1524	1446	1379	1317	1267	1246	1250	1260	1279	1294	1314	1329	1331	1311	1279	1238	1198	1152	1080	985.9	867.9	755.1	643.8	518.7	419.2	338.2	265.8	207.9	161.9	149.0	213.6	373.4	1857	6082	1585	21.06	6.332	4.037	3.612	3.429	4.298	4.886	5.335	5.484	5.710	6.160	6.119	6.412	6.788	6.956	6.976	6.852	6.845	6.727	6.500	6.879	6.543	6.561	6.966	6.976	6.914	7.306	7.128	7.477	7.251	7.916
445.0	138.8	239.4	471.1	832.1	1159	1335	1456	1518	1538	1551	1555	1503	1425	1354	1286	1231	1202	1205	1211	1220	1245	1269	1276	1283	1268	1244	1206	1168	1136	1077	989.1	877.9	763.6	666.4	550.7	448.0	365.0	293.6	230.8	180.4	143.9	131.7	145.0	470.1	2650	5816	1166	17.04	5.565	4.028	3.766	4.520	4.826	5.228	5.581	5.667	6.137	6.309	6.453	6.409	6.603	6.940	6.803	6.809	6.597	6.643	6.615	6.491	6.535	6.818	7.126	6.637	6.894	6.984	6.861	7.193	7.796
450.0	113.6	243.4	463.5	795.3	1083	1281	1399	1457	1480	1506	1510	1458	1377	1296	1225	1170	1135	1134	1137	1143	1163	1176	1194	1201	1193	1172	1144	1121	1091	1042	971.5	868.3	760.9	662.1	576.2	479.6	390.7	321.8	259.7	208.8	165.8	132.9	111.5	164.8	652.1	2453	4355	2147	78.57	6.163	4.485	4.722	5.105	5.177	5.580	5.444	5.969	6.115	6.324	6.338	6.469	6.464	6.813	6.542	6.450	6.340	6.366	6.339	6.388	6.717	6.595	6.626	6.620	6.574	6.896	7.034	7.387
455.0	109.3	241.5	504.4	751.3	1029	1217	1330	1385	1413	1440	1441	1394	1315	1227	1160	1095	1055	1054	1052	1053	1066	1078	1100	1106	1106	1086	1067	1049	1034	999.7	937.2	840.7	743.2	649.7	571.0	499.9	412.6	340.3	280.5	233.0	186.7	150.5	119.3	110.4	200.3	585.5	1307	4171	1475	20.24	6.216	5.621	5.281	5.168	5.653	5.113	5.629	6.037	6.048	6.236	6.096	6.378	6.459	6.418	6.204	6.075	6.080	6.076	6.192	6.272	6.156	6.047	6.176	6.388	6.369	6.561	7.038
460.0	104.9	213.8	563.3	736.5	982.3	1161	1275	1311	1354	1382	1391	1345	1269	1177	1100	1031	1002	988.9	985.7	987.4	990.7	1006	1023	1028	1033	1019	1006	991.3	980.1	954.6	897.1	816.5	726.3	637.2	558.6	494.9	428.7	353.9	292.1	243.8	201.0	163.3	129.5	106.4	107.2	176.7	326.6	1563	4417	1177	16.08	6.680	5.647	5.223	5.347	5.110	5.400	5.555	5.879	5.758	5.914	6.138	6.114	6.138	5.952	5.721	6.058	6.074	5.821	5.830	5.817	6.013	5.942	6.351	5.782	6.384	6.557
465.0	95.36	190.4	576.4	833.1	937.7	1106	1187	1253	1295	1322	1320	1280	1203	1113	1045	975.3	939.3	929.6	925.9	921.4	929.4	939.4	957.1	960.2	961.9	954.0	941.0	933.6	926.8	905.5	861.3	784.9	703.4	619.7	549.0	482.2	427.5	365.5	300.3	251.9	209.9	173.4	141.2	111.5	93.47	91.66	110.7	385.5	2114	4237	879.3	14.30	6.507	5.522	5.227	5.127	5.274	5.487	5.850	5.685	5.743	6.022	5.968	5.810	5.940	5.751	5.879	5.845	5.453	5.675	5.685	5.705	5.915	5.851	5.476	6.315	6.171
470.0	93.17	174.0	452.4	1084	1002	1019	1109	1163	1209	1231	1236	1198	1121	1040	962.2	900.4	863.1	843.6	840.9	835.1	839.5	848.8	859.9	865.2	872.1	866.3	856.5	850.1	846.4	834.4	797.3	730.7	661.4	587.7	523.2	460.4	408.7	362.5	307.9	255.8	216.9	181.0	148.1	121.4	97.87	79.62	68.95	118.9	513.8	1911	3031	1459	16.95	7.012	5.808	5.154	5.277	5.323	5.373	5.338	5.411	5.472	5.642	5.636	5.544	5.397	5.415	5.426	5.337	5.211	5.306	5.207	5.631	5.395	5.366	5.658	5.652
475.0	85.94	161.3	344.8	982.4	1407	955.0	1026	1071	1112	1131	1139	1104	1036	962.5	883.5	825.4	788.6	769.4	765.9	754.0	751.1	755.1	770.6	775.1	774.9	774.4	771.0	768.3	768.2	759.5	726.4	674.9	614.1	550.4	490.8	436.1	387.2	343.1	307.7	261.0	218.2	184.1	153.8	128.9	104.9	82.76	65.69	64.60	143.3	447.9	942.5	2893	1325	20.96	7.165	5.518	5.165	5.019	4.880	4.711	5.019	5.093	5.230	5.372	5.266	5.010	5.148	4.700	5.038	5.002	5.036	5.137	4.899	4.789	5.061	5.162	5.248
480.0	82.02	150.6	322.4	717.2	1753	1069	961.9	1002	1046	1079	1081	1048	980.4	905.7	828.2	779.5	732.8	716.8	705.0	695.3	698.1	695.7	711.6	717.6	717.1	716.0	709.1	711.4	711.1	707.8	685.2	637.0	581.9	520.9	471.7	418.6	373.9	331.6	299.8	264.3	220.1	185.8	158.2	133.1	109.9	87.40	68.72	55.97	64.03	124.0	231.4	1134	3317	1086	16.65	6.462	5.396	5.219	4.767	4.746	5.086	4.988	4.957	4.868	4.960	4.607	4.523	4.509	4.665	4.819	4.530	4.624	4.523	4.713	4.804	4.527	4.952
485.0	81.92	139.0	299.0	561.6	1628	1496	909.1	961.3	995.0	1030	1037	1003	936.5	863.1	790.7	737.4	699.0	673.0	662.2	652.9	649.2	650.8	659.6	668.0	672.9	667.8	665.5	668.0	669.3	668.3	643.7	601.1	554.0	502.5	454.2	405.2	363.4	322.9	289.3	264.3	223.8	190.8	162.2	137.7	113.3	92.89	73.78	58.07	49.88	55.09	72.94	279.7	1761	3280	187.7	11.48	6.027	5.239	5.142	4.791	4.825	4.642	4.922	4.633	4.704	4.395	4.576	4.405	4.477	4.436	4.422	4.347	4.363	4.298	4.315	4.514	4.559
490.0	71.63	133.9	271.9	484.3	1026	2040	1104	897.3	934.6	958.5	964.7	940.4	874.7	803.0	739.4	683.7	647.1	619.9	604.9	598.0	593.8	596.5	603.6	607.7	612.5	609.5	607.5	608.6	615.7	613.4	596.0	558.2	516.7	469.5	426.5	386.4	348.3	309.6	278.2	252.0	224.5	192.9	164.2	141.0	117.9	98.75	78.79	63.68	51.45	43.75	40.79	82.56	430.5	1574	2544	805.3	16.40	6.040	5.296	4.908	4.713	4.622	4.723	4.481	4.415	4.288	4.308	4.076	4.215	4.174	4.212	4.142	4.138	4.062	4.252	4.265	4.418
495.0	65.88	125.6	255.9	432.0	678.0	1656	1845	856.2	857.5	878.3	891.7	861.9	799.5	735.1	673.1	621.4	588.1	564.5	548.3	539.9	535.3	537.2	539.8	544.7	548.4	544.5	546.1	548.8	551.2	555.9	538.9	507.9	474.2	433.9	395.1	360.5	324.8	291.8	264.2	237.4	214.2	192.1	166.0	140.4	119.8	101.7	82.13	67.75	55.08	44.99	37.37	41.30	114.6	366.5	950.9	2798	1268	19.63	5.997	4.963	4.726	4.274	4.229	4.363	4.360	4.065	4.066	4.052	3.896	3.997	4.000	3.734	3.998	3.700	3.814	3.831	3.949
500.0	67.34	115.9	239.4	398.0	574.3	1055	2345	991.0	797.7	816.1	826.3	799.6	748.3	691.6	624.7	577.2	543.9	523.5	504.6	497.7	488.4	489.6	492.7	498.0	496.0	493.4	497.8	500.3	503.9	509.2	494.5	471.3	437.1	401.0	365.7	338.3	304.6	276.2	251.7	225.2	203.2	184.7	164.3	139.9	120.1	101.9	85.09	69.44	57.60	46.74	38.12	33.50	45.43	98.43	230.6	1265	3002	852.7	13.67	5.232	4.824	4.319	4.137	3.969	3.902	3.712	3.890	3.789	3.618	3.870	3.742	3.749	3.661	3.736	3.647	3.628	3.726
505.0	64.32	102.5	216.0	373.5	504.9	716.5	2164	1489	744.6	757.5	766.5	749.6	691.2	636.8	584.7	532.4	502.7	482.1	463.9	455.2	450.3	449.4	451.4	454.5	451.7	454.0	453.6	454.8	459.2	465.9	453.6	434.0	402.8	372.1	340.4	312.1	285.8	259.1	237.9	212.8	190.8	173.6	160.3	138.4	119.9	101.2	84.35	70.21	58.37	47.75	39.26	32.75	30.75	39.55	66.13	312.9	1741	2615	181.6	7.572	5.023	4.415	4.094	3.883	3.850	3.475	3.417	3.503	3.506	3.446	3.383	3.498	3.453	3.574	3.309	3.322	3.472
510.0	62.74	97.23	195.8	340.7	448.6	569.8	1237	2243	919.6	680.7	689.0	663.9	619.9	569.1	519.3	475.7	444.8	426.5	413.7	400.3	395.6	394.2	396.2	399.1	396.5	397.1	396.2	400.2	404.7	408.6	400.0	382.8	354.6	328.1	303.6	280.3	256.7	235.5	215.7	195.5	176.3	158.4	146.1	133.3	115.7	98.09	82.14	69.47	58.58	48.53	40.54	33.63	29.13	27.47	30.65	82.98	430.9	1422	1712	629.3	13.67	4.540	4.100	3.701	3.536	3.263	3.217	3.150	3.108	3.159	3.161	3.021	3.028	3.061	2.989	3.082	3.120
515.0	52.92	89.60	172.4	298.4	395.5	481.9	657.6	1897	1761	622.9	610.4	578.3	548.1	503.9	454.1	419.4	391.8	372.1	357.2	347.5	340.6	340.0	339.6	342.0	339.6	340.5	341.2	345.8	348.0	350.9	345.1	330.3	308.4	287.4	266.5	247.7	226.8	210.1	191.2	175.0	159.6	143.3	130.7	122.6	110.4	94.36	78.50	68.08	57.77	47.94	40.04	34.46	29.48	25.38	22.91	32.15	107.5	327.4	735.2	1981	801.0	14.79	4.165	3.670	3.183	3.030	2.955	2.882	2.813	2.860	2.931	2.867	2.693	2.740	2.606	2.770	2.762
520.0	54.38	81.29	158.0	267.7	360.2	427.9	500.2	1115	2461	739.6	547.2	525.6	495.8	453.8	410.0	379.2	352.2	332.8	321.2	312.0	305.9	303.2	302.4	302.8	302.0	301.5	302.3	305.4	309.1	312.9	308.9	295.6	276.7	259.2	241.3	223.4	205.7	189.8	174.0	160.6	146.7	132.9	120.0	112.3	104.4	91.53	75.65	64.96	55.67	47.53	39.77	34.57	29.67	25.39	22.15	20.90	36.00	82.46	178.3	1006	1821	192.6	7.697	3.795	3.223	3.059	2.775	2.772	2.551	2.482	2.627	2.490	2.545	2.450	2.417	2.542	2.422
525.0	48.39	74.97	136.7	233.6	333.3	386.5	432.8	631.7	2373	1281	502.1	484.9	448.3	414.4	373.8	342.7	319.6	300.6	288.7	280.7	275.6	271.2	270.4	272.5	271.4	271.0	272.4	274.9	278.6	281.8	276.5	261.9	248.5	232.2	217.3	203.3	188.0	174.8	159.2	146.8	135.3	122.6	111.1	102.7	95.62	87.29	73.49	62.57	53.37	45.39	38.83	34.05	29.24	25.31	21.98	18.88	20.05	28.42	47.89	253.7	1219	1498	28.22	4.549	3.089	2.787	2.653	2.518	2.364	2.498	2.237	2.293	2.414	2.184	2.288	2.174	2.388
530.0	44.18	69.26	124.4	208.6	296.2	350.7	374.5	434.4	1277	2203	675.7	426.8	394.3	364.7	327.5	300.9	282.0	262.7	254.6	246.2	239.3	236.5	236.8	236.3	236.7	233.1	233.8	235.8	242.0	244.3	241.1	229.9	217.8	203.2	189.8	177.2	164.8	153.2	140.4	130.3	119.8	110.6	101.0	92.77	86.46	79.30	70.39	59.94	50.16	43.47	36.95	32.71	28.23	24.63	21.22	18.34	16.50	16.31	18.89	63.43	307.5	938.8	1166	383.8	10.41	3.086	2.551	2.484	2.306	2.230	2.044	2.199	2.080	2.025	2.164	2.158	2.073
535.0	43.83	59.08	108.7	178.9	248.9	311.7	322.9	353.4	560.1	2090	1491	383.7	348.8	314.0	282.2	259.5	243.3	226.9	220.3	212.8	206.3	201.1	203.0	202.3	202.2	199.3	201.1	201.3	206.2	208.1	208.6	196.5	186.2	174.5	163.7	153.0	143.7	133.4	122.9	114.0	105.5	97.09	90.51	82.23	76.55	69.53	64.70	57.37	47.88	40.33	34.73	30.75	26.88	24.56	21.39	18.53	15.52	13.58	12.60	21.03	74.31	215.6	535.1	1319	204.9	10.21	2.756	2.342	2.193	2.061	2.005	1.908	1.921	1.792	1.899	1.787	1.859
540.0	45.78	57.46	98.16	154.6	213.6	279.1	296.5	313.9	365.0	1185	2483	500.5	310.8	281.1	256.1	233.6	216.7	204.3	196.1	188.6	184.5	183.4	179.5	180.0	178.3	176.9	177.5	179.3	182.6	184.2	183.9	174.5	164.9	155.6	146.8	136.6	127.6	119.2	110.5	103.2	96.05	88.35	81.33	75.12	69.54	63.97	59.02	53.92	46.50	38.89	33.14	29.07	25.72	23.21	20.48	18.24	15.23	12.92	11.42	11.80	22.34	53.21	130.1	725.5	1194	163.8	4.529	2.476	2.129	1.888	1.829	1.872	1.733	1.618	1.852	1.658	1.791
545.0	41.75	47.36	91.94	138.4	195.2	247.1	276.9	277.8	300.9	556.4	2615	1004	286.8	255.0	229.6	212.0	197.3	186.2	176.5	169.9	165.7	165.1	161.7	159.3	161.6	159.5	159.2	160.4	164.0	166.5	165.5	156.2	149.1	139.3	131.1	122.6	116.3	108.1	102.0	93.88	87.47	81.56	75.06	70.19	64.07	59.05	53.36	49.29	43.79	37.28	31.22	27.97	25.11	22.59	20.45	17.73	14.86	12.89	10.54	10.08	10.89	16.95	33.47	186.5	867.3	991.4	27.07	2.882	2.148	1.968	1.749	1.730	1.596	1.670	1.655	1.379	1.743
550.0	36.63	46.44	81.49	125.1	170.8	206.3	243.6	245.1	256.4	324.1	1368	2218	425.9	224.9	200.5	184.6	172.6	162.9	153.7	147.9	143.4	140.9	140.6	138.9	139.0	138.2	137.2	137.6	139.8	143.1	142.4	135.3	128.2	121.7	113.6	106.6	100.6	94.57	88.65	83.35	76.54	71.80	67.26	62.07	58.05	52.33	47.46	43.35	39.53	35.00	29.60	25.48	23.16	20.69	19.20	17.04	14.31	12.52	10.34	9.016	8.219	8.630	11.72	45.44	221.4	660.8	798.9	119.3	8.112	2.019	1.788	1.659	1.571	1.478	1.545	1.346	1.478
555.0	33.11	46.26	68.78	106.2	147.7	172.1	201.9	220.1	215.9	243.3	491.4	2227	1114	201.6	176.2	159.5	147.0	138.4	130.8	126.6	122.8	120.9	120.4	118.3	116.6	116.7	116.1	117.7	118.5	120.4	119.9	114.5	109.2	103.4	95.99	91.34	85.61	81.17	74.55	70.93	65.37	61.86	57.84	54.74	49.46	46.56	41.60	38.23	34.38	31.74	27.93	24.23	21.07	18.74	17.70	15.68	13.52	11.84	10.16	8.847	7.269	6.893	6.817	13.61	52.51	151.7	385.1	888.6	191.0	6.753	1.781	1.644	1.385	1.409	1.408	1.236	1.360
560.0	33.25	40.00	60.23	95.72	125.9	155.1	173.0	207.0	198.4	204.4	264.8	1233	2226	271.7	157.0	141.9	133.0	122.0	116.6	111.8	107.9	107.0	105.4	105.3	102.1	101.7	102.3	102.6	105.0	105.3	104.6	100.8	96.29	91.88	85.18	79.54	74.13	71.40	66.98	62.83	58.35	54.96	51.57	48.95	44.92	41.75	37.16	34.01	30.77	28.70	26.30	22.80	19.52	17.58	16.26	15.00	12.77	11.34	9.593	8.246	7.063	6.353	5.510	6.506	14.76	36.46	93.89	515.0	836.4	29.48	2.690	1.537	1.472	1.441	1.181	1.231	1.241
565.0	35.99	36.32	57.46	85.39	113.0	134.4	149.2	183.1	180.0	180.1	197.3	489.6	2543	659.8	139.9	124.5	117.2	107.8	103.7	98.00	94.86	93.33	92.13	90.58	89.95	88.69	88.87	89.83	91.60	93.33	91.91	88.51	85.55	79.00	75.15	70.93	66.17	62.67	58.84	54.75	51.74	49.76	45.93	43.86	40.94	37.60	33.64	30.91	27.34	25.13	23.74	21.45	18.84	16.32	15.11	13.75	12.10	10.61	9.013	7.917	7.043	6.029	5.049	5.083	6.376	10.82	23.61	132.8	609.3	640.8	24.77	1.813	1.608	1.218	1.239	1.083	1.118
570.0	30.75	35.21	51.00	72.24	95.70	112.9	127.8	146.0	165.1	154.1	159.3	225.5	1318	1859	218.6	105.5	97.01	89.19	85.62	82.20	79.07	77.24	76.09	75.05	74.53	73.10	73.34	73.72	74.74	76.21	75.25	72.54	68.93	65.15	60.71	57.38	54.14	52.43	48.61	46.21	42.83	40.75	38.29	36.24	33.98	31.89	28.75	26.36	23.40	21.15	19.51	18.36	16.85	14.39	13.15	12.14	10.80	9.509	8.225	7.041	6.521	5.212	4.655	4.225	4.284	4.896	7.505	31.77	154.9	434.3	503.0	110.1	5.780	1.304	1.147	1.138	1.078
575.0	29.87	32.71	42.83	62.07	79.23	87.62	99.36	110.2	139.7	130.1	129.3	141.3	396.8	2028	751.2	89.19	76.40	71.30	66.72	64.78	62.36	62.26	60.61	59.86	59.22	57.18	56.44	58.03	58.18	59.55	58.36	56.30	54.14	50.98	47.92	45.57	43.12	41.03	37.75	36.21	33.74	32.17	30.43	28.52	27.66	25.72	23.13	21.12	18.76	17.19	15.78	14.71	14.31	12.67	11.07	10.10	9.068	8.004	6.803	5.872	5.607	5.023	4.268	3.722	3.377	3.359	3.517	8.978	36.16	99.24	237.0	526.1	152.9	3.578	1.206	1.024	0.956
580.0	25.14	28.83	38.04	53.47	63.06	75.96	81.53	88.58	111.6	121.5	111.2	112.6	165.8	1100	1788	100.9	63.70	59.67	54.65	52.24	51.46	50.86	49.59	48.90	47.98	47.07	45.17	47.25	46.70	47.28	47.52	45.91	43.96	41.98	39.00	36.98	35.54	33.26	31.05	29.54	28.16	26.57	25.07	23.69	23.17	20.86	19.27	17.47	15.79	14.42	12.94	12.03	12.14	11.22	9.691	8.631	7.948	6.758	6.061	5.229	4.791	4.485	4.036	3.490	3.034	2.698	2.498	3.459	9.602	23.60	57.31	291.5	462.6	27.70	1.692	0.981	0.912
585.0	26.54	26.35	34.03	47.55	57.11	63.07	73.33	75.60	87.85	109.6	95.88	94.48	103.7	383.8	2187	391.8	53.76	48.84	45.39	44.10	42.99	41.73	40.44	40.41	38.97	38.39	37.78	38.65	38.29	39.04	38.88	38.41	36.31	33.85	32.29	30.63	28.30	27.33	25.76	24.18	23.39	22.11	20.78	19.26	18.90	17.27	16.35	14.55	13.33	12.05	10.57	9.859	9.985	9.740	8.545	7.859	6.818	5.837	5.279	4.754	4.292	3.850	3.775	3.146	2.811	2.433	2.147	2.340	3.629	6.512	14.07	74.90	322.5	233.6	21.24	1.220	0.930
590.0	24.93	26.56	27.75	39.11	44.95	51.25	57.34	61.47	69.11	91.21	90.10	80.55	78.17	136.2	1141	1383	72.41	38.16	36.73	33.98	33.48	32.68	31.44	31.01	30.04	29.44	28.96	29.37	29.94	30.66	29.90	29.54	27.71	25.80	24.62	23.64	22.04	20.68	19.98	18.27	18.09	16.91	15.80	15.26	14.35	13.76	12.68	11.28	10.36	9.511	8.287	7.711	7.606	7.635	7.393	6.591	5.565	4.953	4.443	3.955	3.506	3.346	2.924	2.664	2.420	2.197	1.943	1.921	2.034	2.731	4.293	17.78	81.94	196.0	233.8	76.76	3.129
595.0	18.40	19.91	25.26	32.46	37.94	39.45	43.70	49.92	54.77	67.97	87.26	70.77	66.00	71.69	303.7	1578	519.0	32.94	28.02	26.37	25.65	24.66	24.29	23.65	23.08	23.12	21.71	22.16	22.88	22.85	22.33	22.15	21.00	19.74	18.82	18.03	16.61	16.07	15.17	14.29	13.47	12.80	12.15	11.99	10.94	10.80	9.606	9.114	7.747	7.336	6.711	6.039	5.952	5.604	5.662	5.280	4.834	4.082	3.690	3.175	2.872	2.689	2.440	2.326	2.107	2.032	1.909	1.676	1.597	1.698	1.961	4.858	19.14	44.96	108.2	258.4	30.22
600.0	18.68	18.96	26.54	27.56	34.87	34.68	37.82	45.09	49.02	56.52	80.16	68.81	59.80	55.13	97.58	838.6	1297	54.30	23.22	21.70	20.95	19.88	19.72	18.62	18.68	18.59	18.11	17.85	18.44	18.72	18.52	17.61	16.91	16.37	14.95	14.45	13.46	12.93	12.48	11.39	10.96	10.29	10.11	9.464	8.851	8.724	8.032	7.449	6.610	5.872	5.617	5.421	4.813	4.603	4.545	4.674	4.099	3.584	3.132	2.770	2.478	2.451	2.129	1.927	1.969	1.838	1.652	1.584	1.410	1.450	1.399	1.994	5.151	10.83	26.19	138.1	217.6
605.0	19.79	21.05	22.34	25.82	31.29	28.49	32.88	37.44	41.71	48.99	67.58	69.64	56.81	46.32	48.47	270.7	1596	251.3	19.93	19.06	17.86	17.07	16.13	15.65	15.93	15.86	15.32	15.09	15.65	15.78	15.77	15.12	13.94	13.24	12.46	11.96	11.49	10.72	10.20	9.628	8.988	8.683	8.470	7.853	7.462	7.098	6.768	6.093	5.657	5.076	4.639	4.481	4.012	3.921	3.823	3.986	3.726	3.246	2.702	2.355	2.231	2.127	1.872	1.815	1.662	1.828	1.475	1.381	1.370	1.433	1.213	1.309	2.002	3.169	6.579	35.11	152.2
610.0	25.10	20.67	22.74	24.60	25.48	24.74	29.59	32.32	35.74	42.05	54.44	70.76	54.38	42.77	35.40	80.33	816.1	910.5	41.90	15.68	14.69	13.66	13.17	12.82	12.51	12.19	12.00	12.23	12.08	12.26	12.55	11.78	11.18	10.57	10.12	9.513	8.912	8.493	8.068	7.534	7.180	6.923	6.509	6.388	5.972	5.706	5.255	4.802	4.448	3.941	3.840	3.588	3.231	3.187	3.037	3.090	3.080	2.867	2.511	2.031	1.923	1.844	1.711	1.638	1.470	1.467	1.472	1.324	1.258	1.178	1.087	1.040	1.158	1.448	2.159	8.488	38.50
615.0	23.27	20.38	21.53	21.64	21.88	22.73	25.51	27.83	33.30	37.81	44.02	61.28	56.87	39.80	29.50	34.00	205.8	1154	380.4	13.80	11.66	10.73	10.71	10.56	9.348	9.856	9.597	9.739	9.757	9.763	9.733	9.347	8.619	8.457	7.820	7.107	7.286	6.499	6.136	5.904	5.446	5.331	5.023	5.011	4.629	4.540	4.089	3.888	3.664	3.220	3.028	2.873	2.601	2.574	2.455	2.478	2.341	2.385	2.157	1.765	1.672	1.625	1.439	1.349	1.182	1.260	1.092	1.265	1.147	1.069	0.943	0.880	0.848	0.946	1.085	2.452	9.144
620.0	24.31	21.31	18.90	19.80	21.21	21.04	22.42	26.55	29.07	34.82	41.08	50.89	61.11	38.84	28.43	22.62	58.47	619.8	981.5	31.38	9.722	9.544	8.981	8.578	8.045	8.256	8.137	7.883	8.661	7.932	8.241	7.614	7.056	6.900	6.456	5.999	5.601	5.413	5.338	4.873	4.708	4.365	4.304	4.088	3.841	3.602	3.382	3.164	2.957	2.789	2.513	2.560	2.193	2.143	2.053	1.991	1.872	2.009	1.920	1.670	1.453	1.356	1.339	1.178	1.200	1.153	1.052	1.125	1.155	1.117	0.956	0.854	0.862	0.822	0.800	1.059	2.618
625.0	22.39	17.16	21.57	19.38	17.88	20.78	21.35	25.04	27.96	30.01	37.81	45.97	59.07	40.11	27.76	19.63	24.52	194.7	1253	176.1	9.031	8.175	7.716	7.586	7.260	6.985	6.970	6.994	7.024	6.935	6.527	6.113	6.125	5.781	5.213	5.251	4.919	4.475	4.717	4.045	4.109	3.592	3.603	3.475	3.347	3.119	2.898	2.686	2.729	2.340	2.036	2.134	1.822	1.923	1.827	1.817	1.826	1.689	1.564	1.571	1.329	1.260	1.119	1.103	1.112	1.122	1.000	1.033	0.981	1.065	0.841	0.801	0.697	0.779	0.754	0.751	1.109
630.0	21.82	16.95	18.75	18.48	15.99	19.17	18.47	22.95	25.80	29.31	35.61	41.04	50.56	44.19	26.75	18.02	15.11	52.87	666.0	729.8	28.59	7.110	6.429	6.220	6.116	5.552	5.390	5.614	5.475	5.575	5.616	4.955	4.856	4.472	4.273	4.176	4.048	3.681	3.626	3.336	3.354	2.939	2.889	2.772	2.701	2.620	2.361	2.289	2.090	1.938	1.758	1.666	1.611	1.515	1.494	1.511	1.472	1.331	1.315	1.269	1.271	1.097	1.019	1.013	1.028	0.940	0.902	0.920	0.988	0.960	0.899	0.779	0.744	0.697	0.699	0.652	0.693
635.0	18.71	19.02	17.02	19.49	15.31	17.78	17.09	19.95	23.80	29.13	32.66	37.89	42.46	45.70	28.06	18.05	12.77	19.15	165.3	948.1	311.2	6.856	5.645	5.404	4.856	4.636	4.711	4.632	4.471	4.410	4.404	3.923	3.907	3.668	3.392	3.413	3.296	3.027	2.867	2.705	2.472	2.472	2.332	2.259	2.207	2.076	1.831	1.677	1.582	1.585	1.409	1.275	1.220	1.226	1.191	1.210	1.167	1.182	1.055	1.073	1.038	0.951	0.918	0.966	0.817	0.788	0.802	0.751	0.852	0.880	0.833	0.808	0.657	0.584	0.698	0.582	0.669
640.0	17.37	18.11	18.78	17.59	14.99	15.80	15.39	19.65	23.06	27.34	32.54	36.04	39.57	42.03	31.41	17.82	11.69	10.99	43.48	533.5	794.0	18.52	4.562	4.612	3.876	3.985	3.927	3.695	3.799	3.664	3.933	3.607	3.245	3.182	3.176	2.784	2.633	2.565	2.337	2.307	2.182	1.911	1.945	1.950	1.890	1.779	1.521	1.434	1.336	1.291	1.196	1.154	1.100	1.136	1.047	1.103	1.014	1.031	0.908	0.851	0.938	0.858	0.890	0.811	0.778	0.673	0.722	0.738	0.768	0.739	0.769	0.712	0.656	0.564	0.638	0.542	0.627
645.0	20.77	17.27	20.52	18.65	14.10	16.25	16.53	18.84	20.51	27.35	32.05	37.32	38.20	39.78	34.53	18.70	12.33	9.337	15.72	171.3	1015	54.34	4.715	4.188	3.585	3.609	3.323	3.242	3.514	3.271	3.073	3.151	2.746	2.795	2.640	2.468	2.281	2.361	2.043	1.912	1.890	1.721	1.787	1.744	1.627	1.440	1.357	1.269	1.194	1.087	0.959	0.988	0.945	0.944	0.998	0.865	0.868	0.866	0.820	0.757	0.802	0.879	0.807	0.817	0.762	0.678	0.655	0.622	0.715	0.788	0.664	0.761	0.735	0.614	0.555	0.560	0.661
650.0	19.66	19.77	22.42	19.86	18.17	15.40	15.85	19.21	20.37	28.17	31.80	34.71	37.86	35.47	36.82	20.96	13.52	9.809	9.614	45.62	733.4	382.5	6.945	3.913	3.384	3.235	2.930	3.019	3.183	2.997	2.794	2.803	2.529	2.321	2.183	2.142	1.962	2.091	1.824	1.805	1.638	1.539	1.459	1.485	1.289	1.202	1.210	1.073	1.071	0.936	0.954	0.851	0.837	0.871	0.823	0.781	0.778	0.782	0.759	0.786	0.691	0.820	0.859	0.756	0.750	0.663	0.615	0.690	0.692	0.729	0.690	0.656	0.739	0.686	0.535	0.569	0.656
