Sample:	'1
File name:	T20250305010Î÷ÍõÌÇÒµÕ¢.FD3
Run date:	'13:53:34, 03/06/2025
Operator:	Administrator
Comment:	'

Instrument
Model:	F-2700 FL Spectrophotometer
Serial number:	23B8-004
ROM Version:	4J14000 07

Instrument parameters
Measurement type:	3-D scan
Data mode:	Fluorescence
EX  Start WL:	220.0 nm
EX  End WL:	600.0 nm
EX Sampling interval:	5.0 nm
EM  Start WL:	230.0 nm
EM  End WL:	650.0 nm
EM Sampling interval:	5.0 nm
Scan speed:	12000 nm/min
EX Slit:	5.0 nm
EM Slit:	5.0 nm
PMT Voltage:	700 V
Response:	Auto 
Corrected spectra:	Off
Contour interval:	50.000

Peak integration
Integration method:	Rectangular
Sensitivity:	1
Threshold:	1.000

Peaks
No.	ApexEX/EM(nm)	Height(Data)
1	225.0/580.0	82.25
2	225.0/590.0	80.96
3	225.0/610.0	79.37
4	225.0/620.0	76.64
5	230.0/345.0	1625
6	230.0/600.0	75.19
7	235.0/510.0	244.2
8	240.0/265.0	375.5
9	240.0/525.0	228.1
10	245.0/270.0	434.7
11	245.0/535.0	194.9
12	250.0/275.0	583.0
13	250.0/550.0	159.7
14	255.0/285.0	644.3
15	255.0/435.0	645.4
16	255.0/560.0	139.8
17	260.0/575.0	124.4
18	265.0/585.0	127.0
19	270.0/300.0	1539
20	270.0/600.0	132.1
21	275.0/310.0	1712
22	275.0/335.0	1921
23	275.0/615.0	121.4
24	280.0/625.0	101.3
25	315.0/355.0	477.1
26	320.0/360.0	463.8
27	325.0/370.0	422.9
28	350.0/400.0	288.9
29	425.0/500.0	33.83
30	440.0/520.0	21.13
31	455.0/340.0	4.649
32	460.0/345.0	4.625
33	475.0/355.0	4.500
34	505.0/275.0	3.847
35	510.0/280.0	4.125
36	520.0/285.0	4.200
37	545.0/300.0	8.332
38	550.0/305.0	9.029
39	555.0/335.0	9.087
40	560.0/340.0	8.940
41	570.0/315.0	8.674

Data points
	220.0	225.0	230.0	235.0	240.0	245.0	250.0	255.0	260.0	265.0	270.0	275.0	280.0	285.0	290.0	295.0	300.0	305.0	310.0	315.0	320.0	325.0	330.0	335.0	340.0	345.0	350.0	355.0	360.0	365.0	370.0	375.0	380.0	385.0	390.0	395.0	400.0	405.0	410.0	415.0	420.0	425.0	430.0	435.0	440.0	445.0	450.0	455.0	460.0	465.0	470.0	475.0	480.0	485.0	490.0	495.0	500.0	505.0	510.0	515.0	520.0	525.0	530.0	535.0	540.0	545.0	550.0	555.0	560.0	565.0	570.0	575.0	580.0	585.0	590.0	595.0	600.0
230.0	68.83	823.0	1695	435.8	23.90	11.15	9.260	7.421	6.607	5.844	5.391	5.040	4.466	3.714	3.116	2.711	2.379	2.063	1.819	1.817	1.602	1.583	1.397	1.367	1.251	1.177	1.117	1.148	1.041	1.068	1.013	0.943	0.890	0.821	0.784	0.737	0.714	0.694	0.709	0.658	0.647	0.651	0.666	0.661	0.571	0.606	1.314	4.186	6.453	4.391	1.616	0.603	0.474	0.498	0.477	0.473	0.540	0.534	0.553	0.505	0.569	0.526	0.535	0.532	0.508	0.513	0.571	0.528	0.534	0.542	0.553	0.528	0.589	0.570	0.565	0.584	0.575
235.0	78.35	271.6	1456	2282	456.4	33.29	10.65	9.209	8.419	7.371	6.021	5.612	5.031	4.080	3.251	2.813	2.224	2.230	1.991	1.830	1.616	1.733	1.297	1.365	1.312	1.260	1.185	1.134	1.052	0.976	1.014	1.052	0.922	0.908	0.766	0.792	0.747	0.698	0.700	0.664	0.615	0.723	0.676	0.772	0.628	0.581	0.757	1.505	3.171	6.441	8.540	7.871	3.427	1.014	0.492	0.458	0.537	0.539	0.502	0.479	0.549	0.525	0.530	0.566	0.549	0.529	0.481	0.541	0.578	0.521	0.622	0.527	0.530	0.595	0.541	0.554	0.593
240.0	101.7	116.9	517.9	2422	2572	363.0	20.04	10.42	8.526	6.725	6.661	5.606	5.241	4.213	3.053	3.025	2.369	2.215	2.105	1.792	1.490	1.566	1.513	1.257	1.232	1.264	1.140	1.239	1.017	1.127	0.940	1.043	0.845	0.937	0.810	0.699	0.751	0.787	0.711	0.678	0.650	0.660	0.676	0.661	0.782	0.725	0.651	0.805	1.109	2.299	5.895	13.12	14.31	8.696	2.837	0.677	0.564	0.550	0.582	0.446	0.552	0.511	0.533	0.570	0.612	0.532	0.561	0.522	0.547	0.630	0.548	0.556	0.542	0.557	0.613	0.553	0.613
245.0	94.69	142.0	164.8	978.5	3467	2559	248.7	11.95	9.140	7.890	6.898	6.541	4.727	4.125	2.988	3.035	2.246	2.088	2.109	1.720	1.650	1.662	1.439	1.319	1.360	1.127	1.208	1.060	1.067	0.993	1.015	1.062	0.864	0.824	0.795	0.820	0.747	0.770	0.714	0.704	0.623	0.607	0.643	0.632	0.698	0.875	0.856	0.779	0.693	0.864	1.776	5.360	12.26	19.21	16.63	7.559	1.839	0.603	0.548	0.520	0.529	0.541	0.564	0.545	0.619	0.570	0.568	0.574	0.579	0.572	0.605	0.596	0.534	0.553	0.593	0.533	0.599
250.0	66.78	137.1	190.4	289.8	1260	3357	3597	922.8	45.15	9.983	8.568	7.038	5.505	4.435	3.533	3.174	2.577	2.175	2.352	1.926	1.779	1.700	1.483	1.342	1.336	1.192	1.299	1.108	1.169	1.084	1.068	1.005	0.933	0.882	0.833	0.815	0.735	0.766	0.706	0.689	0.630	0.715	0.696	0.680	0.747	0.718	0.730	0.922	1.059	0.939	0.940	1.651	3.420	7.182	12.32	18.34	21.85	16.23	8.429	2.228	0.673	0.588	0.550	0.528	0.593	0.540	0.600	0.573	0.572	0.573	0.574	0.553	0.545	0.543	0.550	0.560	0.640
255.0	54.64	69.43	173.7	280.9	358.0	946.3	3834	5746	1244	36.70	10.03	8.121	7.065	5.296	4.316	3.139	3.105	2.376	2.221	2.105	1.778	1.646	1.472	1.422	1.513	1.209	1.292	1.201	1.199	1.203	1.089	1.189	0.984	0.859	0.818	0.759	0.793	0.731	0.807	0.679	0.639	0.732	0.741	0.692	0.694	0.704	0.613	0.665	0.777	1.052	1.378	1.493	1.391	2.117	3.247	4.996	10.34	22.68	36.23	25.85	12.69	2.265	0.616	0.613	0.610	0.580	0.561	0.598	0.587	0.601	0.560	0.556	0.589	0.624	0.567	0.562	0.681
260.0	55.14	49.10	84.90	278.7	294.0	281.7	1342	6005	6069	229.0	19.79	9.861	8.220	6.175	4.492	3.715	3.122	2.910	2.416	2.349	1.971	1.630	1.556	1.315	1.496	1.288	1.263	1.354	1.314	1.217	1.257	1.016	0.970	0.774	0.836	0.780	0.837	0.719	0.770	0.772	0.700	0.691	0.738	0.695	0.624	0.675	0.532	0.580	0.589	0.725	1.075	1.841	1.765	1.314	1.410	1.729	2.911	7.088	18.30	35.41	46.40	24.14	9.471	1.348	0.743	0.656	0.637	0.605	0.691	0.553	0.593	0.543	0.604	0.581	0.545	0.547	0.656
265.0	49.16	41.50	46.45	161.5	375.5	241.7	379.1	2382	8124	5583	175.9	15.29	10.03	7.499	5.134	3.917	3.365	3.156	2.770	2.436	2.049	2.014	1.537	1.486	1.447	1.392	1.308	1.250	1.209	1.194	1.190	1.153	1.047	0.892	0.970	0.754	0.808	0.754	0.712	0.767	0.691	0.649	0.780	0.713	0.603	0.654	0.543	0.591	0.498	0.542	0.679	1.253	1.821	2.211	1.534	1.192	1.363	2.264	4.900	12.00	29.54	48.52	31.73	20.83	5.318	0.875	0.725	0.708	0.646	0.550	0.584	0.572	0.670	0.649	0.564	0.587	0.569
270.0	66.84	52.27	46.30	85.43	247.5	434.7	328.4	630.0	2899	7498	7937	728.7	40.85	9.941	7.000	5.455	3.880	3.653	2.997	2.458	2.213	2.025	1.880	1.666	1.535	1.409	1.359	1.306	1.306	1.254	1.187	1.189	1.075	1.046	0.950	0.865	0.807	0.815	0.843	0.766	0.752	0.704	0.733	0.705	0.684	0.663	0.573	0.576	0.587	0.547	0.562	0.804	1.088	1.791	2.295	2.576	2.267	1.690	1.952	3.435	7.609	15.33	24.29	42.29	40.54	42.86	15.08	5.532	0.976	0.682	0.616	0.595	0.591	0.670	0.601	0.659	0.656
275.0	101.7	92.28	79.39	87.58	159.9	325.3	583.0	381.7	732.1	1999	7321	9999.9	992.0	34.72	10.16	7.009	5.010	4.115	3.480	2.601	2.423	2.170	2.056	1.752	1.670	1.527	1.470	1.354	1.409	1.355	1.283	1.231	1.141	1.111	1.105	1.028	0.909	0.971	0.814	0.854	0.792	0.833	0.805	0.718	0.770	0.662	0.633	0.732	0.668	0.567	0.627	0.765	0.926	1.150	1.440	2.087	3.099	3.847	2.731	1.845	2.417	4.189	6.251	10.61	14.75	37.48	68.78	71.11	23.04	5.695	0.910	0.704	0.666	0.680	0.653	0.641	0.681
280.0	158.5	161.6	156.7	139.9	169.3	255.7	501.3	609.0	348.9	578.9	2287	9999.9	8975	139.8	20.19	8.830	6.447	4.807	4.110	2.963	2.724	2.292	2.404	2.041	1.885	1.649	1.540	1.419	1.411	1.289	1.337	1.183	1.181	1.247	1.119	0.992	1.037	0.997	0.822	0.868	0.832	0.775	0.834	0.881	0.958	0.815	0.884	0.879	0.877	0.777	0.698	0.898	0.983	1.104	1.248	1.623	2.096	3.110	4.125	3.305	2.069	1.949	2.416	3.537	4.460	10.29	25.58	56.42	81.20	32.42	18.31	2.752	0.793	0.728	0.686	0.711	0.687
285.0	232.1	247.6	253.6	211.0	206.1	263.0	346.8	644.3	543.4	345.4	760.9	3476	9999.9	6936	107.0	12.95	8.032	5.488	4.209	3.379	3.119	2.586	2.418	1.926	1.778	1.794	1.671	1.561	1.597	1.346	1.354	1.350	1.221	1.281	1.216	1.077	1.045	1.112	0.887	0.930	1.000	0.845	0.962	0.922	1.007	1.031	1.096	1.130	1.151	0.985	0.876	1.122	1.223	1.262	1.421	1.630	1.881	2.007	2.767	4.097	4.200	2.734	2.133	2.203	2.619	3.904	7.352	15.87	35.88	64.63	87.00	29.40	12.31	1.424	0.800	0.805	0.760
290.0	332.9	422.1	419.7	322.5	265.8	283.9	321.5	441.8	742.0	750.6	656.7	1223	3506	9076	8469	428.1	28.81	8.185	5.778	4.376	3.622	2.918	2.694	2.409	1.983	1.794	1.620	1.701	1.667	1.436	1.346	1.439	1.314	1.300	1.273	1.245	1.128	1.142	0.990	1.017	1.041	0.959	1.003	1.197	1.171	1.324	1.357	1.579	1.640	1.315	1.278	1.417	1.390	1.504	1.549	1.673	2.013	1.952	2.005	2.569	3.380	4.180	4.583	4.098	3.358	3.579	4.045	5.773	10.45	18.50	35.22	48.01	64.13	54.19	19.63	9.848	1.865
295.0	424.4	569.1	583.6	434.5	324.5	325.5	355.3	412.9	595.3	1071	1140	959.0	1297	2421	6468	9999.9	625.1	27.16	8.007	5.951	4.316	3.814	2.968	2.744	2.193	2.211	1.784	1.809	1.632	1.526	1.387	1.431	1.439	1.589	1.318	1.359	1.241	1.146	1.158	1.182	1.064	1.076	1.282	1.170	1.278	1.682	1.678	1.979	2.047	1.738	1.556	1.765	1.649	1.645	1.673	1.843	1.908	2.005	2.127	2.279	2.637	3.359	4.169	6.053	6.779	5.736	4.799	4.618	5.810	6.909	10.25	12.77	17.60	29.63	62.32	85.66	31.46
300.0	504.5	710.2	683.6	502.8	371.3	360.3	390.7	461.3	618.3	994.6	1539	1221	945.8	918.7	1905	8571	5612	471.2	15.06	7.434	5.353	4.171	3.337	2.940	2.599	2.210	2.051	1.916	1.957	1.672	1.554	1.564	1.334	1.452	1.350	1.382	1.255	1.172	1.286	1.140	1.211	1.209	1.268	1.351	1.397	1.670	2.189	2.463	2.317	2.034	1.772	1.903	1.761	1.760	1.714	1.815	2.060	2.295	2.406	2.568	2.858	3.548	3.725	5.004	6.699	8.332	7.285	5.538	5.425	4.917	5.142	5.105	5.914	8.237	19.21	47.19	79.95
305.0	563.4	774.4	772.2	549.2	413.7	400.6	450.6	544.1	720.2	1010	1506	1646	1085	715.0	707.5	2673	9162	4838	71.10	10.87	6.385	4.991	4.044	3.149	2.740	2.508	2.191	2.001	1.763	1.815	1.629	1.537	1.415	1.568	1.429	1.448	1.356	1.431	1.200	1.179	1.155	1.189	1.245	1.382	1.619	1.911	2.159	2.526	2.442	2.124	1.968	1.969	2.024	1.932	1.953	1.970	2.207	2.677	2.706	2.868	3.304	3.769	4.225	4.896	5.799	7.601	9.029	8.183	7.101	5.548	4.757	4.030	3.756	3.907	5.848	12.44	27.63
310.0	615.9	837.0	804.5	584.9	435.1	433.7	509.7	640.4	846.7	1121	1436	1712	1534	917.2	566.0	823.1	2769	6529	6454	1437	23.12	6.872	4.803	3.913	3.141	2.662	2.518	2.102	1.993	1.937	1.648	1.608	1.577	1.525	1.545	1.411	1.317	1.389	1.253	1.205	1.171	1.344	1.316	1.486	1.817	2.158	2.296	2.524	2.528	2.319	2.081	2.028	1.991	2.015	2.031	2.145	2.439	2.704	2.938	3.305	3.871	4.238	4.819	5.492	6.076	6.735	7.636	8.312	8.912	8.184	6.757	5.270	4.010	3.422	3.539	4.674	7.719
315.0	661.7	919.7	841.3	615.3	468.1	462.6	581.7	733.0	956.1	1252	1520	1645	1629	1379	723.7	494.3	779.3	1592	4432	8868	489.8	24.29	6.923	5.058	3.846	3.227	2.850	2.481	2.178	2.049	1.860	1.582	1.533	1.555	1.502	1.346	1.394	1.248	1.316	1.183	1.204	1.345	1.332	1.697	1.927	2.386	2.391	2.724	2.766	2.404	2.174	2.332	2.134	2.068	2.311	2.305	2.569	3.001	3.246	3.549	4.055	4.872	5.358	5.962	6.612	6.915	7.631	7.628	8.217	8.044	8.674	8.201	6.085	4.225	3.829	3.398	3.845
320.0	760.7	1022	937.5	671.8	499.4	494.6	616.7	794.0	1040	1346	1607	1699	1591	1493	1003	501.7	376.0	462.9	1184	6112	7644	410.9	14.81	6.294	4.671	3.863	3.050	2.396	2.533	2.166	2.091	1.745	1.537	1.634	1.415	1.396	1.342	1.251	1.456	1.225	1.225	1.382	1.397	1.627	2.027	2.427	2.576	3.035	2.915	2.498	2.236	2.549	2.164	2.144	2.188	2.370	2.747	3.217	3.621	4.038	4.328	5.119	5.852	6.268	7.253	7.509	7.616	7.579	8.125	8.065	7.451	8.055	8.037	6.245	4.447	3.640	3.317
325.0	803.0	1134	1086	773.1	559.5	528.8	656.9	847.6	1117	1420	1674	1767	1633	1428	1218	658.0	327.8	236.4	346.0	1740	6988	3826	59.56	9.908	5.820	4.286	3.187	2.968	2.632	2.384	2.024	1.760	1.636	1.733	1.496	1.461	1.417	1.326	1.314	1.317	1.119	1.338	1.376	1.762	2.168	2.635	2.903	3.476	3.306	2.723	2.505	2.539	2.421	2.327	2.409	2.539	2.886	3.302	3.630	4.489	4.635	5.406	6.137	6.728	7.538	7.575	7.955	7.950	8.121	7.835	7.631	7.046	7.440	7.885	6.228	4.848	3.553
330.0	934.1	1313	1289	946.4	677.2	603.8	715.9	920.8	1189	1511	1765	1861	1724	1446	1152	869.1	478.7	242.2	208.3	492.9	1996	4692	5157	1345	22.36	6.421	4.238	3.486	2.866	2.628	2.256	1.892	1.903	1.780	1.597	1.454	1.462	1.390	1.355	1.273	1.295	1.420	1.536	1.881	2.367	2.993	3.237	3.849	3.940	3.242	2.969	3.225	2.894	2.741	2.591	2.729	3.187	3.390	3.991	4.636	5.066	5.822	6.608	7.124	8.006	8.315	8.422	8.721	8.512	8.314	8.047	7.445	7.123	6.881	6.184	5.911	5.315
335.0	1019	1479	1488	1158	810.1	702.7	778.0	970.0	1239	1563	1824	1921	1786	1515	1142	829.1	676.7	373.1	227.2	256.8	570.1	1178	3287	7467	1950	26.52	6.071	4.301	3.325	3.070	2.603	2.200	2.040	1.801	1.550	1.633	1.491	1.349	1.413	1.382	1.325	1.463	1.740	2.066	2.461	3.253	3.710	4.418	4.597	3.791	3.582	3.756	3.461	3.046	3.101	2.953	3.487	3.751	4.288	4.854	5.362	6.065	6.870	7.554	8.022	8.275	8.619	9.087	8.665	8.613	8.593	7.843	7.361	7.035	5.847	5.557	5.293
340.0	1059	1561	1606	1262	921.4	761.7	804.4	1002	1269	1563	1805	1911	1784	1534	1148	791.1	639.6	529.9	289.9	231.1	277.7	387.7	903.2	4823	6968	381.2	15.83	5.123	4.045	3.449	2.891	2.356	2.013	1.943	1.648	1.789	1.439	1.467	1.363	1.491	1.361	1.471	1.732	2.023	2.549	3.164	3.959	4.649	4.525	4.169	3.872	4.260	3.912	3.393	3.439	3.330	3.482	3.687	4.146	4.988	5.506	6.041	6.710	7.467	8.050	8.140	8.407	8.369	8.940	8.663	8.338	8.069	7.076	7.048	5.624	5.072	4.654
345.0	1074	1511	1625	1336	977.1	799.4	823.1	995.5	1243	1538	1763	1853	1738	1497	1141	779.6	571.0	561.4	423.8	261.5	240.1	236.9	302.3	1348	5678	5610	304.3	8.293	4.627	3.882	3.093	2.431	2.204	1.883	1.721	1.565	1.562	1.562	1.390	1.371	1.253	1.502	1.747	1.991	2.527	3.286	3.940	4.414	4.625	4.101	4.061	4.386	3.823	3.874	3.166	3.326	3.818	3.793	4.346	4.571	5.332	5.814	6.623	7.095	7.729	8.055	8.507	8.113	8.777	8.639	8.107	8.072	7.223	6.687	5.748	5.094	4.643
350.0	994.5	1470	1575	1341	1019	832.4	835.4	975.2	1191	1445	1658	1730	1625	1420	1100	772.2	550.1	474.4	493.9	390.9	273.4	231.1	194.0	378.7	1560	4200	4287	1222	20.61	4.991	3.620	2.801	2.322	2.057	1.757	1.729	1.474	1.566	1.291	1.300	1.315	1.466	1.675	1.930	2.437	3.095	3.538	4.256	4.507	4.259	4.037	4.471	4.091	3.832	3.450	3.354	3.698	3.940	4.276	4.723	5.189	5.591	6.318	6.938	7.584	7.708	7.823	7.834	8.025	8.010	7.773	7.589	7.206	6.532	5.635	5.180	4.608
355.0	895.2	1366	1503	1308	1037	858.4	838.8	956.1	1136	1341	1517	1586	1507	1310	1039	754.0	554.7	452.7	431.9	477.1	378.8	261.0	195.1	184.4	408.2	992.7	2554	5921	1788	24.46	5.059	3.402	2.817	2.094	1.975	1.679	1.581	1.513	1.337	1.464	1.281	1.305	1.631	1.840	2.167	3.033	3.526	4.024	4.256	3.873	3.975	4.500	4.117	3.888	3.819	3.416	3.652	3.964	4.149	4.538	5.071	5.274	6.055	6.409	6.937	7.269	7.191	7.212	7.022	7.170	7.008	7.074	6.593	6.405	5.384	4.978	4.625
360.0	845.1	1287	1409	1254	1020	872.1	834.8	920.2	1083	1270	1417	1465	1401	1233	994.9	746.8	558.5	458.5	416.8	436.6	463.8	317.8	212.9	157.1	166.7	268.9	660.0	3736	5856	361.6	14.53	4.446	3.143	2.313	2.073	1.657	1.701	1.524	1.385	1.412	1.341	1.315	1.568	1.653	2.195	2.916	3.346	3.815	4.160	3.851	3.581	4.423	4.457	3.763	3.733	3.458	3.766	3.856	3.979	4.357	4.814	5.131	5.920	6.264	6.517	6.692	6.556	6.700	6.559	6.262	6.756	6.402	6.103	6.026	5.325	4.887	4.785
365.0	795.6	1178	1336	1234	1018	874.3	835.0	897.7	1038	1196	1330	1365	1302	1159	948.2	720.0	557.4	472.5	426.0	408.4	453.3	408.4	247.9	167.5	130.5	122.2	190.3	1027	4711	4918	286.2	7.553	3.845	2.899	2.132	2.052	1.528	1.560	1.494	1.335	1.393	1.353	1.433	1.551	1.911	2.491	3.076	3.711	3.828	3.640	3.527	4.233	4.099	4.024	3.830	3.669	3.759	3.782	4.052	4.383	4.760	5.098	5.458	5.906	6.128	6.279	6.543	6.371	6.197	6.480	6.049	6.130	6.174	5.886	4.788	4.913	4.685
370.0	731.3	1061	1209	1167	983.4	867.1	820.3	861.8	976.7	1099	1202	1237	1178	1059	887.2	693.4	556.2	486.7	445.0	413.3	404.5	422.9	346.4	213.0	145.0	111.3	101.1	270.1	1283	3707	3903	1108	17.96	3.835	2.839	2.166	1.740	1.724	1.580	1.374	1.221	1.339	1.408	1.599	1.924	2.335	2.649	3.387	3.383	3.433	3.470	4.137	3.839	3.927	3.662	3.502	3.657	3.792	3.993	4.193	4.316	4.554	5.033	5.275	5.516	5.658	5.726	6.103	5.953	5.812	5.510	5.891	5.817	5.542	4.816	4.627	4.549
375.0	611.6	946.9	1080	1085	943.8	840.2	799.5	819.0	909.8	1010	1090	1112	1062	955.6	816.2	658.9	551.0	494.6	457.6	424.9	397.2	376.4	381.0	305.2	182.8	131.4	101.3	116.2	325.2	871.6	2343	5178	1531	20.54	3.874	2.616	2.157	1.919	1.678	1.351	1.392	1.295	1.515	1.608	1.840	2.188	2.485	2.963	3.103	3.169	3.293	4.001	3.678	3.731	3.688	3.498	3.645	3.825	3.679	4.061	3.993	4.230	4.878	4.985	5.047	5.249	5.243	5.384	5.442	5.475	5.237	5.252	5.250	4.979	4.764	4.497	4.393
380.0	573.0	862.0	994.8	1014	936.2	826.3	776.4	786.9	859.8	944.6	1006	1024	967.6	893.8	771.6	632.9	547.2	495.1	463.0	439.2	402.2	367.3	351.5	361.1	240.9	154.3	116.2	96.28	120.1	228.7	606.1	3334	4789	298.8	10.97	3.232	2.486	1.926	1.644	1.464	1.352	1.326	1.468	1.614	1.782	1.961	2.472	2.912	2.892	3.033	3.087	3.721	3.711	3.661	3.575	3.358	3.715	3.761	3.539	3.775	4.103	4.030	4.594	4.825	4.905	5.106	4.788	4.823	5.041	5.102	4.923	4.929	4.609	4.781	4.385	4.424	4.224
385.0	535.9	801.0	958.7	958.8	921.9	823.5	750.7	770.6	817.9	883.8	931.2	952.9	908.7	832.2	729.3	614.1	540.5	494.4	466.0	444.6	408.6	371.0	336.9	343.5	309.3	192.5	133.5	104.9	88.68	95.42	168.1	916.7	3860	2570	224.9	5.195	2.940	2.241	1.766	1.690	1.464	1.402	1.398	1.562	1.623	2.079	2.158	2.650	3.007	2.861	2.737	3.527	3.465	3.644	3.241	3.379	3.625	3.774	3.595	3.599	4.223	4.077	4.078	4.432	4.661	4.551	4.617	4.503	4.651	4.837	4.716	4.826	4.583	4.283	4.256	4.095	3.929
390.0	471.2	715.5	894.0	898.8	864.0	789.4	744.3	740.8	765.5	821.5	861.5	862.8	831.8	772.0	677.5	586.0	527.2	487.8	466.4	441.6	410.9	379.9	337.1	314.9	312.8	268.8	177.4	127.3	101.7	83.42	81.90	236.0	1057	2609	2922	824.0	14.10	3.063	2.280	1.829	1.503	1.402	1.422	1.447	1.655	1.920	2.104	2.578	2.755	2.660	2.689	3.425	3.395	3.518	3.135	3.362	3.497	3.516	3.450	3.560	3.747	3.921	4.014	4.215	4.231	4.232	4.181	4.189	4.329	4.402	4.428	4.394	4.244	4.131	4.282	4.053	4.057
395.0	455.4	651.5	809.3	850.1	832.7	760.1	718.8	706.0	734.5	763.3	792.5	798.1	760.1	713.4	635.2	561.4	511.9	481.9	456.6	437.2	414.4	382.9	348.4	313.8	289.3	291.5	255.7	166.7	126.2	100.7	79.11	94.82	265.5	618.2	1820	3756	277.3	15.28	3.064	2.034	1.828	1.494	1.489	1.360	1.612	1.849	1.941	2.236	2.548	2.469	2.556	3.351	3.137	3.326	3.253	3.333	3.414	3.490	3.474	3.516	3.544	3.903	3.846	3.973	3.933	3.918	4.000	3.852	4.055	4.002	3.938	3.791	4.091	3.885	4.046	3.901	4.041
400.0	411.3	641.0	769.9	818.0	803.5	762.3	707.9	694.6	703.2	726.2	747.5	744.6	721.5	676.5	613.5	543.0	500.4	474.7	453.7	434.4	408.5	386.6	353.8	321.7	287.1	277.2	288.9	217.7	150.7	117.4	91.38	74.91	97.04	164.3	478.8	2528	3203	239.5	7.925	2.567	1.874	1.706	1.425	1.604	1.662	1.823	1.927	2.291	2.573	2.406	2.560	3.178	3.262	3.141	3.411	3.313	3.433	3.506	3.491	3.362	3.424	3.716	3.670	3.747	3.724	3.743	3.781	3.784	3.796	3.906	3.840	3.790	4.043	3.749	3.667	3.715	3.851
405.0	402.3	590.4	737.9	802.6	779.0	734.4	697.3	693.3	682.9	701.0	714.4	712.6	687.4	650.7	588.0	529.9	488.1	462.1	443.0	425.5	405.5	384.1	356.6	330.2	299.4	272.3	276.4	266.6	185.5	138.3	108.4	81.29	68.85	69.72	131.1	707.4	2824	2141	35.30	3.941	2.404	1.824	1.629	1.531	1.570	1.693	1.934	2.125	2.447	2.314	2.435	3.007	3.336	3.342	3.277	3.272	3.444	3.483	3.460	3.205	3.299	3.532	3.642	3.440	3.579	3.596	3.780	3.698	3.878	3.707	3.778	3.828	4.066	3.751	3.696	4.010	3.678
410.0	369.1	559.2	691.8	763.5	751.0	719.4	689.2	681.7	672.3	673.3	680.3	679.4	650.8	613.3	556.4	503.3	472.3	450.1	432.7	413.7	397.1	378.5	356.3	333.9	305.1	277.8	261.0	266.0	241.9	174.8	129.7	99.78	75.89	59.16	60.30	180.2	786.3	2013	2218	641.1	11.48	2.450	1.845	1.673	1.547	1.717	1.851	2.103	2.285	2.196	2.373	2.990	3.120	3.169	3.185	3.223	3.268	3.296	3.392	3.358	3.387	3.344	3.455	3.473	3.406	3.533	3.714	3.522	3.495	3.616	3.739	3.579	3.631	3.770	3.531	3.566	3.725
415.0	344.0	507.3	672.6	719.1	708.2	694.1	683.4	668.6	643.6	646.3	644.7	644.2	604.6	573.9	527.3	476.2	442.9	426.8	412.4	396.6	381.1	365.1	350.2	331.5	308.6	281.4	262.3	245.8	251.3	227.4	157.1	115.1	86.86	66.09	51.38	67.40	194.6	477.1	1390	2678	247.5	12.04	2.482	1.890	1.691	1.778	1.725	2.122	2.263	2.185	2.311	2.881	2.924	3.033	3.126	3.144	3.156	3.292	3.405	3.393	3.436	3.275	3.416	3.440	3.433	3.240	3.492	3.313	3.472	3.563	3.550	3.482	3.290	3.522	3.370	3.362	3.562
420.0	334.2	467.9	627.1	705.1	690.0	683.8	671.1	658.6	620.0	632.5	624.7	612.2	575.2	547.4	502.0	456.5	430.5	407.9	396.7	377.6	366.5	353.7	337.9	325.3	305.2	287.7	260.8	243.8	233.1	243.4	188.4	127.4	96.13	72.94	54.95	46.72	65.03	121.8	364.5	1843	2035	206.0	5.231	2.214	1.829	1.902	1.755	2.044	2.232	2.161	2.152	2.797	2.931	2.886	3.083	3.064	3.303	3.364	3.442	3.426	3.271	3.219	3.214	3.213	3.410	3.454	3.045	3.144	3.395	3.322	3.302	3.106	3.237	3.378	3.338	3.192	3.296
425.0	324.8	450.3	611.4	666.2	678.9	661.8	655.1	652.2	615.4	616.5	605.8	589.9	561.8	525.7	481.9	438.1	413.6	391.8	381.6	367.9	352.5	341.5	329.5	317.4	300.6	284.3	264.6	242.0	225.3	230.5	218.6	148.4	105.1	79.02	60.06	44.86	39.90	44.55	94.19	524.2	2018	1795	32.00	3.067	2.203	1.933	1.855	2.067	2.005	2.211	2.188	2.829	3.146	2.781	3.147	2.938	3.238	3.284	3.208	3.158	3.292	3.268	3.157	3.248	3.316	3.364	3.044	3.038	3.195	3.228	3.324	3.154	3.131	3.155	3.209	3.165	3.206
430.0	328.2	429.0	574.3	642.3	667.0	653.5	652.5	635.9	611.3	597.2	589.9	571.0	539.3	498.6	455.2	418.0	390.8	373.4	360.7	345.3	336.2	326.4	319.3	309.0	297.1	281.4	265.9	247.7	229.8	217.0	209.8	183.7	127.4	90.92	69.33	52.10	40.48	32.43	36.61	128.0	566.8	1542	1723	478.8	9.964	2.422	2.044	2.310	2.053	2.034	2.138	2.636	2.826	2.682	2.920	2.936	3.249	3.278	3.209	3.101	3.253	3.071	3.143	3.203	3.143	3.183	2.959	2.986	3.001	3.054	2.988	3.178	3.060	3.090	3.126	3.102	3.141
435.0	416.3	401.0	545.7	616.4	640.2	638.9	639.7	645.4	613.2	590.1	576.8	557.8	516.3	472.7	436.0	396.1	368.8	351.4	338.2	327.1	316.2	311.4	305.4	300.3	290.5	276.2	266.0	250.2	232.5	214.4	195.8	189.5	159.5	109.0	79.31	60.75	46.47	33.88	27.90	42.15	136.8	363.9	1110	2040	227.4	10.68	2.432	2.392	2.137	2.021	2.147	2.585	2.673	2.821	2.850	3.070	3.339	3.063	3.133	3.077	3.049	3.170	3.153	3.185	3.353	3.140	2.898	3.066	3.029	2.727	3.065	3.175	2.937	3.165	2.802	2.886	2.947
440.0	560.0	405.0	516.7	590.2	617.2	637.9	620.7	631.7	597.9	579.1	566.9	539.9	503.4	456.3	415.5	376.5	358.9	337.8	323.5	314.6	305.2	300.1	295.5	287.0	280.9	269.9	263.2	246.6	233.5	216.5	194.0	176.0	171.0	128.1	87.86	66.69	50.69	37.37	28.68	25.60	42.42	90.32	297.1	1558	1825	184.9	4.769	2.547	2.196	2.094	2.192	2.544	2.702	2.811	2.982	2.852	3.186	3.010	3.240	3.224	3.173	3.302	3.107	3.015	3.167	3.133	3.014	3.089	2.968	2.733	2.956	2.909	2.735	2.813	2.857	2.809	2.922
445.0	638.3	498.6	495.2	556.4	588.8	602.2	615.3	616.0	583.6	554.0	553.4	523.9	488.2	437.3	400.9	362.7	339.2	323.5	308.4	296.5	290.0	284.1	280.1	279.1	272.8	265.0	254.7	241.8	229.8	215.1	191.8	167.9	159.3	144.0	99.81	71.22	54.52	41.50	31.54	23.73	22.90	30.73	74.76	457.9	1824	1594	26.66	3.318	2.342	2.182	2.183	2.485	2.565	2.749	2.911	3.069	3.009	3.207	3.071	3.141	3.100	3.136	3.193	2.959	3.026	2.985	2.789	2.921	2.790	2.837	2.713	2.631	2.736	2.652	2.703	2.734	2.800
450.0	504.2	866.4	541.5	527.2	557.1	564.3	587.1	584.4	559.8	538.4	525.3	496.3	454.8	411.2	369.8	332.0	311.3	296.3	285.5	274.4	267.8	263.2	263.4	260.3	256.0	248.4	240.1	232.7	222.3	208.1	188.0	163.6	144.0	136.6	117.0	82.49	60.47	45.84	34.70	26.57	21.40	18.93	26.07	109.7	519.2	1397	1522	420.0	8.675	2.495	2.264	2.702	2.588	2.690	2.802	2.790	2.966	3.081	3.079	3.020	2.957	2.868	2.948	3.009	2.883	2.922	2.760	2.810	2.636	2.684	2.563	2.628	2.560	2.708	2.474	2.745	2.608
455.0	290.8	1058	885.9	501.2	521.5	536.3	546.5	549.6	525.6	515.4	490.6	464.4	419.4	376.5	341.3	305.0	284.6	270.5	258.5	248.3	242.9	242.4	239.0	237.6	234.9	226.8	224.8	216.7	209.2	197.2	180.6	159.8	137.0	121.5	114.8	98.92	67.57	48.54	37.71	30.00	23.47	19.04	16.64	32.42	122.0	328.9	919.0	1753	189.5	8.853	2.487	2.706	2.630	2.783	2.710	2.506	3.009	2.801	2.988	2.768	2.892	2.935	2.899	2.784	2.574	2.780	2.616	2.588	2.662	2.677	2.479	2.712	2.476	2.528	2.400	2.524	2.421
460.0	232.6	860.1	1247	548.9	491.6	500.4	526.7	515.6	497.0	480.6	460.5	433.7	397.4	353.2	315.5	281.9	264.2	248.0	240.4	231.8	223.7	222.5	219.7	218.5	218.5	210.9	211.4	204.7	197.8	190.0	172.8	153.5	132.5	113.7	103.0	101.9	78.72	52.43	40.41	31.25	24.56	19.52	15.72	16.90	34.60	79.80	237.2	1197	1492	146.7	5.056	2.818	2.513	2.480	2.516	2.512	2.773	2.709	2.806	2.669	2.839	2.702	2.697	2.515	2.527	2.674	2.588	2.421	2.495	2.546	2.321	2.444	2.413	2.365	2.375	2.221	2.272
465.0	205.5	501.6	1704	803.9	463.3	467.7	491.3	487.0	465.9	457.8	437.0	408.9	374.7	327.5	294.9	262.4	242.8	230.3	222.3	214.2	206.7	204.9	206.7	205.8	202.8	197.9	196.8	193.1	186.8	179.0	166.3	147.8	128.4	110.6	94.69	92.38	84.94	58.80	42.21	32.72	26.14	20.87	16.42	14.01	16.13	24.64	58.86	336.0	1367	1218	22.61	3.804	2.523	2.559	2.445	2.526	2.731	2.592	2.632	2.599	2.798	2.593	2.673	2.475	2.588	2.557	2.410	2.365	2.470	2.368	2.062	2.294	2.457	2.184	2.311	2.127	2.137
470.0	185.1	307.3	1204	1731	551.9	430.8	445.3	450.9	424.9	416.5	399.0	373.2	336.5	296.7	262.7	236.7	219.1	205.2	199.1	191.1	184.1	184.5	183.4	181.8	182.7	178.1	178.1	174.9	170.4	164.0	152.4	137.7	120.4	103.0	89.36	78.77	76.69	66.46	47.44	34.47	27.40	21.87	17.63	14.79	12.83	12.90	19.41	80.34	375.8	964.5	1069	363.8	9.588	2.772	2.411	2.446	2.568	2.385	2.522	2.641	2.489	2.328	2.331	2.424	2.550	2.319	2.287	2.194	2.101	2.209	2.021	2.108	2.187	2.101	2.039	2.003	1.893
475.0	195.6	248.1	558.8	1990	1221	398.5	399.1	402.1	381.9	375.6	363.8	337.8	299.9	265.3	236.3	209.1	195.6	182.5	175.8	169.2	162.4	163.2	161.3	161.2	161.2	157.8	158.5	155.8	151.5	146.5	137.6	125.9	111.2	94.93	82.46	71.20	63.59	62.94	55.82	37.89	28.10	22.77	18.91	15.81	13.07	11.21	11.35	23.78	88.53	223.0	538.2	1195	194.6	11.93	2.846	2.322	2.401	2.321	2.446	2.496	2.314	2.196	2.172	2.281	2.329	2.233	2.182	1.966	2.104	1.928	1.941	2.136	2.042	1.818	1.916	1.772	1.785
480.0	189.0	226.9	346.6	1431	2063	485.3	370.8	371.1	360.2	348.9	339.6	311.9	281.3	245.1	217.6	191.6	178.3	166.5	159.3	154.8	149.6	147.6	146.7	147.9	146.1	144.0	143.9	142.9	140.4	136.6	128.3	116.5	103.0	91.20	78.64	67.92	58.23	55.51	55.26	43.12	29.37	23.26	19.55	16.67	13.87	11.39	9.731	11.35	24.94	53.95	133.4	672.8	1114	176.9	6.344	2.383	2.327	2.280	2.404	2.317	2.076	2.347	2.001	2.116	2.004	2.108	2.012	1.894	1.829	1.707	1.750	1.940	1.768	1.734	1.652	1.697	1.654
485.0	179.6	218.3	271.3	765.9	2424	909.4	345.8	346.6	342.3	328.9	315.8	294.1	263.1	228.3	205.5	181.1	164.7	155.4	148.3	142.6	139.2	135.1	134.6	136.7	135.2	134.7	133.2	131.7	131.4	128.6	121.8	110.8	98.12	86.18	74.73	66.35	56.05	50.75	50.39	47.61	33.39	24.27	20.63	16.74	14.73	11.97	9.813	9.071	10.86	16.35	33.71	179.5	858.9	1031	27.80	3.679	2.391	2.291	2.241	2.204	2.012	2.132	2.107	1.973	2.016	1.997	2.014	1.963	1.674	1.830	1.770	1.695	1.752	1.614	1.624	1.645	1.728
490.0	153.0	228.6	252.6	387.6	1595	1991	413.1	319.8	312.1	305.0	292.2	268.0	240.7	211.1	182.9	164.0	149.7	141.8	133.5	128.7	125.9	122.6	123.0	124.1	121.3	122.6	120.5	118.4	119.4	117.7	111.2	103.1	91.67	80.54	71.06	62.98	53.71	47.18	43.24	43.56	38.50	28.21	21.24	17.67	15.11	13.03	10.91	9.356	8.334	8.621	11.69	44.06	224.9	646.8	889.2	376.2	12.12	2.549	2.276	2.153	2.057	2.051	2.112	2.028	1.953	1.823	1.742	1.810	1.780	1.699	1.669	1.684	1.668	1.648	1.578	1.534	1.585
495.0	124.9	208.7	268.6	277.0	651.4	2295	1201	302.0	284.6	277.9	267.2	243.1	218.5	192.2	165.0	146.2	133.3	126.1	120.6	115.9	112.7	109.3	112.1	111.2	107.9	109.2	107.5	105.3	107.2	107.0	101.4	93.71	83.97	73.23	66.12	59.01	50.71	45.46	39.58	36.17	37.36	33.64	23.54	18.57	15.75	13.39	11.62	9.956	8.428	7.285	7.124	13.84	53.39	148.6	408.7	1069	225.4	16.04	2.600	2.067	2.110	1.957	1.974	1.863	1.765	1.711	1.777	1.659	1.672	1.672	1.519	1.593	1.614	1.432	1.470	1.433	1.463
500.0	113.1	187.6	262.8	237.9	325.9	1570	2147	364.4	264.1	255.3	242.9	222.5	200.9	174.2	152.7	134.8	122.2	113.1	109.4	105.1	102.1	98.64	100.9	102.5	98.43	98.55	97.84	97.31	97.81	95.99	92.64	86.49	77.49	69.03	61.88	56.07	48.42	42.32	37.01	33.20	32.22	33.83	26.67	19.26	15.99	13.39	11.76	9.941	8.963	7.223	6.527	7.293	15.54	36.39	99.17	525.6	1054	209.9	10.36	2.402	2.050	1.970	1.825	1.844	1.721	1.673	1.631	1.615	1.647	1.683	1.530	1.478	1.413	1.404	1.396	1.266	1.409
505.0	108.9	142.7	248.5	232.6	240.6	769.8	2605	808.8	242.6	235.4	222.8	202.3	183.5	160.9	139.2	123.4	113.2	104.6	99.16	95.32	92.78	90.08	90.62	91.06	89.90	89.64	88.89	88.94	87.88	87.95	84.23	79.02	71.63	63.78	57.37	52.16	46.42	40.35	34.99	31.44	28.17	29.94	29.82	20.92	16.50	13.65	11.93	10.24	8.789	7.654	6.320	5.932	7.154	11.42	25.37	131.9	642.7	981.7	173.5	5.381	1.944	1.879	1.685	1.793	1.504	1.528	1.635	1.531	1.496	1.461	1.489	1.385	1.462	1.304	1.354	1.235	1.457
510.0	97.75	126.0	204.3	244.2	208.9	342.3	1701	2051	367.1	212.9	200.8	183.9	162.8	144.0	122.9	108.9	98.98	92.19	87.79	83.29	81.33	79.95	80.51	79.36	79.18	79.67	78.65	78.83	78.70	76.75	74.51	70.13	63.71	57.51	50.80	46.00	41.79	37.22	32.88	28.94	25.56	24.65	26.58	24.19	18.36	14.04	11.74	10.19	8.820	7.874	6.733	5.962	5.444	5.948	8.628	32.28	159.1	499.9	748.4	340.8	13.73	2.202	1.787	1.595	1.533	1.461	1.490	1.356	1.478	1.370	1.294	1.323	1.319	1.238	1.274	1.165	1.332
515.0	94.43	109.0	157.7	235.6	209.7	214.2	619.1	2526	1145	196.5	176.4	162.6	140.1	126.0	107.3	93.97	86.32	78.74	75.76	71.80	70.22	69.88	69.25	69.53	68.33	68.35	67.43	69.16	67.71	67.22	64.48	60.42	55.60	50.78	44.85	41.28	36.88	34.39	29.73	26.61	23.64	21.69	20.49	22.63	20.82	15.16	11.27	9.979	8.803	7.812	6.801	6.323	5.062	4.735	4.938	10.07	38.10	114.0	257.5	743.6	496.3	19.46	1.919	1.519	1.513	1.297	1.360	1.392	1.240	1.368	1.241	1.188	1.229	1.223	1.140	1.205	1.210
520.0	81.36	98.34	134.1	205.6	216.1	182.6	269.8	1719	2221	257.1	159.9	148.1	127.9	114.5	98.64	85.64	76.30	71.28	67.34	64.18	63.22	63.10	61.61	61.76	60.17	60.14	60.52	61.07	60.11	61.24	58.88	54.29	49.50	46.13	41.36	37.88	33.64	30.82	28.27	24.59	22.13	19.91	18.20	18.99	21.13	16.68	11.84	9.892	8.622	7.517	6.246	6.137	5.494	4.645	4.085	5.000	11.10	27.59	60.87	307.9	794.4	220.6	13.19	1.720	1.567	1.413	1.299	1.353	1.236	1.179	1.164	1.159	1.055	1.073	1.046	1.070	1.163
525.0	80.09	99.31	121.1	165.9	228.1	170.8	181.0	768.5	2906	744.4	146.5	134.8	119.1	102.2	89.62	77.43	70.95	64.97	60.13	58.35	57.50	56.83	55.23	55.77	55.43	54.00	54.58	54.31	54.23	55.03	52.88	50.17	45.42	41.69	37.78	35.19	31.69	28.52	25.98	22.56	20.51	18.73	16.56	15.88	18.66	18.27	13.27	9.897	8.372	7.217	6.134	5.788	5.531	4.646	3.774	4.005	4.956	8.577	15.80	74.34	385.6	706.3	185.0	6.497	1.597	1.416	1.319	1.176	1.178	1.103	1.078	1.098	1.093	1.127	0.997	1.071	1.082
530.0	74.24	90.67	103.1	126.3	205.7	183.6	147.7	291.4	1858	2192	203.5	119.0	104.2	91.97	77.88	68.20	61.23	56.72	53.78	51.27	49.48	48.82	47.91	47.91	47.79	46.67	46.67	46.50	47.22	48.09	46.31	43.21	39.36	36.50	32.58	30.67	28.00	25.02	23.07	20.99	18.14	16.83	15.25	14.07	14.20	16.11	14.74	10.80	8.266	6.993	6.031	5.554	4.931	4.650	3.942	3.581	3.566	4.211	5.654	18.56	92.42	303.5	510.0	269.2	15.20	1.668	1.356	1.165	1.133	1.049	1.087	1.052	1.070	1.056	1.069	0.954	1.062
535.0	67.17	79.17	92.85	107.0	159.4	194.9	136.8	160.5	601.2	2743	1121	111.4	91.91	80.40	66.54	58.27	51.94	48.61	45.83	44.35	42.26	41.00	41.35	40.64	40.64	40.05	40.54	39.65	40.66	40.36	39.71	37.48	33.29	31.20	29.19	26.46	24.25	21.73	19.89	18.28	16.49	14.86	13.54	12.74	12.04	12.53	13.93	12.38	8.391	6.555	5.836	5.079	4.619	4.215	4.164	3.650	3.122	3.093	3.134	5.836	22.18	69.31	150.3	458.8	241.1	21.42	1.471	1.202	1.212	0.933	1.026	0.978	0.977	0.941	0.863	0.983	1.025
540.0	68.72	69.42	84.76	98.83	121.1	186.4	141.2	120.7	222.4	1711	2383	172.2	79.80	71.44	59.65	52.83	46.69	42.99	40.62	38.71	37.12	36.20	36.02	35.57	34.58	35.40	34.90	34.36	35.26	36.17	35.19	33.76	30.15	27.80	26.06	23.69	21.67	19.27	18.44	16.38	14.64	13.58	12.48	11.48	10.80	10.67	11.83	11.70	8.681	6.574	5.552	4.836	4.162	3.861	3.740	3.865	3.228	2.766	2.594	3.066	6.563	16.99	35.30	165.3	490.0	223.4	14.56	1.305	1.181	1.101	0.968	0.977	0.968	0.945	0.836	0.949	0.876
545.0	69.93	69.32	78.90	82.22	93.85	162.3	156.8	109.7	128.6	680.7	3035	554.8	71.73	61.98	53.53	46.51	40.98	38.10	36.11	34.25	32.96	32.84	32.40	31.04	30.99	31.39	31.50	30.62	31.42	31.73	30.12	29.78	26.06	24.72	22.88	20.54	19.61	17.40	16.45	14.68	13.28	12.49	11.61	10.54	9.547	9.400	9.100	10.44	9.620	7.026	5.404	4.575	4.002	3.556	3.641	3.654	3.258	2.639	2.244	2.229	3.072	5.319	9.403	39.28	211.4	485.3	178.2	6.888	1.271	1.013	1.007	1.050	0.934	0.826	0.875	0.925	0.841
550.0	61.72	68.38	72.50	75.29	82.01	110.4	159.7	105.3	94.26	228.2	1763	1915	121.4	52.04	45.20	39.16	35.41	31.94	29.94	28.99	27.85	27.14	27.31	26.52	26.24	26.86	26.09	25.92	26.27	26.38	26.37	24.25	22.12	20.84	19.34	17.75	16.27	15.02	14.06	12.64	11.52	10.43	10.02	9.239	8.372	7.984	7.328	7.893	8.706	7.526	5.448	4.159	3.566	3.304	3.115	2.983	3.091	2.751	2.326	2.033	2.217	2.557	3.323	10.06	50.01	186.6	341.9	185.6	15.13	1.251	1.038	0.993	0.935	0.876	0.824	0.868	0.882
555.0	61.59	61.07	69.95	68.06	68.19	80.61	134.2	124.4	77.54	109.7	518.8	2511	785.3	47.50	38.30	32.06	29.83	26.54	24.25	23.46	22.80	22.77	22.19	21.77	21.00	20.92	21.15	21.24	21.55	21.49	20.87	19.69	18.37	17.05	15.83	14.41	13.66	12.15	11.61	10.35	9.617	8.677	8.497	7.728	7.350	6.448	6.179	5.985	6.427	6.901	5.695	3.984	3.274	3.012	2.853	2.624	2.572	2.603	2.554	1.918	1.942	1.748	1.979	3.422	12.31	42.71	95.65	283.5	230.3	19.58	1.166	1.003	0.891	0.785	0.788	0.880	0.761
560.0	62.57	58.80	65.96	66.21	62.16	68.72	104.9	139.8	78.98	82.35	175.2	1538	1902	85.01	34.57	27.38	25.58	23.04	21.26	20.33	20.08	18.98	18.71	17.74	18.19	18.16	17.95	17.96	18.77	18.19	18.04	16.38	15.88	14.39	13.18	12.48	11.66	10.40	10.02	9.008	8.709	7.716	7.515	6.768	6.256	5.886	5.676	4.904	5.018	5.669	5.795	4.305	3.264	2.793	2.531	2.273	2.228	2.165	2.389	2.080	1.739	1.629	1.660	1.830	3.899	10.65	22.51	96.95	310.0	188.2	12.32	1.054	0.887	0.776	0.861	0.825	0.781
565.0	64.04	73.35	65.96	59.03	57.21	61.80	83.16	138.4	88.83	73.65	95.71	589.1	2525	341.6	29.82	24.60	21.91	19.54	17.68	17.53	17.13	16.30	15.69	15.75	15.34	15.55	15.14	15.31	15.74	16.16	15.19	14.32	13.18	12.29	11.27	10.65	9.970	9.263	8.499	8.095	7.424	6.580	6.490	6.338	5.639	5.060	4.904	4.422	4.052	4.389	5.010	4.283	3.397	2.589	2.279	2.178	2.118	2.098	2.143	2.092	1.813	1.584	1.563	1.488	1.951	3.537	6.097	23.14	122.5	297.7	124.4	4.887	0.969	0.748	0.743	0.812	0.711
570.0	69.28	70.66	67.18	54.49	51.93	54.57	63.46	106.4	108.7	72.22	75.89	191.3	1503	1423	66.62	21.17	18.00	16.47	15.39	14.78	13.59	13.22	13.46	13.38	12.72	12.61	12.93	12.92	12.26	12.74	12.84	11.98	10.79	10.06	9.241	8.650	8.265	7.884	7.261	6.836	6.255	5.702	5.324	5.372	4.864	4.319	4.277	3.775	3.576	3.251	3.552	3.962	3.377	2.635	2.080	1.959	1.934	1.776	1.887	1.893	1.960	1.730	1.446	1.383	1.458	1.829	2.369	6.166	29.10	108.0	200.1	117.2	13.04	1.001	0.778	0.775	0.740
575.0	74.66	73.56	71.19	56.60	53.00	51.59	53.17	74.00	124.4	82.09	75.08	97.49	439.4	1936	519.7	20.25	15.17	13.85	12.48	12.74	11.70	11.20	11.07	10.49	10.25	9.978	9.867	10.13	10.01	10.60	10.36	9.772	8.412	7.946	7.476	7.008	6.858	6.419	6.051	5.504	5.020	4.595	4.536	4.460	3.960	3.457	3.520	3.083	3.124	2.686	2.666	2.987	3.145	2.811	2.022	1.740	1.731	1.700	1.543	1.593	1.692	1.940	1.613	1.392	1.389	1.334	1.437	2.526	7.548	24.90	54.27	158.6	158.1	15.96	0.797	0.694	0.771
580.0	79.51	82.25	73.54	62.55	49.41	46.82	50.66	60.50	114.9	105.7	79.06	77.20	149.6	1202	1329	37.50	13.31	12.90	11.72	10.84	9.955	9.791	9.451	9.420	9.268	8.469	8.876	8.788	9.354	8.544	8.749	8.106	7.741	6.620	6.378	6.114	5.592	5.589	4.995	4.464	4.259	3.961	3.763	3.851	3.368	3.203	3.092	2.785	2.575	2.321	2.400	2.283	2.726	2.933	2.037	1.748	1.712	1.704	1.393	1.461	1.408	1.551	1.630	1.311	1.287	1.322	1.360	1.518	2.827	6.466	13.08	52.72	182.7	117.1	7.868	0.786	0.754
585.0	72.89	79.56	77.33	60.44	47.45	47.15	46.32	55.67	90.27	127.0	86.12	77.74	78.70	446.9	1807	102.9	12.25	11.49	9.868	9.175	8.568	8.570	7.657	8.253	8.267	7.583	7.415	7.705	7.909	7.672	7.469	7.303	6.762	6.076	5.609	5.241	4.938	4.968	4.406	4.330	3.907	3.464	3.219	3.333	3.020	2.938	2.577	2.498	2.295	2.168	1.916	1.942	2.155	2.672	2.253	1.679	1.529	1.464	1.316	1.416	1.334	1.471	1.599	1.546	1.429	1.253	1.292	1.332	1.578	2.409	3.762	12.90	70.67	177.1	34.18	3.101	0.754
590.0	75.10	80.96	75.76	56.77	45.09	43.04	43.98	47.46	69.03	124.1	101.1	78.40	66.29	137.2	1063	890.3	33.39	9.918	8.655	7.631	7.216	7.209	6.509	6.755	6.510	6.247	6.352	6.161	6.687	6.159	6.337	6.021	5.594	5.200	4.687	4.427	4.130	3.981	3.653	3.539	3.219	2.944	2.737	2.903	2.681	2.579	2.357	2.162	2.000	1.924	1.678	1.659	1.656	2.098	2.164	1.987	1.500	1.341	1.233	1.273	1.282	1.181	1.438	1.655	1.449	1.283	1.140	1.218	1.240	1.411	1.605	3.590	16.80	62.73	109.2	75.04	10.98
595.0	72.50	80.55	71.96	54.01	42.86	41.38	41.12	46.76	57.28	100.7	124.9	82.74	64.47	61.74	299.2	1268	263.8	8.869	7.501	6.460	6.340	6.080	5.423	5.425	5.425	5.256	5.340	5.004	5.169	4.793	5.104	5.050	4.645	4.290	3.774	3.815	3.528	3.221	3.150	2.774	2.577	2.259	2.315	2.419	2.122	2.194	2.037	1.891	1.648	1.581	1.460	1.404	1.581	1.542	1.865	1.912	1.659	1.348	1.143	1.141	1.113	1.107	1.216	1.328	1.511	1.441	1.092	1.108	1.084	1.208	1.157	1.501	4.361	14.68	29.59	94.02	96.41
600.0	74.39	73.90	75.19	53.46	40.27	38.32	39.94	45.80	55.59	81.61	132.1	88.90	67.34	45.64	89.03	827.2	693.6	16.84	6.907	6.121	5.834	5.216	4.958	4.564	4.779	4.547	4.729	4.629	4.603	4.489	4.420	4.233	4.135	3.498	3.555	3.137	3.126	2.777	2.635	2.432	2.481	2.145	2.229	2.179	1.929	1.926	1.739	1.668	1.559	1.371	1.321	1.267	1.289	1.320	1.421	1.775	1.763	1.304	1.046	1.133	0.994	0.998	1.027	1.253	1.425	1.482	1.200	1.141	1.082	1.050	1.049	1.007	1.724	3.966	7.304	31.18	107.5
605.0	70.22	74.30	69.48	50.86	40.20	39.40	43.21	45.36	53.86	72.68	124.3	100.2	69.19	43.29	38.94	311.6	1078	68.71	6.105	5.200	4.807	4.732	4.550	4.061	4.610	3.892	3.708	4.026	4.192	3.958	3.676	3.736	3.685	3.138	3.136	2.898	2.614	2.413	2.340	2.297	2.255	1.922	1.909	1.765	1.900	1.661	1.652	1.673	1.443	1.267	1.216	1.155	1.106	1.058	1.151	1.379	1.622	1.531	1.170	1.085	0.984	1.037	1.093	0.999	1.145	1.387	1.356	1.175	1.015	1.049	1.014	0.946	1.020	1.516	2.255	7.721	41.12
610.0	70.47	79.37	70.10	49.30	41.27	36.48	39.63	43.90	53.69	69.22	102.5	119.2	74.73	46.37	30.31	89.42	716.9	497.4	15.67	4.982	4.485	4.166	3.884	3.589	3.622	3.570	3.406	3.552	3.322	3.425	3.387	3.195	2.983	2.775	2.665	2.605	2.334	2.114	2.076	1.904	1.942	1.670	1.690	1.595	1.516	1.417	1.521	1.386	1.278	1.180	1.091	1.097	1.068	0.970	1.086	1.106	1.488	1.416	1.223	1.037	0.988	0.991	0.966	0.998	1.090	1.174	1.321	1.353	1.009	0.992	0.934	0.886	0.861	1.033	1.060	2.322	9.986
615.0	66.92	71.44	64.78	45.62	38.14	34.77	37.47	44.54	55.82	68.31	83.96	121.4	83.93	48.15	29.63	34.22	210.5	833.8	74.00	4.801	3.989	3.506	3.573	3.073	2.906	2.971	2.976	2.905	2.822	2.898	2.845	2.745	2.446	2.361	2.189	2.061	2.067	1.874	1.785	1.644	1.708	1.435	1.411	1.445	1.392	1.235	1.238	1.147	1.198	1.055	1.034	0.939	0.943	0.839	0.934	0.960	1.123	1.181	1.208	0.988	0.924	0.961	0.937	1.060	0.932	1.076	1.179	1.245	1.242	0.962	0.947	0.875	0.841	0.821	0.895	1.174	2.853
620.0	70.76	76.64	62.69	48.14	32.69	32.35	34.24	43.64	54.68	67.42	82.13	105.8	95.82	50.19	30.42	22.34	58.92	596.5	436.2	7.327	3.594	3.170	3.199	2.974	2.854	2.749	2.562	2.620	2.489	2.585	2.393	2.352	2.188	2.065	2.019	1.808	1.939	1.636	1.615	1.424	1.482	1.379	1.210	1.252	1.296	1.148	1.066	1.161	1.041	0.948	0.847	0.869	0.819	0.823	0.981	0.832	0.961	1.061	1.308	1.075	0.976	0.863	1.029	0.933	1.018	1.059	1.008	1.111	1.209	1.060	0.937	0.833	0.778	0.846	0.793	0.887	1.177
625.0	76.57	70.74	62.38	45.20	33.29	33.02	33.66	40.75	52.04	67.20	76.63	89.47	101.3	55.23	31.16	20.18	22.56	242.2	731.0	40.30	3.341	3.064	2.855	2.710	2.565	2.248	2.404	2.335	2.323	2.262	2.155	2.140	2.006	1.864	1.823	1.704	1.552	1.448	1.443	1.268	1.260	1.198	1.179	1.156	1.120	1.163	0.922	0.948	0.897	0.881	0.819	0.820	0.802	0.840	0.912	0.792	0.876	0.930	1.099	1.040	1.002	0.841	0.928	0.918	0.909	0.994	1.047	1.036	1.133	1.179	0.975	0.789	0.816	0.794	0.843	0.809	0.861
630.0	65.01	72.76	59.33	44.14	32.42	32.11	33.88	41.73	51.50	65.46	77.83	83.37	91.83	65.56	33.49	20.06	14.31	65.92	538.7	340.5	8.028	2.924	2.613	2.528	2.089	2.204	2.094	2.142	2.034	2.015	1.875	1.825	1.689	1.619	1.595	1.517	1.379	1.374	1.226	1.228	1.260	1.067	1.066	1.112	0.944	0.946	0.916	0.854	0.832	0.787	0.704	0.807	0.769	0.796	0.745	0.678	0.808	0.816	0.906	1.004	0.981	0.896	0.885	0.890	0.925	0.965	0.995	0.997	1.019	1.094	1.092	0.859	0.862	0.772	0.797	0.730	0.773
635.0	65.20	67.20	56.41	40.63	32.34	29.62	32.70	40.27	50.60	62.23	74.46	79.77	79.60	74.32	38.89	19.94	12.82	20.98	161.8	611.7	54.88	2.801	2.468	2.244	2.091	1.934	1.971	1.755	1.978	1.684	1.719	1.790	1.484	1.451	1.385	1.335	1.128	1.175	1.174	1.132	1.101	1.034	1.074	0.944	0.868	0.901	0.865	0.746	0.719	0.694	0.658	0.724	0.726	0.729	0.707	0.720	0.799	0.694	0.873	0.916	1.136	0.954	0.887	0.849	0.904	0.909	0.922	0.938	0.895	0.930	1.105	1.026	0.914	0.780	0.748	0.728	0.738
640.0	73.32	70.24	52.73	42.84	31.50	28.19	33.32	43.00	51.61	61.52	73.02	78.27	73.71	75.36	43.50	21.46	13.38	10.50	43.06	478.7	279.1	4.386	2.385	2.184	1.819	1.943	1.653	1.796	1.754	1.706	1.730	1.554	1.394	1.346	1.337	1.199	1.116	1.067	1.101	0.984	0.938	0.941	0.939	0.922	0.903	0.865	0.824	0.765	0.675	0.656	0.669	0.610	0.647	0.694	0.642	0.745	0.738	0.681	0.737	0.760	0.968	0.925	0.965	0.775	0.856	0.922	0.837	1.025	0.903	0.906	0.945	0.929	0.981	0.774	0.757	0.803	0.729
645.0	67.43	68.68	55.81	40.63	32.08	28.62	32.47	39.02	50.85	62.60	72.77	73.45	67.65	70.93	48.47	22.26	14.07	8.306	14.23	213.2	505.2	22.21	2.492	2.020	1.729	1.652	1.492	1.538	1.495	1.551	1.525	1.311	1.346	1.138	1.235	1.135	0.990	0.969	1.033	1.001	0.802	0.813	0.847	0.791	0.819	0.821	0.785	0.766	0.647	0.705	0.632	0.665	0.637	0.637	0.622	0.622	0.766	0.708	0.728	0.662	0.833	0.909	0.916	0.813	0.897	0.838	0.843	0.911	0.863	0.895	0.875	0.998	1.004	0.902	0.821	0.830	0.799
650.0	67.72	71.35	59.06	39.42	30.77	28.11	31.34	38.62	47.81	58.28	72.06	72.24	66.49	61.56	53.22	23.89	13.76	8.174	7.463	63.24	512.4	64.46	2.773	2.062	1.810	1.530	1.507	1.497	1.539	1.497	1.484	1.272	1.318	1.125	1.151	1.039	1.051	1.023	0.971	0.948	0.878	0.869	0.836	0.802	0.775	0.848	0.777	0.725	0.693	0.721	0.585	0.691	0.609	0.673	0.604	0.568	0.614	0.629	0.727	0.685	0.831	0.855	0.908	0.900	0.778	0.820	0.908	0.812	0.875	0.919	0.918	0.901	0.910	0.858	0.760	0.754	0.704
