Sample:	'1
File name:	Default_20230428_143456.FD3
Run date:	'14:28:35, 04/28/2023
Operator:	user
Comment:	'

Instrument
Model:	F-2700 FL Spectrophotometer
Serial number:	2190-003
ROM Version:	4J14000 07

Instrument parameters
Measurement type:	3-D scan
Data mode:	Fluorescence
EX  Start WL:	220.0 nm
EX  End WL:	600.0 nm
EX Sampling interval:	5.0 nm
EM  Start WL:	230.0 nm
EM  End WL:	650.0 nm
EM Sampling interval:	5.0 nm
Scan speed:	12000 nm/min
EX Slit:	5.0 nm
EM Slit:	5.0 nm
PMT Voltage:	700 V
Response:	Auto 
Corrected spectra:	Off
Contour interval:	50.000

Peak integration
Integration method:	Rectangular
Sensitivity:	1
Threshold:	1.000

Peaks
No.	ApexEX/EM(nm)	Height(Data)
1	225.0/585.0	46.09
2	225.0/605.0	48.76
3	225.0/625.0	48.02
4	230.0/275.0	43.50
5	230.0/340.0	386.3
6	230.0/540.0	60.25
7	230.0/560.0	44.35
8	230.0/610.0	43.55
9	235.0/550.0	53.78
10	235.0/570.0	41.46
11	235.0/600.0	37.37
12	240.0/520.0	135.9
13	245.0/265.0	202.8
14	245.0/530.0	121.2
15	245.0/575.0	35.78
16	245.0/605.0	27.55
17	245.0/625.0	27.29
18	250.0/540.0	115.9
19	250.0/615.0	25.56
20	250.0/640.0	25.29
21	255.0/555.0	101.5
22	255.0/625.0	23.39
23	260.0/285.0	454.9
24	260.0/565.0	97.62
25	260.0/635.0	24.11
26	265.0/290.0	472.7
27	265.0/425.0	344.5
28	265.0/435.0	340.5
29	265.0/580.0	96.47
30	270.0/240.0	14.47
31	270.0/295.0	668.4
32	270.0/420.0	345.8
33	270.0/440.0	347.7
34	270.0/590.0	90.96
35	275.0/305.0	770.1
36	275.0/425.0	347.3
37	275.0/605.0	81.87
38	275.0/640.0	32.88
39	280.0/310.0	777.9
40	280.0/340.0	550.8
41	280.0/390.0	369.7
42	280.0/410.0	349.0
43	280.0/615.0	77.43
44	285.0/315.0	789.9
45	285.0/405.0	353.3
46	285.0/625.0	59.01
47	290.0/320.0	785.4
48	290.0/400.0	360.9
49	290.0/640.0	47.78
50	300.0/335.0	453.9
51	305.0/340.0	471.0
52	310.0/345.0	421.8
53	315.0/255.0	4.936
54	315.0/350.0	342.5
55	320.0/360.0	356.2
56	325.0/365.0	362.1
57	330.0/370.0	310.5
58	335.0/375.0	317.9
59	340.0/385.0	315.7
60	345.0/390.0	284.5
61	350.0/395.0	274.7
62	355.0/405.0	274.0
63	360.0/410.0	240.0
64	365.0/415.0	231.0
65	370.0/425.0	220.0
66	375.0/430.0	188.5
67	380.0/435.0	170.7
68	385.0/445.0	154.8
69	400.0/465.0	102.1
70	410.0/475.0	71.51
71	415.0/485.0	63.76
72	420.0/490.0	53.31
73	425.0/495.0	46.08
74	430.0/505.0	39.54
75	440.0/515.0	28.38
76	445.0/525.0	23.89
77	450.0/530.0	20.63
78	455.0/535.0	18.30
79	460.0/545.0	13.79
80	470.0/560.0	8.458
81	515.0/285.0	3.163
82	530.0/290.0	3.081
83	540.0/295.0	3.830
84	545.0/300.0	3.979
85	550.0/305.0	4.094
86	555.0/310.0	3.510
87	575.0/320.0	3.890
88	580.0/325.0	3.858
89	590.0/330.0	3.408

Data points
	220.0	225.0	230.0	235.0	240.0	245.0	250.0	255.0	260.0	265.0	270.0	275.0	280.0	285.0	290.0	295.0	300.0	305.0	310.0	315.0	320.0	325.0	330.0	335.0	340.0	345.0	350.0	355.0	360.0	365.0	370.0	375.0	380.0	385.0	390.0	395.0	400.0	405.0	410.0	415.0	420.0	425.0	430.0	435.0	440.0	445.0	450.0	455.0	460.0	465.0	470.0	475.0	480.0	485.0	490.0	495.0	500.0	505.0	510.0	515.0	520.0	525.0	530.0	535.0	540.0	545.0	550.0	555.0	560.0	565.0	570.0	575.0	580.0	585.0	590.0	595.0	600.0
230.0	40.69	166.1	 1428	 1180	100.6	18.32	16.47	13.70	11.29	12.12	11.55	9.181	8.724	7.913	6.544	4.752	5.340	3.836	4.284	3.841	3.298	3.475	3.129	2.625	2.818	2.507	2.482	2.092	2.365	2.238	2.259	2.098	2.126	1.738	1.888	1.872	1.777	1.757	1.543	1.519	1.564	1.533	1.588	1.326	1.550	1.198	1.269	2.999	5.733	5.277	2.597	1.314	0.927	1.094	0.973	1.034	0.977	1.074	0.917	0.851	0.934	1.132	0.876	0.799	0.895	0.855	0.991	0.949	0.825	0.921	0.864	0.926	0.875	0.890	1.046	0.955	0.888
235.0	52.82	71.84	524.4	 1719	 1354	143.3	17.72	11.73	10.71	11.19	12.17	8.598	10.11	7.589	7.138	5.247	5.416	3.234	3.796	4.285	2.821	3.502	3.186	2.879	2.307	2.992	2.217	2.343	2.284	2.007	1.997	1.969	1.707	1.750	1.559	1.944	1.743	1.816	1.537	1.230	1.562	1.521	1.342	1.341	1.302	1.174	1.340	1.568	2.641	4.177	6.507	7.618	4.325	1.528	1.145	0.916	1.006	0.927	1.019	1.241	0.781	0.930	0.937	1.041	1.134	0.800	1.213	0.802	0.839	0.787	0.736	0.812	0.863	0.907	0.835	0.854	1.116
240.0	60.97	61.12	149.9	829.2	 2540	 1253	84.26	14.32	13.71	10.34	14.47	8.654	8.656	8.059	7.687	5.379	6.178	3.798	3.864	4.069	3.291	3.676	3.366	2.407	2.116	2.655	2.147	1.946	2.379	2.026	2.380	2.143	1.944	1.457	2.020	1.790	1.758	2.004	1.467	1.244	1.575	1.451	1.346	1.454	1.442	1.288	1.487	0.977	1.429	1.744	3.862	8.736	10.76	7.853	3.285	1.284	1.283	0.997	0.948	1.272	0.799	1.039	0.781	1.047	0.839	1.028	0.975	0.927	1.022	0.834	0.817	0.952	0.995	0.870	0.842	1.075	0.755
245.0	49.33	67.78	84.66	222.7	 1532	 3111	 1084	45.84	14.99	11.56	8.394	10.75	9.438	10.17	6.213	6.570	4.744	4.993	4.782	3.787	3.378	3.467	3.168	3.220	3.002	2.161	2.332	2.173	2.039	1.594	2.450	2.087	2.141	1.382	1.690	1.681	1.432	1.606	1.565	1.824	1.184	1.527	1.388	1.349	1.334	1.248	1.432	1.227	1.124	1.162	1.584	3.442	6.813	13.24	12.46	6.887	1.965	0.954	0.988	1.118	0.847	0.923	0.830	0.885	0.846	0.744	1.135	1.127	1.067	0.813	0.887	0.850	1.002	0.805	0.876	0.843	1.062
250.0	40.20	53.36	78.86	117.2	401.1	 1634	 3378	 2539	355.4	18.55	10.50	12.75	10.85	9.984	6.827	7.156	5.012	4.919	4.664	4.086	3.379	4.262	3.184	3.119	2.668	2.413	2.174	1.920	2.368	2.448	1.938	1.908	2.065	1.690	1.692	1.637	1.638	1.586	1.656	1.576	1.578	1.447	1.718	1.364	1.242	1.361	1.251	1.206	1.395	1.232	1.295	1.568	2.346	4.709	7.859	12.34	14.52	13.55	7.642	1.988	1.050	1.062	0.830	0.964	1.020	0.837	1.057	1.003	0.860	0.865	0.759	0.798	0.896	0.926	0.995	0.955	1.069
255.0	31.75	49.65	50.74	140.9	183.7	386.5	 1260	 4967	 4722	452.5	17.74	13.41	13.12	9.639	7.898	6.594	6.414	3.877	4.570	4.936	3.989	3.225	4.051	3.196	3.075	2.302	2.147	2.306	1.957	2.294	2.382	1.726	1.819	1.564	2.063	2.079	1.960	1.327	1.500	1.461	1.515	1.635	2.178	1.098	1.410	1.315	1.533	1.334	1.360	1.064	1.227	1.737	1.275	1.953	2.556	3.522	6.369	14.52	24.49	24.89	10.50	1.939	0.895	1.090	0.971	0.897	1.163	1.183	0.941	1.061	1.287	0.738	0.643	0.884	1.283	0.853	0.970
260.0	36.61	41.50	38.55	91.56	203.2	149.8	317.1	 2247	 7394	 4345	242.2	16.81	13.20	10.53	7.746	7.061	6.835	5.110	5.098	4.554	4.390	3.832	3.039	2.855	2.826	2.527	2.343	2.723	2.283	2.738	1.810	1.803	1.556	1.672	1.703	1.803	1.295	1.717	1.595	1.512	1.622	1.721	1.584	1.345	1.541	1.367	1.464	1.399	1.044	1.223	1.133	1.743	1.477	1.396	1.346	1.437	2.384	4.385	11.49	25.32	33.18	22.17	6.259	1.190	0.842	0.946	0.831	0.978	0.821	1.014	1.056	0.760	0.687	0.857	0.901	0.738	0.952
265.0	43.78	39.08	34.77	50.48	142.5	202.8	130.8	571.8	 3734	 8954	 1115	108.2	14.49	13.64	9.831	8.276	7.139	5.734	5.232	3.926	3.666	3.880	2.817	2.797	2.219	2.257	2.457	2.524	2.563	1.698	2.440	2.378	1.629	1.905	1.622	1.557	1.694	1.422	1.322	1.432	1.426	1.533	1.742	1.358	1.598	1.495	1.515	1.355	1.139	1.138	0.822	1.244	1.340	1.905	1.759	1.292	1.539	1.984	3.493	8.552	19.82	36.18	34.46	16.00	2.942	0.932	1.016	0.984	0.983	0.730	1.139	0.829	0.605	0.890	0.776	0.934	0.956
270.0	50.41	41.03	43.14	32.22	58.83	164.1	236.2	203.3	919.3	 3964	 7230	 4162	364.5	17.93	13.07	9.575	8.806	6.620	5.736	4.279	4.084	4.198	2.664	3.314	2.662	2.577	2.887	2.904	2.462	2.256	2.415	2.678	1.926	2.267	1.854	1.609	1.785	1.567	1.405	1.346	1.526	1.559	1.434	1.638	1.597	1.533	1.377	1.424	1.287	1.152	0.877	1.123	1.301	1.427	1.752	1.998	2.240	1.712	1.585	2.751	5.307	11.61	20.04	29.49	36.13	26.48	10.95	2.110	0.909	0.818	1.070	0.927	0.736	0.756	0.871	0.875	0.975
275.0	60.48	36.15	43.50	35.29	40.49	63.76	193.0	334.5	275.3	914.6	 2392	 9465	 6407	459.1	17.88	12.58	9.400	7.940	6.762	4.572	5.379	4.161	3.248	3.260	2.701	2.969	3.069	2.922	2.263	2.329	2.947	2.084	1.955	1.983	2.149	1.837	1.712	1.328	1.358	1.356	1.491	1.258	1.007	1.544	1.425	1.527	1.171	1.417	1.206	1.060	1.038	1.112	1.151	1.209	1.322	1.566	2.197	2.511	2.332	1.668	1.814	3.381	5.367	7.940	13.86	30.31	49.87	37.94	12.44	1.208	0.878	0.921	0.795	1.036	0.746	1.133	1.084
280.0	53.87	43.02	37.16	39.53	38.21	34.81	80.19	325.3	327.2	259.9	587.8	 3628	9999.9	 5295	280.0	13.08	10.50	8.428	7.016	4.829	4.837	4.243	4.050	3.611	2.951	3.231	2.933	2.426	2.857	2.674	2.514	1.859	1.897	2.175	1.517	1.893	1.482	1.497	1.435	1.417	1.244	1.552	1.184	1.407	1.513	1.892	1.235	1.473	1.193	1.246	1.020	0.770	0.978	1.017	1.093	1.177	1.262	1.872	2.591	2.689	1.948	1.588	2.369	2.711	4.223	8.906	23.98	47.80	55.44	30.44	5.964	0.861	0.835	1.339	1.171	0.969	0.919
285.0	69.20	52.23	47.70	46.53	35.23	32.09	46.55	176.4	454.9	246.3	190.6	918.6	 5001	9999.9	 3940	119.4	12.57	10.65	8.630	5.843	4.648	4.584	4.259	3.970	3.247	3.022	2.251	2.797	3.228	2.404	2.276	1.997	1.815	2.036	1.658	1.823	1.528	1.428	1.669	1.898	1.572	1.468	1.102	1.279	1.393	1.724	1.321	1.690	1.092	1.136	1.000	1.155	1.261	1.210	0.998	1.451	1.163	1.390	1.974	3.163	3.013	1.949	1.697	1.703	2.137	2.826	6.486	15.23	36.87	58.32	46.71	16.97	2.430	1.029	0.897	0.999	0.815
290.0	62.29	67.96	69.54	66.05	44.76	37.29	43.09	86.27	250.1	472.7	319.3	321.1	 1284	 4872	9999.9	 7534	237.6	15.94	10.78	8.361	5.647	5.119	3.915	4.156	3.640	3.300	3.120	2.715	2.972	2.835	2.152	2.020	1.787	2.055	1.873	1.827	1.851	1.501	1.753	1.330	1.493	1.479	1.383	1.541	1.564	1.462	1.413	1.662	1.238	1.202	1.260	1.156	1.364	1.200	1.299	1.212	1.221	1.346	1.416	1.863	1.952	2.899	3.081	2.112	1.667	1.619	2.518	4.597	9.553	19.21	31.51	42.75	43.60	29.05	12.68	2.418	1.195
295.0	70.49	85.67	102.7	95.44	70.11	49.08	50.09	75.71	119.8	283.7	668.4	395.8	465.0	 1234	 2982	9999.9	9999.9	308.0	14.49	10.86	7.941	6.726	4.453	4.554	3.791	3.846	3.765	3.092	3.104	2.129	2.352	2.321	2.181	2.068	2.090	1.882	1.921	2.257	1.718	1.447	1.649	1.595	1.241	1.610	1.446	1.056	1.363	1.702	1.289	1.543	1.222	1.211	1.496	1.337	1.207	1.244	1.086	1.458	1.429	1.419	1.715	1.835	2.352	3.498	3.830	2.502	2.115	2.089	3.383	5.365	8.088	11.00	19.02	39.05	60.86	43.36	10.74
300.0	93.55	100.8	111.9	94.61	80.07	58.12	61.06	86.07	112.1	189.0	506.5	746.8	384.5	457.5	786.4	 3865	9999.9	 3272	203.4	13.46	8.810	6.926	5.957	5.719	4.226	3.391	4.780	3.611	3.160	3.022	2.628	3.044	2.194	2.206	2.283	2.009	1.965	1.665	1.818	1.747	1.597	1.689	1.593	1.370	1.713	1.106	1.544	1.592	1.298	1.605	1.103	1.191	1.227	1.722	1.391	1.399	1.301	1.393	1.484	1.300	1.286	1.679	1.825	2.283	3.688	3.979	3.081	1.903	2.259	2.646	2.818	3.408	5.242	11.27	30.25	57.57	58.92
305.0	82.02	109.8	130.2	109.5	78.23	62.66	73.27	92.13	123.7	178.4	328.1	770.1	665.1	331.2	321.9	976.3	 5165	9999.9	 2683	103.9	12.10	7.462	6.878	5.386	5.049	3.554	4.405	3.007	3.399	3.172	3.060	2.993	2.497	2.356	2.136	2.070	2.145	1.959	1.772	1.403	1.418	1.553	1.555	1.280	1.295	1.111	1.863	1.568	1.228	1.270	1.479	1.370	1.407	1.451	1.337	1.405	1.465	1.423	1.439	1.797	1.345	1.631	1.646	2.004	2.677	3.516	4.094	3.480	2.312	1.817	2.199	2.014	2.388	3.410	7.859	19.22	43.04
310.0	92.73	113.1	140.7	129.4	95.78	77.16	83.97	99.03	139.0	194.4	280.7	489.2	777.9	619.9	290.7	338.1	 1266	 5004	9999.9	 6673	172.4	14.44	8.670	5.941	5.213	4.207	4.507	3.610	3.558	3.504	2.863	2.995	2.625	2.202	2.081	1.940	2.371	2.244	1.906	1.644	1.407	1.496	1.117	1.438	1.566	1.544	1.425	1.579	1.461	1.235	1.318	1.521	1.552	1.384	1.265	1.407	1.567	1.313	1.531	1.731	1.433	1.875	1.821	2.226	2.161	2.322	2.985	3.510	3.379	3.077	2.425	1.653	1.847	2.054	2.708	5.180	10.86
315.0	92.79	145.2	185.6	151.1	97.31	86.62	99.71	119.3	159.0	226.0	299.6	417.4	518.3	789.9	556.2	232.7	360.3	 1167	 2995	9999.9	 9239	229.2	12.70	9.457	6.945	4.416	4.538	4.361	2.696	3.993	2.545	2.773	3.142	2.558	2.544	2.259	2.157	1.814	1.677	1.885	1.522	1.445	1.801	1.238	2.152	1.278	1.396	1.622	1.288	1.539	1.203	1.408	1.475	1.226	1.420	1.668	1.667	1.263	1.697	1.936	1.719	1.677	2.056	2.053	1.724	2.184	2.480	2.483	2.991	3.210	3.455	2.474	1.702	1.348	1.609	2.003	3.359
320.0	112.7	187.3	211.3	192.9	119.1	99.11	116.6	134.5	193.0	265.5	337.2	422.2	485.7	613.2	785.4	358.3	178.6	323.7	719.1	 3884	9999.9	 6841	157.1	10.63	7.815	6.590	5.074	4.426	4.158	3.699	3.286	2.955	2.601	2.676	2.245	2.495	2.087	2.335	1.962	1.721	1.441	1.610	1.860	1.301	1.906	1.790	1.602	1.733	1.850	1.500	1.398	1.382	1.430	1.493	1.354	1.517	1.820	1.484	1.644	1.817	1.897	1.861	2.204	2.284	1.930	2.428	2.470	2.658	2.500	2.731	3.523	3.890	3.022	2.146	1.736	1.366	1.646
325.0	129.2	226.8	287.3	256.5	133.8	115.5	132.1	153.8	206.1	296.0	380.3	459.7	523.5	538.9	688.1	594.6	220.1	149.7	213.3	937.7	 5211	9999.9	 2029	90.19	9.661	7.286	5.599	5.458	4.551	3.751	3.770	2.777	3.315	2.714	3.062	2.226	2.104	2.258	1.569	2.013	1.671	1.393	1.796	1.417	1.727	2.124	1.689	2.149	1.909	1.611	1.361	1.515	1.403	1.775	1.396	1.383	1.725	1.832	2.038	1.864	1.927	1.870	2.474	2.250	2.748	2.315	3.138	2.937	2.892	2.720	2.803	2.958	3.858	2.847	2.131	1.366	1.749
330.0	141.3	236.9	335.4	276.6	150.5	135.1	138.3	175.7	226.7	311.7	407.9	483.5	530.8	523.2	511.1	561.8	449.6	179.3	114.4	257.5	 1258	 4983	 9549	 5787	135.1	12.35	7.933	6.538	4.950	4.715	3.715	3.246	3.612	2.829	2.509	2.283	2.195	2.349	1.909	1.857	1.891	1.980	1.739	1.648	1.594	1.844	2.063	2.357	2.176	1.718	1.580	1.635	1.482	1.502	1.620	1.498	1.634	1.947	1.883	1.749	1.812	2.106	2.242	2.318	2.667	2.231	2.678	2.588	2.574	2.770	2.246	2.462	2.866	2.863	3.408	2.629	2.376
335.0	137.5	292.7	375.5	305.3	181.4	148.7	152.2	178.3	244.3	331.7	424.5	492.5	545.9	531.1	469.9	396.0	453.9	399.7	144.2	119.8	329.6	 1152	 2946	9999.9	 8245	186.7	11.14	7.388	6.111	5.019	3.758	3.470	3.184	2.526	2.690	2.657	2.612	2.282	1.830	2.659	1.833	1.937	2.190	1.559	1.816	1.762	2.099	2.298	2.403	1.835	1.783	1.658	1.521	1.692	1.616	1.580	1.660	1.922	1.941	1.696	1.980	2.196	1.942	2.501	2.519	2.453	2.813	2.738	2.624	2.408	2.148	2.071	2.681	2.572	2.329	2.676	3.018
340.0	156.4	292.5	386.3	300.1	213.8	163.9	166.6	185.8	257.4	328.0	424.6	502.3	550.8	520.7	465.7	353.6	324.0	471.0	283.6	109.1	130.6	303.1	699.7	 3990	9999.9	 6041	134.4	9.321	6.982	5.103	4.275	3.803	3.740	3.088	2.842	2.967	2.178	2.182	1.808	2.485	1.628	1.885	1.639	1.738	1.665	1.752	2.166	2.318	2.525	1.863	2.093	1.957	1.766	1.508	1.589	1.591	2.022	1.726	2.251	2.033	1.936	2.626	2.287	2.830	2.362	2.684	2.818	2.480	2.685	2.875	1.758	2.385	2.331	1.914	1.941	1.940	2.709
345.0	152.8	259.7	377.6	283.9	195.3	164.8	180.1	193.8	242.4	319.2	417.5	486.0	531.7	508.2	448.7	342.5	272.2	356.7	421.8	177.7	98.31	124.8	199.5	956.1	 5421	9999.9	 1667	74.50	8.468	6.505	5.645	3.932	3.531	3.664	3.179	3.186	2.273	1.983	2.353	1.688	1.505	1.713	1.684	1.952	2.166	2.218	1.934	2.091	2.489	1.976	1.682	1.784	1.748	1.686	1.810	1.671	1.972	1.876	2.105	1.988	1.970	2.229	2.229	2.487	2.395	2.769	2.452	2.596	2.733	2.714	2.227	2.468	2.488	1.898	1.801	2.174	1.888
350.0	129.2	215.1	328.9	288.1	221.5	179.9	182.2	208.5	254.3	323.9	388.2	452.0	487.2	481.0	420.4	340.3	262.1	242.4	333.6	342.5	173.3	103.6	97.42	255.1	 1319	 5069	 9113	 5206	116.8	11.18	7.162	4.844	4.954	4.023	3.171	3.201	2.266	2.127	1.989	1.885	1.799	1.746	1.619	1.746	1.986	1.837	1.972	1.919	2.052	1.776	1.702	1.700	1.544	1.823	1.902	1.640	1.796	2.018	2.208	1.980	2.072	2.261	2.441	2.267	2.266	2.642	2.250	2.572	2.620	2.447	2.572	2.286	2.412	1.879	1.968	2.042	1.530
355.0	147.8	202.5	287.5	258.5	224.4	196.8	190.2	220.0	265.2	309.8	367.7	425.4	445.2	443.7	407.8	335.4	261.4	222.1	229.9	308.1	333.8	156.4	93.51	115.1	336.5	 1166	 3051	9999.9	 7333	160.1	10.11	7.180	5.377	4.290	3.259	3.553	2.588	2.087	2.182	1.932	2.401	1.708	1.365	1.724	2.046	2.009	1.903	1.947	1.921	1.928	1.813	2.087	1.746	1.916	1.718	2.064	1.919	1.859	2.035	2.039	2.309	2.116	2.308	2.540	2.263	2.654	2.527	2.287	2.382	2.478	1.990	2.408	2.202	1.580	2.025	1.965	1.777
360.0	138.1	201.3	266.2	252.0	219.3	203.0	209.9	231.2	264.2	303.0	356.0	404.1	432.9	421.5	401.4	333.9	272.6	234.2	215.0	236.8	356.2	270.9	120.5	97.04	129.6	304.2	724.9	 4265	9999.9	 5459	110.3	8.558	6.729	4.492	3.439	3.338	2.427	2.442	2.268	1.929	1.831	1.928	1.609	1.524	1.757	1.920	1.816	1.854	1.785	1.720	1.839	1.732	1.703	1.763	1.812	2.038	2.168	1.886	1.933	2.409	2.457	1.920	2.209	2.135	2.550	2.305	2.182	2.403	2.594	2.432	1.689	1.862	2.349	1.820	1.998	1.950	1.642
365.0	110.0	179.4	247.8	240.8	227.5	202.4	225.7	243.5	253.4	301.7	358.7	385.8	417.4	400.8	388.8	343.1	282.1	245.8	224.4	211.5	268.5	362.1	201.2	108.7	96.19	123.1	200.5	 1034	 5662	9999.9	 1477	56.68	7.316	5.243	4.140	3.248	3.160	2.410	2.283	2.184	1.498	2.114	1.569	1.743	1.836	2.034	2.023	2.062	1.970	1.545	1.621	1.719	1.543	2.039	1.847	1.831	2.197	1.929	1.956	2.285	2.384	2.177	2.238	2.245	2.463	2.560	2.202	2.074	2.291	2.256	2.067	2.178	2.300	2.353	1.874	1.955	2.179
370.0	110.1	166.5	227.8	241.0	242.1	222.3	233.3	247.6	269.6	306.0	349.5	379.1	397.1	389.8	375.1	336.8	301.9	264.7	244.3	226.6	227.3	288.4	310.5	191.7	112.9	99.55	96.71	270.3	 1386	 5482	 9277	 4764	92.82	8.200	5.716	3.967	3.316	3.104	2.587	2.456	1.749	2.075	2.046	1.940	1.991	1.770	1.922	1.954	1.860	1.432	1.768	1.821	1.808	1.900	1.744	1.793	2.070	1.836	2.077	2.036	2.233	2.362	2.250	2.430	2.475	2.431	2.277	2.115	2.238	2.207	2.026	2.432	2.562	2.303	2.001	2.222	2.132
375.0	104.4	153.3	204.2	230.4	246.1	241.4	254.0	251.7	267.8	313.3	346.0	356.9	375.2	378.0	362.2	335.1	310.4	284.4	267.9	259.9	241.9	234.1	278.7	317.9	178.2	111.8	89.17	114.7	347.8	 1255	 3350	9999.9	 6387	122.8	7.972	4.846	4.348	3.760	2.721	3.024	2.445	2.108	2.046	1.887	1.847	1.935	2.073	2.174	1.824	1.782	1.756	2.164	1.833	1.841	1.745	1.733	1.930	1.986	1.719	2.268	2.055	2.191	2.130	2.517	2.139	2.157	2.318	2.282	2.073	2.476	2.020	2.316	2.587	2.104	2.374	2.313	1.751
380.0	105.6	129.8	194.5	210.0	244.0	240.8	272.9	257.7	286.7	314.7	348.6	357.6	360.4	377.9	367.9	343.1	316.0	293.0	281.9	266.9	251.3	230.2	234.9	313.4	259.3	141.3	101.5	89.92	129.3	317.3	793.6	 4709	9999.9	 4216	72.74	5.941	5.350	4.076	2.876	2.930	2.591	2.369	1.934	1.504	2.119	2.073	2.025	2.081	1.773	1.678	1.911	2.122	1.824	2.066	1.958	1.963	1.963	2.002	1.913	2.290	2.084	2.067	2.178	2.138	2.348	2.102	2.207	2.369	1.830	2.269	2.149	2.241	2.081	2.133	2.105	2.004	1.944
385.0	93.26	147.5	180.8	208.7	235.5	252.3	277.4	271.2	285.8	307.3	339.7	357.8	362.1	372.0	368.5	340.5	315.8	303.9	293.7	275.4	266.1	240.9	227.6	258.3	315.7	207.0	118.7	93.86	86.56	115.3	211.5	 1157	 6309	9999.9	 1108	25.89	6.002	4.380	3.594	3.049	2.912	2.730	2.053	1.919	2.076	2.237	1.867	1.945	1.618	1.561	1.631	1.830	1.940	2.103	2.085	2.208	2.059	2.339	2.187	2.167	2.340	1.614	2.213	2.310	2.057	2.078	2.179	2.244	2.034	2.067	2.309	2.011	1.677	1.988	2.045	2.235	2.153
390.0	97.95	150.2	183.6	212.7	239.9	261.2	284.6	289.6	299.3	315.9	336.1	347.6	369.7	369.5	359.3	339.2	312.7	305.8	300.0	293.5	273.3	261.5	240.1	230.2	258.4	284.5	187.8	116.4	91.54	85.21	89.88	289.6	 1579	 5508	 8034	 3140	66.33	6.201	4.660	3.583	3.053	2.538	2.364	2.365	1.871	2.009	1.785	2.089	1.673	1.659	1.570	1.988	1.725	1.978	1.859	2.110	2.035	2.414	2.192	2.069	2.323	2.114	2.137	2.268	1.874	2.475	1.984	2.206	2.057	2.216	2.484	2.312	2.045	2.055	2.052	2.047	2.042
395.0	95.35	127.7	175.4	231.8	257.1	265.4	285.8	289.8	313.0	330.8	334.0	345.1	364.6	350.7	352.6	340.5	315.0	313.1	302.7	296.1	284.8	267.2	248.8	231.3	224.9	250.9	274.7	176.6	113.2	91.49	76.25	106.1	379.4	 1257	 3425	 8836	 4368	85.79	6.580	4.517	3.533	3.120	2.708	2.173	2.073	2.165	2.019	2.228	1.885	1.879	1.689	2.034	1.881	1.986	1.869	2.252	2.165	1.979	2.669	1.831	2.299	2.453	2.023	2.226	1.713	2.338	2.008	1.714	2.411	2.006	2.165	2.092	1.938	2.065	1.787	2.188	2.271
400.0	115.6	142.8	172.8	246.6	264.5	283.0	297.6	302.2	313.3	329.0	330.3	337.2	352.1	340.8	360.9	331.6	331.5	312.9	302.1	304.6	294.7	274.4	254.9	245.0	222.2	221.8	268.4	242.5	142.9	104.4	80.86	71.33	118.7	306.6	820.0	 4602	 9026	 1065	49.41	5.619	4.121	3.670	2.700	2.422	2.507	2.110	1.842	2.069	2.467	1.890	1.890	2.043	1.965	1.921	2.032	2.241	2.236	2.575	2.126	1.901	2.420	2.218	2.019	2.358	2.105	2.053	1.911	2.088	1.935	2.329	2.309	2.102	1.916	2.207	1.991	2.355	2.347
405.0	101.5	137.2	182.9	221.8	252.0	283.7	297.4	298.6	319.2	335.4	339.3	345.4	343.6	353.3	352.1	331.0	317.6	311.2	301.4	300.1	287.2	282.6	262.6	250.7	235.0	218.4	226.6	274.0	193.2	117.8	91.83	71.44	68.18	97.92	206.3	 1167	 5670	 7920	880.9	18.12	4.771	4.260	3.560	2.939	2.469	2.213	1.627	2.106	2.024	1.870	1.839	2.021	1.952	1.827	1.753	2.102	2.463	2.006	2.169	2.295	1.969	2.443	1.882	2.296	2.197	1.837	2.093	2.261	1.972	2.453	2.216	1.948	2.050	2.100	1.766	1.754	1.985
410.0	99.27	136.1	173.4	218.5	248.4	279.3	289.9	319.3	315.2	336.6	330.2	343.5	349.0	348.8	340.0	324.4	315.9	298.9	298.1	294.8	286.2	275.4	270.4	250.6	237.5	221.7	207.7	227.8	240.0	178.4	113.7	83.53	66.68	59.33	73.54	281.1	 1441	 4746	 6278	 2427	55.03	5.096	3.755	3.034	2.672	2.294	2.127	2.247	2.102	1.867	1.818	2.059	2.037	1.953	1.924	2.102	2.415	2.407	2.342	2.622	2.188	2.277	2.276	2.080	2.106	2.296	1.920	1.857	1.997	2.006	2.148	2.064	2.057	1.962	1.917	1.876	2.328
415.0	89.39	131.6	179.0	216.5	231.2	280.6	275.6	313.6	317.7	332.0	338.0	338.6	345.4	323.2	337.2	318.6	304.7	293.0	292.0	284.5	283.9	276.5	270.0	250.6	238.7	229.8	212.2	200.8	212.7	231.0	162.4	97.11	73.68	60.16	50.37	86.79	340.4	 1079	 2752	 7001	 3358	72.51	5.010	3.636	3.327	2.214	2.580	2.107	2.090	1.826	1.862	2.536	2.234	1.958	2.136	2.331	2.576	2.533	2.066	2.597	2.079	2.509	2.129	2.156	1.947	1.926	2.275	1.873	1.745	1.905	2.132	2.526	2.233	2.093	1.792	2.254	2.083
420.0	91.22	126.9	172.1	198.4	228.2	281.7	281.6	309.2	330.3	332.3	345.8	340.1	335.2	318.2	322.3	304.5	290.1	282.0	281.9	282.2	281.2	265.9	261.9	249.4	237.8	224.2	211.2	198.8	188.1	222.8	207.7	117.8	81.07	65.56	49.71	48.27	96.79	256.6	662.4	 3814	 7149	946.2	36.01	4.470	3.590	2.742	2.690	2.176	2.025	1.834	1.732	2.064	2.018	2.053	1.945	2.438	1.991	2.456	2.184	2.653	2.054	2.425	2.267	1.942	2.175	2.228	2.193	2.158	1.688	2.263	1.938	2.267	2.115	1.836	2.163	2.207	2.214
425.0	96.60	116.2	169.6	190.3	227.7	265.9	287.1	299.9	318.5	344.5	331.8	347.3	332.1	306.5	311.9	295.6	283.6	278.6	276.9	271.1	272.7	261.3	259.3	246.1	235.5	226.5	215.9	196.8	184.8	192.7	220.0	155.6	94.85	70.14	52.10	41.98	46.68	76.10	163.1	982.0	 4640	 6038	732.9	11.07	4.444	3.360	3.504	2.223	2.069	1.764	1.809	2.239	1.751	2.161	1.847	2.688	2.196	2.309	2.773	2.426	2.259	2.414	2.372	1.885	2.243	2.352	1.971	2.038	2.006	1.760	2.273	2.029	2.157	2.121	2.108	2.104	2.402
430.0	128.2	112.9	165.1	194.0	226.3	258.9	268.1	297.3	311.8	334.3	337.7	342.0	327.1	317.8	302.2	286.4	271.3	266.7	266.7	265.8	263.2	250.3	252.3	238.1	236.6	225.6	217.1	200.3	189.1	177.0	187.6	188.5	130.3	83.62	60.65	47.95	40.23	40.27	54.46	234.2	 1186	 3660	 5065	 1891	46.09	4.379	3.566	2.825	2.541	1.923	1.682	2.280	1.836	2.275	1.991	2.686	2.112	2.150	2.453	2.291	2.469	2.356	2.054	2.200	2.079	2.179	2.000	2.048	2.100	2.038	2.040	1.839	2.373	2.012	2.009	2.004	2.083
435.0	233.8	126.9	156.6	201.2	213.4	245.1	276.7	305.9	323.0	340.5	339.4	331.1	324.5	311.2	287.7	276.6	264.6	262.5	256.3	247.4	248.5	250.0	241.9	236.9	229.6	222.5	209.3	197.6	195.1	181.4	169.6	167.8	170.7	114.8	71.42	56.78	45.67	37.23	33.93	69.66	278.1	834.8	 2396	 5920	 2715	59.19	4.567	3.327	2.682	2.192	1.940	2.363	1.731	2.129	2.269	2.381	2.329	2.662	2.168	2.006	2.403	2.668	2.464	2.392	2.178	2.334	2.106	2.289	2.412	1.593	1.915	1.982	1.950	1.950	1.577	1.663	1.920
440.0	281.2	200.9	136.2	179.4	214.5	241.4	262.9	298.5	324.1	335.8	347.7	339.9	324.0	307.4	283.0	268.5	250.4	258.7	249.0	245.9	239.2	237.7	234.7	231.8	232.4	218.0	211.6	204.0	193.9	182.3	165.5	149.9	165.7	142.5	86.58	61.94	50.10	38.71	31.20	35.42	77.20	199.3	583.2	 3395	 6260	820.5	30.34	4.458	3.307	2.446	2.421	2.113	2.018	2.454	2.051	2.268	2.151	2.439	2.198	2.158	2.076	2.276	2.209	1.989	2.171	1.882	2.106	1.882	1.947	1.678	1.952	1.849	1.812	1.669	2.188	2.107	2.179
445.0	277.3	365.8	140.7	184.2	206.7	237.8	258.1	296.0	307.5	334.0	329.0	336.7	316.9	296.9	285.8	260.1	241.6	244.3	240.8	237.8	231.9	226.7	228.2	225.7	223.3	214.1	210.0	198.4	192.0	182.0	166.4	143.3	145.6	154.8	109.1	72.73	53.89	42.69	34.94	29.88	33.83	57.64	142.8	887.1	 4345	 5463	605.2	10.81	3.683	2.620	2.623	2.147	2.138	2.323	2.008	2.087	2.208	2.906	2.121	2.115	1.852	2.206	2.367	2.247	2.201	2.076	2.142	2.315	1.771	1.933	1.676	2.000	1.711	1.680	1.692	1.747	2.245
450.0	156.8	519.3	329.6	177.2	219.0	235.1	258.4	280.9	297.8	318.8	323.8	328.9	303.2	292.3	271.7	247.0	231.8	229.7	224.9	220.6	225.2	216.9	213.8	214.6	208.1	206.7	199.9	192.3	185.7	175.0	160.5	145.2	131.6	130.4	131.1	96.59	62.05	49.48	38.73	33.25	28.32	29.22	44.32	209.8	 1127	 3583	 4861	 1828	38.23	3.619	2.739	2.541	2.679	2.370	2.087	2.027	2.634	2.761	2.127	2.641	2.065	2.330	2.179	2.112	2.108	2.047	2.020	2.306	1.796	1.922	1.955	1.704	1.956	1.833	1.705	1.595	2.085
455.0	97.42	362.4	708.3	236.1	210.8	228.7	234.4	273.1	296.7	303.9	310.2	311.5	286.4	280.0	259.3	230.2	218.1	210.3	209.2	208.7	208.2	197.8	198.2	193.6	190.2	191.4	189.8	182.9	178.8	171.5	158.8	144.6	126.3	116.7	118.1	117.2	81.87	53.85	43.68	34.56	28.66	25.77	25.54	58.61	260.9	818.7	 2276	 5701	 2337	42.06	3.520	3.253	2.640	2.668	2.277	2.122	2.396	2.824	2.141	2.351	2.384	2.349	1.814	2.073	2.194	2.214	2.220	2.021	1.935	2.003	1.669	1.642	1.892	1.754	1.879	1.616	1.887
460.0	83.36	189.5	857.5	479.7	208.7	222.6	223.9	249.8	289.5	298.5	287.2	291.2	285.5	269.2	243.6	220.7	209.3	195.2	201.8	194.3	190.5	186.9	185.9	185.1	184.2	177.4	180.9	175.4	171.3	167.3	153.9	140.4	127.1	109.4	101.9	111.4	97.66	61.11	46.09	36.37	29.81	26.22	20.69	25.39	68.92	192.3	551.4	 3292	 5545	600.0	22.19	3.967	3.263	2.751	2.621	2.458	2.172	2.503	1.896	2.241	2.243	1.890	2.396	2.081	2.059	2.062	2.129	1.865	1.920	2.072	1.679	2.004	2.307	1.755	1.867	2.211	1.903
465.0	71.40	130.5	702.2	858.9	206.8	224.8	219.2	242.8	274.3	278.9	275.4	280.4	272.9	252.4	236.3	209.8	199.7	185.0	190.0	181.5	177.7	176.6	171.8	175.5	170.1	169.3	172.4	167.9	162.9	156.9	149.8	135.9	121.9	104.9	93.82	93.50	102.1	75.10	48.93	36.88	32.09	26.66	21.79	19.68	27.00	53.13	131.6	857.4	 3950	 4428	486.7	8.420	3.432	3.132	2.841	2.761	2.450	2.247	2.509	2.437	2.196	1.938	1.768	2.305	2.085	2.140	2.315	1.857	1.961	1.670	1.888	1.873	2.105	1.813	1.605	1.864	1.744
470.0	75.40	100.3	317.4	 1105	540.5	195.7	210.9	228.3	246.3	275.4	264.7	254.9	254.1	233.8	215.9	194.6	182.9	174.9	172.0	163.9	164.0	162.8	154.2	158.8	154.5	152.7	154.0	154.5	146.6	144.1	137.7	128.9	114.5	99.60	88.22	79.98	82.32	81.49	60.73	40.62	32.41	27.83	22.91	19.01	17.98	22.94	38.51	199.7	 1026	 3019	 3618	 1306	34.38	3.813	3.169	3.047	2.867	2.508	2.295	2.301	2.127	1.872	2.048	1.915	2.094	1.982	2.008	2.124	1.797	1.769	1.773	1.806	1.603	1.668	1.770	1.742	1.903
475.0	73.17	90.19	158.8	654.8	 1274	251.7	198.7	215.7	236.7	249.6	239.0	240.9	240.5	208.7	205.4	181.2	167.0	159.5	150.7	146.8	151.8	144.4	138.9	139.0	138.4	139.5	139.7	136.1	134.4	135.0	128.9	117.4	106.7	93.84	85.12	74.57	67.58	71.00	71.51	49.20	36.07	29.46	24.09	19.74	17.28	16.08	18.51	52.21	234.9	687.4	 1745	 3896	708.6	44.06	3.512	3.106	2.957	2.586	2.166	1.881	2.069	2.330	2.011	2.084	1.887	2.211	2.041	1.871	1.867	1.900	1.663	1.846	1.650	1.640	1.980	1.624	1.600
480.0	72.29	108.0	117.7	292.0	 1419	611.8	188.4	200.6	220.0	219.4	240.8	231.0	228.9	201.8	180.3	175.2	156.3	145.0	138.1	133.9	140.0	130.9	128.9	124.7	131.1	128.8	129.8	129.6	130.2	124.2	120.5	111.8	102.6	87.22	82.65	69.63	62.65	62.07	68.92	58.96	39.02	30.26	24.15	20.80	17.92	15.40	14.37	20.12	59.43	159.0	425.3	 2233	 3699	644.9	18.61	3.015	2.721	2.338	2.802	2.030	1.946	1.982	2.078	2.092	1.863	1.714	1.892	1.826	1.587	2.043	1.756	1.750	1.735	1.431	1.785	1.591	1.423
485.0	69.96	100.9	111.8	156.4	 1032	 1208	203.1	192.4	212.3	216.9	226.6	224.4	212.8	195.8	172.3	163.9	145.5	136.3	132.8	130.8	125.6	122.2	117.7	118.7	121.3	121.7	117.2	118.6	121.1	119.7	114.6	106.8	97.41	86.15	78.91	68.53	59.78	55.40	59.18	63.76	46.65	31.76	24.56	21.45	18.15	15.05	15.34	13.85	19.71	42.23	100.8	586.5	 2704	 3442	460.3	6.857	2.610	2.836	2.356	2.104	2.164	2.347	2.073	1.966	1.758	2.128	1.586	1.807	1.721	1.564	1.441	1.410	1.625	1.373	1.832	1.828	1.395
490.0	70.66	93.87	121.4	117.8	407.2	 1522	732.7	183.2	192.0	202.0	210.4	203.8	197.4	177.3	164.6	147.0	134.6	127.2	123.7	118.3	113.6	114.5	111.0	109.5	110.8	110.5	109.1	108.2	111.3	108.4	105.3	100.1	89.18	81.76	74.70	66.11	58.08	52.83	50.27	52.97	53.31	39.27	26.57	21.76	19.61	16.30	14.50	12.84	12.49	16.48	28.71	136.4	696.4	 2146	 3063	 1187	35.78	3.433	2.759	2.689	2.338	2.277	1.979	1.941	1.770	1.804	1.903	1.854	1.712	1.603	1.611	1.454	1.734	1.368	1.555	1.525	1.238
495.0	75.67	73.50	125.9	100.6	187.6	839.5	 1704	297.0	169.5	187.8	190.8	192.2	182.0	162.1	153.0	134.8	122.4	115.1	115.4	106.9	101.5	101.9	95.85	100.8	101.2	97.47	99.27	96.57	97.55	95.66	94.80	92.21	81.06	76.61	67.88	60.06	56.00	48.36	44.41	42.86	45.88	46.08	32.19	22.30	19.76	17.00	14.72	12.90	11.38	10.56	12.85	36.04	159.9	488.3	 1446	 3644	764.3	43.71	3.594	2.923	2.308	2.322	2.062	1.702	1.932	1.682	1.730	1.323	1.820	1.170	1.477	1.638	1.790	1.316	1.647	1.519	1.664
500.0	81.45	59.81	117.5	99.94	124.2	331.5	 1813	821.6	156.3	176.4	180.4	172.4	168.1	157.6	142.0	131.1	117.1	107.2	105.4	98.82	92.77	92.05	90.71	87.94	92.27	88.18	92.62	88.41	91.44	87.98	85.04	84.56	74.44	71.37	63.73	58.24	52.36	47.51	43.33	40.03	37.13	42.44	36.03	24.16	19.84	17.37	14.38	12.61	11.53	9.479	8.783	13.71	40.59	113.1	348.1	 2024	 3608	652.9	17.97	2.896	2.270	2.261	2.023	1.899	1.527	1.670	1.774	1.623	1.852	1.356	1.552	1.430	1.437	1.325	1.643	1.368	1.603
505.0	77.39	58.44	93.48	115.3	113.0	163.1	 1189	 1593	224.5	174.0	156.9	160.8	158.5	146.3	129.0	114.7	106.6	102.3	96.50	92.80	87.99	84.60	86.04	81.66	83.76	80.24	83.22	83.18	84.19	81.95	78.93	77.55	73.51	65.50	60.40	54.64	49.99	44.19	40.18	36.51	33.13	36.01	39.54	27.99	20.26	16.84	15.03	13.13	11.72	10.34	8.143	8.658	14.03	29.47	82.89	520.2	 2572	 3306	102.7	6.071	2.436	2.301	1.781	1.816	1.817	1.589	1.615	1.594	1.616	1.309	1.490	1.337	1.581	1.611	1.502	1.250	1.450
510.0	61.62	59.67	74.65	112.9	108.5	110.9	428.3	 1889	954.2	153.7	149.0	151.5	140.4	126.7	117.0	107.3	94.45	88.71	84.77	82.82	77.46	76.05	76.37	72.40	73.45	73.77	75.05	75.13	73.32	73.09	72.60	69.04	64.82	59.20	54.84	49.20	45.27	42.31	35.78	32.91	30.13	28.32	32.10	31.86	23.94	16.74	14.07	13.07	11.77	9.691	8.196	7.625	8.083	11.13	22.50	120.6	659.0	 2018	 2578	996.6	33.83	2.431	2.264	1.936	2.135	1.799	1.795	1.579	1.806	1.413	1.231	1.232	1.330	1.578	1.271	1.391	1.360
515.0	48.82	56.07	55.48	92.99	106.6	102.1	178.5	908.4	 2267	377.0	126.0	135.0	126.2	113.7	101.8	96.04	86.38	83.51	75.15	71.03	69.88	67.10	66.47	62.08	66.05	64.70	63.82	64.33	63.50	64.92	61.77	60.37	58.40	50.66	48.01	44.84	40.36	38.84	32.30	30.18	27.42	25.28	25.24	26.70	28.38	19.97	13.93	13.14	10.57	9.373	8.388	6.973	6.962	6.977	8.859	30.30	150.6	457.7	 1169	 2977	734.1	36.36	2.460	1.909	1.973	1.870	1.657	1.677	1.410	1.295	1.301	1.067	1.141	1.632	1.095	1.342	1.334
520.0	56.16	56.84	60.06	77.12	135.9	104.3	111.6	327.8	 2286	 1052	128.9	128.3	123.3	103.8	98.32	88.88	77.52	75.16	68.50	66.19	60.82	60.18	58.10	59.67	61.81	58.71	56.78	57.44	57.09	59.79	55.96	55.29	52.22	46.96	44.35	40.38	37.71	34.02	31.10	27.37	25.04	23.20	20.49	22.25	25.71	23.89	15.26	12.76	10.37	9.567	8.126	7.392	6.575	5.860	6.025	10.69	37.07	105.7	281.3	 1621	 2780	593.3	14.12	2.609	1.891	1.504	1.617	1.948	1.581	1.254	1.251	1.224	1.286	1.355	1.141	1.281	1.520
525.0	50.42	64.07	56.98	68.59	121.6	103.4	88.77	145.7	 1343	 2179	205.0	113.2	109.6	95.08	82.43	79.50	68.45	67.74	64.39	60.16	55.39	53.22	54.73	53.26	52.13	52.72	52.34	53.81	52.89	54.07	52.26	51.17	49.10	43.70	40.05	38.01	33.84	31.21	29.20	25.87	23.85	21.38	18.89	18.14	21.15	23.89	18.06	11.89	10.68	9.687	7.530	7.481	6.705	6.026	5.333	6.891	11.52	26.97	66.08	412.1	 1878	 2444	99.52	4.809	1.503	1.880	1.506	1.614	1.668	1.600	1.424	1.423	1.381	1.145	1.018	1.107	1.220
530.0	50.85	64.86	54.87	60.48	81.98	121.2	85.60	94.16	436.4	 2210	 1222	116.7	95.79	88.12	80.94	69.43	61.84	60.05	56.18	51.78	50.20	48.21	47.12	45.98	46.68	45.39	46.49	47.12	46.61	46.10	46.80	44.46	43.04	38.25	35.49	33.29	30.64	27.73	25.64	22.99	21.48	19.82	17.09	15.84	16.74	19.92	20.63	14.59	10.64	8.518	7.131	6.986	6.241	5.684	5.356	5.227	6.106	9.198	17.71	95.13	474.8	 1441	 1850	426.0	29.08	2.020	1.863	1.568	1.623	1.438	1.533	1.308	1.136	1.380	1.184	1.138	1.253
535.0	52.18	61.88	58.99	54.92	63.46	104.5	96.11	83.13	163.6	885.5	 2581	404.7	85.50	78.92	69.70	62.66	57.49	53.90	49.85	46.52	43.85	45.73	39.23	40.98	39.55	38.94	39.24	41.86	40.24	40.12	40.38	38.49	37.51	33.15	30.92	29.45	25.55	25.33	22.48	19.84	18.77	17.87	15.61	15.12	13.58	14.86	17.65	18.30	12.33	8.440	7.236	6.118	5.793	5.505	5.650	4.476	5.002	5.053	6.601	23.53	108.9	325.4	802.9	 2038	678.4	25.95	2.208	1.995	1.497	1.560	1.529	1.240	1.182	1.335	1.330	1.543	1.175
540.0	42.48	47.68	60.25	52.19	63.95	71.04	115.9	77.18	97.64	278.5	 2330	 1012	82.12	66.98	59.98	54.14	49.74	45.91	43.25	42.28	39.72	38.25	36.40	35.72	34.07	35.66	34.58	34.99	35.62	35.38	34.82	34.03	34.01	29.79	27.63	26.81	23.86	21.93	19.86	18.36	18.51	17.07	14.38	13.27	13.66	12.27	13.83	17.55	13.22	8.840	6.898	6.289	5.374	5.277	4.585	4.495	4.480	3.791	4.666	8.271	26.84	74.87	191.5	 1097	 2093	493.3	8.807	1.706	1.527	1.546	1.443	1.460	1.078	1.066	1.368	1.171	1.139
545.0	35.72	41.48	54.15	52.45	48.79	57.14	112.1	79.73	68.37	126.6	 1228	 2393	193.2	63.78	56.03	51.56	45.97	39.82	40.23	40.39	36.06	33.15	32.98	30.80	31.51	32.03	30.45	32.03	31.86	32.05	30.99	31.17	28.92	26.19	25.17	22.85	22.39	19.88	18.67	16.97	16.35	14.25	14.60	12.14	11.35	10.91	10.13	13.68	13.79	10.32	6.841	6.263	5.069	4.949	3.926	4.028	4.300	3.703	3.874	4.968	8.703	19.35	45.26	279.0	 1421	 1702	92.91	2.835	1.821	1.563	1.581	1.295	1.312	1.240	1.358	1.143	0.947
550.0	45.25	39.76	50.58	53.78	49.38	52.06	81.73	93.87	66.45	76.33	371.9	 2182	 1272	70.36	50.65	45.40	40.79	37.23	34.12	31.45	30.88	28.36	29.61	26.92	27.36	27.67	26.08	27.09	25.47	26.09	26.17	25.41	24.27	22.10	21.41	19.69	18.87	17.18	16.44	15.29	14.09	12.66	12.01	10.57	9.942	9.704	9.312	10.29	11.72	10.87	7.812	5.606	4.395	4.199	3.880	3.443	3.890	3.887	3.593	3.760	4.125	6.493	12.15	64.43	360.4	 1040	 1047	373.1	20.11	1.752	1.439	1.316	1.315	1.109	1.455	1.176	1.230
555.0	53.18	33.95	40.67	41.82	44.93	47.05	49.47	101.5	77.86	57.06	131.4	757.8	 2555	369.4	44.26	39.29	33.86	31.87	28.28	24.97	25.80	24.87	24.63	24.16	22.45	22.55	22.13	21.63	22.66	22.73	23.42	22.12	20.80	18.22	17.71	16.14	16.82	14.83	13.65	13.22	11.60	10.12	9.789	8.938	8.436	7.831	8.461	7.656	7.464	10.07	8.390	5.956	4.218	3.995	3.248	3.090	3.905	3.833	3.804	3.133	3.154	3.438	4.678	16.17	82.07	235.8	530.0	 1365	511.0	12.33	1.539	1.330	1.168	1.191	1.426	1.288	0.771
560.0	34.30	38.07	44.35	37.45	45.05	38.86	45.58	79.36	83.46	47.90	68.60	223.9	 2128	 1292	39.89	33.30	29.49	28.28	24.47	24.48	22.04	19.81	20.65	20.68	19.41	19.93	18.65	19.16	19.68	18.57	18.22	19.91	17.23	17.04	14.58	14.58	13.58	12.58	10.88	11.57	10.12	9.648	7.901	7.825	7.700	7.841	7.636	6.686	6.360	7.237	8.458	6.432	4.403	3.460	3.738	3.556	3.489	3.155	3.386	3.101	2.611	2.540	2.871	5.103	19.92	54.29	128.5	779.6	 1280	99.56	3.655	1.720	1.369	1.238	1.620	1.508	1.165
565.0	43.94	40.23	41.03	27.32	35.39	33.60	37.50	62.63	97.62	48.52	46.15	83.40	999.1	 2346	138.4	29.53	25.22	21.34	21.96	20.56	19.27	17.68	19.07	18.57	17.46	16.40	17.57	15.72	15.88	16.45	15.93	15.98	14.80	14.07	13.65	12.05	11.42	10.55	9.976	10.63	8.800	8.244	6.130	7.503	7.353	6.881	6.487	5.806	5.410	5.220	6.858	6.209	4.256	3.121	3.146	2.959	2.937	2.823	2.847	2.792	2.326	2.198	2.086	2.832	5.749	13.76	30.43	202.7	924.2	801.4	73.30	2.036	1.566	1.588	1.521	1.546	1.192
570.0	37.28	39.05	37.85	41.46	32.90	34.66	33.44	38.56	91.64	67.35	43.72	53.50	280.6	 1952	 1076	35.20	20.45	19.64	18.81	17.76	16.46	15.49	14.41	14.53	13.70	13.71	14.56	12.98	12.81	13.01	13.93	13.62	12.60	11.77	11.42	10.03	9.533	9.034	8.332	8.455	7.055	6.477	6.351	6.264	5.928	5.434	4.951	4.893	4.699	4.176	4.914	5.308	4.981	3.648	2.731	2.988	2.804	2.375	2.568	2.597	2.394	2.226	1.971	2.322	2.475	4.328	8.339	46.82	240.6	615.9	726.4	239.8	9.804	1.462	1.366	1.281	1.205
575.0	36.07	35.32	36.99	33.80	31.04	35.78	33.89	30.98	57.18	83.10	42.45	43.35	92.84	629.7	 2144	276.6	17.73	18.90	15.23	15.09	15.60	12.01	12.22	12.57	11.29	12.46	11.17	11.34	10.79	10.57	10.87	10.94	10.53	9.758	8.821	8.679	7.752	8.142	7.004	6.971	6.093	5.322	5.696	5.571	4.893	4.215	4.666	3.753	3.662	3.980	3.600	4.035	4.308	4.318	3.069	2.443	2.361	2.311	2.193	2.001	1.774	2.340	2.035	1.744	1.728	2.189	2.892	11.94	54.90	140.7	366.5	806.7	101.8	6.379	1.305	1.092	1.158
580.0	42.03	39.21	37.95	32.27	32.27	32.05	30.83	22.88	40.84	96.47	52.81	38.04	49.85	175.1	 1757	 1051	18.65	16.80	13.38	12.65	11.87	10.71	10.78	11.97	9.767	11.03	9.433	10.27	9.729	9.091	9.993	9.649	8.873	8.748	7.928	7.465	7.818	6.988	6.053	6.210	5.970	4.859	5.117	4.782	4.057	3.626	3.724	3.361	3.325	3.111	3.062	3.571	3.588	4.265	3.691	2.584	2.417	2.291	2.044	1.837	1.695	2.115	1.880	1.576	1.553	1.769	1.902	3.787	13.28	32.96	91.17	487.8	681.3	83.91	2.348	1.313	1.116
585.0	29.69	46.09	31.76	34.24	26.95	28.96	29.55	29.58	30.43	75.83	79.02	35.38	37.79	67.84	811.9	 1888	94.70	13.61	13.29	11.06	10.30	10.46	9.447	10.29	9.167	9.660	8.891	9.212	8.728	8.565	9.254	8.557	7.820	6.645	7.498	7.270	6.460	6.188	5.249	5.635	4.350	4.541	4.031	3.886	3.016	3.593	3.295	3.038	3.133	2.614	2.819	2.445	3.072	3.659	3.650	2.796	2.410	1.760	1.974	1.740	1.667	1.905	1.668	1.721	1.697	1.745	1.609	2.026	3.824	8.536	21.50	131.3	550.3	545.4	57.41	1.812	1.083
590.0	35.80	45.32	34.09	32.37	26.48	27.99	26.65	28.94	26.28	51.86	90.96	46.84	34.12	38.36	218.8	 1538	779.6	19.79	11.42	10.58	9.646	9.839	8.738	7.840	7.961	7.738	7.660	7.999	7.908	6.967	7.170	6.840	6.686	5.933	5.822	5.500	5.283	4.599	4.391	4.491	4.023	4.044	3.464	3.442	3.027	3.145	2.800	2.757	2.782	2.511	2.190	2.349	2.308	2.726	3.110	2.885	2.349	1.967	1.802	1.865	1.580	1.697	1.697	1.776	1.696	1.633	1.734	1.390	2.060	2.911	5.933	30.41	147.0	394.7	439.6	65.32	5.664
595.0	42.70	33.97	34.73	32.19	29.68	23.48	23.43	22.44	22.62	34.04	78.87	64.34	37.21	30.61	68.80	494.3	 1560	176.7	11.15	10.01	6.968	8.069	7.340	7.355	7.215	6.047	6.196	6.314	5.933	5.872	6.682	5.419	5.871	5.684	5.137	4.727	4.694	4.834	4.247	3.725	3.658	3.133	2.961	2.776	3.028	2.511	2.556	2.648	2.591	2.095	1.843	2.119	2.240	1.842	2.444	3.190	2.568	1.799	1.558	1.932	1.518	1.419	1.396	1.652	1.531	1.646	1.468	1.265	1.649	1.458	2.452	7.506	34.22	90.31	238.0	468.3	93.71
600.0	42.55	48.61	30.81	37.37	27.52	25.30	20.50	24.15	23.26	24.45	50.02	77.61	41.33	30.00	31.09	132.2	 1272	692.5	10.60	7.571	7.709	8.300	7.382	7.259	6.684	6.404	5.658	6.924	5.604	4.422	4.993	5.394	5.124	4.965	3.978	4.015	4.601	3.769	3.960	4.012	3.515	3.581	2.692	2.368	2.685	2.483	2.518	2.075	2.441	2.036	1.904	1.536	1.679	1.748	1.586	2.451	2.423	2.087	1.378	1.809	1.224	1.481	1.529	1.654	1.507	1.739	1.442	1.266	1.460	1.324	1.687	2.636	8.620	21.02	60.72	307.9	408.6
605.0	47.88	48.76	39.97	25.68	26.33	27.55	19.14	23.14	23.40	24.31	38.05	81.87	46.10	27.07	22.04	42.91	597.1	 1283	57.49	8.509	8.250	7.404	6.644	6.493	5.848	5.882	4.604	5.361	5.401	4.916	5.081	4.545	4.081	4.275	3.775	3.425	3.772	3.643	3.469	3.062	2.981	3.398	2.449	2.176	2.664	3.011	2.389	2.101	1.939	1.787	1.881	1.558	1.287	1.622	1.366	2.076	2.270	2.184	1.837	1.675	1.066	1.238	1.342	1.523	1.484	1.388	1.673	1.292	1.689	1.437	1.269	1.165	2.646	5.673	14.41	86.11	344.1
610.0	41.38	40.94	43.55	25.25	22.67	24.84	22.98	22.43	20.79	26.02	33.32	56.51	63.03	28.06	20.55	19.71	159.2	 1093	543.2	11.20	7.474	6.407	5.298	5.054	4.939	5.509	4.115	4.159	4.930	4.848	4.817	3.998	3.891	3.526	3.602	3.371	3.263	3.269	3.344	2.678	2.613	2.646	2.349	2.449	2.384	2.151	1.898	1.897	1.937	1.508	1.448	1.337	1.270	1.603	1.414	1.732	1.874	2.162	2.066	1.515	1.223	1.443	1.274	1.355	1.187	1.099	1.709	1.411	1.530	1.227	1.084	1.133	1.318	2.043	4.153	20.22	95.38
615.0	48.32	43.50	41.74	40.76	20.38	21.56	25.56	17.70	23.20	23.10	27.30	39.99	77.43	42.91	21.25	17.39	45.38	363.3	 1134	120.6	6.865	4.536	5.983	5.615	5.359	4.818	3.787	3.526	3.973	4.474	4.264	3.965	4.298	3.184	3.652	3.557	3.000	3.051	2.843	2.865	2.288	2.803	2.290	1.929	1.995	1.885	1.818	1.799	1.783	1.398	1.269	1.139	1.112	1.545	1.658	1.549	1.459	1.510	2.036	1.509	1.306	1.212	1.352	1.373	1.109	1.344	1.401	1.349	1.549	1.229	1.130	0.865	1.173	1.245	1.571	5.289	22.19
620.0	49.71	34.51	35.69	33.39	26.74	24.67	22.71	20.28	23.35	25.49	27.87	32.82	59.40	50.11	21.09	14.62	19.20	94.29	975.7	352.2	7.761	5.135	6.264	5.161	5.086	4.172	4.298	3.808	4.509	4.133	3.758	3.294	3.423	2.987	3.233	3.109	3.247	2.485	2.696	2.978	2.341	2.286	2.173	1.819	1.624	2.049	1.494	1.423	1.456	1.664	1.198	1.216	1.121	1.198	1.416	1.250	1.377	1.466	1.773	1.450	1.536	0.992	1.018	1.439	1.012	1.052	1.316	0.943	1.273	1.198	1.139	1.227	0.901	0.969	1.186	2.005	5.894
625.0	45.70	48.02	30.06	28.90	22.71	27.29	20.45	23.39	20.47	21.61	26.45	31.83	47.39	59.01	25.33	14.71	13.61	28.11	475.0	930.0	35.98	5.909	4.962	4.157	4.093	4.281	3.709	3.398	4.241	3.689	3.426	3.175	2.840	2.643	3.726	2.876	2.797	2.573	2.031	2.443	2.177	2.036	2.068	1.931	1.669	1.455	1.936	1.655	1.262	1.288	1.393	1.340	1.321	1.043	1.092	1.195	1.262	1.520	1.498	1.955	1.535	0.814	1.080	1.043	1.258	1.193	1.278	0.987	1.268	1.197	1.233	1.008	1.091	1.312	0.811	0.971	2.110
630.0	38.76	36.34	36.42	26.69	21.19	25.19	19.79	19.60	20.26	21.12	26.97	30.62	32.53	54.05	32.39	15.04	11.72	12.76	126.5	869.5	414.0	7.272	4.984	4.521	3.652	3.743	3.570	3.540	3.247	3.478	3.519	3.001	3.384	2.635	3.070	2.810	2.619	2.558	2.169	2.266	2.047	1.583	2.064	1.587	1.884	1.221	1.582	1.337	0.977	1.045	1.211	1.219	1.114	1.257	1.130	1.224	1.214	1.344	1.235	1.944	1.603	1.168	1.069	0.926	1.142	1.195	1.081	1.236	1.140	1.308	1.361	1.215	1.034	1.193	0.848	1.015	1.233
635.0	39.16	41.76	40.11	32.60	22.72	22.46	24.22	18.41	24.11	21.16	21.95	29.53	28.51	36.83	47.44	15.41	12.37	10.03	32.91	306.0	905.7	83.67	4.735	4.236	3.029	3.037	3.138	3.258	3.833	3.339	2.960	2.897	3.804	3.745	3.061	2.795	2.719	2.821	2.430	2.018	1.853	1.729	1.590	1.837	1.846	1.297	1.485	1.325	1.008	1.051	1.218	1.127	0.813	0.955	0.938	1.125	1.016	1.150	1.078	1.518	1.615	1.160	1.112	1.041	1.268	1.089	1.072	1.289	1.240	1.184	1.153	1.225	1.117	1.183	1.014	0.936	1.313
640.0	33.08	45.48	43.99	27.46	21.83	24.65	25.29	21.58	24.05	21.76	24.69	32.88	27.18	32.32	47.78	19.44	10.91	8.188	13.18	80.04	821.7	288.6	4.866	4.025	3.705	2.941	3.310	3.150	3.741	3.558	3.979	2.905	3.470	3.535	3.787	3.380	3.586	2.895	2.049	1.872	1.623	1.578	1.506	1.734	1.721	1.577	1.603	1.117	1.125	1.139	1.047	1.153	1.059	1.100	0.970	1.300	1.151	1.036	1.336	1.156	1.266	1.376	1.256	1.071	1.033	1.119	1.162	1.170	1.595	1.246	1.146	1.242	0.962	1.116	1.077	1.137	1.255
645.0	42.87	52.34	35.97	29.60	23.68	22.70	17.46	17.27	21.82	22.26	24.22	31.34	29.24	30.95	40.61	29.04	11.02	9.840	8.168	22.80	422.5	737.6	21.34	4.296	3.688	3.826	3.503	3.929	3.366	3.497	3.771	3.388	3.911	3.915	4.236	3.890	3.773	3.181	2.267	1.947	1.556	2.118	1.582	1.654	1.769	1.520	1.307	1.253	1.060	1.423	0.981	1.052	0.959	1.066	1.046	1.368	1.217	0.988	1.272	0.997	1.173	1.506	1.473	0.977	1.359	1.208	0.991	1.242	1.175	1.619	0.976	1.111	1.145	1.347	1.037	1.213	1.292
650.0	51.56	42.12	44.87	29.22	24.18	19.69	19.89	19.19	19.79	23.32	22.48	27.19	29.43	28.46	36.53	35.52	12.44	8.021	7.166	9.033	129.7	873.8	159.2	4.626	3.806	3.735	3.280	2.797	3.047	3.100	4.327	3.611	4.353	4.474	4.295	5.231	4.702	4.512	3.430	2.113	1.813	2.020	1.540	1.751	1.840	1.249	0.934	1.250	1.092	1.028	1.031	0.926	1.128	1.196	1.330	1.335	1.086	1.242	1.153	0.898	1.234	1.248	1.298	0.907	1.104	1.173	0.771	1.273	0.999	1.024	1.134	0.967	1.072	1.286	0.887	1.317	1.050
