Sample:	'1
File name:	T20250316.FD3
Run date:	'14:14:32, 03/14/2025
Operator:	Administrator
Comment:	'

Instrument
Model:	F-2700 FL Spectrophotometer
Serial number:	23B8-004
ROM Version:	4J14000 07

Instrument parameters
Measurement type:	3-D scan
Data mode:	Fluorescence
EX  Start WL:	220.0 nm
EX  End WL:	600.0 nm
EX Sampling interval:	5.0 nm
EM  Start WL:	230.0 nm
EM  End WL:	650.0 nm
EM Sampling interval:	5.0 nm
Scan speed:	12000 nm/min
EX Slit:	5.0 nm
EM Slit:	5.0 nm
PMT Voltage:	700 V
Response:	Auto 
Corrected spectra:	Off
Contour interval:	50.000

Peak integration
Integration method:	Rectangular
Sensitivity:	1
Threshold:	1.000

Peaks
No.	ApexEX/EM(nm)	Height(Data)
1	225.0/585.0	61.16
2	230.0/340.0	1960
3	230.0/570.0	61.89
4	235.0/345.0	2037
5	240.0/265.0	312.3
6	240.0/525.0	198.5
7	245.0/535.0	177.3
8	250.0/550.0	152.3
9	255.0/565.0	150.9
10	260.0/575.0	146.7
11	265.0/585.0	146.7
12	270.0/300.0	1782
13	270.0/600.0	147.3
14	275.0/305.0	1916
15	275.0/340.0	2084
16	275.0/610.0	131.8
17	280.0/625.0	102.9
18	285.0/640.0	74.75
19	320.0/360.0	708.1
20	430.0/505.0	27.83
21	440.0/520.0	19.50
22	455.0/540.0	11.67
23	475.0/350.0	7.278
24	505.0/275.0	3.558
25	510.0/280.0	4.056
26	520.0/285.0	5.073
27	540.0/295.0	8.187
28	545.0/300.0	9.727
29	555.0/305.0	9.924
30	560.0/310.0	9.628
31	565.0/340.0	10.56

Data points
	220.0	225.0	230.0	235.0	240.0	245.0	250.0	255.0	260.0	265.0	270.0	275.0	280.0	285.0	290.0	295.0	300.0	305.0	310.0	315.0	320.0	325.0	330.0	335.0	340.0	345.0	350.0	355.0	360.0	365.0	370.0	375.0	380.0	385.0	390.0	395.0	400.0	405.0	410.0	415.0	420.0	425.0	430.0	435.0	440.0	445.0	450.0	455.0	460.0	465.0	470.0	475.0	480.0	485.0	490.0	495.0	500.0	505.0	510.0	515.0	520.0	525.0	530.0	535.0	540.0	545.0	550.0	555.0	560.0	565.0	570.0	575.0	580.0	585.0	590.0	595.0	600.0
230.0	51.55	289.9	700.4	241.1	21.03	11.99	9.675	8.138	7.843	6.769	6.488	5.429	4.882	4.241	3.577	2.988	2.686	2.260	2.151	1.925	1.866	1.683	1.615	1.473	1.413	1.387	1.246	1.229	1.119	1.181	1.147	1.072	0.944	0.925	0.916	0.863	0.792	0.823	0.730	0.746	0.737	0.711	0.695	0.735	0.654	0.646	0.811	1.803	2.854	2.296	1.149	0.651	0.575	0.568	0.561	0.506	0.593	0.572	0.608	0.566	0.576	0.595	0.586	0.566	0.590	0.592	0.577	0.591	0.574	0.580	0.621	0.645	0.637	0.589	0.597	0.653	0.642
235.0	58.08	103.0	705.6	1504	432.4	33.85	11.01	8.745	8.333	6.705	6.484	6.360	4.989	4.163	4.049	2.920	2.559	2.363	2.104	2.093	1.720	1.615	1.680	1.634	1.362	1.421	1.291	1.227	1.208	1.023	1.206	1.008	0.940	0.870	1.025	0.875	0.807	0.928	0.830	0.778	0.702	0.727	0.639	0.708	0.673	0.692	0.672	0.945	1.679	3.150	5.649	6.695	3.243	1.003	0.568	0.528	0.584	0.579	0.547	0.632	0.545	0.603	0.595	0.540	0.618	0.638	0.628	0.559	0.598	0.597	0.620	0.607	0.677	0.634	0.681	0.594	0.619
240.0	74.43	61.58	272.2	1754	2379	364.8	23.41	10.29	9.352	7.349	6.776	5.813	5.232	4.198	3.916	3.011	2.904	2.497	2.254	2.260	1.754	1.625	1.568	1.447	1.510	1.341	1.246	1.162	1.167	1.036	1.291	1.004	0.914	0.909	0.946	0.773	0.866	0.874	0.807	0.781	0.757	0.689	0.694	0.672	0.690	0.720	0.626	0.618	0.817	1.435	4.048	10.26	13.34	9.296	3.356	0.772	0.582	0.573	0.570	0.576	0.552	0.534	0.647	0.549	0.640	0.573	0.688	0.577	0.637	0.613	0.645	0.625	0.658	0.608	0.685	0.571	0.626
245.0	71.82	71.17	97.69	718.3	3231	2809	283.5	14.53	10.15	8.452	6.970	6.551	5.571	4.364	3.695	3.365	3.052	2.272	2.339	2.040	2.006	1.563	1.623	1.579	1.406	1.431	1.297	1.139	1.249	1.069	1.132	1.067	1.051	0.888	0.919	0.827	0.827	0.752	0.850	0.701	0.731	0.670	0.681	0.751	0.667	0.692	0.794	0.639	0.688	0.789	1.334	4.089	10.87	19.33	18.14	8.882	2.667	0.838	0.578	0.594	0.560	0.571	0.624	0.600	0.578	0.579	0.620	0.591	0.595	0.626	0.648	0.621	0.619	0.620	0.682	0.599	0.641
250.0	57.01	78.89	125.5	220.1	1138	3444	3967	1115	63.16	10.82	8.915	7.720	6.033	4.803	4.147	3.491	3.111	2.697	2.293	2.127	1.989	1.723	1.682	1.523	1.416	1.436	1.365	1.275	1.307	1.196	1.143	1.130	1.135	0.898	0.980	0.774	0.827	0.748	0.827	0.803	0.761	0.743	0.807	0.750	0.724	0.712	0.692	0.767	0.855	0.829	0.810	1.428	3.010	6.722	12.23	18.99	24.24	18.63	10.70	3.140	0.789	0.622	0.605	0.624	0.624	0.596	0.631	0.598	0.630	0.653	0.599	0.656	0.662	0.633	0.680	0.657	0.678
255.0	62.60	56.41	125.1	233.1	319.2	918.0	3735	6597	1539	62.39	12.29	9.470	6.487	6.063	4.466	3.851	3.153	2.771	2.619	2.304	2.071	1.944	1.752	1.499	1.563	1.541	1.463	1.401	1.342	1.307	1.133	1.117	1.133	0.895	0.881	0.832	0.850	0.919	0.749	0.781	0.765	0.785	0.731	0.756	0.695	0.775	0.693	0.719	0.740	0.900	1.123	1.410	1.321	1.988	3.186	4.953	9.708	23.38	40.11	28.49	16.77	3.318	0.772	0.648	0.593	0.660	0.678	0.587	0.652	0.740	0.669	0.686	0.634	0.666	0.712	0.618	0.669
260.0	59.83	42.47	70.16	219.4	256.5	256.5	1196	6011	7275	1173	35.87	11.92	8.893	6.706	5.349	3.884	3.451	2.751	2.788	2.356	2.200	2.065	1.793	1.569	1.554	1.597	1.416	1.369	1.394	1.193	1.119	1.058	1.204	0.922	0.977	0.918	0.928	0.907	0.814	0.768	0.734	0.756	0.698	0.708	0.750	0.780	0.719	0.628	0.600	0.681	0.899	1.739	1.779	1.341	1.261	1.622	2.814	6.740	18.28	36.45	52.48	26.93	13.34	2.135	0.678	0.656	0.690	0.640	0.715	0.666	0.664	0.669	0.730	0.623	0.634	0.696	0.681
265.0	62.84	42.85	43.17	124.2	312.3	221.1	308.6	2127	8284	7258	206.5	19.06	11.06	7.997	6.614	4.562	3.438	3.394	3.076	2.453	2.169	2.060	1.856	1.753	1.628	1.578	1.606	1.448	1.447	1.252	1.235	1.218	1.243	1.082	0.953	0.950	0.963	0.906	0.790	0.844	0.770	0.773	0.796	0.794	0.727	0.814	0.663	0.606	0.603	0.555	0.621	1.109	1.598	2.020	1.580	1.113	1.197	2.240	4.806	11.13	28.93	51.71	61.02	24.62	8.291	1.126	0.752	0.716	0.723	0.694	0.708	0.662	0.673	0.672	0.671	0.716	0.745
270.0	70.10	58.03	53.78	64.07	167.9	340.1	273.9	546.0	2690	7529	8999	2568	58.37	11.69	8.393	5.908	4.735	3.715	3.473	2.853	2.614	2.246	1.926	1.929	1.793	1.514	1.644	1.486	1.477	1.369	1.326	1.277	1.159	1.076	0.952	0.927	0.951	0.900	0.877	0.880	0.825	0.818	0.812	0.767	0.752	0.802	0.668	0.678	0.612	0.595	0.609	0.764	0.975	1.345	1.891	2.131	2.026	1.574	1.751	3.167	7.337	15.27	29.75	43.36	41.13	47.81	16.94	7.611	1.299	0.750	0.738	0.748	0.726	0.688	0.720	0.758	0.713
275.0	91.25	106.7	111.2	89.16	97.89	207.7	477.5	383.6	733.6	1963	6444	9999.9	1191	64.61	11.96	7.672	5.554	4.783	3.756	3.355	2.897	2.725	2.069	2.074	1.814	1.624	1.598	1.479	1.671	1.451	1.505	1.459	1.306	1.247	1.073	1.048	0.918	1.049	0.952	0.954	0.858	1.009	0.889	0.761	0.815	0.810	0.809	0.942	0.812	0.756	0.700	0.774	0.911	0.857	1.090	1.373	2.330	3.558	2.867	1.877	2.640	4.434	7.720	10.85	13.55	34.20	67.96	82.28	26.63	8.875	1.252	0.816	0.743	0.675	0.776	0.662	0.757
280.0	118.1	163.8	190.4	173.7	160.7	210.6	429.1	666.1	422.2	671.9	2059	8988	9968	889.0	36.23	10.68	7.110	5.166	4.311	3.831	3.026	2.807	2.375	2.148	1.884	1.763	1.709	1.805	1.846	1.414	1.481	1.368	1.418	1.253	1.270	1.080	1.029	0.946	0.948	0.894	0.915	0.988	0.916	0.807	0.958	0.862	0.850	1.059	1.102	0.977	0.929	1.079	1.041	1.171	1.203	1.265	1.846	2.856	4.056	3.982	2.823	2.520	3.447	4.249	5.069	10.27	23.84	54.90	83.10	78.53	22.45	4.896	0.900	0.867	0.797	0.741	0.846
285.0	149.2	221.9	282.3	258.7	253.1	274.0	363.8	683.7	765.8	607.8	943.5	3030	9999.9	8250	609.8	18.13	8.757	6.307	4.813	4.462	3.330	3.008	2.669	2.442	2.133	1.845	1.795	1.710	1.715	1.643	1.582	1.346	1.370	1.244	1.212	1.125	1.055	1.066	0.996	0.896	0.911	1.018	0.940	0.903	1.019	0.953	1.126	1.266	1.275	1.211	1.162	1.271	1.307	1.431	1.630	1.565	1.884	2.142	3.151	4.382	5.073	3.905	3.437	3.507	3.923	5.265	7.829	15.77	33.56	70.18	91.01	32.37	16.82	2.200	0.819	0.810	0.842
290.0	172.5	292.3	387.6	374.0	378.8	396.7	435.4	560.8	915.0	1080	980.3	1344	3277	8328	9139	2301	38.97	9.699	6.537	5.390	4.139	3.577	3.020	2.558	2.197	2.105	1.981	1.854	1.791	1.713	1.761	1.502	1.455	1.397	1.289	1.208	1.156	1.159	0.977	0.920	1.004	0.946	0.929	0.966	1.031	1.045	1.223	1.448	1.588	1.475	1.464	1.704	1.870	1.808	2.107	2.113	2.364	2.468	2.721	3.212	4.201	5.269	5.995	5.711	4.972	5.077	5.326	6.841	11.09	19.79	33.83	46.27	68.04	56.63	44.63	11.91	2.825
295.0	205.6	334.6	462.8	480.0	486.0	495.4	542.2	605.4	796.5	1259	1490	1192	1367	2223	5208	9999.9	708.5	43.40	9.448	6.917	5.140	3.958	3.528	2.996	2.585	2.232	2.157	2.008	1.840	1.701	1.705	1.581	1.414	1.487	1.363	1.283	1.238	1.201	1.118	1.027	0.937	1.004	0.932	1.013	1.087	1.114	1.231	1.472	1.647	1.608	1.857	2.112	2.189	2.419	2.461	2.549	2.799	3.111	3.093	3.379	3.555	4.142	5.470	6.806	8.187	7.628	6.036	5.943	6.856	7.922	10.19	12.43	17.84	26.27	60.90	93.06	34.38
300.0	213.5	352.8	503.6	534.1	537.4	571.0	627.2	685.8	853.9	1193	1782	1495	1088	913.1	1513	7113	9999.9	588.9	27.09	9.196	6.068	4.725	4.051	3.149	2.950	2.606	2.217	2.108	1.784	1.812	1.678	1.740	1.398	1.598	1.398	1.407	1.306	1.203	1.039	1.028	0.954	0.993	0.989	1.017	0.990	1.070	1.177	1.570	1.749	1.738	1.948	2.484	2.408	2.746	2.542	2.865	3.204	3.408	3.525	3.586	3.811	4.445	5.625	5.813	7.625	9.727	8.656	7.275	6.410	5.876	5.408	5.456	5.974	7.671	17.80	43.33	76.57
305.0	217.1	358.2	517.5	572.2	591.7	635.7	723.0	804.8	957.2	1240	1691	1916	1268	755.8	655.6	2100	8971	9544	430.2	14.62	7.740	5.673	4.423	3.667	3.218	2.795	2.468	2.175	2.062	1.866	2.021	1.738	1.492	1.595	1.469	1.304	1.175	1.203	1.166	1.010	1.014	0.981	1.021	1.092	0.980	1.221	1.285	1.709	1.889	1.885	1.918	2.448	2.603	2.864	2.982	2.996	3.661	3.456	3.908	3.987	4.578	5.002	5.757	6.442	6.943	8.760	9.767	9.924	8.445	6.122	5.042	4.548	4.070	3.924	5.874	11.75	24.94
310.0	223.6	359.2	515.2	578.3	598.0	662.4	769.4	862.0	1024	1264	1544	1776	1647	956.1	576.1	727.5	2555	7105	7060	1773	28.74	8.589	5.648	4.499	3.637	3.254	2.739	2.363	2.126	1.962	1.999	1.800	1.725	1.729	1.485	1.266	1.213	1.268	1.121	1.072	1.021	1.073	1.030	1.009	1.128	1.299	1.301	1.718	1.941	1.886	1.920	2.550	2.690	2.865	3.128	3.265	3.902	3.750	4.379	4.448	4.971	5.417	5.913	6.532	7.138	7.589	8.508	8.871	9.628	8.549	7.009	5.394	4.144	3.671	3.742	4.791	7.533
315.0	238.9	419.2	551.6	608.7	612.7	674.7	795.3	908.1	1068	1283	1515	1636	1607	1372	748.8	511.7	817.2	1768	4156	9995	2444	32.70	8.371	5.761	4.354	3.569	3.009	2.657	2.448	2.130	2.109	2.115	1.597	1.834	1.503	1.300	1.382	1.344	1.165	1.092	1.042	1.040	1.011	1.102	1.191	1.354	1.417	1.873	2.088	2.039	2.191	2.778	2.803	2.875	3.204	3.167	3.773	3.985	4.202	4.558	5.140	5.273	5.899	6.944	7.391	7.612	7.792	8.039	8.490	8.231	8.531	7.941	6.131	4.718	3.950	3.628	3.890
320.0	284.0	587.0	781.1	727.8	676.5	702.9	817.8	958.7	1132	1355	1585	1704	1611	1488	1046	583.8	500.7	597.8	1139	6202	9272	448.1	20.76	7.292	5.482	3.963	3.513	2.889	2.550	2.371	2.088	2.249	1.672	1.700	1.503	1.365	1.416	1.276	1.097	1.087	1.068	1.113	1.091	1.194	1.376	1.443	1.781	2.413	2.675	2.419	2.500	3.014	2.903	2.973	3.085	3.226	3.925	4.087	4.592	4.871	5.338	5.822	6.336	6.999	7.541	8.014	8.198	8.398	8.613	8.055	7.854	8.367	8.597	6.771	5.072	3.960	3.722
325.0	375.0	781.7	1130	973.0	750.6	744.2	852.0	1009	1211	1446	1690	1810	1697	1490	1320	806.6	504.5	395.3	423.2	1784	7608	7322	340.9	13.28	6.545	5.322	3.871	2.986	2.622	2.535	2.239	2.262	1.779	1.612	1.566	1.397	1.439	1.382	1.207	1.219	1.111	1.122	1.053	1.053	1.265	1.742	2.055	3.149	3.865	3.392	3.293	3.749	3.486	3.272	3.295	3.428	4.049	4.427	4.772	5.144	5.772	5.978	6.606	7.556	7.706	8.455	8.930	8.984	8.989	9.000	8.436	7.837	8.176	8.324	7.252	5.255	4.250
330.0	444.7	978.5	1465	1355	1005	848.7	912.1	1078	1284	1544	1797	1933	1844	1586	1306	1056	700.2	464.0	377.7	630.5	2232	5865	5753	1420	24.57	7.243	4.956	3.679	3.087	2.777	2.525	2.467	1.908	1.772	1.664	1.425	1.390	1.326	1.248	1.202	1.134	1.157	1.147	1.261	1.505	2.007	2.558	3.658	4.473	4.484	4.295	4.762	4.416	4.027	3.744	3.775	4.282	4.600	5.111	5.429	5.854	6.399	7.025	7.924	8.384	8.986	9.373	9.255	9.626	9.161	9.023	8.494	8.157	7.938	7.583	7.051	6.464
335.0	527.7	1136	1776	1759	1323	1033	1023	1170	1376	1638	1906	2056	1963	1724	1374	1064	964.4	653.3	467.3	463.7	785.1	1578	3795	8376	1992	27.49	6.714	5.084	3.986	3.112	2.880	2.471	2.310	1.946	1.870	1.545	1.495	1.341	1.239	1.208	1.127	1.150	1.168	1.252	1.648	2.245	2.816	4.346	5.576	5.333	5.379	6.084	5.507	4.944	4.280	4.380	4.597	4.976	5.598	5.773	6.336	6.798	7.555	8.104	9.008	9.453	10.07	10.14	10.18	9.908	9.869	9.270	9.025	8.103	7.466	6.690	6.967
340.0	535.1	1211	1960	1948	1492	1144	1076	1217	1422	1683	1940	2084	2008	1777	1411	1059	946.4	837.1	565.5	470.4	500.0	627.0	1123	5643	7688	377.6	14.95	6.140	4.490	3.610	2.942	2.649	2.195	1.889	1.859	1.616	1.519	1.397	1.308	1.205	1.230	1.144	1.244	1.293	1.800	2.210	3.000	4.521	5.747	5.755	5.788	7.033	6.311	5.768	4.954	4.751	5.031	5.185	5.480	6.024	6.623	6.932	7.657	8.498	9.232	9.373	9.928	10.13	10.39	10.56	10.04	9.737	9.185	8.127	7.790	6.891	6.327
345.0	516.6	1194	1950	2037	1618	1217	1118	1266	1458	1710	1946	2066	1981	1763	1407	1069	885.7	878.5	692.4	526.9	485.6	459.2	451.8	1654	6767	5963	53.32	9.259	4.920	3.932	3.202	2.693	2.343	2.033	1.767	1.525	1.610	1.307	1.292	1.369	1.167	1.229	1.202	1.287	1.792	2.135	2.877	4.582	5.640	5.861	6.022	7.242	6.707	5.864	5.440	4.945	5.301	5.330	5.773	6.322	6.870	7.330	7.596	8.408	8.808	9.349	10.05	9.895	10.32	10.11	9.692	9.775	9.134	8.122	7.541	6.904	6.405
350.0	480.4	1104	1812	2035	1720	1311	1204	1327	1530	1732	1896	1963	1881	1707	1387	1079	884.8	807.9	802.7	669.1	532.5	461.1	338.0	500.5	1942	5041	4700	1155	18.92	5.587	3.986	3.037	2.760	2.241	1.843	1.649	1.577	1.348	1.315	1.297	1.186	1.235	1.222	1.343	1.653	2.194	2.707	4.076	5.202	5.469	6.112	7.278	7.218	6.485	5.788	5.242	5.489	5.787	5.911	6.548	7.008	7.734	7.953	8.432	8.874	9.121	9.395	9.337	9.812	9.605	9.582	9.153	9.167	8.363	7.536	6.966	6.640
355.0	420.3	960.8	1666	1905	1722	1342	1219	1330	1488	1663	1775	1813	1739	1582	1325	1053	879.6	777.8	735.2	756.5	625.0	479.6	339.3	271.9	523.4	1212	3348	6681	385.8	18.66	5.670	3.833	3.065	2.555	2.032	1.851	1.522	1.408	1.357	1.308	1.185	1.356	1.277	1.247	1.624	2.063	2.665	3.974	4.772	5.211	5.739	7.011	7.100	6.781	5.652	5.448	5.689	5.579	6.188	6.416	7.023	7.389	7.759	7.930	8.578	8.576	8.793	8.817	9.075	9.073	9.007	8.885	8.625	7.953	7.675	6.827	6.436
360.0	377.5	860.1	1538	1821	1645	1329	1213	1295	1439	1568	1658	1678	1605	1486	1246	1019	860.2	765.6	704.4	703.2	708.1	524.0	357.0	238.9	225.1	334.5	909.3	4954	5849	325.1	10.31	5.021	3.737	2.858	2.200	1.982	1.575	1.488	1.413	1.254	1.284	1.249	1.248	1.217	1.402	1.832	2.405	3.454	4.402	4.882	5.248	6.544	6.880	6.705	5.749	5.263	5.649	5.626	5.907	6.151	6.786	6.964	7.188	7.882	8.075	8.251	8.370	8.160	8.641	8.308	8.446	8.230	7.757	7.451	7.075	6.489	6.505
365.0	352.9	769.2	1379	1720	1622	1312	1196	1278	1392	1504	1566	1563	1499	1375	1185	986.5	850.2	767.1	706.2	663.7	694.6	607.9	387.4	249.1	176.0	152.7	252.1	1467	5923	3051	47.38	6.821	4.264	3.034	2.425	2.037	1.634	1.698	1.419	1.355	1.348	1.177	1.200	1.243	1.315	1.756	2.158	3.079	4.104	4.237	5.041	6.603	6.483	6.170	5.943	5.186	5.814	5.607	5.904	5.931	6.339	6.772	7.116	7.541	7.777	7.775	7.689	8.022	7.724	7.807	7.847	7.930	7.252	7.224	6.721	6.670	6.405
370.0	318.0	649.4	1195	1530	1526	1278	1158	1214	1316	1407	1452	1428	1356	1258	1101	940.4	830.4	754.9	698.8	650.1	624.6	616.9	475.8	290.1	191.9	137.0	125.5	373.4	1744	4223	4225	967.6	14.91	4.356	3.071	2.333	1.897	1.700	1.448	1.476	1.308	1.267	1.225	1.238	1.342	1.619	2.034	2.741	3.573	3.956	4.486	5.940	6.044	6.007	5.586	4.942	5.521	5.419	5.664	5.879	6.074	6.219	6.679	6.865	7.183	7.040	7.013	7.132	6.975	7.448	7.120	6.998	7.011	6.637	6.186	6.265	6.101
375.0	276.2	575.4	1013	1396	1397	1221	1100	1117	1210	1268	1296	1279	1217	1129	1007	876.0	798.5	737.4	689.9	637.7	591.3	551.8	517.2	379.6	227.9	157.8	121.5	147.9	432.2	1024	3283	5667	324.2	14.90	4.219	2.855	2.352	1.828	1.660	1.495	1.354	1.275	1.271	1.253	1.350	1.459	1.784	2.370	2.963	3.412	4.092	5.281	5.596	5.478	5.273	4.812	5.077	5.359	5.246	5.427	5.424	5.788	6.079	6.358	6.480	6.295	6.406	6.380	6.432	6.435	6.252	6.204	6.303	6.073	5.920	5.724	5.871
380.0	250.2	485.8	904.6	1245	1312	1158	1043	1050	1112	1167	1188	1176	1133	1045	942.5	831.6	769.9	712.6	679.2	630.4	577.4	522.5	479.0	437.6	282.9	184.4	137.5	114.7	152.6	269.3	906.9	4492	4623	258.9	7.090	3.466	2.636	2.030	1.786	1.571	1.450	1.309	1.213	1.172	1.366	1.447	1.715	2.246	2.729	3.181	3.598	4.688	5.426	5.329	4.850	4.749	4.800	4.929	5.080	5.357	5.338	5.606	5.627	5.814	5.930	6.134	6.096	5.931	5.880	5.670	5.879	5.908	5.908	5.971	5.731	5.538	5.786
385.0	231.1	455.8	830.4	1155	1229	1094	1003	1002	1032	1086	1100	1086	1043	976.8	883.3	794.1	746.0	699.6	666.1	620.1	567.2	513.7	444.5	420.7	349.9	218.7	156.8	121.0	104.4	110.7	241.6	1368	4877	2508	37.72	4.814	3.228	2.404	1.983	1.612	1.480	1.357	1.273	1.205	1.365	1.361	1.584	2.114	2.519	2.867	3.375	4.471	5.092	5.066	4.885	4.462	4.805	4.643	4.726	5.100	4.991	5.326	5.498	5.403	5.310	5.435	5.438	5.530	5.536	5.780	5.843	5.378	5.704	5.456	5.423	5.496	5.409
390.0	214.4	385.7	742.9	1044	1128	1033	948.2	938.3	966.4	992.2	995.1	987.7	947.1	894.1	824.8	751.3	711.2	674.8	645.7	601.8	554.7	503.6	431.8	381.7	360.8	292.7	196.2	142.9	112.6	91.96	104.3	342.2	1448	3250	3104	711.6	11.94	3.093	2.157	1.894	1.563	1.379	1.438	1.175	1.351	1.419	1.480	1.955	2.337	2.505	3.091	4.127	4.588	4.676	4.417	4.148	4.335	4.289	4.547	4.619	4.743	4.689	5.111	4.849	5.075	5.070	5.147	4.869	5.176	5.243	5.377	5.153	5.141	5.205	4.973	5.267	5.008
395.0	195.1	349.9	652.5	940.7	1035	968.3	898.8	882.0	881.7	904.6	904.5	899.9	857.2	817.8	766.5	711.0	675.5	645.5	618.6	578.4	532.5	487.2	428.6	371.0	328.4	322.6	268.0	176.4	134.2	108.1	91.08	124.6	356.7	791.7	2461	4008	269.5	11.36	3.033	2.357	1.932	1.540	1.492	1.216	1.322	1.302	1.400	1.689	2.182	2.507	2.880	3.683	4.241	4.409	4.246	4.099	4.178	4.034	4.279	4.137	4.467	4.340	4.789	4.604	4.572	4.525	4.513	4.268	4.629	4.857	4.826	4.624	4.864	4.802	4.958	5.006	4.888
400.0	179.3	332.7	600.6	849.0	976.6	925.1	870.8	841.0	838.7	844.7	850.3	829.4	809.6	772.1	727.6	667.8	645.8	620.6	595.7	557.1	518.9	475.3	423.7	372.6	324.9	303.9	307.7	221.6	157.4	125.0	99.92	86.68	119.9	206.9	688.8	3231	2298	212.9	5.453	2.649	2.037	1.578	1.566	1.312	1.349	1.441	1.407	1.654	2.126	2.244	2.705	3.726	3.832	4.138	4.110	3.983	4.061	3.783	4.213	4.031	4.354	4.080	4.468	4.333	4.372	4.496	4.363	4.109	4.167	4.549	4.368	4.604	4.563	4.437	4.547	4.590	4.475
405.0	170.8	312.7	564.3	804.6	928.9	888.8	861.5	812.4	794.7	793.5	796.9	786.7	760.9	732.6	693.8	635.6	615.2	593.8	573.0	538.6	499.2	463.6	416.7	371.4	328.0	292.2	298.5	273.1	189.4	142.6	114.8	90.39	77.65	82.19	179.5	993.7	3280	2063	33.13	3.847	2.457	2.046	1.656	1.342	1.230	1.363	1.438	1.570	1.971	2.082	2.491	3.373	3.909	3.924	3.931	3.862	4.080	4.017	3.969	4.124	4.256	4.239	4.371	4.325	4.358	4.139	3.995	4.030	4.019	4.396	4.347	4.623	4.389	4.476	4.455	4.335	4.416
410.0	156.6	266.9	508.2	746.9	875.6	852.9	819.4	781.4	760.5	756.6	753.9	730.0	715.4	683.3	648.4	604.4	575.3	557.7	539.6	507.5	471.6	441.7	401.5	365.9	327.8	293.8	275.3	279.4	245.0	177.2	133.7	104.8	80.00	64.35	72.29	245.8	996.5	2409	2336	561.8	9.910	2.311	1.893	1.622	1.503	1.331	1.355	1.592	1.877	1.998	2.373	3.219	3.608	3.805	3.664	3.777	3.910	3.916	3.862	3.867	3.911	3.955	3.969	4.204	4.018	3.844	3.778	3.867	4.027	4.112	3.988	4.120	4.119	4.020	4.173	4.233	4.175
415.0	137.9	261.7	468.2	686.4	796.6	810.6	780.5	768.6	727.3	716.0	699.1	682.4	662.5	634.8	597.5	559.2	531.3	513.8	497.7	471.2	438.2	412.9	383.0	352.6	325.2	296.6	269.6	256.1	262.9	228.1	158.8	119.4	90.63	69.14	54.86	82.80	241.2	584.9	1774	2867	237.4	9.655	2.497	1.874	1.553	1.425	1.351	1.442	1.755	1.866	2.261	3.055	3.381	3.468	3.500	3.579	4.070	3.783	3.833	3.747	3.819	3.756	3.808	3.817	3.461	3.522	3.534	3.696	3.886	3.770	3.661	3.728	3.749	4.046	3.704	3.959	4.011
420.0	122.3	238.6	447.4	644.3	760.8	781.0	761.0	752.7	713.3	692.9	670.4	646.5	626.2	595.0	562.4	520.7	497.7	487.6	466.1	439.1	413.4	392.1	365.5	342.8	315.9	295.4	270.4	250.4	246.2	250.2	188.9	130.9	101.3	74.59	57.36	50.11	75.96	146.2	486.6	2223	2037	192.4	4.687	2.219	1.721	1.572	1.359	1.571	1.692	1.773	2.053	2.750	3.173	3.137	3.424	3.405	3.909	3.843	3.703	3.637	3.690	3.716	3.689	3.700	3.675	3.582	3.475	3.318	3.584	3.587	3.513	3.661	3.511	3.667	3.637	3.647	3.732
425.0	124.6	226.5	415.0	603.6	725.4	749.9	760.2	732.2	702.7	672.4	654.7	628.3	598.7	565.5	526.9	494.1	468.7	457.7	438.2	414.0	389.9	369.4	348.4	330.8	310.9	291.4	270.4	253.3	236.2	240.4	223.2	151.6	109.8	82.43	61.91	47.32	42.25	50.65	121.3	662.2	2326	1791	31.24	2.938	2.085	1.770	1.425	1.531	1.806	1.800	1.976	2.736	3.218	3.150	3.294	3.250	3.997	3.593	3.612	3.716	3.657	3.617	3.628	3.662	3.639	3.357	3.423	3.447	3.632	3.329	3.368	3.359	3.461	3.418	3.675	3.759	3.805
430.0	131.0	206.9	386.5	573.6	700.3	728.1	744.2	719.3	695.6	655.4	633.7	604.1	568.1	529.3	492.0	458.7	435.1	419.3	400.6	381.5	361.4	341.7	330.4	317.4	302.4	287.7	271.5	255.1	237.3	225.7	219.5	187.8	129.8	94.10	70.82	53.02	40.03	33.65	42.53	159.3	671.6	1708	1835	499.7	9.814	2.135	1.672	1.647	1.706	1.810	2.016	2.619	2.896	3.119	3.356	3.351	3.582	3.718	3.682	3.796	3.430	3.472	3.556	3.508	3.440	3.195	3.239	3.383	3.321	3.308	3.225	3.339	3.201	3.352	3.360	3.483	3.426
435.0	178.0	186.8	360.8	544.3	667.2	703.7	719.4	707.5	684.0	644.5	614.1	587.3	540.3	502.8	462.5	425.9	403.1	385.9	371.6	351.3	332.5	321.0	313.6	301.0	290.0	281.8	271.0	252.8	243.1	222.8	205.3	193.8	163.4	110.9	80.37	61.82	45.52	34.49	28.46	48.96	159.5	404.3	1235	2079	231.3	11.13	2.255	1.931	1.927	1.841	1.949	2.623	2.928	3.038	3.123	3.165	3.392	3.654	3.712	3.631	3.383	3.531	3.391	3.475	3.273	3.213	3.110	3.328	3.086	3.218	3.105	3.394	3.198	3.166	2.989	3.084	3.057
440.0	215.1	181.4	336.7	514.8	635.2	680.6	711.0	701.3	670.1	636.1	608.2	569.5	521.9	475.4	438.8	402.3	376.3	361.1	348.4	327.4	313.2	303.8	298.4	287.5	278.4	274.4	264.8	252.2	243.5	223.2	201.7	182.7	175.5	130.8	88.62	66.83	49.62	37.93	28.14	26.94	47.06	98.99	329.2	1632	1901	195.1	5.640	2.066	2.049	1.867	1.989	2.380	2.766	2.946	2.999	3.019	3.483	3.673	3.372	3.609	3.549	3.343	3.380	3.345	3.176	3.300	3.425	3.206	3.026	3.142	3.170	3.013	3.135	3.072	2.989	2.807	2.936
445.0	226.9	213.5	318.9	488.6	609.8	660.8	688.0	697.1	657.3	625.3	589.6	555.1	502.2	455.1	413.4	373.5	349.2	334.2	322.7	309.0	295.6	285.4	280.1	274.2	271.0	263.9	257.5	248.0	238.0	221.9	198.7	175.0	165.9	149.0	101.3	71.70	53.81	40.33	30.27	23.92	23.65	31.85	81.46	471.7	1894	1709	28.02	3.474	2.139	1.925	2.007	2.437	2.640	2.940	3.039	3.002	3.465	3.592	3.408	3.735	3.311	3.356	3.520	3.236	3.191	3.141	3.282	2.760	3.077	2.884	2.900	2.889	2.989	2.732	2.867	2.726	2.855
450.0	177.7	305.5	312.5	453.6	566.6	625.9	658.8	664.7	637.3	601.4	562.9	523.8	469.4	424.4	380.9	345.6	320.5	305.6	291.5	278.0	267.3	260.8	255.8	253.8	251.3	247.7	243.2	236.5	228.3	217.3	194.5	169.7	148.7	140.4	119.6	82.28	57.87	43.94	33.24	25.54	20.30	18.72	27.14	112.4	526.2	1428	1642	523.5	10.03	2.322	2.082	2.376	2.734	2.727	2.905	2.852	3.231	3.429	3.343	3.484	3.351	3.372	3.215	3.203	3.232	3.118	2.965	2.861	2.939	2.786	2.734	2.730	2.593	2.786	2.676	2.640	2.799
455.0	120.1	352.1	412.6	404.4	510.8	568.0	614.3	627.5	597.7	562.3	531.5	487.9	427.8	386.5	344.2	312.7	285.8	272.2	259.4	248.3	239.9	233.8	230.6	228.9	229.2	226.2	224.2	221.1	216.5	202.9	187.9	164.0	141.0	124.7	114.5	97.11	65.00	46.96	36.19	28.60	21.75	17.92	16.40	33.16	123.4	331.7	874.2	1954	200.4	12.00	2.377	2.546	2.611	2.676	2.726	2.791	3.064	3.280	3.331	3.121	3.214	3.077	3.033	3.181	3.093	2.769	2.766	2.714	2.799	2.661	2.424	2.624	2.418	2.579	2.476	2.399	2.645
460.0	101.2	303.9	613.7	425.4	483.3	534.3	575.4	589.2	566.2	532.3	497.0	456.6	403.1	356.8	318.1	285.4	262.3	248.1	235.4	225.8	217.3	213.0	212.2	211.4	211.9	210.6	208.3	206.9	204.8	196.0	180.2	158.8	135.8	115.9	103.0	98.63	74.55	50.86	38.07	30.16	23.33	18.24	15.03	16.23	34.29	79.89	217.6	1155	1603	167.6	7.903	2.792	2.582	2.537	2.680	2.607	3.034	3.175	3.159	3.078	3.032	3.089	3.135	2.748	2.974	2.615	2.736	2.656	2.543	2.508	2.406	2.505	2.532	2.234	2.382	2.175	2.438
465.0	95.12	207.4	788.9	588.2	452.2	495.3	536.8	563.1	530.2	498.0	473.5	431.5	375.3	332.1	290.8	262.6	238.5	227.6	214.2	206.0	198.9	193.2	192.9	195.9	193.8	195.7	192.8	193.6	188.5	184.4	171.5	150.2	129.9	111.6	94.59	88.19	81.53	56.21	39.46	31.05	24.39	19.04	15.70	13.01	15.52	24.44	54.04	303.1	1295	1364	142.5	5.356	2.680	2.473	2.540	2.544	2.893	2.958	3.172	2.952	2.893	2.888	2.922	2.696	2.840	2.493	2.601	2.610	2.472	2.586	2.309	2.350	2.408	2.214	2.097	2.351	2.234
470.0	89.74	138.5	616.6	1100	534.5	444.4	492.4	510.3	480.6	452.4	426.9	391.2	334.8	297.8	260.1	232.2	210.2	201.2	188.3	181.2	173.7	170.0	168.7	173.3	173.5	174.6	174.9	174.2	171.5	169.1	156.1	139.9	120.9	103.6	87.15	75.37	73.19	63.66	44.32	32.12	25.79	20.23	16.35	13.59	12.38	12.41	17.85	72.69	336.2	913.0	1174	493.3	12.35	2.750	2.467	2.616	2.735	2.711	2.803	2.664	2.680	2.723	2.824	2.727	2.621	2.411	2.360	2.322	2.288	2.266	2.158	2.231	2.083	2.070	2.100	2.083	2.099
475.0	84.99	119.5	299.4	1391	1129	418.2	438.3	455.2	422.9	407.0	377.5	348.0	301.2	266.9	230.9	203.4	183.3	176.7	165.8	156.5	149.9	149.1	147.3	150.1	151.8	151.6	155.9	154.0	154.0	150.0	139.9	126.9	112.3	96.29	80.41	68.70	61.00	59.40	51.76	36.21	26.10	21.23	17.42	13.76	12.35	10.71	10.47	21.86	79.60	208.6	462.6	1232	627.6	17.43	2.748	2.574	2.712	2.590	2.730	2.533	2.529	2.680	2.560	2.537	2.534	2.299	2.198	2.134	2.078	2.091	2.006	2.210	1.971	2.135	1.796	1.870	1.809
480.0	85.78	110.1	190.2	1011	1887	510.6	414.6	420.6	398.3	380.7	355.4	318.5	277.2	243.5	210.3	185.1	167.2	157.6	150.2	139.3	136.2	135.9	134.5	137.6	139.3	138.8	141.1	141.6	141.2	138.0	131.6	118.7	104.6	89.88	76.34	65.71	55.58	50.85	52.19	41.95	27.91	21.73	18.04	14.83	12.90	10.89	9.407	10.64	22.74	50.53	110.8	572.3	1320	206.0	12.54	2.647	2.696	2.451	2.619	2.524	2.382	2.466	2.361	2.368	2.359	2.256	2.146	2.098	2.011	1.942	1.864	1.914	1.812	1.724	1.852	1.707	1.753
485.0	87.97	108.1	165.6	545.6	2194	1013	379.0	386.4	375.0	354.3	340.2	297.0	259.3	226.2	194.0	172.8	156.3	143.4	136.2	128.3	126.2	123.2	123.9	127.5	127.4	129.1	130.2	131.3	131.7	129.8	122.2	109.9	98.37	86.31	73.64	62.92	53.05	46.56	45.86	45.33	32.48	22.16	18.67	15.39	13.43	11.22	9.509	8.722	10.54	15.92	28.92	142.9	789.6	1199	176.2	7.404	2.895	2.570	2.561	2.579	2.223	2.342	2.409	2.244	2.045	2.037	1.997	1.997	1.923	1.924	1.856	1.765	1.788	1.694	1.611	1.723	1.661
490.0	76.41	108.5	149.5	288.9	1435	2095	574.4	359.8	344.9	326.6	310.7	270.6	235.0	203.6	174.8	155.6	138.0	128.6	122.6	115.8	112.7	110.3	110.5	112.4	113.4	115.2	115.4	118.6	119.1	116.5	111.3	101.6	90.32	80.34	69.09	59.26	50.76	43.19	39.22	39.88	36.83	26.41	19.74	16.42	14.05	12.05	10.24	8.984	8.286	8.620	10.81	35.83	195.6	612.4	994.7	557.4	15.57	2.914	2.600	2.397	2.317	2.152	2.194	2.098	2.028	1.924	1.926	1.776	1.853	1.802	1.778	1.652	1.637	1.644	1.505	1.600	1.562
495.0	74.32	112.9	146.9	214.1	565.8	2254	1503	342.7	312.5	298.2	276.0	242.3	208.2	182.4	156.0	137.5	122.0	113.0	107.2	101.9	98.03	98.58	97.18	99.70	100.5	100.7	101.2	107.0	104.5	104.8	99.54	91.14	81.52	73.04	63.11	53.66	46.88	40.01	35.69	32.40	33.64	31.74	22.94	16.58	14.65	12.95	10.86	9.591	8.402	7.594	7.037	12.27	47.63	140.3	351.9	1072	780.2	23.07	2.874	2.377	2.229	2.063	1.969	1.804	1.905	1.696	1.846	1.804	1.637	1.600	1.665	1.553	1.518	1.461	1.457	1.462	1.576
500.0	69.16	97.03	155.3	185.4	296.0	1472	2468	397.1	285.8	266.6	250.5	225.0	193.8	166.2	141.3	123.8	110.2	101.8	96.47	93.25	87.34	88.01	88.56	90.18	91.97	91.35	93.21	94.85	93.90	95.53	91.04	84.05	74.31	67.06	57.81	50.14	43.90	37.73	33.42	30.38	29.22	31.31	26.28	17.38	14.49	12.98	11.56	9.867	8.278	7.247	6.419	7.497	14.63	35.11	83.77	432.5	1225	233.7	16.82	2.389	2.187	2.110	1.857	1.694	1.786	1.762	1.774	1.622	1.558	1.479	1.435	1.539	1.512	1.401	1.368	1.499	1.581
505.0	60.22	79.40	156.8	188.0	221.2	697.7	2792	1009	265.6	247.0	228.2	203.1	175.1	151.3	127.3	111.4	99.86	93.57	88.73	83.33	79.44	80.25	79.75	81.48	82.61	82.25	83.84	84.56	85.72	87.13	82.68	76.32	68.13	61.23	53.74	46.79	41.42	36.33	31.66	28.16	25.43	27.25	27.83	19.60	14.94	13.13	11.64	10.07	8.586	7.354	6.581	6.071	7.653	11.77	22.32	104.6	595.3	1100	210.3	9.490	2.170	2.025	1.968	1.783	1.724	1.579	1.597	1.575	1.404	1.472	1.434	1.484	1.324	1.434	1.321	1.365	1.349
510.0	59.06	68.87	128.2	196.2	190.2	322.7	1717	2325	438.3	221.5	205.1	180.5	157.9	132.4	113.9	96.61	87.08	82.10	76.27	73.88	70.81	69.74	69.84	70.60	71.65	71.58	73.45	74.71	74.60	76.11	72.19	67.02	61.22	53.38	48.69	41.98	37.50	32.97	29.14	25.68	23.03	22.09	24.34	22.52	16.73	13.20	11.14	10.06	8.474	7.549	6.956	6.219	6.003	6.562	8.629	26.78	143.1	488.6	816.1	470.4	16.02	2.315	1.900	1.775	1.718	1.534	1.439	1.444	1.437	1.400	1.346	1.409	1.334	1.328	1.331	1.281	1.307
515.0	57.91	62.54	97.98	190.3	180.7	205.0	609.7	2617	1375	209.7	181.0	158.4	140.3	117.6	98.18	84.75	75.68	70.44	64.56	62.96	60.66	59.10	59.25	60.50	61.57	62.96	63.50	64.10	64.71	64.78	61.55	57.11	53.19	47.37	42.37	37.63	33.06	29.45	26.44	23.44	20.49	19.07	19.24	21.02	19.30	14.51	11.00	9.678	8.139	7.586	6.752	6.573	5.444	5.475	5.586	9.267	35.04	111.8	256.7	792.3	594.5	22.51	2.082	1.843	1.554	1.473	1.459	1.344	1.411	1.391	1.301	1.279	1.238	1.191	1.388	1.108	1.338
520.0	57.08	58.28	78.78	169.2	187.3	164.6	273.8	1686	2402	273.4	161.0	143.7	123.9	106.1	87.81	76.03	67.27	63.13	58.26	56.43	53.80	52.81	52.18	55.24	53.93	55.40	55.82	56.50	57.17	57.59	55.08	51.49	46.79	42.56	38.14	34.36	29.68	27.11	24.11	21.53	18.96	17.51	16.48	17.99	19.50	15.63	11.21	9.340	8.338	7.275	6.768	6.399	5.637	5.229	4.821	5.323	10.82	27.75	60.49	305.8	869.5	232.5	15.54	1.839	1.508	1.434	1.419	1.405	1.398	1.279	1.172	1.330	1.144	1.086	1.232	1.148	1.106
525.0	58.67	54.85	71.68	134.2	198.5	156.2	183.2	757.8	3020	877.2	149.1	130.4	112.2	95.27	79.96	68.22	60.23	56.30	51.86	51.21	48.36	48.17	48.30	49.01	48.39	49.50	50.52	50.91	52.78	51.37	50.29	47.20	42.71	38.63	34.07	30.92	27.21	25.38	22.71	19.97	17.87	16.55	14.78	15.06	17.37	16.77	12.55	9.154	8.071	7.255	6.662	6.064	5.720	5.319	4.380	4.558	5.443	8.908	15.86	73.30	399.9	781.2	199.9	7.966	1.589	1.451	1.333	1.348	1.305	1.110	1.168	1.231	1.121	1.119	1.031	1.161	1.082
530.0	57.24	52.54	66.16	100.7	175.7	163.3	143.5	290.3	1878	2325	305.7	117.5	100.0	84.55	70.15	59.75	52.76	48.94	45.05	43.75	42.35	42.08	41.54	42.25	42.19	42.53	43.16	43.84	44.73	44.25	42.78	40.44	37.01	33.53	30.74	27.37	24.52	22.30	19.97	18.31	16.13	15.07	13.50	13.04	13.63	15.40	14.10	10.19	7.777	6.823	5.989	5.528	5.358	5.093	4.522	4.039	4.055	4.637	5.887	18.51	95.47	332.9	572.5	348.8	15.42	1.641	1.314	1.373	1.230	1.116	1.122	1.086	1.036	1.012	1.038	1.083	1.003
535.0	48.93	47.27	56.56	76.47	131.8	177.3	126.5	154.6	606.9	2758	1246	108.7	87.57	74.21	59.98	52.22	44.50	41.94	39.68	38.27	35.53	35.46	35.41	35.21	35.93	36.93	36.49	36.64	38.23	38.22	36.48	34.53	31.07	29.07	25.74	23.44	20.86	19.61	17.31	15.85	14.79	13.52	12.00	11.57	10.80	11.74	12.92	11.59	8.101	6.498	5.459	4.924	4.992	4.599	4.514	3.866	3.619	3.513	3.508	6.235	23.12	75.96	172.3	543.9	244.7	20.46	1.614	1.326	1.186	0.999	1.027	1.056	0.923	1.016	1.006	0.962	1.019
540.0	51.52	46.92	55.37	68.91	102.4	174.5	133.3	118.4	228.8	1689	2519	177.1	75.51	64.86	53.42	44.45	40.44	37.96	34.51	32.19	32.61	30.58	30.72	31.15	31.86	32.31	32.10	31.94	33.20	34.03	32.48	29.76	27.59	25.19	22.82	21.16	18.82	17.53	15.41	14.18	13.31	12.01	11.22	10.36	9.738	9.559	10.53	11.67	8.541	6.343	5.170	4.796	4.483	4.171	4.156	3.957	3.526	3.235	3.033	3.278	6.860	18.76	40.51	201.7	560.0	223.0	12.93	1.268	1.115	1.012	1.017	1.001	1.055	0.970	0.976	0.958	0.966
545.0	59.64	48.89	51.99	62.83	81.28	145.0	144.2	102.1	132.3	676.2	3055	632.4	69.40	55.38	46.88	39.53	36.71	32.75	30.82	28.48	28.88	26.91	27.57	27.49	27.60	28.09	28.25	28.37	29.55	29.16	27.97	26.66	24.20	22.55	20.46	18.70	16.35	15.72	14.24	12.54	11.72	10.81	10.19	9.234	9.044	8.552	8.620	10.15	9.212	6.536	5.199	4.520	3.972	3.987	3.721	3.875	3.721	3.180	2.811	2.576	3.364	5.779	10.67	48.02	255.3	546.6	175.4	5.727	1.152	1.078	1.130	0.990	0.924	0.997	0.900	1.022	0.870
550.0	55.74	47.92	53.00	55.22	65.09	103.6	152.3	106.0	99.16	231.2	1743	1964	126.1	48.98	40.29	33.78	30.28	27.36	25.93	24.54	23.71	23.10	23.13	22.80	23.28	22.95	23.41	23.38	24.53	24.36	24.04	22.01	20.05	18.75	17.26	15.66	14.05	13.31	11.97	10.70	9.956	9.455	8.704	8.244	7.814	7.479	6.874	7.485	8.314	7.243	5.392	4.194	3.711	3.501	3.289	3.386	3.290	3.163	2.662	2.321	2.399	2.710	3.790	12.17	60.66	223.1	389.0	199.3	14.02	1.257	1.083	1.025	0.944	0.856	0.875	0.927	0.926
555.0	60.49	47.72	52.32	54.77	62.79	74.65	125.6	125.4	87.32	119.7	524.1	2478	858.1	46.16	32.47	28.70	25.62	22.39	20.86	19.71	20.03	19.33	19.18	18.51	18.49	19.56	18.74	19.26	19.61	19.41	19.63	17.60	16.63	15.43	14.21	12.71	12.06	10.92	9.517	9.168	8.451	7.829	7.314	7.052	6.497	6.239	5.769	5.658	6.073	6.567	5.860	4.105	3.388	3.104	2.902	2.964	2.778	2.985	2.766	2.069	2.146	1.994	2.101	4.099	14.86	51.05	114.5	338.6	229.2	18.39	1.259	0.997	0.869	0.831	0.862	0.900	0.808
560.0	54.23	53.73	51.93	54.27	60.96	67.09	104.4	148.8	91.90	97.76	195.2	1513	1952	93.26	29.16	25.41	21.47	20.29	18.39	17.42	16.68	16.18	16.41	15.80	15.45	15.98	16.13	16.16	17.11	16.65	16.17	15.00	13.91	12.58	11.81	10.84	10.24	9.594	8.034	8.203	7.421	6.754	6.156	5.829	5.697	5.532	4.975	4.711	4.624	5.434	5.714	4.481	3.043	2.920	2.870	2.463	2.506	2.544	2.800	2.322	1.990	1.878	1.879	2.264	4.663	12.76	27.17	124.0	359.7	183.6	10.25	1.125	0.921	0.857	0.791	0.789	0.711
565.0	56.45	57.39	58.75	56.12	62.02	64.66	84.57	150.9	108.3	96.26	122.2	577.8	2511	378.2	26.39	22.09	19.08	17.09	15.43	15.23	14.08	13.97	14.42	13.26	13.46	13.75	13.72	14.05	14.21	13.79	13.35	12.88	12.14	11.39	10.07	9.504	8.673	8.018	7.457	6.986	6.460	5.879	5.730	5.277	4.977	5.019	4.412	4.107	3.851	4.114	4.881	4.712	3.225	2.697	2.476	2.333	2.536	2.237	2.274	2.497	2.078	1.779	1.812	1.949	2.416	4.155	7.485	29.91	156.7	341.4	118.0	3.576	0.847	0.932	0.917	0.812	0.802
570.0	58.95	60.01	61.89	60.42	61.51	65.22	72.23	116.7	131.6	93.72	103.0	206.6	1477	1441	66.80	19.29	16.36	14.35	13.17	12.51	12.19	12.16	11.50	11.14	11.34	11.27	11.30	11.36	11.81	11.41	10.95	10.45	9.952	9.090	8.353	7.636	7.234	6.727	6.158	5.631	5.611	5.051	4.682	4.537	4.363	4.130	3.667	3.573	3.286	3.210	3.626	4.180	3.567	2.759	2.245	2.119	2.088	2.136	2.049	2.078	2.240	1.944	1.721	1.685	1.801	2.320	2.947	7.948	37.67	137.3	225.2	122.8	11.41	1.046	0.880	0.841	0.803
575.0	53.14	59.74	57.15	58.69	59.94	61.08	65.91	87.99	146.7	107.1	104.1	119.2	442.0	1893	522.9	18.03	13.81	12.07	10.57	10.79	9.894	9.778	9.742	9.305	9.105	9.194	9.198	9.062	9.360	9.257	9.050	8.422	8.355	7.475	6.780	6.210	5.669	5.789	5.102	4.718	4.416	4.173	4.027	3.553	3.727	3.491	3.085	2.888	2.772	2.708	2.553	3.063	3.438	2.982	2.160	1.994	1.976	1.954	1.784	1.973	1.886	2.099	1.854	1.668	1.647	1.858	1.823	3.062	9.534	31.69	67.69	204.0	159.6	13.14	0.914	0.848	0.808
580.0	56.51	58.87	58.34	57.59	61.00	61.63	62.83	76.38	135.2	132.8	106.5	103.6	157.3	1162	1319	38.68	12.33	10.61	9.324	9.070	8.478	8.325	8.248	8.090	7.983	7.740	7.986	7.915	8.061	7.641	7.637	7.433	6.800	6.047	6.059	5.426	5.253	4.763	4.404	4.144	3.862	3.513	3.523	3.264	3.317	3.039	2.764	2.537	2.407	2.349	2.159	2.555	2.883	2.877	2.268	1.940	1.741	1.759	1.720	1.687	1.605	1.948	2.049	1.614	1.634	1.629	1.713	2.012	3.319	8.197	16.25	76.45	221.4	111.9	5.766	0.847	0.883
585.0	61.09	61.16	58.93	59.98	61.48	63.23	61.90	70.43	110.4	146.7	114.6	98.75	91.79	435.5	1780	105.1	11.73	9.278	8.592	7.967	7.544	7.520	7.316	6.737	6.875	6.721	6.957	6.914	6.914	6.824	6.728	6.279	5.926	5.341	5.021	4.729	4.221	4.364	3.912	3.628	3.419	3.210	3.154	2.931	2.729	2.556	2.564	2.329	2.190	1.992	2.017	2.012	2.451	2.801	2.453	1.995	1.671	1.585	1.632	1.527	1.520	1.708	2.108	1.843	1.755	1.532	1.643	1.686	1.954	2.876	4.592	18.38	96.64	203.8	33.17	2.201	0.815
590.0	59.42	57.40	57.34	58.77	60.48	60.29	62.96	64.50	86.84	142.0	125.1	97.48	78.10	134.6	1044	883.4	33.15	8.409	7.534	6.693	6.338	6.167	6.186	5.856	5.659	5.677	5.934	5.784	5.832	5.783	5.647	5.412	4.953	4.467	4.349	3.945	3.711	3.591	3.380	2.968	2.841	2.784	2.682	2.427	2.355	2.220	2.120	1.973	1.941	1.773	1.630	1.708	1.798	2.199	2.348	2.128	1.623	1.559	1.447	1.413	1.439	1.495	1.652	1.923	1.791	1.532	1.437	1.491	1.521	1.613	1.816	4.870	23.27	82.24	131.0	77.71	9.323
595.0	57.55	53.27	55.90	53.52	55.79	55.27	58.30	60.93	73.49	112.8	143.9	95.99	72.70	61.44	293.3	1233	272.6	8.108	6.450	6.127	5.487	5.070	5.128	4.878	4.847	4.583	4.700	4.638	4.788	4.945	4.445	4.402	4.152	3.773	3.644	3.408	3.082	2.798	2.704	2.505	2.446	2.277	2.236	2.128	1.991	1.923	1.835	1.791	1.675	1.524	1.472	1.489	1.483	1.622	1.910	2.145	1.836	1.459	1.429	1.270	1.348	1.381	1.343	1.549	1.820	1.725	1.331	1.348	1.299	1.238	1.240	1.754	5.950	19.03	39.11	121.3	97.83
600.0	53.86	54.93	52.10	51.46	54.51	53.69	57.21	61.68	69.18	95.39	147.3	103.5	70.66	47.39	85.27	789.7	705.5	16.49	5.901	5.736	5.294	4.605	4.518	4.414	4.122	4.402	4.174	4.199	4.315	4.294	3.997	3.888	3.563	3.412	3.260	3.088	2.915	2.653	2.274	2.288	2.133	2.103	2.091	2.016	1.870	1.755	1.587	1.552	1.414	1.406	1.292	1.376	1.350	1.363	1.536	1.825	1.886	1.488	1.372	1.227	1.316	1.239	1.176	1.373	1.509	1.657	1.387	1.266	1.368	1.170	1.164	1.103	2.003	4.872	9.448	44.84	131.2
605.0	49.59	49.21	51.48	47.75	53.94	53.01	56.42	62.35	66.69	87.28	139.7	117.7	72.90	44.87	38.85	297.8	1076	70.30	6.153	5.070	4.516	4.157	3.887	3.841	3.587	3.948	3.788	3.499	3.877	3.839	3.518	3.386	3.167	2.903	2.830	2.533	2.359	2.203	2.047	2.038	1.960	1.838	1.848	1.771	1.628	1.574	1.488	1.440	1.319	1.223	1.193	1.273	1.325	1.186	1.312	1.375	1.807	1.559	1.345	1.207	1.265	1.192	1.226	1.143	1.279	1.575	1.547	1.298	1.195	1.080	1.148	0.931	1.100	1.790	2.719	11.03	56.04
610.0	49.57	49.20	49.27	51.31	51.17	51.69	54.72	59.15	66.38	82.75	113.7	131.8	79.42	48.92	31.17	86.73	694.1	515.9	16.94	4.703	4.107	3.855	3.536	3.457	3.299	3.259	3.031	3.197	2.939	3.197	3.000	2.768	2.677	2.597	2.352	2.240	2.153	1.987	1.818	1.805	1.659	1.644	1.504	1.560	1.467	1.368	1.346	1.275	1.201	1.071	1.063	1.128	1.128	1.103	1.151	1.170	1.560	1.608	1.374	1.187	1.194	1.135	1.125	1.151	1.271	1.331	1.407	1.526	1.285	1.084	1.007	0.951	0.954	1.105	1.279	3.073	13.57
615.0	49.94	48.36	49.70	47.90	47.50	48.94	53.26	56.69	66.17	79.01	96.07	124.7	88.25	48.49	30.87	34.25	201.7	832.6	75.80	4.306	4.028	3.391	3.066	2.987	2.994	2.780	2.911	2.858	2.722	2.714	2.650	2.644	2.241	2.133	1.963	1.888	1.915	1.623	1.562	1.455	1.523	1.351	1.389	1.249	1.276	1.249	1.149	1.122	1.078	0.942	0.924	1.009	0.962	0.926	0.998	1.077	1.208	1.483	1.516	1.193	1.065	1.088	1.052	1.030	1.169	1.165	1.233	1.431	1.290	1.061	0.939	0.913	0.900	0.819	0.994	1.406	3.635
620.0	48.94	45.34	44.85	44.07	43.08	47.98	50.85	53.78	65.13	72.60	88.15	109.0	100.3	50.81	32.10	23.28	59.14	578.9	464.5	7.621	3.857	3.235	2.935	2.541	2.446	2.666	2.590	2.465	2.304	2.427	2.209	2.200	2.037	1.942	1.764	1.734	1.555	1.459	1.451	1.337	1.299	1.350	1.287	1.293	1.080	1.150	1.022	1.052	0.980	0.901	0.857	0.929	0.859	0.951	0.884	0.973	0.997	1.231	1.383	1.204	1.081	0.909	1.070	1.057	1.033	1.110	1.165	1.371	1.318	1.190	0.952	0.895	0.929	0.826	0.933	0.966	1.466
625.0	50.28	46.18	48.33	43.93	40.46	46.23	48.52	54.39	59.44	68.73	80.37	94.21	102.9	53.07	32.45	21.16	25.60	230.9	745.7	44.20	3.519	2.964	2.987	2.503	2.357	2.426	2.175	2.113	2.250	2.185	2.148	2.111	1.912	1.786	1.629	1.470	1.447	1.335	1.321	1.420	1.127	1.158	1.124	1.159	1.076	1.019	0.960	0.938	0.910	0.869	0.803	0.846	0.890	0.867	0.825	0.880	0.885	1.057	1.307	1.170	1.100	0.963	1.035	1.061	1.103	1.116	1.132	1.164	1.221	1.441	1.001	0.881	0.932	0.822	0.811	0.865	0.929
630.0	52.10	45.08	45.10	42.63	38.47	44.09	44.68	49.43	57.07	66.68	77.65	82.41	92.03	63.51	33.45	20.96	17.95	65.27	526.4	358.0	8.756	2.845	2.613	2.372	2.278	2.227	1.955	1.970	1.974	2.040	1.935	1.883	1.660	1.611	1.429	1.369	1.215	1.251	1.202	1.202	1.078	1.069	1.034	0.964	0.956	0.940	0.892	0.855	0.805	0.744	0.734	0.801	0.799	0.794	0.794	0.856	0.840	0.909	1.042	1.136	1.092	0.980	1.036	0.996	0.989	0.974	1.026	1.037	1.138	1.189	1.110	1.005	0.882	0.780	0.750	0.821	0.814
635.0	49.58	47.53	42.02	40.91	39.55	39.22	43.17	48.23	55.62	64.94	70.83	77.24	76.28	72.61	37.36	23.00	17.56	23.88	156.8	614.6	58.23	3.081	2.333	2.202	2.034	1.967	1.812	1.837	1.782	1.640	1.783	1.642	1.401	1.349	1.286	1.390	1.177	1.107	1.037	1.024	1.009	0.919	0.886	0.916	0.879	0.912	0.779	0.796	0.776	0.788	0.685	0.779	0.822	0.680	0.732	0.708	0.830	0.853	0.885	1.037	0.995	0.995	0.944	0.940	1.054	0.993	0.966	0.909	1.001	0.987	1.028	1.021	0.891	0.763	0.820	0.840	0.753
640.0	54.26	46.94	44.05	43.89	39.33	37.08	42.71	49.82	52.35	62.20	70.13	74.28	69.91	74.75	43.83	25.58	17.99	14.21	43.55	462.0	303.2	4.487	2.266	2.343	1.996	1.820	1.843	1.667	1.781	1.446	1.541	1.454	1.417	1.338	1.183	1.092	1.068	1.114	1.003	0.950	0.944	0.883	0.913	0.807	0.805	0.767	0.792	0.822	0.810	0.714	0.673	0.696	0.734	0.668	0.777	0.675	0.846	0.822	0.835	0.878	1.058	1.004	1.024	0.910	1.063	1.033	1.073	0.966	0.996	0.992	0.979	1.042	0.965	0.843	0.873	0.822	0.833
645.0	53.91	53.10	48.33	42.79	39.48	36.22	41.70	48.28	55.95	60.50	70.06	72.97	69.77	67.77	51.56	27.23	18.93	13.79	16.27	198.1	531.6	27.48	2.394	1.995	1.843	1.841	1.642	1.568	1.541	1.429	1.298	1.533	1.345	1.210	1.148	0.973	1.059	1.059	0.913	0.899	1.004	0.846	0.899	0.870	0.842	0.809	0.759	0.819	0.785	0.642	0.628	0.672	0.746	0.701	0.725	0.710	0.804	0.758	0.839	0.842	0.921	1.015	1.019	0.912	0.965	0.943	0.962	0.840	0.941	0.913	0.908	0.949	1.017	0.894	0.842	0.822	0.799
650.0	55.21	61.35	56.32	46.62	38.66	37.42	39.16	46.20	52.84	63.87	69.74	74.17	69.28	62.92	58.32	30.34	19.59	14.22	10.95	59.34	518.0	147.5	3.152	2.037	1.717	1.747	1.532	1.687	1.335	1.459	1.265	1.328	1.152	1.193	1.087	0.937	0.956	0.960	0.898	0.879	0.886	0.793	0.874	0.806	0.740	0.866	0.746	0.758	0.803	0.677	0.609	0.716	0.775	0.726	0.755	0.739	0.800	0.765	0.839	0.805	0.861	0.983	1.024	0.907	0.986	1.015	0.892	1.015	0.964	0.843	0.902	0.936	1.069	0.928	0.828	0.812	0.770
