Sample:	'1
File name:	Default_20230208_131151.FD3
Run date:	'13:05:30, 02/08/2023
Operator:	dsjg
Comment:	'

Instrument
Model:	F-2700 FL Spectrophotometer
Serial number:	2198-001
ROM Version:	4J14000 07

Instrument parameters
Measurement type:	3-D scan
Data mode:	Fluorescence
EX  Start WL:	220.0 nm
EX  End WL:	600.0 nm
EX Sampling interval:	5.0 nm
EM  Start WL:	230.0 nm
EM  End WL:	650.0 nm
EM Sampling interval:	5.0 nm
Scan speed:	12000 nm/min
EX Slit:	5.0 nm
EM Slit:	5.0 nm
PMT Voltage:	700 V
Response:	Auto 
Corrected spectra:	Off
Contour interval:	50.000

Peak integration
Integration method:	Rectangular
Sensitivity:	1
Threshold:	1.000

Peaks
No.	ApexEX/EM(nm)	Height(Data)
1	225.0/305.0	148.4
2	225.0/585.0	16.40
3	225.0/615.0	11.35
4	230.0/345.0	319.6
5	230.0/560.0	21.75
6	230.0/645.0	10.00
7	235.0/515.0	95.76
8	240.0/525.0	84.68
9	245.0/535.0	74.64
10	250.0/550.0	61.36
11	255.0/280.0	207.3
12	255.0/560.0	51.01
13	260.0/570.0	41.71
14	265.0/585.0	37.54
15	270.0/300.0	382.2
16	270.0/595.0	35.35
17	275.0/305.0	436.5
18	275.0/355.0	659.4
19	275.0/610.0	29.77
20	280.0/310.0	416.8
21	280.0/620.0	26.25
22	285.0/320.0	425.8
23	285.0/630.0	20.30
24	310.0/350.0	191.1
25	315.0/355.0	180.2
26	320.0/360.0	188.5
27	325.0/370.0	175.3
28	330.0/375.0	175.6
29	335.0/380.0	183.3
30	345.0/395.0	150.6
31	350.0/400.0	154.2
32	355.0/405.0	146.4
33	365.0/420.0	134.8
34	370.0/425.0	129.0
35	415.0/485.0	34.00
36	430.0/505.0	20.64
37	435.0/510.0	17.29
38	440.0/515.0	15.23
39	445.0/525.0	12.99
40	450.0/530.0	10.86
41	455.0/535.0	9.438
42	460.0/545.0	7.748
43	555.0/355.0	3.107
44	565.0/350.0	3.079
45	585.0/325.0	2.282

Data points
	220.0	225.0	230.0	235.0	240.0	245.0	250.0	255.0	260.0	265.0	270.0	275.0	280.0	285.0	290.0	295.0	300.0	305.0	310.0	315.0	320.0	325.0	330.0	335.0	340.0	345.0	350.0	355.0	360.0	365.0	370.0	375.0	380.0	385.0	390.0	395.0	400.0	405.0	410.0	415.0	420.0	425.0	430.0	435.0	440.0	445.0	450.0	455.0	460.0	465.0	470.0	475.0	480.0	485.0	490.0	495.0	500.0	505.0	510.0	515.0	520.0	525.0	530.0	535.0	540.0	545.0	550.0	555.0	560.0	565.0	570.0	575.0	580.0	585.0	590.0	595.0	600.0
230.0	20.22	463.4	 1108	284.2	9.982	3.217	2.431	2.252	1.958	1.854	1.603	1.307	1.199	1.026	0.946	0.740	0.751	0.671	0.727	0.568	0.553	0.504	0.511	0.465	0.467	0.432	0.466	0.358	0.396	0.401	0.409	0.351	0.335	0.328	0.342	0.409	0.428	0.366	0.336	0.338	0.285	0.269	0.286	0.249	0.226	0.208	0.306	1.179	3.744	4.491	2.163	0.463	0.174	0.163	0.135	0.115	0.112	0.124	0.124	0.110	0.093	0.127	0.094	0.084	0.096	0.098	0.083	0.093	0.081	0.079	0.075	0.070	0.077	0.066	0.059	0.071	0.083
235.0	13.78	145.7	 1025	 1824	368.2	14.78	2.932	3.043	2.178	1.698	1.557	1.749	1.510	1.303	0.941	1.007	0.848	0.641	0.639	0.616	0.553	0.536	0.546	0.503	0.422	0.515	0.407	0.367	0.448	0.354	0.360	0.341	0.381	0.331	0.301	0.337	0.453	0.415	0.366	0.341	0.297	0.274	0.281	0.215	0.254	0.207	0.227	0.440	1.333	3.333	6.404	8.650	4.766	0.965	0.165	0.131	0.153	0.120	0.133	0.086	0.097	0.115	0.102	0.107	0.085	0.086	0.093	0.095	0.091	0.076	0.068	0.072	0.062	0.091	0.081	0.062	0.086
240.0	22.14	46.73	383.1	 1958	 2507	281.9	7.860	4.094	2.810	2.079	2.199	1.787	1.401	1.267	0.920	0.959	0.734	0.741	0.617	0.581	0.576	0.639	0.540	0.591	0.524	0.419	0.391	0.458	0.398	0.440	0.345	0.327	0.331	0.348	0.332	0.280	0.356	0.410	0.347	0.303	0.314	0.329	0.271	0.245	0.266	0.296	0.290	0.242	0.452	1.001	3.099	8.998	13.57	10.20	3.666	0.515	0.164	0.138	0.168	0.136	0.114	0.125	0.110	0.095	0.109	0.096	0.098	0.107	0.089	0.076	0.095	0.086	0.064	0.091	0.090	0.058	0.059
245.0	26.83	49.51	104.2	829.4	 3218	 2230	193.6	5.590	3.947	2.926	2.832	1.930	1.535	1.268	1.419	0.903	0.848	0.632	0.671	0.563	0.578	0.534	0.533	0.591	0.544	0.488	0.439	0.504	0.444	0.404	0.375	0.350	0.383	0.404	0.292	0.264	0.273	0.310	0.369	0.412	0.356	0.310	0.244	0.272	0.297	0.252	0.376	0.311	0.326	0.341	0.853	3.071	8.330	15.57	16.79	9.186	2.151	0.285	0.156	0.137	0.123	0.106	0.101	0.084	0.105	0.101	0.101	0.111	0.088	0.083	0.080	0.070	0.081	0.110	0.079	0.064	0.056
250.0	15.51	50.28	93.39	222.4	 1219	 2768	 2906	799.9	36.77	5.164	3.190	2.704	2.041	1.643	1.396	1.179	0.979	0.889	0.785	0.670	0.648	0.593	0.598	0.616	0.520	0.473	0.487	0.428	0.471	0.457	0.456	0.374	0.413	0.390	0.335	0.295	0.299	0.303	0.333	0.347	0.384	0.314	0.363	0.261	0.265	0.265	0.277	0.366	0.466	0.476	0.480	0.866	2.151	5.105	9.433	13.99	17.50	14.91	7.918	2.257	0.278	0.128	0.127	0.132	0.114	0.095	0.116	0.107	0.092	0.074	0.078	0.075	0.086	0.077	0.082	0.059	0.068
255.0	9.340	21.41	82.86	155.6	301.9	778.5	 2861	 4191	 1149	31.34	5.500	3.984	2.660	2.181	1.508	1.185	1.198	1.011	1.054	0.804	0.663	0.629	0.592	0.661	0.630	0.630	0.525	0.458	0.560	0.491	0.467	0.376	0.368	0.426	0.327	0.325	0.286	0.293	0.237	0.273	0.338	0.383	0.359	0.272	0.304	0.227	0.265	0.260	0.297	0.398	0.718	0.867	0.805	1.298	2.290	3.505	6.781	14.63	24.55	22.82	12.29	2.479	0.219	0.136	0.143	0.118	0.133	0.106	0.072	0.105	0.087	0.070	0.085	0.070	0.103	0.072	0.097
260.0	8.233	11.16	36.37	138.9	162.2	194.8	984.1	 3842	 4297	208.6	16.35	4.572	3.418	2.672	1.845	1.589	1.308	1.073	0.942	0.929	0.810	0.732	0.568	0.636	0.653	0.568	0.553	0.497	0.517	0.546	0.467	0.368	0.416	0.373	0.349	0.284	0.305	0.241	0.271	0.222	0.287	0.373	0.332	0.294	0.279	0.237	0.244	0.233	0.217	0.235	0.501	0.811	1.029	0.814	0.733	0.927	1.701	4.177	11.39	22.80	31.13	20.90	8.507	1.136	0.160	0.137	0.134	0.144	0.096	0.081	0.092	0.090	0.091	0.079	0.089	0.079	0.090
265.0	10.26	9.653	16.08	73.77	174.5	110.0	241.2	 1470	 4817	 3946	166.8	9.129	3.859	3.061	2.587	1.858	1.475	1.127	0.996	0.868	0.731	0.692	0.715	0.591	0.661	0.596	0.621	0.532	0.553	0.528	0.526	0.486	0.418	0.378	0.357	0.322	0.308	0.281	0.249	0.299	0.277	0.267	0.483	0.300	0.237	0.289	0.278	0.261	0.228	0.185	0.296	0.431	0.861	1.065	0.796	0.525	0.508	1.105	2.844	7.032	17.27	30.12	26.88	18.11	4.567	0.373	0.100	0.162	0.107	0.099	0.120	0.085	0.099	0.098	0.079	0.093	0.094
270.0	15.16	19.60	21.48	30.41	94.66	153.4	139.9	361.9	 1644	 4030	 4577	 1660	45.37	4.779	3.336	2.194	1.858	1.636	1.397	1.041	0.909	0.900	0.782	0.794	0.705	0.603	0.636	0.584	0.581	0.514	0.589	0.505	0.416	0.397	0.387	0.361	0.345	0.294	0.295	0.291	0.233	0.233	0.322	0.311	0.319	0.352	0.288	0.310	0.297	0.238	0.239	0.263	0.374	0.515	0.757	0.933	0.899	0.686	0.881	1.743	4.244	9.010	14.97	23.82	25.02	24.51	12.24	4.596	0.400	0.143	0.130	0.128	0.109	0.128	0.086	0.111	0.079
275.0	28.96	48.87	49.63	27.43	33.21	84.39	189.4	182.7	395.8	 1063	 3358	 6030	 1056	50.18	4.672	3.197	2.343	2.159	1.624	1.412	1.256	1.001	0.884	0.828	0.848	0.727	0.778	0.628	0.662	0.520	0.641	0.505	0.423	0.355	0.374	0.381	0.332	0.330	0.318	0.313	0.254	0.216	0.255	0.279	0.327	0.377	0.333	0.410	0.381	0.322	0.258	0.301	0.283	0.255	0.352	0.502	0.923	1.158	1.124	0.816	1.151	2.235	3.573	5.728	8.463	18.46	32.52	37.00	18.52	4.169	0.240	0.156	0.089	0.131	0.107	0.102	0.084
280.0	42.63	83.08	85.28	37.23	22.50	38.91	138.5	207.3	171.1	276.4	 1051	 4336	 5882	832.2	26.43	4.939	3.077	2.567	1.937	1.676	1.291	1.225	0.840	0.943	0.859	0.821	0.750	0.737	0.559	0.621	0.649	0.553	0.474	0.404	0.359	0.397	0.363	0.322	0.269	0.344	0.244	0.283	0.273	0.249	0.333	0.524	0.380	0.494	0.428	0.450	0.307	0.305	0.264	0.225	0.245	0.287	0.526	0.792	1.287	1.210	0.976	0.844	1.046	1.583	2.217	4.902	12.56	27.13	38.85	25.83	12.61	1.413	0.178	0.129	0.138	0.144	0.095
285.0	57.69	103.9	102.9	48.42	21.72	25.41	69.61	187.8	209.5	134.2	294.9	 1475	 4938	 5504	603.1	10.81	4.406	2.849	2.211	1.650	1.549	1.340	1.118	0.995	1.139	0.789	0.842	0.883	0.607	0.589	0.676	0.538	0.516	0.508	0.400	0.434	0.370	0.323	0.332	0.313	0.265	0.277	0.213	0.254	0.291	0.456	0.527	0.545	0.536	0.529	0.389	0.329	0.321	0.267	0.250	0.263	0.326	0.496	0.711	1.226	1.394	1.163	0.702	0.706	0.877	1.440	3.231	7.809	18.32	32.71	40.68	22.19	6.757	0.366	0.151	0.145	0.116
290.0	65.79	116.0	125.3	60.20	29.61	29.19	47.53	106.1	215.2	234.2	190.0	429.2	 1568	 3868	 4840	 2039	32.06	4.537	3.263	2.321	2.076	1.621	1.368	1.126	1.219	0.941	0.802	0.858	0.767	0.642	0.722	0.596	0.542	0.525	0.463	0.478	0.393	0.360	0.341	0.317	0.242	0.269	0.313	0.283	0.296	0.411	0.559	0.588	0.681	0.597	0.420	0.370	0.328	0.278	0.273	0.286	0.306	0.387	0.436	0.680	0.958	1.323	1.409	1.355	1.053	0.929	1.175	2.252	4.727	9.365	17.11	25.26	26.14	27.86	13.48	4.751	0.335
295.0	74.33	132.1	140.9	75.35	38.72	39.92	51.93	82.89	149.7	275.2	331.6	246.6	465.2	 1012	 2580	 5789	 3100	38.36	4.964	3.651	2.640	2.195	1.579	1.424	1.400	1.123	1.093	0.915	0.796	0.766	0.705	0.650	0.575	0.631	0.485	0.454	0.420	0.431	0.322	0.316	0.265	0.236	0.338	0.275	0.327	0.390	0.484	0.622	0.791	0.711	0.563	0.454	0.468	0.351	0.334	0.329	0.352	0.347	0.407	0.527	0.577	0.877	1.095	1.664	1.968	1.692	1.157	1.273	1.734	2.729	4.296	6.159	8.279	17.34	34.13	42.65	19.82
300.0	71.83	140.3	142.6	89.59	47.77	48.10	63.11	89.14	133.9	226.6	382.2	340.0	257.3	326.2	772.3	 3349	 6600	536.7	22.97	4.765	3.589	2.494	1.964	1.624	1.326	1.231	1.071	0.998	0.778	0.924	0.771	0.618	0.609	0.607	0.533	0.403	0.432	0.455	0.374	0.296	0.329	0.300	0.270	0.280	0.356	0.380	0.498	0.589	0.791	0.704	0.625	0.497	0.395	0.389	0.407	0.410	0.427	0.411	0.488	0.478	0.648	0.780	0.930	1.178	1.886	2.239	2.042	1.387	1.202	1.400	1.519	1.847	2.285	4.781	12.48	28.00	44.62
305.0	79.68	148.4	147.3	100.6	58.19	58.77	72.76	96.10	138.9	207.1	339.7	436.5	291.8	203.5	243.0	 1044	 4277	 6155	428.8	9.859	4.051	3.228	2.469	2.070	1.587	1.366	1.265	1.138	0.975	0.997	0.802	0.736	0.708	0.623	0.576	0.499	0.484	0.400	0.474	0.302	0.315	0.308	0.297	0.309	0.351	0.375	0.467	0.636	0.721	0.663	0.623	0.583	0.457	0.432	0.436	0.486	0.512	0.497	0.573	0.583	0.718	0.850	0.906	1.074	1.514	1.783	2.240	2.448	1.652	1.288	1.001	1.048	1.018	1.509	3.186	7.985	18.93
310.0	80.97	138.5	155.1	108.5	74.95	73.11	88.25	117.2	164.4	225.4	304.2	397.0	416.8	272.6	150.9	285.3	 1224	 3670	 4433	 1716	24.94	4.628	3.305	2.504	1.889	1.714	1.524	1.247	1.064	1.120	0.894	0.868	0.765	0.675	0.601	0.539	0.533	0.474	0.407	0.385	0.363	0.385	0.332	0.340	0.373	0.405	0.476	0.590	0.662	0.683	0.594	0.578	0.520	0.488	0.451	0.503	0.602	0.574	0.636	0.720	0.796	0.923	1.038	1.198	1.365	1.568	1.723	2.155	2.311	2.101	1.533	1.139	0.916	0.858	1.097	2.103	4.676
315.0	80.45	151.3	170.0	123.3	89.69	90.13	108.6	148.3	193.7	264.3	324.5	368.4	402.5	419.1	210.8	135.9	314.1	882.3	 2105	 6109	 2697	31.07	4.881	3.401	2.711	2.015	1.806	1.453	1.374	1.183	1.081	0.943	0.819	0.691	0.579	0.587	0.637	0.511	0.417	0.446	0.385	0.345	0.358	0.383	0.407	0.456	0.477	0.657	0.699	0.772	0.632	0.585	0.641	0.611	0.568	0.557	0.658	0.703	0.654	0.841	0.961	1.029	1.280	1.378	1.563	1.637	1.604	1.763	1.883	2.074	2.439	1.931	1.376	0.986	0.782	0.933	1.395
320.0	89.49	167.6	181.7	140.3	106.2	105.3	128.2	170.7	222.4	299.8	364.0	392.7	396.2	425.8	329.4	138.4	123.0	229.5	578.7	 3092	 6883	405.0	20.52	4.588	3.213	2.286	1.815	1.689	1.454	1.283	1.206	1.063	0.929	0.892	0.545	0.646	0.641	0.522	0.468	0.487	0.402	0.327	0.429	0.384	0.416	0.475	0.604	0.752	0.805	0.702	0.594	0.608	0.631	0.591	0.657	0.609	0.714	0.796	0.761	0.894	1.045	1.215	1.463	1.508	1.594	1.632	1.844	1.738	1.770	1.901	2.146	2.301	2.119	1.644	0.850	0.661	0.710
325.0	87.45	182.3	200.7	154.5	118.6	121.4	148.4	193.6	262.4	334.5	406.3	440.0	418.5	400.8	378.6	220.1	95.37	92.05	157.5	864.2	 4209	 6389	350.9	10.09	4.325	3.065	2.396	1.957	1.558	1.284	1.259	1.238	0.994	0.958	0.758	0.653	0.585	0.622	0.443	0.512	0.454	0.408	0.367	0.443	0.441	0.492	0.585	0.750	0.880	0.785	0.679	0.742	0.642	0.642	0.703	0.717	0.737	0.832	0.931	1.055	1.141	1.355	1.567	1.816	1.714	1.844	1.849	1.936	2.235	1.972	1.931	2.039	2.018	2.282	1.471	0.916	0.714
330.0	105.2	202.9	243.3	185.2	143.6	141.8	174.5	229.5	305.8	389.5	470.4	507.5	480.4	422.5	349.8	293.1	174.7	77.68	71.27	218.5	 1118	 3697	 5389	 1446	22.40	4.477	3.176	2.338	2.033	1.698	1.489	1.256	1.115	0.931	0.943	0.791	0.593	0.618	0.526	0.484	0.484	0.391	0.330	0.426	0.462	0.494	0.653	0.819	0.881	0.947	0.777	0.786	0.732	0.691	0.675	0.772	0.901	0.964	1.117	1.202	1.295	1.434	1.734	1.970	2.139	2.258	2.150	2.320	2.403	2.238	2.131	2.024	1.857	1.924	1.807	1.653	1.181
335.0	119.6	229.6	279.7	222.8	175.6	168.6	211.2	270.0	355.8	450.1	534.5	573.2	548.4	474.6	361.0	259.7	251.4	149.8	66.56	82.64	273.0	862.9	 2232	 6430	 2403	28.83	4.313	3.440	2.598	2.145	1.592	1.327	1.261	0.958	0.912	0.823	0.662	0.716	0.571	0.503	0.477	0.459	0.425	0.461	0.515	0.561	0.750	0.951	1.040	0.984	0.865	0.903	0.827	0.797	0.779	0.895	1.015	1.125	1.237	1.389	1.610	1.877	1.942	2.189	2.393	2.363	2.438	2.640	2.614	2.713	2.500	2.346	2.053	1.637	1.551	1.409	1.601
340.0	121.8	240.5	297.9	242.9	197.1	194.1	238.1	298.9	391.3	482.1	569.4	618.4	596.9	519.9	388.9	254.6	225.5	224.6	100.1	60.36	90.40	215.8	569.0	 3220	 7203	 1803	18.95	4.258	3.100	2.685	1.763	1.720	1.351	1.099	1.029	0.876	0.689	0.754	0.589	0.535	0.512	0.413	0.387	0.453	0.522	0.565	0.778	1.025	1.166	1.049	0.967	1.073	0.976	0.835	0.946	0.952	1.170	1.176	1.437	1.517	1.725	1.955	2.203	2.307	2.553	2.632	2.798	2.877	2.991	2.989	2.641	2.452	2.132	1.899	1.569	1.277	1.284
345.0	135.5	255.1	319.6	257.9	213.4	216.1	254.4	320.6	410.3	513.1	601.2	643.7	630.4	545.0	414.5	262.1	195.0	221.0	170.2	67.64	57.55	78.13	150.6	860.5	 4615	 6678	308.8	9.774	3.872	3.279	2.103	1.818	1.378	1.401	1.008	0.923	0.748	0.747	0.559	0.628	0.590	0.501	0.499	0.487	0.523	0.624	0.753	0.988	1.090	1.112	1.040	1.106	0.986	0.929	1.055	1.062	1.186	1.319	1.495	1.576	1.838	2.060	2.287	2.551	2.624	2.858	2.867	2.852	3.075	3.037	2.779	2.471	2.321	1.948	1.694	1.341	1.181
350.0	142.2	257.8	314.0	270.7	234.0	236.3	268.1	342.0	426.0	530.3	618.6	658.9	640.4	562.8	428.6	274.3	192.4	172.1	191.1	144.0	72.92	57.74	66.02	217.8	 1196	 3881	 5368	 1304	20.98	4.360	3.172	2.302	1.722	1.380	1.158	1.018	0.832	0.816	0.690	0.579	0.531	0.500	0.501	0.475	0.564	0.614	0.778	1.078	1.099	1.092	1.056	1.165	1.049	1.058	1.029	1.054	1.158	1.302	1.562	1.774	1.893	2.165	2.289	2.665	2.674	2.876	2.818	2.993	3.069	3.079	2.876	2.583	2.411	2.121	1.658	1.403	1.173
355.0	141.0	245.0	304.9	281.6	249.8	252.4	290.4	349.9	442.0	534.8	619.3	659.4	642.8	569.8	435.5	287.3	202.6	160.6	151.3	180.2	140.4	72.02	58.49	83.53	291.6	899.0	 2257	 6205	 2232	27.82	4.266	3.122	2.207	1.616	1.309	1.096	0.964	0.827	0.804	0.637	0.523	0.530	0.490	0.503	0.532	0.671	0.750	1.046	1.140	1.133	1.026	1.110	1.116	1.151	1.213	1.074	1.222	1.321	1.483	1.791	1.957	2.209	2.384	2.657	2.695	2.857	2.991	3.107	3.102	3.076	2.945	2.636	2.426	2.145	1.719	1.373	1.294
360.0	142.8	243.8	304.2	280.1	269.2	265.2	292.8	358.5	445.7	537.6	612.3	657.6	635.3	571.7	438.9	294.4	208.9	167.8	143.7	154.1	188.5	110.7	67.25	61.28	96.80	223.5	561.1	 3193	 6943	 1723	18.40	4.006	2.681	1.939	1.553	1.202	1.057	0.941	0.817	0.546	0.633	0.561	0.485	0.545	0.558	0.657	0.788	1.033	1.054	1.199	1.050	1.159	1.204	1.157	1.207	1.191	1.302	1.358	1.612	1.729	1.981	2.227	2.478	2.601	2.818	2.761	2.995	2.966	3.071	3.000	2.872	2.678	2.498	2.068	1.792	1.522	1.259
365.0	140.4	244.2	293.7	285.5	269.2	271.9	304.2	368.1	443.5	532.9	600.9	647.6	628.4	558.8	435.8	297.0	216.6	176.4	149.5	140.2	175.5	169.1	90.23	64.03	60.72	78.91	145.8	838.5	 4619	 6612	296.2	9.294	3.207	2.418	1.838	1.558	1.078	0.949	0.764	0.660	0.663	0.592	0.562	0.552	0.596	0.679	0.804	0.989	1.187	1.204	1.013	1.227	1.195	1.197	1.165	1.200	1.446	1.406	1.691	1.712	1.975	2.201	2.502	2.544	2.617	2.760	2.885	2.861	3.005	2.919	2.699	2.608	2.512	2.105	1.805	1.581	1.405
370.0	138.0	234.0	287.1	283.1	275.9	278.2	309.7	365.0	442.2	521.4	590.0	618.2	604.3	541.8	427.2	296.8	228.3	189.3	165.8	149.1	151.0	175.3	156.4	92.52	64.91	56.95	60.56	207.8	 1197	 4011	 5446	 1199	18.51	3.420	2.427	1.827	1.344	1.082	0.899	0.782	0.688	0.632	0.633	0.572	0.639	0.706	0.813	0.949	1.094	1.105	0.984	1.234	1.220	1.264	1.224	1.205	1.383	1.568	1.553	1.760	1.901	2.078	2.296	2.559	2.633	2.804	2.663	2.839	2.887	2.812	2.737	2.707	2.445	2.103	1.761	1.607	1.477
375.0	135.6	221.8	273.2	284.5	278.8	286.8	314.9	365.9	430.0	507.9	563.8	590.8	572.9	515.7	416.0	294.0	236.8	203.7	181.0	164.8	155.1	152.1	175.6	156.8	87.58	61.83	51.52	73.31	286.2	922.8	 2398	 6195	 1974	23.80	3.380	2.195	1.765	1.392	1.118	0.903	0.773	0.660	0.679	0.606	0.693	0.715	0.737	0.920	1.112	1.101	0.999	1.207	1.369	1.315	1.290	1.285	1.607	1.465	1.613	1.666	1.842	2.108	2.276	2.449	2.410	2.644	2.621	2.708	2.670	2.737	2.704	2.550	2.415	2.074	1.765	1.492	1.550
380.0	124.7	213.7	276.1	292.3	290.2	293.4	317.3	361.8	419.8	492.6	543.6	566.5	548.1	494.8	403.0	295.7	240.1	212.0	190.4	176.3	164.5	151.2	155.7	183.3	126.0	74.25	55.78	50.07	88.33	223.7	589.1	 3288	 6399	 1459	15.09	2.952	2.097	1.682	1.300	1.025	0.800	0.710	0.664	0.631	0.652	0.710	0.850	0.941	1.112	1.098	1.060	1.205	1.312	1.372	1.347	1.403	1.484	1.465	1.655	1.602	1.872	1.982	2.096	2.439	2.581	2.534	2.619	2.574	2.671	2.573	2.484	2.304	2.263	1.982	1.809	1.694	1.555
385.0	119.4	207.1	267.0	293.0	298.7	307.5	318.4	353.5	412.6	475.0	520.5	548.9	526.3	482.7	393.4	297.7	242.0	219.3	201.6	186.4	174.2	157.3	150.8	167.6	167.4	98.40	65.27	49.36	49.77	72.15	148.7	861.8	 4381	 5573	242.3	6.355	2.725	1.938	1.378	1.173	0.905	0.795	0.772	0.761	0.795	0.807	0.802	0.989	1.091	1.055	1.073	1.186	1.290	1.276	1.357	1.391	1.481	1.531	1.571	1.730	1.848	1.976	2.091	2.322	2.344	2.489	2.433	2.433	2.539	2.579	2.392	2.371	2.092	2.108	1.621	1.689	1.686
390.0	116.7	198.8	259.7	291.9	299.6	310.8	324.6	349.7	396.8	452.2	491.7	516.5	497.4	455.7	377.0	288.4	247.3	225.4	210.1	197.0	183.0	170.1	157.6	150.2	162.1	146.0	92.17	62.02	50.45	46.76	55.92	209.8	 1141	 3453	 4305	948.0	14.88	2.715	1.816	1.431	1.064	0.879	0.801	0.698	0.696	0.796	0.766	1.006	1.138	1.029	1.106	1.275	1.292	1.276	1.331	1.441	1.484	1.580	1.659	1.746	1.758	1.962	2.090	2.192	2.226	2.250	2.344	2.381	2.443	2.289	2.284	2.318	2.105	2.064	1.593	1.599	1.555
395.0	106.8	189.5	254.3	286.0	302.7	313.9	322.1	343.1	383.8	425.3	462.1	477.5	464.2	425.4	358.8	287.1	248.9	228.6	216.2	204.7	191.7	179.2	166.3	152.5	144.3	150.6	143.9	86.99	61.65	49.84	44.06	70.05	271.2	792.4	 1939	 4846	 1566	19.76	2.562	1.879	1.430	0.962	0.916	0.774	0.785	0.816	0.939	0.973	1.035	1.089	1.066	1.345	1.340	1.252	1.403	1.470	1.549	1.496	1.614	1.706	1.767	1.887	1.953	2.070	2.171	2.176	2.238	2.187	2.385	2.206	2.002	2.054	1.947	1.819	1.721	1.580	1.627
400.0	103.0	182.8	247.0	289.3	302.8	319.2	317.6	339.8	371.0	412.2	441.6	455.3	440.3	406.1	342.6	280.7	244.7	229.5	218.3	208.9	194.2	184.6	170.7	158.4	141.9	136.4	154.2	121.0	73.53	58.76	47.30	43.49	81.19	192.2	475.5	 2608	 4868	 1141	12.23	2.420	1.622	1.210	0.995	0.919	0.796	0.826	0.872	0.941	1.132	0.983	1.052	1.267	1.327	1.357	1.450	1.388	1.593	1.636	1.574	1.541	1.719	1.682	1.874	2.014	2.049	2.095	2.194	2.223	2.156	2.151	2.021	2.105	1.872	1.822	1.540	1.554	1.688
405.0	97.78	180.5	247.5	275.8	304.9	311.8	315.8	336.1	364.1	398.4	427.0	437.3	417.7	389.3	328.0	271.6	243.4	225.1	215.2	207.5	195.3	187.6	174.9	162.7	145.9	133.4	139.6	146.4	96.32	67.71	53.43	43.57	43.57	61.06	119.7	679.4	 3240	 4148	208.7	5.458	1.908	1.476	1.252	0.891	0.861	0.850	0.828	0.975	1.009	1.015	1.074	1.200	1.254	1.301	1.411	1.421	1.459	1.500	1.503	1.699	1.588	1.719	1.803	1.843	1.992	2.047	2.006	2.127	2.239	2.068	2.005	1.926	1.908	1.871	1.474	1.606	1.696
410.0	87.67	166.0	230.5	273.8	297.6	310.9	320.0	328.5	353.7	383.1	405.5	411.1	389.4	364.2	311.5	261.0	235.3	222.0	210.4	202.9	193.9	184.8	176.6	165.9	150.1	137.0	129.0	136.4	131.6	92.89	65.06	51.20	40.96	37.39	43.83	164.3	832.4	 2555	 2591	843.4	12.95	1.977	1.440	1.086	1.001	0.834	0.824	0.970	0.953	1.037	1.006	1.231	1.319	1.276	1.432	1.421	1.479	1.572	1.470	1.627	1.558	1.735	1.838	1.760	1.860	1.943	1.781	1.927	1.900	1.891	1.824	1.794	1.892	1.678	1.524	1.550	1.567
415.0	81.51	159.3	219.7	262.5	286.8	296.7	308.7	325.1	338.7	367.4	379.8	383.6	363.5	335.6	288.6	250.0	223.1	214.4	203.1	194.1	188.0	182.4	174.9	165.8	154.7	139.7	130.2	123.7	130.3	129.2	86.46	61.67	47.88	37.52	31.66	52.16	197.0	585.7	 1327	 3534	 1273	17.35	2.000	1.297	1.131	1.028	0.879	0.922	0.982	0.981	0.975	1.220	1.208	1.335	1.346	1.389	1.396	1.599	1.494	1.637	1.746	1.733	1.774	1.723	1.821	1.764	1.806	1.769	1.813	1.758	1.805	1.687	1.841	1.608	1.480	1.542	1.510
420.0	73.22	154.1	212.2	267.4	286.0	294.3	301.7	317.3	331.2	354.8	368.6	369.8	344.0	317.1	272.4	236.4	217.4	205.9	195.9	188.1	182.9	177.5	173.4	165.3	154.7	142.5	132.1	123.4	119.2	134.8	112.7	72.00	53.58	41.34	31.80	30.13	57.18	140.2	325.5	 1870	 3543	223.6	10.53	1.762	1.207	1.149	1.002	0.922	1.071	0.872	1.126	1.215	1.292	1.361	1.316	1.381	1.401	1.563	1.471	1.597	1.709	1.559	1.802	1.717	1.737	1.751	1.666	1.616	1.599	1.603	1.654	1.646	1.571	1.544	1.493	1.414	1.369
425.0	74.39	146.2	201.4	258.2	278.1	290.7	299.6	312.2	329.2	347.7	357.5	359.0	328.4	300.1	259.7	224.8	210.4	195.9	190.3	184.0	177.5	174.2	168.0	162.3	153.9	143.2	131.8	123.8	116.6	122.7	129.0	89.73	59.12	46.43	35.09	27.97	27.89	42.44	81.30	483.3	 2422	 2919	191.8	3.628	1.464	1.337	1.051	0.987	1.078	0.937	1.090	1.255	1.268	1.280	1.281	1.375	1.479	1.573	1.429	1.530	1.521	1.654	1.596	1.600	1.838	1.636	1.565	1.720	1.577	1.620	1.639	1.558	1.660	1.395	1.348	1.460	1.355
430.0	73.00	133.5	200.3	246.2	270.7	281.1	293.0	308.7	318.9	338.5	342.7	337.1	311.9	283.5	246.2	212.7	199.1	187.2	180.9	176.2	172.1	168.0	164.2	159.3	152.2	144.2	135.7	127.8	119.2	114.4	118.7	112.2	78.61	53.27	40.63	31.11	25.00	23.29	28.26	115.8	630.4	 1883	 2145	724.9	11.20	1.764	1.247	1.133	1.126	1.012	1.129	1.260	1.223	1.261	1.272	1.339	1.459	1.513	1.568	1.571	1.464	1.634	1.597	1.497	1.758	1.664	1.552	1.526	1.494	1.587	1.511	1.423	1.327	1.323	1.293	1.299	1.209
435.0	76.00	126.1	192.1	236.3	265.7	276.8	285.0	304.7	313.3	328.5	330.7	323.1	295.8	260.3	233.4	203.6	188.6	178.9	172.0	165.0	163.5	161.8	158.3	153.2	149.1	143.8	136.2	130.2	122.7	115.5	107.9	107.8	102.3	68.37	46.87	35.81	27.90	22.42	19.14	35.68	147.3	430.2	 1056	 2879	 1100	14.43	1.806	1.374	1.181	1.087	1.067	1.200	1.402	1.254	1.383	1.420	1.534	1.468	1.470	1.499	1.635	1.533	1.596	1.516	1.583	1.660	1.394	1.554	1.451	1.462	1.365	1.344	1.349	1.204	1.217	1.241	1.131
440.0	106.6	116.7	179.8	233.5	259.6	273.7	279.9	299.8	308.5	320.9	317.6	309.5	283.8	250.8	218.9	192.5	178.4	170.2	165.3	159.2	155.3	154.0	152.4	151.4	147.1	142.6	135.1	131.3	123.5	117.7	107.2	100.2	103.1	83.76	54.29	39.78	31.10	24.12	18.67	19.17	40.79	102.3	259.5	 1662	 3017	203.3	6.579	1.576	1.269	1.202	1.132	1.241	1.444	1.389	1.287	1.452	1.539	1.372	1.479	1.554	1.446	1.555	1.556	1.634	1.691	1.473	1.452	1.421	1.455	1.440	1.312	1.435	1.306	1.091	1.050	1.246	1.148
445.0	133.8	120.6	173.6	226.9	257.1	267.6	276.0	293.3	298.3	309.1	311.8	296.8	269.4	238.8	209.1	184.5	172.1	161.7	157.3	151.7	150.0	147.2	147.5	145.6	143.9	139.4	132.1	128.5	125.0	117.7	106.8	97.05	93.45	91.99	64.89	43.28	33.26	26.84	20.05	16.80	18.52	30.07	63.86	446.6	 2266	 1682	141.3	2.983	1.485	1.314	1.228	1.273	1.316	1.258	1.292	1.399	1.442	1.317	1.396	1.558	1.433	1.421	1.476	1.567	1.588	1.445	1.362	1.309	1.333	1.346	1.300	1.275	1.227	1.139	1.210	1.080	1.105
450.0	144.0	200.1	174.6	212.9	244.9	255.1	263.9	273.3	282.8	291.8	291.3	278.0	251.9	222.2	193.3	170.7	158.7	150.0	145.3	140.2	139.3	138.8	138.6	136.6	135.0	132.8	128.2	125.0	120.6	115.4	106.2	94.69	84.12	82.63	75.87	54.70	37.89	29.18	23.32	18.16	15.80	15.56	21.09	105.3	594.4	 1563	 1885	611.1	8.870	1.589	1.350	1.340	1.372	1.276	1.255	1.284	1.414	1.397	1.410	1.489	1.409	1.422	1.470	1.570	1.393	1.383	1.367	1.326	1.308	1.221	1.231	1.209	1.067	1.051	1.031	1.040	0.997
455.0	99.11	358.3	228.6	199.6	219.7	238.8	253.5	257.3	261.9	270.7	268.9	253.2	229.7	205.7	175.7	153.3	145.4	137.6	131.1	128.6	127.7	127.0	125.3	126.2	125.5	124.2	120.5	118.8	115.8	110.4	102.7	92.13	80.24	72.47	69.62	66.03	45.86	31.85	25.27	20.26	16.36	13.96	12.55	29.61	137.2	358.9	982.0	 2415	859.2	10.60	1.598	1.453	1.341	1.281	1.253	1.254	1.308	1.263	1.344	1.374	1.410	1.400	1.443	1.466	1.289	1.282	1.327	1.237	1.277	1.160	1.154	1.076	1.178	1.025	0.934	0.924	1.084
460.0	64.72	419.2	419.6	196.7	204.7	221.6	234.9	243.8	249.9	256.1	253.3	238.2	211.7	188.1	161.9	143.6	133.9	126.5	122.3	120.6	119.3	119.3	118.5	118.5	117.9	116.3	113.8	113.2	110.0	106.0	98.77	89.23	77.56	68.80	61.56	63.65	54.92	34.81	26.78	21.57	17.46	13.87	11.29	13.27	35.67	84.15	240.2	 1395	 2340	150.1	5.932	1.661	1.446	1.384	1.257	1.247	1.327	1.302	1.266	1.263	1.335	1.282	1.316	1.331	1.307	1.253	1.197	1.122	1.145	1.153	1.081	1.033	0.941	0.988	0.923	0.808	0.893
465.0	46.16	327.6	724.0	261.4	194.6	207.7	221.4	230.5	239.8	242.9	239.8	226.0	199.8	173.8	151.0	134.7	124.9	118.0	115.3	112.1	110.9	108.7	110.7	112.7	108.9	108.6	107.4	106.0	103.6	100.3	95.13	86.63	75.73	65.86	57.23	56.23	56.53	42.02	28.69	22.44	18.37	14.98	11.59	10.38	13.66	23.18	57.54	371.8	 1815	 1250	112.1	2.688	1.602	1.503	1.336	1.221	1.268	1.210	1.251	1.230	1.244	1.240	1.258	1.175	1.265	1.230	1.101	1.219	1.138	1.084	0.976	1.010	0.901	0.909	0.864	0.803	0.854
470.0	43.75	157.3	793.9	722.7	216.1	190.9	204.4	209.3	218.5	220.1	219.0	203.9	179.0	157.4	137.6	120.7	110.4	104.8	102.2	100.5	97.88	98.10	98.83	99.97	98.57	98.28	97.45	97.28	95.08	92.62	88.92	80.58	71.19	62.35	54.19	48.71	47.63	46.44	34.36	23.82	18.87	15.28	12.20	10.35	9.192	9.948	16.85	86.56	484.4	 1189	 1358	507.5	8.437	1.706	1.451	1.295	1.325	1.206	1.165	1.216	1.198	1.227	1.173	1.148	1.117	1.116	1.076	1.009	1.069	0.993	0.953	0.882	0.816	0.794	0.782	0.766	0.780
475.0	44.37	85.12	408.9	 1291	438.1	169.2	182.7	186.7	191.2	197.2	196.8	184.2	163.7	140.1	120.6	107.5	99.39	91.67	89.86	88.47	87.11	87.24	87.86	88.41	87.33	87.33	86.89	86.09	86.37	84.79	80.83	73.91	65.68	57.89	50.33	45.00	40.58	39.53	39.38	28.12	19.39	15.49	12.77	10.23	8.530	7.695	8.016	22.78	110.7	271.9	666.2	 1709	176.7	10.19	1.585	1.332	1.343	1.191	1.116	1.100	1.104	1.169	1.048	1.030	1.060	0.997	0.920	0.964	0.887	0.873	0.856	0.872	0.713	0.745	0.696	0.714	0.695
480.0	45.78	72.67	191.2	 1182	 1029	187.1	168.9	176.3	177.5	184.1	179.1	166.7	150.7	132.7	111.3	97.16	89.47	85.30	82.59	81.85	79.26	79.34	80.30	82.13	81.16	79.65	78.59	80.24	79.34	78.23	74.83	68.63	61.76	54.80	47.65	41.49	37.75	33.82	37.37	33.05	21.09	16.15	13.24	10.80	8.752	7.349	6.350	8.717	27.84	63.32	163.0	926.4	 1413	161.5	4.991	1.497	1.398	1.182	1.156	1.062	1.074	1.057	1.004	1.035	1.032	0.947	0.811	0.864	0.867	0.834	0.840	0.772	0.719	0.679	0.599	0.608	0.600
485.0	46.44	59.58	115.5	700.0	 1562	335.8	160.0	162.5	170.9	170.5	167.5	156.5	139.4	122.4	104.0	91.36	82.45	79.12	76.69	75.78	72.44	73.52	75.01	73.95	74.56	74.24	72.85	73.82	73.79	72.88	69.75	65.05	57.69	51.90	46.03	39.93	35.78	30.80	31.30	34.00	24.78	16.60	13.16	11.06	8.830	7.627	6.418	6.029	9.622	16.90	39.14	240.4	 1190	 1350	23.74	2.566	1.460	1.279	1.179	1.180	0.979	1.008	0.985	1.011	0.945	0.910	0.916	0.784	0.811	0.743	0.764	0.699	0.735	0.714	0.514	0.602	0.569
490.0	37.41	66.59	92.45	275.5	 1341	 1034	192.4	146.8	152.5	155.5	154.1	143.8	126.9	109.9	93.34	81.57	74.71	71.64	67.16	68.00	65.95	65.83	66.19	67.21	67.37	66.45	66.31	66.36	66.77	66.96	63.56	59.18	53.51	48.10	42.52	37.67	33.08	29.11	27.04	28.39	28.09	20.47	14.14	11.53	9.354	8.076	7.050	5.777	6.160	7.026	11.72	56.46	312.7	942.3	 1241	455.2	8.978	1.413	1.228	1.096	0.999	0.930	0.893	0.877	0.877	0.840	0.811	0.751	0.695	0.695	0.701	0.640	0.734	0.627	0.528	0.521	0.560
495.0	32.15	71.72	89.88	136.0	566.6	 1602	368.5	134.7	139.4	138.2	136.3	128.7	109.8	97.19	84.60	73.60	65.89	63.54	60.24	59.92	58.53	57.66	58.92	59.18	59.78	59.10	58.61	58.65	59.28	60.10	57.38	52.75	48.00	43.07	39.02	34.27	30.51	27.02	24.35	22.67	24.39	24.22	16.85	11.74	9.934	8.497	7.325	6.354	5.827	5.369	5.920	15.66	72.68	216.7	653.9	 1535	193.4	10.26	1.475	1.113	1.099	0.885	0.905	0.883	0.797	0.728	0.834	0.636	0.610	0.644	0.683	0.607	0.587	0.579	0.496	0.661	0.552
500.0	24.60	60.36	83.03	101.9	224.4	 1303	 1140	155.8	126.8	127.0	126.5	116.6	100.6	89.39	75.25	65.46	60.45	58.93	54.60	52.53	52.59	51.72	52.75	53.16	53.85	53.26	53.54	53.85	53.26	53.85	51.33	48.68	44.32	40.27	36.24	31.94	29.09	25.58	23.26	20.66	20.10	23.01	19.88	13.33	10.21	8.613	7.757	6.679	6.061	5.279	5.038	6.849	19.41	51.36	161.2	844.4	 1432	171.1	4.775	1.191	0.979	0.970	0.857	0.890	0.714	0.708	0.697	0.691	0.550	0.554	0.592	0.532	0.512	0.500	0.509	0.547	0.436
505.0	22.79	48.47	89.06	90.53	118.2	718.8	 1658	283.8	116.8	118.0	116.2	105.1	91.75	80.57	69.09	59.54	55.01	52.01	49.06	48.09	48.32	46.72	47.38	47.99	48.69	48.37	48.67	48.48	48.62	48.79	47.80	45.33	40.69	37.70	33.01	30.39	27.01	24.10	22.02	19.25	17.61	18.62	20.64	15.60	10.57	8.951	7.890	6.704	6.040	5.424	4.915	4.851	7.423	14.43	38.96	220.5	 1082	 1236	25.70	2.017	0.997	0.951	0.857	0.878	0.669	0.733	0.664	0.659	0.576	0.546	0.484	0.529	0.501	0.497	0.450	0.496	0.390
510.0	20.78	38.92	79.68	94.88	87.05	257.6	 1274	 1080	155.8	105.6	102.7	92.99	82.31	71.52	61.39	52.64	48.23	44.88	43.02	42.21	41.27	40.65	41.02	41.46	42.15	41.77	42.09	41.78	42.50	42.31	41.98	39.32	36.40	32.89	29.55	27.01	24.55	22.01	20.28	17.78	16.19	15.41	17.09	17.29	12.86	9.216	7.818	6.914	6.391	5.774	5.146	4.770	4.927	6.228	11.42	51.80	281.0	808.3	984.4	354.7	8.708	1.082	0.880	0.824	0.720	0.677	0.602	0.561	0.545	0.527	0.476	0.475	0.441	0.453	0.395	0.437	0.398
515.0	17.08	28.97	59.54	95.76	77.51	116.7	489.8	 1491	566.1	93.91	89.39	82.91	72.24	62.32	51.65	45.14	41.73	39.11	37.25	35.06	35.57	35.42	35.56	34.97	35.42	35.92	35.73	36.64	36.69	36.89	35.79	34.35	31.27	29.21	27.05	23.58	21.47	19.66	17.56	16.53	14.62	13.17	13.15	14.44	15.23	10.73	7.819	6.879	6.372	5.547	5.309	4.876	4.159	4.440	5.171	14.05	64.53	184.1	452.4	 1107	193.5	10.08	0.938	0.788	0.654	0.577	0.602	0.523	0.460	0.404	0.414	0.399	0.495	0.340	0.372	0.379	0.317
520.0	15.03	25.52	46.19	87.94	80.86	80.71	181.1	 1131	 1156	123.8	80.72	74.97	64.05	54.65	45.79	39.61	36.35	34.88	33.26	31.00	30.99	30.86	31.53	31.43	31.56	32.01	32.71	32.53	32.57	32.94	32.37	30.72	28.17	26.00	24.14	21.58	20.12	17.42	16.16	15.09	13.51	12.15	11.52	11.61	14.54	12.25	8.300	6.820	6.083	5.325	5.136	4.517	4.112	3.794	3.772	5.498	16.39	42.62	109.3	597.9	 1020	160.3	3.479	0.762	0.778	0.597	0.608	0.482	0.409	0.396	0.437	0.356	0.372	0.320	0.352	0.334	0.352
525.0	11.93	23.30	37.32	66.72	84.68	67.73	90.81	572.2	 1525	230.0	73.49	69.18	57.69	49.80	41.85	35.57	33.48	30.98	30.37	29.33	28.50	27.90	28.93	28.43	28.52	28.94	29.81	29.59	29.88	29.26	29.07	27.96	25.34	23.77	21.54	19.79	17.98	16.44	15.17	14.00	12.57	11.25	10.68	10.01	12.12	12.99	9.542	6.894	5.949	5.268	4.865	4.282	4.153	3.636	3.393	3.450	5.605	11.23	26.01	154.0	728.4	861.9	25.55	1.470	0.821	0.582	0.561	0.476	0.461	0.387	0.413	0.379	0.346	0.321	0.318	0.290	0.357
530.0	13.66	21.49	32.34	49.54	80.75	66.82	64.10	194.9	 1054	 1060	121.5	59.70	50.37	43.34	36.55	31.40	28.56	27.56	26.03	25.06	24.36	24.65	24.50	24.66	24.35	25.13	25.17	25.54	25.81	25.96	25.10	24.39	22.58	20.55	18.54	17.37	15.94	14.65	13.48	12.61	11.31	10.32	9.526	9.142	9.287	10.83	10.86	8.078	5.848	4.926	4.555	4.144	3.813	3.519	3.074	2.753	2.926	4.039	7.129	35.55	186.0	545.1	676.7	249.9	7.737	0.722	0.511	0.430	0.460	0.372	0.358	0.343	0.315	0.311	0.289	0.297	0.313
535.0	11.55	17.99	27.38	37.57	62.50	74.64	56.48	84.18	375.5	 1302	626.3	51.64	44.97	37.72	31.83	27.17	25.06	22.88	21.90	21.25	20.80	20.81	20.97	21.28	20.72	21.04	20.90	21.75	21.62	22.09	21.76	20.26	19.43	17.53	16.04	14.99	13.40	12.49	11.50	11.03	9.980	9.165	8.500	7.867	7.699	7.717	9.218	9.438	6.379	4.610	4.129	3.740	3.429	3.120	2.840	2.521	2.207	2.217	2.746	8.877	42.34	123.6	294.2	755.5	187.5	8.881	0.633	0.480	0.483	0.326	0.316	0.288	0.350	0.309	0.268	0.238	0.260
540.0	10.03	19.28	27.12	35.03	45.33	70.60	53.48	56.58	130.8	886.1	 1182	102.0	39.87	33.51	28.73	23.94	22.23	20.23	19.00	18.81	18.86	18.70	18.36	18.91	18.67	19.17	18.40	18.97	18.86	19.49	19.53	18.42	17.42	15.61	14.36	13.28	12.55	11.35	10.63	9.789	9.239	8.636	7.395	7.024	6.946	6.690	7.355	8.928	7.316	5.016	4.048	3.562	3.337	2.898	2.530	2.370	2.192	1.674	1.765	2.892	10.35	28.52	70.23	388.9	720.5	149.1	2.746	0.544	0.430	0.345	0.319	0.254	0.344	0.238	0.266	0.273	0.251
545.0	11.77	20.15	27.17	31.06	34.04	62.12	59.42	46.18	65.46	426.0	 1348	383.8	35.77	30.11	26.42	22.06	19.39	18.29	17.89	16.99	16.65	16.49	16.66	16.84	16.69	17.05	16.65	16.89	16.90	17.67	17.77	16.45	15.65	13.85	12.79	11.95	11.23	10.19	9.742	8.918	8.287	7.779	7.124	6.531	6.363	5.893	5.814	7.391	7.748	5.421	4.020	3.505	2.974	2.742	2.489	2.220	2.115	1.654	1.469	1.576	3.131	7.229	16.56	98.79	488.1	619.3	25.34	1.073	0.407	0.387	0.299	0.278	0.299	0.217	0.212	0.251	0.194
550.0	11.24	19.25	24.93	27.20	29.16	42.89	61.36	42.99	44.20	140.4	809.0	982.1	87.43	26.54	22.34	18.95	16.82	15.61	15.03	14.52	14.20	14.14	14.08	14.42	14.47	14.27	14.45	14.50	14.67	14.99	15.06	14.27	13.13	12.23	10.88	10.25	9.403	8.723	8.181	7.770	7.332	6.902	6.276	5.839	5.509	5.346	4.980	5.436	6.350	5.811	4.394	3.139	2.637	2.416	2.115	2.039	1.889	1.573	1.366	1.225	1.469	2.374	4.432	22.73	123.5	373.2	473.1	110.6	6.845	0.485	0.337	0.284	0.258	0.228	0.202	0.193	0.188
555.0	9.771	17.13	20.75	22.37	23.35	30.84	48.86	50.98	37.60	56.92	264.2	973.5	573.7	25.03	19.60	16.36	14.34	13.39	12.77	12.32	11.67	11.98	11.38	11.78	12.08	11.52	11.90	12.27	11.97	12.28	12.23	11.73	10.94	10.16	9.266	8.683	7.780	7.405	7.135	6.541	6.172	5.951	5.352	5.073	4.767	4.664	4.338	4.076	4.419	5.342	4.849	3.412	2.341	2.130	1.807	1.807	1.572	1.401	1.318	1.060	1.088	1.177	1.657	5.680	28.02	84.39	196.2	494.2	175.3	6.604	0.400	0.274	0.273	0.218	0.191	0.214	0.180
560.0	10.25	16.61	21.75	20.54	20.35	23.59	37.32	51.01	34.06	36.97	84.63	595.8	982.2	77.45	16.62	14.19	12.41	11.62	10.93	10.59	10.48	10.49	9.722	10.43	10.09	10.36	10.44	9.942	10.63	10.44	10.71	10.40	9.422	8.587	7.885	7.738	6.895	6.506	6.446	5.691	5.472	5.193	4.888	4.483	4.172	4.114	3.794	3.559	3.621	3.999	4.752	3.760	2.301	1.925	1.702	1.591	1.345	1.276	1.222	1.085	0.924	0.871	0.996	1.816	6.833	19.32	46.48	249.5	489.7	123.1	1.984	0.325	0.213	0.188	0.218	0.234	0.190
565.0	9.122	16.26	20.20	19.60	17.33	19.36	29.25	46.87	35.41	30.18	40.00	259.1	989.2	356.1	15.01	12.35	11.03	9.981	9.354	8.988	9.106	8.291	8.496	8.888	8.709	9.310	8.815	9.078	9.362	8.669	8.878	8.746	8.191	7.525	6.815	6.585	5.759	5.769	5.421	4.946	4.533	4.425	4.181	3.790	3.646	3.519	3.318	3.219	3.055	3.094	3.785	3.920	2.390	1.813	1.567	1.437	1.268	1.065	1.076	1.086	0.906	0.865	0.783	0.907	2.007	4.775	10.84	62.30	309.0	402.7	24.15	0.694	0.258	0.199	0.206	0.194	0.154
570.0	10.25	17.31	20.06	15.15	15.12	16.95	20.45	36.09	41.71	26.76	27.21	81.13	529.5	776.4	64.18	9.966	8.636	8.162	7.541	7.468	6.910	6.903	6.877	7.243	6.908	7.176	6.869	7.229	7.279	7.100	7.114	6.876	6.424	5.836	5.523	5.288	4.804	4.584	4.247	4.028	3.732	3.541	3.581	3.118	3.015	2.858	2.747	2.473	2.386	2.364	2.627	3.129	2.588	1.862	1.392	1.199	1.043	0.916	0.882	0.830	0.820	0.730	0.654	0.648	0.876	1.502	2.839	14.26	77.06	227.9	241.4	97.00	5.298	0.276	0.209	0.217	0.146
575.0	10.12	14.76	17.74	15.61	11.52	13.67	14.94	23.86	39.11	30.79	21.51	34.44	160.8	644.0	492.6	11.69	6.892	6.505	5.988	5.700	5.414	5.547	5.342	5.398	5.484	5.324	5.837	5.369	5.603	5.603	5.482	5.231	4.842	4.785	4.259	3.996	3.915	3.656	3.294	2.980	3.017	2.755	2.823	2.451	2.445	2.102	2.197	1.978	1.804	1.777	1.646	1.915	2.351	1.950	1.183	1.014	0.828	0.734	0.735	0.654	0.764	0.696	0.690	0.563	0.589	0.700	0.931	3.541	17.47	51.55	101.9	276.7	124.4	3.828	0.220	0.188	0.153
580.0	10.32	14.58	18.13	14.30	10.92	11.87	12.32	18.22	33.32	34.82	22.39	23.35	49.58	357.9	762.4	61.64	6.095	5.516	5.139	4.637	4.676	4.559	4.553	4.679	4.578	4.342	4.581	4.416	4.567	4.456	4.677	4.168	3.838	3.686	3.612	3.375	3.274	2.982	2.867	2.615	2.626	2.187	2.144	2.045	2.092	1.856	1.758	1.605	1.529	1.424	1.362	1.325	1.688	1.886	1.315	0.928	0.764	0.722	0.600	0.600	0.562	0.585	0.604	0.472	0.461	0.497	0.518	1.131	4.224	11.79	24.28	134.1	262.4	27.16	1.025	0.166	0.125
585.0	9.571	16.40	15.57	11.04	10.52	9.442	10.78	14.10	27.49	37.54	22.86	20.28	23.87	147.6	690.8	317.3	5.736	5.049	4.497	3.953	3.944	3.897	3.827	3.832	3.755	3.491	3.871	3.572	3.662	4.006	3.832	3.598	3.422	3.085	2.968	2.830	2.799	2.586	2.340	2.172	2.235	1.882	1.764	1.733	1.672	1.541	1.479	1.281	1.281	1.198	1.126	1.034	1.205	1.686	1.389	1.066	0.630	0.629	0.541	0.519	0.527	0.458	0.540	0.484	0.421	0.423	0.449	0.557	1.238	2.877	5.640	33.31	160.8	204.7	20.91	0.437	0.191
590.0	9.835	13.28	13.77	10.36	8.773	8.808	9.960	12.39	18.64	32.06	28.95	19.23	18.25	45.05	331.2	604.1	48.58	4.185	3.580	3.552	3.274	3.093	3.065	3.109	3.051	2.992	2.978	3.052	2.947	3.207	3.097	2.907	2.775	2.599	2.409	2.331	2.192	2.043	1.902	1.729	1.710	1.511	1.482	1.416	1.432	1.297	1.215	1.107	1.041	0.958	0.943	0.871	0.875	1.044	1.287	1.125	0.774	0.496	0.451	0.445	0.447	0.393	0.435	0.454	0.454	0.362	0.406	0.382	0.571	0.840	1.489	7.666	39.91	115.1	146.8	60.51	3.212
595.0	9.209	13.11	13.03	10.23	8.553	8.659	8.450	10.92	14.27	24.32	35.35	21.98	16.33	18.47	93.23	442.0	412.5	6.793	3.206	2.920	2.748	2.602	2.535	2.674	2.499	2.363	2.400	2.444	2.368	2.569	2.360	2.399	2.211	2.093	1.785	1.965	1.653	1.640	1.597	1.447	1.255	1.316	1.128	1.196	0.980	1.065	1.034	0.931	0.833	0.769	0.772	0.692	0.658	0.724	0.872	0.969	0.870	0.482	0.449	0.353	0.331	0.307	0.367	0.384	0.433	0.422	0.325	0.337	0.395	0.417	0.537	1.928	9.081	25.99	56.40	147.6	29.44
600.0	8.034	13.86	13.49	8.618	7.213	7.517	7.765	9.657	12.93	20.04	32.14	25.35	14.83	12.86	27.11	219.2	602.0	50.55	2.704	2.631	2.381	2.305	2.292	2.250	2.083	2.165	2.095	2.089	2.331	2.182	2.193	2.095	1.932	1.712	1.692	1.543	1.452	1.386	1.387	1.096	1.065	1.033	0.963	0.930	0.933	0.925	0.819	0.757	0.728	0.723	0.651	0.574	0.530	0.526	0.561	0.834	0.835	0.656	0.367	0.312	0.308	0.276	0.281	0.326	0.353	0.431	0.390	0.289	0.275	0.334	0.346	0.579	2.195	5.970	13.31	68.98	132.7
605.0	8.492	11.04	12.39	9.416	6.076	6.447	8.378	9.627	11.59	15.60	27.05	27.99	15.39	10.79	11.49	80.81	504.3	270.5	3.017	2.180	2.063	2.078	2.052	1.936	1.922	1.832	1.847	1.904	1.710	1.869	1.869	1.867	1.698	1.713	1.620	1.407	1.349	1.201	1.150	0.950	0.958	0.920	0.839	0.838	0.824	0.769	0.739	0.739	0.671	0.582	0.607	0.547	0.456	0.492	0.449	0.690	0.901	0.669	0.417	0.302	0.273	0.267	0.312	0.335	0.293	0.381	0.388	0.254	0.237	0.278	0.273	0.288	0.623	1.487	3.122	17.21	82.13
610.0	7.727	9.808	10.36	7.553	6.168	6.294	7.200	8.338	10.84	14.32	21.39	29.77	19.45	10.92	7.863	22.79	218.6	485.7	82.11	2.140	1.762	1.753	1.687	1.687	1.699	1.581	1.550	1.540	1.548	1.624	1.575	1.586	1.551	1.498	1.479	1.335	1.250	1.046	0.958	0.856	0.791	0.841	0.697	0.666	0.617	0.650	0.602	0.571	0.578	0.481	0.484	0.419	0.385	0.387	0.366	0.444	0.630	0.675	0.524	0.360	0.262	0.276	0.248	0.288	0.249	0.294	0.327	0.299	0.267	0.244	0.237	0.213	0.272	0.486	0.836	3.989	20.31
615.0	7.954	11.35	9.251	8.940	5.483	5.622	6.748	7.867	11.24	14.40	17.41	25.34	24.31	11.22	7.479	8.464	58.38	318.6	366.2	6.623	1.646	1.387	1.337	1.333	1.353	1.299	1.312	1.153	1.302	1.301	1.269	1.313	1.197	1.298	1.230	1.190	1.075	0.926	0.831	0.822	0.632	0.625	0.598	0.578	0.557	0.622	0.542	0.472	0.444	0.423	0.367	0.350	0.326	0.303	0.325	0.303	0.384	0.496	0.547	0.411	0.302	0.240	0.251	0.258	0.235	0.222	0.270	0.240	0.322	0.258	0.229	0.168	0.193	0.231	0.292	1.007	4.648
620.0	7.441	9.638	8.424	7.728	5.528	5.490	6.209	7.351	11.38	13.16	16.16	21.24	26.25	14.17	7.238	5.674	15.43	142.4	494.6	46.80	1.591	1.391	1.338	1.090	1.285	1.162	1.154	1.030	1.110	1.184	1.061	1.116	1.086	1.032	1.083	0.971	0.880	0.751	0.653	0.633	0.556	0.491	0.451	0.499	0.445	0.472	0.471	0.450	0.423	0.403	0.330	0.375	0.286	0.292	0.290	0.237	0.299	0.326	0.443	0.538	0.316	0.203	0.205	0.246	0.223	0.214	0.263	0.229	0.306	0.286	0.183	0.149	0.162	0.192	0.229	0.342	1.145
625.0	6.230	10.18	9.007	8.457	5.364	5.478	6.361	7.730	9.949	12.62	14.94	18.43	24.09	17.28	7.661	4.832	5.793	49.10	384.5	253.8	2.189	1.416	1.153	1.152	1.168	0.881	1.028	0.949	1.052	1.014	0.904	1.006	1.002	0.866	0.849	0.816	0.772	0.699	0.607	0.568	0.552	0.487	0.444	0.453	0.478	0.431	0.363	0.398	0.321	0.350	0.321	0.309	0.244	0.247	0.237	0.246	0.237	0.227	0.335	0.436	0.325	0.274	0.226	0.243	0.238	0.213	0.269	0.223	0.222	0.270	0.240	0.154	0.165	0.123	0.171	0.194	0.359
630.0	6.569	9.121	8.910	8.139	4.531	5.446	5.787	6.893	10.44	12.33	14.94	16.70	20.20	20.30	9.306	5.129	3.841	13.46	151.4	404.4	79.75	1.468	1.051	1.015	0.995	0.900	0.874	0.869	0.918	0.816	0.783	0.827	0.805	0.783	0.726	0.739	0.709	0.592	0.493	0.481	0.529	0.409	0.415	0.387	0.349	0.398	0.342	0.308	0.301	0.313	0.258	0.242	0.235	0.234	0.219	0.204	0.208	0.204	0.227	0.309	0.303	0.341	0.253	0.212	0.188	0.186	0.233	0.210	0.190	0.230	0.250	0.196	0.157	0.148	0.151	0.160	0.183
635.0	7.051	8.190	8.828	6.708	4.636	6.130	6.174	7.156	10.86	12.76	15.01	15.15	17.24	20.27	12.30	5.257	3.482	4.934	38.40	231.3	321.0	5.249	1.132	1.019	0.922	0.780	0.717	0.730	0.772	0.754	0.745	0.790	0.689	0.684	0.599	0.590	0.642	0.477	0.496	0.371	0.422	0.365	0.327	0.311	0.309	0.335	0.312	0.278	0.261	0.253	0.207	0.251	0.192	0.200	0.174	0.162	0.191	0.173	0.206	0.224	0.266	0.285	0.244	0.157	0.179	0.207	0.195	0.230	0.212	0.160	0.220	0.226	0.197	0.115	0.129	0.158	0.157
640.0	5.662	9.490	9.530	7.095	4.875	6.804	6.466	7.297	9.927	12.37	14.75	16.64	15.53	18.14	15.09	5.631	3.647	3.028	10.18	92.50	412.6	42.77	1.191	0.904	0.747	0.828	0.708	0.743	0.738	0.661	0.717	0.672	0.589	0.616	0.546	0.502	0.495	0.450	0.422	0.383	0.350	0.325	0.330	0.253	0.260	0.232	0.282	0.254	0.235	0.208	0.174	0.224	0.183	0.163	0.147	0.133	0.190	0.172	0.174	0.185	0.230	0.290	0.205	0.199	0.220	0.193	0.206	0.205	0.177	0.185	0.179	0.201	0.199	0.130	0.136	0.152	0.136
645.0	4.697	8.342	10.00	7.091	5.308	5.658	6.349	8.123	10.62	12.32	14.70	17.08	15.60	16.05	16.63	6.814	3.554	2.442	4.067	28.77	297.8	223.4	2.056	0.980	0.729	0.791	0.637	0.767	0.708	0.660	0.583	0.599	0.568	0.538	0.443	0.466	0.449	0.432	0.419	0.344	0.309	0.280	0.253	0.254	0.274	0.254	0.269	0.238	0.217	0.231	0.197	0.209	0.186	0.137	0.131	0.164	0.179	0.145	0.164	0.169	0.226	0.214	0.257	0.213	0.190	0.165	0.170	0.219	0.160	0.184	0.184	0.184	0.174	0.198	0.136	0.153	0.085
650.0	5.540	8.781	7.874	7.142	5.785	4.920	5.992	7.831	10.28	12.34	15.12	16.17	15.39	14.00	15.46	9.676	3.439	2.506	2.395	7.819	135.5	366.0	21.88	0.941	0.784	0.814	0.644	0.663	0.642	0.649	0.628	0.596	0.490	0.435	0.434	0.456	0.437	0.384	0.396	0.350	0.261	0.276	0.230	0.241	0.249	0.243	0.284	0.208	0.212	0.193	0.174	0.168	0.191	0.142	0.122	0.197	0.185	0.141	0.131	0.151	0.167	0.193	0.228	0.221	0.237	0.185	0.141	0.213	0.153	0.163	0.155	0.177	0.174	0.164	0.147	0.127	0.127
