Sample:	'1
File name:	t2025042408农业综合开发158桥.FD3
Run date:	'12:54:38, 04/27/2025
Operator:	Administrator
Comment:	'

Instrument
Model:	F-2700 FL Spectrophotometer
Serial number:	23B8-004
ROM Version:	4J14000 07

Instrument parameters
Measurement type:	3-D scan
Data mode:	Fluorescence
EX  Start WL:	220.0 nm
EX  End WL:	600.0 nm
EX Sampling interval:	5.0 nm
EM  Start WL:	230.0 nm
EM  End WL:	650.0 nm
EM Sampling interval:	5.0 nm
Scan speed:	12000 nm/min
EX Slit:	5.0 nm
EM Slit:	5.0 nm
PMT Voltage:	700 V
Response:	Auto 
Corrected spectra:	Off
Contour interval:	50.000

Peak integration
Integration method:	Rectangular
Sensitivity:	1
Threshold:	1.000

Peaks
No.	ApexEX/EM(nm)	Height(Data)
1	225.0/555.0	69.85
2	225.0/575.0	67.76
3	225.0/585.0	69.91
4	230.0/345.0	1086
5	230.0/500.0	290.5
6	235.0/510.0	246.8
7	240.0/525.0	221.0
8	245.0/270.0	366.0
9	245.0/535.0	181.8
10	250.0/275.0	478.9
11	250.0/550.0	155.1
12	255.0/280.0	527.4
13	255.0/565.0	127.7
14	260.0/290.0	536.2
15	260.0/575.0	112.6
16	265.0/295.0	714.6
17	265.0/585.0	96.03
18	270.0/300.0	973.7
19	270.0/600.0	90.48
20	275.0/305.0	1023
21	275.0/340.0	817.8
22	275.0/610.0	79.97
23	280.0/625.0	66.50
24	285.0/320.0	908.8
25	285.0/635.0	50.65
26	290.0/325.0	806.1
27	305.0/345.0	530.0
28	315.0/355.0	418.2
29	320.0/365.0	396.7
30	330.0/375.0	357.7
31	335.0/380.0	345.4
32	350.0/400.0	304.8
33	425.0/500.0	33.00
34	440.0/520.0	19.55
35	455.0/540.0	10.61
36	460.0/345.0	3.382
37	485.0/265.0	2.602
38	505.0/275.0	3.586
39	510.0/280.0	3.624
40	520.0/285.0	4.238
41	530.0/290.0	4.048
42	540.0/295.0	5.687
43	545.0/300.0	6.240
44	550.0/305.0	6.634
45	560.0/310.0	6.348
46	570.0/315.0	6.320
47	575.0/320.0	6.190
48	585.0/325.0	6.279
49	590.0/330.0	5.298

Data points
	220.0	225.0	230.0	235.0	240.0	245.0	250.0	255.0	260.0	265.0	270.0	275.0	280.0	285.0	290.0	295.0	300.0	305.0	310.0	315.0	320.0	325.0	330.0	335.0	340.0	345.0	350.0	355.0	360.0	365.0	370.0	375.0	380.0	385.0	390.0	395.0	400.0	405.0	410.0	415.0	420.0	425.0	430.0	435.0	440.0	445.0	450.0	455.0	460.0	465.0	470.0	475.0	480.0	485.0	490.0	495.0	500.0	505.0	510.0	515.0	520.0	525.0	530.0	535.0	540.0	545.0	550.0	555.0	560.0	565.0	570.0	575.0	580.0	585.0	590.0	595.0	600.0
230.0	57.20	1119	3203	816.4	49.63	8.541	6.699	6.223	5.552	5.012	4.078	3.417	3.179	2.900	2.383	2.188	1.884	1.574	1.370	1.416	1.218	1.071	1.092	1.027	0.983	0.858	0.851	0.812	0.814	0.769	0.721	0.739	0.651	0.639	0.596	0.562	0.605	0.512	0.539	0.483	0.539	0.543	0.634	0.550	0.448	0.441	1.001	4.110	8.093	6.466	2.920	0.856	0.432	0.391	0.390	0.408	0.383	0.383	0.402	0.401	0.421	0.431	0.396	0.419	0.395	0.407	0.404	0.426	0.422	0.440	0.428	0.429	0.431	0.433	0.435	0.451	0.465
235.0	84.92	319.3	2200	3933	582.8	47.24	8.232	6.720	5.797	5.316	4.096	3.808	3.413	3.093	2.753	2.068	1.750	1.482	1.489	1.429	1.277	1.063	1.077	0.988	0.977	0.819	0.899	0.850	0.785	0.789	0.770	0.735	0.594	0.674	0.508	0.591	0.613	0.489	0.469	0.500	0.541	0.462	0.564	0.633	0.600	0.548	0.561	1.329	3.050	6.030	9.764	10.80	5.494	1.488	0.513	0.388	0.444	0.378	0.422	0.451	0.373	0.455	0.363	0.415	0.470	0.390	0.384	0.401	0.392	0.435	0.414	0.375	0.384	0.450	0.476	0.433	0.406
240.0	143.0	157.0	675.4	3697	4317	421.8	25.21	8.271	7.150	6.236	4.904	4.225	3.868	2.958	2.700	2.321	1.974	1.316	1.441	1.482	1.269	1.112	1.170	0.890	1.030	0.948	0.830	0.825	0.865	0.738	0.839	0.761	0.653	0.592	0.593	0.598	0.550	0.487	0.471	0.546	0.529	0.447	0.509	0.615	0.685	0.718	0.579	0.691	1.004	1.909	5.157	12.23	16.26	12.71	4.764	1.094	0.547	0.461	0.433	0.379	0.396	0.472	0.414	0.457	0.427	0.434	0.422	0.421	0.410	0.417	0.380	0.412	0.445	0.396	0.437	0.502	0.439
245.0	107.3	191.9	221.6	1342	4945	3118	303.0	14.88	7.765	6.936	5.490	4.702	4.251	2.878	2.780	2.439	2.013	1.504	1.494	1.443	1.273	1.216	1.094	0.957	1.103	1.063	0.841	0.804	0.841	0.747	0.746	0.712	0.612	0.651	0.591	0.630	0.536	0.557	0.540	0.534	0.552	0.456	0.488	0.532	0.608	0.769	0.976	0.845	0.696	0.728	1.466	4.109	10.69	19.42	20.32	12.00	3.522	0.650	0.437	0.421	0.385	0.369	0.474	0.428	0.425	0.458	0.454	0.389	0.421	0.385	0.416	0.468	0.490	0.453	0.422	0.460	0.431
250.0	63.98	149.9	244.8	394.2	1640	3379	3704	1185	70.34	9.751	7.126	5.364	4.376	3.533	3.190	2.380	2.298	1.869	1.767	1.433	1.276	1.472	1.153	1.046	1.087	1.007	0.899	0.911	0.804	0.819	0.768	0.776	0.657	0.718	0.588	0.597	0.575	0.616	0.563	0.548	0.522	0.535	0.524	0.532	0.525	0.555	0.668	0.866	1.116	0.896	0.905	1.326	2.882	6.105	11.38	17.90	23.62	21.33	12.48	3.750	0.690	0.432	0.434	0.483	0.427	0.428	0.446	0.428	0.433	0.426	0.445	0.433	0.425	0.477	0.430	0.487	0.421
255.0	53.25	64.05	183.1	340.8	449.1	885.1	3213	6546	1665	78.81	9.144	7.278	4.894	4.534	3.784	2.914	2.540	1.856	1.868	1.510	1.266	1.315	1.195	1.068	1.130	1.054	0.961	0.923	0.997	0.853	0.753	0.836	0.691	0.769	0.580	0.474	0.541	0.540	0.541	0.497	0.574	0.532	0.520	0.474	0.536	0.465	0.512	0.589	0.730	0.926	1.600	1.460	1.363	1.801	2.924	4.473	8.107	19.31	36.66	32.62	19.75	4.283	0.699	0.503	0.478	0.502	0.442	0.482	0.507	0.465	0.457	0.458	0.419	0.431	0.446	0.504	0.476
260.0	44.61	45.02	87.85	286.3	334.3	245.9	1024	5738	7708	1336	28.48	8.832	6.416	5.444	4.123	3.393	2.873	2.067	1.835	1.424	1.517	1.260	1.280	1.162	1.162	1.079	0.932	1.025	0.863	0.880	0.810	0.822	0.713	0.678	0.708	0.464	0.582	0.546	0.585	0.719	0.625	0.481	0.641	0.508	0.511	0.509	0.479	0.565	0.456	0.657	1.134	1.847	2.003	1.365	1.149	1.432	2.270	5.394	15.33	33.06	50.18	31.04	15.40	2.297	0.590	0.504	0.502	0.489	0.517	0.517	0.447	0.561	0.433	0.373	0.537	0.441	0.549
265.0	48.04	41.06	50.51	150.6	372.0	224.2	265.0	2042	8811	8871	204.5	14.92	8.215	5.933	4.799	3.619	3.125	2.596	2.141	1.617	1.563	1.429	1.625	1.390	1.078	1.176	0.933	1.056	0.882	0.888	0.927	0.877	0.802	0.766	0.659	0.553	0.580	0.552	0.576	0.687	0.547	0.487	0.634	0.531	0.501	0.517	0.495	0.525	0.479	0.442	0.633	0.991	1.894	2.602	1.692	0.936	0.975	1.691	3.906	9.680	25.40	47.36	58.68	27.86	9.318	1.047	0.533	0.536	0.521	0.515	0.462	0.512	0.432	0.504	0.483	0.435	0.513
270.0	66.45	52.25	52.95	63.77	192.7	366.0	259.3	512.3	2915	8937	7609	779.5	46.87	8.703	6.578	4.437	3.489	2.849	2.349	2.017	1.694	1.471	1.506	1.363	1.177	1.204	1.101	1.112	0.965	0.919	0.997	0.946	0.811	0.806	0.747	0.614	0.680	0.592	0.554	0.674	0.600	0.597	0.637	0.619	0.506	0.611	0.584	0.550	0.503	0.423	0.453	0.653	0.840	1.464	2.030	2.365	2.071	1.423	1.415	2.638	6.440	13.53	27.98	42.14	42.35	47.03	18.64	7.462	1.110	0.567	0.559	0.463	0.524	0.516	0.495	0.544	0.527
275.0	114.2	112.0	102.5	63.42	75.33	195.5	478.9	320.6	700.2	2255	5963	9999.9	1099	38.54	9.101	6.662	4.819	3.309	2.838	2.273	1.990	1.532	1.382	1.369	1.381	1.325	1.355	1.118	1.169	1.033	1.024	0.837	0.829	0.892	0.812	0.675	0.771	0.645	0.700	0.632	0.583	0.627	0.617	0.703	0.633	0.637	0.722	0.631	0.630	0.543	0.480	0.523	0.552	0.754	0.997	1.314	2.402	3.586	2.421	1.576	2.026	3.596	6.823	10.24	13.47	34.48	67.61	77.11	28.49	7.117	0.793	0.500	0.571	0.569	0.528	0.550	0.537
280.0	180.3	173.8	155.0	92.23	58.64	87.13	336.8	527.4	292.8	574.7	1793	8771	9173	752.1	19.89	7.981	6.007	3.860	3.338	2.688	2.147	1.803	1.587	1.436	1.398	1.462	1.294	1.151	1.164	1.051	1.016	0.950	0.816	0.940	0.811	0.837	0.777	0.776	0.801	0.652	0.539	0.660	0.733	0.779	0.724	0.814	0.795	0.912	0.791	0.615	0.599	0.557	0.566	0.660	0.632	0.759	1.255	2.620	3.624	3.228	1.818	1.499	2.280	2.952	3.791	9.124	24.22	56.99	82.40	38.19	21.63	3.038	0.692	0.717	0.604	0.609	0.568
285.0	224.5	261.9	217.4	127.3	67.45	67.03	154.0	519.3	337.5	250.8	509.6	2849	9999.9	7193	113.5	11.55	7.150	4.898	3.900	2.883	2.441	2.149	1.969	1.673	1.503	1.438	1.349	1.063	1.141	1.036	1.081	0.953	1.097	0.949	0.947	0.940	0.887	0.739	0.763	0.720	0.655	0.735	0.729	0.862	0.833	0.899	0.996	0.954	1.071	0.859	0.734	0.685	0.622	0.710	0.690	0.722	0.931	1.245	2.127	3.938	4.238	2.343	1.575	1.507	1.722	2.977	6.468	15.42	35.39	64.91	87.95	34.29	13.49	1.218	0.604	0.663	0.638
290.0	287.3	345.3	315.5	177.2	96.47	81.29	108.8	261.2	536.2	494.5	296.7	822.6	3143	7838	8461	437.0	27.90	6.660	4.930	3.711	2.794	2.328	2.204	1.965	1.551	1.439	1.414	1.112	1.302	1.168	1.091	1.038	1.138	1.057	0.973	0.933	1.016	0.992	0.789	0.802	0.745	0.755	0.820	0.933	1.014	1.080	1.218	1.286	1.289	1.090	0.901	0.882	0.773	0.786	0.735	0.755	0.893	0.935	1.269	1.955	2.910	3.830	4.048	3.270	2.058	2.094	2.729	4.681	9.192	17.72	35.10	49.36	64.84	55.72	22.27	10.25	1.480
295.0	352.2	432.5	396.0	237.0	135.4	118.6	131.3	197.1	327.2	714.6	690.7	474.1	922.4	2003	6465	9493	657.5	20.20	6.697	4.974	3.737	2.954	2.327	2.164	1.764	1.763	1.614	1.280	1.454	1.123	1.165	1.051	1.144	1.115	1.129	1.123	1.088	1.064	0.945	0.879	0.830	0.853	0.898	0.961	1.120	1.187	1.357	1.642	1.639	1.312	1.045	1.025	0.888	0.863	0.871	0.917	1.121	1.133	1.209	1.436	1.693	2.156	3.053	4.987	5.687	3.840	2.565	2.774	3.835	5.631	9.489	12.32	17.67	31.97	65.36	86.05	35.38
300.0	395.1	461.8	447.7	286.6	170.7	153.5	168.5	216.2	295.2	549.8	973.7	634.1	500.1	639.0	1877	7701	5803	86.81	10.71	5.898	4.366	3.180	2.819	2.192	2.074	1.727	1.605	1.439	1.400	1.308	1.110	1.049	1.122	1.169	1.209	1.124	1.125	0.989	1.055	0.835	0.870	0.967	0.930	1.013	1.060	1.288	1.435	1.703	1.723	1.323	1.125	1.260	1.144	0.975	0.943	1.059	1.229	1.380	1.399	1.497	1.695	1.910	2.323	3.291	5.529	6.240	5.173	3.447	2.872	3.310	3.837	4.272	5.243	8.460	20.81	52.12	81.53
305.0	404.9	509.6	459.4	307.6	207.6	195.7	215.0	271.2	335.5	480.9	852.0	1023	546.4	401.8	580.9	2414	8748	4589	66.74	7.943	5.201	3.732	3.060	2.579	2.148	1.923	1.739	1.705	1.587	1.308	1.185	1.113	1.028	1.182	1.204	1.193	1.159	1.063	0.908	1.011	0.961	0.975	1.032	1.089	1.123	1.417	1.529	1.653	1.830	1.359	1.376	1.485	1.339	1.218	1.139	1.160	1.535	1.533	1.834	1.829	2.085	2.194	2.552	2.861	3.852	5.247	6.634	6.222	4.236	3.213	2.930	2.869	2.707	3.134	5.997	13.80	30.79
310.0	424.4	525.1	481.6	340.1	237.9	236.7	264.0	322.1	393.4	501.2	681.7	962.2	925.7	495.7	340.0	659.1	2683	5989	5578	296.6	16.87	5.629	4.141	3.160	2.555	2.246	1.838	1.605	1.457	1.375	1.289	1.280	1.066	1.139	1.299	1.133	1.212	1.135	1.020	0.963	0.951	0.936	0.987	1.155	1.238	1.491	1.493	1.745	1.828	1.537	1.435	1.521	1.459	1.408	1.330	1.432	1.510	1.728	1.889	1.958	2.324	2.413	2.789	2.910	3.490	4.074	4.674	5.723	6.348	5.850	4.187	3.318	2.563	2.409	2.698	4.236	8.032
315.0	419.9	526.4	515.7	371.0	274.6	278.7	295.2	368.5	435.0	543.4	645.9	765.7	900.4	839.8	382.3	303.7	704.8	1485	4449	7018	445.3	12.68	5.227	4.162	3.082	2.365	2.137	1.703	1.575	1.741	1.372	1.259	1.244	1.300	1.197	1.274	1.168	1.220	1.005	0.954	0.963	1.003	1.042	1.098	1.347	1.486	1.562	1.915	1.791	1.534	1.506	1.649	1.545	1.499	1.490	1.610	1.712	1.897	2.052	1.955	2.392	2.556	2.787	3.211	3.659	3.870	4.112	4.346	4.661	5.152	6.320	5.738	3.854	2.848	2.105	2.471	3.037
320.0	430.8	590.9	562.8	417.6	308.7	297.0	337.0	391.7	472.4	579.9	661.1	742.7	769.0	908.8	612.5	282.0	303.5	425.2	1264	5961	4134	63.01	7.826	4.985	3.667	2.938	2.457	2.023	1.953	1.608	1.517	1.313	1.182	1.288	1.134	1.334	1.242	1.104	1.090	0.849	0.963	1.129	1.055	1.244	1.373	1.551	1.630	2.118	1.994	1.587	1.618	1.980	1.735	1.703	1.604	1.812	1.876	2.039	2.118	2.310	2.445	2.718	2.971	3.436	3.527	3.916	4.146	3.855	4.186	4.260	5.015	6.190	5.407	4.505	2.530	2.446	2.265
325.0	486.0	680.5	694.8	491.4	351.0	322.5	357.4	412.6	500.6	604.5	700.9	758.8	743.5	772.6	806.1	405.8	248.2	215.2	361.4	1896	6285	3354	49.62	6.479	4.518	3.739	2.709	2.559	1.951	1.651	1.569	1.450	1.277	1.255	1.181	1.242	1.134	1.218	1.206	0.960	0.924	1.128	1.056	1.297	1.481	1.734	1.891	2.448	2.322	2.076	1.801	1.959	1.839	1.780	1.794	1.932	2.056	2.128	2.237	2.625	2.578	2.856	3.298	3.496	3.757	4.142	4.008	4.241	4.243	4.220	4.618	5.020	5.469	6.279	4.861	2.924	2.405
330.0	533.3	779.9	873.9	639.3	441.1	376.7	384.1	443.5	523.9	629.4	726.0	782.5	764.3	701.4	689.0	619.1	364.0	206.5	187.2	499.4	1972	4612	4431	236.0	12.80	4.716	3.400	2.669	2.221	1.879	1.713	1.523	1.383	1.306	1.391	1.180	1.140	1.092	1.010	1.063	1.076	1.065	1.172	1.184	1.395	1.855	2.171	2.790	2.955	2.687	2.290	2.552	2.219	2.089	1.947	2.001	2.266	2.183	2.414	2.607	2.803	2.917	3.418	3.758	3.956	4.126	4.385	4.548	4.481	4.431	4.471	4.429	4.584	4.929	5.298	4.917	4.266
335.0	569.2	884.5	981.8	767.7	530.3	421.5	424.0	470.6	551.2	652.2	749.2	810.0	792.8	721.0	626.2	577.2	585.1	311.0	187.3	214.5	501.0	1145	3907	5547	355.6	10.52	4.685	3.534	2.574	2.086	1.668	1.678	1.544	1.446	1.391	1.312	1.173	1.147	1.116	0.961	1.055	1.168	1.220	1.359	1.476	1.955	2.160	3.156	3.218	2.988	2.902	2.925	2.555	2.332	2.286	2.282	2.378	2.404	2.716	2.727	2.814	3.156	3.349	3.817	3.936	4.260	4.274	4.557	4.459	4.893	4.556	4.626	4.397	4.575	4.099	4.114	4.857
340.0	575.7	924.4	1040	846.2	594.5	469.7	451.7	482.0	559.1	653.8	757.6	817.8	801.8	737.9	630.4	526.2	573.4	476.1	230.0	170.5	192.5	308.9	1120	5029	3376	53.29	6.493	4.145	3.287	2.548	1.991	1.824	1.913	1.478	1.419	1.178	1.184	1.238	1.170	0.891	1.046	1.135	1.192	1.417	1.433	2.053	2.283	3.109	3.297	3.067	2.928	3.306	2.836	2.541	2.355	2.417	2.419	2.433	2.749	3.002	2.883	3.296	3.575	3.874	3.721	4.321	4.057	4.588	4.597	4.623	4.553	4.646	4.594	4.403	4.116	3.840	3.985
345.0	617.2	927.7	1086	886.9	636.8	504.9	476.2	494.3	566.6	652.9	742.8	797.7	800.2	739.0	638.0	519.9	486.6	530.0	343.0	187.5	142.7	137.6	298.4	1618	5251	2819	42.80	5.218	3.974	2.856	2.320	1.926	1.806	1.734	1.366	1.106	1.217	1.196	1.123	1.020	1.103	1.274	1.266	1.427	1.541	1.959	2.326	2.870	3.382	3.250	3.311	3.250	2.868	2.816	2.377	2.360	2.640	2.749	2.745	2.991	2.907	3.090	3.620	3.796	4.044	4.306	4.420	4.444	4.858	4.628	4.411	4.600	4.376	4.566	4.188	3.764	3.891
350.0	568.7	860.2	1033	899.9	687.6	543.1	502.8	518.3	571.6	646.9	725.2	769.8	776.7	726.8	638.7	532.0	461.7	441.5	441.4	298.7	166.8	125.5	133.6	411.3	1672	3789	3378	210.9	11.57	3.511	2.854	2.118	1.872	1.614	1.360	1.305	1.168	1.215	1.071	1.029	1.066	1.102	1.248	1.293	1.475	1.769	2.257	2.844	3.180	3.165	3.128	3.430	2.984	2.888	2.851	2.602	2.591	2.855	2.852	3.100	2.983	3.231	3.601	3.679	3.993	4.132	4.178	4.302	4.566	4.703	4.550	4.406	4.295	4.553	4.211	3.984	3.936
355.0	515.6	796.1	982.0	892.2	731.7	606.4	549.8	545.7	582.8	648.7	710.4	751.7	748.3	717.3	641.8	547.7	479.4	414.8	389.1	418.2	269.6	158.2	126.4	160.1	418.5	939.4	2931	3260	327.2	8.924	3.972	2.556	2.178	1.822	1.531	1.254	1.247	1.288	1.038	1.101	1.085	1.048	1.132	1.167	1.624	1.785	2.140	2.709	3.047	3.179	3.051	3.518	3.069	2.962	2.853	2.831	2.850	3.012	2.983	2.908	2.965	3.282	3.520	3.874	3.750	4.088	3.988	4.159	4.360	4.406	4.455	4.489	4.329	4.676	4.464	4.041	4.016
360.0	525.7	771.6	960.2	899.9	758.1	649.5	595.6	584.3	606.0	656.1	706.3	733.6	732.0	697.9	641.5	563.6	500.9	427.5	372.7	394.9	377.2	217.0	146.1	123.6	155.8	251.4	834.2	3615	3084	50.67	6.004	3.259	2.456	1.917	1.643	1.341	1.227	1.161	1.092	1.080	1.092	1.161	1.104	1.221	1.593	1.765	2.065	2.674	2.949	2.904	3.009	3.690	3.259	3.138	2.983	2.942	2.890	3.064	3.037	3.001	3.242	3.701	3.871	3.713	3.895	4.112	3.696	4.203	4.418	4.445	4.050	4.495	4.410	4.474	4.289	4.399	4.123
365.0	491.6	734.3	907.0	884.0	767.3	676.5	619.5	613.4	627.6	672.4	707.7	719.0	723.9	699.0	632.7	568.9	514.0	445.3	383.5	361.5	396.7	316.6	181.4	135.3	114.0	107.5	224.0	1175	4297	2608	42.61	4.647	2.838	2.221	1.752	1.476	1.392	1.302	1.257	1.124	1.005	1.185	1.036	1.268	1.452	1.773	2.072	2.509	2.701	2.880	2.872	3.518	3.354	3.210	3.070	3.045	3.106	2.995	3.232	3.078	3.465	3.541	3.689	3.648	3.632	4.054	3.698	3.806	4.326	4.344	4.475	4.054	4.405	4.545	4.158	4.402	4.274
370.0	474.3	675.6	866.8	860.0	787.8	706.9	659.3	636.4	649.8	672.2	699.4	710.1	700.0	680.8	624.3	573.3	524.7	467.0	412.5	372.0	355.9	368.2	289.0	178.7	131.1	101.6	105.1	301.8	1343	3243	3066	195.3	11.45	2.958	2.156	1.720	1.511	1.321	1.264	1.147	1.142	1.067	1.158	1.289	1.454	1.789	1.906	2.551	2.707	2.803	2.861	3.486	3.463	3.387	3.399	3.076	3.197	3.281	3.530	3.106	3.270	3.642	3.823	3.617	3.734	4.113	3.936	3.776	4.084	4.195	4.216	4.381	4.453	4.289	4.128	4.252	4.276
375.0	440.9	649.4	814.6	836.4	790.1	729.6	688.4	654.9	674.4	675.5	697.9	696.2	686.5	667.9	614.4	573.7	532.6	483.7	441.0	396.9	354.7	339.5	357.7	276.4	168.3	124.7	100.2	122.8	337.0	801.4	2529	2969	299.3	9.167	2.924	2.299	1.907	1.435	1.506	1.353	1.245	1.145	1.188	1.357	1.316	1.625	1.875	2.477	2.633	2.647	2.812	3.473	3.538	3.536	3.464	3.212	3.394	3.386	3.447	3.625	3.669	3.663	3.731	3.743	3.852	3.826	3.897	3.948	4.128	4.105	4.220	4.312	4.174	4.137	4.250	4.116	4.132
380.0	432.6	643.1	808.7	837.2	788.6	744.1	684.3	666.2	674.9	683.3	690.3	691.5	671.0	652.2	608.9	571.8	532.5	495.9	457.8	413.1	368.1	337.0	340.5	345.4	223.7	151.0	115.7	95.86	123.6	214.2	717.9	3055	2686	44.19	5.047	2.666	2.038	1.619	1.392	1.245	1.239	1.056	1.180	1.367	1.371	1.546	1.771	2.287	2.560	2.494	2.690	3.173	3.316	3.504	3.293	3.357	3.500	3.568	3.424	3.625	3.581	3.684	3.575	3.654	3.692	3.690	3.725	3.836	4.198	3.987	4.204	4.362	4.149	4.061	4.146	4.328	4.237
385.0	429.4	631.4	770.9	813.6	788.7	755.5	704.7	673.7	675.1	675.5	690.5	678.5	662.5	633.3	601.5	561.2	528.4	499.3	463.8	422.3	384.7	346.4	320.7	340.8	303.0	189.1	137.4	105.8	89.57	93.56	193.4	961.9	3354	2196	36.22	3.821	2.597	1.898	1.434	1.355	1.204	1.213	1.236	1.277	1.432	1.760	1.767	2.275	2.399	2.495	2.693	3.190	3.253	3.555	3.677	3.461	3.491	3.563	3.541	3.619	3.594	3.521	3.770	3.762	3.777	3.713	3.837	3.772	3.846	4.032	4.099	4.109	4.252	4.146	4.129	4.216	4.296
390.0	413.7	594.3	743.6	786.6	787.7	754.1	708.9	677.1	672.9	670.6	676.3	662.9	645.2	616.8	587.8	548.6	521.4	495.2	464.4	431.9	400.2	364.9	330.8	315.0	321.9	270.3	181.2	133.5	104.5	84.59	88.73	246.5	1004	2358	2307	161.9	10.87	2.516	1.739	1.542	1.339	1.344	1.368	1.338	1.456	1.628	1.700	2.268	2.403	2.429	2.523	3.352	3.279	3.597	3.427	3.344	3.610	3.506	3.658	3.739	3.746	3.631	3.851	3.966	3.722	3.801	3.732	3.680	3.802	3.784	3.895	3.992	4.108	4.189	4.138	4.287	4.029
395.0	422.9	597.4	727.2	780.2	781.2	764.3	709.5	680.6	663.4	665.6	656.6	642.1	626.7	606.7	574.1	537.7	507.1	489.2	467.2	435.0	404.1	378.6	346.5	321.3	299.9	306.3	262.9	173.1	132.4	105.5	83.61	97.98	252.9	570.4	1665	2395	271.2	10.19	2.591	2.034	1.601	1.366	1.418	1.312	1.354	1.513	1.810	2.320	2.336	2.429	2.559	3.096	3.254	3.540	3.356	3.547	3.602	3.348	3.781	3.550	3.911	3.595	3.665	3.875	3.513	3.755	3.701	3.748	3.760	3.910	4.014	4.044	3.998	3.928	4.216	4.330	4.073
400.0	395.2	583.8	699.6	770.6	764.4	749.4	704.4	687.2	666.5	660.4	653.1	630.0	620.3	594.6	561.7	523.9	498.7	481.3	463.9	437.1	408.5	384.3	359.1	331.2	302.7	290.7	304.8	225.5	160.0	125.6	96.21	78.64	94.24	153.3	452.6	2023	2269	216.1	5.230	2.293	1.871	1.398	1.382	1.345	1.480	1.614	1.790	2.188	2.225	2.242	2.448	3.073	3.202	3.610	3.487	3.221	3.657	3.365	3.812	3.381	3.688	3.552	3.586	3.594	3.517	3.781	3.879	3.641	3.610	3.809	3.614	3.674	3.798	3.831	4.227	4.164	3.835
405.0	374.7	559.9	712.4	762.9	764.6	742.8	708.8	687.4	661.9	659.3	648.7	624.8	608.9	591.0	546.7	514.6	488.7	467.3	451.0	432.3	408.2	386.8	365.9	341.4	313.4	289.1	297.7	279.9	194.8	146.6	112.9	85.68	68.65	66.38	124.2	589.8	2276	1958	35.06	3.535	2.290	1.732	1.490	1.535	1.531	1.655	1.829	2.226	2.248	2.212	2.483	3.062	3.108	3.268	3.309	3.184	3.682	3.465	3.556	3.402	3.440	3.597	3.558	3.785	3.611	3.639	3.797	3.789	3.325	3.724	3.563	3.660	3.763	3.918	4.102	3.912	4.022
410.0	376.7	540.3	684.9	744.3	746.7	724.2	701.7	685.1	652.7	650.9	637.2	618.6	597.9	567.3	534.3	498.5	470.2	454.1	436.7	418.9	402.8	383.7	368.9	346.8	323.6	297.1	283.7	283.2	255.7	183.9	135.2	102.6	75.49	58.02	58.32	153.2	644.2	1695	1814	517.9	11.20	2.164	1.713	1.643	1.544	1.660	1.792	2.108	2.288	2.263	2.489	3.087	3.270	3.240	3.189	3.086	3.502	3.536	3.450	3.633	3.570	3.700	3.657	3.515	3.583	3.650	3.544	3.432	3.441	3.575	3.528	3.655	3.567	3.738	3.816	3.741	3.761
415.0	369.0	511.4	657.4	722.7	721.9	712.2	692.3	682.4	657.7	641.7	617.2	601.2	570.1	553.1	511.4	469.4	443.3	429.9	413.7	399.8	388.9	374.2	361.8	347.7	327.0	304.4	283.4	263.7	266.1	239.0	163.3	119.2	86.82	64.05	49.50	60.04	162.0	401.4	1098	2211	265.0	11.98	2.329	1.810	1.773	1.717	1.655	2.011	2.164	2.168	2.365	3.046	3.080	3.247	3.078	3.343	3.752	3.408	3.673	3.567	3.489	3.465	3.591	3.539	3.435	3.348	3.536	3.191	3.132	3.543	3.376	3.422	3.476	3.744	3.546	3.565	3.720
420.0	333.0	486.2	611.9	686.2	709.4	687.0	671.1	666.0	648.2	628.3	607.9	585.6	560.7	522.3	486.4	450.7	427.4	409.8	396.2	381.9	371.1	362.5	353.0	341.8	325.5	302.9	280.8	258.4	251.5	255.2	195.5	131.5	95.81	70.43	53.25	44.33	57.41	104.3	285.7	1463	1970	219.5	5.797	2.226	1.928	1.972	1.788	2.040	2.128	2.215	2.316	2.855	3.014	3.102	3.140	3.190	3.577	3.627	3.474	3.504	3.486	3.526	3.790	3.455	3.512	3.344	3.342	3.248	3.532	3.395	3.502	3.230	3.365	3.403	3.480	3.352	3.413
425.0	335.1	474.5	596.8	676.7	694.2	677.4	668.6	654.5	637.7	619.2	591.4	571.5	544.5	509.4	466.2	431.6	409.0	395.4	380.6	366.7	361.2	352.7	343.5	332.9	318.0	304.0	283.7	259.5	242.3	242.2	224.1	151.7	104.8	78.46	60.06	44.36	37.34	40.12	75.53	401.5	1656	1724	34.94	3.608	2.233	2.028	1.861	2.030	2.145	2.050	2.378	2.753	2.905	3.093	3.232	3.201	3.304	3.538	3.581	3.441	3.404	3.604	3.500	3.317	3.509	3.164	3.009	3.408	3.320	3.278	3.370	3.292	3.507	3.230	3.406	3.298	3.290
430.0	341.8	477.9	577.3	647.4	660.1	662.5	660.9	647.9	629.9	615.1	588.7	561.4	526.7	488.9	445.5	410.8	388.0	372.7	360.3	350.8	341.9	336.1	330.6	324.3	314.1	299.4	282.4	264.0	243.4	226.4	218.2	188.1	128.5	90.42	69.02	51.32	38.60	30.17	31.76	100.3	446.4	1292	1530	490.3	11.60	2.398	2.038	2.115	2.307	2.175	2.287	2.660	2.678	3.066	3.066	3.109	3.283	3.422	3.430	3.409	3.423	3.511	3.456	3.366	3.363	3.412	3.125	3.221	3.277	3.162	3.121	3.089	3.245	3.088	3.247	3.206	3.248
435.0	481.4	437.9	551.6	607.5	642.6	645.4	646.4	632.0	620.1	603.6	584.1	546.0	507.7	467.7	431.2	393.1	367.1	351.7	339.3	330.3	321.3	319.5	312.8	310.2	303.4	292.0	281.1	264.7	247.1	225.2	204.8	189.6	162.7	108.7	77.05	59.79	43.90	32.41	25.98	36.06	109.3	301.3	849.4	1965	255.7	13.59	2.549	2.452	2.309	2.223	2.242	2.656	2.595	2.981	3.089	3.075	3.396	3.268	3.282	3.475	3.645	3.330	3.529	3.457	3.276	3.248	3.185	3.066	3.203	3.101	3.086	3.073	3.171	2.990	3.009	3.259	3.257
440.0	664.2	463.8	533.1	596.6	619.0	638.8	633.0	620.3	605.9	596.5	567.3	547.9	487.5	453.7	413.3	377.5	349.9	338.7	325.6	318.1	307.0	303.9	298.8	299.2	294.1	283.7	276.7	259.4	245.4	226.3	201.4	177.9	170.8	131.1	86.88	65.73	49.53	35.96	26.97	23.67	35.98	76.05	216.7	1247	1873	215.2	6.769	2.691	2.427	2.270	2.167	2.692	2.725	2.712	3.081	3.019	3.274	3.272	3.311	3.447	3.207	3.341	3.257	3.424	3.372	3.303	3.158	3.132	3.026	3.076	3.107	3.006	3.156	2.761	3.018	3.026	3.223
445.0	796.0	603.2	527.9	578.7	607.9	614.9	601.7	615.2	597.4	579.0	563.9	526.1	476.0	440.7	392.7	358.0	330.9	319.3	311.9	299.5	292.2	288.7	284.6	288.2	283.1	274.3	264.4	256.2	242.4	222.5	197.7	170.5	159.6	146.6	100.4	70.84	52.97	39.27	30.52	23.08	21.50	27.15	56.42	338.5	1523	1661	31.12	4.229	2.563	2.177	2.265	2.787	2.707	2.908	2.834	3.025	3.119	3.215	3.048	3.437	3.332	3.314	3.231	3.372	3.117	3.172	3.122	2.957	2.890	2.976	3.072	2.957	3.007	2.725	2.982	2.914	3.023
450.0	668.7	1144	631.4	539.5	563.2	580.0	589.4	584.8	576.5	554.6	530.8	498.0	450.9	408.4	365.1	334.6	308.2	295.1	284.5	278.3	269.8	267.0	265.3	265.9	263.7	256.6	248.3	241.8	231.0	214.1	192.0	165.9	145.5	137.1	117.3	82.21	57.60	43.84	34.02	26.02	20.96	18.31	21.92	83.03	403.7	1198	1514	501.7	11.20	2.550	2.329	2.903	2.661	2.670	2.761	2.748	3.012	3.226	3.090	3.403	3.169	3.218	3.227	3.139	3.111	3.165	2.874	3.169	2.832	2.952	2.675	2.884	2.510	2.508	2.578	2.719	2.740
455.0	373.9	1464	1158	524.7	515.1	547.4	550.1	550.5	534.7	527.3	500.8	465.7	420.6	373.0	338.3	310.6	284.4	267.0	256.4	252.4	247.0	243.2	242.0	242.7	239.4	237.2	231.0	224.3	216.6	202.8	183.8	158.5	138.5	119.2	112.4	97.47	66.40	47.94	37.76	28.87	22.70	18.39	15.75	26.75	96.66	276.8	728.4	1780	217.0	12.86	2.641	2.798	2.608	2.668	2.653	2.655	2.696	3.032	2.811	3.060	3.069	2.920	3.185	2.936	2.901	2.774	2.673	2.681	2.674	2.719	2.536	2.618	2.464	2.403	2.488	2.340	2.606
460.0	263.0	1143	2314	684.7	492.5	511.4	521.9	509.9	508.3	499.7	475.3	441.2	398.1	353.5	318.2	286.4	263.4	250.5	239.3	233.4	225.8	225.6	223.6	225.3	222.3	221.4	215.9	210.7	205.5	194.2	177.1	155.4	131.1	113.2	101.0	100.2	76.42	51.38	38.96	30.70	24.67	19.11	15.82	15.25	28.27	67.68	179.3	1015	1603	178.6	8.096	2.919	2.592	2.649	2.666	2.514	2.800	2.888	2.893	3.064	2.960	2.734	3.001	2.885	2.771	2.724	2.382	2.575	2.710	2.765	2.477	2.506	2.661	2.410	2.450	2.189	2.360
465.0	229.3	652.9	2913	1338	472.4	473.7	489.3	478.0	481.2	467.9	452.3	413.0	372.1	333.3	296.3	264.0	246.7	231.1	223.8	214.6	210.7	206.8	205.9	209.5	209.7	204.0	198.3	198.3	192.2	183.7	168.4	148.1	127.7	110.3	94.01	91.18	83.68	57.93	40.57	32.74	25.69	20.59	16.02	13.68	13.92	21.62	45.89	264.2	1230	1393	148.0	4.995	2.869	2.773	2.463	2.683	2.716	2.686	2.693	2.949	2.828	2.908	2.939	2.548	2.705	2.570	2.415	2.541	2.570	2.588	2.399	2.240	2.413	2.351	2.329	2.257	2.398
470.0	225.5	375.8	2005	2669	579.8	431.6	449.1	443.3	437.7	428.5	415.1	378.1	339.4	302.2	269.8	239.3	222.2	211.4	199.6	192.1	187.5	185.7	185.7	184.7	185.9	184.4	179.3	177.9	172.9	168.7	154.9	137.3	118.4	102.8	87.37	77.41	74.69	65.22	46.18	33.37	26.50	21.76	17.06	14.25	12.00	11.72	16.52	64.06	318.7	922.1	1171	447.8	12.24	2.714	2.557	2.603	2.786	2.679	2.539	2.545	2.666	2.837	2.612	2.610	2.570	2.383	2.340	2.401	2.325	2.329	2.337	2.125	2.266	2.136	2.038	2.085	2.191
475.0	220.9	280.8	816.0	2886	1416	402.2	404.2	397.0	400.6	394.1	374.7	347.7	305.9	270.1	244.7	213.2	198.3	184.7	178.3	169.5	164.3	163.6	166.2	163.7	163.6	161.9	159.6	160.1	154.1	149.4	139.5	124.8	110.0	95.88	80.78	70.22	62.06	61.09	54.10	37.69	27.49	22.44	18.15	15.07	12.59	10.33	10.34	19.65	75.72	210.9	494.9	1282	226.0	14.76	2.689	2.436	2.480	2.555	2.376	2.450	2.563	2.390	2.537	2.347	2.521	2.313	2.189	2.080	2.056	2.023	2.138	2.055	1.971	2.090	1.990	2.049	1.777
480.0	224.7	258.7	404.4	1993	2369	488.1	371.3	368.9	372.7	365.5	353.6	322.9	288.0	253.8	224.7	198.9	182.4	171.3	161.8	155.7	151.7	149.0	149.2	149.8	149.3	147.9	146.6	146.7	142.7	139.4	129.9	117.1	103.5	89.53	77.44	65.93	57.28	54.22	55.09	43.11	29.46	22.87	18.86	15.28	13.20	11.12	9.336	10.59	21.73	51.03	120.0	658.8	1262	208.9	8.387	2.687	2.493	2.457	2.331	2.309	2.248	2.170	2.421	2.358	2.428	2.202	2.189	2.084	2.022	1.920	1.854	1.955	1.936	1.936	1.905	1.854	1.822
485.0	215.5	259.5	299.1	1020	2808	950.2	347.0	352.0	349.2	343.3	325.2	302.7	269.9	235.9	209.9	186.5	169.0	158.9	152.2	143.7	140.4	137.9	138.5	136.7	138.0	136.8	136.1	135.5	133.7	131.1	121.5	110.7	97.60	84.53	74.11	62.53	55.04	48.78	49.26	47.03	32.77	23.44	19.28	15.78	13.79	11.51	9.414	8.912	9.829	15.61	30.62	168.0	887.9	1210	159.0	4.136	2.577	2.480	2.336	2.270	2.020	2.188	2.292	2.264	2.195	1.965	2.022	2.087	2.021	1.996	1.762	1.778	1.878	1.689	1.775	1.630	1.562
490.0	169.7	267.5	272.9	457.7	1934	2080	414.9	330.3	322.7	316.8	304.5	281.5	246.2	216.2	189.1	169.1	154.0	144.4	139.0	130.2	127.3	125.0	124.4	124.2	124.9	122.2	122.7	122.4	121.9	119.5	111.8	101.4	90.08	78.82	69.44	60.05	51.84	46.00	42.08	42.58	38.35	27.19	20.04	16.80	14.21	11.76	10.16	8.685	7.701	7.967	10.79	40.92	225.8	712.4	1045	445.8	13.72	2.568	2.250	2.279	2.070	2.067	2.115	2.156	1.960	1.895	1.966	1.824	1.817	1.789	1.669	1.620	1.711	1.662	1.638	1.558	1.514
495.0	146.6	242.8	284.4	298.3	756.6	2411	1130	303.8	292.7	288.4	273.7	254.4	220.9	194.2	170.3	153.5	138.1	128.7	123.5	116.6	112.7	110.2	110.3	109.6	111.1	107.5	108.4	109.1	109.8	106.9	101.0	91.20	83.13	72.47	63.91	56.56	48.67	43.61	37.92	34.48	36.14	32.96	22.53	16.48	14.16	12.45	10.27	9.161	7.501	6.287	6.462	12.83	53.37	162.7	451.1	1257	257.4	17.42	2.449	2.266	2.113	2.039	1.962	1.916	1.908	1.772	1.883	1.654	1.652	1.663	1.568	1.557	1.623	1.497	1.488	1.402	1.510
500.0	131.7	220.1	290.5	254.0	367.6	1688	1992	359.7	263.7	264.9	255.8	235.4	204.6	179.2	158.1	138.8	124.5	117.3	111.1	104.9	101.9	99.93	99.34	99.34	99.54	98.33	97.76	97.17	99.42	95.90	92.76	84.71	75.23	66.75	60.33	52.68	46.85	40.19	35.17	31.89	31.37	33.00	25.10	17.98	14.35	12.81	10.50	9.190	7.629	6.493	5.506	6.402	15.10	39.25	108.1	609.7	1250	233.4	9.794	2.363	2.084	2.012	1.953	2.004	1.733	1.954	1.712	1.502	1.725	1.517	1.413	1.530	1.525	1.639	1.379	1.347	1.419
505.0	116.3	165.8	282.4	238.1	261.1	856.9	2416	734.9	247.7	242.2	228.3	212.3	190.2	165.4	141.8	127.6	113.8	106.8	100.8	96.05	93.39	90.78	91.05	91.19	90.65	89.16	90.33	88.03	88.65	87.88	84.07	78.06	69.08	62.06	55.40	49.12	42.83	37.90	33.13	29.66	26.75	28.91	26.99	19.96	14.12	12.28	10.23	9.018	7.453	6.657	5.510	4.790	6.580	11.79	26.80	151.6	787.3	1167	179.4	4.191	2.184	1.951	1.923	1.787	1.568	1.646	1.667	1.569	1.708	1.403	1.432	1.506	1.583	1.494	1.227	1.220	1.178
510.0	103.9	147.8	227.3	246.8	212.0	363.9	1662	1887	289.8	215.4	203.6	189.6	168.2	146.9	125.9	112.7	100.7	93.71	88.12	84.87	82.65	80.82	80.03	79.12	77.72	77.66	78.07	77.57	77.59	76.93	74.01	68.99	62.34	54.79	49.26	44.74	38.70	33.85	30.33	27.14	23.44	23.25	24.55	22.70	15.99	11.81	10.05	8.673	7.530	6.649	5.680	4.764	4.532	5.363	8.496	36.30	195.3	633.7	922.3	375.3	13.30	2.006	1.758	1.604	1.579	1.587	1.532	1.459	1.413	1.422	1.335	1.360	1.383	1.297	1.211	1.236	1.127
515.0	101.4	119.2	165.8	243.4	198.7	217.9	641.5	2418	1075	192.9	179.6	167.9	148.6	126.7	109.7	100.5	87.72	81.61	76.98	74.84	70.21	68.65	68.31	67.85	66.19	66.83	66.82	66.76	66.22	65.74	63.16	58.14	54.41	47.95	42.77	39.19	35.06	30.55	27.44	23.22	21.58	19.77	19.26	20.92	19.25	12.54	9.714	8.587	7.366	6.492	5.641	4.943	4.222	4.105	4.592	10.46	45.70	144.3	353.4	1007	261.4	15.80	1.988	1.436	1.529	1.416	1.517	1.358	1.253	1.206	1.280	1.206	1.179	1.227	1.216	1.197	1.048
520.0	93.74	102.5	133.7	224.3	214.7	173.7	281.3	1764	2171	245.1	165.1	146.2	135.2	115.8	98.76	88.62	78.98	74.14	70.28	66.58	63.43	61.94	60.81	61.26	60.52	58.99	58.70	58.82	59.89	59.09	56.39	52.62	49.16	43.70	39.39	35.29	32.18	28.16	25.44	21.88	20.01	18.15	16.35	17.33	19.55	14.57	10.15	8.195	6.958	6.215	5.440	5.071	4.398	3.908	3.638	4.525	12.45	34.18	83.65	465.3	976.2	226.8	8.073	1.715	1.531	1.332	1.321	1.219	1.330	1.221	1.084	1.092	1.062	1.144	1.201	1.100	1.140
525.0	77.99	99.71	118.5	178.4	221.0	154.7	178.5	860.7	2937	717.8	150.6	136.5	121.3	103.5	91.90	77.96	72.40	66.67	62.66	59.40	56.32	55.93	54.77	54.74	54.43	54.29	52.96	52.51	53.31	52.72	50.85	47.67	44.41	39.67	36.26	31.95	29.60	26.60	23.07	20.13	18.66	16.32	14.63	14.20	17.51	16.11	11.00	7.987	6.766	6.199	5.106	4.718	4.585	3.800	3.330	3.386	5.022	9.650	20.90	114.0	573.1	893.6	36.53	3.477	1.502	1.279	1.358	1.181	1.235	1.196	1.150	0.969	1.123	1.059	1.079	0.961	1.071
530.0	72.85	87.84	103.5	131.4	210.3	163.2	142.1	317.3	2055	2151	194.4	121.6	105.9	91.34	79.48	68.15	63.41	58.21	54.18	51.42	49.56	48.71	47.53	46.56	46.63	46.76	45.48	45.53	45.85	45.48	43.83	41.45	38.32	34.24	31.26	28.38	25.46	22.66	20.91	18.31	16.81	14.82	13.07	12.15	13.07	14.41	12.61	9.023	6.576	5.673	4.686	4.509	4.177	4.087	3.454	3.086	3.367	4.182	6.510	27.27	140.3	464.1	658.7	289.4	12.89	1.434	1.375	1.143	1.114	1.123	1.030	0.982	0.997	0.996	0.927	0.969	0.998
535.0	68.65	71.93	93.30	96.56	154.1	181.8	127.2	161.3	722.8	2757	828.4	106.7	90.17	77.49	70.48	58.18	55.53	49.61	46.30	43.73	42.27	40.95	39.74	39.70	38.94	38.82	38.30	38.46	38.97	37.80	37.81	35.39	32.48	30.00	26.25	24.56	22.33	19.79	17.90	16.37	14.89	13.22	11.59	10.39	10.56	10.66	12.49	10.25	6.703	5.322	4.395	4.064	3.713	3.679	3.763	3.091	2.781	2.743	3.270	7.824	32.85	105.5	240.9	724.2	259.8	14.28	1.335	1.188	1.213	1.055	1.006	0.941	0.929	1.033	0.904	0.884	0.775
540.0	63.57	70.90	84.99	84.07	115.7	179.1	129.6	115.0	256.5	1861	1757	137.7	77.21	70.60	61.77	52.02	48.90	44.19	42.12	39.18	36.48	35.81	35.87	35.51	34.66	33.97	32.98	33.88	33.08	34.45	33.29	30.91	28.34	26.44	23.06	21.95	19.41	17.64	15.74	15.13	13.71	12.03	10.36	9.603	9.444	8.557	10.00	10.61	7.592	5.224	4.343	3.982	3.487	3.243	3.259	3.107	2.859	2.202	2.354	3.343	8.862	24.97	56.56	322.0	729.0	205.4	5.706	1.233	1.075	1.038	0.850	1.003	0.934	0.840	0.866	0.949	0.815
545.0	61.23	72.17	74.52	78.77	90.42	153.5	142.8	93.64	129.7	807.7	2513	396.7	70.80	60.44	54.62	46.40	42.74	39.55	36.84	34.27	32.92	31.98	31.40	30.72	30.94	29.83	30.00	30.41	30.01	30.07	28.11	27.50	25.17	22.99	20.53	19.37	17.63	15.69	14.25	13.18	12.31	10.85	9.385	8.851	8.040	7.303	7.806	9.515	8.219	5.299	4.074	3.824	3.141	2.861	2.854	3.141	3.019	2.162	2.135	2.221	3.318	7.107	13.90	78.08	403.4	659.6	36.66	2.530	1.063	1.047	0.859	0.968	0.912	0.809	0.848	0.826	0.770
550.0	57.70	66.07	71.38	69.82	74.25	108.7	155.1	92.52	89.43	259.2	1619	1543	105.8	53.74	45.81	41.28	35.34	33.01	30.68	28.88	27.58	26.85	26.36	25.76	25.89	25.10	25.16	25.25	25.37	24.88	23.78	22.83	20.71	19.33	17.37	16.33	14.80	13.33	12.11	11.27	10.43	9.178	8.443	7.726	6.914	6.422	6.015	6.890	7.620	6.469	4.336	3.305	2.957	2.766	2.544	2.646	2.748	2.468	1.960	1.831	2.005	2.946	4.347	18.72	97.66	321.8	455.1	154.5	11.80	1.120	0.828	0.824	0.812	0.787	0.838	0.788	0.783
555.0	54.51	69.85	65.57	63.93	59.11	73.39	133.3	107.4	72.70	109.6	497.7	2122	564.2	46.71	37.79	33.42	29.81	26.79	25.25	24.53	22.42	22.63	21.46	20.64	20.69	19.76	20.24	20.18	20.19	20.11	19.54	18.54	17.23	15.90	14.75	13.02	12.26	11.11	10.15	8.694	8.607	7.643	6.802	6.294	5.802	5.579	5.017	4.922	5.634	6.384	4.864	3.315	2.836	2.540	2.228	2.227	2.167	2.395	2.382	1.746	1.708	1.674	2.075	5.246	22.82	72.94	157.9	459.7	235.6	13.15	0.957	0.929	0.701	0.862	0.720	0.753	0.715
560.0	56.25	59.74	59.86	59.05	53.19	57.18	95.09	124.9	66.16	70.48	160.7	1398	1310	67.39	33.00	27.48	26.27	22.28	21.49	20.35	19.26	18.69	18.26	17.58	17.41	16.17	16.88	16.82	16.90	17.36	16.24	15.56	14.66	13.57	12.24	10.97	10.37	9.453	8.571	8.100	7.596	6.837	6.084	5.545	4.933	4.910	4.285	4.130	4.189	5.194	5.084	3.777	2.520	2.142	2.099	2.052	1.911	1.913	2.291	1.955	1.465	1.446	1.457	2.294	5.918	17.30	37.01	191.8	468.7	173.9	5.643	0.898	0.828	0.677	0.678	0.605	0.644
565.0	64.75	64.08	58.78	53.01	45.44	49.14	67.75	127.7	69.09	56.34	77.61	545.6	2002	147.8	28.57	24.00	22.73	19.70	18.72	16.75	16.06	16.18	15.24	14.96	14.66	14.33	14.26	13.92	14.07	14.73	14.18	13.30	12.16	11.00	10.48	9.423	8.568	7.936	7.494	6.496	6.328	5.898	5.255	4.970	4.409	4.431	3.919	3.393	3.280	3.607	4.525	3.913	2.663	1.803	1.939	1.783	1.853	1.747	1.999	2.139	1.703	1.474	1.320	1.496	2.392	4.916	9.196	45.69	230.0	416.2	37.68	2.251	0.862	0.727	0.706	0.562	0.596
570.0	60.47	65.64	54.09	47.44	43.38	39.84	46.76	94.51	98.78	50.77	55.56	167.5	1258	1110	58.94	20.90	18.75	16.42	15.28	13.95	13.07	12.84	11.80	12.18	11.90	11.59	11.76	11.69	11.60	11.61	11.30	10.36	9.750	9.479	8.604	7.827	7.075	6.430	5.968	5.499	5.288	4.711	4.394	4.023	4.044	3.639	3.377	2.889	2.713	2.696	3.129	3.640	2.968	1.986	1.683	1.518	1.557	1.593	1.675	1.720	1.901	1.562	1.307	1.257	1.459	2.116	2.952	11.09	54.68	180.9	255.6	139.8	11.39	0.834	0.726	0.683	0.626
575.0	54.54	67.76	54.88	42.61	35.86	33.73	37.02	59.29	112.6	61.99	45.99	69.07	367.7	1541	430.7	17.95	15.79	13.26	11.90	11.99	10.97	10.32	9.476	9.877	9.431	8.940	9.094	9.437	9.315	9.215	9.088	8.158	7.903	7.505	6.622	6.529	5.751	5.440	4.755	4.601	4.228	3.840	3.648	3.354	3.484	3.125	2.893	2.437	2.380	2.147	2.162	2.539	2.767	2.271	1.632	1.339	1.280	1.438	1.531	1.460	1.631	1.839	1.340	1.289	1.313	1.359	1.587	3.358	13.04	41.26	80.44	261.6	184.2	11.84	0.805	0.733	0.643
580.0	63.08	63.99	53.90	39.58	33.84	33.09	32.56	42.48	95.37	79.82	42.83	50.21	113.8	977.4	993.9	30.31	13.24	11.50	10.96	9.480	9.270	8.644	8.526	8.057	7.939	7.924	7.662	7.843	8.048	7.719	7.458	7.038	6.546	6.274	5.501	5.310	5.017	4.569	4.235	4.189	3.572	3.528	3.091	3.018	3.027	2.657	2.520	2.144	2.100	1.875	1.754	1.919	2.511	2.526	1.816	1.362	1.295	1.154	1.299	1.187	1.321	1.574	1.646	1.214	1.156	1.072	1.187	1.586	3.705	10.06	18.99	98.00	275.8	125.4	5.295	0.846	0.601
585.0	59.90	69.91	47.89	36.20	31.18	29.62	31.75	35.31	70.49	96.03	45.88	43.23	53.64	364.5	1582	97.72	11.45	10.22	8.918	8.316	7.862	7.354	7.132	7.328	6.952	6.549	6.309	7.036	6.551	6.580	6.597	5.956	5.893	5.601	5.136	4.596	4.206	3.873	3.673	3.527	3.244	2.889	2.734	2.610	2.500	2.286	2.273	1.925	1.904	1.752	1.609	1.589	1.816	2.329	1.951	1.351	1.180	1.041	1.084	1.045	1.258	1.229	1.628	1.268	1.027	1.030	1.125	1.058	1.599	3.126	5.063	23.32	119.6	253.5	38.20	1.999	0.654
590.0	58.47	58.40	48.25	37.08	29.22	26.55	27.54	31.54	44.94	95.69	62.46	41.98	38.49	107.4	973.2	662.7	31.53	8.994	7.781	6.977	6.692	6.544	6.213	5.879	5.702	5.525	5.416	5.776	5.403	5.494	5.310	5.041	4.609	4.477	4.205	3.899	3.474	3.358	3.104	2.977	2.697	2.386	2.474	2.251	2.045	1.930	1.770	1.648	1.612	1.450	1.293	1.313	1.346	1.712	1.908	1.627	1.257	1.042	0.939	1.004	1.007	1.020	1.245	1.421	1.346	1.013	1.018	0.944	1.058	1.396	1.806	5.928	28.09	99.15	161.2	95.51	10.84
595.0	49.01	56.22	50.97	32.65	25.55	22.70	26.09	25.93	35.87	67.96	83.95	43.59	35.25	43.87	275.8	969.5	252.3	7.526	6.574	5.701	5.601	5.776	4.752	5.027	4.983	4.671	4.399	4.375	4.671	4.737	4.284	3.918	3.755	3.377	3.355	3.156	2.984	2.803	2.667	2.392	2.210	2.083	1.903	1.941	1.640	1.614	1.655	1.438	1.348	1.149	1.017	1.097	1.141	1.123	1.564	1.637	1.488	1.069	1.045	0.908	0.858	0.951	1.005	0.999	1.309	1.045	0.918	0.908	0.796	1.004	1.081	1.996	6.869	22.71	46.00	144.5	123.3
600.0	55.82	50.00	49.71	28.73	25.80	22.58	24.47	25.69	31.37	47.87	90.48	49.72	34.43	28.95	78.39	624.0	695.4	13.58	5.888	5.277	4.936	4.337	4.300	4.535	4.011	3.873	3.758	3.892	3.816	3.722	3.802	3.538	3.378	3.150	2.739	2.912	2.524	2.345	2.239	2.024	2.025	1.829	1.585	1.753	1.521	1.466	1.443	1.255	1.262	1.091	0.908	1.004	0.918	0.998	1.125	1.446	1.653	1.167	0.926	0.913	0.844	0.802	0.843	0.898	1.087	1.164	0.993	0.908	0.813	0.891	0.874	0.993	2.087	5.549	10.93	49.24	154.8
605.0	50.12	50.40	47.03	30.52	27.45	23.06	25.27	26.35	32.03	40.37	80.92	63.18	35.39	26.69	31.07	229.4	1066	63.11	5.354	4.667	4.272	4.216	3.819	3.761	3.373	3.445	3.232	3.456	3.572	3.344	3.543	3.106	2.730	2.639	2.651	2.458	2.306	2.041	1.874	1.628	1.786	1.691	1.382	1.399	1.400	1.369	1.247	1.154	1.101	0.976	0.896	0.850	0.847	0.995	0.964	1.229	1.410	1.330	0.892	0.759	0.768	0.771	0.882	0.921	0.929	1.162	1.148	0.912	0.793	0.782	0.786	0.743	1.106	1.751	2.905	11.71	59.58
610.0	50.27	49.35	42.63	30.17	23.68	23.71	24.31	26.10	30.41	34.89	59.23	79.97	40.28	26.06	20.60	64.47	697.4	427.9	14.27	3.952	3.704	3.720	3.427	3.112	3.071	3.007	2.822	2.874	2.973	3.049	2.691	2.727	2.393	2.213	2.255	2.053	1.915	1.862	1.706	1.581	1.491	1.376	1.270	1.172	1.226	1.124	1.024	1.020	1.001	0.828	0.865	0.810	0.770	0.792	0.796	0.928	1.140	1.235	0.982	0.866	0.743	0.721	0.851	0.742	0.804	0.877	1.132	1.038	0.886	0.830	0.744	0.696	0.747	0.904	1.153	3.110	14.05
615.0	47.37	44.95	41.30	28.95	24.19	22.93	24.14	24.91	30.50	33.97	46.44	76.01	53.30	26.67	17.85	24.14	200.8	612.1	74.32	3.874	3.270	2.912	2.916	2.677	2.525	2.411	2.439	2.317	2.494	2.566	2.192	2.362	1.976	2.077	1.841	1.627	1.635	1.568	1.423	1.305	1.265	1.255	1.060	1.038	1.071	1.014	0.908	0.905	0.869	0.716	0.719	0.821	0.626	0.672	0.741	0.734	0.834	1.033	0.951	0.949	0.716	0.744	0.632	0.697	0.759	0.755	0.862	0.950	1.025	0.816	0.705	0.672	0.785	0.773	0.756	1.042	3.525
620.0	44.64	41.66	40.11	32.37	24.44	22.83	20.92	25.51	28.45	31.34	39.84	58.39	62.80	28.44	16.90	14.70	54.22	409.1	354.2	6.766	3.266	2.765	2.501	2.528	2.292	2.394	2.237	1.991	2.196	2.017	2.104	2.101	1.677	1.879	1.745	1.658	1.509	1.430	1.336	1.204	1.051	0.974	0.851	0.863	0.986	0.984	0.876	0.873	0.743	0.649	0.592	0.659	0.689	0.645	0.658	0.601	0.715	0.839	1.002	1.023	0.790	0.790	0.732	0.646	0.709	0.655	0.792	0.840	1.050	0.955	0.766	0.852	0.670	0.646	0.659	0.751	1.327
625.0	45.22	44.22	37.84	32.07	22.92	21.73	20.58	24.39	26.64	31.29	36.30	46.72	66.50	30.83	17.53	12.49	18.82	159.6	551.8	37.47	2.908	2.571	2.454	2.269	1.979	2.044	2.059	1.735	1.892	1.935	1.779	1.796	1.523	1.560	1.551	1.385	1.333	1.240	1.119	1.040	0.989	0.847	0.830	0.816	0.907	0.787	0.819	0.819	0.719	0.683	0.509	0.678	0.551	0.621	0.557	0.572	0.654	0.720	0.857	0.974	0.801	0.751	0.690	0.744	0.594	0.676	0.731	0.745	0.958	1.091	0.821	0.709	0.578	0.588	0.561	0.610	0.704
630.0	44.31	41.52	37.14	27.92	20.34	19.19	21.69	23.11	25.44	30.17	35.23	40.47	55.75	42.26	18.02	11.57	10.83	43.80	378.6	267.6	6.744	2.338	2.104	2.040	1.797	1.776	1.621	1.680	1.575	1.715	1.546	1.473	1.384	1.352	1.309	1.330	1.180	1.057	1.022	0.956	0.880	0.794	0.826	0.860	0.843	0.660	0.687	0.672	0.633	0.595	0.536	0.676	0.578	0.542	0.531	0.530	0.576	0.682	0.630	0.823	0.780	0.725	0.747	0.686	0.684	0.658	0.654	0.724	0.790	0.875	0.882	0.804	0.586	0.589	0.571	0.608	0.552
635.0	39.11	41.44	35.96	24.90	22.00	16.84	20.24	21.66	25.66	28.84	34.46	34.59	40.66	50.65	21.53	11.85	9.896	15.24	110.9	435.3	53.51	2.235	2.003	1.623	1.602	1.510	1.511	1.358	1.444	1.350	1.448	1.339	1.269	1.348	1.063	1.186	1.065	0.984	0.961	0.854	0.890	0.708	0.614	0.720	0.717	0.704	0.640	0.620	0.560	0.505	0.521	0.571	0.552	0.513	0.557	0.542	0.565	0.628	0.565	0.652	0.687	0.703	0.662	0.697	0.670	0.595	0.611	0.715	0.646	0.748	0.843	0.847	0.700	0.546	0.538	0.633	0.527
640.0	43.56	39.32	33.87	26.52	20.42	19.70	20.34	21.04	25.52	29.36	32.23	35.63	33.43	47.13	28.01	12.82	9.508	8.502	30.57	330.1	218.4	3.332	1.950	1.550	1.450	1.425	1.266	1.326	1.365	1.293	1.381	1.173	1.118	1.094	1.015	1.197	0.954	0.983	0.829	0.775	0.758	0.755	0.703	0.710	0.695	0.663	0.587	0.548	0.529	0.480	0.436	0.525	0.486	0.521	0.551	0.613	0.660	0.534	0.521	0.541	0.685	0.678	0.750	0.677	0.636	0.612	0.684	0.648	0.715	0.688	0.613	0.859	0.733	0.583	0.615	0.586	0.581
645.0	44.90	39.61	31.00	25.02	19.39	17.49	21.12	20.98	23.40	27.76	32.15	33.10	33.42	41.02	34.91	13.73	10.25	7.935	11.14	142.4	378.1	19.22	1.780	1.670	1.644	1.338	1.399	1.152	1.280	1.270	1.227	1.186	1.024	1.058	1.121	1.136	1.040	0.877	0.819	0.718	0.725	0.764	0.682	0.589	0.557	0.561	0.630	0.518	0.595	0.518	0.399	0.489	0.508	0.540	0.632	0.579	0.574	0.592	0.587	0.508	0.648	0.665	0.814	0.586	0.602	0.592	0.624	0.678	0.649	0.627	0.594	0.705	0.776	0.614	0.556	0.598	0.592
650.0	49.26	39.83	37.08	27.60	20.77	17.85	20.47	21.92	24.22	26.19	31.68	32.19	32.51	33.46	38.71	15.62	10.08	7.452	7.156	42.00	369.0	64.41	1.956	1.556	1.441	1.392	1.242	1.184	1.093	1.097	1.165	1.218	1.325	1.058	1.086	1.004	0.958	0.885	0.824	0.758	0.718	0.645	0.563	0.634	0.575	0.516	0.555	0.542	0.500	0.487	0.427	0.517	0.463	0.491	0.537	0.478	0.507	0.525	0.590	0.547	0.608	0.678	0.653	0.692	0.608	0.603	0.515	0.643	0.664	0.632	0.598	0.563	0.678	0.788	0.646	0.514	0.599
