Sample:	'1
File name:	t2025062308原山大道桥.FD3
Run date:	'15:00:19, 06/24/2025
Operator:	Administrator
Comment:	'

Instrument
Model:	F-2700 FL Spectrophotometer
Serial number:	23B8-004
ROM Version:	4J14000 07

Instrument parameters
Measurement type:	3-D scan
Data mode:	Fluorescence
EX  Start WL:	220.0 nm
EX  End WL:	600.0 nm
EX Sampling interval:	5.0 nm
EM  Start WL:	230.0 nm
EM  End WL:	650.0 nm
EM Sampling interval:	5.0 nm
Scan speed:	12000 nm/min
EX Slit:	5.0 nm
EM Slit:	5.0 nm
PMT Voltage:	700 V
Response:	Auto 
Corrected spectra:	Off
Contour interval:	50.000

Peak integration
Integration method:	Rectangular
Sensitivity:	1
Threshold:	1.000

Peaks
No.	ApexEX/EM(nm)	Height(Data)
1	225.0/565.0	46.75
2	225.0/620.0	78.84
3	225.0/640.0	93.49
4	235.0/260.0	284.2
5	235.0/340.0	4559
6	235.0/510.0	252.4
7	240.0/265.0	393.4
8	240.0/525.0	229.2
9	245.0/270.0	440.1
10	245.0/535.0	193.2
11	250.0/275.0	577.6
12	250.0/550.0	163.0
13	255.0/285.0	570.4
14	255.0/565.0	128.2
15	260.0/290.0	510.3
16	260.0/575.0	106.0
17	265.0/585.0	88.47
18	275.0/320.0	3852
19	275.0/615.0	229.2
20	280.0/625.0	196.5
21	330.0/375.0	379.3
22	335.0/380.0	348.5
23	345.0/395.0	271.4
24	350.0/400.0	269.7
25	360.0/415.0	220.9
26	365.0/420.0	211.9
27	410.0/480.0	50.15
28	430.0/505.0	27.98
29	440.0/520.0	19.11
30	455.0/540.0	10.92
31	475.0/350.0	15.31
32	485.0/265.0	1.889
33	505.0/275.0	3.289
34	510.0/280.0	3.520
35	515.0/285.0	3.187
36	560.0/320.0	18.68
37	585.0/325.0	17.41

Data points
	220.0	225.0	230.0	235.0	240.0	245.0	250.0	255.0	260.0	265.0	270.0	275.0	280.0	285.0	290.0	295.0	300.0	305.0	310.0	315.0	320.0	325.0	330.0	335.0	340.0	345.0	350.0	355.0	360.0	365.0	370.0	375.0	380.0	385.0	390.0	395.0	400.0	405.0	410.0	415.0	420.0	425.0	430.0	435.0	440.0	445.0	450.0	455.0	460.0	465.0	470.0	475.0	480.0	485.0	490.0	495.0	500.0	505.0	510.0	515.0	520.0	525.0	530.0	535.0	540.0	545.0	550.0	555.0	560.0	565.0	570.0	575.0	580.0	585.0	590.0	595.0	600.0
230.0	50.72	624.0	1234	343.9	15.42	6.718	5.614	4.171	3.834	3.828	3.345	3.247	2.960	2.627	2.088	1.830	1.583	1.374	1.098	0.955	0.874	0.768	0.763	0.671	0.674	0.623	0.644	0.613	0.603	0.538	0.540	0.448	0.458	0.455	0.402	0.398	0.408	0.407	0.419	0.379	0.387	0.422	0.380	0.354	0.333	0.346	0.883	2.747	3.985	2.723	0.996	0.363	0.265	0.324	0.268	0.244	0.283	0.256	0.267	0.272	0.260	0.276	0.249	0.319	0.267	0.273	0.253	0.266	0.259	0.279	0.263	0.260	0.280	0.285	0.302	0.269	0.307
235.0	72.41	205.7	1027	1573	418.8	23.79	6.490	4.441	4.272	4.314	3.838	3.302	3.209	2.824	2.264	1.883	1.696	1.425	1.026	0.923	0.903	0.802	0.685	0.673	0.628	0.528	0.587	0.597	0.632	0.504	0.468	0.495	0.465	0.501	0.420	0.378	0.412	0.391	0.382	0.441	0.371	0.408	0.346	0.489	0.325	0.330	0.399	0.934	2.095	3.463	5.242	5.113	1.990	0.603	0.263	0.212	0.260	0.302	0.288	0.273	0.283	0.242	0.302	0.255	0.247	0.272	0.273	0.228	0.247	0.249	0.261	0.258	0.282	0.252	0.335	0.327	0.278
240.0	117.2	96.90	366.7	1622	1744	315.7	11.76	6.271	4.950	3.931	3.884	3.438	3.100	2.951	2.430	1.753	1.584	1.544	1.049	0.981	0.911	0.838	0.819	0.686	0.641	0.737	0.559	0.532	0.676	0.489	0.519	0.456	0.471	0.451	0.393	0.407	0.411	0.417	0.408	0.384	0.385	0.445	0.333	0.404	0.526	0.534	0.358	0.495	0.771	1.313	3.399	7.511	8.018	5.201	1.744	0.335	0.243	0.312	0.275	0.254	0.256	0.228	0.363	0.278	0.276	0.291	0.239	0.251	0.245	0.267	0.241	0.262	0.222	0.278	0.321	0.321	0.289
245.0	109.3	150.7	131.2	650.3	2243	1675	200.2	7.940	4.715	4.188	4.389	3.234	3.545	2.713	2.694	1.665	1.611	1.548	1.347	1.118	0.920	0.757	0.843	0.744	0.649	0.667	0.607	0.589	0.650	0.545	0.558	0.505	0.417	0.527	0.411	0.431	0.321	0.456	0.409	0.417	0.365	0.393	0.452	0.319	0.466	0.660	0.642	0.607	0.415	0.520	1.054	2.971	6.967	10.66	9.124	4.273	1.083	0.340	0.271	0.261	0.233	0.248	0.293	0.280	0.328	0.260	0.259	0.273	0.237	0.236	0.265	0.273	0.258	0.257	0.248	0.302	0.301
250.0	56.40	140.5	189.5	211.2	818.2	2055	2152	606.0	27.77	5.968	5.351	4.239	3.705	3.090	2.550	2.224	1.967	1.532	1.364	1.070	0.961	0.817	0.801	0.874	0.756	0.640	0.703	0.570	0.596	0.602	0.520	0.508	0.481	0.491	0.483	0.449	0.381	0.425	0.417	0.388	0.410	0.391	0.416	0.348	0.384	0.398	0.513	0.711	0.824	0.691	0.578	0.952	1.924	4.100	6.896	9.980	12.10	9.284	4.696	1.138	0.335	0.265	0.273	0.296	0.294	0.303	0.287	0.307	0.274	0.254	0.289	0.241	0.279	0.304	0.327	0.306	0.329
255.0	37.05	54.82	175.1	269.6	247.8	582.9	2230	2804	287.4	24.23	7.354	5.750	4.559	3.504	2.790	2.459	2.046	1.833	1.413	1.249	0.930	0.842	0.819	0.921	0.755	0.851	0.744	0.575	0.635	0.616	0.578	0.548	0.465	0.491	0.595	0.391	0.397	0.460	0.400	0.396	0.404	0.365	0.334	0.310	0.382	0.312	0.327	0.459	0.602	0.854	1.143	1.213	0.823	1.218	1.827	2.760	5.508	12.18	19.28	15.78	6.236	1.132	0.423	0.358	0.315	0.266	0.316	0.285	0.294	0.252	0.320	0.269	0.297	0.298	0.271	0.342	0.353
260.0	32.68	31.68	82.10	284.2	265.3	195.2	777.2	3251	2323	221.7	13.63	7.822	5.132	3.960	3.267	2.392	2.027	1.804	1.543	1.375	1.192	1.023	0.802	0.874	0.796	0.763	0.707	0.619	0.762	0.590	0.554	0.540	0.595	0.483	0.522	0.405	0.413	0.419	0.372	0.376	0.360	0.384	0.374	0.415	0.338	0.300	0.309	0.369	0.331	0.487	0.935	1.614	1.550	0.863	0.754	0.972	1.621	3.826	9.929	19.25	23.32	15.13	4.067	0.656	0.338	0.270	0.342	0.328	0.356	0.219	0.346	0.281	0.296	0.293	0.303	0.308	0.273
265.0	33.06	23.48	39.95	169.6	393.4	227.3	243.1	1309	4220	1965	162.0	9.540	6.314	4.613	3.444	2.789	2.287	1.975	1.633	1.275	1.094	1.189	0.851	0.781	0.996	0.718	0.815	0.668	0.741	0.600	0.652	0.503	0.585	0.507	0.532	0.436	0.460	0.487	0.342	0.377	0.493	0.373	0.431	0.411	0.322	0.344	0.354	0.392	0.372	0.333	0.474	1.025	1.736	1.889	1.207	0.736	0.834	1.290	2.695	6.706	16.12	27.13	25.60	11.74	2.300	0.385	0.328	0.355	0.348	0.265	0.317	0.326	0.287	0.284	0.344	0.282	0.298
270.0	39.07	31.10	28.58	76.95	266.7	440.1	293.6	372.0	1550	3816	3648	644.9	27.49	6.135	4.357	3.213	2.572	2.175	1.736	1.376	1.344	1.040	0.915	0.987	0.883	0.775	0.823	0.686	0.736	0.667	0.689	0.612	0.617	0.555	0.507	0.478	0.504	0.494	0.419	0.442	0.477	0.417	0.393	0.358	0.399	0.354	0.339	0.345	0.341	0.316	0.352	0.545	0.883	1.432	2.020	2.092	1.673	1.180	1.169	1.891	4.225	8.757	15.40	22.54	25.43	18.72	9.536	2.065	0.488	0.398	0.331	0.349	0.291	0.294	0.373	0.335	0.336
275.0	56.61	45.79	42.91	61.88	144.9	323.9	577.6	301.6	402.4	1031	3898	5931	804.4	19.70	6.222	4.348	3.034	2.431	2.065	1.605	1.311	1.087	1.189	0.985	1.034	0.871	0.752	0.653	0.804	0.677	0.675	0.602	0.691	0.554	0.494	0.520	0.555	0.547	0.473	0.405	0.409	0.382	0.443	0.366	0.533	0.412	0.327	0.341	0.340	0.355	0.325	0.567	0.625	0.855	1.091	1.420	2.903	3.289	1.980	1.137	1.416	2.407	3.815	5.601	9.316	20.71	37.16	28.55	12.46	1.874	0.434	0.390	0.326	0.340	0.378	0.308	0.322
280.0	73.10	62.80	57.70	63.80	113.7	207.0	469.2	543.5	207.4	277.7	1217	5760	5226	137.3	11.05	5.461	3.781	3.009	2.115	2.018	1.463	1.122	1.263	1.096	0.933	0.816	0.750	0.790	0.784	0.722	0.684	0.652	0.634	0.601	0.663	0.530	0.586	0.497	0.502	0.411	0.480	0.449	0.482	0.450	0.411	0.463	0.438	0.433	0.367	0.433	0.381	0.550	0.632	0.756	0.883	1.064	1.685	2.697	3.520	2.560	1.211	0.995	1.353	1.706	2.525	5.633	15.17	30.68	41.06	25.14	8.234	1.022	0.362	0.348	0.411	0.313	0.374
285.0	92.04	105.7	83.03	76.52	103.6	162.6	258.2	570.4	321.3	139.3	336.4	1968	6677	3905	96.83	7.621	5.123	3.335	2.388	2.048	1.569	1.431	1.345	1.138	0.997	0.928	0.835	0.775	0.700	0.781	0.721	0.681	0.739	0.545	0.716	0.541	0.550	0.498	0.473	0.494	0.454	0.475	0.427	0.470	0.474	0.546	0.534	0.550	0.452	0.463	0.413	0.523	0.580	0.744	0.779	0.915	1.109	1.367	2.156	3.187	3.152	1.715	0.808	0.916	1.132	1.671	3.959	8.737	20.48	37.39	34.11	20.24	4.446	0.550	0.439	0.359	0.376
290.0	128.3	146.8	136.8	106.0	106.0	139.6	161.3	278.4	510.3	409.1	210.1	549.0	2149	4805	3448	398.7	21.00	5.257	3.258	2.636	1.921	1.631	1.509	1.191	1.033	1.067	0.924	0.835	0.767	0.811	0.797	0.713	0.686	0.676	0.709	0.686	0.689	0.606	0.528	0.587	0.437	0.472	0.579	0.459	0.543	0.552	0.650	0.684	0.710	0.595	0.521	0.543	0.602	0.705	0.717	0.846	0.882	0.882	1.122	1.609	2.261	3.109	3.122	2.255	1.301	1.153	1.542	2.609	5.363	10.56	17.41	26.65	29.04	27.91	14.21	4.453	0.783
295.0	188.1	228.5	218.0	158.1	132.3	141.5	155.3	179.3	290.6	673.8	570.4	311.0	637.1	1281	3390	5407	549.9	24.62	5.181	3.327	2.445	1.850	1.729	1.259	1.360	1.128	1.064	0.887	0.871	0.762	0.821	0.719	0.734	0.654	0.793	0.743	0.702	0.666	0.557	0.570	0.499	0.577	0.567	0.569	0.659	0.660	0.768	0.805	0.938	0.848	0.698	0.740	0.671	0.783	0.763	0.758	0.939	0.926	0.883	1.095	1.420	1.628	2.242	4.057	4.238	2.576	1.646	1.661	2.434	3.425	4.868	6.961	8.765	17.66	35.24	34.82	22.39
300.0	276.0	396.1	391.9	299.5	236.1	253.0	295.1	320.7	343.8	786.9	1254	911.7	752.6	754.6	1303	4850	4772	88.56	17.83	5.112	2.987	2.405	1.973	1.734	1.199	1.123	1.074	0.998	0.909	0.825	0.758	0.737	0.873	0.736	0.797	0.734	0.766	0.835	0.652	0.692	0.549	0.646	0.698	0.732	0.868	0.946	1.114	1.250	1.190	1.185	1.034	1.096	1.180	0.954	1.113	1.199	1.428	1.446	1.678	1.891	2.086	2.463	2.907	3.910	5.471	6.486	5.516	3.968	3.579	3.966	4.019	4.110	4.379	6.503	13.45	25.68	44.25
305.0	497.0	714.5	723.0	566.6	467.8	504.1	709.4	943.7	1236	1728	2018	2629	1463	1247	1209	2310	6062	3824	74.95	9.895	4.387	2.887	2.437	1.988	1.575	1.441	1.201	1.090	1.201	0.841	0.938	1.059	0.814	0.875	0.909	0.857	0.872	0.976	0.791	0.841	0.833	0.889	0.874	1.000	1.267	1.598	1.647	2.237	2.099	2.037	1.725	1.899	2.062	1.964	2.269	2.394	2.755	3.521	4.093	4.630	5.163	6.022	7.257	8.007	9.129	10.84	12.55	12.30	10.87	9.489	8.574	7.873	8.191	8.807	9.473	11.52	20.26
310.0	729.7	1129	1180	946.3	774.3	839.9	1114	1469	1863	2449	2937	3585	3233	2407	2018	1798	2977	4358	3530	297.0	17.47	4.110	3.327	2.517	2.073	1.613	1.510	1.190	1.216	1.205	1.030	1.052	1.023	0.918	0.999	0.932	0.931	1.024	1.013	1.007	1.004	1.092	1.213	1.263	1.714	2.248	2.717	3.375	3.374	3.151	2.820	3.140	3.120	3.122	3.297	3.696	4.236	5.299	6.075	6.568	7.443	8.672	10.40	11.74	12.35	13.48	15.09	16.65	17.21	16.21	13.98	12.52	11.56	12.27	10.99	10.49	11.18
315.0	1007	1566	1670	1349	1073	1082	1367	1725	2086	2702	3257	3753	3762	3259	2501	1861	2032	1721	2636	4278	440.1	14.79	4.522	3.359	2.456	1.916	1.924	1.399	1.331	1.264	1.333	1.113	1.089	0.980	1.080	1.029	1.073	1.081	1.069	1.215	1.378	1.360	1.530	1.662	2.173	2.687	3.561	4.654	4.899	4.077	3.752	4.286	4.170	4.092	4.441	4.680	5.431	6.111	6.931	7.861	8.497	9.639	10.99	12.33	13.63	14.68	16.12	17.13	17.97	18.10	17.87	16.72	14.59	14.54	12.25	10.94	10.10
320.0	1149	1850	1988	1578	1245	1237	1504	1841	2194	2796	3393	3852	3819	3514	2903	1983	1877	1134	851.2	3292	3718	66.12	8.866	4.380	3.101	2.421	1.905	1.622	1.642	1.337	1.282	1.216	1.020	1.053	1.093	1.128	1.071	1.139	1.041	1.086	1.261	1.272	1.733	1.769	2.618	3.187	4.237	5.512	5.846	4.785	4.620	5.133	4.817	4.654	4.514	4.931	5.833	6.894	7.458	8.289	8.306	10.03	11.61	12.84	13.88	15.00	16.38	17.67	18.68	18.14	17.94	16.99	17.61	16.39	13.99	11.75	10.45
325.0	1243	2069	2310	1871	1389	1263	1503	1808	2073	2603	3179	3646	3643	3273	2988	2068	1749	979.6	394.8	1017	3752	2953	55.62	6.902	3.887	2.421	2.167	1.628	1.569	1.485	1.260	1.148	1.051	1.139	1.109	1.095	1.069	1.141	1.061	1.217	1.291	1.460	1.484	1.897	2.699	3.352	4.716	6.105	6.571	5.901	5.252	5.980	5.483	4.953	4.907	5.088	5.828	6.979	7.759	8.219	8.436	9.425	11.15	11.73	13.01	14.54	15.42	16.68	17.98	17.44	16.72	16.09	16.99	17.41	14.76	12.12	10.43
330.0	1495	2516	3192	2949	2180	1542	1472	1699	1869	2316	2846	3309	3370	3031	2712	2171	1754	964.2	383.7	389.0	1173	2826	2908	245.5	16.91	3.686	2.693	1.977	1.836	1.645	1.388	1.221	1.193	1.160	1.069	1.151	1.033	1.114	1.082	1.242	1.295	1.525	1.590	2.086	3.024	4.085	5.350	7.761	8.481	8.212	8.190	9.832	8.405	7.646	6.286	5.577	5.992	6.570	7.318	7.634	7.807	8.553	9.934	10.80	11.65	12.87	13.85	15.21	16.56	15.78	15.90	15.27	14.66	14.78	14.14	12.73	11.63
335.0	1687	2988	4056	4232	3428	2054	1525	1624	1743	2104	2602	3031	3137	2887	2549	2052	1877	1104	500.4	354.4	451.6	804.2	2025	3541	391.7	15.66	3.550	2.629	2.124	1.682	1.580	1.168	1.204	1.267	1.246	1.160	1.076	1.099	1.209	1.262	1.373	1.496	1.786	2.371	3.195	4.702	6.199	9.048	10.97	10.91	11.33	13.96	12.93	11.92	8.707	6.819	6.340	6.513	7.116	7.215	7.381	8.065	8.554	9.557	10.74	11.77	12.63	13.69	14.89	14.80	15.12	14.72	14.29	14.07	13.10	11.66	11.28
340.0	1731	3056	4265	4559	3716	2181	1499	1500	1577	1890	2298	2694	2812	2640	2320	1844	1694	1201	563.7	363.2	308.9	343.7	653.2	2694	3170	302.2	7.346	3.174	2.608	2.115	1.736	1.402	1.253	1.389	1.273	1.128	1.183	1.173	1.250	1.329	1.466	1.406	1.693	2.291	3.224	4.776	6.273	9.208	11.12	11.32	12.23	15.17	14.19	12.76	9.325	6.922	6.192	6.169	6.448	6.557	6.626	7.104	7.569	8.829	9.380	10.50	11.51	12.34	13.00	13.62	13.62	13.59	13.19	12.99	11.52	10.72	10.17
345.0	1635	2985	4138	4505	3693	2109	1385	1375	1442	1674	2018	2343	2473	2352	2067	1658	1434	1137	666.0	380.9	287.9	253.7	287.1	836.7	3065	2587	49.70	4.941	2.848	2.128	1.706	1.578	1.334	1.353	1.290	1.109	1.208	1.122	1.194	1.220	1.237	1.381	1.662	2.308	3.025	4.391	5.950	8.571	10.70	11.02	12.12	15.07	14.13	12.79	9.352	6.447	5.689	5.819	5.859	6.178	6.077	6.461	6.825	7.787	8.501	9.314	9.908	10.80	11.30	11.85	12.44	11.83	11.61	11.12	10.62	9.511	9.320
350.0	1458	2726	3986	4485	3763	2160	1325	1268	1282	1478	1749	2010	2105	2039	1823	1487	1260	958.2	726.8	510.6	328.2	262.6	232.3	286.5	904.2	2245	2365	219.6	14.02	2.712	2.002	1.682	1.466	1.361	1.239	1.156	1.078	1.053	1.071	0.978	1.093	1.278	1.529	2.010	2.777	4.098	5.438	8.156	9.935	10.52	12.27	15.31	14.31	12.94	9.545	6.356	5.612	5.598	5.586	5.308	5.568	5.760	6.343	6.960	7.547	7.844	8.542	9.450	9.731	10.10	10.34	10.53	10.27	10.31	9.506	8.813	8.609
355.0	1280	2393	3572	4090	3557	2070	1289	1171	1181	1320	1522	1713	1791	1740	1575	1310	1108	841.7	623.0	586.7	426.7	284.0	236.9	180.8	260.1	552.5	1545	2868	355.0	12.67	2.716	2.053	1.463	1.302	1.251	1.162	1.161	0.974	1.029	0.988	0.996	1.077	1.441	1.824	2.502	3.422	5.023	7.003	8.790	9.548	10.82	14.13	13.85	11.80	9.011	6.401	5.582	5.165	5.069	5.043	5.074	5.596	5.601	6.143	6.691	6.711	7.226	8.157	8.238	8.558	8.808	9.036	8.614	9.170	8.190	8.029	7.285
360.0	1175	2108	3107	3628	3216	1929	1228	1110	1117	1205	1362	1493	1548	1517	1377	1161	991.8	762.4	562.9	514.2	498.2	325.2	239.9	163.8	127.5	165.3	422.5	2116	2686	279.2	5.776	2.345	1.804	1.629	1.131	1.032	1.197	0.948	1.030	1.053	0.961	1.276	1.363	1.864	2.256	3.119	4.293	6.275	7.888	8.411	9.649	12.29	12.37	11.02	8.492	5.900	5.456	4.903	4.961	4.678	4.874	5.058	5.547	5.409	6.118	6.012	6.405	6.518	7.203	7.651	7.515	7.611	7.628	7.885	7.327	7.195	6.645
365.0	1002	1891	2789	3231	2916	1798	1170	1038	1050	1122	1236	1346	1371	1336	1225	1042	899.9	701.0	539.1	455.0	473.8	405.6	258.3	171.6	110.5	88.43	130.0	626.5	2598	2255	45.65	3.563	2.156	1.817	1.292	1.144	1.053	1.040	0.881	0.860	1.012	1.119	1.257	1.597	2.003	2.954	3.678	5.583	6.977	7.386	8.253	11.08	11.19	10.30	7.951	5.759	5.054	4.673	4.728	4.597	4.742	4.672	4.912	4.977	5.594	5.558	5.891	6.116	6.489	6.873	6.632	6.495	6.730	7.050	6.478	6.468	6.050
370.0	876.0	1584	2349	2816	2595	1666	1101	977.8	989.3	1042	1111	1183	1197	1162	1065	929.6	813.9	661.8	519.8	434.1	403.3	415.2	346.6	204.2	128.8	91.85	78.47	174.5	756.4	2005	2115	197.3	12.07	2.221	1.643	1.284	1.095	1.070	0.981	0.923	1.068	1.006	1.179	1.379	1.843	2.451	3.307	4.740	6.092	6.330	7.321	9.487	9.908	9.185	7.136	5.214	4.921	4.317	4.408	4.275	4.357	4.244	4.746	4.736	4.838	5.092	5.159	5.466	5.711	6.026	5.879	6.066	5.923	5.980	5.732	5.641	5.451
375.0	755.0	1321	1980	2372	2220	1509	1037	934.8	932.5	962.5	1019	1057	1050	1007	928.3	811.7	726.1	613.2	504.4	429.8	378.3	356.1	379.3	290.2	164.2	116.1	89.66	87.91	206.1	490.5	1423	2478	303.2	10.77	2.180	1.549	1.278	1.256	1.082	0.980	0.912	0.982	1.177	1.227	1.580	2.211	2.791	3.841	4.969	5.201	6.171	8.028	8.446	8.050	6.504	4.814	4.505	4.240	4.092	4.107	4.054	4.286	4.200	4.295	4.447	4.379	4.738	4.797	5.166	5.125	5.180	5.233	5.331	5.168	4.865	5.084	4.679
380.0	670.2	1141	1718	2046	1974	1371	992.1	899.2	895.0	914.6	945.7	975.5	963.8	911.2	836.0	743.2	669.1	578.6	490.5	422.8	375.9	336.2	340.2	348.5	223.4	143.2	113.5	88.40	95.97	144.8	394.0	1879	2175	223.3	4.625	1.914	1.552	1.297	1.018	0.829	1.058	0.984	1.108	1.118	1.658	1.892	2.507	3.643	4.237	4.968	5.540	7.000	7.298	7.001	5.768	4.414	4.138	4.161	4.103	3.714	4.075	4.268	4.123	4.288	4.386	4.505	4.511	4.710	4.606	4.783	4.756	4.659	4.803	4.648	4.502	4.590	4.689
385.0	627.4	1029	1501	1819	1751	1269	942.6	867.3	846.2	873.9	895.0	901.7	890.6	840.7	769.6	688.0	629.1	546.3	476.5	416.9	375.1	336.5	316.6	330.8	290.3	178.7	132.9	102.9	85.96	77.53	119.6	561.6	2095	1703	36.45	2.832	1.807	1.283	1.086	0.844	1.125	0.953	1.019	1.165	1.532	1.803	2.244	3.098	3.904	4.135	4.864	6.214	6.492	6.159	5.123	4.394	4.024	3.889	3.544	3.818	3.839	3.900	3.972	3.946	4.019	4.292	4.090	4.293	4.410	4.409	4.329	4.317	4.265	4.379	4.323	4.323	4.236
390.0	544.2	907.3	1292	1551	1518	1145	882.3	813.3	793.5	811.4	826.3	826.9	811.5	766.8	699.2	627.4	577.9	519.1	457.8	408.7	371.3	337.2	309.9	288.0	293.5	248.6	165.6	120.2	95.28	76.56	66.74	153.8	614.3	1530	1517	153.5	9.641	1.746	1.267	1.006	1.067	0.940	0.981	1.096	1.374	1.748	2.026	2.778	3.364	3.718	4.107	5.513	5.707	5.385	4.626	3.974	3.874	3.577	3.491	3.555	3.501	3.646	3.709	3.672	3.634	3.884	3.972	3.832	4.206	3.954	3.993	4.082	4.041	3.938	3.877	3.845	3.921
395.0	481.9	812.2	1118	1331	1331	1043	818.6	767.8	750.5	761.1	767.5	757.0	745.4	693.6	640.9	578.6	539.2	491.7	442.4	401.6	372.2	341.8	313.5	281.5	259.1	271.4	232.6	149.7	111.3	87.46	67.60	71.30	163.0	374.4	1077	1783	241.6	6.691	1.682	1.188	1.170	1.097	0.926	1.027	1.289	1.640	1.743	2.431	2.905	3.295	3.748	4.681	4.870	4.716	4.357	3.786	3.612	3.632	3.569	3.338	3.403	3.527	3.580	3.728	3.552	3.502	3.748	3.696	3.840	3.577	3.577	3.749	3.448	3.701	3.725	3.624	3.550
400.0	448.0	703.5	1007	1202	1195	968.1	795.1	737.8	740.8	734.2	744.4	722.9	715.8	653.8	601.0	558.2	509.7	472.6	432.1	398.4	374.2	349.9	321.4	285.7	257.6	250.7	269.7	192.8	129.9	102.0	78.00	59.95	67.67	105.7	302.2	1400	1536	37.03	3.362	1.492	1.194	1.004	1.042	1.046	1.140	1.652	1.772	2.254	2.764	2.907	3.335	4.042	4.343	4.388	3.964	3.497	3.367	3.404	3.415	3.385	3.371	3.388	3.404	3.459	3.467	3.187	3.484	3.540	3.377	3.408	3.525	3.417	3.403	3.591	3.328	3.625	3.628
405.0	427.7	675.0	935.8	1094	1096	936.1	774.8	727.9	717.0	711.1	716.3	701.8	678.3	628.5	574.2	532.1	492.5	455.9	422.7	394.7	372.1	346.3	326.6	294.4	264.2	244.5	254.9	240.6	158.5	116.1	89.97	66.44	53.77	50.74	86.53	423.4	1535	1175	30.83	2.236	1.455	1.115	1.101	1.029	1.312	1.549	1.552	2.078	2.624	2.897	2.989	3.658	4.163	4.174	3.686	3.175	3.147	3.264	3.333	3.308	3.010	3.259	3.336	3.504	3.300	3.218	3.184	3.431	3.217	3.040	3.338	3.295	3.359	3.364	3.271	3.359	3.331
410.0	390.9	612.5	832.4	991.5	1001	868.9	751.6	699.2	681.8	685.2	681.7	665.8	633.9	595.5	544.4	500.0	466.9	437.3	407.9	383.4	362.4	341.6	324.3	297.0	270.0	244.4	232.8	239.4	210.9	145.8	105.1	77.71	59.83	46.42	42.91	111.3	454.9	1118	1107	141.7	7.290	1.416	1.198	1.091	1.221	1.364	1.451	1.914	2.406	2.519	2.686	3.458	3.728	3.774	3.510	3.150	3.232	3.229	3.172	2.928	3.031	3.092	3.194	3.125	3.245	3.026	2.942	3.087	3.185	2.978	3.200	3.129	3.122	3.172	3.087	3.089	3.100
415.0	359.7	571.2	750.0	888.3	894.1	796.7	717.5	679.2	646.7	659.0	644.5	624.3	587.6	545.9	506.4	472.6	442.2	411.6	390.0	366.7	349.7	331.5	315.3	294.6	271.8	246.2	224.3	210.2	220.9	193.1	123.0	89.20	68.32	50.86	39.06	45.20	115.3	272.9	791.9	1325	206.2	5.231	1.553	1.316	1.140	1.340	1.461	1.933	2.231	2.328	2.399	3.313	3.347	3.274	3.063	3.106	3.005	3.064	2.922	2.941	2.937	2.984	2.875	2.981	3.013	3.050	2.813	2.901	2.792	2.864	2.903	2.799	2.808	2.878	2.874	2.822	3.048
420.0	346.0	538.2	714.1	815.0	827.5	764.7	689.0	653.0	631.3	628.5	619.2	598.4	564.2	524.4	484.6	443.6	421.0	394.2	374.4	352.7	336.6	325.6	311.9	289.5	267.0	244.8	222.9	202.9	200.8	211.9	152.3	98.56	74.01	56.06	41.07	33.00	41.83	72.27	219.6	1035	1124	33.88	2.714	1.474	1.291	1.312	1.450	1.872	2.063	2.141	2.262	2.969	3.326	3.097	2.886	2.862	2.904	2.898	2.849	3.035	2.731	2.863	2.886	2.814	2.848	2.803	2.577	2.627	2.581	2.794	2.642	2.791	2.466	2.780	2.566	2.830	2.770
425.0	321.7	509.7	664.3	760.3	795.7	744.6	680.0	653.3	619.5	605.7	598.6	572.8	540.9	497.3	466.3	428.4	400.5	375.0	360.9	343.3	326.8	314.1	301.1	286.8	264.2	242.7	222.3	204.1	188.5	197.3	179.8	116.3	80.85	62.40	46.87	34.64	28.32	29.27	59.05	313.4	1102	876.2	27.70	1.943	1.415	1.408	1.392	1.788	1.949	1.796	2.229	2.711	2.983	2.782	2.843	2.770	2.896	2.715	2.914	2.919	2.706	3.059	2.879	2.812	2.973	2.819	2.733	2.703	2.698	2.700	2.706	2.611	2.509	2.719	2.640	2.869	2.755
430.0	316.7	478.8	625.9	717.5	733.9	700.2	665.5	645.9	614.1	588.8	580.4	557.7	522.8	477.4	447.8	408.1	382.2	362.8	345.0	328.2	313.3	302.7	291.6	276.7	259.6	241.6	222.5	204.1	187.3	177.1	176.9	151.7	99.59	71.09	53.57	40.21	30.04	23.54	25.93	79.34	322.5	812.5	849.7	128.3	7.025	1.622	1.413	1.751	1.839	1.805	2.025	2.550	2.726	2.700	2.729	2.731	2.916	2.803	2.754	2.800	2.969	2.679	2.629	2.688	2.806	2.645	2.536	2.489	2.620	2.578	2.425	2.578	2.494	2.547	2.414	2.681	2.612
435.0	396.9	439.8	588.1	669.1	710.3	673.6	652.5	645.5	608.7	580.2	563.7	540.6	495.4	447.7	424.6	385.0	361.3	343.7	330.3	314.5	297.4	286.8	280.8	267.0	254.5	236.8	221.5	204.4	191.0	174.8	160.2	156.9	132.8	86.13	62.42	47.00	35.49	26.59	21.30	29.39	80.95	196.2	596.3	1061	197.0	6.112	1.932	1.759	1.902	1.800	1.997	2.549	2.576	2.565	2.572	2.690	2.755	2.963	2.865	2.928	2.792	2.776	2.676	2.698	2.658	2.499	2.327	2.541	2.622	2.565	2.237	2.453	2.401	2.446	2.377	2.389	2.468
440.0	503.5	431.8	561.8	632.4	678.7	665.5	656.1	633.2	609.3	569.6	547.3	519.9	482.4	435.1	403.8	372.0	349.6	332.2	318.7	302.5	287.3	275.8	269.5	258.6	247.6	231.4	219.3	203.3	192.8	174.7	154.3	144.2	144.4	105.6	68.81	51.52	39.14	29.91	23.21	20.21	28.13	51.72	164.8	814.5	993.9	31.54	3.361	2.026	1.967	1.895	1.892	2.525	2.723	2.665	2.581	2.780	2.882	2.669	2.717	2.895	2.606	2.791	2.644	2.591	2.522	2.485	2.468	2.457	2.442	2.573	2.212	2.344	2.301	2.426	2.284	2.477	2.446
445.0	572.3	505.7	538.9	607.6	653.2	658.7	646.5	623.5	593.9	563.4	535.0	503.9	466.4	425.9	387.1	355.5	333.5	319.6	303.2	291.2	275.5	262.5	259.3	249.5	237.9	226.3	214.2	202.9	190.6	174.9	152.5	134.6	134.7	121.9	79.50	57.42	43.24	33.11	25.27	19.93	18.30	20.66	43.90	245.5	955.6	799.9	25.06	2.366	2.042	2.099	1.769	2.300	2.437	2.508	2.553	2.572	2.784	2.608	2.783	2.674	2.722	2.583	2.611	2.575	2.631	2.372	2.370	2.419	2.400	2.359	2.237	2.260	2.226	2.333	2.193	2.318	2.234
450.0	459.2	784.3	555.8	568.4	621.0	616.9	624.3	603.6	568.3	530.7	502.1	468.7	436.7	396.3	364.2	333.1	312.9	299.6	283.6	272.7	255.2	246.5	240.6	234.5	225.2	212.8	203.9	193.6	183.9	171.3	151.9	132.2	118.8	116.8	99.35	68.04	48.12	37.75	29.31	23.18	18.22	15.40	17.84	61.55	276.2	712.7	779.4	118.1	6.850	2.142	1.944	2.274	2.348	2.586	2.461	2.532	2.554	2.656	2.739	2.620	2.541	2.676	2.469	2.495	2.495	2.301	2.169	2.257	2.291	2.196	2.104	2.134	2.155	2.200	2.174	2.142	2.102
455.0	299.3	924.1	825.1	546.9	572.8	590.5	594.9	580.3	542.1	497.1	472.3	441.6	410.4	371.7	336.6	307.2	291.3	273.2	261.2	247.8	233.4	225.7	220.0	215.2	208.2	198.5	190.0	183.0	173.9	164.2	148.0	129.2	111.5	99.68	98.39	83.89	55.64	41.32	33.05	25.62	19.83	16.30	13.58	21.02	67.28	170.7	474.5	886.6	166.2	6.558	2.151	2.325	2.326	2.430	2.430	2.371	2.488	2.488	2.682	2.689	2.660	2.618	2.491	2.408	2.276	2.070	2.012	2.072	2.148	2.001	2.003	2.184	2.016	2.003	1.999	2.028	2.250
460.0	229.7	747.8	1167	568.0	539.8	550.1	567.4	552.7	522.9	475.2	442.8	417.5	377.2	348.1	316.1	287.4	274.8	254.9	243.7	230.2	216.3	209.6	206.3	198.9	194.4	187.0	179.8	173.4	166.0	157.6	142.4	126.0	107.7	93.69	88.08	88.30	65.91	44.08	34.87	27.66	22.08	17.57	13.90	13.40	22.15	43.51	125.2	618.7	784.1	121.3	3.504	2.413	2.287	2.321	2.232	2.215	2.406	2.405	2.434	2.496	2.331	2.336	2.301	2.329	2.250	1.987	2.003	2.045	1.996	1.843	1.936	2.055	2.013	1.832	1.834	1.991	1.989
465.0	203.9	494.4	1386	767.8	508.4	525.9	529.5	521.8	492.4	449.3	424.3	396.5	355.9	324.8	298.6	272.9	255.4	239.1	229.7	217.0	200.7	190.3	191.3	183.6	179.5	175.7	169.6	163.9	158.2	149.8	136.7	121.2	105.4	90.98	79.46	79.56	74.24	50.17	35.98	28.96	23.66	18.74	14.85	12.41	12.62	15.91	32.87	177.7	709.9	638.1	21.82	2.800	2.322	2.347	2.343	2.246	2.468	2.419	2.212	2.326	2.470	2.191	2.161	2.273	2.319	2.106	1.941	1.871	2.083	1.820	1.804	1.871	1.929	1.851	1.821	1.872	1.917
470.0	195.5	310.3	1011	1338	561.0	477.9	489.4	478.1	452.1	409.6	384.7	355.8	327.5	294.1	266.2	242.7	228.7	214.5	203.4	193.6	180.2	172.5	169.9	164.7	161.8	156.9	153.3	149.3	144.7	138.2	127.5	113.0	99.49	86.51	74.85	67.36	67.28	58.75	40.96	29.93	23.88	20.28	16.01	12.87	11.18	10.28	12.94	44.46	198.3	496.0	563.0	112.9	8.012	2.295	2.231	2.015	2.340	2.321	2.225	2.173	2.175	2.049	1.956	2.107	1.959	1.883	1.762	1.827	1.859	1.700	1.650	1.579	1.662	1.636	1.740	1.602	1.689
475.0	193.3	263.1	509.9	1427	989.7	431.4	438.0	431.1	403.8	366.1	347.9	322.0	298.2	265.2	241.4	220.4	205.7	192.6	181.8	170.5	159.6	152.1	149.5	146.3	143.1	139.1	135.5	133.4	131.2	124.7	116.7	104.9	91.67	80.02	70.62	61.52	55.10	56.11	48.27	34.12	24.78	20.42	17.18	13.86	11.94	10.07	9.028	15.11	48.39	116.3	283.1	595.5	169.6	8.872	2.240	2.051	2.208	2.059	2.250	1.980	1.932	1.937	1.830	1.789	1.914	1.582	1.621	1.692	1.672	1.728	1.566	1.417	1.555	1.461	1.490	1.580	1.582
480.0	192.6	233.3	344.8	1038	1471	471.8	408.4	391.8	376.3	345.2	319.2	294.9	270.7	246.5	222.1	200.7	187.6	174.5	166.0	157.6	144.2	138.4	135.7	132.0	129.2	128.2	124.6	124.3	121.7	116.7	109.3	98.28	86.58	76.07	67.34	58.52	49.97	48.88	50.15	39.42	26.50	20.91	18.18	14.86	12.54	10.67	8.977	8.606	15.36	29.63	71.79	340.5	588.8	144.4	4.408	2.177	1.989	1.980	2.041	1.904	1.828	1.700	1.774	1.671	1.747	1.587	1.573	1.491	1.694	1.542	1.470	1.469	1.405	1.448	1.331	1.404	1.480
485.0	177.1	243.9	286.1	615.0	1654	610.1	375.3	371.3	346.5	327.7	302.0	280.2	256.4	231.8	204.9	187.2	171.7	161.6	151.2	144.6	133.7	126.1	123.7	121.7	122.7	119.0	117.9	114.3	114.2	108.0	103.5	93.42	81.24	72.77	64.11	56.12	48.04	43.62	44.84	44.08	30.08	21.58	18.52	15.24	13.10	11.18	9.395	7.675	8.301	10.64	19.55	91.76	438.9	541.6	27.18	2.946	2.060	2.061	1.902	1.915	1.665	1.764	1.737	1.625	1.580	1.609	1.480	1.508	1.510	1.392	1.388	1.386	1.429	1.529	1.272	1.265	1.350
490.0	146.4	244.4	260.7	366.9	1096	1318	430.6	337.0	321.4	299.1	282.6	262.5	235.8	209.7	189.3	171.5	154.7	148.3	138.1	130.4	121.7	116.6	113.1	111.7	109.7	107.0	106.1	103.7	103.6	99.91	96.01	86.99	77.19	67.97	60.13	52.86	46.02	40.54	37.82	39.81	35.79	26.00	19.07	16.03	13.52	11.21	9.947	8.243	7.128	6.691	8.084	23.87	115.4	329.8	460.0	120.6	10.56	2.192	1.876	1.698	1.692	1.699	1.575	1.541	1.503	1.547	1.377	1.322	1.392	1.340	1.302	1.381	1.289	1.356	1.297	1.292	1.316
495.0	121.1	235.9	260.3	276.9	501.2	1452	879.7	309.3	294.4	267.8	258.4	237.4	215.5	188.9	172.1	156.2	141.3	131.0	122.1	116.0	108.3	103.4	99.23	99.48	96.30	94.46	94.34	93.78	92.55	90.15	86.87	78.69	70.79	63.45	55.40	49.20	42.83	38.10	33.89	33.09	34.23	31.07	21.27	16.63	14.23	11.83	10.36	8.980	7.589	6.139	5.877	8.818	28.58	76.88	206.4	532.9	209.9	12.58	1.940	1.653	1.610	1.607	1.457	1.539	1.463	1.301	1.341	1.205	1.320	1.226	1.263	1.251	1.213	1.173	1.130	1.359	1.294
500.0	110.2	194.4	267.2	251.6	307.8	1030	1386	344.5	266.9	247.2	231.9	217.1	196.3	178.6	157.6	140.5	128.2	117.5	110.2	106.0	97.93	93.73	91.39	90.98	88.30	87.23	86.41	86.21	83.77	83.21	78.52	72.20	65.83	59.75	53.09	46.65	40.80	36.26	32.51	29.86	29.33	30.75	25.08	17.51	14.14	11.84	10.57	9.295	7.914	6.533	5.616	5.557	9.493	19.87	51.01	261.3	569.6	176.6	6.804	1.806	1.693	1.386	1.207	1.491	1.297	1.293	1.247	1.159	1.202	1.190	1.166	1.124	1.146	1.097	1.006	1.206	1.011
505.0	92.23	165.1	261.5	247.5	245.5	552.9	1615	576.2	242.2	228.7	214.2	200.5	180.9	162.9	143.5	127.1	117.9	108.7	101.9	95.92	89.67	83.16	81.02	81.09	79.65	78.48	79.72	78.29	77.69	75.69	73.95	66.68	59.88	55.50	48.74	43.98	37.93	34.22	30.96	26.45	24.91	27.39	27.98	18.89	14.14	11.79	10.44	9.163	7.777	6.694	5.683	4.835	5.385	7.090	13.99	66.10	335.3	531.0	31.55	3.545	1.574	1.317	1.374	1.226	1.359	1.197	1.142	1.094	1.034	1.229	1.145	1.139	1.115	1.093	0.978	1.030	1.014
510.0	89.74	132.6	219.7	252.4	216.5	292.1	1065	1223	283.5	204.9	192.5	175.5	159.4	143.9	126.6	112.8	103.4	94.27	89.43	83.56	78.08	73.28	72.29	70.80	69.33	69.00	68.84	68.01	68.11	67.57	65.06	59.38	53.83	49.27	42.90	39.38	35.02	31.14	27.74	24.54	22.05	21.95	24.28	22.27	16.29	11.83	10.34	8.987	7.759	6.767	6.010	4.979	4.429	4.330	5.716	17.12	83.82	264.6	378.9	131.6	11.80	1.403	1.263	1.248	1.156	1.058	1.041	1.026	1.113	1.108	1.035	1.020	0.966	1.054	0.959	0.890	0.915
515.0	81.84	111.9	167.0	235.2	213.3	207.8	427.2	1444	704.1	182.9	168.0	157.5	141.6	126.1	108.5	97.17	87.91	82.73	75.76	71.19	67.75	65.06	62.29	60.86	60.35	59.91	58.70	59.05	58.65	59.26	56.49	50.91	47.11	42.87	38.73	35.37	31.08	27.60	25.71	22.52	19.63	18.70	18.61	20.88	19.10	12.96	9.561	8.854	7.625	6.420	5.827	5.315	4.249	3.833	3.902	6.189	20.88	61.12	133.4	379.6	211.5	14.66	1.216	1.179	1.174	1.059	1.104	0.996	0.976	0.897	0.919	0.830	0.860	0.982	0.777	0.829	0.763
520.0	80.23	101.6	137.1	207.8	217.1	177.6	229.5	998.9	1268	225.0	153.4	140.3	127.3	111.4	101.6	87.41	80.16	73.88	67.74	64.30	59.93	57.67	55.37	54.08	55.11	52.81	52.57	51.71	51.42	52.42	50.57	46.29	43.46	39.05	35.35	31.54	28.74	26.14	23.54	20.73	19.06	17.02	16.18	16.78	19.11	15.36	9.920	8.219	7.474	6.350	5.436	5.443	4.378	3.682	3.397	3.720	6.901	15.50	32.07	160.8	409.0	172.9	7.434	1.239	1.182	1.085	0.909	0.956	0.923	0.818	0.903	0.841	0.830	0.804	0.669	0.741	0.844
525.0	66.79	93.82	115.4	177.2	229.2	168.6	172.7	485.5	1581	456.8	142.1	129.4	117.1	102.7	89.38	79.54	72.79	67.71	60.73	58.53	53.65	51.01	49.01	50.03	48.54	47.06	46.98	47.12	47.21	45.96	45.70	41.87	39.23	35.48	32.36	28.97	26.89	24.03	21.65	18.87	17.94	15.88	14.83	13.94	16.82	16.78	11.48	8.638	7.525	6.042	5.510	5.068	4.579	3.808	3.371	3.140	3.708	5.559	9.016	39.46	204.4	385.1	32.46	3.492	1.144	1.039	0.911	0.857	0.887	0.824	0.681	0.824	0.678	0.743	0.762	0.849	0.783
530.0	67.24	80.65	97.91	136.1	209.3	173.5	144.6	224.2	1038	1173	190.8	115.2	104.5	90.50	79.58	70.09	63.84	57.93	53.63	49.83	46.74	45.53	42.44	43.04	41.49	41.27	40.97	41.13	41.65	40.84	38.49	36.65	33.84	31.40	28.10	25.53	23.41	21.70	19.03	17.22	15.72	14.21	12.88	12.01	12.42	14.47	13.31	9.316	7.177	5.864	5.191	4.739	4.261	4.057	3.583	3.077	2.920	3.184	3.851	10.42	49.73	167.7	259.4	129.5	12.07	1.103	0.910	0.780	0.833	0.778	0.705	0.755	0.767	0.723	0.722	0.741	0.637
535.0	54.59	65.90	86.47	104.8	156.1	193.2	134.8	138.0	371.7	1449	602.1	104.9	88.30	75.28	68.42	62.57	54.33	49.67	47.46	42.07	40.06	38.10	37.36	36.42	35.90	35.20	34.41	34.91	34.78	35.18	34.21	31.20	28.45	26.24	24.31	21.94	19.78	18.93	17.30	14.79	13.82	12.32	11.58	11.00	10.17	10.49	12.82	10.69	7.525	5.606	5.061	4.605	3.851	3.677	3.538	3.317	2.551	2.456	2.608	3.839	12.42	38.45	81.74	254.4	197.3	14.99	1.025	0.782	0.759	0.723	0.726	0.646	0.627	0.628	0.774	0.642	0.581
540.0	43.85	58.15	76.97	87.86	116.3	191.0	138.5	111.9	165.5	950.2	1216	135.0	80.36	69.50	61.29	52.43	47.94	43.34	41.45	38.36	35.38	33.29	33.23	31.85	30.91	31.04	30.44	31.31	30.63	31.30	29.83	27.26	25.42	24.40	21.81	20.11	17.83	16.27	15.16	13.47	12.76	11.02	10.45	9.779	8.989	8.469	10.18	10.92	8.184	5.582	4.901	4.258	3.584	3.398	3.262	3.531	2.639	2.371	2.191	2.139	4.167	9.890	19.55	97.76	285.4	144.2	7.220	0.944	0.625	0.687	0.645	0.517	0.551	0.636	0.560	0.552	0.561
545.0	42.60	48.69	67.04	78.14	91.18	165.1	157.0	99.96	109.3	408.6	1541	221.3	71.50	61.92	54.94	48.03	42.22	40.08	36.13	34.29	30.91	29.16	29.12	28.12	26.48	27.57	26.66	26.49	26.70	27.23	25.77	24.15	22.76	20.93	19.31	17.83	15.95	14.63	13.42	12.58	11.17	10.61	9.357	8.642	7.980	7.640	7.805	9.425	8.714	5.855	4.467	3.924	3.287	3.184	2.948	3.227	2.858	2.672	2.047	1.875	2.177	3.424	5.339	23.56	129.7	269.6	33.20	2.857	0.736	0.742	0.642	0.581	0.571	0.583	0.595	0.595	0.599
550.0	43.60	47.57	57.88	68.01	78.20	112.8	163.0	97.64	84.94	155.5	961.1	973.1	104.2	51.91	46.54	40.04	36.38	33.92	30.55	28.41	26.52	24.60	23.86	23.18	22.98	22.46	22.35	22.08	22.41	22.46	22.09	20.52	18.78	17.87	16.33	14.59	13.69	12.45	11.46	10.77	9.794	8.949	8.113	7.564	7.047	6.614	6.489	6.825	7.761	6.637	4.792	3.583	3.184	2.815	2.699	2.553	2.735	2.700	2.007	1.716	1.708	1.903	2.214	6.234	31.21	111.0	175.3	100.7	10.88	0.759	0.666	0.551	0.524	0.605	0.598	0.548	0.579
555.0	39.72	43.26	50.89	60.39	65.11	75.38	134.1	112.3	68.36	82.32	306.2	1285	379.0	45.27	38.30	33.04	29.22	27.31	24.11	23.18	22.26	20.36	19.56	19.76	18.91	18.73	17.91	17.92	18.33	18.25	17.59	16.76	14.90	14.20	13.25	11.75	11.38	10.29	9.752	8.844	8.007	7.312	6.744	6.430	6.163	5.388	5.281	4.881	5.222	6.060	5.497	3.738	2.831	2.657	2.314	2.312	2.109	2.514	2.300	1.739	1.513	1.535	1.477	2.316	7.655	25.51	53.98	164.9	130.2	11.61	0.667	0.545	0.528	0.504	0.516	0.451	0.519
560.0	42.44	41.43	46.55	49.71	54.75	59.86	96.07	123.7	65.67	62.97	112.3	849.4	892.4	61.51	32.57	28.44	25.99	23.72	21.24	19.19	19.02	17.20	16.45	16.23	15.92	15.99	14.72	15.74	15.81	15.57	15.63	14.38	13.09	12.51	10.83	10.51	9.399	8.955	8.088	7.243	6.989	6.601	5.772	5.669	5.296	4.566	4.682	4.347	3.925	4.948	5.174	3.875	2.564	2.505	2.129	2.096	1.855	2.197	2.441	1.869	1.332	1.247	1.107	1.321	2.580	6.317	12.91	60.70	180.0	91.54	4.811	0.521	0.582	0.481	0.518	0.478	0.445
565.0	41.09	46.75	43.56	43.31	45.22	53.26	65.18	128.2	67.80	52.94	60.68	333.0	1222	139.7	28.45	24.72	22.43	19.98	17.64	16.29	15.62	15.37	14.40	13.83	13.77	14.04	13.06	13.18	12.86	12.92	12.85	12.02	10.64	10.42	9.347	9.240	8.345	7.954	7.181	6.793	6.193	5.267	5.203	4.967	4.830	4.125	3.987	3.727	3.369	3.807	4.674	3.999	2.798	2.216	1.980	1.803	1.929	1.866	1.882	2.031	1.318	1.116	1.104	1.060	1.234	2.096	3.656	14.66	79.22	163.2	31.82	1.738	0.548	0.472	0.515	0.409	0.417
570.0	37.98	40.99	41.01	39.16	38.54	40.67	46.23	95.34	92.16	47.50	46.57	110.6	783.6	688.5	49.02	20.41	18.20	16.80	14.96	13.64	12.72	12.43	11.69	11.48	11.01	11.20	10.96	10.90	10.57	10.60	10.37	9.659	8.859	8.822	7.715	7.365	6.807	6.239	6.100	5.552	5.020	4.349	4.372	3.954	3.790	3.706	3.360	3.018	2.884	2.776	3.229	3.565	3.119	2.193	1.801	1.577	1.694	1.576	1.541	1.659	1.608	1.241	1.093	0.966	0.941	1.139	1.502	4.001	18.96	65.45	105.8	64.14	8.072	0.561	0.482	0.381	0.404
575.0	39.00	36.80	34.95	37.66	33.72	33.13	36.19	55.01	106.0	53.34	40.76	52.59	234.6	962.0	236.9	18.31	14.77	13.48	11.64	10.47	10.23	9.942	9.334	9.163	9.362	9.276	8.472	8.411	8.490	8.884	8.383	7.974	7.558	7.287	6.486	5.923	5.573	5.181	4.781	4.624	4.164	3.742	3.521	3.282	3.245	2.946	2.983	2.529	2.317	2.273	2.203	2.547	3.009	2.392	1.710	1.517	1.334	1.358	1.241	1.274	1.423	1.414	1.265	0.981	0.914	0.825	0.972	1.441	4.839	15.08	31.45	97.65	78.41	7.196	0.514	0.402	0.425
580.0	41.00	34.44	33.76	30.20	30.90	30.23	32.51	38.23	91.83	68.01	35.99	37.87	77.32	635.4	602.8	25.94	12.76	12.08	10.64	9.285	8.630	8.370	8.062	8.100	7.798	7.806	7.417	7.288	7.136	7.215	6.798	6.450	6.250	5.771	5.341	5.017	4.679	4.411	4.172	3.932	3.763	3.198	3.001	2.918	2.807	2.511	2.527	2.297	2.046	1.946	1.684	1.965	2.555	2.642	1.760	1.311	1.281	1.264	1.212	1.105	1.026	1.348	1.355	0.956	0.768	0.911	0.821	0.889	1.667	4.036	7.576	35.59	104.6	34.30	3.112	0.495	0.342
585.0	39.59	34.69	34.82	30.70	28.36	25.87	29.15	29.20	65.87	88.47	37.15	33.20	38.50	250.2	860.5	81.42	11.14	10.82	9.183	7.772	7.555	7.574	6.892	7.032	6.384	6.473	6.252	6.172	6.206	6.265	6.347	5.769	5.308	5.167	4.737	4.382	4.023	3.930	3.689	3.353	3.363	2.836	2.713	2.665	2.485	2.382	2.226	2.033	1.891	1.696	1.620	1.634	1.807	2.324	2.133	1.456	1.216	1.188	1.076	0.958	0.949	1.010	1.299	1.154	0.745	0.795	0.807	0.762	0.848	1.462	2.264	8.677	45.66	94.15	28.34	1.431	0.440
590.0	38.49	35.11	31.97	29.99	25.35	23.31	25.06	24.99	40.01	87.61	51.09	33.56	30.27	77.44	547.4	420.6	21.27	9.042	8.033	7.007	6.192	6.004	6.074	5.914	5.582	5.295	5.163	5.176	5.217	5.295	5.213	4.654	4.390	4.280	3.830	3.501	3.360	3.120	3.031	2.705	2.578	2.399	2.148	2.144	2.019	1.952	1.841	1.639	1.572	1.434	1.357	1.336	1.369	1.677	1.953	1.568	1.228	1.082	0.924	0.839	0.873	0.855	0.993	1.113	0.913	0.705	0.735	0.654	0.690	0.819	1.005	2.455	11.03	37.79	66.42	42.35	5.605
595.0	39.00	32.53	35.99	28.97	26.12	25.37	23.49	25.91	29.22	64.47	77.56	36.94	29.73	37.67	162.0	618.4	88.28	8.522	6.762	5.761	5.211	5.088	4.804	4.787	4.849	4.266	4.179	4.163	4.214	4.032	3.925	3.662	3.835	3.172	3.029	2.758	2.896	2.562	2.418	2.298	2.108	1.944	1.805	1.683	1.684	1.628	1.483	1.452	1.345	1.214	1.086	1.103	1.064	1.122	1.603	1.648	1.378	1.027	0.856	0.761	0.730	0.786	0.791	0.880	0.957	0.838	0.656	0.566	0.674	0.689	0.645	1.014	2.949	8.964	19.40	58.55	36.05
600.0	43.71	35.86	36.60	32.70	26.05	24.28	26.09	28.00	33.12	51.72	96.89	50.79	38.31	33.95	57.62	433.6	339.5	14.07	5.973	5.035	4.632	4.371	4.468	3.922	4.058	3.746	3.752	3.648	3.579	3.689	3.371	3.270	3.077	2.983	2.568	2.368	2.310	2.242	2.181	1.802	1.950	1.639	1.690	1.572	1.513	1.329	1.379	1.317	1.241	1.095	1.012	0.948	0.984	1.013	1.160	1.540	1.397	1.095	0.858	0.757	0.783	0.701	0.743	0.678	0.834	0.930	0.840	0.600	0.648	0.635	0.603	0.651	1.065	2.498	4.749	21.45	61.10
605.0	45.78	46.30	43.59	38.72	27.85	26.32	33.39	41.19	48.33	64.41	112.4	90.74	64.87	51.49	48.32	191.4	537.3	51.05	5.871	4.536	3.929	3.965	3.838	3.378	3.155	3.320	3.199	3.067	3.171	3.166	3.142	2.960	2.787	2.542	2.317	2.137	2.100	2.066	1.923	1.757	1.584	1.545	1.559	1.300	1.309	1.333	1.117	1.161	1.024	1.002	0.917	0.901	0.793	0.833	0.912	1.206	1.393	1.096	0.826	0.739	0.737	0.815	0.810	0.734	0.829	1.025	1.073	0.857	0.688	0.699	0.742	0.622	0.762	1.045	1.497	5.367	26.69
610.0	52.64	60.69	58.74	48.35	39.11	40.35	55.71	68.79	94.77	120.1	161.4	183.7	133.9	104.0	91.47	106.6	421.7	274.7	11.68	4.134	3.589	3.454	3.100	2.827	2.753	2.767	2.766	2.743	2.643	2.699	2.584	2.435	2.277	2.098	2.030	1.905	1.729	1.631	1.450	1.399	1.340	1.277	1.335	1.167	1.135	1.159	1.046	1.043	0.973	0.870	0.805	0.796	0.756	0.808	0.734	0.924	1.183	1.190	1.018	0.843	0.793	0.890	0.978	1.027	1.064	1.209	1.294	1.324	1.060	1.049	1.075	0.846	0.846	0.988	1.038	1.841	6.786
615.0	57.37	69.31	66.84	53.20	47.06	52.93	64.46	84.04	113.6	144.2	184.4	229.2	183.6	131.9	113.2	94.81	190.9	445.0	58.03	3.904	2.999	2.824	2.451	2.432	2.270	2.301	2.276	2.141	2.038	2.493	2.219	1.906	1.956	1.814	1.831	1.486	1.489	1.276	1.415	1.107	1.029	1.069	1.061	1.012	1.014	0.877	0.919	0.883	0.849	0.888	0.666	0.767	0.748	0.687	0.712	0.685	0.909	1.020	1.077	1.034	0.840	0.852	1.005	1.077	1.166	1.245	1.368	1.658	1.353	1.216	1.039	1.112	1.093	1.155	1.002	1.009	2.165
620.0	54.03	78.84	76.76	62.17	49.22	53.49	68.68	86.82	114.9	144.7	172.2	208.7	192.7	136.0	117.8	87.28	110.9	347.0	202.6	5.365	2.806	2.340	2.497	1.955	2.136	1.924	1.964	2.197	1.948	2.013	1.796	1.900	1.730	1.729	1.446	1.348	1.399	1.270	1.098	1.047	0.972	1.008	0.916	0.939	0.965	0.940	0.952	0.816	0.798	0.762	0.643	0.757	0.749	0.581	0.671	0.671	0.770	0.975	1.060	1.121	0.917	0.890	1.021	0.983	1.109	1.109	1.369	1.441	1.351	1.260	1.051	1.070	1.067	0.977	0.986	0.824	1.103
625.0	67.07	72.78	78.53	63.30	51.82	50.74	66.37	83.91	109.2	136.8	160.9	187.9	196.5	136.6	115.6	83.63	88.90	173.8	352.3	19.24	2.668	2.273	2.239	2.238	1.981	1.849	1.723	1.850	1.742	1.754	1.443	1.639	1.526	1.312	1.250	1.236	1.150	1.046	1.006	1.118	0.924	0.874	0.899	0.889	0.873	0.866	0.758	0.741	0.832	0.710	0.622	0.675	0.658	0.618	0.715	0.671	0.745	0.948	0.923	1.082	0.929	0.976	0.958	0.953	1.008	1.131	1.233	1.126	1.257	1.432	1.079	0.864	0.930	1.061	0.925	0.809	0.919
630.0	71.43	77.09	77.56	69.87	55.59	53.81	68.56	83.26	103.1	132.5	155.8	174.8	188.6	151.6	115.1	84.57	83.39	75.41	277.7	138.7	4.534	2.183	1.801	1.681	1.624	1.605	1.491	1.419	1.401	1.425	1.268	1.261	1.277	1.161	1.049	1.022	1.019	0.977	0.892	0.847	0.859	0.836	0.699	0.780	0.724	0.771	0.745	0.691	0.774	0.704	0.546	0.602	0.624	0.574	0.610	0.612	0.699	0.672	0.872	1.027	1.035	0.892	0.931	0.907	1.031	1.043	1.104	1.041	1.207	1.199	1.253	1.043	0.919	1.048	0.956	0.831	0.789
635.0	69.29	82.35	90.79	77.94	59.25	58.63	72.90	82.95	100.2	128.2	151.8	169.6	175.0	160.6	119.5	85.01	82.23	49.63	93.63	287.4	33.01	1.924	1.732	1.455	1.296	1.348	1.237	1.150	1.303	1.250	1.039	1.083	1.109	0.936	1.009	0.864	0.817	0.833	0.691	0.709	0.658	0.718	0.628	0.646	0.627	0.671	0.625	0.752	0.615	0.596	0.505	0.607	0.564	0.544	0.579	0.546	0.564	0.592	0.669	0.808	0.940	0.897	0.992	0.931	0.965	1.006	1.051	1.177	1.066	1.120	1.136	1.227	0.989	0.955	0.960	0.771	0.824
640.0	64.39	93.49	89.02	78.56	60.35	58.65	68.97	83.77	99.06	124.1	147.7	168.8	169.8	161.6	124.7	86.56	80.17	42.75	30.87	243.5	124.4	2.532	1.675	1.468	1.310	1.102	1.233	1.008	1.066	1.165	1.019	0.937	0.866	0.993	0.931	0.822	0.727	0.728	0.691	0.578	0.558	0.594	0.554	0.626	0.567	0.533	0.586	0.668	0.578	0.628	0.483	0.555	0.542	0.535	0.530	0.623	0.559	0.547	0.613	0.649	0.829	0.888	0.978	0.895	1.001	0.968	1.035	1.121	1.078	1.143	1.051	1.177	1.080	0.952	0.924	0.857	0.719
645.0	64.03	90.59	94.79	72.76	57.94	59.54	64.50	82.81	91.66	118.5	140.5	161.0	158.6	153.0	127.9	83.42	76.97	41.07	15.41	117.3	237.3	9.515	1.716	1.228	1.249	1.144	1.137	1.000	1.015	0.993	0.898	1.018	0.825	0.924	0.854	0.826	0.736	0.670	0.609	0.649	0.505	0.602	0.618	0.559	0.490	0.516	0.560	0.658	0.640	0.541	0.518	0.522	0.502	0.491	0.479	0.571	0.607	0.648	0.603	0.667	0.791	0.798	0.837	0.770	0.884	0.968	1.047	1.085	0.960	1.082	0.975	1.110	1.142	1.017	0.869	0.906	0.747
650.0	60.42	90.62	91.91	73.92	56.17	54.90	64.62	77.80	84.65	109.8	130.1	151.3	147.0	135.1	124.5	81.18	70.51	39.00	11.62	37.26	260.8	48.00	1.715	1.300	1.180	0.883	0.925	0.954	1.023	0.926	0.845	0.905	0.745	0.765	0.852	0.747	0.706	0.475	0.618	0.526	0.577	0.588	0.622	0.514	0.477	0.500	0.546	0.664	0.594	0.477	0.504	0.532	0.504	0.503	0.475	0.509	0.546	0.625	0.496	0.671	0.740	0.707	0.775	0.783	0.824	0.837	0.905	1.056	0.965	1.038	0.889	0.956	0.980	0.963	0.777	0.726	0.665
