Sample:	'1
File name:	G2025090902月河六路西029污水井.FD3
Run date:	'14:01:29, 09/10/2025
Operator:	Administrator
Comment:	'

Instrument
Model:	F-2700 FL Spectrophotometer
Serial number:	24D1-003
ROM Version:	4J14000 07

Instrument parameters
Measurement type:	3-D scan
Data mode:	Fluorescence
EX  Start WL:	220.0 nm
EX  End WL:	600.0 nm
EX Sampling interval:	5.0 nm
EM  Start WL:	230.0 nm
EM  End WL:	650.0 nm
EM Sampling interval:	5.0 nm
Scan speed:	12000 nm/min
EX Slit:	5.0 nm
EM Slit:	5.0 nm
PMT Voltage:	700 V
Response:	Auto 
Corrected spectra:	Off
Contour interval:	50.000

Peak integration
Integration method:	Rectangular
Sensitivity:	1
Threshold:	1.000

Peaks
No.	ApexEX/EM(nm)	Height(Data)
1	225.0/580.0	41.85
2	225.0/605.0	38.83
3	225.0/615.0	41.21
4	230.0/340.0	1089
5	230.0/505.0	183.2
6	230.0/620.0	35.50
7	235.0/515.0	194.0
8	240.0/265.0	398.5
9	240.0/525.0	197.7
10	245.0/270.0	394.4
11	245.0/535.0	175.2
12	250.0/275.0	485.6
13	250.0/415.0	529.9
14	250.0/435.0	537.2
15	250.0/550.0	152.0
16	255.0/280.0	618.6
17	255.0/560.0	137.8
18	260.0/285.0	646.3
19	260.0/575.0	118.1
20	265.0/585.0	126.0
21	270.0/300.0	1372
22	270.0/600.0	119.8
23	275.0/305.0	1673
24	275.0/610.0	118.2
25	280.0/310.0	1480
26	280.0/620.0	101.8
27	285.0/315.0	1240
28	285.0/635.0	72.74
29	290.0/325.0	1058
30	295.0/330.0	852.2
31	300.0/335.0	760.3
32	305.0/340.0	679.8
33	315.0/355.0	437.8
34	320.0/360.0	462.9
35	325.0/365.0	431.8
36	335.0/380.0	402.6
37	340.0/385.0	384.4
38	350.0/400.0	318.7
39	355.0/405.0	304.3
40	360.0/410.0	268.7
41	365.0/415.0	247.8
42	370.0/425.0	228.0
43	380.0/440.0	172.0
44	400.0/465.0	94.03
45	415.0/485.0	53.64
46	425.0/500.0	37.75
47	430.0/505.0	32.16
48	440.0/520.0	21.94
49	455.0/540.0	12.60
50	465.0/345.0	3.434
51	465.0/555.0	7.505
52	470.0/560.0	6.843
53	475.0/350.0	3.413
54	485.0/580.0	3.348
55	500.0/270.0	2.116
56	505.0/275.0	3.128
57	510.0/280.0	3.518
58	520.0/285.0	4.162
59	530.0/290.0	4.032
60	540.0/295.0	5.720
61	545.0/300.0	6.674
62	550.0/305.0	6.839
63	560.0/310.0	6.468
64	570.0/315.0	6.096
65	575.0/320.0	5.943
66	585.0/325.0	5.730

Data points
	220.0	225.0	230.0	235.0	240.0	245.0	250.0	255.0	260.0	265.0	270.0	275.0	280.0	285.0	290.0	295.0	300.0	305.0	310.0	315.0	320.0	325.0	330.0	335.0	340.0	345.0	350.0	355.0	360.0	365.0	370.0	375.0	380.0	385.0	390.0	395.0	400.0	405.0	410.0	415.0	420.0	425.0	430.0	435.0	440.0	445.0	450.0	455.0	460.0	465.0	470.0	475.0	480.0	485.0	490.0	495.0	500.0	505.0	510.0	515.0	520.0	525.0	530.0	535.0	540.0	545.0	550.0	555.0	560.0	565.0	570.0	575.0	580.0	585.0	590.0	595.0	600.0
230.0	33.71	495.7	1291	326.7	15.19	8.394	6.796	5.453	4.885	4.584	3.918	3.487	3.194	2.815	2.451	2.056	1.899	1.575	1.411	1.236	1.209	1.100	1.116	1.023	0.960	0.864	0.835	0.781	0.841	0.813	0.802	0.668	0.735	0.704	0.644	0.627	0.599	0.530	0.522	0.555	0.503	0.525	0.543	0.482	0.460	0.512	0.614	1.973	3.789	3.122	1.326	0.578	0.446	0.466	0.356	0.391	0.407	0.420	0.437	0.436	0.422	0.432	0.430	0.448	0.413	0.423	0.439	0.397	0.469	0.479	0.419	0.436	0.473	0.475	0.454	0.516	0.468
235.0	37.70	149.3	1008	2104	418.4	25.38	8.105	6.518	5.790	5.114	4.156	3.357	3.102	2.590	2.934	2.173	1.821	1.356	1.419	1.355	1.200	0.997	1.034	0.979	1.104	1.019	0.785	0.825	0.841	0.747	0.740	0.847	0.638	0.632	0.678	0.609	0.638	0.544	0.586	0.562	0.414	0.533	0.524	0.504	0.556	0.472	0.445	0.814	1.672	3.479	5.350	6.244	3.737	0.983	0.365	0.381	0.503	0.422	0.464	0.399	0.308	0.384	0.467	0.451	0.409	0.454	0.384	0.348	0.417	0.473	0.474	0.428	0.462	0.448	0.412	0.505	0.539
240.0	65.98	74.49	326.2	2001	2622	330.1	12.78	8.214	5.905	5.148	4.541	3.086	3.493	2.462	2.618	2.286	1.740	1.412	1.621	1.193	1.250	1.132	1.075	1.147	0.968	1.002	0.780	0.850	0.857	0.651	0.749	0.811	0.623	0.718	0.619	0.594	0.599	0.524	0.658	0.559	0.441	0.632	0.655	0.488	0.574	0.673	0.440	0.520	0.676	1.289	3.043	7.702	10.59	7.443	2.682	0.675	0.492	0.457	0.404	0.394	0.334	0.331	0.429	0.423	0.376	0.539	0.433	0.337	0.439	0.485	0.497	0.353	0.526	0.425	0.385	0.526	0.484
245.0	61.49	118.0	117.5	681.4	2848	2633	254.8	8.418	6.231	5.750	4.662	3.429	3.728	3.003	2.447	2.472	1.776	1.729	1.566	1.262	1.537	1.223	1.219	1.012	1.079	0.883	0.954	0.855	0.833	0.766	0.681	0.855	0.524	0.701	0.515	0.631	0.503	0.559	0.601	0.600	0.366	0.497	0.580	0.518	0.516	0.569	0.681	0.830	0.588	0.568	1.023	2.696	6.663	11.40	12.02	6.622	1.726	0.545	0.417	0.436	0.360	0.360	0.454	0.419	0.429	0.418	0.481	0.378	0.517	0.494	0.440	0.362	0.505	0.477	0.538	0.462	0.490
250.0	35.39	102.1	192.2	228.3	889.6	2524	2913	944.3	47.50	6.484	5.461	4.683	3.580	2.952	2.387	2.320	1.843	1.719	1.506	1.436	1.339	1.220	1.076	0.964	1.125	0.879	0.900	0.879	0.907	0.761	0.653	0.747	0.675	0.721	0.598	0.684	0.622	0.533	0.586	0.585	0.454	0.482	0.498	0.456	0.513	0.446	0.555	0.794	0.927	0.911	0.777	1.002	1.840	3.647	6.601	9.353	10.98	9.471	5.485	1.840	0.481	0.415	0.356	0.433	0.410	0.394	0.471	0.478	0.417	0.429	0.452	0.493	0.450	0.468	0.545	0.480	0.487
255.0	34.03	42.63	155.4	314.4	279.4	632.0	1997	3922	1299	41.34	5.890	5.602	4.146	3.507	2.893	2.449	1.796	1.786	1.308	1.241	1.441	1.368	0.973	0.953	0.939	0.965	1.007	0.910	0.830	0.787	0.984	0.715	0.727	0.790	0.607	0.592	0.664	0.606	0.514	0.548	0.501	0.508	0.594	0.562	0.465	0.412	0.487	0.518	0.584	0.898	1.418	1.504	1.054	1.201	1.916	2.397	4.078	8.127	14.29	14.78	7.911	1.792	0.533	0.515	0.422	0.424	0.480	0.438	0.450	0.361	0.448	0.511	0.491	0.508	0.474	0.414	0.465
260.0	28.02	25.89	64.63	280.6	325.2	190.9	583.9	2918	4020	247.9	20.78	6.745	5.254	4.134	2.859	2.561	2.561	1.818	1.321	1.275	1.305	1.413	1.257	1.100	0.953	0.847	0.992	0.847	0.849	0.757	0.992	0.774	0.731	0.703	0.575	0.551	0.619	0.532	0.514	0.550	0.497	0.607	0.510	0.599	0.525	0.422	0.489	0.501	0.471	0.526	0.945	1.640	2.038	1.397	1.074	0.950	1.323	2.412	6.037	12.88	18.89	14.54	5.544	1.021	0.447	0.554	0.396	0.393	0.502	0.427	0.380	0.490	0.485	0.441	0.483	0.437	0.481
265.0	27.20	22.33	28.85	129.5	398.5	252.9	162.4	902.7	3579	3746	204.9	11.48	5.674	4.330	3.391	2.512	2.460	2.264	1.439	1.545	1.489	1.317	1.267	1.185	1.009	0.912	0.965	0.772	0.970	0.771	0.885	0.741	0.649	0.690	0.605	0.533	0.703	0.477	0.561	0.529	0.403	0.500	0.509	0.500	0.503	0.371	0.475	0.463	0.396	0.455	0.509	0.816	1.659	2.132	1.768	1.020	0.681	0.959	1.832	3.826	9.479	17.71	20.49	12.57	3.530	0.674	0.417	0.341	0.564	0.514	0.528	0.408	0.558	0.450	0.450	0.505	0.383
270.0	26.91	25.10	23.60	43.78	174.7	394.4	277.5	250.5	1039	3016	4027	833.1	59.26	5.874	4.003	3.210	2.367	2.334	1.699	1.644	1.598	1.143	1.187	0.994	1.040	1.045	1.039	0.863	0.859	0.786	0.922	0.795	0.765	0.734	0.713	0.579	0.594	0.531	0.569	0.481	0.532	0.474	0.489	0.492	0.496	0.497	0.449	0.495	0.440	0.396	0.382	0.556	0.733	1.139	1.662	2.097	2.116	1.365	0.890	1.247	2.567	5.120	9.185	14.38	17.89	15.78	9.517	2.741	0.648	0.460	0.468	0.467	0.465	0.496	0.464	0.406	0.424
275.0	43.63	35.77	35.95	29.45	52.03	157.9	485.6	322.9	280.5	746.4	2127	5376	1283	66.18	5.009	3.505	2.666	2.315	1.860	1.679	1.518	1.421	1.259	1.057	1.159	1.169	0.990	0.895	0.860	0.893	0.896	0.793	0.801	0.735	0.693	0.633	0.489	0.653	0.628	0.647	0.561	0.497	0.445	0.403	0.392	0.554	0.500	0.529	0.431	0.472	0.401	0.423	0.578	0.595	0.720	1.041	2.038	3.128	2.342	1.177	1.087	1.470	2.553	3.825	5.307	10.62	20.87	24.90	13.68	2.620	0.527	0.544	0.470	0.590	0.473	0.520	0.453
280.0	54.26	71.40	67.71	39.91	32.96	58.50	276.3	618.6	257.1	249.9	633.6	3212	5666	945.3	34.28	4.798	3.285	2.615	1.771	2.070	1.590	1.457	1.332	1.002	1.072	1.095	0.946	0.757	0.955	0.971	0.888	0.795	0.753	0.815	0.679	0.629	0.555	0.523	0.466	0.542	0.452	0.444	0.436	0.507	0.457	0.573	0.582	0.568	0.492	0.467	0.476	0.470	0.504	0.551	0.503	0.561	0.937	1.773	3.518	3.027	1.772	1.091	1.174	1.340	1.889	3.335	7.411	17.33	27.17	22.87	8.770	1.241	0.490	0.512	0.461	0.606	0.568
285.0	72.60	120.8	125.5	61.94	37.20	41.14	115.2	491.7	646.3	251.5	326.0	1033	3722	5373	684.5	13.20	4.443	3.018	2.162	2.001	2.015	1.677	1.433	1.209	1.263	1.030	0.915	0.983	0.809	1.045	0.912	0.990	0.908	0.885	0.592	0.573	0.541	0.542	0.538	0.484	0.520	0.580	0.438	0.506	0.655	0.782	0.626	0.807	0.791	0.740	0.524	0.629	0.553	0.485	0.552	0.487	0.684	0.848	1.788	3.082	4.162	2.801	1.422	1.189	1.441	1.841	2.700	5.345	11.06	22.28	28.64	18.28	4.166	0.692	0.578	0.584	0.574
290.0	121.6	218.8	221.2	114.6	61.12	54.41	91.30	239.6	629.7	800.1	519.9	581.8	1197	3081	4329	1818	39.15	4.526	2.853	2.278	2.034	1.617	1.648	1.378	1.384	1.130	1.031	1.034	0.903	0.885	0.896	0.832	0.752	0.880	0.693	0.597	0.589	0.522	0.523	0.564	0.569	0.515	0.572	0.629	0.585	0.736	0.851	1.080	1.141	0.882	0.718	0.706	0.646	0.533	0.595	0.643	0.677	0.715	1.133	1.594	2.505	3.592	4.032	3.623	2.531	2.261	2.287	2.780	4.259	6.775	11.28	17.68	21.78	19.50	11.75	3.355	0.669
295.0	152.6	295.2	305.2	161.0	82.06	85.98	113.1	205.8	395.7	849.4	1174	701.1	672.9	905.2	1565	4735	779.0	48.61	4.523	2.952	2.429	1.794	1.625	1.410	1.246	1.107	0.930	1.015	1.172	0.917	0.984	0.928	0.649	0.797	0.911	0.591	0.676	0.508	0.634	0.480	0.655	0.484	0.606	0.610	0.701	0.861	1.071	1.391	1.393	1.228	0.886	0.830	0.726	0.580	0.644	0.712	0.775	0.896	1.069	1.329	1.668	2.213	3.079	4.748	5.720	4.628	3.351	2.885	3.154	3.499	3.748	4.920	6.298	11.77	23.92	29.83	16.40
300.0	160.9	327.3	332.2	189.6	107.2	115.2	158.3	237.2	381.6	690.2	1372	1179	687.3	495.9	501.3	2127	4820	642.4	29.33	3.961	2.725	2.012	1.626	1.620	1.280	1.146	1.049	1.047	1.054	0.977	1.144	0.876	0.789	0.749	0.859	0.771	0.701	0.622	0.696	0.540	0.575	0.550	0.667	0.739	0.665	0.907	1.219	1.407	1.498	1.223	1.077	0.946	0.809	0.679	0.738	0.830	0.859	1.128	1.246	1.394	1.745	2.036	2.593	3.551	5.178	6.674	6.116	3.894	3.192	2.911	2.420	2.214	2.443	3.623	8.066	19.70	31.40
305.0	185.0	348.8	370.1	230.1	138.2	151.6	215.1	320.3	473.0	729.7	1179	1673	1077	538.0	368.7	694.6	2800	4637	498.4	11.94	3.385	2.646	1.644	1.723	1.420	1.360	1.196	1.115	1.068	0.974	0.984	0.907	0.648	0.713	0.725	0.722	0.631	0.707	0.653	0.618	0.685	0.476	0.589	0.652	0.660	0.887	1.254	1.499	1.658	1.254	1.113	0.984	0.997	0.874	0.937	0.938	1.055	1.392	1.557	1.875	2.195	2.570	2.714	3.463	4.111	5.555	6.839	6.544	5.123	3.651	2.639	2.055	2.017	2.157	3.177	6.005	12.32
310.0	173.5	334.8	376.8	245.2	168.5	187.4	255.8	369.0	525.6	751.6	1013	1376	1480	847.9	429.0	393.1	865.4	2462	3518	1490	29.67	3.593	2.550	1.874	1.601	1.480	1.253	1.213	1.185	0.953	0.976	0.944	0.734	0.830	0.781	0.635	0.692	0.676	0.637	0.591	0.664	0.550	0.635	0.618	0.692	0.964	1.219	1.431	1.645	1.319	1.166	1.159	1.117	0.873	1.140	1.050	1.355	1.606	1.752	2.125	2.267	2.782	3.145	3.868	4.095	4.412	4.984	6.008	6.468	5.913	4.368	2.857	2.368	2.231	2.290	2.662	4.105
315.0	163.9	335.6	390.1	265.3	198.1	210.4	290.1	393.7	542.3	748.1	949.0	1099	1180	1240	681.1	372.7	423.2	732.4	1234	3745	2030	37.58	3.650	2.366	2.066	1.366	1.292	1.208	1.166	1.010	1.053	1.056	0.843	0.796	0.713	0.691	0.660	0.592	0.642	0.662	0.546	0.602	0.587	0.702	0.770	0.836	1.021	1.506	1.590	1.359	1.121	1.179	1.162	1.114	1.129	1.235	1.620	1.500	1.733	2.040	2.340	2.673	3.308	3.652	3.873	4.132	4.244	4.626	4.669	5.406	6.096	5.699	3.549	2.633	2.283	2.250	2.436
320.0	178.8	399.3	485.1	330.1	230.2	233.5	320.5	412.8	555.0	754.6	945.3	1035	1032	1096	1030	482.3	360.0	364.1	364.7	1634	4047	492.6	22.48	3.410	2.282	1.674	1.376	1.251	1.081	1.005	1.209	1.005	0.809	0.790	0.777	0.677	0.778	0.730	0.595	0.539	0.574	0.605	0.548	0.641	0.714	0.930	1.053	1.789	1.816	1.599	1.252	1.356	1.244	1.156	1.130	1.233	1.670	1.655	2.051	2.243	2.464	2.879	3.143	3.877	3.687	4.118	4.428	4.354	4.398	4.576	4.740	5.943	5.664	4.012	2.788	2.252	2.346
325.0	201.4	524.8	691.4	467.3	286.1	263.7	336.3	427.0	566.5	747.4	928.3	1023	1001	911.3	1058	762.2	388.5	297.8	181.6	447.7	2188	3492	395.8	10.42	2.695	1.850	1.537	1.627	1.337	1.022	1.255	0.936	0.895	0.887	0.691	0.815	0.736	0.699	0.586	0.612	0.672	0.649	0.564	0.656	0.923	1.041	1.456	2.000	2.459	2.205	1.550	1.739	1.410	1.258	1.385	1.337	1.512	1.582	2.034	2.216	2.495	2.876	3.140	3.768	3.777	4.059	4.266	4.384	4.508	4.573	4.102	4.291	5.181	5.730	4.507	3.065	2.513
330.0	218.0	591.0	862.1	649.5	416.0	321.1	348.4	434.7	552.3	707.2	882.8	963.0	952.8	837.6	801.6	852.2	628.7	325.5	173.0	186.8	582.8	1809	2778	1202	25.48	2.945	1.767	1.765	1.234	1.189	1.117	1.028	0.928	0.896	0.847	0.779	0.674	0.657	0.597	0.650	0.585	0.684	0.583	0.663	0.856	1.085	1.410	2.190	2.725	2.846	2.319	2.224	2.112	1.739	1.648	1.590	1.691	1.791	1.932	2.212	2.476	2.789	3.154	3.577	3.702	3.864	3.930	4.167	4.300	4.157	3.660	3.819	3.913	4.300	4.800	4.431	3.837
335.0	230.1	634.6	1029	852.3	581.5	414.1	379.1	441.3	535.5	682.0	841.9	939.1	920.6	826.2	724.1	661.6	760.3	542.8	224.4	161.8	221.5	473.7	1005	3094	1687	33.47	2.863	2.028	1.499	1.211	1.192	1.045	1.011	0.961	0.793	0.601	0.623	0.773	0.586	0.598	0.578	0.597	0.594	0.708	0.746	1.061	1.561	2.524	3.252	3.283	2.892	3.043	2.718	2.317	2.094	1.724	1.879	1.794	1.846	2.270	2.482	2.808	2.944	3.455	3.537	3.532	4.093	3.940	4.144	3.996	3.976	3.910	3.776	3.597	3.733	3.727	4.382
340.0	234.1	682.1	1089	925.2	668.4	453.2	386.7	439.5	528.1	657.9	799.1	892.2	881.7	811.6	709.4	593.5	606.5	679.8	339.0	177.5	157.3	186.5	290.7	1418	3299	410.7	20.67	2.504	1.985	1.254	1.152	1.217	1.038	0.927	0.736	0.737	0.668	0.685	0.817	0.655	0.554	0.614	0.700	0.585	0.700	1.019	1.570	2.558	3.298	3.431	3.179	3.337	3.106	2.609	2.226	1.833	1.963	1.802	2.082	2.091	2.337	2.612	3.033	2.998	3.220	3.496	3.623	3.787	3.872	3.878	3.864	3.848	3.489	3.472	3.613	3.051	3.222
345.0	212.4	617.0	1029	952.2	697.7	472.2	394.2	430.9	510.5	615.3	740.7	828.9	823.5	763.0	674.7	563.7	492.3	585.9	513.6	233.3	157.4	136.1	136.7	391.0	1846	2783	335.6	8.789	2.318	1.586	1.443	1.081	1.057	0.964	0.902	0.845	0.657	0.692	0.594	0.670	0.530	0.560	0.547	0.646	0.744	1.027	1.548	2.407	3.293	3.434	3.239	3.329	2.781	2.705	2.374	1.999	2.000	1.852	1.955	2.098	2.115	2.420	2.638	2.825	3.097	3.297	3.406	3.656	3.602	3.603	3.652	3.649	3.466	3.353	3.222	3.006	2.963
350.0	197.1	544.0	929.7	919.5	722.7	511.8	414.4	427.2	488.1	573.0	674.1	742.0	750.2	704.3	634.3	541.7	455.3	434.6	482.8	414.4	220.6	150.9	125.8	157.3	488.6	1484	2190	927.3	21.99	2.483	1.704	1.457	1.030	0.886	0.831	0.784	0.797	0.613	0.678	0.574	0.564	0.559	0.579	0.703	0.706	1.007	1.359	2.194	2.900	3.111	3.030	3.413	3.178	2.879	2.526	1.978	2.034	1.919	1.915	2.110	2.196	2.256	2.622	2.625	2.875	2.970	2.988	3.294	3.273	3.198	3.457	3.435	3.402	3.145	3.123	3.007	2.894
355.0	169.2	485.9	829.6	859.9	730.4	530.7	441.1	434.9	485.7	554.2	622.3	677.0	686.3	653.1	601.9	518.6	447.8	393.8	366.0	437.8	397.9	206.1	149.9	128.8	174.2	375.5	809.4	2408	1342	25.15	2.434	1.855	1.210	1.032	0.874	0.754	0.793	0.716	0.695	0.573	0.526	0.581	0.635	0.624	0.798	0.951	1.199	1.922	2.482	2.701	2.979	3.258	3.042	2.914	2.474	2.196	2.095	2.152	2.107	2.328	2.175	2.175	2.617	2.570	2.633	2.695	2.806	3.000	3.096	3.081	3.151	3.091	3.137	2.939	2.945	2.895	2.849
360.0	169.1	449.3	742.0	800.9	696.4	538.4	449.0	435.4	479.7	524.8	587.3	627.8	634.8	611.3	569.3	503.3	440.6	385.4	340.9	356.4	462.9	311.8	178.3	140.1	119.4	135.2	224.8	1117	2670	355.3	15.03	2.283	1.701	1.285	1.097	0.752	0.809	0.752	0.638	0.535	0.666	0.620	0.625	0.651	0.711	0.892	1.221	1.737	2.309	2.546	2.651	3.121	3.015	2.868	2.558	2.184	1.988	2.226	2.080	2.166	2.063	2.233	2.327	2.209	2.361	2.544	2.476	2.783	2.863	2.916	2.884	2.765	2.934	2.985	3.155	2.853	2.978
365.0	154.9	389.8	672.1	753.3	683.5	546.4	460.9	448.4	480.8	524.6	571.6	597.0	598.3	578.2	540.9	490.9	432.4	383.7	345.7	322.7	394.4	431.8	249.4	163.1	125.2	99.95	98.66	303.0	1505	2303	294.0	4.428	2.062	1.598	1.171	0.773	0.728	0.677	0.766	0.728	0.700	0.653	0.598	0.747	0.713	0.900	0.999	1.544	2.083	2.277	2.289	2.792	2.940	2.710	2.568	2.135	1.921	2.167	2.038	2.109	2.221	2.346	2.176	2.280	2.320	2.719	2.771	2.621	2.736	2.711	2.690	2.553	2.608	2.813	2.935	2.730	2.927
370.0	142.6	341.5	589.2	696.1	667.6	554.8	473.1	454.4	477.3	509.3	538.4	562.8	560.4	541.4	509.6	469.7	428.6	388.8	356.3	330.9	332.0	395.5	385.6	237.7	155.5	117.4	92.71	115.9	397.6	1368	1893	635.2	15.53	2.052	1.290	1.006	0.810	0.903	0.645	0.681	0.659	0.654	0.569	0.625	0.688	0.856	1.003	1.543	1.817	2.016	2.287	2.604	2.871	2.631	2.486	2.064	2.205	2.154	2.151	2.154	2.153	2.327	2.184	2.392	2.323	2.391	2.596	2.599	2.575	2.608	2.538	2.627	2.586	2.542	2.668	2.790	2.677
375.0	122.1	320.6	518.2	648.3	628.8	567.6	487.2	469.9	478.2	503.7	525.3	540.9	533.3	503.6	482.8	449.8	419.6	395.5	369.6	344.5	334.9	333.3	382.7	376.4	216.8	148.8	114.8	94.94	134.2	339.4	760.2	2111	331.9	17.63	1.848	1.171	1.040	0.838	0.866	0.684	0.677	0.644	0.608	0.544	0.736	0.801	1.019	1.364	1.639	1.918	2.034	2.481	2.767	2.340	2.475	2.136	2.196	1.977	2.123	2.244	2.141	2.434	2.178	2.390	2.294	2.202	2.414	2.500	2.447	2.550	2.637	2.512	2.429	2.441	2.575	2.526	2.818
380.0	116.3	290.0	475.3	604.6	622.6	560.8	501.9	473.4	473.4	497.8	509.2	514.3	515.3	484.3	467.0	446.9	414.6	395.6	374.5	357.7	343.3	327.7	335.6	402.6	312.8	183.3	137.7	104.6	90.66	114.5	204.0	1184	1921	274.8	7.936	1.550	1.194	0.918	0.833	0.670	0.647	0.611	0.692	0.740	0.750	0.844	0.875	1.375	1.638	1.755	1.875	2.391	2.740	2.328	2.382	2.170	2.107	2.144	2.178	2.243	2.209	2.391	2.186	2.409	2.211	2.209	2.479	2.337	2.497	2.363	2.452	2.435	2.511	2.520	2.561	2.697	2.835
385.0	106.4	262.0	450.2	560.8	595.3	549.8	511.8	477.2	480.2	482.1	502.6	506.8	495.0	470.9	456.3	428.4	408.5	391.9	377.7	362.7	354.2	335.5	319.3	352.2	384.4	244.1	159.1	122.2	93.77	72.42	79.73	326.9	1364	1635	201.5	3.672	1.449	1.030	0.904	0.594	0.695	0.688	0.717	0.639	0.724	0.696	0.809	1.245	1.455	1.627	1.780	2.128	2.502	2.328	2.342	2.112	2.214	2.083	2.046	2.160	2.103	2.519	2.103	2.201	2.349	2.131	2.366	2.138	2.327	2.343	2.308	2.249	2.372	2.506	2.616	2.438	2.761
390.0	101.8	241.9	419.9	531.9	570.4	549.5	515.4	492.2	483.8	490.2	493.0	490.7	475.5	453.0	435.0	411.1	395.2	385.4	376.5	364.6	359.0	346.6	329.1	317.3	342.0	332.0	222.5	146.8	111.8	82.70	65.22	104.0	368.7	1044	1322	463.0	13.03	1.517	1.100	0.856	0.734	0.676	0.712	0.657	0.628	0.734	0.861	1.248	1.367	1.557	1.667	2.108	2.351	2.343	2.364	2.280	2.350	2.182	2.168	2.184	2.158	2.429	2.142	2.182	2.282	2.197	2.167	2.161	2.375	2.356	2.225	2.232	2.315	2.448	2.410	2.412	2.454
395.0	106.3	240.3	394.8	496.1	552.2	542.6	513.4	493.5	477.7	483.0	483.9	470.2	457.1	439.4	419.6	396.5	382.5	377.9	373.2	366.2	356.5	346.9	334.7	313.0	300.0	311.8	314.6	198.7	136.8	103.7	77.60	65.32	111.0	255.8	598.7	1465	273.3	14.81	1.812	1.095	0.900	0.799	0.686	0.686	0.601	0.754	0.932	1.107	1.297	1.443	1.697	2.226	2.376	2.283	2.436	2.370	2.331	2.234	2.283	2.102	2.317	2.296	2.099	2.218	2.071	2.114	2.109	2.030	2.390	2.271	2.131	2.188	2.242	2.409	2.222	2.432	2.542
400.0	109.9	225.0	379.7	494.1	535.0	534.6	519.0	493.8	482.3	483.3	480.3	469.0	448.3	424.8	408.7	390.6	375.3	369.2	367.6	364.7	358.0	347.2	334.7	314.2	295.1	276.3	318.7	267.1	165.8	120.1	89.89	64.94	60.14	81.84	159.7	797.1	1354	229.4	6.781	1.454	0.985	0.810	0.688	0.746	0.658	0.777	0.795	1.133	1.378	1.358	1.638	2.009	2.222	2.182	2.508	2.366	2.213	2.056	2.222	2.421	2.306	2.153	2.144	2.245	2.220	2.096	2.061	2.034	2.105	2.182	2.001	2.349	2.247	2.260	2.132	2.384	2.598
405.0	104.6	217.1	354.9	475.0	510.5	528.5	517.9	499.9	485.9	481.1	475.1	464.4	443.3	419.5	397.7	376.0	365.9	360.0	358.1	354.2	352.5	347.4	332.4	318.2	298.0	269.5	277.6	304.3	215.4	136.9	104.0	74.95	57.07	48.67	56.05	217.2	929.4	1184	170.8	3.094	1.309	0.840	0.732	0.712	0.687	0.849	0.798	1.128	1.235	1.398	1.486	1.862	2.089	2.199	2.532	2.182	2.206	2.098	2.305	2.363	2.277	2.139	2.129	2.186	2.239	2.066	2.027	2.109	2.060	2.151	1.886	2.154	2.180	2.261	2.311	2.268	2.387
410.0	95.83	201.4	339.0	451.1	518.4	524.0	517.5	496.9	486.0	473.6	474.5	460.5	433.8	408.7	383.9	362.3	348.5	345.1	343.0	343.2	339.2	334.5	327.5	314.5	294.8	271.1	255.7	267.1	268.7	183.5	124.1	89.34	67.00	50.79	40.29	69.27	250.2	737.1	965.1	342.2	11.40	1.353	0.978	0.862	0.781	0.768	0.933	1.115	1.193	1.270	1.415	1.872	2.104	2.222	2.296	2.227	2.292	2.154	2.374	2.277	2.288	2.144	2.132	2.135	2.182	2.142	2.114	2.073	2.066	2.028	1.983	2.079	2.082	2.172	2.103	2.238	2.182
415.0	94.92	191.7	322.9	438.3	517.0	514.5	529.9	502.0	483.8	467.9	468.0	441.3	422.7	388.0	366.8	344.1	332.8	322.8	322.8	323.5	326.9	321.2	317.4	309.2	289.3	270.2	251.2	234.4	244.4	247.8	161.8	104.9	79.48	59.49	44.42	41.92	74.05	179.8	429.8	1026	243.2	12.06	1.303	0.977	0.874	0.815	0.913	1.206	1.204	1.233	1.357	1.819	2.190	1.992	2.146	2.234	2.283	2.501	2.418	2.214	2.210	2.060	1.873	2.216	2.202	1.957	2.038	1.986	2.061	1.792	1.989	1.979	1.974	2.066	2.069	2.004	2.034
420.0	93.89	193.5	314.0	421.9	496.5	512.4	526.5	497.5	484.4	466.9	455.3	437.2	407.1	378.7	354.3	331.5	319.9	313.5	307.0	310.1	307.7	308.6	304.2	301.0	285.5	262.8	248.9	229.5	216.0	247.2	204.7	119.7	89.95	67.62	49.94	39.91	39.71	55.51	112.8	556.5	979.5	193.5	5.443	1.166	0.996	0.793	0.892	1.063	1.125	1.265	1.322	1.844	2.006	1.862	2.105	2.205	2.200	2.293	2.456	2.291	2.131	2.141	2.075	2.153	2.153	2.084	1.937	2.007	2.022	1.811	2.065	1.931	2.025	2.095	2.059	1.925	2.090
425.0	97.27	182.8	310.6	423.5	475.7	511.3	523.4	501.2	479.0	459.5	442.8	426.2	398.8	366.4	341.4	318.7	307.3	299.3	296.6	299.7	297.9	293.2	295.1	289.5	276.7	260.6	245.6	225.8	208.3	214.5	228.0	149.5	99.04	75.62	56.34	43.87	34.67	30.24	38.09	149.7	658.4	853.8	32.66	2.575	1.115	0.996	0.902	1.006	1.090	1.253	1.336	1.743	1.909	1.968	2.213	2.247	2.231	2.257	2.246	2.281	2.143	2.106	2.198	2.225	2.143	2.133	1.930	2.069	2.063	1.818	1.954	1.947	1.877	2.052	2.146	1.974	2.070
430.0	108.5	175.6	290.3	404.5	469.3	504.6	524.4	513.8	483.1	455.8	438.7	410.5	383.2	353.3	326.4	304.8	295.2	283.2	282.4	283.3	280.7	276.4	279.4	274.4	267.1	254.9	241.3	223.9	208.5	196.9	201.9	190.0	128.3	86.34	65.16	50.26	38.85	28.82	23.93	44.56	173.8	523.9	688.9	137.1	10.45	1.352	1.070	1.059	1.224	1.290	1.345	1.727	1.958	2.053	2.271	2.270	2.255	2.286	2.235	2.292	2.392	2.249	2.080	2.126	2.153	2.038	1.935	1.916	1.900	1.773	1.821	1.726	1.823	1.884	1.952	1.906	1.945
435.0	165.9	175.5	284.4	389.7	454.1	515.5	537.2	514.3	489.0	451.5	427.1	402.9	371.2	340.9	314.1	294.8	280.5	274.3	270.4	268.6	263.3	260.3	262.8	260.5	255.6	246.1	236.0	223.1	211.9	193.6	179.9	180.4	168.6	111.5	74.88	58.22	45.37	34.02	25.26	24.44	49.30	125.7	304.9	772.4	224.8	13.23	1.328	1.198	1.322	1.281	1.378	1.684	1.979	2.095	2.335	2.088	2.429	2.245	2.449	2.149	2.018	2.373	1.973	1.937	1.917	1.897	1.751	1.685	1.735	1.789	1.853	1.706	1.573	1.694	1.856	2.023	1.886
440.0	236.6	177.8	278.8	369.4	448.1	499.3	535.8	517.7	488.6	445.0	425.2	393.5	363.9	322.3	303.5	285.3	273.3	266.1	263.6	256.6	253.0	248.9	250.8	248.7	244.9	239.7	227.9	219.9	213.5	195.4	178.4	160.7	172.0	140.4	87.28	64.09	50.43	38.04	28.27	22.00	23.75	37.22	79.40	431.5	817.4	182.1	5.493	1.443	1.456	1.302	1.317	1.583	1.956	2.049	2.167	1.970	2.360	2.382	2.438	2.123	2.144	2.373	2.019	2.202	1.929	1.874	1.758	1.822	1.641	1.556	1.828	1.742	1.638	1.604	1.835	1.881	1.797
445.0	272.7	224.1	271.9	378.0	446.1	505.3	534.2	530.4	484.0	440.9	412.5	378.1	349.8	315.3	293.2	280.5	263.6	257.5	256.2	248.9	245.3	238.4	237.9	236.6	232.4	228.4	222.4	215.4	210.8	195.1	179.1	154.9	150.6	152.7	107.8	71.22	54.35	41.78	31.44	23.91	19.74	18.72	26.26	116.2	546.6	739.6	28.03	2.867	1.656	1.331	1.295	1.678	1.643	2.092	2.124	2.110	2.426	2.415	2.453	2.188	2.198	2.208	2.122	1.994	2.003	1.763	1.633	1.776	1.696	1.604	1.692	1.659	1.579	1.717	1.636	1.874	1.789
450.0	191.2	412.9	302.7	356.8	438.3	500.0	528.3	530.3	479.4	433.5	396.8	365.8	335.8	306.5	281.3	265.1	249.4	244.0	237.6	234.8	225.9	219.8	218.3	219.6	217.7	216.0	210.3	205.8	199.8	190.1	175.4	152.1	135.4	134.5	127.3	89.30	60.59	46.14	36.37	28.36	22.03	17.68	16.61	34.27	143.7	442.5	587.2	235.3	9.793	1.626	1.399	1.744	1.773	2.070	2.097	2.169	2.355	2.409	2.240	2.327	2.224	2.196	2.057	1.931	1.859	1.714	1.703	1.620	1.651	1.498	1.743	1.546	1.709	1.659	1.735	1.709	1.860
455.0	110.8	508.0	500.9	332.9	416.2	478.8	517.5	502.0	468.7	409.4	372.0	345.2	313.1	289.9	265.0	245.9	234.4	228.1	222.7	216.2	207.5	198.3	196.1	200.6	201.8	196.9	199.3	193.9	189.5	181.5	169.6	148.7	129.7	116.5	115.7	109.7	73.31	49.68	40.04	32.95	25.49	20.72	15.88	16.87	39.60	105.4	249.5	639.9	190.0	9.955	1.648	1.659	1.725	1.940	2.060	2.002	2.295	2.346	2.323	2.236	2.232	1.963	1.852	1.913	1.733	1.745	1.697	1.638	1.625	1.557	1.657	1.541	1.603	1.600	1.729	1.501	1.645
460.0	93.22	397.7	814.4	372.6	402.0	464.6	502.2	493.9	445.8	395.9	352.1	329.9	299.0	274.8	250.4	234.1	220.6	212.4	208.6	201.8	192.0	185.7	184.7	186.6	187.4	184.3	186.1	182.4	182.5	174.8	164.1	144.6	125.6	109.1	100.8	107.0	88.82	55.84	42.04	34.80	27.40	21.97	16.74	14.30	16.76	29.86	63.65	340.0	615.8	138.1	5.282	1.874	1.908	1.864	1.950	1.904	2.106	2.141	2.092	2.171	2.247	1.921	1.966	1.738	1.665	1.663	1.567	1.551	1.568	1.533	1.633	1.541	1.490	1.529	1.677	1.448	1.814
465.0	75.91	232.3	1005	591.4	372.6	437.8	477.8	472.4	428.1	374.7	338.3	312.9	287.0	260.6	237.8	217.7	209.0	199.0	194.9	189.4	179.6	167.9	171.1	174.5	172.0	173.9	172.5	169.6	171.3	165.6	156.5	138.3	121.0	105.8	92.49	91.60	94.03	65.30	43.46	35.65	28.31	23.34	18.98	14.73	12.65	13.30	19.55	89.46	409.7	533.5	106.2	2.967	1.899	1.843	1.981	1.886	2.236	2.153	2.147	2.113	2.221	1.945	1.942	1.909	1.635	1.458	1.442	1.447	1.518	1.566	1.529	1.511	1.394	1.469	1.540	1.360	1.540
470.0	74.61	147.8	670.4	1173	444.6	391.8	437.7	429.4	396.8	344.8	308.6	284.8	264.5	235.4	217.0	197.4	189.6	179.5	175.4	170.5	163.5	152.7	152.1	153.8	155.8	154.7	155.5	155.3	155.1	150.2	142.5	128.3	113.4	99.52	87.01	78.00	80.15	74.58	51.94	36.46	29.52	24.39	19.87	15.88	12.83	10.41	9.813	24.54	106.5	324.6	420.2	111.4	10.80	1.951	2.045	1.863	2.136	1.953	2.063	1.995	2.004	1.909	1.800	1.638	1.464	1.438	1.337	1.529	1.480	1.390	1.391	1.505	1.300	1.347	1.336	1.386	1.548
475.0	81.13	118.1	297.2	1232	929.1	363.9	391.7	387.5	358.2	315.9	282.2	259.2	236.0	215.5	191.0	179.2	168.6	161.6	157.0	149.2	142.7	135.2	135.5	135.4	136.7	136.3	136.8	138.3	139.1	136.1	128.3	117.1	103.2	92.42	79.44	69.05	65.27	65.78	62.06	41.50	30.07	24.20	20.04	16.16	12.95	10.78	8.254	10.01	27.80	76.52	166.1	409.6	187.5	13.21	2.118	1.986	2.062	1.816	1.752	1.907	1.838	1.639	1.600	1.416	1.372	1.409	1.302	1.285	1.242	1.337	1.232	1.368	1.344	1.401	1.292	1.377	1.381
480.0	83.40	112.1	194.4	809.9	1422	411.9	360.3	350.6	328.3	292.7	261.8	241.5	221.5	199.6	175.7	164.1	155.9	148.9	143.3	137.1	129.5	124.3	122.6	123.8	123.5	124.2	124.4	127.8	128.0	125.4	121.1	110.0	98.04	86.72	73.64	64.50	57.81	55.35	61.05	48.63	32.57	24.95	19.75	16.26	13.05	10.94	8.434	7.465	10.29	20.41	41.68	208.1	439.9	154.9	7.022	1.876	1.965	1.852	1.645	1.716	1.600	1.739	1.582	1.320	1.380	1.292	1.276	1.521	1.086	1.269	1.202	1.195	1.177	1.357	1.167	1.243	1.438
485.0	72.70	121.6	166.2	416.9	1536	712.9	332.1	329.3	308.4	274.9	244.7	224.9	206.0	184.9	166.1	151.8	142.5	137.5	131.4	129.7	118.4	112.7	111.6	113.6	112.6	113.6	115.3	118.2	117.9	115.8	112.7	102.0	92.79	82.68	70.63	62.02	54.40	48.93	49.72	53.64	36.92	25.38	20.21	16.73	13.64	10.85	8.790	6.901	6.768	8.126	12.64	54.76	254.9	426.3	115.0	3.113	1.723	1.809	1.657	1.721	1.510	1.732	1.467	1.316	1.306	1.231	1.202	1.298	1.183	1.161	1.179	1.021	1.203	1.236	1.162	1.176	1.311
490.0	63.70	132.2	154.6	240.7	910.6	1364	382.7	300.0	277.4	247.5	226.8	208.1	189.6	167.0	151.1	137.2	131.1	125.2	117.2	114.3	106.2	101.2	98.68	100.3	100.7	102.4	103.3	105.3	107.0	104.2	100.5	92.32	83.09	75.18	64.63	57.48	50.75	44.11	40.63	45.12	44.31	29.86	20.81	16.57	13.88	11.26	9.363	7.509	6.407	5.604	6.215	15.45	64.55	210.1	351.4	116.6	10.86	1.761	1.704	1.534	1.503	1.455	1.380	1.191	1.212	1.318	1.146	1.107	1.127	1.098	1.129	1.116	1.112	1.226	1.082	1.132	1.136
495.0	61.37	120.9	160.3	178.8	381.4	1333	908.3	270.7	252.4	224.4	204.7	190.0	167.6	152.0	136.4	125.3	115.2	109.5	103.6	101.5	93.17	89.26	87.60	89.10	90.22	88.68	90.83	93.05	95.14	93.36	89.76	83.31	74.94	68.28	59.99	52.85	46.83	40.35	36.75	34.73	38.72	37.21	23.84	16.81	13.23	11.30	9.351	7.817	6.901	5.576	5.098	6.657	17.46	49.74	131.3	361.7	196.5	12.18	1.763	1.429	1.355	1.430	1.291	1.150	1.057	1.291	0.996	1.062	1.045	0.994	1.133	1.090	1.031	1.176	1.115	1.152	1.186
500.0	61.20	102.8	174.4	163.7	237.2	843.1	1381	310.7	228.6	205.5	185.6	172.5	152.4	135.8	126.5	115.9	105.8	100.3	94.95	91.38	85.18	82.21	78.98	78.89	79.30	81.80	82.49	83.33	86.11	84.95	80.69	76.69	68.13	61.68	54.44	48.78	43.10	38.81	33.61	29.60	31.26	37.75	28.84	17.88	13.65	10.80	9.438	8.031	7.072	5.563	4.989	4.855	7.065	13.99	32.94	168.6	405.4	143.0	5.290	1.487	1.280	1.208	1.079	1.184	1.103	1.069	1.070	1.097	0.993	1.002	1.020	0.883	0.957	0.999	0.908	1.283	1.122
505.0	48.97	86.17	183.2	159.6	188.3	413.3	1451	578.3	208.0	190.2	171.4	156.4	143.9	125.0	115.1	105.2	95.92	91.33	87.25	84.09	76.67	74.50	72.12	71.80	73.13	73.78	75.90	74.59	76.92	77.88	74.19	69.36	62.97	57.69	51.33	45.18	40.30	35.09	30.68	28.28	26.79	31.23	32.16	21.32	13.99	11.36	9.503	8.061	6.943	5.974	5.092	4.553	4.667	6.115	10.07	43.35	230.0	369.8	29.27	2.419	1.359	1.298	1.029	1.052	1.016	1.093	1.145	1.015	1.066	0.966	0.892	1.055	1.047	0.972	0.877	1.157	1.033
510.0	41.55	71.11	143.0	183.1	160.3	225.1	839.0	1188	255.4	165.4	155.0	139.1	124.7	114.0	100.4	90.10	83.23	78.64	76.06	73.29	67.21	64.59	61.86	62.57	62.84	64.01	65.14	65.40	66.31	66.67	64.25	60.17	55.11	50.47	45.84	40.10	36.07	31.58	28.02	25.05	22.77	23.03	26.57	25.13	16.58	11.36	9.147	7.817	6.709	5.996	5.534	4.865	4.178	4.234	5.062	12.22	58.04	189.2	236.0	112.3	8.521	1.289	1.175	1.008	0.940	0.996	0.956	0.869	0.991	0.844	0.880	0.860	0.937	0.967	0.801	0.923	0.866
515.0	33.64	65.89	104.7	194.0	151.8	158.5	325.9	1206	709.7	147.3	133.9	122.3	109.5	96.90	86.35	78.36	71.22	68.14	64.83	60.30	57.39	54.73	51.81	53.90	53.73	53.93	55.13	56.32	55.75	56.53	55.69	51.50	46.87	43.92	39.09	36.02	31.17	28.35	25.42	22.37	19.95	19.20	18.62	22.61	21.19	13.31	9.109	7.752	6.737	5.660	5.464	5.191	4.476	4.096	3.847	5.139	15.04	44.33	94.51	278.5	156.0	7.576	1.141	0.924	0.926	0.849	0.984	0.909	0.925	0.848	0.905	0.759	0.842	0.750	0.808	0.786	0.890
520.0	36.80	50.25	73.58	169.2	169.0	135.7	178.8	729.7	1221	183.4	119.6	111.3	99.86	86.54	77.56	71.99	64.37	60.91	57.01	55.18	50.94	47.98	46.71	48.02	48.17	47.23	48.32	49.87	48.97	49.81	48.83	46.22	42.31	39.14	34.78	31.28	28.31	25.44	22.79	19.80	18.39	17.10	15.38	18.10	21.94	15.94	9.404	7.624	6.212	5.368	5.036	4.868	4.811	3.860	3.666	3.444	5.699	11.96	23.57	134.1	291.1	31.27	2.836	1.006	0.887	0.853	0.891	0.883	0.905	0.832	0.899	0.796	0.666	0.840	0.808	0.728	0.786
525.0	35.54	46.79	63.31	127.9	197.7	129.3	132.7	328.9	1383	442.4	106.6	96.45	89.88	76.96	68.74	61.38	57.35	54.83	51.00	49.24	45.47	43.42	42.20	41.95	43.46	43.25	42.36	45.15	44.31	45.67	44.30	41.23	38.09	34.43	31.73	28.83	25.95	23.31	20.92	18.62	16.94	15.12	13.61	14.46	18.29	18.15	11.01	7.501	5.936	5.267	4.823	4.677	4.548	4.034	3.533	3.123	3.411	4.470	6.791	34.64	170.3	232.7	26.09	1.416	0.894	0.844	0.944	0.911	0.791	0.815	0.863	0.742	0.749	0.793	0.837	0.772	0.837
530.0	36.43	41.58	54.81	88.60	176.8	145.4	113.5	160.3	763.3	1106	159.8	87.26	76.71	68.04	60.98	54.41	50.11	46.94	44.22	41.97	38.92	37.42	36.79	36.26	37.58	37.31	37.03	38.03	38.23	39.27	38.46	35.34	32.73	29.62	27.42	24.80	22.54	20.02	18.27	16.83	14.57	13.62	12.43	11.50	12.64	15.30	14.22	8.938	6.025	5.012	4.468	4.201	4.088	3.905	3.585	2.896	2.782	2.727	3.202	9.139	43.07	132.3	186.5	79.58	5.108	0.902	0.766	0.753	0.747	0.733	0.792	0.742	0.690	0.750	0.697	0.733	0.726
535.0	32.39	44.43	49.05	74.74	115.3	175.2	106.7	105.5	257.4	1154	625.4	77.63	66.47	57.99	52.27	45.70	42.95	40.90	37.97	37.06	34.14	31.04	31.50	31.12	31.79	32.06	31.57	32.95	33.00	32.75	32.34	30.27	27.73	25.80	23.05	21.57	19.98	17.49	15.89	14.52	13.23	11.82	10.72	9.593	9.264	10.24	13.21	11.82	7.069	4.824	4.376	3.931	3.589	3.255	3.508	3.101	2.567	2.131	2.422	3.400	10.89	30.93	74.67	200.1	95.03	3.498	0.796	0.757	0.704	0.659	0.722	0.773	0.542	0.664	0.602	0.665	0.600
540.0	27.15	38.76	44.49	61.02	81.69	171.8	117.3	85.83	122.8	656.3	1174	108.4	60.04	52.74	46.84	40.31	38.37	35.48	33.42	30.71	30.32	28.03	27.79	27.52	28.79	29.13	27.90	28.58	28.74	28.49	29.56	27.10	25.25	23.00	20.53	19.02	17.71	15.43	14.54	12.99	11.72	10.88	9.404	8.781	8.317	8.056	9.926	12.60	8.365	5.034	3.960	3.740	3.409	3.153	3.018	3.078	2.722	2.110	2.066	2.048	3.799	7.998	18.67	101.6	201.3	28.43	1.630	0.953	0.741	0.606	0.662	0.805	0.607	0.578	0.653	0.593	0.642
545.0	28.44	34.66	40.88	50.30	67.49	135.2	138.6	78.94	84.84	260.2	1319	218.0	54.82	47.49	42.87	37.54	32.79	30.83	29.35	27.99	27.32	26.05	24.47	24.46	24.95	24.96	24.90	24.81	25.74	26.37	25.21	23.91	21.73	20.71	18.80	17.14	15.30	13.99	13.06	11.94	10.60	9.653	8.939	7.832	7.666	7.263	7.308	10.68	9.638	5.791	3.909	3.456	3.263	2.985	2.717	2.907	2.779	1.922	1.841	1.692	2.078	2.878	5.301	26.42	127.9	163.3	21.96	0.955	0.880	0.655	0.663	0.856	0.627	0.563	0.651	0.700	0.672
550.0	31.89	35.51	39.75	46.08	56.29	88.44	152.0	83.49	67.43	107.9	689.1	953.3	109.1	41.59	36.89	33.17	29.12	27.31	25.34	24.85	23.63	22.00	21.40	21.21	21.56	20.86	21.41	21.42	21.41	22.12	21.08	20.60	19.06	17.24	16.12	14.67	13.19	12.28	11.10	10.26	9.417	8.768	7.902	7.334	6.419	5.975	5.677	6.907	8.895	7.202	4.820	3.388	3.113	2.684	2.708	2.498	2.511	2.248	1.729	1.581	1.533	1.732	2.018	6.768	32.83	98.66	133.8	53.16	2.971	0.713	0.614	0.645	0.607	0.558	0.615	0.593	0.641
555.0	27.79	28.18	37.20	43.10	46.29	57.70	119.8	113.2	60.70	67.63	208.9	1011	575.1	37.47	31.67	28.18	25.14	23.19	21.44	20.90	19.59	18.58	18.14	18.43	18.35	17.71	17.59	18.16	18.37	18.46	17.48	17.62	15.98	15.01	13.40	12.21	10.99	10.60	9.386	8.726	8.432	7.723	6.880	5.995	5.484	5.398	4.808	4.640	6.079	7.505	6.107	3.759	2.819	2.399	2.339	2.057	2.124	2.104	2.145	1.472	1.406	1.364	1.417	2.373	8.228	22.97	57.16	144.3	30.91	2.355	0.741	0.610	0.607	0.561	0.532	0.588	0.639
560.0	36.86	31.11	35.69	41.04	42.70	44.32	86.93	137.8	58.12	51.47	86.76	549.9	1038	72.97	27.97	24.24	22.36	20.39	19.19	17.85	16.71	16.29	15.61	15.67	15.61	14.89	15.45	15.72	15.64	16.51	15.69	14.76	13.53	13.13	11.39	10.92	9.994	9.308	8.612	7.967	7.607	6.564	6.019	5.058	4.998	4.938	4.369	3.879	4.213	5.967	6.843	4.310	2.804	2.150	2.154	2.019	1.869	1.815	2.205	1.652	1.369	1.098	1.196	1.117	2.509	5.900	14.41	78.08	129.0	24.33	1.096	0.686	0.653	0.508	0.561	0.620	0.645
565.0	32.59	33.41	32.32	35.93	40.38	37.87	57.57	137.2	73.00	50.56	56.93	203.6	1088	164.0	26.08	22.14	20.21	18.36	17.08	15.11	14.57	13.68	13.32	13.53	13.80	13.03	13.88	13.52	13.70	14.61	13.57	12.33	12.38	11.05	9.979	9.756	8.652	8.180	7.347	6.686	6.228	5.827	5.399	4.682	4.457	4.406	3.870	3.507	3.489	4.265	5.698	5.088	3.265	2.058	2.127	1.890	1.773	1.538	1.737	1.950	1.459	1.081	1.170	1.099	1.195	1.953	3.920	20.63	90.72	109.0	16.35	0.700	0.563	0.515	0.586	0.531	0.627
570.0	32.06	35.17	33.97	31.46	33.20	33.36	40.25	94.78	107.4	52.46	51.18	84.02	512.2	784.3	71.61	18.04	16.17	14.70	14.21	12.62	12.16	11.19	10.92	11.10	10.84	11.11	10.86	10.69	11.12	11.45	11.12	10.33	9.781	9.149	8.365	7.743	7.055	6.580	6.210	5.756	5.243	4.860	4.211	4.153	3.793	3.505	3.140	2.861	2.658	2.894	3.837	4.653	3.792	2.563	1.914	1.737	1.484	1.422	1.451	1.567	1.605	1.248	1.094	0.974	0.939	1.122	1.574	5.294	23.98	69.27	83.03	18.30	1.159	0.573	0.523	0.584	0.528
575.0	34.62	36.44	36.27	31.63	28.49	27.47	30.16	50.22	118.1	70.24	54.03	59.26	155.4	738.1	449.0	16.25	13.57	11.68	10.85	9.971	9.734	8.767	9.143	8.923	8.778	8.614	8.610	8.820	9.079	8.899	8.532	7.856	7.490	7.164	6.716	5.782	5.712	5.027	5.082	4.683	4.151	3.741	3.239	3.299	2.924	3.025	2.440	2.490	2.248	2.119	2.447	3.086	3.600	3.113	1.928	1.466	1.444	1.216	1.223	1.249	1.378	1.419	1.095	0.939	0.927	0.917	1.033	1.740	5.962	16.22	38.35	83.65	21.49	0.808	0.510	0.506	0.506
580.0	35.25	41.85	40.29	33.14	26.51	26.17	28.04	34.46	100.1	98.37	53.97	55.22	71.94	358.6	793.0	41.13	11.23	9.223	9.257	8.409	8.428	7.181	7.333	7.636	7.317	7.077	6.924	7.421	7.376	7.354	7.202	6.996	6.347	5.995	5.531	4.749	4.776	4.336	4.283	3.878	3.455	3.229	2.827	2.686	2.662	2.532	2.039	2.120	1.870	1.683	1.861	2.028	2.957	3.348	2.132	1.301	1.315	1.189	1.037	1.080	1.066	1.266	1.297	0.979	0.769	0.963	1.053	1.099	1.934	4.193	9.883	50.16	70.56	10.06	0.596	0.496	0.559
585.0	32.77	39.53	37.70	26.70	22.97	21.20	27.82	30.40	68.10	126.0	61.50	55.59	53.55	125.5	796.7	116.4	10.06	8.603	8.011	7.495	6.933	6.146	6.096	6.516	6.010	5.938	5.718	6.052	6.116	5.939	5.893	5.759	5.250	5.136	4.680	4.114	3.671	3.795	3.367	3.122	2.825	2.805	2.582	2.248	2.140	2.180	1.831	1.782	1.701	1.423	1.404	1.471	2.069	3.097	2.618	1.469	1.087	1.136	1.080	0.957	1.005	0.984	1.360	1.152	0.899	0.882	0.969	0.946	1.016	1.554	2.716	13.97	58.19	34.28	5.160	0.649	0.446
590.0	34.62	40.14	37.20	27.80	23.42	20.91	25.17	28.19	45.09	118.1	86.47	56.26	48.00	50.96	346.7	559.2	36.79	7.331	6.524	5.749	5.679	5.393	5.131	5.150	5.076	4.895	4.679	5.039	4.957	4.981	4.815	4.521	4.341	3.823	3.670	3.373	3.024	2.837	2.762	2.449	2.378	2.329	2.099	1.896	1.816	1.815	1.624	1.477	1.360	1.270	1.191	1.123	1.320	1.927	2.340	1.948	1.162	0.932	0.877	0.894	0.871	0.884	0.953	1.305	1.023	0.813	0.819	0.818	0.800	0.875	1.083	3.607	16.55	37.79	38.96	10.41	0.736
595.0	32.07	39.13	35.97	24.55	19.64	19.56	20.75	23.96	35.76	79.74	116.1	61.17	47.34	32.92	93.56	509.3	263.0	6.770	5.277	4.729	4.728	4.166	4.323	4.486	4.020	3.872	3.817	3.606	3.718	3.984	3.913	3.700	3.191	3.307	3.075	2.815	2.309	2.315	2.352	1.895	2.008	2.078	1.757	1.532	1.437	1.457	1.347	1.301	1.110	1.091	1.042	0.973	1.037	1.128	1.722	2.068	1.526	1.023	0.688	0.793	0.825	0.738	0.851	0.905	1.315	1.043	0.779	0.797	0.704	0.690	0.613	1.251	4.156	9.308	24.53	45.59	10.41
600.0	35.37	36.27	36.11	23.70	19.41	18.72	19.83	24.19	33.13	57.90	119.8	74.56	45.93	29.09	33.32	234.7	508.9	18.81	4.737	4.200	4.005	3.631	3.685	3.669	3.177	2.957	3.506	3.465	3.199	3.439	2.965	3.097	2.953	2.593	2.565	2.428	2.010	2.161	1.931	1.736	1.552	1.666	1.491	1.376	1.153	1.281	1.274	1.142	1.018	0.960	0.927	0.917	0.889	0.936	1.122	1.863	1.665	1.209	0.697	0.685	0.840	0.747	0.812	0.830	1.200	1.280	0.884	0.718	0.820	0.690	0.511	0.648	1.350	2.408	6.879	31.87	34.46
605.0	33.08	38.83	33.77	24.78	18.76	19.32	19.17	23.61	31.70	49.15	105.5	95.13	47.54	29.51	20.63	74.80	536.9	80.39	4.609	4.019	3.649	3.202	3.301	3.166	2.919	2.722	2.945	3.126	2.917	3.001	2.917	2.628	2.298	2.117	2.235	2.031	1.763	1.783	1.723	1.551	1.398	1.448	1.342	1.247	1.273	1.062	1.047	0.986	0.844	0.918	0.764	0.779	0.655	0.861	0.895	1.332	1.655	1.298	0.790	0.831	0.678	0.625	0.661	0.736	0.883	1.085	0.947	0.789	0.770	0.781	0.693	0.582	0.702	0.967	1.969	9.652	33.48
610.0	33.15	34.93	30.99	25.19	17.86	19.21	20.66	26.93	35.07	51.33	82.13	118.2	64.34	35.33	23.05	30.63	250.5	363.9	22.77	3.205	3.016	2.893	2.881	2.769	2.703	2.444	2.614	2.672	2.233	2.334	2.282	2.300	2.166	1.882	1.908	1.664	1.500	1.479	1.415	1.390	1.218	1.262	1.075	1.084	1.060	0.938	0.934	0.800	0.909	0.740	0.691	0.765	0.646	0.651	0.760	0.918	1.391	1.313	1.024	0.792	0.733	0.708	0.703	0.745	0.744	0.868	1.071	0.983	0.751	0.728	0.635	0.689	0.629	0.645	0.991	2.589	10.02
615.0	37.42	41.21	33.12	22.90	16.92	16.30	22.28	23.60	37.85	49.50	67.42	110.4	88.09	38.74	25.08	21.42	72.62	367.1	171.2	3.531	2.592	2.382	2.404	2.786	2.240	2.048	2.019	2.102	1.712	2.149	1.804	1.839	1.796	1.610	1.384	1.518	1.351	1.140	1.339	1.146	1.077	1.100	0.913	0.962	0.896	0.837	0.824	0.753	0.788	0.679	0.656	0.688	0.600	0.683	0.604	0.716	0.833	1.050	1.056	0.945	0.728	0.625	0.681	0.748	0.689	0.759	0.857	1.007	0.735	0.793	0.574	0.734	0.538	0.647	0.615	1.012	2.653
620.0	33.18	32.40	35.50	23.16	18.37	17.46	22.29	26.64	35.24	46.60	59.85	86.89	101.8	41.26	24.38	19.64	29.08	186.7	343.7	9.249	2.457	2.346	2.223	2.357	1.789	1.578	2.095	2.002	1.656	1.910	1.709	1.609	1.559	1.453	1.496	1.258	1.256	1.069	1.062	0.952	1.046	1.008	0.997	0.866	0.863	0.828	0.661	0.644	0.692	0.608	0.624	0.595	0.636	0.535	0.551	0.638	0.620	0.890	0.940	0.953	0.703	0.595	0.647	0.692	0.724	0.699	0.757	0.826	0.902	0.663	0.564	0.667	0.618	0.558	0.577	0.888	0.931
625.0	29.45	32.70	34.51	22.91	17.74	18.88	20.74	28.66	34.21	45.31	53.69	69.68	96.03	48.97	24.69	18.26	18.72	63.93	386.2	57.77	2.224	2.119	2.189	1.826	1.692	1.705	1.803	1.702	1.696	1.776	1.662	1.345	1.542	1.184	1.300	1.104	1.196	1.066	0.940	0.931	1.022	0.876	0.802	0.777	0.759	0.796	0.664	0.622	0.669	0.586	0.533	0.466	0.603	0.529	0.545	0.519	0.643	0.710	0.783	0.980	0.837	0.588	0.703	0.668	0.750	0.755	0.774	0.727	0.829	0.858	0.549	0.550	0.660	0.704	0.557	0.642	0.702
630.0	29.13	31.57	29.91	22.22	16.37	17.77	19.84	25.52	31.26	41.04	49.67	56.75	75.41	64.68	26.47	17.60	16.35	25.06	189.5	253.9	11.30	1.999	1.922	1.653	1.502	1.571	1.588	1.451	1.499	1.447	1.366	1.309	1.290	1.113	1.134	1.049	0.914	0.926	0.894	0.855	0.834	0.762	0.736	0.766	0.717	0.714	0.628	0.628	0.645	0.538	0.534	0.502	0.517	0.537	0.515	0.472	0.518	0.606	0.717	0.911	0.832	0.672	0.657	0.691	0.591	0.687	0.688	0.691	0.721	0.862	0.785	0.688	0.580	0.548	0.452	0.609	0.532
635.0	27.54	29.69	29.24	22.45	15.50	16.51	19.61	23.69	30.33	36.64	44.72	51.29	54.68	72.74	35.57	18.34	15.13	15.42	49.56	278.3	68.35	1.918	1.819	1.334	1.349	1.566	1.410	1.287	1.331	1.338	1.124	1.237	1.166	1.023	0.973	0.969	0.932	0.810	0.837	0.794	0.855	0.776	0.736	0.785	0.653	0.549	0.537	0.539	0.536	0.530	0.433	0.372	0.502	0.541	0.449	0.478	0.567	0.637	0.521	0.697	0.950	0.812	0.713	0.731	0.679	0.672	0.625	0.629	0.606	0.748	0.683	0.887	0.596	0.590	0.560	0.558	0.511
640.0	25.40	32.98	27.82	21.63	15.67	17.82	17.39	24.00	28.15	36.83	42.20	46.18	46.41	63.46	46.12	19.61	14.88	13.38	15.85	152.1	225.4	4.767	1.807	1.424	1.711	1.106	1.228	1.485	1.325	1.188	0.987	1.121	0.926	0.894	0.943	0.779	0.729	0.771	0.654	0.620	0.550	0.759	0.692	0.692	0.561	0.568	0.621	0.540	0.544	0.474	0.426	0.530	0.565	0.475	0.462	0.403	0.601	0.571	0.529	0.609	0.683	0.804	0.810	0.609	0.595	0.574	0.610	0.666	0.657	0.677	0.770	0.819	0.756	0.587	0.510	0.641	0.423
645.0	29.00	34.80	30.29	19.33	17.51	16.31	18.96	23.93	27.43	36.63	42.61	45.00	43.46	49.92	54.34	20.73	17.00	12.78	8.247	48.34	286.5	36.00	1.811	1.390	1.460	1.253	1.247	1.253	1.217	1.198	0.941	0.956	0.854	0.830	0.895	0.729	0.777	0.784	0.605	0.629	0.596	0.780	0.562	0.646	0.592	0.626	0.519	0.502	0.490	0.406	0.405	0.478	0.511	0.382	0.581	0.499	0.496	0.539	0.512	0.534	0.562	0.684	0.690	0.673	0.640	0.600	0.582	0.675	0.671	0.635	0.632	0.705	0.761	0.607	0.497	0.499	0.496
650.0	22.75	37.41	35.23	23.46	18.30	17.70	18.07	22.44	28.11	35.12	42.57	43.76	42.50	40.10	55.82	25.40	15.73	13.05	6.782	14.70	208.0	131.9	1.960	1.513	1.284	1.304	1.084	1.198	1.104	0.953	1.033	0.937	0.797	0.915	0.902	0.772	0.856	0.736	0.693	0.627	0.652	0.605	0.623	0.631	0.550	0.585	0.502	0.536	0.491	0.398	0.469	0.465	0.478	0.464	0.517	0.442	0.453	0.445	0.419	0.564	0.422	0.625	0.698	0.654	0.705	0.668	0.522	0.621	0.614	0.662	0.669	0.714	0.856	0.638	0.536	0.478	0.537
