Sample:	'1
File name:	T2025042309农业综合开发165桥.FD3
Run date:	'11:16:08, 04/24/2025
Operator:	Administrator
Comment:	'

Instrument
Model:	F-2700 FL Spectrophotometer
Serial number:	23B8-004
ROM Version:	4J14000 07

Instrument parameters
Measurement type:	3-D scan
Data mode:	Fluorescence
EX  Start WL:	220.0 nm
EX  End WL:	600.0 nm
EX Sampling interval:	5.0 nm
EM  Start WL:	230.0 nm
EM  End WL:	650.0 nm
EM Sampling interval:	5.0 nm
Scan speed:	12000 nm/min
EX Slit:	5.0 nm
EM Slit:	5.0 nm
PMT Voltage:	700 V
Response:	Auto 
Corrected spectra:	Off
Contour interval:	50.000

Peak integration
Integration method:	Rectangular
Sensitivity:	1
Threshold:	1.000

Peaks
No.	ApexEX/EM(nm)	Height(Data)
1	225.0/575.0	48.01
2	225.0/585.0	48.07
3	225.0/625.0	36.19
4	225.0/635.0	30.78
5	230.0/345.0	989.4
6	230.0/580.0	49.68
7	230.0/590.0	46.38
8	235.0/355.0	927.3
9	235.0/510.0	245.9
10	240.0/265.0	330.3
11	240.0/390.0	786.7
12	240.0/525.0	224.3
13	245.0/270.0	344.5
14	245.0/535.0	186.1
15	250.0/275.0	440.4
16	250.0/545.0	155.9
17	255.0/280.0	519.6
18	255.0/560.0	128.0
19	260.0/290.0	490.9
20	260.0/570.0	104.9
21	265.0/585.0	104.6
22	270.0/300.0	957.8
23	270.0/595.0	91.08
24	275.0/305.0	1061
25	275.0/610.0	78.03
26	280.0/310.0	956.1
27	280.0/340.0	818.3
28	280.0/625.0	68.03
29	285.0/320.0	891.2
30	285.0/635.0	50.22
31	290.0/325.0	823.3
32	305.0/345.0	533.0
33	315.0/355.0	432.9
34	320.0/360.0	409.8
35	325.0/370.0	386.7
36	330.0/375.0	369.0
37	335.0/380.0	368.1
38	430.0/505.0	29.92
39	445.0/525.0	18.01
40	460.0/345.0	3.128
41	475.0/565.0	4.511
42	505.0/275.0	3.085
43	510.0/280.0	3.784
44	515.0/285.0	3.681
45	530.0/290.0	3.457
46	540.0/295.0	4.996
47	545.0/300.0	5.691
48	550.0/305.0	6.073
49	560.0/310.0	5.605
50	570.0/315.0	5.458
51	580.0/320.0	5.660
52	585.0/325.0	5.585

Data points
	220.0	225.0	230.0	235.0	240.0	245.0	250.0	255.0	260.0	265.0	270.0	275.0	280.0	285.0	290.0	295.0	300.0	305.0	310.0	315.0	320.0	325.0	330.0	335.0	340.0	345.0	350.0	355.0	360.0	365.0	370.0	375.0	380.0	385.0	390.0	395.0	400.0	405.0	410.0	415.0	420.0	425.0	430.0	435.0	440.0	445.0	450.0	455.0	460.0	465.0	470.0	475.0	480.0	485.0	490.0	495.0	500.0	505.0	510.0	515.0	520.0	525.0	530.0	535.0	540.0	545.0	550.0	555.0	560.0	565.0	570.0	575.0	580.0	585.0	590.0	595.0	600.0
230.0	30.99	449.0	1372	533.5	26.65	5.580	4.978	4.208	3.641	3.222	3.134	2.754	2.403	1.906	1.835	1.457	1.395	1.201	1.094	1.014	0.882	0.789	0.725	0.763	0.705	0.597	0.623	0.526	0.540	0.500	0.470	0.493	0.455	0.421	0.419	0.383	0.427	0.390	0.379	0.352	0.348	0.384	0.356	0.327	0.336	0.269	0.755	2.826	5.103	4.013	1.488	0.381	0.271	0.244	0.254	0.239	0.274	0.246	0.234	0.246	0.258	0.276	0.228	0.241	0.255	0.247	0.246	0.255	0.269	0.230	0.258	0.283	0.261	0.274	0.267	0.264	0.268
235.0	61.53	143.3	948.6	1902	504.3	46.36	5.401	4.597	3.319	3.715	3.203	2.807	2.654	2.379	2.203	1.415	1.236	1.407	1.081	1.040	1.064	0.887	0.728	0.841	0.760	0.657	0.640	0.526	0.485	0.607	0.505	0.493	0.418	0.492	0.414	0.350	0.379	0.394	0.424	0.367	0.333	0.368	0.394	0.460	0.491	0.354	0.363	0.959	2.210	4.597	6.285	6.705	3.037	0.682	0.262	0.200	0.244	0.275	0.295	0.248	0.229	0.294	0.245	0.212	0.276	0.268	0.231	0.252	0.291	0.266	0.235	0.252	0.235	0.252	0.270	0.251	0.288
240.0	85.53	96.33	301.0	1664	2281	399.3	23.95	4.960	5.208	3.898	3.564	3.216	2.726	2.419	2.003	1.571	1.217	1.392	1.252	1.062	0.747	0.794	0.786	0.798	0.638	0.722	0.597	0.547	0.548	0.556	0.540	0.542	0.422	0.449	0.509	0.400	0.369	0.375	0.430	0.392	0.369	0.378	0.333	0.376	0.516	0.482	0.480	0.489	0.791	1.591	3.927	9.346	11.88	7.688	2.582	0.420	0.245	0.248	0.316	0.258	0.250	0.289	0.243	0.217	0.245	0.252	0.260	0.264	0.251	0.244	0.243	0.273	0.257	0.288	0.288	0.270	0.278
245.0	79.36	137.3	124.2	576.7	2492	2426	292.7	10.01	4.976	4.565	4.051	3.397	3.142	2.820	2.174	1.556	1.505	1.292	1.195	1.134	0.751	0.784	0.726	0.750	0.653	0.580	0.665	0.520	0.573	0.562	0.480	0.515	0.521	0.445	0.455	0.427	0.309	0.362	0.477	0.361	0.378	0.402	0.306	0.343	0.360	0.522	0.695	0.572	0.503	0.575	1.129	3.493	9.228	15.22	13.95	6.211	1.453	0.299	0.244	0.263	0.240	0.259	0.272	0.254	0.260	0.238	0.245	0.240	0.286	0.282	0.292	0.274	0.287	0.342	0.286	0.230	0.239
250.0	41.79	107.3	196.3	210.0	809.9	2401	3028	1003	57.11	5.612	5.089	4.098	3.232	2.964	2.424	1.887	1.821	1.408	1.210	1.133	0.944	0.852	0.897	0.784	0.714	0.669	0.696	0.629	0.581	0.580	0.469	0.535	0.534	0.476	0.521	0.404	0.377	0.412	0.406	0.429	0.372	0.391	0.365	0.351	0.332	0.389	0.473	0.737	0.845	0.840	0.637	1.112	2.488	5.324	9.844	14.07	17.35	14.36	6.748	1.585	0.373	0.285	0.283	0.284	0.344	0.257	0.214	0.266	0.286	0.262	0.282	0.283	0.289	0.286	0.287	0.262	0.259
255.0	28.05	42.11	141.3	278.0	264.8	616.7	2469	4729	1385	51.94	6.646	5.487	4.786	3.155	2.355	2.440	1.911	1.630	1.411	1.155	1.078	0.893	1.000	0.994	0.792	0.715	0.753	0.703	0.606	0.536	0.605	0.674	0.569	0.452	0.428	0.378	0.479	0.452	0.390	0.369	0.365	0.425	0.384	0.376	0.343	0.349	0.316	0.387	0.594	0.945	1.273	1.198	1.111	1.447	2.444	3.644	7.722	18.67	28.84	23.37	9.616	1.757	0.393	0.361	0.293	0.245	0.303	0.292	0.319	0.308	0.292	0.254	0.375	0.281	0.300	0.252	0.268
260.0	26.60	28.75	59.24	245.7	284.2	184.9	750.9	4020	5270	244.9	23.97	6.758	5.767	4.105	3.182	2.659	1.912	1.679	1.405	1.333	1.196	1.106	0.943	0.925	0.971	0.826	0.682	0.670	0.621	0.634	0.641	0.631	0.567	0.487	0.404	0.484	0.466	0.400	0.447	0.465	0.385	0.489	0.396	0.366	0.359	0.337	0.328	0.379	0.384	0.469	0.890	1.497	1.753	0.984	0.862	1.092	2.056	5.517	14.49	28.95	31.19	21.57	6.740	0.805	0.338	0.408	0.372	0.294	0.298	0.315	0.292	0.277	0.296	0.259	0.306	0.325	0.267
265.0	29.42	23.25	29.82	118.8	330.3	208.5	205.9	1350	5691	5004	194.8	12.10	6.400	4.718	3.689	2.921	2.034	1.713	1.587	1.405	1.302	1.077	0.995	1.010	0.902	0.799	0.680	0.614	0.715	0.629	0.539	0.601	0.628	0.576	0.405	0.444	0.428	0.404	0.402	0.468	0.405	0.413	0.432	0.361	0.369	0.358	0.308	0.352	0.321	0.342	0.419	0.957	1.769	1.799	1.323	0.731	0.785	1.562	3.718	9.152	22.44	40.25	30.53	17.26	3.397	0.443	0.357	0.299	0.321	0.278	0.319	0.271	0.290	0.252	0.305	0.295	0.301
270.0	38.96	38.61	35.06	49.72	161.3	344.5	254.4	350.1	1785	5208	6302	768.4	43.53	7.512	4.879	3.323	2.687	2.178	1.729	1.384	1.265	1.361	1.187	1.092	0.963	0.707	0.653	0.705	0.699	0.683	0.636	0.646	0.601	0.555	0.520	0.493	0.518	0.449	0.397	0.494	0.396	0.484	0.355	0.424	0.397	0.423	0.358	0.395	0.367	0.325	0.294	0.466	0.738	1.212	1.782	2.005	1.579	1.046	1.218	2.412	5.598	12.50	21.02	33.50	34.58	32.53	12.71	3.449	0.515	0.385	0.382	0.359	0.305	0.289	0.356	0.340	0.347
275.0	75.49	91.11	77.33	55.48	63.19	160.6	440.4	300.2	445.8	1292	4593	9103	1057	40.61	6.973	4.353	3.610	2.748	2.001	1.775	1.543	1.390	1.220	0.965	0.994	0.948	0.809	0.818	0.788	0.785	0.772	0.611	0.605	0.604	0.595	0.590	0.477	0.543	0.464	0.531	0.416	0.413	0.385	0.483	0.463	0.551	0.484	0.441	0.509	0.424	0.376	0.436	0.424	0.596	0.721	1.215	2.381	3.085	2.052	1.145	1.681	3.225	5.166	8.197	12.17	30.16	53.34	31.93	19.41	3.639	0.529	0.400	0.405	0.339	0.383	0.378	0.359
280.0	112.3	143.8	134.4	85.00	51.20	73.74	282.6	519.6	245.9	356.2	1299	7105	8484	740.3	18.30	6.447	4.757	3.358	2.640	1.882	1.764	1.461	1.336	1.224	1.233	1.015	1.015	0.865	0.846	0.798	0.840	0.632	0.633	0.778	0.735	0.660	0.542	0.629	0.521	0.524	0.524	0.527	0.565	0.510	0.533	0.615	0.700	0.721	0.643	0.557	0.477	0.432	0.429	0.504	0.476	0.639	1.145	2.470	3.784	2.671	1.355	1.193	1.647	2.418	3.317	7.861	20.76	41.84	63.71	30.19	14.44	1.646	0.436	0.367	0.322	0.351	0.343
285.0	148.5	218.5	195.9	125.1	65.95	59.36	131.7	466.6	325.7	200.8	391.0	2166	8877	6672	113.1	9.916	6.004	3.752	2.846	2.198	1.727	1.418	1.384	1.530	1.164	1.143	1.055	0.920	0.982	0.773	0.794	0.682	0.704	0.812	0.729	0.678	0.646	0.583	0.563	0.534	0.500	0.457	0.602	0.579	0.714	0.780	0.882	0.967	0.885	0.797	0.591	0.533	0.454	0.438	0.452	0.488	0.650	1.147	2.073	3.681	3.490	1.790	1.102	1.170	1.380	2.464	5.329	11.74	29.55	52.98	64.47	26.02	8.673	0.861	0.374	0.368	0.410
290.0	201.8	298.9	296.4	182.1	99.37	79.71	98.22	224.5	490.9	482.2	311.3	657.1	2627	6533	6579	436.6	27.13	6.104	3.952	2.822	2.297	1.903	1.729	1.500	1.335	1.185	1.173	1.066	0.990	0.791	0.825	0.677	0.742	0.802	0.801	0.795	0.851	0.698	0.649	0.595	0.575	0.538	0.638	0.595	0.830	0.885	0.998	1.211	1.101	0.968	0.787	0.755	0.625	0.492	0.528	0.576	0.658	0.824	1.059	1.697	2.637	3.257	3.457	2.680	1.710	1.573	2.258	3.681	7.698	14.58	27.23	38.23	48.57	42.22	18.05	8.189	1.195
295.0	265.2	362.1	377.3	240.3	151.8	117.1	130.8	180.0	290.8	648.5	718.2	444.0	807.8	1652	4430	6468	636.1	24.12	5.677	3.838	2.857	2.418	1.950	1.729	1.387	1.338	1.196	1.022	0.867	0.799	0.895	0.832	0.888	0.954	0.861	0.847	0.872	0.836	0.662	0.611	0.653	0.674	0.633	0.653	0.927	0.979	1.111	1.409	1.297	1.175	0.970	0.980	0.775	0.658	0.721	0.715	0.803	0.854	0.909	1.248	1.497	1.798	2.805	4.324	4.996	3.126	2.236	2.265	3.184	4.491	7.104	9.587	13.03	23.39	49.28	64.76	29.32
300.0	293.3	396.0	422.1	290.2	184.0	152.3	164.1	201.1	270.9	473.4	957.8	673.2	484.3	565.8	1245	5674	5566	463.3	11.89	5.042	3.621	3.132	2.190	1.822	1.478	1.331	1.384	1.129	1.057	0.983	0.924	0.829	0.928	0.881	0.884	0.872	0.943	0.886	0.782	0.627	0.638	0.705	0.776	0.774	0.948	1.107	1.191	1.445	1.473	1.365	1.084	1.173	0.959	0.841	0.912	0.872	0.966	0.995	1.048	1.266	1.422	1.637	2.078	2.853	4.604	5.691	4.613	2.825	2.489	2.666	2.947	3.434	4.075	6.232	14.81	35.37	58.41
305.0	309.9	417.6	439.2	330.1	214.3	192.3	214.6	247.8	315.2	435.9	778.3	1061	581.9	395.5	437.5	1708	6663	4571	70.04	7.583	4.595	3.230	2.382	2.007	1.917	1.457	1.395	1.148	1.062	1.130	0.899	0.844	0.914	0.877	0.979	0.904	0.983	0.894	0.783	0.716	0.633	0.643	0.775	0.860	0.891	1.127	1.259	1.505	1.534	1.363	1.161	1.209	1.133	1.089	0.953	1.037	1.220	1.197	1.344	1.484	1.820	1.825	2.230	2.537	3.241	4.563	6.073	5.708	3.885	2.807	2.563	2.358	2.445	2.625	4.319	9.145	20.06
310.0	313.9	424.6	459.2	358.5	249.4	227.6	259.9	309.1	370.8	470.0	631.5	922.6	956.1	528.8	316.9	504.9	1948	4769	4841	1153	19.73	4.717	3.175	2.394	2.022	1.614	1.620	1.370	1.139	1.077	1.023	0.901	0.916	0.942	0.970	0.920	0.903	0.900	0.714	0.734	0.692	0.830	0.757	0.853	0.933	1.144	1.277	1.495	1.567	1.460	1.277	1.343	1.297	1.200	1.172	1.197	1.423	1.436	1.566	1.726	1.941	2.141	2.447	2.570	2.994	3.442	4.179	5.272	5.605	5.387	4.135	2.687	2.227	2.145	2.256	3.208	5.316
315.0	310.3	422.2	482.7	367.6	285.5	263.6	294.5	349.4	412.0	506.1	620.9	743.1	856.5	888.0	417.7	282.0	547.6	1164	3155	6175	476.7	19.94	4.619	3.013	2.334	1.905	1.798	1.528	1.194	1.226	1.087	0.875	0.973	0.927	0.976	1.064	0.895	0.890	0.788	0.762	0.761	0.846	0.787	0.916	0.869	1.237	1.233	1.514	1.711	1.469	1.256	1.408	1.421	1.320	1.337	1.326	1.606	1.594	1.707	1.905	2.047	2.255	2.707	2.844	3.107	3.339	3.467	3.829	4.318	4.711	5.458	5.340	3.747	2.408	2.214	2.028	2.173
320.0	321.4	474.3	553.4	407.1	319.2	298.4	330.2	380.3	453.7	541.1	656.3	724.7	748.3	891.2	690.0	304.2	274.8	362.0	855.7	4251	4106	382.3	9.534	3.957	3.288	2.188	1.932	1.656	1.418	1.383	1.148	1.021	0.952	1.160	1.087	1.056	0.852	0.817	0.862	0.767	0.671	0.831	0.791	0.876	0.996	1.335	1.433	1.621	1.732	1.549	1.361	1.576	1.427	1.391	1.460	1.450	1.690	1.777	1.845	2.062	2.304	2.385	2.801	2.827	3.336	3.444	3.535	3.761	3.814	4.039	4.259	5.403	5.660	4.427	2.831	1.999	1.931
325.0	358.1	561.0	655.1	527.4	374.0	322.0	355.3	397.1	484.4	571.2	679.7	754.0	739.5	744.6	823.3	466.6	256.0	212.2	275.0	1215	4614	3610	56.89	6.466	3.676	2.524	2.144	1.792	1.602	1.441	1.185	1.191	0.940	0.959	0.997	1.036	0.903	0.919	0.830	0.841	0.729	0.824	0.827	0.892	1.072	1.449	1.592	2.073	2.073	2.007	1.672	1.816	1.672	1.555	1.716	1.570	1.743	1.922	1.987	2.126	2.463	2.550	2.900	3.126	3.537	3.407	3.498	3.788	3.908	3.986	3.945	4.028	4.643	5.585	4.753	2.955	2.079
330.0	398.6	652.4	822.4	687.2	464.4	377.4	381.1	423.4	496.8	598.6	704.5	779.6	774.8	707.3	685.0	654.7	410.9	227.8	175.7	353.3	1327	3422	3824	1051	17.95	3.719	2.777	2.138	1.741	1.523	1.349	1.193	1.054	1.057	1.053	0.984	0.884	0.881	0.874	0.799	0.701	0.833	0.844	0.909	1.162	1.529	1.749	2.333	2.652	2.488	2.217	2.328	1.921	1.775	1.807	1.777	1.884	2.058	2.034	2.203	2.535	2.674	2.937	3.186	3.590	3.732	3.781	3.935	4.033	4.096	4.044	3.920	3.805	4.249	4.427	4.520	4.259
335.0	429.6	729.5	897.3	816.1	568.3	436.5	420.3	447.0	529.0	627.5	724.9	791.9	807.9	730.5	644.9	576.3	610.6	366.8	198.8	193.4	365.3	828.4	2420	4967	406.7	19.21	4.050	2.860	2.110	1.920	1.413	1.365	1.146	1.081	1.086	0.903	0.910	0.836	0.875	0.816	0.702	0.853	0.892	0.976	1.273	1.727	1.970	2.562	3.013	2.575	2.376	2.636	2.266	1.911	2.080	1.854	2.131	2.201	2.221	2.296	2.575	2.902	3.143	3.304	3.766	3.776	4.024	4.128	4.255	4.111	4.197	4.225	3.955	3.968	3.589	3.801	4.128
340.0	438.9	756.8	977.2	879.4	636.1	487.7	447.8	471.8	541.3	634.5	732.4	803.1	818.3	756.2	647.4	537.7	556.5	529.7	263.6	178.0	172.0	242.8	644.0	3286	3408	346.2	9.636	3.485	2.654	2.100	1.661	1.436	1.205	1.247	1.004	0.934	1.053	0.897	0.837	0.909	0.741	0.896	0.977	1.064	1.375	1.742	1.854	2.600	3.087	2.967	2.665	2.996	2.467	2.264	2.181	2.115	2.123	2.317	2.517	2.454	2.660	2.965	3.230	3.315	3.579	3.791	3.991	4.014	4.249	4.144	4.079	4.128	4.341	3.874	3.758	3.638	3.441
345.0	447.1	725.5	989.4	918.0	671.5	526.9	474.8	477.6	542.9	636.2	723.8	794.1	803.9	754.7	655.0	542.4	482.7	533.0	399.7	209.1	148.9	129.8	196.1	921.0	3597	3105	51.03	5.772	3.121	2.533	1.871	1.612	1.398	1.273	1.174	1.045	0.961	0.878	0.820	0.838	0.764	0.813	0.948	1.041	1.344	1.666	1.931	2.612	3.128	3.010	2.931	3.069	2.590	2.528	2.366	2.114	2.144	2.338	2.499	2.410	2.721	2.896	3.234	3.356	3.567	3.530	3.910	3.970	4.170	4.365	3.892	4.211	4.544	3.978	3.963	3.634	3.528
350.0	412.5	704.4	956.0	914.5	713.4	575.7	513.1	508.6	555.1	620.2	709.0	762.1	782.3	732.3	661.6	552.6	474.5	445.3	457.3	340.9	188.4	134.5	120.0	258.8	1019	2687	3104	936.9	17.41	3.596	2.238	1.873	1.453	1.373	1.193	1.075	0.911	0.934	0.979	0.848	0.796	0.820	0.941	1.021	1.213	1.578	1.915	2.558	3.002	2.981	2.938	3.152	2.943	2.542	2.502	2.424	2.388	2.394	2.441	2.612	2.679	2.916	3.210	3.316	3.513	3.459	3.606	3.932	3.998	4.170	4.067	4.004	4.256	4.006	3.934	3.681	3.416
355.0	392.5	678.5	887.8	927.3	747.1	619.5	547.8	547.8	584.9	635.1	696.9	744.6	760.6	726.3	659.0	568.7	499.1	434.9	398.0	432.9	314.7	178.2	133.2	136.2	277.2	648.2	1804	3891	380.6	20.55	3.488	2.507	1.832	1.652	1.229	1.121	1.043	1.014	0.933	0.733	0.833	0.786	0.968	0.990	1.140	1.497	1.814	2.341	2.663	2.846	2.654	3.079	3.003	2.788	2.560	2.762	2.681	2.637	2.618	2.785	2.905	3.030	3.117	3.365	3.351	3.553	3.508	3.949	3.848	3.689	3.936	3.940	4.096	3.856	3.976	3.863	3.597
360.0	390.4	643.9	846.4	921.3	765.8	651.8	591.9	579.0	616.1	644.8	699.3	735.3	748.0	718.9	659.1	579.2	519.6	449.9	390.0	400.3	409.8	248.8	158.1	129.7	131.3	191.5	475.5	2481	3134	337.4	10.40	3.057	2.101	1.943	1.304	1.152	1.111	1.098	0.925	0.822	0.816	0.743	0.897	1.052	1.180	1.446	1.769	2.393	2.503	2.862	2.575	3.150	3.224	2.912	2.847	2.604	2.870	2.711	2.771	2.772	2.883	3.047	3.167	3.728	3.480	3.599	3.530	3.820	3.901	3.686	4.145	3.850	4.154	3.978	3.981	3.853	3.783
365.0	368.3	611.9	836.1	883.2	766.7	674.2	615.0	604.0	632.4	660.1	703.1	728.9	735.9	709.4	654.2	585.3	530.9	466.8	403.6	375.0	407.6	354.9	204.5	148.3	117.8	103.9	147.3	695.5	2957	2885	49.14	5.294	2.821	2.199	1.665	1.160	1.120	1.151	0.977	0.967	0.883	0.790	0.922	1.001	1.194	1.374	1.635	2.260	2.527	2.645	2.613	3.101	3.019	2.953	2.975	2.931	2.954	3.003	2.845	3.011	3.037	3.172	3.148	3.535	3.462	3.637	3.543	3.716	3.681	3.975	3.960	4.006	3.810	3.803	3.836	3.813	3.669
370.0	348.7	580.4	795.6	845.9	781.2	706.3	658.1	645.2	643.7	676.3	706.6	722.9	721.1	690.2	647.7	593.5	541.1	496.5	435.7	392.4	369.2	386.7	321.5	203.1	143.8	109.7	95.26	196.3	828.9	2339	2814	893.3	16.24	2.917	2.017	1.519	1.250	1.167	0.960	1.023	0.853	0.952	0.971	1.017	1.170	1.436	1.593	2.098	2.388	2.552	2.474	3.092	2.971	3.015	3.063	3.034	3.106	3.018	2.943	3.077	3.041	3.174	3.321	3.382	3.538	3.420	3.550	3.598	3.789	3.903	3.796	3.808	4.043	3.891	3.993	3.891	3.716
375.0	359.5	561.1	737.4	815.9	788.7	740.2	678.1	672.0	660.8	684.1	704.1	712.3	699.0	679.4	637.0	590.7	554.2	510.8	463.1	420.3	378.4	354.9	369.0	309.1	190.4	137.9	105.2	105.8	226.9	562.2	1576	3431	333.8	19.33	2.776	1.892	1.455	1.258	1.029	0.988	1.004	0.895	0.978	1.003	1.182	1.396	1.690	1.892	2.201	2.515	2.501	2.986	3.105	3.160	3.140	3.044	3.258	3.165	3.207	3.115	3.026	3.369	3.252	3.416	3.541	3.475	3.315	3.561	3.547	3.739	3.632	3.991	3.689	3.649	3.996	3.986	3.980
380.0	343.3	540.8	728.5	803.5	778.2	763.8	703.0	675.1	668.6	698.6	702.8	700.2	691.0	666.1	626.9	583.5	554.9	516.7	478.3	438.9	397.5	356.0	347.6	368.1	254.6	166.6	126.8	101.0	103.9	164.0	416.3	2137	2692	291.8	9.758	2.344	1.807	1.473	1.011	1.015	1.028	0.858	0.984	1.068	1.115	1.498	1.568	1.992	2.267	2.567	2.528	3.003	2.840	3.293	3.067	2.983	3.339	3.125	3.156	3.287	3.138	3.480	3.251	3.430	3.508	3.554	3.356	3.547	3.552	3.635	3.605	3.755	3.683	3.680	3.894	3.910	3.661
385.0	309.6	517.4	723.5	798.6	785.7	761.3	703.8	692.4	673.5	696.1	697.3	691.1	683.7	658.7	619.6	578.9	550.7	518.9	487.0	453.8	410.5	368.6	339.1	354.6	328.0	210.4	151.2	115.7	90.85	83.18	128.3	592.4	2329	2415	216.5	4.330	2.261	1.723	1.297	1.254	1.038	0.911	1.008	1.043	1.117	1.417	1.456	1.730	2.214	2.323	2.424	2.850	3.163	3.212	3.043	3.230	3.277	3.030	3.244	3.342	3.230	3.384	3.357	3.446	3.552	3.632	3.171	3.638	3.520	3.609	3.583	3.783	3.802	3.738	3.655	3.718	3.843
390.0	304.7	499.7	688.6	774.5	786.7	752.5	714.4	693.2	671.7	686.3	687.8	674.8	668.1	637.1	608.4	568.1	541.6	516.9	487.0	458.1	420.4	387.5	355.1	333.4	337.2	292.5	198.3	144.3	111.7	87.87	78.16	166.3	644.0	1822	2135	660.9	14.01	2.346	1.682	1.313	1.119	1.039	0.949	1.055	1.136	1.424	1.377	1.842	2.073	2.206	2.378	2.833	3.090	3.116	3.347	3.230	3.412	3.252	3.164	3.209	3.217	3.305	3.564	3.548	3.335	3.442	3.309	3.386	3.447	3.540	3.513	3.519	3.628	3.878	3.678	3.542	3.812
395.0	305.9	487.7	650.4	752.7	778.8	750.2	728.4	691.8	672.1	678.9	674.8	669.4	649.7	622.4	594.2	557.0	530.6	512.2	483.4	461.7	425.2	402.8	372.8	340.1	317.3	317.9	280.3	184.7	141.5	109.2	84.34	84.62	174.7	436.4	1173	2414	277.5	16.48	2.369	1.652	1.314	1.198	1.044	0.975	1.131	1.345	1.434	1.853	2.072	2.097	2.517	2.759	3.123	2.981	3.294	3.328	3.392	3.308	3.252	3.312	3.385	3.466	3.099	3.509	3.287	3.269	3.120	3.294	3.435	3.396	3.352	3.519	3.491	3.504	3.618	3.866	3.716
400.0	308.8	479.9	652.0	745.6	772.7	750.0	710.7	696.9	680.4	665.6	664.1	650.7	634.8	617.2	575.9	545.6	516.2	500.9	477.4	457.7	432.1	407.6	382.2	353.0	320.6	305.1	315.6	241.1	165.4	131.6	100.4	77.86	78.15	124.8	308.1	1498	2126	240.0	8.261	1.926	1.574	1.283	1.135	1.328	1.278	1.253	1.508	1.899	2.149	2.144	2.270	2.662	3.097	3.081	3.145	3.027	3.616	3.449	3.340	3.313	3.416	3.216	3.281	3.488	3.493	3.222	3.234	3.292	3.435	3.322	3.394	3.511	3.335	3.581	3.457	3.786	3.771
405.0	294.2	472.3	634.1	723.8	756.3	742.0	706.5	703.2	679.6	659.6	652.1	644.3	623.5	602.9	570.2	532.7	506.7	489.2	468.5	451.6	427.9	409.6	389.6	359.4	331.6	301.0	305.9	291.1	203.6	152.8	116.6	86.64	65.85	61.10	92.18	411.9	1692	1864	182.5	3.766	1.613	1.413	1.356	1.304	1.366	1.251	1.528	1.905	2.010	2.021	2.178	2.729	2.961	2.968	3.007	3.119	3.498	3.445	3.361	3.065	3.105	3.249	3.156	3.455	3.180	3.240	3.178	3.177	3.188	3.063	3.178	3.481	3.426	3.424	3.335	3.546	3.576
410.0	294.2	449.5	617.9	708.6	735.9	727.1	707.4	691.0	664.3	659.3	643.6	628.8	608.8	585.1	552.8	517.3	490.2	470.2	453.2	437.6	420.6	405.2	387.0	365.7	339.4	310.3	290.5	291.6	263.1	191.5	139.0	104.1	76.25	56.55	51.01	113.9	461.2	1315	1595	511.2	12.15	1.939	1.456	1.406	1.329	1.337	1.514	1.866	1.989	2.038	2.145	2.713	2.898	2.934	3.003	3.003	3.342	3.273	3.368	3.203	3.067	3.334	3.242	3.164	3.151	3.198	3.170	3.248	3.147	3.123	3.192	3.277	3.224	3.426	3.246	3.484	3.444
415.0	285.7	435.1	602.6	679.6	709.6	709.8	694.3	688.6	654.6	652.5	629.5	610.4	591.4	563.9	523.7	487.6	465.7	447.4	434.7	421.0	407.1	392.6	380.2	365.8	342.3	313.9	293.0	271.9	272.9	245.2	169.8	121.0	89.75	65.96	48.95	52.48	121.4	311.3	825.5	1735	250.5	14.53	1.743	1.631	1.409	1.454	1.526	1.837	1.804	2.081	2.067	2.669	2.876	2.928	3.077	3.032	3.109	3.238	3.191	3.181	3.175	3.235	3.368	3.321	3.162	2.933	3.149	2.903	3.173	3.032	3.015	3.096	3.354	3.157	3.076	3.352	3.129
420.0	268.0	407.9	571.4	674.3	688.3	691.6	677.3	673.4	647.1	643.4	621.7	601.6	571.8	540.7	512.0	471.9	443.6	423.8	412.1	401.7	393.0	382.0	373.2	358.7	339.1	317.5	294.5	270.2	256.1	262.6	201.6	135.1	100.7	74.07	54.36	42.98	48.69	84.52	210.9	1028	1585	217.9	6.907	1.734	1.616	1.467	1.475	1.899	1.826	1.978	2.059	2.509	2.867	2.803	3.106	2.992	3.223	3.456	3.097	3.232	3.255	3.111	3.399	3.153	3.185	2.978	2.906	2.893	2.963	3.153	3.208	3.210	3.137	3.006	2.923	3.356	3.192
425.0	258.0	395.1	536.0	634.7	682.2	670.7	673.5	664.1	640.7	633.7	612.0	590.1	558.5	523.4	490.0	447.6	427.1	409.0	395.5	386.7	377.2	369.4	361.1	349.3	338.2	314.4	295.2	271.8	249.5	247.7	230.0	159.2	110.2	82.45	61.42	44.44	36.63	36.73	59.35	277.2	1192	1377	33.78	3.203	1.959	1.627	1.485	1.869	1.839	1.999	1.925	2.359	2.867	2.709	2.871	2.801	3.148	3.003	3.314	3.302	3.236	3.019	3.097	3.108	3.004	2.888	2.892	2.906	2.909	2.889	2.916	2.828	3.089	3.026	2.987	3.181	3.214
430.0	256.4	374.6	523.8	617.5	637.5	654.1	663.3	656.9	634.5	621.1	599.2	575.4	540.3	498.8	466.0	428.7	405.6	387.0	376.5	368.5	357.3	351.8	346.6	339.8	327.8	311.7	292.9	273.8	250.3	231.9	222.4	194.4	134.8	93.34	71.53	53.24	40.04	30.46	28.95	73.06	316.2	916.5	1173	413.4	11.53	1.959	1.658	1.877	1.813	1.894	1.855	2.445	2.802	2.674	2.919	2.867	3.114	3.054	3.190	3.081	2.860	3.182	2.991	3.141	3.020	3.083	2.975	2.808	2.884	2.689	2.819	2.833	2.833	2.981	2.949	2.926	2.931
435.0	336.8	360.1	505.6	586.2	626.5	636.2	648.3	649.7	624.6	611.6	596.3	566.4	521.0	484.2	451.7	407.0	382.0	366.3	357.2	350.4	334.9	333.3	328.2	326.2	315.6	303.3	290.7	274.2	253.6	231.6	209.1	197.9	168.9	113.0	81.94	61.63	45.79	34.06	25.96	30.35	80.47	215.3	580.9	1387	234.5	14.39	2.064	2.012	1.876	1.912	1.907	2.398	2.599	2.527	2.938	2.814	3.140	2.924	3.146	3.107	2.923	3.095	3.115	3.274	3.102	2.985	2.968	2.747	2.783	2.589	2.635	2.559	2.709	2.846	2.712	2.668	2.759
440.0	389.8	385.4	488.4	573.3	616.2	629.0	634.4	640.7	615.9	608.3	583.0	557.7	512.9	473.2	427.4	392.3	361.2	350.8	339.5	331.8	322.3	318.3	316.7	313.6	305.9	295.2	284.8	272.6	254.8	234.0	205.6	184.5	174.7	135.6	89.52	68.86	51.50	38.15	28.35	23.20	30.39	57.66	147.4	821.5	1343	204.2	7.079	2.121	2.013	1.891	1.906	2.291	2.457	2.545	2.600	2.729	2.967	2.945	2.947	3.067	2.984	3.120	3.070	3.061	2.997	2.893	2.890	2.754	2.750	2.507	2.653	2.599	2.745	2.645	2.542	2.591	2.417
445.0	415.2	488.1	465.8	566.6	583.6	607.9	617.8	621.2	604.2	594.3	564.7	541.8	498.1	454.0	412.6	372.7	350.0	334.7	322.7	314.6	306.0	305.9	304.9	304.3	295.4	284.6	277.4	263.9	250.8	230.3	206.5	177.0	164.3	150.2	105.9	73.46	56.20	42.98	32.07	24.77	21.04	23.96	41.18	221.0	1010	1218	141.4	3.594	2.082	1.857	1.832	2.359	2.497	2.551	2.703	2.516	2.883	3.104	2.999	3.009	2.830	2.926	2.983	3.034	2.758	2.792	2.699	2.667	2.862	2.624	2.578	2.389	2.761	2.577	2.523	2.501	2.467
450.0	340.1	717.0	535.5	512.0	548.7	577.5	589.9	589.7	583.1	571.8	552.1	513.9	467.9	425.7	383.0	348.5	327.8	312.0	301.3	292.4	284.5	281.7	281.3	282.0	277.6	269.2	262.7	251.5	242.0	223.7	201.4	174.3	150.6	140.7	123.2	86.84	61.85	46.90	35.50	28.15	21.76	18.44	18.70	56.74	267.3	795.5	1085	361.6	10.27	2.223	1.939	2.394	2.442	2.425	2.576	2.684	2.799	2.888	2.824	2.974	2.785	2.746	2.819	2.723	2.743	2.770	2.645	2.598	2.595	2.476	2.449	2.349	2.456	2.459	2.362	2.336	2.345
455.0	231.3	757.4	891.2	493.5	509.3	532.8	558.1	560.8	548.4	536.3	518.6	485.8	435.3	393.1	351.3	319.1	301.2	282.5	272.2	264.4	258.2	255.7	255.1	256.6	253.3	248.3	241.4	235.6	225.1	212.5	193.6	168.6	144.4	125.1	118.4	103.5	71.65	51.04	40.14	30.51	23.95	19.65	15.52	21.29	66.80	185.3	495.5	1122	198.6	11.33	2.061	2.261	2.328	2.322	2.595	2.527	2.771	2.682	2.629	2.755	2.833	2.748	2.776	2.707	2.573	2.716	2.349	2.358	2.549	2.332	2.523	2.312	2.202	2.279	2.138	2.291	2.101
460.0	184.3	559.9	1306	619.2	479.8	496.1	524.2	527.1	523.4	507.6	493.8	461.5	411.8	362.3	334.1	296.9	274.4	260.9	254.3	244.4	239.5	235.3	233.6	236.1	232.9	231.7	226.8	218.5	212.4	200.4	185.5	162.5	137.3	119.3	106.0	103.6	82.28	54.95	42.09	32.64	26.26	20.75	16.67	14.68	22.42	47.44	122.2	609.8	1027	157.9	6.780	2.319	2.313	2.203	2.324	2.360	2.504	2.412	2.694	2.617	2.528	2.602	2.666	2.484	2.410	2.557	2.316	2.239	2.233	2.278	2.261	2.256	2.055	2.225	2.057	1.977	2.057
465.0	167.4	366.9	1391	871.3	463.2	476.4	483.4	499.8	493.8	483.1	462.3	434.5	389.5	343.9	306.0	279.3	253.3	244.6	233.4	230.4	220.6	217.1	216.9	215.7	217.9	215.4	211.6	204.5	200.2	193.0	176.7	156.3	133.0	114.5	98.11	92.88	88.22	62.61	44.56	35.04	28.38	21.97	17.88	14.15	13.50	17.38	33.04	158.8	745.5	905.7	121.7	4.017	2.345	2.171	2.313	2.158	2.456	2.356	2.431	2.326	2.511	2.512	2.514	2.342	2.429	2.242	2.229	2.047	2.139	2.117	2.221	1.994	2.074	1.930	2.038	1.838	1.925
470.0	159.1	251.9	872.1	1621	590.8	434.2	439.0	454.8	451.9	440.3	422.3	394.1	350.3	315.2	277.8	249.1	229.7	218.7	207.8	203.2	197.3	194.4	192.9	195.5	194.8	191.6	188.8	183.1	181.6	173.1	160.9	144.3	126.2	107.7	91.72	81.74	77.90	70.66	51.05	36.89	29.05	23.60	19.25	15.39	12.64	11.52	13.74	40.71	193.7	557.0	708.5	287.1	10.77	2.322	2.172	2.048	2.270	2.341	2.264	2.311	2.264	2.230	2.382	2.184	2.451	2.140	2.107	1.985	2.069	2.087	1.938	1.955	1.831	1.780	1.901	1.740	1.764
475.0	153.8	222.8	415.4	1507	1331	415.6	391.5	409.6	410.9	397.3	386.9	351.4	318.5	286.8	251.2	221.6	203.8	193.4	185.1	178.7	172.5	171.8	168.5	173.0	171.7	168.7	167.4	165.5	161.8	154.3	145.2	131.4	115.9	99.38	87.20	75.27	65.81	63.88	58.92	41.02	29.91	24.28	20.51	16.25	13.84	11.12	10.15	14.77	47.79	129.2	279.4	720.6	197.5	13.12	2.103	2.072	2.346	2.077	1.974	1.947	2.058	2.159	2.139	1.983	2.129	1.822	1.871	1.984	1.820	1.847	1.798	1.654	1.647	1.722	1.622	1.898	1.585
480.0	158.1	206.9	291.2	940.4	1915	531.6	361.4	381.3	385.2	369.7	359.7	325.3	293.3	265.7	227.2	204.5	187.9	175.4	169.0	162.0	159.3	156.1	154.8	155.0	154.7	153.7	153.1	151.2	148.2	143.4	136.1	123.0	108.1	94.88	82.43	71.18	60.85	55.95	57.07	46.10	32.04	24.60	20.99	17.24	14.11	11.73	9.811	9.488	15.61	32.90	68.35	338.3	715.4	175.4	7.495	2.094	2.296	1.979	1.890	1.950	2.028	2.219	2.029	1.908	1.860	1.804	1.941	1.666	1.701	1.829	1.573	1.625	1.550	1.603	1.492	1.688	1.523
485.0	151.0	220.0	252.4	498.8	1895	1060	342.0	355.0	360.4	342.6	340.2	311.6	279.2	245.4	215.1	193.2	175.7	163.3	155.5	148.8	146.0	145.4	142.1	142.7	142.4	142.3	140.7	139.4	139.5	132.9	127.8	116.3	101.9	90.57	78.02	67.95	57.70	51.64	50.76	49.59	36.15	26.29	21.56	17.68	14.90	12.64	10.36	8.674	8.622	11.95	19.01	85.81	454.8	679.3	135.7	3.755	2.191	2.016	1.947	1.860	1.867	1.911	1.841	2.010	1.860	1.593	1.701	1.597	1.742	1.599	1.394	1.508	1.472	1.608	1.351	1.505	1.369
490.0	126.7	216.5	246.9	306.3	1081	1827	546.3	331.7	330.2	320.5	309.2	284.8	253.3	224.7	198.5	173.1	160.1	149.3	143.1	135.4	133.7	130.2	128.5	129.1	128.5	127.4	127.7	125.9	125.6	123.0	116.5	107.6	94.86	82.99	73.19	64.48	55.11	49.27	44.41	43.99	40.48	30.79	22.12	18.37	15.48	13.18	10.85	9.202	7.829	7.394	8.132	22.47	114.8	357.9	580.4	264.5	12.24	2.229	1.891	1.910	1.792	1.833	1.731	1.807	1.808	1.613	1.647	1.643	1.488	1.639	1.450	1.425	1.323	1.455	1.398	1.346	1.204
495.0	102.0	192.2	259.5	251.1	460.9	1667	1335	323.6	293.0	287.5	278.4	260.2	230.5	203.4	177.5	156.6	142.3	133.1	126.5	122.0	117.5	115.4	113.4	113.4	113.5	113.0	113.8	111.0	111.9	110.9	105.8	96.76	87.32	76.48	68.13	59.40	52.84	45.86	40.33	36.77	37.21	34.63	25.35	19.10	15.71	13.73	11.12	9.630	8.484	6.705	6.020	8.630	28.69	82.83	221.0	624.6	223.5	16.36	2.077	1.875	1.685	1.600	1.563	1.818	1.595	1.517	1.538	1.497	1.370	1.538	1.306	1.376	1.239	1.323	1.212	1.141	1.110
500.0	88.39	164.6	248.2	228.7	283.8	999.9	1978	387.8	270.4	272.1	256.7	240.4	210.4	185.3	160.1	142.8	130.0	120.1	116.1	110.8	107.0	103.8	104.4	103.5	101.0	101.6	101.3	100.2	101.4	100.6	96.29	87.37	80.67	70.80	63.27	55.33	49.63	42.59	37.83	33.48	32.09	33.79	29.22	20.00	16.14	13.78	11.70	9.603	8.620	6.653	5.811	5.415	9.574	21.10	53.37	272.7	656.0	200.4	9.953	1.741	1.606	1.600	1.503	1.492	1.399	1.439	1.263	1.409	1.440	1.365	1.302	1.313	1.292	1.229	1.054	1.152	1.251
505.0	80.12	131.3	242.9	236.9	221.9	476.8	2017	936.0	254.4	246.0	235.5	221.5	194.7	173.0	149.5	130.8	117.4	110.7	105.8	99.70	96.36	94.65	94.49	91.71	92.79	91.13	92.98	93.79	90.56	90.59	87.03	80.68	73.35	66.39	57.70	51.56	44.97	40.05	35.15	31.84	27.95	29.19	29.92	22.08	16.37	13.50	11.73	9.793	8.582	7.117	6.061	4.958	5.429	7.528	14.45	66.94	355.7	631.9	155.9	4.693	1.665	1.513	1.488	1.385	1.335	1.337	1.289	1.310	1.259	1.164	1.240	1.117	1.139	1.202	0.951	1.028	1.086
510.0	77.78	104.9	183.2	245.9	205.3	260.1	1118	1841	430.0	218.0	208.0	191.1	172.3	150.2	132.1	115.9	104.6	97.11	91.91	86.55	85.24	82.13	81.94	79.95	79.84	80.10	80.17	79.34	79.35	79.44	75.84	72.12	64.70	58.60	51.96	45.92	41.53	36.93	32.50	28.62	25.51	24.10	25.64	24.22	18.20	13.24	11.25	9.600	8.168	7.086	6.132	5.189	4.617	4.622	5.712	17.39	87.02	292.2	472.1	229.6	13.07	1.629	1.487	1.345	1.339	1.233	1.142	1.134	1.160	1.103	1.112	1.005	1.103	1.125	0.991	0.955	1.063
515.0	65.42	95.48	131.4	229.8	209.6	187.5	407.6	1773	1241	214.1	180.2	165.5	148.9	130.5	113.1	98.34	90.64	85.14	79.54	74.33	73.47	69.97	69.77	69.61	68.35	68.34	69.22	68.72	68.70	68.84	65.94	60.93	56.82	50.12	45.22	40.75	36.95	32.82	29.18	25.81	22.77	20.58	20.04	21.45	20.82	15.16	11.08	9.212	7.791	6.960	6.012	5.249	4.474	3.817	3.729	6.240	21.54	67.24	151.7	454.4	226.7	17.64	1.478	1.333	1.261	1.202	1.033	1.156	1.098	0.893	0.965	0.966	0.986	0.871	0.826	0.851	0.921
520.0	55.99	84.24	117.9	187.1	214.5	164.1	219.2	1004	2058	279.9	164.3	153.5	132.8	117.4	100.1	89.03	81.65	75.30	70.37	68.15	64.60	64.69	60.69	60.72	61.14	60.66	60.57	61.41	62.00	60.83	58.64	55.25	49.65	44.30	40.06	37.21	33.45	30.22	26.37	24.28	21.16	19.41	17.40	17.40	19.31	17.07	11.39	8.757	7.714	6.760	5.725	5.343	4.690	3.691	3.462	3.648	7.013	16.87	36.36	179.9	477.0	201.2	10.55	1.394	1.108	1.041	0.981	0.921	0.995	0.900	0.937	0.909	0.861	0.906	0.826	0.832	0.857
525.0	52.20	76.20	106.4	145.0	224.3	157.1	161.3	421.8	2215	839.3	154.1	138.0	121.1	108.7	89.86	81.34	72.69	68.81	64.49	61.17	57.87	56.62	56.15	55.11	54.41	54.56	55.12	54.09	54.18	54.78	52.53	49.07	44.59	41.22	37.30	33.26	30.13	27.25	24.73	22.50	19.33	18.12	16.22	14.92	16.92	18.01	12.89	8.866	7.541	6.492	5.788	4.933	4.586	3.922	3.369	3.210	3.677	5.590	9.935	43.54	229.6	475.1	149.2	4.556	1.205	0.931	1.034	0.933	0.987	0.935	0.829	0.866	0.732	0.854	0.750	0.770	0.777
530.0	48.13	67.08	93.14	111.0	185.5	175.1	131.4	195.7	1167	1939	337.7	122.6	106.0	95.49	79.43	70.99	63.23	58.14	55.69	53.86	51.14	49.72	48.72	47.26	47.28	46.85	46.59	46.34	46.79	46.35	45.48	42.62	39.01	35.41	32.38	29.36	26.68	24.37	22.05	19.96	17.68	16.01	14.41	13.17	12.94	14.69	14.22	10.23	7.317	6.029	5.330	4.752	4.321	4.125	3.482	3.026	2.826	3.119	3.978	11.33	55.25	199.7	329.0	135.1	13.59	1.200	0.969	0.935	0.874	0.833	0.751	0.796	0.685	0.704	0.748	0.686	0.702
535.0	49.61	61.46	77.41	92.89	131.6	186.1	126.5	129.9	372.8	1863	1189	120.5	92.59	81.99	68.50	59.59	54.68	49.38	47.25	46.02	43.34	41.06	40.71	39.69	38.92	39.54	39.47	39.38	40.15	38.38	38.70	35.69	33.10	30.32	27.70	25.31	23.46	21.13	18.90	17.42	15.50	13.96	12.80	11.65	11.43	10.73	12.31	11.68	8.250	5.669	5.029	4.185	3.892	3.446	3.556	3.025	2.457	2.445	2.669	3.910	13.59	45.89	96.91	288.4	223.5	18.29	1.163	0.860	0.862	0.790	0.691	0.743	0.600	0.585	0.704	0.676	0.643
540.0	44.48	59.11	62.88	77.16	97.40	166.0	140.1	105.8	164.5	970.3	1900	192.8	84.63	70.59	61.26	53.22	47.83	42.97	40.97	39.94	38.48	35.69	36.71	34.70	33.92	34.46	34.95	34.85	34.99	34.91	33.49	31.98	29.22	26.13	24.47	22.23	21.02	18.94	17.24	15.96	13.73	12.54	11.45	10.46	9.954	8.984	9.982	11.22	8.715	5.627	4.820	4.179	3.598	3.242	3.232	3.168	2.626	2.264	2.085	2.265	4.448	11.44	23.04	105.4	334.7	187.8	11.28	0.877	0.775	0.729	0.682	0.744	0.626	0.687	0.559	0.639	0.559
545.0	42.00	51.65	60.61	71.40	80.18	133.9	155.9	93.16	106.3	353.9	2177	637.7	76.46	63.80	54.88	47.81	43.76	38.44	35.79	35.35	33.18	30.86	32.23	30.69	29.05	29.34	30.31	30.95	30.02	30.29	29.54	28.36	25.07	23.20	22.02	19.51	17.97	16.80	15.23	14.59	12.91	11.57	10.57	9.469	8.755	8.218	7.795	9.043	8.834	6.396	4.405	3.757	3.229	3.018	2.803	2.878	2.727	2.130	1.895	1.772	2.241	3.561	6.351	25.16	143.3	332.9	135.9	4.631	0.859	0.774	0.648	0.701	0.534	0.627	0.508	0.619	0.556
550.0	37.38	47.67	56.27	65.45	69.52	90.93	146.5	99.34	83.23	142.1	1072	1679	134.0	54.40	45.67	40.09	35.76	32.37	29.84	29.13	27.15	25.99	26.02	25.69	25.00	24.96	25.85	25.42	24.86	24.95	24.11	23.26	20.80	19.40	17.96	16.92	14.92	14.29	12.72	12.12	10.88	9.712	9.095	7.954	7.470	7.029	6.251	6.748	7.624	6.938	4.913	3.460	2.930	2.703	2.549	2.408	2.571	2.444	1.895	1.670	1.635	1.819	2.443	6.623	34.08	127.4	247.8	130.7	13.42	0.906	0.675	0.634	0.590	0.568	0.521	0.518	0.508
555.0	34.64	48.76	54.89	53.89	57.11	62.39	107.6	119.9	71.40	82.90	306.7	1721	777.7	50.03	38.38	32.17	28.62	26.94	24.99	23.88	21.54	20.73	21.44	20.62	19.62	20.28	20.44	20.78	20.28	20.41	19.66	18.84	17.16	16.23	14.35	13.09	12.09	11.44	11.10	9.816	9.043	8.187	7.304	6.851	6.325	5.810	5.083	4.914	5.399	6.155	5.348	3.701	2.749	2.309	2.319	2.316	2.188	2.450	1.805	1.545	1.393	1.376	1.485	2.337	8.386	29.15	71.47	209.3	190.1	17.30	0.692	0.580	0.493	0.539	0.515	0.462	0.593
560.0	36.93	47.84	52.33	50.45	47.61	49.12	76.59	128.0	69.43	64.18	114.4	895.1	1422	100.1	33.65	27.09	24.59	22.38	21.49	19.94	18.58	17.97	18.43	16.59	17.38	17.24	17.23	16.74	17.23	17.13	17.12	15.44	14.51	13.67	12.25	11.30	10.44	9.573	9.269	8.231	7.528	7.191	6.229	5.714	5.777	5.104	4.674	4.229	4.202	4.729	5.152	4.152	2.609	2.128	2.016	1.996	1.835	2.014	1.943	1.739	1.348	1.200	1.222	1.403	2.715	7.225	16.82	73.51	236.3	146.1	8.743	0.566	0.502	0.537	0.546	0.529	0.495
565.0	42.45	49.81	52.45	48.06	41.91	42.15	54.93	119.4	82.77	54.26	66.88	308.3	1817	363.3	29.72	23.56	21.02	19.17	18.41	17.70	16.48	15.58	15.58	14.42	14.08	14.43	14.68	14.55	14.49	14.56	14.24	13.44	12.30	11.25	10.13	9.624	8.956	8.110	7.888	7.542	6.380	6.240	5.639	4.948	4.686	4.601	4.122	3.666	3.412	3.566	4.370	4.511	2.730	1.979	1.839	1.735	1.718	1.567	1.563	1.772	1.385	1.223	1.090	1.130	1.403	2.541	4.437	17.49	95.49	234.0	92.36	3.406	0.556	0.580	0.462	0.441	0.453
570.0	43.32	46.67	51.13	42.82	36.75	37.02	40.69	80.25	104.9	52.21	50.19	105.6	950.3	1208	70.74	20.88	17.69	16.73	14.65	14.13	13.24	12.73	12.40	11.91	11.74	11.78	11.86	11.76	11.47	11.24	11.57	11.03	10.02	9.121	8.525	7.646	7.248	6.604	6.378	5.978	5.440	5.108	4.703	4.397	4.136	3.731	3.359	3.117	2.836	2.754	2.881	3.730	2.947	2.084	1.674	1.520	1.518	1.355	1.371	1.406	1.576	1.285	0.964	0.971	0.954	1.258	1.654	4.574	22.62	85.98	153.2	93.74	11.79	0.699	0.489	0.434	0.451
575.0	39.61	48.01	47.75	40.68	33.34	33.64	30.00	46.36	104.4	66.29	46.51	56.47	259.3	1346	484.7	19.82	15.14	13.72	12.39	11.70	10.79	9.712	9.884	9.748	9.671	9.575	9.700	9.223	8.825	9.250	8.911	8.440	7.849	7.361	6.853	6.608	5.704	5.522	5.314	4.619	4.556	4.143	3.638	3.604	3.164	3.219	2.864	2.829	2.516	2.164	1.928	2.433	2.831	2.403	1.658	1.339	1.204	1.237	1.235	1.165	1.227	1.559	1.056	0.923	0.858	1.031	1.007	1.724	5.670	19.85	41.96	127.2	131.7	15.13	0.621	0.482	0.437
580.0	40.58	46.58	49.68	40.24	33.65	30.04	28.82	37.28	84.06	87.11	43.69	44.78	86.82	736.9	1002	42.10	13.49	11.62	10.22	9.547	9.076	8.221	8.445	8.513	7.976	8.473	7.858	7.733	7.887	7.614	7.813	6.941	6.690	6.213	5.730	5.413	4.999	4.591	4.319	4.065	3.507	3.674	3.426	3.023	2.813	2.788	2.512	2.326	2.089	1.765	1.605	1.794	2.355	2.393	1.905	1.353	1.275	1.189	1.096	1.075	0.981	1.267	1.343	0.996	0.861	0.783	0.849	1.004	1.902	5.110	10.09	42.22	151.3	104.7	7.426	0.577	0.386
585.0	43.39	48.07	44.49	39.92	29.51	25.18	26.65	31.21	56.65	104.6	49.61	41.15	48.10	247.8	1300	107.3	11.90	9.898	9.052	8.301	7.658	7.266	7.379	6.856	6.801	6.716	6.701	6.874	6.718	6.830	6.757	6.007	5.978	5.728	5.127	4.456	4.289	4.212	3.863	3.665	3.137	3.008	3.086	2.593	2.569	2.518	2.125	1.971	1.743	1.562	1.650	1.482	1.764	2.178	2.047	1.486	1.046	1.030	0.863	0.887	0.909	1.009	1.225	1.074	0.882	0.681	0.769	0.836	1.047	1.656	2.833	10.13	59.00	154.1	34.76	3.506	0.412
590.0	39.47	44.78	46.38	35.58	26.90	23.70	25.46	29.07	38.91	90.64	69.60	39.75	37.48	77.61	700.4	685.3	33.32	8.230	7.575	6.986	6.599	6.337	6.402	5.681	5.410	5.493	5.479	5.714	5.489	5.564	5.384	4.958	4.817	4.602	4.114	3.808	3.446	3.400	3.015	2.860	2.605	2.525	2.443	2.313	2.075	2.095	1.900	1.793	1.525	1.309	1.336	1.147	1.236	1.502	1.788	1.638	1.174	0.978	0.812	0.752	0.835	0.815	0.987	1.181	1.016	0.774	0.777	0.669	0.816	0.931	1.102	2.724	13.90	54.26	102.7	77.22	12.00
595.0	37.45	44.40	43.86	33.29	23.41	22.06	23.50	26.88	32.23	58.70	91.08	44.41	34.66	36.98	188.0	874.1	229.4	7.901	6.644	5.679	5.606	5.106	4.919	4.874	4.598	4.504	4.427	4.893	4.593	4.633	4.532	3.881	4.056	3.675	3.186	3.188	2.919	2.580	2.613	2.444	2.192	2.043	1.884	1.802	1.609	1.573	1.566	1.368	1.359	1.175	1.229	1.059	0.948	1.010	1.378	1.509	1.164	0.837	0.798	0.764	0.793	0.695	0.799	0.930	1.147	0.910	0.569	0.649	0.695	0.788	0.698	1.027	3.499	12.43	27.50	92.55	103.5
600.0	36.91	42.64	43.07	31.61	22.72	21.07	22.30	26.03	27.77	42.56	90.49	53.81	33.62	27.36	56.35	523.2	580.3	16.05	5.585	4.794	4.457	4.679	4.374	4.177	3.907	3.904	3.556	3.971	3.783	3.805	3.618	3.605	3.352	2.967	2.701	2.792	2.419	2.459	2.086	2.168	1.832	1.747	1.753	1.571	1.439	1.319	1.358	1.221	1.126	1.101	0.978	0.848	0.896	0.908	0.962	1.284	1.348	0.906	0.731	0.700	0.680	0.604	0.618	0.801	0.848	0.961	0.662	0.605	0.560	0.670	0.633	0.581	1.145	3.147	6.519	29.66	111.2
605.0	31.28	42.71	44.04	31.42	21.94	20.84	23.56	25.47	27.76	36.49	73.71	69.12	34.25	26.19	26.26	182.8	778.7	66.51	5.075	4.810	3.892	3.944	3.696	3.831	3.736	3.329	3.507	3.635	3.328	3.225	3.185	3.230	2.631	2.988	2.332	2.155	2.158	2.104	1.877	1.746	1.768	1.441	1.426	1.416	1.259	1.265	1.211	1.175	1.013	0.925	0.865	0.863	0.790	0.768	0.796	0.869	1.182	1.010	0.744	0.650	0.647	0.575	0.673	0.670	0.651	0.923	0.895	0.571	0.614	0.565	0.556	0.524	0.646	1.020	1.782	6.996	40.62
610.0	34.82	36.78	37.82	27.52	22.42	20.47	22.16	24.13	26.89	33.54	54.56	78.03	42.50	26.45	19.78	51.73	480.9	405.6	13.84	3.948	3.316	3.386	3.039	3.293	3.108	2.701	3.023	2.910	2.641	2.616	2.539	2.568	2.348	2.322	2.000	1.901	1.962	1.797	1.570	1.472	1.376	1.296	1.177	1.138	1.068	1.104	0.992	1.004	0.860	0.813	0.722	0.744	0.705	0.673	0.691	0.670	0.960	0.990	0.777	0.723	0.556	0.588	0.567	0.599	0.635	0.672	0.889	0.712	0.607	0.613	0.520	0.518	0.566	0.663	0.721	1.870	9.541
615.0	37.64	37.10	33.28	28.00	22.84	19.17	21.01	22.40	26.27	33.61	40.76	71.43	56.22	27.37	18.03	20.53	132.7	578.0	71.91	3.395	2.991	2.681	2.617	2.707	2.477	2.351	2.311	2.241	2.055	2.380	2.143	2.120	1.736	1.731	1.729	1.687	1.658	1.471	1.390	1.296	1.124	1.133	0.976	0.992	0.928	0.933	0.900	0.842	0.768	0.694	0.585	0.705	0.597	0.550	0.601	0.591	0.627	0.816	0.884	0.646	0.589	0.511	0.524	0.599	0.589	0.571	0.531	0.747	0.671	0.596	0.552	0.542	0.474	0.567	0.452	0.685	2.497
620.0	31.37	32.19	31.64	26.40	23.56	19.57	20.54	21.79	25.58	30.05	34.55	56.50	65.89	29.21	18.24	13.70	37.01	395.1	324.6	6.629	2.739	2.529	2.389	2.289	2.123	2.094	1.990	1.727	1.892	1.850	2.122	1.722	1.736	1.699	1.505	1.540	1.191	1.254	1.227	1.183	1.047	0.936	0.970	0.863	0.781	0.917	0.789	0.685	0.553	0.650	0.520	0.536	0.530	0.531	0.643	0.471	0.476	0.619	0.877	0.727	0.653	0.559	0.509	0.546	0.521	0.512	0.504	0.654	0.798	0.616	0.541	0.512	0.479	0.438	0.413	0.467	0.882
625.0	33.76	36.19	33.72	23.44	20.76	19.07	18.43	22.47	25.28	28.31	36.16	45.24	68.03	32.55	17.70	12.05	14.41	152.1	517.5	33.73	2.693	2.218	1.972	2.010	1.916	1.858	1.829	1.704	1.648	1.698	1.770	1.484	1.430	1.430	1.384	1.185	1.310	1.083	1.074	1.072	0.957	0.877	0.860	0.786	0.710	0.697	0.676	0.637	0.524	0.497	0.489	0.522	0.539	0.503	0.489	0.414	0.452	0.546	0.738	0.709	0.652	0.526	0.438	0.487	0.468	0.489	0.531	0.490	0.714	0.705	0.606	0.497	0.390	0.461	0.436	0.392	0.540
630.0	30.91	28.49	30.38	23.40	21.44	17.88	19.11	20.58	23.62	29.98	33.71	37.58	56.18	43.65	17.73	11.17	9.372	41.35	362.1	241.1	6.057	1.957	1.715	1.627	1.542	1.546	1.507	1.559	1.310	1.355	1.376	1.311	1.246	1.127	1.206	1.092	1.074	0.947	0.925	0.861	0.761	0.763	0.719	0.694	0.710	0.566	0.633	0.548	0.547	0.459	0.439	0.465	0.450	0.491	0.425	0.443	0.454	0.463	0.535	0.605	0.655	0.548	0.401	0.449	0.463	0.506	0.465	0.468	0.542	0.631	0.697	0.509	0.402	0.430	0.392	0.367	0.351
635.0	25.56	30.78	28.78	21.31	20.09	17.62	18.89	20.15	25.10	29.10	31.89	34.79	39.72	50.22	22.96	11.77	8.513	13.80	107.1	416.3	48.00	1.913	1.712	1.557	1.347	1.290	1.406	1.358	1.140	1.081	1.169	1.070	1.169	1.036	1.041	0.918	0.858	0.881	0.794	0.777	0.644	0.643	0.676	0.656	0.568	0.523	0.519	0.530	0.448	0.420	0.407	0.416	0.409	0.374	0.350	0.384	0.469	0.438	0.441	0.504	0.529	0.577	0.447	0.431	0.419	0.377	0.529	0.422	0.513	0.580	0.609	0.579	0.450	0.404	0.347	0.373	0.409
640.0	31.25	30.22	30.77	21.66	19.34	18.52	19.56	21.82	23.68	26.47	29.82	33.58	33.92	47.70	28.84	12.71	8.837	8.839	28.89	320.5	201.2	2.927	1.467	1.399	1.374	1.211	1.170	1.152	1.133	1.054	1.138	0.878	0.873	0.925	0.879	0.828	0.782	0.765	0.731	0.658	0.739	0.607	0.696	0.587	0.478	0.530	0.477	0.468	0.475	0.381	0.350	0.378	0.355	0.330	0.384	0.386	0.409	0.410	0.454	0.456	0.511	0.565	0.483	0.456	0.462	0.370	0.525	0.465	0.426	0.549	0.545	0.525	0.546	0.406	0.345	0.386	0.371
645.0	29.46	30.58	28.59	21.75	19.93	17.26	18.86	19.37	22.67	25.69	28.58	33.00	31.76	39.83	33.90	13.72	10.18	7.531	10.49	140.0	359.9	16.65	1.499	1.318	1.225	1.183	1.023	0.952	1.138	0.920	1.084	0.821	0.930	0.907	0.812	0.698	0.768	0.615	0.592	0.631	0.592	0.519	0.568	0.504	0.406	0.502	0.393	0.498	0.450	0.351	0.348	0.378	0.315	0.327	0.392	0.398	0.393	0.361	0.414	0.385	0.449	0.572	0.460	0.502	0.422	0.432	0.431	0.447	0.459	0.471	0.508	0.501	0.595	0.621	0.425	0.426	0.357
650.0	23.90	26.32	32.86	22.98	20.15	17.62	18.17	19.51	20.40	24.71	28.71	31.56	31.95	32.16	39.05	16.39	10.03	7.228	6.444	40.62	364.7	61.38	1.667	1.277	1.068	1.130	0.974	0.937	0.958	0.894	0.924	0.856	0.881	0.846	0.897	0.685	0.762	0.615	0.568	0.639	0.519	0.492	0.495	0.471	0.413	0.450	0.392	0.423	0.390	0.340	0.355	0.384	0.345	0.275	0.384	0.360	0.397	0.404	0.357	0.377	0.459	0.489	0.495	0.410	0.443	0.426	0.414	0.346	0.405	0.425	0.507	0.437	0.572	0.529	0.427	0.356	0.445
