Sample:	'1
File name:	w111201Œ‘¿«πµ»Î50√◊¥Ûπµ.FD3
Run date:	'14:37:37, 11/12/2024
Operator:	Administrator
Comment:	'

Instrument
Model:	F-2700 FL Spectrophotometer
Serial number:	23B8-004
ROM Version:	4J14000 07

Instrument parameters
Measurement type:	3-D scan
Data mode:	Fluorescence
EX  Start WL:	220.0 nm
EX  End WL:	600.0 nm
EX Sampling interval:	5.0 nm
EM  Start WL:	230.0 nm
EM  End WL:	650.0 nm
EM Sampling interval:	5.0 nm
Scan speed:	12000 nm/min
EX Slit:	5.0 nm
EM Slit:	5.0 nm
PMT Voltage:	700 V
Response:	Auto 
Corrected spectra:	Off
Contour interval:	50.000

Peak integration
Integration method:	Rectangular
Sensitivity:	1
Threshold:	1.000

Peaks
No.	ApexEX/EM(nm)	Height(Data)
1	230.0/345.0	8706
2	235.0/350.0	8431
3	270.0/595.0	452.4
4	275.0/340.0	9366
5	475.0/350.0	25.70
6	560.0/340.0	40.05
7	565.0/345.0	40.47

Data points
	220.0	225.0	230.0	235.0	240.0	245.0	250.0	255.0	260.0	265.0	270.0	275.0	280.0	285.0	290.0	295.0	300.0	305.0	310.0	315.0	320.0	325.0	330.0	335.0	340.0	345.0	350.0	355.0	360.0	365.0	370.0	375.0	380.0	385.0	390.0	395.0	400.0	405.0	410.0	415.0	420.0	425.0	430.0	435.0	440.0	445.0	450.0	455.0	460.0	465.0	470.0	475.0	480.0	485.0	490.0	495.0	500.0	505.0	510.0	515.0	520.0	525.0	530.0	535.0	540.0	545.0	550.0	555.0	560.0	565.0	570.0	575.0	580.0	585.0	590.0	595.0	600.0
230.0	56.24	1498	3223	872.7	66.10	14.50	13.36	12.04	11.23	10.43	11.20	10.81	9.662	8.843	7.604	6.540	5.894	5.578	4.985	4.789	4.435	4.051	3.726	3.359	3.291	3.032	2.920	2.530	2.456	2.361	2.085	2.214	1.933	1.852	1.667	1.482	1.281	1.251	1.142	1.118	1.020	0.962	0.923	0.943	0.906	0.866	2.310	7.804	12.30	8.675	3.527	1.141	0.638	0.620	0.556	0.588	0.572	0.552	0.534	0.544	0.495	0.466	0.460	0.444	0.460	0.490	0.448	0.430	0.466	0.392	0.384	0.399	0.364	0.370	0.397	0.370	0.398
235.0	57.07	430.2	3049	5503	640.4	118.9	16.85	14.02	13.11	12.46	11.83	12.30	9.583	9.804	7.878	6.828	6.257	6.090	5.066	4.875	4.425	4.255	4.019	3.334	3.200	3.216	3.093	2.586	2.551	2.209	2.256	2.132	2.148	1.966	1.638	1.541	1.357	1.351	1.138	1.182	1.134	1.056	0.977	1.050	0.901	0.848	1.134	2.594	6.375	13.39	20.43	19.12	8.842	2.223	0.727	0.571	0.638	0.587	0.502	0.571	0.511	0.553	0.423	0.489	0.461	0.465	0.465	0.507	0.433	0.388	0.425	0.407	0.386	0.389	0.373	0.387	0.365
240.0	62.66	145.3	1017	6294	5018	533.9	74.64	18.24	15.51	13.26	14.23	12.29	10.19	10.16	8.698	7.443	6.256	6.105	5.275	4.988	4.433	4.161	4.047	3.705	3.305	3.112	3.192	2.724	2.631	2.329	2.418	2.190	2.085	1.803	1.752	1.447	1.350	1.316	1.247	1.119	1.008	1.029	1.034	0.996	0.944	0.908	0.965	1.339	1.941	4.813	14.46	35.21	26.91	20.66	8.420	1.387	0.720	0.695	0.585	0.589	0.493	0.549	0.498	0.495	0.518	0.451	0.490	0.501	0.487	0.463	0.407	0.374	0.392	0.373	0.456	0.389	0.441
245.0	64.44	93.51	275.4	2426	9999.9	8889	430.9	33.94	19.91	16.09	16.14	13.66	12.21	11.15	8.647	7.800	6.647	6.312	5.529	5.280	4.622	4.274	4.246	3.515	3.521	3.491	3.104	2.866	2.605	2.450	2.395	2.046	2.169	1.893	1.709	1.540	1.468	1.330	1.244	1.100	1.103	1.035	1.055	0.990	0.820	0.882	0.890	1.015	1.099	1.626	3.910	13.57	33.99	59.74	54.65	18.67	5.675	0.925	0.576	0.595	0.629	0.589	0.558	0.572	0.525	0.490	0.498	0.492	0.483	0.426	0.423	0.475	0.450	0.375	0.498	0.464	0.398
250.0	65.31	78.08	145.9	606.8	3603	9999.9	9999.9	4086	118.3	24.19	21.49	17.52	14.96	12.81	9.930	8.641	7.588	6.911	6.117	5.843	4.741	4.521	4.445	3.898	3.567	3.429	3.403	3.044	3.010	2.621	2.479	2.062	2.095	1.975	1.737	1.528	1.543	1.414	1.336	1.294	1.166	1.037	1.084	1.118	0.972	0.902	0.921	0.968	0.916	1.058	1.456	3.652	8.817	21.74	41.03	61.31	59.74	59.19	14.68	6.312	0.985	0.678	0.600	0.572	0.606	0.539	0.537	0.492	0.547	0.474	0.496	0.475	0.467	0.461	0.446	0.404	0.407
255.0	69.40	57.25	110.3	259.9	867.5	2693	9999.9	9999.9	2219	134.6	29.06	23.53	17.96	15.22	12.19	10.07	8.054	7.453	6.889	6.154	5.609	5.540	4.334	4.226	3.910	3.850	3.431	3.130	3.306	2.858	2.810	2.419	2.130	2.047	1.692	1.695	1.576	1.481	1.509	1.313	1.093	1.174	1.093	1.070	1.049	0.902	0.988	0.909	0.800	0.874	1.190	1.669	2.672	5.537	9.870	15.59	31.04	83.05	127.8	111.1	23.10	7.184	0.934	0.663	0.693	0.572	0.561	0.541	0.552	0.503	0.500	0.551	0.471	0.468	0.501	0.460	0.392
260.0	70.54	58.62	70.15	170.7	322.0	663.2	3498	9999.9	9999.9	1758	84.05	31.38	24.33	18.40	14.03	11.17	9.675	8.435	7.428	6.112	6.264	5.486	4.969	4.422	4.066	3.902	3.771	3.503	3.343	3.034	2.921	2.365	2.204	2.142	1.812	1.686	1.536	1.425	1.355	1.324	1.163	1.243	1.073	1.047	1.001	1.029	0.890	0.941	0.798	0.786	0.913	1.503	1.648	2.132	2.852	4.149	7.743	23.78	65.97	136.3	160.3	30.75	19.21	3.672	0.839	0.693	0.760	0.636	0.632	0.514	0.536	0.544	0.471	0.506	0.594	0.443	0.413
265.0	79.09	62.91	62.59	96.73	240.2	265.8	856.6	5328	9999.9	9999.9	1262	50.87	31.07	22.70	16.31	12.57	11.08	9.328	7.976	6.389	6.501	5.522	5.117	4.584	4.389	4.043	3.735	3.745	3.289	3.192	3.071	2.730	2.447	2.277	2.011	1.879	1.694	1.466	1.382	1.357	1.350	1.232	1.299	1.177	1.137	1.115	1.029	0.906	0.859	0.885	0.748	1.050	1.660	1.768	1.693	1.595	2.501	6.207	16.27	43.45	103.8	167.8	189.0	29.31	13.60	1.512	0.836	0.804	0.788	0.710	0.612	0.531	0.557	0.568	0.594	0.443	0.449
270.0	118.7	92.52	77.86	74.93	148.7	262.4	357.2	1333	5909	9999.9	9999.9	4924	90.75	34.38	22.76	16.93	13.23	11.14	9.389	7.940	7.389	6.536	5.829	5.100	4.674	4.325	4.066	3.846	3.540	3.407	3.289	2.995	2.793	2.430	2.128	1.866	1.820	1.721	1.461	1.497	1.484	1.353	1.371	1.400	1.264	1.205	1.101	1.005	0.975	0.871	0.835	0.971	1.185	1.320	1.648	1.901	1.809	2.393	4.565	10.67	25.34	53.03	107.6	147.6	187.9	128.6	82.74	10.32	2.007	0.950	0.749	0.689	0.667	0.595	0.717	0.577	0.640
275.0	231.6	236.6	207.8	161.2	179.8	261.3	467.0	595.4	1591	3603	9999.9	9999.9	6628	98.18	36.80	24.51	18.90	14.98	12.32	9.585	8.680	7.332	6.950	5.547	5.308	4.832	4.571	4.607	3.881	3.744	3.581	3.263	2.918	2.922	2.451	2.176	2.234	1.879	1.794	1.624	1.584	1.538	1.542	1.636	1.578	1.416	1.467	1.421	1.357	1.107	1.100	1.227	1.311	1.358	1.478	1.731	2.645	3.186	3.101	4.010	7.400	13.65	26.29	36.29	63.40	138.1	276.3	229.8	30.02	14.56	1.823	1.096	0.922	0.773	0.877	0.762	0.720
280.0	415.1	442.8	440.0	411.2	449.4	502.8	712.0	919.6	1127	1765	5711	9999.9	9999.9	1021	71.94	34.88	24.48	18.79	14.40	11.80	9.895	8.643	7.889	6.346	5.755	5.721	4.895	4.676	4.173	3.955	4.085	3.581	3.182	3.078	2.845	2.570	2.400	2.148	1.977	1.991	1.840	1.788	1.674	1.882	1.903	1.835	2.089	1.929	1.877	1.599	1.542	2.201	2.208	2.362	2.373	2.545	3.102	3.857	4.497	4.668	5.152	6.644	10.05	12.74	19.24	39.60	107.5	230.3	323.7	216.9	26.32	9.176	1.448	0.944	1.054	0.803	0.876
285.0	619.5	763.2	779.0	729.1	713.7	858.3	981.5	1272	1579	1903	3108	9292	9999.9	9999.9	709.9	54.33	33.36	24.83	18.54	13.97	11.54	9.755	8.323	7.397	6.557	6.106	5.327	4.987	4.529	4.087	4.177	3.738	3.327	3.483	3.310	2.856	2.614	2.438	2.339	1.906	2.097	2.145	2.055	2.109	2.312	2.430	2.513	2.776	2.715	2.443	2.423	2.994	3.255	3.391	3.666	3.729	4.407	4.460	5.011	6.365	7.155	7.278	8.381	9.845	11.90	17.27	31.87	67.54	159.1	306.3	358.9	184.7	21.16	3.591	1.357	1.174	0.923
290.0	923.1	1233	1354	1193	1266	1429	1518	1709	2327	2968	3566	4832	9616	9999.9	9999.9	2886	65.96	36.69	25.65	18.51	14.92	11.85	10.58	8.429	7.321	6.848	6.529	5.716	5.553	4.833	4.347	3.966	3.647	3.762	3.743	3.275	3.225	2.971	2.704	2.373	2.356	2.306	2.366	2.496	2.783	3.201	3.232	3.987	3.963	3.832	3.619	4.561	4.801	5.212	5.609	5.826	6.627	6.728	7.047	7.872	8.933	10.69	12.33	13.43	14.57	16.50	19.03	26.44	47.79	87.33	156.1	236.0	240.0	214.3	124.6	14.48	4.866
295.0	1133	1648	1887	1793	1835	2057	2230	2405	3036	4054	4808	4744	4673	4446	9999.9	9999.9	4047	72.14	38.68	26.62	19.10	15.32	13.08	10.67	8.861	7.806	7.330	6.285	6.017	5.669	4.832	4.616	3.938	4.098	3.911	3.719	3.734	3.390	3.187	2.740	2.506	2.611	2.542	2.725	3.326	3.750	4.118	4.922	5.124	5.146	5.013	6.262	6.689	7.332	7.853	8.156	9.478	9.256	9.860	10.51	11.44	12.90	16.29	17.99	20.12	20.89	20.10	21.58	26.47	30.93	43.08	58.61	67.87	143.4	343.3	417.5	205.2
300.0	1270	1902	2201	2195	2263	2621	2941	3165	3905	4850	5903	5482	4160	2585	5437	9999.9	9999.9	598.3	61.99	36.54	25.87	19.22	15.43	12.67	10.47	8.950	8.439	7.188	6.492	5.964	5.424	5.221	4.520	4.227	4.124	3.873	3.764	3.672	3.305	3.171	2.852	2.710	2.792	3.087	3.368	4.032	4.714	5.668	5.743	6.007	5.870	7.344	7.981	8.826	9.557	10.88	11.56	12.05	13.10	13.84	14.87	16.47	18.89	20.78	23.77	25.74	24.54	23.75	24.21	21.03	20.27	21.72	21.21	37.99	105.6	249.5	425.1
305.0	1410	2084	2450	2478	2642	3140	3637	4088	4786	5655	6567	6412	4618	2664	2357	8482	9999.9	9999.9	453.4	51.27	34.38	23.78	19.21	15.53	12.73	10.66	9.340	7.453	7.200	6.472	5.833	5.453	4.935	4.558	4.647	3.881	3.863	3.903	3.675	3.250	3.245	3.112	3.079	3.245	3.693	4.525	5.144	6.150	6.607	6.639	6.868	8.364	9.380	9.893	11.51	12.86	13.92	15.11	15.95	17.47	18.27	20.15	22.16	23.98	26.17	28.37	27.44	26.41	26.41	20.81	18.25	15.33	12.75	15.36	28.96	63.99	152.6
310.0	1419	2093	2536	2620	2924	3495	4173	4773	5470	6222	6828	6732	5328	3232	2080	2916	8623	9999.9	9999.9	2177	57.34	35.97	26.31	19.29	15.22	12.83	11.30	9.095	8.584	7.375	6.643	6.016	5.424	5.226	4.823	4.361	4.028	3.891	3.701	3.449	3.530	3.311	3.145	3.395	3.862	4.592	4.979	6.589	6.782	6.894	7.444	9.120	10.09	11.04	12.56	14.24	16.31	17.44	18.53	20.09	21.31	22.97	24.88	26.48	28.24	29.32	28.78	28.26	28.44	24.12	20.00	16.70	13.45	12.01	13.75	20.21	39.86
315.0	1566	2272	2696	2794	3101	3750	4435	5131	5798	6486	6975	6785	5670	4068	2519	1970	2797	3581	9999.9	9999.9	3265	62.38	40.21	26.35	19.54	15.10	13.53	11.22	9.930	8.513	7.873	7.113	5.810	5.635	5.243	4.498	4.346	3.962	4.036	3.686	3.715	3.439	3.403	3.640	3.940	4.872	5.415	6.809	7.070	7.197	7.796	9.788	10.73	12.07	13.45	15.20	16.83	18.73	20.14	21.44	22.98	24.33	26.56	27.42	28.44	29.65	29.03	28.88	28.25	25.54	23.41	20.37	16.52	14.11	12.41	12.05	15.97
320.0	1907	2927	3437	3213	3356	3871	4607	5357	6029	6714	7251	7126	6169	4833	3311	2194	1812	1525	4687	9999.9	9999.9	469.0	60.85	37.18	25.22	18.73	15.65	12.70	10.93	9.387	8.270	7.450	6.276	5.826	5.177	4.849	4.623	4.323	3.970	3.982	3.847	3.650	3.901	4.134	4.849	5.940	6.906	8.589	8.774	8.701	9.018	10.69	11.37	12.29	13.96	15.87	17.87	19.89	21.09	21.69	24.20	24.91	26.99	28.38	29.85	30.15	29.64	29.84	29.71	27.22	25.15	24.03	21.17	18.32	14.66	13.24	13.25
325.0	2396	4113	4696	4100	3743	4068	4725	5533	6250	7042	7683	7721	6876	5622	4262	2866	1995	1395	1765	7193	9999.9	9999.9	401.9	56.50	34.61	23.83	18.64	14.71	12.28	10.58	9.185	8.201	6.923	6.248	5.293	5.270	4.781	4.732	4.282	4.214	3.713	4.084	4.326	4.604	5.554	7.344	8.910	11.94	11.83	11.06	10.69	12.43	12.51	13.62	14.49	16.06	18.77	20.49	22.14	22.73	24.90	26.40	27.93	29.40	30.92	31.74	32.31	32.50	32.36	31.08	28.21	26.69	25.07	23.20	19.49	16.83	15.21
330.0	3152	5405	6458	5619	4651	4491	5011	5775	6579	7475	8292	8524	7857	6742	5178	3830	2731	1968	1700	2695	7801	9999.9	9999.9	8365	131.4	36.87	25.84	18.45	15.95	12.79	11.17	9.216	7.940	7.401	6.192	5.436	5.249	5.056	4.522	4.380	4.113	4.307	4.763	5.381	6.983	9.505	11.31	15.10	16.14	15.12	14.62	16.65	15.90	15.92	16.12	16.97	19.38	20.97	22.50	24.17	26.25	28.11	30.50	31.14	33.24	34.49	35.29	35.36	36.25	35.11	33.22	32.15	29.64	27.20	24.29	22.30	20.44
335.0	3737	6375	7730	6907	5597	5018	5338	5992	6831	7785	8702	9136	8673	7731	6047	4592	3585	2705	2237	2160	3122	4043	9999.9	9999.9	3048	57.30	38.89	27.05	20.87	15.59	12.54	10.38	9.369	8.300	6.903	6.064	5.859	5.291	5.027	4.617	4.492	4.677	5.150	5.798	8.094	10.97	13.35	17.57	19.16	18.52	18.41	20.57	19.59	18.58	17.51	18.42	20.63	22.63	23.50	25.20	26.68	28.98	31.60	33.88	34.85	36.97	38.06	38.16	38.44	38.17	37.45	36.79	34.47	31.88	28.78	25.91	24.75
340.0	3870	6726	8392	7821	6265	5476	5584	6195	6938	7847	8804	9366	9078	8234	6641	5092	4065	3305	2697	2325	2314	2280	4669	9999.9	9999.9	2505	55.20	34.86	25.59	18.82	15.15	12.41	10.26	8.719	7.615	6.405	6.430	5.544	5.235	4.691	4.675	5.226	5.376	6.255	8.534	11.66	13.74	18.40	20.56	20.47	20.55	23.12	21.95	20.61	19.88	19.95	21.69	22.47	25.02	25.92	27.04	29.64	31.73	33.54	35.42	36.34	38.35	38.45	40.05	39.32	39.87	39.35	37.90	34.57	31.31	28.56	26.77
345.0	3932	6873	8706	8356	6833	5883	5807	6311	6984	7797	8717	9344	9199	8498	6987	5457	4393	3752	3174	2666	2399	2116	2004	6300	9999.9	9999.9	374.2	49.10	32.55	23.66	17.37	14.68	11.05	9.583	8.262	6.746	6.331	5.729	5.406	4.790	4.870	4.992	5.760	6.448	8.395	11.22	14.17	18.37	21.19	21.15	21.51	24.49	23.34	22.24	20.99	20.89	22.57	23.42	25.04	26.46	27.60	29.49	32.07	33.24	35.30	36.29	38.68	39.13	40.00	40.47	40.40	40.37	39.55	36.87	32.90	31.56	29.22
350.0	3666	6492	8398	8431	7234	6306	6090	6409	6887	7522	8346	8977	8931	8417	7092	5723	4724	4071	3668	3138	2719	2343	1618	2035	6308	9999.9	9999.9	8848	135.9	32.89	23.22	17.37	13.01	10.98	8.998	7.213	6.644	6.077	5.645	5.238	5.033	5.076	5.529	6.344	8.163	10.82	13.49	17.95	20.52	20.41	21.57	25.70	24.36	23.91	22.49	22.38	23.84	24.65	25.59	26.52	27.55	28.51	30.81	31.68	33.41	34.67	36.40	37.57	38.06	39.16	39.56	39.86	38.91	37.02	33.84	32.61	30.28
355.0	3285	5729	7678	8128	7305	6435	6200	6321	6617	7111	7822	8384	8454	8056	6995	5838	4946	4331	3877	3485	3019	2525	1710	1228	1854	2865	9999.9	9999.9	2995	53.19	33.55	23.73	16.37	12.99	10.34	8.088	7.429	6.344	5.951	5.353	5.235	5.284	5.303	6.356	7.551	9.763	12.42	16.19	19.08	19.21	20.76	25.18	24.11	24.65	22.97	22.93	24.28	25.16	25.88	26.12	26.34	27.89	29.28	30.42	31.44	32.41	34.24	35.40	36.37	36.86	36.93	38.22	37.68	36.27	33.66	32.89	31.23
360.0	3018	5181	7071	7728	7249	6451	6141	6188	6390	6804	7360	7904	7952	7683	6842	5838	5046	4454	4013	3623	3244	2691	1844	1177	957.1	974.9	3384	9999.9	9999.9	2711	49.46	31.03	20.87	15.19	11.94	9.026	8.289	7.092	6.472	5.571	5.284	5.254	5.065	6.022	7.432	9.279	11.72	15.01	17.68	18.26	19.61	24.25	23.64	23.98	23.23	22.60	24.05	24.82	24.78	25.19	25.87	26.55	27.95	28.63	29.72	30.71	32.13	33.00	33.15	34.91	35.81	36.16	36.14	35.27	33.30	31.95	31.64
365.0	2731	4632	6521	7352	7087	6378	6044	6056	6149	6453	6950	7410	7518	7323	6607	5747	5069	4530	4120	3703	3355	2868	2004	1289	866.0	632.7	1027	4534	9999.9	9999.9	2199	45.93	27.49	19.69	13.88	10.61	8.933	7.609	6.660	5.958	5.548	5.453	4.886	5.832	6.890	8.461	10.45	14.05	16.38	17.19	18.70	23.21	22.93	23.69	22.45	22.35	23.43	24.19	24.01	24.23	25.35	25.75	26.79	27.08	28.22	28.79	30.43	31.08	31.09	33.21	34.20	34.57	34.81	34.25	32.38	32.53	31.27
370.0	2395	4083	5787	6722	6728	6160	5827	5779	5845	6023	6427	6808	6884	6754	6213	5520	4978	4535	4156	3785	3390	2987	2269	1533	1021	695.0	597.4	1265	5004	9999.9	9999.9	9358	142.4	28.90	19.26	13.44	10.77	8.696	7.388	6.744	5.833	5.584	5.522	5.765	6.708	8.071	9.441	12.37	14.82	15.25	17.02	21.72	22.25	22.84	21.77	21.61	22.94	23.14	22.99	23.45	24.08	24.28	25.10	25.84	26.03	27.00	28.16	29.02	28.95	30.79	31.49	31.87	32.51	31.95	31.44	30.55	30.62
375.0	2033	3475	5062	6069	6230	5816	5503	5421	5441	5559	5866	6168	6220	6143	5721	5208	4779	4432	4116	3765	3403	2999	2435	1805	1239	868.6	628.3	623.0	1352	2641	9999.9	9999.9	9999.9	45.19	28.89	18.49	13.52	10.78	8.634	7.060	6.228	5.612	5.695	5.493	6.310	7.579	8.513	11.31	13.02	13.75	15.40	19.74	20.78	21.71	20.99	20.83	22.04	22.27	21.94	22.12	22.70	22.33	23.51	24.21	23.96	25.12	25.50	26.17	26.10	27.75	28.35	29.57	29.24	29.94	29.07	28.84	29.55
380.0	1823	3050	4548	5622	5847	5516	5275	5136	5087	5199	5455	5694	5751	5689	5346	4917	4585	4302	4027	3708	3370	2990	2469	1962	1412	1006	732.3	562.7	603.3	809.9	3064	9999.9	9999.9	2392	42.11	24.58	17.14	12.81	9.613	7.743	6.446	6.094	5.724	5.788	6.205	7.288	8.309	10.24	11.94	12.39	13.76	18.71	19.07	20.77	19.56	19.34	20.51	20.42	21.28	20.89	21.52	21.07	22.07	22.75	22.85	22.95	24.09	23.83	25.20	25.74	25.98	27.13	27.58	27.64	27.26	27.22	28.14
385.0	1614	2808	4167	5173	5503	5247	5013	4874	4794	4849	5088	5272	5345	5297	5013	4664	4375	4149	3908	3643	3331	2962	2493	2040	1582	1154	861.0	647.6	525.8	467.9	899.6	3934	9999.9	9999.9	1967	36.88	22.11	15.58	11.30	8.664	7.369	6.423	5.955	5.894	6.032	6.730	7.728	9.608	11.02	11.57	12.96	17.45	18.36	19.05	18.71	19.46	20.00	19.83	19.94	19.97	19.69	20.22	20.72	20.90	21.04	21.61	22.27	22.47	23.56	24.46	24.58	25.54	25.87	26.34	25.24	25.63	26.47
390.0	1489	2477	3688	4655	5056	4904	4714	4569	4469	4496	4689	4811	4852	4825	4606	4328	4109	3924	3731	3530	3263	2955	2572	2154	1770	1426	1099	858.7	684.5	534.3	516.7	1120	3954	9999.9	9999.9	7695	124.6	22.88	14.94	11.25	8.588	7.317	6.511	6.052	6.141	6.668	7.107	8.866	10.02	10.53	12.08	15.86	16.62	17.88	17.51	18.00	19.02	18.72	18.98	18.90	18.41	18.92	19.34	19.44	19.57	20.01	20.26	20.57	21.29	21.72	22.64	23.04	23.91	23.72	23.74	24.13	24.60
395.0	1345	2180	3307	4205	4652	4629	4478	4279	4203	4151	4299	4412	4402	4398	4208	3992	3831	3686	3548	3392	3191	2952	2662	2321	1971	1704	1428	1144	932.2	750.8	600.5	583.0	1124	2530	9999.9	9999.9	9999.9	38.63	22.19	14.81	11.21	8.239	7.474	6.498	6.221	6.810	6.842	8.400	9.495	9.842	11.04	14.47	15.38	16.36	16.64	17.13	17.72	17.58	17.87	17.85	17.44	18.00	17.46	17.70	18.36	18.37	18.91	19.02	19.41	19.80	20.53	21.40	21.45	21.83	22.41	22.25	23.09
400.0	1203	2007	3023	3904	4381	4437	4319	4116	3985	3936	4038	4131	4124	4107	3956	3759	3618	3506	3401	3284	3119	2943	2706	2424	2118	1850	1642	1373	1126	918.4	716.2	558.2	549.8	769.5	2749	9999.9	9999.9	2124	35.04	18.93	13.28	9.584	8.267	7.029	6.362	6.692	6.946	7.961	8.825	9.168	10.43	13.82	15.16	15.70	15.95	16.09	17.09	16.89	17.14	16.86	16.91	17.28	16.74	16.96	17.35	17.51	17.10	17.97	18.20	18.48	19.00	19.62	20.63	20.95	20.68	21.07	21.92
405.0	1152	1883	2828	3673	4142	4252	4175	3982	3799	3760	3833	3901	3891	3857	3739	3549	3424	3340	3239	3163	3036	2887	2704	2480	2210	1962	1757	1553	1294	1052	830.0	619.8	475.2	413.4	776.6	3244	9999.9	9999.9	1782	30.48	16.23	11.86	9.120	7.489	6.716	6.874	7.042	7.858	8.601	8.914	10.15	13.42	14.30	14.70	15.07	15.75	17.07	16.90	16.76	16.07	16.20	16.32	16.15	16.11	16.29	16.71	15.85	16.51	16.89	18.02	18.16	18.59	19.60	19.81	19.31	19.57	20.10
410.0	1064	1740	2594	3378	3859	3994	3998	3799	3621	3560	3590	3638	3610	3576	3449	3275	3172	3105	3028	2969	2888	2796	2666	2491	2273	2068	1864	1687	1481	1219	959.0	720.2	530.5	389.6	369.9	854.9	3277	9999.9	9999.9	7202	113.1	16.82	11.67	9.066	7.545	7.271	6.896	7.807	8.285	8.550	9.679	12.39	13.71	14.10	14.40	15.07	16.19	15.82	15.97	15.62	15.45	15.55	14.97	15.44	15.43	15.37	15.16	15.35	15.69	16.35	16.59	17.28	17.49	18.42	18.10	18.05	18.95
415.0	990.1	1584	2363	3095	3592	3735	3812	3644	3415	3353	3350	3351	3339	3296	3156	3013	2902	2855	2797	2754	2723	2665	2587	2473	2308	2137	1961	1777	1600	1388	1087	823.8	609.3	438.7	320.9	345.9	835.7	2382	9303	9999.9	9999.9	34.59	16.52	11.28	9.113	7.626	7.266	7.774	8.116	8.151	8.911	11.61	12.96	13.71	13.63	13.84	15.65	15.24	15.35	14.62	14.70	15.10	14.84	14.57	14.98	14.18	14.30	13.92	14.93	15.40	15.15	16.13	16.22	16.84	16.45	16.91	17.13
420.0	888.3	1453	2258	2937	3425	3558	3670	3505	3310	3181	3186	3173	3133	3081	2937	2801	2704	2666	2635	2605	2599	2564	2523	2437	2308	2185	2016	1843	1658	1471	1189	896.9	662.8	480.2	335.5	252.9	305.7	615.5	2374	9999.9	9999.9	1955	30.22	14.85	10.91	8.685	7.937	7.753	7.910	8.042	8.296	11.25	12.13	12.90	13.16	13.52	15.18	14.80	14.98	14.58	14.29	13.90	14.02	13.96	14.04	13.53	13.53	13.27	14.38	13.98	14.74	14.94	15.39	15.28	15.45	15.72	16.09
425.0	846.8	1393	2116	2786	3224	3442	3514	3391	3186	3064	3031	3016	2974	2889	2770	2625	2549	2505	2481	2459	2470	2460	2455	2401	2300	2191	2043	1876	1700	1504	1262	960.4	707.4	520.4	364.6	253.1	201.7	232.1	601.3	2862	9999.9	9999.9	1622	25.15	13.41	9.901	8.624	8.232	7.923	7.850	8.373	10.87	11.71	12.19	12.88	13.38	14.72	13.96	14.25	14.37	14.05	13.48	13.79	13.09	13.07	12.96	13.16	12.99	13.52	13.86	14.09	14.01	14.74	14.41	14.42	14.81	15.30
430.0	813.9	1262	1945	2596	3049	3263	3384	3260	3054	2925	2874	2830	2784	2694	2569	2429	2352	2314	2290	2301	2319	2330	2346	2320	2256	2167	2042	1894	1728	1528	1296	1033	772.6	565.5	402.4	280.7	206.6	167.5	218.3	702.1	2961	9999.9	9999.9	6155	100.6	14.54	10.57	9.441	8.545	7.904	8.303	10.42	11.19	12.04	12.24	13.03	13.96	13.72	13.93	13.79	13.48	13.15	12.76	12.81	12.54	12.45	12.28	12.08	12.72	12.78	13.18	13.10	13.76	13.67	13.45	13.62	14.16
435.0	904.6	1156	1806	2451	2847	3103	3239	3143	2960	2811	2741	2673	2606	2506	2381	2237	2159	2128	2117	2130	2155	2178	2223	2215	2173	2113	2003	1881	1738	1538	1305	1061	836.5	614.2	440.3	318.3	232.9	174.9	151.4	231.3	715.9	2331	8155	9999.9	9136	31.18	14.55	11.45	9.685	8.383	8.465	10.36	11.03	11.68	11.64	12.80	13.68	13.61	14.03	13.18	13.11	12.47	12.75	12.33	12.00	11.80	11.74	11.63	11.88	11.72	12.36	12.53	12.63	12.45	12.33	12.60	12.92
440.0	1005	1158	1672	2341	2705	2957	3122	3031	2881	2720	2643	2554	2470	2386	2233	2101	2029	1997	1981	1995	2030	2067	2115	2122	2107	2043	1965	1854	1717	1535	1303	1062	861.0	654.5	469.5	345.7	255.5	191.4	148.4	135.3	223.5	570.3	2104	9999.9	9999.9	1775	25.67	14.28	10.81	9.094	9.007	10.50	11.01	11.23	11.61	12.29	13.48	13.37	13.45	12.95	12.93	12.61	11.97	11.91	11.60	12.09	11.16	11.23	10.82	11.60	11.40	11.86	11.72	11.96	11.85	12.12	12.35
445.0	1044	1215	1605	2192	2575	2842	3009	2898	2759	2626	2550	2437	2338	2251	2107	1966	1902	1876	1856	1878	1906	1946	2010	2031	2015	1974	1904	1804	1680	1524	1299	1057	857.0	677.3	496.5	361.0	274.7	209.1	159.5	124.6	121.1	182.2	516.4	2942	9999.9	9999.9	1308	23.51	12.52	10.07	9.520	10.68	10.80	10.90	11.19	12.01	13.05	12.67	12.56	12.70	12.63	12.13	11.69	11.57	11.09	10.88	10.94	11.19	10.80	10.89	10.95	11.49	11.03	11.39	11.17	11.68	11.65
450.0	903.1	1576	1579	2023	2413	2645	2807	2737	2599	2482	2379	2267	2161	2064	1926	1799	1721	1700	1688	1700	1738	1786	1847	1876	1878	1849	1789	1709	1596	1456	1259	1029	835.1	668.3	522.9	389.0	295.3	226.1	176.6	135.9	110.5	104.7	165.6	699.2	3011	9999.9	9999.9	5411	82.02	13.08	10.85	11.51	10.97	10.89	11.12	11.37	12.37	12.24	12.40	12.15	12.15	11.25	11.40	11.00	10.80	10.28	10.33	10.54	10.32	10.20	10.16	10.41	10.34	10.63	10.49	10.42	10.83
455.0	615.0	1867	1979	1864	2164	2433	2570	2543	2419	2279	2179	2087	1973	1866	1727	1615	1543	1517	1508	1523	1560	1601	1656	1701	1709	1693	1650	1585	1493	1371	1188	984.7	801.9	643.3	516.2	409.7	312.8	240.8	191.5	150.3	116.5	96.74	94.02	201.7	708.1	2328	7526	9999.9	6992	23.86	13.42	12.63	11.34	11.02	10.64	10.95	11.68	11.82	11.24	11.33	10.96	10.92	10.64	10.03	10.17	9.734	9.512	9.072	9.445	9.212	9.566	9.397	9.498	9.564	9.751	9.624	10.10
460.0	502.6	1553	2706	1860	2001	2266	2408	2364	2265	2153	2038	1942	1830	1727	1592	1479	1414	1394	1374	1385	1425	1467	1522	1560	1581	1565	1526	1482	1400	1286	1127	944.7	769.0	621.8	499.5	411.1	324.3	249.4	200.0	157.7	123.8	99.66	83.41	94.41	197.4	553.8	1899	9870	9999.9	1318	21.62	14.28	11.84	10.95	10.67	10.42	11.15	11.23	10.87	10.90	10.51	10.25	10.21	9.805	9.771	9.345	8.839	8.705	8.773	8.758	9.111	8.744	8.775	8.931	8.596	8.977	8.899
465.0	467.2	1056	3256	2396	1881	2111	2249	2228	2124	2018	1913	1819	1710	1603	1462	1364	1293	1273	1259	1272	1304	1345	1396	1439	1455	1448	1417	1376	1304	1208	1065	895.9	739.7	598.8	481.3	398.7	329.4	260.2	206.1	164.0	130.5	105.9	85.52	74.04	87.33	159.3	456.2	2717	9999.9	9999.9	1111	22.21	13.79	11.48	11.06	10.45	11.01	11.03	10.57	10.35	9.958	10.13	9.484	9.336	9.636	9.000	8.329	8.130	8.230	8.509	8.553	8.434	8.292	8.433	8.152	8.241	8.541
470.0	428.2	723.6	2584	4058	2068	1884	2025	2018	1935	1836	1742	1643	1542	1426	1300	1202	1147	1121	1114	1121	1149	1184	1232	1265	1285	1287	1260	1229	1173	1089	965.5	823.2	683.8	563.1	457.5	375.5	317.4	267.0	213.7	168.6	136.3	111.4	91.66	75.13	67.26	74.99	134.8	635.0	2844	8447	9999.9	4481	81.96	13.95	11.72	10.78	11.04	10.78	10.16	9.665	9.523	9.114	9.368	8.459	8.876	8.294	7.938	7.560	7.823	7.419	7.401	7.537	7.503	7.521	7.316	7.433	7.349
475.0	360.1	590.5	1328	4831	3668	1719	1798	1796	1744	1652	1557	1477	1366	1267	1148	1053	997.0	978.3	976.4	976.6	992.4	1027	1070	1100	1119	1127	1107	1082	1040	967.0	865.6	747.1	624.4	518.9	428.3	352.8	299.5	258.4	220.2	174.8	140.9	115.1	96.65	79.60	67.14	59.46	66.03	171.2	658.1	1942	5311	9999.9	1612	27.16	13.36	11.22	10.42	10.10	9.800	9.060	8.741	8.371	8.135	8.111	7.842	7.478	7.408	7.120	7.044	6.708	6.781	6.688	6.723	6.408	6.635	6.606	6.626
480.0	344.5	520.1	885.6	3703	5585	1965	1650	1684	1613	1531	1435	1368	1251	1167	1050	965.8	911.4	884.1	878.1	882.6	898.9	925.0	961.9	997.3	1015	1017	1003	987.6	951.4	885.9	796.4	693.7	586.1	490.5	406.3	339.8	287.3	247.3	218.0	179.3	143.7	117.9	99.04	83.48	69.48	59.44	52.28	68.94	172.3	455.6	1304	6801	9999.9	1521	23.73	12.97	11.25	9.835	9.418	8.571	8.349	8.090	7.569	7.629	7.447	6.940	6.925	6.553	6.437	6.227	6.234	6.432	6.104	6.198	6.236	6.127	5.963
485.0	327.8	477.8	764.8	2114	6801	3210	1546	1573	1513	1442	1360	1268	1171	1083	980.8	892.3	844.0	815.0	808.0	809.1	821.9	850.1	885.5	911.4	928.5	934.1	928.5	911.0	880.4	819.9	741.0	649.4	551.0	463.9	386.7	326.5	278.2	238.7	210.5	182.8	149.4	122.1	103.0	86.04	72.57	61.64	51.78	48.26	66.26	125.3	313.2	1822	9739	9999.9	1180	20.81	12.95	10.52	9.583	8.699	8.232	7.865	7.660	7.620	6.973	6.451	6.453	6.218	6.348	6.159	6.145	5.756	5.698	5.833	5.703	5.585	5.636
490.0	289.7	439.1	694.9	1197	4835	6330	1944	1426	1389	1324	1257	1173	1080	987.7	884.8	802.6	758.3	731.1	725.4	726.2	736.5	759.6	785.0	816.5	827.6	833.6	832.6	817.6	790.8	745.7	678.1	595.7	508.3	433.1	364.9	311.2	266.8	229.0	200.4	178.5	154.3	126.4	105.3	89.70	77.09	65.78	54.88	47.19	45.10	53.61	92.92	428.7	2578	7652	9999.9	4207	90.33	13.27	10.54	9.112	8.293	7.610	7.236	7.003	6.630	6.409	6.116	5.947	5.853	5.607	5.621	5.552	5.352	5.281	5.416	5.243	5.254
495.0	254.2	400.6	635.2	897.1	2089	7340	3672	1331	1251	1191	1135	1057	975.6	891.7	788.3	714.6	670.5	653.3	639.4	640.0	647.0	667.1	687.6	714.3	728.7	736.0	734.9	717.6	701.3	662.0	603.6	536.2	463.2	395.4	338.2	292.0	253.0	218.1	190.5	165.7	148.8	130.3	108.4	90.69	79.18	68.31	57.56	50.47	43.63	40.28	45.72	118.0	594.7	1752	5297	9999.9	5517	29.36	13.16	10.00	8.385	7.617	7.254	6.560	6.158	5.808	5.711	5.837	5.343	5.290	5.090	5.126	4.784	4.939	4.817	4.519	4.798
500.0	233.9	366.1	576.6	779.7	1178	5247	7075	1558	1152	1093	1047	977.9	901.9	808.3	722.0	651.8	607.9	586.6	573.9	578.4	584.2	596.4	615.8	643.1	654.4	659.5	658.0	644.8	630.7	599.2	550.5	489.9	426.4	367.8	314.3	271.4	238.9	207.4	182.1	157.5	141.0	128.0	111.7	91.98	79.41	69.26	59.25	51.52	44.78	38.40	36.60	49.74	154.5	411.5	1302	6616	9999.9	1643	25.46	11.68	9.015	8.043	7.226	6.638	5.803	5.704	5.561	5.018	4.980	4.944	4.725	4.702	4.465	4.421	4.510	4.400	4.459
505.0	211.2	328.2	510.6	693.2	909.7	2688	8744	2726	1073	1008	967.1	895.5	818.9	738.6	654.7	594.1	555.5	534.6	518.4	518.3	526.9	537.1	556.4	572.9	586.6	594.4	591.2	584.4	568.7	545.1	501.5	447.0	390.5	340.6	293.0	254.2	225.4	195.1	175.7	149.8	134.1	121.9	112.3	93.20	79.29	69.30	60.66	52.82	45.87	39.85	35.93	35.49	57.39	114.0	313.2	1750	8540	9999.9	1334	20.20	10.22	8.109	6.914	6.469	5.799	5.512	5.253	4.845	4.819	4.656	4.551	4.446	4.010	4.255	4.021	4.130	4.062
510.0	191.0	289.9	450.5	620.5	752.1	1262	5923	6995	1406	905.0	859.9	791.5	727.2	654.5	576.1	518.5	483.1	465.9	451.2	453.0	457.1	463.4	482.0	498.0	506.7	510.3	510.2	504.3	494.9	472.2	439.0	391.6	344.0	300.6	262.5	230.6	202.4	180.1	159.7	139.7	125.4	111.0	103.5	93.06	79.73	68.49	60.63	52.70	45.97	40.53	36.72	33.64	37.82	49.35	92.87	413.2	2220	6667	9654	3509	93.75	10.18	7.644	6.349	5.763	5.203	4.861	4.517	4.514	4.217	3.932	3.907	3.830	3.900	3.712	3.586	3.732
515.0	177.8	250.7	389.8	534.6	645.4	819.4	2217	8809	3898	827.2	757.5	703.4	632.6	572.4	502.5	451.1	419.5	400.1	390.9	386.2	387.2	398.8	408.8	422.0	429.1	433.2	435.7	429.8	422.1	403.9	374.8	337.3	298.3	262.3	233.3	203.8	181.0	161.8	145.6	129.0	114.2	102.1	94.00	87.35	78.52	67.12	58.24	51.96	46.10	40.97	37.37	33.59	33.50	35.90	44.42	115.4	516.1	1518	4087	9999.9	1851	29.19	9.735	6.944	5.839	5.271	4.443	4.087	3.999	4.006	3.733	3.496	3.147	3.602	3.121	3.139	3.329
520.0	159.7	230.0	352.6	477.1	582.0	660.0	1035	6117	7706	1058	684.1	636.5	563.5	514.3	449.3	402.8	374.1	356.8	349.2	343.8	342.4	350.4	358.2	370.9	378.0	383.3	381.1	377.3	373.8	356.0	333.0	299.0	265.8	236.3	208.7	186.6	165.3	148.9	134.3	119.0	106.4	94.36	86.92	79.72	76.45	67.33	57.63	50.65	44.94	40.55	37.09	33.55	32.04	32.42	33.96	48.95	136.4	358.0	976.1	4922	9290	1696	25.27	8.231	6.051	5.321	4.745	4.141	3.904	3.719	3.392	3.572	3.055	3.016	3.137	3.144	3.122
525.0	157.9	208.5	300.7	429.2	548.4	580.9	708.2	2843	9999.9	2057	629.5	580.3	518.6	466.2	402.7	362.5	336.7	323.1	313.5	304.2	308.4	314.5	319.4	331.5	336.6	336.6	338.2	336.0	333.1	318.4	299.7	267.2	238.5	214.8	188.1	168.4	152.0	137.2	123.8	110.3	99.62	89.26	81.64	74.18	71.23	66.07	56.20	49.57	43.62	39.68	36.09	33.14	32.10	31.50	31.30	34.25	52.13	99.41	235.0	1223	5671	8544	1417	19.47	6.911	5.717	4.852	4.173	3.576	3.819	3.344	3.203	3.027	2.857	2.882	2.774	2.627
530.0	133.1	176.4	269.5	356.7	475.3	516.8	559.2	1111	6709	7567	984.4	508.0	456.4	410.3	351.7	314.6	289.1	277.6	268.6	263.2	263.9	269.0	275.3	281.6	287.1	288.4	287.3	286.8	285.7	274.2	257.5	233.1	206.6	185.6	163.9	148.0	133.6	122.2	109.1	98.77	89.71	80.00	73.61	67.95	63.21	60.90	54.67	47.35	41.05	37.69	34.76	31.67	30.80	30.69	30.10	30.20	32.45	40.81	68.37	286.8	1402	4457	6582	2854	99.97	7.398	5.129	4.093	3.584	3.592	3.132	2.922	2.789	2.684	2.596	2.507	2.510
535.0	125.6	155.0	223.3	294.2	386.1	454.6	465.7	610.7	2250	9991	3792	456.9	397.1	350.9	302.9	270.3	247.6	236.9	225.8	225.3	220.2	224.2	230.0	234.8	241.4	240.9	239.4	241.9	236.8	231.4	217.3	198.0	176.9	157.3	141.0	127.6	116.2	105.6	96.52	87.18	79.05	71.02	65.63	61.13	56.47	52.59	50.65	45.67	38.66	35.15	32.05	30.10	28.97	29.28	28.39	27.73	27.06	26.46	30.57	76.79	322.8	1006	2309	6522	1908	29.86	6.707	4.454	3.559	3.410	3.130	2.768	2.639	2.530	2.231	2.452	2.296
540.0	107.2	130.4	192.5	262.7	336.2	413.4	423.2	467.3	855.8	6615	8364	644.6	355.3	311.2	266.2	238.5	219.2	206.4	199.3	196.3	193.8	197.1	200.1	202.9	207.0	210.3	208.1	208.7	205.2	199.8	189.1	172.1	153.6	136.8	123.8	113.3	103.2	93.29	85.94	77.54	70.54	63.66	59.17	55.65	50.79	46.94	45.56	43.60	37.27	32.69	29.63	27.83	27.51	26.92	27.44	27.03	24.67	22.61	21.27	29.14	81.98	233.1	535.0	2732	6373	1746	25.54	5.431	4.130	3.335	2.931	2.485	2.564	2.319	2.217	2.224	2.145
545.0	111.3	127.8	177.3	237.4	294.0	362.0	395.9	403.7	494.7	2740	9999.9	1493	323.6	275.0	239.4	211.5	193.1	181.1	175.1	171.1	168.4	169.2	174.1	177.5	180.0	182.8	181.2	181.9	177.1	174.7	164.5	149.5	135.6	121.8	111.1	99.79	91.28	82.66	76.62	69.42	63.53	58.39	53.64	49.87	46.23	43.18	40.82	39.33	35.99	31.51	27.55	26.28	25.21	25.03	25.41	24.92	23.45	20.20	18.45	18.05	28.38	60.78	127.6	648.4	3219	6020	1479	20.13	4.966	3.529	3.077	2.592	2.407	2.136	2.117	1.936	1.960
550.0	108.3	128.2	156.6	210.8	247.0	296.1	356.8	348.1	373.1	925.1	6624	7350	589.8	235.3	201.0	177.8	161.6	152.3	146.2	141.2	139.1	140.3	142.2	146.2	148.4	150.0	149.3	149.7	146.4	142.8	135.3	124.8	113.1	101.4	92.35	84.73	76.49	70.43	63.92	59.55	54.62	49.77	45.65	42.60	40.35	37.09	34.47	32.59	31.55	28.35	25.52	23.48	22.41	22.28	22.66	21.76	20.60	18.30	16.05	14.29	15.06	21.44	35.76	151.1	762.4	2599	4270	2134	115.4	6.042	3.315	2.644	2.354	2.222	1.985	1.875	1.754
555.0	124.4	125.5	149.0	187.1	218.0	253.3	307.0	327.9	329.8	464.2	2060	9999.9	3023	206.2	166.0	145.9	133.7	124.3	117.4	115.2	112.5	112.7	114.6	118.5	119.9	119.9	118.7	118.3	117.9	114.8	108.1	100.4	89.86	82.85	73.92	67.54	61.88	57.48	53.10	48.04	44.60	40.93	37.50	35.71	33.80	31.05	29.55	27.10	25.78	24.42	22.96	20.42	19.40	19.24	19.05	18.65	17.73	16.13	14.18	12.26	11.36	12.22	14.73	39.87	175.4	585.5	1270	3678	1953	32.14	5.130	2.998	2.579	2.201	1.927	1.962	1.428
560.0	120.5	132.8	153.8	185.1	212.9	246.2	284.0	335.4	328.7	390.3	770.9	6587	7573	345.1	143.2	124.4	112.3	104.2	99.96	97.84	95.88	95.60	96.42	98.57	98.81	100.4	98.57	99.23	98.68	96.13	90.96	83.08	75.22	69.32	62.64	57.95	52.59	48.57	45.39	40.73	37.91	35.44	32.58	31.00	28.80	26.96	25.50	23.28	21.67	21.59	21.09	18.39	17.20	16.81	17.36	17.02	16.12	14.85	13.43	11.36	9.949	9.459	9.804	14.94	44.83	136.1	292.0	1317	3767	1770	28.68	3.939	2.852	2.257	1.830	1.767	1.330
565.0	125.7	137.5	166.0	180.0	221.1	229.8	267.3	330.7	326.3	365.6	471.7	2654	9999.9	1008	125.7	107.6	98.80	89.37	84.61	83.03	80.18	80.24	83.68	83.88	82.71	83.70	83.09	82.26	82.75	80.18	76.58	70.80	63.77	58.58	53.39	49.48	44.75	41.88	38.42	35.34	33.09	30.85	28.77	26.55	25.35	23.24	22.58	20.28	18.89	18.00	18.16	16.87	15.41	15.18	15.50	15.07	14.36	13.46	12.07	10.97	9.379	8.822	8.182	8.850	15.74	36.05	71.16	307.3	1593	3722	1391	21.27	3.204	2.508	1.894	1.780	1.518
570.0	134.4	153.4	170.8	176.4	204.3	219.4	241.2	290.9	330.3	357.0	409.2	920.5	6506	6203	315.1	91.26	81.64	73.96	69.16	67.18	65.21	66.57	66.13	66.72	66.22	66.85	67.42	66.53	66.15	63.96	61.42	56.27	50.90	47.24	42.85	39.82	36.74	34.01	31.66	29.22	26.74	25.09	23.48	22.01	20.65	19.77	18.75	16.94	15.80	14.68	14.50	14.56	13.93	13.48	13.17	12.82	12.52	11.78	10.45	9.657	8.741	8.090	7.484	7.385	8.990	13.53	21.39	74.05	370.5	1381	2437	1446	119.9	5.450	2.041	1.723	1.377
575.0	138.2	160.2	186.5	184.4	200.5	225.6	238.5	268.0	337.3	375.0	419.8	506.2	1955	8767	2296	81.90	67.95	61.60	56.71	53.99	52.96	52.64	51.45	53.64	53.39	53.04	52.88	52.30	51.46	51.31	48.40	44.40	40.81	37.60	34.76	32.21	29.82	27.56	25.58	23.42	21.70	20.20	19.35	18.10	16.98	16.19	14.94	14.17	13.16	12.39	11.78	11.78	12.39	11.67	10.96	10.68	10.45	9.933	9.258	8.239	7.683	7.337	6.941	7.038	7.113	8.436	9.979	21.63	87.31	312.2	642.4	1968	1897	177.0	3.814	2.138	1.532
580.0	151.3	162.1	192.8	183.8	200.6	218.6	234.6	255.3	330.2	397.4	436.4	430.7	674.5	5644	6095	112.5	58.87	53.71	49.18	46.67	44.43	44.10	44.81	44.19	43.74	43.94	44.92	43.99	44.05	42.34	40.48	37.67	35.17	31.79	29.45	26.78	25.47	23.20	21.77	20.30	18.82	17.23	16.10	15.76	14.71	13.63	13.08	12.15	11.30	10.77	10.34	10.16	10.30	10.84	10.44	9.251	9.157	8.647	7.829	7.402	6.945	6.741	6.631	6.332	6.655	6.880	7.235	9.833	24.42	73.94	147.5	629.9	2192	1605	29.66	2.518	1.638
585.0	151.1	176.2	192.9	193.8	201.8	222.1	233.1	255.7	318.3	412.3	440.3	424.4	376.6	2150	8667	637.5	53.60	46.57	43.30	40.83	38.68	38.43	37.85	37.68	37.63	37.87	37.72	37.87	37.24	36.74	34.97	32.00	29.82	28.07	25.20	23.33	21.40	20.47	18.67	17.33	15.94	15.35	13.68	13.28	12.80	11.80	11.58	10.82	9.773	9.586	8.909	8.521	8.424	9.482	9.262	8.834	8.523	7.774	7.173	6.992	6.711	6.160	6.278	5.933	6.264	6.114	6.133	6.900	9.778	20.43	36.33	145.4	796.3	2223	1125	22.48	2.018
590.0	145.7	178.4	193.0	189.3	199.2	221.4	237.1	255.5	301.4	403.6	445.5	412.1	315.6	639.5	5424	4388	146.4	40.50	36.52	33.78	31.66	31.12	31.47	31.04	31.18	30.96	31.13	31.27	29.88	29.74	27.63	25.94	23.68	22.59	20.82	19.01	17.54	16.77	15.18	14.55	13.23	12.48	11.84	11.49	10.76	10.16	9.573	9.152	8.512	7.855	7.418	7.320	7.382	7.770	8.299	7.961	7.332	6.934	6.333	6.084	5.739	5.512	5.595	5.483	5.739	5.660	5.545	5.543	6.179	8.083	11.01	34.96	182.7	744.2	1542	948.1	117.0
595.0	145.4	174.6	191.6	186.5	200.1	222.1	233.5	264.6	299.2	386.3	452.4	411.2	301.7	269.1	1536	6610	688.2	37.97	31.25	27.93	25.97	26.22	25.44	25.51	25.52	23.90	24.88	24.84	23.79	23.04	21.80	21.31	19.24	17.99	16.95	15.09	14.75	13.72	12.20	11.67	10.86	10.16	9.437	9.546	8.960	8.010	8.004	7.495	6.930	6.645	6.247	6.061	6.084	6.092	6.637	6.954	6.678	6.043	5.840	5.075	4.936	4.958	4.642	5.057	5.019	5.491	4.910	4.735	4.844	4.776	5.073	9.836	42.70	167.7	391.2	1100	1322
600.0	138.3	172.6	185.4	193.3	194.1	226.0	249.1	267.1	314.0	380.3	449.3	415.3	303.1	191.3	432.9	4512	3714	65.73	28.32	24.46	23.03	22.45	21.80	22.07	20.78	20.34	20.98	20.62	19.99	19.50	18.70	18.39	16.59	15.20	14.50	13.00	12.10	11.53	10.59	9.965	9.304	8.781	8.171	8.199	7.558	7.061	6.621	6.186	6.091	5.627	5.335	5.409	5.135	5.428	5.910	6.056	6.175	5.430	5.103	4.769	4.470	4.533	4.207	4.460	4.404	4.835	4.533	4.543	4.376	3.853	3.507	4.337	11.36	39.16	89.20	335.2	1308
605.0	133.5	157.9	178.4	182.0	200.4	225.2	253.0	277.6	325.8	385.3	451.9	417.9	301.9	179.6	175.0	1767	5943	396.3	27.10	22.51	20.24	19.37	19.34	19.29	18.74	18.56	17.67	17.25	17.58	16.43	16.13	15.39	14.03	12.83	12.08	10.99	10.26	9.742	9.202	8.785	8.214	7.268	7.299	6.564	6.575	6.163	6.200	5.409	5.310	4.857	4.650	4.806	4.669	4.760	5.244	5.357	5.595	5.076	4.663	4.259	4.013	4.303	3.789	4.377	4.198	4.276	4.184	3.975	3.889	3.350	3.153	3.000	4.414	10.34	21.56	77.21	453.5
610.0	119.2	150.4	175.6	174.2	191.8	225.9	254.2	283.2	327.4	386.2	428.5	422.3	308.6	184.3	123.9	490.7	4154	3015	50.01	20.20	18.05	16.90	16.58	15.33	15.40	15.05	14.85	14.40	14.49	14.08	12.95	12.30	11.38	10.50	9.942	8.845	8.486	8.171	7.620	6.901	6.704	6.157	5.829	5.592	5.383	5.192	5.063	4.544	4.584	4.055	3.986	4.059	3.814	4.116	4.206	4.318	4.771	4.604	4.265	3.906	3.706	3.706	3.600	3.864	3.776	4.030	3.840	3.873	3.506	3.169	2.853	2.393	2.636	3.836	6.255	18.49	103.8
615.0	109.4	145.6	165.4	166.7	179.6	209.4	250.7	281.9	325.4	367.1	396.1	402.2	310.2	187.8	116.2	168.2	1234	5036	502.5	18.93	15.84	14.40	13.48	13.30	12.53	11.83	12.47	11.73	11.63	11.56	10.49	10.34	9.093	8.791	7.693	7.422	6.742	6.785	6.329	5.760	5.279	5.035	4.830	4.471	4.491	4.177	3.994	3.700	3.705	3.581	3.377	3.326	3.200	3.177	3.595	3.502	3.748	4.054	4.070	3.633	3.308	3.183	3.128	3.436	3.293	3.398	3.279	3.367	3.397	2.933	2.767	2.099	2.129	2.161	2.596	5.310	24.46
620.0	93.56	140.2	148.3	156.3	178.0	209.1	246.6	277.3	317.2	356.3	378.0	376.1	310.2	190.4	115.6	97.40	338.7	3745	2631	37.15	14.99	13.00	11.62	12.00	11.21	10.07	10.05	10.19	10.18	9.677	9.124	8.868	7.936	7.464	6.969	6.253	5.839	5.560	5.358	4.944	4.496	4.263	4.154	3.905	3.790	3.643	3.663	3.274	3.258	2.975	2.919	2.896	2.802	3.101	3.179	3.130	3.467	3.316	3.821	3.324	3.072	3.154	3.098	3.210	3.025	3.211	3.092	3.099	3.323	2.683	2.565	2.069	1.897	1.768	1.710	2.396	6.573
625.0	92.65	123.7	158.0	156.0	171.3	203.7	231.2	265.5	304.8	340.3	363.6	349.5	301.2	191.9	116.7	82.51	119.3	1592	4586	239.2	14.74	12.12	10.35	10.41	9.580	9.246	8.650	8.592	8.715	8.444	8.181	7.568	6.907	6.497	5.973	5.352	5.146	4.707	4.702	4.405	4.025	3.719	3.572	3.336	3.350	3.361	3.087	2.863	2.827	2.602	2.601	2.625	2.536	2.690	2.747	2.671	2.896	2.878	3.119	3.167	2.912	3.059	2.979	2.853	2.811	2.941	2.768	2.809	2.875	2.659	2.237	1.795	1.849	1.545	1.530	1.607	2.525
630.0	103.4	120.7	143.1	143.3	158.8	191.7	226.5	258.6	288.9	318.8	342.5	329.6	286.7	196.5	122.6	82.06	70.94	423.9	3533	2137	32.07	11.48	9.983	9.171	8.347	8.063	7.549	7.441	7.473	7.111	6.805	6.121	5.601	5.433	4.881	4.466	4.456	4.044	3.933	3.757	3.571	3.302	2.903	2.812	2.821	2.831	2.624	2.594	2.455	2.214	2.153	2.247	2.368	2.298	2.360	2.459	2.789	2.463	2.718	2.799	2.607	2.719	2.617	2.650	2.444	2.566	2.616	2.511	2.421	2.436	2.120	1.855	1.652	1.573	1.308	1.392	1.514
635.0	94.15	113.6	132.9	138.4	142.8	182.8	220.9	242.7	275.7	300.1	326.3	317.1	272.4	208.4	129.6	86.06	62.94	124.0	1098	3983	364.7	12.42	9.384	8.343	7.196	7.072	6.323	6.084	6.342	5.852	5.747	5.026	4.817	4.461	4.210	3.821	3.697	3.590	3.248	3.018	2.822	2.690	2.436	2.548	2.387	2.342	2.200	2.259	2.172	1.996	1.766	1.828	1.992	1.966	1.917	2.026	2.311	2.279	2.318	2.344	2.493	2.410	2.376	2.300	2.378	2.390	2.371	2.230	2.221	2.204	1.893	1.912	1.625	1.369	1.272	1.251	1.318
640.0	95.27	141.3	144.2	148.6	144.6	179.6	206.2	234.1	270.4	300.4	314.4	311.1	269.9	213.4	142.2	92.94	65.84	60.79	288.6	3233	1738	20.81	9.750	7.858	6.948	6.078	5.563	5.833	5.582	5.241	5.110	4.777	4.350	4.024	3.516	3.410	3.284	3.053	2.932	2.868	2.417	2.419	2.220	2.268	2.232	2.156	1.972	1.891	1.969	1.578	1.662	1.597	1.837	1.769	1.826	1.989	2.132	2.064	2.057	2.107	2.204	2.245	2.278	2.192	2.374	2.338	2.184	2.114	2.055	2.069	1.781	1.982	1.628	1.397	1.250	1.194	1.148
645.0	111.9	161.1	148.2	150.2	149.0	168.1	197.9	225.2	259.1	292.3	310.0	304.5	271.0	219.0	159.0	100.1	70.85	49.61	90.50	1491	3340	60.61	9.813	7.070	6.582	5.725	5.618	5.365	4.724	4.592	4.618	4.072	3.857	3.729	3.109	2.981	2.832	2.784	2.609	2.403	2.257	2.258	2.089	1.997	1.818	2.024	1.946	1.909	1.839	1.530	1.587	1.560	1.568	1.609	1.509	1.926	2.027	1.822	1.897	2.016	1.910	2.172	2.099	2.152	2.115	2.257	2.141	2.174	2.147	1.906	1.718	1.873	1.663	1.321	1.422	1.278	1.162
650.0	124.8	172.0	170.2	157.9	152.0	163.9	190.3	218.7	254.7	274.7	304.6	303.5	265.5	223.6	169.3	111.6	75.90	50.05	47.80	450.1	3610	459.5	11.20	7.384	6.388	5.192	5.178	4.563	4.237	4.516	4.520	3.557	3.551	3.198	2.699	2.857	2.593	2.497	2.348	2.154	2.249	1.977	1.977	1.864	1.647	1.731	1.919	1.797	1.707	1.501	1.451	1.585	1.530	1.521	1.478	1.706	1.806	1.704	1.895	1.842	1.847	2.058	1.978	2.198	2.029	2.082	1.980	2.192	1.890	1.838	1.738	1.678	1.424	1.494	1.369	1.272	1.222
