Sample:	'1
File name:	y2025051304’≈πŸ«≈.FD3
Run date:	'10:36:17, 05/14/2025
Operator:	Administrator
Comment:	'

Instrument
Model:	F-2700 FL Spectrophotometer
Serial number:	23B8-004
ROM Version:	4J14000 07

Instrument parameters
Measurement type:	3-D scan
Data mode:	Fluorescence
EX  Start WL:	220.0 nm
EX  End WL:	600.0 nm
EX Sampling interval:	5.0 nm
EM  Start WL:	230.0 nm
EM  End WL:	650.0 nm
EM Sampling interval:	5.0 nm
Scan speed:	12000 nm/min
EX Slit:	5.0 nm
EM Slit:	5.0 nm
PMT Voltage:	700 V
Response:	Auto 
Corrected spectra:	Off
Contour interval:	50.000

Peak integration
Integration method:	Rectangular
Sensitivity:	1
Threshold:	1.000

Peaks
No.	ApexEX/EM(nm)	Height(Data)
1	225.0/570.0	64.04
2	225.0/585.0	65.91
3	225.0/640.0	80.35
4	230.0/340.0	3079
5	230.0/565.0	64.52
6	235.0/510.0	287.3
7	240.0/265.0	325.7
8	240.0/525.0	233.7
9	245.0/270.0	318.6
10	245.0/535.0	195.1
11	250.0/275.0	416.5
12	250.0/550.0	153.9
13	255.0/285.0	457.6
14	255.0/565.0	127.3
15	260.0/290.0	511.4
16	260.0/575.0	107.9
17	265.0/585.0	95.30
18	270.0/405.0	870.6
19	275.0/615.0	145.6
20	280.0/315.0	2313
21	280.0/625.0	128.7
22	285.0/640.0	105.1
23	455.0/540.0	11.96
24	475.0/345.0	9.026
25	505.0/275.0	2.571
26	510.0/280.0	2.799
27	520.0/285.0	3.238
28	560.0/310.0	11.10
29	565.0/325.0	10.93
30	570.0/315.0	11.17
31	575.0/320.0	11.24
32	580.0/325.0	11.07

Data points
	220.0	225.0	230.0	235.0	240.0	245.0	250.0	255.0	260.0	265.0	270.0	275.0	280.0	285.0	290.0	295.0	300.0	305.0	310.0	315.0	320.0	325.0	330.0	335.0	340.0	345.0	350.0	355.0	360.0	365.0	370.0	375.0	380.0	385.0	390.0	395.0	400.0	405.0	410.0	415.0	420.0	425.0	430.0	435.0	440.0	445.0	450.0	455.0	460.0	465.0	470.0	475.0	480.0	485.0	490.0	495.0	500.0	505.0	510.0	515.0	520.0	525.0	530.0	535.0	540.0	545.0	550.0	555.0	560.0	565.0	570.0	575.0	580.0	585.0	590.0	595.0	600.0
230.0	42.71	714.7	2200	753.0	39.74	7.646	5.842	5.283	4.708	3.930	3.647	3.663	3.007	2.530	2.193	1.851	1.640	1.315	1.319	1.123	0.994	0.976	0.865	0.814	0.773	0.763	0.707	0.649	0.629	0.635	0.619	0.610	0.575	0.515	0.469	0.474	0.489	0.458	0.418	0.397	0.416	0.489	0.481	0.398	0.419	0.387	0.753	3.544	6.774	5.525	2.243	0.683	0.302	0.300	0.275	0.282	0.300	0.277	0.289	0.290	0.294	0.287	0.312	0.311	0.301	0.304	0.321	0.303	0.305	0.292	0.298	0.304	0.325	0.292	0.320	0.310	0.288
235.0	95.33	212.0	1266	2370	587.0	65.32	7.576	5.863	5.535	4.216	3.546	3.975	3.286	2.585	2.282	1.944	1.639	1.580	1.208	1.130	0.980	0.976	0.871	0.815	0.776	0.806	0.639	0.619	0.618	0.579	0.645	0.583	0.553	0.503	0.459	0.437	0.482	0.445	0.396	0.412	0.436	0.379	0.466	0.542	0.549	0.538	0.451	1.095	2.540	4.961	7.226	8.470	4.162	1.130	0.322	0.288	0.302	0.292	0.293	0.284	0.268	0.291	0.318	0.313	0.386	0.322	0.268	0.288	0.286	0.308	0.267	0.292	0.260	0.343	0.307	0.397	0.333
240.0	129.7	131.8	373.6	1867	2652	459.8	30.62	7.527	5.825	5.057	3.999	3.879	3.014	2.722	2.391	1.936	1.935	1.599	1.239	1.095	0.920	1.138	0.813	0.895	0.752	0.831	0.731	0.845	0.658	0.598	0.631	0.513	0.531	0.463	0.504	0.473	0.457	0.442	0.404	0.433	0.420	0.416	0.430	0.467	0.584	0.632	0.529	0.529	0.875	1.578	3.838	9.503	12.05	9.136	3.414	0.796	0.324	0.346	0.266	0.277	0.279	0.290	0.307	0.303	0.316	0.312	0.318	0.287	0.279	0.301	0.344	0.302	0.279	0.384	0.310	0.306	0.358
245.0	99.04	184.2	146.5	619.1	2703	2711	330.3	13.95	5.741	5.901	4.197	4.316	3.691	3.154	2.655	2.064	1.763	1.563	1.247	1.126	1.010	1.146	0.951	0.795	0.832	0.736	0.748	0.765	0.728	0.645	0.625	0.720	0.600	0.447	0.451	0.429	0.421	0.469	0.529	0.472	0.428	0.423	0.439	0.387	0.417	0.620	0.685	0.738	0.583	0.584	1.099	3.115	7.859	14.11	14.22	8.183	2.426	0.457	0.331	0.316	0.279	0.288	0.340	0.299	0.367	0.283	0.277	0.328	0.378	0.317	0.302	0.306	0.364	0.328	0.306	0.306	0.307
250.0	55.94	130.5	217.0	227.8	848.4	2553	3269	1117	64.99	7.273	5.703	4.700	4.009	3.668	2.873	2.206	1.813	1.662	1.396	1.191	1.094	0.947	1.012	0.885	0.854	0.864	0.735	0.702	0.737	0.708	0.612	0.623	0.568	0.516	0.528	0.447	0.421	0.409	0.470	0.505	0.470	0.435	0.430	0.389	0.365	0.417	0.499	0.739	0.863	0.783	0.681	1.009	2.071	4.463	8.394	13.25	16.24	15.24	8.116	2.549	0.469	0.358	0.342	0.378	0.307	0.275	0.306	0.338	0.312	0.338	0.310	0.321	0.311	0.323	0.326	0.325	0.316
255.0	38.25	53.05	154.9	291.1	278.1	648.9	2490	4953	1499	58.07	7.535	6.261	4.858	4.324	3.234	2.779	2.295	1.703	1.793	1.353	1.248	1.123	0.962	0.890	0.878	0.953	0.823	0.692	0.708	0.774	0.785	0.599	0.577	0.508	0.450	0.476	0.499	0.458	0.421	0.436	0.459	0.454	0.414	0.394	0.382	0.408	0.338	0.467	0.491	0.774	1.006	1.137	0.966	1.294	2.183	3.384	5.989	14.51	25.08	25.38	12.44	2.682	0.491	0.364	0.313	0.285	0.316	0.357	0.328	0.319	0.342	0.352	0.314	0.278	0.293	0.326	0.332
260.0	38.94	28.95	65.29	242.9	284.9	193.3	757.1	4140	5338	265.3	25.84	7.426	5.805	4.584	3.754	2.829	2.128	1.772	1.747	1.643	1.237	1.195	0.946	0.870	0.815	0.872	0.829	0.665	0.719	0.734	0.729	0.674	0.584	0.556	0.467	0.431	0.437	0.522	0.438	0.501	0.485	0.494	0.544	0.413	0.412	0.380	0.363	0.406	0.375	0.406	0.722	1.562	1.513	0.972	0.826	1.089	1.703	4.207	11.06	24.18	32.04	23.64	9.198	1.552	0.359	0.427	0.347	0.376	0.293	0.349	0.340	0.305	0.357	0.376	0.316	0.280	0.331
265.0	37.55	27.32	34.99	111.6	325.7	210.2	200.6	1410	5801	5020	205.7	12.30	7.354	5.145	4.486	3.260	2.813	2.095	2.001	1.632	1.332	1.268	1.093	0.957	0.950	0.987	0.857	0.793	0.791	0.718	0.751	0.654	0.587	0.524	0.496	0.419	0.532	0.522	0.481	0.426	0.466	0.415	0.429	0.466	0.433	0.419	0.343	0.416	0.317	0.318	0.435	0.827	1.464	1.861	1.316	0.689	0.698	1.297	2.915	7.251	18.20	33.30	32.45	20.97	5.457	0.715	0.408	0.376	0.393	0.329	0.375	0.311	0.336	0.349	0.332	0.355	0.408
270.0	50.60	43.53	36.46	47.53	159.5	318.6	228.7	358.1	1909	5429	6171	783.3	43.05	7.183	5.469	3.784	3.134	2.326	2.052	1.853	1.568	1.282	1.240	0.988	1.000	0.991	0.816	0.878	0.861	0.792	0.765	0.763	0.687	0.621	0.553	0.533	0.556	0.504	0.465	0.399	0.464	0.451	0.467	0.456	0.456	0.439	0.394	0.438	0.350	0.335	0.346	0.481	0.689	1.055	1.572	1.797	1.577	0.982	1.027	2.018	4.598	10.02	18.11	29.71	31.85	31.26	14.43	4.781	0.723	0.373	0.410	0.342	0.395	0.387	0.365	0.347	0.424
275.0	89.71	97.51	81.38	52.39	60.69	159.4	416.5	276.6	473.5	1399	5171	8681	1039	30.99	8.032	5.269	3.904	3.118	2.481	1.965	1.583	1.505	1.349	1.240	1.108	1.117	0.876	1.026	0.864	0.830	0.893	0.724	0.791	0.824	0.670	0.589	0.563	0.566	0.527	0.428	0.452	0.478	0.517	0.495	0.554	0.556	0.568	0.583	0.441	0.456	0.365	0.434	0.424	0.479	0.700	1.071	1.946	2.571	1.688	1.076	1.514	2.701	4.513	7.315	10.53	24.44	45.57	33.05	21.69	4.588	0.582	0.403	0.392	0.366	0.367	0.346	0.455
280.0	152.9	171.6	142.6	73.17	48.63	70.64	286.5	413.1	232.2	376.6	1596	7782	7676	145.5	15.33	6.945	4.432	3.533	2.721	2.309	1.843	1.669	1.467	1.315	1.382	1.005	1.033	0.897	0.952	0.899	0.851	0.842	0.764	0.741	0.756	0.708	0.653	0.737	0.592	0.509	0.506	0.526	0.495	0.583	0.614	0.673	0.648	0.772	0.674	0.551	0.510	0.533	0.523	0.500	0.509	0.579	0.978	1.921	2.799	2.201	1.315	1.160	1.566	2.257	3.026	6.565	17.31	35.61	55.26	31.75	16.08	2.017	0.445	0.472	0.429	0.329	0.419
285.0	220.9	256.1	216.2	117.7	65.91	58.42	133.2	457.6	337.9	197.1	462.5	2652	9213	5796	105.6	9.947	6.136	4.244	3.396	2.408	2.013	1.605	1.704	1.387	1.160	1.274	1.143	1.030	0.937	0.921	0.787	0.747	0.786	0.791	0.926	0.696	0.733	0.663	0.663	0.610	0.539	0.549	0.630	0.631	0.685	0.785	0.761	0.954	0.887	0.724	0.536	0.559	0.557	0.489	0.446	0.519	0.627	1.064	1.808	2.881	3.238	1.819	1.126	1.233	1.430	2.141	4.644	10.01	24.42	46.04	58.74	27.78	10.21	1.019	0.424	0.358	0.451
290.0	293.1	355.5	309.4	184.1	101.4	83.14	103.5	243.7	511.4	461.3	286.7	763.3	2987	6861	6099	421.9	22.78	6.374	3.746	2.849	2.440	2.088	1.626	1.568	1.356	1.242	1.166	1.129	1.033	0.955	0.912	0.814	0.892	0.812	0.848	0.770	0.815	0.804	0.675	0.695	0.590	0.588	0.723	0.752	0.930	0.991	1.008	1.159	1.198	0.881	0.739	0.804	0.635	0.584	0.562	0.626	0.647	0.817	1.083	1.503	2.370	2.937	3.325	2.535	1.694	1.619	2.090	3.339	6.521	12.80	23.96	34.32	43.49	38.42	18.26	7.890	1.183
295.0	368.7	457.2	414.9	265.2	171.4	148.9	158.1	221.6	348.7	708.4	659.3	478.1	907.6	1829	5257	6421	577.3	19.86	6.012	3.909	2.897	2.546	2.116	1.970	1.361	1.396	1.291	1.182	1.184	1.081	0.942	0.867	0.852	0.859	0.956	0.894	0.866	0.831	0.896	0.791	0.687	0.821	0.789	0.830	1.028	1.187	1.211	1.403	1.403	1.114	0.882	1.061	0.826	0.778	0.748	0.811	0.875	1.041	1.139	1.284	1.503	1.904	2.760	4.323	4.432	3.265	2.116	2.336	2.910	4.195	6.492	8.838	12.36	21.68	44.27	57.03	28.27
300.0	452.2	569.1	539.2	381.3	268.4	243.2	286.2	342.1	371.6	723.3	1164	820.7	685.4	756.4	1737	6749	5293	85.22	13.08	5.635	3.611	2.873	2.321	2.026	1.551	1.364	1.373	1.238	1.155	1.073	0.899	1.057	0.959	0.914	0.945	0.835	0.954	1.087	0.952	0.909	0.744	0.774	1.002	0.857	1.047	1.296	1.441	1.725	1.730	1.548	1.268	1.360	1.271	1.076	1.148	1.223	1.299	1.602	1.565	1.807	2.017	2.358	2.794	3.679	4.992	6.122	4.955	3.761	3.423	3.543	3.644	4.004	4.388	6.675	14.92	34.09	56.91
305.0	584.9	781.4	741.0	553.7	419.5	425.0	478.8	665.4	833.7	1111	1594	1622	1217	933.9	993.9	2620	7808	4067	67.24	9.294	4.965	3.442	2.690	2.299	1.829	1.808	1.504	1.465	1.253	1.154	1.063	1.079	0.999	1.078	0.984	1.040	1.061	1.155	0.980	1.057	0.945	1.028	0.981	1.189	1.301	1.798	1.881	2.121	2.209	1.997	1.842	1.822	1.759	1.762	1.886	1.962	2.286	2.775	2.930	3.107	3.489	4.146	4.667	5.303	6.212	7.519	9.148	8.427	7.008	6.070	5.354	5.055	4.487	5.191	6.638	10.88	22.65
310.0	742.3	998.9	1017	781.4	618.0	628.1	769.3	963.7	1181	1482	1816	2183	2044	1417	1147	1232	3011	5590	4638	287.0	15.48	5.155	3.616	2.887	2.308	2.141	1.823	1.589	1.475	1.296	1.128	1.129	1.087	1.007	1.065	1.077	1.146	1.067	1.074	1.143	1.065	1.154	1.117	1.431	1.591	2.111	2.423	2.887	2.793	2.612	2.262	2.597	2.443	2.383	2.628	2.786	3.283	3.686	4.136	4.613	4.971	5.431	6.342	6.892	7.622	8.399	9.163	10.13	11.10	9.900	8.425	7.260	6.203	6.276	5.905	6.336	8.540
315.0	880.0	1257	1284	1000	799.8	792.9	952.5	1136	1336	1649	1947	2220	2313	2001	1383	1033	1335	1688	4179	4438	414.0	11.64	5.206	3.500	2.788	2.433	2.024	1.684	1.639	1.411	1.301	1.263	1.118	1.262	1.208	1.044	1.224	1.136	1.324	1.173	1.306	1.216	1.285	1.597	1.966	2.507	3.053	3.782	3.572	3.129	2.890	3.299	3.028	3.083	3.180	3.310	3.954	4.537	5.117	5.013	5.769	6.294	6.984	7.898	8.584	8.983	9.531	9.894	10.52	10.61	11.17	10.43	8.690	7.656	6.682	6.212	5.856
320.0	998.6	1447	1529	1171	917.3	895.0	1063	1229	1404	1719	2031	2296	2306	2209	1694	1096	1025	763.2	1297	4989	3862	62.24	8.214	4.405	3.436	2.353	2.456	1.933	1.750	1.484	1.341	1.201	1.086	1.127	1.121	1.083	1.158	1.329	1.298	1.334	1.354	1.345	1.377	1.782	2.212	2.647	3.689	4.286	4.229	3.641	3.394	3.506	3.478	3.575	3.514	3.616	4.317	4.441	5.076	5.309	5.676	6.590	7.249	7.702	8.476	9.336	9.952	10.09	10.68	10.79	11.04	11.24	10.92	9.329	7.349	6.571	5.610
325.0	1092	1643	1816	1408	1022	937.9	1071	1240	1377	1682	2018	2264	2245	2093	1908	1205	964.5	574.3	436.9	1731	5582	3033	48.71	6.531	3.965	2.782	2.371	2.001	1.646	1.604	1.483	1.305	1.204	1.151	1.170	1.115	1.168	1.178	1.182	1.192	1.361	1.328	1.531	1.924	2.403	3.170	3.746	4.774	4.958	4.162	4.075	4.154	3.923	3.783	3.552	3.580	4.479	4.813	5.332	5.668	5.647	6.032	7.270	7.660	8.387	8.974	9.414	10.03	9.980	10.93	9.901	10.33	11.07	10.70	9.185	7.388	6.381
330.0	1245	1973	2385	1975	1395	1065	1078	1203	1314	1593	1906	2158	2157	1961	1767	1402	1024	565.4	298.6	510.8	1853	4079	3637	232.6	13.12	3.928	3.117	2.317	2.043	1.795	1.731	1.467	1.272	1.312	1.110	1.238	1.173	1.144	1.242	1.195	1.292	1.411	1.670	2.045	2.549	3.414	4.207	5.917	6.393	5.902	5.496	5.948	4.932	4.438	4.249	3.955	4.460	4.688	5.072	5.441	5.740	5.792	6.777	7.220	7.888	8.398	9.037	9.402	9.871	10.05	9.732	9.804	9.534	9.507	9.393	8.621	7.681
335.0	1374	2288	2915	2629	1949	1330	1125	1194	1264	1521	1800	2048	2092	1928	1669	1376	1231	686.3	355.7	306.2	539.4	1084	3375	3594	350.6	10.61	4.255	3.017	2.250	2.124	1.837	1.537	1.460	1.262	1.250	1.137	1.265	1.325	1.248	1.412	1.369	1.445	1.601	2.368	2.722	4.113	4.805	6.474	7.463	7.309	7.174	8.311	7.149	6.541	5.716	4.535	4.587	4.982	5.305	5.125	5.236	5.869	6.446	7.029	7.694	7.851	8.528	8.941	9.534	9.804	9.675	9.346	9.668	8.788	8.493	8.065	8.108
340.0	1452	2406	3079	2854	2159	1420	1102	1148	1209	1425	1688	1919	1968	1850	1590	1275	1203	842.3	414.3	286.7	272.1	349.9	1041	4098	3248	53.29	6.374	3.611	2.883	2.211	1.788	1.573	1.530	1.340	1.230	1.273	1.369	1.341	1.326	1.370	1.425	1.546	1.707	2.100	2.546	3.922	4.937	7.084	7.628	7.631	7.983	8.722	8.080	7.456	6.002	4.620	4.571	5.015	5.014	5.069	5.246	5.533	5.941	6.533	7.065	7.769	7.972	8.356	9.160	8.910	9.615	9.229	9.066	8.870	8.114	7.719	7.390
345.0	1400	2318	2974	2854	2154	1390	1068	1090	1142	1310	1550	1751	1820	1723	1489	1184	1034	882.3	508.5	306.7	227.9	202.4	324.9	1407	4565	2635	43.37	5.107	3.463	2.667	2.074	1.706	1.421	1.351	1.453	1.240	1.193	1.229	1.244	1.241	1.260	1.325	1.631	1.987	2.621	3.721	4.868	6.597	7.793	7.588	7.749	9.026	7.745	7.008	5.679	4.435	4.451	4.677	4.770	5.044	5.115	5.110	5.327	6.189	6.607	6.999	7.259	7.652	8.093	8.502	9.201	8.448	8.466	8.190	7.860	7.026	7.002
350.0	1277	2133	2815	2766	2154	1403	1031	1018	1052	1194	1391	1551	1610	1542	1360	1108	929.9	757.3	618.3	416.5	259.2	200.6	189.6	391.3	1471	3232	2970	210.6	12.94	3.703	2.631	1.906	1.530	1.432	1.346	1.235	1.205	1.123	1.224	1.172	1.197	1.379	1.544	1.921	2.531	3.549	4.345	6.052	7.198	7.112	7.443	8.812	7.791	7.023	5.638	4.664	4.251	4.404	4.238	4.457	4.575	4.813	5.060	5.651	5.754	6.141	6.539	7.119	7.449	7.539	7.899	7.693	7.433	7.313	6.908	6.367	6.504
355.0	1141	1876	2582	2579	2107	1392	1002	963.9	993.2	1100	1243	1370	1427	1380	1240	1045	877.1	693.3	567.3	543.0	356.7	232.8	188.8	186.3	384.3	810.2	2474	3213	337.4	11.25	3.272	2.333	1.781	1.487	1.412	1.317	1.113	1.114	1.127	1.149	1.184	1.208	1.572	1.744	2.266	3.179	3.804	5.483	6.652	6.428	6.723	8.487	7.540	6.761	5.777	4.382	4.404	4.056	4.008	4.410	4.447	4.568	4.892	5.244	5.357	5.620	5.808	6.363	6.588	6.695	7.166	7.172	6.995	7.039	6.511	6.069	5.854
360.0	1067	1682	2306	2361	1933	1331	979.5	944.8	947.5	1037	1151	1257	1296	1245	1136	974.0	829.9	666.1	532.7	515.0	457.8	284.9	205.2	158.8	158.0	228.1	708.4	3101	3020	52.03	5.974	3.050	2.123	1.666	1.482	1.258	1.067	1.146	1.194	1.043	1.108	1.135	1.432	1.633	2.146	2.918	3.267	5.270	5.920	6.028	6.167	7.587	6.958	6.303	5.337	4.060	4.032	4.081	4.132	4.102	4.436	4.365	4.571	4.825	5.028	5.087	5.373	5.622	6.227	5.968	6.357	6.478	6.513	6.434	6.217	5.865	5.762
365.0	956.9	1531	2045	2140	1802	1274	958.9	906.6	920.5	997.8	1082	1170	1196	1157	1065	922.4	799.3	661.5	532.7	473.9	477.4	379.7	239.9	173.9	129.3	115.2	203.5	991.3	3672	2616	44.61	4.787	2.794	2.131	1.761	1.350	1.413	1.177	1.272	1.092	1.077	1.155	1.239	1.589	2.010	2.611	3.257	4.668	5.486	5.275	5.521	6.737	6.484	6.003	5.376	3.864	4.001	3.698	3.948	3.787	4.126	3.940	4.217	4.587	4.635	4.840	4.972	5.459	5.447	5.642	6.028	5.712	6.051	6.023	5.742	5.462	5.252
370.0	864.2	1346	1787	1908	1657	1213	952.7	887.3	901.7	953.6	1012	1070	1096	1054	980.6	864.5	768.0	652.9	546.9	476.3	435.3	436.2	342.3	219.6	154.5	116.8	111.7	267.8	1122	2820	2851	704.4	14.13	3.170	2.107	1.558	1.516	1.240	1.208	1.091	1.118	1.183	1.281	1.453	1.848	2.400	2.907	4.058	4.506	4.849	5.144	6.156	5.897	5.624	4.755	3.957	4.018	3.703	3.742	3.834	3.977	4.143	4.212	4.349	4.530	4.365	4.725	5.110	5.139	5.128	5.283	5.417	5.383	5.553	5.315	5.188	5.086
375.0	759.5	1147	1562	1672	1513	1171	928.9	887.3	879.0	923.5	965.1	1009	1016	973.3	904.7	811.5	734.5	647.3	559.6	494.3	436.0	407.0	415.8	319.0	200.2	150.0	121.9	137.5	298.8	702.7	2076	3545	320.5	14.34	3.015	2.066	1.682	1.389	1.191	1.106	1.155	1.131	1.245	1.413	1.729	2.246	2.790	3.372	4.065	4.321	4.451	5.860	5.287	5.119	4.672	3.972	3.952	3.832	3.789	4.003	3.963	3.965	4.112	4.038	4.418	4.170	4.509	4.495	4.689	4.958	5.205	5.019	5.206	5.250	4.915	5.082	5.145
380.0	699.1	1067	1409	1518	1404	1128	917.3	867.7	862.4	895.5	936.3	965.4	975.4	923.6	854.1	774.1	711.9	636.2	568.0	507.8	443.7	400.2	399.7	394.3	259.1	185.0	149.3	129.6	138.3	210.5	593.7	2665	2685	256.1	7.004	2.810	1.891	1.590	1.264	1.174	1.026	1.167	1.194	1.539	1.830	2.096	2.562	3.079	3.644	4.009	4.133	5.174	5.163	4.833	4.563	3.922	3.891	3.780	3.701	3.860	4.092	3.735	4.026	4.077	4.292	4.003	4.496	4.211	4.456	4.900	5.048	4.921	4.916	4.826	4.782	4.818	4.900
385.0	633.4	995.6	1283	1392	1333	1080	911.3	870.1	845.6	870.1	908.0	919.5	936.5	893.8	812.5	742.6	700.2	622.6	561.6	512.8	456.9	411.9	379.8	390.2	335.9	225.9	177.8	147.3	118.5	114.1	192.0	807.0	2759	2317	38.96	4.564	2.460	1.761	1.286	1.158	1.203	1.134	1.092	1.354	1.502	1.997	2.302	2.916	3.522	3.624	3.710	4.947	4.740	4.691	4.354	3.949	3.860	3.672	3.748	3.822	4.042	3.749	3.839	4.018	4.242	4.157	4.227	4.133	4.188	4.704	4.972	4.687	4.870	4.760	4.620	4.551	4.543
390.0	605.9	912.8	1156	1283	1213	1038	895.0	839.2	829.6	844.5	872.4	873.4	887.6	836.4	774.3	711.0	668.0	609.1	560.3	518.0	467.3	430.5	390.9	369.5	364.8	309.8	224.1	177.7	140.0	113.2	115.1	235.8	794.6	1986	2144	636.1	13.70	2.726	1.790	1.443	1.363	1.263	1.165	1.402	1.560	1.952	2.137	2.760	3.147	3.192	3.508	4.425	4.421	4.493	4.037	3.754	3.804	3.800	3.507	3.719	3.739	3.944	3.805	3.974	3.964	3.974	4.066	4.010	4.126	4.305	4.522	4.221	4.421	4.430	4.485	4.417	4.422
395.0	576.2	833.3	1031	1167	1130	996.7	873.0	841.3	828.2	832.3	849.7	852.5	851.5	808.5	747.9	689.0	643.1	593.4	556.0	522.2	479.5	450.1	416.2	384.2	355.3	356.9	312.2	226.5	175.7	143.7	124.6	127.1	223.7	486.4	1271	2601	281.5	16.94	2.927	1.921	1.614	1.287	1.284	1.374	1.544	1.877	1.961	2.546	2.713	3.096	3.076	4.274	4.206	4.082	3.848	3.560	3.428	3.770	3.853	3.666	3.689	3.957	3.592	3.765	3.929	4.125	3.961	3.669	3.870	4.238	4.201	3.994	4.197	4.094	4.064	4.124	4.095
400.0	570.8	796.8	1006	1109	1073	966.9	862.9	832.6	828.5	837.1	862.6	856.6	852.6	808.9	735.7	674.6	628.6	587.1	553.4	521.6	488.1	463.3	436.3	403.3	368.1	358.3	363.7	291.2	217.3	176.8	151.1	124.8	113.4	152.1	347.3	1651	2245	243.0	9.777	2.356	1.713	1.379	1.254	1.396	1.510	1.784	1.834	2.560	2.644	2.922	2.948	3.916	3.873	4.085	3.736	3.530	3.431	3.660	3.623	3.808	3.813	3.930	3.975	3.530	3.552	4.005	4.083	3.871	3.749	3.952	3.955	3.994	4.140	4.126	3.941	3.881	3.915
405.0	544.6	778.3	929.7	1039	1038	934.3	874.6	828.8	828.6	849.9	870.6	869.1	857.4	814.0	735.9	671.5	619.5	577.2	545.3	520.0	494.2	472.4	451.0	425.5	389.9	365.6	369.3	359.7	267.8	211.0	182.9	145.5	107.7	91.29	121.8	466.6	1819	1978	187.4	4.468	2.245	1.853	1.413	1.537	1.486	1.923	2.057	2.406	2.589	2.686	3.070	3.873	3.716	3.889	3.695	3.684	3.528	3.617	3.576	3.569	3.836	3.638	3.795	3.692	3.872	4.029	3.925	3.879	3.879	3.901	4.011	3.941	3.813	4.078	3.797	4.088	4.033
410.0	509.6	705.0	901.1	985.0	986.2	914.9	853.7	823.0	829.7	846.0	869.0	865.7	848.2	799.7	723.0	649.7	594.1	558.3	531.8	507.3	490.2	471.5	460.7	440.6	413.1	383.8	367.6	368.1	333.2	259.2	211.1	170.9	126.0	95.51	83.23	147.0	504.2	1390	1687	567.4	13.32	2.264	1.701	1.620	1.548	1.810	1.910	2.367	2.552	2.404	2.888	3.623	3.568	3.880	3.538	3.591	3.466	3.613	3.642	3.739	3.830	3.696	3.712	3.690	3.892	3.907	3.858	3.738	3.985	3.806	3.948	3.785	3.923	4.023	3.692	3.859	3.861
415.0	507.6	670.9	847.9	923.3	916.5	893.4	833.7	809.0	806.8	821.4	850.4	836.0	815.5	765.7	689.2	620.7	567.2	531.4	505.1	488.0	474.8	456.3	451.3	433.9	416.2	392.9	364.5	346.0	340.1	313.0	233.7	186.1	140.3	106.7	82.65	79.43	146.2	335.0	831.4	1914	263.7	16.09	2.228	1.819	1.857	1.707	1.886	2.185	2.594	2.347	2.593	3.229	3.462	3.670	3.422	3.505	3.547	3.544	3.503	3.787	3.491	3.790	3.894	3.625	3.780	3.702	3.885	3.465	3.623	3.875	3.789	3.864	3.840	3.549	3.581	3.786	3.727
420.0	460.9	658.6	807.2	875.8	879.9	846.6	825.9	795.2	785.9	801.4	819.4	809.2	784.8	728.0	658.8	587.0	538.8	506.8	480.3	466.6	455.7	443.5	440.0	428.1	410.5	391.5	362.1	339.2	323.6	324.8	266.8	196.1	147.3	113.0	86.64	69.16	67.93	96.17	213.1	1085	1752	231.9	9.004	2.162	1.763	1.924	1.925	2.198	2.429	2.498	2.518	3.056	3.320	3.388	3.331	3.390	3.513	3.664	3.753	3.602	3.693	3.683	3.574	3.641	3.612	3.491	3.732	3.509	3.441	3.586	3.782	3.776	3.646	3.523	3.475	3.660	3.344
425.0	452.7	609.0	770.2	839.8	848.4	818.7	810.0	786.7	777.8	781.6	805.0	774.9	758.6	702.7	638.3	569.5	517.2	483.1	458.2	450.8	437.9	429.7	426.6	421.2	403.9	386.7	364.5	338.9	315.9	308.4	293.6	218.4	156.5	120.7	93.44	70.32	54.34	45.77	62.53	286.0	1252	1556	181.2	4.281	1.895	1.982	1.976	2.298	2.396	2.375	2.483	3.050	3.273	3.284	3.328	3.236	3.682	3.579	3.781	3.354	3.557	3.603	3.688	3.859	3.611	3.650	3.522	3.602	3.470	3.490	3.622	3.501	3.598	3.263	3.393	3.614	3.380
430.0	519.1	580.6	725.8	804.9	823.3	800.0	793.4	789.2	778.3	775.0	788.1	765.0	731.5	678.5	613.7	543.9	495.7	461.0	439.2	429.4	420.6	415.4	410.0	409.8	397.8	381.4	364.2	341.6	318.5	299.2	284.8	253.4	183.4	134.4	104.3	80.27	59.18	41.12	33.56	76.50	325.9	989.1	1336	487.4	13.03	2.430	2.109	2.254	2.201	2.284	2.286	2.927	3.031	3.238	3.255	3.185	3.652	3.486	3.447	3.409	3.479	3.378	3.616	3.620	3.633	3.403	3.345	3.349	3.307	3.315	3.501	3.459	3.260	3.342	3.239	3.256	3.285
435.0	775.5	571.5	699.2	759.5	782.8	793.7	794.1	778.7	769.3	763.7	758.9	747.8	707.6	650.5	589.1	516.1	470.7	438.6	417.2	406.2	396.8	394.2	391.8	393.8	385.6	371.5	359.9	340.7	319.7	297.5	271.8	253.5	218.2	154.1	117.2	90.33	67.09	46.00	31.61	33.60	84.05	231.7	622.1	1577	248.7	16.49	2.545	2.463	2.301	2.242	2.228	2.943	2.955	2.880	3.060	3.172	3.542	3.380	3.472	3.562	3.418	3.579	3.307	3.459	3.445	3.250	3.329	3.391	3.174	3.451	3.439	3.437	3.182	3.136	3.077	3.202	2.990
440.0	1020	650.7	671.4	738.0	755.3	783.0	779.0	782.9	752.5	750.0	746.7	727.4	682.5	623.6	562.6	498.8	445.9	422.5	398.4	387.9	379.1	376.1	378.2	377.8	372.5	362.0	350.4	336.4	314.3	296.2	263.6	242.9	221.8	175.9	126.1	95.93	71.72	50.55	34.16	27.29	32.68	62.19	156.6	891.2	1538	220.5	9.115	2.671	2.304	2.173	2.303	2.780	2.897	2.926	3.042	3.196	3.461	3.483	3.413	3.432	3.534	3.541	3.329	3.438	3.295	3.109	3.274	3.187	3.319	3.211	3.118	3.071	3.125	3.256	2.990	2.996	3.077
445.0	1071	932.7	652.9	710.8	733.0	766.0	759.5	764.0	736.3	741.2	725.9	696.1	646.9	592.0	534.3	474.1	425.6	396.2	381.1	372.1	359.7	358.7	361.5	356.1	353.7	344.4	336.8	321.8	307.8	287.6	258.8	230.8	206.6	189.4	137.5	101.8	75.78	54.12	38.12	28.36	22.86	25.96	43.72	235.2	1106	1405	159.5	4.758	2.532	2.341	2.298	2.841	2.757	2.952	2.926	2.967	3.278	3.287	3.403	3.340	3.304	3.328	3.464	3.259	3.219	3.260	3.252	3.242	3.344	3.081	2.899	2.757	3.099	3.006	2.773	2.745	2.980
450.0	716.0	1395	795.6	660.1	703.2	724.7	734.4	733.4	704.9	694.2	687.0	651.2	600.9	545.8	489.7	434.0	397.4	364.7	353.0	341.0	329.9	326.9	331.4	328.9	325.4	318.7	312.1	301.8	288.7	275.4	249.9	219.2	189.8	174.0	149.6	111.4	78.65	57.51	42.40	31.66	23.87	20.01	20.68	61.00	287.0	891.6	1221	430.8	11.32	2.542	2.323	2.836	2.624	2.755	2.953	2.874	3.202	3.133	3.301	3.111	3.177	3.233	3.358	3.127	3.010	3.100	3.084	3.050	2.875	2.793	2.826	2.807	2.897	2.876	2.662	2.467	2.723
455.0	423.4	1364	1322	625.9	649.7	665.6	690.0	689.9	667.5	648.5	630.1	596.9	545.7	494.8	445.1	393.6	363.0	333.8	322.0	308.2	299.3	295.5	294.9	297.0	297.0	290.2	286.9	278.6	269.6	251.9	236.7	208.6	179.4	154.0	139.8	123.8	86.73	60.88	46.67	34.76	26.68	21.04	17.27	23.52	71.47	207.5	530.7	1312	203.6	12.98	2.525	2.713	2.648	2.821	2.654	2.815	3.016	2.901	3.032	3.003	3.229	3.028	3.091	2.888	3.103	2.912	2.718	2.741	2.732	2.462	2.667	2.651	2.646	2.589	2.574	2.387	2.398
460.0	313.7	940.5	1929	763.3	605.6	622.9	639.2	659.7	629.5	608.1	588.1	557.9	517.4	464.5	408.5	371.9	334.2	310.9	296.8	284.3	277.7	273.2	272.2	275.2	273.9	271.4	262.8	258.6	254.3	239.4	222.8	196.8	170.1	146.3	128.7	123.4	95.78	65.48	48.07	37.42	28.91	23.12	17.86	16.33	24.55	53.16	130.7	702.5	1205	166.7	8.116	2.808	2.736	2.707	2.498	2.573	3.115	3.057	2.843	2.992	3.164	2.867	2.969	2.912	2.873	2.812	2.637	2.593	2.726	2.523	2.596	2.625	2.589	2.426	2.285	2.379	2.352
465.0	302.4	586.4	1957	1211	573.3	581.6	609.3	611.5	594.3	567.2	557.7	519.6	482.7	434.2	379.7	337.5	313.1	289.6	275.1	264.0	253.0	249.9	252.7	256.4	252.3	250.5	244.9	242.2	237.4	224.4	212.6	188.6	161.9	140.1	119.7	110.8	101.1	71.64	49.01	38.78	30.36	24.72	19.21	15.29	15.09	19.61	35.44	182.3	869.3	1036	136.7	4.778	2.521	2.711	2.479	2.718	2.811	2.924	2.717	2.848	2.953	2.875	2.921	2.703	2.557	2.665	2.441	2.395	2.457	2.470	2.429	2.479	2.477	2.197	2.355	2.209	2.216
470.0	289.4	400.7	1212	1970	687.8	529.8	555.2	555.9	532.9	522.7	502.4	475.1	432.4	388.0	344.4	304.4	276.8	257.4	244.9	232.6	226.4	220.1	223.8	226.0	225.0	221.0	218.9	216.4	213.6	204.6	193.6	173.4	150.7	129.3	111.2	96.94	89.67	78.03	55.39	40.10	31.90	25.57	20.27	16.64	13.64	12.93	14.68	46.70	225.4	646.7	829.5	323.1	10.97	2.791	2.559	2.566	2.690	2.765	2.536	2.625	2.545	2.575	2.543	2.543	2.426	2.388	2.285	2.250	2.117	2.278	2.103	2.162	2.074	2.046	2.233	2.006	1.982
475.0	285.4	343.7	575.4	1849	1435	500.1	498.6	499.2	485.6	465.7	450.4	426.4	386.7	342.8	301.1	267.5	243.5	229.7	215.8	206.6	200.5	194.1	195.8	197.8	197.1	194.4	192.6	190.8	188.3	183.1	171.5	156.8	137.5	120.0	101.8	88.47	76.27	73.14	62.11	44.33	33.09	26.44	21.41	17.78	14.69	11.90	10.74	16.13	55.38	149.3	342.9	858.4	203.0	13.37	2.658	2.493	2.515	2.533	2.481	2.436	2.383	2.429	2.342	2.354	2.269	2.058	2.118	2.145	2.022	1.939	1.864	1.943	1.878	2.027	1.823	1.782	1.651
480.0	269.3	318.1	408.6	1222	2100	590.8	459.4	459.6	452.1	432.2	417.1	393.0	352.2	313.1	276.1	244.7	226.3	208.6	196.7	186.6	182.3	178.1	178.4	176.2	176.9	177.5	175.3	174.6	169.2	168.6	158.2	144.5	127.5	111.7	96.15	82.48	70.14	62.95	60.80	49.86	34.56	26.82	22.63	18.37	15.33	12.12	10.52	9.845	17.61	37.87	84.50	441.0	837.9	180.4	6.574	2.427	2.350	2.458	2.324	2.336	2.186	2.324	2.388	2.302	2.118	1.806	1.905	1.876	1.947	1.846	1.995	1.779	1.760	1.844	1.825	1.742	1.485
485.0	236.9	322.9	335.0	659.4	2182	1063	423.6	434.3	422.1	410.9	393.3	360.4	327.1	286.7	254.7	229.1	210.2	194.1	182.7	174.8	164.7	166.3	163.1	162.0	163.3	161.7	159.4	162.3	159.1	156.6	148.0	134.1	119.0	105.5	91.28	79.29	66.78	57.84	54.89	52.62	38.08	28.26	22.84	18.45	15.60	13.45	11.14	8.878	9.744	13.12	23.05	114.9	586.2	795.0	28.74	3.895	2.446	2.406	2.190	2.147	2.110	2.041	2.020	2.122	2.020	1.836	1.745	1.880	1.746	1.718	1.686	1.674	1.667	1.693	1.751	1.822	1.484
490.0	195.0	307.4	311.7	401.4	1346	1906	552.9	386.2	384.0	370.9	356.1	332.7	298.3	267.4	232.9	206.4	190.5	176.0	165.1	155.8	148.6	145.4	146.4	146.0	146.6	144.9	144.4	144.5	143.5	140.2	134.7	123.0	109.8	97.79	84.18	73.77	63.00	53.96	47.27	47.81	42.82	31.62	23.88	19.12	16.26	13.80	11.97	9.877	8.356	7.920	9.462	29.52	152.1	470.8	665.3	285.2	11.55	2.431	2.225	2.034	1.972	1.931	1.892	1.846	1.930	1.793	1.780	1.686	1.742	1.639	1.607	1.587	1.529	1.530	1.538	1.550	1.459
495.0	164.0	264.2	329.0	309.6	600.0	1904	1214	368.2	339.9	333.6	319.5	300.9	268.9	243.5	206.1	183.0	168.1	155.5	145.1	138.2	130.5	127.4	126.9	129.0	129.6	129.6	127.3	128.4	125.9	124.4	121.1	109.9	99.48	88.77	77.97	68.01	58.25	50.26	42.52	40.01	39.85	36.29	26.17	19.66	16.64	14.48	11.82	10.92	8.687	7.239	6.627	10.40	37.27	109.1	307.0	795.7	224.2	14.31	2.301	1.964	1.667	1.905	1.843	1.784	1.729	1.430	1.540	1.480	1.602	1.369	1.501	1.399	1.422	1.386	1.409	1.335	1.213
500.0	148.2	224.5	317.2	282.0	357.9	1289	1935	414.4	319.1	302.8	293.9	273.3	244.6	216.6	190.3	167.0	152.7	141.6	131.7	125.6	120.0	116.6	114.0	117.9	116.8	116.0	115.4	113.9	114.3	116.3	109.2	101.7	91.96	80.52	72.06	63.18	54.96	47.57	40.26	35.85	34.90	35.82	29.95	20.33	17.08	14.57	11.74	10.59	8.913	7.444	6.259	6.391	11.50	27.42	75.58	405.4	797.9	191.7	7.075	2.016	1.583	1.774	1.794	1.656	1.520	1.490	1.545	1.429	1.440	1.383	1.337	1.366	1.345	1.243	1.400	1.268	1.237
505.0	143.7	204.3	297.6	272.2	284.3	664.4	2165	762.6	287.1	276.8	271.6	253.8	222.5	197.3	173.2	152.8	136.9	129.9	119.1	112.9	108.9	106.1	103.8	106.8	103.8	104.9	106.1	102.0	103.5	105.3	99.50	92.68	84.03	74.28	66.38	58.42	51.14	44.30	38.14	34.03	30.86	31.69	31.01	21.88	16.92	14.44	12.37	10.67	8.991	7.603	6.396	5.529	5.980	9.207	19.66	104.5	524.3	729.5	31.50	3.325	1.678	1.679	1.520	1.517	1.545	1.546	1.470	1.460	1.286	1.301	1.213	1.189	1.162	1.191	1.293	1.236	1.334
510.0	120.6	165.2	252.1	287.3	245.5	345.7	1393	1686	318.8	246.3	236.5	223.1	197.1	171.7	151.8	133.4	120.4	112.2	104.5	98.36	94.80	92.08	90.06	91.86	90.28	90.21	91.51	90.09	90.25	90.11	86.94	80.97	73.45	65.67	58.77	52.78	46.30	40.57	35.59	30.92	28.03	25.99	27.60	24.89	18.45	14.22	11.99	10.49	8.790	7.570	6.585	5.478	4.716	5.171	7.200	25.93	134.3	412.9	544.0	132.1	10.86	1.757	1.625	1.542	1.390	1.427	1.287	1.310	1.254	1.199	1.219	1.085	1.180	1.101	1.130	1.064	1.188
515.0	107.1	141.5	179.3	278.7	226.6	236.8	544.4	1978	890.8	218.1	205.7	193.7	173.6	150.0	129.8	115.3	105.0	95.76	89.50	85.24	82.24	78.57	77.73	78.35	77.81	77.81	77.95	76.89	77.38	78.09	74.00	70.75	63.28	57.45	50.61	46.52	41.00	35.56	31.33	28.70	24.74	22.24	21.62	22.94	21.41	14.95	11.47	9.940	8.361	7.172	6.356	5.881	4.797	4.282	4.333	8.233	32.28	94.61	226.2	580.1	216.3	12.65	1.711	1.417	1.364	1.211	1.132	1.118	1.155	1.047	1.103	1.079	1.015	1.068	1.062	0.979	1.022
520.0	99.15	122.3	152.3	238.3	229.1	196.9	268.1	1372	1696	259.8	186.2	172.8	151.4	135.8	117.9	104.1	94.88	84.74	79.98	75.58	71.67	68.87	68.00	69.67	68.39	69.11	69.19	69.45	68.83	68.60	65.07	62.57	56.61	50.67	46.48	41.87	37.52	32.69	28.58	26.10	22.72	20.34	18.88	19.66	21.31	16.77	11.81	9.678	8.225	7.126	6.108	5.728	4.892	4.057	3.764	4.411	9.516	23.27	55.07	288.5	586.9	175.7	6.260	1.378	1.246	1.112	1.134	1.078	1.007	0.963	1.033	0.904	1.050	0.964	0.847	0.961	0.924
525.0	92.06	114.6	141.6	186.0	233.7	179.7	193.1	659.4	2174	542.0	167.2	158.2	139.4	123.5	104.6	93.63	82.13	77.35	73.02	68.22	64.64	63.22	61.65	61.80	60.58	62.35	62.19	61.79	60.61	61.42	59.37	56.38	51.36	46.49	41.98	37.45	33.54	29.65	27.44	23.59	20.84	19.33	16.74	16.65	18.77	18.10	12.41	9.522	8.149	6.907	5.857	5.487	5.052	4.233	3.349	3.341	4.521	7.240	14.13	73.20	354.9	534.4	31.99	2.590	1.285	1.171	1.037	1.125	0.990	0.990	0.871	0.823	0.930	0.923	0.815	0.917	0.940
530.0	80.35	102.0	120.5	141.4	211.8	185.3	157.1	277.2	1480	1546	208.3	139.1	122.1	108.8	92.17	80.65	71.31	67.11	62.33	58.54	56.15	54.50	53.40	53.41	52.91	52.60	51.54	52.92	52.64	53.09	50.50	48.11	44.35	40.39	36.28	32.19	29.20	26.69	23.95	21.52	18.88	17.01	15.52	14.71	14.35	16.09	14.36	10.25	7.812	6.566	5.575	5.038	4.596	4.218	3.642	3.131	3.003	3.648	4.998	18.11	89.23	279.6	381.9	131.7	10.47	1.277	1.006	1.062	1.020	0.849	0.841	0.807	0.828	0.807	0.805	0.770	0.842
535.0	78.77	87.95	99.45	113.8	157.1	195.1	139.2	161.6	532.5	2022	722.8	120.8	105.2	90.53	80.37	68.85	63.04	56.96	52.93	49.98	45.85	45.63	45.01	44.75	44.15	45.48	43.78	43.47	45.08	44.75	43.40	40.85	37.21	33.70	30.95	27.25	25.41	22.82	20.86	18.50	16.71	14.87	13.76	12.63	12.04	12.11	13.54	11.66	8.031	6.208	5.126	4.629	4.288	3.744	3.827	3.129	2.641	2.716	2.750	5.555	21.44	63.95	143.4	405.3	204.6	12.57	1.061	0.942	0.886	0.758	0.828	0.780	0.704	0.766	0.779	0.701	0.750
540.0	78.01	78.19	94.84	95.23	120.4	185.6	140.2	121.6	208.6	1411	1540	148.5	93.16	78.69	71.21	60.72	55.29	52.09	47.16	43.73	41.00	39.28	39.83	39.32	39.43	39.49	38.27	38.05	38.89	39.27	37.63	36.98	32.81	29.73	27.46	24.66	22.40	19.93	18.80	16.65	15.03	13.32	12.22	11.18	10.46	10.06	11.18	11.96	8.694	6.146	4.917	4.390	4.092	3.591	3.497	3.193	2.829	2.403	2.302	2.764	6.111	15.69	34.50	186.5	411.5	156.3	5.488	1.066	0.843	0.804	0.749	0.654	0.795	0.650	0.736	0.712	0.655
545.0	61.53	72.26	82.45	87.44	95.50	159.7	150.4	106.0	122.2	636.7	2105	224.3	82.91	70.67	62.41	53.54	49.38	44.87	42.35	38.58	35.63	35.96	35.24	34.45	35.17	34.52	33.93	33.29	34.10	34.70	33.84	31.57	28.84	26.50	24.24	21.96	20.02	18.01	16.36	15.10	13.83	12.40	11.48	10.45	9.524	8.834	9.117	10.48	9.184	6.243	4.851	3.944	3.471	3.408	3.131	3.236	2.847	2.513	2.119	2.150	2.715	4.775	8.932	46.09	225.9	377.5	31.96	2.484	0.870	0.759	0.723	0.665	0.674	0.703	0.734	0.709	0.663
550.0	59.89	65.00	69.67	75.33	76.13	109.2	153.9	96.20	92.09	222.5	1396	1203	109.3	59.78	52.85	44.17	40.78	37.48	34.82	32.13	30.23	29.83	29.31	28.87	28.37	28.36	27.53	27.99	28.07	28.61	27.66	25.59	24.12	22.00	20.38	18.57	16.83	15.42	13.91	12.64	11.61	11.02	9.776	8.824	8.387	7.303	6.995	7.448	8.344	6.962	4.881	3.888	3.242	2.966	2.758	2.734	2.678	2.566	2.061	1.772	1.827	2.243	3.130	11.33	55.67	177.4	231.2	122.3	10.70	0.858	0.758	0.653	0.631	0.621	0.635	0.614	0.635
555.0	59.05	59.33	59.14	61.39	63.72	71.89	128.1	112.3	72.64	103.8	454.8	1787	434.9	49.25	42.47	36.82	33.66	30.40	29.17	26.22	25.20	24.60	22.91	23.34	22.59	22.56	22.29	22.72	22.90	22.78	21.65	20.45	20.26	17.77	16.70	14.91	13.69	12.82	10.89	10.84	9.776	9.268	8.213	7.276	6.821	6.269	5.741	5.767	6.108	6.625	5.625	3.917	2.852	2.507	2.250	2.410	2.321	2.281	2.214	1.612	1.608	1.585	1.814	3.562	13.57	40.60	81.76	247.7	169.4	12.02	0.854	0.644	0.623	0.568	0.591	0.657	0.577
560.0	54.90	56.09	58.02	57.06	54.33	58.75	98.06	125.6	66.56	74.75	157.2	1262	1122	65.42	37.18	31.10	28.15	25.82	24.32	23.01	21.17	20.23	19.38	20.39	19.44	18.84	18.38	19.18	19.63	18.86	18.91	17.21	16.28	14.81	13.66	12.86	11.44	10.71	9.458	8.880	8.226	7.789	6.896	6.558	6.051	5.695	5.031	4.587	4.657	5.141	5.564	4.069	2.553	2.452	2.185	2.046	2.015	1.973	2.173	1.722	1.438	1.295	1.264	1.784	3.888	10.07	19.47	99.51	254.6	116.2	5.559	0.642	0.685	0.587	0.570	0.585	0.523
565.0	52.56	60.88	64.52	52.80	46.81	52.25	65.21	127.3	72.16	61.07	75.48	529.5	1663	142.7	32.36	27.12	23.99	22.16	20.78	18.97	17.77	16.77	16.71	16.45	16.06	16.57	16.29	16.20	16.74	16.63	16.10	14.75	13.90	12.32	11.62	11.15	9.879	8.866	8.425	7.728	7.364	6.460	5.663	5.715	5.091	4.747	4.595	3.930	3.829	4.073	4.701	4.179	2.772	2.186	2.073	1.962	1.704	1.673	1.964	1.974	1.392	1.194	1.160	1.193	1.708	3.082	5.153	23.99	116.1	226.2	32.97	2.435	0.664	0.556	0.558	0.531	0.492
570.0	54.86	64.04	58.24	47.82	43.54	42.57	48.36	94.12	94.28	56.27	55.66	165.8	1130	859.5	50.25	22.77	19.63	18.25	16.70	15.03	14.42	13.67	14.14	13.12	12.87	13.18	13.01	13.06	13.19	13.16	12.69	12.09	11.38	9.971	9.402	8.869	8.046	7.208	6.806	6.464	6.143	5.252	4.892	4.720	4.353	3.988	3.780	3.299	3.094	2.940	3.475	3.780	3.188	2.214	1.704	1.674	1.596	1.398	1.446	1.634	1.593	1.214	1.051	1.048	1.148	1.383	1.851	6.129	27.90	92.25	145.5	87.04	10.65	0.644	0.557	0.520	0.448
575.0	61.24	60.13	55.63	44.96	37.66	38.19	34.18	56.18	107.9	60.48	48.51	68.77	349.2	1331	274.2	19.41	16.72	14.69	13.23	12.51	11.69	10.63	10.94	10.42	10.60	10.37	9.594	10.01	10.28	10.60	10.09	9.389	8.820	7.637	7.676	6.632	6.476	6.143	5.630	5.313	4.896	4.517	4.106	3.762	3.577	3.525	3.249	2.973	2.669	2.252	2.374	2.887	2.902	2.539	1.683	1.457	1.457	1.330	1.271	1.233	1.454	1.452	1.270	0.947	0.980	1.068	1.108	2.039	6.896	21.18	42.94	128.8	115.3	12.06	0.647	0.476	0.473
580.0	53.76	65.33	53.97	48.07	34.79	35.75	34.23	41.05	90.87	79.28	45.96	49.22	109.4	918.9	771.7	27.12	14.14	12.63	10.97	10.24	10.24	9.250	8.643	8.949	9.117	8.625	8.758	8.653	8.709	8.676	8.578	7.739	7.809	6.969	6.246	5.852	5.082	5.031	4.559	4.319	3.949	3.765	3.553	3.418	2.986	2.901	2.699	2.435	2.128	1.954	1.883	2.152	2.638	2.600	1.753	1.292	1.293	1.192	1.093	1.085	1.170	1.310	1.363	1.040	0.891	0.891	0.979	1.131	2.170	5.300	10.37	45.52	141.8	84.84	5.974	0.485	0.401
585.0	52.65	65.91	56.81	41.24	33.41	30.57	31.07	33.35	67.06	95.30	46.55	44.56	50.67	367.0	1152	85.44	12.96	10.81	9.906	8.936	8.863	8.120	7.558	7.802	7.893	7.387	7.368	7.504	7.177	7.642	7.286	6.733	6.224	6.053	5.144	5.015	4.692	4.489	3.937	3.755	3.659	3.318	3.121	2.940	2.724	2.564	2.289	2.091	1.979	1.860	1.622	1.800	2.010	2.298	1.938	1.486	1.203	1.103	1.032	0.943	1.074	1.039	1.267	1.105	0.854	0.867	0.885	0.923	1.150	1.812	2.975	10.95	56.78	135.1	33.22	2.705	0.369
590.0	51.54	59.56	54.22	37.55	32.42	28.62	30.33	30.90	47.22	94.79	63.15	43.85	38.22	110.7	756.0	542.5	22.28	9.497	8.090	7.391	7.371	6.847	6.215	6.416	6.242	5.897	5.997	6.344	5.872	6.044	6.169	5.556	5.410	4.926	4.421	4.127	3.781	3.771	3.203	3.226	3.061	2.798	2.446	2.410	2.291	2.242	1.972	1.893	1.618	1.485	1.361	1.384	1.354	1.806	1.979	1.654	1.259	1.049	0.996	0.868	0.914	0.880	0.995	1.074	0.996	0.827	0.792	0.859	0.862	0.992	1.227	2.911	13.40	48.75	84.17	60.34	9.997
595.0	52.47	54.23	55.16	37.68	32.31	29.45	29.45	30.44	38.75	70.85	88.63	48.18	36.65	46.74	226.2	828.9	91.84	8.252	7.028	6.306	5.701	5.519	5.436	4.986	4.925	5.040	4.678	5.097	4.994	4.787	4.891	4.239	4.370	3.912	3.597	3.353	3.337	2.753	2.586	2.434	2.406	2.321	2.192	2.036	1.764	1.788	1.716	1.570	1.324	1.196	1.240	1.132	1.124	1.235	1.545	1.760	1.273	1.009	0.776	0.848	0.900	0.758	0.798	0.859	0.996	1.081	0.676	0.681	0.815	0.774	0.816	1.161	3.429	11.28	22.53	68.46	75.81
600.0	53.72	58.69	57.99	41.07	32.35	30.05	31.73	32.47	42.01	56.88	97.98	56.26	41.03	36.25	71.65	579.4	437.7	13.15	6.513	5.817	5.060	4.861	4.490	4.487	4.276	4.273	4.098	4.329	4.245	4.008	4.201	3.786	3.752	3.257	2.978	3.011	2.915	2.361	2.404	2.120	2.094	2.030	1.844	1.730	1.653	1.546	1.557	1.413	1.319	1.128	1.080	1.018	1.001	1.010	1.192	1.398	1.383	1.090	0.855	0.742	0.765	0.639	0.713	0.788	0.884	1.100	0.923	0.709	0.671	0.720	0.752	0.778	1.212	2.977	5.444	21.92	79.10
605.0	63.44	61.03	57.49	39.96	34.61	32.26	37.77	40.96	46.82	60.31	103.0	85.42	54.15	41.42	42.89	240.6	699.4	53.60	6.050	5.321	4.237	4.341	3.849	3.828	3.782	3.606	3.535	3.503	3.678	3.659	3.553	3.073	3.078	2.848	2.483	2.551	2.440	2.261	2.088	1.909	1.704	1.837	1.664	1.445	1.536	1.418	1.341	1.240	1.278	0.973	0.964	0.900	0.885	0.809	0.911	1.223	1.405	1.126	0.933	0.756	0.687	0.735	0.713	0.723	0.789	1.138	1.081	0.951	0.694	0.741	0.673	0.674	0.802	1.173	1.633	5.390	27.88
610.0	63.31	63.59	58.77	47.00	38.31	37.08	45.86	56.74	66.90	81.95	114.4	133.7	87.49	63.75	54.46	90.57	496.6	348.3	12.50	4.462	3.788	3.764	3.206	2.986	3.319	3.124	2.925	2.830	3.089	2.985	2.913	2.717	2.670	2.234	2.114	2.085	1.973	1.870	1.802	1.620	1.594	1.403	1.405	1.320	1.173	1.213	1.096	1.174	1.067	0.882	0.887	0.880	0.773	0.805	0.829	0.900	1.159	1.127	1.036	0.852	0.845	0.817	0.740	0.782	0.925	0.940	1.066	1.207	0.878	0.781	0.765	0.686	0.725	0.810	0.884	1.724	6.750
615.0	61.12	69.29	62.95	51.17	40.42	40.35	48.64	61.80	72.13	90.67	114.0	145.6	114.8	77.10	61.24	56.85	174.8	551.7	66.57	4.031	3.500	3.066	2.688	2.795	3.003	2.487	2.407	2.409	2.268	2.316	2.374	2.306	2.086	1.990	1.813	1.821	1.721	1.505	1.467	1.447	1.327	1.219	1.160	1.054	1.028	1.148	1.007	1.015	1.029	0.777	0.765	0.749	0.728	0.677	0.748	0.761	0.949	1.026	1.088	0.943	0.845	0.746	0.818	0.812	0.915	0.935	0.900	1.195	1.038	0.826	0.832	0.679	0.799	0.724	0.678	0.807	2.027
620.0	65.65	66.78	64.20	49.58	42.79	44.38	49.63	59.50	70.44	87.11	106.3	130.9	123.9	81.57	63.90	47.16	72.84	404.0	280.2	6.016	3.168	2.771	2.726	2.577	2.350	2.169	2.309	2.113	2.027	2.293	2.091	2.122	1.653	1.527	1.656	1.583	1.596	1.229	1.345	1.322	1.242	1.041	1.138	0.911	0.903	0.993	0.908	0.854	0.897	0.811	0.693	0.645	0.706	0.638	0.713	0.705	0.737	0.860	1.009	1.027	0.841	0.728	0.811	0.782	0.858	0.954	0.892	0.921	1.018	0.984	0.837	0.749	0.652	0.703	0.647	0.668	0.944
625.0	60.13	71.92	67.44	53.31	43.82	41.37	51.27	60.63	68.19	83.50	101.5	117.9	128.7	85.14	64.33	44.21	48.30	180.6	464.4	28.68	3.042	2.447	2.571	2.136	1.985	1.886	1.757	1.769	1.911	1.863	2.041	1.680	1.499	1.450	1.780	1.477	1.415	1.147	1.157	1.177	1.119	0.851	0.960	0.769	0.956	0.873	0.757	0.761	0.752	0.672	0.611	0.552	0.657	0.590	0.600	0.617	0.603	0.728	0.860	0.998	0.870	0.756	0.635	0.806	0.787	0.831	0.813	0.910	0.926	1.023	0.980	0.648	0.720	0.742	0.712	0.617	0.719
630.0	61.64	71.55	73.16	53.11	45.80	43.02	52.13	60.27	66.94	78.11	94.25	108.2	121.2	94.65	65.61	44.60	42.12	61.40	347.5	183.8	5.361	2.128	2.088	1.927	1.765	1.653	1.536	1.538	1.594	1.624	1.686	1.443	1.350	1.272	1.314	1.264	1.262	1.066	1.110	0.958	0.956	0.797	0.843	0.675	0.780	0.737	0.718	0.686	0.692	0.596	0.567	0.568	0.594	0.489	0.559	0.578	0.638	0.592	0.744	0.840	0.875	0.767	0.701	0.739	0.709	0.784	0.785	0.851	0.849	0.964	0.994	0.751	0.849	0.722	0.685	0.572	0.634
635.0	64.68	76.96	73.34	60.78	44.27	41.27	51.48	58.47	67.02	79.72	92.44	102.8	109.2	102.6	68.14	46.57	42.51	30.98	111.2	376.4	45.45	2.230	1.956	1.724	1.630	1.342	1.497	1.326	1.437	1.449	1.472	1.243	1.065	1.114	1.094	1.047	1.104	0.913	0.905	0.846	0.794	0.743	0.724	0.643	0.724	0.668	0.606	0.582	0.659	0.539	0.598	0.637	0.487	0.466	0.466	0.570	0.631	0.562	0.637	0.695	0.750	0.773	0.755	0.688	0.739	0.748	0.726	0.874	0.814	0.867	0.943	0.842	0.921	0.734	0.692	0.597	0.676
640.0	66.10	80.35	78.31	59.46	46.38	40.97	48.70	58.98	65.29	75.88	92.48	101.7	103.0	105.1	74.70	46.81	41.13	23.95	33.50	304.1	176.5	3.253	1.810	1.551	1.501	1.225	1.316	1.235	1.332	1.197	1.198	1.199	1.111	1.153	1.052	1.017	1.005	0.812	0.860	0.827	0.816	0.663	0.601	0.575	0.622	0.591	0.613	0.535	0.599	0.523	0.549	0.569	0.486	0.466	0.527	0.535	0.539	0.606	0.630	0.690	0.719	0.860	0.725	0.747	0.730	0.758	0.728	0.868	0.758	0.956	0.843	0.838	0.818	0.749	0.738	0.578	0.591
645.0	75.35	78.52	77.41	58.48	46.29	43.02	48.09	55.91	59.94	74.83	88.13	95.89	98.37	96.23	79.31	48.12	40.84	22.67	14.16	142.2	320.2	14.29	1.912	1.514	1.443	1.196	1.163	1.113	1.103	0.973	1.144	1.208	1.103	0.974	0.946	0.955	0.819	0.812	0.702	0.719	0.701	0.659	0.577	0.548	0.492	0.602	0.584	0.612	0.533	0.535	0.489	0.529	0.456	0.440	0.449	0.446	0.541	0.573	0.598	0.612	0.682	0.716	0.761	0.705	0.647	0.687	0.788	0.786	0.808	0.828	0.805	0.793	0.858	0.741	0.781	0.598	0.581
650.0	66.74	76.08	77.46	59.16	48.12	40.76	49.01	54.26	56.83	69.13	83.91	90.54	92.69	86.60	82.56	46.56	39.34	22.17	9.823	44.09	329.9	59.34	1.792	1.396	1.286	1.171	1.173	1.011	1.209	1.007	1.193	0.931	1.046	1.015	0.790	0.848	0.797	0.766	0.717	0.679	0.617	0.633	0.552	0.527	0.549	0.545	0.623	0.658	0.541	0.467	0.505	0.401	0.479	0.459	0.500	0.493	0.430	0.519	0.536	0.613	0.581	0.591	0.710	0.740	0.679	0.706	0.771	0.792	0.740	0.760	0.786	0.671	0.819	0.891	0.772	0.618	0.599
