Sample:	'1
File name:	t2025032602‘Û–≈∫√—ı≥ÿ.FD3
Run date:	'11:08:01, 03/27/2025
Operator:	Administrator
Comment:	'

Instrument
Model:	F-2700 FL Spectrophotometer
Serial number:	23B8-004
ROM Version:	4J14000 07

Instrument parameters
Measurement type:	3-D scan
Data mode:	Fluorescence
EX  Start WL:	220.0 nm
EX  End WL:	600.0 nm
EX Sampling interval:	5.0 nm
EM  Start WL:	230.0 nm
EM  End WL:	650.0 nm
EM Sampling interval:	5.0 nm
Scan speed:	12000 nm/min
EX Slit:	5.0 nm
EM Slit:	5.0 nm
PMT Voltage:	700 V
Response:	Auto 
Corrected spectra:	Off
Contour interval:	50.000

Peak integration
Integration method:	Rectangular
Sensitivity:	1
Threshold:	1.000

Peaks
No.	ApexEX/EM(nm)	Height(Data)
1	225.0/590.0	115.2
2	225.0/605.0	94.20
3	225.0/625.0	74.72
4	230.0/340.0	3293
5	250.0/425.0	3279
6	275.0/605.0	126.8
7	285.0/415.0	3867
8	335.0/415.0	3915
9	345.0/435.0	3800
10	460.0/345.0	10.11

Data points
	220.0	225.0	230.0	235.0	240.0	245.0	250.0	255.0	260.0	265.0	270.0	275.0	280.0	285.0	290.0	295.0	300.0	305.0	310.0	315.0	320.0	325.0	330.0	335.0	340.0	345.0	350.0	355.0	360.0	365.0	370.0	375.0	380.0	385.0	390.0	395.0	400.0	405.0	410.0	415.0	420.0	425.0	430.0	435.0	440.0	445.0	450.0	455.0	460.0	465.0	470.0	475.0	480.0	485.0	490.0	495.0	500.0	505.0	510.0	515.0	520.0	525.0	530.0	535.0	540.0	545.0	550.0	555.0	560.0	565.0	570.0	575.0	580.0	585.0	590.0	595.0	600.0
230.0	37.13	687.5	1363	354.3	14.35	5.482	5.050	4.139	3.935	3.956	3.910	4.400	3.808	3.711	3.333	3.015	3.165	2.790	2.723	2.634	2.674	2.415	2.330	2.408	2.287	2.239	2.072	2.044	2.026	1.979	1.785	1.625	1.474	1.460	1.341	1.145	1.009	0.922	0.851	0.764	0.730	0.665	0.683	0.587	0.547	0.492	1.332	3.768	5.418	3.464	1.321	0.475	0.316	0.298	0.329	0.291	0.281	0.298	0.271	0.252	0.231	0.256	0.258	0.229	0.233	0.218	0.240	0.219	0.201	0.220	0.198	0.189	0.194	0.196	0.212	0.193	0.192
235.0	33.88	199.3	985.2	1478	420.0	24.64	6.112	5.512	4.967	4.319	3.956	4.025	3.921	4.065	3.117	3.023	3.259	2.738	2.770	2.773	2.728	2.359	2.426	2.295	2.348	2.382	2.008	2.102	1.966	1.829	1.801	1.792	1.612	1.361	1.334	1.104	1.151	0.874	0.861	0.737	0.703	0.596	0.685	0.651	0.599	0.542	0.667	1.274	2.468	4.196	5.487	5.273	2.447	0.704	0.354	0.314	0.279	0.310	0.353	0.249	0.241	0.217	0.241	0.242	0.198	0.257	0.285	0.209	0.176	0.228	0.211	0.197	0.201	0.182	0.207	0.232	0.276
240.0	39.63	65.95	317.6	1469	1759	344.2	12.33	5.687	5.033	4.481	4.628	3.767	4.115	4.053	3.413	2.998	3.337	2.951	2.957	2.732	2.579	2.557	2.568	2.323	2.406	2.456	1.871	2.104	1.870	1.787	1.799	1.718	1.652	1.325	1.347	1.185	1.170	0.988	0.720	0.742	0.632	0.564	0.583	0.682	0.595	0.530	0.547	0.697	0.858	1.463	3.467	7.648	9.347	6.283	2.031	0.443	0.339	0.308	0.303	0.249	0.235	0.253	0.223	0.253	0.245	0.272	0.218	0.233	0.184	0.228	0.247	0.201	0.170	0.196	0.248	0.189	0.201
245.0	35.29	46.96	85.55	545.3	2183	1966	242.9	8.625	5.492	5.373	4.845	4.341	4.603	4.304	4.040	3.522	3.329	3.306	2.973	3.287	2.440	2.635	2.589	2.450	2.320	2.383	2.096	2.242	2.006	1.917	1.937	1.727	1.726	1.295	1.375	1.234	1.112	1.106	0.926	0.872	0.674	0.567	0.619	0.652	0.548	0.514	0.574	0.656	0.553	0.625	1.094	2.945	7.147	11.74	11.51	6.011	1.702	0.405	0.349	0.358	0.246	0.269	0.218	0.254	0.196	0.292	0.224	0.236	0.210	0.220	0.179	0.190	0.184	0.202	0.267	0.226	0.230
250.0	25.80	36.76	54.49	145.2	746.2	2255	2858	958.6	48.68	8.011	6.306	5.898	4.864	4.732	4.474	3.669	3.689	3.488	3.242	3.112	2.891	2.576	2.593	2.629	2.393	2.413	2.233	2.419	1.982	2.056	1.857	1.835	1.542	1.488	1.436	1.185	1.127	1.076	0.936	0.811	0.732	0.659	0.644	0.610	0.529	0.568	0.522	0.577	0.514	0.536	0.561	0.946	1.972	4.065	7.508	11.77	15.50	13.90	7.766	2.111	0.389	0.252	0.272	0.267	0.225	0.264	0.227	0.230	0.201	0.232	0.178	0.199	0.207	0.205	0.230	0.208	0.232
255.0	26.65	26.37	38.81	80.21	185.7	589.9	2540	4936	1399	48.59	8.414	7.316	6.101	5.930	4.990	4.413	3.817	3.612	3.751	3.098	2.880	2.849	2.659	2.792	2.523	2.666	2.138	2.682	2.054	2.106	1.882	1.758	1.573	1.555	1.468	1.236	1.169	1.086	0.951	0.810	0.759	0.725	0.701	0.558	0.609	0.622	0.576	0.521	0.427	0.507	0.466	0.587	0.777	1.224	1.937	3.059	6.173	14.71	27.68	25.67	12.11	2.241	0.378	0.303	0.245	0.287	0.267	0.279	0.243	0.217	0.221	0.285	0.216	0.192	0.204	0.264	0.200
260.0	27.92	19.53	25.95	59.47	83.41	148.2	792.4	4423	5853	264.6	26.78	9.533	7.515	6.228	5.296	4.969	4.165	3.903	3.996	3.204	3.066	3.002	2.898	3.006	2.758	2.565	2.474	2.386	2.068	2.227	2.229	1.678	1.663	1.483	1.603	1.273	1.169	1.051	0.870	0.990	0.800	0.721	0.708	0.650	0.539	0.660	0.588	0.437	0.510	0.431	0.434	0.559	0.612	0.615	0.754	0.943	1.665	4.140	12.27	26.67	32.83	24.32	10.22	1.214	0.320	0.312	0.307	0.277	0.231	0.299	0.231	0.292	0.261	0.232	0.221	0.228	0.272
265.0	26.09	24.97	18.89	36.65	75.84	74.81	197.5	1534	6712	6048	210.7	17.42	9.871	7.007	6.552	4.734	4.696	4.618	3.964	3.477	3.228	2.976	3.151	3.437	2.767	2.617	2.692	2.572	2.561	2.213	2.303	1.985	1.633	1.625	1.595	1.290	1.177	1.058	0.940	0.804	0.872	0.765	0.731	0.672	0.644	0.626	0.570	0.466	0.550	0.442	0.396	0.430	0.550	0.797	0.591	0.478	0.628	1.265	3.163	8.013	19.80	39.25	32.83	22.42	6.505	0.593	0.310	0.321	0.345	0.245	0.405	0.255	0.224	0.252	0.291	0.257	0.211
270.0	57.22	35.96	25.99	24.12	45.42	80.98	98.53	375.8	2163	6666	8621	844.4	55.59	11.42	8.556	6.458	5.606	4.911	4.315	3.859	3.660	3.373	3.318	3.320	2.850	2.993	2.862	2.636	2.501	2.306	2.407	2.124	1.747	1.704	1.584	1.412	1.198	1.084	1.097	0.971	0.937	0.781	0.873	0.736	0.713	0.661	0.590	0.545	0.497	0.484	0.419	0.410	0.446	0.537	0.605	0.666	0.611	0.662	1.116	2.150	4.956	11.43	20.08	36.60	37.99	43.31	15.73	6.517	0.808	0.374	0.306	0.304	0.272	0.287	0.294	0.276	0.284
275.0	139.2	82.12	55.15	35.09	33.99	52.63	120.8	161.4	535.0	1671	6466	9999.9	1238	58.85	13.00	9.861	7.187	6.370	5.120	4.548	4.395	3.718	3.604	3.548	3.335	3.141	2.964	2.688	2.738	2.385	2.492	2.275	1.894	2.010	1.655	1.604	1.325	1.193	1.250	1.086	1.077	1.080	0.996	0.918	0.839	0.799	0.799	0.742	0.618	0.536	0.475	0.450	0.466	0.492	0.454	0.679	0.733	0.966	0.981	1.015	1.559	3.014	4.988	8.759	11.82	31.88	66.03	79.86	25.90	8.154	0.693	0.360	0.396	0.336	0.344	0.336	0.370
280.0	217.4	149.2	94.81	58.31	49.48	47.99	101.0	185.9	217.4	463.0	1854	9999.9	9999.9	926.2	35.26	12.95	9.525	7.855	5.775	5.150	5.115	4.121	3.773	3.960	3.393	3.293	3.186	3.015	2.803	2.624	2.490	2.414	2.050	2.073	1.726	1.880	1.635	1.355	1.374	1.200	1.362	1.248	1.258	1.274	1.152	0.983	0.951	0.914	0.740	0.669	0.502	0.570	0.524	0.499	0.576	0.547	0.561	0.918	1.159	1.226	1.078	1.291	1.693	2.555	3.277	8.117	22.32	54.94	88.74	84.43	22.42	4.529	0.584	0.544	0.405	0.345	0.365
285.0	328.3	250.3	162.2	105.6	71.46	64.50	88.56	186.9	239.5	258.0	588.0	3117	9999.9	9010	129.7	22.59	12.74	9.186	7.740	6.355	5.369	4.859	4.196	4.031	3.478	3.442	3.230	3.325	3.069	2.480	2.423	2.449	2.188	2.127	1.909	2.139	1.875	1.689	1.680	1.493	1.469	1.401	1.564	1.563	1.462	1.203	1.206	1.228	0.929	0.838	0.742	0.672	0.681	0.602	0.613	0.674	0.684	0.774	1.014	1.218	1.370	1.245	1.356	1.531	1.662	2.777	5.882	14.48	34.54	77.80	109.2	32.60	17.77	2.112	0.521	0.397	0.392
290.0	534.8	460.2	341.8	214.3	144.8	115.6	132.4	201.0	334.4	412.0	505.0	1061	3335	9999.9	9999.9	2713	46.58	14.37	10.73	8.287	6.711	5.701	5.306	4.530	4.503	4.060	3.757	3.437	3.322	2.932	2.717	2.616	2.300	2.509	2.285	2.330	2.317	2.148	2.128	1.921	1.766	1.692	1.786	1.822	1.689	1.616	1.696	1.639	1.506	1.235	0.993	1.009	0.945	0.868	0.864	0.865	0.867	0.969	1.086	1.279	1.555	1.859	2.190	2.282	2.221	2.345	3.209	4.915	9.459	20.40	40.63	58.00	92.27	75.28	64.60	12.80	3.145
295.0	724.6	697.3	563.0	368.1	264.9	199.6	215.9	282.3	412.1	634.0	809.7	859.7	1280	2648	8105	9999.9	3919	54.84	16.30	12.01	8.698	7.556	6.089	5.723	4.808	4.691	4.119	3.870	3.442	3.589	3.245	3.043	2.763	2.411	2.424	2.704	2.525	2.409	2.236	2.391	2.156	2.097	2.178	2.179	2.108	2.310	2.071	2.348	2.060	1.679	1.381	1.472	1.435	1.191	1.238	1.245	1.246	1.203	1.499	1.630	1.832	2.099	2.685	3.225	3.700	3.543	3.692	3.865	5.006	7.125	11.43	14.74	23.49	36.95	97.79	144.8	35.17
300.0	872.4	894.9	709.6	502.1	365.8	274.1	301.0	359.9	510.7	749.7	1067	1088	1017	1049	2291	9999.9	9999.9	644.1	39.54	16.04	10.79	9.215	7.929	6.516	5.400	4.816	4.738	4.223	3.591	3.653	3.251	3.222	2.627	2.854	2.621	2.998	2.935	2.656	2.967	2.504	2.673	2.443	2.304	2.466	2.325	2.690	2.500	2.771	2.379	2.077	1.836	1.927	1.668	1.617	1.435	1.479	1.666	1.628	1.742	1.877	2.162	2.519	3.234	3.499	4.190	5.115	5.211	4.788	5.145	5.001	5.440	5.920	7.324	9.685	27.23	69.35	123.1
305.0	980.6	1007	859.4	606.2	444.3	364.3	384.7	470.7	628.1	884.5	1208	1400	1170	850.1	854.9	3077	9999.9	9999.9	494.1	26.39	15.36	11.56	9.267	7.890	6.745	5.846	4.838	4.771	4.315	4.211	3.745	3.545	3.067	2.941	2.882	2.989	3.065	2.888	2.965	2.574	2.542	2.531	2.579	2.763	2.778	3.208	2.908	3.090	2.785	2.408	2.061	2.188	1.938	1.970	1.709	1.699	2.081	2.064	2.125	2.362	2.462	2.884	3.473	4.182	4.572	5.581	6.087	6.185	6.187	5.492	4.804	4.573	4.097	4.170	7.696	17.33	38.71
310.0	1010	1093	962.8	710.3	540.9	460.1	485.5	578.0	755.8	1027	1337	1561	1489	1037	690.9	964.8	3251	9999.9	9999.9	2202	41.60	17.38	12.60	9.638	7.804	6.830	6.088	5.396	4.709	4.452	4.172	3.686	3.204	3.307	3.024	3.028	3.268	3.102	3.116	2.658	2.745	2.815	2.662	2.928	3.105	3.376	3.256	3.542	3.299	2.896	2.417	2.708	2.376	2.288	2.027	2.228	2.206	2.468	2.526	2.888	3.156	3.437	4.200	4.878	5.222	5.866	6.289	6.896	7.194	6.894	6.138	5.028	4.287	3.887	3.971	5.702	10.24
315.0	1124	1237	1108	839.4	626.3	556.8	597.1	699.2	888.8	1159	1465	1681	1686	1386	873.9	651.3	1015	2499	8949	9999.9	3491	49.78	19.56	13.87	10.45	8.495	7.050	6.163	5.588	4.951	4.737	3.922	3.579	3.259	3.097	3.364	3.598	3.300	3.205	3.119	2.995	3.069	2.881	3.132	3.525	3.864	3.701	4.042	3.737	3.177	2.646	3.038	2.854	2.651	2.520	2.476	2.689	2.919	3.120	3.350	3.918	3.966	4.774	5.599	6.278	6.243	6.802	7.379	7.715	7.716	7.506	6.736	5.711	4.555	3.999	3.916	4.658
320.0	1372	1587	1452	999.1	719.7	659.0	695.7	805.5	1005	1310	1643	1881	1875	1649	1136	777.8	660.4	844.5	2443	9999.9	9999.9	508.6	38.43	17.98	14.11	10.23	8.377	7.686	5.983	5.333	5.215	4.432	3.851	3.691	3.364	3.132	3.602	3.432	3.477	3.319	2.963	3.304	3.336	3.617	3.914	4.378	4.563	5.281	4.825	3.936	3.163	3.301	3.226	3.057	2.587	2.964	3.029	3.235	3.402	4.037	4.422	4.594	5.315	6.269	6.954	7.113	7.752	8.371	8.191	8.318	8.370	7.993	7.428	6.660	5.411	4.839	4.201
325.0	1704	2193	2062	1301	872.1	748.8	808.5	936.2	1157	1489	1821	2067	2099	1861	1507	986.4	731.7	588.2	803.9	3217	9999.9	9999.9	424.9	30.49	18.31	13.02	9.752	8.667	7.188	6.061	5.709	4.750	4.366	3.905	3.522	3.791	3.640	3.710	3.732	3.356	3.211	3.632	3.666	3.946	4.501	5.575	5.918	7.032	6.688	5.094	4.290	3.958	3.610	3.223	3.233	3.182	3.647	3.707	4.101	4.360	4.668	5.273	5.929	6.730	7.472	8.206	8.140	9.176	8.966	8.944	9.213	9.025	8.587	7.844	6.862	6.308	5.618
330.0	1957	2602	2567	1674	1111	932.7	947.8	1077	1319	1641	2012	2271	2331	2112	1768	1384	1004	709.7	587.3	1006	3458	9999.9	9999.9	1847	40.03	19.65	13.89	10.70	8.722	7.286	6.762	5.568	4.593	4.365	4.142	3.929	3.713	3.934	3.907	3.590	3.495	3.686	4.098	4.378	5.222	6.282	6.841	8.195	7.940	6.534	5.536	5.078	4.579	4.015	4.004	3.817	4.260	4.457	4.642	4.977	5.340	6.004	6.578	7.052	8.026	8.915	9.178	9.944	10.11	10.10	10.16	10.12	9.504	9.441	8.480	7.839	7.298
335.0	2220	2916	2978	1992	1383	1150	1106	1238	1502	1833	2224	2497	2587	2389	2065	1686	1400	1026	721.5	678.5	1081	2549	9999.9	9999.9	3155	46.24	21.40	15.11	11.48	9.219	8.133	6.499	5.658	4.742	4.583	4.084	3.833	4.195	3.906	3.957	3.753	4.043	4.452	4.707	5.867	6.630	7.646	9.047	9.408	7.651	6.357	6.365	5.748	5.321	4.923	4.514	5.029	5.237	5.103	5.914	5.927	6.612	7.816	8.110	8.723	9.486	9.917	10.56	10.93	11.63	11.22	11.34	10.90	10.69	9.710	9.461	8.794
340.0	2328	3243	3293	2284	1578	1322	1253	1381	1641	1976	2365	2627	2728	2576	2264	1891	1603	1305	942.7	736.3	659.8	852.9	2826	9999.9	9999.9	2471	40.66	19.85	14.22	11.21	8.660	7.618	6.069	5.461	4.678	4.294	4.172	4.096	3.944	4.209	3.963	4.368	4.826	5.023	6.093	7.421	8.028	9.875	9.893	8.314	7.376	7.156	6.157	5.867	5.502	5.149	5.534	5.655	5.788	6.396	6.717	7.621	8.187	8.987	9.467	10.07	9.997	11.18	11.68	12.28	11.89	12.17	11.70	11.88	10.97	10.53	9.556
345.0	2300	3182	3285	2418	1729	1441	1383	1470	1714	2042	2404	2678	2777	2656	2375	2039	1723	1486	1173	880.7	664.8	580.4	908.1	3573	9999.9	9999.9	387.7	30.60	18.81	13.70	10.20	8.138	6.819	5.619	5.041	4.559	4.507	4.390	3.901	4.384	4.066	4.561	4.784	5.109	6.146	7.374	8.092	9.641	10.11	8.613	7.458	7.567	6.848	6.176	5.891	5.443	6.023	5.901	6.268	6.678	7.070	7.642	8.408	9.434	9.767	10.30	10.78	11.47	12.05	12.27	11.91	12.50	12.30	11.83	11.32	11.36	10.72
350.0	2280	2984	3149	2463	1909	1599	1520	1595	1797	2093	2432	2687	2782	2715	2495	2210	1924	1681	1457	1188	907.7	701.0	650.7	1124	3906	9999.9	9999.9	1666	38.81	19.34	14.01	10.24	7.700	6.513	5.465	5.096	4.720	4.512	4.227	4.277	4.183	4.339	4.840	5.008	6.065	7.175	7.774	9.452	9.611	8.203	7.549	7.875	7.370	7.042	6.355	6.126	6.557	6.440	6.716	7.168	7.514	7.890	8.669	9.548	9.779	10.42	11.05	11.50	12.10	12.39	12.47	12.77	12.85	12.72	12.50	12.43	12.05
355.0	2200	2917	3078	2560	2071	1797	1689	1750	1915	2165	2487	2721	2805	2788	2602	2385	2155	1924	1720	1551	1266	996.5	812.8	761.5	1212	2624	9999.9	9999.9	2940	43.71	20.16	14.04	9.838	8.029	6.329	5.685	4.936	4.619	4.503	4.373	4.384	4.684	4.912	5.001	5.887	7.175	7.542	8.946	9.342	8.090	7.752	8.341	7.829	7.349	7.257	6.824	7.215	7.051	7.191	7.608	7.851	8.547	8.900	9.919	10.17	10.72	10.71	11.44	12.04	12.36	12.59	13.78	13.25	12.90	13.03	12.80	13.27
360.0	2145	2769	2967	2568	2198	1938	1827	1855	1999	2245	2529	2725	2816	2802	2668	2507	2315	2126	1928	1765	1572	1269	1030	831.4	701.8	898.2	3010	9999.9	9999.9	2270	37.12	18.88	12.48	9.258	7.299	6.106	5.369	4.899	4.749	4.761	4.351	4.622	4.977	5.070	5.647	6.785	7.366	8.749	9.231	8.321	7.566	8.383	7.888	7.977	7.364	7.380	7.657	7.721	7.744	8.007	8.268	8.689	9.440	10.32	10.54	10.55	11.26	11.36	11.66	12.97	12.68	13.65	13.33	13.88	13.45	13.25	13.88
365.0	2025	2626	2828	2602	2278	2049	1949	1960	2078	2288	2554	2734	2847	2824	2729	2602	2462	2309	2152	1985	1814	1570	1284	1024	774.0	610.2	949.3	4001	9999.9	9999.9	358.6	30.34	16.50	12.41	8.710	6.875	6.055	5.614	5.281	4.816	4.815	4.816	5.010	5.149	5.549	6.674	6.827	8.620	8.461	7.955	7.484	8.164	8.466	8.251	8.103	8.002	8.078	8.394	8.523	8.271	9.119	9.120	9.698	10.17	10.31	10.92	11.50	11.90	12.02	12.59	12.83	13.78	13.59	13.99	13.47	14.10	14.82
370.0	2088	2487	2831	2663	2412	2268	2111	2116	2179	2366	2580	2770	2848	2852	2825	2719	2649	2563	2443	2292	2119	1937	1677	1359	1039	769.5	646.3	1187	4388	9999.9	9999.9	1504	35.12	18.63	12.12	8.692	7.646	6.464	5.761	5.410	5.115	4.873	5.252	5.386	5.773	6.587	6.929	8.270	8.123	7.877	7.531	8.869	8.763	8.774	8.812	8.828	9.062	8.974	9.137	8.960	9.410	9.616	9.614	10.15	10.64	11.02	11.40	11.50	12.28	12.67	12.88	13.66	13.90	14.12	14.40	14.56	15.27
375.0	2066	2498	2798	2704	2567	2409	2280	2237	2283	2422	2625	2777	2874	2895	2900	2855	2830	2800	2717	2603	2452	2260	2071	1755	1379	1049	781.0	713.3	1283	2719	9999.9	9999.9	2523	39.78	18.87	12.64	9.840	7.524	6.536	6.100	5.709	5.366	5.636	5.596	5.743	6.791	6.585	7.912	8.278	7.749	7.411	9.178	9.282	9.029	9.286	8.890	9.614	9.532	9.740	9.601	9.575	9.863	10.41	10.74	11.24	11.06	11.61	11.61	12.00	12.66	13.26	13.80	14.37	14.88	15.30	15.65	16.09
380.0	2062	2557	2727	2760	2633	2513	2382	2353	2368	2468	2653	2799	2894	2937	2940	2930	2949	2954	2900	2818	2695	2500	2323	2062	1669	1293	974.7	743.7	680.7	893.3	3239	9999.9	9999.9	1884	34.23	17.23	12.40	9.129	7.193	6.407	6.385	5.842	5.854	6.026	6.494	6.531	6.922	8.040	8.199	7.999	7.773	9.457	9.603	9.716	10.11	9.578	9.821	10.08	9.941	9.855	9.867	10.06	10.51	10.67	10.73	11.46	11.42	11.56	12.10	12.54	13.50	14.14	14.60	15.07	15.55	15.81	16.31
385.0	2048	2606	2732	2749	2703	2620	2513	2427	2438	2544	2681	2826	2919	2966	2993	2992	3035	3081	3055	2974	2883	2724	2529	2297	1955	1548	1197	915.2	711.1	583.6	1007	4339	9999.9	9999.9	289.8	28.51	16.73	11.60	8.489	7.027	6.508	6.376	6.224	6.421	6.357	6.781	7.240	7.805	7.844	7.975	7.811	9.740	9.810	9.901	10.18	9.919	10.55	10.38	10.37	10.06	10.40	10.66	10.88	11.08	10.91	11.37	11.98	12.06	12.01	12.21	13.54	14.13	14.52	14.93	15.74	16.07	17.25
390.0	2218	2613	2760	2815	2815	2767	2672	2576	2562	2621	2758	2880	2959	3040	3079	3072	3141	3207	3220	3177	3110	2986	2825	2596	2302	1947	1565	1247	982.3	765.6	677.8	1285	4381	9999.9	9999.9	1279	33.20	20.21	12.38	9.084	7.762	7.042	6.659	6.521	6.890	7.301	7.288	7.991	8.341	8.006	8.030	9.841	10.12	10.60	10.47	10.48	11.24	10.98	10.87	10.83	10.90	10.90	11.18	11.53	11.52	11.45	11.99	12.01	12.48	12.95	13.24	14.37	14.56	15.74	15.87	16.36	17.70
395.0	2268	2673	2875	2878	2896	2901	2819	2734	2680	2735	2865	3019	3100	3165	3210	3204	3245	3320	3359	3363	3330	3250	3135	2938	2666	2378	2040	1699	1398	1128	894.8	823.7	1315	2763	9999.9	9999.9	2065	39.75	21.51	12.83	10.11	8.219	7.838	7.227	7.283	7.795	7.834	8.325	8.689	8.419	8.315	10.05	10.67	10.91	10.91	10.99	11.58	11.79	11.78	11.83	11.39	11.49	11.60	12.07	12.19	12.05	12.62	12.47	13.95	13.56	13.82	14.64	15.30	16.57	16.69	16.79	18.37
400.0	2329	2697	2970	2951	3007	3005	2956	2881	2819	2872	3011	3164	3267	3331	3359	3337	3354	3422	3449	3489	3477	3451	3380	3225	2996	2719	2458	2125	1802	1515	1216	952.6	849.9	1018	3234	9999.9	9999.9	1576	36.60	18.68	12.45	9.504	8.383	7.724	8.067	8.054	8.138	8.502	8.833	8.598	8.656	10.85	11.07	10.95	11.09	11.28	12.03	12.31	12.15	12.06	11.96	12.03	12.22	12.27	12.69	12.54	12.84	12.90	13.76	13.83	14.22	15.22	15.69	16.31	17.08	17.81	18.14
405.0	2323	2689	2890	3009	3048	3083	3061	3007	2975	3039	3194	3369	3505	3555	3547	3466	3443	3477	3536	3593	3619	3624	3608	3512	3333	3090	2848	2580	2253	1930	1603	1257	972.8	799.4	1152	4070	9999.9	9999.9	261.2	30.53	15.94	11.51	9.173	8.604	8.283	8.490	8.332	8.843	8.968	8.534	8.792	10.65	11.28	11.28	12.14	11.77	12.86	12.90	12.81	12.76	12.70	12.64	12.67	13.06	13.26	13.34	13.14	13.99	14.04	14.21	15.04	15.79	16.18	16.61	17.46	17.96	19.40
410.0	2368	2741	2925	3053	3131	3176	3176	3137	3129	3230	3433	3624	3748	3800	3745	3620	3507	3514	3584	3661	3736	3788	3824	3808	3691	3505	3290	3077	2805	2460	2093	1686	1307	1009	887.2	1384	4010	9999.9	9999.9	1182	29.55	16.82	12.07	10.13	9.130	9.077	8.690	9.459	9.255	8.719	9.179	10.98	11.75	11.98	12.48	12.41	13.11	13.67	13.49	13.37	13.26	13.26	13.26	13.71	14.05	14.08	14.14	14.74	14.90	15.21	15.36	16.06	16.77	17.67	17.65	18.16	19.42
415.0	2350	2748	2933	3033	3149	3219	3251	3201	3192	3297	3504	3713	3806	3867	3769	3615	3489	3464	3530	3633	3712	3811	3887	3915	3856	3723	3551	3350	3137	2829	2432	1993	1574	1220	965.5	885.7	1293	2695	9781	9999.9	1801	32.59	17.65	12.55	10.46	9.730	9.007	9.537	9.301	9.213	9.040	11.30	11.65	11.91	12.63	12.39	13.65	13.17	13.49	13.94	13.55	13.60	13.83	14.08	14.54	13.71	14.42	14.55	14.93	15.51	16.01	16.42	17.20	17.14	17.26	18.12	19.04
420.0	2384	2683	2878	3006	3149	3196	3234	3216	3196	3306	3496	3669	3739	3789	3705	3543	3400	3384	3448	3546	3630	3752	3839	3894	3882	3767	3622	3432	3235	2989	2597	2139	1713	1330	1049	829.4	733.9	883.5	2853	9999.9	9999.9	276.6	29.22	15.46	12.64	10.90	9.459	9.872	9.712	8.861	9.105	11.49	11.71	11.80	12.47	12.28	13.36	13.67	13.84	14.06	13.33	13.82	14.25	13.84	14.05	13.83	14.35	14.25	15.06	14.96	15.64	16.25	16.67	16.78	17.32	17.63	18.35
425.0	2332	2635	2890	2962	3090	3177	3279	3196	3200	3289	3463	3631	3661	3703	3622	3452	3306	3289	3347	3456	3555	3668	3776	3838	3841	3775	3646	3487	3298	3078	2729	2278	1826	1442	1145	882.6	668.7	530.0	847.4	3367	9999.9	9999.9	241.0	23.94	15.16	12.09	10.14	10.09	9.721	8.818	9.185	11.38	11.49	11.69	12.21	12.10	13.26	13.80	13.49	13.66	13.85	13.50	13.67	14.00	14.46	14.26	13.81	14.20	14.80	14.66	15.31	15.67	16.80	16.20	17.02	17.02	18.04
430.0	2349	2595	2760	2913	3043	3166	3210	3217	3219	3306	3470	3614	3652	3654	3538	3357	3211	3172	3233	3338	3442	3576	3707	3799	3837	3793	3705	3582	3424	3211	2899	2477	2015	1620	1304	1023	770.0	547.1	472.8	944.2	3260	9999.9	9999.9	1103	27.23	16.27	12.27	11.25	10.24	9.103	9.169	11.25	11.54	11.76	12.17	12.32	13.28	13.61	13.61	14.07	13.69	13.90	13.80	13.95	14.22	14.06	14.30	13.88	14.69	14.74	15.05	15.65	15.97	16.04	16.84	16.80	16.94
435.0	2462	2423	2679	2881	2985	3160	3207	3229	3216	3320	3511	3591	3658	3609	3481	3283	3105	3073	3106	3213	3330	3474	3625	3741	3797	3800	3731	3657	3523	3322	3039	2648	2220	1802	1471	1182	906.1	647.4	471.3	462.7	902.5	2459	7268	9999.9	1791	31.44	17.20	13.58	11.08	9.572	9.543	11.26	11.91	12.09	12.19	12.37	13.66	13.56	14.10	13.96	13.66	14.29	13.58	14.05	14.04	13.88	14.32	13.59	14.57	14.68	14.78	15.73	15.25	15.73	16.02	16.85	16.65
440.0	2591	2419	2604	2811	2928	3080	3161	3203	3193	3294	3456	3536	3577	3534	3391	3179	3006	2953	3009	3094	3202	3350	3510	3641	3711	3729	3688	3621	3525	3349	3075	2694	2302	1902	1563	1276	990.2	722.7	518.5	399.1	414.7	699.3	2029	9340	9999.9	1446	27.30	16.34	12.72	10.62	10.16	11.10	11.51	11.92	12.39	12.45	13.76	13.81	14.18	13.62	13.79	13.77	13.85	13.80	14.09	13.52	13.85	14.26	14.33	14.54	14.47	15.49	15.28	15.53	15.37	16.18	16.25
445.0	2615	2530	2485	2703	2886	3024	3103	3161	3153	3239	3369	3431	3430	3371	3249	3036	2888	2825	2868	2955	3055	3206	3364	3488	3564	3595	3577	3537	3439	3292	3042	2677	2304	1944	1610	1324	1042	780.8	577.7	430.0	341.8	336.9	585.2	2829	9999.9	9999.9	218.3	24.25	15.08	11.40	10.22	11.31	11.32	11.88	12.08	12.07	13.69	13.77	13.39	13.35	13.90	13.90	13.45	13.04	13.92	13.24	13.59	14.01	14.10	14.00	13.84	14.62	15.10	14.76	15.05	15.64	16.24
450.0	2303	2803	2454	2541	2724	2850	2963	3000	3023	3050	3173	3214	3198	3112	2990	2798	2674	2624	2657	2725	2826	2956	3098	3226	3291	3319	3314	3307	3245	3121	2909	2580	2232	1910	1627	1349	1085	833.5	641.1	492.0	380.6	304.9	300.4	757.6	2931	8523	9916	2974	25.09	15.07	11.77	12.08	11.46	11.76	11.76	11.75	12.89	12.91	12.88	12.88	13.07	13.25	13.01	12.81	13.41	13.12	12.95	12.89	13.41	12.93	13.36	13.63	13.96	14.19	13.96	14.38	15.05
455.0	1888	2744	2647	2341	2526	2692	2797	2821	2851	2872	2959	2963	2939	2827	2717	2545	2424	2390	2427	2487	2572	2677	2804	2921	2980	3025	3034	3027	2999	2912	2732	2456	2136	1854	1599	1360	1115	882.0	694.0	554.8	435.1	341.1	277.3	326.8	770.5	2041	5313	9999.9	1585	25.54	15.08	13.59	11.87	11.38	11.55	11.31	12.47	12.41	12.10	12.13	12.15	12.71	12.76	11.95	12.54	12.21	12.18	12.30	12.09	12.31	12.40	12.48	13.08	12.43	13.03	13.09	14.24
460.0	1654	2362	2964	2276	2380	2503	2640	2673	2703	2731	2813	2803	2741	2639	2527	2370	2254	2219	2241	2293	2373	2460	2584	2696	2765	2811	2825	2831	2823	2739	2599	2343	2062	1796	1560	1349	1129	903.4	728.6	587.6	470.4	374.7	292.5	252.3	307.8	557.0	1381	6564	9968	1245	23.51	16.06	12.82	11.81	11.70	11.09	11.73	11.77	12.05	11.96	11.64	12.10	11.96	11.72	11.52	11.39	11.41	11.58	12.08	11.56	11.72	11.67	12.11	11.93	12.23	12.82	13.07
465.0	1503	1911	2902	2428	2228	2352	2462	2526	2563	2578	2660	2648	2582	2485	2357	2195	2093	2062	2079	2119	2186	2270	2391	2489	2560	2609	2626	2648	2635	2584	2456	2236	1979	1734	1518	1324	1127	919.5	744.1	609.4	496.0	401.2	314.8	253.8	223.4	241.9	398.7	1807	7809	8415	1015	24.62	14.40	12.26	11.45	10.96	11.77	11.62	11.61	11.49	11.08	11.57	11.24	11.36	11.47	11.01	10.93	10.83	10.88	10.90	10.96	11.25	11.31	11.17	11.63	11.85	11.80
470.0	1342	1594	2326	2848	2132	2143	2254	2316	2329	2370	2431	2409	2336	2239	2108	1980	1875	1840	1851	1892	1938	2018	2112	2204	2274	2313	2344	2367	2375	2344	2241	2057	1836	1627	1429	1255	1084	913.2	751.5	621.7	516.9	422.2	342.4	277.9	225.2	193.5	197.1	486.0	2088	5507	6780	2695	87.40	14.81	12.41	11.16	11.61	10.74	10.85	10.54	10.40	10.61	10.35	10.40	10.30	10.20	9.806	10.28	9.889	9.883	10.17	10.27	10.22	10.13	10.42	10.58	10.84
475.0	1225	1404	1723	2697	2439	1925	2031	2093	2115	2136	2183	2160	2082	1989	1857	1746	1656	1629	1636	1667	1702	1761	1842	1922	1978	2021	2058	2075	2092	2086	2004	1855	1669	1493	1324	1174	1021	877.9	747.6	621.5	524.4	437.8	360.7	298.8	244.0	198.2	169.0	205.5	538.8	1294	2738	6936	1662	29.35	14.26	11.66	11.22	9.978	9.962	9.746	9.662	9.624	9.655	9.661	9.416	9.240	9.431	9.113	8.937	8.852	9.278	8.950	9.144	8.818	9.223	9.139	9.696
480.0	1107	1318	1469	2140	2861	1890	1875	1938	1968	1996	2032	2002	1920	1827	1711	1591	1517	1488	1493	1513	1545	1601	1670	1737	1790	1836	1867	1886	1915	1904	1844	1715	1554	1399	1254	1120	977.3	846.5	737.2	625.4	530.0	441.4	374.1	312.0	257.8	209.7	171.5	152.4	202.7	351.5	684.8	3280	6896	1530	26.20	13.80	11.93	10.16	9.692	9.077	9.174	9.056	8.940	8.885	8.811	9.084	8.632	8.701	8.480	7.811	8.615	8.448	8.443	8.371	8.465	8.530	8.955
485.0	1037	1226	1338	1651	2952	2125	1738	1813	1858	1871	1897	1881	1795	1703	1577	1483	1403	1377	1384	1401	1427	1469	1538	1594	1646	1678	1722	1741	1766	1766	1715	1601	1458	1319	1193	1072	941.8	819.3	723.2	625.2	535.6	450.2	381.9	320.7	270.2	221.7	181.6	149.4	135.3	148.4	206.8	846.3	4357	6604	1208	22.90	12.95	10.48	9.883	8.846	8.692	8.763	8.642	8.392	8.125	8.686	7.720	7.738	7.840	7.721	8.120	7.964	7.986	7.649	8.035	8.283	8.213
490.0	940.2	1097	1222	1354	2199	2765	1777	1674	1700	1730	1742	1724	1635	1545	1431	1338	1276	1250	1249	1265	1289	1323	1369	1432	1469	1503	1540	1563	1596	1607	1565	1471	1346	1227	1115	1008	897.5	789.8	694.6	609.7	533.5	453.4	386.4	330.2	281.0	235.4	194.3	159.5	130.4	113.0	109.1	238.0	1105	3431	5514	2655	106.6	13.77	10.71	9.358	8.524	8.219	8.211	8.088	7.626	7.669	7.500	7.404	7.376	7.170	7.375	7.323	7.359	7.384	7.341	7.569	7.634
495.0	825.0	965.8	1104	1211	1469	2742	2285	1520	1550	1566	1586	1548	1460	1386	1288	1199	1132	1112	1112	1121	1135	1171	1208	1253	1295	1329	1357	1390	1422	1440	1406	1322	1226	1122	1024	938.3	836.6	744.7	663.0	583.2	516.9	452.3	386.7	332.9	285.7	244.8	204.1	169.5	139.0	113.9	94.57	109.5	288.6	802.8	2024	5836	4035	32.55	13.45	9.974	8.680	8.137	7.527	7.577	7.080	6.804	6.839	7.164	6.724	6.529	6.782	6.589	6.834	6.648	6.458	6.669	7.025
500.0	737.7	876.2	981.9	1088	1202	2098	2907	1507	1424	1442	1457	1422	1349	1265	1181	1092	1033	1017	1010	1013	1031	1056	1090	1134	1168	1196	1226	1259	1294	1308	1280	1217	1127	1038	952.3	870.2	785.1	704.8	630.3	558.2	493.6	441.4	382.8	329.8	284.7	244.3	208.5	174.6	142.2	117.6	96.26	84.91	112.3	219.0	495.6	2433	6573	1763	29.80	11.85	9.105	7.980	7.404	7.215	6.587	6.277	6.392	6.408	6.103	6.276	6.175	6.081	6.477	6.117	5.878	6.424	6.335
505.0	669.1	806.7	938.3	993.7	1074	1448	3060	1818	1313	1332	1334	1295	1242	1163	1078	1006	955.5	923.9	918.7	921.9	932.6	958.8	992.4	1024	1056	1090	1114	1145	1171	1190	1171	1114	1038	958.2	885.6	807.8	733.2	664.1	593.4	527.8	469.2	422.0	371.9	324.1	282.3	242.5	209.0	175.6	145.4	120.3	99.98	83.09	77.11	92.60	148.6	605.2	3278	5904	1434	24.24	10.12	8.537	7.335	7.095	6.629	6.168	6.274	5.954	5.578	5.690	5.669	5.630	5.603	5.695	5.479	5.752	5.855
510.0	593.6	716.8	813.7	867.7	930.2	1087	2119	2761	1315	1178	1188	1157	1098	1031	950.1	886.6	836.8	814.1	809.6	806.5	816.0	838.2	861.6	895.2	917.2	943.6	971.6	996.5	1026	1042	1031	981.5	920.8	849.8	789.0	728.8	665.6	602.6	541.6	487.8	435.5	387.8	349.1	312.1	271.7	235.0	204.8	174.4	146.2	123.6	102.4	86.02	72.98	69.02	75.25	171.4	804.7	2661	4337	2092	108.0	10.59	7.874	6.920	6.251	5.755	5.611	5.400	5.223	5.081	4.993	5.360	5.014	5.085	4.955	5.071	5.181
515.0	540.5	597.9	693.6	756.4	809.8	895.1	1204	2869	1949	1046	1036	1024	961.8	896.3	822.8	769.6	729.1	707.4	699.9	696.0	706.9	719.9	737.6	767.1	788.4	806.1	829.3	857.3	882.1	894.5	890.6	845.9	803.6	744.7	692.9	644.6	591.8	540.1	488.4	446.0	397.5	354.5	317.2	292.1	256.9	226.7	197.1	168.2	143.7	122.7	103.2	87.51	74.37	67.16	61.83	77.92	213.6	620.6	1393	4080	1888	31.99	9.923	7.411	6.156	5.601	5.243	4.926	4.738	4.572	4.595	4.525	4.400	4.338	4.331	4.304	4.725
520.0	496.0	549.1	613.3	684.2	737.2	782.1	897.3	2032	2749	1053	940.2	921.5	869.6	801.4	746.1	689.3	653.1	635.2	630.3	619.7	627.7	637.4	653.7	676.9	700.1	713.9	738.1	761.8	782.2	801.4	791.9	757.3	716.4	672.7	628.1	587.6	540.0	494.6	449.6	410.6	368.4	330.8	298.1	272.6	245.5	217.8	189.9	162.2	139.8	119.5	102.3	87.68	75.44	67.12	60.52	58.20	83.51	168.3	339.3	1615	4196	1645	27.79	8.714	6.725	5.463	4.897	4.467	4.358	4.306	4.473	4.126	4.139	3.986	3.879	3.996	4.364
525.0	440.7	497.8	543.4	601.3	673.2	714.3	766.2	1223	3285	1451	851.0	837.2	785.4	733.6	682.7	621.1	589.3	580.3	567.8	564.3	568.1	569.6	583.1	614.0	623.3	641.2	660.8	678.3	702.7	718.4	714.6	685.5	648.1	611.3	568.0	533.7	492.4	453.9	416.8	379.3	341.4	307.9	279.1	252.0	230.1	208.7	180.8	157.6	135.0	117.3	100.6	87.16	75.16	67.41	59.72	55.24	55.06	68.35	101.2	397.6	2035	4036	1249	21.24	7.517	5.772	4.832	4.377	4.110	4.046	3.901	3.691	3.996	3.903	3.438	3.597	3.918
530.0	370.0	438.3	487.7	519.4	587.9	624.4	665.3	796.8	2206	2740	900.4	731.7	690.2	634.4	595.1	543.8	515.2	503.2	496.4	488.7	489.1	494.9	505.8	528.1	538.2	551.2	570.0	585.5	606.8	621.7	619.0	596.7	564.9	530.4	498.1	466.9	435.2	401.4	370.3	337.1	305.5	278.1	252.8	229.9	209.5	190.9	171.0	146.6	127.2	110.7	96.42	83.78	73.18	65.77	59.90	53.84	49.23	47.76	50.08	111.7	495.9	1735	2921	1082	100.9	7.284	5.190	4.217	3.985	3.798	3.584	3.398	3.523	3.457	3.210	3.286	3.478
535.0	316.0	381.3	410.4	442.2	487.6	546.4	575.1	616.0	1017	3164	1683	634.8	597.0	545.9	508.7	464.4	441.5	428.9	421.2	418.0	420.1	422.5	433.5	445.6	457.3	468.9	481.2	497.6	513.6	527.6	528.7	509.4	481.4	457.6	425.9	402.8	379.6	348.9	320.5	294.5	268.9	248.0	224.9	203.6	186.4	170.0	154.7	137.2	118.5	103.2	89.38	77.92	70.93	63.07	58.10	52.60	47.70	43.13	38.90	49.03	131.1	404.0	896.6	2578	1755	30.74	6.795	4.823	4.060	3.781	3.320	3.133	2.912	3.130	2.796	2.777	3.156
540.0	287.9	331.5	367.3	392.0	432.4	476.0	493.9	535.0	636.3	2111	3004	659.1	518.5	486.1	451.3	410.8	392.0	380.0	374.2	365.7	363.7	370.8	379.3	392.0	401.6	408.8	422.1	435.4	452.6	463.4	461.1	446.6	426.3	401.5	378.3	356.5	335.9	310.0	287.4	264.3	243.0	221.9	202.3	184.9	171.1	153.9	139.1	127.2	110.2	95.63	84.15	74.57	65.86	60.41	55.61	51.66	45.83	41.83	36.48	35.52	49.94	107.4	217.0	999.0	2857	1362	25.10	5.533	4.211	3.591	3.245	3.053	2.709	2.673	2.567	2.524	2.759
545.0	259.7	297.6	318.5	354.2	384.9	406.0	444.8	465.7	503.7	1050	3659	1051	469.7	431.0	395.6	363.6	346.7	336.5	326.9	323.5	324.8	325.8	335.5	343.2	350.6	361.2	367.7	381.1	397.7	409.2	402.0	395.3	374.0	352.6	334.6	316.4	297.4	276.6	257.3	237.6	219.3	200.0	182.3	167.9	154.7	140.2	126.6	115.4	103.9	89.52	78.19	68.71	61.65	57.08	52.82	49.44	44.51	39.68	35.40	31.41	31.75	41.47	63.20	243.6	1312	2675	866.3	17.81	4.827	3.810	3.247	2.968	2.533	2.444	2.383	2.502	2.482
550.0	212.6	255.0	269.1	290.4	313.7	342.2	380.4	393.6	411.5	551.7	2234	2471	502.0	364.6	330.7	307.8	289.7	282.9	271.7	271.5	271.4	271.0	280.1	285.5	289.7	297.9	305.0	315.1	328.4	338.2	336.4	327.9	311.1	295.9	279.3	264.1	251.5	234.7	217.6	201.0	184.9	169.2	155.5	143.7	133.2	120.3	110.0	100.4	90.42	80.51	70.37	61.84	54.79	51.62	48.06	43.71	40.78	36.76	32.90	28.79	26.77	26.20	29.04	67.20	315.9	1105	1770	954.2	21.70	5.397	3.769	3.128	2.706	2.332	2.027	2.086	2.177
555.0	188.7	207.6	227.0	230.3	260.7	280.7	307.8	332.8	331.5	377.9	835.1	3264	1190	300.4	269.4	249.6	236.2	233.1	221.9	219.0	220.2	219.2	225.7	229.1	233.5	240.1	249.0	254.5	263.0	274.5	274.2	265.1	251.4	239.4	225.7	216.2	204.5	192.6	178.5	165.6	153.0	141.1	130.0	120.3	112.2	101.1	92.03	83.48	75.15	69.19	61.39	54.26	47.86	45.63	41.75	39.17	36.60	33.25	30.22	27.05	23.80	22.00	21.02	27.62	81.78	256.5	539.1	1617	1232	29.00	4.971	3.432	2.690	2.287	2.009	1.960	1.793
560.0	160.1	183.9	191.4	197.3	216.7	237.9	253.6	286.4	280.4	306.4	415.8	2095	2645	315.0	226.3	211.7	203.5	196.1	187.3	186.0	185.8	185.6	191.1	192.7	196.7	201.5	208.4	214.1	222.2	228.8	227.3	223.1	214.3	201.6	191.4	182.6	172.3	162.6	149.8	142.2	131.1	120.8	112.0	104.2	95.65	88.57	79.94	72.24	65.40	59.69	55.30	48.69	42.70	40.45	37.13	35.18	32.85	30.58	27.30	25.42	22.42	20.71	18.53	18.71	29.70	67.78	131.9	606.3	1709	831.8	22.44	4.304	3.195	2.263	2.027	1.750	1.591
565.0	145.6	163.5	173.0	177.2	185.0	196.4	214.6	251.1	242.3	258.8	287.8	891.9	3520	641.6	197.0	182.6	174.9	168.3	161.2	160.1	158.9	157.4	160.4	164.0	169.0	169.8	177.2	184.2	187.6	194.1	194.6	189.0	179.8	173.1	163.6	154.7	147.3	139.3	129.4	120.7	112.3	104.2	96.09	89.57	83.31	77.05	70.16	63.45	57.76	51.20	47.50	43.52	37.66	35.91	34.08	31.39	29.96	27.29	25.37	23.03	20.57	19.69	17.77	16.95	18.10	25.94	40.21	149.6	750.6	1554	251.2	13.75	3.611	2.269	2.102	1.487	1.496
570.0	136.9	146.2	145.1	148.1	157.2	162.9	178.1	205.8	216.2	217.8	228.7	366.7	2199	2033	234.4	148.2	141.1	137.8	131.7	130.6	128.3	128.2	130.7	132.6	135.7	139.6	142.5	146.4	153.0	156.3	157.1	152.8	145.0	140.3	133.9	125.8	119.4	113.1	106.3	99.20	92.15	85.28	79.52	74.09	68.50	63.90	58.66	53.06	47.65	43.56	39.26	36.70	33.14	30.81	29.05	27.78	26.05	24.20	22.32	20.83	19.10	17.76	16.33	15.67	15.59	17.03	20.27	43.59	184.0	639.2	991.3	567.4	19.02	3.214	2.155	1.576	1.422
575.0	123.9	131.1	129.2	127.3	131.2	132.1	150.8	161.9	186.4	190.1	187.5	216.9	702.3	3025	803.2	123.4	114.5	110.4	105.7	104.4	102.7	102.6	103.7	105.1	108.1	109.8	114.8	116.9	120.3	123.5	125.3	121.0	116.4	110.6	106.3	99.18	96.07	90.68	85.40	79.19	73.57	69.39	64.54	59.93	55.91	51.61	48.09	43.82	39.51	35.81	32.10	29.80	28.09	26.18	25.01	23.25	22.25	21.54	19.28	18.48	16.96	16.15	14.75	14.10	14.40	14.26	15.74	20.10	51.04	151.3	305.0	922.4	685.1	24.73	2.355	1.568	1.328
580.0	122.3	119.7	122.2	115.5	113.9	112.7	125.2	133.3	157.5	173.0	174.3	175.3	278.2	1977	2178	127.4	97.74	91.92	89.26	88.01	85.37	86.63	87.76	89.80	91.18	93.23	94.21	97.52	102.5	103.5	105.5	101.8	97.10	94.10	89.48	83.95	80.85	76.54	72.35	67.29	62.72	59.06	54.43	50.80	48.22	44.18	41.16	37.19	33.45	30.55	27.35	25.91	24.31	23.72	21.86	20.64	19.64	18.70	17.48	16.02	15.46	14.50	14.15	13.26	13.09	13.63	13.07	14.70	20.85	42.40	75.57	350.6	979.0	257.3	16.45	1.787	1.363
585.0	107.2	109.7	115.1	100.3	103.1	102.9	111.1	122.8	137.3	163.1	162.2	155.2	171.2	779.7	3122	361.8	84.57	79.91	76.64	76.50	73.63	73.26	74.17	76.47	76.86	79.54	80.03	83.40	86.53	88.60	88.17	86.18	82.62	79.54	75.71	72.69	67.89	64.96	61.44	58.08	53.17	51.06	46.47	44.18	40.58	38.82	35.25	32.79	29.45	26.84	24.28	22.01	21.28	20.69	19.49	18.39	17.61	16.52	15.56	14.83	14.18	13.29	12.82	12.24	12.02	11.95	11.69	12.83	13.32	17.22	23.60	85.91	438.6	833.8	215.1	7.072	1.383
590.0	105.0	115.2	106.0	92.07	85.72	91.29	95.08	106.3	117.9	146.1	151.1	144.5	136.2	266.4	1949	1556	93.50	65.80	63.67	62.75	60.45	59.95	61.52	61.85	62.29	64.65	65.42	67.91	69.26	71.99	71.78	69.34	67.42	63.74	61.01	58.26	55.60	52.16	49.26	46.55	43.54	40.88	38.01	36.39	33.87	31.61	28.95	26.78	24.27	22.41	20.27	18.49	17.54	16.81	16.59	15.70	14.64	13.86	13.12	12.49	11.79	11.04	10.55	9.957	10.18	9.782	10.14	10.33	10.32	10.43	10.84	23.50	105.1	348.8	584.1	288.0	15.70
595.0	96.10	105.1	88.94	78.97	73.75	71.72	78.06	89.49	101.4	122.5	140.5	131.4	120.9	131.3	571.1	2479	526.0	53.98	53.44	49.38	48.37	47.75	48.21	49.71	48.98	51.38	51.28	53.36	55.40	57.04	57.25	56.16	52.42	50.66	48.46	46.28	43.70	41.95	39.34	37.00	35.40	32.80	30.88	28.64	27.53	25.81	23.83	21.63	19.66	18.33	16.43	15.26	14.25	13.41	13.44	13.15	12.54	11.63	10.92	10.32	9.448	8.973	8.540	7.893	8.165	7.900	8.117	8.031	7.993	7.465	6.832	8.961	26.28	79.70	173.8	506.9	268.8
600.0	95.94	91.69	84.23	79.27	68.78	62.57	69.63	78.39	89.72	108.7	135.1	125.2	114.4	98.12	182.5	1674	1578	64.16	44.58	41.58	40.82	40.31	41.97	41.59	41.57	42.03	43.18	45.08	47.33	46.83	46.62	46.34	44.02	42.80	39.96	38.81	37.46	34.66	33.25	31.23	29.91	27.00	25.98	24.43	23.35	21.65	20.41	18.49	16.56	15.55	13.89	12.57	12.08	11.37	11.36	11.26	10.81	10.21	9.322	8.748	8.296	7.733	7.258	6.948	6.882	6.876	6.592	6.931	6.365	5.760	5.189	5.102	8.209	19.62	40.51	188.2	524.2
605.0	90.11	94.20	82.40	74.24	65.13	63.01	63.63	70.91	81.48	102.7	123.3	126.8	109.6	87.20	86.44	643.2	2395	209.5	37.97	36.81	35.04	34.46	34.67	35.00	34.69	36.07	36.19	37.81	38.79	40.08	40.18	38.79	37.29	36.20	32.67	32.63	31.44	29.48	28.42	26.74	25.24	23.98	22.07	20.94	19.75	18.55	17.52	15.54	14.30	13.07	12.00	10.82	10.58	9.902	9.674	9.729	9.385	8.856	8.275	7.433	7.400	6.830	6.243	5.841	5.903	5.712	5.933	5.744	5.415	5.014	3.968	3.474	3.750	5.858	10.36	44.38	232.3
610.0	79.52	94.11	77.41	67.02	56.04	56.49	57.25	65.50	76.33	94.42	113.7	126.3	106.7	82.28	63.69	188.1	1592	1189	50.29	30.23	28.36	28.18	28.87	28.33	28.50	29.13	29.60	30.17	31.46	32.07	32.22	30.99	30.01	28.91	27.21	26.42	25.28	23.95	22.41	21.03	20.10	19.22	17.73	17.15	15.91	15.04	13.86	12.66	11.77	10.73	9.740	8.978	8.261	8.252	7.727	7.963	7.601	7.486	6.823	6.264	5.933	5.304	5.256	4.859	4.770	4.843	4.756	4.780	4.227	4.050	3.371	2.843	2.252	2.553	3.469	10.82	54.48
615.0	78.64	80.41	74.31	62.14	51.54	50.59	53.32	59.72	69.72	87.39	105.5	118.2	105.0	77.72	55.36	72.27	461.0	2028	362.1	25.37	23.08	22.56	22.27	22.09	22.90	22.84	22.93	24.50	24.99	25.02	25.51	24.18	23.46	22.36	21.44	21.39	19.40	18.80	17.39	16.49	15.78	14.46	14.03	12.84	12.51	12.08	10.88	10.17	9.264	8.424	7.912	7.534	6.608	6.484	6.411	6.160	5.804	5.907	5.530	4.965	4.922	4.364	4.211	3.956	3.824	4.083	3.991	3.670	3.463	3.185	2.633	2.288	1.866	1.652	1.600	3.146	12.83
620.0	73.46	72.67	71.84	62.36	44.14	44.78	45.03	56.81	65.92	80.12	98.33	111.4	106.3	74.76	51.47	44.44	132.9	1458	1190	29.05	19.57	18.56	19.18	18.65	18.70	18.95	19.58	19.73	20.25	21.07	21.02	20.21	19.69	19.09	17.37	17.15	16.48	15.38	15.26	13.39	12.73	12.30	11.74	11.12	10.75	9.755	8.842	8.334	7.726	6.963	6.719	6.184	5.670	5.387	5.531	5.017	4.920	5.042	4.705	4.392	4.020	3.812	3.656	3.320	3.342	3.230	3.347	3.105	2.966	2.977	2.243	1.952	1.714	1.309	1.177	1.364	3.418
625.0	66.87	74.72	70.34	57.60	47.78	44.72	41.58	51.85	61.36	76.01	92.12	105.3	102.7	75.53	50.27	36.93	51.77	582.2	1961	71.56	17.58	16.38	17.09	15.51	15.72	15.89	16.18	16.92	16.95	17.46	17.37	17.59	16.71	15.91	14.85	13.95	14.26	12.51	12.25	11.80	10.51	10.17	9.545	9.174	8.750	8.277	7.595	7.376	6.788	5.967	5.620	5.281	4.762	4.696	4.796	4.261	4.195	3.990	4.017	3.900	3.595	3.203	3.085	2.959	2.893	3.001	2.841	2.742	2.711	2.526	1.981	1.717	1.317	1.097	1.098	1.002	1.300
630.0	68.79	71.26	64.02	49.16	45.04	39.43	39.39	47.22	56.73	68.62	84.67	94.85	95.53	77.69	49.55	34.99	32.62	158.2	1414	926.6	27.21	13.98	13.73	12.73	13.10	13.01	13.04	13.53	13.60	14.01	13.85	13.45	13.20	12.36	11.85	11.30	11.20	9.723	9.758	9.339	8.598	7.931	7.714	7.196	7.071	6.518	6.216	5.658	5.311	4.871	4.466	4.205	3.925	3.861	3.490	3.547	3.473	3.344	3.135	3.235	3.206	2.786	2.600	2.424	2.321	2.433	2.237	2.270	2.184	2.064	1.869	1.466	1.162	1.010	0.904	0.751	0.830
635.0	55.23	66.67	60.39	48.15	44.97	36.25	39.22	45.92	53.57	65.42	79.06	90.25	85.63	78.21	51.79	35.49	28.14	50.79	415.6	1741	243.9	11.82	11.06	10.54	10.52	9.960	10.21	10.39	10.57	10.73	11.05	10.14	10.10	9.878	9.098	8.702	8.480	7.998	7.611	7.169	6.975	6.112	5.904	5.793	5.395	4.895	4.909	4.545	4.407	3.715	3.551	3.205	3.240	2.991	2.880	2.899	2.686	2.567	2.508	2.455	2.506	2.309	2.029	1.937	1.957	1.911	1.947	1.977	1.794	1.647	1.481	1.263	1.111	0.926	0.744	0.607	0.565
640.0	64.52	69.86	63.84	43.75	44.89	35.64	40.05	43.05	51.46	62.87	76.82	86.90	85.00	78.59	56.65	37.02	29.87	28.33	111.8	1355	580.1	15.58	9.585	9.390	9.173	8.415	8.929	8.890	8.476	8.874	8.950	8.596	8.471	8.098	7.596	7.475	6.917	6.752	6.507	5.622	5.523	4.811	4.857	4.707	4.449	4.188	4.023	3.766	3.511	3.030	2.909	2.602	2.673	2.443	2.535	2.411	2.220	2.124	2.066	2.091	2.020	2.068	1.965	1.679	1.605	1.668	1.690	1.585	1.489	1.449	1.227	1.206	0.951	0.808	0.785	0.699	0.513
645.0	76.23	78.00	70.12	46.06	40.43	33.17	37.20	42.19	50.61	62.21	77.74	85.79	87.18	77.39	58.08	39.15	30.44	23.62	38.33	580.6	1521	54.50	8.954	8.310	8.037	7.682	7.439	7.381	7.182	7.561	7.617	7.073	7.396	6.824	6.399	6.427	5.854	5.483	5.128	4.911	4.373	4.257	4.041	3.886	3.665	3.763	3.292	3.053	2.918	2.585	2.497	2.283	2.230	2.000	2.108	2.048	1.946	1.931	1.836	1.791	1.797	1.646	1.731	1.485	1.428	1.550	1.487	1.474	1.354	1.338	1.216	1.077	0.916	0.809	0.683	0.673	0.516
650.0	84.25	82.56	81.68	46.64	38.46	32.45	36.08	41.50	52.28	60.73	76.63	85.54	86.80	75.57	63.61	43.23	31.39	24.13	22.30	167.8	1583	398.8	8.944	7.567	6.971	7.050	6.784	6.695	6.412	6.697	6.406	6.505	5.978	5.749	5.607	5.276	4.948	4.840	4.350	4.149	3.765	3.541	3.294	3.112	3.077	3.149	2.838	2.781	2.470	2.323	2.269	2.086	1.786	1.769	1.689	1.611	1.707	1.625	1.479	1.585	1.531	1.497	1.379	1.266	1.286	1.402	1.205	1.247	1.350	1.069	1.134	0.994	0.831	0.806	0.682	0.579	0.505
