Sample:	'1
File name:	H2025090805Â³°à´óµÀÇÅ.FD3
Run date:	'11:04:40, 09/10/2025
Operator:	Administrator
Comment:	'

Instrument
Model:	F-2700 FL Spectrophotometer
Serial number:	23C7-003
ROM Version:	4J14000 07

Instrument parameters
Measurement type:	3-D scan
Data mode:	Fluorescence
EX  Start WL:	220.0 nm
EX  End WL:	600.0 nm
EX Sampling interval:	5.0 nm
EM  Start WL:	230.0 nm
EM  End WL:	650.0 nm
EM Sampling interval:	5.0 nm
Scan speed:	12000 nm/min
EX Slit:	5.0 nm
EM Slit:	5.0 nm
PMT Voltage:	700 V
Response:	Auto 
Corrected spectra:	Off
Contour interval:	50.000

Peak integration
Integration method:	Rectangular
Sensitivity:	1
Threshold:	1.000

Peaks
No.	ApexEX/EM(nm)	Height(Data)
1	225.0/310.0	489.0
2	225.0/325.0	483.0
3	225.0/580.0	42.50
4	225.0/595.0	45.35
5	230.0/345.0	518.0
6	230.0/360.0	517.9
7	230.0/605.0	43.24
8	235.0/510.0	220.4
9	240.0/260.0	226.2
10	245.0/270.0	218.5
11	245.0/395.0	637.0
12	245.0/405.0	649.9
13	245.0/535.0	159.3
14	250.0/545.0	128.5
15	255.0/280.0	375.0
16	255.0/560.0	115.9
17	260.0/570.0	97.61
18	265.0/585.0	99.85
19	270.0/300.0	1170
20	270.0/400.0	617.7
21	270.0/595.0	102.5
22	275.0/305.0	1434
23	275.0/610.0	100.1
24	280.0/385.0	621.5
25	280.0/620.0	81.53
26	285.0/635.0	50.29
27	300.0/335.0	462.5
28	305.0/345.0	435.8
29	310.0/350.0	399.7
30	315.0/355.0	413.6
31	320.0/360.0	426.8
32	325.0/370.0	417.2
33	445.0/525.0	20.35
34	505.0/275.0	2.023
35	510.0/280.0	2.382
36	515.0/285.0	2.473
37	535.0/295.0	4.734
38	545.0/300.0	6.031
39	550.0/305.0	6.919
40	560.0/310.0	6.403
41	565.0/315.0	6.170
42	575.0/290.0	45.30
43	575.0/320.0	5.123
44	580.0/325.0	4.408

Data points
	220.0	225.0	230.0	235.0	240.0	245.0	250.0	255.0	260.0	265.0	270.0	275.0	280.0	285.0	290.0	295.0	300.0	305.0	310.0	315.0	320.0	325.0	330.0	335.0	340.0	345.0	350.0	355.0	360.0	365.0	370.0	375.0	380.0	385.0	390.0	395.0	400.0	405.0	410.0	415.0	420.0	425.0	430.0	435.0	440.0	445.0	450.0	455.0	460.0	465.0	470.0	475.0	480.0	485.0	490.0	495.0	500.0	505.0	510.0	515.0	520.0	525.0	530.0	535.0	540.0	545.0	550.0	555.0	560.0	565.0	570.0	575.0	580.0	585.0	590.0	595.0	600.0
230.0	22.35	464.6	1744	787.8	37.85	5.148	4.593	3.795	3.210	3.374	2.976	2.739	2.577	2.296	1.855	1.706	1.494	1.300	1.257	1.090	1.081	1.001	0.920	0.815	0.772	0.719	0.720	0.599	0.618	0.598	0.599	0.569	0.448	0.507	0.409	0.435	0.374	0.345	0.308	0.319	0.356	0.423	0.377	0.341	0.292	0.287	0.648	3.197	6.874	6.267	2.618	0.605	0.250	0.255	0.224	0.245	0.258	0.254	0.232	0.225	0.240	0.233	0.223	0.221	0.246	0.225	0.235	0.241	0.249	0.199	0.263	0.260	0.242	0.224	0.245	0.239	0.247
235.0	60.08	130.5	869.0	2020	457.0	63.64	5.176	4.234	3.261	2.873	3.270	2.932	2.743	2.637	1.631	1.927	1.457	1.217	1.229	1.153	1.165	0.970	1.013	0.983	0.762	0.721	0.656	0.494	0.763	0.626	0.635	0.450	0.471	0.426	0.433	0.453	0.332	0.372	0.335	0.366	0.363	0.323	0.354	0.408	0.435	0.338	0.384	0.950	2.503	4.785	7.360	8.403	4.629	1.071	0.245	0.250	0.247	0.278	0.250	0.193	0.251	0.204	0.242	0.204	0.195	0.211	0.264	0.228	0.254	0.220	0.303	0.227	0.305	0.198	0.252	0.216	0.258
240.0	83.13	85.23	236.7	1345	2404	382.7	30.40	4.673	3.327	3.761	3.552	2.856	2.761	2.331	2.288	1.827	1.550	1.440	1.172	1.114	1.179	0.984	0.871	0.896	0.811	0.731	0.643	0.566	0.657	0.664	0.572	0.518	0.546	0.458	0.422	0.406	0.350	0.373	0.401	0.336	0.320	0.315	0.370	0.365	0.441	0.531	0.444	0.477	0.797	1.452	3.574	8.963	12.81	9.319	3.752	0.584	0.274	0.206	0.253	0.263	0.245	0.258	0.249	0.189	0.239	0.212	0.232	0.297	0.240	0.212	0.264	0.233	0.240	0.254	0.208	0.218	0.280
245.0	53.31	129.3	101.7	387.7	1992	2682	298.6	13.98	4.755	4.650	3.688	2.923	2.999	2.452	2.059	1.963	1.900	1.302	1.192	1.316	0.989	0.981	0.953	0.875	0.744	0.751	0.709	0.662	0.609	0.668	0.619	0.506	0.473	0.498	0.340	0.398	0.316	0.310	0.340	0.357	0.313	0.303	0.293	0.308	0.348	0.558	0.624	0.660	0.492	0.544	1.010	2.939	7.793	13.82	14.85	7.895	2.514	0.341	0.264	0.224	0.260	0.239	0.225	0.249	0.279	0.213	0.249	0.234	0.240	0.221	0.199	0.202	0.234	0.235	0.225	0.263	0.273
250.0	25.25	76.45	149.3	156.3	562.9	1929	2752	1075	80.38	6.531	5.022	4.039	3.686	2.934	2.164	2.176	1.830	1.423	1.287	1.236	1.112	1.066	1.022	0.783	0.782	0.817	0.716	0.707	0.683	0.646	0.579	0.582	0.490	0.470	0.474	0.376	0.407	0.385	0.365	0.392	0.330	0.297	0.333	0.307	0.280	0.386	0.402	0.620	0.742	0.678	0.568	0.905	2.045	4.459	8.396	12.41	15.59	13.80	7.754	2.397	0.491	0.262	0.217	0.263	0.210	0.234	0.251	0.279	0.234	0.229	0.226	0.272	0.254	0.199	0.238	0.266	0.228
255.0	17.56	28.24	90.32	204.2	211.0	459.1	1582	4112	1598	97.45	6.592	5.315	4.086	2.992	2.550	2.233	1.794	1.563	1.495	1.357	1.308	1.014	1.121	1.009	0.748	0.848	0.679	0.713	0.748	0.659	0.491	0.622	0.505	0.414	0.494	0.433	0.384	0.347	0.324	0.296	0.373	0.319	0.307	0.273	0.310	0.328	0.309	0.362	0.395	0.637	0.786	1.095	0.862	1.263	2.100	3.122	5.910	13.66	24.41	21.76	11.68	2.563	0.354	0.269	0.292	0.245	0.270	0.270	0.237	0.213	0.199	0.265	0.282	0.213	0.327	0.311	0.348
260.0	17.54	15.84	32.45	148.7	226.2	150.5	414.1	2609	4889	1266	54.04	6.719	4.640	3.965	3.033	2.469	1.965	1.738	1.608	1.311	1.235	1.223	1.317	0.993	0.871	0.905	0.836	0.761	0.845	0.715	0.582	0.623	0.511	0.440	0.549	0.437	0.401	0.403	0.432	0.333	0.348	0.314	0.321	0.305	0.300	0.297	0.269	0.312	0.283	0.338	0.576	1.135	1.272	1.004	0.778	0.941	1.561	3.822	10.86	23.33	31.18	21.32	8.035	1.113	0.350	0.327	0.287	0.303	0.274	0.209	0.267	0.280	0.250	0.233	0.292	0.268	0.288
265.0	17.76	14.75	16.40	55.54	217.3	185.7	119.3	741.8	3811	5496	932.5	20.80	6.719	4.278	3.519	2.711	1.927	1.869	1.748	1.447	1.263	1.412	1.286	1.006	0.955	0.893	0.794	0.828	0.720	0.798	0.686	0.501	0.490	0.469	0.516	0.443	0.397	0.369	0.393	0.421	0.354	0.310	0.311	0.368	0.363	0.309	0.261	0.327	0.246	0.247	0.320	0.561	1.145	1.557	1.138	0.594	0.599	1.083	2.839	7.190	18.07	33.66	27.60	17.52	4.281	0.548	0.299	0.391	0.266	0.267	0.338	0.322	0.230	0.298	0.305	0.317	0.346
270.0	24.27	20.21	17.52	22.54	84.70	218.5	199.9	207.2	1060	3952	5915	2230	58.29	6.694	4.853	3.184	2.449	2.134	1.891	1.633	1.383	1.225	1.179	1.023	0.958	0.911	0.814	0.788	0.729	0.750	0.670	0.581	0.653	0.477	0.478	0.480	0.396	0.392	0.418	0.385	0.360	0.316	0.344	0.379	0.318	0.319	0.329	0.272	0.260	0.245	0.259	0.339	0.518	0.845	1.243	1.390	1.210	0.833	0.940	1.897	4.489	10.24	17.67	29.55	30.04	28.61	11.45	3.867	0.558	0.283	0.287	0.325	0.273	0.287	0.305	0.314	0.295
275.0	36.05	32.26	25.68	19.82	31.10	85.74	279.3	245.1	282.6	955.0	3249	8306	1073	68.71	7.036	4.259	3.130	2.670	2.018	1.780	1.633	1.457	1.371	1.018	1.165	1.138	0.985	0.840	0.749	0.788	0.755	0.644	0.673	0.523	0.463	0.485	0.424	0.457	0.469	0.427	0.327	0.343	0.415	0.403	0.380	0.387	0.341	0.310	0.297	0.288	0.249	0.320	0.354	0.365	0.545	0.762	1.556	2.023	1.470	0.955	1.297	2.570	4.389	7.265	11.14	28.46	49.51	27.71	17.07	3.792	0.471	0.302	0.291	0.366	0.283	0.330	0.259
280.0	60.42	56.24	38.41	29.70	26.01	40.38	159.6	375.0	209.6	277.0	895.3	5328	8295	848.5	36.20	6.013	3.852	3.302	2.720	2.102	1.735	1.697	1.469	1.254	1.187	1.081	0.966	0.870	0.859	0.894	0.775	0.700	0.694	0.528	0.515	0.502	0.540	0.431	0.386	0.369	0.359	0.332	0.517	0.417	0.404	0.474	0.381	0.434	0.424	0.363	0.276	0.315	0.318	0.348	0.432	0.439	0.772	1.412	2.382	1.832	1.023	1.024	1.426	2.071	3.028	7.881	20.99	41.86	61.07	26.31	11.03	1.120	0.410	0.319	0.235	0.359	0.260
285.0	83.21	101.7	76.73	49.69	35.79	35.91	75.97	294.6	399.3	203.7	336.9	1592	7118	6968	563.3	14.70	5.513	4.071	2.934	2.297	2.016	1.771	1.382	1.215	1.313	1.060	1.050	0.914	0.768	0.764	0.722	0.703	0.640	0.581	0.565	0.563	0.598	0.537	0.462	0.478	0.371	0.413	0.459	0.483	0.452	0.493	0.518	0.538	0.534	0.409	0.372	0.344	0.357	0.332	0.402	0.401	0.477	0.774	1.602	2.473	2.455	1.392	1.023	1.131	1.386	2.606	5.594	12.83	32.92	60.44	62.49	21.30	5.210	0.577	0.325	0.364	0.398
290.0	158.3	202.6	185.9	108.8	65.48	58.15	79.90	169.7	413.4	539.3	439.3	698.7	2179	6013	6910	1859	33.60	5.496	4.032	2.812	2.326	2.133	1.756	1.511	1.288	1.171	1.133	0.983	0.844	0.789	0.908	0.736	0.672	0.597	0.669	0.694	0.627	0.557	0.526	0.518	0.476	0.477	0.541	0.584	0.597	0.745	0.728	0.747	0.768	0.658	0.509	0.482	0.483	0.450	0.482	0.484	0.568	0.644	0.850	1.462	2.089	2.863	2.978	2.447	1.819	2.238	2.894	4.531	9.133	18.61	32.31	45.30	40.15	42.18	13.12	4.864	0.643
295.0	258.7	338.5	315.2	185.9	104.0	89.11	112.1	178.5	321.7	679.8	919.0	774.0	994.3	1650	3918	9231	594.3	39.41	5.916	3.878	2.632	2.315	2.240	1.601	1.406	1.333	1.229	1.141	0.957	0.850	0.864	0.779	0.745	0.683	0.721	0.704	0.651	0.662	0.630	0.627	0.531	0.536	0.669	0.762	0.781	0.943	0.970	1.105	1.132	0.869	0.681	0.612	0.599	0.549	0.586	0.624	0.648	0.783	0.899	1.182	1.585	2.025	3.087	4.734	4.382	3.615	3.326	3.384	4.534	6.422	9.012	11.53	13.90	37.38	66.96	66.18	20.34
300.0	304.0	423.9	388.3	231.4	134.9	116.3	140.6	205.7	350.0	622.8	1170	1084	858.7	726.4	1089	5781	8644	484.7	22.07	5.516	4.019	3.106	2.309	1.825	1.674	1.322	1.382	1.263	1.055	0.964	0.812	0.864	0.745	0.782	0.691	0.844	0.800	0.679	0.678	0.554	0.624	0.614	0.632	0.911	0.887	1.129	1.171	1.272	1.399	1.097	0.766	0.787	0.708	0.630	0.671	0.652	0.761	1.002	0.985	1.327	1.582	2.024	2.611	3.838	5.299	6.031	4.872	4.154	3.885	4.111	4.115	4.111	4.115	9.766	25.10	58.45	82.65
305.0	329.4	454.3	435.8	265.5	157.3	136.6	168.1	244.6	385.8	630.4	1073	1434	996.3	581.0	405.3	1578	7212	4335	343.8	10.49	4.901	3.603	2.515	2.034	1.842	1.448	1.373	1.255	1.358	0.935	0.963	0.828	0.906	0.746	0.758	0.769	0.845	0.698	0.719	0.693	0.613	0.576	0.689	0.785	0.978	1.158	1.322	1.481	1.630	1.222	0.973	0.943	0.774	0.607	0.711	0.789	0.913	0.972	1.101	1.356	1.698	2.217	2.630	3.351	4.251	6.025	6.919	6.268	4.798	4.182	3.271	2.824	2.177	3.163	6.485	15.99	38.95
310.0	336.5	489.0	457.8	289.8	174.3	150.4	183.1	269.5	408.1	635.4	954.6	1303	1278	678.5	294.1	449.2	1913	4894	5687	1418	24.10	5.305	3.507	2.533	2.226	1.629	1.479	1.456	1.271	1.080	0.956	0.933	0.877	0.813	0.743	0.777	0.763	0.781	0.738	0.721	0.724	0.718	0.762	0.841	0.982	1.272	1.388	1.533	1.577	1.361	1.003	1.018	0.816	0.804	0.811	0.836	0.978	1.176	1.316	1.620	1.851	2.313	2.824	3.231	3.962	4.584	5.589	6.338	6.403	5.725	3.879	2.750	1.856	1.718	2.354	4.277	9.528
315.0	324.8	476.5	461.8	290.4	182.4	161.7	190.0	274.5	410.4	611.6	878.5	1072	1127	943.7	357.4	222.3	505.8	1164	3299	7851	428.7	27.23	5.126	3.112	2.678	2.113	1.912	1.420	1.348	1.062	1.064	0.801	0.822	0.819	0.832	0.766	0.783	0.747	0.707	0.781	0.623	0.781	0.776	0.753	1.081	1.193	1.431	1.573	1.529	1.425	1.001	0.985	0.956	0.965	0.854	0.850	1.085	1.149	1.409	1.772	1.722	2.193	2.748	3.149	3.651	3.853	4.300	4.846	5.482	6.170	5.858	4.306	2.353	1.690	1.591	1.863	2.978
320.0	333.0	471.6	457.9	293.9	191.2	172.3	202.1	275.3	400.2	584.4	820.3	969.7	949.3	899.8	556.1	213.5	210.1	321.8	836.9	4819	7021	366.1	14.61	4.071	3.141	2.427	2.049	1.567	1.451	1.443	1.116	0.880	0.845	0.803	0.742	0.787	0.822	0.818	0.737	0.675	0.665	0.772	0.802	0.783	1.125	1.237	1.401	1.588	1.567	1.344	1.042	1.010	0.960	0.876	0.880	0.979	1.072	1.187	1.398	1.711	1.913	2.393	2.691	2.963	3.620	3.779	4.068	4.304	4.737	4.692	5.025	5.123	4.201	2.412	1.807	1.441	1.645
325.0	315.4	483.0	477.6	313.6	198.6	175.9	209.3	272.7	386.0	552.8	766.4	895.6	851.8	707.2	672.6	330.1	168.1	147.5	235.1	1271	5786	6167	268.6	8.073	3.733	2.890	2.130	1.708	1.550	1.443	1.245	1.043	0.894	0.880	0.806	0.802	0.873	0.685	0.746	0.701	0.642	0.721	0.801	0.803	1.044	1.276	1.547	1.746	1.718	1.366	1.150	1.119	1.056	0.848	0.899	1.005	1.152	1.230	1.375	1.587	1.956	2.341	2.460	2.883	3.248	3.527	3.882	4.104	4.114	4.333	3.890	3.749	4.408	3.992	2.709	1.706	1.343
330.0	304.6	474.7	488.8	359.8	233.9	196.8	224.0	277.8	369.2	518.8	700.9	812.7	775.5	608.8	513.7	493.3	293.6	143.5	121.5	334.2	1517	4735	4606	1216	19.93	4.440	3.017	2.327	1.888	1.686	1.327	1.069	1.027	0.928	0.839	0.852	0.803	0.766	0.720	0.645	0.667	0.715	0.774	0.893	1.016	1.171	1.418	1.644	1.773	1.625	1.316	1.262	1.191	1.026	1.010	1.001	1.171	1.237	1.482	1.593	1.778	2.274	2.358	2.774	3.091	3.310	3.514	3.763	3.720	3.877	3.421	3.001	2.918	3.303	3.467	3.295	2.568
335.0	301.6	447.8	508.4	394.7	276.9	232.0	241.0	282.6	360.5	487.6	636.1	733.6	715.8	584.7	441.5	399.3	462.5	260.3	130.2	150.4	389.4	1115	2634	6691	1855	25.26	4.631	2.780	2.385	1.910	1.559	1.369	1.096	1.017	0.889	0.856	0.833	0.849	0.757	0.686	0.695	0.720	0.847	0.913	1.034	1.217	1.470	1.701	1.957	1.643	1.538	1.272	1.396	1.262	1.083	1.037	1.294	1.355	1.521	1.553	1.718	2.219	2.306	2.647	2.759	3.118	3.320	3.459	3.649	3.644	3.433	2.865	2.649	2.508	2.672	2.848	3.531
340.0	304.0	456.7	515.8	427.0	317.0	264.8	263.0	293.4	363.4	469.3	599.7	689.6	686.4	576.2	443.5	362.2	410.5	414.1	191.5	134.5	164.6	307.6	680.2	3991	6435	330.4	16.04	3.752	2.954	2.270	1.817	1.360	1.075	1.084	0.966	0.847	0.750	0.802	0.653	0.633	0.615	0.758	0.806	0.895	0.897	1.245	1.349	1.823	1.795	1.550	1.580	1.490	1.445	1.325	1.131	1.243	1.314	1.385	1.510	1.673	1.675	2.088	2.148	2.473	2.524	3.008	3.195	3.406	3.480	3.724	3.255	2.806	2.604	2.553	2.465	2.369	2.839
345.0	294.1	443.3	518.0	448.4	351.4	295.8	283.7	304.3	365.2	460.6	565.9	646.1	650.7	560.7	459.2	368.4	349.7	435.8	325.3	168.3	140.1	147.9	211.5	1061	4801	5213	272.1	7.883	3.758	2.658	1.889	1.513	1.173	0.949	0.946	0.895	0.976	0.734	0.603	0.676	0.759	0.733	0.752	0.810	0.909	1.228	1.354	1.724	1.791	1.525	1.596	1.573	1.553	1.520	1.298	1.311	1.424	1.554	1.491	1.753	1.695	1.954	2.197	2.436	2.548	3.000	2.829	3.094	3.128	3.320	3.218	2.967	2.761	2.582	2.619	2.549	2.569
350.0	287.8	419.4	508.9	468.8	393.7	345.6	321.2	337.6	377.9	450.3	544.0	610.5	615.6	555.1	476.6	403.8	362.8	358.2	399.7	313.4	190.3	150.2	136.1	299.6	1256	3566	3982	1148	19.44	3.839	2.650	1.943	1.460	1.175	1.129	0.932	0.859	0.799	0.779	0.650	0.674	0.696	0.741	0.913	0.931	1.212	1.446	1.743	1.700	1.695	1.628	1.730	1.694	1.669	1.550	1.572	1.553	1.630	1.564	1.777	1.857	2.003	2.084	2.364	2.494	2.610	2.837	2.992	2.975	3.160	3.006	3.016	2.863	2.843	2.780	2.714	2.762
355.0	283.8	408.6	511.7	491.4	442.2	403.4	371.7	380.6	401.1	469.7	535.7	594.8	598.8	556.3	502.8	442.7	404.0	369.3	361.3	413.6	326.8	200.5	156.8	160.9	343.3	845.5	2058	5309	1814	25.35	3.821	2.462	2.019	1.370	1.116	0.976	0.901	0.740	0.866	0.674	0.654	0.773	0.885	0.915	0.976	1.100	1.342	1.715	1.709	1.715	1.641	2.033	1.811	1.737	1.805	1.771	1.687	1.836	1.575	1.936	1.944	2.097	2.216	2.560	2.369	2.720	2.699	2.908	2.928	3.140	3.192	2.963	3.078	2.877	2.768	3.066	2.770
360.0	275.1	411.5	517.9	508.6	464.1	444.8	420.5	419.6	437.1	486.4	543.0	588.3	598.2	569.3	518.4	472.1	438.4	400.9	370.5	387.7	426.8	285.0	192.6	153.3	159.4	243.3	524.7	2888	5454	324.5	16.04	3.121	2.195	1.688	1.343	1.096	0.995	0.880	0.784	0.768	0.750	0.726	0.906	0.915	1.016	1.061	1.272	1.552	1.809	1.837	1.637	1.934	2.011	1.992	1.988	2.074	1.916	2.042	1.966	2.118	2.065	2.227	2.208	2.468	2.509	2.664	2.725	2.988	2.911	3.145	3.086	3.209	2.901	3.027	3.022	3.241	2.906
365.0	268.7	424.1	513.8	519.3	499.6	485.2	459.8	451.8	468.7	505.2	562.7	591.4	600.7	575.6	532.9	496.0	469.9	433.6	398.7	383.5	421.0	393.2	242.1	179.5	138.8	125.5	165.5	750.9	3665	4773	273.9	8.088	2.998	2.060	1.702	1.171	1.096	0.969	0.884	0.778	0.770	0.854	0.852	0.796	0.959	1.106	1.306	1.594	1.823	1.821	1.625	2.010	2.045	2.052	2.205	1.985	2.204	2.130	2.012	2.096	2.267	2.352	2.489	2.379	2.591	2.661	2.670	2.812	3.004	3.173	3.109	3.117	3.168	3.073	3.040	3.137	3.264
370.0	271.6	421.4	518.0	540.3	536.6	526.8	510.0	496.9	508.3	534.2	583.4	602.4	607.2	582.3	553.3	522.5	505.2	472.6	443.4	416.7	398.3	417.2	360.7	239.1	167.2	128.1	108.0	217.2	937.2	2957	3321	1119	18.56	3.227	2.017	1.453	1.167	0.990	0.890	0.781	0.801	0.833	0.778	0.888	1.012	1.165	1.356	1.695	1.813	1.777	1.796	2.213	2.090	2.175	2.399	2.304	2.335	2.262	2.215	2.336	2.445	2.414	2.642	2.625	2.762	2.782	2.738	2.910	2.979	3.144	3.145	3.213	3.141	3.267	3.274	3.252	3.507
375.0	278.1	432.9	514.2	557.9	571.5	562.9	556.0	539.8	546.2	563.3	598.9	607.7	610.0	593.3	570.0	540.2	528.2	503.6	473.3	448.3	420.8	395.0	401.6	349.2	218.9	158.5	120.4	119.1	258.9	697.6	1480	4496	1789	23.85	3.267	2.016	1.403	1.133	0.971	0.863	0.874	0.940	0.859	0.879	1.035	1.202	1.390	1.585	1.852	1.812	1.831	2.126	2.289	2.269	2.340	2.439	2.803	2.533	2.598	2.583	2.728	2.462	2.840	2.715	2.685	2.794	2.843	2.867	2.976	3.185	3.176	3.165	3.323	3.536	3.397	3.497	3.578
380.0	275.8	423.8	509.4	568.0	595.0	598.7	575.0	574.3	578.0	575.4	607.3	616.6	616.3	595.5	573.9	548.8	546.5	515.9	496.9	467.7	441.2	402.9	384.9	396.0	290.5	191.0	143.2	113.7	122.7	199.0	374.8	2174	4528	282.2	15.86	2.595	1.723	1.418	1.102	0.967	0.882	0.949	1.015	0.963	1.060	1.206	1.387	1.716	1.753	1.931	1.940	2.312	2.424	2.460	2.445	2.422	2.672	2.483	2.523	2.821	2.746	2.748	2.751	2.956	2.661	2.995	3.008	3.065	2.924	3.361	3.141	3.163	3.268	3.472	3.367	3.604	3.677
385.0	290.2	419.1	518.9	583.8	601.2	606.1	600.8	589.5	580.7	590.7	606.5	620.4	621.5	591.2	574.9	553.9	547.9	523.1	512.6	482.8	459.1	419.7	382.5	378.1	353.3	236.0	169.3	130.3	107.0	101.7	122.6	551.3	2638	3794	242.6	8.867	2.243	1.666	1.365	1.064	0.967	1.041	0.881	1.004	1.174	1.322	1.371	1.713	1.698	1.916	1.870	2.139	2.423	2.612	2.588	2.537	2.631	2.581	2.579	2.794	2.632	2.824	2.872	2.769	2.895	2.928	2.920	3.113	3.015	3.130	3.214	3.205	3.307	3.429	3.307	3.646	3.671
390.0	284.3	428.3	536.6	586.5	610.8	622.9	620.7	603.3	597.0	606.6	612.0	618.5	614.8	592.7	575.0	553.3	546.7	528.0	516.2	493.9	466.9	434.9	396.0	363.3	351.1	315.8	223.7	162.0	128.6	100.6	82.97	161.3	656.2	2035	2389	1016	16.44	2.637	1.718	1.293	1.064	1.089	0.957	1.097	1.118	1.267	1.472	1.718	1.859	1.784	1.871	2.288	2.435	2.470	2.575	2.497	2.728	2.731	2.671	2.722	2.874	2.853	2.974	2.861	2.946	2.804	2.878	2.959	3.100	3.046	3.179	3.269	3.273	3.274	3.361	3.546	3.707
395.0	273.3	433.6	541.6	592.1	616.5	637.0	632.4	618.4	618.9	613.9	616.4	613.6	607.8	593.8	565.0	549.5	543.7	528.1	516.3	496.5	471.0	446.1	414.7	372.2	337.6	322.9	301.4	211.8	158.8	126.1	94.81	89.33	181.2	479.2	903.9	3044	1546	22.30	2.928	1.677	1.377	1.146	0.976	1.085	1.213	1.534	1.563	1.781	1.864	1.970	1.962	2.302	2.484	2.658	2.719	2.671	2.825	2.679	2.778	2.825	2.809	2.748	2.909	2.809	3.114	2.791	2.849	3.063	3.045	3.010	2.915	3.105	3.420	3.296	3.468	3.605	3.816
400.0	286.6	446.2	532.7	600.9	627.4	628.4	641.9	630.4	619.3	614.8	617.7	610.7	600.8	588.5	561.7	546.6	536.3	525.9	510.0	494.7	474.1	448.2	420.7	385.2	342.9	312.8	319.1	268.2	187.1	145.7	112.0	84.52	84.97	137.7	227.9	1281	3226	1133	15.81	2.205	1.628	1.395	1.240	1.151	1.234	1.408	1.442	1.844	1.919	1.958	1.899	2.257	2.418	2.615	2.699	2.684	2.739	2.901	2.758	2.698	2.797	2.738	2.924	2.758	2.814	2.882	3.020	2.960	3.034	2.810	3.129	3.168	3.277	3.347	3.452	3.250	3.651
405.0	291.6	436.4	538.9	600.0	613.2	649.9	645.6	633.2	621.0	619.4	616.4	606.9	597.6	584.2	556.0	537.0	524.2	512.3	503.6	486.5	468.8	447.2	421.3	388.6	353.4	314.4	301.4	302.4	229.3	164.4	128.7	96.86	74.52	68.60	77.23	316.8	1612	2983	224.2	9.943	2.068	1.689	1.469	1.239	1.242	1.440	1.527	1.795	1.810	1.868	1.855	2.351	2.458	2.704	2.854	2.719	2.942	2.780	2.795	3.094	2.798	2.848	2.938	3.022	2.886	2.906	2.832	2.786	3.031	2.895	2.964	3.058	3.135	3.137	3.298	3.531	3.428
410.0	289.3	420.2	534.8	584.6	616.0	632.6	644.4	630.9	624.4	615.5	608.8	601.3	583.7	562.1	538.1	516.5	508.7	496.0	488.7	473.0	458.4	439.5	416.5	388.8	357.9	324.4	297.8	289.7	275.8	211.6	151.7	113.2	85.06	64.07	51.35	93.45	392.4	1362	1806	935.2	16.11	2.535	1.723	1.389	1.325	1.495	1.460	1.776	1.927	1.872	1.872	2.309	2.525	2.554	2.634	2.740	2.722	2.755	2.878	2.987	2.768	2.796	2.948	2.951	2.874	2.831	2.793	2.965	2.874	2.857	3.005	2.939	3.071	3.116	3.216	3.397	3.433
415.0	281.3	405.1	520.1	576.6	613.4	623.6	629.2	631.1	621.2	606.4	601.7	587.4	562.9	546.5	515.5	493.3	486.3	471.8	463.6	451.1	435.9	424.3	406.7	387.0	359.7	330.8	301.4	277.2	268.7	257.6	186.9	132.4	99.30	73.72	54.05	50.37	108.1	318.3	600.5	2096	1397	22.70	2.323	1.753	1.520	1.653	1.427	1.629	1.969	1.858	1.858	2.376	2.527	2.579	2.545	2.731	2.804	2.900	2.915	2.826	2.765	2.875	2.909	2.903	2.869	2.717	2.755	2.727	2.920	2.695	2.873	2.893	2.897	3.114	3.065	3.169	3.197
420.0	274.2	400.9	513.3	560.8	601.1	618.6	627.1	631.5	616.2	602.0	600.6	573.0	552.0	529.8	497.2	476.9	464.1	450.3	444.3	432.5	422.4	411.9	396.0	377.3	357.3	328.1	301.9	277.9	257.1	256.3	225.1	150.9	111.2	81.74	60.48	46.31	48.96	87.96	148.4	796.8	2350	1020	16.35	2.309	1.711	1.661	1.557	1.822	1.905	1.782	1.757	2.232	2.378	2.573	2.530	2.635	2.622	2.686	2.918	2.744	2.589	2.844	2.915	2.988	2.790	2.735	2.639	2.529	2.776	2.737	3.063	2.773	2.896	2.919	2.945	3.249	3.252
425.0	269.4	387.9	497.4	542.5	578.4	606.7	617.5	616.4	614.7	596.3	588.2	564.4	544.5	511.3	478.9	457.8	447.3	433.8	427.1	417.6	406.8	395.9	385.1	368.0	348.7	327.8	301.0	278.1	256.2	239.2	239.4	180.5	121.3	91.45	68.00	51.01	40.89	40.51	47.82	194.1	1045	2270	219.8	10.33	2.326	1.964	1.602	1.838	1.944	1.905	1.787	2.182	2.319	2.500	2.469	2.504	2.674	2.768	2.801	2.673	2.654	2.763	2.760	2.818	2.544	2.683	2.562	2.687	2.543	2.790	2.700	2.825	2.935	2.913	2.774	3.044	3.094
430.0	299.2	375.4	469.2	533.5	561.9	584.7	598.1	608.9	599.9	585.2	578.7	550.5	526.8	494.2	460.1	436.5	423.2	410.3	404.9	397.4	384.7	378.6	368.0	357.3	339.8	319.0	300.8	277.6	257.7	236.7	220.6	201.0	150.7	104.9	77.73	59.85	45.40	35.62	29.89	57.33	250.6	947.9	1520	866.1	15.62	2.669	1.854	1.878	1.904	1.819	1.779	2.185	2.263	2.458	2.559	2.393	2.734	2.637	2.660	2.679	2.727	2.809	2.725	2.811	2.851	2.550	2.620	2.617	2.651	2.583	2.587	2.645	2.784	2.898	2.766	2.895	3.071
435.0	463.7	378.2	452.3	502.9	538.9	565.7	590.5	592.3	592.9	586.9	568.9	543.1	511.9	479.5	444.9	414.8	400.9	391.8	384.0	375.6	366.6	361.3	351.0	344.1	329.4	310.7	294.4	276.5	259.4	238.0	214.0	192.4	176.5	129.0	89.48	69.28	52.60	40.54	31.33	31.09	69.17	221.1	463.9	1722	1315	21.44	2.792	2.180	2.020	1.805	1.757	2.215	2.258	2.240	2.427	2.352	2.598	2.506	2.571	2.788	2.727	2.806	2.835	2.653	2.727	2.571	2.513	2.680	2.552	2.514	2.460	2.793	2.717	2.716	2.648	2.827	2.964
440.0	602.1	432.6	438.8	497.3	532.7	553.7	579.3	580.0	587.5	579.6	555.9	537.8	497.5	461.5	431.3	402.8	386.6	374.7	368.7	358.3	351.9	344.1	337.2	332.8	317.8	303.4	289.9	272.5	256.8	237.7	212.0	186.0	172.3	149.9	101.7	76.18	59.46	44.74	35.15	28.01	31.57	61.21	114.4	636.7	2071	960.9	14.52	2.620	2.271	1.921	1.854	2.054	2.229	2.361	2.331	2.379	2.493	2.662	2.580	2.544	2.578	2.795	2.684	2.484	2.659	2.501	2.615	2.500	2.625	2.398	2.403	2.521	2.599	2.497	2.508	2.613	2.602
445.0	594.6	657.3	438.7	490.4	516.5	542.7	565.4	565.7	566.0	570.3	552.6	516.9	483.3	446.6	415.9	385.9	370.8	361.4	350.7	341.1	334.1	329.4	320.2	317.0	306.9	295.8	281.3	266.5	254.4	238.2	211.9	182.6	161.2	153.1	120.5	82.77	64.39	49.77	38.59	31.04	25.69	27.36	36.62	154.6	900.3	2071	187.2	9.661	2.480	2.016	1.869	2.188	2.323	2.273	2.201	2.304	2.537	2.398	2.376	2.530	2.793	2.752	2.738	2.573	2.643	2.493	2.427	2.344	2.543	2.281	2.461	2.305	2.590	2.470	2.551	2.586	2.533
450.0	385.8	980.1	581.2	458.9	487.6	508.4	528.9	546.2	546.6	548.1	528.9	499.4	460.7	425.3	392.6	361.7	343.3	332.5	326.3	315.8	309.5	303.5	300.8	296.1	286.9	276.6	265.3	255.9	244.7	230.5	207.9	180.6	155.1	139.6	129.8	100.3	72.02	55.26	44.61	34.86	28.01	23.47	21.56	45.09	215.1	851.0	1300	746.5	13.18	2.559	1.961	2.065	2.217	2.155	2.261	2.295	2.413	2.385	2.572	2.485	2.677	2.576	2.563	2.588	2.467	2.475	2.405	2.317	2.292	2.176	2.214	2.194	2.527	2.324	2.304	2.330	2.392
455.0	247.0	854.9	1120	463.2	463.3	472.5	496.3	508.1	515.6	506.7	503.3	470.4	437.8	394.8	363.1	335.9	316.9	305.0	297.5	288.2	284.8	278.5	273.7	268.9	264.4	256.7	245.3	239.7	230.8	219.2	198.7	175.6	152.8	131.1	118.3	110.0	84.36	61.79	48.14	38.85	31.13	25.52	20.76	22.91	57.21	197.2	400.3	1396	987.0	15.63	2.416	2.123	2.257	2.107	2.110	1.948	2.320	2.439	2.329	2.419	2.415	2.451	2.424	2.466	2.378	2.324	2.354	2.230	2.202	2.051	2.191	1.994	2.423	2.214	2.187	2.221	2.253
460.0	196.7	528.9	1496	612.1	428.7	453.4	478.0	482.6	491.1	490.9	478.5	454.2	413.0	372.6	343.7	315.5	295.6	281.8	276.4	267.4	263.4	257.9	255.3	249.7	244.3	239.2	230.4	223.9	218.7	206.8	190.8	168.8	147.3	126.4	110.3	104.3	94.44	67.60	50.75	41.42	33.82	26.96	22.01	18.97	23.27	52.43	96.98	518.7	1571	616.0	10.54	2.596	2.197	1.988	2.105	2.056	2.209	2.378	2.264	2.233	2.436	2.388	2.398	2.396	2.176	2.202	2.045	2.166	2.185	2.150	2.115	2.053	2.155	2.148	2.151	2.120	2.176
465.0	181.7	328.3	1354	1101	415.3	432.1	453.8	454.8	461.3	456.4	454.9	426.7	389.8	354.8	320.5	297.3	278.2	263.7	254.7	247.0	242.1	238.3	235.5	232.8	229.1	222.1	216.4	211.2	209.0	196.9	181.9	163.3	143.6	124.7	106.6	95.50	94.73	75.85	54.69	42.96	35.43	28.92	23.48	19.25	16.91	21.29	29.25	124.7	723.5	1386	144.4	6.459	2.440	2.131	1.911	2.062	2.015	2.105	2.247	2.112	2.232	2.251	2.373	2.119	2.099	2.056	2.084	1.866	2.040	1.891	1.925	2.147	1.958	1.846	1.978	2.112	1.947
470.0	185.4	251.4	714.7	1618	690.2	393.6	409.6	426.8	429.7	430.3	426.4	397.0	359.1	323.7	293.8	268.0	252.2	242.4	232.4	223.3	218.1	214.6	213.4	210.0	206.4	202.9	196.4	193.8	189.4	182.8	169.5	153.1	134.0	117.5	100.9	88.38	82.40	77.78	61.79	45.84	37.08	30.73	25.45	20.94	17.08	15.31	14.74	34.44	172.7	620.9	947.4	517.9	11.91	2.351	2.081	1.912	1.889	2.009	2.063	2.051	2.038	2.088	2.188	1.940	2.020	1.898	1.968	1.857	1.966	1.926	1.926	1.810	1.789	1.798	1.718	1.909	1.856
475.0	197.3	219.4	370.3	1187	1493	410.2	373.0	385.7	399.3	394.9	388.2	361.3	327.6	294.3	269.7	243.2	226.9	214.8	205.5	200.0	193.3	190.1	189.9	186.2	183.6	178.8	174.9	173.8	168.5	165.7	155.0	141.9	124.7	111.0	95.54	83.12	74.12	68.18	67.17	52.00	38.31	31.99	26.85	22.54	18.25	14.88	12.61	14.82	44.35	143.4	298.4	960.6	624.5	15.04	2.544	2.075	1.967	1.880	2.002	1.914	2.050	2.095	1.975	1.856	1.817	1.857	1.743	1.604	1.747	1.629	1.696	1.714	1.597	1.594	1.578	1.698	1.831
480.0	174.8	225.9	280.6	632.1	1875	633.0	350.4	365.4	371.3	367.3	363.1	341.4	308.0	277.8	250.6	226.6	211.2	198.5	190.3	184.5	178.7	176.7	173.4	172.6	168.2	164.9	162.4	160.2	157.5	154.0	144.2	133.5	119.3	105.8	90.99	81.07	71.11	62.26	62.10	56.47	41.41	32.85	27.40	23.24	19.16	15.68	12.82	11.30	16.21	37.27	71.50	375.3	1136	181.5	9.371	2.294	1.921	1.734	1.920	1.876	1.892	1.890	1.717	1.785	1.857	1.765	1.673	1.536	1.806	1.587	1.660	1.580	1.553	1.533	1.460	1.653	1.652
485.0	158.6	231.4	244.6	369.2	1608	1167	336.6	339.9	347.5	350.3	345.9	326.6	290.7	263.7	235.1	213.2	198.4	184.6	176.3	171.5	165.3	165.1	162.2	159.4	156.3	154.1	152.4	149.8	147.8	144.6	138.2	126.3	113.2	100.7	87.38	78.65	68.26	60.19	56.73	56.69	47.19	35.08	28.26	24.44	20.24	16.61	13.56	11.36	10.41	13.87	20.41	91.03	590.4	1048	146.1	3.702	2.107	1.807	1.769	2.010	1.852	1.682	1.649	1.786	1.668	1.680	1.640	1.437	1.634	1.445	1.740	1.534	1.555	1.452	1.447	1.561	1.575
490.0	131.2	222.9	239.1	273.0	775.1	1735	578.0	319.9	323.8	323.1	321.1	301.9	273.0	243.8	219.0	196.3	182.7	169.5	161.7	157.6	151.5	148.6	147.3	145.8	143.6	139.6	138.9	137.0	134.7	133.3	127.7	117.6	105.5	93.34	83.50	74.06	65.95	57.70	52.07	49.87	48.65	39.43	30.05	25.22	21.18	17.53	14.59	12.11	10.19	9.153	9.525	24.59	142.7	511.5	875.7	391.6	11.10	2.010	1.815	1.827	1.759	1.793	1.622	1.656	1.629	1.613	1.586	1.451	1.481	1.428	1.541	1.423	1.467	1.364	1.490	1.516	1.596
495.0	115.8	180.6	250.6	229.6	357.6	1291	1369	318.7	289.7	293.3	297.2	274.1	251.2	224.6	200.9	178.2	164.4	153.8	146.4	142.0	135.8	134.5	131.7	129.5	128.6	126.4	125.4	123.1	121.4	121.3	116.8	107.3	98.81	87.30	78.02	69.15	62.29	55.15	49.63	44.38	43.39	43.03	33.47	25.80	21.84	18.30	15.03	12.85	10.52	8.726	7.521	9.860	35.86	117.7	322.9	973.7	200.2	12.66	2.050	1.808	1.747	1.696	1.493	1.590	1.602	1.491	1.453	1.328	1.372	1.378	1.306	1.218	1.272	1.452	1.307	1.330	1.344
500.0	106.0	158.6	248.2	219.5	242.6	672.3	1857	495.1	274.8	276.8	270.1	252.4	230.8	205.1	185.7	166.6	150.8	141.1	134.7	129.2	123.9	122.3	121.5	118.6	116.4	114.9	114.2	112.5	111.7	111.2	106.5	100.2	92.39	81.46	72.67	65.59	58.65	51.93	46.74	42.07	38.27	39.98	36.60	26.75	21.24	18.17	15.03	12.79	10.70	8.870	7.391	6.802	12.11	29.72	76.71	432.8	1003	176.6	5.874	1.856	1.550	1.527	1.409	1.444	1.461	1.397	1.368	1.349	1.283	1.356	1.264	1.280	1.247	1.259	1.251	1.294	1.234
505.0	89.77	139.7	222.4	218.4	208.2	342.4	1694	991.4	255.7	253.1	251.0	232.9	213.0	186.5	171.9	152.4	138.3	130.8	123.0	118.0	113.4	110.0	108.9	107.2	106.8	104.7	105.1	102.5	100.9	101.3	97.32	92.11	83.03	75.18	67.63	60.68	53.76	48.94	43.91	39.61	35.37	33.88	35.95	29.35	21.85	18.72	15.18	12.64	11.04	9.083	7.784	6.262	6.833	10.32	20.42	105.7	600.7	875.0	26.67	2.586	1.777	1.567	1.279	1.401	1.394	1.367	1.317	1.386	1.159	1.276	1.241	1.135	1.145	1.141	1.178	1.166	1.056
510.0	85.94	117.9	173.6	220.4	194.5	225.6	821.9	1684	442.8	226.4	224.6	210.0	190.1	166.9	152.1	134.2	122.5	114.3	108.8	103.1	99.94	97.03	96.84	95.17	93.08	91.53	91.53	89.57	89.21	88.68	86.14	81.07	73.92	67.06	60.58	54.83	49.00	44.97	39.83	36.01	32.62	29.77	30.42	29.87	23.78	18.16	14.72	12.69	10.96	8.928	7.822	6.247	5.731	5.989	7.815	26.38	148.0	483.4	651.7	112.6	8.576	1.670	1.337	1.294	1.291	1.299	1.153	1.170	1.095	1.157	1.175	1.032	1.096	1.067	1.038	0.974	1.018
515.0	77.44	100.7	135.7	196.0	189.2	174.9	326.0	1405	1217	215.2	196.4	188.1	166.1	148.5	130.2	117.6	107.2	100.9	93.16	89.63	86.42	83.12	82.41	81.08	80.93	77.52	78.37	78.37	77.24	76.10	75.27	70.24	63.60	57.93	52.87	48.90	44.34	40.07	36.09	32.74	29.53	26.69	25.30	25.72	24.91	19.37	14.61	12.04	10.58	8.781	7.412	6.421	5.544	5.231	5.022	8.767	35.52	110.6	269.6	670.4	182.4	8.395	1.523	1.228	1.187	1.143	1.002	1.031	0.980	0.981	1.053	0.825	1.020	0.924	1.009	0.852	0.914
520.0	72.89	93.62	122.6	159.1	188.0	154.8	200.8	734.2	1831	359.7	180.9	168.0	151.1	136.1	116.9	104.4	96.94	89.46	84.34	80.37	77.96	75.25	73.55	72.92	71.31	68.98	70.42	68.77	68.75	68.14	66.28	62.01	57.14	53.03	48.76	44.10	40.22	36.99	33.32	30.06	26.76	24.32	22.45	21.89	23.66	20.20	14.77	11.60	9.969	8.451	7.196	6.554	5.993	4.887	4.351	4.740	10.66	26.84	64.53	349.1	656.7	134.4	2.851	1.245	1.154	1.030	0.924	0.962	0.988	0.892	0.845	0.796	0.890	0.898	0.917	0.876	0.769
525.0	65.14	86.43	113.1	135.1	186.8	148.3	154.3	316.6	1803	830.5	167.4	149.1	133.5	121.1	106.6	93.52	87.89	81.60	75.94	73.29	69.58	67.72	65.82	65.24	64.11	61.77	62.15	61.05	62.07	61.40	59.32	56.74	51.86	47.82	44.32	40.44	36.46	33.31	30.32	27.99	24.89	23.30	20.69	19.19	20.06	20.35	15.75	11.38	9.509	8.146	7.031	5.989	5.791	5.074	4.305	3.856	4.895	8.092	16.51	88.02	434.8	549.8	24.28	1.699	1.233	1.095	0.972	1.026	0.906	0.834	0.828	0.823	0.844	0.844	0.736	0.833	0.838
530.0	53.92	73.42	98.45	110.0	152.7	153.6	131.3	173.2	883.2	1681	324.0	133.4	118.5	106.8	93.45	82.18	76.11	71.28	67.04	62.74	60.72	59.22	57.78	56.07	54.90	53.36	53.28	53.98	54.04	53.59	51.51	49.54	45.03	41.61	38.29	35.02	32.09	29.81	27.44	24.43	22.50	20.82	18.93	17.32	16.60	17.19	16.36	12.17	9.183	7.830	6.754	5.850	5.420	4.961	4.372	3.711	3.635	4.029	5.623	21.43	109.3	338.2	424.0	104.2	6.031	1.078	0.938	0.956	0.860	0.857	0.817	0.782	0.737	0.770	0.711	0.726	0.708
535.0	49.06	69.66	79.52	93.62	111.5	159.3	119.0	124.8	294.8	1530	1082	127.1	105.2	93.10	81.84	70.02	65.29	60.83	56.92	54.08	52.26	49.88	49.51	48.84	47.33	46.18	45.27	45.39	45.19	45.45	44.55	43.00	39.75	36.12	33.29	30.85	28.22	26.04	23.68	21.40	19.93	18.22	16.80	15.23	14.38	13.37	14.52	13.12	9.754	7.540	6.413	5.562	5.084	4.700	4.241	3.779	3.306	2.982	3.081	6.479	25.84	77.46	194.9	468.2	150.4	4.321	0.855	0.818	0.855	0.811	0.751	0.708	0.642	0.598	0.643	0.739	0.740
540.0	45.51	63.24	70.97	80.15	90.39	144.5	124.5	106.8	147.4	807.3	1810	175.9	93.94	82.86	74.83	65.16	59.89	54.20	51.16	48.58	46.50	44.09	42.81	42.71	41.74	41.05	40.08	40.08	39.79	40.75	39.05	37.64	35.06	32.22	29.70	27.65	25.11	23.86	21.46	19.19	17.88	16.47	15.41	13.75	13.20	12.09	12.19	12.80	10.32	7.474	5.921	5.307	4.616	4.333	4.083	3.744	3.215	2.699	2.602	3.090	7.079	18.68	47.14	260.1	453.2	27.10	1.580	0.892	0.738	0.708	0.818	0.779	0.604	0.602	0.693	0.596	0.614
545.0	38.38	56.60	63.03	69.72	80.80	114.5	128.5	99.27	108.0	310.2	1924	616.9	87.18	75.16	68.66	59.74	51.77	49.17	45.75	43.15	41.28	39.79	39.36	37.67	36.84	36.87	36.66	35.85	35.74	36.89	35.66	33.54	31.66	28.75	26.36	24.69	22.82	21.04	19.82	18.30	16.53	15.34	13.97	12.56	11.99	10.71	10.44	11.25	10.57	7.808	5.437	4.981	4.288	3.968	3.864	3.555	3.237	2.678	2.483	2.278	3.019	5.481	11.74	66.51	318.7	356.5	21.57	1.105	0.736	0.660	0.802	0.685	0.563	0.580	0.592	0.632	0.629
550.0	42.65	52.82	56.73	60.58	72.79	83.23	128.1	102.1	90.83	137.8	969.4	1497	202.8	65.43	58.39	52.20	45.54	43.49	40.02	37.72	36.00	34.84	33.62	32.38	32.10	31.45	31.67	30.39	30.77	31.28	31.16	29.58	27.27	24.90	23.08	21.48	19.98	18.73	17.17	15.99	14.56	13.40	12.67	11.34	10.48	9.497	8.942	8.883	9.501	8.331	5.990	4.831	4.185	3.785	3.496	3.273	3.210	2.804	2.272	1.963	2.001	2.490	3.747	15.91	81.36	240.0	262.8	90.24	4.201	0.772	0.683	0.598	0.568	0.547	0.582	0.568	0.560
555.0	32.72	44.93	47.62	54.29	61.14	66.90	101.2	111.5	80.83	91.39	290.8	1554	811.6	64.19	50.09	44.33	40.78	37.43	33.96	31.77	30.99	29.72	28.10	28.19	27.08	26.11	26.62	26.47	26.22	26.60	26.84	25.07	22.92	21.18	19.96	18.54	17.42	16.02	14.90	13.73	12.35	11.57	10.84	10.25	9.091	8.782	7.967	7.320	7.204	7.946	6.808	4.736	3.928	3.526	3.174	3.014	2.989	2.579	2.387	1.999	1.659	1.572	2.004	4.500	19.05	54.99	134.2	336.1	118.3	2.809	0.692	0.741	0.546	0.654	0.536	0.549	0.511
560.0	29.11	45.94	48.46	47.52	55.95	57.96	73.15	115.9	76.24	75.76	122.6	837.1	1548	110.2	43.85	39.92	36.01	31.79	29.35	28.16	27.24	25.83	25.33	25.03	23.60	23.44	23.30	23.77	23.23	23.35	23.17	21.88	20.26	18.81	17.53	16.08	15.21	13.94	12.98	11.94	10.98	10.32	9.689	9.434	8.310	7.545	7.023	6.227	5.777	6.464	6.579	5.252	3.751	3.361	2.877	2.844	2.623	2.465	2.420	2.002	1.552	1.516	1.445	2.010	5.192	13.09	32.91	190.3	321.3	25.44	1.158	0.686	0.489	0.521	0.494	0.518	0.464
565.0	33.92	38.99	45.96	42.56	48.04	52.64	57.65	106.2	82.75	67.04	80.79	296.3	1766	394.8	40.82	36.12	31.51	28.36	26.16	24.93	23.96	22.32	22.42	21.83	20.92	20.41	20.51	20.68	20.68	20.74	20.17	18.81	17.99	16.40	15.80	14.25	13.18	12.11	11.50	10.62	9.958	9.076	8.715	8.424	7.449	6.774	6.224	5.687	5.097	5.012	5.702	5.272	3.665	3.128	2.698	2.695	2.377	2.080	2.145	2.172	1.531	1.361	1.408	1.287	2.052	3.787	8.080	48.67	229.2	216.2	18.68	0.706	0.528	0.550	0.482	0.423	0.480
570.0	34.35	37.21	39.84	38.36	41.56	44.26	47.76	75.81	97.61	63.75	66.07	114.3	899.1	1187	78.43	29.52	26.70	23.35	22.19	20.41	19.97	18.94	18.28	17.76	17.29	16.87	16.49	16.43	16.95	16.77	16.38	15.53	14.71	13.75	12.82	11.62	10.87	9.971	9.470	8.973	8.170	7.732	7.219	6.926	6.442	5.793	5.549	4.768	4.366	4.008	4.281	4.671	3.989	2.960	2.465	2.329	2.147	1.965	1.778	1.801	1.674	1.383	1.280	1.151	1.257	1.693	2.618	11.73	58.40	162.7	191.6	62.02	2.524	0.490	0.460	0.407	0.405
575.0	36.57	42.14	38.40	33.79	35.14	34.60	37.41	51.93	93.61	73.53	63.03	74.46	256.7	1347	534.5	26.21	21.82	18.24	17.77	16.70	15.46	14.86	14.50	14.01	13.53	13.34	12.78	12.60	13.04	13.24	13.21	12.22	11.33	10.73	10.00	9.502	8.656	8.032	7.701	7.368	6.657	6.224	5.828	5.474	5.215	4.964	4.587	3.803	3.759	3.263	3.271	3.274	3.724	2.991	2.166	1.919	1.860	1.611	1.506	1.436	1.391	1.478	1.102	1.017	1.019	1.104	1.401	3.263	13.67	37.41	89.65	205.1	27.91	1.613	0.456	0.423	0.402
580.0	35.66	42.50	39.29	34.87	28.84	28.75	33.58	42.11	75.73	89.34	64.13	67.03	101.8	722.3	1183	57.16	18.91	15.27	14.19	13.39	12.63	11.87	12.00	11.48	11.08	11.09	10.64	10.50	10.18	10.69	10.90	9.977	9.068	8.248	7.876	7.476	6.949	6.677	6.305	5.779	5.558	5.313	4.688	4.730	4.233	4.088	3.768	3.164	3.004	2.679	2.548	2.331	3.001	3.059	2.140	1.692	1.612	1.551	1.265	1.159	1.193	1.429	1.187	1.011	0.918	0.944	0.994	1.283	3.768	8.921	21.95	113.4	170.5	21.89	0.753	0.394	0.456
585.0	36.29	42.25	37.12	33.55	29.32	26.57	30.63	34.73	58.68	99.85	69.21	66.05	68.58	243.7	1419	241.3	16.62	12.87	12.68	11.06	10.97	9.644	9.649	9.348	9.088	8.968	8.924	8.775	8.577	8.947	9.021	7.947	7.406	7.188	6.666	6.146	5.849	5.677	5.244	4.789	4.684	4.265	3.855	3.893	3.490	3.340	3.160	2.678	2.598	2.177	2.055	1.893	2.287	2.641	2.138	1.636	1.536	1.297	1.211	1.076	1.051	1.149	1.125	1.089	0.815	0.923	0.890	0.830	1.291	2.615	5.515	29.27	122.2	131.1	14.35	0.484	0.440
590.0	36.74	41.38	37.49	30.08	24.18	26.14	27.00	30.97	44.14	88.64	86.76	68.78	63.02	87.17	719.4	836.3	44.24	10.96	9.664	9.058	8.541	7.965	7.737	7.314	7.214	7.040	6.876	6.764	6.909	6.848	6.618	6.187	5.789	5.403	5.126	4.970	4.489	4.298	3.996	3.632	3.648	3.347	3.177	3.000	2.814	2.710	2.373	2.276	2.009	1.692	1.631	1.617	1.567	1.896	2.036	1.641	1.301	1.095	0.953	0.908	1.003	0.941	0.968	1.129	0.979	0.880	0.837	0.791	0.760	1.124	1.733	6.934	31.11	84.07	98.20	17.47	1.471
595.0	36.77	45.35	40.87	29.27	22.18	20.74	23.46	28.56	37.71	65.69	102.5	75.24	64.72	48.83	186.0	965.0	380.6	10.55	7.868	7.178	6.424	6.284	5.950	5.872	5.494	5.306	5.089	5.371	5.303	5.454	5.098	4.676	4.326	4.045	4.107	3.833	3.653	3.348	3.138	3.063	2.694	2.533	2.574	2.395	2.108	2.173	1.930	1.848	1.611	1.462	1.259	1.267	1.142	1.300	1.619	1.531	1.283	0.921	0.885	0.794	0.777	0.757	0.833	0.913	1.005	0.979	0.788	0.804	0.807	0.704	0.819	1.942	7.295	19.17	42.73	99.21	24.47
600.0	34.85	40.97	41.26	28.90	19.84	19.35	19.59	26.85	35.65	53.80	101.7	84.43	62.77	40.70	56.70	504.8	855.2	28.22	7.049	5.975	5.670	5.090	5.069	4.815	4.500	4.634	4.390	4.487	4.279	4.352	4.236	4.041	3.812	3.427	3.278	3.116	3.133	2.666	2.630	2.384	2.268	2.234	2.139	2.043	1.869	1.834	1.595	1.597	1.399	1.256	1.055	1.182	1.041	1.015	1.178	1.343	1.416	0.877	0.753	0.750	0.643	0.709	0.760	0.792	0.868	0.885	0.774	0.771	0.648	0.639	0.557	0.963	1.972	4.624	10.38	53.56	89.76
605.0	33.20	40.40	43.24	28.31	18.17	17.48	21.16	26.19	32.62	48.24	88.96	95.89	63.73	39.39	27.12	156.9	1017	72.03	6.282	5.233	5.273	4.522	4.169	4.081	3.899	3.876	3.591	3.889	3.448	3.790	3.508	3.317	3.084	2.918	2.685	2.537	2.625	2.339	2.303	2.068	1.827	1.950	1.817	1.798	1.722	1.598	1.446	1.352	1.162	1.114	0.885	0.961	0.885	0.821	0.874	1.063	1.234	0.863	0.825	0.630	0.617	0.631	0.705	0.697	0.719	0.805	0.883	0.669	0.599	0.684	0.541	0.543	0.790	1.339	2.624	13.86	60.89
610.0	36.90	40.18	38.84	27.01	18.31	16.62	17.54	23.79	30.17	45.94	73.30	100.1	68.34	38.98	20.45	44.63	508.7	563.2	26.02	4.356	4.336	3.787	3.641	3.241	3.340	3.103	3.033	3.087	2.946	2.929	2.829	2.714	2.578	2.341	2.387	2.152	2.001	2.022	1.826	1.646	1.548	1.516	1.543	1.347	1.314	1.227	1.102	1.196	0.946	0.898	0.891	0.838	0.740	0.656	0.766	0.761	1.014	0.976	0.845	0.643	0.674	0.656	0.598	0.670	0.641	0.855	0.911	0.737	0.672	0.676	0.511	0.485	0.517	0.638	0.912	3.398	15.49
615.0	30.84	41.11	34.79	24.08	16.20	15.91	15.47	22.26	29.40	43.38	62.43	90.02	76.56	37.93	18.47	17.56	126.6	657.6	226.2	4.861	3.455	2.998	2.704	2.651	2.875	2.626	2.396	2.421	2.270	2.273	2.399	2.173	2.055	1.905	1.969	1.729	1.668	1.442	1.422	1.273	1.303	1.331	1.184	1.045	1.072	1.132	0.885	0.947	0.815	0.708	0.693	0.609	0.623	0.585	0.570	0.600	0.750	0.764	0.816	0.582	0.539	0.639	0.518	0.595	0.591	0.623	0.683	0.839	0.834	0.626	0.481	0.488	0.416	0.409	0.474	1.095	3.763
620.0	31.64	38.18	35.40	24.05	16.65	12.33	16.34	18.92	28.27	40.93	54.26	75.55	81.53	38.27	18.56	11.71	34.37	347.0	514.8	15.44	3.234	2.600	2.621	2.481	2.248	2.074	1.997	2.002	2.044	2.088	1.944	1.770	1.788	1.631	1.599	1.361	1.446	1.315	1.112	1.249	1.061	1.031	0.902	0.983	1.007	0.892	0.908	0.881	0.747	0.670	0.647	0.548	0.580	0.566	0.535	0.537	0.557	0.627	0.790	0.534	0.586	0.543	0.537	0.505	0.498	0.551	0.536	0.705	0.734	0.692	0.460	0.470	0.484	0.340	0.287	0.522	1.096
625.0	31.71	33.65	30.97	20.40	16.25	13.05	15.45	19.60	28.67	39.01	50.43	63.39	79.10	41.24	17.68	10.12	13.77	108.1	675.5	56.73	2.923	2.751	2.223	2.321	1.906	1.953	1.653	1.884	1.791	1.701	1.551	1.613	1.665	1.551	1.237	1.209	1.261	1.167	1.063	1.087	0.955	0.867	0.809	0.922	0.749	0.803	0.833	0.734	0.667	0.624	0.581	0.554	0.479	0.456	0.502	0.462	0.567	0.577	0.683	0.698	0.619	0.516	0.423	0.491	0.494	0.556	0.550	0.559	0.648	0.733	0.450	0.415	0.450	0.379	0.259	0.460	0.546
630.0	29.23	32.78	29.23	20.39	13.66	12.01	13.96	18.76	24.89	34.99	48.12	55.39	64.98	48.10	17.23	9.555	9.051	28.88	358.0	417.0	18.47	2.320	2.008	1.923	1.722	1.692	1.627	1.607	1.612	1.399	1.346	1.373	1.341	1.444	1.078	1.081	1.087	0.935	0.865	0.888	0.808	0.758	0.749	0.787	0.673	0.683	0.653	0.649	0.633	0.491	0.469	0.472	0.517	0.439	0.424	0.435	0.423	0.442	0.569	0.564	0.578	0.531	0.443	0.484	0.555	0.529	0.519	0.578	0.562	0.700	0.562	0.427	0.472	0.339	0.294	0.357	0.357
635.0	27.68	32.45	29.56	19.47	12.76	11.28	14.50	16.22	23.46	32.34	43.72	48.47	50.09	50.29	19.60	9.719	8.145	10.52	88.81	500.0	166.6	2.702	1.945	1.570	1.618	1.447	1.261	1.198	1.249	1.209	1.174	1.214	1.194	1.070	0.986	0.969	0.945	0.779	0.694	0.722	0.751	0.694	0.688	0.697	0.563	0.559	0.504	0.510	0.545	0.392	0.384	0.404	0.493	0.367	0.369	0.366	0.426	0.415	0.425	0.423	0.501	0.544	0.509	0.427	0.446	0.519	0.511	0.579	0.533	0.614	0.557	0.557	0.487	0.338	0.342	0.317	0.373
640.0	25.58	32.40	27.70	18.87	12.81	11.16	13.29	16.89	21.33	30.52	39.75	45.44	43.56	45.07	25.54	9.854	8.073	6.088	22.98	280.6	405.5	8.979	1.749	1.523	1.257	1.265	1.212	1.194	1.150	1.123	0.986	0.993	0.982	0.897	0.863	0.839	0.907	0.720	0.598	0.795	0.738	0.556	0.496	0.637	0.463	0.476	0.479	0.482	0.445	0.360	0.370	0.362	0.410	0.332	0.351	0.335	0.463	0.342	0.365	0.343	0.545	0.561	0.427	0.476	0.397	0.390	0.483	0.575	0.445	0.517	0.544	0.533	0.468	0.410	0.358	0.263	0.300
645.0	25.87	26.98	25.33	18.28	13.61	11.61	12.27	15.03	21.01	27.39	35.11	42.32	37.74	38.01	31.70	10.53	8.620	5.561	8.317	89.48	509.2	43.91	1.806	1.281	1.291	1.086	1.076	1.057	1.031	1.054	0.882	0.902	0.953	0.885	0.771	0.831	0.713	0.664	0.713	0.636	0.553	0.592	0.489	0.547	0.481	0.527	0.452	0.421	0.401	0.376	0.320	0.342	0.377	0.312	0.329	0.329	0.370	0.387	0.386	0.320	0.430	0.569	0.450	0.436	0.456	0.389	0.408	0.452	0.383	0.438	0.391	0.480	0.445	0.417	0.389	0.283	0.324
650.0	27.05	30.19	23.53	17.46	11.93	11.24	12.16	13.96	18.99	25.49	33.25	38.50	35.71	30.34	33.16	12.43	8.582	5.408	4.696	23.83	369.8	220.8	3.198	1.229	1.182	1.064	1.014	1.024	0.961	1.019	0.809	0.773	0.774	0.824	0.721	0.725	0.626	0.622	0.667	0.614	0.528	0.491	0.445	0.429	0.485	0.518	0.435	0.407	0.338	0.387	0.349	0.319	0.352	0.301	0.349	0.345	0.321	0.389	0.405	0.326	0.391	0.436	0.457	0.417	0.442	0.356	0.360	0.369	0.328	0.420	0.349	0.413	0.538	0.431	0.322	0.285	0.340
