Sample:	'1
File name:	Default_20230428_134540.FD3
Run date:	'13:39:19, 04/28/2023
Operator:	user
Comment:	'

Instrument
Model:	F-2700 FL Spectrophotometer
Serial number:	2190-003
ROM Version:	4J14000 07

Instrument parameters
Measurement type:	3-D scan
Data mode:	Fluorescence
EX  Start WL:	220.0 nm
EX  End WL:	600.0 nm
EX Sampling interval:	5.0 nm
EM  Start WL:	230.0 nm
EM  End WL:	650.0 nm
EM Sampling interval:	5.0 nm
Scan speed:	12000 nm/min
EX Slit:	5.0 nm
EM Slit:	5.0 nm
PMT Voltage:	700 V
Response:	Auto 
Corrected spectra:	Off
Contour interval:	50.000

Peak integration
Integration method:	Rectangular
Sensitivity:	1
Threshold:	1.000

Peaks
No.	ApexEX/EM(nm)	Height(Data)
1	225.0/270.0	42.05
2	225.0/565.0	47.41
3	225.0/590.0	48.00
4	225.0/605.0	43.82
5	225.0/635.0	38.11
6	230.0/320.0	149.7
7	230.0/340.0	163.4
8	235.0/330.0	152.3
9	235.0/350.0	164.1
10	235.0/360.0	168.1
11	235.0/510.0	115.6
12	235.0/550.0	48.78
13	235.0/615.0	34.93
14	240.0/385.0	227.0
15	240.0/515.0	116.4
16	240.0/605.0	30.45
17	245.0/530.0	108.4
18	250.0/545.0	117.6
19	250.0/580.0	30.32
20	250.0/595.0	25.06
21	255.0/280.0	330.7
22	255.0/425.0	281.3
23	255.0/555.0	101.7
24	260.0/285.0	456.5
25	260.0/565.0	99.92
26	260.0/615.0	22.04
27	265.0/290.0	462.2
28	265.0/435.0	299.0
29	265.0/575.0	90.61
30	270.0/295.0	636.3
31	270.0/420.0	303.5
32	270.0/445.0	295.9
33	270.0/590.0	91.98
34	275.0/305.0	760.9
35	275.0/435.0	297.1
36	275.0/605.0	80.11
37	280.0/310.0	754.1
38	280.0/340.0	396.2
39	280.0/390.0	324.4
40	280.0/615.0	70.74
41	285.0/315.0	752.2
42	285.0/400.0	325.9
43	285.0/625.0	60.86
44	290.0/320.0	712.1
45	290.0/640.0	45.67
46	305.0/340.0	427.6
47	310.0/345.0	407.1
48	310.0/395.0	277.9
49	315.0/240.0	5.022
50	315.0/350.0	319.7
51	320.0/360.0	328.2
52	325.0/365.0	343.4
53	330.0/370.0	297.3
54	335.0/375.0	297.8
55	340.0/385.0	306.7
56	345.0/390.0	265.3
57	350.0/395.0	263.0
58	355.0/405.0	257.2
59	360.0/410.0	226.4
60	365.0/415.0	215.8
61	370.0/425.0	198.9
62	375.0/430.0	167.4
63	380.0/435.0	157.2
64	385.0/445.0	140.9
65	390.0/450.0	122.6
66	395.0/455.0	106.6
67	400.0/465.0	93.54
68	405.0/470.0	78.23
69	410.0/475.0	66.77
70	415.0/485.0	58.71
71	425.0/495.0	44.23
72	430.0/505.0	36.74
73	435.0/510.0	30.49
74	440.0/515.0	26.92
75	450.0/530.0	19.48
76	455.0/535.0	17.03
77	470.0/555.0	9.213
78	510.0/280.0	3.274
79	520.0/285.0	3.126
80	525.0/290.0	2.950
81	535.0/295.0	3.202
82	545.0/300.0	4.445
83	550.0/305.0	4.214
84	555.0/310.0	3.635
85	570.0/315.0	4.120
86	575.0/320.0	3.830
87	585.0/325.0	3.492

Data points
	220.0	225.0	230.0	235.0	240.0	245.0	250.0	255.0	260.0	265.0	270.0	275.0	280.0	285.0	290.0	295.0	300.0	305.0	310.0	315.0	320.0	325.0	330.0	335.0	340.0	345.0	350.0	355.0	360.0	365.0	370.0	375.0	380.0	385.0	390.0	395.0	400.0	405.0	410.0	415.0	420.0	425.0	430.0	435.0	440.0	445.0	450.0	455.0	460.0	465.0	470.0	475.0	480.0	485.0	490.0	495.0	500.0	505.0	510.0	515.0	520.0	525.0	530.0	535.0	540.0	545.0	550.0	555.0	560.0	565.0	570.0	575.0	580.0	585.0	590.0	595.0	600.0
230.0	38.10	125.1	 1212	 1054	93.85	20.97	17.06	13.26	11.74	11.30	10.73	9.320	7.878	8.409	7.365	5.669	4.478	4.324	4.465	3.496	3.371	3.073	3.174	2.867	2.505	2.308	2.495	2.158	2.052	2.287	2.279	2.098	1.775	1.858	1.934	1.823	1.719	1.734	1.827	1.547	1.649	1.535	1.356	1.336	1.326	1.261	1.209	2.282	4.945	4.583	2.360	1.082	1.093	1.145	1.080	0.991	1.067	1.028	1.011	0.790	0.987	0.890	0.846	1.096	0.977	0.812	1.000	0.940	0.999	0.913	0.843	0.944	0.783	0.986	0.819	1.049	1.067
235.0	37.05	61.68	465.2	 1698	 1319	147.0	21.52	14.44	14.90	13.71	12.71	8.179	9.286	6.551	6.198	5.345	4.101	4.459	4.043	4.027	3.403	3.400	3.207	2.978	2.701	2.600	2.359	2.737	1.621	2.387	1.958	2.026	1.780	2.016	1.835	1.784	1.906	1.822	1.701	1.742	1.367	1.254	1.671	1.544	1.099	1.348	1.153	1.361	2.759	3.615	5.551	6.328	3.705	1.243	1.275	1.402	1.118	1.055	1.058	0.954	1.090	0.797	0.745	0.745	1.051	0.817	1.155	0.843	0.908	1.056	1.009	0.859	0.841	0.962	0.727	0.936	0.861
240.0	54.06	54.91	142.5	826.8	 2357	 1332	91.45	17.70	12.77	12.70	12.97	9.047	8.631	7.076	6.959	4.746	3.564	3.692	3.900	5.022	3.220	3.036	3.538	2.755	2.463	2.147	2.112	2.880	2.050	2.416	2.121	2.020	1.801	1.976	1.556	1.658	1.510	1.851	1.840	1.780	1.765	1.411	1.499	1.488	1.322	1.465	1.210	1.042	1.385	1.725	3.296	7.323	9.967	7.779	3.062	1.395	1.189	0.904	1.201	1.040	0.921	0.651	0.803	1.075	0.830	0.784	0.889	0.930	0.860	0.949	1.216	0.913	0.776	1.009	0.949	0.923	0.812
245.0	72.32	65.30	75.43	232.3	 1408	 3275	 1087	46.60	17.12	12.32	11.57	10.12	9.513	5.623	6.067	4.914	4.941	4.523	5.205	3.933	2.773	3.121	3.360	2.663	2.400	2.620	2.312	2.644	2.496	2.534	2.386	2.172	1.837	1.869	1.570	1.596	1.937	1.840	1.830	1.875	1.753	1.175	1.411	1.670	1.369	1.391	1.524	1.125	1.395	1.228	1.357	2.861	6.868	12.87	11.74	7.295	2.096	1.027	1.093	0.933	0.876	0.810	0.803	1.326	1.064	1.057	0.849	0.991	0.723	1.153	0.953	0.970	0.600	0.877	1.007	0.943	1.262
250.0	52.54	48.35	85.27	125.6	377.3	 1758	 3275	 2311	335.9	16.24	12.45	11.61	8.557	7.153	7.025	5.611	4.630	4.809	4.450	3.762	3.910	3.551	3.316	2.525	2.657	2.485	2.282	2.602	2.476	2.241	2.308	1.894	2.186	1.851	1.428	1.690	1.740	1.507	1.733	1.623	1.604	1.349	1.586	1.655	1.428	1.203	1.630	1.173	1.532	1.354	1.136	1.405	2.489	4.519	7.630	11.33	12.47	11.58	6.672	1.919	1.121	0.755	0.971	1.045	1.002	0.949	0.882	0.889	0.986	1.131	1.060	0.911	0.868	0.840	1.026	0.919	0.933
255.0	45.48	51.08	55.00	133.4	181.9	422.3	 1238	 4575	 4116	388.0	16.89	14.25	10.75	8.442	7.651	6.992	4.994	4.689	5.267	4.438	3.752	3.132	3.678	2.604	3.379	2.540	2.378	2.070	2.499	2.472	2.785	1.734	2.083	1.872	1.462	1.644	1.693	1.478	1.522	1.690	1.562	1.861	1.135	1.622	1.159	1.411	1.803	1.357	1.196	1.280	1.180	1.562	1.448	1.974	2.536	3.576	5.967	12.34	21.05	20.88	8.789	1.250	0.913	0.858	1.081	0.861	1.080	0.958	0.986	0.874	0.911	0.862	1.031	0.968	0.594	0.828	0.955
260.0	36.74	44.52	44.81	77.47	195.5	164.4	308.4	 2148	 6416	 3836	223.4	17.77	11.80	10.18	9.695	6.547	5.698	5.363	3.836	3.402	2.921	2.845	3.068	2.474	2.745	2.523	2.571	2.863	2.594	2.317	2.251	1.608	2.616	1.497	1.755	1.753	1.615	1.594	1.732	1.498	1.453	2.090	1.489	1.745	1.345	1.139	1.109	1.203	1.280	1.134	1.094	1.602	1.853	1.644	1.665	1.566	2.114	4.357	10.79	22.39	27.56	19.08	5.717	1.005	0.984	1.029	0.955	1.295	1.067	0.882	0.798	0.609	1.053	0.956	0.809	0.684	0.993
265.0	47.73	38.45	34.95	47.22	145.2	205.1	119.3	551.1	 3283	 7878	 1083	88.01	15.87	10.80	10.20	7.177	6.415	6.609	4.153	4.059	4.182	3.198	3.135	3.062	3.014	1.879	2.563	2.819	2.410	2.240	2.375	1.941	2.368	1.974	1.931	1.570	1.621	1.351	1.484	1.401	1.300	1.920	1.871	1.570	1.294	1.088	0.998	1.108	1.465	1.166	1.000	1.293	1.713	2.088	1.807	1.183	1.160	1.856	3.207	7.898	17.84	30.86	30.94	13.31	2.565	1.039	0.897	0.957	0.940	0.851	1.018	0.817	0.843	0.849	0.736	0.787	0.970
270.0	40.06	42.05	35.25	37.03	60.04	159.8	241.1	197.0	818.3	 3517	 6696	 3997	351.2	15.89	11.31	9.112	6.898	6.073	5.566	4.900	4.417	4.070	3.277	2.752	2.850	2.638	3.143	2.234	2.785	2.547	2.203	1.973	1.898	2.044	1.609	1.716	1.592	1.615	1.398	1.259	1.457	1.480	1.497	1.358	1.648	1.351	1.376	1.416	1.206	1.084	1.044	1.091	1.265	1.441	1.834	2.200	1.914	1.707	1.487	2.608	4.946	10.33	18.34	25.49	28.98	21.18	9.241	2.059	1.000	0.896	0.975	0.888	1.036	0.975	0.869	1.192	1.031
275.0	52.43	39.69	40.85	34.13	36.75	61.09	189.2	325.8	247.2	823.0	 2193	 7899	 6065	419.3	14.83	10.31	7.748	6.725	6.614	5.950	4.088	3.658	3.351	3.737	3.297	2.475	2.813	2.624	2.383	2.483	2.295	1.908	1.748	1.834	1.502	1.692	1.519	1.559	1.401	1.628	1.631	1.758	1.284	1.602	1.817	1.354	1.551	1.109	1.249	1.030	0.990	0.901	1.322	1.120	1.112	1.687	2.171	2.739	2.242	1.920	1.837	3.057	4.717	6.958	11.82	25.39	42.19	31.26	9.174	1.662	1.046	0.942	1.096	0.675	0.899	1.146	0.699
280.0	43.24	36.09	44.20	39.35	29.52	37.23	84.01	330.7	309.5	235.9	549.4	 3036	9999.9	 4933	248.0	14.17	8.376	7.768	6.081	5.216	5.117	4.765	4.051	3.012	3.201	2.133	3.939	2.633	2.554	2.338	2.584	2.148	2.176	1.824	1.645	1.623	1.704	1.510	1.216	1.652	1.606	1.896	1.398	1.176	1.719	1.378	1.444	1.095	1.323	1.226	1.097	1.241	1.141	1.037	1.089	1.183	1.797	1.839	3.274	2.713	1.776	1.514	2.078	2.258	3.438	7.841	19.26	37.84	45.73	23.46	4.638	1.023	1.127	0.941	1.057	1.017	1.074
285.0	57.91	54.95	56.09	46.56	31.96	28.87	40.47	175.6	456.5	241.3	184.9	773.8	 4559	9999.9	 3577	95.09	11.63	8.697	7.096	6.122	5.416	4.339	4.120	3.811	3.440	2.956	3.052	2.917	2.051	2.147	3.232	2.682	2.487	1.927	1.756	1.814	1.705	1.721	1.521	1.590	1.604	1.595	1.459	1.260	1.263	1.507	1.544	1.626	1.300	1.179	1.389	1.064	1.180	1.034	1.418	1.018	1.325	1.162	2.130	2.686	3.126	2.114	1.362	1.437	1.613	2.734	5.082	12.45	31.12	46.87	37.34	13.79	1.934	1.194	0.760	1.047	1.023
290.0	56.63	64.12	67.54	57.36	40.56	34.40	41.48	79.38	247.0	462.2	311.6	287.6	 1169	 4439	 9158	 5185	223.3	13.58	7.639	6.030	5.589	4.953	5.108	3.703	4.019	3.208	3.689	2.863	2.554	2.826	2.723	2.517	2.242	2.106	1.752	1.558	1.458	1.624	1.448	1.425	1.697	1.463	1.425	1.278	1.564	1.591	1.476	1.493	1.356	1.269	1.193	1.101	1.447	1.162	1.396	1.039	1.083	1.201	1.611	1.778	2.425	2.950	2.541	1.970	1.600	1.676	2.221	4.166	8.415	15.70	25.50	34.55	34.79	26.62	9.870	2.116	1.050
295.0	62.22	80.41	91.27	72.85	58.92	48.97	46.57	69.73	116.4	268.3	636.3	377.0	420.8	 1113	 2699	 9211	 8228	292.6	10.18	6.896	6.969	5.443	5.032	5.312	3.840	2.976	4.132	3.120	3.223	2.389	2.400	2.584	2.431	2.002	2.163	1.612	1.504	1.719	1.515	1.344	1.659	1.212	1.490	1.419	1.585	1.491	1.295	1.467	1.510	1.331	1.090	1.309	1.261	1.212	1.172	1.050	1.313	1.222	1.269	1.540	1.759	1.726	2.371	3.202	3.185	2.403	1.745	2.185	3.306	4.560	6.908	9.251	15.45	36.17	47.50	32.47	9.997
300.0	89.49	85.47	104.1	87.28	70.34	57.67	61.57	76.59	102.8	173.6	503.7	738.7	364.3	420.1	712.1	 3387	9999.9	 3201	188.6	9.648	8.023	5.875	5.475	4.323	4.214	3.873	3.425	3.179	3.035	2.645	2.388	2.296	2.617	2.200	2.048	1.810	1.947	1.727	1.633	1.560	1.556	1.603	1.563	1.593	1.347	1.676	1.327	1.612	1.390	1.219	1.112	1.287	1.247	1.332	1.038	0.991	1.310	1.255	1.482	1.129	1.831	1.273	1.583	2.271	3.154	4.445	2.540	2.100	2.273	2.321	2.734	3.154	4.601	10.89	25.37	45.70	48.38
305.0	87.24	83.91	110.7	100.3	69.66	61.15	74.08	87.17	111.6	169.4	313.2	760.9	642.4	304.0	284.9	848.8	 4701	9999.9	 2541	91.86	9.026	7.500	7.303	4.474	4.618	2.986	3.474	3.531	3.190	2.737	2.637	2.290	2.412	2.295	2.313	1.792	1.834	2.014	1.739	1.721	2.116	1.578	1.460	1.436	1.477	1.359	1.315	1.314	1.461	1.439	1.498	1.281	1.282	1.327	1.238	1.336	1.406	1.588	1.537	1.294	1.527	1.353	1.797	2.091	2.689	3.856	4.214	3.216	2.081	2.060	1.863	1.552	1.985	3.478	6.851	16.24	36.64
310.0	77.51	96.35	119.2	103.7	80.57	70.04	83.88	98.49	129.5	187.5	258.8	467.3	754.1	603.7	257.0	285.7	 1149	 4561	 8847	 5471	165.1	11.46	7.853	5.992	4.406	3.855	3.863	3.817	2.812	2.978	3.189	2.563	2.886	2.381	2.521	1.990	1.781	2.029	1.801	1.627	1.799	1.717	1.442	1.339	1.648	1.288	1.543	1.198	1.492	1.390	1.266	1.373	1.508	1.586	1.275	1.539	1.639	1.422	1.385	1.435	1.627	1.509	1.649	1.814	2.358	2.297	2.665	3.635	3.193	2.745	2.293	1.780	1.481	1.897	2.566	4.602	9.749
315.0	74.98	125.8	132.9	114.0	82.12	81.01	90.06	109.4	151.3	202.6	267.6	371.9	490.5	752.2	508.4	203.4	327.2	 1062	 2610	 9076	 7521	220.6	10.80	6.564	5.614	4.666	4.167	3.431	3.747	3.182	3.162	2.350	2.498	2.576	1.902	1.970	1.711	1.583	1.607	1.748	1.606	1.276	1.793	1.071	1.420	1.352	1.568	1.210	1.307	1.407	1.387	1.134	1.545	1.263	1.314	1.531	1.570	1.398	1.454	1.240	1.548	1.772	1.736	1.986	2.052	2.367	2.061	2.740	2.544	3.255	4.120	2.524	1.752	1.570	1.577	1.899	2.902
320.0	79.28	113.2	149.7	121.6	98.08	91.04	89.89	113.0	146.3	213.8	275.2	356.1	405.0	544.7	712.1	313.0	154.0	286.6	622.1	 3392	9999.9	 2284	154.7	8.490	6.455	6.181	4.160	3.705	3.716	3.346	3.107	2.701	2.710	2.416	2.166	2.084	1.906	1.949	1.570	2.085	1.625	1.411	1.498	1.235	1.476	1.511	1.574	1.342	1.671	1.112	1.275	1.489	1.133	1.105	1.244	1.704	1.454	1.523	1.667	1.428	1.735	1.582	1.645	1.854	2.132	2.177	2.054	2.192	2.032	2.144	3.487	3.830	3.088	2.071	1.309	1.564	1.666
325.0	76.18	109.2	139.1	144.3	105.0	98.17	102.6	121.9	153.9	213.1	277.3	352.9	374.5	426.1	589.3	553.5	175.2	119.4	177.8	815.4	 4697	 9929	 2016	79.07	7.685	6.531	4.944	4.144	3.554	3.604	3.341	2.699	2.767	2.540	2.178	1.649	1.995	1.946	1.485	1.857	1.735	1.224	1.622	1.769	1.487	1.743	1.414	1.343	1.434	1.251	1.282	1.180	1.285	1.633	1.562	1.518	1.539	1.624	1.566	1.479	1.471	1.726	1.853	2.298	1.925	1.919	2.352	2.150	1.707	2.126	2.398	3.091	3.396	3.492	1.845	1.780	1.609
330.0	92.40	106.2	151.3	152.3	118.1	102.6	109.8	136.6	181.1	219.0	284.8	356.6	384.6	395.6	390.8	496.9	409.8	154.3	90.30	220.2	 1121	 4310	 9084	 4901	129.9	10.32	6.973	5.135	4.554	3.817	3.543	3.010	2.713	2.432	2.584	1.998	1.912	1.792	1.811	1.464	1.691	1.495	1.353	1.560	1.556	1.590	1.659	1.640	1.347	1.307	1.141	1.258	1.237	1.453	1.383	1.672	1.537	1.617	1.488	1.802	1.835	2.088	2.047	2.161	2.022	2.143	2.173	2.112	2.006	2.241	2.182	2.112	2.529	2.880	2.603	2.664	2.153
335.0	84.70	96.08	152.8	142.6	126.4	106.2	126.2	148.5	184.2	233.5	296.7	353.8	393.4	393.8	338.9	316.2	406.1	363.8	117.7	98.22	286.7	993.2	 2766	 8730	 6827	179.0	10.35	6.795	5.217	4.485	4.042	3.379	3.427	2.272	2.381	2.298	1.886	2.337	1.706	1.406	1.513	1.450	1.626	1.549	1.529	1.536	1.677	1.585	1.542	1.327	1.109	1.112	1.269	1.418	1.409	1.850	1.833	2.135	1.706	1.978	1.900	2.080	2.280	2.154	1.969	2.193	2.458	2.425	2.160	2.165	2.446	2.199	2.266	2.077	2.189	2.290	3.244
340.0	100.1	105.4	163.4	146.5	129.7	112.8	137.7	162.5	189.5	232.1	299.8	352.7	396.2	391.3	320.4	263.6	264.5	427.6	259.4	91.59	109.5	259.5	655.2	 3439	9999.9	 5020	126.2	7.921	6.356	5.494	5.036	4.021	3.741	2.530	2.331	2.191	1.821	2.056	2.093	1.584	1.333	1.428	1.606	1.534	1.902	1.645	1.439	1.486	1.587	1.344	1.329	1.232	1.491	1.259	1.334	1.680	1.940	2.191	2.045	1.750	1.726	1.841	2.096	2.080	2.461	2.283	2.305	2.445	1.961	1.777	2.182	2.643	1.652	2.037	1.941	1.649	2.339
345.0	75.15	122.7	144.8	150.4	136.5	126.6	142.8	171.5	181.6	235.9	296.5	349.7	389.2	385.6	323.6	253.3	207.1	305.2	407.1	153.4	82.06	101.9	181.5	827.0	 4898	9999.9	 1625	68.14	8.080	5.961	4.959	4.053	3.464	3.001	2.726	2.594	2.377	2.340	1.816	2.025	1.736	1.755	1.464	1.608	1.879	2.031	1.446	1.778	1.650	1.097	1.264	1.392	1.467	1.567	1.504	1.756	2.081	1.971	1.942	1.793	1.638	2.191	2.038	1.792	2.247	2.310	2.200	2.530	2.197	1.899	2.162	2.346	1.814	1.871	1.801	1.709	2.025
350.0	82.62	123.1	145.5	164.1	150.9	143.7	152.2	176.0	200.2	240.1	288.9	343.8	368.3	372.7	325.7	264.0	208.1	207.8	305.8	319.7	153.9	84.52	90.61	223.4	 1189	 4628	 7800	 4444	111.3	9.281	6.421	5.345	3.676	3.082	3.272	2.567	2.042	2.586	1.933	2.035	2.124	1.929	1.630	1.586	1.718	1.991	1.465	1.587	1.648	1.322	1.241	1.650	1.501	1.638	1.581	1.517	1.901	2.001	1.919	1.938	1.783	1.908	2.225	2.016	2.335	1.940	2.117	2.169	2.040	2.076	1.819	2.063	2.095	1.941	1.735	1.770	1.960
355.0	74.03	128.2	158.1	159.3	164.5	167.6	168.7	189.5	213.1	241.2	285.3	331.2	349.0	362.5	337.7	273.3	216.5	200.2	207.2	282.6	314.7	139.3	86.73	102.6	306.5	 1064	 2610	 8504	 6141	154.5	8.522	6.343	4.748	3.589	3.225	2.428	2.507	2.404	1.972	1.900	1.788	2.105	1.536	1.847	1.757	1.710	1.602	1.587	1.696	1.376	1.359	1.909	1.811	1.770	1.372	1.686	1.750	1.559	1.907	1.855	2.150	2.138	1.943	2.107	2.394	2.095	2.203	2.381	2.081	2.177	2.400	1.994	2.110	1.958	1.544	1.570	1.697
360.0	89.38	119.4	161.0	168.1	163.0	166.7	177.9	208.1	206.2	246.6	278.5	324.8	346.6	351.6	326.4	279.5	227.9	205.8	185.4	209.0	328.2	260.0	109.3	87.49	116.9	274.2	622.4	 3614	9999.9	 4399	103.5	7.845	5.562	3.931	3.691	2.781	2.665	2.446	2.332	1.939	1.853	1.979	1.850	1.781	1.558	1.883	1.930	1.724	1.800	1.569	1.310	1.610	1.782	1.588	1.795	1.737	1.689	1.710	1.966	1.709	2.138	2.003	2.025	2.009	2.084	2.015	1.987	2.157	2.212	2.572	2.283	2.225	2.208	2.331	1.648	2.169	2.057
365.0	91.91	117.7	158.6	159.3	170.5	162.6	188.6	191.7	216.7	248.6	277.2	323.6	335.2	348.8	324.3	282.7	241.4	212.6	202.7	195.3	251.6	343.4	191.0	99.25	88.72	108.7	175.9	878.4	 5133	9999.9	 1428	52.44	6.696	4.482	3.590	3.254	2.704	2.547	2.251	2.195	1.988	2.340	1.893	1.699	1.562	1.766	1.517	1.648	1.541	1.510	1.630	1.891	1.790	1.505	1.570	1.645	1.952	1.610	1.992	1.387	1.925	2.261	2.438	2.093	1.775	2.055	2.134	2.073	2.223	2.180	1.979	1.757	1.763	2.154	1.992	1.989	2.265
370.0	91.26	102.0	150.3	162.3	184.3	190.8	196.0	210.8	226.4	248.5	277.5	310.7	336.3	342.6	326.9	290.7	262.5	235.3	222.3	200.8	213.6	270.6	297.3	177.2	101.7	86.42	87.90	232.0	 1252	 4830	 8087	 4231	88.14	7.735	4.809	3.952	2.978	2.748	2.546	2.499	2.397	2.050	1.896	1.864	1.777	1.697	1.271	1.695	1.266	1.694	1.573	1.821	1.711	1.632	1.875	1.755	1.861	1.941	2.180	1.587	1.848	2.219	2.128	2.169	2.050	1.953	2.088	2.145	2.029	1.979	1.859	2.049	1.823	1.899	1.905	1.897	1.888
375.0	87.27	113.6	158.2	190.5	183.7	214.7	220.2	223.4	227.0	263.5	288.0	314.0	330.0	332.7	330.2	298.9	271.4	250.4	237.6	224.4	216.8	217.5	258.4	297.8	164.2	98.33	83.17	101.2	316.2	 1107	 2933	 9119	 5276	114.2	6.524	4.609	4.191	2.858	2.613	2.833	2.128	2.384	1.909	1.950	1.985	1.415	1.430	1.768	1.577	1.505	1.434	1.855	1.650	1.982	1.752	2.038	1.653	2.019	2.086	1.932	1.826	1.895	2.105	2.068	2.002	1.810	1.993	2.167	2.392	2.067	1.614	2.019	1.849	1.917	1.692	1.852	1.956
380.0	85.14	99.17	156.0	183.0	204.3	218.8	230.2	242.5	256.4	260.5	275.4	305.2	324.0	330.5	330.0	302.1	271.2	258.9	255.1	236.8	223.4	214.5	215.3	289.6	258.9	128.4	89.45	80.92	113.2	279.9	696.0	 4188	 9675	 1296	68.27	5.616	5.059	3.775	2.675	3.249	2.243	2.348	2.022	1.901	1.844	2.043	1.625	1.763	1.398	1.582	1.548	1.926	1.760	1.923	2.063	1.761	1.956	1.835	2.171	1.635	2.007	2.134	1.780	2.133	2.579	2.070	2.091	1.960	2.167	2.387	1.953	1.788	1.673	1.931	1.739	1.635	1.838
385.0	79.80	107.6	150.2	192.4	227.0	203.9	246.3	248.6	262.5	273.2	303.2	307.3	313.5	330.9	322.9	298.1	280.3	269.0	264.9	254.3	232.3	217.9	203.3	235.3	306.7	196.3	105.6	85.85	76.55	103.2	187.2	 1032	 5554	 8511	 1066	24.28	6.374	4.379	3.066	3.025	2.323	2.328	2.245	2.366	1.630	1.899	1.428	1.687	1.654	1.535	1.598	1.536	1.744	2.036	1.769	1.686	2.042	1.730	2.128	1.840	2.212	1.806	1.929	2.064	2.193	1.969	2.177	2.311	2.039	2.427	1.978	2.231	1.614	2.260	1.807	1.851	2.266
390.0	80.57	103.9	160.0	179.9	222.0	230.7	234.2	257.6	268.3	283.0	293.4	298.0	324.4	321.9	318.3	292.4	282.6	279.7	270.7	266.6	245.9	231.4	216.8	210.2	247.0	265.3	178.8	107.3	83.51	72.64	81.85	258.7	 1382	 4632	 6852	 2833	65.21	5.926	4.245	3.134	2.756	2.347	2.180	2.329	2.163	1.846	1.857	1.651	1.597	1.560	1.515	1.819	1.643	1.938	1.789	1.750	1.802	1.952	2.013	1.865	2.070	1.742	1.963	1.861	2.095	2.031	2.061	2.209	2.434	2.552	1.948	1.976	2.005	2.301	1.886	1.896	2.194
395.0	93.27	94.81	166.3	182.9	215.9	241.2	249.8	262.5	272.8	284.7	299.9	302.4	305.6	318.5	306.2	294.8	272.6	275.5	277.9	271.1	258.1	240.3	225.0	216.5	206.9	229.5	263.0	163.3	100.5	81.80	65.77	96.90	334.5	 1055	 2827	 7894	 3828	80.29	5.728	4.117	3.446	2.669	1.834	1.871	2.499	1.819	1.957	2.216	1.510	1.428	1.771	1.909	2.091	1.916	1.998	1.733	1.611	2.117	2.181	1.879	2.036	1.965	1.946	2.097	1.624	1.902	1.816	2.020	2.220	2.359	2.157	1.935	2.095	2.425	1.997	1.841	2.125
400.0	88.85	114.9	166.5	186.6	215.3	238.5	240.8	264.5	269.4	275.8	299.8	299.6	294.0	325.9	306.7	298.4	278.8	278.2	273.9	272.6	263.7	246.6	227.4	220.0	200.7	195.8	248.6	229.6	127.7	89.17	74.36	67.94	107.6	257.1	675.6	 4104	 7900	 1046	47.88	5.276	3.572	3.215	2.595	2.057	2.198	1.787	2.004	2.042	1.416	1.887	1.734	1.903	1.900	1.703	1.717	2.005	1.800	2.091	1.931	1.954	2.153	2.181	2.053	2.024	2.247	1.883	1.802	1.998	2.294	1.893	2.010	1.770	1.854	1.858	2.057	1.606	2.258
405.0	96.89	131.7	161.6	204.8	225.5	223.8	256.0	267.1	283.7	286.3	288.1	290.7	301.2	315.0	308.1	293.1	293.9	281.7	274.5	274.6	263.8	252.7	235.0	226.2	202.7	193.0	207.3	257.2	184.2	106.0	84.85	66.20	60.28	83.69	172.1	 1041	 4983	 6782	858.9	15.93	4.433	3.830	2.806	2.427	2.260	2.010	2.236	1.921	1.726	1.719	1.870	1.818	2.078	2.110	1.814	1.858	2.398	2.001	1.971	2.040	2.041	2.017	2.092	2.000	1.883	1.912	1.855	2.032	2.287	1.826	2.088	1.937	1.685	1.864	1.904	2.046	2.308
410.0	91.42	120.6	163.3	201.2	219.1	238.3	260.7	266.7	283.4	298.1	297.7	300.7	303.2	304.5	299.1	290.2	281.3	273.0	269.7	270.2	260.0	254.7	241.2	225.8	213.6	194.8	188.2	212.5	226.4	164.0	99.63	73.55	58.09	52.01	63.73	250.2	 1266	 4050	 5692	 2167	52.47	4.882	3.805	2.773	2.791	2.400	1.957	2.074	1.821	1.852	1.866	1.913	1.956	2.018	2.125	1.771	2.129	2.127	2.253	2.176	2.377	2.020	2.049	2.372	2.131	1.805	1.977	1.927	2.059	1.965	1.828	1.868	1.885	2.178	1.927	2.215	2.290
415.0	87.09	109.3	152.6	180.5	207.0	233.2	262.2	264.1	277.4	296.8	303.4	299.8	294.4	304.3	290.0	276.2	275.6	259.2	266.5	256.4	255.8	249.0	241.9	232.1	217.9	195.5	187.3	186.4	194.6	215.8	139.1	87.05	64.00	50.88	44.49	77.30	297.5	921.9	 2483	 6262	 3007	69.61	4.440	3.594	3.162	3.053	1.808	2.408	1.877	1.617	1.942	1.913	2.158	1.894	1.859	2.050	2.445	2.352	2.297	2.096	2.403	2.248	2.074	2.205	1.932	1.965	2.254	1.790	1.876	1.934	1.913	2.079	1.936	2.000	2.078	2.124	2.114
420.0	87.55	116.7	152.4	197.7	205.6	230.0	262.2	258.2	278.3	290.4	303.5	284.6	294.6	293.3	282.7	269.5	266.3	254.1	256.7	250.0	252.1	238.9	233.1	224.3	207.4	193.2	185.2	175.2	172.7	203.0	186.8	106.7	70.76	54.78	42.51	43.30	84.30	219.9	596.5	 3404	 6476	924.2	33.60	4.150	3.047	2.958	2.095	2.425	1.766	1.638	1.890	1.926	1.771	1.807	2.362	2.147	2.140	2.215	2.240	2.123	1.945	2.100	1.689	2.260	2.218	2.133	2.216	1.619	2.391	1.942	2.261	1.900	2.105	1.841	1.581	1.933	2.378
425.0	66.57	95.33	137.5	185.8	205.0	226.0	257.6	281.3	263.8	278.5	299.7	279.2	280.0	287.0	273.6	261.3	242.2	250.4	249.4	245.3	241.7	232.2	231.6	216.8	212.1	201.7	184.6	173.9	166.2	174.4	198.9	140.8	80.38	60.71	46.76	37.41	39.42	65.50	147.2	872.8	 4197	 5409	702.4	10.44	3.784	3.199	2.887	2.598	1.992	1.888	1.931	1.875	2.016	1.900	2.054	2.014	2.298	2.230	2.209	2.352	1.980	2.287	1.971	1.907	1.892	2.029	1.964	1.745	1.794	2.219	2.089	2.453	1.789	1.556	2.224	1.942	2.596
430.0	77.62	90.82	142.3	177.0	203.6	231.4	252.9	269.3	269.3	295.8	298.7	289.1	284.6	280.1	266.8	253.5	240.9	237.1	234.3	240.0	234.3	226.2	221.7	221.2	210.9	198.4	187.0	176.0	164.4	156.2	164.9	167.4	120.2	73.85	52.10	43.11	35.13	35.47	48.91	207.0	 1076	 3236	 4536	 1712	45.77	4.077	3.444	2.578	2.275	1.917	1.899	2.030	2.230	2.086	2.132	2.155	2.305	2.013	2.171	2.166	1.977	2.183	2.060	1.991	1.951	2.089	1.820	1.801	1.964	2.012	1.919	1.859	1.876	1.835	1.854	1.824	2.039
435.0	121.4	109.3	122.9	175.5	192.1	221.3	238.8	270.5	267.6	299.0	285.7	297.1	268.6	267.7	261.5	245.3	233.8	229.8	223.9	227.2	225.0	219.8	215.3	210.9	205.2	197.5	186.1	182.0	169.0	155.4	145.5	149.2	157.2	103.9	62.89	49.62	40.33	33.83	29.50	62.21	252.7	738.5	 2128	 5335	901.8	57.24	4.042	3.086	2.834	2.083	2.107	2.110	2.142	2.032	1.822	2.075	2.121	2.182	2.132	1.808	2.175	1.922	1.927	1.953	2.174	1.740	2.001	1.579	2.305	1.860	2.090	2.077	1.947	1.743	1.692	1.395	2.067
440.0	150.9	138.4	121.9	177.0	186.8	225.1	242.8	263.0	266.8	293.7	286.7	291.6	270.6	276.9	256.7	236.5	232.1	218.7	221.1	219.4	215.8	212.1	208.1	200.8	206.3	195.9	183.4	179.6	171.8	160.8	140.0	129.2	148.6	131.4	78.64	56.40	45.04	35.51	29.31	31.82	70.65	175.9	516.1	 3050	 5338	812.5	27.75	3.736	3.039	2.435	2.310	1.897	2.010	2.325	1.840	1.845	1.878	1.966	2.310	2.004	2.549	1.886	1.406	1.679	1.894	1.907	2.059	1.746	1.980	1.822	1.978	1.925	2.146	1.612	1.635	1.659	1.980
445.0	175.3	235.0	151.0	147.7	193.3	227.8	240.7	240.9	280.7	289.9	295.9	285.9	265.1	269.7	253.6	232.1	217.7	216.5	218.2	213.9	212.9	210.3	202.6	200.2	198.8	187.2	182.2	176.3	170.2	154.9	142.6	126.3	125.3	140.9	104.5	61.99	48.74	38.05	30.77	26.75	32.02	52.03	126.6	800.3	 3832	 5072	587.2	9.654	3.646	2.527	2.392	2.351	2.043	2.259	1.991	2.200	2.085	2.279	2.321	2.402	2.306	2.190	1.571	1.976	2.047	2.053	2.032	1.958	2.068	1.801	1.789	1.896	2.029	1.603	1.767	1.811	1.569
450.0	107.5	350.0	237.7	145.0	187.6	217.8	226.0	246.7	267.4	286.9	279.7	280.4	263.1	259.0	241.1	221.4	208.6	207.2	201.8	198.4	196.1	196.7	186.6	186.4	186.9	174.7	174.6	171.6	163.1	151.5	139.2	125.4	113.5	117.8	122.6	85.33	55.92	43.52	36.25	28.70	26.29	26.87	41.17	189.2	996.1	 3277	 4476	 1652	37.06	3.783	2.857	2.622	2.481	2.454	2.175	2.281	2.259	1.949	2.358	2.019	2.218	2.099	2.024	2.107	2.101	2.204	1.945	1.989	2.049	1.715	1.786	1.780	1.941	1.896	1.615	1.673	1.595
455.0	85.89	274.9	514.7	179.2	184.1	197.0	216.8	244.3	246.7	268.9	267.5	267.1	258.2	238.1	218.5	217.9	196.5	194.3	188.7	185.4	179.3	179.0	176.5	178.9	177.6	168.9	163.1	164.3	153.7	147.2	136.2	126.4	111.3	99.92	104.2	106.6	72.75	49.10	39.15	32.71	27.21	23.32	23.05	53.09	231.2	748.0	 2076	 5152	 2157	41.04	3.720	3.405	2.807	2.258	2.484	2.164	2.152	2.058	2.094	2.294	2.371	2.159	1.926	1.841	2.096	1.859	1.692	2.041	1.861	1.657	1.921	1.635	1.646	1.811	1.494	1.798	1.653
460.0	81.62	156.3	732.0	389.4	169.0	203.3	212.1	233.8	244.0	258.4	256.1	258.1	256.1	232.5	225.8	206.3	188.6	180.7	171.2	174.4	167.3	167.3	167.6	164.3	163.8	160.6	158.1	157.6	148.5	147.4	129.6	122.2	106.7	94.18	88.97	99.53	90.81	54.80	41.14	34.04	29.21	23.69	19.39	23.76	61.48	175.8	502.3	 2983	 5078	592.2	21.62	3.450	3.071	2.425	2.360	1.941	2.336	2.600	2.192	1.959	2.407	2.180	1.737	1.819	2.314	1.961	2.086	1.931	1.955	1.676	1.881	1.680	1.484	1.512	1.639	1.894	2.162
465.0	87.80	103.0	592.9	715.5	170.3	194.1	194.8	210.8	233.1	246.3	237.0	247.2	240.4	223.2	205.3	189.3	182.2	168.6	164.7	156.7	158.3	155.9	156.9	152.1	153.4	147.5	151.7	143.8	140.8	136.9	128.8	116.2	103.4	93.84	83.55	84.80	93.54	69.04	44.40	36.10	30.74	23.94	19.95	19.13	25.05	47.89	120.7	778.4	 3617	 4136	474.1	6.817	3.379	2.999	2.591	2.379	2.546	2.709	2.319	2.125	2.335	2.270	2.092	1.970	2.179	1.844	2.069	1.736	1.754	1.826	1.734	1.795	1.732	1.474	2.066	1.808	1.943
470.0	72.85	77.08	289.6	997.3	495.2	176.4	177.6	206.5	213.2	226.9	228.7	224.2	221.3	207.8	190.1	175.9	163.9	152.5	151.0	143.4	143.5	143.3	143.3	139.3	141.0	134.1	135.7	133.5	131.1	125.5	121.5	110.7	98.35	89.75	78.54	73.11	76.89	78.23	56.44	38.96	31.20	25.68	21.88	18.32	16.71	20.46	35.98	181.3	936.3	 2805	 3360	 1221	34.03	3.734	2.694	2.517	2.587	2.578	2.383	2.058	2.034	1.979	2.066	2.170	1.924	1.745	1.875	1.744	1.737	1.601	1.501	1.755	1.523	1.425	1.669	1.717	1.805
475.0	64.01	62.89	132.0	610.1	 1175	242.8	173.8	191.1	195.0	213.7	221.3	213.9	206.8	192.6	172.9	157.5	150.4	139.1	136.9	131.0	129.7	129.4	128.3	128.1	118.8	119.8	122.5	118.7	118.6	116.0	111.0	101.2	93.20	83.87	74.13	67.57	61.21	65.50	66.77	46.49	32.00	27.29	22.43	19.49	15.84	15.08	16.67	47.86	215.1	638.0	 1607	 3614	705.0	42.99	3.261	2.994	2.482	2.379	2.186	1.928	1.915	2.242	2.059	2.126	1.761	1.625	1.809	1.688	1.632	1.530	1.731	1.535	1.832	1.502	1.548	1.427	1.610
480.0	71.88	71.41	101.1	265.4	 1334	530.5	153.0	178.5	188.1	204.4	193.1	201.1	190.1	182.9	163.0	147.3	139.5	129.9	129.8	122.8	123.4	120.9	120.2	115.7	113.2	115.0	114.5	111.9	112.7	109.5	104.0	98.87	89.03	80.43	72.51	62.68	57.39	54.45	64.55	56.87	35.28	27.98	22.05	19.99	16.14	14.68	13.32	18.03	54.99	148.3	391.3	 2060	 3464	638.5	17.22	3.458	2.551	2.428	2.629	2.086	1.846	2.073	2.031	2.127	1.703	1.856	1.780	1.413	1.861	1.440	1.784	1.722	1.587	1.822	1.231	1.695	1.447
485.0	62.31	87.63	83.50	141.8	975.0	 1073	165.4	171.9	172.0	185.1	196.2	188.6	184.1	168.6	162.5	143.7	127.7	125.0	122.8	113.8	116.6	111.5	110.4	109.4	110.2	107.2	107.0	106.0	104.5	103.0	98.79	93.79	85.30	77.14	69.18	62.62	54.55	52.25	53.76	58.71	44.92	29.36	22.93	20.30	17.22	15.23	13.23	12.53	19.02	39.08	92.34	539.3	 2521	 3243	97.36	6.689	2.907	2.453	2.315	2.355	1.693	1.715	2.105	2.004	1.893	1.993	1.733	1.342	1.687	1.517	1.724	1.744	1.299	2.047	1.353	1.797	1.247
490.0	58.47	79.17	92.63	102.9	408.9	 1369	657.7	159.8	175.2	179.8	185.1	183.0	171.4	156.9	150.4	127.9	122.0	116.0	112.1	104.9	104.4	96.57	101.0	97.15	100.8	97.84	94.99	97.53	97.08	95.77	90.60	87.43	80.90	72.46	65.40	59.88	53.03	48.86	44.93	50.07	49.91	36.93	24.88	20.23	17.84	15.35	13.24	11.95	12.09	15.02	26.18	125.5	650.1	 2014	 2743	 1122	34.35	3.427	2.651	2.399	2.100	1.801	1.732	1.739	1.831	1.835	1.844	1.465	1.645	1.851	1.698	1.599	1.551	1.638	1.354	1.718	1.408
495.0	59.65	76.98	86.69	96.74	186.5	765.3	 1553	282.6	159.5	168.5	168.3	167.7	149.4	147.8	131.9	124.2	110.5	106.1	102.5	99.93	94.58	89.63	91.54	89.90	88.46	90.98	88.05	93.15	89.29	85.59	82.46	81.84	75.88	67.22	62.30	54.45	50.23	45.45	41.80	40.04	42.31	44.23	29.54	21.33	18.08	16.94	13.94	12.28	11.78	10.17	11.43	33.18	149.3	458.0	 1315	 3400	758.5	42.56	3.009	2.292	2.430	2.036	1.770	1.722	1.666	1.459	2.002	1.460	1.787	1.647	1.484	1.341	1.681	1.565	1.201	1.666	1.414
500.0	64.63	70.40	89.45	107.3	116.7	299.3	 1731	733.7	151.1	161.5	158.1	155.0	140.9	144.1	118.8	113.2	105.5	94.52	91.54	90.15	86.36	83.66	84.41	83.45	80.62	83.34	78.58	83.46	82.06	80.37	77.73	75.00	68.18	61.66	57.52	52.26	46.50	42.86	39.21	34.86	35.08	41.57	35.58	22.71	18.38	16.32	14.27	12.48	11.62	9.340	8.818	12.37	37.58	106.9	316.7	 1879	 3378	641.9	17.77	2.600	2.599	2.397	1.958	1.653	1.779	1.564	1.878	1.478	1.421	1.778	1.713	1.498	1.816	1.394	1.493	1.340	1.319
505.0	62.98	64.56	73.48	114.3	112.9	149.9	 1172	 1500	182.8	152.7	139.0	149.3	134.9	133.9	114.0	106.4	98.35	90.46	88.74	78.46	77.89	76.61	71.90	74.00	71.29	74.33	71.66	75.83	73.94	74.05	72.10	68.21	62.17	57.41	53.94	50.44	42.28	40.49	37.51	33.55	31.27	34.84	36.74	27.71	18.33	15.29	14.19	12.45	10.26	9.193	7.801	7.745	13.09	28.35	75.34	481.0	 2395	 3133	102.5	5.915	2.918	2.615	2.223	1.822	1.541	1.663	1.983	1.831	1.732	1.311	1.249	1.564	1.339	1.219	1.274	1.255	1.463
510.0	50.83	54.80	80.82	115.6	104.0	102.9	426.7	 1808	886.3	149.5	132.2	128.6	124.9	120.2	106.4	98.10	87.68	80.40	76.57	71.95	70.69	68.50	67.47	66.95	65.01	65.61	64.38	68.91	66.54	66.41	62.23	62.59	57.31	52.27	49.23	43.92	39.93	36.63	34.83	30.81	26.94	26.95	30.00	30.49	23.63	16.10	13.94	12.13	10.28	8.662	7.653	7.150	7.277	10.72	20.82	111.3	612.7	 1919	 2483	940.6	32.73	3.006	2.243	2.210	1.748	1.489	1.941	1.499	1.587	1.515	1.410	1.442	1.411	1.325	1.383	1.325	1.341
515.0	59.41	48.95	71.65	99.83	116.4	93.31	172.1	861.4	 1977	306.0	121.8	119.6	119.4	108.3	101.4	84.59	79.73	70.35	71.10	68.95	63.07	59.74	60.15	58.21	57.86	60.20	57.45	58.62	57.31	58.24	57.34	55.52	52.53	45.99	45.32	39.15	37.91	32.84	30.75	27.40	25.46	22.41	23.50	26.13	26.92	19.23	13.42	11.19	10.13	8.645	8.149	7.446	6.216	6.632	7.981	28.28	140.0	434.1	 1107	 2811	724.1	36.24	2.328	2.023	1.925	1.761	1.876	1.642	1.632	1.700	1.368	1.453	1.364	1.274	1.237	1.503	1.363
520.0	54.93	37.84	62.48	79.88	115.5	86.12	106.5	310.7	 1943	932.4	120.0	117.6	104.2	90.95	89.47	72.81	73.97	65.49	59.30	59.58	52.25	55.18	54.46	53.57	51.12	51.22	53.02	51.13	50.13	50.88	51.71	48.21	46.89	43.52	40.11	36.48	34.31	31.34	27.66	25.49	23.77	22.27	20.08	20.25	25.38	23.39	14.52	11.99	9.621	8.627	8.037	7.220	6.553	5.079	5.717	10.02	34.54	99.94	265.5	 1520	 2610	586.8	13.92	2.297	1.859	1.762	1.594	1.620	1.391	1.353	1.369	1.389	1.403	1.277	1.205	1.349	1.187
525.0	45.92	49.10	50.48	76.56	108.5	106.0	85.59	139.7	 1164	 1904	188.3	101.4	102.3	86.03	82.17	70.20	58.11	57.80	55.87	54.42	52.74	51.90	47.83	48.18	47.63	46.20	47.30	47.18	45.26	45.64	49.37	46.04	41.25	40.17	37.25	33.35	32.99	27.50	27.11	23.41	21.39	20.64	18.10	17.35	21.41	23.36	17.90	12.17	9.796	8.794	7.615	6.725	5.864	4.930	4.463	5.555	11.35	25.56	62.84	384.7	 1763	 2338	98.89	4.628	2.147	1.926	1.526	1.539	1.685	1.373	1.377	1.262	1.475	1.409	1.240	1.041	1.349
530.0	50.71	51.09	52.69	60.27	82.73	108.4	77.13	93.83	383.6	 1915	 1062	98.53	87.27	76.46	74.19	64.60	55.21	53.30	50.49	47.89	44.76	43.45	42.81	41.29	42.36	40.23	40.87	42.67	40.72	42.11	41.07	40.11	38.43	35.16	32.55	30.16	28.06	25.03	24.56	21.55	20.26	18.16	16.07	14.47	15.55	19.05	19.48	14.14	9.845	7.861	7.071	6.880	5.815	5.147	5.064	4.287	5.842	8.395	16.88	88.51	444.2	 1376	 1765	423.0	28.84	1.939	1.753	1.453	1.597	1.449	1.381	1.377	1.251	1.236	1.454	1.161	1.247
535.0	54.07	43.90	52.55	53.55	70.01	102.5	87.14	74.56	139.4	774.8	 2200	338.9	78.58	69.53	65.31	58.47	50.51	50.58	42.76	42.66	39.47	38.94	37.85	35.76	35.63	36.45	36.71	36.48	36.92	36.20	36.93	34.35	34.49	29.19	29.10	26.47	24.78	22.61	22.03	19.44	17.26	16.71	15.01	13.26	12.76	13.51	16.48	17.03	10.55	7.973	6.676	6.225	5.673	5.335	4.965	4.234	3.867	4.593	6.650	22.44	101.8	311.2	763.1	 1926	662.2	25.56	1.925	1.644	1.686	1.556	1.328	1.152	1.216	1.447	1.349	1.390	1.610
540.0	43.06	42.58	48.18	55.29	57.95	83.18	109.9	69.72	88.61	252.5	 1991	945.2	72.26	63.55	58.78	53.79	45.51	42.21	38.40	38.88	35.46	33.36	32.97	32.74	32.00	31.37	31.59	32.81	33.30	32.89	31.24	32.42	30.39	27.82	24.31	23.55	22.29	19.74	18.87	17.67	16.60	14.45	13.63	12.14	12.05	10.36	12.73	16.25	13.26	8.332	6.536	6.002	5.405	4.904	4.605	4.344	4.201	3.816	4.162	7.281	25.29	71.46	180.3	 1034	 1893	473.7	8.301	1.686	1.544	1.761	1.352	1.380	0.831	1.470	1.305	1.593	1.297
545.0	44.00	47.06	49.00	44.19	47.71	59.49	117.6	68.74	68.24	110.4	 1041	 1940	156.4	59.06	51.68	47.02	43.27	36.13	30.87	34.82	31.22	29.71	31.30	27.30	28.67	29.52	27.65	28.46	29.84	28.18	27.82	28.11	27.48	24.24	22.53	20.87	19.14	17.75	17.57	16.29	14.81	14.87	12.16	11.04	11.12	10.47	9.819	12.94	13.10	9.284	6.484	5.627	4.834	4.416	4.227	4.520	4.288	3.733	3.554	4.099	8.054	18.00	42.73	262.2	 1275	 1611	92.32	3.182	1.733	1.768	1.092	1.340	1.108	1.487	1.443	1.543	1.157
550.0	47.11	46.54	48.08	48.78	44.51	47.30	82.84	88.84	61.02	68.51	317.9	 1745	 1038	65.37	44.97	40.98	35.00	32.80	30.48	29.58	27.67	24.31	24.57	25.59	25.73	24.60	24.63	25.02	24.66	23.89	23.94	23.27	21.40	20.55	19.47	18.49	16.74	15.85	14.74	13.52	12.41	12.46	10.34	9.954	9.471	9.180	8.498	9.480	11.42	10.56	7.547	5.455	4.848	4.407	3.757	3.979	4.072	3.897	3.317	2.975	3.857	5.812	11.52	60.85	323.2	992.3	 1021	368.1	19.52	1.853	1.548	1.353	1.391	1.374	1.044	1.195	1.180
555.0	50.47	41.42	43.85	43.12	44.70	44.41	54.76	101.7	65.05	53.90	115.0	624.0	 2001	309.7	36.67	33.40	29.60	28.02	24.74	24.70	22.82	22.41	21.01	22.45	19.72	19.04	21.02	21.02	19.96	18.52	19.71	18.87	18.40	18.56	15.47	14.76	13.92	13.83	13.09	11.65	10.62	10.70	9.038	8.092	8.494	7.704	7.056	7.014	7.196	9.004	9.213	5.818	4.417	4.010	3.406	3.824	3.412	3.798	3.461	2.831	2.545	3.184	4.307	15.53	74.05	225.1	512.0	 1316	486.9	12.27	1.525	1.443	1.359	1.375	1.222	1.413	1.238
560.0	45.04	43.11	44.47	32.75	35.71	39.34	38.97	91.55	82.52	49.86	64.50	190.7	 1665	774.4	36.06	30.13	23.66	24.04	23.26	22.20	19.61	19.25	17.94	19.02	16.75	15.87	18.45	17.29	17.67	16.64	17.30	16.82	15.97	14.94	13.72	12.44	12.12	11.10	11.08	10.64	8.848	8.942	7.712	7.237	7.258	6.443	6.301	5.967	5.607	6.811	7.830	6.417	4.559	3.372	3.323	3.359	2.874	3.217	3.197	2.861	2.378	2.852	2.851	5.107	18.10	52.33	124.9	746.4	 1200	98.55	4.007	1.687	1.747	1.348	1.444	1.215	1.323
565.0	32.18	47.41	43.42	41.46	31.83	32.23	37.29	61.22	99.92	47.40	47.37	79.44	798.1	 1773	115.6	25.75	22.72	22.86	21.56	17.89	18.82	18.20	17.65	17.58	14.08	14.41	15.88	15.62	15.26	16.06	15.32	14.26	13.49	12.75	11.98	11.04	10.87	10.73	9.912	9.006	8.288	7.130	7.520	6.911	6.709	5.683	6.063	5.118	4.687	5.783	6.845	6.657	4.762	3.490	3.282	2.904	3.260	2.579	3.090	3.239	2.661	2.281	2.224	2.775	5.603	13.37	29.77	195.0	859.8	789.6	73.59	2.138	1.571	1.291	1.274	1.577	0.986
570.0	35.70	43.39	43.46	41.16	32.60	30.97	34.62	40.45	80.52	64.13	40.32	46.20	228.7	 1515	877.8	32.06	19.59	18.81	16.76	14.74	16.45	15.15	14.32	13.74	12.72	12.06	13.35	12.97	12.79	12.44	12.24	12.10	11.20	10.23	9.624	9.762	9.192	8.479	8.383	7.632	6.980	6.337	6.423	5.779	5.743	5.300	4.979	4.563	4.063	4.161	4.516	5.829	5.058	3.618	3.131	2.625	2.756	2.438	2.346	2.637	2.278	2.318	1.945	2.202	2.931	4.315	8.128	45.05	224.4	589.9	701.5	235.9	10.89	1.536	1.131	1.111	1.023
575.0	34.50	41.69	38.91	32.35	30.44	27.52	26.70	31.05	53.12	90.61	38.63	40.80	81.94	504.0	 1707	235.2	18.82	16.82	14.73	11.90	12.44	12.77	11.88	11.35	11.49	10.77	10.87	11.58	10.38	11.38	9.321	9.900	9.458	10.16	7.451	7.520	7.708	6.738	6.721	6.476	5.671	4.958	4.693	5.095	4.899	4.367	4.276	3.808	3.723	3.155	3.051	3.945	4.838	4.314	2.793	2.234	2.759	2.329	1.947	2.136	1.862	2.300	1.933	1.725	1.963	2.202	3.121	10.97	50.94	134.6	356.8	794.8	102.6	6.112	1.304	1.079	1.243
580.0	33.46	40.64	37.79	32.53	28.60	29.45	30.32	26.38	39.11	89.69	53.81	39.06	50.34	143.7	 1399	577.5	19.56	14.16	12.80	12.08	11.25	10.65	10.89	9.291	9.249	10.04	9.776	8.933	8.892	8.985	7.915	7.453	8.568	8.679	7.060	6.540	6.307	6.042	5.913	5.965	4.885	4.303	4.327	4.566	4.114	4.013	3.876	3.364	2.907	2.926	2.906	2.993	3.954	4.367	3.090	2.613	2.184	2.204	1.785	2.237	1.812	2.192	2.094	2.042	1.778	1.993	1.924	3.767	13.00	31.12	88.74	476.1	671.3	84.60	2.602	1.087	1.246
585.0	37.92	40.78	42.59	36.81	26.90	24.64	24.32	29.99	31.11	71.96	76.53	32.91	38.48	57.81	651.3	 1450	76.32	12.61	11.03	10.98	9.651	10.18	9.902	8.258	9.119	8.113	8.890	7.425	8.375	8.565	7.601	7.012	7.212	6.997	6.484	6.407	5.941	5.987	4.674	4.879	4.654	4.309	4.135	4.109	3.267	3.319	3.305	2.909	3.020	2.340	2.534	2.567	2.808	3.416	3.482	2.555	1.851	1.919	2.167	1.963	1.657	1.892	1.974	1.876	1.773	1.886	1.688	1.999	4.213	8.080	21.33	130.4	537.1	538.4	57.48	1.799	1.570
590.0	40.43	48.00	45.90	37.00	30.86	26.89	20.77	23.62	26.66	47.20	91.98	44.33	32.72	34.79	180.2	 1207	645.7	16.10	9.812	9.313	8.426	8.976	8.830	7.587	7.847	7.211	7.712	6.886	7.378	7.406	6.144	6.317	6.115	6.269	5.422	5.418	4.845	5.308	3.953	4.188	4.090	3.582	3.639	3.562	2.843	3.029	2.851	2.696	2.609	1.995	2.269	2.196	2.077	2.560	3.032	2.792	2.109	1.920	1.775	1.820	1.423	1.525	1.891	2.057	1.741	1.509	1.607	1.570	2.255	2.997	5.999	30.36	143.7	385.4	423.0	65.77	5.636
595.0	45.39	42.73	39.83	32.18	27.18	22.50	25.06	20.99	25.54	30.91	66.88	59.35	31.85	27.82	57.23	397.0	 1256	146.1	9.816	8.952	7.320	6.943	7.206	6.097	6.369	6.338	6.451	6.113	6.135	5.768	6.124	5.685	5.902	5.031	4.485	4.289	4.132	4.496	4.122	3.722	3.701	3.097	2.937	2.941	2.889	2.441	2.433	2.224	2.134	1.925	1.711	1.933	1.687	2.018	3.016	2.806	2.330	1.988	1.333	1.727	1.513	1.625	1.689	1.943	1.763	1.733	1.762	1.590	1.686	1.696	2.412	7.707	32.93	88.71	226.5	451.6	93.26
600.0	36.03	38.24	42.74	31.79	22.57	18.69	19.49	22.18	25.97	25.16	49.44	76.28	36.82	28.22	31.72	106.3	 1025	426.0	10.17	8.252	7.554	7.273	6.215	6.341	6.023	5.616	5.671	5.052	5.234	4.728	4.936	5.214	4.878	4.259	4.566	3.919	4.109	4.153	3.618	3.235	3.470	2.978	3.294	2.838	2.334	2.653	2.651	2.234	2.251	2.130	1.497	1.975	1.834	1.891	1.876	3.007	2.552	2.119	1.770	1.517	1.656	1.752	1.667	1.673	1.638	1.741	1.561	1.587	1.572	1.386	1.564	2.545	8.025	21.01	56.99	294.2	396.3
605.0	41.33	43.82	31.29	28.76	30.45	23.79	16.97	21.01	22.01	24.19	34.57	80.11	45.06	29.25	23.38	36.17	488.0	 1006	47.39	7.426	6.461	6.799	5.299	5.692	6.002	5.551	5.562	5.066	5.151	4.892	3.982	4.818	4.953	4.078	4.310	3.776	3.556	3.339	2.888	2.853	2.895	2.611	3.085	2.249	2.389	2.506	2.164	2.313	1.908	1.848	1.430	1.422	1.426	1.490	1.609	2.185	2.352	2.273	1.565	1.443	1.438	1.491	1.652	1.201	1.357	1.607	1.736	1.637	1.222	1.303	1.294	1.580	3.188	5.397	13.89	82.41	328.3
610.0	35.24	42.44	35.61	29.50	25.54	22.45	23.71	17.91	20.19	23.02	26.06	61.02	60.16	31.16	21.14	19.39	133.6	874.6	451.2	9.904	6.845	6.278	5.188	4.528	4.957	4.108	4.918	4.783	4.664	4.639	4.066	4.072	4.398	3.589	3.913	3.389	3.347	3.207	2.855	2.813	2.633	2.517	2.503	2.355	2.562	1.997	1.924	1.820	1.645	1.597	1.527	1.530	1.465	1.592	1.502	1.543	2.068	2.134	1.640	1.360	1.205	1.372	1.524	1.409	1.391	1.319	1.536	1.603	1.387	1.274	1.357	1.492	1.730	2.035	3.977	19.35	89.96
615.0	40.20	37.79	30.87	34.93	22.51	21.20	18.12	16.27	22.04	18.81	27.11	38.59	70.74	34.59	20.40	15.77	37.42	292.2	903.7	101.5	5.855	5.442	5.947	4.935	4.296	3.085	5.014	4.139	3.842	3.966	3.626	3.763	3.931	2.969	3.426	3.058	3.026	3.086	2.289	2.643	2.150	2.470	2.309	2.402	2.133	1.794	1.708	1.763	1.544	1.302	1.606	1.663	1.260	1.568	1.343	1.354	1.430	1.881	1.891	1.524	1.380	1.122	1.143	1.242	1.348	1.195	1.073	1.138	1.054	1.215	1.329	1.250	1.246	1.272	1.737	5.266	20.77
620.0	51.35	39.37	43.99	30.27	20.88	20.28	18.31	19.22	19.98	22.02	27.59	30.51	53.91	46.80	21.19	13.84	16.82	78.66	784.7	327.9	6.293	6.474	5.188	4.557	4.197	3.249	4.327	4.179	3.728	3.853	3.249	3.508	3.491	3.388	3.027	2.908	2.636	2.647	2.221	2.802	2.318	2.090	2.384	1.936	2.046	1.626	1.630	1.512	1.550	1.494	1.373	1.630	1.030	1.467	1.490	1.215	1.178	1.524	1.765	1.209	1.375	1.351	0.905	1.277	1.071	1.241	1.185	1.329	1.223	1.314	1.269	0.997	1.151	1.153	1.305	2.162	5.414
625.0	50.33	37.95	42.65	30.04	27.61	23.73	24.36	23.45	19.24	19.68	26.48	21.12	44.62	60.86	20.23	12.86	11.11	24.32	390.8	759.2	30.98	4.798	5.238	4.002	4.105	3.008	3.593	4.449	3.256	2.995	3.096	3.497	2.992	2.945	3.040	2.660	1.969	2.427	2.903	2.552	2.084	1.892	1.807	1.593	1.708	1.622	1.388	1.555	1.447	1.415	1.048	1.278	1.065	1.048	1.409	0.969	1.412	1.363	1.454	1.557	1.545	1.377	1.138	0.982	1.097	1.212	1.131	1.276	1.303	1.165	1.361	1.098	1.313	1.149	1.140	1.371	1.958
630.0	47.71	36.50	38.56	31.68	24.61	24.88	23.02	21.66	18.55	17.47	25.18	24.34	32.01	52.62	32.40	14.49	9.788	10.89	105.9	705.1	332.8	7.024	4.508	4.063	3.672	3.380	3.099	4.149	2.966	3.068	2.881	3.161	2.974	2.889	2.539	2.630	2.203	2.284	2.507	2.197	2.008	1.686	1.787	1.667	1.670	1.763	1.274	1.282	1.324	1.262	1.205	1.204	1.075	1.221	1.094	1.017	1.255	1.257	1.211	1.527	1.299	1.333	1.408	1.247	1.145	1.089	1.183	1.088	1.176	1.227	1.291	1.151	1.271	0.999	1.216	1.278	1.116
635.0	36.45	38.11	32.71	21.86	18.97	16.07	16.80	18.52	16.81	17.58	24.83	23.94	26.95	37.36	42.90	14.66	10.04	8.482	29.36	245.8	719.0	74.04	5.071	3.668	3.338	3.319	3.627	3.837	2.902	2.843	2.402	2.564	3.070	2.305	2.376	2.369	2.665	1.948	2.020	2.302	1.790	1.901	1.964	2.086	1.492	1.565	1.203	1.226	1.345	1.051	0.977	0.906	1.040	1.091	1.217	0.993	1.089	1.071	1.165	1.311	1.526	1.214	1.534	0.890	1.357	1.352	1.124	1.343	1.270	1.181	1.182	1.284	1.078	0.996	1.448	0.975	1.245
640.0	41.45	33.55	37.05	25.53	28.47	17.80	19.06	16.69	18.49	21.46	25.67	25.68	24.89	28.90	45.67	22.34	9.795	7.846	11.75	65.69	651.3	262.3	4.694	4.136	3.017	2.940	3.964	3.340	2.690	2.827	3.211	3.050	3.065	2.104	2.528	2.306	2.399	2.517	2.385	2.165	1.959	1.889	1.732	1.491	1.241	1.576	1.208	0.965	1.116	0.892	0.903	1.046	0.939	1.143	1.214	1.157	1.017	0.959	1.205	1.086	1.355	1.380	1.257	1.137	1.194	0.966	0.981	1.382	1.190	0.902	0.929	1.194	1.094	1.179	0.807	0.995	0.939
645.0	36.45	35.94	34.70	24.34	23.85	20.62	18.82	18.16	16.63	21.13	24.94	22.27	22.47	22.83	36.02	27.86	9.509	7.740	8.254	19.30	336.7	577.8	20.73	3.702	3.324	3.924	3.010	2.809	2.583	2.361	3.422	3.298	2.753	2.479	2.355	2.817	2.573	3.047	2.216	2.230	1.684	1.663	1.530	1.398	1.635	1.488	1.361	1.261	0.994	0.924	1.028	1.002	1.320	1.300	1.004	1.154	0.899	0.937	1.051	1.072	1.333	1.280	1.500	1.248	1.150	0.909	0.764	0.933	1.073	1.232	1.087	0.985	1.002	1.304	0.892	0.847	1.185
650.0	39.10	33.81	34.37	27.48	28.13	19.51	19.69	16.43	19.02	16.72	25.80	23.95	24.02	21.69	30.30	36.22	10.70	8.187	7.742	8.960	104.2	665.4	126.2	3.942	2.764	3.027	3.042	2.822	3.468	3.126	2.869	3.187	2.956	3.235	2.582	2.569	3.226	2.794	2.472	2.232	1.647	1.647	1.224	1.368	1.602	1.360	1.381	1.232	1.173	1.086	1.089	1.218	1.025	1.270	0.905	1.379	1.149	1.071	1.041	1.053	0.903	1.319	1.413	1.379	1.304	0.934	0.955	0.854	1.054	1.209	1.076	0.950	0.926	1.086	0.717	0.956	1.175
