Sample:	'1
File name:	t2025062305Óî·åÉçÇøÎ÷.FD3
Run date:	'14:35:14, 06/24/2025
Operator:	Administrator
Comment:	'

Instrument
Model:	F-2700 FL Spectrophotometer
Serial number:	23B8-004
ROM Version:	4J14000 07

Instrument parameters
Measurement type:	3-D scan
Data mode:	Fluorescence
EX  Start WL:	220.0 nm
EX  End WL:	600.0 nm
EX Sampling interval:	5.0 nm
EM  Start WL:	230.0 nm
EM  End WL:	650.0 nm
EM Sampling interval:	5.0 nm
Scan speed:	12000 nm/min
EX Slit:	5.0 nm
EM Slit:	5.0 nm
PMT Voltage:	700 V
Response:	Auto 
Corrected spectra:	Off
Contour interval:	50.000

Peak integration
Integration method:	Rectangular
Sensitivity:	1
Threshold:	1.000

Peaks
No.	ApexEX/EM(nm)	Height(Data)
1	225.0/620.0	75.73
2	230.0/340.0	5115
3	240.0/265.0	375.8
4	245.0/270.0	391.9
5	250.0/275.0	505.2
6	250.0/450.0	2668
7	255.0/285.0	528.2
8	260.0/290.0	546.4
9	260.0/575.0	135.0
10	265.0/585.0	108.3
11	270.0/600.0	100.3
12	275.0/410.0	1988
13	275.0/615.0	116.8
14	280.0/340.0	2256
15	280.0/625.0	105.2
16	285.0/640.0	87.16
17	330.0/415.0	1272
18	455.0/540.0	14.75
19	460.0/345.0	13.48
20	475.0/340.0	13.59
21	500.0/455.0	11.07
22	505.0/275.0	2.952
23	505.0/450.0	10.85
24	510.0/280.0	3.465
25	515.0/285.0	3.481
26	565.0/335.0	10.93
27	575.0/290.0	42.75
28	580.0/345.0	10.58

Data points
	220.0	225.0	230.0	235.0	240.0	245.0	250.0	255.0	260.0	265.0	270.0	275.0	280.0	285.0	290.0	295.0	300.0	305.0	310.0	315.0	320.0	325.0	330.0	335.0	340.0	345.0	350.0	355.0	360.0	365.0	370.0	375.0	380.0	385.0	390.0	395.0	400.0	405.0	410.0	415.0	420.0	425.0	430.0	435.0	440.0	445.0	450.0	455.0	460.0	465.0	470.0	475.0	480.0	485.0	490.0	495.0	500.0	505.0	510.0	515.0	520.0	525.0	530.0	535.0	540.0	545.0	550.0	555.0	560.0	565.0	570.0	575.0	580.0	585.0	590.0	595.0	600.0
230.0	105.5	1858	2528	495.1	20.08	8.009	6.436	5.268	4.775	4.498	3.878	3.637	3.227	2.839	2.515	2.120	1.820	1.614	1.555	1.410	1.208	1.111	1.119	1.004	0.997	0.899	0.800	0.813	0.837	0.748	0.748	0.709	0.576	0.598	0.508	0.504	0.471	0.456	0.434	0.461	0.497	0.531	0.509	0.377	0.404	0.416	2.302	7.094	8.517	4.986	1.510	0.430	0.297	0.282	0.264	0.288	0.301	0.244	0.282	0.271	0.267	0.257	0.277	0.281	0.292	0.286	0.268	0.270	0.287	0.257	0.299	0.280	0.310	0.256	0.286	0.241	0.276
235.0	102.2	559.9	2299	2678	493.1	30.72	6.581	6.306	5.549	4.568	4.041	3.952	3.423	2.675	2.260	2.224	1.852	1.820	1.412	1.486	1.263	1.176	1.134	1.073	0.882	0.989	0.877	0.882	0.876	0.825	0.785	0.642	0.663	0.641	0.507	0.475	0.450	0.504	0.447	0.425	0.409	0.452	0.549	0.636	0.524	0.454	0.769	2.103	4.205	7.687	9.253	8.223	3.012	0.679	0.286	0.271	0.343	0.280	0.257	0.348	0.386	0.274	0.292	0.273	0.341	0.288	0.262	0.259	0.283	0.300	0.304	0.256	0.265	0.298	0.287	0.252	0.337
240.0	166.4	206.7	802.1	3063	2702	365.9	15.49	7.161	6.112	5.114	4.133	4.570	3.539	2.846	2.697	2.285	1.782	1.711	1.610	1.392	1.254	1.082	1.074	1.131	1.020	1.097	0.900	0.744	0.836	0.839	0.746	0.768	0.524	0.579	0.469	0.461	0.486	0.607	0.407	0.498	0.413	0.422	0.430	0.465	0.681	0.623	0.549	0.789	1.198	2.560	6.542	13.86	13.64	7.926	2.397	0.444	0.334	0.334	0.264	0.347	0.261	0.262	0.310	0.261	0.338	0.284	0.286	0.218	0.218	0.246	0.351	0.257	0.321	0.246	0.303	0.237	0.272
245.0	155.2	210.9	233.5	1287	3902	2521	257.2	9.471	6.578	5.993	4.488	4.601	3.376	3.029	2.879	2.320	2.057	1.711	1.729	1.322	1.374	1.128	1.199	1.119	1.040	0.981	1.097	0.849	0.848	0.787	0.949	0.708	0.524	0.595	0.488	0.456	0.534	0.667	0.452	0.468	0.429	0.373	0.424	0.451	0.577	0.779	0.778	0.655	0.571	0.820	1.830	5.776	12.57	18.20	14.74	6.818	1.515	0.367	0.318	0.310	0.284	0.302	0.337	0.293	0.310	0.288	0.303	0.316	0.284	0.287	0.322	0.311	0.305	0.268	0.336	0.336	0.300
250.0	69.12	181.1	237.4	364.6	1463	3529	3496	916.5	41.23	7.428	5.814	4.947	4.098	3.678	3.040	2.291	2.269	1.927	1.672	1.389	1.388	1.249	1.246	1.152	1.101	1.030	1.099	0.828	0.839	0.803	0.761	0.703	0.539	0.630	0.531	0.466	0.545	0.545	0.466	0.446	0.442	0.409	0.468	0.402	0.509	0.500	0.656	0.836	0.915	0.866	0.738	1.625	3.339	6.727	11.40	16.36	19.47	14.67	7.203	1.795	0.342	0.314	0.327	0.283	0.330	0.286	0.323	0.255	0.296	0.284	0.277	0.290	0.273	0.270	0.337	0.277	0.327
255.0	43.79	69.05	201.2	324.2	387.7	994.5	3792	5372	303.4	35.23	8.244	6.561	4.991	4.196	3.729	2.847	2.200	2.167	1.814	1.533	1.622	1.145	1.192	1.130	1.154	1.058	1.085	0.900	0.945	0.925	0.715	0.732	0.619	0.656	0.573	0.443	0.548	0.490	0.477	0.399	0.475	0.440	0.448	0.349	0.428	0.326	0.438	0.468	0.605	0.971	1.244	1.257	1.141	1.838	2.866	4.326	9.212	19.73	30.56	24.70	10.27	1.677	0.326	0.298	0.336	0.314	0.307	0.278	0.282	0.297	0.299	0.321	0.346	0.269	0.306	0.252	0.297
260.0	35.85	36.97	89.55	314.9	289.7	275.3	1302	5659	5211	245.5	17.65	8.148	6.419	5.358	3.584	3.212	2.334	2.123	1.906	1.759	1.700	1.341	1.420	1.130	1.067	0.958	0.953	0.901	0.954	0.844	0.891	0.778	0.592	0.645	0.672	0.576	0.547	0.442	0.478	0.494	0.428	0.462	0.443	0.346	0.389	0.429	0.366	0.414	0.385	0.557	0.999	1.874	1.510	1.167	0.963	1.306	2.454	5.911	16.66	31.75	32.09	21.62	6.838	0.800	0.361	0.364	0.312	0.308	0.319	0.357	0.288	0.343	0.333	0.326	0.285	0.279	0.350
265.0	36.36	31.15	37.56	172.4	375.8	223.7	344.6	2220	7302	4851	184.0	12.18	7.584	6.307	4.163	3.425	2.911	2.443	2.271	1.626	1.734	1.356	1.305	1.257	1.099	1.074	0.989	0.927	0.988	0.868	0.942	0.900	0.686	0.649	0.626	0.522	0.558	0.467	0.457	0.527	0.450	0.475	0.448	0.430	0.412	0.415	0.417	0.410	0.379	0.383	0.566	1.095	1.716	1.912	1.276	0.807	1.033	1.692	4.368	10.56	24.54	42.28	31.32	17.57	3.460	0.529	0.330	0.365	0.351	0.350	0.317	0.307	0.273	0.370	0.296	0.295	0.337
270.0	50.31	34.83	34.58	71.22	228.8	391.9	276.7	568.2	2617	6655	5609	752.7	38.03	9.043	5.991	4.364	3.383	2.816	2.310	1.924	1.753	1.593	1.454	1.275	1.261	1.268	1.178	0.986	1.012	0.934	1.030	0.859	0.677	0.714	0.639	0.594	0.599	0.507	0.481	0.526	0.450	0.463	0.470	0.428	0.472	0.443	0.439	0.375	0.384	0.366	0.376	0.583	0.843	1.321	1.932	2.022	1.629	1.133	1.547	2.807	6.242	13.62	22.84	35.76	36.82	33.94	12.85	3.447	0.508	0.371	0.348	0.363	0.328	0.355	0.306	0.314	0.349
275.0	88.89	80.38	62.82	58.08	102.4	247.5	505.2	322.5	637.2	1762	6335	9816	1008	31.75	8.251	5.994	4.426	3.527	2.479	2.233	2.205	1.895	1.577	1.358	1.355	1.268	1.249	1.086	1.176	1.025	1.130	1.053	0.894	0.735	0.751	0.722	0.678	0.549	0.576	0.567	0.474	0.486	0.583	0.471	0.618	0.525	0.525	0.453	0.508	0.437	0.405	0.480	0.532	0.668	1.065	1.473	2.538	2.952	2.141	1.277	1.841	3.499	5.513	8.829	13.86	34.07	59.63	32.37	19.26	3.103	0.438	0.400	0.420	0.319	0.372	0.353	0.317
280.0	141.3	125.5	96.41	75.03	82.02	136.2	392.0	420.5	271.0	461.7	1977	9509	8541	146.6	16.66	7.371	5.458	4.191	3.263	2.541	2.139	2.070	1.743	1.465	1.472	1.349	1.431	1.257	1.164	1.238	1.010	0.990	0.857	0.834	0.844	0.832	0.684	0.673	0.600	0.617	0.568	0.665	0.689	0.700	0.702	0.617	0.655	0.654	0.571	0.541	0.389	0.416	0.542	0.580	0.712	0.850	1.391	2.291	3.465	2.494	1.476	1.353	1.752	2.512	3.735	9.267	24.09	46.13	68.01	30.48	13.39	1.401	0.498	0.437	0.421	0.335	0.326
285.0	218.5	195.1	165.3	106.8	88.32	109.6	205.0	528.2	342.6	211.5	545.7	3244	9999.9	6437	107.6	11.41	6.898	4.587	3.687	2.965	2.358	2.328	2.037	1.555	1.567	1.300	1.465	1.376	1.149	1.093	1.071	1.067	0.889	0.990	0.945	0.864	0.733	0.895	0.702	0.684	0.640	0.692	0.678	0.751	0.681	0.838	0.741	0.840	0.766	0.604	0.477	0.495	0.555	0.571	0.652	0.784	1.009	1.252	2.257	3.481	3.171	1.828	1.141	1.174	1.609	2.849	6.137	13.46	34.24	59.49	68.45	25.92	7.443	0.815	0.489	0.371	0.415
290.0	316.1	315.6	254.5	154.2	115.2	115.1	143.5	272.3	546.4	469.6	304.2	894.7	3309	8106	7404	439.6	27.36	6.959	5.117	3.650	2.943	2.462	2.230	2.026	1.873	1.587	1.449	1.292	1.283	1.107	1.210	1.075	0.980	0.940	1.005	0.922	0.953	0.918	0.771	0.825	0.720	0.843	0.810	0.943	0.855	1.062	0.999	0.984	1.023	0.827	0.710	0.691	0.665	0.693	0.651	0.713	0.869	0.930	1.172	1.669	2.405	3.142	3.422	2.504	1.597	1.730	2.339	3.946	8.710	16.82	30.81	42.75	39.87	45.04	17.68	7.227	1.093
295.0	408.7	422.6	379.6	235.8	166.1	156.4	166.6	211.8	350.3	730.3	673.7	490.4	960.4	2076	6085	9501	634.8	25.99	7.529	4.449	3.548	2.986	2.476	2.275	2.083	1.793	1.654	1.440	1.275	1.273	1.217	1.035	1.020	1.046	1.127	1.014	1.049	1.043	1.025	0.876	0.802	0.816	0.942	1.044	0.985	1.209	1.215	1.365	1.262	1.033	0.981	0.947	0.918	0.826	0.852	0.870	0.975	1.035	1.051	1.272	1.468	1.856	2.751	4.302	4.581	3.205	1.974	2.206	3.185	5.024	7.931	10.66	11.78	28.54	57.28	70.52	29.06
300.0	509.1	565.3	501.7	346.2	261.8	245.2	277.9	308.6	354.7	653.9	1100	739.1	607.8	738.9	1827	8137	5833	473.5	15.62	6.324	4.721	3.750	3.064	2.457	1.972	1.853	1.711	1.580	1.372	1.243	1.140	1.123	1.122	1.141	1.166	1.130	1.243	1.159	0.927	0.974	1.010	0.949	0.998	1.306	1.314	1.461	1.505	1.652	1.622	1.366	1.272	1.344	1.233	0.996	1.167	1.265	1.383	1.565	1.543	1.682	1.798	2.044	2.557	3.497	4.876	5.943	4.813	3.180	2.884	3.357	3.734	4.022	4.059	7.913	18.67	43.94	71.94
305.0	625.1	770.5	670.1	504.7	394.6	399.4	452.8	540.6	636.4	827.3	1243	1416	906.4	693.3	796.9	2707	8829	4877	74.55	10.90	5.700	4.170	3.848	2.791	2.446	2.259	1.807	1.718	1.367	1.444	1.349	1.325	1.192	1.212	1.244	1.150	1.290	1.350	1.102	1.161	1.133	1.140	1.216	1.383	1.654	1.820	1.870	2.129	2.218	1.731	1.635	1.697	1.695	1.621	1.767	1.680	2.097	2.212	2.421	2.801	2.884	3.094	3.706	4.135	4.773	5.816	7.362	6.768	5.468	4.454	4.207	3.839	3.201	3.948	5.932	12.43	27.51
310.0	773.3	1014	952.2	709.1	581.2	578.6	680.0	780.8	861.7	1059	1296	1629	1553	1042	795.1	1028	2925	6392	6102	1345	22.94	6.349	4.440	3.535	2.883	2.261	2.002	1.971	1.760	1.654	1.365	1.319	1.190	1.209	1.184	1.383	1.366	1.295	1.284	1.318	1.239	1.379	1.345	1.637	1.946	2.274	2.378	2.906	2.944	2.490	2.282	2.499	2.394	2.284	2.443	2.456	2.847	3.322	3.574	3.592	3.633	4.062	4.721	5.087	5.443	5.996	6.821	7.627	8.342	7.773	6.812	5.294	4.728	4.606	4.475	5.314	8.683
315.0	1004	1298	1227	928.8	738.6	746.0	847.4	950.7	1023	1205	1406	1624	1732	1613	1022	779.0	1071	1712	4500	8224	501.4	22.78	6.477	4.316	3.431	2.960	2.323	2.127	1.843	1.706	1.572	1.324	1.197	1.203	1.245	1.368	1.419	1.460	1.375	1.408	1.514	1.522	1.608	1.800	2.085	2.786	3.102	3.650	3.732	3.277	2.907	3.269	3.047	2.848	3.143	3.096	3.636	4.195	4.323	4.294	4.370	4.748	5.286	5.627	6.085	6.537	6.923	7.834	7.960	8.412	9.191	8.733	7.141	5.796	4.662	4.586	5.242
320.0	1199	1679	1579	1209	925.8	859.3	956.9	1051	1119	1304	1544	1734	1768	1813	1399	842.7	737.0	657.0	1269	6077	6964	400.6	13.70	5.742	4.391	3.127	2.589	2.359	2.014	1.792	1.736	1.550	1.241	1.385	1.368	1.340	1.447	1.361	1.375	1.480	1.530	1.638	1.930	2.097	2.609	3.386	3.981	4.685	4.519	3.868	3.732	3.825	3.561	3.355	3.480	3.466	3.957	4.476	4.604	4.875	4.824	5.265	5.748	6.239	6.568	7.027	7.354	8.007	8.313	8.444	8.452	9.474	9.408	7.782	5.844	5.119	4.821
325.0	1624	2338	2425	1830	1199	969.9	1058	1150	1216	1406	1671	1872	1896	1824	1693	1001	735.3	479.1	442.4	1802	6892	3938	60.38	9.974	5.444	3.706	3.161	2.870	2.195	1.925	1.907	1.613	1.445	1.352	1.420	1.462	1.612	1.422	1.397	1.482	1.742	1.780	2.257	2.479	3.453	4.653	5.082	6.439	6.765	6.078	5.669	5.415	4.640	3.966	3.857	3.716	4.463	5.012	5.442	5.053	5.378	5.435	5.823	6.664	7.087	7.922	8.236	8.302	8.955	9.365	8.786	8.982	9.579	9.818	8.167	6.514	5.242
330.0	2209	3316	3785	2992	1865	1249	1179	1260	1339	1551	1822	2052	2100	1960	1743	1411	963.5	552.4	354.8	567.4	2049	4834	5073	1259	21.19	5.743	4.125	3.575	2.580	2.299	1.930	1.839	1.612	1.516	1.508	1.447	1.739	1.534	1.643	1.637	1.964	2.287	2.681	3.375	4.469	6.003	7.379	9.332	9.960	9.326	8.865	8.730	7.270	6.007	5.157	4.768	4.937	5.256	5.807	5.593	5.579	6.148	6.659	7.160	7.615	8.481	8.824	9.362	9.777	9.932	10.05	9.518	9.817	9.670	8.963	8.686	7.706
335.0	2565	4012	4678	3930	2654	1642	1338	1372	1432	1626	1904	2166	2241	2104	1826	1490	1269	754.4	441.2	378.1	637.3	1250	3542	7252	431.5	22.87	6.108	4.103	3.347	3.007	2.190	2.002	1.725	1.572	1.607	1.514	1.621	1.586	1.630	1.707	2.006	2.460	2.784	3.485	4.788	6.690	8.333	11.11	12.07	11.55	11.19	12.06	10.04	8.135	6.842	5.620	5.490	5.759	6.126	6.143	5.884	6.393	6.912	7.597	8.476	8.575	9.339	9.700	10.11	10.93	10.87	10.33	10.38	10.15	9.170	8.814	8.747
340.0	2702	4196	5115	4388	2931	1784	1390	1394	1458	1653	1943	2186	2256	2136	1857	1475	1260	952.2	525.1	367.1	354.9	441.1	1006	5108	6331	372.0	12.32	5.242	3.920	3.304	2.525	2.193	1.949	1.584	1.746	1.745	1.768	1.584	1.771	1.745	1.979	2.455	2.904	3.864	5.090	7.057	9.054	12.08	13.08	12.47	12.57	13.59	11.47	9.428	7.203	5.932	5.844	5.763	6.038	6.522	6.343	6.791	6.954	7.745	8.029	8.571	9.181	9.906	10.54	10.84	10.67	10.60	10.56	10.53	9.239	8.869	8.382
345.0	2680	4207	5109	4517	2954	1825	1401	1380	1453	1620	1895	2094	2184	2072	1804	1450	1150	978.3	660.2	398.4	315.6	280.5	344.7	1488	5958	3391	53.99	7.822	4.848	3.492	2.827	2.332	1.945	1.730	1.668	1.906	1.774	1.653	1.736	1.944	1.965	2.613	3.036	3.901	5.158	7.350	8.790	11.84	13.48	12.96	12.50	13.39	11.75	9.446	7.200	6.110	5.952	5.815	6.034	5.958	6.219	6.575	7.009	7.393	7.961	8.510	9.095	9.639	9.891	10.36	10.44	10.53	10.58	9.455	8.810	8.459	7.795
350.0	2518	3898	4777	4348	3027	1903	1422	1396	1443	1572	1793	1959	2034	1955	1714	1406	1106	877.6	744.9	539.6	356.0	280.0	231.6	430.1	1705	4066	4420	1153	19.00	4.975	3.363	2.759	2.218	1.916	1.718	1.804	1.747	1.673	1.607	1.910	1.893	2.348	2.936	3.654	4.921	6.814	8.166	10.89	12.37	12.19	12.30	13.40	11.61	9.923	7.886	6.390	5.893	5.809	6.094	6.139	6.265	6.518	6.651	7.148	7.562	8.134	8.501	9.163	9.499	9.649	9.824	9.552	9.707	9.097	8.949	8.321	7.827
355.0	2249	3481	4301	4011	2941	1933	1498	1435	1452	1564	1708	1843	1880	1822	1623	1351	1081	847.7	688.3	648.0	479.1	327.7	242.4	225.8	457.3	987.1	3005	6225	399.6	21.10	5.135	3.783	2.805	2.347	1.987	1.751	1.703	1.592	1.702	1.732	1.897	2.303	2.705	3.520	4.655	5.958	7.417	9.356	11.25	11.16	11.05	12.82	11.11	10.08	7.888	6.348	6.378	6.022	6.184	6.202	6.209	6.379	6.848	7.189	7.226	7.758	8.005	8.265	8.815	8.802	9.045	8.894	8.985	8.959	8.823	8.279	7.521
360.0	2077	3152	3899	3662	2749	1920	1519	1462	1478	1548	1653	1754	1772	1697	1531	1300	1059	842.7	671.8	613.5	576.0	393.8	268.6	207.0	201.9	287.7	808.8	4418	5720	351.3	11.37	4.462	3.219	2.413	2.097	1.764	1.834	1.592	1.649	1.739	1.866	2.267	2.462	3.275	4.038	5.485	6.665	9.062	10.04	10.14	10.04	11.88	10.59	9.204	7.615	6.460	6.391	6.267	6.132	6.263	6.446	6.553	6.929	7.253	7.635	7.369	7.996	7.967	8.295	8.389	8.614	8.585	8.486	8.503	7.969	7.976	7.296
365.0	1890	2810	3480	3354	2623	1885	1539	1476	1489	1545	1616	1678	1673	1605	1457	1255	1031	844.4	683.6	586.8	581.4	496.3	314.6	226.6	170.5	151.3	241.1	1286	5481	3178	50.07	7.806	4.161	2.885	2.418	1.827	1.976	1.748	1.701	1.752	1.841	1.916	2.473	3.142	3.987	4.791	6.132	8.173	9.456	9.284	9.162	10.69	9.695	8.919	7.410	6.871	6.049	6.365	6.344	6.222	6.651	6.605	7.064	7.079	7.157	7.162	7.405	7.512	7.848	7.847	7.915	8.321	8.159	8.065	7.666	7.145	7.213
370.0	1721	2499	3093	3033	2493	1887	1557	1493	1510	1554	1585	1606	1592	1516	1377	1194	1017	846.4	709.8	605.1	550.3	542.6	441.5	292.0	208.4	160.8	151.7	360.5	1583	3971	4261	1064	19.52	5.457	3.220	2.253	2.074	2.025	1.711	1.830	1.850	2.052	2.341	2.892	3.423	4.464	5.280	6.917	8.106	7.982	8.419	9.712	9.255	8.477	7.241	6.631	6.515	6.295	6.639	6.499	6.446	6.650	6.970	7.120	7.227	7.038	6.952	7.201	7.506	7.391	7.516	7.770	7.601	7.415	7.368	6.915	6.876
375.0	1531	2156	2687	2690	2356	1905	1616	1520	1530	1560	1586	1586	1575	1459	1304	1148	995.2	856.3	739.7	642.0	571.0	529.1	527.7	430.4	288.0	222.2	200.6	217.4	447.7	1001	3070	5883	348.5	21.77	5.286	3.189	2.575	2.324	2.062	1.757	1.881	1.931	2.173	2.746	3.147	4.120	4.930	6.346	7.019	7.134	7.453	8.583	8.391	8.194	7.232	6.574	6.827	6.643	6.765	6.377	6.466	7.119	6.788	7.285	7.205	6.887	7.509	7.246	7.275	7.397	7.361	7.562	7.408	7.270	6.919	6.628	6.761
380.0	1420	1993	2474	2475	2237	1902	1653	1558	1547	1581	1611	1571	1575	1444	1274	1116	993.8	856.9	758.2	674.0	609.8	557.1	535.7	529.1	386.8	287.6	259.5	232.9	232.6	334.8	915.7	4361	4993	295.3	11.47	4.566	3.353	2.506	2.322	1.918	1.976	1.984	2.266	2.667	2.991	3.779	4.569	5.985	6.250	6.557	6.870	8.213	8.273	7.955	7.247	6.387	6.993	6.696	6.747	6.658	6.572	6.722	6.975	7.078	6.932	7.103	7.301	7.080	6.976	7.465	7.515	7.342	7.151	6.857	6.899	6.863	6.268
385.0	1354	1809	2259	2349	2170	1903	1652	1569	1554	1598	1620	1572	1564	1425	1240	1102	984.0	869.0	785.7	711.0	653.0	601.1	554.9	558.5	498.8	363.2	321.9	278.4	220.0	215.8	353.5	1363	4829	2670	41.56	8.163	4.551	3.178	2.355	1.967	2.033	2.030	2.202	2.542	2.936	3.437	4.108	5.325	5.939	5.888	6.548	7.769	7.729	7.693	7.271	6.637	7.043	6.849	6.528	6.716	6.990	6.918	6.892	6.968	7.369	7.089	6.653	6.888	7.061	7.231	7.302	6.940	7.012	6.661	6.747	6.537	6.218
390.0	1258	1707	2087	2193	2108	1894	1675	1598	1580	1592	1621	1573	1549	1418	1244	1114	1005	916.5	843.9	799.7	756.4	711.3	660.7	624.2	596.6	520.7	419.0	350.3	275.8	235.2	251.5	443.7	1436	3300	3339	825.0	16.64	5.434	3.036	2.384	2.089	2.190	2.309	2.632	3.042	3.521	4.056	5.188	5.513	5.529	5.917	7.089	7.402	7.270	7.178	6.659	6.995	6.848	6.659	6.763	6.830	6.830	6.943	6.972	6.914	6.922	6.657	6.817	6.796	6.993	6.893	6.676	6.468	6.969	6.692	6.378	6.163
395.0	1206	1643	1948	2059	2051	1904	1749	1660	1633	1649	1700	1660	1632	1509	1322	1190	1075	1004	958.0	931.7	909.1	887.8	846.3	795.7	727.7	694.7	622.2	473.9	396.4	335.4	310.5	301.9	444.1	850.2	2509	4503	288.9	18.29	5.210	3.191	2.351	2.376	2.381	2.711	2.946	3.546	3.875	4.891	5.338	5.251	5.844	6.906	7.168	7.267	7.329	6.758	7.060	7.046	7.197	6.993	6.986	6.866	7.100	7.088	6.755	6.673	6.914	7.070	7.109	6.935	7.222	6.653	6.586	6.902	7.008	6.563	6.583
400.0	1154	1586	1893	2011	2039	1917	1818	1738	1690	1728	1811	1784	1753	1615	1417	1275	1158	1082	1053	1048	1047	1038	1010	961.6	883.5	819.3	796.6	661.4	527.9	445.0	407.7	342.1	277.3	311.0	750.8	3447	3755	240.5	10.75	4.585	3.032	2.571	2.594	2.694	3.170	3.361	3.740	4.675	5.332	5.188	5.582	6.853	7.061	7.603	7.428	7.096	7.602	7.102	7.097	6.766	7.399	6.955	7.136	7.444	7.021	6.927	6.917	7.096	7.190	7.358	7.362	6.789	6.646	6.760	6.826	6.574	7.030
405.0	1175	1534	1852	1975	2017	1959	1862	1781	1742	1802	1922	1913	1886	1746	1528	1371	1238	1152	1124	1138	1155	1166	1148	1111	1026	943.9	909.0	830.6	661.5	560.5	510.2	414.9	296.8	232.3	288.7	1083	3781	2256	36.73	6.503	3.833	2.951	2.840	2.870	3.075	3.437	3.780	4.609	5.384	5.185	5.387	6.916	7.174	7.652	7.809	7.253	7.772	7.350	7.479	7.073	7.054	7.136	7.257	7.555	7.224	7.220	6.921	7.470	7.503	7.414	7.528	7.095	6.898	6.766	6.499	6.721	6.802
410.0	1084	1456	1757	1880	1965	1963	1902	1818	1791	1857	1986	1988	1946	1813	1603	1423	1283	1190	1171	1197	1229	1250	1241	1209	1134	1045	976.1	912.7	803.1	667.6	585.0	479.9	346.8	256.8	216.6	352.9	1155	2642	2657	690.4	12.57	3.608	3.126	2.935	3.077	3.588	3.888	4.525	5.208	4.984	5.326	6.794	7.172	7.470	7.432	7.449	7.994	7.699	7.801	7.233	7.329	7.186	7.237	7.413	7.549	7.409	7.130	7.333	7.628	7.289	7.699	7.244	6.995	6.806	6.811	6.761	6.933
415.0	1080	1365	1670	1816	1918	1974	1908	1854	1795	1828	1940	1947	1901	1768	1581	1406	1272	1190	1176	1206	1236	1259	1272	1235	1164	1072	986.9	903.6	828.5	732.1	614.2	497.0	368.8	274.1	212.8	198.1	332.3	661.5	1952	3365	256.4	12.49	3.582	3.387	3.177	3.782	3.899	4.421	4.741	4.930	5.188	6.830	6.988	7.436	7.471	7.566	7.737	7.798	7.612	7.255	7.377	7.032	7.095	7.308	7.253	7.272	6.949	7.312	7.143	7.050	7.120	6.842	6.745	6.668	6.992	6.611	6.767
420.0	1030	1348	1596	1788	1894	1985	1957	1882	1781	1802	1869	1885	1841	1714	1527	1379	1253	1178	1169	1194	1226	1251	1256	1227	1156	1072	984.9	893.7	808.5	752.3	635.2	502.9	374.9	279.3	213.3	163.8	149.5	189.6	540.6	2554	2164	215.1	6.567	3.787	3.542	3.716	3.648	4.557	4.640	4.575	4.986	6.256	6.692	7.496	7.335	7.397	7.830	7.881	7.759	7.760	7.567	7.236	7.209	7.104	6.841	6.766	6.623	6.849	6.644	6.803	6.688	6.410	6.585	6.929	6.622	6.530	6.810
425.0	978.7	1352	1593	1776	1905	2029	2003	1917	1794	1775	1833	1835	1782	1673	1504	1368	1242	1173	1165	1199	1228	1247	1256	1222	1160	1072	984.9	895.8	800.9	743.1	670.2	529.0	388.9	288.4	220.8	162.0	113.9	87.70	145.8	763.6	2654	1988	33.38	5.028	3.873	3.906	3.726	4.818	4.681	4.561	4.941	6.338	6.801	7.178	7.603	7.520	8.153	8.152	8.199	7.708	7.542	7.201	7.000	6.914	6.846	6.847	6.514	6.518	6.939	6.606	6.382	6.286	6.532	6.900	6.563	6.490	6.848
430.0	1082	1329	1567	1774	1964	2136	2162	2052	1867	1786	1804	1814	1775	1664	1506	1370	1251	1175	1174	1199	1220	1234	1237	1214	1164	1077	995.6	918.5	823.5	744.9	688.8	581.8	430.6	319.6	245.1	179.2	120.4	74.25	63.04	188.6	776.7	2010	2145	582.5	12.10	4.236	4.057	4.664	4.650	4.636	5.047	6.540	7.102	7.492	7.807	8.115	8.739	8.981	8.671	8.226	7.913	7.433	7.188	6.762	6.724	6.773	6.594	6.305	6.534	6.659	6.346	6.309	6.539	6.669	6.521	6.801	6.645
435.0	1384	1368	1552	1790	2060	2307	2362	2254	1971	1790	1776	1777	1727	1641	1488	1370	1261	1177	1175	1179	1179	1190	1192	1180	1137	1064	989.8	923.2	837.3	763.1	686.6	599.5	479.2	353.0	269.0	200.1	136.0	83.43	51.51	64.45	188.8	479.6	1494	2794	242.4	13.23	5.102	4.963	4.782	4.828	5.383	6.558	7.342	7.711	8.464	8.727	9.461	9.671	9.626	8.853	8.642	7.850	7.151	6.991	6.810	6.411	6.622	6.468	6.344	6.340	6.340	6.309	6.503	6.010	6.625	6.603	6.387
440.0	1913	1423	1581	1796	2109	2410	2514	2370	2037	1793	1721	1706	1664	1583	1458	1341	1249	1154	1153	1149	1135	1131	1130	1125	1097	1029	964.2	898.0	821.2	750.1	672.7	582.8	492.9	375.0	280.7	208.7	143.9	88.33	52.93	39.96	59.85	120.1	406.1	2098	2017	202.7	7.955	5.248	4.833	4.972	5.289	6.660	7.361	7.982	8.725	9.201	10.06	10.62	10.35	9.653	8.525	8.101	7.348	6.838	6.626	6.268	6.487	6.207	6.112	6.252	5.950	6.301	6.185	6.075	6.325	6.553	6.494
445.0	2208	1687	1564	1771	2151	2451	2614	2470	2059	1749	1649	1618	1583	1511	1392	1298	1206	1132	1119	1104	1079	1067	1061	1055	1024	972.9	912.8	855.3	792.4	726.3	652.2	558.4	469.8	388.0	288.6	207.9	144.9	91.23	55.85	38.48	33.70	41.00	101.9	623.6	2326	1821	29.26	6.486	5.203	4.910	5.401	6.707	7.443	8.316	9.246	9.495	10.77	10.84	10.45	9.865	9.218	8.141	7.152	6.958	6.319	5.730	6.095	5.687	5.928	6.057	5.900	6.008	6.185	6.176	6.009	6.433	6.182
450.0	1797	2489	1636	1765	2126	2498	2668	2501	2037	1667	1517	1477	1442	1378	1284	1204	1133	1073	1058	1035	985.2	963.8	964.5	953.2	929.2	883.1	836.2	787.4	735.8	679.7	613.2	524.7	433.5	363.4	293.7	210.6	145.8	94.16	61.43	41.74	31.36	26.47	35.63	149.9	673.0	1770	1898	540.4	11.98	5.335	5.426	6.772	7.434	8.291	9.261	9.600	10.67	10.85	10.82	10.37	9.337	8.231	7.168	6.696	5.976	5.558	5.588	5.507	5.481	5.511	5.479	5.697	5.813	5.866	5.656	6.143	6.046
455.0	1135	2833	2236	1706	2074	2439	2657	2462	1989	1578	1378	1339	1302	1251	1165	1107	1057	1002	983.3	951.9	894.2	860.0	852.4	847.0	826.7	791.5	758.5	719.4	672.6	629.1	569.5	491.6	403.8	331.1	281.5	220.4	149.2	97.07	64.71	45.41	33.71	25.47	23.45	45.23	159.9	419.9	1175	2307	203.1	12.81	5.563	6.833	7.444	8.505	8.957	9.515	11.07	10.73	11.01	9.924	9.010	7.872	6.829	6.251	5.585	5.325	5.244	5.039	4.987	5.267	5.054	5.321	5.202	5.808	5.474	5.526	5.557
460.0	918.5	2259	3003	1727	2004	2377	2601	2406	1908	1473	1290	1239	1211	1168	1093	1035	985.5	935.9	916.6	882.9	817.6	782.2	775.7	768.6	754.7	725.4	696.9	667.3	628.0	587.8	535.1	463.1	384.7	312.0	260.0	218.7	157.4	99.02	66.69	48.50	35.96	27.80	22.16	23.60	46.77	103.3	306.3	1562	1660	162.6	9.198	7.132	7.241	7.926	8.706	9.215	10.82	10.47	10.71	10.16	8.914	7.961	6.491	5.840	5.162	5.058	4.967	4.979	4.696	5.028	4.904	5.128	5.082	5.060	5.162	4.929	5.394
465.0	816.3	1555	3356	2077	1929	2273	2506	2292	1808	1392	1203	1152	1132	1078	1009	968.4	917.1	878.6	854.3	812.8	747.2	704.9	706.6	699.8	687.9	663.4	640.2	612.6	587.3	551.9	506.9	437.9	363.4	295.1	243.2	204.0	160.5	104.5	69.58	49.95	38.10	29.89	23.83	20.19	22.70	33.26	77.47	441.0	1697	1379	131.3	8.272	7.300	7.891	8.193	8.831	10.24	10.13	10.22	9.716	8.536	7.521	6.656	5.564	4.843	4.661	4.513	4.507	4.474	4.532	4.347	4.377	4.747	4.909	4.909	4.913	4.844
470.0	765.2	1117	2464	3032	1915	2087	2279	2108	1660	1246	1060	1018	989.2	948.2	893.2	854.8	812.7	778.7	758.7	715.1	649.4	605.8	603.2	601.5	591.7	575.4	557.9	536.8	519.4	489.4	450.4	393.5	328.6	269.0	221.5	179.8	146.9	110.2	73.59	52.74	40.16	32.00	25.35	20.84	18.94	19.34	27.63	107.7	472.8	1178	1337	474.2	14.39	7.584	7.913	8.441	9.387	9.598	9.601	8.475	7.752	6.838	5.903	4.987	4.500	4.198	4.100	4.136	3.969	4.277	4.214	4.016	4.367	4.440	4.320	4.496	4.735
475.0	741.9	893.5	1425	3191	2448	1884	2036	1891	1479	1093	927.3	886.9	850.8	815.7	777.3	737.6	706.7	678.4	657.6	607.9	552.1	512.3	501.9	505.2	496.0	483.9	473.5	459.5	445.3	421.5	392.5	343.3	289.2	239.7	196.1	157.6	126.7	105.2	81.09	55.76	40.53	33.23	27.18	22.33	19.42	17.18	17.29	33.46	113.3	273.8	660.7	1498	210.2	17.24	7.451	7.849	8.299	8.488	8.319	7.958	6.992	5.869	5.169	4.641	3.975	3.577	3.642	3.660	3.434	3.861	3.721	3.542	3.619	3.782	3.994	4.043	4.314
480.0	658.5	806.7	1036	2378	3210	1816	1874	1711	1341	989.0	838.2	792.3	763.9	726.9	692.4	657.6	635.1	607.1	588.1	545.2	485.4	452.2	441.4	441.1	438.3	429.1	417.8	407.3	392.5	377.4	350.2	309.2	261.6	218.7	180.1	143.6	116.7	93.57	80.77	59.85	42.52	34.19	28.00	22.77	20.32	17.63	15.30	16.73	33.09	67.76	164.5	823.1	1382	198.7	12.04	7.450	7.620	7.860	7.745	6.971	6.709	5.327	4.871	4.304	3.471	3.515	3.313	3.245	3.198	3.361	3.411	3.257	3.514	3.514	3.649	3.494	3.935
485.0	626.2	788.8	892.0	1540	3470	2096	1692	1575	1233	920.8	772.4	726.3	696.6	664.0	627.3	599.8	578.4	551.1	532.4	492.3	436.3	403.8	393.6	393.0	394.8	381.6	374.7	364.5	357.2	339.5	316.9	281.9	239.1	202.2	166.4	135.1	107.8	84.50	73.49	63.23	45.42	34.52	28.03	24.08	21.21	18.33	15.46	14.01	15.70	22.27	43.04	218.0	1038	1284	159.8	8.726	7.578	7.440	7.237	6.602	5.902	5.039	4.509	3.868	3.417	3.107	3.255	2.938	3.049	3.217	3.101	2.999	3.221	3.138	3.468	3.238	3.633
490.0	496.7	721.9	785.0	1051	2478	3020	1661	1399	1093	812.2	681.3	644.3	614.9	586.2	553.7	527.8	505.2	483.8	468.3	432.8	379.5	349.8	340.4	339.8	338.1	331.5	326.0	318.6	313.0	300.1	279.2	250.2	213.7	181.1	150.4	123.8	99.48	77.73	63.49	59.42	50.99	38.29	28.93	24.39	21.15	18.50	16.16	14.04	12.08	12.55	16.06	54.74	270.7	782.0	1125	481.5	16.85	7.107	6.687	6.133	5.297	4.663	3.979	3.713	3.271	2.868	2.726	2.787	2.791	2.813	2.801	2.767	2.794	2.922	3.040	3.122	3.165
495.0	427.6	650.2	725.7	832.0	1380	3130	2173	1216	955.1	712.9	591.0	567.0	534.5	504.4	476.0	457.9	433.5	417.4	401.7	372.8	324.2	296.2	289.1	292.8	284.7	283.7	277.9	271.9	268.1	260.0	243.1	217.1	188.8	160.9	135.1	111.6	89.95	72.85	58.07	50.88	48.96	43.27	31.87	24.87	21.56	18.74	16.40	14.21	12.33	10.40	9.998	18.43	65.96	181.2	491.8	1305	696.3	21.32	6.465	5.512	5.011	4.270	3.769	3.093	2.810	2.616	2.554	2.285	2.786	2.458	2.282	2.466	2.447	2.640	2.509	2.873	2.806
500.0	363.1	548.4	667.5	724.3	983.5	2267	2927	1170	845.4	640.1	529.9	502.1	479.3	446.7	419.6	405.4	384.0	365.2	355.0	326.1	284.1	258.5	255.4	256.1	252.9	251.1	244.2	241.0	234.3	230.7	214.7	194.7	169.4	144.9	123.0	101.2	83.42	67.99	55.29	45.15	43.72	43.55	34.48	25.81	21.28	19.26	17.20	14.58	12.47	10.16	9.032	10.24	20.16	45.69	120.1	617.8	1387	231.1	15.30	5.341	4.611	3.974	3.366	2.727	2.542	2.403	2.468	2.181	2.327	2.146	1.953	2.039	2.317	2.516	2.384	2.353	2.439
505.0	343.2	481.5	643.2	671.2	784.7	1395	3209	1461	750.0	568.1	481.8	454.4	430.3	396.6	378.9	357.9	339.4	323.5	307.6	285.0	248.8	229.2	224.1	224.1	222.1	219.1	213.8	213.6	210.8	203.4	193.8	174.2	151.9	129.6	111.6	92.87	76.81	62.19	51.47	42.71	38.53	39.42	36.68	27.68	21.54	19.08	17.41	14.48	12.75	10.79	8.942	8.122	9.992	15.17	31.68	155.0	789.2	1214	198.1	8.583	4.393	3.554	2.876	2.534	2.288	2.306	2.200	2.002	2.199	2.061	1.911	1.947	2.048	2.169	2.115	2.308	2.317
510.0	288.3	406.4	518.9	608.6	659.8	898.3	2196	2436	776.8	486.3	413.4	392.1	368.4	340.2	319.6	298.7	285.8	272.9	260.5	243.2	209.0	192.0	185.8	186.6	183.8	183.0	179.8	179.1	177.3	173.8	163.3	147.3	129.9	112.3	95.82	81.08	67.64	55.70	46.86	39.79	34.68	32.48	33.09	30.38	23.34	18.97	16.57	14.01	12.54	10.37	9.275	8.197	7.720	8.526	11.78	39.24	195.3	605.3	910.4	416.5	16.26	3.569	2.756	2.295	2.146	2.145	1.938	1.679	1.837	1.757	1.732	1.816	1.767	1.851	1.910	1.889	2.035
515.0	242.5	330.8	399.8	545.7	574.6	678.8	1082	2687	1375	422.1	351.9	329.3	308.4	284.9	269.1	250.7	240.7	224.5	215.1	199.2	172.3	158.6	154.3	153.0	152.0	148.6	146.3	148.8	147.8	143.6	135.8	123.4	108.2	95.57	81.68	69.44	58.66	49.27	42.44	36.28	31.28	27.90	26.90	27.94	26.31	19.36	16.10	13.44	11.86	9.903	8.674	8.163	7.073	6.757	7.085	13.03	47.91	139.2	311.0	898.5	600.9	21.53	2.655	2.273	2.060	1.858	1.663	1.587	1.609	1.566	1.634	1.736	1.524	1.684	1.669	1.754	1.738
520.0	226.8	292.2	328.4	452.6	540.3	572.5	677.5	1890	2278	468.4	311.7	288.2	272.5	250.4	232.4	217.6	204.2	194.2	185.2	169.1	149.9	135.6	131.7	130.7	130.0	129.0	128.4	127.9	126.5	125.0	116.0	105.6	93.83	83.31	73.11	61.02	52.86	44.92	38.88	33.42	29.40	25.99	23.43	24.41	25.76	20.73	15.76	12.88	11.30	9.876	8.531	8.241	7.071	6.457	5.842	6.974	14.74	34.91	74.34	369.7	962.6	235.9	14.71	2.132	1.922	1.631	1.601	1.534	1.442	1.514	1.436	1.681	1.462	1.453	1.512	1.455	1.523
525.0	193.8	243.6	289.6	378.7	493.2	502.6	541.1	992.7	2773	831.3	277.6	255.1	243.0	222.3	207.6	189.5	179.5	170.4	163.6	146.4	131.2	117.5	113.8	113.8	112.9	112.3	112.0	111.1	110.5	109.5	104.3	94.64	83.92	72.56	64.57	55.51	46.93	40.94	34.70	31.25	27.35	24.00	21.89	21.38	22.89	21.95	16.64	13.03	10.85	9.760	8.485	7.703	7.115	6.099	5.507	5.353	7.082	11.47	20.13	89.89	466.7	849.7	199.0	7.271	1.763	1.595	1.522	1.464	1.280	1.492	1.298	1.433	1.324	1.326	1.247	1.299	1.280
530.0	167.7	206.2	242.8	299.0	422.2	443.3	436.9	530.0	1799	2007	368.1	224.5	206.0	184.9	173.8	161.1	148.5	141.6	134.8	123.1	108.5	98.23	96.32	94.37	94.08	92.78	93.42	92.20	92.78	90.90	86.60	79.05	70.88	62.41	55.00	47.67	41.03	35.21	31.12	27.99	24.13	21.80	19.83	18.18	18.02	19.82	17.92	13.68	10.30	8.897	7.800	7.096	6.535	6.202	5.577	4.995	5.212	5.930	7.595	22.80	111.7	370.4	613.5	313.9	15.66	1.722	1.440	1.359	1.255	1.188	1.205	1.191	1.150	1.217	1.147	1.238	1.159
535.0	130.2	175.0	204.9	237.2	331.2	395.5	360.6	361.1	683.1	2419	1058	194.3	169.6	157.0	143.7	131.8	123.7	117.3	111.2	100.7	89.70	80.74	78.18	76.57	77.82	77.15	77.79	76.16	76.90	75.43	71.21	64.85	58.43	53.27	46.01	39.70	35.15	30.09	26.60	24.10	21.22	19.08	17.34	15.74	15.05	14.99	16.50	14.66	10.57	8.655	7.220	6.767	5.618	5.404	5.509	4.875	4.662	4.341	4.389	7.558	27.19	84.80	185.9	570.1	251.7	21.12	1.454	1.357	1.324	1.169	1.063	1.079	1.059	1.086	1.081	1.122	0.994
540.0	129.9	142.4	175.7	205.6	261.2	357.9	332.4	286.7	335.3	1563	1939	224.7	149.0	134.1	122.0	114.5	105.3	100.3	97.29	85.43	76.14	68.70	66.34	67.02	66.03	65.37	64.83	64.71	64.42	63.73	61.41	55.81	50.59	45.73	39.91	34.77	30.35	26.46	23.76	21.33	18.67	17.19	16.10	14.10	13.62	12.89	13.57	14.75	11.34	8.111	6.907	6.355	5.217	5.014	4.929	5.050	4.734	3.846	3.535	4.031	8.348	20.77	43.73	214.4	591.8	230.6	13.68	1.321	1.232	1.124	1.047	0.946	0.985	0.944	0.950	0.888	0.927
545.0	109.6	131.6	148.5	176.8	208.9	298.9	307.9	241.2	230.1	681.2	2531	536.6	129.7	116.6	107.7	101.1	91.77	88.63	82.97	73.55	66.07	60.19	57.06	57.51	58.16	56.09	54.84	55.40	56.84	54.78	52.64	48.40	43.25	39.30	34.82	30.49	27.21	23.68	20.86	19.28	16.80	16.09	14.72	13.27	12.36	11.68	11.31	12.36	11.47	8.351	6.466	5.807	5.335	4.774	4.452	4.813	4.378	3.413	3.064	3.152	3.817	6.432	11.47	51.12	272.2	579.8	182.9	5.553	1.270	0.954	0.961	0.897	0.907	0.839	0.881	0.788	0.927
550.0	94.79	117.1	125.3	141.6	167.7	221.4	279.7	210.0	174.2	269.4	1542	1671	159.8	96.73	86.46	81.07	74.24	69.39	66.82	59.87	53.19	48.80	46.55	46.39	46.63	45.58	45.40	44.86	45.76	44.67	42.80	39.42	35.66	31.85	28.84	25.66	22.75	20.08	18.28	16.37	14.41	13.15	12.39	11.20	10.59	9.883	9.442	9.094	10.06	8.636	6.490	5.117	4.613	4.230	3.910	3.842	3.845	3.490	3.009	2.611	2.687	2.984	4.032	12.81	64.60	236.7	407.7	208.1	14.44	1.164	0.887	0.825	0.828	0.782	0.782	0.706	0.828
555.0	91.26	102.3	106.3	109.7	130.5	156.2	225.9	199.2	135.0	142.4	481.9	2133	666.3	83.29	69.03	65.35	59.58	54.83	52.76	47.53	41.48	38.48	36.86	36.76	36.87	36.67	35.97	35.26	34.94	35.22	33.82	31.72	28.16	25.52	23.17	20.33	18.39	16.58	14.79	13.46	12.18	11.78	10.23	9.558	8.680	8.127	7.756	7.056	7.345	8.089	6.553	5.125	4.047	3.876	3.373	3.332	3.135	3.202	2.925	2.403	2.246	2.057	2.185	4.099	15.48	53.98	120.1	351.7	237.5	18.74	1.073	0.802	0.717	0.701	0.607	0.604	0.692
560.0	81.04	87.84	94.52	93.47	106.8	125.4	171.4	202.3	120.6	106.8	179.3	1359	1405	109.6	57.63	53.32	48.68	45.25	43.83	39.39	34.30	31.97	30.51	30.05	30.37	29.81	29.20	29.87	28.57	29.90	28.33	25.90	23.95	21.32	19.32	17.43	15.34	13.94	12.28	11.42	10.25	10.16	8.860	8.247	7.410	7.096	6.832	6.057	5.682	6.447	6.345	5.136	3.488	3.235	2.981	2.875	2.638	2.673	2.917	2.389	1.970	1.749	1.728	2.214	4.379	13.02	28.14	128.0	370.6	190.8	10.12	0.938	0.741	0.602	0.585	0.648	0.730
565.0	72.75	78.12	84.61	86.68	89.14	103.5	126.8	189.0	120.0	89.11	101.5	532.6	2066	303.9	50.30	45.04	40.89	38.63	35.91	32.60	28.56	26.12	25.16	25.38	24.79	25.11	24.94	25.13	24.81	25.02	23.95	22.16	20.37	18.28	16.02	14.85	13.07	12.11	10.78	9.779	9.249	8.347	7.839	7.044	6.384	6.364	5.439	5.244	4.809	5.098	5.535	5.027	3.703	3.064	2.691	2.652	2.347	2.371	2.257	2.456	1.983	1.738	1.599	1.642	1.988	3.936	7.266	30.24	161.6	347.8	121.8	3.779	0.816	0.612	0.539	0.595	0.624
570.0	69.89	74.22	73.20	75.40	76.31	83.23	93.61	135.7	130.3	75.74	74.21	175.6	1281	1214	77.52	36.92	33.12	31.24	29.10	26.65	22.79	21.05	20.60	20.19	19.46	19.90	19.66	19.65	19.55	20.16	18.85	17.13	15.81	14.43	12.96	11.99	10.68	9.705	9.018	7.787	7.463	7.041	6.230	5.988	5.617	5.228	4.649	4.448	3.940	3.788	3.969	4.450	3.941	2.906	2.329	2.154	2.146	2.081	1.904	2.088	2.011	1.654	1.462	1.362	1.465	1.757	2.494	7.618	38.25	136.3	228.8	126.1	12.27	0.708	0.599	0.518	0.554
575.0	63.19	75.45	66.03	62.31	60.23	70.16	71.95	89.23	135.0	79.61	64.36	82.78	376.2	1639	423.9	30.31	26.82	24.28	22.99	20.54	17.79	16.26	16.46	16.04	15.80	15.77	15.56	15.30	15.05	15.35	14.89	13.33	12.72	11.45	10.66	9.505	8.478	7.868	7.087	6.726	5.998	5.543	5.235	5.023	4.529	4.328	4.092	3.574	3.468	2.843	2.930	3.066	3.699	3.038	2.170	2.044	1.936	1.761	1.589	1.673	1.713	1.888	1.406	1.361	1.188	1.252	1.443	2.659	9.275	31.12	66.44	197.9	167.7	14.48	0.671	0.588	0.514
580.0	68.50	70.31	63.26	57.38	52.74	55.91	61.86	67.26	114.4	91.25	58.02	59.66	122.4	1052	994.0	44.69	22.37	21.13	18.97	17.08	15.29	13.71	13.51	13.63	12.96	13.01	12.61	13.14	13.02	12.46	12.48	11.25	10.78	9.794	8.771	7.582	6.978	6.683	6.093	5.457	4.975	4.600	4.242	4.075	3.846	3.638	3.666	3.320	2.807	2.657	2.576	2.100	3.059	2.971	2.485	1.895	1.770	1.566	1.549	1.515	1.415	1.788	1.588	1.249	0.995	1.149	1.127	1.467	2.857	7.574	15.64	71.60	218.6	118.5	6.417	0.644	0.465
585.0	64.09	70.96	59.46	53.77	50.85	51.62	51.43	55.23	88.28	108.3	56.78	52.40	61.70	396.3	1488	106.9	19.50	18.63	16.02	14.13	12.97	11.84	11.53	11.61	10.43	11.23	10.52	11.70	11.15	10.38	10.60	10.11	9.001	8.066	7.731	6.889	6.079	5.817	5.106	5.011	4.237	4.151	3.667	3.780	3.607	3.180	3.125	2.857	2.602	2.488	2.248	2.061	2.229	2.850	2.583	1.866	1.528	1.475	1.336	1.347	1.127	1.433	1.673	1.373	1.061	1.018	0.934	1.126	1.442	2.387	4.215	17.05	91.75	204.6	34.37	2.550	0.544
590.0	63.03	60.00	57.16	44.50	40.61	46.00	43.24	45.94	60.64	103.4	71.17	48.46	44.71	119.4	923.2	693.2	35.91	15.29	13.17	11.89	10.85	9.862	9.181	9.037	8.960	8.856	8.929	8.969	8.651	8.789	8.405	8.147	7.116	6.639	6.124	5.499	4.908	4.571	4.464	4.187	3.691	3.526	3.327	3.048	2.896	2.636	2.612	2.341	2.103	1.930	1.889	1.663	1.812	1.976	2.412	1.955	1.507	1.348	1.297	1.137	1.083	1.254	1.268	1.408	1.167	0.941	0.934	0.993	0.899	1.188	1.551	4.423	21.59	78.61	129.8	81.08	10.39
595.0	57.57	53.27	53.37	40.88	36.72	38.69	38.89	41.55	43.91	76.92	92.90	50.44	40.45	50.21	266.0	1072	226.8	12.68	10.94	9.468	8.322	7.834	7.575	7.448	7.360	7.223	7.011	7.078	6.776	7.062	6.838	6.381	5.658	5.212	4.733	4.595	3.967	3.819	3.478	3.340	3.100	2.923	2.800	2.565	2.400	2.253	2.107	2.113	1.798	1.718	1.640	1.500	1.313	1.402	1.850	2.008	1.414	1.305	1.099	1.072	1.043	1.063	0.951	0.911	1.219	0.991	0.862	0.818	0.828	0.810	0.985	1.536	5.379	18.08	37.12	114.7	101.0
600.0	61.65	58.44	49.64	41.58	35.56	34.69	36.96	41.49	43.05	59.99	100.3	59.69	40.78	36.55	80.57	733.9	633.1	19.01	9.089	8.351	7.375	6.716	6.453	6.374	5.967	6.448	5.911	6.236	5.830	5.842	5.567	5.336	4.677	4.571	4.150	3.989	3.555	3.159	3.033	2.990	2.572	2.667	2.278	2.076	2.092	2.115	1.987	1.948	1.613	1.519	1.351	1.291	1.146	1.142	1.283	1.634	1.562	1.396	1.071	1.004	0.961	0.870	0.913	0.866	1.162	1.129	0.902	0.954	0.843	0.624	0.792	0.864	1.769	4.384	8.743	40.57	125.1
605.0	56.92	61.45	54.20	42.53	36.51	38.01	38.50	42.15	47.43	55.18	100.2	81.34	47.09	37.77	39.14	288.3	957.8	67.02	8.443	7.422	6.668	5.930	5.910	5.600	5.308	5.145	5.062	5.124	5.136	5.362	4.467	4.583	4.099	3.874	3.681	3.424	2.779	2.964	2.597	2.455	2.310	2.231	2.009	1.922	2.034	1.767	1.625	1.545	1.427	1.411	1.188	1.234	1.011	1.088	1.093	1.351	1.630	1.381	1.087	0.992	0.911	0.940	0.973	0.836	1.046	1.008	1.185	1.001	0.867	0.638	0.701	0.698	0.886	1.432	2.507	9.729	50.91
610.0	64.10	67.16	61.69	48.14	41.78	40.22	43.28	47.99	56.17	64.06	92.63	108.0	65.58	46.85	38.48	92.61	661.4	463.2	15.88	6.134	5.643	4.982	4.732	4.694	4.537	4.351	4.348	4.068	4.287	4.330	4.150	3.822	3.369	3.167	3.062	2.784	2.608	2.284	2.106	2.006	2.017	1.746	1.727	1.579	1.582	1.451	1.366	1.328	1.186	1.157	1.050	1.081	0.973	1.024	0.921	1.049	1.237	1.304	1.178	0.899	0.891	0.895	0.863	0.903	0.898	0.863	1.163	1.131	0.897	0.784	0.729	0.820	0.730	0.831	1.008	2.674	12.22
615.0	65.91	74.75	62.51	49.09	43.10	41.13	47.68	51.92	59.11	69.62	83.75	116.8	83.20	56.76	42.91	45.73	206.1	762.0	73.40	5.868	4.872	4.472	3.862	3.943	3.501	3.484	3.516	3.314	3.433	3.532	3.217	2.886	2.798	2.545	2.492	2.307	2.164	2.097	1.796	1.571	1.583	1.467	1.390	1.265	1.255	1.151	1.195	1.009	0.997	0.923	0.911	0.882	0.812	0.868	0.910	0.847	0.915	1.238	1.175	0.926	0.886	0.798	0.830	0.860	0.833	0.836	0.975	0.988	1.058	0.823	0.675	0.745	0.674	0.656	0.795	1.013	3.119
620.0	60.91	75.73	63.57	50.84	43.21	40.98	47.81	50.94	58.68	66.44	76.64	104.2	96.40	59.60	45.16	35.23	69.47	565.7	376.1	8.330	4.341	3.910	3.554	3.482	3.179	3.326	3.052	3.092	3.133	2.828	2.960	2.805	2.581	2.313	2.134	1.946	1.932	1.830	1.615	1.435	1.398	1.248	1.217	1.097	1.010	1.016	1.062	1.044	0.939	0.835	0.781	0.813	0.793	0.800	0.721	0.766	0.888	1.084	1.086	0.882	0.832	0.808	0.765	0.764	0.820	0.766	0.958	0.915	0.969	0.896	0.752	0.681	0.665	0.759	0.646	0.694	1.091
625.0	70.42	69.61	67.37	49.54	41.60	42.19	45.34	54.01	54.37	65.09	71.47	89.87	105.2	65.15	45.22	33.19	36.96	245.0	651.3	36.06	3.860	3.166	3.320	3.056	2.665	2.817	2.614	2.709	2.545	2.598	2.598	2.305	2.314	1.957	1.861	1.709	1.764	1.557	1.654	1.207	1.262	1.138	1.070	1.051	0.927	1.110	0.821	0.982	0.822	0.720	0.791	0.762	0.718	0.599	0.674	0.725	0.748	0.824	0.890	0.970	0.808	0.724	0.694	0.733	0.743	0.685	0.753	0.757	1.008	0.858	0.828	0.724	0.712	0.650	0.545	0.608	0.600
630.0	67.00	68.39	67.03	50.20	39.53	42.92	46.00	53.85	53.98	63.74	70.05	78.18	98.01	74.54	46.99	33.34	28.80	73.49	500.9	295.0	7.161	3.025	2.813	2.394	2.412	2.297	2.195	2.308	2.206	2.026	2.154	1.856	1.867	1.726	1.604	1.439	1.477	1.285	1.315	1.180	1.104	1.067	0.888	0.914	0.843	0.874	0.798	0.794	0.792	0.713	0.670	0.634	0.655	0.631	0.629	0.670	0.697	0.687	0.752	0.824	0.804	0.763	0.659	0.640	0.740	0.703	0.680	0.687	0.762	0.813	0.860	0.745	0.669	0.615	0.559	0.547	0.502
635.0	67.06	72.01	71.92	51.58	43.63	41.87	45.81	51.97	52.51	59.88	70.10	77.32	82.59	84.77	53.16	35.20	27.90	28.56	158.3	562.2	51.33	2.956	2.386	2.263	2.239	1.953	1.886	1.914	1.736	1.717	1.625	1.699	1.606	1.398	1.315	1.210	1.177	1.011	1.123	1.015	1.000	0.969	0.884	0.717	0.727	0.760	0.714	0.668	0.702	0.650	0.606	0.557	0.617	0.584	0.579	0.506	0.600	0.723	0.562	0.721	0.766	0.723	0.704	0.619	0.674	0.706	0.704	0.683	0.776	0.727	0.871	0.780	0.725	0.577	0.533	0.485	0.407
640.0	70.05	76.07	77.55	58.49	45.80	42.72	46.59	50.41	52.23	60.36	69.09	78.98	77.58	87.16	57.32	36.77	28.12	19.04	44.47	458.9	238.5	4.030	2.066	2.082	2.047	1.625	1.584	1.724	1.499	1.660	1.453	1.555	1.348	1.178	1.201	1.191	1.094	1.023	0.872	0.881	0.885	0.888	0.698	0.657	0.660	0.636	0.663	0.669	0.606	0.624	0.545	0.595	0.558	0.626	0.564	0.504	0.613	0.555	0.536	0.615	0.642	0.664	0.635	0.682	0.724	0.652	0.667	0.580	0.774	0.731	0.796	0.819	0.685	0.615	0.671	0.649	0.491
645.0	76.41	74.50	78.31	58.87	46.50	42.96	42.84	50.34	51.26	58.87	69.28	74.56	75.29	80.66	64.35	36.68	28.21	17.10	16.11	217.3	456.1	17.70	2.282	1.937	1.904	1.595	1.492	1.516	1.516	1.523	1.378	1.265	1.284	1.079	1.102	1.082	0.922	1.005	0.784	0.775	0.757	0.713	0.607	0.718	0.657	0.526	0.655	0.687	0.560	0.568	0.447	0.557	0.556	0.538	0.535	0.563	0.559	0.565	0.560	0.629	0.495	0.683	0.647	0.749	0.649	0.571	0.712	0.701	0.686	0.683	0.766	0.737	0.788	0.754	0.542	0.515	0.429
650.0	67.56	88.72	85.01	61.48	45.34	40.95	43.80	48.87	49.55	54.91	67.11	71.74	74.48	73.58	70.81	38.65	28.93	17.02	10.66	65.81	489.5	64.06	2.453	1.868	1.630	1.608	1.374	1.320	1.316	1.563	1.174	1.041	1.291	1.035	1.113	1.044	0.903	0.949	0.744	0.655	0.713	0.703	0.627	0.683	0.634	0.531	0.626	0.684	0.593	0.539	0.488	0.616	0.556	0.460	0.504	0.499	0.506	0.512	0.625	0.585	0.538	0.655	0.616	0.690	0.623	0.672	0.592	0.663	0.657	0.728	0.670	0.676	0.707	0.684	0.686	0.544	0.490
