Sample:	'1
File name:	c2025052606袁家屋子南闸入杏花河.FD3
Run date:	'10:18:43, 05/27/2025
Operator:	Administrator
Comment:	'

Instrument
Model:	F-2700 FL Spectrophotometer
Serial number:	23B8-004
ROM Version:	4J14000 07

Instrument parameters
Measurement type:	3-D scan
Data mode:	Fluorescence
EX  Start WL:	220.0 nm
EX  End WL:	600.0 nm
EX Sampling interval:	5.0 nm
EM  Start WL:	230.0 nm
EM  End WL:	650.0 nm
EM Sampling interval:	5.0 nm
Scan speed:	12000 nm/min
EX Slit:	5.0 nm
EM Slit:	5.0 nm
PMT Voltage:	700 V
Response:	Auto 
Corrected spectra:	Off
Contour interval:	50.000

Peak integration
Integration method:	Rectangular
Sensitivity:	1
Threshold:	1.000

Peaks
No.	ApexEX/EM(nm)	Height(Data)
1	225.0/585.0	140.7
2	225.0/595.0	141.4
3	225.0/625.0	127.7
4	225.0/640.0	128.5
5	230.0/345.0	5216
6	260.0/570.0	150.5
7	265.0/585.0	135.4
8	270.0/600.0	137.1
9	275.0/415.0	2686
10	275.0/615.0	156.9
11	280.0/335.0	3571
12	280.0/625.0	155.5
13	285.0/640.0	134.6
14	330.0/415.0	1463
15	460.0/345.0	15.19
16	565.0/330.0	16.76
17	570.0/415.0	10.07

Data points
	220.0	225.0	230.0	235.0	240.0	245.0	250.0	255.0	260.0	265.0	270.0	275.0	280.0	285.0	290.0	295.0	300.0	305.0	310.0	315.0	320.0	325.0	330.0	335.0	340.0	345.0	350.0	355.0	360.0	365.0	370.0	375.0	380.0	385.0	390.0	395.0	400.0	405.0	410.0	415.0	420.0	425.0	430.0	435.0	440.0	445.0	450.0	455.0	460.0	465.0	470.0	475.0	480.0	485.0	490.0	495.0	500.0	505.0	510.0	515.0	520.0	525.0	530.0	535.0	540.0	545.0	550.0	555.0	560.0	565.0	570.0	575.0	580.0	585.0	590.0	595.0	600.0
230.0	113.4	3563	9303	3092	109.4	15.04	10.83	9.651	8.238	8.746	8.721	8.783	8.240	7.828	6.715	6.072	5.405	5.456	5.178	5.023	4.578	4.153	3.777	3.663	3.531	3.101	2.908	2.993	2.789	2.621	2.257	2.160	2.177	1.944	1.830	1.693	1.472	1.480	1.404	1.266	1.149	1.399	1.218	1.202	1.044	1.051	4.366	17.89	30.02	21.59	7.740	1.746	0.775	0.699	0.755	0.689	0.765	0.666	0.670	0.568	0.551	0.499	0.471	0.542	0.485	0.487	0.391	0.416	0.388	0.345	0.333	0.336	0.300	0.295	0.287	0.253	0.250
235.0	139.7	961.8	5838	9999.9	3588	211.5	12.97	12.52	9.797	9.520	8.460	9.958	9.235	8.419	7.096	6.366	5.471	5.616	5.228	5.135	4.799	4.078	3.884	3.518	3.608	3.196	3.176	3.251	2.717	2.418	2.396	2.182	1.963	2.015	1.927	1.741	1.619	1.498	1.446	1.312	1.135	1.324	1.237	1.469	1.247	1.159	1.785	5.194	11.91	21.05	31.83	24.95	15.32	3.736	0.806	0.734	0.748	0.741	0.724	0.601	0.609	0.599	0.480	0.582	0.479	0.533	0.416	0.385	0.348	0.377	0.328	0.363	0.298	0.292	0.318	0.301	0.285
240.0	178.5	311.4	1704	8667	9999.9	3010	113.4	15.72	12.04	12.25	10.25	10.20	10.12	9.346	7.874	6.996	5.620	5.751	5.217	4.929	4.817	4.227	4.025	3.723	3.471	3.480	3.111	3.251	2.912	2.678	2.497	2.220	2.064	1.894	1.914	1.939	1.787	1.492	1.559	1.408	1.233	1.284	1.234	1.219	1.521	1.419	1.329	2.034	3.532	6.453	17.01	42.50	56.15	25.53	13.57	2.051	0.814	0.707	0.718	0.724	0.647	0.512	0.571	0.532	0.480	0.544	0.424	0.395	0.399	0.400	0.405	0.334	0.256	0.338	0.291	0.388	0.317
245.0	127.5	247.5	459.2	2928	9999.9	9999.9	2155	54.62	17.20	15.20	13.42	11.68	11.11	9.257	9.387	7.545	6.631	6.251	5.215	5.309	4.829	4.550	4.489	4.125	3.555	3.226	3.392	3.314	3.055	2.611	2.523	2.299	2.163	1.877	2.210	1.896	1.958	1.533	1.644	1.393	1.328	1.221	1.129	1.255	1.323	1.360	1.465	1.615	1.683	2.193	4.677	14.30	38.77	63.24	73.78	23.59	9.876	1.291	0.890	0.861	0.733	0.541	0.586	0.534	0.542	0.518	0.519	0.493	0.425	0.442	0.298	0.292	0.336	0.301	0.272	0.338	0.356
250.0	78.83	165.5	280.9	760.0	3278	9999.9	9999.9	5941	148.9	24.53	18.62	16.87	12.86	11.33	10.56	8.820	7.529	6.999	5.896	5.635	5.125	4.473	4.643	4.252	3.912	3.797	3.831	3.523	3.181	2.956	2.652	2.344	2.333	2.020	1.900	1.906	1.915	1.572	1.542	1.411	1.324	1.269	1.255	1.246	1.200	1.204	1.200	1.509	1.537	1.608	1.850	3.975	9.774	20.13	43.30	60.02	85.69	71.45	17.73	8.959	1.546	0.748	0.652	0.636	0.577	0.563	0.579	0.502	0.461	0.432	0.372	0.333	0.372	0.337	0.323	0.334	0.432
255.0	60.51	77.57	162.9	387.1	837.6	2539	9999.9	9999.9	9556	197.2	31.54	23.68	18.90	15.44	12.02	10.47	8.936	7.671	7.014	6.311	5.723	5.133	4.915	4.712	4.383	4.019	3.924	4.006	3.507	3.088	2.825	2.719	2.270	2.143	1.981	1.917	1.916	1.697	1.699	1.473	1.250	1.405	1.286	1.277	1.203	1.155	1.164	1.170	1.159	1.502	1.696	2.143	3.156	5.353	10.42	14.78	30.34	73.07	125.9	133.8	28.09	11.01	1.144	0.773	0.760	0.698	0.689	0.493	0.553	0.441	0.428	0.433	0.455	0.371	0.378	0.436	0.417
260.0	66.98	53.96	90.54	255.9	407.6	656.8	2973	9999.9	9999.9	2190	140.2	33.53	25.04	18.48	14.75	11.79	9.761	8.703	7.108	7.377	6.049	5.738	4.997	4.630	4.346	4.601	4.298	4.472	3.914	3.315	2.816	3.187	2.489	2.070	2.104	1.951	1.889	1.813	1.686	1.533	1.381	1.619	1.310	1.367	1.346	1.299	1.069	1.238	1.120	1.122	1.317	1.915	2.350	2.414	3.281	4.104	7.716	19.72	53.14	124.0	178.7	143.7	23.46	5.884	1.000	0.734	0.707	0.624	0.586	0.652	0.488	0.404	0.440	0.379	0.406	0.535	0.445
265.0	76.81	63.10	65.31	135.0	339.8	361.5	757.4	3893	9999.9	9999.9	1781	86.39	35.72	24.61	18.55	14.55	11.46	10.18	8.120	7.850	6.818	6.161	5.512	4.934	4.838	4.421	4.497	4.501	3.967	3.544	3.072	3.129	2.519	2.230	2.212	2.100	2.003	1.691	1.717	1.555	1.471	1.528	1.392	1.381	1.351	1.357	1.207	1.157	1.137	1.116	1.057	1.405	1.810	2.272	2.305	2.010	2.693	5.345	13.10	35.63	95.90	185.4	202.7	33.12	17.60	2.273	0.912	0.869	0.790	0.679	0.589	0.458	0.487	0.530	0.507	0.481	0.411
270.0	122.0	93.94	78.67	88.69	190.8	377.9	420.9	985.9	4209	9999.9	9999.9	7066	119.5	40.50	27.10	20.05	14.96	12.59	10.24	8.664	7.929	7.201	6.330	5.726	5.390	4.817	4.507	4.606	4.277	3.710	3.609	3.418	2.907	2.753	2.575	2.202	2.108	1.904	1.932	1.609	1.629	1.705	1.565	1.471	1.439	1.373	1.370	1.257	1.220	1.125	1.123	1.144	1.387	1.726	2.282	2.370	2.676	2.518	4.084	8.919	23.07	52.23	96.65	134.9	190.7	137.9	103.0	12.76	3.308	1.006	0.862	0.645	0.605	0.596	0.556	0.571	0.482
275.0	233.3	219.8	155.6	106.7	134.3	233.8	478.1	511.6	1054	2686	9999.9	9999.9	9999.9	142.5	45.36	30.89	21.37	16.97	13.68	11.37	9.197	8.434	7.255	6.831	6.553	5.516	5.148	5.090	4.769	4.104	3.647	3.587	3.491	2.955	2.822	2.818	2.296	2.514	2.255	2.055	1.986	1.934	2.059	1.840	1.981	1.886	1.703	1.726	1.451	1.320	1.246	1.333	1.392	1.318	1.619	1.769	2.710	3.356	3.300	3.343	6.233	12.83	22.78	31.77	54.98	107.9	263.9	256.7	34.01	19.44	2.511	1.061	0.842	0.743	0.733	0.613	0.637
280.0	425.8	386.1	284.2	168.6	143.9	187.5	337.9	569.0	477.3	766.8	3317	9999.9	9999.9	7466	107.6	45.10	29.83	22.61	17.33	14.05	11.12	10.11	8.254	7.679	7.132	5.723	5.879	5.262	4.906	4.590	3.850	3.996	3.763	3.078	3.290	3.257	2.957	2.725	2.610	2.311	2.288	2.170	2.271	2.304	2.354	2.325	2.104	1.987	1.980	1.665	1.405	1.441	1.570	1.358	1.636	1.663	1.989	2.619	3.703	3.612	3.109	4.264	6.442	8.397	13.82	27.05	86.33	202.1	349.9	254.7	31.88	14.25	1.623	1.051	1.028	0.849	0.826
285.0	620.2	590.8	426.8	262.5	183.3	193.2	247.3	471.7	598.0	417.9	1008	4545	9999.9	9999.9	1025	85.24	41.95	29.26	21.85	16.87	13.16	11.31	9.513	8.316	7.886	6.878	6.702	5.805	5.340	4.943	4.436	4.170	3.857	3.869	3.544	3.772	3.753	3.154	2.876	2.579	2.292	2.452	2.409	2.796	2.719	2.890	2.607	2.404	2.424	2.130	1.810	1.634	1.601	1.599	1.646	1.827	1.938	2.082	2.603	3.678	3.957	3.698	3.259	3.520	4.692	7.866	21.15	51.46	136.2	284.2	410.8	237.7	26.95	8.906	1.394	1.234	1.108
290.0	924.2	920.9	732.9	437.6	267.6	242.4	263.9	350.0	604.7	758.2	728.1	1495	5098	9999.9	9999.9	9999.9	292.6	49.64	31.65	23.73	18.16	14.81	11.41	10.28	9.139	7.975	7.767	7.224	6.175	5.876	4.773	4.480	4.208	4.194	4.229	4.219	4.355	3.874	3.831	3.184	2.861	3.013	3.113	3.182	3.465	3.579	3.480	3.464	3.121	2.671	2.344	2.172	2.138	1.930	1.847	1.961	2.143	2.219	2.397	2.708	3.264	4.174	4.794	4.315	3.986	4.321	7.380	14.28	33.26	72.14	150.0	238.6	319.7	309.4	145.6	18.93	8.825
295.0	1256	1252	1048	653.6	391.6	326.5	347.0	399.4	545.3	903.8	1209	1138	1826	2993	9999.9	9999.9	6042	95.19	52.27	35.03	24.20	19.53	15.47	13.27	11.80	9.605	9.329	8.555	7.188	7.004	5.651	5.154	4.733	4.607	4.926	4.734	5.111	4.854	4.574	3.618	3.736	3.550	3.637	3.435	4.083	4.396	4.243	4.429	4.132	3.621	2.927	2.851	2.607	2.275	2.308	2.210	2.509	2.849	2.643	2.731	3.035	3.793	4.157	5.670	6.393	5.816	5.948	7.081	11.42	19.84	36.96	56.40	79.03	129.5	295.4	509.4	270.1
300.0	1413	1516	1312	832.8	501.3	418.2	445.8	527.1	661.0	971.5	1540	1560	1411	1430	3393	9999.9	9999.9	4983	84.91	50.33	34.20	25.97	19.00	17.11	13.59	11.11	10.48	9.646	8.400	6.807	6.349	5.611	5.335	5.202	5.063	4.969	5.456	5.297	5.097	4.356	4.193	4.141	4.293	4.113	4.666	4.915	4.922	5.434	4.928	4.018	3.574	3.287	3.336	2.754	2.630	2.597	3.154	3.269	3.337	3.554	3.782	4.200	4.900	5.491	6.935	8.363	8.059	7.539	8.013	9.386	13.27	16.64	21.65	32.88	81.64	236.7	465.3
305.0	1628	1790	1589	1026	634.2	542.9	552.9	689.0	895.4	1207	1709	2202	1688	1407	1525	4539	9999.9	9999.9	3677	75.58	46.86	33.13	24.52	18.78	15.99	13.28	11.79	10.64	9.214	7.852	7.119	6.259	5.599	5.768	5.680	5.847	6.021	5.758	5.324	4.908	4.601	4.569	4.480	4.740	5.091	5.449	5.547	6.008	5.688	4.883	4.041	3.893	3.651	3.284	3.397	3.065	3.571	3.793	4.021	4.640	4.968	5.515	5.875	6.722	7.588	8.750	10.02	10.79	9.851	9.134	9.020	9.500	10.18	11.87	21.73	58.00	142.5
310.0	1868	2076	1929	1294	770.7	657.4	722.3	896.4	1125	1508	1981	2464	2505	1934	1425	1649	4893	9999.9	9999.9	9999.9	229.5	52.61	34.75	26.08	19.61	16.46	14.12	12.86	10.74	9.406	8.022	7.016	6.616	5.953	6.173	6.153	6.377	6.040	5.729	5.392	5.212	5.133	5.139	5.361	5.831	6.083	6.373	6.765	6.527	5.444	4.780	4.715	4.195	3.786	3.767	3.694	4.268	4.475	4.934	5.254	6.133	6.545	7.173	8.120	8.747	9.190	10.40	11.65	12.53	12.79	11.03	9.701	9.224	9.049	9.810	17.04	35.39
315.0	2215	2462	2270	1526	936.5	777.6	877.6	1077	1347	1760	2308	2735	2820	2629	1796	1177	1595	2776	9999.9	9999.9	9999.9	266.9	53.86	36.08	26.67	20.81	17.16	15.57	12.83	10.90	9.402	7.742	7.288	6.215	6.430	6.603	6.540	6.455	6.143	5.832	5.768	5.553	5.719	6.060	6.626	6.963	7.299	8.316	7.608	6.424	5.444	5.330	4.705	4.378	4.281	4.047	5.079	5.258	5.565	6.301	7.168	7.615	8.258	9.086	10.46	10.38	11.47	12.53	12.90	13.68	13.67	13.30	11.63	9.982	8.078	8.823	12.42
320.0	2537	2837	2638	1809	1093	896.1	977.4	1201	1490	1987	2543	2992	3018	2874	2264	1260	957.3	988.1	3091	9999.9	9999.9	3870	152.7	49.97	35.21	26.00	20.58	18.33	13.91	12.39	10.45	8.866	7.555	7.021	6.828	6.782	6.961	6.554	6.404	5.912	5.724	6.199	5.921	6.581	7.537	7.725	8.569	9.632	8.519	7.532	6.096	5.866	5.434	4.734	4.931	4.718	5.560	5.884	6.196	7.192	7.504	8.361	9.042	10.08	11.23	11.49	12.41	13.63	14.33	14.75	13.76	13.85	13.70	12.33	9.022	7.805	7.925
325.0	2921	3495	3359	2310	1340	1005	1068	1300	1615	2135	2746	3223	3262	3013	2575	1529	911.8	639.8	937.3	4485	9999.9	9999.9	2949	67.71	47.16	32.38	25.97	20.96	15.64	14.22	11.46	9.027	8.208	7.569	7.310	7.117	6.901	7.032	6.823	6.029	6.052	6.687	6.905	7.308	8.259	8.981	9.658	11.13	10.57	8.824	7.405	7.436	6.325	5.508	5.533	5.141	5.741	6.577	6.334	7.626	8.011	8.834	9.997	10.55	12.02	12.31	13.75	14.22	15.29	15.65	15.06	14.31	14.29	14.02	11.37	8.945	7.399
330.0	3448	4259	4331	3170	1818	1240	1214	1418	1747	2277	2918	3421	3478	3201	2653	1832	1146	660.9	523.1	1253	5181	9999.9	9999.9	9999.9	188.9	48.35	35.80	27.50	20.13	16.32	13.77	10.98	9.301	8.375	7.809	7.558	7.247	7.326	7.383	6.784	6.686	7.091	7.475	8.052	9.281	10.26	11.28	12.95	13.01	11.42	9.910	9.596	8.195	6.808	6.288	5.831	6.279	6.814	7.251	7.680	8.695	9.334	10.51	11.27	12.86	13.06	14.55	14.85	16.00	16.76	16.16	15.23	14.72	14.25	12.61	10.95	9.542
335.0	3882	4778	4933	3763	2325	1520	1343	1518	1830	2372	3017	3489	3571	3329	2738	1881	1405	864.0	534.1	591.7	1401	2720	9999.9	9999.9	9999.9	225.0	51.19	38.92	25.98	20.40	16.18	13.16	10.67	9.665	8.725	8.000	7.767	7.960	7.538	7.105	7.174	7.663	8.264	8.690	10.17	11.16	12.36	14.27	14.65	12.94	11.62	11.48	10.26	8.590	7.444	6.375	7.102	7.221	7.707	7.990	8.976	9.645	10.74	11.92	12.93	13.14	14.54	15.30	16.07	16.54	16.49	15.97	15.40	14.75	12.39	10.98	10.06
340.0	3859	5014	5196	4096	2551	1650	1428	1568	1856	2363	2965	3452	3541	3320	2749	1891	1408	1063	629.1	488.1	595.0	840.3	3389	9999.9	9999.9	3272	135.9	50.70	32.54	24.14	18.66	14.50	12.32	10.54	8.947	8.944	8.282	7.908	8.035	7.289	7.191	7.855	8.191	9.078	10.55	11.35	12.64	14.49	14.72	13.58	12.23	12.55	11.01	8.822	7.914	6.839	6.937	7.349	8.064	8.513	9.185	9.900	10.98	11.92	13.51	13.68	14.37	14.82	16.45	16.62	16.58	16.17	14.96	14.56	12.30	11.03	9.872
345.0	3729	4893	5216	4199	2660	1727	1461	1571	1849	2326	2849	3333	3419	3226	2692	1904	1364	1095	789.5	515.8	446.4	448.7	974.5	5167	9999.9	9999.9	2615	62.02	40.84	29.68	21.11	15.96	13.05	11.24	9.215	9.491	8.350	8.199	7.581	7.591	7.369	7.617	7.875	8.913	10.04	11.25	12.77	14.43	15.19	14.02	12.68	12.40	11.58	9.145	8.370	7.048	7.168	7.340	7.441	8.450	8.882	9.661	10.10	11.20	12.96	13.07	14.43	14.00	15.58	16.05	15.74	15.74	15.06	14.39	12.23	10.73	9.978
350.0	3478	4474	4831	4022	2673	1804	1485	1572	1802	2206	2679	3085	3163	3012	2553	1866	1364	1050	899.1	693.6	500.9	427.4	479.9	1369	6115	9999.9	9999.9	9999.9	166.3	42.38	28.17	20.30	15.16	12.43	10.59	9.820	9.060	8.430	7.827	7.694	7.391	7.693	8.047	8.597	9.672	10.83	11.71	13.50	14.14	13.26	11.89	12.46	11.21	9.330	8.351	7.098	7.337	7.455	7.590	8.299	8.913	9.500	9.951	10.77	12.03	12.27	12.97	13.61	14.10	15.03	14.67	14.37	14.16	13.78	12.00	10.88	9.643
355.0	3213	4058	4405	3746	2621	1814	1515	1579	1753	2095	2465	2823	2879	2753	2385	1799	1384	1079	903.0	836.3	635.1	495.0	427.4	550.0	1547	2758	9999.9	9999.9	9999.9	189.7	40.25	27.69	19.86	14.91	12.53	10.86	9.732	8.781	8.121	7.442	7.455	7.154	7.710	8.102	9.232	10.16	10.77	12.27	13.03	12.02	11.20	12.00	10.63	9.283	8.461	7.524	7.407	7.535	7.514	8.305	8.613	9.315	9.643	10.22	11.49	11.68	12.16	12.19	12.72	13.47	13.37	13.34	13.31	12.55	11.29	10.80	9.904
360.0	2886	3781	4046	3449	2488	1811	1552	1570	1713	2014	2312	2602	2668	2562	2236	1755	1380	1111	931.0	850.9	789.7	587.7	460.0	408.2	565.0	797.6	3773	9999.9	9999.9	3025	56.19	37.16	24.88	18.13	14.28	12.24	10.92	9.563	8.528	7.567	7.359	7.892	7.499	7.958	8.947	9.706	9.996	11.62	12.35	11.56	10.65	11.22	10.21	8.776	8.547	7.192	7.340	7.607	7.717	8.086	8.737	8.993	9.140	9.798	10.63	10.56	11.22	11.54	12.22	12.42	12.79	12.50	12.16	11.76	10.48	10.14	9.585
365.0	2700	3481	3705	3225	2418	1808	1552	1557	1692	1936	2182	2440	2486	2386	2124	1700	1378	1144	981.1	869.2	833.1	730.8	538.7	428.0	390.4	387.3	1021	6300	9999.9	9999.9	399.0	50.94	31.82	22.29	16.58	13.69	12.04	10.15	9.357	8.364	7.576	7.569	7.635	7.608	8.743	8.963	9.557	11.06	11.29	10.58	10.10	10.78	9.901	8.647	8.013	6.971	7.516	7.732	7.847	8.171	8.377	8.707	8.845	9.738	10.04	10.01	11.05	11.10	11.52	11.72	11.89	11.58	11.80	11.63	9.855	9.491	9.541
370.0	2433	3094	3277	2953	2309	1796	1572	1565	1661	1845	2054	2242	2278	2192	1979	1641	1382	1192	1053	947.1	869.0	831.8	713.0	533.5	428.3	361.2	439.4	1597	6764	9999.9	9999.9	9816	140.5	33.51	22.75	17.57	13.99	11.91	10.34	9.023	8.037	7.966	7.849	7.555	8.025	8.647	8.772	10.11	10.28	9.520	9.123	10.20	9.612	8.453	8.141	7.321	7.662	7.553	7.857	8.157	8.269	8.343	8.782	9.216	9.344	9.545	10.22	10.27	10.77	10.97	11.23	10.83	10.93	10.83	9.655	9.682	9.359
375.0	2261	2738	2970	2678	2161	1766	1569	1565	1631	1761	1928	2065	2091	2022	1845	1573	1370	1226	1117	1023	930.6	865.2	829.4	691.4	517.4	422.2	364.5	561.7	1667	2895	9999.9	9999.9	9999.9	159.6	33.17	23.73	17.48	13.95	11.46	9.536	8.378	8.430	8.584	7.547	8.056	8.549	8.207	9.393	9.438	9.176	8.613	9.516	9.198	8.456	8.260	7.262	7.669	7.412	7.773	7.724	8.294	7.852	8.257	8.974	9.448	9.032	9.422	9.505	9.811	10.38	10.20	10.33	10.14	10.39	9.175	9.215	8.785
380.0	2092	2605	2744	2483	2087	1746	1564	1553	1605	1712	1843	1947	1984	1911	1757	1530	1359	1235	1151	1068	971.7	901.0	855.3	795.6	623.9	485.1	393.3	368.8	557.7	797.9	3872	9999.9	9999.9	2518	45.59	31.10	21.97	16.54	12.91	10.84	9.329	8.638	8.765	8.283	8.094	7.925	8.165	9.209	9.166	8.666	8.141	8.917	9.143	8.177	8.280	7.373	7.702	7.382	7.559	7.527	7.942	8.000	8.451	8.376	9.010	8.772	9.083	9.051	9.649	9.494	9.401	9.692	9.342	9.995	9.083	9.074	9.089
385.0	1985	2353	2490	2377	2025	1732	1569	1547	1593	1685	1803	1873	1900	1829	1696	1497	1350	1250	1161	1092	1018	949.5	877.9	831.0	729.5	561.0	447.3	366.7	344.6	347.9	1012	5850	9999.9	9999.9	324.0	41.61	27.66	20.41	15.53	12.10	10.26	9.249	8.802	8.153	8.347	8.104	7.922	8.947	8.675	8.227	7.781	8.643	8.466	8.500	7.951	7.198	7.776	7.394	7.338	7.769	8.030	8.112	7.957	8.454	8.362	8.561	8.385	8.528	9.376	9.151	9.129	9.041	9.235	9.406	9.116	8.684	8.761
390.0	1878	2194	2351	2216	1961	1729	1604	1569	1608	1698	1795	1852	1862	1799	1677	1492	1348	1255	1193	1131	1082	1018	949.8	879.0	824.8	717.6	560.2	445.2	369.2	306.9	396.4	1455	6072	9999.9	9999.9	8045	122.5	29.18	20.43	14.93	11.97	10.54	9.533	8.804	8.612	8.343	7.851	8.615	8.481	7.958	7.438	8.654	8.424	8.099	7.843	7.123	7.820	7.593	7.534	7.627	7.720	8.091	7.808	8.155	8.567	8.412	8.422	8.466	8.864	8.774	8.963	8.927	9.383	9.103	9.278	8.537	8.686
395.0	1820	2082	2199	2117	1933	1758	1647	1650	1693	1791	1890	1962	1958	1883	1742	1538	1383	1294	1246	1201	1164	1122	1063	996.8	915.7	862.1	745.0	581.4	470.8	380.9	325.3	499.2	1480	2765	9999.9	9999.9	9999.9	146.7	30.06	19.96	14.94	12.73	11.09	9.314	9.269	8.652	7.888	8.832	8.383	7.858	7.466	8.512	8.390	7.912	7.940	7.592	7.995	7.720	8.007	7.952	7.853	7.869	8.305	8.177	8.556	8.383	8.806	9.054	8.910	8.761	8.920	8.625	9.268	8.970	8.864	8.772	8.698
400.0	1860	1986	2110	2091	1928	1764	1707	1726	1801	1916	2058	2117	2121	2027	1859	1621	1439	1342	1301	1272	1252	1221	1182	1119	1037	958.9	887.3	724.1	582.7	463.9	368.5	331.3	490.5	743.5	3516	9999.9	9999.9	2217	41.09	24.98	17.57	15.00	12.08	10.42	9.697	9.036	8.397	8.537	8.229	7.679	7.523	8.693	8.499	7.970	7.638	7.694	8.245	8.180	8.146	7.862	7.897	8.141	8.471	8.618	9.059	9.114	8.902	9.218	8.981	9.029	9.105	9.005	9.211	9.244	8.600	8.801	8.976
405.0	1826	1963	2061	2068	1927	1805	1765	1808	1904	2079	2262	2339	2330	2224	2016	1718	1508	1395	1360	1338	1338	1323	1293	1247	1168	1069	985.1	872.3	701.5	558.5	440.2	342.2	303.6	310.6	905.5	4976	9999.9	9999.9	1751	35.26	21.38	17.09	13.79	11.40	10.24	9.286	8.344	8.269	8.598	7.916	7.391	8.309	8.483	8.216	8.069	7.640	8.429	8.274	8.229	8.491	8.529	8.203	8.438	8.755	9.136	9.179	9.140	8.969	8.888	9.574	9.859	9.275	9.166	9.342	8.914	8.760	9.045
410.0	1738	1905	2002	2025	1925	1861	1847	1905	2032	2250	2456	2590	2546	2413	2156	1820	1566	1444	1401	1404	1419	1426	1413	1369	1298	1196	1082	979.6	856.5	682.9	533.9	407.2	310.4	248.7	335.2	1224	5017	9999.9	9999.9	7551	113.4	22.58	17.05	13.51	11.53	9.934	8.754	9.030	8.471	7.802	7.428	8.487	8.409	8.051	8.124	7.686	8.447	8.399	8.440	8.625	8.622	8.653	8.589	9.166	9.269	9.215	9.373	9.246	9.404	9.487	9.785	9.565	9.210	9.393	9.275	8.909	8.785
415.0	1679	1829	1926	1976	1914	1866	1911	1973	2101	2326	2548	2686	2644	2493	2217	1841	1578	1442	1404	1402	1436	1455	1463	1434	1367	1266	1146	1022	930.8	793.7	607.9	467.0	346.2	261.2	227.0	384.1	1199	2604	9999.9	9999.9	9999.9	38.63	22.37	16.94	13.89	11.46	9.505	9.354	8.701	7.891	7.465	8.386	8.558	8.106	8.220	8.169	8.675	8.825	8.881	8.369	8.648	8.901	8.914	9.117	8.989	9.134	9.482	9.238	9.342	9.565	10.07	9.517	9.464	9.355	8.859	8.727	8.378
420.0	1619	1752	1861	1893	1891	1857	1876	1964	2095	2329	2540	2686	2622	2485	2201	1831	1544	1406	1368	1389	1419	1448	1454	1432	1376	1282	1172	1044	938.3	840.3	666.2	498.9	371.8	280.4	214.7	204.9	351.0	648.0	3053	9999.9	9999.9	2078	35.74	20.66	15.90	13.24	10.66	9.506	8.719	7.949	7.519	8.582	8.756	8.148	8.365	7.841	8.873	8.699	9.034	8.904	8.842	8.492	9.004	8.774	8.695	8.974	8.970	9.121	9.208	9.270	9.412	9.484	9.228	9.233	8.857	8.629	8.612
425.0	1617	1708	1832	1880	1873	1858	1858	1969	2107	2320	2532	2656	2603	2449	2172	1794	1511	1380	1341	1355	1388	1421	1435	1420	1370	1283	1173	1051	938.6	838.1	709.3	537.2	395.0	299.8	222.0	173.2	168.9	211.8	741.7	3901	9999.9	9999.9	1710	31.76	19.50	14.65	11.95	10.18	9.068	8.201	7.413	8.558	8.650	8.519	8.434	8.058	8.833	8.479	8.878	8.770	8.402	8.779	8.849	9.303	9.181	9.254	8.688	8.989	9.229	9.029	9.116	9.235	9.243	9.317	8.374	8.461	8.235
430.0	1957	1638	1758	1805	1826	1854	1891	1994	2107	2323	2522	2634	2589	2423	2135	1766	1484	1342	1311	1320	1353	1389	1408	1402	1353	1274	1169	1059	948.3	837.8	720.5	587.7	435.9	325.3	243.9	181.9	140.4	120.6	221.2	923.2	3819	9999.9	9999.9	7389	115.5	20.77	14.77	12.28	9.937	8.715	7.527	8.687	8.748	8.511	8.674	8.328	8.924	8.727	8.973	8.934	8.741	8.842	9.022	9.134	9.331	9.122	8.844	9.014	8.964	8.905	9.077	9.081	9.046	8.823	8.398	8.166	7.889
435.0	3077	1667	1706	1742	1810	1843	1909	2023	2139	2304	2515	2609	2548	2374	2095	1716	1437	1300	1274	1277	1307	1340	1373	1362	1322	1252	1155	1057	949.9	839.5	716.5	606.4	483.7	360.5	267.1	200.2	148.1	111.1	112.0	254.7	892.1	2414	9999.9	9999.9	9999.9	36.03	20.37	15.72	12.17	9.944	8.455	9.224	9.174	9.059	9.092	8.548	9.308	9.236	9.011	9.097	9.205	8.751	8.941	8.938	8.993	8.961	9.181	8.300	8.624	8.898	8.902	8.423	8.825	8.296	8.105	7.773	8.151
440.0	4536	2072	1652	1718	1785	1832	1918	2034	2111	2267	2449	2510	2469	2290	2028	1662	1390	1260	1216	1234	1258	1288	1319	1307	1286	1210	1125	1029	938.1	830.0	714.9	596.2	497.6	388.4	282.8	215.6	156.5	116.0	93.60	108.1	242.7	579.9	2691	9999.9	9999.9	2012	31.55	19.88	14.19	11.14	9.286	9.796	9.772	9.144	9.432	8.703	9.585	9.513	9.187	9.430	9.323	8.981	8.800	8.924	8.920	9.073	8.640	8.604	8.492	8.266	8.535	8.583	8.414	8.262	8.072	7.737	7.661
445.0	4843	3348	1602	1636	1725	1796	1916	1982	2069	2172	2344	2395	2343	2179	1924	1585	1328	1203	1166	1174	1194	1223	1240	1248	1220	1155	1081	994.4	910.8	812.2	703.8	582.2	485.6	404.3	301.8	223.5	165.4	124.3	95.71	81.33	100.2	169.1	643.0	3279	9999.9	9999.9	1632	30.07	17.44	12.76	10.06	10.08	10.06	9.596	9.301	8.945	9.409	9.584	9.387	9.457	9.176	8.897	8.270	8.598	8.957	8.541	8.323	7.903	8.134	8.367	8.085	8.206	8.127	7.753	7.484	7.596	7.680
450.0	3135	5507	2297	1537	1625	1743	1836	1905	1952	2026	2159	2197	2129	1985	1750	1451	1217	1110	1078	1076	1086	1110	1128	1140	1110	1058	996.4	921.9	850.8	768.2	671.5	562.1	464.5	390.6	320.0	238.4	175.8	131.4	102.5	80.69	72.97	79.23	180.7	770.9	3320	9999.9	9999.9	7795	111.0	18.22	12.92	12.27	10.68	9.976	9.807	9.068	9.869	9.509	9.775	9.336	9.117	8.726	8.675	8.372	8.159	8.012	8.159	7.773	7.952	7.949	7.768	7.589	7.686	7.185	7.237	6.932	7.167
455.0	1643	5343	4957	1575	1535	1648	1743	1809	1811	1853	1932	1999	1908	1778	1562	1300	1101	1003	970.0	973.1	972.0	984.1	1003	1008	988.6	945.8	896.0	839.4	780.7	709.2	625.3	530.9	440.4	366.0	308.4	256.8	186.2	140.9	108.8	83.97	70.26	62.94	77.83	204.7	771.1	2335	8750	9999.9	9999.9	143.9	18.32	14.58	12.40	10.71	10.12	9.444	9.677	9.405	9.641	8.991	9.143	8.167	8.184	8.097	7.841	8.033	7.439	7.396	7.156	7.089	7.360	7.039	7.007	6.668	6.845	7.008	6.456
460.0	1186	3454	7278	2261	1432	1537	1640	1707	1695	1714	1778	1821	1743	1622	1433	1198	1011	920.3	895.5	881.3	886.8	893.7	913.7	917.0	901.4	866.0	816.9	776.6	721.8	661.8	586.1	503.2	421.1	350.6	293.2	252.8	196.3	144.1	113.2	88.62	71.38	60.77	56.43	79.06	202.3	551.3	2156	9999.9	9999.9	8719	107.1	18.69	14.11	11.99	10.91	9.746	10.32	10.08	9.459	8.839	8.540	8.254	7.901	7.689	7.414	7.545	7.039	7.006	7.092	6.667	6.845	6.774	6.463	6.479	6.149	6.123	6.426
465.0	1020	1904	7471	4354	1394	1449	1554	1598	1578	1592	1633	1656	1602	1488	1306	1091	928.6	845.9	820.0	807.2	809.8	814.8	825.8	834.4	819.7	788.5	750.5	710.8	669.2	611.7	550.0	471.6	401.9	336.0	276.9	237.3	201.2	151.2	114.0	90.55	73.24	61.62	53.89	52.08	76.29	151.4	510.6	2698	9999.9	9999.9	1429	28.82	17.49	13.45	12.33	10.93	10.66	10.53	9.474	8.870	8.365	8.380	7.625	7.349	7.282	7.050	6.690	6.472	6.628	6.916	6.075	6.380	6.061	5.913	5.919	5.632	5.772
470.0	945.4	1177	4302	7745	2420	1306	1413	1444	1424	1415	1445	1457	1406	1294	1140	954.6	819.1	747.6	719.7	706.3	699.6	702.2	714.6	723.5	711.2	684.8	655.6	618.7	588.9	544.4	493.8	428.6	365.0	308.7	257.7	216.2	185.8	154.9	120.0	92.77	76.31	63.00	52.93	47.52	47.71	61.12	139.1	629.1	2785	8958	9999.9	7383	122.0	19.29	14.21	11.94	11.24	10.65	9.438	8.736	8.472	7.819	7.300	6.879	6.764	6.550	6.239	5.961	5.902	6.162	5.795	5.655	5.457	5.680	5.212	5.146	5.143
475.0	854.6	959.7	1752	7118	5623	1318	1228	1259	1251	1240	1247	1265	1209	1105	970.7	824.1	707.7	644.8	624.4	606.8	600.8	597.6	607.4	612.9	606.5	584.4	564.5	532.5	506.5	476.4	434.9	380.8	327.5	278.9	235.4	197.2	165.7	145.2	125.3	96.03	75.80	63.35	54.15	45.01	39.97	40.16	53.98	162.3	640.9	2038	5088	9999.9	9999.9	187.9	18.44	13.31	11.39	10.46	9.007	8.382	7.795	6.863	6.649	6.612	5.869	5.750	5.546	5.661	5.450	5.446	5.039	5.108	5.020	4.953	4.928	4.730	4.599
480.0	790.4	824.3	1034	4179	8709	2237	1136	1159	1134	1109	1124	1127	1077	987.6	870.1	734.0	637.0	580.2	557.0	546.9	534.3	532.1	539.8	542.2	536.9	521.7	503.2	477.7	452.8	432.7	396.9	350.9	302.9	259.4	222.3	187.8	156.1	133.8	119.9	100.3	77.61	64.17	53.72	45.59	38.53	35.72	35.44	57.75	162.8	473.8	1204	6558	9999.9	9999.9	32.03	16.52	12.87	11.23	9.375	8.699	7.856	6.825	6.572	6.258	5.744	5.673	5.439	5.196	5.041	4.859	5.105	4.636	4.574	4.762	4.710	4.335	4.320
485.0	730.8	801.7	819.4	1910	8564	4467	1105	1056	1039	1018	1033	1023	977.8	891.6	785.0	667.0	577.7	529.1	506.9	491.6	484.1	476.9	485.7	488.6	483.5	472.3	455.6	437.0	417.1	394.6	367.2	328.8	283.5	243.6	209.2	176.9	149.8	125.5	111.6	101.9	81.49	64.02	54.14	45.80	39.72	34.87	31.77	34.42	55.38	123.4	287.4	1613	9999.9	9999.9	1799	29.19	15.72	13.16	10.29	9.370	7.866	7.025	6.343	6.146	5.765	5.478	5.074	4.955	4.903	4.657	4.473	4.539	4.427	4.195	4.534	4.370	4.119
490.0	624.7	725.8	736.2	996.4	4573	8527	2297	954.1	934.5	910.4	908.9	896.3	858.9	778.9	686.4	588.9	511.3	471.1	449.5	435.4	425.6	418.9	425.6	427.5	421.8	412.5	399.0	386.1	371.8	353.7	327.0	296.5	257.5	223.5	192.7	164.8	140.1	118.8	103.6	94.31	84.29	67.95	54.03	46.31	40.94	35.72	31.65	29.60	31.65	44.71	80.08	377.1	2453	7430	9999.9	7868	722.5	19.74	12.62	10.32	8.648	7.504	6.666	6.239	5.815	5.203	5.081	4.959	4.693	4.519	4.349	4.278	4.338	4.065	3.995	3.868	3.748
495.0	531.6	648.4	725.0	721.4	1643	7552	6554	1016	814.2	795.1	797.2	788.1	742.6	672.2	590.6	511.6	444.1	404.4	386.0	375.9	371.0	359.3	366.0	367.5	364.4	355.6	344.1	332.7	322.3	309.9	290.5	261.5	228.1	199.3	175.5	150.7	130.0	112.4	96.30	86.21	79.65	71.10	56.96	46.84	41.20	35.89	32.44	28.78	26.05	26.94	33.19	98.83	561.1	1678	4348	9999.9	9999.9	229.0	20.09	11.75	9.725	8.344	7.347	6.046	5.738	5.114	4.980	4.656	4.754	4.285	4.094	3.822	3.913	3.598	3.741	3.310	3.397
500.0	478.4	557.0	650.2	635.3	851.5	4234	9922	1976	740.7	707.2	715.0	702.7	660.9	592.6	528.2	456.3	399.8	363.0	346.9	336.3	327.1	317.8	323.2	325.5	319.6	318.3	306.0	295.8	288.4	277.4	260.4	235.8	207.2	184.4	161.4	140.1	122.3	105.9	90.92	79.49	73.41	68.97	60.15	48.75	40.98	36.53	32.09	28.46	25.29	23.13	21.73	36.68	138.9	388.3	1015	5567	9999.9	9999.9	188.0	16.24	10.30	8.448	7.301	6.205	5.926	5.068	4.935	4.409	4.416	4.127	3.929	3.542	3.507	3.313	3.414	3.144	3.213
505.0	441.0	497.4	563.3	576.8	624.1	1798	9755	3460	704.8	650.5	642.9	627.7	594.3	537.8	475.2	403.9	354.6	324.8	312.8	301.0	288.8	282.8	288.0	287.7	286.5	282.7	272.7	264.7	257.1	249.6	232.5	214.1	188.5	169.6	149.7	129.7	112.8	99.45	86.64	75.51	66.70	63.38	60.92	49.96	39.89	36.31	32.30	28.79	24.42	21.86	19.67	21.87	44.12	99.73	242.6	1335	8375	9999.9	8906	32.62	13.56	9.618	7.464	6.289	5.951	4.958	4.685	4.092	4.022	3.972	3.968	3.395	3.247	3.280	3.077	3.023	2.837
510.0	392.0	423.8	464.3	513.1	522.9	813.6	5053	9215	1679	570.6	554.9	546.5	509.2	460.3	405.7	347.2	306.1	281.2	267.1	256.9	247.3	243.3	245.2	245.7	245.3	239.7	231.8	228.1	223.6	216.9	204.4	185.0	166.6	148.7	131.6	115.5	101.9	89.95	79.31	70.08	61.45	55.87	54.89	50.73	42.11	35.54	31.19	28.13	23.83	21.53	19.12	18.41	22.11	34.33	66.63	311.4	2009	7078	9999.9	8556	734.5	16.37	9.108	7.155	6.083	5.180	4.721	4.115	3.830	3.721	3.651	3.126	3.073	3.010	2.755	2.746	2.745
515.0	330.4	348.7	392.3	461.5	453.4	524.7	1597	8549	6119	620.0	480.9	463.0	429.9	388.7	341.0	293.0	263.7	239.9	227.0	213.9	211.1	206.3	206.9	207.3	205.3	202.4	196.2	191.2	188.2	184.0	172.9	159.9	143.0	127.4	113.5	101.5	90.47	78.83	71.34	63.19	56.31	50.31	46.63	46.49	43.56	36.45	30.34	27.39	23.65	20.86	18.71	17.15	16.72	19.06	25.96	80.28	459.1	1595	3678	9999.9	9999.9	232.9	15.22	8.707	6.736	5.826	4.887	4.083	3.768	3.491	3.507	3.050	2.651	2.889	2.541	2.424	2.613
520.0	299.1	313.6	360.7	390.0	444.4	431.6	686.1	4626	9999.9	1515	427.7	412.8	377.5	345.8	301.9	260.2	230.2	211.7	199.4	190.0	185.0	181.1	179.8	183.8	179.0	177.2	170.2	168.6	165.4	163.7	155.3	141.7	126.4	115.0	101.0	92.39	81.28	71.86	63.99	58.11	51.53	47.25	43.27	41.11	42.26	37.00	29.69	26.10	22.83	20.28	17.78	16.22	14.91	14.76	16.46	28.06	112.5	367.2	851.4	4798	9999.9	9999.9	34.97	11.75	7.886	5.839	5.030	4.423	3.968	3.509	3.211	2.955	2.636	2.675	2.458	2.383	2.359
525.0	260.9	282.9	300.5	336.6	408.8	389.8	443.0	1755	9999.9	4650	418.3	369.9	338.8	307.1	268.1	226.2	202.8	189.6	177.8	170.6	161.8	160.5	159.1	159.5	158.7	154.4	152.8	151.7	148.6	146.3	137.8	126.3	114.6	104.5	91.68	82.87	74.30	66.18	59.76	53.67	47.62	45.11	39.45	37.49	37.57	36.92	29.99	25.14	21.54	19.59	17.31	15.99	14.49	13.15	13.10	15.85	34.57	92.31	201.8	1136	6651	9999.9	6927	30.42	9.634	6.502	5.213	4.640	4.054	3.595	3.078	2.876	2.641	2.478	2.239	2.251	2.216
530.0	237.6	247.6	265.1	273.6	347.7	360.8	350.1	658.0	5329	9999.9	1307	324.0	295.5	266.2	229.7	199.3	174.2	161.1	150.8	144.5	139.5	136.1	134.5	135.5	135.8	132.1	129.9	126.8	126.5	124.4	118.3	109.8	99.69	89.58	81.21	72.93	66.16	59.26	53.98	48.46	43.70	40.37	35.62	33.98	32.18	32.65	29.97	25.16	20.51	18.40	16.18	14.60	13.61	12.52	11.72	12.08	16.19	29.05	53.91	263.5	1580	5785	9999.9	7851	139.5	12.64	6.428	4.748	4.154	3.542	3.203	2.817	2.492	2.350	2.243	2.042	2.128
535.0	205.7	204.3	219.0	222.2	269.2	327.4	293.1	362.9	1538	9886	6695	375.2	254.1	225.2	194.5	171.3	145.9	135.6	127.1	121.1	117.6	114.7	111.7	111.7	113.1	110.6	109.1	105.8	106.1	104.3	98.25	93.57	84.24	75.64	68.87	62.77	56.30	51.03	46.63	42.65	38.60	35.05	32.74	30.37	28.72	27.45	26.95	24.94	20.33	17.13	15.23	13.34	12.29	11.31	10.62	10.49	11.01	13.92	19.78	66.35	360.1	1300	3174	9999.9	9999.9	227.0	11.39	6.128	4.653	3.813	3.354	3.037	2.495	2.350	2.156	2.074	1.939
540.0	187.4	189.0	203.3	197.6	221.8	293.8	277.0	272.2	533.6	5150	9999.9	1077	226.4	197.8	168.3	148.2	129.0	119.0	110.9	105.2	100.6	97.32	97.48	95.86	96.28	96.78	94.45	93.62	92.24	89.91	85.44	80.04	73.57	66.37	60.72	55.36	49.89	45.54	41.99	38.38	35.04	32.25	30.14	27.25	25.72	24.14	23.45	24.65	20.32	16.64	13.78	12.71	11.39	10.69	9.937	10.20	9.464	9.679	10.94	21.28	87.08	297.5	726.8	4025	9999.9	7783	34.27	8.092	5.614	4.308	3.446	2.893	2.584	2.183	1.988	1.816	1.806
545.0	159.2	175.7	175.1	181.1	193.7	244.8	268.6	232.0	282.9	1794	9999.9	4085	215.6	175.0	147.6	128.6	113.5	105.0	97.20	92.32	87.71	85.12	85.81	84.28	82.59	83.15	82.70	80.57	81.31	78.35	76.16	71.47	64.12	59.72	53.71	49.29	44.31	41.31	37.25	34.19	31.24	29.00	27.18	24.48	22.65	21.91	20.13	21.77	19.25	16.25	13.09	11.55	10.85	10.17	9.858	9.356	9.106	8.725	8.466	10.34	25.27	72.66	170.0	940.2	5337	9999.9	2018	28.39	6.890	4.712	3.596	2.944	2.661	2.274	2.074	1.864	1.722
550.0	152.2	160.4	163.5	152.1	158.9	187.8	238.8	203.4	202.2	557.0	5709	9999.9	848.0	150.6	126.9	109.2	94.82	87.18	81.00	77.76	73.21	69.39	70.40	69.90	69.00	69.32	67.84	66.08	66.15	64.88	63.21	58.43	53.44	49.93	44.79	41.07	37.86	34.86	31.77	28.83	26.69	24.60	23.19	21.55	19.52	18.86	17.19	17.04	16.92	15.54	12.62	10.77	9.509	8.674	8.595	8.145	7.845	7.702	7.290	7.162	10.49	21.27	43.25	216.1	1251	4566	9225	5480	141.5	10.00	4.289	3.235	2.894	2.393	2.026	1.892	1.615
555.0	137.0	157.6	126.3	128.4	134.8	145.5	186.5	196.3	160.8	240.4	1538	9999.9	5950	164.0	104.3	88.74	76.21	71.54	64.86	62.59	57.71	56.28	56.81	55.89	55.51	55.40	53.46	53.35	53.46	52.61	49.93	46.94	43.76	39.59	36.88	33.56	31.10	28.26	26.44	24.27	22.52	20.51	19.00	17.89	17.09	15.73	14.62	13.71	13.40	13.59	12.25	9.911	8.404	7.457	7.586	6.956	7.006	6.522	6.460	6.190	6.174	8.827	13.89	52.59	283.6	1024	2674	8249	7251	221.3	7.319	4.142	2.937	2.494	2.132	1.939	1.536
560.0	133.0	143.9	119.2	116.4	114.1	119.8	142.3	188.7	143.2	160.6	455.7	5486	9999.9	623.9	90.62	76.10	64.39	58.72	55.53	52.15	48.30	47.31	47.69	46.72	46.33	44.39	44.74	44.96	44.10	43.79	42.98	39.80	36.44	33.70	30.68	28.36	25.92	25.16	21.80	20.40	19.23	17.00	16.53	15.63	14.63	13.84	12.78	11.94	11.11	11.61	11.33	9.532	7.829	6.669	6.634	6.395	6.198	5.677	5.645	5.751	5.122	5.472	6.846	15.95	67.42	233.0	607.5	2919	9306	5092	33.46	5.731	3.474	2.597	2.137	1.727	1.555
565.0	131.4	136.1	113.1	104.6	97.13	102.9	116.5	165.3	143.3	127.1	201.0	1851	9999.9	2971	88.81	67.80	57.65	52.45	48.40	45.25	41.99	41.07	40.47	40.14	39.94	39.67	38.19	37.81	37.83	37.59	36.31	34.02	30.72	28.35	26.56	24.28	22.77	21.12	18.94	17.84	16.80	14.98	14.58	13.19	13.06	11.99	11.42	10.67	9.546	9.655	9.709	9.323	7.546	6.144	6.103	5.391	5.301	5.042	5.204	5.173	4.485	4.610	4.978	7.112	18.62	55.61	140.5	673.9	3821	8733	1955	27.11	4.236	3.069	2.239	1.810	1.493
570.0	139.9	131.7	111.0	93.47	86.25	86.90	93.21	128.3	150.5	112.9	129.4	522.3	6272	9577	471.5	60.92	49.38	43.42	40.28	37.36	34.82	34.22	33.53	32.25	32.61	31.42	31.11	30.64	30.89	31.08	28.67	28.12	25.37	23.49	21.35	20.35	18.84	17.33	15.86	15.16	13.95	12.83	11.88	11.40	11.02	10.53	9.720	8.988	8.224	7.543	7.370	7.912	6.853	5.586	5.442	4.786	4.664	4.552	4.404	4.242	4.221	4.035	3.921	4.420	7.082	15.59	34.75	154.2	885.1	3354	5530	3423	136.2	7.045	2.782	1.929	1.613
575.0	125.3	138.9	110.6	85.33	77.87	73.76	79.71	94.59	137.2	118.5	106.7	194.2	1674	9999.9	4127	70.34	41.91	35.55	33.79	31.33	29.58	27.49	27.49	26.37	25.84	24.52	24.50	25.53	25.13	24.54	23.73	22.18	20.39	19.17	17.68	16.55	15.34	13.81	13.17	12.19	11.45	10.51	9.865	9.482	9.396	8.862	7.945	7.564	6.739	6.337	5.742	5.775	5.933	5.532	5.092	4.386	4.153	3.974	3.968	3.878	3.657	3.679	3.574	3.328	4.163	5.947	10.47	37.41	200.5	751.1	1583	4831	4200	201.9	5.244	2.413	1.906
580.0	118.4	140.3	107.7	81.96	67.75	66.36	72.30	77.98	116.9	125.4	99.11	127.5	454.3	5690	8636	124.4	38.06	32.90	30.03	26.83	25.24	24.69	24.16	23.45	22.40	19.84	20.97	20.90	20.71	20.75	20.27	18.62	17.60	15.76	15.15	14.30	12.94	11.85	11.53	10.44	9.879	9.069	8.590	7.907	8.294	7.455	6.694	6.264	6.047	5.548	5.030	4.970	5.262	5.232	4.722	4.007	3.754	3.425	3.360	3.400	3.299	3.353	3.329	3.087	3.449	3.560	4.975	11.13	47.64	170.7	359.6	1699	5379	2107	32.13	3.630	2.134
585.0	138.9	140.7	111.1	81.81	63.31	60.18	63.94	73.01	92.53	135.4	101.7	108.7	174.1	1927	9999.9	873.4	38.03	30.35	26.08	23.70	22.35	20.65	21.30	19.60	19.24	18.56	18.25	17.87	17.92	17.58	17.55	15.48	15.05	13.39	12.90	12.06	11.17	10.47	10.25	9.179	8.352	8.166	7.647	7.154	6.835	6.970	5.995	5.635	5.336	5.146	4.696	4.215	4.496	4.957	4.424	3.852	3.445	3.325	3.148	2.800	2.861	3.034	3.182	3.245	3.056	3.000	3.368	4.702	13.18	40.92	83.42	391.9	2209	5011	1717	24.25	2.982
590.0	135.5	136.4	107.9	80.65	59.53	55.90	59.71	64.38	77.24	121.8	117.8	102.2	110.7	514.1	5683	7050	277.6	28.06	22.95	20.32	18.90	17.96	17.75	16.07	15.68	15.76	15.04	15.04	15.04	14.54	14.36	13.29	12.40	11.50	10.62	10.31	9.163	8.625	8.438	7.887	7.212	6.952	6.212	6.161	6.007	5.913	5.141	5.156	4.676	4.269	3.950	3.741	3.572	3.861	4.051	3.753	3.190	3.064	2.944	2.691	2.567	2.612	2.719	3.061	2.848	2.540	2.697	2.945	5.103	11.40	20.95	89.89	510.3	1914	3474	1869	130.9
595.0	120.6	141.4	110.3	77.54	62.81	51.12	53.58	57.85	70.12	97.37	134.0	103.8	97.38	175.3	1483	8676	2643	34.96	20.15	18.69	16.11	15.77	14.87	13.90	13.73	13.14	12.72	12.07	12.54	12.18	11.45	10.53	9.638	9.372	8.577	8.444	7.433	7.416	6.897	6.524	5.961	5.717	5.456	5.189	4.972	5.244	4.269	4.290	4.041	3.626	3.252	3.048	3.016	3.256	3.237	3.495	3.173	2.669	2.626	2.378	2.349	2.502	2.380	2.531	2.587	2.539	2.300	2.411	2.961	4.419	6.752	21.80	115.6	428.7	951.7	2802	2191
600.0	111.1	130.0	119.7	74.09	54.25	48.58	50.35	57.42	65.58	85.97	137.1	118.9	95.90	100.9	383.0	4957	6242	84.49	19.92	17.24	14.70	13.20	12.93	11.69	11.76	11.72	10.85	10.69	11.01	10.41	9.980	9.317	8.912	7.682	7.374	7.299	6.412	6.334	5.956	5.593	5.250	4.719	4.684	4.531	4.388	4.342	3.807	3.794	3.675	3.321	2.822	2.762	2.690	2.809	2.649	3.161	2.959	2.660	2.419	2.259	2.168	2.475	2.236	2.352	2.389	2.679	2.441	2.230	2.534	2.763	3.262	6.550	27.59	97.45	215.9	943.2	3066
605.0	113.8	127.1	111.6	76.02	53.81	45.92	49.66	57.48	64.27	83.71	126.0	134.7	102.0	86.45	132.7	1686	8607	626.3	19.86	15.69	13.38	11.78	11.16	10.63	10.51	10.56	9.921	9.868	9.794	9.336	8.836	8.139	7.552	6.972	6.852	6.315	5.915	5.614	5.243	5.099	4.684	4.401	4.251	4.238	3.832	3.737	3.478	3.341	3.327	2.893	2.733	2.483	2.459	2.339	2.287	2.648	2.855	2.709	2.388	2.146	2.072	2.257	2.125	2.198	2.198	2.337	2.619	2.190	2.456	2.431	2.556	3.115	7.996	23.58	50.20	216.6	1217
610.0	120.8	126.4	114.3	79.93	54.81	45.92	49.93	59.33	67.49	88.52	120.2	155.5	120.5	93.61	83.85	437.9	4969	4987	60.39	15.90	12.33	10.93	10.03	9.405	9.049	9.138	8.482	8.479	8.151	7.773	7.452	6.908	6.308	6.138	5.811	5.485	5.053	4.887	4.605	4.087	3.815	3.609	3.806	3.560	3.428	3.376	3.190	3.096	2.741	2.567	2.298	2.273	2.105	2.045	1.852	2.167	2.367	2.484	2.366	2.112	2.166	2.147	2.081	2.061	2.233	2.161	2.359	2.332	2.454	2.516	2.443	2.374	3.514	6.856	12.81	50.06	279.6
615.0	123.9	123.5	113.7	76.28	51.85	44.35	51.85	59.15	73.83	91.75	114.4	156.9	141.8	99.25	77.77	137.2	1313	6708	1515	18.51	11.96	9.677	9.131	8.450	7.894	7.590	6.922	7.355	6.821	6.391	6.166	5.845	5.502	5.338	4.678	4.843	4.635	4.082	4.177	3.468	3.279	3.188	2.958	2.973	3.186	2.884	2.679	2.733	2.448	2.168	2.020	1.887	1.916	1.758	1.797	1.911	1.896	2.120	2.186	2.048	2.007	2.041	2.016	2.251	2.077	2.024	2.234	2.260	2.375	2.526	2.258	2.149	2.219	3.002	4.452	12.59	63.90
620.0	113.9	126.3	111.2	78.42	50.81	43.85	50.21	58.07	72.95	93.47	113.6	143.4	150.2	105.6	77.86	68.57	331.8	4205	4250	54.50	11.83	10.10	8.812	7.755	7.380	6.816	6.351	6.596	6.040	6.009	5.865	5.054	4.818	4.553	4.476	4.259	4.007	3.570	3.533	3.240	2.997	2.812	2.734	2.715	2.750	2.551	2.345	2.519	2.177	2.055	1.798	1.769	1.748	1.546	1.657	1.710	1.696	2.016	1.972	2.028	1.991	1.930	1.873	2.023	1.929	1.850	1.969	1.985	2.458	2.449	2.279	2.043	1.926	2.348	2.327	4.099	15.59
625.0	107.8	127.7	110.3	77.40	51.16	42.00	51.26	60.59	73.48	88.29	113.1	136.1	155.5	111.0	79.37	54.51	103.8	1513	6073	425.5	13.22	9.893	8.476	7.919	6.420	6.741	5.756	5.648	5.464	5.197	5.124	4.659	4.324	3.884	3.947	3.832	3.689	3.220	3.146	3.182	2.865	2.684	2.544	2.559	2.427	2.230	2.285	2.279	2.168	2.062	1.809	1.801	1.654	1.496	1.429	1.619	1.546	1.748	1.974	2.037	1.819	1.968	1.721	1.838	2.078	1.859	1.873	2.148	2.446	2.399	2.279	1.944	1.795	1.869	1.785	2.004	4.653
630.0	101.9	124.9	111.9	78.97	51.18	42.15	49.56	58.32	69.77	91.13	112.2	132.4	147.4	125.7	82.65	51.69	50.28	381.7	3827	3405	43.29	10.22	8.511	7.121	6.058	5.782	5.199	5.024	4.777	4.649	4.536	4.223	3.772	3.658	3.635	3.438	3.214	3.005	2.823	2.803	2.662	2.388	2.240	2.228	2.163	2.192	2.072	2.010	1.874	1.703	1.647	1.472	1.490	1.459	1.361	1.466	1.468	1.566	1.653	1.843	1.797	1.763	1.555	1.809	1.855	1.683	1.702	1.834	2.042	2.128	1.996	1.870	1.843	1.675	1.493	1.516	2.114
635.0	110.7	122.8	105.1	79.81	46.79	41.72	47.48	58.31	67.88	88.48	108.4	131.1	139.4	134.3	89.80	55.62	39.18	104.1	1039	5340	515.5	11.86	8.360	6.717	5.970	5.462	5.012	4.534	4.627	4.239	3.878	3.841	3.657	3.497	3.281	3.142	3.138	2.943	2.581	2.627	2.272	2.309	1.994	1.904	2.007	2.069	1.922	1.869	1.727	1.609	1.549	1.404	1.294	1.365	1.304	1.290	1.406	1.471	1.432	1.593	1.550	1.694	1.492	1.603	1.554	1.590	1.430	1.693	1.686	1.798	1.729	1.681	1.581	1.491	1.422	1.401	1.257
640.0	108.2	128.5	110.3	71.50	46.06	42.75	46.63	55.00	63.84	88.66	107.3	130.8	134.4	134.6	97.96	56.87	37.07	42.80	255.8	3706	3007	34.52	8.962	6.794	5.908	5.106	5.063	4.742	4.361	3.860	3.622	3.430	3.636	3.205	3.050	3.020	3.146	2.938	2.710	2.448	2.181	2.223	1.894	1.864	1.840	1.906	1.778	1.801	1.664	1.553	1.402	1.288	1.430	1.185	1.366	1.169	1.235	1.268	1.314	1.347	1.433	1.670	1.444	1.456	1.520	1.466	1.389	1.566	1.563	1.850	1.664	1.677	1.729	1.411	1.507	1.423	1.184
645.0	116.8	123.4	113.5	82.71	46.04	40.54	49.38	56.51	65.92	85.96	105.7	128.1	135.5	130.1	107.0	58.12	37.11	28.77	70.72	1442	5007	300.1	10.28	6.715	5.772	5.299	4.798	4.508	4.010	3.918	3.674	3.756	3.242	3.113	2.974	2.798	2.836	2.829	2.487	2.243	2.011	2.037	1.910	1.706	1.913	1.815	1.775	1.775	1.736	1.584	1.359	1.306	1.193	1.354	1.160	1.181	1.264	1.240	1.276	1.313	1.269	1.495	1.414	1.375	1.500	1.473	1.350	1.439	1.498	1.671	1.489	1.563	1.546	1.493	1.456	1.197	1.260
650.0	136.6	127.4	126.1	86.01	50.84	39.49	49.93	54.26	68.96	84.07	105.6	134.5	132.5	118.4	110.0	59.64	37.77	25.58	27.17	387.6	4599	1640	14.42	6.913	5.833	5.525	4.923	4.526	3.952	3.817	3.268	3.403	3.222	3.127	3.007	2.826	2.695	2.495	2.300	2.174	1.979	1.971	2.021	1.830	1.831	1.875	1.620	1.773	1.678	1.525	1.416	1.333	1.326	1.292	1.198	1.198	1.242	1.285	1.148	1.211	1.289	1.306	1.453	1.296	1.383	1.333	1.259	1.392	1.496	1.452	1.612	1.408	1.541	1.482	1.327	1.017	1.161
