Sample:	'1
File name:	g2025081903杏花河入小清河.FD3
Run date:	'15:59:56, 08/19/2025
Operator:	Administrator
Comment:	'

Instrument
Model:	F-2700 FL Spectrophotometer
Serial number:	23B8-004
ROM Version:	4J14000 07

Instrument parameters
Measurement type:	3-D scan
Data mode:	Fluorescence
EX  Start WL:	220.0 nm
EX  End WL:	600.0 nm
EX Sampling interval:	5.0 nm
EM  Start WL:	230.0 nm
EM  End WL:	650.0 nm
EM Sampling interval:	5.0 nm
Scan speed:	12000 nm/min
EX Slit:	5.0 nm
EM Slit:	5.0 nm
PMT Voltage:	700 V
Response:	Auto 
Corrected spectra:	Off
Contour interval:	50.000

Peak integration
Integration method:	Rectangular
Sensitivity:	1
Threshold:	1.000

Peaks
No.	ApexEX/EM(nm)	Height(Data)
1	225.0/605.0	47.74
2	225.0/635.0	36.69
3	230.0/345.0	1439
4	230.0/580.0	62.34
5	235.0/355.0	1445
6	240.0/265.0	381.5
7	240.0/625.0	25.39
8	245.0/385.0	1407
9	245.0/535.0	310.5
10	250.0/545.0	249.2
11	255.0/280.0	641.5
12	255.0/560.0	202.8
13	260.0/575.0	156.4
14	265.0/585.0	142.1
15	270.0/300.0	1423
16	270.0/410.0	1789
17	270.0/600.0	131.4
18	275.0/305.0	1619
19	275.0/610.0	116.9
20	280.0/340.0	1525
21	280.0/625.0	95.68
22	285.0/320.0	1470
23	285.0/635.0	74.83
24	290.0/325.0	1405
25	335.0/410.0	1107
26	505.0/275.0	2.955
27	515.0/280.0	3.483
28	520.0/285.0	4.254
29	530.0/290.0	4.232
30	530.0/415.0	7.177
31	540.0/295.0	5.926
32	545.0/300.0	7.326
33	550.0/305.0	7.621
34	550.0/420.0	6.959
35	560.0/310.0	7.475
36	570.0/315.0	7.467
37	580.0/320.0	7.721
38	585.0/325.0	8.042

Data points
	220.0	225.0	230.0	235.0	240.0	245.0	250.0	255.0	260.0	265.0	270.0	275.0	280.0	285.0	290.0	295.0	300.0	305.0	310.0	315.0	320.0	325.0	330.0	335.0	340.0	345.0	350.0	355.0	360.0	365.0	370.0	375.0	380.0	385.0	390.0	395.0	400.0	405.0	410.0	415.0	420.0	425.0	430.0	435.0	440.0	445.0	450.0	455.0	460.0	465.0	470.0	475.0	480.0	485.0	490.0	495.0	500.0	505.0	510.0	515.0	520.0	525.0	530.0	535.0	540.0	545.0	550.0	555.0	560.0	565.0	570.0	575.0	580.0	585.0	590.0	595.0	600.0
230.0	20.47	572.3	1826	643.3	28.54	4.039	3.433	3.047	2.991	3.228	3.211	3.064	2.822	2.503	2.316	1.868	1.771	1.458	1.390	1.140	1.030	0.928	0.853	0.711	0.755	0.683	0.550	0.551	0.568	0.516	0.476	0.441	0.417	0.367	0.295	0.284	0.270	0.231	0.225	0.180	0.224	0.265	0.267	0.203	0.202	0.136	0.620	3.891	8.564	7.768	3.412	0.634	0.139	0.075	0.082	0.104	0.090	0.077	0.079	0.072	0.075	0.065	0.041	0.049	0.041	0.054	0.033	0.029	0.031	0.037	0.061	0.025	0.030	0.013	0.022	0.019	0.026
235.0	78.84	151.7	1074	2097	574.2	54.87	3.891	3.920	4.454	4.004	3.606	3.041	3.123	3.063	1.968	2.101	1.646	1.678	1.302	1.235	1.071	0.826	0.899	0.776	0.736	0.726	0.739	0.590	0.506	0.443	0.506	0.448	0.385	0.330	0.356	0.302	0.307	0.239	0.227	0.164	0.137	0.197	0.213	0.334	0.318	0.172	0.274	1.023	2.908	5.826	9.832	12.37	6.686	1.600	0.129	0.129	0.122	0.071	0.082	0.068	0.090	0.069	0.066	0.028	0.016	0.097	0.044	0.045	0.048	0.049	0.063	0.032	0.050	0.040	0.008	0.034	0.034
240.0	109.1	112.3	318.3	1696	2619	466.1	31.24	5.481	4.741	5.038	4.385	4.025	3.693	3.061	2.241	1.992	1.663	2.002	1.346	1.241	1.244	0.999	0.882	0.796	0.774	0.718	0.778	0.632	0.490	0.447	0.407	0.368	0.386	0.252	0.299	0.379	0.248	0.279	0.203	0.213	0.132	0.165	0.133	0.217	0.364	0.533	0.353	0.395	0.758	1.620	4.654	12.18	18.40	15.03	6.095	0.878	0.131	0.098	0.062	0.077	0.075	0.052	0.097	0.058	0.060	0.089	0.039	0.057	0.058	0.060	0.030	0.034	0.028	0.038	0.066	0.020	0.042
245.0	75.90	179.1	131.1	558.4	2729	2989	361.1	16.51	6.232	5.116	3.972	5.138	4.071	2.746	2.842	2.241	2.140	2.111	1.446	1.486	1.073	1.119	1.016	0.885	0.799	0.924	0.854	0.614	0.549	0.520	0.439	0.416	0.380	0.313	0.290	0.364	0.199	0.289	0.246	0.203	0.194	0.224	0.177	0.194	0.210	0.409	0.645	0.568	0.412	0.501	1.201	3.536	10.34	20.52	23.74	15.01	4.387	0.518	0.123	0.084	0.126	0.072	0.093	0.069	0.073	0.108	0.048	0.041	0.029	0.060	0.055	0.000	0.026	0.009	0.137	0.031	0.032
250.0	28.32	117.4	231.4	228.2	872.2	3102	4160	1316	83.69	7.986	6.264	5.826	4.847	3.581	2.994	2.894	2.089	2.124	1.710	1.444	1.440	1.111	1.035	0.926	0.855	0.899	0.805	0.629	0.643	0.557	0.518	0.538	0.436	0.327	0.346	0.271	0.252	0.246	0.229	0.216	0.173	0.190	0.209	0.182	0.188	0.244	0.332	0.607	0.748	0.801	0.695	1.030	2.559	6.000	11.95	19.68	26.28	26.27	14.28	5.076	0.599	0.107	0.123	0.080	0.101	0.055	0.052	0.064	0.072	0.056	0.051	0.018	0.033	0.061	0.063	0.078	0.047
255.0	15.04	38.43	142.0	332.5	297.1	808.5	3767	7214	1878	97.42	8.636	6.989	5.699	4.484	3.646	3.067	2.367	2.101	1.808	1.638	1.493	1.123	1.058	1.021	1.103	0.814	0.778	0.694	0.706	0.603	0.600	0.564	0.445	0.457	0.389	0.323	0.261	0.219	0.246	0.244	0.208	0.212	0.247	0.241	0.192	0.154	0.158	0.293	0.369	0.799	1.254	1.316	1.068	1.499	2.827	4.685	8.469	20.50	42.53	32.82	23.41	6.549	0.486	0.176	0.123	0.088	0.074	0.088	0.082	0.061	0.022	0.057	0.084	0.051	0.078	0.109	0.048
260.0	14.71	21.19	52.24	277.5	343.7	242.2	1229	6816	8476	1477	47.15	9.878	7.491	6.699	3.949	3.381	2.841	2.329	2.193	1.604	1.555	1.181	1.092	0.994	0.921	0.752	0.815	0.612	0.717	0.566	0.626	0.597	0.471	0.464	0.392	0.234	0.246	0.266	0.225	0.281	0.266	0.249	0.298	0.227	0.142	0.144	0.193	0.173	0.207	0.322	0.708	1.492	1.879	1.361	0.876	1.243	2.103	5.249	15.75	34.54	60.52	33.03	19.50	3.408	0.261	0.128	0.133	0.136	0.070	0.054	0.019	0.113	0.051	0.088	0.040	0.100	0.072
265.0	16.00	17.10	22.04	110.1	381.5	276.9	315.4	2593	9999.9	8841	252.3	25.07	10.31	7.463	5.820	3.821	3.427	2.831	2.187	1.909	1.590	1.093	1.086	1.092	0.948	0.845	0.853	0.885	0.800	0.747	0.687	0.663	0.494	0.397	0.385	0.396	0.410	0.354	0.273	0.260	0.254	0.280	0.210	0.255	0.224	0.178	0.191	0.264	0.157	0.231	0.327	0.600	1.626	2.197	1.668	0.893	0.701	1.475	3.830	9.506	27.48	53.06	75.94	30.55	14.41	1.365	0.209	0.149	0.146	0.106	0.082	0.166	0.124	0.082	0.101	0.093	0.079
270.0	37.74	23.58	20.94	38.80	161.5	377.0	328.7	648.7	3555	9999.9	9999.9	3062	72.61	12.04	7.658	5.399	4.176	3.415	2.282	2.141	1.978	1.546	1.414	1.143	1.127	0.974	0.974	0.887	0.813	0.756	0.698	0.615	0.569	0.519	0.368	0.422	0.390	0.347	0.272	0.328	0.276	0.275	0.274	0.348	0.219	0.260	0.256	0.307	0.228	0.210	0.232	0.318	0.563	1.022	1.785	2.211	2.061	1.248	1.305	2.394	6.601	14.42	31.14	48.34	69.36	59.57	43.70	10.51	1.615	0.218	0.159	0.192	0.104	0.155	0.103	0.121	0.102
275.0	63.46	58.60	44.70	38.12	57.53	153.6	508.3	433.5	861.3	2642	9999.9	9999.9	1395	79.42	12.63	7.551	5.682	4.312	3.255	2.665	2.364	2.283	1.659	1.308	1.316	1.202	1.036	0.983	0.948	0.863	0.783	0.700	0.693	0.692	0.566	0.497	0.480	0.400	0.415	0.376	0.386	0.336	0.319	0.432	0.385	0.391	0.329	0.389	0.352	0.324	0.278	0.304	0.297	0.475	0.623	1.007	2.032	2.955	2.792	1.387	1.846	3.569	7.352	11.43	18.72	35.58	81.36	106.1	32.30	14.43	1.213	0.297	0.188	0.219	0.163	0.130	0.089
280.0	108.7	114.8	86.55	63.63	50.20	70.26	298.3	641.5	396.6	693.3	3185	9999.9	9999.9	1047	43.28	10.78	8.136	5.765	4.143	3.280	2.491	2.074	1.857	1.539	1.390	1.335	1.122	1.088	0.983	0.806	1.049	0.806	0.705	0.649	0.511	0.518	0.641	0.564	0.550	0.449	0.377	0.409	0.495	0.408	0.417	0.615	0.503	0.508	0.596	0.373	0.355	0.350	0.286	0.391	0.331	0.449	0.881	1.856	3.301	3.483	2.110	1.420	2.169	3.070	4.825	8.981	25.63	63.11	101.6	111.8	28.03	8.063	0.558	0.268	0.256	0.162	0.125
285.0	166.1	183.4	152.8	98.73	66.41	65.69	141.0	524.6	644.8	357.3	895.5	4313	9999.9	9482	691.9	22.04	10.35	7.013	4.834	3.831	2.819	2.263	1.990	1.768	1.672	1.360	1.238	1.297	0.953	0.887	0.945	0.817	0.756	0.747	0.642	0.747	0.632	0.566	0.514	0.461	0.520	0.449	0.585	0.585	0.488	0.644	0.613	0.693	0.772	0.513	0.420	0.525	0.466	0.443	0.381	0.377	0.550	0.950	1.677	3.374	4.254	2.663	1.921	1.488	1.963	2.974	6.631	16.24	37.77	85.55	117.4	96.18	21.64	2.929	0.443	0.284	0.251
290.0	265.9	304.2	272.4	177.8	119.2	116.0	144.1	288.6	673.8	777.8	606.3	1320	4272	9999.9	9999.9	2549	44.93	10.63	7.251	4.990	3.689	3.030	2.600	2.094	1.746	1.644	1.445	1.304	1.163	1.076	1.050	0.858	0.818	0.869	0.908	0.876	0.784	0.770	0.622	0.613	0.542	0.669	0.678	0.761	0.677	0.822	0.966	1.114	1.050	0.925	0.692	0.747	0.696	0.616	0.596	0.557	0.679	0.787	1.057	1.656	2.553	3.666	4.232	3.758	2.716	2.312	3.117	5.235	9.993	22.14	41.23	70.49	89.45	72.23	65.39	14.76	3.878
295.0	374.8	441.9	404.0	267.7	184.4	178.0	205.1	283.1	468.4	940.6	1109	876.0	1407	2750	9999.9	9999.9	784.6	50.20	10.95	7.229	5.242	3.819	3.181	2.535	2.040	1.787	1.931	1.508	1.432	1.259	1.009	1.103	0.937	0.966	1.092	0.938	0.989	0.845	0.775	0.641	0.647	0.673	0.726	0.870	0.967	1.101	1.279	1.362	1.405	1.191	0.970	1.027	0.946	0.914	0.912	0.821	0.874	1.008	1.150	1.354	1.939	2.294	3.149	4.808	5.926	5.068	3.663	3.571	4.744	6.958	11.12	17.35	22.47	33.31	85.26	130.0	37.51
300.0	455.2	563.7	471.8	330.7	241.2	236.2	268.6	337.1	476.7	776.5	1423	1144	907.4	984.8	2931	9999.9	9999.9	632.1	29.94	10.32	6.931	4.593	3.948	2.896	2.354	1.995	1.673	1.578	1.532	1.356	1.355	1.149	1.140	1.062	1.029	1.042	1.030	0.967	0.977	0.746	0.736	0.952	0.964	0.955	1.084	1.255	1.321	1.546	1.502	1.400	1.196	1.208	1.154	0.983	1.082	1.172	1.260	1.514	1.692	1.732	2.025	2.078	2.673	3.639	5.230	7.326	6.453	4.640	4.098	4.157	4.940	5.692	6.488	8.835	23.90	59.72	104.0
305.0	475.5	588.8	531.9	368.7	277.5	282.5	323.9	423.4	561.5	776.8	1270	1619	1017	698.6	944.8	3423	9999.9	9999.9	451.3	17.68	9.097	6.240	4.573	3.381	2.672	2.384	2.013	1.863	1.712	1.365	1.431	1.324	1.082	1.057	1.301	1.059	1.083	0.925	0.943	0.839	0.875	0.936	1.155	1.121	1.176	1.524	1.666	1.752	1.778	1.378	1.219	1.385	1.218	1.267	1.283	1.337	1.575	1.747	1.938	2.115	2.371	2.627	3.152	3.714	4.094	5.835	7.621	7.552	6.038	4.683	4.101	3.552	3.449	3.723	6.697	15.02	33.01
310.0	512.9	627.3	573.1	422.1	322.9	335.6	392.1	495.5	631.9	824.8	1114	1485	1470	855.7	598.4	1013	3372	9999.9	9999.9	1935	33.27	9.548	6.412	4.431	3.533	2.856	2.308	2.140	1.786	1.715	1.542	1.248	1.147	1.025	1.204	1.100	1.205	1.013	1.017	0.887	0.946	0.906	1.104	1.107	1.302	1.566	1.701	2.016	1.958	1.609	1.456	1.600	1.395	1.543	1.507	1.572	1.778	2.091	2.353	2.428	2.765	3.056	3.441	3.988	4.249	4.932	5.829	6.765	7.475	7.437	5.751	4.340	3.307	3.006	3.449	5.174	8.663
315.0	530.7	670.4	641.6	492.5	399.1	407.6	465.3	570.1	700.6	878.7	1105	1285	1432	1324	736.4	599.9	1035	2506	7138	9999.9	2593	36.83	9.377	6.233	4.211	3.504	2.676	2.459	2.036	1.867	1.701	1.219	1.158	1.142	1.274	1.115	1.093	1.135	1.082	0.999	0.908	0.996	1.198	1.293	1.478	1.737	1.845	2.123	1.967	1.950	1.600	1.879	1.914	1.719	1.891	1.984	2.095	2.270	2.474	2.773	3.060	3.358	3.559	4.371	4.468	4.985	5.362	5.837	5.975	6.493	7.467	7.280	5.385	4.098	3.420	3.568	4.015
320.0	619.6	769.6	777.6	599.0	528.3	504.9	546.3	630.0	779.6	962.3	1165	1304	1352	1470	1113	692.5	669.9	880.6	2037	9205	9999.9	468.5	21.43	8.180	5.717	3.919	3.610	2.708	2.367	2.077	1.803	1.562	1.467	1.479	1.205	1.209	1.067	1.058	1.094	1.011	1.107	1.023	1.126	1.260	1.586	1.885	1.986	2.467	2.347	2.203	1.897	2.128	2.307	2.157	2.247	2.225	2.618	2.690	2.639	3.168	3.489	3.737	3.941	4.466	4.986	5.162	5.533	5.806	6.196	6.131	6.575	7.400	7.721	6.372	4.944	3.934	3.978
325.0	682.0	910.2	922.7	743.0	628.4	587.8	611.3	680.0	826.2	1007	1232	1374	1368	1363	1405	934.2	688.2	596.4	740.2	2812	9999.9	9159	65.91	12.55	7.381	5.231	3.918	3.078	2.440	2.300	2.166	1.703	1.454	1.433	1.204	1.206	1.155	1.101	1.034	1.106	1.164	1.043	1.088	1.388	1.709	2.004	2.219	2.957	3.004	2.697	2.368	2.624	2.643	2.665	2.686	2.526	2.732	2.933	3.065	3.277	3.786	3.849	4.364	4.810	5.323	5.515	5.725	5.930	6.566	6.506	6.174	6.553	7.530	8.042	7.566	5.494	4.724
330.0	741.3	1027	1128	973.2	803.6	714.3	669.1	728.1	876.0	1048	1262	1403	1411	1337	1322	1245	928.9	645.7	524.5	894.1	2966	7985	7002	1512	25.90	7.924	5.061	3.861	3.130	2.673	2.293	1.729	1.629	1.528	1.253	1.228	1.212	1.075	1.113	1.112	1.031	1.149	1.357	1.475	1.865	2.347	2.624	3.313	3.497	3.183	3.049	3.511	3.302	3.212	3.128	3.042	3.110	3.013	3.249	3.626	3.834	4.037	4.514	5.021	5.331	5.771	5.975	6.181	6.421	6.606	6.475	6.798	6.941	7.022	7.758	7.611	7.000
335.0	789.0	1120	1323	1234	1056	889.0	790.5	796.6	930.7	1110	1311	1462	1504	1442	1343	1287	1297	829.8	598.6	560.3	854.2	1943	5168	9999.9	2136	29.32	8.030	5.589	4.000	3.055	2.724	2.032	1.891	1.701	1.385	1.194	1.433	1.285	1.047	1.209	1.209	1.106	1.352	1.625	1.900	2.407	2.858	3.750	3.905	3.901	3.882	4.126	4.065	4.296	3.679	3.679	3.683	3.691	3.354	3.673	3.887	4.252	4.564	5.125	5.664	5.724	6.389	6.258	6.570	7.013	7.045	7.302	7.277	7.579	7.633	7.196	7.676
340.0	817.2	1208	1435	1327	1150	990.7	859.5	851.1	973.3	1148	1323	1472	1525	1481	1388	1270	1319	1113	687.1	526.9	417.5	553.5	1431	7409	9316	403.2	17.55	7.124	5.379	3.828	3.315	2.501	2.036	1.837	1.368	1.327	1.299	1.294	1.202	1.287	1.185	1.199	1.281	1.542	1.989	2.574	2.869	3.789	4.006	4.195	4.410	4.703	4.511	4.526	4.020	4.036	4.032	3.853	3.772	4.048	4.533	4.421	4.701	5.460	5.758	5.946	6.817	6.598	6.709	7.080	7.262	7.588	7.598	7.524	7.735	7.470	7.594
345.0	789.8	1223	1439	1413	1238	1042	911.6	887.1	981.1	1158	1309	1438	1490	1465	1380	1248	1192	1164	839.7	552.0	347.9	272.9	427.1	2203	8779	7199	57.11	11.22	6.697	4.411	3.397	2.847	2.179	2.012	1.422	1.388	1.447	1.426	1.247	1.228	1.267	1.243	1.312	1.509	2.022	2.633	2.852	3.863	4.139	4.002	4.499	5.092	4.798	5.030	4.621	4.369	4.501	4.026	4.112	4.270	4.665	4.511	4.948	5.166	5.714	5.683	6.130	6.462	6.535	7.043	7.239	7.276	7.653	7.568	7.435	7.322	7.631
350.0	768.3	1164	1434	1435	1315	1139	997.5	961.9	1039	1180	1305	1403	1441	1430	1368	1246	1156	1054	957.9	711.7	402.5	266.9	249.0	604.5	2559	6403	5793	1336	23.36	6.508	4.552	3.301	2.449	1.990	1.711	1.502	1.414	1.408	1.314	1.158	1.208	1.233	1.354	1.584	1.868	2.307	2.822	3.679	4.155	4.343	4.480	5.184	5.250	5.253	4.775	4.639	4.470	4.454	4.431	4.478	4.513	4.756	5.219	5.451	5.629	5.832	6.077	6.384	6.453	6.756	6.933	7.221	7.398	7.440	7.492	7.498	7.347
355.0	720.9	1120	1383	1445	1376	1231	1112	1071	1111	1226	1318	1369	1404	1406	1357	1255	1161	1024	897.3	867.2	564.0	339.9	268.4	295.9	683.3	1561	4298	8620	1954	26.85	7.084	4.353	3.252	2.420	1.938	1.655	1.618	1.329	1.306	1.356	1.278	1.277	1.377	1.609	1.766	2.298	2.853	3.435	4.034	4.472	4.463	5.357	5.391	5.386	5.083	4.738	5.212	4.841	4.685	5.029	4.937	5.214	5.458	5.288	5.947	5.681	6.054	6.317	6.277	6.309	6.469	7.470	6.946	7.711	7.220	7.439	7.308
360.0	696.4	1068	1382	1443	1396	1280	1167	1143	1177	1251	1308	1360	1379	1375	1318	1238	1156	1015	872.7	833.0	715.4	442.7	320.5	267.9	304.6	454.2	1188	6260	8211	383.2	16.52	5.799	3.866	2.692	2.332	1.602	1.520	1.441	1.364	1.300	1.218	1.405	1.407	1.645	1.905	2.398	2.805	3.371	3.757	4.327	4.458	5.225	5.456	5.533	5.140	5.011	5.298	5.000	5.212	5.215	4.947	5.074	5.658	5.642	5.809	5.842	5.842	5.965	6.010	6.416	6.648	7.062	7.039	7.259	7.203	7.525	7.590
365.0	697.3	1030	1327	1431	1396	1322	1227	1181	1234	1273	1324	1348	1352	1343	1292	1223	1146	1025	884.1	796.0	751.2	582.5	395.8	308.2	261.2	243.1	363.3	1861	7705	6734	297.3	10.73	5.237	3.743	2.710	2.124	1.759	1.687	1.294	1.342	1.278	1.360	1.447	1.562	1.746	2.142	2.660	3.339	3.585	4.084	4.237	5.458	5.542	5.570	5.471	5.093	5.186	5.311	5.015	5.302	5.477	5.767	5.808	5.670	5.925	5.855	5.875	5.857	5.768	6.408	6.327	6.753	7.097	7.485	6.977	7.171	7.575
370.0	675.2	1010	1297	1412	1412	1347	1276	1238	1283	1327	1333	1348	1318	1311	1252	1201	1138	1037	917.4	819.8	722.7	689.8	575.0	411.2	319.1	254.0	226.4	518.6	2237	5973	5500	1244	20.82	5.479	3.913	2.541	2.219	1.914	1.541	1.398	1.272	1.268	1.429	1.581	1.786	2.202	2.597	3.172	3.771	3.910	4.201	5.218	5.574	5.799	5.685	5.328	5.521	5.506	5.378	5.502	5.750	5.867	6.112	5.498	5.968	5.620	5.774	5.933	5.706	6.209	6.053	6.410	6.383	6.728	6.981	6.725	7.284
375.0	638.1	947.4	1271	1418	1417	1365	1318	1291	1326	1339	1332	1341	1294	1271	1213	1168	1127	1044	950.4	859.2	754.5	688.4	704.1	584.2	414.2	327.9	253.7	266.3	604.6	1458	4082	7817	1732	23.99	5.711	3.720	2.844	2.087	1.646	1.452	1.607	1.569	1.487	1.520	1.783	2.180	2.528	3.184	3.763	3.929	4.335	5.385	5.527	5.543	5.430	5.459	5.954	5.657	5.819	5.700	5.827	5.909	5.956	5.851	6.139	5.629	5.662	5.784	5.797	6.082	6.137	6.235	6.339	6.452	6.781	6.561	6.883
380.0	631.6	939.4	1236	1382	1412	1395	1351	1325	1326	1338	1357	1317	1280	1247	1183	1137	1107	1042	962.6	891.3	791.3	720.0	709.0	704.9	515.9	390.8	307.1	247.1	271.9	418.9	1138	5705	6888	318.4	13.93	5.205	3.568	2.722	1.828	1.701	1.825	1.503	1.527	1.641	1.874	2.040	2.620	3.145	3.813	3.804	4.198	5.087	5.639	5.778	5.507	5.675	6.159	5.429	5.713	5.856	5.785	6.396	6.142	5.845	5.741	5.759	5.889	5.880	5.888	5.695	6.128	5.831	6.381	6.557	6.280	6.355	6.898
385.0	631.0	924.1	1211	1337	1406	1407	1357	1338	1341	1349	1349	1316	1282	1219	1171	1119	1091	1037	974.7	911.9	826.7	755.9	711.8	731.9	649.9	475.4	365.7	284.6	236.5	217.2	341.8	1690	6382	5264	239.8	9.581	4.744	3.088	2.405	2.039	1.639	1.549	1.635	1.751	1.892	2.024	2.651	3.244	3.563	3.816	4.072	5.286	5.427	5.784	5.767	5.496	5.945	5.837	5.985	5.815	5.979	6.181	6.071	6.041	5.846	5.977	5.999	6.040	5.878	5.522	5.925	5.851	6.101	6.261	6.084	6.103	6.595
390.0	620.9	908.6	1200	1334	1394	1393	1378	1352	1365	1365	1366	1325	1285	1223	1160	1112	1077	1037	983.7	939.6	868.6	813.8	765.9	735.8	722.4	630.4	475.8	371.7	296.1	235.1	210.8	471.9	1842	4597	4178	1008	19.27	6.063	3.424	2.483	1.894	1.607	1.671	1.707	1.942	2.153	2.550	3.253	3.481	3.770	4.016	5.102	5.239	5.593	5.791	5.788	6.141	5.851	6.013	5.928	6.017	6.060	6.027	6.020	5.884	5.920	6.064	5.567	5.707	5.737	5.766	5.719	6.154	5.979	6.023	6.139	6.324
395.0	602.7	915.2	1172	1340	1393	1400	1415	1375	1427	1421	1439	1395	1344	1275	1192	1127	1084	1051	1012	969.8	923.1	889.7	851.5	814.5	774.2	757.9	667.3	490.9	414.6	334.9	264.9	262.8	519.7	1142	2955	5841	1480	24.18	6.627	3.778	2.284	1.898	2.046	1.730	2.176	2.553	2.467	3.105	3.668	3.785	4.115	5.201	5.513	5.489	5.575	5.585	6.342	6.212	6.053	5.956	6.431	6.076	5.838	6.372	6.209	6.095	6.003	5.689	5.626	6.112	5.891	5.701	5.913	5.997	6.373	6.473	6.370
400.0	597.2	933.3	1195	1323	1386	1444	1462	1444	1487	1516	1540	1514	1442	1356	1257	1169	1101	1059	1032	999.5	968.7	960.0	932.5	907.1	877.4	844.1	826.9	683.1	545.6	451.4	360.7	286.4	277.5	371.3	849.2	4079	5273	283.5	17.61	5.544	2.934	2.493	2.103	1.960	2.190	2.346	2.800	3.227	3.737	3.656	4.057	5.310	5.733	5.758	6.213	5.667	6.388	6.537	6.276	6.299	6.302	6.381	6.608	6.602	6.651	6.489	6.278	6.346	6.021	6.127	6.006	6.272	5.995	6.035	6.363	6.221	6.595
405.0	591.8	885.0	1178	1302	1396	1472	1487	1501	1564	1649	1681	1654	1563	1471	1344	1221	1138	1076	1052	1045	1021	1030	1029	1019	987.5	946.9	935.4	877.0	709.6	583.2	464.6	366.7	287.5	245.9	313.2	1228	4597	4105	225.4	9.416	4.164	2.924	2.407	2.070	2.148	2.305	2.688	3.380	3.721	3.932	4.143	5.201	5.536	6.097	6.226	6.211	6.614	6.531	6.522	6.491	6.431	6.486	6.765	6.971	6.611	6.297	6.692	6.285	6.200	6.383	6.251	6.358	6.464	6.054	6.277	6.408	6.249
410.0	595.7	894.2	1132	1298	1399	1473	1525	1561	1645	1742	1789	1772	1685	1559	1412	1262	1153	1084	1059	1055	1055	1076	1095	1107	1091	1060	1017	985.6	896.9	732.8	592.5	466.9	351.5	270.0	235.2	398.8	1335	3332	3233	916.2	17.04	4.096	2.961	2.631	2.378	2.408	2.765	3.251	3.718	3.927	4.050	5.345	5.578	5.954	5.940	6.298	6.630	6.879	6.678	6.798	6.807	6.588	6.954	7.122	7.092	6.684	6.881	6.837	6.778	6.687	6.422	6.465	6.319	6.142	6.396	6.126	6.256
415.0	551.9	835.0	1092	1255	1372	1440	1517	1569	1645	1735	1779	1762	1660	1538	1382	1236	1115	1051	1025	1026	1037	1067	1089	1107	1103	1074	1030	983.2	933.0	832.2	655.7	516.1	389.6	296.1	234.1	226.8	392.7	824.8	2007	4176	1289	20.09	4.415	2.992	2.592	2.558	2.849	3.248	3.619	3.903	4.219	5.208	5.614	5.735	6.038	6.066	6.743	6.853	6.789	6.356	6.689	7.073	7.177	6.948	6.941	6.807	6.579	6.719	6.360	6.539	6.564	6.396	6.316	6.085	6.217	6.323	6.127
420.0	566.9	810.7	1051	1234	1334	1428	1488	1538	1617	1683	1731	1704	1603	1487	1336	1184	1075	1013	989.7	988.3	1005	1030	1061	1085	1074	1059	1015	955.2	894.4	844.7	698.1	532.1	400.2	308.7	242.2	194.0	188.1	245.1	541.5	2676	3880	266.0	13.27	3.841	3.209	2.942	2.847	3.311	3.770	3.644	4.008	5.086	5.470	5.578	5.856	6.120	6.644	6.495	6.865	6.378	6.795	6.860	6.809	6.789	6.650	6.419	6.959	6.475	6.336	6.359	6.262	6.174	5.964	6.012	5.766	5.905	5.690
425.0	576.3	805.5	1058	1206	1326	1409	1469	1531	1576	1657	1700	1670	1562	1455	1296	1149	1035	976.7	961.5	963.5	973.8	1002	1039	1057	1062	1044	1007	946.9	879.7	825.3	739.4	560.1	419.1	323.6	253.2	194.1	152.2	123.7	161.7	749.9	3050	2291	214.6	7.024	3.815	3.275	3.041	3.600	3.527	3.681	3.955	4.802	5.429	5.332	5.542	5.684	6.320	6.654	6.517	6.397	6.682	6.726	6.899	6.642	6.616	6.401	6.632	6.321	6.068	6.309	6.078	5.805	5.627	5.727	5.766	5.271	5.632
430.0	571.8	785.4	1019	1166	1289	1377	1455	1541	1581	1650	1692	1671	1553	1434	1274	1129	1011	942.7	928.7	933.0	950.5	975.2	1020	1047	1060	1051	1017	968.2	902.5	832.8	750.5	632.1	473.0	357.3	281.5	220.5	163.8	112.7	87.98	201.8	829.8	2105	2624	856.3	16.54	4.468	3.381	3.736	3.726	3.628	3.786	4.823	5.309	5.553	5.731	5.956	6.171	6.612	6.906	6.526	6.763	6.733	7.014	6.623	6.765	6.576	6.508	6.407	6.014	6.131	5.882	5.702	5.840	5.387	5.431	5.348	5.345
435.0	732.3	734.3	956.9	1112	1258	1347	1442	1530	1591	1648	1675	1652	1541	1411	1252	1093	980.9	914.2	898.4	895.1	914.3	947.8	991.6	1022	1044	1041	1023	977.1	914.7	840.9	746.4	648.5	535.0	398.7	310.6	247.6	182.4	126.5	85.70	88.47	214.9	502.7	1434	3519	1310	21.96	4.668	4.040	3.836	3.886	3.758	4.833	5.312	5.646	5.631	5.909	6.229	6.725	6.752	6.530	6.722	6.425	6.682	6.561	6.527	6.432	6.349	6.007	5.976	6.392	5.717	5.699	5.778	5.411	5.020	5.397	5.069
440.0	910.0	773.4	953.0	1095	1224	1320	1436	1494	1551	1612	1626	1590	1490	1352	1205	1051	941.2	876.3	865.4	860.7	873.6	907.9	945.8	982.9	1005	1006	989.5	948.4	896.8	828.2	729.4	626.8	542.8	426.6	327.5	259.1	192.4	136.9	91.38	70.54	83.90	139.9	372.0	2082	3532	257.7	15.43	4.957	4.178	3.885	4.170	4.837	5.136	5.527	5.681	5.629	6.013	6.595	6.647	6.356	6.406	6.870	6.638	6.429	6.314	6.337	6.296	6.169	5.631	5.660	5.242	5.508	5.382	5.447	5.141	5.317	4.806
445.0	942.8	910.5	898.6	1071	1180	1303	1380	1447	1495	1540	1530	1525	1410	1283	1136	994.0	895.7	836.4	819.5	812.1	826.2	853.2	891.6	926.5	944.5	944.6	930.8	899.9	853.4	789.1	702.1	596.4	513.5	438.4	337.8	260.5	198.9	143.8	99.32	73.20	60.43	62.14	106.9	561.6	2529	3036	207.4	10.03	4.956	4.289	4.089	4.845	5.159	5.198	5.568	5.081	5.999	6.437	6.390	6.656	5.955	6.385	6.408	6.405	6.059	5.618	5.997	5.826	5.330	5.292	5.322	5.394	5.308	5.072	4.861	4.776	4.527
450.0	726.5	1301	953.7	1010	1110	1221	1301	1377	1412	1430	1423	1382	1283	1164	1031	912.6	819.3	766.5	750.0	749.7	754.3	774.6	803.3	830.5	848.6	851.2	839.8	818.9	779.9	727.2	650.9	556.9	468.2	406.8	347.9	268.5	203.9	149.5	108.3	81.06	63.61	51.40	52.93	148.5	667.9	1986	2226	812.2	16.22	5.015	4.340	4.778	4.884	5.088	5.376	5.336	5.881	6.032	6.252	6.136	5.972	5.969	6.134	6.019	5.852	5.548	5.295	5.251	4.916	4.799	4.940	4.814	4.552	4.606	4.603	4.343	4.369
455.0	485.8	1345	1327	964.1	1039	1134	1213	1286	1299	1304	1307	1257	1156	1055	930.4	831.2	744.8	700.4	684.6	670.5	671.4	692.5	719.8	743.4	760.9	767.5	755.0	737.0	707.1	663.0	602.0	520.4	437.0	372.1	328.2	281.9	210.2	156.7	117.3	88.35	69.55	55.15	46.53	60.25	169.7	465.4	1049	2786	1178	19.43	5.072	5.163	4.650	4.897	5.195	5.006	5.297	6.010	5.879	5.868	5.851	5.848	5.495	5.433	5.590	5.054	4.833	5.059	4.711	4.634	4.674	4.455	4.510	4.153	4.189	4.120	4.143
460.0	400.7	980.8	1783	996.6	955.6	1064	1163	1211	1227	1234	1222	1174	1078	980.0	867.1	761.8	692.5	651.1	630.8	620.1	621.3	636.7	665.9	678.6	694.6	701.7	699.9	679.6	659.0	621.0	566.6	490.7	412.8	351.6	305.5	277.2	222.5	160.3	120.7	95.66	74.98	59.80	48.00	43.78	61.35	122.6	263.9	1458	2799	825.5	15.60	5.777	4.983	5.126	5.035	4.880	5.409	5.412	5.369	5.096	5.246	5.390	5.344	4.912	4.987	4.727	4.772	4.738	4.441	4.295	4.273	4.161	4.131	3.930	3.664	3.644	3.748
465.0	356.5	682.3	1851	1327	910.3	993.7	1081	1132	1149	1156	1147	1095	1002	911.3	802.7	710.4	646.5	601.3	592.6	575.3	575.9	587.0	605.5	624.9	640.5	648.7	644.5	630.8	609.6	582.5	535.2	464.1	395.8	335.2	289.9	258.1	227.8	167.2	124.7	98.44	78.32	64.80	51.75	42.91	39.69	48.26	75.21	379.1	1816	2389	184.3	12.67	5.370	5.053	4.819	4.945	5.086	5.097	5.178	5.001	5.154	5.079	5.022	4.983	4.760	4.722	4.371	4.292	4.111	4.029	4.122	3.801	3.787	3.745	3.660	3.337	3.356
470.0	343.8	528.5	1262	1956	1019	915.2	987.6	1028	1048	1043	1033	986.6	902.6	813.2	720.4	637.3	580.0	537.3	527.4	509.3	511.7	518.7	533.2	555.1	563.9	569.3	567.3	561.3	543.2	520.4	478.7	424.1	364.9	310.7	268.2	233.8	207.5	173.6	130.5	99.59	80.95	66.93	55.17	45.93	37.83	34.20	35.39	99.85	466.1	1342	1550	798.7	17.47	5.810	4.877	4.588	4.696	4.543	4.848	4.792	4.705	4.547	4.611	4.257	4.281	4.120	4.012	3.828	3.848	3.516	3.465	3.590	3.433	3.379	3.406	3.064	3.208
475.0	321.0	442.9	713.9	1879	1621	846.9	888.4	917.6	934.1	920.7	916.4	864.4	795.6	716.2	632.9	557.3	514.3	475.8	462.6	450.5	446.9	452.7	464.5	475.5	488.5	487.2	487.3	485.5	471.2	456.4	422.4	375.4	323.4	280.6	245.3	210.7	184.9	161.5	139.2	105.1	82.51	69.52	57.08	48.26	39.73	33.43	29.14	38.73	117.2	311.5	628.8	1790	995.8	22.76	4.944	4.576	4.556	4.265	4.460	4.392	4.219	3.963	4.279	4.160	3.820	3.761	3.480	3.495	3.457	3.251	3.104	3.218	3.181	3.049	3.019	2.788	2.912
480.0	315.1	419.7	539.3	1290	2241	937.7	824.5	856.3	857.8	843.6	839.0	796.4	720.7	653.6	574.0	508.3	463.9	435.8	421.3	408.7	405.0	404.0	414.8	428.1	437.6	440.0	436.6	433.4	426.6	417.5	384.9	344.4	298.6	260.7	227.6	198.0	172.0	148.0	136.2	112.0	84.51	70.62	60.47	49.83	41.91	34.88	29.09	26.82	40.62	81.04	155.4	827.8	2021	234.8	17.39	4.950	4.690	4.206	4.025	3.878	3.835	3.707	3.787	3.639	3.520	3.483	3.309	3.172	3.119	3.196	2.930	2.694	2.959	2.910	2.876	2.566	2.585
485.0	271.2	413.2	496.9	797.4	2316	1372	765.7	810.6	795.3	795.3	782.5	733.1	672.4	599.2	533.0	473.1	430.4	408.9	388.5	377.1	373.0	369.0	379.3	389.7	396.1	399.3	399.9	398.4	394.5	379.7	353.2	321.2	281.4	245.4	217.2	187.4	164.7	141.9	127.1	115.8	91.45	71.35	60.51	51.84	44.14	36.75	30.83	24.47	24.81	30.89	45.03	212.1	1189	1727	211.1	11.96	4.784	4.101	4.081	3.851	3.723	3.642	3.445	3.295	3.340	3.283	3.210	3.293	3.009	2.870	2.871	2.587	2.572	2.672	2.720	2.407	2.514
490.0	236.8	400.6	451.6	570.2	1537	2225	890.8	725.5	722.0	724.8	705.7	668.2	610.2	547.5	483.6	432.5	392.6	369.4	351.4	341.1	333.4	334.2	341.2	348.1	353.1	355.4	354.8	353.6	351.8	339.6	319.2	290.0	257.6	228.0	202.3	177.0	154.9	132.4	116.9	108.5	97.43	77.82	62.76	53.71	45.85	39.13	33.20	26.92	22.75	20.81	21.94	57.35	299.2	913.6	1452	760.2	19.10	4.979	4.189	3.711	3.647	3.385	3.336	3.082	3.135	2.964	2.931	2.934	2.650	2.559	2.507	2.426	2.491	2.445	2.256	2.192	2.533
495.0	202.2	347.0	450.1	470.7	798.9	2296	1595	663.4	653.9	647.4	629.6	602.3	550.3	489.6	433.8	386.2	352.6	328.4	315.0	305.1	295.3	294.5	300.6	306.2	308.3	311.5	311.0	311.3	310.7	300.7	286.3	260.0	232.7	206.8	184.2	163.4	144.2	123.8	109.9	97.90	91.62	84.54	65.60	53.99	47.64	40.35	34.53	28.51	23.37	19.76	17.83	23.78	75.81	212.7	556.5	1599	1032	26.30	4.552	3.769	3.476	3.077	3.076	2.981	2.874	2.609	2.493	2.869	2.449	2.553	2.377	2.109	2.323	2.202	2.000	2.185	2.331
500.0	180.3	299.6	458.4	435.8	531.1	1678	2371	754.5	599.0	595.1	580.8	540.9	503.9	451.9	396.9	349.3	318.3	298.9	285.5	275.3	268.5	264.0	271.2	276.4	278.0	282.9	282.3	279.9	278.0	272.0	259.0	236.9	212.3	190.5	172.2	151.0	135.1	118.1	102.4	91.28	84.49	82.33	70.74	55.59	47.00	40.71	35.09	29.12	25.32	20.55	17.18	16.43	26.55	55.90	135.8	703.5	1788	747.0	20.05	4.149	3.570	3.010	2.823	2.724	2.751	2.384	2.514	2.499	2.208	2.416	2.243	1.971	2.131	1.966	1.944	2.245	1.941
505.0	162.7	273.4	407.8	420.0	450.4	989.9	2737	1163	547.4	540.0	532.4	500.5	454.8	415.3	361.4	319.7	286.2	271.4	260.0	250.0	243.8	240.8	245.8	248.7	250.8	256.6	254.6	253.6	250.7	244.2	234.5	215.1	197.4	174.2	157.4	139.8	126.1	108.5	98.19	86.35	77.47	75.68	71.32	57.19	46.61	39.49	34.79	29.19	25.91	21.40	17.85	15.04	16.24	20.97	38.52	176.2	947.1	1674	234.8	13.12	3.577	2.945	2.924	2.532	2.711	2.298	2.315	2.130	2.153	2.301	1.897	1.883	1.898	1.914	1.785	2.000	1.810
510.0	139.0	230.8	334.9	402.5	392.7	544.7	1965	2263	651.3	479.5	468.4	441.8	405.4	365.6	318.8	283.3	253.4	238.6	229.1	221.8	213.5	212.2	212.1	214.5	217.4	219.9	219.3	218.5	217.1	213.1	204.1	188.8	173.0	154.8	140.8	126.1	114.1	99.61	89.35	79.08	70.53	65.77	64.09	59.49	48.03	38.92	34.60	29.51	25.87	22.09	18.59	15.83	14.55	13.80	16.90	46.82	234.3	774.8	1182	652.8	18.79	3.674	2.739	2.472	2.330	2.066	2.017	1.866	1.869	1.972	1.826	1.763	1.664	1.559	1.676	1.692	1.537
515.0	118.0	190.8	260.2	382.3	369.8	394.2	867.9	2746	1384	438.0	408.2	388.5	349.1	317.1	277.6	248.2	223.3	209.2	198.3	190.3	185.7	181.9	182.0	181.9	186.5	187.9	187.5	187.7	187.7	182.9	177.8	163.6	147.8	135.1	121.9	110.9	101.0	90.91	79.35	71.97	65.39	58.73	53.73	54.67	49.81	40.26	33.87	29.19	25.93	21.70	19.29	17.16	14.16	12.63	12.83	18.17	59.28	179.4	401.5	1209	854.1	26.33	3.056	2.703	2.189	1.882	1.861	1.659	1.583	1.616	1.594	1.511	1.430	1.504	1.429	1.436	1.411
520.0	107.3	173.4	239.4	332.6	364.0	331.3	467.9	2130	2404	506.1	364.3	344.5	315.2	283.5	252.8	220.8	199.2	186.2	175.6	171.8	164.5	161.6	162.7	162.8	163.7	164.9	165.0	165.1	166.9	163.7	156.8	147.9	132.5	121.6	110.9	101.0	90.90	82.48	73.63	66.83	60.85	54.99	49.88	48.26	48.40	41.62	33.31	27.70	24.44	21.49	19.00	16.88	14.52	12.58	11.61	12.03	20.07	46.42	97.08	496.9	1329	260.0	18.92	2.465	2.245	1.928	1.856	1.658	1.513	1.420	1.454	1.419	1.314	1.203	1.168	1.141	1.186
525.0	96.68	153.8	202.8	271.2	363.9	301.2	337.4	1153	3110	930.8	331.1	312.7	279.9	261.2	226.3	200.5	182.2	168.4	159.6	155.5	148.5	143.7	146.1	145.5	147.0	145.6	147.7	146.5	148.0	146.1	139.7	132.1	119.6	109.3	101.7	91.59	82.25	75.34	68.03	61.21	55.11	51.15	45.82	43.45	43.81	42.30	34.79	26.56	23.93	21.34	18.90	15.95	14.70	12.59	11.07	10.86	11.90	16.78	27.02	121.7	649.6	1152	231.7	10.31	2.361	1.973	1.726	1.527	1.416	1.406	1.276	1.379	1.186	1.191	1.180	1.125	1.170
530.0	89.16	140.0	177.1	218.1	314.2	300.9	276.2	496.0	2322	2294	436.4	276.1	249.0	222.8	196.4	173.8	158.0	147.7	139.9	132.7	127.8	125.7	125.4	125.1	126.4	125.4	127.4	125.9	128.0	126.1	121.8	113.9	104.0	95.94	87.99	80.18	73.46	67.21	60.40	54.70	50.70	45.80	42.32	38.61	37.47	38.32	34.86	27.10	22.74	19.67	17.62	15.46	14.02	12.88	11.36	10.32	9.584	9.852	11.12	31.84	158.7	530.4	828.6	481.0	17.75	2.218	1.694	1.444	1.374	1.290	1.199	1.126	1.059	1.007	1.023	1.062	1.026
535.0	76.10	114.9	151.1	180.9	229.4	310.5	240.6	296.3	899.6	3043	1169	245.5	218.1	190.5	169.6	148.9	139.2	125.4	120.1	114.7	109.5	106.6	105.3	106.0	106.5	106.2	107.1	107.7	107.2	107.1	102.8	96.67	89.10	81.84	76.07	69.70	63.18	57.57	52.74	48.42	44.22	40.05	36.95	33.87	32.11	31.22	31.62	28.34	22.43	19.03	16.16	14.63	13.11	12.35	11.62	10.15	8.691	7.874	7.384	11.90	39.15	122.1	268.2	820.8	589.8	23.93	2.010	1.425	1.286	1.127	1.110	0.913	0.837	0.898	0.898	0.946	0.834
540.0	70.45	97.40	132.1	153.9	189.1	279.8	235.2	234.0	382.0	2294	2130	263.2	192.3	167.6	150.9	132.7	123.9	109.3	107.7	100.6	97.82	93.77	93.23	92.59	92.90	92.57	92.76	93.50	92.68	93.13	89.83	85.06	77.67	71.96	66.92	60.51	56.48	50.80	46.91	43.81	40.20	35.60	33.64	31.05	28.62	27.03	27.38	27.42	22.69	17.13	15.06	13.58	12.18	11.22	10.32	10.31	8.696	7.402	6.843	7.023	12.54	30.42	63.97	325.1	878.5	253.7	16.14	1.582	1.305	1.093	0.961	1.078	0.910	0.741	0.978	0.704	0.773
545.0	62.59	97.51	123.3	141.6	155.8	241.8	249.2	204.3	240.9	1110	3078	610.0	170.1	150.7	133.0	119.2	108.1	100.8	93.49	89.94	86.15	82.54	82.27	82.13	81.10	79.99	81.08	81.43	82.18	80.70	78.50	74.29	68.91	64.35	59.46	52.73	50.87	46.21	42.47	39.30	36.64	32.75	30.47	28.23	26.23	24.07	23.56	24.34	22.53	17.11	14.21	13.06	11.05	10.42	9.619	9.811	8.519	7.098	5.909	6.055	6.288	9.844	17.10	78.60	412.1	777.3	210.2	7.302	1.372	1.057	0.988	0.839	0.857	0.797	0.846	0.652	0.726
550.0	48.60	75.37	102.1	110.9	128.1	169.2	242.1	183.4	175.4	395.2	2161	1940	194.5	127.5	114.0	98.99	89.73	82.96	76.99	74.47	71.78	68.08	69.40	67.85	67.09	68.11	67.62	66.97	68.20	67.41	65.03	61.26	56.81	53.48	48.99	44.44	42.11	39.09	36.28	33.21	30.52	27.48	25.82	24.03	22.45	20.73	19.57	19.11	19.75	17.29	13.71	11.80	10.28	9.269	8.649	8.412	7.819	7.076	5.702	5.314	4.644	4.956	6.188	19.87	98.63	330.9	549.5	277.5	16.39	1.330	0.919	0.837	0.703	0.706	0.742	0.675	0.613
555.0	49.29	68.15	83.40	93.90	102.0	116.4	194.0	192.3	140.9	196.0	728.2	2737	760.8	109.3	92.41	79.80	73.03	66.79	63.97	59.12	57.17	55.14	56.17	54.20	54.81	55.06	53.85	53.78	54.62	54.88	52.50	48.97	46.50	43.03	40.33	36.00	34.40	32.55	29.42	27.09	25.12	22.54	21.31	19.97	18.78	18.09	16.53	15.25	15.11	15.48	12.79	10.35	9.094	8.253	7.476	7.152	6.494	6.454	5.753	4.986	3.828	3.794	3.346	6.385	23.71	75.64	167.3	489.1	264.7	22.56	1.101	0.852	0.673	0.645	0.609	0.608	0.558
560.0	39.49	62.05	70.68	82.85	93.82	95.00	144.0	202.8	129.1	138.9	258.7	1940	1569	132.5	78.77	68.66	61.50	57.51	53.49	50.41	49.70	47.53	47.03	44.96	46.07	45.69	44.70	45.30	45.97	45.92	44.79	40.44	39.08	35.85	34.20	31.00	29.14	26.81	25.03	22.42	21.24	19.58	18.41	17.45	16.49	15.40	13.90	12.56	12.07	13.10	12.10	10.09	8.394	7.371	7.151	6.219	5.778	5.762	5.518	4.653	3.445	3.100	2.896	3.292	6.863	18.34	39.22	183.9	499.8	231.6	13.41	0.848	0.690	0.603	0.631	0.523	0.457
565.0	42.81	50.78	65.79	69.66	81.59	78.89	106.2	183.1	129.7	112.7	142.9	840.6	2522	347.3	68.11	59.83	52.95	49.02	44.96	42.19	42.16	40.79	39.04	39.51	39.89	37.54	37.56	37.97	38.39	38.60	37.60	34.84	32.61	29.97	29.61	26.89	24.78	22.82	21.56	19.74	18.49	17.46	15.89	15.42	14.13	13.30	11.96	11.48	10.67	10.42	10.51	10.01	7.422	6.751	6.179	5.708	5.400	4.937	4.632	4.465	3.536	2.813	2.890	2.290	3.012	5.627	10.10	43.86	223.3	481.5	169.3	5.444	0.692	0.645	0.581	0.454	0.419
570.0	43.72	53.36	61.77	62.81	63.02	67.33	79.38	135.9	148.1	100.5	103.6	275.6	1700	1449	95.63	48.47	43.43	40.31	37.93	34.71	33.96	32.73	31.97	32.13	31.51	31.54	30.32	30.59	30.94	30.45	30.37	28.71	26.37	24.29	23.34	21.94	20.32	18.91	17.52	16.16	15.06	14.19	12.92	12.52	11.52	10.94	10.04	9.393	8.563	8.129	8.229	8.478	7.165	6.196	5.195	4.937	4.549	4.047	3.798	3.645	3.614	2.896	2.369	1.984	2.162	2.455	3.524	11.02	52.76	188.6	329.3	151.3	14.84	0.792	0.515	0.433	0.361
575.0	41.83	57.13	58.60	54.74	54.01	60.10	63.01	88.15	156.4	103.6	88.58	127.5	529.0	2100	483.4	42.04	34.58	31.98	30.87	27.98	27.35	25.90	25.65	25.05	24.68	24.88	24.28	24.38	24.35	23.61	23.70	22.84	21.19	19.59	18.57	17.21	16.04	15.08	14.32	12.88	12.36	11.22	10.10	9.767	9.393	9.126	8.262	7.596	6.812	6.790	6.258	6.609	6.831	5.552	4.600	4.100	3.833	3.579	3.320	3.021	2.889	2.955	2.204	1.796	1.665	1.818	1.921	3.484	12.81	42.88	94.53	274.4	233.1	18.98	0.754	0.426	0.337
580.0	40.24	49.88	62.34	54.14	46.87	47.14	55.04	68.10	138.4	118.2	88.28	91.74	178.5	1428	1104	55.48	30.20	27.30	27.22	23.70	23.61	21.40	21.59	21.19	20.68	20.10	20.03	20.42	20.60	20.11	19.19	18.80	17.21	16.58	15.53	14.24	13.79	12.41	12.12	11.02	10.29	9.511	9.062	8.542	8.078	7.486	7.044	6.408	6.048	5.590	5.200	5.113	5.591	5.299	4.309	3.909	3.272	3.159	2.693	2.784	2.544	2.425	2.307	1.810	1.503	1.355	1.534	1.870	3.938	10.33	22.07	99.59	308.1	171.6	10.20	0.564	0.337
585.0	43.35	49.95	52.62	48.83	41.85	47.63	51.03	58.60	100.5	142.1	86.80	81.91	93.57	562.1	1819	119.5	26.91	24.55	22.52	20.28	19.82	19.27	17.74	18.27	17.95	17.52	17.75	16.70	17.28	18.00	15.95	15.46	14.70	14.26	13.18	12.10	11.58	10.74	9.972	8.971	8.929	8.324	7.937	7.280	6.954	6.422	6.189	5.605	5.144	4.719	4.397	4.439	4.567	4.829	4.145	3.709	3.226	2.717	2.628	2.404	2.149	2.053	2.324	1.991	1.585	1.261	1.189	1.480	1.713	3.156	5.630	23.59	128.3	291.4	110.8	3.748	0.380
590.0	37.93	49.47	50.44	44.28	38.57	41.26	46.59	50.15	71.68	132.6	104.5	79.43	74.34	173.9	1184	901.7	45.28	20.48	17.97	16.52	15.81	15.42	14.59	15.07	14.33	14.02	14.06	13.95	14.33	14.17	13.29	13.01	12.15	11.58	10.44	9.875	9.223	8.945	8.209	7.420	7.155	6.764	6.459	5.852	5.660	5.440	5.111	4.752	4.341	4.014	3.692	3.503	3.352	3.745	3.835	3.512	2.933	2.492	2.195	1.910	1.980	1.749	1.916	1.820	1.704	1.179	1.164	1.175	1.117	1.399	1.883	5.845	30.03	109.1	195.5	112.0	13.13
595.0	37.81	47.54	46.98	40.54	37.05	37.95	40.01	44.13	57.79	94.23	126.6	78.52	66.83	76.58	343.3	1378	271.8	17.81	14.76	13.42	12.83	12.17	11.25	12.10	11.78	12.21	10.79	11.30	11.03	11.56	10.85	10.31	9.534	9.250	8.667	7.843	7.229	6.812	6.568	5.873	5.723	5.131	5.125	4.823	4.629	4.212	4.217	3.883	3.676	3.212	3.043	2.806	2.470	2.715	3.051	3.139	2.538	2.117	1.918	1.634	1.582	1.548	1.388	1.443	1.585	1.358	1.293	1.034	0.917	1.027	0.955	1.658	7.189	24.73	53.54	154.7	149.2
600.0	40.49	43.87	42.99	38.01	32.19	34.56	39.48	43.06	52.20	74.33	131.4	86.57	66.01	52.78	104.7	947.5	747.9	26.84	12.62	12.27	11.02	9.784	9.657	9.903	9.646	9.697	9.327	9.408	8.766	9.031	8.889	8.954	7.893	7.653	7.089	6.620	6.038	5.584	5.321	4.842	4.781	4.299	4.117	3.867	3.928	3.606	3.548	3.168	3.163	2.631	2.376	2.392	2.078	2.222	2.327	2.810	2.573	2.020	1.729	1.538	1.435	1.224	1.175	1.160	1.245	1.478	1.250	1.101	0.817	0.715	0.779	0.885	2.026	5.854	12.40	52.25	174.4
605.0	37.45	47.74	46.11	34.26	31.50	34.55	33.33	40.58	49.09	64.54	121.6	101.8	64.65	48.92	48.57	369.1	1212	80.08	11.22	10.24	9.350	8.921	8.590	8.407	8.309	8.215	7.903	7.961	7.809	8.078	7.479	7.027	6.716	6.011	5.769	5.439	5.201	4.662	4.726	4.068	4.185	3.959	3.517	3.570	3.322	3.003	3.209	2.769	2.847	2.212	2.207	2.077	1.919	1.774	1.820	2.102	2.380	1.904	1.606	1.381	1.244	1.113	1.032	1.017	1.098	1.350	1.062	1.028	0.774	0.609	0.634	0.678	0.901	1.557	3.069	12.32	67.39
610.0	35.96	46.16	41.02	35.24	29.36	29.86	32.26	38.77	47.80	61.87	93.70	116.9	70.36	47.47	34.92	106.4	837.8	564.7	23.16	8.630	8.080	7.924	6.982	6.826	6.811	6.524	6.409	6.287	6.193	6.556	5.961	5.732	5.462	5.218	4.778	4.414	4.086	3.868	3.733	3.387	3.137	3.103	2.917	2.891	2.595	2.428	2.484	2.194	2.091	1.838	1.775	1.614	1.496	1.444	1.545	1.499	1.888	1.889	1.493	1.218	1.130	0.965	0.851	0.945	0.926	0.992	1.054	0.977	0.869	0.593	0.679	0.524	0.570	0.719	0.977	3.019	15.60
615.0	29.47	35.98	37.04	25.60	28.17	28.08	28.57	34.62	44.11	57.68	72.99	114.8	79.25	45.68	31.05	41.92	246.4	1001	84.43	7.799	6.719	6.420	5.770	5.377	5.393	5.129	4.982	5.020	5.103	5.089	4.839	4.765	4.425	4.079	3.609	3.608	3.190	3.192	2.895	2.572	2.493	2.554	2.275	2.391	1.984	1.867	1.850	1.815	1.661	1.613	1.364	1.298	1.176	1.226	1.249	1.117	1.174	1.329	1.527	1.063	0.918	0.772	0.765	0.845	0.830	0.740	0.798	0.831	0.879	0.681	0.581	0.585	0.424	0.370	0.446	0.947	3.714
620.0	32.66	37.37	36.20	28.88	23.19	25.60	28.17	36.04	42.01	53.46	64.35	96.22	90.81	46.00	31.65	26.15	70.77	724.7	526.9	13.36	5.788	5.417	4.590	4.556	4.789	4.306	4.116	4.150	4.225	4.251	3.830	3.731	3.784	3.457	3.316	3.117	2.662	2.575	2.337	2.265	2.079	2.068	1.877	1.926	1.686	1.608	1.590	1.515	1.467	1.269	1.203	1.022	1.061	1.027	1.046	1.009	1.052	1.104	1.205	1.005	0.909	0.743	0.692	0.619	0.716	0.670	0.832	0.707	0.882	0.755	0.602	0.495	0.347	0.362	0.418	0.440	1.007
625.0	28.20	34.11	33.76	23.65	25.39	23.76	26.50	35.17	39.79	50.53	60.73	79.67	95.68	48.49	29.64	21.79	27.82	295.5	904.3	53.25	4.979	4.516	4.310	4.180	3.791	3.686	3.266	3.402	3.591	3.709	3.243	3.269	3.188	2.718	2.748	2.700	2.365	2.152	1.863	1.874	1.635	1.666	1.639	1.472	1.492	1.470	1.298	1.342	1.255	1.053	0.988	0.919	0.982	0.820	0.808	0.933	0.849	0.754	1.000	0.959	0.841	0.710	0.729	0.489	0.575	0.603	0.594	0.544	0.680	0.754	0.594	0.405	0.383	0.359	0.456	0.305	0.437
630.0	28.04	32.19	31.57	24.25	21.52	21.73	25.06	34.11	37.42	45.17	57.43	67.70	86.46	62.53	30.98	21.30	18.70	81.32	661.6	419.3	11.89	3.903	3.710	3.370	3.178	3.066	2.859	2.786	2.847	2.882	2.709	2.529	2.513	2.082	2.093	2.093	2.022	1.802	1.597	1.595	1.352	1.299	1.303	1.283	1.251	1.184	1.077	1.051	0.958	0.931	0.799	0.812	0.769	0.637	0.660	0.679	0.639	0.660	0.679	0.791	0.791	0.707	0.551	0.462	0.458	0.473	0.505	0.519	0.543	0.610	0.619	0.519	0.407	0.295	0.289	0.332	0.272
635.0	33.32	36.69	29.56	26.10	25.60	22.99	26.18	31.78	37.23	44.04	54.21	61.00	66.94	74.83	36.77	24.67	19.91	30.39	198.7	783.4	66.87	3.864	3.033	2.841	2.676	2.473	2.393	2.182	2.486	2.228	2.069	1.992	1.951	1.535	1.667	1.569	1.565	1.457	1.188	1.267	1.011	1.047	1.046	1.052	1.023	0.819	0.826	0.756	0.726	0.671	0.647	0.689	0.607	0.590	0.545	0.467	0.586	0.603	0.640	0.559	0.805	0.631	0.518	0.439	0.418	0.331	0.442	0.432	0.435	0.426	0.601	0.466	0.324	0.255	0.251	0.207	0.174
640.0	25.05	29.01	29.87	27.11	25.84	25.69	25.31	29.91	35.01	44.43	53.00	58.59	58.03	72.76	45.89	27.87	23.53	20.80	56.43	607.6	373.7	6.274	2.636	2.715	2.339	2.187	1.920	1.915	1.903	1.908	1.684	1.625	1.418	1.368	1.382	1.298	1.253	1.177	1.004	0.885	0.920	0.920	0.820	0.798	0.862	0.821	0.713	0.760	0.591	0.601	0.521	0.477	0.545	0.479	0.400	0.533	0.504	0.462	0.484	0.437	0.570	0.617	0.618	0.506	0.382	0.360	0.377	0.417	0.385	0.391	0.452	0.557	0.552	0.256	0.321	0.224	0.199
645.0	24.18	33.02	36.96	25.20	24.11	26.25	25.26	28.68	34.92	45.44	50.77	58.19	55.65	65.16	56.46	31.43	26.46	20.05	24.16	268.6	670.4	36.42	2.721	2.500	2.038	1.906	1.717	1.503	1.628	1.680	1.672	1.377	1.347	1.185	1.132	1.164	0.942	0.932	0.881	0.723	0.647	0.778	0.777	0.652	0.721	0.633	0.600	0.628	0.502	0.558	0.491	0.489	0.496	0.464	0.487	0.488	0.448	0.411	0.368	0.419	0.482	0.488	0.554	0.468	0.387	0.363	0.444	0.352	0.331	0.361	0.418	0.502	0.496	0.326	0.292	0.300	0.227
650.0	25.72	32.51	35.87	25.43	25.02	26.43	25.91	29.53	35.16	42.68	50.79	56.23	57.01	57.48	62.07	34.63	26.81	21.18	17.20	81.18	664.2	183.5	2.960	2.298	1.981	1.664	1.460	1.399	1.509	1.489	1.191	1.203	1.257	1.096	0.807	1.003	0.824	0.920	0.824	0.610	0.585	0.612	0.645	0.624	0.577	0.532	0.638	0.533	0.389	0.475	0.416	0.446	0.375	0.413	0.376	0.328	0.430	0.365	0.353	0.405	0.452	0.461	0.532	0.425	0.380	0.348	0.388	0.378	0.344	0.368	0.404	0.455	0.438	0.510	0.357	0.275	0.312
