Sample:	'1
File name:	G2025070107ÃÏ‘µ”ÍÀÆπ‹Õ¯.FD3
Run date:	'14:26:41, 07/03/2025
Operator:	Administrator
Comment:	'

Instrument
Model:	F-2700 FL Spectrophotometer
Serial number:	23B8-004
ROM Version:	4J14000 07

Instrument parameters
Measurement type:	3-D scan
Data mode:	Fluorescence
EX  Start WL:	220.0 nm
EX  End WL:	600.0 nm
EX Sampling interval:	5.0 nm
EM  Start WL:	230.0 nm
EM  End WL:	650.0 nm
EM Sampling interval:	5.0 nm
Scan speed:	12000 nm/min
EX Slit:	5.0 nm
EM Slit:	5.0 nm
PMT Voltage:	700 V
Response:	Auto 
Corrected spectra:	Off
Contour interval:	50.000

Peak integration
Integration method:	Rectangular
Sensitivity:	1
Threshold:	1.000

Peaks
No.	ApexEX/EM(nm)	Height(Data)
1	225.0/300.0	712.0
2	230.0/345.0	1487
3	235.0/260.0	317.7
4	240.0/265.0	403.4
5	240.0/380.0	1286
6	245.0/270.0	475.6
7	250.0/275.0	615.9
8	250.0/455.0	1878
9	255.0/285.0	634.3
10	255.0/560.0	174.8
11	260.0/290.0	613.7
12	260.0/575.0	128.3
13	265.0/295.0	723.7
14	265.0/585.0	106.6
15	270.0/300.0	961.5
16	270.0/600.0	93.13
17	275.0/305.0	954.5
18	275.0/610.0	76.75
19	280.0/625.0	64.58
20	285.0/320.0	831.8
21	285.0/635.0	46.82
22	290.0/325.0	742.0
23	305.0/345.0	489.3
24	310.0/350.0	410.6
25	315.0/355.0	392.8
26	320.0/365.0	378.7
27	325.0/370.0	358.6
28	330.0/375.0	352.5
29	335.0/380.0	349.5
30	340.0/390.0	318.5
31	365.0/420.0	263.8
32	425.0/500.0	35.50
33	440.0/520.0	20.59
34	455.0/540.0	11.94
35	475.0/365.0	5.121
36	480.0/360.0	5.271
37	485.0/265.0	2.389
38	495.0/270.0	2.587
39	505.0/275.0	3.804
40	505.0/460.0	8.736
41	510.0/280.0	4.201
42	515.0/285.0	4.033
43	530.0/290.0	3.997
44	540.0/295.0	5.355
45	545.0/300.0	5.578
46	550.0/305.0	6.008
47	560.0/310.0	5.286
48	570.0/315.0	5.253
49	575.0/320.0	4.968
50	585.0/325.0	5.236

Data points
	220.0	225.0	230.0	235.0	240.0	245.0	250.0	255.0	260.0	265.0	270.0	275.0	280.0	285.0	290.0	295.0	300.0	305.0	310.0	315.0	320.0	325.0	330.0	335.0	340.0	345.0	350.0	355.0	360.0	365.0	370.0	375.0	380.0	385.0	390.0	395.0	400.0	405.0	410.0	415.0	420.0	425.0	430.0	435.0	440.0	445.0	450.0	455.0	460.0	465.0	470.0	475.0	480.0	485.0	490.0	495.0	500.0	505.0	510.0	515.0	520.0	525.0	530.0	535.0	540.0	545.0	550.0	555.0	560.0	565.0	570.0	575.0	580.0	585.0	590.0	595.0	600.0
230.0	61.56	882.5	1996	538.8	22.75	7.061	5.676	5.153	4.562	3.638	3.236	3.202	2.815	2.281	2.084	1.768	1.506	1.478	1.226	1.118	0.999	1.012	1.000	0.882	0.846	0.822	0.743	0.624	0.764	0.646	0.639	0.619	0.565	0.585	0.525	0.525	0.490	0.490	0.445	0.432	0.475	0.653	0.580	0.462	0.348	0.427	1.417	5.524	8.506	5.824	2.066	0.540	0.352	0.322	0.280	0.309	0.335	0.288	0.292	0.292	0.306	0.332	0.312	0.329	0.325	0.331	0.287	0.309	0.305	0.316	0.301	0.293	0.318	0.309	0.328	0.308	0.304
235.0	104.7	261.2	1348	2060	460.4	31.63	6.704	5.831	4.938	3.762	3.439	3.886	3.240	2.686	2.175	1.914	1.504	1.474	1.327	1.207	1.114	1.037	0.975	0.933	0.798	0.890	0.799	0.691	0.798	0.675	0.721	0.678	0.564	0.513	0.490	0.535	0.495	0.553	0.539	0.368	0.455	0.472	0.593	0.726	0.594	0.475	0.606	1.639	3.484	6.205	8.467	8.788	3.572	0.849	0.303	0.375	0.339	0.328	0.286	0.351	0.344	0.345	0.319	0.318	0.323	0.307	0.294	0.278	0.301	0.302	0.325	0.296	0.338	0.351	0.382	0.365	0.332
240.0	171.1	155.6	439.9	1944	2173	335.1	15.59	6.965	4.779	5.305	3.970	3.685	3.442	2.435	1.969	1.718	1.596	1.411	1.411	1.331	1.184	0.981	0.899	0.883	0.809	0.871	0.800	0.665	0.741	0.711	0.655	0.646	0.619	0.604	0.483	0.520	0.499	0.497	0.506	0.427	0.511	0.476	0.476	0.584	0.826	0.781	0.576	0.755	1.057	2.115	5.240	12.18	13.20	8.532	2.819	0.577	0.361	0.306	0.296	0.306	0.309	0.362	0.274	0.361	0.338	0.327	0.319	0.298	0.310	0.340	0.319	0.323	0.335	0.290	0.326	0.381	0.328
245.0	155.6	222.7	160.6	722.7	2648	2142	233.5	9.601	5.279	5.403	4.353	3.651	3.758	2.690	2.242	1.895	1.723	1.528	1.235	1.189	1.083	1.051	1.030	0.956	0.836	0.868	0.747	0.712	0.635	0.667	0.554	0.603	0.602	0.545	0.550	0.487	0.507	0.515	0.487	0.510	0.475	0.443	0.409	0.408	0.662	0.850	0.887	0.784	0.607	0.723	1.432	4.473	10.81	16.76	15.11	7.558	1.851	0.471	0.321	0.327	0.295	0.320	0.321	0.327	0.339	0.316	0.276	0.308	0.367	0.351	0.334	0.359	0.315	0.278	0.349	0.343	0.304
250.0	70.19	171.4	236.5	240.6	933.3	2574	2842	813.9	35.12	6.902	5.349	4.642	3.627	3.015	2.613	2.090	1.749	1.767	1.405	1.233	1.217	1.120	1.024	0.894	0.926	0.893	0.816	0.849	0.693	0.705	0.688	0.614	0.617	0.544	0.535	0.485	0.466	0.492	0.515	0.492	0.511	0.443	0.453	0.398	0.486	0.549	0.612	0.912	1.064	0.805	0.763	1.341	2.867	5.926	10.73	15.65	19.09	15.58	7.693	1.943	0.427	0.389	0.340	0.333	0.325	0.288	0.319	0.366	0.332	0.326	0.311	0.355	0.392	0.322	0.300	0.345	0.338
255.0	41.82	61.73	203.4	306.1	283.6	720.3	2800	4436	275.3	31.07	6.336	5.860	4.199	3.561	2.773	2.489	2.248	1.676	1.416	1.458	1.265	1.115	0.986	1.017	0.861	0.948	0.970	0.796	0.857	0.743	0.761	0.591	0.572	0.496	0.624	0.483	0.482	0.531	0.481	0.466	0.576	0.471	0.442	0.437	0.437	0.424	0.425	0.445	0.645	0.984	1.614	1.375	1.206	1.674	2.762	4.144	8.818	19.47	29.57	25.30	12.27	1.931	0.469	0.378	0.357	0.410	0.330	0.334	0.366	0.328	0.304	0.328	0.367	0.367	0.314	0.385	0.360
260.0	42.45	35.92	85.16	317.7	297.1	235.2	976.1	4378	4437	229.0	16.30	7.220	5.385	3.881	3.197	2.619	2.419	1.635	1.422	1.606	1.440	1.368	1.090	1.070	0.936	0.929	0.870	0.863	0.652	0.728	0.687	0.695	0.618	0.588	0.663	0.529	0.554	0.501	0.533	0.457	0.472	0.511	0.403	0.490	0.392	0.400	0.403	0.367	0.444	0.591	1.207	1.991	1.748	1.226	1.129	1.331	2.465	5.887	15.06	29.71	32.85	22.72	7.958	0.963	0.466	0.423	0.350	0.395	0.315	0.354	0.344	0.282	0.350	0.392	0.328	0.363	0.406
265.0	40.14	31.14	38.85	172.1	403.4	253.5	292.7	1699	5891	4229	169.1	10.94	6.534	4.363	3.708	3.076	2.429	2.253	1.785	1.700	1.221	1.322	1.125	1.091	0.913	0.863	0.887	0.953	0.754	0.833	0.767	0.643	0.714	0.646	0.539	0.585	0.544	0.484	0.472	0.433	0.429	0.463	0.431	0.448	0.474	0.483	0.398	0.432	0.402	0.361	0.633	1.154	1.956	2.389	1.629	0.996	1.058	1.899	4.015	9.605	22.25	39.99	32.12	19.35	4.268	0.575	0.370	0.392	0.360	0.404	0.358	0.335	0.356	0.362	0.305	0.344	0.354
270.0	80.32	68.10	55.39	88.56	269.8	475.6	315.3	474.5	2067	5391	4807	708.2	32.65	6.680	5.038	4.017	3.076	2.450	1.987	1.867	1.488	1.504	1.285	1.280	0.993	1.078	0.945	0.870	0.883	0.880	0.833	0.733	0.768	0.712	0.622	0.667	0.622	0.564	0.585	0.516	0.500	0.563	0.482	0.506	0.531	0.512	0.491	0.477	0.467	0.414	0.471	0.616	1.074	1.722	2.329	2.587	2.175	1.543	1.586	2.717	5.728	12.46	20.68	34.13	34.49	34.73	14.12	4.090	0.580	0.458	0.468	0.394	0.382	0.376	0.387	0.365	0.392
275.0	206.7	199.7	137.1	96.48	165.4	350.2	615.9	357.8	538.8	1438	4950	8498	939.2	24.85	6.784	5.137	3.614	3.322	2.295	2.070	1.687	1.379	1.357	1.493	1.035	1.111	1.082	0.877	0.944	1.051	0.836	0.832	0.785	1.049	0.965	0.860	0.669	0.648	0.702	0.681	0.615	0.620	0.727	0.752	0.675	0.811	0.671	0.801	0.656	0.583	0.518	0.577	0.791	1.080	1.290	1.981	3.090	3.804	2.595	1.718	1.985	3.316	5.132	8.414	12.00	28.46	53.46	33.04	21.73	4.108	0.568	0.461	0.355	0.452	0.426	0.370	0.403
280.0	344.8	331.2	229.4	118.7	143.0	235.3	508.9	603.7	282.2	409.5	1553	7740	7561	139.2	13.24	6.571	4.385	3.443	2.807	2.179	1.672	1.700	1.459	1.446	1.385	1.184	1.065	1.114	1.035	0.977	0.843	1.011	1.038	1.104	1.194	0.931	1.075	0.851	0.930	0.836	0.784	0.823	0.826	0.924	0.870	1.203	1.079	1.088	1.001	0.657	0.649	0.578	0.682	0.920	1.045	1.308	1.917	3.108	4.201	3.428	1.737	1.491	1.809	2.617	3.394	7.577	19.97	40.05	62.53	31.56	15.79	1.727	0.432	0.466	0.451	0.379	0.421
285.0	499.0	481.3	322.7	151.7	138.3	193.4	309.5	634.3	480.8	224.8	464.9	2617	9270	5680	99.36	9.933	5.781	4.106	3.116	2.664	2.129	1.858	1.644	1.543	1.451	1.360	1.080	1.221	1.062	0.836	0.799	0.965	1.062	1.198	1.358	1.201	1.124	1.114	0.940	0.899	0.945	0.955	1.000	1.020	1.308	1.542	1.518	1.399	1.204	0.873	0.762	0.763	0.695	0.869	0.974	1.158	1.343	1.714	2.747	4.033	3.956	2.324	1.249	1.354	1.574	2.631	5.275	11.41	28.62	52.35	65.13	27.33	8.803	0.877	0.645	0.453	0.431
290.0	601.6	596.9	406.1	196.1	144.8	178.9	207.4	337.4	613.7	488.3	283.5	746.4	2971	6881	6273	417.3	21.05	5.719	4.185	3.380	2.634	2.162	1.881	1.614	1.496	1.291	1.201	1.053	1.174	1.022	0.954	0.988	1.097	1.365	1.549	1.444	1.304	1.278	1.087	0.983	1.036	1.096	1.160	1.239	1.539	1.696	1.706	1.851	1.544	1.169	0.863	0.804	0.833	0.781	0.990	1.030	1.157	1.261	1.469	2.011	2.820	3.894	3.997	2.987	1.864	1.666	2.306	3.623	7.549	14.54	27.39	38.88	36.69	43.25	18.12	7.501	1.032
295.0	632.7	662.5	492.8	253.6	168.0	174.3	188.9	221.0	347.4	723.7	640.6	408.2	839.2	1769	5213	6459	574.2	16.78	5.952	4.201	3.218	2.591	2.159	1.727	1.669	1.635	1.441	1.330	1.192	1.175	1.136	0.964	1.306	1.567	1.618	1.611	1.535	1.408	1.245	1.166	1.168	1.008	1.291	1.281	1.815	1.891	1.810	2.126	1.784	1.387	1.153	1.020	0.915	0.884	1.048	0.970	1.031	1.134	1.171	1.425	1.655	2.181	2.731	4.781	5.355	3.297	2.004	2.270	2.896	4.451	7.065	9.687	10.81	25.64	50.91	65.88	28.12
300.0	638.1	712.0	530.7	301.9	193.0	187.5	206.2	225.7	282.9	525.0	961.5	552.9	419.1	527.0	1529	6755	5464	83.45	9.709	5.456	4.383	3.282	2.445	2.129	1.723	1.738	1.353	1.347	1.129	1.149	1.188	0.986	1.174	1.604	1.570	1.644	1.516	1.398	1.346	1.167	1.168	1.205	1.321	1.568	1.571	1.985	1.862	2.139	1.814	1.463	1.200	1.294	1.079	1.163	1.047	1.185	1.229	1.268	1.306	1.566	1.564	1.722	2.112	3.124	4.705	5.578	4.287	2.538	2.217	2.512	2.768	3.223	3.297	6.808	16.26	39.75	65.83
305.0	633.2	693.4	543.6	346.8	239.5	231.1	251.6	270.5	318.5	441.5	818.5	954.5	443.1	313.3	459.5	2220	7798	4262	63.42	7.170	5.228	3.662	2.835	2.571	1.814	1.682	1.478	1.325	1.311	1.084	1.164	1.199	1.277	1.514	1.638	1.732	1.643	1.405	1.351	1.493	1.261	1.290	1.233	1.512	1.682	1.939	1.989	1.978	1.724	1.596	1.288	1.359	1.336	1.218	1.216	1.219	1.477	1.469	1.476	1.771	1.901	1.807	2.269	2.432	3.108	4.467	6.008	5.331	3.370	2.339	2.156	2.013	1.731	2.528	4.439	10.41	25.06
310.0	628.8	696.2	596.4	397.6	310.2	300.9	319.1	340.8	371.1	452.5	608.0	887.0	831.9	407.6	270.0	603.0	2441	5649	5247	295.1	16.77	4.959	3.593	3.029	2.353	2.052	1.653	1.548	1.471	1.329	1.277	1.290	1.237	1.527	1.626	1.678	1.558	1.409	1.462	1.317	1.222	1.334	1.282	1.551	1.682	1.914	2.012	2.045	1.970	1.592	1.485	1.490	1.482	1.391	1.491	1.568	1.673	1.671	1.958	1.979	1.955	2.133	2.359	2.502	2.783	3.236	3.974	4.940	5.286	4.782	3.510	2.418	1.824	1.838	2.037	3.275	6.519
315.0	610.0	712.6	628.7	473.3	374.8	373.1	386.6	403.7	425.0	484.5	570.6	661.3	816.3	762.1	327.8	273.8	639.4	1402	4296	6665	447.0	14.93	5.250	3.751	2.905	2.236	1.874	1.752	1.512	1.348	1.240	1.308	1.245	1.412	1.786	1.561	1.608	1.399	1.253	1.327	1.290	1.410	1.264	1.476	1.750	1.908	2.006	2.288	1.991	1.712	1.506	1.707	1.790	1.711	1.719	1.806	1.931	1.958	2.220	2.133	2.164	2.309	2.510	2.613	2.775	3.119	3.229	3.793	3.725	4.064	5.253	4.755	3.077	1.966	1.654	1.900	2.416
320.0	641.2	791.4	700.4	525.4	418.8	414.2	432.2	446.5	466.9	516.6	586.0	634.5	677.3	831.8	548.5	242.8	257.6	386.9	1202	5640	4163	65.43	8.772	4.849	3.457	2.420	2.148	1.770	1.898	1.515	1.376	1.258	1.267	1.434	1.567	1.540	1.606	1.390	1.178	1.321	1.395	1.498	1.286	1.606	1.720	1.990	2.091	2.420	2.236	1.997	1.816	2.044	1.918	1.914	2.009	1.979	2.232	2.179	2.333	2.312	2.563	2.463	2.784	2.709	2.711	3.308	3.191	3.346	3.369	3.721	4.248	4.968	4.810	3.729	2.185	1.760	1.768
325.0	739.3	972.5	859.2	657.4	503.5	474.2	472.3	489.0	502.9	547.4	615.9	658.5	655.8	691.2	742.0	359.5	205.0	180.1	327.3	1743	5999	3477	53.72	6.614	4.255	3.036	2.278	2.161	1.849	1.541	1.451	1.307	1.423	1.448	1.489	1.436	1.514	1.436	1.269	1.295	1.340	1.455	1.368	1.590	1.741	2.379	2.508	2.815	2.983	2.507	2.173	2.251	2.296	2.193	2.112	2.232	2.345	2.497	2.423	2.406	2.511	2.790	2.712	2.919	3.223	3.373	3.336	3.332	3.437	3.604	3.699	3.742	4.312	5.236	4.000	2.654	1.933
330.0	850.4	1131	1136	874.7	636.2	540.7	507.8	518.5	535.9	585.1	653.0	708.0	688.8	633.7	632.0	579.8	327.7	172.6	156.1	448.2	1831	4408	4350	1003	16.93	4.573	3.171	2.556	2.055	1.767	1.693	1.393	1.581	1.490	1.556	1.473	1.506	1.355	1.362	1.326	1.390	1.380	1.549	1.732	1.978	2.513	2.894	3.437	3.539	3.120	2.894	2.976	2.868	2.546	2.456	2.429	2.566	2.584	2.643	2.537	2.678	2.810	3.009	3.270	3.285	3.494	3.610	3.750	3.798	3.631	3.569	3.516	3.387	3.975	4.113	4.153	3.562
335.0	931.8	1231	1311	1082	776.3	627.7	555.1	563.8	572.5	617.8	688.8	749.3	744.8	662.8	563.3	520.7	540.0	276.2	153.9	187.1	470.1	1085	3400	5979	404.8	16.64	4.711	3.403	2.448	2.145	1.929	1.568	1.611	1.563	1.568	1.448	1.577	1.355	1.305	1.399	1.327	1.503	1.569	1.867	2.255	2.859	3.320	3.828	4.195	3.845	3.538	3.807	3.451	3.045	2.915	2.695	2.753	2.847	2.930	2.903	3.023	3.096	3.064	3.273	3.560	3.523	3.750	3.794	3.860	3.753	3.677	3.618	3.709	3.453	3.441	3.350	3.856
340.0	984.1	1310	1421	1193	898.4	688.4	597.4	591.6	606.3	637.8	719.7	777.8	765.4	690.0	572.3	470.8	512.3	441.7	201.6	146.7	185.7	301.2	943.2	4691	3518	329.0	8.698	3.935	2.830	2.411	2.037	1.835	1.583	1.558	1.679	1.523	1.519	1.544	1.332	1.426	1.351	1.526	1.702	1.756	2.357	2.817	3.387	4.093	4.256	4.003	3.754	4.312	3.796	3.400	3.155	2.901	2.935	2.830	2.923	3.001	3.146	3.019	3.272	3.281	3.378	3.553	3.726	3.995	3.941	4.090	3.718	3.665	3.587	3.541	3.299	3.082	3.234
345.0	1013	1344	1487	1279	986.6	752.8	633.5	616.3	621.6	664.3	738.7	779.5	778.0	707.5	589.7	476.4	419.4	489.3	321.2	163.6	137.6	142.4	269.2	1404	4871	3195	50.37	6.278	3.510	2.790	2.192	1.925	1.540	1.609	1.646	1.523	1.449	1.555	1.418	1.399	1.522	1.616	1.699	1.872	2.178	3.048	3.375	4.326	4.453	4.089	4.093	4.844	4.111	3.788	3.389	3.269	3.234	2.918	3.027	3.046	3.057	3.125	3.355	3.255	3.479	3.695	4.028	4.034	4.154	4.278	3.957	3.796	3.454	3.587	3.258	3.246	2.924
350.0	959.4	1316	1477	1328	1080	856.0	724.2	686.5	676.8	696.1	756.8	785.6	775.8	720.3	617.4	500.9	406.9	395.0	410.6	285.3	167.0	131.7	140.1	371.9	1451	3547	3697	991.8	16.82	3.933	2.586	2.045	1.855	1.655	1.488	1.585	1.463	1.504	1.364	1.348	1.431	1.456	1.594	1.828	2.073	2.862	3.405	4.170	4.348	3.948	4.109	4.855	4.299	4.277	3.793	3.507	3.389	3.256	3.464	3.309	3.311	3.483	3.436	3.507	3.922	3.742	3.949	4.047	4.068	4.200	4.158	4.105	3.937	3.830	3.466	3.427	3.043
355.0	936.5	1291	1447	1365	1175	980.3	840.9	779.7	772.6	770.6	787.4	812.1	785.4	738.9	644.7	533.5	437.2	378.0	353.9	392.8	277.1	164.4	135.6	162.7	379.3	855.8	2487	4960	388.8	18.64	3.733	2.763	2.201	1.836	1.786	1.513	1.415	1.336	1.417	1.293	1.417	1.530	1.682	1.736	2.265	2.778	3.173	3.733	4.177	4.051	4.009	4.846	4.798	4.592	3.969	3.784	3.707	3.791	4.005	3.737	3.780	3.856	3.803	3.816	4.297	4.162	4.296	4.022	4.016	4.163	4.250	4.397	3.991	3.983	3.557	3.437	3.355
360.0	895.9	1230	1424	1355	1202	1042	914.7	853.5	844.0	825.2	834.4	831.9	800.7	746.2	660.3	555.0	466.7	393.4	341.3	360.2	378.3	227.9	155.6	132.3	155.4	238.6	660.6	3443	4540	334.1	9.362	3.372	2.549	2.089	1.713	1.488	1.481	1.411	1.453	1.335	1.452	1.522	1.631	1.747	2.388	2.906	2.944	3.720	3.907	3.866	4.364	5.017	5.271	4.797	4.336	4.226	4.260	4.104	4.140	3.884	3.990	4.159	4.109	4.034	4.150	4.102	4.098	3.914	4.100	4.487	4.310	4.495	3.792	3.973	3.767	3.674	3.392
365.0	875.6	1189	1379	1360	1250	1092	983.8	894.8	892.9	868.8	863.4	834.4	803.9	750.0	668.9	575.4	486.4	414.7	352.3	329.3	378.7	328.9	189.4	143.6	120.9	114.0	189.8	973.2	4135	3076	49.65	5.795	2.766	2.314	1.947	1.678	1.687	1.584	1.489	1.363	1.320	1.581	1.592	1.720	2.238	2.620	2.897	3.650	3.995	3.761	4.176	5.121	4.944	4.794	4.432	4.666	4.768	4.357	4.541	4.134	4.182	4.361	4.336	4.345	4.202	4.220	4.171	4.236	4.163	4.476	4.174	4.278	4.043	4.120	4.017	3.866	3.736
370.0	835.7	1134	1321	1344	1256	1139	1034	954.8	928.5	902.2	882.8	852.2	816.6	748.0	671.9	585.9	508.5	445.5	385.3	340.1	331.7	358.6	297.2	188.5	137.9	107.5	98.58	257.4	1157	3022	3434	996.4	16.35	3.081	2.453	1.951	1.640	1.585	1.444	1.350	1.422	1.583	1.631	1.775	2.190	2.612	2.773	3.498	3.832	3.777	3.978	4.984	4.873	4.906	4.650	4.634	4.864	4.525	4.678	4.333	4.528	4.536	4.605	4.617	4.605	4.383	4.295	4.179	4.263	4.412	4.161	4.211	4.166	3.998	4.044	3.908	3.993
375.0	859.3	1109	1263	1320	1283	1193	1079	1002	963.4	928.3	907.9	861.9	817.5	749.7	675.0	601.1	537.9	469.8	416.4	370.8	337.7	323.1	352.5	293.2	181.6	132.3	102.8	112.9	297.3	716.7	2071	4416	345.3	18.62	3.271	2.542	1.996	1.842	1.664	1.706	1.517	1.651	1.719	1.975	2.064	2.537	2.795	3.567	3.614	3.488	3.904	4.847	4.670	4.975	4.884	4.885	5.210	4.771	4.559	4.556	4.741	4.758	4.743	4.802	4.615	4.489	4.493	4.235	4.581	4.220	4.454	4.158	4.267	4.188	3.993	4.096	3.942
380.0	850.2	1080	1235	1285	1286	1208	1098	1025	969.2	945.1	911.7	866.9	813.8	740.3	677.8	603.0	548.2	488.9	433.9	391.3	353.0	325.2	327.3	349.5	244.8	162.2	122.9	95.54	115.1	195.0	538.9	2880	3840	294.6	9.604	2.999	2.084	2.136	1.578	1.626	1.418	1.565	1.792	1.964	2.188	2.464	2.943	3.314	3.707	3.423	3.868	4.564	4.667	5.086	4.755	4.868	5.017	5.159	4.760	4.832	5.018	4.702	4.788	4.798	4.369	4.389	4.367	4.304	4.724	4.422	4.489	4.186	4.127	4.337	4.149	3.890	3.852
385.0	845.4	1037	1204	1252	1244	1201	1107	1032	977.9	949.4	901.2	863.5	799.7	740.8	672.1	604.3	551.6	501.1	449.3	404.5	364.9	338.3	313.3	333.5	317.9	200.4	142.1	108.2	89.68	88.12	150.8	788.5	3241	2591	219.8	5.067	2.619	2.216	1.834	1.707	1.548	1.784	1.667	1.931	2.180	2.370	2.638	3.160	3.448	3.377	3.767	4.484	4.595	4.931	4.970	4.753	4.985	5.205	4.843	4.821	4.741	4.695	4.659	4.742	4.488	4.623	4.160	4.134	4.121	4.283	4.280	4.025	4.111	4.144	4.025	4.091	3.945
390.0	827.3	1038	1168	1213	1223	1204	1109	1026	960.9	924.1	884.7	842.0	789.7	731.5	666.4	610.5	558.6	514.1	467.5	428.0	388.8	355.6	322.7	308.0	318.5	280.4	186.5	132.4	102.8	81.73	76.03	205.8	882.8	2279	2632	792.3	14.45	2.952	2.373	1.806	1.646	1.752	1.909	2.080	2.055	2.568	2.743	3.071	3.335	3.394	3.697	4.439	4.449	4.844	4.995	4.755	5.070	4.974	5.092	4.745	4.700	4.742	4.795	4.455	4.522	4.490	4.284	4.281	4.176	4.157	4.418	4.146	4.119	4.109	4.042	4.014	4.059
395.0	797.8	1021	1120	1193	1211	1205	1119	1027	964.8	907.8	868.8	834.3	766.5	720.0	661.9	605.7	560.4	520.4	480.3	441.9	408.1	380.6	340.1	317.4	297.3	303.6	265.1	174.7	130.7	100.4	79.86	88.59	225.2	540.8	1523	3219	287.1	16.63	2.987	2.266	1.881	1.732	1.876	2.089	2.027	2.500	2.710	2.986	3.440	3.465	3.360	4.462	4.499	4.812	5.033	4.815	5.116	4.950	5.285	4.663	4.675	4.536	4.441	4.480	4.324	4.046	4.261	4.324	4.515	4.089	4.044	4.272	4.050	4.068	4.203	4.160	3.923
400.0	788.9	986.6	1117	1174	1200	1193	1125	1034	937.1	900.5	859.1	818.7	764.9	706.4	657.9	604.9	563.2	525.4	487.0	452.5	417.6	388.3	356.5	326.2	302.2	289.7	301.1	229.6	156.8	121.6	94.05	74.64	88.29	148.2	395.8	2047	2809	250.5	8.589	2.742	2.332	1.867	1.803	2.170	2.283	2.545	2.747	3.000	3.429	3.158	3.454	4.415	4.253	4.902	4.956	4.977	5.311	4.924	4.845	4.791	4.862	4.418	4.323	4.416	4.458	4.289	4.130	4.268	4.200	3.986	4.149	4.127	3.901	4.207	3.948	3.785	4.056
405.0	780.4	961.9	1071	1168	1168	1166	1107	1027	945.6	888.1	839.7	802.8	754.2	699.4	653.8	600.2	557.9	522.2	489.9	459.8	422.1	396.9	365.6	340.6	309.9	286.6	291.1	280.6	196.8	144.1	112.0	83.86	68.98	67.05	113.6	563.6	2330	2142	187.8	4.530	2.385	2.118	2.014	2.006	2.300	2.488	2.446	2.965	3.254	3.171	3.397	4.117	4.307	4.738	4.729	4.704	5.325	4.891	4.716	4.867	4.571	4.559	4.583	4.299	4.130	4.068	4.272	3.788	4.324	3.877	4.090	4.262	3.666	3.996	3.823	3.737	3.679
410.0	786.9	936.7	1036	1117	1152	1163	1116	1044	940.2	874.7	822.5	784.7	730.7	692.9	640.6	590.8	551.3	520.8	488.1	460.0	427.5	400.3	374.7	351.0	326.0	297.5	279.4	282.5	256.8	186.0	137.0	104.3	79.23	61.33	59.07	150.1	634.6	1722	2031	616.0	12.82	2.754	2.332	2.167	2.356	2.471	2.526	3.052	3.178	3.123	3.342	4.170	4.320	4.695	4.664	4.670	5.073	5.058	5.004	4.870	4.684	4.502	4.377	4.181	4.224	4.022	3.988	3.795	3.906	3.756	3.944	3.954	3.920	3.887	3.773	3.727	3.829
415.0	738.3	922.0	1004	1083	1127	1176	1131	1075	951.2	860.9	806.8	758.5	703.2	667.1	623.7	573.8	545.1	515.2	488.6	456.6	423.3	397.6	371.6	354.7	330.5	305.5	280.7	264.6	264.1	245.7	167.6	121.9	94.31	69.41	55.25	63.96	162.4	407.1	1123	2337	259.3	14.35	2.822	2.370	2.326	2.432	2.650	2.939	3.029	3.072	3.213	4.292	4.121	4.482	4.735	4.888	4.764	4.923	5.280	4.864	4.752	4.565	4.461	4.171	4.058	3.776	3.869	3.705	3.761	3.692	3.812	3.948	3.781	3.913	3.702	3.743	3.797
420.0	732.0	913.5	995.6	1080	1137	1171	1157	1103	974.0	861.9	789.4	735.5	690.3	649.6	601.1	564.4	537.5	510.8	485.4	452.5	416.2	390.9	370.3	351.4	331.9	308.9	285.2	264.0	249.5	263.8	206.5	138.6	105.5	79.82	59.88	49.22	61.30	107.6	289.3	1488	2034	221.7	6.822	2.844	2.556	2.651	2.717	3.014	3.099	2.922	3.086	4.145	4.078	4.552	4.820	5.171	5.167	5.294	5.425	4.858	5.147	4.553	4.330	4.154	3.872	3.715	3.971	3.751	3.476	3.565	3.841	3.724	3.666	3.876	3.787	3.648	3.866
425.0	740.1	920.5	988.2	1062	1144	1220	1244	1151	997.1	864.4	775.2	724.2	675.0	637.7	595.2	565.0	533.7	515.5	486.2	458.1	412.8	386.7	368.8	350.1	333.0	311.2	289.5	269.5	249.0	252.6	239.1	166.4	119.1	89.63	68.92	51.48	42.24	44.48	78.44	407.3	1687	1747	33.96	3.914	2.786	2.619	2.698	2.896	3.119	2.849	3.276	3.965	4.248	4.456	4.780	5.221	5.546	5.982	5.599	5.117	5.112	4.926	4.391	4.188	3.937	3.742	3.799	3.396	3.548	3.509	3.590	3.741	3.580	3.709	3.959	3.732	3.972
430.0	816.9	904.5	1020	1086	1205	1316	1374	1272	1072	888.1	768.5	708.9	670.4	629.8	591.5	568.6	542.8	522.5	497.4	460.4	413.0	378.3	362.8	350.2	335.6	319.5	300.7	281.3	264.0	250.2	242.6	212.5	151.1	107.9	84.03	63.44	46.61	35.89	34.60	103.1	459.2	1317	1530	472.3	11.64	3.043	3.045	3.135	3.252	2.936	3.402	4.199	4.412	4.784	5.340	5.590	6.173	6.595	6.339	5.911	5.404	4.913	4.643	4.306	4.025	3.919	3.640	3.555	3.579	3.575	3.505	3.692	3.533	3.614	3.887	3.782	4.039
435.0	1100	940.8	1043	1119	1274	1458	1557	1422	1169	914.6	770.6	709.9	666.5	625.4	595.4	575.1	557.2	532.8	513.0	470.6	414.4	372.3	353.9	349.9	338.0	324.3	313.1	297.3	283.1	262.8	241.5	227.3	195.4	135.2	100.6	76.61	55.83	40.63	29.63	38.94	112.8	308.9	896.6	1921	240.9	12.75	3.615	3.334	3.360	3.214	3.444	4.232	4.635	5.552	6.019	6.025	6.937	7.437	7.236	6.648	6.060	5.213	4.883	4.393	3.873	3.776	3.598	3.460	3.514	3.817	3.454	3.578	3.512	3.594	3.552	3.991	4.013
440.0	1392	1040	1043	1160	1342	1559	1678	1539	1232	932.4	763.3	706.3	654.3	623.5	593.3	582.5	560.9	545.4	524.3	474.6	412.3	366.2	351.0	343.7	334.5	324.8	314.0	307.9	294.0	276.4	250.4	225.4	212.1	163.2	114.9	85.15	63.61	45.67	32.54	26.76	38.15	78.65	234.8	1301	1765	196.2	7.170	3.746	3.468	3.293	3.518	4.558	5.008	5.628	5.885	6.721	7.302	7.418	7.598	7.166	6.229	5.848	5.068	4.620	3.937	3.710	3.542	3.486	3.633	3.814	3.538	3.651	3.646	3.493	3.384	4.051	4.046
445.0	1555	1313	1051	1173	1409	1646	1774	1654	1285	947.4	766.0	682.0	647.0	612.6	589.9	583.8	565.1	549.8	530.2	476.0	407.6	357.5	339.4	333.7	327.7	325.9	315.2	308.4	296.9	282.9	256.8	225.4	206.3	183.2	129.9	93.21	70.71	50.66	36.68	26.65	23.67	28.59	61.86	366.7	1539	1511	28.84	4.702	3.622	3.468	3.696	4.654	5.116	5.936	6.373	6.814	7.659	7.954	7.789	7.186	6.594	6.094	5.213	4.369	4.156	3.654	3.712	3.461	3.570	3.658	3.536	3.589	3.480	3.848	3.787	3.896	3.734
450.0	1252	1786	1140	1182	1440	1699	1863	1724	1323	940.2	735.7	658.2	620.9	597.0	578.9	568.5	558.9	548.1	522.4	466.5	392.1	339.1	323.8	317.4	318.1	313.4	309.6	307.0	297.6	284.4	261.8	227.2	198.2	179.8	152.1	109.2	78.02	56.03	41.51	30.03	23.43	20.16	24.41	90.43	425.8	1192	1373	407.5	10.68	3.726	3.835	4.874	5.189	6.064	6.756	7.132	8.522	8.667	8.242	7.684	6.725	6.215	5.405	4.507	3.870	3.470	3.444	3.373	3.461	3.550	3.091	3.516	3.352	3.714	3.747	3.808	4.002
455.0	881.8	1915	1567	1161	1419	1715	1878	1729	1305	918.9	700.5	620.1	589.1	574.9	553.6	551.4	541.9	528.6	506.9	448.1	369.7	317.0	301.6	296.8	300.0	297.2	296.8	294.7	289.4	278.9	257.0	227.5	192.3	163.6	148.3	126.9	86.82	61.11	45.04	32.89	26.45	20.87	18.13	29.58	102.6	279.8	762.1	1595	197.5	11.15	3.975	4.815	5.141	6.187	6.616	7.485	8.570	8.704	8.538	7.533	7.108	6.033	5.227	4.435	3.573	3.472	3.239	3.293	3.230	3.252	3.162	3.319	3.458	3.563	3.498	3.710	4.089
460.0	771.1	1529	2071	1211	1404	1672	1843	1681	1274	879.1	658.9	590.6	555.0	539.2	528.1	523.3	515.9	504.7	484.4	425.3	348.8	297.3	279.3	280.1	284.0	284.4	286.0	283.2	278.8	272.0	250.6	223.1	188.4	157.6	137.6	130.1	98.89	64.90	48.31	36.58	27.82	22.37	17.46	17.12	31.52	69.52	195.8	1028	1383	152.9	7.321	5.014	5.528	6.349	6.733	7.382	8.084	8.736	8.457	7.351	7.030	6.124	5.117	4.276	3.714	3.275	2.782	3.014	3.163	2.868	3.179	3.350	3.427	3.340	3.516	3.680	3.856
465.0	675.4	1081	2235	1491	1362	1636	1799	1629	1225	839.5	632.3	563.2	527.9	507.4	498.8	495.3	491.3	479.4	461.5	405.9	327.1	277.1	261.3	263.8	262.8	267.9	266.7	269.7	265.9	258.2	243.6	216.7	183.4	152.4	129.7	119.1	103.5	70.58	49.44	37.92	29.64	23.09	18.94	15.38	16.22	23.03	50.47	285.9	1202	1140	24.01	6.101	5.577	6.220	6.371	6.833	7.827	8.406	8.109	7.338	6.470	5.762	4.873	3.955	3.485	3.043	2.906	2.933	3.081	2.715	2.866	2.925	3.241	3.171	3.117	3.616	3.408
470.0	649.0	826.0	1694	2158	1352	1492	1647	1505	1138	773.8	579.0	510.8	483.8	468.6	457.0	453.6	449.1	437.0	419.9	367.8	295.5	249.6	236.2	238.1	237.8	240.6	244.1	246.0	244.6	238.8	226.9	200.2	173.1	146.1	121.2	104.5	94.08	78.68	54.88	38.80	30.95	24.12	19.57	16.13	14.04	13.62	18.41	70.14	331.0	865.7	961.1	334.2	12.17	5.923	6.208	6.443	7.374	7.803	7.508	6.834	6.112	5.227	4.546	3.763	3.185	2.902	2.836	2.720	2.856	2.636	2.732	2.824	2.907	2.801	3.051	3.295	3.221
475.0	607.2	689.3	993.9	2253	1767	1361	1481	1345	1019	696.7	527.7	458.4	434.6	420.1	405.4	401.3	402.8	390.4	374.5	330.0	258.9	221.2	208.3	211.1	213.8	215.5	217.8	218.1	219.8	214.3	204.1	182.0	156.7	134.4	112.3	94.81	80.28	74.69	61.45	42.13	31.24	25.41	20.43	17.24	13.53	12.20	11.56	22.07	79.40	201.3	480.1	1074	197.5	13.68	5.682	6.173	6.657	7.157	6.796	6.081	5.641	4.749	4.102	3.632	2.994	2.594	2.534	2.722	2.587	2.410	2.335	2.545	2.586	2.829	2.650	2.798	2.820
480.0	602.6	656.7	749.2	1744	2303	1321	1379	1241	946.7	649.6	490.5	426.0	396.6	383.3	371.3	370.3	364.6	356.2	340.3	302.4	237.9	202.5	189.2	190.0	193.6	198.1	197.2	200.3	202.9	199.3	187.4	168.3	147.0	126.5	106.3	87.19	73.48	63.88	62.14	47.01	32.28	25.02	20.85	17.21	14.14	12.45	10.11	11.70	23.41	49.91	120.7	618.3	998.3	177.8	8.835	5.745	6.326	6.468	6.201	5.760	5.019	4.442	3.736	3.395	2.721	2.388	2.199	2.306	2.530	2.223	2.363	2.233	2.464	2.445	2.517	2.639	2.593
485.0	520.5	619.3	670.0	1123	2545	1536	1278	1150	888.6	604.9	460.0	394.4	367.4	356.5	349.2	342.4	337.6	326.1	311.8	274.9	219.8	185.4	174.4	176.1	178.4	182.2	185.0	186.2	189.0	183.0	176.1	157.6	138.7	118.8	100.5	83.70	69.12	57.31	55.81	50.47	36.33	25.62	21.46	17.58	14.82	12.98	10.58	9.963	11.30	16.40	31.66	167.5	788.2	915.3	29.13	6.642	6.218	5.905	5.771	5.190	4.838	4.141	3.517	3.066	2.690	2.177	2.416	2.272	2.249	2.132	2.205	2.117	2.231	2.449	2.508	2.507	2.574
490.0	453.8	601.5	597.1	759.7	1884	2225	1225	1030	787.0	552.5	412.0	364.1	334.6	321.9	307.7	305.2	301.4	290.8	277.8	244.8	198.4	165.3	155.9	157.3	159.7	163.2	164.5	167.4	169.1	167.2	158.8	142.5	127.7	108.9	91.89	76.82	64.85	53.46	47.07	45.91	41.25	29.09	21.70	17.94	15.70	13.53	11.56	10.13	9.150	9.168	12.07	42.23	210.5	604.4	801.4	318.8	14.11	5.697	5.258	4.800	4.390	3.747	3.148	2.746	2.409	2.160	2.092	2.075	2.127	2.006	2.125	2.073	2.018	2.144	2.192	2.241	2.167
495.0	359.6	536.2	562.3	602.7	1058	2415	1599	901.9	686.9	487.7	369.5	323.5	301.5	285.3	273.4	271.4	266.2	255.9	245.3	215.7	173.9	145.2	139.5	137.8	141.4	143.8	145.0	147.4	148.8	147.7	142.8	129.6	113.1	98.20	83.02	70.01	60.12	50.16	42.20	37.78	38.72	34.57	23.89	18.33	16.12	13.87	12.43	10.38	9.371	7.660	7.703	14.45	51.63	140.8	406.2	989.9	226.9	16.34	4.912	4.638	3.930	3.607	2.830	2.494	2.210	2.119	2.018	1.867	1.908	1.856	1.920	1.955	1.858	1.789	1.929	2.052	2.045
500.0	337.5	460.5	541.1	531.1	733.2	1857	2189	866.2	616.9	442.0	332.0	295.6	275.9	258.1	246.9	239.6	236.1	226.5	219.6	190.7	155.4	131.4	124.9	125.6	126.6	130.0	131.3	133.7	136.3	132.6	127.8	117.4	102.8	89.64	76.42	65.96	56.40	46.62	39.63	34.30	33.42	35.50	27.60	19.24	16.17	14.01	12.72	10.61	9.802	7.669	6.609	8.297	16.19	36.10	101.9	539.3	962.3	196.9	9.296	4.233	3.713	3.375	2.887	2.300	2.079	1.840	1.817	1.642	1.575	1.771	1.727	1.846	1.628	1.810	1.787	1.896	1.844
505.0	309.1	375.6	497.1	489.8	602.6	1171	2542	1070	544.5	390.6	302.2	265.2	250.1	231.0	222.6	217.0	210.9	203.2	194.6	172.1	138.2	118.9	113.5	112.8	113.8	116.0	118.2	118.9	121.1	119.5	116.4	105.2	94.05	81.38	70.15	60.56	51.71	43.34	37.15	31.80	29.52	31.54	30.05	21.34	15.91	13.84	12.39	10.89	9.650	8.326	6.874	6.839	8.075	12.52	26.96	142.0	667.8	867.8	32.16	5.331	3.520	3.341	2.385	2.182	1.799	1.818	1.709	1.618	1.472	1.630	1.633	1.632	1.689	1.552	1.680	1.690	1.699
510.0	269.1	309.3	407.7	464.6	503.5	713.6	1876	1878	551.3	339.9	269.4	236.0	219.5	203.7	191.9	188.7	181.1	174.1	164.8	146.8	121.2	103.0	97.54	97.48	98.61	100.3	101.3	103.0	104.7	104.5	100.1	91.97	82.14	71.57	62.13	53.43	46.07	38.90	33.41	29.72	26.08	24.59	26.23	24.01	17.63	13.97	11.89	10.45	9.069	8.215	7.296	6.500	6.448	7.199	10.07	35.70	172.8	507.0	662.7	272.2	12.68	3.018	2.379	1.954	1.756	1.602	1.452	1.386	1.422	1.404	1.505	1.407	1.453	1.361	1.378	1.638	1.423
515.0	210.8	273.5	306.4	430.4	440.1	515.8	904.6	2293	985.3	298.7	233.1	202.4	185.4	173.5	161.3	156.7	153.6	142.8	138.9	122.1	102.8	86.50	83.21	83.62	84.16	84.84	86.00	87.63	88.59	89.30	84.93	78.61	68.86	60.49	53.70	46.42	40.53	34.62	29.81	26.90	23.87	21.44	21.33	22.78	20.50	14.69	11.49	10.20	8.453	7.912	7.039	6.847	6.034	5.461	6.045	11.61	42.14	117.3	276.5	723.1	229.4	15.38	2.314	1.762	1.685	1.596	1.357	1.377	1.269	1.329	1.413	1.322	1.200	1.448	1.237	1.449	1.286
520.0	190.3	232.8	261.1	371.0	408.2	423.0	546.7	1703	1768	320.3	209.6	183.9	163.8	154.1	144.1	139.7	133.2	127.2	122.8	105.3	89.59	76.49	72.62	72.68	73.65	73.32	75.39	76.96	78.59	76.49	74.42	67.96	61.44	54.07	47.90	41.21	36.83	31.40	28.02	24.66	21.82	19.72	18.41	19.13	20.59	16.62	11.59	9.961	8.588	7.572	6.805	6.741	6.157	5.082	4.915	6.256	12.78	29.47	67.41	347.2	695.5	198.5	8.397	1.686	1.581	1.361	1.247	1.300	1.192	1.096	1.199	1.111	1.175	1.154	1.083	1.279	1.156
525.0	175.1	210.2	224.4	298.7	396.0	373.9	426.7	912.8	2329	584.5	185.5	164.4	147.4	137.2	127.9	123.7	116.6	112.8	106.9	94.13	80.57	68.03	64.21	63.94	65.86	66.30	65.74	68.31	69.29	69.42	66.34	60.40	55.29	48.86	42.69	37.07	32.77	29.33	26.33	22.33	19.98	18.13	16.64	16.21	18.06	17.90	12.76	9.473	8.475	7.422	6.457	6.198	6.097	5.009	4.677	4.927	6.099	9.629	18.14	86.74	406.3	640.8	151.6	3.657	1.645	1.304	1.153	1.151	1.008	1.066	1.041	1.089	1.162	1.020	1.094	1.177	1.065
530.0	160.3	179.0	184.3	231.7	349.6	350.1	352.0	452.8	1609	1599	218.1	145.2	128.5	119.1	109.5	103.9	99.04	95.39	89.52	79.95	67.06	58.09	55.47	55.20	56.18	56.81	56.68	57.99	58.10	58.44	56.91	52.64	46.54	42.35	36.93	32.48	28.99	25.94	22.36	20.28	18.21	16.34	14.79	13.68	14.24	15.87	14.39	10.41	7.979	6.751	6.173	5.698	5.637	5.249	4.747	4.170	4.508	5.072	6.648	21.68	100.5	318.9	484.4	138.5	12.61	1.415	1.237	1.014	1.083	0.959	0.947	0.999	0.992	0.935	0.958	1.018	0.944
535.0	127.6	145.0	158.2	181.6	266.5	325.8	297.1	293.5	607.8	2100	773.5	125.1	110.6	100.4	90.99	88.20	84.28	78.95	73.98	67.90	55.21	48.39	48.12	46.75	46.41	46.95	48.37	47.42	48.49	48.60	46.51	42.69	39.19	36.07	31.26	27.55	24.67	21.84	19.00	17.80	15.53	14.69	13.23	12.10	11.28	12.19	13.41	11.74	8.070	6.419	5.756	5.170	4.795	5.064	4.773	4.292	3.960	3.710	4.145	6.981	24.27	73.08	164.0	453.0	232.1	16.58	1.341	1.170	1.092	0.948	0.873	0.984	0.977	0.923	0.837	0.875	1.012
540.0	113.1	133.3	134.6	153.6	202.8	305.2	271.8	228.6	279.0	1392	1672	156.1	98.12	87.67	80.25	74.35	70.84	67.48	63.88	57.51	48.44	41.84	41.12	40.62	40.70	41.04	41.82	41.32	43.03	42.75	40.69	37.55	33.44	30.32	27.53	24.15	22.11	19.54	16.99	15.81	14.15	13.23	12.32	10.90	10.08	9.890	11.36	11.94	8.930	6.524	5.317	4.888	4.653	4.420	4.246	4.111	3.515	3.334	3.194	3.633	7.180	18.15	39.01	189.1	483.3	196.2	9.527	1.110	0.962	0.904	0.917	0.873	0.800	0.842	0.855	0.780	0.834
545.0	103.8	123.7	126.9	136.7	162.6	262.1	256.1	197.4	183.2	589.6	2232	406.1	85.76	75.68	71.43	63.69	62.09	57.88	55.28	50.55	43.36	37.45	36.42	36.01	34.90	35.50	35.29	36.19	36.86	37.07	35.60	32.26	29.66	26.82	23.64	21.73	19.87	17.35	15.78	14.39	12.91	11.61	10.78	9.967	9.233	8.761	8.952	10.34	9.720	6.867	5.077	4.714	4.380	3.907	3.867	3.873	3.859	3.306	2.884	2.600	3.237	5.495	10.23	45.65	233.0	453.1	141.9	3.871	0.950	0.885	0.803	0.837	0.746	0.725	0.711	0.712	0.763
550.0	111.8	115.1	114.7	115.9	131.2	184.5	245.1	172.8	142.4	224.2	1343	1432	120.2	64.23	58.43	54.44	50.88	47.27	45.49	40.49	35.37	31.59	29.95	28.93	29.25	29.19	28.82	29.38	29.89	29.13	28.80	26.92	24.51	22.09	19.87	17.87	16.62	14.32	13.60	11.98	11.03	9.972	9.201	8.541	7.709	7.426	7.030	7.581	8.391	7.343	5.282	4.158	3.682	3.525	3.213	3.265	3.574	3.210	2.667	2.242	2.363	2.774	3.666	11.43	55.54	189.1	316.6	140.1	13.49	1.013	0.838	0.744	0.722	0.646	0.639	0.667	0.674
555.0	110.7	109.8	93.86	93.37	106.7	124.8	200.6	171.7	111.5	117.5	416.9	1839	571.1	54.64	45.90	44.89	40.39	37.68	35.74	31.97	28.13	24.41	23.32	23.08	23.07	23.66	22.93	23.40	23.32	23.35	22.81	21.85	19.46	17.60	15.52	14.32	13.12	11.71	10.67	10.23	8.927	8.249	7.797	7.296	6.834	6.252	5.805	5.676	6.047	7.002	5.885	4.158	3.363	3.000	2.677	2.738	2.980	2.968	2.715	2.166	1.889	2.022	1.969	3.633	13.35	43.18	94.04	270.0	216.3	17.54	1.019	0.675	0.675	0.584	0.632	0.632	0.668
560.0	104.7	109.3	92.07	78.89	90.19	96.54	148.7	174.8	99.20	85.27	149.7	1135	1298	77.49	39.73	36.81	32.68	30.94	29.51	26.81	23.10	20.56	20.10	18.97	19.14	19.73	19.89	19.56	19.62	19.91	19.00	18.20	17.11	14.64	13.20	12.23	10.86	10.22	9.360	8.794	7.428	7.280	6.899	6.188	5.818	5.727	4.909	4.884	4.637	5.372	5.966	4.539	3.222	2.654	2.643	2.450	2.367	2.341	2.773	2.350	1.722	1.608	1.487	1.694	3.950	10.50	22.02	97.32	291.1	163.9	9.668	0.673	0.625	0.633	0.584	0.594	0.556
565.0	101.3	103.3	93.18	74.62	75.19	82.66	113.2	171.4	102.1	72.53	80.63	429.9	1798	151.9	34.23	30.86	27.53	26.44	24.82	22.52	19.67	17.93	17.03	16.28	16.19	16.12	16.35	16.55	16.58	16.99	16.41	15.61	14.62	12.67	11.27	10.20	9.109	8.728	8.019	7.417	6.870	6.214	6.158	5.462	5.039	5.010	4.321	4.263	3.739	4.028	4.968	4.591	3.209	2.560	2.376	2.291	2.146	2.140	2.280	2.430	1.861	1.385	1.272	1.301	1.822	3.192	5.733	23.13	117.9	271.1	110.6	3.748	0.610	0.587	0.560	0.469	0.498
570.0	94.66	97.99	83.69	61.26	63.66	68.61	80.24	126.7	121.2	66.56	60.66	140.1	1069	1080	65.16	25.25	22.80	21.54	19.89	17.85	15.55	14.59	13.56	13.10	13.03	12.73	13.18	13.25	13.52	13.20	13.09	12.21	11.00	10.17	9.354	8.311	7.572	7.110	6.736	5.980	5.388	5.147	4.935	4.553	4.157	4.210	3.800	3.448	3.151	3.148	3.453	3.962	3.291	2.585	2.023	1.863	1.923	1.738	1.781	1.927	1.924	1.519	1.184	1.064	1.172	1.451	1.995	5.959	27.69	99.22	182.9	108.6	13.12	0.764	0.523	0.510	0.512
575.0	93.49	96.49	70.09	54.19	53.22	55.81	60.32	74.40	128.3	74.17	53.71	65.71	309.7	1394	408.5	22.11	18.25	16.62	15.86	14.15	12.48	12.06	10.92	10.58	10.75	10.14	10.51	10.12	10.49	10.42	10.14	9.099	8.766	8.315	7.389	6.681	5.937	5.811	5.109	4.992	4.486	4.143	3.978	3.786	3.721	3.370	3.078	3.137	2.526	2.637	2.377	2.906	3.248	2.734	1.938	1.780	1.534	1.547	1.387	1.454	1.659	1.689	1.362	1.004	1.057	1.067	1.120	1.893	6.891	22.71	49.58	144.9	146.6	15.77	0.644	0.567	0.443
580.0	93.11	87.38	67.73	49.04	46.41	48.09	47.99	56.08	102.6	89.71	49.62	47.27	99.89	860.8	958.1	36.66	15.59	13.85	13.39	11.90	10.58	9.967	9.406	8.687	8.919	8.710	8.365	8.476	8.978	8.814	8.427	7.962	7.187	6.530	6.116	5.497	5.278	4.636	4.324	4.201	3.780	3.366	3.336	3.257	3.001	2.948	2.795	2.726	2.326	2.196	1.982	2.015	2.670	2.821	2.009	1.670	1.391	1.394	1.327	1.222	1.345	1.519	1.499	1.123	1.011	0.824	0.901	0.991	2.176	5.693	11.66	47.86	166.2	109.9	7.356	0.593	0.500
585.0	86.37	79.35	69.95	43.67	42.78	44.68	45.18	45.26	80.30	106.6	49.39	40.72	47.52	318.7	1322	100.1	14.73	12.33	11.67	10.54	9.041	8.292	7.774	8.012	7.893	7.652	7.664	7.316	7.358	7.450	7.084	6.780	6.192	5.724	5.599	4.944	4.474	3.997	3.889	3.566	3.310	3.030	2.989	2.744	2.715	2.658	2.434	2.268	2.008	1.912	1.727	1.718	1.944	2.664	2.261	1.725	1.458	1.211	1.213	1.054	1.112	1.226	1.378	1.275	0.881	0.793	0.837	0.752	1.125	1.776	3.163	11.50	63.75	161.7	35.14	2.936	0.500
590.0	78.70	80.03	66.79	43.12	37.62	36.21	38.10	38.90	50.74	101.8	65.73	38.98	34.94	94.25	777.6	667.0	30.25	10.40	9.673	8.349	7.725	6.778	6.546	6.540	6.049	6.137	6.234	6.171	6.108	6.335	5.823	5.468	5.102	4.844	4.570	3.925	3.696	3.464	3.139	2.947	2.770	2.798	2.520	2.382	2.281	2.214	1.960	1.922	1.728	1.618	1.433	1.566	1.476	1.851	2.136	1.764	1.413	1.163	1.078	0.905	0.995	0.954	0.980	1.247	1.217	0.832	0.765	0.730	0.852	0.852	1.218	3.055	14.96	57.11	100.6	71.49	11.04
595.0	77.12	75.86	58.04	41.24	33.37	29.76	34.46	34.86	39.82	69.73	89.18	40.04	30.33	37.65	217.6	944.9	217.6	9.471	7.867	7.478	6.612	5.483	5.307	5.260	5.009	5.105	4.806	4.886	4.896	4.793	4.732	4.259	4.249	3.919	3.384	3.299	3.122	2.803	2.706	2.369	2.262	2.049	2.097	1.983	1.871	1.789	1.710	1.662	1.626	1.423	1.212	1.267	1.187	1.265	1.540	1.811	1.457	1.200	0.954	0.925	0.850	0.860	0.806	0.920	1.251	1.045	0.714	0.673	0.738	0.697	0.831	1.120	3.746	13.15	27.12	84.54	91.15
600.0	77.73	71.24	55.93	34.84	30.24	27.47	30.30	30.89	34.37	48.12	93.13	45.06	30.77	23.89	63.01	615.9	592.6	16.14	7.289	6.031	5.590	4.711	4.621	4.274	4.152	4.198	4.305	3.929	4.429	4.046	4.086	3.560	3.800	3.571	2.859	2.871	2.501	2.347	2.458	2.135	2.076	1.896	1.800	1.624	1.537	1.542	1.585	1.455	1.448	1.146	1.112	1.183	1.150	1.066	1.192	1.533	1.528	1.166	0.875	0.852	0.700	0.866	0.707	0.860	1.056	1.206	0.946	0.687	0.707	0.642	0.677	0.668	1.231	3.328	6.491	27.75	99.92
605.0	67.45	64.52	51.76	37.75	28.62	27.26	30.24	26.53	33.08	39.00	80.21	60.47	31.18	22.27	25.32	233.0	845.2	65.19	6.344	5.702	4.497	4.318	4.178	3.892	3.792	3.592	3.474	3.492	3.576	3.684	3.367	3.380	3.117	2.990	2.586	2.469	2.153	2.149	1.978	1.947	1.888	1.549	1.545	1.491	1.658	1.438	1.338	1.311	1.197	1.088	0.967	1.030	1.026	0.870	1.021	1.314	1.484	1.092	1.014	0.730	0.723	0.793	0.650	0.726	0.704	1.010	1.119	0.644	0.641	0.578	0.640	0.535	0.652	1.094	1.908	6.706	37.17
610.0	61.76	58.87	47.41	35.13	27.92	27.65	27.76	27.75	30.75	35.37	57.68	76.75	35.57	22.39	18.00	66.02	548.7	438.5	13.98	4.779	4.075	3.658	3.537	3.639	3.112	3.042	2.951	3.058	2.930	2.797	2.911	2.762	2.483	2.338	2.179	2.045	1.863	1.891	1.690	1.534	1.415	1.392	1.320	1.204	1.313	1.204	1.164	1.171	1.062	0.918	0.853	0.842	0.867	0.849	0.851	0.926	1.146	1.143	1.065	0.813	0.675	0.706	0.606	0.706	0.683	0.722	0.892	0.866	0.717	0.592	0.571	0.516	0.594	0.625	0.797	1.893	8.807
615.0	55.24	53.22	44.92	34.76	26.44	24.63	29.02	26.98	31.47	30.43	41.06	71.80	46.69	22.17	15.68	23.19	158.6	665.0	73.25	4.233	3.345	3.075	2.897	2.906	2.583	2.300	2.406	2.616	2.391	2.338	2.352	2.248	2.102	1.926	1.715	1.747	1.556	1.568	1.443	1.227	1.218	1.109	1.157	1.015	1.110	1.041	1.029	0.934	0.890	0.750	0.773	0.784	0.746	0.770	0.749	0.681	0.866	0.899	1.016	0.786	0.718	0.688	0.586	0.642	0.643	0.703	0.771	0.799	0.844	0.588	0.507	0.438	0.476	0.486	0.527	0.735	2.324
620.0	50.80	50.09	48.63	31.57	24.26	24.68	25.20	27.62	29.28	30.99	36.18	54.92	60.09	23.13	15.11	12.78	44.70	466.4	369.6	6.943	3.369	2.741	2.510	2.395	2.451	2.090	2.214	2.269	2.043	1.958	2.000	1.931	1.795	1.596	1.421	1.362	1.465	1.328	1.156	1.131	1.103	1.078	1.031	0.858	0.857	0.865	0.892	0.905	0.809	0.740	0.643	0.698	0.598	0.700	0.647	0.571	0.654	0.707	0.878	0.779	0.730	0.547	0.532	0.592	0.604	0.674	0.609	0.628	0.867	0.661	0.522	0.499	0.544	0.414	0.493	0.448	0.907
625.0	56.74	49.54	43.85	29.59	27.35	25.08	26.32	27.92	28.15	29.42	32.38	42.34	64.58	26.92	14.77	10.68	16.27	189.9	593.0	37.32	2.998	2.335	2.499	2.168	1.926	1.924	1.926	2.011	1.770	1.748	1.683	1.671	1.496	1.344	1.364	1.284	1.153	1.066	1.049	1.014	0.947	1.000	0.942	0.841	0.860	0.814	0.797	0.753	0.830	0.656	0.606	0.634	0.611	0.692	0.557	0.561	0.655	0.642	0.808	0.810	0.810	0.597	0.520	0.585	0.549	0.560	0.597	0.558	0.648	0.836	0.552	0.475	0.468	0.473	0.452	0.437	0.573
630.0	55.95	49.66	41.52	29.23	26.07	24.84	25.52	26.38	26.75	28.22	31.26	34.19	54.62	37.07	16.53	10.48	9.590	51.57	426.7	286.0	6.688	2.188	2.032	1.847	1.788	1.658	1.596	1.712	1.646	1.444	1.613	1.421	1.264	1.175	1.130	1.111	1.017	0.882	0.976	0.853	0.795	0.782	0.807	0.824	0.769	0.686	0.677	0.636	0.707	0.554	0.524	0.563	0.519	0.597	0.527	0.561	0.610	0.623	0.613	0.713	0.769	0.625	0.511	0.544	0.542	0.542	0.574	0.531	0.552	0.689	0.740	0.556	0.497	0.452	0.392	0.384	0.483
635.0	56.40	45.33	38.72	30.82	23.88	23.49	26.30	25.40	25.80	27.11	28.76	30.82	39.22	46.82	19.86	11.04	8.518	16.02	128.8	499.7	53.29	2.010	1.771	1.470	1.595	1.466	1.339	1.373	1.454	1.268	1.210	1.190	1.183	1.154	1.076	0.971	0.897	0.877	0.790	0.696	0.675	0.744	0.644	0.645	0.599	0.697	0.636	0.641	0.591	0.512	0.455	0.561	0.515	0.630	0.493	0.508	0.503	0.573	0.500	0.627	0.634	0.579	0.576	0.555	0.533	0.517	0.492	0.548	0.500	0.530	0.642	0.631	0.485	0.434	0.467	0.393	0.467
640.0	47.11	45.60	37.01	28.45	25.08	25.17	25.43	25.42	24.86	27.69	28.14	29.56	31.33	45.64	25.79	11.20	8.203	7.911	34.44	386.7	236.5	3.610	1.780	1.344	1.398	1.422	1.197	1.235	1.277	1.194	1.173	1.023	0.963	1.042	0.971	0.838	0.853	0.752	0.778	0.625	0.553	0.718	0.543	0.639	0.610	0.613	0.532	0.585	0.564	0.422	0.374	0.524	0.479	0.488	0.480	0.504	0.539	0.521	0.525	0.524	0.527	0.660	0.577	0.489	0.502	0.479	0.434	0.545	0.518	0.492	0.630	0.708	0.606	0.442	0.431	0.367	0.440
645.0	48.10	45.17	41.67	28.85	26.66	23.36	24.92	23.47	25.51	24.36	27.30	29.03	28.31	38.17	31.65	11.99	8.323	6.538	11.30	172.4	421.2	20.42	1.806	1.456	1.484	1.225	1.307	1.242	1.215	1.135	1.174	0.905	0.847	0.947	0.832	0.789	0.772	0.676	0.650	0.566	0.592	0.648	0.645	0.598	0.582	0.593	0.516	0.542	0.518	0.409	0.370	0.519	0.420	0.436	0.497	0.472	0.407	0.432	0.450	0.446	0.503	0.613	0.536	0.575	0.511	0.434	0.444	0.553	0.490	0.549	0.608	0.553	0.672	0.500	0.525	0.418	0.377
650.0	47.19	52.13	47.21	28.67	24.87	22.51	24.73	23.89	23.16	25.06	25.74	27.52	28.04	31.34	36.81	13.84	8.672	6.297	5.942	51.03	427.3	64.64	2.039	1.530	1.395	1.189	1.053	1.080	1.014	1.116	1.053	0.955	0.964	0.794	0.857	0.717	0.657	0.665	0.652	0.533	0.578	0.606	0.686	0.584	0.501	0.544	0.449	0.583	0.473	0.431	0.450	0.431	0.426	0.476	0.523	0.446	0.385	0.421	0.474	0.435	0.460	0.543	0.547	0.527	0.593	0.411	0.404	0.482	0.479	0.483	0.498	0.445	0.569	0.532	0.483	0.406	0.371
