Sample:	'1
File name:	w092313袁家屋子东南杏花河闸口.FD3
Run date:	'10:15:58, 09/24/2024
Operator:	horiz
Comment:	'

Instrument
Model:	F-2700 FL Spectrophotometer
Serial number:	23B8-004
ROM Version:	4J14000 07

Instrument parameters
Measurement type:	3-D scan
Data mode:	Fluorescence
EX  Start WL:	220.0 nm
EX  End WL:	600.0 nm
EX Sampling interval:	5.0 nm
EM  Start WL:	230.0 nm
EM  End WL:	650.0 nm
EM Sampling interval:	5.0 nm
Scan speed:	12000 nm/min
EX Slit:	5.0 nm
EM Slit:	5.0 nm
PMT Voltage:	700 V
Response:	Auto 
Corrected spectra:	Off
Contour interval:	50.000

Peak integration
Integration method:	Rectangular
Sensitivity:	1
Threshold:	1.000

Peaks
No.	ApexEX/EM(nm)	Height(Data)
1	225.0/310.0	916.5
2	225.0/340.0	1189
3	225.0/575.0	70.39
4	225.0/595.0	77.70
5	225.0/615.0	73.72
6	230.0/345.0	1183
7	230.0/365.0	1114
8	230.0/385.0	1080
9	235.0/400.0	1096
10	240.0/265.0	357.5
11	240.0/395.0	1095
12	240.0/525.0	296.8
13	245.0/270.0	340.5
14	245.0/535.0	238.3
15	250.0/275.0	452.0
16	250.0/545.0	188.4
17	255.0/280.0	531.9
18	255.0/560.0	156.5
19	260.0/575.0	132.4
20	265.0/405.0	974.0
21	265.0/585.0	122.8
22	270.0/300.0	1416
23	270.0/400.0	975.5
24	270.0/600.0	126.1
25	275.0/305.0	1646
26	275.0/330.0	1202
27	275.0/380.0	1003
28	275.0/610.0	116.8
29	280.0/625.0	95.61
30	305.0/345.0	608.0
31	315.0/355.0	534.8
32	455.0/540.0	17.30
33	505.0/275.0	2.963
34	510.0/280.0	3.494
35	510.0/435.0	4.777
36	520.0/285.0	3.701
37	530.0/290.0	4.081
38	540.0/295.0	6.103
39	555.0/305.0	8.327
40	560.0/310.0	7.551
41	570.0/315.0	7.083
42	585.0/325.0	6.013

Wavelength data
No.	EX/EM(nm)	Height(Data)	

Data points
	220.0	225.0	230.0	235.0	240.0	245.0	250.0	255.0	260.0	265.0	270.0	275.0	280.0	285.0	290.0	295.0	300.0	305.0	310.0	315.0	320.0	325.0	330.0	335.0	340.0	345.0	350.0	355.0	360.0	365.0	370.0	375.0	380.0	385.0	390.0	395.0	400.0	405.0	410.0	415.0	420.0	425.0	430.0	435.0	440.0	445.0	450.0	455.0	460.0	465.0	470.0	475.0	480.0	485.0	490.0	495.0	500.0	505.0	510.0	515.0	520.0	525.0	530.0	535.0	540.0	545.0	550.0	555.0	560.0	565.0	570.0	575.0	580.0	585.0	590.0	595.0	600.0
230.0	49.82	901.8	1710	445.9	17.93	4.453	4.152	3.257	2.851	2.717	2.635	2.676	2.406	2.043	1.774	1.386	1.248	1.129	1.124	1.023	0.895	0.883	0.829	0.770	0.709	0.732	0.599	0.568	0.572	0.594	0.549	0.537	0.506	0.444	0.427	0.502	0.410	0.401	0.368	0.347	0.411	0.531	0.547	0.374	0.321	0.318	1.549	6.331	9.856	6.622	2.252	0.508	0.249	0.266	0.256	0.241	0.252	0.239	0.213	0.195	0.206	0.208	0.217	0.229	0.218	0.228	0.206	0.210	0.233	0.189	0.183	0.169	0.201	0.187	0.202	0.161	0.193
235.0	91.01	265.9	1196	1753	442.0	29.94	4.626	4.256	2.910	2.639	2.951	2.890	2.718	2.027	1.609	1.566	1.186	1.234	1.243	0.990	1.134	0.771	0.863	0.675	0.749	0.686	0.563	0.643	0.491	0.674	0.500	0.541	0.432	0.435	0.442	0.396	0.408	0.415	0.375	0.460	0.384	0.337	0.608	0.636	0.567	0.337	0.562	1.828	3.982	7.335	10.08	10.22	4.622	0.952	0.308	0.231	0.289	0.225	0.213	0.190	0.244	0.181	0.196	0.182	0.248	0.205	0.186	0.217	0.186	0.203	0.183	0.159	0.249	0.187	0.228	0.174	0.208
240.0	179.8	146.2	379.8	1646	1951	353.5	16.71	4.634	3.730	3.382	2.987	2.978	2.547	2.335	1.592	1.479	1.302	1.506	1.258	0.998	1.095	0.870	0.867	0.766	0.676	0.698	0.648	0.589	0.586	0.635	0.654	0.627	0.479	0.468	0.419	0.416	0.436	0.456	0.393	0.432	0.364	0.354	0.398	0.530	0.654	0.619	0.489	0.675	1.105	2.365	5.820	13.99	16.77	11.08	4.012	0.595	0.299	0.227	0.200	0.209	0.212	0.255	0.208	0.179	0.211	0.200	0.221	0.241	0.181	0.269	0.195	0.186	0.179	0.235	0.185	0.190	0.193
245.0	136.3	206.2	140.5	603.4	2266	2004	248.7	8.685	4.672	3.891	3.033	3.469	2.667	2.490	1.666	1.485	1.298	1.323	1.399	1.090	0.997	0.903	0.751	0.826	0.816	0.806	0.704	0.606	0.595	0.563	0.691	0.536	0.467	0.456	0.424	0.352	0.450	0.413	0.369	0.459	0.391	0.367	0.327	0.375	0.515	0.735	0.895	0.693	0.557	0.783	1.565	4.971	12.28	19.82	20.09	10.54	2.895	0.443	0.225	0.259	0.249	0.245	0.197	0.169	0.246	0.218	0.229	0.281	0.168	0.236	0.221	0.186	0.183	0.202	0.219	0.216	0.165
250.0	53.20	160.2	229.7	219.1	751.2	2120	2611	888.3	50.20	5.362	4.867	3.644	3.100	2.671	2.133	1.687	1.566	1.412	1.347	1.192	0.946	0.905	0.854	0.914	0.920	0.736	0.724	0.728	0.684	0.557	0.558	0.487	0.583	0.455	0.447	0.377	0.424	0.374	0.409	0.407	0.472	0.374	0.386	0.329	0.366	0.407	0.593	0.812	0.987	0.952	0.754	1.415	3.126	6.589	12.09	18.32	23.20	18.96	10.64	2.917	0.460	0.238	0.244	0.222	0.254	0.223	0.224	0.229	0.223	0.218	0.231	0.193	0.204	0.238	0.198	0.218	0.168
255.0	31.06	54.33	173.0	310.3	243.7	548.8	2145	4118	1252	46.37	6.808	4.837	4.189	3.167	2.704	1.974	1.487	1.463	1.263	1.180	0.966	1.242	1.080	0.781	1.032	0.874	0.854	0.744	0.708	0.595	0.644	0.521	0.682	0.474	0.479	0.415	0.382	0.315	0.378	0.380	0.425	0.380	0.305	0.408	0.354	0.433	0.388	0.495	0.628	0.948	1.377	1.594	1.234	1.653	2.981	4.527	8.656	20.83	37.08	28.77	16.53	3.170	0.379	0.357	0.266	0.256	0.297	0.234	0.228	0.245	0.257	0.189	0.238	0.272	0.240	0.220	0.202
260.0	20.89	27.14	68.57	271.4	293.5	168.4	656.4	3521	4666	243.7	24.19	6.164	5.065	4.138	3.094	2.412	1.874	1.588	1.411	1.337	1.050	1.130	1.085	0.861	0.980	0.972	0.898	0.736	0.767	0.591	0.676	0.583	0.641	0.485	0.426	0.476	0.399	0.428	0.366	0.376	0.428	0.363	0.415	0.430	0.362	0.377	0.375	0.374	0.424	0.534	0.915	1.811	1.859	1.286	1.121	1.227	2.367	5.693	15.82	33.21	48.33	27.24	12.76	1.868	0.431	0.335	0.301	0.259	0.285	0.291	0.253	0.198	0.202	0.231	0.244	0.237	0.221
265.0	19.07	20.54	27.58	127.5	357.5	209.6	178.5	1200	5003	4582	195.7	13.14	6.022	4.379	3.608	2.816	2.258	1.921	1.407	1.674	1.314	1.326	1.072	1.109	1.010	0.952	0.809	0.814	0.857	0.703	0.684	0.616	0.624	0.504	0.478	0.461	0.434	0.463	0.379	0.385	0.393	0.418	0.407	0.451	0.375	0.411	0.321	0.364	0.289	0.382	0.455	1.003	1.717	2.036	1.449	0.732	0.807	1.674	3.936	9.791	26.14	47.07	56.64	24.53	7.984	0.718	0.289	0.259	0.284	0.272	0.269	0.240	0.247	0.251	0.303	0.232	0.228
270.0	30.01	30.21	24.23	45.19	168.9	340.5	250.0	313.9	1583	4679	6023	776.0	48.69	6.903	4.998	3.462	2.717	2.357	1.918	1.733	1.349	1.351	1.216	1.145	0.978	1.027	0.864	0.875	0.800	0.737	0.677	0.757	0.610	0.655	0.577	0.505	0.463	0.420	0.458	0.401	0.467	0.498	0.404	0.448	0.452	0.453	0.396	0.400	0.326	0.355	0.357	0.461	0.711	1.189	1.809	2.000	1.868	1.278	1.312	2.516	6.307	13.39	27.13	41.19	39.52	45.79	16.34	6.947	0.800	0.371	0.316	0.278	0.237	0.263	0.297	0.205	0.243
275.0	75.47	62.63	53.14	36.02	54.86	151.5	452.0	298.7	397.4	1168	4312	8767	1108	51.52	7.637	5.550	3.592	2.519	2.644	2.037	1.623	1.580	1.226	1.278	1.303	1.130	1.049	1.075	0.808	0.837	0.776	0.857	0.644	0.677	0.655	0.644	0.614	0.503	0.569	0.545	0.487	0.511	0.515	0.439	0.476	0.570	0.570	0.467	0.460	0.451	0.332	0.406	0.453	0.532	0.630	1.021	2.165	2.963	2.323	1.270	1.786	3.390	6.498	9.730	12.43	33.02	65.78	77.77	26.16	8.054	0.766	0.326	0.327	0.290	0.277	0.290	0.307
280.0	130.9	129.5	106.3	54.59	43.01	61.30	284.7	531.9	244.4	326.7	1240	6602	8716	818.1	25.60	6.865	4.969	3.374	2.926	2.487	2.136	1.549	1.439	1.356	1.207	1.101	1.039	1.036	0.869	0.950	0.963	0.827	0.716	0.842	0.729	0.719	0.742	0.706	0.657	0.600	0.546	0.585	0.695	0.551	0.595	0.651	0.682	0.678	0.564	0.569	0.451	0.459	0.419	0.423	0.407	0.545	0.927	2.056	3.494	3.116	1.746	1.347	1.979	2.724	3.444	8.411	21.96	52.60	82.32	74.31	21.98	3.666	0.508	0.386	0.366	0.406	0.296
285.0	225.4	238.8	184.3	103.8	58.78	53.99	127.8	477.2	516.3	225.8	421.1	2046	8479	7241	118.3	13.74	6.047	4.251	3.366	2.815	2.261	1.920	1.602	1.479	1.374	1.318	1.009	1.000	0.980	0.903	0.826	0.774	0.764	0.817	0.947	0.916	0.717	0.866	0.711	0.728	0.611	0.729	0.732	0.752	0.819	0.833	0.969	0.942	0.842	0.649	0.561	0.621	0.524	0.480	0.544	0.509	0.593	0.999	1.750	3.381	3.701	2.564	1.385	1.461	1.599	2.740	5.783	13.67	32.64	68.85	91.41	31.89	15.81	1.764	0.489	0.412	0.314
290.0	394.3	441.0	355.3	190.7	111.3	88.43	117.4	256.5	615.5	674.5	484.2	811.9	2619	6604	7295	1872	34.98	6.614	4.682	3.463	2.604	2.586	2.006	1.718	1.624	1.437	1.125	1.123	1.108	1.166	0.943	0.872	1.003	0.962	1.163	1.201	1.108	1.115	0.957	0.834	0.914	0.864	0.993	1.013	1.129	1.248	1.390	1.415	1.288	1.023	0.809	0.795	0.697	0.704	0.636	0.684	0.722	0.783	1.113	1.707	2.488	3.610	4.081	3.355	2.516	2.288	3.016	4.779	9.032	18.34	33.79	47.19	67.84	57.44	44.38	11.20	2.174
295.0	596.2	658.8	527.3	307.9	177.8	145.0	169.4	253.0	450.8	910.5	1092	807.8	1073	1794	4409	9736	685.1	38.30	7.222	4.765	3.579	2.786	2.348	1.891	1.677	1.625	1.416	1.181	1.162	1.246	1.023	0.862	1.029	1.044	1.230	1.447	1.490	1.409	1.207	1.031	1.170	1.196	1.136	1.151	1.561	1.662	1.851	1.916	1.809	1.380	1.156	1.019	0.849	0.881	0.839	0.849	0.786	1.013	1.251	1.567	1.831	2.553	3.024	4.985	6.103	5.191	3.865	3.785	4.531	6.577	9.758	12.15	17.55	27.70	66.88	95.18	34.03
300.0	713.2	803.3	632.2	378.3	219.7	199.2	235.6	315.3	471.8	786.4	1416	1182	880.0	763.1	1260	6312	9163	556.9	20.77	6.702	4.607	3.250	2.915	2.086	1.972	1.600	1.619	1.347	1.395	1.356	1.169	0.967	1.276	1.070	1.469	1.597	1.751	1.557	1.341	1.199	1.217	1.222	1.300	1.418	1.508	2.118	2.090	2.310	2.002	1.635	1.317	1.224	1.037	0.973	0.966	1.060	1.053	1.326	1.450	1.786	1.964	2.430	2.661	3.878	5.659	7.142	7.240	5.302	4.568	4.481	4.768	4.625	5.276	7.370	18.75	46.57	81.00
305.0	824.4	890.2	701.5	434.1	261.8	232.3	274.6	377.2	540.6	794.5	1285	1646	1048	618.9	499.3	1798	7929	5077	78.05	11.94	5.942	4.278	3.362	2.658	2.251	1.779	1.628	1.512	1.487	1.325	1.250	1.234	1.165	1.322	1.533	1.666	1.814	1.711	1.425	1.252	1.318	1.410	1.429	1.654	1.788	2.202	2.210	2.505	2.365	1.786	1.504	1.521	1.273	1.191	1.098	1.162	1.435	1.583	1.580	2.082	2.405	2.783	3.007	3.831	4.858	5.731	8.249	8.327	6.341	4.581	4.180	3.271	2.852	3.093	5.264	11.67	25.80
310.0	832.1	916.5	726.7	454.6	301.6	269.5	325.5	428.9	588.7	828.1	1128	1485	1445	780.7	401.5	552.7	2192	5481	6230	1612	27.53	6.237	4.477	3.428	2.720	2.153	1.829	1.918	1.554	1.439	1.427	1.348	1.158	1.291	1.575	1.697	1.825	1.653	1.524	1.358	1.277	1.472	1.584	1.593	1.939	2.237	2.293	2.533	2.310	1.873	1.653	1.589	1.460	1.385	1.296	1.407	1.677	1.706	1.979	2.177	2.671	3.073	3.418	4.125	4.519	5.081	5.996	7.201	7.551	7.308	5.525	3.789	2.885	2.407	2.578	3.730	6.709
315.0	833.0	888.2	742.2	473.4	328.7	314.2	364.2	474.3	632.4	843.4	1095	1265	1321	1153	523.9	327.1	617.9	1333	3777	8723	512.1	30.13	6.348	4.755	3.438	2.591	2.219	2.096	1.791	1.632	1.375	1.366	1.319	1.317	1.583	1.767	1.847	1.617	1.568	1.391	1.264	1.452	1.570	1.723	2.055	2.161	2.393	2.643	2.457	1.977	1.692	1.621	1.470	1.344	1.618	1.542	1.719	2.108	2.098	2.449	2.694	3.088	3.505	4.248	4.677	4.979	5.481	5.807	6.038	6.476	7.083	6.305	4.208	2.832	2.380	2.362	2.749
320.0	818.4	934.6	772.8	509.4	355.8	340.8	398.6	508.3	664.9	873.9	1103	1208	1170	1149	803.6	353.0	310.4	405.6	997.1	5587	7950	439.1	15.83	5.930	4.284	3.302	2.441	2.155	1.989	1.734	1.580	1.475	1.366	1.553	1.587	1.695	1.826	1.368	1.514	1.409	1.246	1.611	1.648	1.766	1.967	2.134	2.434	2.693	2.631	2.169	1.742	1.811	1.596	1.560	1.715	1.668	1.851	2.279	2.258	2.694	2.938	3.297	3.613	4.463	4.475	5.072	5.767	5.728	5.766	5.656	5.801	6.021	5.988	5.042	2.995	2.424	2.320
325.0	847.3	1038	901.2	600.7	408.4	379.7	438.0	541.9	690.7	899.0	1105	1199	1132	988.0	956.6	530.7	281.8	225.1	306.1	1562	6979	3926	61.47	9.893	5.544	4.206	2.998	2.548	1.977	1.821	1.593	1.422	1.349	1.644	1.677	1.586	1.609	1.452	1.537	1.397	1.431	1.678	1.671	1.817	2.019	2.483	2.544	3.055	2.956	2.379	2.122	1.945	1.872	1.845	1.805	1.727	2.069	2.276	2.343	2.684	2.993	3.394	3.866	4.365	4.741	5.005	5.521	5.516	5.504	5.699	5.192	4.832	5.618	6.013	4.767	3.272	2.413
330.0	869.6	1103	1046	728.5	505.0	443.5	479.6	587.6	723.1	920.0	1107	1202	1131	942.0	823.5	739.0	455.3	239.1	183.3	427.8	1936	4766	5391	1375	22.55	5.888	3.791	3.059	2.517	2.119	1.822	1.683	1.351	1.587	1.662	1.583	1.607	1.524	1.500	1.364	1.418	1.608	1.746	1.833	2.308	2.692	2.795	3.252	3.265	2.724	2.443	2.479	2.163	2.108	1.932	1.882	2.343	2.493	2.561	2.950	3.178	3.826	3.998	4.262	4.679	5.105	5.473	5.511	5.376	5.582	5.198	4.814	4.514	4.619	4.748	4.996	4.154
335.0	923.0	1149	1136	825.8	607.4	516.3	544.5	633.9	752.5	938.4	1110	1199	1140	962.7	784.3	668.9	676.5	390.9	206.4	210.0	507.4	1146	3577	7996	1918	25.85	5.458	4.081	2.814	2.720	2.150	1.895	1.711	1.551	1.612	1.676	1.714	1.443	1.372	1.307	1.574	1.549	1.706	2.042	2.378	2.701	2.948	3.479	3.570	3.133	2.829	2.923	2.615	2.242	2.170	2.250	2.527	2.645	2.641	2.999	3.231	3.823	4.110	4.320	4.757	5.278	5.350	5.487	5.190	5.813	5.324	4.976	4.609	4.419	4.201	3.956	4.294
340.0	915.3	1189	1162	898.6	676.3	578.6	587.2	660.5	775.5	938.5	1090	1174	1133	976.2	794.6	635.3	637.4	571.0	281.6	190.4	212.7	324.5	959.4	5533	7466	374.9	13.51	5.544	3.844	3.115	2.431	2.108	1.719	1.537	1.552	1.530	1.568	1.479	1.572	1.340	1.405	1.451	1.715	1.910	2.360	2.648	3.191	3.766	3.685	3.331	3.019	3.109	2.947	2.395	2.552	2.373	2.841	2.633	2.992	3.047	3.491	4.011	3.948	4.450	4.739	4.760	5.261	5.237	5.131	5.481	5.519	4.935	4.860	4.419	4.039	3.432	3.867
345.0	903.9	1131	1183	971.7	733.2	622.1	614.0	673.5	787.7	933.4	1065	1138	1111	977.0	802.4	644.4	558.9	608.0	425.7	229.1	175.8	166.7	281.9	1587	6760	3346	53.39	8.298	4.566	3.591	2.684	2.241	1.797	1.781	1.605	1.543	1.598	1.558	1.581	1.412	1.479	1.706	1.703	2.151	2.257	2.693	2.942	3.645	3.686	3.335	3.052	3.370	3.104	2.775	2.634	2.730	2.863	2.854	2.968	3.304	3.581	3.775	4.195	4.420	4.767	4.754	5.099	4.982	5.111	5.253	5.111	4.908	4.672	4.369	4.183	3.941	3.987
350.0	898.5	1110	1154	1005	795.8	686.8	668.3	711.4	794.3	913.1	1035	1093	1065	967.1	827.2	676.6	569.1	528.5	532.2	391.1	233.5	177.7	168.1	429.9	1943	4566	4788	1176	19.47	5.262	3.465	2.580	2.121	1.774	1.738	1.629	1.465	1.556	1.536	1.476	1.475	1.722	1.697	1.918	2.182	2.621	2.929	3.380	3.582	3.208	3.153	3.467	3.181	3.049	2.840	2.836	2.934	2.929	3.293	3.301	3.571	3.712	4.147	4.272	4.868	4.796	4.910	5.240	4.934	5.130	4.967	4.910	4.707	4.704	4.335	3.990	4.031
355.0	907.4	1079	1138	1015	859.4	764.7	728.4	749.0	814.7	911.0	995.0	1055	1025	956.2	839.0	711.9	615.4	535.5	492.6	534.8	385.1	239.5	188.8	209.4	509.6	1111	3513	7126	392.6	20.23	5.041	3.495	2.926	2.090	1.869	1.587	1.825	1.561	1.498	1.458	1.512	1.708	1.716	1.944	2.015	2.642	2.600	3.471	3.443	3.248	3.234	3.517	3.412	3.518	3.276	3.172	3.212	3.296	3.519	3.586	3.598	3.826	4.109	4.146	4.519	4.649	4.935	4.853	4.941	4.909	4.646	4.786	4.780	4.650	4.839	4.394	4.008
360.0	872.1	1047	1094	1022	901.6	826.4	797.2	788.2	853.8	919.8	983.7	1032	1009	947.0	846.0	739.6	656.0	571.3	507.3	517.4	515.1	330.8	233.1	191.7	214.3	318.4	968.1	5397	6254	335.1	11.12	4.647	3.431	2.445	2.099	1.811	1.789	1.552	1.349	1.660	1.574	1.631	1.658	1.881	2.140	2.582	2.762	3.356	3.424	3.213	3.170	3.592	3.534	3.501	3.610	3.491	3.564	3.549	3.869	3.744	3.841	4.297	4.359	4.090	4.433	4.529	4.864	4.899	5.066	4.832	4.897	4.869	4.991	4.694	4.511	4.537	4.212
365.0	827.7	1042	1114	1051	943.3	876.3	841.2	832.6	873.4	920.5	984.0	1020	993.9	944.8	859.5	765.0	680.7	608.0	540.3	507.0	545.5	465.1	296.7	222.4	179.7	162.7	278.2	1619	6479	3111	48.56	7.288	4.321	2.948	2.317	2.088	1.933	1.578	1.435	1.597	1.670	1.542	1.648	1.965	1.944	2.691	2.822	3.231	3.207	3.203	3.141	3.900	3.648	3.761	3.905	3.477	3.704	3.623	3.735	3.745	4.182	4.309	4.445	4.389	4.578	4.527	4.852	4.609	4.629	4.825	4.840	4.988	4.986	4.876	4.477	4.427	4.489
370.0	816.6	1006	1085	1059	987.2	918.8	886.0	863.2	896.6	942.5	989.6	1005	976.9	931.8	862.5	784.3	721.0	658.0	604.4	551.4	530.4	535.1	445.1	299.3	221.0	169.1	154.8	426.4	1929	4677	4728	1035	16.64	4.404	3.271	2.371	2.082	1.811	1.637	1.635	1.648	1.640	1.838	1.944	2.101	2.636	2.720	3.145	3.276	3.153	3.298	3.920	3.871	3.869	3.896	3.789	3.981	3.815	3.944	4.044	3.916	4.181	4.315	4.477	4.580	4.703	4.797	4.753	4.675	4.734	4.788	4.714	4.745	4.635	4.749	4.755	4.651
375.0	809.2	991.2	1079	1069	1013	964.5	919.0	897.8	911.6	950.6	983.0	996.5	969.1	925.4	866.5	804.8	751.6	706.1	657.3	603.3	562.8	530.0	539.1	433.7	285.7	216.1	165.5	189.3	492.8	1148	3804	6627	336.7	17.02	4.618	3.270	2.549	2.345	1.742	1.575	1.866	1.713	1.844	1.789	2.202	2.395	2.721	3.184	3.285	3.209	3.112	3.873	4.047	4.182	4.058	3.922	4.039	4.234	3.978	4.247	4.101	4.411	4.388	4.320	4.562	4.597	4.726	4.802	4.647	4.603	4.641	4.729	5.056	4.557	4.707	4.819	4.750
380.0	799.2	976.2	1068	1066	1038	1002	951.6	930.8	930.5	955.0	980.1	1003	964.1	922.9	865.8	811.4	767.8	732.1	694.7	644.6	599.8	550.3	531.9	526.0	371.0	261.4	197.5	160.8	195.0	314.6	1065	5324	5525	274.3	8.761	4.001	3.127	2.619	1.975	1.812	1.906	1.769	1.867	2.038	2.348	2.519	2.635	3.042	3.318	2.971	3.042	3.905	4.325	4.186	4.129	4.111	4.206	4.453	4.318	4.245	4.408	4.322	4.522	4.402	4.770	4.432	4.765	4.663	4.563	4.672	4.573	4.824	4.916	4.797	4.751	4.881	4.959
385.0	797.4	960.5	1080	1072	1064	1026	981.2	940.0	949.4	957.7	978.7	979.1	963.5	919.8	866.8	814.5	783.9	755.8	720.1	673.5	630.3	579.3	534.1	538.1	473.2	317.9	234.2	182.0	150.9	146.9	292.6	1637	5884	2605	39.22	6.078	3.728	3.030	2.290	2.185	2.048	1.842	1.868	2.041	2.135	2.457	2.716	3.036	3.349	3.109	3.189	4.124	4.088	4.260	4.244	4.281	4.326	4.194	4.345	4.103	4.335	4.452	4.515	4.593	4.747	4.766	4.492	4.620	4.433	4.489	4.549	4.654	5.011	4.834	4.759	4.931	5.066
390.0	822.9	973.2	1077	1093	1070	1041	995.6	962.0	958.5	961.9	977.5	971.8	954.7	914.3	864.4	821.1	791.9	771.6	739.7	704.6	659.5	616.9	567.0	527.6	511.9	432.2	306.1	230.5	181.3	147.4	148.0	422.3	1765	3905	3766	813.8	14.05	4.312	2.963	2.375	2.269	2.006	2.071	2.227	2.337	2.570	2.749	3.157	3.388	3.064	3.218	4.161	4.044	4.400	4.308	4.249	4.532	4.295	4.168	4.374	4.472	4.517	4.570	4.821	4.733	4.529	4.545	4.492	4.376	4.643	4.535	4.698	5.045	4.997	4.749	4.869	5.080
395.0	804.7	996.3	1066	1093	1095	1062	1011	993.4	968.4	956.8	972.8	969.3	931.8	911.4	861.0	826.5	798.3	780.4	747.6	725.0	693.1	644.9	602.5	553.2	506.5	491.7	416.4	292.7	232.9	188.6	150.6	175.9	452.1	971.6	3118	5133	279.7	15.00	4.339	3.082	2.553	2.463	2.349	2.350	2.238	2.737	2.704	3.228	3.444	3.239	3.134	4.241	4.191	4.330	4.463	4.137	4.577	4.319	4.566	4.618	4.584	4.682	4.655	4.529	4.806	4.729	4.373	4.524	4.575	4.287	4.317	4.874	4.781	4.907	4.894	4.830	4.898
400.0	768.0	978.7	1068	1096	1076	1066	1020	993.8	974.8	968.4	975.5	959.2	941.8	902.3	861.9	822.1	792.3	782.0	754.0	733.8	703.4	660.8	621.4	576.2	520.0	488.8	481.2	365.2	271.1	221.2	171.9	138.5	172.2	270.5	885.5	4140	4326	234.5	8.542	3.854	3.239	2.720	2.178	2.420	2.291	2.720	2.816	3.172	3.361	3.147	3.328	3.974	4.284	4.196	4.339	4.372	4.682	4.244	4.686	4.538	4.449	4.383	4.541	4.541	4.602	4.702	4.320	4.529	4.413	4.363	4.710	4.652	4.704	4.682	4.902	4.834	4.750
405.0	799.1	944.1	1070	1080	1081	1066	1038	992.6	968.7	974.0	973.8	950.6	933.1	898.1	856.0	816.1	784.7	770.2	750.3	726.1	704.8	668.8	636.7	594.1	538.9	489.9	480.2	436.5	319.4	253.4	197.4	146.0	123.2	123.1	242.6	1271	4574	2239	35.32	5.578	3.754	2.838	2.479	2.515	2.420	2.590	3.110	3.354	3.415	3.263	3.319	3.990	4.227	4.202	4.341	4.419	4.410	4.631	4.320	4.427	4.551	4.626	4.575	4.529	4.548	4.262	4.105	4.569	4.341	4.521	4.469	4.432	4.457	4.802	4.688	4.607	4.734
410.0	781.2	938.6	1060	1075	1058	1055	1027	1005	975.5	969.5	959.8	939.8	923.8	890.1	837.5	796.0	771.6	751.9	735.8	717.3	694.8	668.8	641.9	605.2	556.3	510.2	468.6	454.0	399.0	305.3	231.9	174.6	133.3	107.7	111.8	323.4	1363	3132	3072	735.6	12.54	3.548	3.023	2.700	2.653	2.751	2.753	3.304	3.336	3.285	3.408	4.034	4.225	4.198	4.273	4.143	4.513	4.521	4.370	4.592	4.514	4.557	4.452	4.537	4.409	4.333	4.138	4.396	4.439	4.568	4.435	4.475	4.572	4.551	4.579	4.555	4.887
415.0	766.0	914.5	1040	1069	1053	1023	1020	991.9	961.6	947.1	956.3	925.6	898.2	855.1	819.6	768.4	741.0	722.1	714.8	699.3	674.1	655.8	629.0	597.1	561.3	521.8	473.9	439.5	424.9	375.7	272.4	201.5	154.2	121.2	96.11	120.2	336.1	768.4	2449	4055	254.5	12.78	3.914	3.247	3.094	2.814	2.881	3.129	3.384	3.000	3.236	4.067	3.947	4.238	4.363	4.164	4.587	4.464	4.571	4.483	4.601	4.461	4.616	4.607	4.412	4.226	4.136	4.332	4.307	4.274	3.950	4.258	4.446	4.803	4.400	4.474	4.791
420.0	760.8	895.2	1001	1035	1020	1012	1005	979.5	947.2	942.6	922.9	906.0	871.2	838.2	790.7	740.0	723.0	701.0	693.0	672.1	655.1	638.7	615.6	586.5	558.2	518.5	479.3	435.1	412.9	404.0	314.7	221.0	170.1	133.0	101.3	81.73	112.5	197.0	680.9	3206	3487	217.8	7.343	3.592	3.319	3.083	3.097	3.114	3.340	2.906	3.094	3.773	4.135	4.286	4.419	4.253	4.439	4.287	4.452	4.525	4.688	4.789	4.488	4.201	4.383	4.059	3.994	4.117	4.339	4.209	3.974	4.568	4.442	4.403	4.407	4.276	4.615
425.0	747.6	911.5	984.3	994.2	1002	991.9	985.3	967.7	941.1	929.1	909.1	882.3	846.8	813.1	761.6	716.5	696.8	671.4	665.4	645.2	632.0	617.2	595.1	574.0	543.9	510.5	473.8	433.9	400.4	393.8	348.4	247.4	184.5	143.1	109.0	79.36	67.97	73.59	173.2	971.2	3566	2076	33.57	5.316	3.622	3.215	3.122	3.299	3.381	3.077	3.202	3.694	3.949	4.267	4.402	4.254	4.429	4.401	4.288	4.316	4.652	4.370	4.644	4.329	4.314	4.221	3.985	3.774	4.120	4.152	4.057	4.356	4.171	4.351	4.443	4.128	4.402
430.0	776.7	849.4	941.3	949.4	968.2	971.9	968.4	950.8	936.9	905.0	883.8	856.0	821.7	785.4	731.3	686.7	661.9	642.5	632.6	618.0	601.5	590.8	571.6	554.4	529.4	499.5	470.6	432.3	399.3	371.6	345.4	288.5	209.9	156.8	121.7	89.85	68.07	53.47	65.06	236.8	1032	2475	2628	711.8	13.24	3.927	3.441	3.456	3.249	3.111	3.090	3.765	3.780	4.035	4.166	4.012	4.452	4.381	4.512	4.196	4.500	4.482	4.557	4.198	4.067	4.163	3.928	3.752	3.871	3.887	3.978	3.949	4.073	4.070	3.920	3.978	4.145
435.0	964.3	828.8	902.8	932.8	928.1	925.7	943.7	927.5	913.6	881.9	866.6	837.2	800.5	756.8	700.8	660.5	630.0	615.1	597.5	585.6	567.3	556.2	542.9	531.4	511.1	488.4	461.0	429.7	398.5	367.9	325.9	297.4	250.8	177.7	134.9	100.4	77.71	58.66	48.40	77.65	247.6	592.9	1889	3675	248.0	15.95	4.111	3.687	3.396	3.197	3.077	3.554	3.843	3.947	4.072	4.222	4.207	4.415	4.777	4.283	4.156	4.181	4.568	4.061	4.111	4.150	3.797	4.020	3.989	3.748	3.903	4.085	3.982	4.047	3.884	3.934	3.981
440.0	1327	857.8	882.1	884.4	903.6	895.6	932.2	920.8	896.3	871.1	856.4	821.8	776.5	736.2	680.2	631.9	603.3	581.8	573.4	558.0	542.3	531.0	522.7	515.4	492.3	473.8	448.6	423.5	394.5	361.7	321.5	284.2	263.6	204.5	145.8	109.6	85.00	64.36	49.27	45.95	76.82	148.6	510.6	2688	3411	221.8	10.29	4.317	4.014	3.368	3.164	3.751	3.588	3.991	4.041	4.052	4.202	4.157	4.411	4.257	4.182	4.216	4.388	4.037	4.063	3.961	3.776	3.717	3.774	3.865	3.745	3.767	3.853	3.789	3.854	3.658	4.037
445.0	1444	1072	829.5	850.0	871.4	876.9	897.8	896.4	876.1	855.0	832.7	798.2	756.0	708.8	654.8	608.5	583.0	562.4	547.0	531.2	518.0	506.1	501.6	486.3	472.0	452.3	434.1	409.8	386.2	357.4	319.1	273.7	251.6	223.3	162.2	117.6	91.40	70.30	53.41	42.27	41.14	51.81	128.7	780.4	3158	1952	170.7	6.828	4.170	3.493	3.203	3.641	3.739	3.832	3.907	3.468	3.945	4.046	4.307	4.097	4.482	4.173	4.349	4.187	4.108	3.722	3.637	3.564	3.518	3.706	3.670	3.456	3.645	3.835	3.819	3.650	3.880
450.0	1097	1564	890.8	797.8	822.5	832.5	857.1	842.3	830.5	813.9	784.9	754.9	707.3	662.8	613.0	568.6	542.0	522.4	505.9	490.2	476.0	467.2	462.2	450.5	441.5	423.4	405.9	388.1	368.5	345.8	310.1	266.8	231.0	212.6	183.4	131.7	99.64	76.93	60.01	46.77	38.03	33.52	45.73	188.2	878.6	2178	2493	740.4	12.95	4.046	3.539	3.796	3.702	3.744	3.818	3.475	4.191	4.031	4.191	3.920	4.099	3.849	3.999	3.837	3.807	3.774	3.538	3.510	3.559	3.624	3.450	3.388	3.493	3.535	3.522	3.395	3.729
455.0	667.5	1595	1191	755.0	773.8	781.9	792.0	788.8	768.5	768.8	740.0	704.7	659.3	606.5	558.4	524.3	494.9	479.0	460.6	447.0	436.2	422.6	418.1	409.1	401.3	390.4	372.0	358.5	342.0	325.2	293.5	254.5	219.5	190.3	179.7	152.7	109.1	82.34	65.47	52.05	41.61	33.09	30.86	57.90	208.0	510.4	1433	3292	1054	15.51	4.023	3.799	3.823	3.606	3.696	3.394	3.682	3.653	4.044	3.724	3.683	3.924	3.555	3.609	3.577	3.519	3.269	3.353	3.268	3.386	3.225	3.345	3.232	3.226	3.348	3.245	3.381
460.0	539.2	1168	1715	821.6	718.5	740.0	761.7	750.0	732.6	729.0	699.3	665.7	625.5	573.3	524.8	485.8	461.2	444.8	426.5	412.6	399.6	391.6	386.7	379.8	370.6	363.5	348.3	333.8	322.8	308.0	282.0	248.4	213.7	183.2	163.3	154.2	122.3	86.78	69.74	55.79	44.08	35.99	29.76	31.28	60.67	125.7	361.4	1980	3139	182.2	12.08	4.515	3.833	3.385	3.471	3.203	3.685	3.690	3.591	3.681	3.650	3.754	3.614	3.532	3.776	3.339	3.337	3.214	3.081	2.865	3.076	3.117	2.992	2.988	3.074	3.116	3.260
465.0	485.2	764.7	1819	1142	668.9	692.7	715.4	707.5	698.8	689.7	653.3	628.6	586.4	533.0	495.2	454.2	428.3	413.7	394.6	381.4	368.7	364.7	356.4	352.9	342.9	336.0	323.1	312.8	303.8	290.3	265.3	234.5	203.6	177.1	152.3	143.6	129.6	96.64	72.28	58.01	46.44	38.69	30.90	26.47	28.80	40.94	91.15	526.2	2346	2590	164.9	9.241	4.100	3.454	3.399	3.317	3.533	3.458	3.344	3.459	3.488	3.667	3.459	3.353	3.557	3.255	3.212	3.049	3.010	2.842	2.719	2.802	2.911	2.920	2.887	2.924	2.988
470.0	456.3	557.6	1230	1722	765.1	626.5	643.2	648.1	633.9	628.9	610.7	570.5	535.7	490.8	447.8	407.8	387.0	370.0	350.5	337.5	329.4	323.3	317.2	312.1	305.9	298.9	287.8	283.8	275.0	262.3	242.9	217.3	191.7	166.7	143.7	126.3	119.0	104.4	78.94	60.24	48.59	40.57	33.44	27.32	24.12	23.35	32.00	127.3	610.6	1674	2142	813.7	15.30	4.110	3.631	3.309	3.339	3.111	3.192	3.290	3.129	3.206	3.329	3.108	3.006	2.899	2.864	2.727	2.600	2.710	2.688	2.659	2.640	2.714	2.584	2.647	2.580
475.0	468.7	485.9	684.7	1657	1311	579.4	579.2	578.1	576.2	564.9	551.8	514.9	483.3	443.6	399.6	368.3	342.9	325.5	308.6	298.7	288.4	280.0	277.4	272.1	267.0	259.0	254.6	252.2	244.4	237.8	218.8	200.9	177.7	155.0	133.0	117.1	104.4	98.93	87.51	64.79	50.63	41.20	34.67	28.48	24.72	20.93	19.92	39.13	144.5	382.9	859.2	2246	1112	21.12	4.023	3.244	3.118	3.024	3.123	3.072	2.867	2.966	3.004	2.807	2.807	2.717	2.630	2.663	2.441	2.383	2.418	2.562	2.636	2.447	2.229	2.263	2.150
480.0	424.1	459.7	517.2	1138	1819	650.4	535.3	538.1	545.2	526.2	513.8	485.4	447.6	412.4	366.7	343.5	314.8	299.5	283.9	275.1	262.7	254.8	251.5	248.6	243.5	238.8	233.2	228.0	225.4	218.7	204.2	185.1	165.8	145.4	126.2	112.7	97.28	88.63	86.54	70.48	52.55	42.53	36.18	29.82	25.71	21.70	18.31	20.04	41.20	92.68	206.1	1063	2443	912.6	15.87	3.874	3.254	3.066	2.898	3.040	2.693	2.757	2.714	2.642	2.443	2.424	2.444	2.410	2.215	2.322	2.273	2.293	2.604	2.161	2.109	2.395	2.155
485.0	378.7	456.2	446.9	680.0	1878	998.1	512.5	507.4	506.3	496.8	485.1	456.0	419.8	389.9	344.7	314.9	291.7	280.3	264.1	252.7	241.7	238.8	232.8	229.5	225.2	219.1	216.5	212.0	210.7	203.9	191.7	175.0	156.6	137.1	121.4	107.9	93.83	82.68	78.99	76.11	56.73	42.81	36.44	30.46	27.05	22.45	18.95	16.31	18.75	28.49	52.98	266.6	1488	2364	206.4	10.50	3.461	3.200	2.800	2.862	2.823	2.605	2.781	2.381	2.211	2.417	2.295	2.239	2.262	2.272	2.179	1.987	2.440	2.111	2.101	2.263	2.182
490.0	301.8	447.5	410.2	464.8	1178	1694	618.7	469.8	466.6	461.1	445.7	420.8	384.3	352.5	315.3	286.0	265.9	252.8	241.3	227.9	217.9	212.2	208.7	206.1	202.8	200.0	195.9	193.5	191.2	185.6	176.2	162.3	146.2	130.2	115.0	101.4	90.37	78.95	71.68	69.21	61.76	47.65	38.19	31.86	27.51	23.45	19.85	16.92	14.50	14.91	18.90	65.82	369.1	1203	1731	880.5	17.95	3.987	3.044	2.792	2.773	2.496	2.404	2.400	2.322	2.410	2.274	2.118	2.047	2.118	2.093	1.952	2.110	1.890	2.029	1.989	2.071
495.0	259.1	387.3	403.3	380.8	570.4	1655	1206	436.1	419.9	415.1	401.6	378.6	349.5	319.5	284.3	255.9	238.6	224.0	213.8	201.4	193.3	187.8	185.1	184.9	180.8	178.0	174.2	171.8	172.4	168.1	159.7	146.5	132.6	118.0	106.4	94.28	84.67	75.25	65.62	60.31	57.87	53.67	40.81	32.41	27.70	23.83	20.23	17.41	14.60	12.75	11.84	21.07	87.85	274.4	660.0	2091	1432	25.84	3.968	2.710	2.899	2.443	2.431	2.397	2.100	2.165	2.120	1.880	1.839	2.102	1.932	1.894	1.905	1.849	1.983	1.976	1.674
500.0	240.5	315.5	403.6	358.9	391.4	1069	1815	502.1	382.3	380.6	367.7	348.9	319.7	292.8	262.9	235.9	214.9	204.7	194.7	183.6	177.3	171.2	168.4	165.7	163.6	161.0	156.4	158.4	155.2	153.7	147.5	134.4	122.7	110.7	98.41	88.39	79.17	70.50	62.74	55.30	52.34	52.28	44.80	33.63	27.70	23.70	21.00	17.62	14.92	12.68	10.80	11.60	25.42	66.17	155.8	869.2	2417	1118	21.18	3.309	2.696	2.316	2.287	2.221	2.021	1.974	1.933	1.991	1.857	1.863	1.688	1.680	1.886	1.754	1.747	1.662	1.652
505.0	202.1	258.6	381.7	338.6	331.4	583.3	1919	860.7	356.7	351.9	341.7	325.0	297.4	265.4	244.0	216.8	196.5	188.2	179.6	168.0	161.6	154.1	151.9	151.9	148.0	145.5	144.0	143.1	142.0	140.0	136.0	124.4	114.1	102.4	91.41	83.74	73.81	66.39	59.71	52.54	47.33	47.90	46.19	35.85	27.51	23.88	21.09	17.46	15.01	12.69	10.82	9.468	11.90	20.19	39.42	209.4	1205	2367	237.1	14.10	2.834	2.530	2.163	2.242	2.068	1.966	1.943	1.737	1.745	1.824	1.573	1.643	1.695	1.421	1.523	1.552	1.407
510.0	182.4	223.1	310.3	341.8	294.7	353.3	1168	1650	458.3	314.7	306.1	285.7	260.9	234.7	212.1	189.6	174.1	165.8	155.1	146.4	139.7	135.6	132.4	129.2	128.1	126.0	125.4	123.5	124.2	123.3	119.1	109.4	100.9	91.17	82.48	74.83	67.01	60.29	54.00	48.21	43.24	40.29	40.86	37.34	29.82	23.77	20.12	17.11	14.88	12.40	10.79	9.385	8.759	9.817	13.63	51.10	288.9	1035	1583	896.2	18.71	3.133	2.168	2.005	1.891	1.841	1.704	1.589	1.520	1.563	1.475	1.417	1.431	1.349	1.388	1.299	1.385
515.0	153.0	196.7	248.3	311.7	279.2	273.7	490.3	1728	1045	289.2	269.5	249.3	229.5	207.0	185.8	164.8	151.0	144.0	136.0	127.1	121.0	116.8	114.4	111.5	111.3	108.6	105.9	106.4	107.5	106.4	103.7	96.44	87.71	80.05	73.85	66.69	60.56	54.21	48.88	43.80	40.25	35.29	33.69	33.72	32.42	23.76	19.53	17.05	14.41	12.33	10.86	9.429	8.238	7.544	7.894	15.90	68.26	234.6	516.0	1666	1228	26.35	2.599	2.189	1.942	1.692	1.657	1.479	1.400	1.413	1.265	1.224	1.253	1.368	1.279	1.214	1.242
520.0	150.7	178.4	219.8	273.1	283.5	235.1	288.4	1105	1766	354.9	240.9	229.6	212.7	187.4	166.6	148.4	135.0	128.4	118.5	112.8	107.0	104.3	102.3	98.98	98.03	97.38	95.47	95.29	96.15	94.45	93.60	86.37	79.26	71.45	66.84	61.37	55.38	49.11	44.81	39.86	36.84	33.47	30.01	30.25	31.79	25.52	19.60	16.33	13.80	12.04	10.63	9.412	8.608	6.765	6.460	8.004	19.00	55.72	120.3	653.3	1838	891.0	19.89	2.422	1.973	1.688	1.707	1.465	1.393	1.202	1.308	1.170	1.222	1.170	1.175	1.141	1.046
525.0	137.6	151.7	177.3	221.6	296.8	223.0	235.0	541.1	2055	703.5	221.8	208.6	188.9	168.1	150.8	133.8	122.1	115.6	108.9	101.4	96.63	93.24	90.70	88.50	87.93	86.57	85.79	86.19	85.17	85.79	84.13	77.49	71.72	65.11	60.21	56.10	50.33	45.53	41.96	37.53	33.75	30.80	28.34	26.21	27.36	26.82	21.23	15.69	13.45	11.80	10.22	8.851	7.673	6.894	6.073	5.998	8.189	15.95	29.96	155.1	862.5	1773	237.2	12.22	2.090	1.692	1.526	1.492	1.262	1.169	1.155	1.191	1.125	1.166	1.059	1.082	1.035
530.0	118.4	138.6	155.8	176.8	253.6	231.2	194.8	269.9	1255	1653	318.6	184.8	165.0	147.4	130.1	117.7	107.8	100.0	94.51	88.42	84.33	80.52	78.68	77.26	76.22	74.49	73.55	74.23	74.03	73.87	72.96	67.86	62.86	58.49	52.41	49.02	43.90	40.35	37.21	33.87	30.58	27.16	25.48	23.19	22.50	23.58	21.86	16.18	12.85	11.08	9.757	8.510	7.456	6.928	6.077	5.645	5.454	7.037	9.708	37.56	204.7	754.5	1201	699.7	17.91	2.120	1.430	1.417	1.206	1.058	1.081	0.979	0.970	1.075	0.984	0.965	0.907
535.0	102.8	116.9	138.7	147.0	185.3	238.3	171.4	188.4	458.9	1872	933.5	163.7	141.7	126.3	111.0	102.5	91.34	84.82	80.84	74.74	71.50	68.88	66.31	66.63	65.37	63.32	63.38	63.55	62.55	63.10	63.00	57.81	53.30	49.24	45.73	42.73	38.35	35.16	32.59	29.49	26.39	23.81	22.39	20.07	19.19	18.87	20.09	17.26	12.66	10.13	9.153	7.820	7.232	6.360	5.992	5.656	4.718	4.931	5.044	11.04	48.09	170.9	371.7	1196	922.6	25.17	1.941	1.349	1.189	1.080	0.965	0.937	0.852	0.818	0.799	0.869	0.840
540.0	90.74	98.95	116.3	129.5	146.1	225.0	175.5	158.8	221.1	1163	1744	202.8	126.7	113.9	99.63	87.31	80.78	75.58	70.20	66.27	63.00	59.81	59.18	57.33	56.21	55.02	55.82	55.08	55.06	54.86	54.40	52.00	47.00	43.52	40.05	37.28	33.77	31.30	28.96	26.91	23.42	22.11	20.23	18.04	16.87	16.26	16.39	17.30	13.61	9.825	8.664	7.447	6.613	5.886	5.699	5.743	4.753	4.299	3.872	5.027	12.85	40.25	86.14	454.0	1338	657.3	18.30	1.511	1.191	1.152	0.944	0.814	0.927	0.752	0.788	0.677	0.748
545.0	78.25	95.60	109.7	111.4	116.4	181.4	188.4	137.9	149.7	495.4	2136	502.8	113.8	101.6	90.00	78.20	71.28	67.19	62.06	58.61	55.14	53.19	52.45	51.94	48.83	47.58	48.68	48.65	48.62	48.50	48.05	45.28	41.61	39.55	35.84	33.55	30.99	28.85	26.38	23.58	21.25	19.80	18.37	16.23	15.73	14.44	13.89	15.52	14.00	10.10	8.060	7.074	6.084	5.446	5.201	5.308	4.786	4.041	3.572	3.678	5.019	10.88	21.04	106.9	606.4	1268	232.1	10.06	1.280	1.030	0.988	0.768	0.791	0.788	0.792	0.710	0.691
550.0	72.53	84.12	97.50	95.71	95.63	130.6	185.5	131.2	116.5	203.4	1247	1476	148.1	85.36	74.94	65.81	60.78	56.19	52.87	48.90	45.74	44.43	43.45	42.48	41.25	40.26	40.35	39.71	40.32	41.32	39.59	37.60	34.92	32.81	29.91	28.14	26.15	23.75	22.24	20.13	18.39	17.08	15.68	14.34	13.42	12.50	11.46	11.68	12.35	10.48	8.201	6.340	5.528	5.034	4.635	4.282	4.371	4.095	3.296	2.945	3.101	4.118	6.286	25.47	142.8	520.4	860.4	512.0	17.08	1.411	1.002	0.940	0.740	0.698	0.687	0.645	0.674
555.0	69.35	79.94	78.43	85.18	80.61	88.42	148.6	145.9	97.89	118.5	393.8	1794	631.6	74.08	60.52	54.72	48.78	45.49	43.30	40.29	37.36	35.12	34.96	33.94	33.45	32.88	32.44	32.14	32.38	32.22	31.93	30.95	28.40	26.50	24.56	23.62	22.07	19.66	18.09	16.91	15.25	13.77	13.38	12.40	11.28	10.36	9.321	8.651	9.214	9.656	8.157	5.961	5.089	4.453	4.101	3.949	3.640	3.556	3.273	2.609	2.344	2.590	2.838	7.014	33.28	117.5	259.3	810.9	629.0	23.79	1.177	0.899	0.717	0.682	0.656	0.649	0.594
560.0	69.72	69.04	68.38	71.64	68.43	74.35	110.3	156.5	89.47	87.60	154.1	1113	1318	105.6	52.76	45.76	41.96	38.68	36.55	33.57	31.80	30.39	29.56	28.47	27.63	27.23	27.84	27.05	27.32	27.59	27.46	25.70	24.33	22.08	20.86	19.36	18.54	17.14	15.86	14.55	12.91	11.51	11.52	10.61	9.799	8.770	8.152	7.555	7.305	7.644	7.937	5.987	4.569	4.088	3.660	3.574	3.294	3.197	3.228	2.737	2.120	2.009	1.941	2.708	8.749	27.18	59.69	301.7	878.1	251.7	15.33	0.960	0.727	0.625	0.570	0.648	0.542
565.0	63.70	66.98	61.62	61.23	59.73	62.98	77.00	148.9	90.01	76.99	90.22	425.0	1830	307.8	46.64	42.46	36.80	33.25	31.15	29.07	26.94	26.24	25.57	25.14	23.53	23.58	23.80	23.00	23.51	23.02	23.28	21.89	21.18	19.07	17.67	16.62	15.29	14.46	13.76	12.27	11.27	10.66	9.462	9.280	8.318	7.759	7.015	6.602	5.999	6.136	7.033	5.982	4.522	3.568	3.352	3.126	2.750	2.763	2.855	2.819	2.062	1.821	1.736	1.860	3.038	7.180	14.27	70.66	383.8	777.4	210.5	6.295	0.894	0.591	0.584	0.535	0.601
570.0	59.26	68.33	62.24	52.35	51.02	50.85	59.39	111.3	116.4	73.08	71.29	153.9	1124	1140	76.20	33.14	30.06	27.16	25.17	23.55	22.34	20.87	20.32	20.31	19.18	18.85	18.78	18.98	19.11	18.70	18.88	17.84	16.88	15.52	14.63	13.58	12.55	11.62	10.85	10.24	9.182	8.852	7.955	7.662	7.229	6.614	5.974	5.599	4.960	4.690	5.065	5.415	4.502	3.517	2.973	2.661	2.519	2.320	2.281	2.253	2.154	1.802	1.625	1.455	1.680	2.650	4.146	16.66	90.17	328.3	549.5	273.2	14.64	0.881	0.642	0.565	0.537
575.0	58.53	70.39	60.15	48.58	45.13	45.77	49.54	68.38	132.4	81.62	69.38	86.23	338.7	1511	406.2	28.08	23.48	22.33	20.29	18.18	17.54	17.35	16.49	16.18	16.23	15.65	15.09	15.09	15.47	15.10	14.99	14.31	13.40	12.45	11.41	10.53	10.14	9.179	8.823	8.514	7.739	7.173	6.727	6.009	5.544	5.497	4.856	4.485	4.072	3.733	3.555	3.865	4.239	3.413	2.669	2.304	2.085	2.060	1.870	1.736	1.782	1.973	1.629	1.284	1.168	1.434	1.884	4.465	20.87	74.08	166.7	500.6	255.6	18.83	0.871	0.546	0.453
580.0	65.37	64.43	60.93	45.52	38.98	40.65	42.42	51.39	114.1	102.3	72.13	70.09	125.5	953.0	946.1	44.56	20.06	19.10	16.95	15.51	14.93	14.83	14.46	13.54	13.18	13.11	12.74	12.40	13.55	12.79	12.60	12.34	11.29	10.07	9.719	8.970	8.729	8.128	7.407	7.105	6.218	6.188	5.767	5.157	4.794	4.800	4.349	4.210	3.419	3.214	2.976	3.081	3.727	3.493	2.674	2.117	1.869	1.890	1.858	1.497	1.405	1.681	1.855	1.307	1.161	1.099	1.256	1.828	5.376	17.38	38.30	190.2	522.0	218.5	11.16	0.615	0.462
585.0	62.14	70.35	57.40	45.88	38.99	36.64	39.24	43.31	86.61	122.8	77.87	69.93	75.09	361.9	1418	104.7	18.08	17.50	14.83	13.45	13.05	13.07	12.24	12.17	11.50	11.36	11.09	10.79	12.33	10.75	11.04	10.37	9.389	8.742	8.574	7.428	7.382	6.872	6.283	5.996	5.491	5.139	4.903	4.625	4.206	4.064	3.712	3.617	3.127	3.105	2.633	2.602	2.861	3.187	2.800	2.138	1.742	1.652	1.589	1.418	1.323	1.384	1.736	1.371	1.154	1.073	1.006	1.090	1.952	4.639	9.213	44.71	240.9	497.9	160.5	3.885	0.588
590.0	67.56	69.11	60.28	42.98	33.90	34.49	34.26	41.49	61.11	120.2	95.27	72.28	67.09	119.5	867.1	736.2	36.62	14.19	12.52	11.27	10.75	10.38	10.09	9.403	9.495	9.193	9.197	8.923	9.694	8.863	9.023	8.265	7.820	7.308	6.819	6.250	6.060	5.696	5.332	5.059	4.563	4.367	4.098	3.955	3.556	3.469	3.180	2.944	2.752	2.558	2.272	2.100	2.058	2.506	2.691	2.268	1.700	1.502	1.348	1.262	1.087	1.186	1.343	1.459	1.275	1.097	0.929	0.953	1.184	1.667	2.713	10.57	56.66	205.8	350.9	147.2	13.74
595.0	75.12	77.70	60.78	40.75	32.06	32.59	33.20	40.02	49.07	94.70	124.4	77.60	68.07	58.35	246.1	1067	237.9	12.60	10.39	9.369	8.917	8.381	8.072	7.847	7.526	7.431	6.949	7.215	7.338	7.351	7.373	6.841	6.644	5.936	5.511	5.106	4.850	4.710	4.270	4.225	3.900	3.889	3.349	3.204	2.907	2.665	2.684	2.417	2.311	1.933	1.875	1.584	1.601	1.744	2.010	2.256	1.790	1.350	1.149	1.062	1.040	0.885	1.009	1.191	1.352	1.105	0.870	0.902	0.871	0.937	1.242	3.021	13.15	46.45	104.0	305.0	229.1
600.0	69.52	75.27	59.26	42.00	31.34	27.80	31.35	38.14	47.87	73.21	126.1	86.85	65.91	44.85	76.03	697.9	650.9	18.65	9.002	8.291	7.899	7.189	6.727	6.770	6.403	6.515	5.879	6.424	6.329	6.329	5.900	5.574	5.243	4.914	4.573	4.434	4.273	3.668	3.581	3.350	3.097	3.185	2.829	2.760	2.614	2.406	2.297	2.140	2.021	1.698	1.591	1.588	1.448	1.441	1.499	2.026	1.783	1.393	1.167	0.970	0.961	0.883	0.872	0.978	1.074	1.271	0.942	0.874	0.842	0.772	0.930	1.145	3.405	10.73	23.86	114.1	332.4
605.0	64.87	70.54	54.33	38.05	28.19	25.61	29.07	37.40	45.78	62.55	117.6	99.19	66.52	41.88	36.13	263.8	964.6	68.28	8.185	7.057	6.796	6.000	5.658	5.516	5.604	5.743	5.182	5.264	4.999	5.154	5.041	4.519	4.441	4.402	4.040	3.966	3.812	3.196	3.141	2.999	2.556	2.755	2.273	2.245	2.444	2.125	1.924	1.965	1.727	1.544	1.472	1.453	1.290	1.279	1.308	1.591	1.726	1.516	1.073	0.952	0.963	0.811	0.797	0.909	0.860	1.313	1.115	0.901	0.763	0.701	0.722	0.673	1.200	2.880	5.750	26.75	145.8
610.0	59.95	67.07	54.39	37.84	27.53	24.80	27.62	35.03	45.15	56.40	93.27	116.8	70.29	41.67	26.72	74.73	631.5	479.9	17.96	6.358	5.781	5.350	4.431	4.688	4.444	4.421	4.232	4.335	4.083	4.264	4.179	3.906	3.691	3.653	3.365	3.070	3.117	2.831	2.672	2.264	2.117	2.159	2.067	1.872	1.950	1.807	1.622	1.580	1.567	1.320	1.212	1.171	1.042	0.946	1.065	1.115	1.378	1.398	1.074	0.852	0.822	0.811	0.826	0.798	0.802	0.954	1.054	1.010	0.727	0.710	0.630	0.557	0.683	1.073	1.683	6.377	34.31
615.0	58.43	73.72	48.50	35.50	25.62	23.63	24.87	32.97	43.08	52.63	73.07	113.1	81.35	41.31	25.27	28.19	180.5	759.0	75.22	5.207	4.966	4.339	4.190	3.549	3.680	3.489	3.453	3.075	3.352	3.430	3.425	3.146	2.940	2.922	2.538	2.587	2.398	2.284	2.099	1.875	1.714	1.842	1.757	1.549	1.469	1.627	1.501	1.308	1.255	1.063	1.036	0.841	0.831	0.817	0.853	0.911	1.017	1.110	0.946	0.895	0.646	0.694	0.782	0.682	0.787	0.758	0.863	0.968	0.857	0.677	0.583	0.499	0.566	0.572	0.718	1.773	7.959
620.0	51.96	61.29	46.32	33.42	24.33	21.25	23.75	28.85	37.36	51.43	65.32	93.39	90.98	43.97	23.63	17.87	51.09	539.2	416.6	8.912	4.199	3.750	3.447	3.155	3.064	2.879	2.957	3.033	2.832	2.936	2.760	2.736	2.368	2.493	2.258	2.217	2.034	2.059	1.726	1.581	1.637	1.438	1.553	1.375	1.255	1.419	1.217	1.172	1.043	0.975	0.874	0.802	0.715	0.786	0.723	0.763	0.815	0.872	0.916	0.901	0.709	0.698	0.749	0.615	0.658	0.649	0.721	0.725	0.907	0.824	0.633	0.525	0.479	0.446	0.463	0.742	2.102
625.0	50.29	59.72	47.23	29.26	23.02	20.18	24.37	30.06	37.22	46.99	61.27	79.23	95.61	45.50	24.32	15.16	19.81	214.8	693.8	42.14	3.630	3.327	3.179	3.016	2.694	2.621	2.437	2.608	2.532	2.429	2.421	2.283	2.086	2.021	1.816	2.113	1.731	1.692	1.512	1.552	1.504	1.168	1.314	1.310	1.066	1.227	1.086	1.052	0.879	0.850	0.759	0.686	0.640	0.713	0.656	0.628	0.624	0.715	0.808	0.868	0.737	0.682	0.637	0.570	0.681	0.561	0.611	0.721	0.747	0.909	0.691	0.482	0.499	0.365	0.439	0.464	0.775
630.0	44.22	52.11	40.69	27.80	22.24	21.29	22.45	28.72	34.45	44.95	56.12	65.46	83.26	55.51	24.61	14.09	12.38	58.16	498.9	337.2	8.564	2.969	2.688	2.519	2.346	2.219	2.067	2.091	2.086	2.006	2.090	1.894	1.665	1.773	1.689	1.587	1.464	1.477	1.247	1.231	1.196	1.014	1.068	1.009	0.915	0.954	0.852	0.909	0.735	0.740	0.613	0.622	0.596	0.576	0.586	0.580	0.628	0.632	0.650	0.801	0.747	0.646	0.558	0.572	0.595	0.560	0.655	0.620	0.643	0.711	0.763	0.558	0.482	0.422	0.352	0.439	0.472
635.0	45.74	47.53	39.59	26.28	19.69	18.50	22.73	27.18	32.61	42.51	51.42	59.12	64.43	63.25	27.14	14.73	10.77	18.87	146.7	589.0	56.95	2.748	2.482	2.197	1.888	1.748	1.694	1.633	1.798	1.778	1.677	1.499	1.346	1.357	1.294	1.259	1.161	1.208	1.013	0.935	1.026	0.919	0.871	0.852	0.846	0.796	0.755	0.815	0.706	0.570	0.546	0.515	0.574	0.568	0.499	0.486	0.516	0.505	0.475	0.573	0.651	0.633	0.489	0.552	0.520	0.565	0.601	0.595	0.679	0.526	0.713	0.753	0.454	0.398	0.363	0.410	0.420
640.0	44.00	43.23	37.56	25.40	20.52	20.61	20.25	24.91	30.52	40.25	51.12	55.93	52.76	59.39	33.48	15.29	10.73	10.58	39.00	451.6	287.9	4.221	2.294	1.954	1.756	1.699	1.403	1.384	1.547	1.469	1.496	1.232	1.274	1.149	1.104	1.058	1.144	1.078	0.859	1.040	0.812	0.808	0.780	0.724	0.709	0.711	0.603	0.720	0.634	0.590	0.557	0.483	0.467	0.429	0.499	0.442	0.469	0.486	0.498	0.610	0.576	0.671	0.511	0.555	0.495	0.538	0.540	0.495	0.614	0.544	0.571	0.640	0.525	0.451	0.350	0.368	0.343
645.0	45.77	43.86	39.15	25.07	18.38	18.94	21.59	24.55	29.24	37.66	48.12	50.70	47.46	51.97	40.97	16.54	11.94	8.552	13.37	192.3	516.2	26.11	2.055	1.770	1.655	1.572	1.313	1.271	1.267	1.345	1.308	1.149	1.070	1.087	0.975	0.990	1.028	0.854	0.705	0.817	0.631	0.681	0.749	0.529	0.641	0.612	0.553	0.588	0.563	0.504	0.448	0.423	0.482	0.492	0.410	0.408	0.432	0.459	0.445	0.478	0.461	0.572	0.633	0.544	0.430	0.484	0.505	0.525	0.522	0.416	0.501	0.569	0.584	0.441	0.348	0.325	0.327
650.0	36.77	43.74	37.84	26.31	20.35	18.01	22.01	24.51	28.11	37.20	47.83	50.83	44.37	44.57	45.50	19.50	12.26	8.186	6.949	55.17	514.6	139.8	2.207	1.563	1.334	1.342	1.394	1.149	1.028	1.163	1.176	1.086	0.993	0.970	0.851	0.968	0.815	0.877	0.651	0.759	0.604	0.648	0.652	0.548	0.545	0.562	0.521	0.532	0.507	0.434	0.456	0.370	0.391	0.410	0.318	0.392	0.402	0.406	0.402	0.440	0.453	0.510	0.576	0.546	0.405	0.476	0.501	0.489	0.407	0.480	0.471	0.464	0.502	0.483	0.328	0.327	0.286
