Sample:	'1
File name:	t2025022507金星科技厂内井6  测不出.FD3
Run date:	'11:46:32, 02/26/2025
Operator:	Administrator
Comment:	'

Instrument
Model:	F-2700 FL Spectrophotometer
Serial number:	23B8-004
ROM Version:	4J14000 07

Instrument parameters
Measurement type:	3-D scan
Data mode:	Fluorescence
EX  Start WL:	220.0 nm
EX  End WL:	600.0 nm
EX Sampling interval:	5.0 nm
EM  Start WL:	230.0 nm
EM  End WL:	650.0 nm
EM Sampling interval:	5.0 nm
Scan speed:	12000 nm/min
EX Slit:	5.0 nm
EM Slit:	5.0 nm
PMT Voltage:	700 V
Response:	Auto 
Corrected spectra:	Off
Contour interval:	50.000

Peak integration
Integration method:	Rectangular
Sensitivity:	1
Threshold:	1.000

Peaks
No.	ApexEX/EM(nm)	Height(Data)
1	245.0/275.0	32.27
2	505.0/570.0	12.54

Data points
	220.0	225.0	230.0	235.0	240.0	245.0	250.0	255.0	260.0	265.0	270.0	275.0	280.0	285.0	290.0	295.0	300.0	305.0	310.0	315.0	320.0	325.0	330.0	335.0	340.0	345.0	350.0	355.0	360.0	365.0	370.0	375.0	380.0	385.0	390.0	395.0	400.0	405.0	410.0	415.0	420.0	425.0	430.0	435.0	440.0	445.0	450.0	455.0	460.0	465.0	470.0	475.0	480.0	485.0	490.0	495.0	500.0	505.0	510.0	515.0	520.0	525.0	530.0	535.0	540.0	545.0	550.0	555.0	560.0	565.0	570.0	575.0	580.0	585.0	590.0	595.0	600.0
230.0	27.91	102.8	161.9	36.07	6.604	5.122	4.299	3.968	3.079	2.641	2.303	2.041	1.707	1.551	1.247	1.207	0.921	0.910	0.808	0.783	0.715	0.646	0.651	0.619	0.589	0.604	0.550	0.562	0.584	0.528	0.516	0.498	0.480	0.460	0.414	0.436	0.432	0.413	0.409	0.370	0.378	0.406	0.387	0.361	0.358	0.369	0.403	0.749	0.846	0.544	0.317	0.322	0.362	0.375	0.391	0.423	0.474	0.493	0.536	0.462	0.517	0.514	0.524	0.512	0.473	0.487	0.504	0.475	0.436	0.458	0.446	0.445	0.480	0.396	0.434	0.451	0.449
235.0	27.22	40.88	114.8	123.3	31.26	6.097	4.561	3.642	3.264	2.523	2.320	2.025	1.577	1.532	1.179	1.139	0.879	0.885	0.811	0.784	0.668	0.686	0.608	0.572	0.560	0.686	0.546	0.548	0.541	0.555	0.539	0.531	0.559	0.442	0.459	0.415	0.371	0.410	0.400	0.387	0.410	0.350	0.369	0.336	0.361	0.345	0.337	0.382	0.517	0.609	0.651	0.689	0.475	0.382	0.372	0.438	0.476	0.502	0.496	0.514	0.501	0.489	0.448	0.504	0.456	0.530	0.508	0.476	0.448	0.486	0.436	0.562	0.475	0.407	0.420	0.447	0.459
240.0	24.13	23.82	43.82	122.5	117.2	20.63	5.362	3.105	3.165	3.022	2.343	1.963	1.693	1.623	1.204	1.138	1.038	0.865	0.775	0.800	0.695	0.611	0.617	0.569	0.555	0.547	0.527	0.533	0.588	0.549	0.512	0.516	0.463	0.440	0.466	0.378	0.390	0.439	0.394	0.366	0.364	0.392	0.351	0.341	0.343	0.355	0.329	0.327	0.381	0.365	0.500	0.965	0.859	0.652	0.466	0.421	0.519	0.472	0.554	0.495	0.491	0.533	0.498	0.472	0.448	0.526	0.537	0.504	0.435	0.475	0.465	0.505	0.459	0.459	0.460	0.436	0.440
245.0	25.17	17.08	18.56	49.75	145.5	84.98	10.90	3.710	3.339	2.829	2.154	2.141	1.776	1.457	1.520	1.206	1.012	0.921	0.743	0.832	0.751	0.669	0.594	0.592	0.551	0.512	0.502	0.523	0.629	0.485	0.535	0.467	0.422	0.443	0.437	0.398	0.377	0.449	0.382	0.425	0.407	0.408	0.375	0.319	0.339	0.352	0.311	0.287	0.330	0.271	0.331	0.568	0.843	0.966	0.877	0.604	0.522	0.579	0.573	0.521	0.507	0.512	0.520	0.533	0.566	0.500	0.454	0.502	0.437	0.484	0.517	0.444	0.478	0.402	0.476	0.438	0.417
250.0	25.00	17.90	13.63	18.06	54.71	110.5	95.00	24.70	3.890	2.631	2.318	2.014	1.809	1.532	1.476	1.219	1.024	0.945	0.797	0.790	0.686	0.664	0.624	0.603	0.594	0.556	0.559	0.474	0.574	0.555	0.529	0.482	0.481	0.453	0.433	0.399	0.391	0.398	0.380	0.411	0.422	0.389	0.365	0.341	0.336	0.333	0.303	0.309	0.300	0.266	0.286	0.390	0.472	0.579	0.783	0.894	0.987	0.881	0.669	0.575	0.508	0.572	0.533	0.568	0.555	0.495	0.472	0.488	0.460	0.432	0.525	0.412	0.439	0.398	0.441	0.463	0.423
255.0	26.10	18.73	15.75	12.12	20.00	34.46	99.79	121.8	26.00	2.992	2.402	2.177	1.781	1.549	1.304	1.202	1.008	0.955	0.842	0.772	0.689	0.773	0.670	0.645	0.683	0.545	0.514	0.479	0.580	0.538	0.551	0.479	0.471	0.511	0.547	0.350	0.384	0.359	0.358	0.361	0.412	0.377	0.392	0.364	0.358	0.343	0.300	0.317	0.286	0.280	0.288	0.347	0.381	0.428	0.551	0.575	0.725	1.086	1.126	1.028	0.759	0.542	0.496	0.534	0.555	0.546	0.507	0.481	0.550	0.405	0.478	0.413	0.430	0.435	0.401	0.445	0.483
260.0	24.94	20.30	13.51	12.29	13.67	17.21	38.17	122.3	102.0	14.57	2.813	2.476	1.716	1.488	1.248	1.252	1.048	0.904	0.802	0.724	0.713	0.698	0.705	0.622	0.571	0.607	0.553	0.556	0.538	0.492	0.484	0.464	0.489	0.486	0.381	0.389	0.428	0.362	0.407	0.372	0.374	0.348	0.416	0.377	0.350	0.327	0.289	0.308	0.324	0.269	0.251	0.363	0.322	0.426	0.463	0.493	0.612	0.701	0.897	1.225	1.338	0.933	0.649	0.519	0.539	0.561	0.528	0.524	0.485	0.478	0.412	0.408	0.448	0.424	0.421	0.450	0.432
265.0	25.94	20.33	12.18	12.12	14.30	18.44	21.97	52.61	133.9	75.30	9.410	2.330	1.688	1.382	1.429	1.102	0.921	0.914	0.809	0.760	0.660	0.611	0.671	0.688	0.582	0.584	0.621	0.551	0.543	0.507	0.519	0.473	0.467	0.459	0.414	0.392	0.386	0.375	0.373	0.353	0.396	0.335	0.367	0.365	0.332	0.367	0.309	0.312	0.302	0.290	0.252	0.392	0.358	0.412	0.453	0.518	0.515	0.538	0.668	0.770	1.022	1.269	1.206	0.775	0.525	0.540	0.562	0.591	0.487	0.498	0.400	0.401	0.470	0.417	0.457	0.430	0.445
270.0	25.48	18.95	13.80	12.10	19.22	25.52	24.19	22.58	52.03	99.12	85.16	17.40	2.392	1.461	1.331	1.171	0.977	0.915	0.789	0.729	0.691	0.674	0.636	0.676	0.554	0.594	0.528	0.520	0.510	0.528	0.520	0.494	0.450	0.450	0.420	0.399	0.382	0.383	0.359	0.379	0.382	0.326	0.347	0.361	0.339	0.340	0.315	0.318	0.293	0.290	0.286	0.356	0.369	0.469	0.519	0.531	0.601	0.553	0.588	0.623	0.626	0.817	0.975	1.016	1.016	0.965	0.691	0.566	0.455	0.469	0.481	0.457	0.463	0.445	0.422	0.456	0.425
275.0	29.39	18.39	13.06	13.93	22.42	32.27	27.17	19.10	17.41	29.45	83.98	99.12	17.75	1.598	1.340	1.294	0.959	0.857	0.825	0.736	0.716	0.697	0.637	0.608	0.540	0.578	0.656	0.566	0.542	0.507	0.546	0.597	0.532	0.462	0.430	0.427	0.396	0.380	0.392	0.411	0.367	0.342	0.345	0.366	0.341	0.331	0.309	0.358	0.277	0.252	0.284	0.346	0.390	0.475	0.521	0.581	0.599	0.580	0.579	0.594	0.527	0.558	0.597	0.700	0.620	0.995	1.174	1.022	0.711	0.518	0.479	0.465	0.438	0.436	0.427	0.457	0.421
280.0	28.10	17.43	17.38	12.30	21.05	29.37	29.30	16.67	10.02	9.984	29.86	100.9	74.79	9.271	1.465	1.240	1.076	0.870	1.004	0.744	0.719	0.740	0.634	0.591	0.550	0.538	0.587	0.627	0.569	0.544	0.516	0.480	0.489	0.543	0.413	0.442	0.404	0.377	0.418	0.415	0.414	0.366	0.348	0.339	0.346	0.360	0.301	0.328	0.289	0.258	0.270	0.357	0.370	0.479	0.510	0.604	0.596	0.566	0.580	0.648	0.504	0.607	0.557	0.628	0.505	0.646	0.848	1.135	1.090	0.941	0.607	0.437	0.479	0.491	0.428	0.439	0.403
285.0	25.84	20.05	14.20	12.24	19.37	25.41	23.13	15.87	7.931	5.150	8.719	39.77	100.4	50.41	4.054	1.322	1.063	0.989	0.916	0.764	0.752	0.655	0.634	0.537	0.611	0.569	0.555	0.606	0.559	0.557	0.511	0.485	0.463	0.453	0.463	0.438	0.437	0.339	0.415	0.409	0.419	0.357	0.338	0.364	0.347	0.348	0.319	0.311	0.278	0.268	0.267	0.354	0.384	0.494	0.519	0.502	0.639	0.687	0.546	0.570	0.576	0.543	0.542	0.576	0.492	0.546	0.570	0.706	0.823	1.044	1.159	0.798	0.513	0.442	0.485	0.489	0.476
290.0	26.55	20.45	12.15	10.84	14.47	18.35	17.56	12.62	6.232	3.795	4.046	11.09	37.64	66.11	46.42	8.302	1.104	1.049	0.837	0.761	0.695	0.776	0.684	0.599	0.657	0.609	0.566	0.532	0.542	0.544	0.503	0.511	0.502	0.478	0.438	0.408	0.379	0.383	0.387	0.367	0.411	0.385	0.347	0.375	0.380	0.326	0.346	0.319	0.302	0.258	0.281	0.356	0.363	0.429	0.471	0.475	0.569	0.614	0.622	0.578	0.601	0.558	0.567	0.539	0.482	0.580	0.491	0.516	0.546	0.633	0.748	0.868	0.824	0.722	0.637	0.518	0.445
295.0	29.47	19.84	11.77	9.078	11.93	13.82	11.44	8.112	5.135	3.060	2.875	4.120	9.752	18.70	47.01	48.42	6.421	1.000	0.768	0.773	0.651	0.692	0.731	0.602	0.627	0.676	0.572	0.610	0.557	0.589	0.612	0.483	0.551	0.446	0.445	0.366	0.345	0.414	0.373	0.416	0.378	0.354	0.343	0.366	0.334	0.295	0.319	0.294	0.323	0.257	0.274	0.351	0.391	0.386	0.465	0.486	0.531	0.580	0.588	0.567	0.544	0.571	0.569	0.584	0.556	0.508	0.505	0.514	0.547	0.463	0.483	0.534	0.586	0.731	0.983	0.780	0.655
300.0	25.85	19.96	13.64	8.822	10.11	9.856	8.123	6.118	4.045	3.139	2.627	2.623	3.548	5.696	15.87	48.99	32.76	3.229	0.787	0.868	0.650	0.644	0.676	0.553	0.561	0.602	0.560	0.552	0.527	0.571	0.521	0.506	0.493	0.469	0.401	0.386	0.393	0.370	0.373	0.392	0.388	0.350	0.355	0.347	0.457	0.293	0.304	0.291	0.322	0.256	0.258	0.325	0.364	0.416	0.507	0.488	0.547	0.549	0.573	0.585	0.541	0.567	0.568	0.568	0.600	0.530	0.484	0.602	0.503	0.460	0.415	0.456	0.461	0.556	0.620	0.666	0.770
305.0	25.28	19.01	14.32	8.947	8.688	8.124	7.005	5.082	3.692	2.920	2.436	2.295	2.267	2.515	4.537	18.17	44.16	19.73	1.495	0.778	0.692	0.619	0.631	0.592	0.623	0.670	0.653	0.545	0.582	0.568	0.492	0.485	0.540	0.463	0.416	0.375	0.400	0.371	0.361	0.392	0.335	0.385	0.347	0.353	0.378	0.305	0.313	0.282	0.262	0.299	0.264	0.320	0.343	0.419	0.476	0.482	0.562	0.551	0.621	0.642	0.586	0.629	0.625	0.578	0.590	0.514	0.513	0.536	0.487	0.527	0.452	0.457	0.441	0.492	0.495	0.459	0.602
310.0	26.18	18.35	13.93	8.730	7.386	6.466	5.383	4.122	3.428	2.707	2.337	2.163	1.999	1.827	1.989	5.023	15.23	25.29	17.48	2.849	0.658	0.636	0.681	0.633	0.647	0.595	0.598	0.544	0.510	0.498	0.538	0.543	0.493	0.431	0.377	0.400	0.393	0.428	0.381	0.378	0.360	0.389	0.346	0.352	0.331	0.332	0.297	0.295	0.274	0.299	0.256	0.330	0.426	0.428	0.460	0.542	0.567	0.543	0.600	0.627	0.605	0.637	0.633	0.646	0.576	0.515	0.559	0.510	0.506	0.482	0.460	0.472	0.457	0.467	0.471	0.464	0.521
315.0	25.72	16.83	11.50	8.707	6.997	5.301	4.906	3.717	3.131	2.638	2.123	1.929	2.104	1.618	1.456	2.236	4.203	6.854	16.48	16.87	2.153	0.668	0.697	0.622	0.549	0.596	0.557	0.520	0.556	0.602	0.531	0.525	0.429	0.461	0.393	0.370	0.383	0.385	0.355	0.371	0.354	0.378	0.361	0.340	0.363	0.311	0.309	0.320	0.292	0.273	0.247	0.347	0.402	0.419	0.472	0.532	0.562	0.598	0.616	0.699	0.676	0.660	0.657	0.666	0.650	0.558	0.558	0.567	0.547	0.510	0.462	0.489	0.496	0.590	0.475	0.451	0.545
320.0	24.47	19.66	11.70	7.750	7.550	5.778	4.131	3.479	3.020	2.548	2.527	1.965	2.217	1.631	1.351	1.449	1.746	2.227	5.067	15.30	10.16	1.238	0.684	0.627	0.550	0.648	0.540	0.525	0.528	0.606	0.488	0.492	0.458	0.450	0.429	0.428	0.397	0.432	0.359	0.423	0.366	0.349	0.374	0.338	0.363	0.310	0.316	0.328	0.291	0.305	0.257	0.360	0.400	0.412	0.478	0.508	0.689	0.674	0.693	0.759	0.705	0.691	0.733	0.703	0.651	0.616	0.627	0.609	0.594	0.563	0.504	0.480	0.466	0.508	0.524	0.436	0.481
325.0	25.62	18.87	11.78	8.576	6.709	5.919	3.875	3.516	3.081	2.646	2.574	2.312	1.937	1.812	1.221	1.197	1.194	1.183	1.773	5.409	11.27	5.190	0.939	0.577	0.512	0.671	0.548	0.522	0.507	0.529	0.519	0.486	0.474	0.445	0.469	0.409	0.449	0.398	0.366	0.426	0.348	0.386	0.346	0.310	0.342	0.326	0.358	0.321	0.271	0.276	0.296	0.365	0.394	0.442	0.540	0.545	0.671	0.730	0.778	0.705	0.797	0.723	0.732	0.724	0.716	0.636	0.603	0.741	0.651	0.537	0.538	0.506	0.529	0.458	0.439	0.478	0.519
330.0	24.76	17.78	10.87	8.604	6.657	5.250	4.645	3.396	2.986	2.751	2.510	2.077	1.792	1.591	1.280	1.081	1.155	0.911	1.093	1.828	3.978	5.464	3.786	1.183	0.554	0.641	0.521	0.567	0.546	0.539	0.582	0.561	0.515	0.446	0.421	0.407	0.387	0.361	0.382	0.378	0.354	0.366	0.381	0.317	0.334	0.350	0.274	0.312	0.295	0.271	0.303	0.357	0.411	0.458	0.555	0.543	0.644	0.740	0.697	0.734	0.736	0.694	0.769	0.763	0.667	0.695	0.650	0.676	0.570	0.546	0.567	0.551	0.527	0.482	0.469	0.514	0.497
335.0	24.26	17.68	11.45	8.584	6.416	5.447	4.184	3.343	2.915	2.739	2.323	2.022	1.776	1.361	1.206	1.035	0.982	1.009	0.797	1.002	1.495	1.828	3.006	3.713	1.179	0.744	0.564	0.589	0.551	0.583	0.512	0.587	0.453	0.433	0.419	0.364	0.383	0.365	0.371	0.395	0.359	0.341	0.353	0.356	0.365	0.348	0.294	0.308	0.286	0.255	0.300	0.364	0.426	0.484	0.590	0.556	0.714	0.707	0.786	0.818	0.789	0.759	0.803	0.739	0.717	0.713	0.689	0.612	0.565	0.610	0.558	0.530	0.512	0.487	0.556	0.500	0.490
340.0	25.66	17.41	11.83	8.625	5.604	5.101	4.493	3.667	2.846	2.576	2.286	2.262	1.838	1.486	1.205	1.044	0.971	0.946	0.808	0.807	0.844	0.847	1.340	2.961	2.894	0.909	0.559	0.531	0.542	0.511	0.481	0.593	0.403	0.482	0.440	0.404	0.384	0.373	0.410	0.423	0.372	0.424	0.320	0.351	0.311	0.308	0.303	0.339	0.287	0.250	0.276	0.364	0.417	0.491	0.571	0.612	0.716	0.701	0.813	0.760	0.776	0.944	0.760	0.792	0.769	0.693	0.628	0.678	0.528	0.606	0.519	0.530	0.542	0.471	0.504	0.488	0.492
345.0	26.40	16.89	12.58	8.952	6.306	5.681	4.110	3.390	3.026	2.861	2.309	1.986	1.936	1.534	1.182	1.135	0.965	0.892	0.853	0.732	0.731	0.706	0.791	1.297	3.113	2.670	0.773	0.552	0.565	0.554	0.503	0.546	0.429	0.444	0.430	0.407	0.369	0.365	0.397	0.405	0.360	0.402	0.353	0.323	0.340	0.312	0.309	0.325	0.279	0.263	0.297	0.371	0.392	0.493	0.485	0.563	0.680	0.672	0.672	0.819	0.696	0.768	0.733	0.788	0.739	0.622	0.646	0.631	0.576	0.500	0.532	0.504	0.509	0.489	0.534	0.490	0.436
350.0	25.82	18.14	13.27	8.570	6.086	5.385	4.204	3.497	3.257	3.244	2.548	2.250	1.805	1.529	1.298	1.175	0.947	0.930	0.826	0.780	0.699	0.683	0.687	0.798	1.287	2.403	2.213	0.962	0.545	0.532	0.498	0.527	0.528	0.487	0.451	0.383	0.400	0.413	0.379	0.421	0.337	0.379	0.367	0.332	0.346	0.312	0.297	0.312	0.299	0.285	0.268	0.354	0.377	0.444	0.477	0.594	0.559	0.614	0.607	0.656	0.641	0.654	0.671	0.716	0.664	0.578	0.581	0.533	0.536	0.495	0.483	0.479	0.498	0.485	0.505	0.502	0.475
355.0	26.95	17.70	11.99	7.610	6.249	5.384	4.390	3.697	3.126	3.068	2.462	2.253	1.751	1.454	1.197	1.093	0.955	0.908	0.836	0.771	0.701	0.608	0.692	0.632	0.768	1.040	1.685	2.982	1.181	0.499	0.519	0.552	0.447	0.433	0.407	0.433	0.416	0.465	0.352	0.376	0.310	0.401	0.443	0.349	0.308	0.326	0.317	0.357	0.268	0.275	0.237	0.422	0.360	0.405	0.460	0.477	0.531	0.585	0.586	0.610	0.587	0.621	0.629	0.663	0.654	0.541	0.498	0.542	0.549	0.447	0.469	0.466	0.468	0.489	0.425	0.524	0.470
360.0	23.73	17.22	13.07	7.376	6.235	5.544	4.533	3.566	2.880	2.773	2.375	2.113	1.543	1.470	1.288	0.995	1.148	0.875	0.914	0.694	0.727	0.677	0.614	0.591	0.682	0.749	0.817	2.217	2.884	0.972	0.553	0.575	0.510	0.425	0.393	0.384	0.419	0.403	0.378	0.358	0.323	0.365	0.377	0.370	0.333	0.316	0.306	0.317	0.252	0.269	0.269	0.362	0.376	0.424	0.409	0.522	0.579	0.504	0.559	0.596	0.562	0.605	0.595	0.572	0.619	0.520	0.488	0.581	0.586	0.421	0.408	0.441	0.474	0.414	0.455	0.468	0.459
365.0	23.64	16.66	12.87	7.729	6.190	5.180	4.298	3.593	3.698	2.409	2.411	2.039	1.917	1.457	1.309	1.085	1.079	0.944	0.805	0.731	0.715	0.683	0.611	0.635	0.610	0.615	0.656	1.057	2.627	2.704	0.823	0.528	0.483	0.465	0.420	0.394	0.439	0.479	0.387	0.356	0.323	0.373	0.391	0.339	0.381	0.320	0.295	0.296	0.301	0.256	0.298	0.373	0.359	0.406	0.415	0.475	0.651	0.545	0.523	0.521	0.574	0.526	0.646	0.563	0.575	0.520	0.496	0.488	0.552	0.482	0.456	0.470	0.525	0.452	0.440	0.423	0.480
370.0	25.46	18.77	12.38	8.726	6.824	5.448	4.247	3.550	3.176	2.683	2.241	2.038	1.747	1.353	1.229	1.059	0.957	0.873	0.780	0.711	0.717	0.681	0.639	0.609	0.572	0.590	0.559	0.669	1.148	2.147	2.400	1.228	0.497	0.444	0.428	0.398	0.431	0.418	0.401	0.390	0.346	0.341	0.363	0.347	0.361	0.337	0.275	0.309	0.312	0.246	0.288	0.359	0.387	0.429	0.376	0.464	0.531	0.562	0.546	0.563	0.570	0.547	0.587	0.567	0.598	0.518	0.539	0.504	0.580	0.507	0.497	0.477	0.450	0.433	0.447	0.454	0.424
375.0	25.91	17.98	11.99	9.755	6.345	5.430	4.016	3.515	2.913	2.391	2.242	2.192	1.681	1.340	1.247	1.092	0.964	0.921	0.772	0.732	0.740	0.680	0.634	0.660	0.546	0.543	0.603	0.567	0.757	0.902	1.516	3.178	1.368	0.577	0.431	0.379	0.383	0.378	0.342	0.378	0.346	0.382	0.409	0.349	0.333	0.308	0.279	0.343	0.279	0.271	0.257	0.380	0.354	0.381	0.417	0.512	0.496	0.531	0.544	0.540	0.513	0.595	0.557	0.544	0.588	0.532	0.548	0.514	0.521	0.495	0.459	0.502	0.436	0.443	0.459	0.419	0.487
380.0	25.69	17.72	10.62	9.103	6.393	5.283	3.927	3.499	2.959	2.568	2.232	2.222	1.648	1.403	1.254	1.058	0.957	0.968	0.780	0.756	0.698	0.622	0.664	0.647	0.593	0.620	0.615	0.541	0.647	0.608	0.755	2.237	2.934	1.103	0.446	0.384	0.397	0.376	0.346	0.385	0.335	0.383	0.387	0.368	0.322	0.354	0.281	0.310	0.271	0.268	0.293	0.285	0.346	0.411	0.436	0.479	0.514	0.523	0.490	0.537	0.579	0.651	0.477	0.565	0.628	0.514	0.561	0.470	0.542	0.524	0.472	0.484	0.428	0.448	0.489	0.431	0.451
385.0	24.64	17.26	12.25	8.567	6.192	5.355	4.263	3.446	3.250	2.896	1.967	1.988	1.616	1.491	1.185	1.114	0.921	0.857	0.797	0.731	0.755	0.684	0.659	0.610	0.528	0.563	0.554	0.504	0.540	0.571	0.675	0.946	2.286	2.397	0.752	0.384	0.404	0.354	0.338	0.424	0.341	0.335	0.332	0.332	0.357	0.315	0.292	0.335	0.280	0.269	0.275	0.308	0.396	0.392	0.456	0.496	0.546	0.475	0.502	0.574	0.607	0.616	0.445	0.556	0.521	0.535	0.575	0.494	0.483	0.560	0.450	0.484	0.415	0.473	0.443	0.427	0.490
390.0	25.06	17.63	11.82	8.588	6.130	5.423	4.690	3.632	3.144	2.668	2.120	2.100	1.759	1.448	1.245	1.020	0.966	0.846	0.842	0.724	0.705	0.716	0.716	0.649	0.524	0.557	0.524	0.523	0.571	0.530	0.539	0.580	0.979	1.975	2.362	1.073	0.462	0.384	0.365	0.382	0.402	0.336	0.379	0.380	0.363	0.322	0.328	0.308	0.291	0.268	0.284	0.323	0.362	0.427	0.460	0.443	0.514	0.471	0.515	0.531	0.579	0.541	0.476	0.531	0.542	0.518	0.530	0.548	0.524	0.494	0.486	0.474	0.427	0.448	0.450	0.439	0.437
395.0	22.80	18.28	11.58	8.232	7.022	4.681	4.363	3.224	2.802	2.801	2.314	1.894	1.785	1.415	1.236	1.089	1.015	0.855	0.874	0.704	0.674	0.704	0.667	0.545	0.576	0.553	0.548	0.548	0.604	0.506	0.513	0.541	0.582	0.836	1.538	2.734	1.332	0.434	0.382	0.400	0.371	0.383	0.356	0.346	0.324	0.316	0.317	0.294	0.282	0.250	0.270	0.316	0.370	0.381	0.435	0.433	0.571	0.513	0.610	0.509	0.510	0.547	0.531	0.661	0.512	0.484	0.477	0.534	0.492	0.505	0.518	0.473	0.436	0.469	0.440	0.449	0.455
400.0	27.29	17.82	12.48	8.403	7.176	5.133	4.608	3.386	2.891	2.579	2.301	1.830	1.687	1.464	1.304	1.094	0.971	0.835	0.862	0.716	0.707	0.724	0.616	0.580	0.615	0.589	0.551	0.519	0.617	0.492	0.485	0.499	0.480	0.545	0.698	1.899	2.667	1.028	0.424	0.363	0.358	0.378	0.342	0.333	0.340	0.304	0.310	0.291	0.269	0.268	0.251	0.347	0.379	0.385	0.395	0.448	0.513	0.567	0.476	0.562	0.558	0.529	0.508	0.550	0.498	0.476	0.526	0.501	0.476	0.497	0.522	0.483	0.495	0.429	0.487	0.421	0.484
405.0	23.86	18.01	12.74	8.387	6.375	5.230	4.534	3.654	2.573	2.472	2.606	1.746	1.849	1.517	1.242	1.025	1.038	0.796	0.828	0.788	0.766	0.711	0.588	0.558	0.541	0.618	0.611	0.512	0.550	0.519	0.501	0.475	0.427	0.483	0.559	0.829	2.108	2.479	0.725	0.378	0.371	0.349	0.330	0.350	0.298	0.323	0.339	0.315	0.256	0.276	0.259	0.335	0.336	0.408	0.399	0.424	0.521	0.500	0.539	0.488	0.548	0.566	0.545	0.522	0.603	0.459	0.486	0.471	0.489	0.517	0.507	0.469	0.481	0.471	0.502	0.476	0.490
410.0	25.67	18.06	12.18	8.293	5.747	5.204	4.731	3.684	2.818	2.528	2.663	1.808	1.774	1.469	1.243	1.069	1.037	0.898	0.806	0.748	0.746	0.673	0.666	0.609	0.615	0.580	0.582	0.689	0.522	0.518	0.529	0.493	0.449	0.489	0.473	0.494	0.894	1.860	2.344	1.177	0.434	0.345	0.342	0.342	0.313	0.350	0.308	0.315	0.294	0.258	0.255	0.311	0.357	0.384	0.435	0.467	0.482	0.517	0.535	0.486	0.553	0.551	0.568	0.573	0.553	0.519	0.496	0.482	0.501	0.461	0.521	0.504	0.491	0.485	0.439	0.516	0.438
415.0	24.56	21.16	13.84	7.948	6.596	4.885	4.079	3.527	3.179	3.246	2.465	1.867	1.736	1.423	1.191	1.073	1.039	0.949	0.849	0.737	0.650	0.755	0.745	0.609	0.612	0.570	0.551	0.642	0.569	0.496	0.554	0.502	0.497	0.487	0.451	0.492	0.493	0.769	1.395	2.822	1.520	0.358	0.362	0.372	0.346	0.347	0.298	0.305	0.305	0.274	0.256	0.345	0.410	0.386	0.411	0.482	0.539	0.497	0.549	0.535	0.549	0.529	0.606	0.552	0.469	0.539	0.480	0.572	0.510	0.456	0.518	0.470	0.475	0.511	0.452	0.449	0.408
420.0	24.31	21.24	12.62	8.211	6.399	4.911	4.654	3.604	3.223	2.700	2.265	2.020	1.659	1.384	1.350	1.106	0.887	0.812	0.776	0.722	0.666	0.660	0.728	0.601	0.554	0.590	0.603	0.583	0.534	0.479	0.541	0.499	0.476	0.511	0.412	0.495	0.396	0.484	0.687	1.957	3.075	1.071	0.388	0.365	0.334	0.321	0.297	0.316	0.314	0.264	0.293	0.323	0.378	0.397	0.375	0.445	0.529	0.510	0.510	0.602	0.605	0.561	0.547	0.546	0.473	0.514	0.507	0.481	0.548	0.490	0.530	0.458	0.486	0.494	0.443	0.435	0.417
425.0	26.53	16.36	12.51	7.896	6.356	4.858	3.886	3.383	3.202	2.860	2.435	2.133	1.594	1.436	1.383	1.128	0.953	0.845	0.805	0.715	0.669	0.638	0.628	0.554	0.526	0.536	0.565	0.562	0.512	0.486	0.536	0.498	0.460	0.515	0.440	0.388	0.408	0.388	0.472	0.758	2.216	3.025	0.782	0.367	0.335	0.326	0.367	0.322	0.284	0.275	0.284	0.344	0.363	0.437	0.439	0.464	0.579	0.543	0.511	0.506	0.563	0.564	0.523	0.556	0.458	0.448	0.526	0.484	0.524	0.457	0.536	0.516	0.413	0.502	0.408	0.417	0.423
430.0	41.25	18.39	11.74	8.286	7.207	5.092	4.735	3.690	3.056	2.730	2.260	2.038	1.695	1.486	1.370	1.134	0.965	0.819	0.780	0.733	0.651	0.750	0.642	0.569	0.606	0.528	0.560	0.567	0.514	0.524	0.537	0.487	0.505	0.463	0.420	0.386	0.401	0.378	0.399	0.437	0.840	2.113	2.982	1.500	0.423	0.362	0.331	0.315	0.298	0.261	0.273	0.333	0.371	0.423	0.448	0.541	0.546	0.614	0.542	0.555	0.554	0.573	0.538	0.538	0.485	0.501	0.598	0.538	0.495	0.451	0.451	0.475	0.445	0.452	0.401	0.448	0.509
435.0	85.96	19.06	12.01	7.743	6.320	5.405	4.313	4.173	2.810	2.659	2.250	2.042	1.739	1.419	1.343	1.073	1.044	0.968	0.823	0.688	0.627	0.816	0.668	0.608	0.522	0.521	0.500	0.542	0.493	0.554	0.577	0.491	0.470	0.447	0.430	0.443	0.366	0.369	0.373	0.384	0.463	0.715	1.676	3.755	2.041	0.431	0.315	0.291	0.293	0.271	0.287	0.360	0.380	0.408	0.416	0.538	0.630	0.557	0.582	0.558	0.553	0.494	0.568	0.580	0.465	0.501	0.501	0.535	0.448	0.449	0.499	0.485	0.429	0.446	0.384	0.445	0.439
440.0	136.1	30.69	13.33	8.142	5.981	5.156	4.523	3.788	3.070	2.384	2.504	1.902	1.922	1.638	1.259	1.006	0.911	0.919	0.777	0.704	0.705	0.675	0.673	0.579	0.536	0.576	0.486	0.555	0.562	0.519	0.531	0.522	0.480	0.451	0.387	0.403	0.422	0.418	0.382	0.398	0.399	0.475	0.706	2.507	4.812	1.658	0.327	0.314	0.332	0.300	0.259	0.383	0.352	0.376	0.401	0.480	0.593	0.546	0.676	0.641	0.566	0.519	0.499	0.721	0.501	0.508	0.491	0.500	0.456	0.500	0.457	0.504	0.474	0.428	0.447	0.445	0.477
445.0	142.2	59.46	12.58	8.057	6.594	5.636	4.347	4.085	3.011	2.933	2.217	1.827	1.809	1.395	1.521	1.191	0.929	0.878	0.814	0.768	0.784	0.687	0.645	0.601	0.605	0.531	0.483	0.564	0.626	0.468	0.538	0.515	0.531	0.515	0.413	0.403	0.402	0.443	0.445	0.345	0.390	0.391	0.491	0.925	3.637	5.524	1.156	0.338	0.316	0.290	0.302	0.335	0.372	0.396	0.469	0.518	0.590	0.555	0.610	0.569	0.613	0.528	0.541	0.656	0.518	0.507	0.476	0.549	0.428	0.497	0.432	0.518	0.475	0.440	0.472	0.501	0.435
450.0	83.71	114.5	23.68	8.603	6.054	5.592	4.706	3.631	3.147	2.807	2.176	1.921	1.774	1.646	1.332	1.170	0.884	0.837	0.805	0.847	0.741	0.688	0.632	0.587	0.578	0.579	0.563	0.550	0.571	0.576	0.528	0.485	0.494	0.463	0.439	0.420	0.403	0.412	0.412	0.382	0.433	0.389	0.415	0.466	1.247	3.775	5.978	3.083	0.477	0.262	0.296	0.347	0.412	0.396	0.535	0.524	0.581	0.558	0.627	0.585	0.584	0.532	0.551	0.565	0.528	0.512	0.485	0.511	0.468	0.484	0.457	0.453	0.449	0.436	0.410	0.440	0.434
455.0	40.18	104.5	63.42	9.447	7.596	5.543	4.245	3.715	2.903	2.489	2.255	1.816	1.721	1.426	1.381	1.232	0.954	1.166	0.837	0.780	0.719	0.738	0.598	0.637	0.637	0.600	0.557	0.562	0.535	0.538	0.479	0.533	0.594	0.516	0.494	0.419	0.379	0.443	0.362	0.397	0.419	0.368	0.417	0.375	0.570	1.115	3.252	10.20	5.194	0.452	0.301	0.364	0.429	0.446	0.561	0.570	0.540	0.588	0.595	0.647	0.548	0.573	0.576	0.574	0.541	0.555	0.472	0.458	0.499	0.472	0.450	0.464	0.444	0.466	0.457	0.398	0.450
460.0	28.70	66.34	106.0	15.16	6.892	5.544	4.341	3.700	3.117	2.517	2.474	2.136	1.851	1.468	1.285	1.139	0.970	0.935	0.894	0.744	0.746	0.734	0.614	0.683	0.563	0.540	0.551	0.609	0.540	0.572	0.581	0.479	0.510	0.444	0.434	0.378	0.399	0.394	0.399	0.422	0.405	0.383	0.506	0.358	0.411	0.541	1.055	6.718	16.13	5.822	0.400	0.462	0.485	0.412	0.604	0.542	0.588	0.635	0.659	0.714	0.558	0.636	0.581	0.525	0.575	0.530	0.471	0.512	0.499	0.474	0.499	0.498	0.460	0.540	0.421	0.461	0.428
465.0	26.99	34.19	96.27	34.55	7.327	5.899	4.136	3.761	2.720	2.622	2.278	2.015	1.807	1.487	1.223	1.125	0.885	0.895	0.926	0.749	0.663	0.746	0.603	0.687	0.608	0.512	0.600	0.604	0.526	0.554	0.569	0.526	0.454	0.411	0.402	0.339	0.391	0.472	0.437	0.435	0.410	0.373	0.415	0.368	0.366	0.439	0.543	2.238	15.33	21.32	6.757	0.512	0.460	0.466	0.595	0.656	0.604	0.639	0.611	0.592	0.569	0.636	0.550	0.562	0.550	0.506	0.494	0.499	0.501	0.462	0.473	0.462	0.440	0.478	0.521	0.403	0.415
470.0	26.98	22.37	56.01	75.57	13.77	5.257	4.716	3.813	2.946	2.994	2.282	1.887	1.743	1.487	1.269	1.193	0.966	1.095	0.851	0.808	0.651	0.716	0.633	0.619	0.591	0.573	0.547	0.583	0.513	0.554	0.555	0.506	0.506	0.421	0.405	0.406	0.423	0.427	0.416	0.443	0.436	0.429	0.425	0.443	0.449	0.535	0.560	0.988	4.839	22.68	42.16	15.74	2.369	0.617	0.638	0.656	0.727	0.716	0.651	0.584	0.584	0.645	0.544	0.595	0.584	0.531	0.492	0.536	0.462	0.478	0.474	0.458	0.440	0.445	0.461	0.441	0.435
475.0	25.65	20.84	24.50	68.36	39.96	5.751	4.619	3.400	2.879	2.741	2.281	1.920	1.747	1.460	1.278	1.155	0.894	0.895	0.874	0.831	0.737	0.691	0.679	0.734	0.654	0.581	0.609	0.596	0.515	0.557	0.508	0.481	0.495	0.546	0.376	0.442	0.485	0.409	0.478	0.388	0.438	0.446	0.477	0.506	0.574	0.667	0.736	0.933	1.789	6.026	31.44	135.3	24.96	3.605	0.780	0.755	0.806	0.797	0.759	0.697	0.653	0.681	0.602	0.560	0.555	0.609	0.496	0.562	0.503	0.551	0.469	0.474	0.409	0.454	0.454	0.441	0.437
480.0	33.05	18.01	15.06	37.43	66.25	8.776	4.669	3.997	3.081	2.572	2.240	2.008	1.865	1.559	1.356	1.295	0.907	0.848	0.870	0.931	0.775	0.684	0.733	0.690	0.581	0.609	0.512	0.559	0.578	0.629	0.557	0.475	0.473	0.544	0.468	0.434	0.430	0.418	0.403	0.437	0.431	0.465	0.595	0.546	0.615	0.735	0.840	1.090	1.355	2.399	8.950	98.36	202.6	25.66	2.122	0.959	0.873	0.830	0.869	0.762	0.674	0.654	0.626	0.578	0.635	0.609	0.473	0.569	0.497	0.507	0.453	0.464	0.503	0.449	0.458	0.427	0.474
485.0	32.61	18.33	14.34	22.04	71.18	24.84	5.034	3.933	3.244	2.935	2.264	2.251	2.108	1.689	1.379	1.292	1.052	0.871	0.898	0.951	0.827	0.744	0.661	0.626	0.630	0.731	0.528	0.652	0.557	0.577	0.540	0.546	0.478	0.494	0.435	0.550	0.527	0.452	0.474	0.512	0.534	0.504	0.665	0.661	0.706	0.801	1.124	1.425	1.620	1.904	3.398	29.24	256.8	448.7	23.67	1.728	1.094	1.071	1.040	0.835	0.707	0.648	0.569	0.615	0.582	0.565	0.527	0.577	0.546	0.534	0.516	0.491	0.516	0.473	0.468	0.416	0.447
490.0	31.23	18.36	15.37	12.56	40.09	48.81	8.260	3.908	3.298	2.966	2.578	2.299	2.030	1.777	1.459	1.268	1.200	1.025	0.865	0.833	0.818	0.748	0.752	0.715	0.653	0.670	0.558	0.634	0.624	0.580	0.575	0.527	0.566	0.519	0.514	0.499	0.534	0.527	0.481	0.552	0.608	0.650	0.710	0.796	0.908	1.136	1.426	1.852	2.094	2.311	2.596	8.572	74.53	378.3	762.5	363.2	9.848	1.517	1.216	1.050	0.855	0.758	0.725	0.677	0.631	0.645	0.576	0.581	0.573	0.554	0.553	0.505	0.497	0.483	0.474	0.436	0.506
495.0	29.73	18.77	15.61	11.17	15.95	46.12	22.54	4.045	3.315	2.914	2.937	2.148	1.944	1.767	1.671	1.169	1.273	1.016	1.155	0.788	0.923	0.888	0.721	0.658	0.740	0.685	0.561	0.618	0.643	0.607	0.526	0.607	0.510	0.550	0.543	0.531	0.560	0.571	0.511	0.621	0.657	0.693	0.811	0.933	1.151	1.532	1.843	2.430	2.704	2.791	3.029	4.542	19.35	89.17	479.9	1461	218.9	13.19	1.895	1.470	1.117	0.936	0.855	0.744	0.690	0.687	0.654	0.608	0.578	0.549	0.526	0.560	0.482	0.513	0.451	0.482	0.520
500.0	30.10	20.45	14.23	11.00	8.976	27.85	39.61	5.506	3.230	3.070	2.706	2.503	1.956	1.690	1.523	1.434	1.316	1.054	0.973	0.948	0.859	0.813	0.703	0.718	0.773	0.660	0.653	0.606	0.735	0.635	0.576	0.546	0.620	0.575	0.598	0.528	0.496	0.613	0.577	0.666	0.704	0.794	0.949	1.105	1.289	1.557	2.186	2.741	3.180	3.396	3.544	4.129	7.488	22.93	122.7	935.0	1742	205.3	8.609	1.827	1.475	1.172	1.106	0.857	0.770	0.725	0.608	0.640	0.649	0.635	0.540	0.551	0.532	0.582	0.450	0.503	0.483
505.0	29.50	20.49	12.70	10.67	7.668	14.24	41.78	11.47	3.349	2.904	2.876	2.552	2.187	1.724	1.352	1.456	1.203	1.190	1.061	0.868	0.847	0.803	0.718	0.755	0.727	0.741	0.672	0.648	0.712	0.651	0.545	0.563	0.570	0.552	0.619	0.535	0.538	0.665	0.638	0.742	0.725	0.878	1.064	1.111	1.400	1.818	2.147	2.925	3.480	3.702	3.900	4.280	5.460	8.650	30.92	255.9	1519	1730	176.8	4.411	1.808	1.510	1.176	1.007	0.870	0.791	0.725	0.728	0.694	0.628	0.610	0.581	0.606	0.608	0.486	0.538	0.478
510.0	30.74	21.12	14.39	10.44	7.805	8.372	23.65	25.84	4.605	3.274	2.685	2.483	2.199	1.914	1.513	1.364	1.163	1.079	1.048	0.910	0.934	0.886	0.710	0.814	0.732	0.733	0.724	0.654	0.705	0.662	0.627	0.598	0.651	0.599	0.616	0.540	0.605	0.614	0.681	0.745	0.760	0.828	1.101	1.260	1.461	1.968	2.430	3.300	3.698	4.180	4.383	4.818	5.227	5.934	10.91	61.14	407.6	1361	1947	720.2	13.25	2.012	1.503	1.237	1.069	0.969	0.782	0.780	0.708	0.706	0.624	0.534	0.593	0.555	0.581	0.613	0.588
515.0	29.97	19.93	14.20	10.93	7.445	7.057	10.52	25.54	11.59	3.278	2.840	2.646	2.083	1.828	1.621	1.329	1.164	1.099	1.077	0.962	0.888	0.888	0.757	0.804	0.710	0.717	0.674	0.748	0.717	0.647	0.629	0.639	0.617	0.570	0.617	0.505	0.576	0.616	0.694	0.774	0.831	0.716	1.033	1.271	1.531	1.897	2.494	3.149	3.836	4.340	4.840	5.370	5.538	5.765	6.737	17.86	94.86	311.1	995.1	2718	1161	18.58	2.325	1.541	1.372	1.087	0.922	0.813	0.707	0.709	0.641	0.572	0.616	0.558	0.552	0.556	0.575
520.0	30.59	20.62	13.02	10.30	7.930	6.805	6.572	16.59	18.00	4.202	2.876	2.657	2.080	1.797	1.609	1.388	1.226	1.176	1.034	1.032	0.936	0.890	0.857	0.850	0.804	0.682	0.581	0.759	0.706	0.655	0.622	0.608	0.622	0.635	0.698	0.558	0.622	0.576	0.641	0.779	0.876	0.792	1.009	1.346	1.619	1.866	2.538	3.002	3.886	4.273	4.943	5.558	5.992	5.815	5.992	8.343	25.15	73.15	242.2	1499	2948	232.2	13.85	2.121	1.629	1.181	1.016	1.004	0.756	0.703	0.747	0.692	0.587	0.595	0.603	0.565	0.594
525.0	27.58	21.30	14.59	9.778	7.773	8.064	7.118	10.21	19.83	6.595	2.701	2.712	2.331	1.797	1.586	1.415	1.309	1.060	1.214	1.011	1.012	0.834	0.798	0.814	0.728	0.734	0.583	0.641	0.688	0.647	0.586	0.653	0.588	0.666	0.650	0.540	0.624	0.548	0.665	0.674	0.824	0.872	1.068	1.202	1.494	1.888	2.574	3.007	3.780	4.477	4.991	5.528	6.198	6.045	6.009	6.275	9.882	20.09	57.70	383.0	1956	2648	213.9	8.080	2.247	1.616	1.257	1.139	0.924	0.786	0.684	0.701	0.666	0.611	0.587	0.575	0.622
530.0	27.96	20.57	14.62	9.986	8.004	7.779	6.734	6.431	14.56	13.56	3.499	2.758	2.064	1.799	1.521	1.411	1.291	1.169	1.104	0.965	0.933	0.983	0.936	0.842	0.772	0.699	0.639	0.731	0.702	0.691	0.619	0.663	0.636	0.649	0.624	0.577	0.613	0.663	0.675	0.671	0.785	0.858	1.055	1.097	1.430	1.936	2.474	3.013	3.681	4.336	4.922	5.765	6.097	6.649	6.327	6.134	6.844	8.824	16.72	89.21	494.6	1561	1980	895.5	16.39	2.475	1.725	1.329	1.185	0.990	0.756	0.728	0.733	0.601	0.581	0.596	0.595
535.0	35.08	21.47	17.27	9.375	7.218	7.951	5.671	5.669	6.628	12.77	6.165	3.347	1.925	1.619	1.517	1.283	1.218	1.181	1.013	0.906	0.880	0.875	0.862	0.752	0.721	0.655	0.689	0.704	0.607	0.699	0.602	0.708	0.610	0.659	0.594	0.627	0.610	0.651	0.594	0.683	0.676	0.902	0.896	1.099	1.398	1.722	2.420	3.013	3.629	4.143	4.887	5.753	6.177	7.044	6.834	6.690	6.560	6.830	8.121	23.88	114.0	353.4	820.6	2531	1358	23.34	2.673	1.769	1.376	1.152	0.839	0.808	0.748	0.661	0.680	0.596	0.596
540.0	27.70	20.56	16.11	9.827	7.133	7.306	6.370	5.105	4.437	8.856	9.186	3.035	1.890	1.538	1.467	1.298	1.261	1.165	1.036	0.901	0.825	0.803	0.760	0.765	0.666	0.729	0.728	0.576	0.619	0.669	0.571	0.593	0.640	0.566	0.605	0.572	0.600	0.574	0.501	0.715	0.757	0.821	0.917	1.054	1.292	1.645	2.299	3.058	3.423	4.199	4.817	5.891	6.325	7.064	7.345	7.261	7.083	6.539	6.624	9.903	29.91	82.82	193.7	1160	2690	1027	18.34	2.362	1.770	1.414	1.109	0.957	0.832	0.720	0.628	0.656	0.649
545.0	28.12	19.00	15.73	8.678	7.827	6.690	6.678	4.326	3.828	5.314	9.677	3.830	2.203	1.769	1.447	1.230	1.228	1.096	0.986	0.995	0.824	0.794	0.811	0.794	0.692	0.714	0.750	0.615	0.600	0.600	0.613	0.594	0.574	0.535	0.621	0.550	0.526	0.608	0.519	0.694	0.635	0.766	0.842	0.985	1.166	1.531	2.032	2.965	3.543	4.101	4.886	5.632	6.625	7.214	7.718	7.659	7.436	7.230	6.894	7.410	11.59	23.27	47.81	280.8	1442	2484	234.2	12.83	2.235	1.798	1.224	1.068	0.849	0.781	0.602	0.640	0.600
550.0	26.27	20.80	14.41	9.633	7.739	6.468	5.519	4.396	3.328	3.697	5.818	5.561	2.332	1.898	1.390	1.229	1.263	1.048	1.056	1.001	0.870	0.808	0.775	0.819	0.681	0.655	0.693	0.657	0.637	0.658	0.623	0.610	0.578	0.556	0.576	0.518	0.502	0.595	0.533	0.591	0.657	0.719	0.795	0.913	1.137	1.373	1.846	2.413	3.542	4.179	4.791	5.654	6.601	7.324	8.228	8.621	8.649	8.556	8.445	7.999	8.565	11.00	16.00	67.82	348.6	1141	1630	913.2	19.31	2.991	1.674	1.300	1.082	0.834	0.765	0.638	0.622
555.0	26.52	20.20	14.10	9.822	8.047	6.600	5.307	4.206	3.230	3.325	3.256	5.289	2.826	1.750	1.422	1.212	1.195	1.003	1.020	0.822	0.821	0.822	0.766	0.808	0.688	0.642	0.627	0.687	0.685	0.646	0.726	0.633	0.587	0.607	0.527	0.517	0.482	0.528	0.561	0.540	0.663	0.667	0.734	0.906	1.053	1.316	1.691	2.225	3.079	4.095	4.902	5.690	6.971	7.830	8.781	9.648	9.988	10.23	9.804	9.465	9.233	9.308	9.800	21.35	83.37	260.0	541.0	1693	1257	28.09	2.653	1.633	1.379	0.827	0.819	0.807	0.683
560.0	26.73	18.89	13.99	9.642	6.941	5.685	4.388	4.197	3.238	3.325	2.653	3.949	3.743	1.886	1.440	1.193	1.080	1.015	0.994	0.860	0.764	0.799	0.752	0.726	0.730	0.650	0.560	0.591	0.620	0.599	0.643	0.616	0.521	0.563	0.597	0.530	0.481	0.537	0.563	0.565	0.633	0.676	0.777	0.849	0.975	1.235	1.606	2.100	2.675	3.721	5.048	5.962	6.942	8.036	9.508	10.36	10.82	11.13	10.79	10.44	10.01	9.364	9.356	11.50	24.85	63.67	127.7	656.7	1806	912.8	22.43	1.912	1.366	0.981	0.821	0.798	0.670
565.0	29.86	19.55	14.10	8.707	7.289	5.492	4.571	4.327	2.983	3.121	2.775	3.018	3.446	1.981	1.297	1.134	1.038	0.884	1.002	0.869	0.801	0.720	0.689	0.694	0.684	0.646	0.589	0.613	0.652	0.630	0.529	0.552	0.538	0.542	0.547	0.514	0.490	0.543	0.495	0.491	0.507	0.602	0.666	0.689	0.949	1.079	1.439	1.872	2.455	3.538	4.645	5.912	7.545	8.224	9.717	10.94	11.47	11.80	11.96	11.51	11.12	10.42	10.15	10.11	12.48	20.31	34.05	156.9	792.5	1669	247.7	15.82	1.727	1.286	0.885	0.846	0.654
570.0	26.54	18.30	13.82	8.642	7.434	5.618	4.863	4.015	3.170	2.840	2.717	2.529	2.561	2.193	1.483	1.186	1.096	0.932	0.917	0.857	0.794	0.724	0.669	0.669	0.656	0.645	0.579	0.567	0.661	0.632	0.583	0.541	0.551	0.590	0.504	0.518	0.486	0.528	0.502	0.473	0.529	0.548	0.606	0.679	0.854	0.980	1.303	1.787	2.357	3.186	4.364	5.676	7.380	8.403	9.738	10.82	11.77	12.54	12.38	12.04	11.79	11.21	10.90	10.04	10.07	11.10	13.24	39.48	186.9	647.9	1060	682.7	88.66	2.655	1.140	0.858	0.728
575.0	27.01	17.08	13.90	8.552	7.477	6.154	4.853	4.064	3.254	2.713	2.690	2.193	1.930	2.083	1.809	1.196	1.040	0.920	0.990	0.769	0.740	0.730	0.692	0.656	0.666	0.653	0.614	0.636	0.592	0.604	0.548	0.510	0.534	0.527	0.456	0.497	0.516	0.487	0.456	0.497	0.468	0.578	0.538	0.667	0.806	0.871	1.178	1.672	2.143	3.126	3.909	5.414	7.249	8.548	9.189	10.37	11.97	12.44	12.42	11.92	11.52	11.33	10.93	10.29	9.216	8.997	8.497	13.33	45.30	147.5	300.7	949.3	928.1	30.31	1.956	1.013	0.736
580.0	25.26	18.23	13.25	9.361	6.902	5.807	5.223	4.278	3.240	2.613	2.502	2.029	1.778	1.980	1.820	1.417	1.160	0.937	0.877	0.777	0.697	0.828	0.701	0.715	0.702	0.624	0.622	0.594	0.664	0.608	0.539	0.532	0.487	0.556	0.484	0.463	0.487	0.469	0.449	0.454	0.538	0.534	0.550	0.600	0.689	0.872	1.051	1.471	2.121	2.718	3.701	4.812	6.728	8.164	9.014	10.51	11.40	11.45	11.91	11.77	11.47	11.24	10.45	9.873	8.695	8.155	7.377	7.573	13.42	35.57	69.78	326.7	1084	687.4	24.23	1.306	0.916
585.0	23.97	19.00	13.68	9.488	6.464	5.032	4.830	4.102	3.241	2.545	2.809	2.008	1.783	1.591	1.793	1.202	1.015	0.906	0.836	0.761	0.692	0.825	0.735	0.646	0.714	0.618	0.552	0.620	0.612	0.545	0.605	0.576	0.497	0.472	0.444	0.438	0.433	0.457	0.477	0.432	0.525	0.493	0.572	0.596	0.706	0.778	1.082	1.376	1.888	2.491	3.435	4.468	5.965	7.639	8.721	9.882	10.69	10.94	11.98	11.46	10.80	10.68	10.04	9.628	8.870	7.660	6.589	5.894	6.121	10.35	17.59	76.16	428.1	1051	251.1	16.90	0.969
590.0	26.20	18.94	12.04	8.915	6.706	5.286	4.281	4.061	3.089	2.509	2.541	2.218	1.808	1.646	1.665	1.414	0.991	0.961	0.832	0.829	0.755	0.738	0.649	0.605	0.663	0.563	0.612	0.572	0.632	0.548	0.538	0.576	0.501	0.485	0.429	0.429	0.454	0.440	0.452	0.444	0.458	0.454	0.537	0.546	0.595	0.756	0.980	1.190	1.703	2.232	3.065	3.962	5.185	6.650	8.029	8.947	9.864	10.05	10.43	10.31	10.11	9.740	9.197	8.826	7.965	7.124	6.095	5.058	4.221	4.704	5.792	18.53	99.17	378.6	672.7	483.6	81.63
595.0	26.85	18.55	10.29	9.891	5.849	5.881	4.706	3.786	2.897	2.432	2.224	1.985	2.038	1.762	1.455	1.438	1.185	0.873	0.911	0.720	0.764	0.739	0.643	0.653	0.697	0.622	0.548	0.564	0.582	0.593	0.650	0.637	0.488	0.476	0.420	0.469	0.420	0.422	0.434	0.458	0.486	0.392	0.464	0.487	0.569	0.677	0.868	1.118	1.432	1.956	2.755	3.386	4.493	5.443	7.165	8.163	8.585	8.691	9.385	8.634	8.578	8.711	8.429	7.856	6.979	6.363	5.444	4.410	3.408	3.101	2.908	5.466	23.20	85.19	183.0	578.6	620.6
600.0	25.95	19.99	12.34	9.141	7.561	4.937	4.623	3.446	3.096	2.967	2.335	1.993	1.943	1.613	1.356	1.552	1.387	0.978	0.981	0.810	0.767	0.710	0.647	0.665	0.664	0.731	0.593	0.532	0.648	0.554	0.526	0.543	0.519	0.426	0.430	0.418	0.424	0.411	0.501	0.425	0.464	0.441	0.438	0.467	0.572	0.539	0.788	1.020	1.261	1.754	2.454	3.046	4.023	5.136	6.067	7.377	7.609	8.145	8.543	8.101	7.877	7.637	7.791	7.119	6.681	5.780	4.882	4.070	3.070	2.560	2.263	2.366	6.379	19.97	41.94	191.1	668.5
605.0	26.64	20.41	12.19	8.382	7.433	5.416	4.088	3.187	3.098	2.742	2.393	2.153	1.889	1.549	1.372	1.318	1.446	1.009	0.880	0.917	0.830	0.651	0.713	0.620	0.575	0.579	0.541	0.539	0.583	0.549	0.555	0.484	0.518	0.426	0.415	0.421	0.415	0.459	0.405	0.418	0.464	0.455	0.435	0.447	0.550	0.566	0.747	0.885	1.156	1.617	2.201	2.807	3.704	4.454	5.631	6.580	7.345	7.428	7.312	7.734	6.931	7.024	6.985	6.424	6.099	5.454	4.551	3.770	2.979	2.274	1.843	1.647	2.278	5.343	10.23	44.30	252.4
610.0	27.62	19.13	12.58	8.793	7.007	5.350	4.222	3.308	3.072	2.586	2.251	1.924	1.850	1.654	1.358	1.231	1.282	1.115	0.901	0.809	0.845	0.691	0.633	0.599	0.598	0.553	0.508	0.522	0.557	0.548	0.527	0.502	0.531	0.440	0.447	0.414	0.420	0.430	0.380	0.408	0.417	0.428	0.419	0.430	0.488	0.530	0.633	0.805	1.111	1.335	1.795	2.475	3.287	3.818	4.805	5.496	6.227	6.580	6.573	6.638	6.354	6.096	6.157	5.701	5.077	4.574	4.110	3.227	2.605	2.059	1.647	1.356	1.293	1.956	2.989	10.55	58.22
615.0	26.10	18.65	11.95	9.011	7.069	5.113	4.178	3.730	3.341	2.658	2.239	2.320	1.712	1.566	1.409	1.074	1.215	1.381	0.938	0.770	0.783	0.723	0.605	0.695	0.559	0.574	0.478	0.570	0.610	0.566	0.573	0.525	0.482	0.467	0.500	0.387	0.414	0.407	0.436	0.400	0.459	0.400	0.434	0.419	0.440	0.579	0.538	0.674	0.893	1.164	1.531	1.935	2.500	3.418	3.976	4.812	5.252	5.764	5.868	5.407	5.236	5.131	5.067	4.889	4.429	3.976	3.411	3.077	2.392	1.883	1.352	1.179	1.043	1.124	1.270	2.925	13.53
620.0	26.22	19.80	12.41	8.747	7.477	5.065	4.313	3.611	3.054	2.373	2.268	2.261	1.710	1.419	1.262	1.085	1.099	1.214	1.018	0.725	0.741	0.736	0.670	0.632	0.539	0.575	0.486	0.615	0.541	0.544	0.507	0.492	0.471	0.464	0.426	0.377	0.440	0.403	0.442	0.410	0.409	0.360	0.474	0.453	0.417	0.549	0.503	0.563	0.872	1.096	1.389	1.894	2.516	2.941	3.516	4.142	4.450	4.899	5.190	5.056	5.120	4.574	4.490	4.273	3.907	3.507	3.166	2.440	2.078	1.792	1.293	1.051	0.928	0.901	0.956	1.169	3.595
625.0	24.78	17.81	12.45	7.724	6.659	5.391	4.432	3.586	3.354	2.659	2.204	2.327	1.678	1.550	1.271	1.234	1.094	1.011	1.140	0.710	0.754	0.723	0.734	0.589	0.556	0.594	0.516	0.637	0.570	0.532	0.485	0.508	0.436	0.461	0.396	0.391	0.388	0.430	0.413	0.375	0.430	0.399	0.406	0.438	0.405	0.549	0.526	0.549	0.778	0.901	1.267	1.667	2.139	2.759	3.240	3.748	3.964	4.498	4.700	4.858	4.501	4.338	4.038	3.903	3.586	3.167	2.798	2.195	1.801	1.650	1.268	0.972	0.905	0.839	0.761	0.812	1.368
630.0	23.86	17.59	11.96	8.553	6.462	5.380	4.452	3.562	3.216	2.861	2.172	2.131	1.696	1.458	1.460	1.130	0.998	0.918	1.078	0.954	0.727	0.683	0.657	0.643	0.568	0.574	0.528	0.572	0.572	0.526	0.486	0.563	0.514	0.446	0.470	0.390	0.411	0.422	0.405	0.430	0.393	0.396	0.391	0.405	0.388	0.464	0.494	0.592	0.666	0.787	1.072	1.404	1.743	2.234	2.739	3.186	3.549	3.747	3.796	4.144	3.709	3.688	3.492	3.254	3.039	2.764	2.459	2.023	1.637	1.375	1.148	0.861	0.824	0.753	0.644	0.674	0.785
635.0	23.26	17.15	11.59	9.021	7.304	5.758	4.296	3.655	3.175	2.823	2.576	2.024	1.539	1.375	1.355	1.112	0.890	0.908	0.899	1.180	0.838	0.671	0.664	0.593	0.563	0.575	0.528	0.603	0.646	0.512	0.622	0.555	0.491	0.466	0.438	0.419	0.369	0.438	0.396	0.426	0.434	0.369	0.362	0.366	0.368	0.412	0.429	0.520	0.579	0.751	0.887	1.142	1.493	1.916	2.102	2.576	2.702	3.027	3.148	3.376	3.134	3.218	2.888	2.540	2.571	2.397	2.185	1.767	1.474	1.201	0.969	0.854	0.768	0.654	0.594	0.578	0.599
640.0	25.00	16.93	12.03	8.421	6.247	4.878	4.005	3.395	2.791	2.571	2.682	2.096	1.750	1.401	1.306	1.148	0.891	0.909	0.877	1.079	0.865	0.686	0.706	0.576	0.589	0.558	0.533	0.635	0.573	0.479	0.572	0.502	0.462	0.424	0.483	0.404	0.378	0.451	0.375	0.391	0.401	0.393	0.351	0.376	0.360	0.417	0.437	0.476	0.503	0.695	0.704	1.069	1.315	1.666	1.837	2.237	2.397	2.499	2.721	2.635	2.654	2.815	2.499	2.198	2.142	1.978	1.722	1.445	1.350	1.095	0.859	0.831	0.604	0.596	0.563	0.529	0.539
645.0	27.34	17.92	11.40	9.253	6.651	4.771	4.301	3.496	3.012	2.545	2.333	1.959	1.592	1.498	1.246	1.117	1.078	0.881	0.898	0.953	0.914	0.688	0.701	0.563	0.596	0.583	0.518	0.560	0.539	0.550	0.541	0.562	0.454	0.459	0.433	0.432	0.395	0.378	0.402	0.371	0.358	0.436	0.391	0.356	0.367	0.379	0.388	0.398	0.485	0.516	0.693	0.833	1.114	1.364	1.500	1.957	2.139	2.217	2.257	2.526	2.324	2.272	2.180	1.940	1.876	1.892	1.629	1.254	1.088	1.059	0.864	0.735	0.598	0.650	0.535	0.510	0.526
650.0	28.57	17.37	12.27	8.980	6.742	4.987	4.337	3.561	2.950	2.616	2.132	2.434	1.686	1.464	1.192	1.109	0.912	0.864	0.769	0.733	1.089	0.700	0.634	0.566	0.547	0.517	0.534	0.555	0.524	0.506	0.470	0.628	0.469	0.448	0.407	0.406	0.399	0.428	0.420	0.349	0.397	0.372	0.408	0.362	0.352	0.385	0.366	0.393	0.500	0.489	0.627	0.922	0.926	1.171	1.448	1.768	1.801	2.024	2.063	2.080	2.053	2.045	1.933	1.859	1.716	1.524	1.521	1.264	1.087	0.950	0.773	0.623	0.655	0.612	0.511	0.511	0.564
