Sample:	'1
File name:	G2025062505袁家屋子南闸入杏花河.FD3
Run date:	'09:50:47, 06/26/2025
Operator:	Administrator
Comment:	'

Instrument
Model:	F-2700 FL Spectrophotometer
Serial number:	23B8-004
ROM Version:	4J14000 07

Instrument parameters
Measurement type:	3-D scan
Data mode:	Fluorescence
EX  Start WL:	220.0 nm
EX  End WL:	600.0 nm
EX Sampling interval:	5.0 nm
EM  Start WL:	230.0 nm
EM  End WL:	650.0 nm
EM Sampling interval:	5.0 nm
Scan speed:	12000 nm/min
EX Slit:	5.0 nm
EM Slit:	5.0 nm
PMT Voltage:	700 V
Response:	Auto 
Corrected spectra:	Off
Contour interval:	50.000

Peak integration
Integration method:	Rectangular
Sensitivity:	1
Threshold:	1.000

Peaks
No.	ApexEX/EM(nm)	Height(Data)
1	225.0/595.0	69.84
2	225.0/615.0	62.91
3	230.0/345.0	2457
4	240.0/265.0	375.9
5	245.0/270.0	401.9
6	250.0/275.0	519.7
7	255.0/280.0	555.1
8	255.0/560.0	184.7
9	260.0/290.0	569.0
10	260.0/575.0	138.0
11	265.0/585.0	119.9
12	270.0/300.0	1156
13	270.0/600.0	111.5
14	275.0/305.0	1339
15	275.0/415.0	3249
16	275.0/435.0	3160
17	275.0/610.0	103.1
18	280.0/315.0	1303
19	280.0/340.0	1495
20	280.0/625.0	93.03
21	285.0/320.0	1321
22	285.0/635.0	69.03
23	350.0/415.0	1961
24	355.0/435.0	1926
25	460.0/345.0	6.660
26	475.0/350.0	6.683
27	485.0/265.0	2.062
28	505.0/275.0	2.876
29	510.0/280.0	3.483
30	520.0/285.0	3.678
31	530.0/290.0	3.566
32	540.0/295.0	5.161
33	540.0/410.0	10.13
34	545.0/300.0	5.906
35	550.0/305.0	6.865
36	560.0/345.0	7.224
37	560.0/415.0	10.34
38	565.0/335.0	7.047
39	570.0/315.0	7.197
40	570.0/420.0	10.09

Data points
	220.0	225.0	230.0	235.0	240.0	245.0	250.0	255.0	260.0	265.0	270.0	275.0	280.0	285.0	290.0	295.0	300.0	305.0	310.0	315.0	320.0	325.0	330.0	335.0	340.0	345.0	350.0	355.0	360.0	365.0	370.0	375.0	380.0	385.0	390.0	395.0	400.0	405.0	410.0	415.0	420.0	425.0	430.0	435.0	440.0	445.0	450.0	455.0	460.0	465.0	470.0	475.0	480.0	485.0	490.0	495.0	500.0	505.0	510.0	515.0	520.0	525.0	530.0	535.0	540.0	545.0	550.0	555.0	560.0	565.0	570.0	575.0	580.0	585.0	590.0	595.0	600.0
230.0	81.31	1489	2406	480.2	16.85	6.020	5.445	4.283	4.218	3.904	3.668	3.447	3.123	2.571	2.272	1.860	1.625	1.458	1.362	1.235	1.141	1.077	1.036	1.021	0.985	1.081	0.885	0.862	0.834	0.820	0.816	0.635	0.572	0.580	0.490	0.468	0.473	0.391	0.389	0.360	0.386	0.510	0.391	0.400	0.297	0.356	1.897	6.312	8.561	4.924	1.509	0.394	0.242	0.257	0.241	0.233	0.209	0.236	0.200	0.227	0.198	0.194	0.204	0.216	0.222	0.207	0.198	0.202	0.195	0.218	0.220	0.205	0.227	0.200	0.217	0.174	0.207
235.0	91.22	434.9	2045	2695	482.6	29.49	5.624	4.825	4.457	3.902	3.794	3.932	3.303	3.016	2.118	2.115	1.850	1.408	1.423	1.276	1.222	1.444	0.940	1.022	0.925	1.054	0.858	0.881	0.866	0.676	0.750	0.677	0.773	0.581	0.462	0.526	0.380	0.419	0.331	0.380	0.383	0.371	0.419	0.534	0.489	0.379	0.657	1.834	4.179	7.027	9.158	8.437	3.289	0.647	0.257	0.215	0.225	0.223	0.225	0.270	0.189	0.224	0.199	0.225	0.210	0.260	0.188	0.208	0.224	0.213	0.217	0.235	0.207	0.183	0.178	0.194	0.210
240.0	166.2	170.5	694.0	2966	2779	374.1	14.77	7.236	5.620	4.829	3.618	4.034	3.659	3.063	2.285	1.985	1.887	1.524	1.586	1.276	1.306	1.302	1.005	1.158	1.016	0.880	1.003	0.857	0.989	0.621	0.776	0.713	0.690	0.549	0.473	0.538	0.401	0.385	0.364	0.344	0.383	0.365	0.303	0.478	0.673	0.615	0.544	0.679	1.197	2.444	6.281	13.65	14.42	8.322	2.520	0.409	0.260	0.268	0.214	0.229	0.241	0.200	0.209	0.225	0.216	0.261	0.214	0.207	0.271	0.240	0.184	0.217	0.198	0.230	0.223	0.178	0.218
245.0	144.2	205.8	207.8	1195	3830	2613	258.0	9.604	6.328	6.139	4.853	4.437	3.403	2.854	2.299	2.209	1.853	1.700	1.425	1.306	1.273	1.111	1.153	1.201	1.297	1.040	1.030	0.932	0.971	0.934	0.811	0.717	0.632	0.710	0.543	0.430	0.442	0.437	0.453	0.350	0.426	0.358	0.320	0.357	0.410	0.673	0.751	0.642	0.505	0.795	1.729	5.561	12.58	18.60	16.09	7.284	1.597	0.357	0.251	0.270	0.279	0.230	0.246	0.245	0.235	0.259	0.211	0.219	0.267	0.245	0.197	0.219	0.180	0.207	0.233	0.240	0.251
250.0	59.96	170.5	241.2	344.6	1387	3508	3696	969.8	43.38	7.165	6.128	5.463	4.288	3.794	2.822	2.256	1.988	1.736	1.727	1.262	1.300	1.154	1.209	1.222	1.108	0.965	0.982	0.990	0.990	0.995	0.793	0.773	0.644	0.622	0.512	0.394	0.397	0.436	0.418	0.395	0.452	0.360	0.372	0.352	0.368	0.427	0.597	0.745	0.885	0.855	0.705	1.485	3.324	6.725	12.08	17.09	20.70	16.49	7.992	1.954	0.313	0.270	0.261	0.260	0.251	0.258	0.222	0.267	0.259	0.240	0.229	0.203	0.199	0.255	0.186	0.221	0.226
255.0	34.39	64.32	208.5	316.1	380.2	972.8	3861	5873	1333	38.24	7.895	7.299	5.261	3.856	3.387	2.626	2.137	2.051	1.645	1.559	1.411	1.170	1.166	1.261	1.190	1.096	1.151	0.978	1.066	0.918	0.881	0.790	0.626	0.604	0.654	0.469	0.469	0.452	0.390	0.445	0.437	0.371	0.369	0.353	0.361	0.368	0.388	0.413	0.653	0.948	1.182	1.216	1.132	1.728	3.015	4.484	9.334	22.28	34.30	26.55	12.25	1.947	0.356	0.301	0.277	0.300	0.220	0.293	0.222	0.226	0.256	0.228	0.199	0.283	0.232	0.253	0.201
260.0	27.63	32.06	97.30	313.1	294.4	271.7	1312	5981	6159	254.5	21.24	8.454	6.278	4.578	4.262	2.821	2.524	2.125	1.992	1.634	1.483	1.369	1.324	1.393	1.312	1.151	1.059	1.008	0.888	1.023	0.853	0.773	0.745	0.710	0.572	0.531	0.518	0.434	0.425	0.417	0.401	0.393	0.406	0.315	0.356	0.358	0.311	0.320	0.404	0.564	0.869	1.610	1.504	1.044	1.007	1.303	2.436	6.640	17.49	34.97	43.01	24.46	8.484	0.980	0.356	0.308	0.302	0.288	0.231	0.290	0.231	0.318	0.231	0.233	0.261	0.319	0.196
265.0	30.26	33.91	40.88	168.5	375.9	226.4	342.9	2300	8040	5744	191.4	13.21	8.096	6.065	5.000	3.385	2.503	2.235	1.960	1.614	1.594	1.540	1.413	1.390	1.315	1.352	1.070	1.081	1.117	1.225	0.994	0.853	0.776	0.688	0.539	0.559	0.488	0.545	0.461	0.382	0.388	0.472	0.381	0.338	0.357	0.358	0.317	0.356	0.325	0.319	0.509	1.019	1.665	2.062	1.294	0.757	0.947	1.891	4.505	11.36	27.31	47.32	32.59	20.09	4.388	0.439	0.296	0.307	0.270	0.257	0.247	0.278	0.221	0.224	0.282	0.295	0.275
270.0	48.21	40.12	34.83	69.77	225.3	401.9	290.5	587.0	2806	7376	7959	795.3	43.22	9.085	5.947	4.239	3.265	2.768	2.340	1.918	1.842	1.660	1.411	1.376	1.301	1.407	1.119	1.220	1.251	1.111	1.090	0.932	0.889	0.753	0.646	0.534	0.538	0.461	0.440	0.379	0.383	0.440	0.427	0.391	0.412	0.386	0.353	0.371	0.334	0.307	0.352	0.512	0.808	1.360	1.877	1.929	1.721	1.203	1.450	2.950	6.795	14.69	24.09	40.51	40.51	39.53	14.31	4.649	0.506	0.309	0.290	0.266	0.291	0.310	0.321	0.313	0.258
275.0	91.52	96.53	73.08	60.17	106.5	253.3	519.7	355.8	685.6	1926	7156	9999.9	1087	37.64	9.251	6.150	4.236	3.342	2.929	2.495	1.962	1.994	1.734	1.564	1.484	1.447	1.316	1.293	1.170	1.390	0.952	0.974	0.928	0.816	0.708	0.665	0.596	0.571	0.473	0.408	0.401	0.483	0.495	0.504	0.503	0.450	0.467	0.434	0.361	0.357	0.364	0.408	0.514	0.735	0.920	1.274	2.565	2.876	1.835	1.332	1.903	3.655	5.845	9.795	14.54	36.39	66.28	68.10	21.85	4.336	0.492	0.405	0.401	0.315	0.302	0.328	0.322
280.0	166.1	171.9	132.7	88.26	92.42	144.5	400.3	555.1	294.0	512.6	2178	9999.9	9654	150.4	20.59	8.121	5.353	4.300	3.299	2.726	2.466	2.250	1.709	1.575	1.607	1.421	1.384	1.254	1.218	1.311	1.208	1.011	0.794	1.007	0.788	0.728	0.717	0.647	0.591	0.554	0.450	0.501	0.577	0.624	0.642	0.594	0.575	0.593	0.542	0.487	0.467	0.470	0.521	0.659	0.672	0.815	1.309	2.345	3.483	2.756	1.478	1.294	1.766	2.709	4.000	9.816	25.46	56.78	79.62	32.40	16.96	1.869	0.464	0.320	0.337	0.388	0.302
285.0	253.9	255.4	204.5	134.2	101.7	121.2	211.9	553.9	354.3	252.5	620.6	3359	9999.9	7412	112.8	12.80	7.852	5.155	4.307	3.152	2.653	2.364	2.051	1.808	1.761	1.596	1.375	1.348	1.129	1.279	1.185	1.004	0.863	0.934	0.907	0.881	0.886	0.703	0.688	0.695	0.592	0.619	0.670	0.631	0.767	0.841	0.771	0.896	0.882	0.720	0.556	0.651	0.531	0.667	0.701	0.692	0.886	1.222	2.082	3.159	3.678	2.064	1.095	1.350	1.674	2.993	6.558	15.60	36.05	64.45	82.13	28.41	10.41	0.877	0.316	0.434	0.342
290.0	361.9	396.2	330.6	210.0	139.4	140.9	171.4	304.1	569.0	528.4	402.3	988.1	3342	9060	8728	453.7	30.05	8.054	5.439	4.241	3.366	2.683	2.434	2.037	2.016	1.635	1.476	1.521	1.428	1.216	1.222	1.136	1.023	1.032	0.951	1.035	1.056	0.935	0.892	0.788	0.727	0.736	0.881	0.926	1.033	1.100	1.157	1.314	1.185	0.948	0.882	0.904	0.755	0.734	0.751	0.793	0.845	1.020	1.256	1.693	2.598	3.311	3.566	2.778	1.965	1.865	2.789	4.673	9.287	17.88	35.05	47.22	61.85	52.09	19.04	8.842	1.205
295.0	479.9	566.1	461.8	296.5	193.9	178.9	205.4	256.5	384.3	769.2	806.0	604.1	1047	2341	6531	9999.9	672.5	28.70	7.467	5.478	4.257	3.048	2.994	2.348	2.183	1.708	1.719	1.654	1.590	1.425	1.378	1.347	1.072	1.089	1.209	1.248	1.124	1.070	1.042	0.944	0.805	0.930	0.946	1.070	1.148	1.393	1.418	1.701	1.606	1.243	1.035	1.100	0.959	0.937	0.975	0.963	0.931	1.207	1.309	1.403	1.600	2.041	2.679	4.338	5.161	3.587	2.640	2.896	3.957	5.595	9.219	11.93	16.89	30.86	63.33	81.99	31.21
300.0	567.7	653.5	542.2	376.1	252.6	227.6	264.4	310.7	374.6	650.0	1156	826.2	661.8	817.5	1902	8557	9933	509.4	15.92	6.963	4.911	3.555	3.155	2.911	2.407	2.151	1.940	1.774	1.721	1.555	1.483	1.182	1.229	1.106	1.197	1.451	1.435	1.172	1.198	1.105	0.979	0.997	1.083	0.964	1.281	1.632	1.722	1.791	1.936	1.482	1.293	1.304	1.184	1.092	1.057	1.014	1.175	1.480	1.659	1.686	1.644	2.027	2.322	3.335	5.105	5.906	5.165	3.770	3.306	3.308	4.048	4.514	5.115	8.386	19.96	48.91	79.39
305.0	625.6	730.9	638.4	437.5	304.5	289.9	344.4	410.5	508.7	692.6	1109	1339	819.6	611.1	706.9	2655	9999.9	5125	75.73	10.86	6.313	4.502	3.722	3.277	2.596	2.181	1.952	1.881	1.853	1.768	1.531	1.351	1.338	1.019	1.229	1.387	1.295	1.256	1.134	1.159	1.196	1.034	1.265	1.262	1.514	1.822	1.974	2.049	2.020	1.654	1.454	1.621	1.310	1.287	1.216	1.357	1.555	1.927	2.095	2.207	2.163	2.479	2.904	3.600	4.105	5.302	6.865	6.431	4.774	3.914	3.554	3.267	3.075	3.584	5.904	12.78	28.65
310.0	685.3	818.1	736.0	506.9	360.2	358.8	422.2	501.7	616.0	784.0	1015	1329	1297	797.7	551.8	828.5	2988	6764	6764	1517	24.04	6.392	4.738	3.950	3.116	2.644	2.322	2.204	1.848	1.779	1.556	1.395	1.216	1.235	1.279	1.465	1.330	1.248	1.206	1.178	1.114	1.242	1.259	1.408	1.564	1.933	2.103	2.384	2.224	1.920	1.641	1.749	1.600	1.525	1.463	1.727	1.888	1.962	2.336	2.411	2.793	3.060	3.366	3.751	4.311	4.826	5.348	6.440	6.659	6.660	5.130	3.826	3.304	3.226	3.230	4.342	7.714
315.0	742.7	934.6	823.0	585.2	426.2	423.1	490.6	572.0	706.4	867.1	1058	1199	1303	1236	684.1	499.1	888.6	1695	4645	9336	512.1	24.33	6.847	5.459	3.774	3.062	2.780	2.406	2.109	1.868	1.860	1.645	1.384	1.400	1.132	1.416	1.472	1.305	1.256	1.285	1.178	1.268	1.329	1.600	1.649	2.175	2.233	2.624	2.402	2.232	1.732	2.115	1.753	1.757	1.848	1.870	2.157	2.348	2.634	2.764	3.131	3.351	3.704	4.297	4.454	4.792	4.879	5.417	5.869	6.486	7.197	6.797	4.911	3.971	3.406	2.884	3.245
320.0	856.5	1119	981.5	676.4	503.4	478.4	539.5	613.2	763.8	934.8	1116	1228	1241	1321	986.2	526.6	482.7	555.3	1271	6489	7968	420.4	14.37	6.596	5.077	3.684	3.061	2.644	2.192	2.144	2.005	1.617	1.496	1.384	1.338	1.484	1.506	1.481	1.266	1.377	1.218	1.306	1.548	1.757	1.817	2.364	2.512	3.005	2.765	2.610	2.184	2.305	1.978	2.058	2.105	2.080	2.502	2.595	2.820	2.964	3.303	3.867	3.936	4.529	4.750	5.059	5.236	5.399	5.643	5.863	6.197	6.835	6.861	5.453	3.989	3.114	2.915
325.0	1031	1385	1272	886.8	609.6	534.3	586.4	676.1	807.9	986.6	1185	1296	1267	1228	1197	719.5	451.9	344.0	409.4	1878	7453	4016	60.88	10.32	6.155	4.529	3.623	2.941	2.506	2.388	2.111	1.708	1.587	1.537	1.457	1.395	1.387	1.634	1.192	1.300	1.442	1.438	1.678	1.668	2.074	2.822	3.180	3.783	3.822	3.291	2.878	2.905	2.361	2.106	2.207	2.145	2.582	2.758	2.933	3.124	3.615	3.932	4.232	4.481	5.143	5.244	5.636	5.971	5.980	6.149	5.987	6.178	6.158	6.800	5.964	4.112	3.099
330.0	1272	1789	1832	1385	864.5	671.8	657.1	741.6	872.3	1060	1260	1383	1375	1261	1142	979.0	643.7	375.0	281.3	552.5	2146	5093	5471	1342	22.01	6.298	4.507	3.506	3.013	2.696	2.524	1.923	1.637	1.669	1.612	1.453	1.523	1.489	1.330	1.372	1.381	1.590	1.804	2.060	2.531	3.361	4.041	4.866	5.047	4.602	4.195	4.119	3.466	3.004	2.799	2.616	2.876	3.001	3.325	3.445	3.798	4.086	4.405	5.161	5.468	5.745	6.106	6.487	6.392	6.598	6.665	6.105	6.024	6.160	6.034	5.939	5.103
335.0	1475	2087	2243	1764	1209	858.1	768.3	816.1	951.8	1131	1333	1461	1470	1344	1165	976.6	905.3	562.1	339.4	330.7	627.1	1281	3759	7921	437.4	25.22	6.465	4.718	3.602	3.352	2.766	2.147	1.882	1.670	1.657	1.674	1.629	1.596	1.385	1.497	1.442	1.660	1.886	2.283	2.904	3.742	4.524	5.632	5.999	5.807	5.199	5.455	4.759	4.028	3.798	3.089	3.354	3.293	3.517	3.774	4.049	4.632	4.685	5.481	5.760	6.018	6.369	6.814	6.561	7.047	6.652	6.623	6.460	6.719	5.883	5.384	5.679
340.0	1556	2175	2412	1978	1361	961.9	816.9	854.9	977.8	1153	1351	1484	1495	1392	1204	972.6	894.2	763.0	435.6	322.1	323.2	420.9	1058	5511	6934	377.5	13.93	5.822	4.298	3.771	2.814	2.389	1.927	1.700	1.829	1.670	1.686	1.577	1.372	1.325	1.551	1.661	1.938	2.432	2.973	3.848	4.930	6.372	6.606	6.190	5.693	6.337	5.533	4.589	3.913	3.415	3.531	3.618	3.677	3.966	4.308	4.464	4.890	5.581	5.980	5.829	6.210	6.434	7.072	6.943	7.090	7.074	6.884	6.466	6.161	5.374	5.378
345.0	1513	2169	2457	2098	1454	1016	863.7	872.3	991.3	1159	1338	1467	1479	1403	1225	990.8	835.5	811.9	591.9	368.4	289.3	260.3	365.7	1614	6473	3409	55.15	8.871	5.459	4.337	3.209	2.709	2.153	1.838	1.858	1.652	1.684	1.574	1.375	1.316	1.694	1.811	1.994	2.526	2.920	4.100	4.950	6.253	6.660	6.076	6.202	6.481	5.701	4.860	4.152	3.825	3.811	3.821	3.984	4.098	4.302	4.442	5.058	5.590	5.722	6.482	6.346	6.452	7.224	6.868	7.038	6.855	7.123	6.502	6.397	5.886	5.209
350.0	1450	2097	2373	2066	1523	1101	922.8	924.3	1016	1160	1317	1420	1441	1377	1221	1019	843.0	748.5	703.6	538.7	355.6	279.7	258.2	484.4	1871	4331	4653	1195	20.23	5.429	3.921	2.915	2.376	2.107	1.799	1.609	1.634	1.550	1.447	1.461	1.449	1.580	1.924	2.302	3.103	3.913	4.647	5.875	6.377	6.098	5.978	6.683	5.994	4.971	4.333	4.065	3.914	3.833	4.091	4.258	4.204	4.754	5.045	5.346	5.717	6.015	6.240	6.283	6.839	6.723	6.963	6.732	6.777	6.307	6.519	5.867	5.773
355.0	1417	1957	2196	2000	1553	1153	994.5	989.5	1054	1165	1281	1381	1391	1339	1210	1043	896.4	763.2	682.7	675.3	517.5	356.6	288.6	280.1	532.1	1073	3210	6588	404.1	23.18	5.433	3.742	2.816	2.158	1.951	1.681	1.556	1.715	1.517	1.363	1.493	1.673	1.873	2.365	2.829	3.708	4.344	5.521	5.810	5.680	5.703	6.451	5.950	5.061	4.512	4.310	4.059	4.057	4.402	4.268	4.571	4.653	5.019	5.444	5.807	5.889	5.895	6.178	6.455	6.491	6.598	6.579	6.399	6.326	6.366	6.371	5.933
360.0	1327	1858	2096	1916	1543	1199	1037	1027	1084	1176	1274	1336	1360	1320	1209	1051	931.9	798.0	708.2	681.2	653.0	455.7	339.5	274.8	272.0	340.0	878.1	4699	6014	358.2	12.67	5.105	3.564	2.600	2.171	1.711	1.716	1.620	1.660	1.346	1.426	1.583	2.056	2.229	2.750	3.372	4.199	5.301	5.522	5.495	5.346	6.522	5.668	5.049	4.659	4.473	4.338	4.315	4.398	4.455	4.653	4.933	5.387	5.515	5.749	5.684	5.927	6.124	6.233	6.375	6.481	6.701	6.533	6.519	6.125	6.091	5.976
365.0	1230	1730	1999	1877	1551	1229	1070	1067	1125	1210	1263	1318	1322	1286	1196	1059	955.7	845.0	746.7	682.3	694.7	585.8	415.7	321.6	253.5	211.3	284.8	1385	5795	3203	51.17	8.823	4.547	3.271	2.620	2.019	1.651	1.696	1.506	1.612	1.427	1.518	2.030	2.008	2.704	3.347	4.104	4.775	5.180	4.969	5.205	6.002	5.631	5.398	4.908	4.500	4.561	4.479	4.750	4.674	4.771	5.142	5.363	5.810	5.897	5.906	5.544	6.188	6.392	6.445	6.534	6.604	6.598	6.766	6.247	6.213	6.297
370.0	1152	1645	1853	1806	1535	1264	1136	1119	1169	1231	1274	1297	1295	1262	1174	1069	985.3	900.3	812.5	744.7	700.1	685.5	579.0	419.9	319.4	243.6	204.1	408.8	1693	4130	4368	1074	18.62	4.912	3.375	2.501	2.122	1.826	1.667	1.613	1.569	1.705	1.937	2.071	2.614	3.076	3.650	4.523	4.860	4.949	4.931	5.611	5.702	5.537	5.007	4.610	4.824	4.579	4.914	4.675	4.946	5.274	5.503	5.650	5.819	5.743	5.578	6.034	5.872	6.204	6.212	6.455	6.271	6.396	6.178	6.301	6.360
375.0	1075	1502	1745	1738	1533	1305	1203	1173	1206	1252	1272	1285	1271	1238	1152	1069	997.6	934.6	867.2	813.1	748.0	703.1	693.0	584.5	418.8	323.5	251.0	244.2	485.9	1035	3158	5954	347.8	21.35	5.355	3.484	2.630	2.261	1.834	1.679	1.649	1.613	1.929	2.029	2.507	3.245	3.382	4.209	4.357	4.596	4.813	5.670	5.471	5.630	5.085	4.842	4.635	4.823	4.929	4.919	5.300	5.466	5.544	5.872	5.694	5.650	5.704	5.616	5.912	6.117	6.112	5.996	6.319	6.175	6.187	6.252	6.126
380.0	1071	1442	1671	1682	1510	1326	1222	1200	1225	1260	1281	1273	1256	1218	1143	1070	1013	961.6	902.2	859.4	795.6	736.3	712.3	692.0	514.3	396.7	314.5	256.6	260.7	341.7	894.7	4430	5039	295.4	13.18	5.489	3.825	2.511	1.993	1.723	1.856	1.698	2.040	2.309	2.318	2.921	3.115	4.075	4.331	4.374	4.679	5.600	5.296	5.294	5.179	4.925	4.907	5.060	5.274	5.062	5.400	5.428	5.628	5.736	5.705	5.642	5.712	5.688	5.917	5.717	6.203	5.978	6.115	6.235	6.286	6.177	6.258
385.0	1046	1425	1619	1621	1498	1340	1256	1233	1251	1270	1284	1289	1261	1218	1148	1077	1020	971.3	928.8	889.7	841.5	784.7	742.8	728.4	655.8	483.5	388.9	315.7	264.7	230.2	312.0	1342	4918	2669	42.19	11.02	5.949	3.768	2.507	1.937	1.859	1.855	2.037	2.194	2.294	2.770	3.223	3.916	4.346	4.228	4.305	5.275	5.358	5.263	5.163	5.365	5.133	5.268	5.323	5.078	5.184	5.759	5.516	5.943	5.545	5.674	5.576	5.695	5.704	5.646	6.182	6.070	6.292	6.267	6.353	6.181	6.422
390.0	1028	1352	1564	1581	1503	1390	1334	1317	1341	1362	1382	1391	1350	1302	1219	1126	1050	1002	968.5	943.6	910.9	873.5	835.9	798.3	782.1	695.8	555.1	464.0	385.7	328.6	284.8	454.2	1496	3354	3401	823.3	21.92	9.054	4.497	2.788	2.085	1.980	1.999	2.310	2.502	2.893	3.299	3.836	4.443	4.026	4.436	5.349	5.411	5.307	5.572	5.269	5.604	5.421	5.474	5.537	5.423	6.131	5.908	6.100	5.940	5.955	5.853	6.117	5.992	6.020	6.211	6.120	6.558	6.230	6.180	6.248	6.611
395.0	1033	1353	1527	1580	1558	1475	1436	1469	1505	1598	1670	1701	1587	1569	1444	1268	1141	1061	1038	1033	1029	1022	1011	989.3	968.6	966.1	881.5	752.2	664.7	577.2	438.1	421.1	571.7	957.8	2644	4488	291.8	29.67	10.55	4.610	2.984	2.463	2.257	2.540	2.610	2.908	3.323	3.972	4.369	4.049	4.416	5.463	5.586	5.704	5.777	5.768	5.831	6.036	6.383	6.197	6.154	6.641	6.507	6.630	6.687	6.518	6.557	6.912	6.677	7.039	6.808	6.709	7.087	6.678	6.617	6.728	6.626
400.0	988.1	1341	1552	1594	1608	1571	1559	1613	1745	1930	2052	2135	2053	1936	1728	1466	1270	1152	1120	1126	1160	1187	1219	1234	1228	1232	1229	1121	1003	907.7	776.5	640.1	536.3	508.8	932.8	3559	3741	249.1	22.74	7.229	4.021	2.903	2.486	2.534	2.817	2.948	3.626	4.035	4.253	4.489	4.570	5.855	5.974	6.080	6.335	6.272	6.674	6.653	6.949	7.145	6.740	7.246	7.758	7.770	7.664	7.728	7.593	7.799	7.439	7.492	7.710	7.895	7.843	7.681	7.530	7.324	7.186
405.0	1028	1351	1539	1650	1675	1681	1725	1817	2023	2314	2582	2682	2596	2399	2089	1720	1426	1261	1224	1244	1302	1368	1449	1521	1549	1560	1578	1551	1404	1293	1151	955.4	738.1	583.8	575.8	1297	3874	2242	183.9	12.31	5.293	3.291	3.074	2.714	2.972	3.245	3.772	4.490	4.480	4.748	4.751	6.057	6.367	6.527	6.727	6.946	7.547	7.264	7.722	7.762	7.620	7.923	8.313	8.591	8.781	9.069	8.403	8.984	8.485	8.952	8.447	8.885	8.534	8.389	8.086	7.984	7.529
410.0	1063	1348	1540	1685	1746	1787	1880	2027	2311	2681	3044	3180	3081	2831	2443	1957	1563	1348	1304	1343	1431	1535	1663	1769	1848	1873	1895	1907	1826	1688	1514	1268	979.7	756.4	621.9	667.3	1347	2676	2657	672.5	14.80	4.642	3.571	3.145	3.348	3.665	3.877	4.606	4.779	4.768	5.277	6.363	6.633	6.949	7.055	7.473	7.938	8.083	8.491	8.346	8.464	8.877	9.533	9.690	10.13	9.882	9.717	9.728	9.935	9.985	9.392	9.762	9.522	9.135	8.805	8.328	8.136
415.0	1049	1294	1521	1647	1736	1838	1917	2078	2373	2753	3106	3249	3157	2909	2485	1970	1563	1331	1285	1336	1426	1551	1684	1808	1905	1942	1961	1960	1919	1817	1613	1346	1053	811.9	642.6	533.8	551.6	757.7	1963	3243	258.5	13.68	4.133	3.844	3.629	3.585	3.795	4.604	4.670	4.594	5.162	6.475	6.680	6.816	7.239	7.464	8.225	8.222	8.737	8.732	8.677	8.738	9.824	9.748	9.873	9.969	10.20	9.848	10.34	10.19	9.842	9.536	9.620	9.293	8.895	8.627	7.814
420.0	1007	1265	1489	1618	1703	1796	1888	2049	2312	2679	2981	3146	3043	2795	2391	1902	1506	1285	1239	1286	1371	1493	1627	1752	1839	1884	1904	1892	1847	1782	1601	1318	1031	797.3	624.7	486.1	363.2	293.3	573.9	2483	2166	213.6	7.124	4.278	3.899	3.611	3.851	4.424	4.745	4.435	4.902	6.205	6.627	6.884	7.158	7.310	7.920	7.927	8.023	8.186	8.761	8.411	9.306	9.444	9.895	9.660	9.793	9.549	9.835	9.963	10.09	9.032	9.334	8.949	8.158	8.183	7.682
425.0	968.7	1269	1452	1586	1667	1767	1879	2038	2289	2605	2915	3085	2969	2711	2321	1836	1460	1238	1192	1243	1330	1451	1584	1715	1789	1839	1866	1857	1802	1736	1598	1320	1020	793.9	621.5	476.3	323.2	191.0	185.7	754.9	2593	1956	33.90	5.793	4.175	3.541	3.913	4.308	4.587	4.593	4.858	6.072	6.493	6.955	6.905	7.219	7.856	8.278	8.371	8.409	8.704	8.417	8.985	9.326	9.249	9.539	9.567	9.601	9.505	9.338	9.559	9.174	9.170	8.789	8.241	7.668	7.520
430.0	996.9	1212	1426	1544	1686	1798	1935	2098	2336	2665	2988	3128	3008	2746	2324	1841	1457	1231	1180	1226	1313	1437	1578	1719	1812	1865	1903	1897	1852	1780	1656	1412	1092	845.5	670.2	512.9	342.2	187.2	109.3	202.2	765.4	1965	2080	562.0	12.40	4.816	4.341	4.488	4.780	4.501	4.719	6.191	6.544	7.029	7.199	7.321	7.798	8.188	8.459	8.830	8.801	8.704	8.969	9.447	9.583	9.572	9.487	9.405	9.663	9.357	9.166	9.068	9.052	8.702	8.220	7.674	7.354
435.0	1200	1172	1395	1537	1698	1831	1988	2144	2378	2694	3022	3160	3020	2769	2326	1847	1448	1213	1159	1201	1285	1411	1557	1709	1809	1876	1918	1926	1880	1820	1679	1464	1169	899.5	716.1	552.4	371.4	205.0	104.8	86.23	195.5	476.1	1457	2716	242.1	14.41	4.881	4.866	4.629	4.636	4.807	6.216	6.450	7.251	7.174	7.776	8.211	8.631	8.905	8.936	9.059	8.684	9.138	9.402	9.131	9.780	9.873	9.391	9.566	9.548	9.305	9.332	8.542	8.637	7.976	7.395	7.309
440.0	1604	1216	1356	1529	1678	1839	1993	2143	2344	2615	2919	3022	2932	2677	2236	1773	1396	1172	1125	1156	1231	1351	1488	1634	1733	1798	1847	1857	1826	1762	1631	1417	1160	905.3	712.7	550.9	376.4	212.0	109.2	66.37	73.03	126.8	400.0	2037	2010	203.2	8.259	5.409	4.899	4.831	4.787	5.932	6.255	7.079	7.041	7.745	8.635	8.898	8.744	8.869	8.755	9.076	9.179	9.275	9.160	9.865	9.330	9.230	9.475	9.087	8.697	9.009	8.612	8.333	7.979	7.298	7.043
445.0	1800	1444	1295	1470	1646	1813	1994	2105	2237	2454	2735	2802	2712	2460	2082	1652	1308	1113	1061	1088	1147	1248	1375	1514	1602	1663	1697	1717	1692	1640	1513	1310	1077	865.6	680.0	526.1	359.6	209.0	112.6	66.84	50.08	52.33	107.4	606.3	2257	1809	29.35	6.767	5.272	4.796	4.773	5.907	6.345	6.635	6.925	7.624	8.253	8.587	8.528	8.710	8.649	8.676	8.657	8.352	8.841	8.952	8.476	8.697	8.726	8.666	8.555	8.139	8.156	7.936	7.102	6.993	6.563
450.0	1486	2082	1335	1404	1574	1743	1909	1990	2073	2216	2406	2454	2369	2148	1828	1473	1170	1003	965.5	973.5	1020	1099	1201	1314	1396	1449	1482	1492	1473	1430	1323	1144	935.9	766.3	624.4	479.0	329.2	200.6	115.4	71.96	51.93	40.67	45.22	151.8	652.1	1727	1875	535.8	12.08	5.106	4.772	5.596	5.868	6.484	6.661	7.439	7.789	8.313	8.290	8.418	8.110	7.860	7.789	7.920	8.043	7.978	8.003	7.788	7.758	7.523	7.557	7.336	7.233	7.191	6.620	6.368	6.339
455.0	954.8	2306	1895	1290	1461	1640	1788	1844	1877	1971	2099	2148	2057	1865	1599	1291	1042	896.5	863.0	868.8	895.6	957.5	1047	1135	1203	1255	1276	1292	1278	1245	1152	999.3	818.4	667.3	560.6	446.5	305.7	193.1	117.5	77.63	57.13	43.07	35.43	53.20	159.9	412.4	1149	2279	203.5	12.97	5.026	5.523	5.828	6.222	6.314	6.841	7.756	7.581	7.520	7.722	7.777	7.464	7.316	7.224	7.191	6.969	7.283	6.895	6.801	6.770	6.804	6.502	6.423	6.267	5.786	5.630	5.740
460.0	723.4	1846	2653	1322	1361	1549	1705	1750	1757	1839	1926	1971	1880	1684	1448	1181	953.6	826.3	786.2	796.5	815.6	864.9	943.0	1019	1085	1130	1155	1165	1158	1132	1052	914.8	751.8	614.5	510.5	424.7	300.1	190.4	119.8	81.45	60.54	47.26	36.42	34.05	52.38	105.2	301.6	1541	1659	163.2	9.259	6.076	5.452	6.071	5.759	6.430	7.263	7.301	7.670	7.250	7.272	6.834	6.951	6.667	6.410	6.660	6.724	6.626	6.312	6.359	6.108	6.155	6.061	6.265	5.690	5.396	5.124
465.0	682.2	1265	2940	1698	1297	1460	1599	1644	1634	1692	1783	1806	1712	1560	1329	1079	877.0	767.7	725.8	731.2	744.8	789.0	858.3	927.2	982.7	1027	1054	1066	1059	1033	960.2	845.8	697.1	569.1	471.7	394.3	295.7	189.7	119.8	84.24	63.13	50.09	38.94	31.73	30.87	38.52	79.96	437.1	1695	1382	132.3	7.412	5.720	5.594	5.787	6.018	6.868	6.872	7.127	6.965	6.879	6.520	6.323	6.618	6.363	6.089	6.200	6.021	5.953	5.805	5.624	5.476	5.292	5.619	5.005	5.031	4.794
470.0	605.9	862.3	2094	2689	1344	1325	1441	1480	1462	1480	1556	1570	1486	1350	1162	947.4	768.2	673.3	641.8	636.7	646.6	680.9	739.6	795.3	843.5	881.8	904.9	914.8	914.0	894.0	836.6	735.5	611.3	502.5	417.5	345.1	267.2	187.0	122.1	86.24	65.96	52.13	41.69	33.43	28.20	25.90	32.11	109.4	473.6	1187	1352	483.8	13.43	5.860	5.720	5.753	6.311	6.345	6.342	6.276	6.186	6.010	5.724	5.727	5.664	5.524	5.599	5.466	5.269	5.029	5.068	4.920	4.799	4.955	4.605	4.378	4.260
475.0	571.2	714.3	1165	2844	2012	1196	1279	1303	1266	1272	1311	1324	1252	1124	969.0	806.9	661.9	578.4	548.6	541.7	546.2	569.0	615.6	660.3	696.9	727.3	749.0	759.5	756.0	740.1	696.9	615.7	514.9	425.9	358.4	294.5	228.5	171.7	126.6	87.38	67.09	54.27	43.57	36.16	29.55	25.02	22.71	37.42	115.5	277.2	672.9	1548	210.4	16.58	5.458	5.398	5.671	5.808	5.538	5.609	5.025	4.857	5.266	5.092	5.060	4.943	4.577	4.747	4.509	4.357	4.473	4.062	4.447	4.385	3.773	3.970	3.946
480.0	538.9	648.1	815.8	2082	2831	1215	1181	1179	1134	1128	1153	1146	1094	979.4	845.9	702.1	586.4	515.7	486.8	476.7	477.5	494.3	537.3	569.1	602.4	627.0	640.9	654.4	653.4	638.0	602.8	534.0	447.3	377.7	315.7	261.6	203.6	153.3	123.3	93.40	68.33	53.89	45.03	37.02	30.74	25.94	21.82	22.16	36.60	70.70	169.4	851.4	1428	200.2	10.99	5.100	5.475	5.352	5.509	5.221	5.016	4.590	4.815	4.670	4.307	4.308	4.284	4.308	3.991	4.194	3.989	3.892	3.803	3.814	3.459	3.353	3.439
485.0	482.3	599.8	697.8	1265	3106	1609	1068	1081	1027	1016	1024	1032	969.9	871.9	752.2	626.6	523.8	467.7	444.8	427.1	423.7	439.2	474.4	498.6	529.6	550.1	565.1	573.2	571.3	560.7	532.1	470.8	400.6	336.9	282.5	236.7	186.1	140.4	113.2	95.84	72.26	55.53	46.05	39.00	32.25	27.83	22.79	19.45	20.08	25.35	45.77	226.8	1079	1339	160.4	7.388	5.472	5.496	5.306	4.846	4.806	4.321	4.481	4.060	4.033	3.845	3.692	3.926	3.681	4.002	3.561	3.692	3.461	3.607	3.088	3.178	2.878
490.0	418.5	594.7	620.7	814.9	2147	2652	1111	958.2	915.5	887.7	895.9	895.5	838.8	753.9	643.3	547.1	464.0	412.7	388.0	376.2	371.4	382.2	407.2	429.6	454.3	468.1	483.6	489.6	486.3	481.0	455.7	407.5	347.3	294.0	250.2	208.8	169.1	127.3	101.8	89.97	77.57	59.49	47.30	39.61	34.25	29.21	24.84	21.15	17.68	16.20	19.05	58.71	282.7	817.2	1178	499.5	15.72	5.270	4.735	4.299	4.144	3.919	3.809	3.801	3.400	3.523	3.461	3.321	3.371	3.426	3.107	3.259	3.009	2.995	2.949	2.695	2.661
495.0	351.6	524.6	585.8	628.9	1087	2861	1789	849.5	803.4	773.6	776.7	764.0	714.6	649.7	553.7	469.1	397.8	354.5	331.1	326.2	318.6	326.5	345.5	360.6	383.5	396.1	407.1	413.6	416.4	405.7	387.4	347.5	297.9	255.2	219.1	184.6	150.9	117.0	93.49	79.61	73.98	64.15	49.93	41.45	34.86	30.17	25.77	22.55	18.92	15.36	14.10	21.72	70.06	190.2	521.3	1373	725.4	20.40	4.639	3.963	3.762	3.591	3.519	3.404	3.010	3.045	3.142	3.113	3.153	2.930	2.852	2.929	2.669	2.592	2.568	2.596	2.473
500.0	313.8	449.4	553.0	552.9	715.0	2034	2678	864.5	707.6	694.9	685.7	683.4	634.2	572.1	489.9	414.3	353.1	318.8	300.2	289.8	281.6	288.4	303.0	319.4	336.8	345.7	355.9	357.6	361.3	355.8	343.6	306.4	265.6	228.9	196.2	166.7	136.3	108.0	86.44	74.23	65.95	63.96	53.43	41.89	34.74	30.41	26.34	22.87	19.88	16.27	13.34	13.91	23.25	49.08	127.3	655.7	1468	232.7	14.23	4.154	3.631	3.386	3.276	3.010	3.009	2.871	2.876	2.657	2.629	2.743	2.472	2.671	2.377	2.324	2.343	2.391	2.198
505.0	262.2	387.0	521.1	519.1	579.0	1155	3063	1277	631.4	624.3	611.3	610.3	562.5	515.2	432.5	368.3	315.4	280.9	267.6	259.0	251.0	254.8	265.3	282.6	298.7	303.4	312.4	314.9	318.0	313.9	299.4	273.6	233.7	203.0	176.9	152.1	124.2	99.16	80.95	68.07	60.69	58.87	55.41	42.86	35.94	30.82	26.85	23.33	20.43	16.87	14.28	12.35	13.00	17.85	34.47	164.4	841.7	1284	199.0	8.023	3.661	3.296	2.901	2.839	2.726	2.650	2.528	2.494	2.457	2.341	2.465	2.339	2.093	2.057	2.265	2.326	2.064
510.0	249.0	309.3	424.6	497.0	481.2	661.0	2029	2446	701.2	530.6	526.4	517.4	480.2	432.2	366.1	314.4	271.0	242.1	228.8	219.0	212.9	213.2	221.6	235.4	245.5	253.2	259.1	261.9	263.0	261.1	249.6	227.5	197.0	172.0	148.6	129.5	107.8	87.23	72.44	62.36	54.77	50.55	49.18	44.72	36.20	30.58	26.26	22.72	19.61	17.20	14.75	12.41	10.98	10.93	13.80	42.32	208.7	646.4	972.3	454.8	16.16	3.213	2.738	2.644	2.539	2.320	2.239	2.258	2.059	2.231	1.986	1.934	1.872	1.623	1.880	1.841	1.853
515.0	222.6	261.5	347.0	443.2	420.4	467.5	892.4	2772	1471	463.3	442.0	431.0	395.9	356.0	306.2	263.0	225.3	202.4	191.2	184.0	175.1	176.3	185.5	193.9	199.6	206.2	208.0	210.0	212.5	213.2	203.2	184.3	162.7	141.5	124.7	109.9	92.41	75.81	65.48	57.29	49.48	43.79	41.80	42.06	37.72	30.43	25.00	22.46	19.28	16.50	14.27	12.75	10.83	9.761	9.203	14.93	51.50	148.7	333.9	1006	643.8	21.67	2.923	2.468	2.398	2.069	2.086	2.094	1.718	1.865	1.820	1.505	1.577	1.675	1.484	1.541	1.569
520.0	192.3	242.7	290.8	383.1	408.5	404.2	519.7	1908	2501	517.3	394.1	375.2	344.5	305.1	265.7	227.9	196.2	177.0	167.1	159.0	154.3	153.0	161.5	163.5	170.8	174.5	176.9	179.3	182.3	181.5	174.4	158.9	139.8	123.3	107.9	95.27	80.88	68.29	59.49	51.64	45.82	41.60	37.17	37.35	36.97	31.94	25.29	21.47	18.42	16.39	13.64	12.26	10.76	9.473	8.327	8.699	16.39	37.69	79.84	417.6	1050	239.1	15.08	2.425	2.117	2.039	1.936	1.759	1.667	1.607	1.484	1.563	1.562	1.513	1.342	1.311	1.402
525.0	167.4	201.4	246.2	321.5	398.0	355.5	402.6	957.4	3090	968.9	354.2	333.7	309.5	272.5	234.4	202.3	172.7	157.4	147.8	140.2	136.2	134.7	138.3	144.3	147.9	152.7	152.7	154.5	158.3	158.4	150.3	137.1	121.9	108.7	95.99	84.30	73.81	61.81	52.76	47.48	43.11	38.24	33.64	32.33	33.36	32.29	25.60	20.66	17.74	16.03	13.47	12.20	10.90	9.289	8.064	7.391	8.717	13.06	21.77	101.4	513.3	921.8	205.3	7.774	2.260	1.808	1.729	1.660	1.513	1.488	1.432	1.481	1.429	1.320	1.233	1.126	1.294
530.0	143.8	186.4	212.0	251.5	343.4	339.3	318.6	456.8	1943	2352	458.6	281.6	260.3	229.1	198.6	168.1	147.8	132.0	124.2	118.7	114.3	112.2	115.2	119.4	122.4	126.1	126.9	128.2	130.4	129.6	124.4	115.5	102.5	90.64	80.81	71.97	62.68	53.91	46.78	41.71	37.58	34.00	30.64	28.32	27.92	28.84	26.06	20.60	16.96	15.08	12.84	11.35	10.13	9.098	8.069	7.224	6.483	7.083	8.382	25.88	123.2	405.4	673.9	341.8	16.12	2.036	1.676	1.499	1.404	1.336	1.234	1.228	1.260	1.075	1.122	1.152	1.166
535.0	125.6	166.9	178.5	199.6	262.8	332.7	271.5	298.9	706.2	2747	1310	247.9	217.9	188.7	160.8	140.7	124.3	110.4	102.1	98.25	95.66	93.51	93.84	97.49	99.83	102.6	103.5	103.3	106.3	106.2	102.0	92.95	85.47	75.14	67.20	60.40	53.29	45.85	40.28	35.99	32.77	29.08	27.32	25.35	23.51	23.42	24.25	20.54	16.35	13.69	11.65	10.19	9.150	8.375	7.883	6.901	5.735	5.324	5.307	8.746	30.08	92.88	205.1	632.5	504.0	21.88	1.788	1.392	1.231	1.233	1.066	1.020	1.031	0.968	0.899	0.986	0.941
540.0	101.1	144.0	155.6	181.5	205.7	304.1	261.1	244.5	326.1	1730	2508	303.2	187.8	161.5	141.5	122.3	106.4	94.85	90.33	83.85	82.20	79.89	82.11	83.21	86.20	87.91	87.92	89.38	90.40	88.95	85.36	81.58	73.10	65.09	57.97	53.29	46.96	39.58	35.38	32.37	29.59	26.48	24.59	22.73	21.11	19.95	20.55	20.07	17.02	12.88	11.09	9.349	8.704	7.758	7.120	6.561	5.740	4.959	4.697	4.866	9.588	23.21	48.48	237.7	716.0	237.7	14.69	1.459	1.241	1.291	1.057	1.024	0.839	0.823	0.918	0.811	0.935
545.0	88.31	131.0	139.4	155.6	176.3	257.6	260.2	207.1	216.4	744.3	3011	698.3	163.2	141.5	123.6	104.5	92.50	82.63	77.82	72.79	70.91	70.84	71.01	71.98	73.44	74.92	76.16	77.71	77.69	76.39	74.29	69.22	62.39	56.21	49.24	44.93	40.72	35.05	31.42	28.86	26.15	24.42	21.71	19.87	19.68	17.82	16.67	18.08	16.40	12.88	10.57	8.619	7.971	7.023	6.601	6.144	5.509	4.669	4.518	3.699	4.771	7.528	13.15	56.62	316.4	640.3	190.8	5.949	1.395	1.128	1.051	0.972	0.786	0.818	0.724	0.774	0.784
550.0	85.57	107.8	121.8	126.9	139.2	179.7	250.4	184.8	166.6	293.2	1751	2009	235.5	118.4	101.2	85.51	75.59	67.09	64.39	60.33	58.20	57.83	57.46	58.23	59.71	60.77	61.81	61.98	62.21	62.34	60.11	56.07	51.14	45.68	41.73	37.29	33.27	29.73	25.98	24.49	22.45	20.54	18.67	17.75	16.53	15.55	14.34	13.99	14.26	12.47	9.764	7.906	7.108	6.112	5.877	5.289	5.257	4.650	3.986	3.320	3.501	3.902	4.986	14.53	75.11	262.9	454.1	229.2	14.86	1.321	1.045	0.913	0.834	0.831	0.734	0.750	0.734
555.0	72.97	97.91	100.9	106.4	114.1	130.3	196.5	179.9	133.6	161.3	551.8	2482	901.3	99.02	81.12	68.36	61.03	55.50	52.02	48.80	45.73	46.08	45.32	46.24	46.91	47.90	47.79	47.88	48.72	48.26	46.87	44.68	39.96	36.71	32.94	29.70	26.47	24.04	21.16	19.85	17.94	16.71	15.69	14.69	13.74	12.73	12.06	11.07	10.88	11.17	9.575	7.622	6.052	5.305	5.055	4.587	4.411	4.211	3.685	3.046	2.951	2.941	2.945	5.120	18.36	60.13	134.8	394.4	247.6	19.52	1.166	0.875	0.756	0.781	0.698	0.663	0.577
560.0	81.64	87.40	88.53	94.35	94.70	107.4	148.9	184.7	121.0	119.4	211.2	1509	1988	131.7	68.88	59.81	50.20	46.98	42.84	40.07	38.52	38.39	37.36	37.55	39.11	39.91	39.90	40.24	40.03	39.41	38.06	36.41	33.26	30.04	27.09	25.00	22.65	20.32	18.18	16.56	15.62	14.34	12.93	12.74	12.07	11.23	10.09	9.394	8.856	9.061	8.766	7.376	5.699	4.921	4.475	4.170	4.262	3.703	3.618	3.121	2.615	2.466	2.235	2.858	5.645	14.83	31.75	144.3	421.0	205.0	11.03	0.972	0.820	0.754	0.752	0.612	0.604
565.0	70.86	82.38	87.93	81.64	80.09	81.58	107.6	170.5	119.4	100.4	119.7	590.9	2554	405.1	58.60	49.76	42.81	38.59	36.71	33.70	32.93	32.28	31.94	31.93	32.70	33.37	33.33	32.80	33.20	33.09	32.18	30.55	27.15	25.03	22.29	21.15	19.74	16.66	15.94	14.68	13.39	12.38	11.43	10.71	9.953	9.556	8.856	8.156	7.572	7.502	7.853	7.154	5.271	4.459	3.965	3.944	3.511	3.117	3.244	3.070	2.664	2.342	2.128	2.048	2.599	4.807	8.272	34.30	183.8	393.6	136.9	3.908	0.821	0.711	0.682	0.570	0.537
570.0	69.27	83.79	80.31	74.27	66.63	73.64	78.81	130.3	135.7	88.61	89.57	201.1	1486	1472	87.82	41.78	34.82	31.39	29.15	27.35	26.49	25.94	24.90	24.61	25.78	26.46	26.20	26.15	26.37	26.18	25.50	23.95	21.95	19.75	17.65	16.79	15.56	13.58	12.75	12.24	10.77	10.02	9.333	9.106	8.268	7.704	7.273	6.877	6.264	5.785	5.808	6.055	5.173	4.191	3.382	3.356	3.037	2.858	2.748	2.691	2.762	2.310	2.019	1.959	1.950	2.465	3.240	9.041	43.76	155.4	267.2	136.9	13.07	0.883	0.621	0.581	0.518
575.0	64.48	72.75	67.67	59.82	57.29	58.44	61.47	82.12	138.0	92.55	78.72	97.98	437.3	1900	556.7	34.80	28.59	25.72	23.34	21.86	20.97	20.33	19.17	19.47	19.78	20.78	20.25	20.35	20.30	19.96	20.39	18.23	17.25	15.63	14.43	13.05	12.19	10.81	10.35	9.765	8.840	8.064	7.878	7.157	6.987	6.635	5.933	5.740	5.105	4.648	4.302	4.710	4.430	4.136	3.071	2.732	2.615	2.584	2.423	2.226	2.366	2.432	2.077	1.765	1.917	1.660	2.043	3.238	10.91	35.92	77.33	225.9	189.1	15.54	0.711	0.568	0.576
580.0	75.67	72.24	70.36	58.01	54.50	52.21	57.55	64.34	122.6	107.7	70.49	73.54	145.7	1150	1372	50.72	24.30	21.74	19.77	18.69	17.15	16.78	16.20	16.67	16.79	16.67	16.68	16.40	16.75	17.21	16.43	15.51	14.40	13.49	11.75	11.18	10.25	9.447	8.885	8.278	7.227	6.626	6.423	6.126	6.094	5.877	5.244	4.879	4.514	3.919	3.568	3.623	3.884	3.736	2.982	2.605	2.382	2.237	2.029	2.010	1.978	2.319	2.306	1.676	1.691	1.729	1.762	2.086	3.637	9.253	18.42	81.28	250.7	135.1	7.257	0.683	0.571
585.0	68.33	66.15	67.00	52.38	44.86	49.84	50.55	53.73	88.19	119.9	72.63	67.26	74.79	429.5	1797	113.3	20.73	19.24	17.12	15.49	14.57	14.07	13.89	13.66	13.83	13.76	13.82	14.07	14.53	14.03	14.04	13.16	12.11	11.65	10.10	9.098	8.721	8.213	7.502	7.130	6.699	5.866	5.358	5.190	5.024	4.685	4.592	4.107	3.619	3.476	3.245	2.844	3.057	3.636	3.186	2.407	2.231	1.992	1.936	1.836	1.790	1.878	2.151	2.031	1.775	1.694	1.640	1.748	2.018	3.145	5.310	19.63	105.6	233.8	35.17	2.793	0.637
590.0	62.26	68.43	58.54	52.60	41.91	39.17	44.70	49.28	62.67	114.5	85.10	62.70	58.65	136.0	1044	923.5	42.01	15.67	13.86	12.88	12.28	11.89	11.12	11.22	11.33	10.99	11.48	11.44	11.68	11.30	11.25	10.96	9.891	9.087	8.337	7.515	7.044	6.588	5.783	5.772	5.301	5.076	4.627	4.453	4.218	3.865	3.648	3.505	3.175	2.760	2.699	2.332	2.314	2.687	2.941	2.468	2.029	1.751	1.611	1.683	1.629	1.655	1.797	1.848	1.790	1.601	1.482	1.568	1.658	1.856	2.287	5.380	25.07	90.23	147.9	90.95	11.30
595.0	55.90	69.84	58.30	47.25	39.41	38.74	40.40	42.49	50.07	83.87	106.6	64.85	51.73	60.56	295.8	1264	292.0	13.59	11.48	10.99	9.883	9.613	9.334	9.363	8.554	8.810	9.259	9.494	9.382	9.205	9.024	8.180	7.752	7.515	6.529	6.058	5.500	5.288	5.010	4.583	3.941	4.196	3.804	3.682	3.397	3.131	3.083	3.086	2.802	2.350	2.203	1.980	1.796	2.034	2.308	2.369	1.925	1.591	1.535	1.368	1.539	1.496	1.503	1.542	1.925	1.695	1.386	1.434	1.457	1.664	1.562	2.191	6.448	20.92	42.91	132.1	116.7
600.0	57.97	69.13	56.74	42.18	36.01	34.97	38.12	40.66	46.44	63.83	111.5	69.91	51.73	45.36	89.44	796.7	744.6	21.69	10.03	9.428	8.650	8.521	7.910	8.147	7.518	7.845	7.359	7.764	7.943	8.031	7.602	7.019	6.395	5.986	5.453	5.232	4.516	4.558	4.258	3.757	3.555	3.423	3.277	3.270	2.800	2.904	2.768	2.506	2.491	2.034	1.977	1.674	1.604	1.658	1.849	2.019	1.975	1.711	1.299	1.317	1.320	1.400	1.305	1.394	1.533	1.785	1.346	1.506	1.384	1.464	1.234	1.451	2.277	5.528	10.48	46.46	148.0
605.0	54.42	62.88	54.48	38.96	33.89	34.32	38.39	41.74	46.73	57.58	103.1	82.71	54.53	40.65	41.00	302.8	1117	74.23	9.381	8.085	7.148	7.442	6.862	7.086	6.460	6.869	6.709	6.247	6.895	6.666	6.523	5.833	5.200	5.016	4.745	4.167	3.788	3.772	3.589	3.372	3.136	2.889	2.899	2.812	2.522	2.483	2.486	2.205	1.966	1.781	1.546	1.532	1.390	1.321	1.403	1.651	1.837	1.661	1.345	1.248	1.229	1.300	1.334	1.448	1.447	1.596	1.548	1.528	1.387	1.470	1.208	1.403	1.319	2.033	3.017	11.18	60.29
610.0	52.27	60.23	52.69	42.03	31.92	31.54	34.90	40.61	48.72	56.72	82.76	103.1	61.97	43.89	33.27	90.11	724.0	531.1	19.42	6.878	6.373	5.869	5.633	5.538	5.367	5.627	5.371	5.070	5.305	5.338	5.251	4.941	4.444	4.146	3.786	3.553	3.295	3.236	3.039	2.571	2.370	2.239	2.463	2.212	2.005	2.113	2.027	1.789	1.620	1.499	1.296	1.294	1.161	1.190	1.080	1.246	1.527	1.606	1.339	1.214	1.192	1.202	1.241	1.346	1.300	1.453	1.566	1.583	1.464	1.364	1.385	1.295	1.104	1.267	1.370	3.096	14.39
615.0	53.96	62.91	48.35	38.56	28.85	31.20	31.87	39.81	45.09	52.96	67.70	100.8	73.75	44.30	32.08	35.71	213.2	858.9	78.74	6.381	5.097	4.654	4.744	4.285	4.486	4.317	4.254	4.554	3.864	4.415	4.365	3.759	3.675	3.440	3.194	3.149	2.621	2.663	2.474	2.084	1.940	1.865	1.937	1.695	1.839	1.606	1.775	1.468	1.394	1.175	1.075	1.040	1.001	1.035	0.936	0.996	1.002	1.299	1.432	1.122	1.071	1.059	0.940	1.133	1.179	1.298	1.424	1.473	1.575	1.301	1.477	1.167	1.051	1.147	1.032	1.327	3.715
620.0	54.58	53.86	48.22	35.49	27.52	30.51	33.84	36.89	41.75	49.12	59.81	85.29	88.29	46.02	31.36	24.74	62.62	603.9	463.5	9.045	4.710	4.100	4.200	4.070	3.927	3.586	3.720	3.848	3.552	3.832	3.460	3.265	3.192	3.047	2.703	2.516	2.228	2.376	1.961	1.695	1.735	1.579	1.474	1.536	1.422	1.443	1.407	1.252	1.141	1.077	1.014	0.977	0.885	0.801	0.826	0.825	0.927	1.004	1.372	1.169	0.993	1.055	0.939	1.042	1.016	1.207	1.220	1.169	1.474	1.357	1.212	1.164	0.936	0.848	0.818	0.944	1.375
625.0	55.79	54.36	47.91	37.35	26.84	28.58	30.22	34.39	41.70	49.51	54.91	69.21	93.03	48.31	32.46	21.26	26.29	246.7	765.5	43.14	4.296	3.641	3.729	3.644	3.210	3.345	3.368	3.234	3.257	3.077	2.996	3.013	2.608	2.449	2.206	2.195	1.815	1.744	1.643	1.616	1.447	1.375	1.250	1.315	1.311	1.288	1.093	1.161	0.954	0.964	0.839	0.820	0.743	0.741	0.754	0.729	0.847	0.837	1.097	1.208	0.916	0.976	0.733	0.893	0.990	1.171	0.961	1.182	1.283	1.395	1.130	0.970	0.950	0.748	0.674	0.748	0.679
630.0	50.44	51.47	44.35	33.34	27.08	27.51	29.16	32.64	39.75	46.33	54.28	60.67	79.89	59.68	32.29	20.27	17.78	69.12	557.8	359.9	8.699	3.420	3.238	2.934	2.667	2.736	2.643	2.745	2.789	2.613	2.433	2.369	2.151	2.068	1.897	1.836	1.568	1.450	1.429	1.327	1.237	1.183	1.037	1.183	1.069	0.997	0.944	0.941	0.808	0.828	0.721	0.693	0.712	0.707	0.738	0.669	0.696	0.674	0.832	0.973	0.891	0.860	0.717	0.823	0.848	0.892	0.883	0.990	1.043	1.181	1.075	0.906	0.923	0.733	0.646	0.652	0.543
635.0	53.17	52.14	49.83	33.83	25.71	27.43	28.49	33.40	38.29	45.04	54.75	56.34	63.18	69.03	34.55	22.08	16.17	23.75	171.0	640.2	57.80	3.036	2.633	2.554	2.340	2.310	2.364	2.106	2.133	2.235	1.873	1.977	1.698	1.552	1.547	1.522	1.363	1.232	1.204	0.962	1.049	0.865	0.984	0.988	0.788	0.859	0.760	0.798	0.833	0.683	0.550	0.559	0.612	0.624	0.522	0.547	0.600	0.609	0.602	0.697	0.791	0.783	0.638	0.723	0.781	0.912	0.861	0.786	0.879	0.908	0.882	0.966	0.930	0.768	0.517	0.646	0.422
640.0	49.49	51.49	46.56	37.09	26.23	26.96	26.61	33.20	37.49	43.91	50.64	56.99	57.21	67.74	41.31	22.95	17.08	14.14	46.63	505.1	293.0	4.273	2.545	2.225	2.215	2.073	2.033	1.840	1.808	2.001	1.663	1.760	1.542	1.444	1.247	1.414	1.247	1.064	1.056	0.928	0.959	0.846	0.843	0.911	0.798	0.741	0.714	0.713	0.723	0.584	0.538	0.544	0.504	0.495	0.482	0.533	0.491	0.610	0.528	0.722	0.671	0.765	0.684	0.767	0.668	0.643	0.717	0.696	0.768	0.793	0.788	0.799	0.840	0.639	0.532	0.602	0.415
645.0	49.26	51.31	45.37	33.12	28.46	25.61	26.13	32.63	34.82	43.53	50.34	55.24	52.80	62.02	49.43	23.67	17.66	12.15	16.32	227.7	535.1	21.72	2.634	2.145	1.769	1.899	1.754	1.781	1.646	1.651	1.657	1.372	1.492	1.327	1.047	1.169	1.078	1.015	0.902	0.868	0.817	0.774	0.705	0.679	0.673	0.704	0.581	0.548	0.603	0.506	0.475	0.513	0.402	0.505	0.427	0.442	0.583	0.484	0.560	0.522	0.529	0.641	0.760	0.739	0.640	0.723	0.719	0.671	0.660	0.763	0.786	0.751	0.800	0.614	0.516	0.548	0.446
650.0	46.11	51.86	54.84	34.13	27.15	24.71	26.36	31.10	35.00	41.55	48.20	53.85	50.57	51.93	54.65	25.87	18.13	12.50	9.780	69.00	553.9	67.09	2.496	1.959	1.871	1.790	1.769	1.698	1.641	1.651	1.411	1.412	1.225	1.135	1.134	1.036	1.014	0.816	0.904	0.707	0.776	0.654	0.720	0.604	0.621	0.619	0.575	0.543	0.555	0.467	0.439	0.476	0.444	0.517	0.447	0.416	0.512	0.510	0.467	0.489	0.467	0.655	0.631	0.649	0.641	0.587	0.581	0.540	0.671	0.568	0.614	0.792	0.689	0.657	0.509	0.461	0.396
