Sample:	'1
File name:	g2025081902лф©зге.FD3
Run date:	'16:29:21, 08/19/2025
Operator:	Administrator
Comment:	'

Instrument
Model:	F-2700 FL Spectrophotometer
Serial number:	23B8-004
ROM Version:	4J14000 07

Instrument parameters
Measurement type:	3-D scan
Data mode:	Fluorescence
EX  Start WL:	220.0 nm
EX  End WL:	600.0 nm
EX Sampling interval:	5.0 nm
EM  Start WL:	230.0 nm
EM  End WL:	650.0 nm
EM Sampling interval:	5.0 nm
Scan speed:	12000 nm/min
EX Slit:	5.0 nm
EM Slit:	5.0 nm
PMT Voltage:	700 V
Response:	Auto 
Corrected spectra:	Off
Contour interval:	50.000

Peak integration
Integration method:	Rectangular
Sensitivity:	1
Threshold:	1.000

Peaks
No.	ApexEX/EM(nm)	Height(Data)
1	225.0/590.0	43.99
2	225.0/605.0	41.30
3	225.0/645.0	34.44
4	230.0/345.0	925.0
5	230.0/355.0	934.3
6	230.0/500.0	348.6
7	230.0/600.0	40.85
8	235.0/510.0	321.7
9	240.0/265.0	396.9
10	240.0/385.0	1073
11	240.0/525.0	273.8
12	245.0/270.0	395.9
13	245.0/535.0	239.9
14	250.0/275.0	509.7
15	250.0/550.0	191.3
16	255.0/280.0	644.3
17	255.0/560.0	164.3
18	260.0/380.0	1033
19	260.0/575.0	136.6
20	265.0/385.0	1045
21	265.0/585.0	120.0
22	270.0/300.0	1138
23	270.0/600.0	103.6
24	275.0/305.0	1194
25	275.0/610.0	88.10
26	280.0/310.0	1003
27	280.0/625.0	70.50
28	285.0/320.0	929.3
29	285.0/635.0	53.63
30	290.0/325.0	876.2
31	295.0/330.0	733.5
32	300.0/335.0	736.0
33	305.0/345.0	684.3
34	310.0/350.0	580.9
35	315.0/355.0	552.4
36	320.0/365.0	511.6
37	325.0/370.0	481.6
38	330.0/375.0	489.3
39	335.0/385.0	499.8
40	340.0/390.0	478.2
41	430.0/505.0	48.52
42	455.0/540.0	19.14
43	480.0/260.0	2.051
44	485.0/265.0	2.332
45	495.0/270.0	2.289
46	505.0/275.0	3.519
47	510.0/385.0	5.158
48	515.0/280.0	3.606
49	520.0/285.0	4.564
50	530.0/290.0	3.876
51	540.0/295.0	5.472
52	545.0/300.0	6.132
53	555.0/305.0	6.024
54	560.0/310.0	5.371
55	575.0/315.0	5.230
56	580.0/320.0	5.310
57	585.0/325.0	5.228

Data points
	220.0	225.0	230.0	235.0	240.0	245.0	250.0	255.0	260.0	265.0	270.0	275.0	280.0	285.0	290.0	295.0	300.0	305.0	310.0	315.0	320.0	325.0	330.0	335.0	340.0	345.0	350.0	355.0	360.0	365.0	370.0	375.0	380.0	385.0	390.0	395.0	400.0	405.0	410.0	415.0	420.0	425.0	430.0	435.0	440.0	445.0	450.0	455.0	460.0	465.0	470.0	475.0	480.0	485.0	490.0	495.0	500.0	505.0	510.0	515.0	520.0	525.0	530.0	535.0	540.0	545.0	550.0	555.0	560.0	565.0	570.0	575.0	580.0	585.0	590.0	595.0	600.0
230.0	30.14	613.5	1880	643.2	28.73	2.919	3.341	2.571	1.922	2.238	2.030	1.851	1.674	1.215	1.213	1.152	0.936	0.777	0.834	0.605	0.554	0.529	0.476	0.450	0.444	0.414	0.377	0.343	0.344	0.381	0.350	0.308	0.296	0.307	0.236	0.272	0.238	0.256	0.187	0.172	0.199	0.373	0.339	0.244	0.184	0.142	0.617	3.179	6.323	5.361	2.474	0.530	0.156	0.094	0.137	0.139	0.115	0.105	0.104	0.126	0.089	0.098	0.115	0.128	0.098	0.105	0.139	0.094	0.083	0.072	0.115	0.122	0.114	0.094	0.112	0.093	0.170
235.0	87.97	167.8	1007	1920	545.7	50.01	4.503	3.045	2.506	2.449	2.600	1.854	1.556	1.562	1.325	1.189	0.873	0.656	0.875	0.635	0.671	0.589	0.449	0.572	0.472	0.441	0.378	0.395	0.332	0.483	0.383	0.428	0.268	0.240	0.204	0.222	0.267	0.209	0.189	0.204	0.161	0.308	0.300	0.390	0.363	0.224	0.264	0.830	2.164	3.966	6.848	8.235	4.265	1.131	0.204	0.125	0.121	0.139	0.100	0.107	0.132	0.107	0.099	0.162	0.124	0.115	0.096	0.078	0.149	0.097	0.079	0.116	0.111	0.169	0.105	0.105	0.109
240.0	135.6	126.0	287.5	1439	2211	442.7	25.32	4.742	3.857	2.647	2.617	2.125	1.768	1.634	1.385	1.140	1.027	0.675	0.714	0.674	0.620	0.565	0.437	0.471	0.555	0.362	0.417	0.433	0.275	0.443	0.312	0.326	0.276	0.191	0.260	0.209	0.234	0.255	0.236	0.220	0.179	0.215	0.167	0.349	0.471	0.452	0.380	0.419	0.674	1.226	3.001	8.177	11.20	9.117	3.801	0.739	0.180	0.138	0.134	0.128	0.114	0.105	0.084	0.110	0.119	0.127	0.100	0.112	0.136	0.154	0.128	0.099	0.108	0.148	0.153	0.097	0.164
245.0	94.17	207.8	137.2	449.9	2061	2379	332.7	12.34	4.401	2.702	3.429	2.296	1.783	1.714	1.673	1.282	1.023	0.952	0.725	0.735	0.572	0.764	0.602	0.392	0.500	0.432	0.451	0.393	0.379	0.556	0.305	0.289	0.240	0.376	0.265	0.267	0.250	0.229	0.253	0.250	0.174	0.174	0.129	0.212	0.248	0.473	0.722	0.705	0.395	0.441	0.832	2.483	6.453	12.24	13.99	8.859	3.144	0.480	0.091	0.160	0.160	0.110	0.078	0.091	0.118	0.102	0.149	0.140	0.106	0.091	0.191	0.083	0.109	0.142	0.078	0.089	0.099
250.0	34.04	140.2	245.0	211.9	621.7	1962	2795	1118	76.57	4.670	3.871	3.317	2.710	1.880	1.701	1.200	1.141	1.009	0.873	0.729	0.684	0.617	0.545	0.509	0.580	0.520	0.451	0.386	0.321	0.361	0.281	0.322	0.339	0.306	0.258	0.222	0.189	0.261	0.251	0.282	0.177	0.218	0.217	0.192	0.152	0.287	0.401	0.686	0.885	0.885	0.610	0.794	1.661	3.613	6.896	11.24	15.08	14.76	9.317	3.086	0.463	0.148	0.130	0.103	0.150	0.107	0.103	0.108	0.124	0.070	0.125	0.145	0.080	0.177	0.083	0.088	0.202
255.0	15.86	46.40	149.4	339.3	255.5	485.5	1793	4246	1625	84.14	6.272	3.995	3.634	2.643	2.090	1.494	1.420	1.154	1.076	0.856	0.822	0.662	0.639	0.623	0.475	0.496	0.550	0.369	0.407	0.446	0.401	0.338	0.296	0.290	0.234	0.248	0.180	0.202	0.309	0.237	0.207	0.200	0.201	0.208	0.166	0.202	0.200	0.233	0.394	0.829	1.322	1.576	1.048	1.045	1.691	2.709	4.381	10.19	21.16	24.81	15.08	3.845	0.408	0.204	0.164	0.138	0.127	0.119	0.238	0.130	0.088	0.159	0.110	0.171	0.123	0.078	0.133
260.0	21.06	23.33	54.88	266.7	348.3	177.0	503.0	2977	4967	1265	40.56	5.946	3.358	3.573	2.520	1.774	1.608	1.155	1.178	0.879	0.865	0.770	0.660	0.565	0.419	0.526	0.429	0.345	0.406	0.474	0.380	0.332	0.366	0.297	0.257	0.245	0.225	0.210	0.198	0.301	0.235	0.244	0.212	0.206	0.218	0.210	0.167	0.168	0.189	0.377	0.670	1.819	2.051	1.240	0.622	0.798	1.238	2.628	7.682	18.26	29.62	27.08	12.64	2.148	0.195	0.219	0.121	0.141	0.185	0.102	0.141	0.123	0.168	0.098	0.096	0.146	0.082
265.0	22.53	19.70	24.30	113.0	396.9	275.4	150.2	904.7	4338	5185	237.7	17.30	4.734	4.426	3.241	2.071	1.810	1.385	1.094	0.970	0.888	0.888	0.876	0.580	0.614	0.543	0.515	0.529	0.443	0.534	0.457	0.404	0.336	0.311	0.276	0.208	0.296	0.260	0.274	0.214	0.190	0.223	0.222	0.172	0.209	0.241	0.214	0.163	0.157	0.194	0.250	0.706	1.562	2.332	1.706	0.834	0.526	0.698	1.943	4.800	12.20	26.01	33.96	24.49	8.077	0.890	0.187	0.174	0.252	0.109	0.197	0.117	0.137	0.099	0.105	0.177	0.138
270.0	32.92	28.46	26.96	37.93	169.2	395.9	301.6	259.7	1271	4158	5635	888.9	60.11	5.899	3.980	2.784	2.407	1.580	1.565	1.160	0.975	0.928	0.804	0.602	0.666	0.663	0.527	0.493	0.477	0.508	0.493	0.380	0.393	0.404	0.329	0.284	0.303	0.347	0.282	0.220	0.229	0.237	0.227	0.252	0.192	0.294	0.201	0.217	0.191	0.187	0.196	0.343	0.519	1.081	1.852	2.289	2.211	1.376	0.774	1.288	3.001	6.902	13.41	22.57	27.18	29.70	17.10	6.847	1.064	0.199	0.232	0.159	0.198	0.091	0.117	0.144	0.172
275.0	65.70	70.89	48.00	32.18	51.80	158.6	509.7	344.5	338.4	1017	3326	7971	1254	63.92	6.467	3.590	2.889	2.101	1.641	1.461	1.249	1.080	1.063	0.857	0.746	0.681	0.635	0.481	0.592	0.524	0.381	0.401	0.495	0.504	0.502	0.326	0.395	0.347	0.317	0.293	0.226	0.277	0.274	0.307	0.324	0.416	0.299	0.371	0.301	0.272	0.196	0.202	0.327	0.380	0.538	0.883	1.983	3.519	2.579	1.221	0.933	1.893	3.247	5.362	7.131	14.75	33.69	46.31	26.59	8.119	0.631	0.182	0.240	0.122	0.108	0.116	0.147
280.0	128.6	121.6	89.54	49.80	38.42	58.25	287.5	644.3	271.1	299.0	926.5	5333	7739	896.5	26.70	5.429	3.877	2.671	2.010	1.747	1.537	1.154	1.047	0.930	0.821	0.751	0.557	0.453	0.682	0.471	0.547	0.390	0.536	0.434	0.487	0.473	0.497	0.300	0.300	0.368	0.298	0.320	0.363	0.309	0.393	0.596	0.512	0.563	0.434	0.304	0.272	0.302	0.283	0.316	0.265	0.411	0.799	1.892	3.370	3.606	1.948	0.985	1.146	1.607	1.938	3.892	9.880	25.39	43.10	35.21	20.52	4.135	0.292	0.195	0.102	0.204	0.231
285.0	178.5	173.0	149.0	84.08	47.96	45.66	118.3	520.0	593.9	225.6	323.1	1592	6786	6341	129.5	12.50	5.182	3.427	2.332	1.936	1.595	1.328	0.914	1.158	0.682	0.723	0.714	0.520	0.733	0.422	0.644	0.552	0.560	0.539	0.457	0.500	0.555	0.443	0.421	0.396	0.390	0.337	0.412	0.506	0.460	0.659	0.639	0.753	0.534	0.406	0.335	0.300	0.292	0.287	0.298	0.372	0.424	0.709	1.530	3.342	4.564	2.909	1.326	0.952	1.020	1.467	2.816	6.511	14.56	31.21	48.06	31.43	13.78	1.601	0.241	0.285	0.285
290.0	248.4	268.3	231.2	137.8	79.22	69.32	87.37	236.3	604.6	673.1	355.0	563.8	1988	5153	5744	1495	33.90	5.253	3.397	2.448	1.877	1.534	1.264	1.202	0.974	0.767	0.769	0.722	0.701	0.643	0.511	0.619	0.593	0.610	0.677	0.622	0.733	0.564	0.461	0.419	0.464	0.526	0.459	0.512	0.618	0.713	0.827	0.995	0.782	0.714	0.494	0.506	0.429	0.383	0.407	0.417	0.514	0.563	0.834	1.504	2.344	3.533	3.876	3.347	2.070	1.507	1.788	2.457	4.267	8.317	16.00	24.40	34.08	34.30	20.95	10.10	1.726
295.0	289.0	343.2	308.2	192.7	117.6	97.77	109.9	173.3	321.6	762.1	878.9	483.6	690.8	1330	3281	6955	704.6	36.31	5.327	3.494	2.579	1.802	1.816	1.239	1.083	1.121	1.006	0.764	0.743	0.650	0.601	0.561	0.593	0.709	0.694	0.767	0.797	0.682	0.603	0.493	0.552	0.621	0.596	0.616	0.749	0.920	0.941	1.069	1.151	0.976	0.740	0.722	0.653	0.617	0.669	0.583	0.768	0.758	0.850	1.092	1.308	1.715	2.314	4.212	5.472	4.029	2.373	1.983	2.380	3.129	4.761	6.377	8.747	13.11	28.94	49.64	31.98
300.0	342.8	391.0	351.5	225.8	145.7	127.5	139.6	180.8	276.0	523.4	1138	770.9	475.0	485.5	912.5	4627	5804	535.5	15.86	4.717	3.242	2.298	1.813	1.532	1.221	1.190	1.056	0.784	0.760	0.772	0.579	0.611	0.639	0.688	0.728	0.897	0.751	0.738	0.612	0.551	0.562	0.628	0.580	0.623	0.835	0.988	0.936	1.321	1.286	1.023	0.785	0.829	0.707	0.629	0.756	0.677	0.793	0.765	0.935	1.099	1.288	1.408	1.847	2.612	4.130	6.132	5.633	3.161	2.361	2.215	2.353	2.516	2.705	3.590	7.947	21.35	40.34
305.0	334.9	423.3	381.1	257.3	171.9	154.2	170.1	210.8	292.4	427.9	863.3	1194	594.4	344.1	330.2	1327	5486	4735	79.01	8.305	4.081	2.680	2.009	1.914	1.565	1.311	0.988	0.982	0.881	0.831	0.633	0.677	0.684	0.640	0.674	0.850	0.832	0.691	0.740	0.622	0.521	0.640	0.600	0.728	0.851	1.041	1.026	1.332	1.346	1.212	0.924	1.063	0.879	0.860	0.648	0.763	0.911	0.847	0.952	1.294	1.351	1.498	1.726	2.051	2.912	3.990	5.766	6.024	4.093	2.703	2.310	1.774	1.498	1.650	2.429	5.338	12.09
310.0	343.4	428.8	402.1	285.3	194.7	182.8	203.0	251.0	323.6	439.1	634.4	979.5	1003	483.9	245.5	392.1	1556	4124	4480	1178	23.60	4.054	2.723	2.215	1.579	1.336	1.262	1.126	0.971	0.808	0.771	0.688	0.740	0.729	0.773	0.796	0.831	0.744	0.727	0.587	0.616	0.638	0.696	0.736	0.864	1.020	1.156	1.287	1.306	1.138	1.042	1.010	1.041	0.861	0.837	0.912	0.965	1.035	1.230	1.467	1.579	1.756	1.939	2.166	2.581	2.941	3.640	4.617	5.371	5.233	3.976	2.355	1.681	1.341	1.437	1.880	3.322
315.0	357.4	452.3	411.8	309.4	230.7	221.8	239.5	277.4	351.6	454.4	587.9	712.7	885.8	890.7	361.0	241.9	463.5	1031	2733	5607	499.7	22.70	4.321	3.064	1.794	1.727	1.347	1.268	1.120	0.868	0.798	0.747	0.758	0.728	0.772	0.641	0.874	0.738	0.671	0.606	0.592	0.764	0.715	0.753	0.889	1.028	1.128	1.452	1.393	1.208	1.096	1.141	1.064	1.102	1.072	1.078	1.260	1.140	1.233	1.628	1.608	1.995	1.904	2.226	2.526	2.941	3.153	3.190	3.633	4.256	5.135	5.230	3.504	1.822	1.550	1.278	1.609
320.0	421.9	504.4	487.6	363.2	280.4	261.9	272.9	309.6	385.8	490.2	604.6	673.8	721.8	929.3	663.5	294.6	278.5	362.0	782.0	3818	4142	386.9	10.43	3.934	2.564	2.177	1.795	1.464	1.164	0.969	0.792	0.943	0.805	0.733	0.968	0.857	0.887	0.800	0.688	0.672	0.705	0.660	0.825	0.791	0.914	1.163	1.334	1.591	1.647	1.453	1.263	1.367	1.221	1.245	1.254	1.114	1.508	1.386	1.490	1.733	1.728	1.916	2.045	2.550	2.698	2.957	2.970	3.313	3.151	3.369	3.764	5.026	5.310	4.160	2.352	1.778	1.621
325.0	462.3	595.2	610.4	450.3	327.3	306.6	302.2	337.4	407.0	513.9	621.8	696.8	684.6	756.0	876.2	479.7	285.7	246.3	293.7	1142	4306	3534	59.65	6.381	3.394	2.397	1.855	1.431	1.278	1.102	0.770	0.871	0.962	0.973	0.884	0.839	0.808	0.825	0.775	0.630	0.738	0.648	0.821	0.931	1.051	1.384	1.521	1.853	2.017	1.670	1.490	1.535	1.310	1.451	1.404	1.340	1.639	1.572	1.477	1.844	1.989	2.143	2.293	2.615	2.833	3.108	3.151	3.326	3.145	3.468	3.416	3.695	4.434	5.228	4.347	2.899	2.168
330.0	499.7	674.3	737.9	569.9	425.8	360.6	347.6	374.6	442.4	538.3	645.3	716.1	709.8	669.9	716.3	733.5	467.6	274.4	221.4	368.7	1266	3265	3530	947.4	18.05	3.732	2.466	1.955	1.544	1.253	1.012	0.994	0.927	1.056	0.962	0.917	0.740	0.839	0.917	0.679	0.681	0.820	0.983	0.912	1.158	1.428	1.645	2.098	2.457	2.120	1.854	2.083	1.830	1.789	1.607	1.809	1.780	1.598	1.742	2.071	2.023	2.280	2.683	2.803	3.102	3.025	3.347	3.391	3.316	3.527	3.511	3.394	3.628	4.059	4.470	4.692	4.245
335.0	536.0	733.3	830.6	686.1	549.1	450.2	414.1	429.8	478.3	573.7	668.1	740.3	750.1	706.6	647.6	654.0	736.0	437.4	258.9	232.8	370.6	804.5	2318	4559	410.6	19.42	3.674	2.612	1.941	1.604	1.473	1.083	1.133	0.918	0.826	0.830	0.764	0.919	1.003	0.675	0.735	0.762	0.764	0.928	1.317	1.542	1.907	2.345	2.519	2.352	2.232	2.519	2.318	2.281	2.058	1.999	2.101	1.889	1.902	2.164	2.200	2.349	2.747	2.888	3.030	3.226	3.531	3.437	3.683	3.475	3.641	3.610	3.706	3.830	3.788	3.838	4.591
340.0	563.1	779.0	896.0	764.4	613.7	530.3	473.2	465.7	517.3	609.4	693.7	760.7	774.1	724.9	657.1	593.0	706.2	638.0	326.6	226.1	193.5	243.5	641.0	3243	3431	334.4	8.358	3.148	2.303	1.734	1.651	1.216	1.100	1.067	0.884	0.819	0.873	0.723	0.864	0.665	0.762	0.807	0.783	0.980	1.468	1.569	1.939	2.404	2.742	2.537	2.319	2.718	2.621	2.365	2.343	2.192	2.573	2.146	2.285	2.212	2.296	2.623	2.805	3.018	3.151	3.229	3.829	3.743	3.934	3.620	3.982	3.945	3.879	3.745	3.883	3.549	3.612
345.0	551.7	793.0	925.0	821.4	695.4	575.6	516.5	506.9	558.2	625.5	704.8	759.7	776.6	731.3	672.5	589.2	583.1	684.3	470.9	256.6	174.4	138.7	200.0	963.8	3637	2992	51.39	5.430	3.000	2.152	1.618	1.234	1.127	1.124	0.911	0.852	0.780	0.731	1.039	0.631	0.776	0.824	1.026	0.911	1.407	1.563	1.898	2.379	2.882	2.636	2.457	2.907	2.744	2.636	2.669	2.494	2.630	2.635	2.503	2.347	2.431	2.777	2.948	3.171	3.214	3.235	3.518	3.643	3.815	3.757	4.015	3.980	3.726	3.478	3.784	3.420	3.502
350.0	566.4	788.6	910.3	873.1	772.9	681.5	610.8	589.9	609.3	661.0	721.8	768.0	778.1	745.5	686.9	609.3	558.5	561.8	580.9	409.8	217.4	150.6	134.2	281.6	1076	2733	2888	763.7	16.22	3.224	2.196	1.496	1.204	1.074	1.075	0.895	0.741	0.820	0.985	0.667	0.853	0.914	0.912	1.175	1.316	1.630	1.896	2.547	2.844	2.729	2.772	3.204	2.988	3.132	2.991	2.920	2.895	2.838	2.893	2.706	2.859	2.981	3.163	3.423	3.156	3.483	3.653	3.652	3.722	3.879	4.186	3.972	3.887	3.873	3.892	3.776	3.621
355.0	571.3	787.8	934.3	909.1	845.7	802.3	721.7	705.7	724.8	745.3	771.1	792.4	806.2	766.9	715.8	639.4	589.0	530.2	502.4	552.4	355.3	199.6	155.2	161.1	309.9	680.8	1906	3403	374.7	17.24	3.247	2.185	1.731	1.159	1.094	0.966	0.880	0.742	0.843	0.714	0.821	0.895	0.854	0.977	1.369	1.742	1.869	2.459	2.691	2.764	2.932	3.338	3.433	3.524	3.523	3.209	3.249	3.479	3.098	3.214	3.395	3.523	3.455	3.627	3.564	3.722	3.826	3.659	3.644	3.936	4.100	3.970	4.231	4.052	4.114	3.771	4.012
360.0	558.8	757.3	924.3	940.4	910.6	859.6	813.5	797.9	811.3	818.2	817.7	831.7	821.2	781.3	744.3	670.4	615.1	538.4	479.0	515.0	493.9	281.5	192.7	156.0	160.9	215.2	534.0	2566	3108	306.4	7.431	2.872	2.070	1.413	1.282	1.057	0.852	0.836	0.922	0.740	0.728	0.903	0.896	1.076	1.336	1.671	1.838	2.450	2.709	2.880	2.836	3.481	3.628	3.957	3.695	3.610	3.784	3.473	3.475	3.677	3.713	4.137	4.000	3.936	3.831	3.796	3.764	3.832	3.999	4.146	3.848	4.064	4.278	4.169	3.866	4.248	3.911
365.0	569.9	745.9	915.6	937.0	953.0	909.4	875.5	867.2	870.7	888.7	875.1	863.0	833.0	788.2	751.4	689.5	629.2	560.8	495.1	463.3	511.6	412.4	248.4	186.3	151.7	132.4	176.0	774.5	3111	2695	48.68	4.524	2.388	1.837	1.415	1.155	0.934	0.902	1.026	0.729	0.822	0.848	0.959	1.083	1.248	1.573	1.822	2.433	2.867	2.796	2.965	3.510	3.770	3.992	3.850	3.704	4.042	3.869	3.827	3.982	3.920	4.161	4.246	4.077	4.103	4.020	3.968	3.972	3.926	4.253	4.041	4.356	4.085	4.307	4.124	4.140	4.023
370.0	546.8	745.6	912.7	959.7	989.1	976.5	954.6	931.6	936.1	951.7	925.5	897.9	851.0	806.9	765.1	708.2	652.8	591.5	530.8	476.7	456.3	481.6	393.2	254.6	188.8	147.8	124.1	232.2	921.5	2434	2599	674.7	14.47	2.653	1.827	1.256	1.009	0.929	0.982	0.874	0.893	0.878	0.947	1.200	1.379	1.573	1.936	2.487	2.747	2.778	2.930	3.721	3.847	3.977	4.128	4.006	4.183	4.143	4.006	4.148	4.124	4.470	4.617	4.335	4.524	4.127	4.139	4.070	4.241	4.127	4.110	4.223	4.302	4.204	4.220	4.221	4.148
375.0	534.1	722.3	923.9	988.4	1038	1018	1002	988.4	1003	994.4	975.0	932.2	882.4	826.2	776.1	717.6	678.6	623.2	568.5	515.5	467.9	450.7	489.3	393.3	258.0	195.4	149.5	137.8	265.3	607.7	1743	3049	323.8	13.78	2.460	1.676	1.485	1.166	0.996	0.854	0.911	0.959	1.119	1.146	1.369	1.499	1.921	2.429	2.609	2.901	2.918	3.758	3.810	3.922	4.082	4.246	4.499	4.334	4.385	4.618	4.397	4.546	4.597	4.431	4.783	4.306	4.453	4.214	4.346	4.192	4.166	4.125	4.373	4.319	4.313	4.266	4.347
380.0	544.8	745.4	910.0	1001	1053	1063	1044	1023	1033	1019	1008	963.7	904.5	836.4	781.7	722.1	687.9	641.3	595.0	542.5	493.9	461.0	476.0	495.8	345.9	245.2	186.4	141.8	138.8	189.7	491.5	2291	2606	247.3	6.250	2.342	1.686	1.420	1.122	0.934	0.972	0.908	0.907	1.312	1.385	1.471	1.832	2.335	2.367	2.784	3.078	3.814	3.964	4.439	4.453	4.696	4.850	4.302	4.592	4.755	4.394	4.685	4.802	4.513	4.698	4.435	4.324	4.465	4.333	4.271	4.398	4.434	4.235	4.380	4.093	4.350	4.470
385.0	562.2	731.9	875.3	1006	1073	1072	1059	1029	1026	1045	1020	971.7	905.2	840.4	772.2	729.4	693.4	651.8	608.7	562.2	521.8	479.4	460.2	499.8	452.1	298.7	221.7	169.0	130.4	113.1	159.1	691.5	2517	2078	39.19	4.061	2.293	1.797	1.250	1.051	1.010	0.900	0.930	1.208	1.363	1.623	1.894	2.348	2.492	2.744	3.017	3.897	4.148	4.316	4.402	4.626	4.718	4.583	5.158	4.635	4.562	4.882	4.918	4.839	4.597	4.608	4.454	4.401	4.270	4.406	4.607	3.908	4.007	4.553	4.267	4.211	4.283
390.0	539.5	743.3	846.9	976.5	1059	1066	1060	1037	1035	1043	1014	970.1	903.7	835.9	773.2	724.6	688.0	659.8	622.7	584.4	543.7	504.1	474.0	466.1	478.2	413.4	284.6	207.6	159.6	122.5	104.3	202.4	734.9	1812	1861	166.1	12.02	2.481	1.583	1.288	1.163	1.012	1.110	1.196	1.384	1.568	1.979	2.363	2.508	2.758	2.904	3.931	3.934	4.221	4.256	4.719	4.619	4.653	5.042	4.553	4.551	4.508	4.704	4.693	4.646	4.517	4.448	4.408	4.120	4.212	4.301	4.144	4.196	4.413	4.158	4.319	4.443
395.0	549.6	709.3	844.2	954.6	1021	1059	1047	1042	1041	1034	993.1	955.5	901.4	832.4	766.3	717.5	679.1	657.4	628.2	593.7	560.7	531.3	500.8	472.5	451.8	458.3	389.2	264.2	198.4	158.1	119.6	112.3	207.1	451.1	1209	2180	272.0	12.12	2.479	1.752	1.358	1.218	1.210	1.235	1.436	1.689	1.980	2.253	2.624	2.571	2.725	3.877	3.926	4.100	4.379	4.413	4.776	4.581	4.495	4.734	4.634	4.425	4.895	4.782	4.564	4.457	4.335	4.366	4.268	4.194	4.275	4.038	4.012	4.097	4.131	4.186	4.194
400.0	545.5	699.5	853.0	944.1	1015	1042	1035	1030	1024	1005	1008	952.6	890.3	824.8	755.6	709.4	671.7	645.2	628.0	603.2	566.6	543.9	518.5	487.6	457.5	441.3	447.6	336.9	236.6	187.3	143.4	110.3	105.5	140.1	338.5	1551	1919	216.2	6.081	2.240	1.560	1.409	1.298	1.344	1.396	1.491	1.985	2.278	2.417	2.698	2.819	3.632	3.787	3.988	4.532	4.333	4.804	4.491	4.533	4.537	4.366	4.479	4.601	4.749	4.583	4.373	4.351	4.442	4.085	4.176	4.176	4.007	4.090	4.018	4.219	3.969	4.095
405.0	500.4	694.6	845.8	930.9	981.3	1027	1030	1022	1010	999.0	986.6	942.6	890.9	811.6	747.7	699.3	668.7	637.4	627.6	604.5	571.6	552.1	528.7	505.1	468.4	436.1	440.2	409.7	288.2	219.7	169.2	126.7	98.50	81.61	111.1	457.2	1711	1563	36.39	3.612	1.839	1.520	1.551	1.368	1.433	1.433	1.935	2.342	2.404	2.744	2.960	3.604	3.775	4.165	4.338	4.283	4.566	4.693	4.471	4.465	4.312	4.245	4.416	4.440	4.305	4.088	4.285	4.274	4.236	4.104	3.944	4.276	4.201	4.108	4.130	4.112	3.948
410.0	462.8	664.5	813.6	901.6	954.6	1003	1004	1008	998.5	981.0	958.3	914.7	862.1	798.9	732.1	679.8	649.3	630.5	609.2	592.1	567.7	552.1	530.7	511.3	480.3	442.9	413.4	411.3	370.6	271.2	201.5	154.4	114.8	85.62	72.03	135.7	489.3	1254	1379	155.8	11.23	2.095	1.745	1.539	1.568	1.692	1.912	2.353	2.483	2.580	2.835	3.613	3.655	4.069	4.043	4.085	4.537	4.525	4.280	4.509	4.391	4.293	4.457	4.481	4.459	4.216	4.036	3.936	4.139	3.942	3.960	3.994	4.034	3.872	3.947	3.795	3.829
415.0	498.5	650.5	784.7	883.4	931.6	964.4	973.4	975.0	962.9	954.3	931.2	887.6	831.3	765.4	699.5	658.5	623.3	602.5	584.2	571.4	552.6	535.7	527.4	501.1	477.9	445.4	406.5	381.8	381.2	342.9	240.3	175.7	136.3	99.93	74.70	71.73	137.7	307.0	796.5	1531	252.4	12.13	2.232	1.689	1.705	1.748	1.756	2.345	2.208	2.459	2.973	3.360	3.645	3.808	3.890	4.109	4.300	4.283	4.336	4.636	4.319	4.143	4.408	4.150	4.234	4.171	4.158	3.870	3.740	3.941	3.852	3.783	3.874	3.535	3.797	3.609	3.694
420.0	483.0	634.3	759.3	845.9	885.4	927.5	945.1	961.9	938.6	938.2	903.8	858.9	803.4	739.0	676.2	631.2	602.7	583.2	564.6	546.8	536.8	521.5	510.6	495.5	479.6	443.1	410.7	377.1	357.4	365.2	287.9	197.8	147.4	110.7	82.91	63.89	63.76	90.94	214.4	1001	1423	204.9	5.900	2.138	1.732	1.692	1.792	2.227	2.199	2.449	2.746	3.339	3.520	3.448	3.659	4.018	4.408	4.011	4.184	4.204	4.091	4.274	4.259	3.982	4.243	4.036	4.067	3.600	3.775	3.469	3.672	3.523	3.706	3.651	3.495	3.564	3.722
425.0	467.9	636.0	734.6	827.9	865.7	892.4	921.4	920.6	919.9	913.4	884.5	835.4	785.7	719.3	659.2	609.4	582.4	563.7	546.9	535.0	518.5	507.0	495.8	484.2	466.9	437.9	407.5	377.3	348.5	344.5	324.9	228.5	159.9	120.9	92.02	68.65	52.80	47.24	66.40	282.2	1141	1197	34.88	3.481	2.022	1.963	2.003	2.272	2.323	2.440	2.645	3.219	3.310	3.524	3.689	3.770	4.176	3.894	4.259	3.996	3.853	4.216	4.072	4.428	4.233	3.710	4.028	3.637	3.545	3.315	3.767	3.575	3.416	3.369	3.564	3.496	3.416
430.0	500.8	588.5	695.2	773.0	829.4	863.4	887.3	899.3	901.2	890.5	856.8	808.8	755.5	692.1	630.9	579.5	554.2	538.8	522.5	509.3	499.2	489.5	480.7	471.1	456.8	435.8	406.9	381.3	348.9	327.9	313.4	275.2	194.8	138.8	105.6	79.81	60.27	45.19	39.01	80.61	312.9	852.7	1036	362.8	11.92	2.403	2.121	2.190	2.353	2.352	2.359	3.143	3.242	3.709	3.522	3.680	4.108	3.909	4.068	3.847	3.981	4.048	4.041	3.867	3.877	3.556	3.835	3.488	3.393	3.527	3.458	3.223	3.235	3.457	3.229	3.227	3.451
435.0	759.2	566.5	675.9	744.5	790.6	823.6	867.3	876.0	873.7	858.7	833.7	795.4	729.2	667.4	600.5	553.6	524.7	511.8	496.5	485.7	477.0	472.5	465.2	456.5	441.3	424.8	403.6	378.6	349.3	324.2	295.3	276.0	240.9	164.4	120.0	91.88	71.08	52.74	40.24	40.87	86.20	205.1	530.7	1283	247.9	14.64	2.643	2.463	2.382	2.138	2.367	2.965	3.256	3.651	3.447	3.650	4.082	3.812	3.962	4.029	3.875	3.922	4.021	3.847	3.996	3.601	3.656	3.249	3.622	3.427	3.311	3.226	3.328	3.147	3.093	3.389	3.418
440.0	1050	646.5	647.5	722.8	756.3	810.3	832.4	861.2	858.1	841.5	813.3	763.7	709.3	641.4	583.1	540.1	504.2	490.3	475.5	463.7	455.1	449.5	446.5	440.9	427.6	412.9	397.5	372.4	346.7	323.4	289.1	258.5	248.3	195.2	132.8	99.78	79.26	59.33	44.34	35.14	38.68	61.00	140.0	744.5	1232	211.5	8.273	2.793	2.393	2.330	2.272	2.909	3.196	3.437	3.373	3.473	3.613	3.425	3.622	3.842	3.855	3.798	3.945	4.012	3.542	3.612	3.367	3.480	3.519	3.529	3.264	3.208	3.159	3.312	2.867	3.290	2.962
445.0	1031	868.9	620.5	683.8	733.9	772.8	806.5	834.4	832.7	831.0	789.0	744.3	678.6	620.4	566.1	518.7	488.5	469.6	455.6	439.9	435.6	430.8	422.7	420.2	411.6	395.9	385.7	362.8	344.1	321.3	287.0	247.8	230.3	213.4	153.1	108.8	85.15	65.66	48.93	37.91	31.34	30.97	44.63	202.7	889.1	1114	30.92	5.090	2.686	2.385	2.379	3.066	3.024	2.955	3.280	3.173	3.588	3.519	3.696	3.965	3.824	3.836	3.626	3.894	3.542	3.750	3.454	3.305	3.311	3.200	3.029	2.850	2.835	2.914	2.699	3.067	3.060
450.0	704.7	1313	730.7	643.8	685.7	728.4	768.6	784.0	791.4	784.9	745.8	708.3	639.8	586.1	528.6	478.7	451.6	433.4	419.7	411.0	403.6	398.8	393.1	392.5	384.2	375.8	361.2	344.9	330.6	309.3	277.9	240.9	210.1	198.1	173.9	127.1	92.41	71.44	55.84	43.66	34.98	27.73	26.42	58.01	236.8	703.8	917.7	350.0	11.84	2.879	2.467	2.898	2.958	2.969	3.168	3.005	3.342	3.327	3.419	3.687	3.550	3.675	3.687	3.547	3.372	3.415	3.084	3.100	3.184	3.086	2.945	2.755	2.643	2.874	2.812	2.836	2.864
455.0	420.0	1255	1193	612.0	621.1	675.6	702.9	729.5	745.0	733.8	711.4	658.3	596.8	535.6	488.3	439.7	410.6	398.6	381.2	376.6	365.4	363.4	360.4	361.9	351.4	345.6	334.7	324.0	310.7	292.8	265.9	234.6	201.2	176.2	163.6	148.5	106.3	77.92	61.12	48.73	40.11	30.61	25.61	28.00	64.25	167.8	385.9	1007	217.4	15.12	2.634	2.902	2.786	3.012	2.822	3.043	3.105	3.236	3.183	3.212	3.520	3.426	3.536	3.329	3.215	3.122	2.945	2.902	2.736	3.073	2.649	2.593	2.725	2.593	2.342	2.608	2.658
460.0	337.6	870.8	1676	708.7	593.0	636.4	665.4	690.3	691.9	686.8	668.7	624.4	565.7	507.5	457.8	413.5	381.8	368.1	354.3	350.3	337.6	334.6	334.7	335.2	330.1	321.0	312.7	301.5	293.6	277.8	255.5	225.8	196.4	168.8	149.5	147.8	120.8	82.78	64.96	51.91	42.56	33.93	26.99	23.18	27.55	48.31	98.95	506.8	1006	178.1	10.07	3.074	2.609	2.622	2.722	2.857	2.799	3.088	3.013	3.336	3.355	3.261	3.327	3.160	2.973	2.888	2.861	2.755	2.603	2.573	2.574	2.471	2.544	2.455	2.329	2.259	2.608
465.0	286.1	512.7	1704	932.0	562.1	593.9	614.6	651.2	656.7	657.5	629.8	593.5	537.1	476.9	427.0	387.8	363.3	346.7	332.4	324.0	316.6	314.3	310.9	310.8	306.9	299.3	292.2	282.2	279.2	267.3	242.2	215.2	190.9	162.9	140.0	132.2	127.3	92.14	69.37	55.07	44.39	36.56	29.44	24.17	20.96	22.48	31.71	133.1	658.6	834.6	145.3	5.823	2.938	2.754	2.629	2.774	2.737	2.979	3.132	3.135	3.132	3.088	3.078	2.943	2.837	2.703	2.838	2.498	2.468	2.377	2.467	2.520	2.486	2.036	2.207	2.233	2.563
470.0	288.7	363.2	1036	1649	649.3	526.5	565.1	596.7	604.1	593.6	583.4	540.0	488.4	439.6	388.5	352.3	330.2	309.4	302.2	292.9	286.4	283.2	279.7	277.1	273.6	270.4	262.4	258.0	252.9	243.8	224.7	201.6	176.6	154.6	131.5	116.6	111.8	101.3	76.28	57.17	46.42	38.16	32.41	26.51	21.44	18.35	17.91	38.56	170.4	468.0	644.1	274.6	12.66	3.053	2.577	2.697	2.548	2.726	2.840	2.967	3.011	2.813	2.794	2.668	2.621	2.647	2.569	2.523	2.258	2.313	2.207	2.150	2.108	1.961	2.199	2.075	2.101
475.0	277.8	326.7	525.4	1536	1273	498.5	512.3	531.7	548.6	542.9	525.6	497.7	441.5	396.3	352.9	318.7	295.9	277.9	268.9	260.1	254.2	248.1	251.8	245.2	242.2	240.7	235.7	230.6	227.1	221.8	208.0	186.5	162.6	143.2	123.7	109.6	97.43	93.45	85.50	64.15	47.94	40.71	32.80	27.88	23.17	19.58	15.85	18.45	46.29	111.4	242.2	635.0	214.4	16.98	2.847	2.493	2.680	2.582	2.371	2.761	2.675	2.515	2.497	2.499	2.556	2.573	2.213	2.268	2.385	2.127	1.942	2.091	2.048	1.890	1.828	1.932	1.937
480.0	259.9	315.2	398.8	987.3	1799	585.2	473.7	490.1	517.8	508.8	489.8	464.1	411.4	373.4	329.1	298.1	274.5	258.9	248.7	238.4	233.3	227.9	230.4	225.7	224.2	222.2	219.4	212.1	210.2	206.2	192.5	173.3	154.2	135.7	119.5	104.4	91.59	83.75	86.58	72.13	51.11	41.38	34.89	29.29	24.99	20.66	17.18	14.44	18.85	31.91	61.55	292.8	680.8	198.7	10.31	2.709	2.646	2.566	2.349	2.431	2.307	2.454	2.276	2.358	2.239	2.168	2.228	2.131	2.065	1.920	1.898	1.985	2.054	1.821	1.849	1.929	1.816
485.0	242.6	326.5	338.0	581.2	1822	988.5	454.9	459.0	489.7	486.5	472.8	438.2	387.6	347.1	312.4	278.2	256.4	242.3	228.8	222.5	218.3	213.8	212.6	208.3	212.3	205.2	204.4	199.9	196.7	193.5	180.6	166.7	149.5	130.6	116.0	100.9	88.48	78.79	77.93	75.52	56.92	43.82	36.38	30.38	26.43	22.28	18.49	14.87	13.25	14.80	20.14	76.60	406.2	652.1	149.1	5.526	2.742	2.468	2.475	2.391	2.139	2.235	2.218	2.238	2.282	2.126	2.001	2.069	1.877	1.846	1.754	1.723	1.828	1.712	1.624	1.823	1.550
490.0	199.9	321.2	328.8	386.7	1102	1665	584.3	431.9	447.5	446.8	434.6	405.7	362.3	321.3	287.1	256.7	235.2	222.1	211.5	205.0	198.6	193.9	191.7	191.0	190.7	188.2	185.7	181.5	182.5	177.3	167.2	155.2	138.1	122.1	108.7	96.07	84.97	75.21	68.58	68.16	64.34	48.81	37.15	32.02	27.51	23.35	19.79	16.58	13.42	11.82	11.37	22.72	103.9	331.5	541.8	258.5	14.41	2.674	2.333	2.191	2.184	2.001	1.976	2.045	2.150	1.896	1.759	1.819	1.654	1.798	1.737	1.571	1.653	1.625	1.563	1.554	1.593
495.0	161.5	277.3	344.8	315.7	529.3	1606	1142	413.0	398.8	413.0	394.7	367.8	325.5	297.7	263.6	232.3	214.4	202.0	193.9	185.1	176.7	174.7	171.1	172.0	170.4	169.4	165.7	164.7	162.4	160.0	153.5	140.8	126.4	111.9	101.0	89.57	80.86	70.97	64.26	59.46	59.51	55.36	40.08	32.67	27.98	23.11	20.64	17.31	14.92	11.76	10.26	11.33	28.65	78.85	201.1	567.7	238.9	18.86	2.558	2.198	2.062	2.048	1.920	1.909	1.902	1.822	1.631	1.732	1.691	1.611	1.588	1.478	1.471	1.578	1.539	1.406	1.526
500.0	152.2	228.6	348.6	307.4	356.8	1031	1767	496.9	366.6	382.0	366.7	339.5	305.8	271.8	241.3	220.4	197.8	182.8	176.5	170.4	162.1	158.8	158.7	156.0	154.5	155.4	152.4	151.1	150.5	146.1	141.0	129.7	117.0	106.1	94.55	83.32	75.45	66.94	60.21	54.50	52.23	54.18	45.60	34.17	28.32	23.29	20.82	17.67	15.37	12.35	10.20	9.050	11.81	22.55	50.41	247.2	614.9	211.7	11.71	2.190	2.026	2.068	1.744	1.793	1.698	1.827	1.508	1.708	1.455	1.418	1.328	1.380	1.475	1.308	1.455	1.272	1.187
505.0	136.4	198.7	340.2	311.7	289.2	537.6	1896	842.2	345.8	351.1	339.6	309.3	279.8	253.9	220.2	198.9	186.1	170.8	161.5	155.6	150.0	145.1	145.0	143.1	139.9	140.2	138.0	136.3	136.7	134.5	129.1	119.2	109.3	97.37	87.35	79.31	70.70	64.73	57.24	51.56	47.47	48.41	48.52	36.20	28.58	23.36	20.22	17.57	15.26	12.81	10.82	8.817	8.391	9.938	15.89	63.01	331.3	579.9	160.1	5.278	2.203	2.081	1.933	1.697	1.642	1.676	1.574	1.754	1.577	1.439	1.303	1.249	1.301	1.235	1.231	1.266	1.241
510.0	125.0	164.2	260.3	321.7	261.6	315.6	1143	1604	439.4	305.3	304.9	280.6	250.8	223.8	197.7	175.7	163.9	151.0	143.8	139.6	132.7	128.5	127.3	125.3	123.8	122.1	120.7	119.9	120.5	118.8	115.0	105.9	96.95	88.58	79.26	72.29	64.97	59.07	52.95	47.58	43.69	40.95	42.62	39.49	30.17	23.38	20.32	17.69	15.03	12.99	10.99	9.329	8.131	7.507	8.088	18.13	82.97	268.9	433.4	140.5	14.60	2.196	1.823	1.619	1.480	1.542	1.373	1.367	1.324	1.357	1.237	1.060	1.214	1.105	1.095	1.168	1.075
515.0	106.6	153.5	185.2	305.8	261.7	248.1	476.5	1700	974.9	282.4	269.2	248.1	221.7	198.9	175.4	156.4	143.5	134.5	126.4	121.5	115.6	112.4	110.4	108.2	108.4	106.7	106.0	103.6	105.4	101.6	101.0	90.41	85.19	77.58	70.66	64.07	58.04	53.67	47.77	44.11	39.52	35.70	34.74	36.03	33.95	25.53	20.12	16.89	14.68	12.78	11.06	10.19	8.132	6.948	6.731	7.932	22.46	63.51	144.5	397.8	238.0	18.70	1.840	1.580	1.361	1.431	1.267	1.158	1.178	1.330	1.153	0.983	1.045	1.074	0.981	0.991	0.913
520.0	89.58	129.0	166.0	257.4	265.6	218.9	276.7	1085	1653	319.0	243.6	223.5	202.6	181.5	158.3	141.7	129.4	119.3	111.1	110.4	102.5	103.0	98.93	99.09	97.75	95.76	95.25	93.71	92.27	92.04	90.07	84.36	77.29	69.89	63.90	58.82	53.34	48.17	44.79	40.21	36.41	32.79	30.49	31.55	33.10	27.48	20.15	17.14	14.35	12.22	11.05	10.08	8.517	7.278	6.411	6.019	9.143	17.41	35.95	166.9	451.4	198.4	11.32	1.538	1.466	1.279	1.177	1.141	1.158	1.021	1.066	0.920	1.092	0.831	0.974	0.905	0.835
525.0	84.35	119.6	154.3	199.5	273.8	208.1	213.8	521.1	1949	649.2	226.0	205.8	186.0	164.3	143.6	131.7	119.8	107.8	101.6	98.98	95.52	91.25	90.84	88.13	86.76	87.01	86.07	85.18	84.41	84.14	80.28	77.10	69.81	64.47	58.78	53.43	49.17	44.73	42.33	37.44	34.67	30.62	28.36	27.57	29.01	28.80	21.85	16.55	13.86	12.15	10.64	9.436	8.565	7.300	6.217	5.506	6.021	7.302	11.12	42.22	220.1	431.5	139.4	4.600	1.589	1.307	1.062	1.144	1.140	1.099	1.024	0.877	0.897	0.694	0.894	0.871	0.859
530.0	78.72	101.3	129.0	156.1	244.4	216.9	184.9	261.3	1204	1519	259.7	183.4	164.5	143.5	126.7	113.9	104.2	95.30	90.37	87.11	83.44	80.63	78.54	76.94	76.32	75.92	74.30	74.09	73.55	73.59	70.63	66.39	62.15	57.03	51.82	47.45	43.56	40.01	36.65	33.54	31.23	28.20	25.28	23.86	23.54	25.79	23.31	17.24	13.51	11.84	10.13	8.883	8.089	7.377	6.371	5.518	5.262	4.967	5.575	12.14	54.67	191.2	311.8	137.9	13.13	1.509	1.121	0.997	0.967	0.947	0.878	0.863	0.798	0.749	0.763	0.831	0.794
535.0	70.34	85.24	109.5	125.9	180.8	239.9	165.4	178.5	443.1	1763	798.0	161.4	142.8	124.5	110.1	97.31	89.50	83.28	79.21	76.12	72.60	68.37	66.72	65.48	64.90	64.10	64.12	63.45	63.01	63.26	61.19	56.64	53.06	48.85	45.25	41.54	38.11	35.19	32.54	30.23	26.33	24.67	23.37	21.53	19.71	20.30	21.81	19.07	13.60	11.08	9.455	8.325	7.234	6.781	6.536	5.941	4.873	4.422	4.417	5.347	14.38	44.59	99.39	286.8	208.3	16.69	1.182	0.979	0.891	0.852	0.709	0.669	0.611	0.686	0.673	0.685	0.663
540.0	67.88	79.15	96.72	107.0	137.9	227.8	172.6	147.9	217.1	1119	1531	196.8	130.5	114.0	99.57	87.42	80.10	74.55	69.64	66.89	64.17	61.34	58.97	57.87	57.26	56.58	56.80	55.15	55.36	56.72	54.78	50.93	46.44	42.71	39.30	37.19	34.31	31.60	29.25	27.14	23.72	23.06	21.27	19.27	17.31	17.00	17.79	19.14	14.41	10.66	8.925	7.624	6.970	6.641	6.096	6.100	4.990	4.284	3.706	3.527	5.387	11.95	24.27	114.5	313.9	166.5	8.281	1.068	0.803	0.905	0.747	0.563	0.640	0.598	0.606	0.620	0.706
545.0	55.77	73.09	83.83	94.31	110.8	185.3	186.2	129.9	152.2	486.1	1898	422.8	112.5	102.3	88.62	77.83	71.67	66.72	61.70	60.03	55.94	54.58	52.58	50.55	50.71	49.40	48.85	48.86	50.07	50.21	49.54	44.17	40.97	38.23	35.52	32.70	30.29	28.16	26.25	23.83	22.09	20.09	18.75	17.66	16.60	15.09	15.04	16.42	15.30	10.98	8.504	7.215	6.531	6.241	5.571	5.624	5.043	4.310	3.437	3.099	3.246	4.576	6.979	28.30	145.5	320.6	34.78	3.583	0.828	0.864	0.727	0.510	0.548	0.541	0.516	0.582	0.603
550.0	50.98	67.69	70.86	83.24	88.54	128.0	191.3	128.4	118.3	199.4	1144	1209	146.8	86.53	75.90	65.99	59.91	56.53	51.84	50.41	46.68	45.92	44.06	42.69	42.46	41.74	41.41	41.56	42.10	41.33	40.18	37.42	34.96	32.14	30.12	27.25	25.77	23.79	22.37	20.41	18.85	17.27	16.34	14.73	14.16	12.77	12.24	12.14	13.26	11.47	8.486	6.445	5.849	5.400	4.712	4.848	4.894	4.319	3.471	2.938	2.791	2.758	3.062	7.790	35.26	134.8	197.8	123.6	11.93	0.992	0.618	0.539	0.476	0.495	0.470	0.504	0.540
555.0	48.22	63.01	63.33	73.35	71.85	86.99	154.5	145.7	100.7	119.8	375.4	1566	485.9	73.05	62.67	53.80	50.07	45.37	42.09	41.34	38.86	37.41	35.81	34.65	33.93	33.05	34.30	33.37	33.45	33.66	32.55	30.18	28.67	26.19	24.53	21.97	21.20	19.67	17.94	16.72	15.30	14.62	13.49	12.26	11.83	10.69	10.10	9.374	9.907	10.87	8.831	6.218	5.291	4.767	4.445	4.484	4.008	3.815	3.647	2.912	2.310	2.090	2.254	3.036	9.006	31.15	61.85	208.0	153.6	13.80	0.675	0.601	0.514	0.545	0.448	0.462	0.360
560.0	51.01	56.15	55.01	57.99	59.89	67.43	110.4	164.3	88.20	89.34	151.5	1002	1089	91.29	51.16	46.03	41.75	39.81	36.37	33.61	32.85	31.33	30.96	29.94	29.72	28.06	27.87	28.17	28.38	28.27	27.45	24.93	24.17	22.20	21.36	18.79	18.09	16.63	15.53	14.56	13.32	12.28	12.06	10.76	9.986	9.707	8.579	7.813	7.706	8.972	8.262	6.647	4.907	4.397	3.952	3.634	3.340	3.389	3.362	2.774	2.260	1.830	1.768	1.932	2.943	7.904	15.03	79.04	209.2	107.3	5.730	0.679	0.520	0.545	0.445	0.380	0.302
565.0	49.86	54.04	49.58	51.70	53.90	58.83	77.55	163.1	97.78	74.76	91.70	408.5	1495	163.8	45.48	39.92	36.10	33.78	31.93	28.86	27.54	26.55	25.68	25.49	24.71	24.66	24.41	24.15	24.10	23.88	23.75	21.56	20.60	18.98	18.29	16.28	15.26	13.88	13.51	12.24	11.77	10.47	10.24	9.447	8.937	8.618	7.065	6.745	6.306	6.728	7.504	6.533	4.660	3.840	3.388	3.268	3.013	2.813	2.904	2.825	2.163	1.789	1.633	1.526	1.754	2.638	4.267	19.16	90.89	188.5	34.04	2.050	0.466	0.485	0.450	0.359	0.359
570.0	46.83	53.00	46.06	48.30	44.07	49.25	55.45	116.8	122.8	70.44	72.75	146.7	951.6	833.4	69.25	33.31	29.37	27.75	25.00	23.66	22.53	21.69	20.66	20.56	20.03	19.98	19.44	19.19	19.53	19.34	18.70	17.69	16.87	15.62	14.43	12.96	12.56	11.45	10.69	10.12	9.313	8.727	8.311	7.939	7.209	7.080	6.052	5.710	5.141	5.117	5.421	5.714	4.762	3.693	3.083	2.904	2.734	2.478	2.273	2.474	2.311	1.849	1.513	1.487	1.336	1.449	1.833	5.153	21.84	74.86	116.0	69.01	9.050	0.464	0.418	0.361	0.245
575.0	40.89	49.26	48.58	42.04	40.39	41.09	45.44	64.50	136.6	79.39	62.72	80.50	292.9	1168	288.9	28.27	24.12	22.66	20.25	19.30	18.58	18.12	16.74	16.65	16.13	15.11	15.18	15.50	15.22	15.09	14.82	14.20	13.06	12.39	11.56	9.978	9.632	9.213	8.763	8.187	7.533	6.984	6.957	6.493	6.014	5.460	5.226	4.737	4.408	3.943	4.040	4.263	4.633	4.029	2.719	2.479	2.193	1.960	1.855	1.953	2.075	2.057	1.502	1.212	1.135	1.035	1.173	1.916	5.621	17.41	34.39	101.3	86.00	7.936	0.374	0.379	0.218
580.0	42.96	42.38	45.40	36.56	35.15	37.94	39.22	48.28	118.1	102.6	59.52	63.02	105.0	786.6	724.2	37.98	20.75	18.16	17.83	16.23	15.51	15.05	14.61	14.43	13.51	12.87	12.98	13.44	12.65	13.05	12.67	12.15	10.77	10.80	9.742	8.369	8.182	8.030	7.230	6.864	6.278	6.035	5.826	5.217	5.089	4.728	4.204	3.989	3.966	3.629	3.134	3.162	3.800	4.063	2.966	2.234	2.033	1.970	1.727	1.852	1.735	1.871	1.643	1.357	0.979	1.036	1.048	1.209	1.899	4.465	8.374	36.71	109.4	35.74	3.960	0.434	0.395
585.0	41.24	38.60	38.60	34.45	35.18	31.08	31.70	41.10	84.24	120.0	60.27	56.33	59.07	310.8	1044	96.70	18.26	16.79	15.55	13.62	13.14	13.16	12.29	11.58	12.02	11.45	11.17	11.85	11.26	11.15	10.66	10.44	9.281	9.236	8.380	7.407	7.366	6.944	6.117	5.747	5.588	5.319	5.231	4.578	4.364	4.003	3.572	3.573	3.180	2.900	2.655	2.640	3.053	3.581	3.058	2.251	1.750	1.685	1.605	1.672	1.415	1.574	1.742	1.476	1.057	0.914	0.873	0.952	1.145	1.586	2.353	8.900	45.01	95.88	30.35	1.674	0.454
590.0	30.70	43.99	42.45	31.39	28.59	27.24	29.23	34.63	53.27	113.1	77.13	53.18	46.85	99.43	671.1	509.5	29.49	13.66	12.45	12.04	10.74	10.91	10.00	9.565	9.388	9.369	9.180	9.205	8.965	9.075	8.478	8.035	7.582	7.182	6.932	6.301	5.721	5.534	5.166	4.649	4.452	4.170	3.953	3.788	3.691	3.277	2.991	2.967	2.580	2.409	2.380	2.102	2.279	2.677	2.846	2.335	1.676	1.537	1.438	1.272	1.307	1.282	1.466	1.454	1.145	1.037	0.849	0.820	0.832	0.874	1.036	2.491	10.74	37.19	66.74	45.03	5.993
595.0	31.99	39.84	36.73	30.31	25.09	25.51	23.51	31.20	38.30	78.25	101.2	51.49	42.19	45.91	197.2	758.4	96.86	11.69	10.11	9.422	8.834	8.810	7.921	7.738	7.590	7.742	7.474	7.216	7.343	6.968	6.921	6.273	5.750	5.689	5.525	4.838	4.416	4.641	3.983	3.895	3.859	3.528	3.126	3.067	2.897	2.578	2.614	2.515	2.145	2.094	1.853	1.673	1.674	1.751	2.273	2.290	1.707	1.562	1.183	1.106	1.098	1.108	1.073	0.987	1.175	1.013	0.777	0.700	0.772	0.735	0.743	0.969	2.737	8.570	18.65	57.14	37.06
600.0	39.60	39.72	40.85	27.61	20.22	22.81	24.34	27.80	35.26	54.31	103.6	58.73	39.55	31.28	61.45	524.4	403.2	16.80	8.690	8.157	7.822	6.976	6.781	6.427	6.722	6.414	6.064	6.140	5.931	5.723	5.866	5.309	4.979	4.930	4.562	4.210	4.081	3.773	3.891	3.306	2.970	2.812	2.973	2.550	2.430	2.225	2.281	1.984	1.892	1.701	1.520	1.360	1.407	1.566	1.607	1.897	1.745	1.505	1.011	1.153	0.907	0.960	0.933	0.769	0.973	1.202	0.927	0.690	0.649	0.520	0.508	0.636	0.945	2.161	4.503	19.06	57.36
605.0	36.09	41.30	33.24	26.20	20.90	18.99	22.84	24.34	32.21	42.89	95.48	70.92	38.84	26.83	27.59	205.6	647.0	57.10	7.950	6.804	6.304	5.988	5.713	5.436	6.048	5.268	5.314	5.013	5.413	4.849	5.091	4.669	4.377	4.189	3.474	3.712	3.404	3.161	3.299	2.837	2.521	2.394	2.279	2.276	2.131	2.046	2.089	1.842	1.629	1.634	1.202	1.212	1.253	1.264	1.211	1.584	1.900	1.616	1.082	0.894	0.890	0.971	0.703	0.809	0.651	0.976	0.924	0.567	0.600	0.528	0.510	0.510	0.499	0.764	1.216	4.567	22.68
610.0	28.53	37.37	29.85	23.85	19.22	18.27	19.94	22.35	29.50	35.55	64.83	88.10	42.59	26.49	18.89	59.14	446.4	316.3	14.21	6.054	5.505	5.126	4.732	4.620	4.716	4.196	4.258	4.181	4.046	4.068	4.036	3.777	3.664	3.372	3.130	2.997	2.655	2.659	2.419	2.308	2.046	1.961	1.948	2.013	1.778	1.621	1.634	1.520	1.332	1.282	1.086	1.018	1.025	1.024	1.023	1.038	1.496	1.361	1.090	0.846	0.724	0.684	0.626	0.646	0.595	0.702	0.834	0.839	0.572	0.435	0.487	0.387	0.364	0.437	0.536	1.217	5.443
615.0	25.23	32.23	28.37	21.77	17.93	17.21	17.40	21.87	24.92	32.82	45.42	86.01	55.50	26.36	16.16	22.00	130.0	511.1	70.13	4.883	4.188	4.368	3.945	3.717	3.619	3.440	3.220	3.073	3.041	3.511	3.105	2.954	2.795	2.718	2.414	2.216	2.276	1.878	2.057	1.690	1.621	1.482	1.426	1.405	1.447	1.226	1.193	1.123	1.065	1.041	0.853	0.820	0.802	0.831	0.758	0.716	0.911	1.158	1.216	0.767	0.571	0.570	0.564	0.484	0.459	0.566	0.518	0.716	0.630	0.527	0.458	0.438	0.368	0.345	0.358	0.453	1.430
620.0	26.85	28.26	27.22	18.39	16.58	15.86	15.50	19.83	24.22	29.66	37.61	67.03	64.43	25.90	15.32	14.13	37.53	363.1	273.7	7.560	3.983	3.593	3.512	3.134	2.789	2.783	2.635	2.652	2.806	2.686	2.532	2.571	2.390	2.366	2.193	1.885	1.831	1.817	1.660	1.447	1.255	1.463	1.328	1.195	1.208	0.967	1.035	0.931	0.922	0.855	0.760	0.670	0.763	0.653	0.649	0.564	0.682	0.784	0.905	0.820	0.584	0.566	0.493	0.543	0.465	0.520	0.442	0.618	0.688	0.620	0.435	0.398	0.309	0.351	0.313	0.242	0.507
625.0	24.71	21.35	22.91	17.59	16.18	14.30	14.58	19.92	25.30	29.43	33.64	50.60	70.50	30.06	15.68	10.88	14.43	146.4	445.0	32.90	3.303	2.890	2.799	2.665	2.634	2.197	2.226	2.323	2.354	2.157	2.117	1.972	2.101	2.086	1.802	1.494	1.451	1.423	1.467	1.232	1.158	1.108	1.096	1.084	1.111	0.924	1.035	0.832	0.824	0.732	0.707	0.629	0.578	0.502	0.587	0.518	0.652	0.630	0.726	0.815	0.648	0.608	0.404	0.478	0.374	0.451	0.362	0.412	0.558	0.532	0.502	0.323	0.291	0.292	0.274	0.223	0.319
630.0	22.52	24.83	21.81	18.23	14.86	14.65	15.38	17.63	22.37	26.40	30.36	39.45	58.82	41.49	16.17	10.76	9.576	41.05	319.0	183.1	7.057	2.588	2.321	2.220	2.197	1.929	2.032	1.901	1.986	1.880	1.817	1.795	1.529	1.567	1.414	1.291	1.191	1.097	1.126	1.046	0.993	0.920	0.891	0.875	0.853	0.849	0.774	0.717	0.615	0.608	0.572	0.498	0.505	0.492	0.429	0.435	0.477	0.517	0.542	0.636	0.624	0.576	0.416	0.430	0.307	0.409	0.327	0.344	0.387	0.487	0.465	0.404	0.334	0.255	0.240	0.222	0.223
635.0	22.22	25.39	22.50	19.21	13.69	15.31	13.81	15.75	19.11	25.79	30.03	31.83	40.37	53.63	20.45	11.21	9.014	14.57	95.42	367.2	49.97	2.371	1.934	1.800	1.662	1.623	1.521	1.463	1.470	1.477	1.434	1.245	1.124	1.088	1.170	1.162	0.971	1.003	0.804	0.774	0.760	0.779	0.737	0.616	0.570	0.653	0.610	0.656	0.495	0.504	0.415	0.398	0.321	0.337	0.399	0.442	0.381	0.376	0.412	0.508	0.621	0.546	0.489	0.357	0.396	0.289	0.362	0.329	0.333	0.392	0.387	0.447	0.347	0.244	0.251	0.199	0.204
640.0	26.00	31.95	23.86	19.15	16.63	14.80	13.55	16.47	19.22	24.48	27.72	31.30	32.91	51.24	26.92	12.40	9.475	9.320	27.57	279.0	180.0	3.808	1.459	1.449	1.483	1.340	1.468	1.317	1.271	1.359	1.112	1.112	1.086	0.921	1.055	0.856	0.688	0.757	0.712	0.675	0.714	0.631	0.740	0.551	0.461	0.558	0.611	0.594	0.475	0.408	0.359	0.382	0.303	0.334	0.319	0.385	0.353	0.406	0.317	0.438	0.525	0.528	0.477	0.342	0.429	0.353	0.313	0.332	0.224	0.376	0.389	0.452	0.494	0.302	0.233	0.188	0.242
645.0	25.23	34.44	20.85	20.42	16.18	16.10	15.50	15.51	18.64	24.55	27.86	30.97	30.43	41.50	34.31	14.07	10.81	8.721	11.64	119.0	313.9	19.05	1.590	1.427	1.565	1.125	1.300	1.003	1.155	1.175	1.218	0.945	0.980	0.897	0.896	0.800	0.823	0.614	0.706	0.545	0.582	0.565	0.625	0.478	0.432	0.377	0.472	0.428	0.446	0.349	0.382	0.294	0.260	0.287	0.310	0.318	0.303	0.308	0.270	0.299	0.398	0.418	0.471	0.360	0.330	0.352	0.265	0.284	0.295	0.293	0.313	0.383	0.606	0.326	0.213	0.267	0.250
650.0	24.97	22.07	22.82	20.64	14.40	14.78	13.89	16.55	20.19	22.00	25.71	28.16	27.66	32.55	40.91	15.77	12.06	8.855	7.586	35.71	305.9	64.07	1.934	1.252	1.093	0.977	0.894	0.915	1.157	0.902	1.061	0.920	0.778	0.710	0.717	0.677	0.736	0.765	0.551	0.461	0.562	0.481	0.569	0.447	0.416	0.344	0.422	0.347	0.332	0.305	0.384	0.313	0.305	0.254	0.258	0.253	0.317	0.310	0.290	0.256	0.398	0.372	0.425	0.457	0.276	0.311	0.325	0.309	0.277	0.221	0.276	0.428	0.513	0.362	0.373	0.205	0.229
