Sample:	'1
File name:	c090101–§’Ú«≈.FD3
Run date:	'11:44:11, 09/03/2024
Operator:	horiz
Comment:	'

Instrument
Model:	F-2700 FL Spectrophotometer
Serial number:	23B8-004
ROM Version:	4J14000 07

Instrument parameters
Measurement type:	3-D scan
Data mode:	Fluorescence
EX  Start WL:	220.0 nm
EX  End WL:	600.0 nm
EX Sampling interval:	5.0 nm
EM  Start WL:	230.0 nm
EM  End WL:	650.0 nm
EM Sampling interval:	5.0 nm
Scan speed:	12000 nm/min
EX Slit:	5.0 nm
EM Slit:	5.0 nm
PMT Voltage:	700 V
Response:	Auto 
Corrected spectra:	Off
Contour interval:	50.000

Peak integration
Integration method:	Rectangular
Sensitivity:	1
Threshold:	1.000

Peaks
No.	ApexEX/EM(nm)	Height(Data)
1	230.0/615.0	87.40
2	230.0/635.0	94.99
3	235.0/350.0	6491
4	255.0/280.0	423.9
5	255.0/440.0	5335
6	275.0/615.0	247.7
7	275.0/640.0	204.5
8	280.0/340.0	4973
9	280.0/420.0	6385
10	340.0/420.0	5072
11	475.0/350.0	27.06
12	505.0/275.0	3.049
13	510.0/280.0	3.507
14	510.0/445.0	26.74
15	520.0/285.0	4.067
16	565.0/340.0	27.91
17	570.0/335.0	27.83
18	570.0/415.0	32.73
19	575.0/420.0	32.38

Wavelength data
No.	EX/EM(nm)	Height(Data)	

Data points
	220.0	225.0	230.0	235.0	240.0	245.0	250.0	255.0	260.0	265.0	270.0	275.0	280.0	285.0	290.0	295.0	300.0	305.0	310.0	315.0	320.0	325.0	330.0	335.0	340.0	345.0	350.0	355.0	360.0	365.0	370.0	375.0	380.0	385.0	390.0	395.0	400.0	405.0	410.0	415.0	420.0	425.0	430.0	435.0	440.0	445.0	450.0	455.0	460.0	465.0	470.0	475.0	480.0	485.0	490.0	495.0	500.0	505.0	510.0	515.0	520.0	525.0	530.0	535.0	540.0	545.0	550.0	555.0	560.0	565.0	570.0	575.0	580.0	585.0	590.0	595.0	600.0
230.0	49.79	615.0	1412	404.4	25.69	11.42	9.727	8.567	7.924	7.330	7.368	6.921	6.408	5.783	4.964	4.475	3.765	3.554	3.239	2.958	2.830	2.803	2.750	2.533	2.447	2.339	2.274	2.164	1.966	1.905	1.767	1.607	1.410	1.268	1.167	1.141	1.015	0.921	0.858	0.854	0.782	0.796	0.783	0.750	0.724	0.719	1.202	3.441	5.503	4.317	1.893	0.799	0.595	0.564	0.551	0.518	0.571	0.572	0.571	0.540	0.535	0.564	0.596	0.588	0.592	0.560	0.612	0.552	0.547	0.564	0.557	0.552	0.590	0.554	0.567	0.606	0.563
235.0	55.31	198.3	1230	2161	443.7	43.19	10.42	10.26	8.011	7.480	7.064	7.423	6.792	6.402	4.902	4.514	4.281	3.637	3.259	2.910	2.794	2.801	2.679	2.542	2.564	2.396	2.399	2.179	1.995	1.783	1.686	1.538	1.452	1.359	1.271	1.150	1.060	0.954	0.895	0.939	0.821	0.764	0.807	0.847	0.698	0.682	0.789	1.339	2.848	5.342	8.810	9.336	4.937	1.372	0.623	0.554	0.565	0.532	0.606	0.598	0.561	0.568	0.586	0.577	0.608	0.637	0.599	0.522	0.562	0.553	0.589	0.654	0.589	0.547	0.579	0.657	0.570
240.0	68.53	86.70	420.6	2295	2920	369.5	27.16	10.93	9.614	8.673	7.359	7.655	7.602	6.653	5.241	4.491	4.172	3.962	3.369	2.898	2.877	2.814	2.598	2.772	2.514	2.304	2.217	2.184	1.970	2.009	1.803	1.594	1.344	1.159	1.237	1.175	1.054	1.007	0.976	0.824	0.821	0.793	0.805	0.775	0.773	0.742	0.718	0.749	1.108	1.938	5.402	13.79	17.64	12.28	4.593	0.929	0.633	0.582	0.608	0.569	0.572	0.523	0.567	0.562	0.562	0.542	0.630	0.546	0.553	0.584	0.563	0.605	0.544	0.555	0.678	0.659	0.611
245.0	64.36	91.87	133.6	881.6	3703	2887	284.1	17.12	10.37	10.05	8.429	8.105	7.127	6.661	5.565	4.521	4.453	4.207	3.324	3.101	3.132	2.883	2.966	2.693	2.613	2.460	2.215	2.274	1.995	2.107	1.860	1.565	1.387	1.201	1.229	1.198	1.050	1.031	0.947	0.861	0.832	0.734	0.754	0.773	0.757	0.805	0.847	0.817	0.754	0.891	1.710	5.317	13.64	22.47	22.95	11.80	3.558	0.754	0.598	0.649	0.546	0.570	0.580	0.537	0.577	0.547	0.625	0.593	0.571	0.571	0.543	0.646	0.617	0.532	0.590	0.673	0.594
250.0	52.23	83.33	130.1	257.2	1266	3566	4172	1098	69.48	13.11	10.07	8.498	8.214	7.444	6.222	5.079	4.581	4.082	3.508	3.336	3.142	2.930	2.951	2.857	2.580	2.571	2.297	2.231	2.138	2.096	1.889	1.657	1.565	1.326	1.280	1.220	1.048	0.960	0.945	0.873	0.928	0.807	0.791	0.762	0.768	0.699	0.775	0.877	0.998	0.960	0.960	1.726	3.738	7.862	14.84	21.33	28.54	20.44	12.45	3.919	0.876	0.655	0.632	0.611	0.637	0.594	0.611	0.528	0.612	0.620	0.619	0.652	0.648	0.580	0.563	0.614	0.636
255.0	48.36	49.22	108.4	208.2	344.8	924.6	3836	7178	1546	80.48	14.26	11.54	9.588	8.621	6.672	5.156	4.949	4.147	3.754	3.790	3.116	3.075	2.833	2.919	2.918	2.718	2.383	2.479	2.194	2.223	1.857	1.679	1.480	1.324	1.152	1.180	1.075	0.960	0.903	0.902	0.938	0.756	0.844	0.780	0.702	0.741	0.634	0.773	0.827	1.086	1.226	1.427	1.542	2.261	3.950	5.604	11.42	25.05	46.61	30.36	19.63	4.697	0.849	0.633	0.623	0.605	0.695	0.641	0.633	0.653	0.635	0.543	0.578	0.607	0.568	0.614	0.609
260.0	48.89	40.98	56.08	180.2	234.2	251.9	1183	6349	7925	1238	44.70	14.18	11.17	9.561	7.741	6.232	6.020	4.392	4.312	3.860	3.306	3.362	3.150	3.312	2.897	2.734	2.606	2.413	2.444	2.226	2.069	1.668	1.501	1.342	1.154	1.059	1.041	0.999	0.991	0.844	0.870	0.830	0.938	0.773	0.722	0.869	0.724	0.795	0.697	0.726	0.923	1.617	1.764	1.491	1.542	1.839	3.207	7.116	20.37	40.52	60.21	30.01	15.64	2.341	0.707	0.714	0.725	0.655	0.658	0.653	0.651	0.601	0.640	0.585	0.605	0.599	0.653
265.0	53.41	38.14	38.62	95.06	261.2	186.0	305.8	2159	8753	8637	199.1	23.97	14.96	10.80	9.119	6.442	6.092	4.924	4.231	3.858	3.665	3.691	3.248	3.124	2.901	2.884	2.647	2.498	2.414	2.294	2.170	1.697	1.637	1.420	1.306	1.161	1.030	0.981	1.017	0.897	0.873	0.832	0.959	0.829	0.715	0.832	0.770	0.746	0.636	0.582	0.695	1.108	1.778	2.104	1.619	1.144	1.321	2.244	5.334	12.30	32.28	65.12	73.41	26.81	10.35	1.195	0.738	0.693	0.712	0.731	0.681	0.612	0.732	0.607	0.625	0.537	0.621
270.0	56.43	48.79	42.60	51.08	139.5	266.7	234.2	537.9	2744	8619	9999.9	2961	64.75	15.08	12.04	7.874	6.881	5.465	4.769	4.041	4.047	3.554	3.607	3.398	2.898	2.975	2.773	2.623	2.518	2.284	2.313	1.880	1.729	1.467	1.329	1.254	1.132	1.077	0.978	0.944	0.888	0.975	0.877	0.780	0.863	0.866	0.757	0.779	0.703	0.654	0.610	0.769	0.992	1.347	1.806	2.148	2.093	1.627	1.914	3.434	8.066	18.84	35.13	52.15	67.37	57.01	18.13	8.786	1.533	0.749	0.722	0.724	0.723	0.673	0.696	0.657	0.708
275.0	73.80	84.12	80.23	61.11	73.79	152.1	357.9	306.7	676.1	2120	7018	9999.9	1157	75.44	16.80	11.09	8.622	6.640	5.466	4.824	4.242	4.057	3.571	3.500	3.249	2.971	3.043	2.710	2.760	2.432	2.467	2.029	1.811	1.485	1.435	1.344	1.175	1.109	1.021	0.948	0.842	0.893	0.895	0.840	0.878	0.819	0.853	0.873	0.786	0.764	0.699	0.770	0.854	0.973	1.134	1.311	2.247	3.049	2.514	1.794	2.527	5.033	8.694	12.62	19.65	40.63	82.49	102.7	29.29	11.50	1.295	0.845	0.741	0.876	0.755	0.777	0.738
280.0	111.7	129.9	130.3	93.23	76.45	104.2	261.4	423.9	312.8	584.5	1987	9942	9999.9	927.6	49.64	13.89	10.31	8.200	6.254	5.423	4.990	4.140	3.956	3.557	3.304	3.104	2.987	2.848	2.668	2.402	2.191	1.967	1.926	1.602	1.443	1.469	1.301	1.261	1.180	0.947	0.929	0.902	0.840	0.898	0.968	1.016	0.932	1.075	1.002	0.909	0.824	0.910	0.865	0.962	0.937	1.103	1.463	2.284	3.507	3.230	2.200	2.116	2.918	4.003	5.560	10.79	27.75	68.88	111.5	116.6	25.24	6.318	0.929	0.812	0.869	0.838	0.788
285.0	151.6	189.9	200.5	142.6	102.8	108.1	167.0	411.4	456.6	308.8	617.5	3045	9999.9	8221	681.5	24.44	11.95	10.16	7.801	6.314	5.495	4.407	4.451	4.150	3.796	3.381	3.050	3.122	2.864	2.443	2.389	2.266	1.875	1.701	1.544	1.457	1.311	1.224	1.258	1.119	1.075	0.928	1.015	0.968	1.061	1.209	1.160	1.341	1.193	1.083	0.961	0.992	1.023	0.965	1.014	1.183	1.266	1.583	2.304	3.209	4.067	2.844	2.140	2.246	2.742	3.920	7.406	18.04	43.53	110.7	132.4	34.49	19.22	2.778	0.948	0.896	0.822
290.0	199.7	286.6	332.0	242.8	170.6	164.3	190.6	287.3	539.1	608.0	504.0	1002	3219	9999.9	9999.9	2504	46.21	14.19	9.972	7.664	6.427	5.182	5.051	4.666	4.008	3.816	3.553	3.332	3.081	2.737	2.600	2.421	1.967	1.776	1.824	1.487	1.319	1.365	1.308	1.162	1.104	1.058	1.024	1.125	1.177	1.377	1.430	1.633	1.585	1.512	1.375	1.376	1.376	1.242	1.299	1.409	1.520	1.565	1.956	2.117	3.042	3.902	4.176	4.086	3.221	3.070	3.910	6.192	11.91	28.97	47.59	61.52	93.32	75.00	65.96	13.89	4.292
295.0	257.3	399.3	467.3	378.2	282.0	267.4	296.7	343.6	508.5	846.6	996.9	848.2	1228	2636	7268	9999.9	3661	58.21	15.21	10.25	7.959	6.348	6.062	4.855	4.386	3.668	3.834	3.471	3.106	2.932	2.853	2.508	2.130	2.022	1.766	1.631	1.501	1.438	1.335	1.230	1.171	1.177	1.060	1.139	1.220	1.498	1.675	2.171	2.045	2.030	1.985	1.834	1.770	1.807	1.761	1.891	2.194	2.121	2.687	2.542	2.983	3.419	4.163	5.716	6.662	5.777	4.930	4.835	6.220	9.849	13.33	16.35	24.31	35.72	94.42	140.8	107.3
300.0	325.2	523.2	639.7	555.7	450.8	435.3	409.5	673.6	861.7	1193	1628	1394	1263	1354	2387	9851	9999.9	603.9	44.35	14.60	10.47	7.266	7.127	5.589	4.992	4.474	4.054	3.459	3.475	2.885	3.115	2.631	2.102	1.942	1.831	1.872	1.597	1.464	1.427	1.275	1.195	1.198	1.321	1.297	1.476	1.871	1.981	2.533	2.587	2.595	2.418	2.644	2.473	2.459	2.607	2.819	3.265	3.485	3.957	4.327	4.665	5.300	5.964	7.149	8.479	10.26	10.05	8.681	8.229	8.661	8.644	8.571	9.992	12.13	28.62	68.51	136.0
305.0	427.3	693.3	883.1	742.7	676.3	733.4	939.0	1261	1635	1918	2653	3046	2487	1933	1834	3590	9999.9	9999.9	472.6	27.50	13.10	9.547	8.272	6.760	5.425	5.232	4.515	3.762	3.607	3.291	3.281	2.802	2.373	2.150	1.883	1.925	1.653	1.600	1.522	1.474	1.460	1.316	1.301	1.446	1.783	2.091	2.403	3.134	3.438	3.448	3.227	3.568	3.642	3.558	3.804	4.205	5.018	5.845	6.492	7.337	7.919	9.213	10.55	12.36	13.53	14.75	16.56	17.72	15.54	13.83	12.58	11.53	11.30	11.62	13.97	22.05	46.40
310.0	522.6	924.5	1195	1073	952.1	1060	1363	1743	2159	2722	3295	3788	3632	2773	2238	2101	4027	9999.9	9999.9	1949	36.89	13.69	10.62	8.193	6.509	6.007	5.021	4.571	4.079	3.660	3.558	2.962	2.574	2.613	2.155	2.028	1.739	1.673	1.644	1.638	1.484	1.487	1.652	1.778	1.982	2.491	2.879	3.904	4.461	4.404	4.232	4.712	4.690	4.651	5.062	5.576	6.708	7.863	8.853	9.649	11.03	12.16	13.91	16.11	17.04	18.07	19.05	20.77	21.72	20.76	18.31	16.01	15.02	14.37	13.45	13.64	18.14
315.0	634.9	1187	1530	1373	1231	1321	1659	2051	2452	3081	3705	4153	4146	3625	2769	2053	2295	3082	6825	9999.9	2959	41.59	15.82	10.29	8.062	6.883	5.712	4.944	4.695	4.080	3.965	3.305	2.691	2.522	2.192	2.108	1.880	1.854	1.685	1.736	1.560	1.677	1.616	1.995	2.188	2.966	3.929	4.907	5.529	5.296	5.345	5.778	5.604	5.753	6.578	6.668	8.320	9.390	10.44	11.35	12.29	13.86	15.96	17.48	18.98	20.45	21.53	22.39	23.72	22.86	22.37	21.82	19.05	17.90	15.43	13.50	13.42
320.0	789.4	1535	1955	1696	1449	1508	1822	2237	2646	3298	3974	4454	4439	4013	3333	2307	2077	1601	1983	9420	9999.9	457.0	32.52	13.90	10.02	8.312	6.580	5.512	5.144	4.440	4.255	3.584	3.025	2.612	2.324	2.326	1.876	1.885	1.832	1.605	1.693	1.733	1.891	2.059	2.610	3.580	4.741	6.354	6.825	6.417	6.625	7.310	6.923	6.657	7.208	7.499	9.129	10.14	11.38	12.01	13.52	14.76	16.89	18.17	20.25	21.47	23.11	24.48	25.99	24.49	23.61	24.24	23.02	21.43	17.62	14.96	13.93
325.0	991.3	2050	2720	2347	1786	1668	1941	2332	2707	3353	4040	4584	4585	4163	3675	2616	2102	1350	835.1	2811	9999.9	9999.9	372.4	25.06	13.20	9.581	7.776	5.952	5.538	5.016	4.566	3.621	3.073	2.770	2.499	2.339	2.027	2.048	1.902	1.868	1.779	1.961	2.089	2.366	3.178	4.313	5.883	8.343	9.201	9.448	8.873	9.678	8.739	8.059	8.079	8.138	9.683	10.47	11.90	13.09	13.85	14.60	17.18	18.42	20.45	21.75	23.44	24.53	26.07	25.35	24.83	23.97	23.86	23.39	20.45	16.83	15.25
330.0	1289	2757	4031	3871	2868	2156	2135	2431	2763	3404	4101	4688	4771	4376	3824	3034	2378	1497	817.2	1036	3164	9776	9999.9	1613	35.35	14.89	9.794	7.695	6.250	5.499	5.123	3.953	3.378	3.034	2.914	2.394	2.099	2.132	1.965	1.887	1.979	2.041	2.219	2.594	3.633	5.242	7.517	10.70	13.29	13.98	13.91	15.32	13.40	12.10	10.55	9.870	10.76	11.21	12.44	13.37	14.03	15.53	17.38	19.31	21.13	22.27	23.65	25.19	26.20	26.75	26.21	25.70	24.53	24.01	21.93	20.27	18.62
335.0	1520	3311	5148	5487	4372	2972	2462	2607	2911	3481	4177	4807	4957	4661	4108	3309	2832	1925	1160	981.7	1316	2724	7624	9999.9	2518	41.39	15.60	9.908	8.036	6.492	5.760	4.533	3.721	3.298	3.057	2.666	2.212	2.315	2.154	2.074	2.122	2.250	2.324	2.899	3.975	6.082	8.937	13.16	16.57	18.05	19.37	22.43	20.29	17.96	14.82	12.49	12.49	12.46	13.79	13.97	14.96	16.34	17.96	19.67	21.10	22.97	24.09	25.51	27.30	27.72	27.83	27.10	25.96	25.78	23.22	21.65	21.18
340.0	1620	3548	5682	6205	4983	3340	2627	2696	2963	3485	4158	4767	4973	4752	4179	3410	2904	2213	1419	1126	1046	1226	2470	9872	9999.9	395.0	31.43	13.29	9.396	7.272	6.349	5.172	3.872	3.640	3.178	2.848	2.539	2.461	2.144	2.189	2.241	2.258	2.465	2.999	4.296	6.531	9.414	14.04	17.92	19.86	21.56	25.30	23.45	20.71	17.00	13.86	13.27	13.15	14.35	14.61	15.42	16.35	17.48	19.84	20.79	22.53	23.75	25.90	27.07	27.91	27.67	27.62	26.61	26.20	23.80	22.20	20.65
345.0	1614	3597	5849	6412	5226	3516	2746	2757	2997	3473	4059	4591	4811	4629	4130	3413	2859	2313	1679	1282	1094	1011	1184	3248	9999.9	9999.9	327.0	21.56	12.15	8.545	7.113	5.787	4.266	3.554	3.181	2.714	2.592	2.404	2.201	2.077	2.181	2.246	2.500	3.164	4.226	6.431	9.144	14.32	18.82	20.34	22.48	26.53	24.04	21.81	17.78	14.85	14.19	13.81	14.19	14.44	15.16	16.57	17.43	19.22	20.44	21.99	23.16	24.56	26.01	26.44	26.99	26.38	26.04	26.21	23.70	22.29	21.42
350.0	1529	3410	5686	6491	5540	3875	3098	3066	3167	3520	3988	4419	4593	4480	4058	3441	2924	2371	1941	1597	1311	1144	1060	1317	3349	9999.9	9999.9	1395	29.45	12.38	9.048	6.482	5.024	3.966	3.339	3.025	2.688	2.537	2.245	2.099	2.238	2.244	2.486	2.994	4.098	6.121	8.684	13.58	17.82	20.12	22.37	27.06	25.81	23.54	19.54	16.33	15.80	16.01	16.25	16.41	16.24	17.03	18.17	19.35	20.28	21.37	22.38	23.46	24.99	25.53	25.88	25.84	25.54	25.95	23.80	22.71	21.62
355.0	1421	3196	5305	6245	5615	4081	3322	3277	3298	3499	3908	4209	4346	4283	3935	3413	2986	2481	2076	1904	1613	1350	1185	1020	1228	2598	6996	9999.9	2171	33.44	14.27	8.414	6.156	4.532	3.832	3.268	2.787	2.528	2.283	2.138	2.278	2.367	2.451	2.972	3.978	5.627	8.171	12.64	16.31	18.44	20.89	26.12	25.66	23.84	20.23	17.17	16.53	16.83	17.55	17.12	16.98	17.35	18.40	18.79	19.87	20.39	21.55	22.34	23.47	24.06	23.90	24.43	24.84	24.78	23.41	22.49	21.82
360.0	1296	2921	4933	5925	5347	4039	3342	3270	3312	3466	3771	4022	4134	4074	3764	3356	2986	2555	2192	2021	1855	1557	1325	1064	875.9	956.9	2028	9472	9999.9	360.5	27.43	11.40	7.631	5.305	4.182	3.457	2.859	2.760	2.363	2.220	2.370	2.351	2.423	2.809	3.898	5.396	7.539	11.63	15.37	17.56	19.97	24.84	24.31	22.83	19.38	17.29	16.42	16.39	16.87	16.93	16.94	17.31	18.36	18.87	19.39	19.44	20.86	21.34	21.92	22.52	23.30	22.62	24.14	23.81	22.18	22.00	21.98
365.0	1240	2648	4533	5592	5122	4033	3389	3345	3354	3477	3688	3857	3959	3885	3630	3301	2998	2633	2326	2151	2028	1825	1519	1214	944.3	730.5	767.4	3001	9999.9	9718	294.3	20.03	10.86	6.871	4.819	3.854	3.107	2.771	2.658	2.372	2.444	2.512	2.378	2.872	3.817	5.106	7.325	10.40	14.31	16.63	18.79	23.06	23.49	21.96	19.23	16.88	17.10	16.44	17.55	17.29	16.86	17.66	17.85	19.06	19.35	19.43	19.96	20.68	20.84	21.67	22.46	22.39	22.82	22.74	21.99	21.68	21.61
370.0	1133	2445	4262	5269	5043	4128	3606	3560	3541	3608	3719	3782	3811	3734	3531	3253	3056	2763	2532	2391	2255	2138	1909	1545	1213	911.2	690.0	1034	3328	9779	8367	1245	28.35	12.50	7.311	4.814	3.967	3.152	2.825	2.635	2.556	2.351	2.476	2.713	3.608	4.923	6.595	10.19	13.09	15.13	17.44	21.76	22.45	21.72	19.50	17.66	17.78	17.58	18.35	18.42	18.56	18.65	18.64	19.54	19.81	19.66	19.46	19.80	20.79	21.10	21.61	21.46	21.69	22.10	21.54	21.62	21.61
375.0	1057	2238	3872	4901	4874	4105	3662	3619	3563	3623	3697	3702	3709	3614	3420	3206	3049	2852	2702	2614	2513	2386	2269	1961	1579	1247	945.5	827.5	1172	2580	7504	9999.9	1830	33.23	13.08	7.274	5.081	3.779	3.181	2.951	2.623	2.547	2.565	2.835	3.438	4.626	6.311	9.561	11.99	14.03	15.83	20.54	21.53	20.83	19.41	18.06	17.86	18.68	18.69	18.70	18.89	19.05	19.20	19.40	19.66	19.32	19.17	19.67	20.28	20.83	20.62	20.73	20.95	21.41	20.92	21.18	21.71
380.0	995.7	2075	3580	4632	4655	4057	3668	3597	3556	3596	3654	3661	3650	3562	3368	3167	3010	2883	2786	2751	2678	2566	2461	2268	1909	1552	1235	999.7	882.1	1021	2318	9565	9999.9	305.6	25.61	11.36	6.873	4.794	3.636	3.078	2.856	2.658	2.555	2.909	3.387	4.474	5.979	8.672	11.43	13.19	15.18	19.56	20.32	20.53	19.11	17.48	18.16	18.13	18.19	18.29	18.15	18.91	18.87	19.33	20.01	19.24	18.99	19.68	19.73	19.98	20.48	20.48	21.35	21.04	20.51	21.21	21.21
385.0	955.8	2004	3425	4411	4510	4051	3707	3633	3582	3601	3643	3655	3653	3577	3388	3163	3020	2915	2880	2865	2841	2778	2674	2536	2271	1899	1573	1295	1046	867.2	975.9	3178	9999.9	7576	233.9	20.24	10.72	6.369	4.475	3.482	2.828	2.680	2.697	2.733	3.455	4.477	5.654	8.235	10.90	12.26	14.16	18.35	19.73	19.77	18.66	17.65	18.74	18.16	18.30	18.46	18.23	18.62	19.23	19.27	19.48	19.17	19.40	19.31	19.77	20.34	20.36	20.99	21.32	20.54	20.76	21.50	21.10
390.0	969.9	1944	3299	4276	4437	4132	3874	3816	3753	3817	3838	3837	3879	3825	3617	3299	3108	3020	3024	3086	3118	3121	3091	2983	2808	2517	2160	1847	1533	1215	966.3	1199	3259	7750	5956	974.6	26.47	12.88	7.024	4.562	3.495	3.174	3.023	3.177	3.579	4.644	5.840	8.289	10.36	11.82	13.96	18.04	19.37	19.62	18.94	18.23	19.07	18.72	19.41	19.22	19.64	19.64	19.72	20.41	20.50	20.22	19.99	19.95	20.75	21.40	21.61	22.12	21.98	21.99	21.61	21.76	21.33
395.0	963.5	1950	3209	4143	4438	4272	4082	4069	4027	4103	4201	4297	4358	4323	4030	3581	3254	3148	3203	3327	3443	3545	3598	3559	3429	3234	2919	2553	2177	1759	1339	1034	1198	2103	5407	8839	1462	31.11	13.13	7.427	4.783	3.813	3.519	3.689	3.823	4.971	5.791	8.330	10.54	11.68	13.68	17.60	19.03	19.12	18.85	19.19	19.88	19.61	20.57	20.74	20.80	20.61	21.27	21.95	22.60	22.00	21.65	22.38	22.98	23.18	24.12	23.95	24.03	24.44	22.90	23.14	22.38
400.0	987.7	1922	3150	4088	4430	4369	4241	4265	4260	4411	4607	4784	4889	4846	4464	3851	3402	3257	3338	3502	3699	3872	3994	4010	3937	3748	3508	3128	2701	2235	1713	1218	903.4	872.0	1720	7337	7490	262.0	24.70	11.03	6.358	4.868	3.800	3.927	4.003	4.825	5.856	8.307	10.21	12.13	13.67	17.78	18.96	19.45	19.07	19.71	20.71	20.25	21.21	21.72	21.65	22.52	22.58	23.38	23.76	24.14	24.02	24.56	25.42	25.09	26.69	26.02	25.93	26.72	24.54	24.16	22.61
405.0	1044	1935	3097	4045	4440	4462	4450	4486	4525	4740	5049	5308	5461	5417	4934	4127	3550	3373	3454	3664	3918	4155	4349	4425	4391	4210	3989	3662	3190	2674	2085	1484	1013	731.4	741.1	2423	7930	5583	201.0	17.26	8.949	6.242	4.659	4.318	4.515	4.855	6.279	8.457	10.24	11.79	13.41	17.60	19.29	19.48	19.20	19.74	21.09	21.30	21.89	22.59	22.90	24.45	24.19	25.13	25.77	26.11	25.92	26.80	27.72	27.69	28.64	28.38	27.95	28.21	26.31	25.10	23.42
410.0	1043	1939	3071	3968	4435	4584	4650	4745	4844	5094	5501	5860	6066	5970	5394	4419	3683	3463	3550	3798	4096	4413	4668	4820	4826	4687	4456	4158	3735	3160	2495	1827	1268	884.6	668.0	876.2	2513	5771	4510	888.9	20.64	9.138	6.177	5.097	5.012	5.599	6.343	8.645	10.48	11.59	13.19	17.49	18.98	19.67	20.01	20.40	21.54	22.09	22.71	23.38	24.28	25.24	26.25	27.07	28.00	28.28	28.67	28.93	29.71	30.29	30.99	30.69	30.55	29.63	28.12	26.09	24.40
415.0	1048	1850	3007	3907	4386	4652	4794	4905	5010	5306	5774	6132	6344	6262	5631	4566	3717	3463	3555	3800	4130	4486	4799	5008	5055	4955	4727	4440	4064	3521	2807	2086	1492	1056	764.1	622.4	827.0	1520	3897	6570	262.6	22.59	9.087	6.551	5.735	5.998	6.671	8.784	10.42	11.51	13.14	17.13	18.84	19.73	20.18	20.72	22.42	23.19	23.45	24.17	25.56	25.68	27.09	28.11	28.85	29.31	29.98	30.21	30.81	31.68	32.73	31.92	31.42	31.09	28.77	26.35	24.19
420.0	1039	1852	2942	3810	4347	4655	4853	5007	5051	5346	5780	6182	6385	6298	5646	4535	3679	3404	3492	3736	4078	4445	4776	4984	5072	4998	4804	4527	4166	3670	2961	2218	1607	1163	846.6	613.1	495.4	526.7	1156	5227	5678	243.5	15.99	8.546	6.492	6.332	6.870	8.753	9.937	11.33	13.02	17.21	18.75	18.82	20.30	20.30	23.01	23.42	24.34	24.49	25.68	25.86	27.52	28.20	28.84	29.35	30.06	30.74	31.33	31.92	31.59	32.38	30.88	30.72	28.69	26.25	24.86
425.0	1024	1780	2861	3720	4305	4672	4894	5060	5055	5315	5718	6143	6354	6244	5587	4471	3615	3328	3420	3652	3966	4328	4665	4891	5003	4954	4785	4510	4164	3691	3055	2300	1686	1243	916.5	661.5	467.3	339.9	393.7	1620	5820	4939	186.6	12.29	8.048	7.150	7.226	8.975	10.11	11.19	12.48	17.29	18.45	19.43	20.36	20.89	22.90	23.14	24.57	24.65	25.86	26.14	28.00	27.83	28.85	29.12	29.60	30.25	30.49	31.61	31.76	31.06	31.19	29.58	28.14	25.37	24.07
430.0	1009	1723	2742	3640	4278	4724	5025	5155	5099	5260	5643	6050	6238	6112	5480	4388	3535	3244	3308	3506	3802	4145	4471	4697	4820	4779	4639	4409	4082	3633	3052	2379	1774	1333	1007	741.5	524.4	355.1	268.7	479.1	1724	4560	3676	841.5	19.06	9.488	8.030	9.259	10.18	10.87	12.57	16.90	18.16	19.55	20.47	21.59	23.53	24.04	25.12	25.25	25.98	25.92	27.16	27.45	28.22	29.24	29.58	30.03	30.23	30.55	30.82	30.35	30.55	29.59	27.64	24.85	23.12
435.0	1054	1708	2655	3617	4278	4842	5192	5281	5164	5176	5510	5868	6035	5898	5289	4259	3436	3150	3193	3350	3604	3895	4202	4435	4552	4534	4416	4222	3942	3536	2983	2393	1851	1409	1087	827.3	599.2	417.4	290.5	262.4	488.9	1125	2796	5469	1294	22.64	10.52	10.14	10.49	11.09	12.19	16.14	18.20	19.58	20.94	21.96	23.87	25.03	25.72	25.91	26.34	26.38	26.23	27.03	27.68	28.20	28.24	29.36	29.48	29.81	29.69	29.17	29.23	28.98	26.25	24.53	22.40
440.0	1148	1638	2606	3550	4271	4849	5309	5335	5149	5065	5319	5650	5808	5663	5070	4094	3334	3055	3079	3212	3406	3669	3957	4179	4295	4295	4187	4022	3779	3415	2902	2350	1870	1458	1135	874.1	650.4	463.6	322.5	241.1	234.3	337.7	788.6	4010	5204	234.3	18.54	11.64	11.27	11.51	12.55	16.17	18.31	19.54	20.93	21.95	24.19	25.52	25.51	25.84	26.12	26.79	26.12	26.46	26.36	27.44	27.42	28.19	28.44	28.36	28.75	28.06	28.10	27.38	25.36	22.87	21.68
445.0	1207	1689	2497	3423	4269	4801	5302	5320	5072	4898	5106	5361	5495	5350	4797	3912	3203	2925	2936	3044	3196	3431	3679	3898	4008	4016	3928	3788	3579	3254	2796	2284	1836	1483	1165	904.9	686.6	504.0	359.9	259.1	199.8	177.3	247.2	1180	4654	4553	185.8	16.09	12.56	11.82	12.52	16.17	18.18	19.54	20.45	22.27	24.16	26.25	26.74	26.11	25.55	25.59	25.19	25.69	25.40	25.66	26.17	26.87	26.94	27.12	27.25	26.91	26.34	25.48	23.86	21.85	21.65
450.0	1016	1876	2432	3282	4065	4745	5202	5208	4838	4577	4657	4874	4977	4841	4351	3584	2960	2716	2717	2777	2877	3066	3288	3471	3584	3590	3531	3417	3245	2987	2597	2150	1750	1440	1177	929.9	716.8	539.4	403.4	296.7	219.9	165.6	144.0	326.4	1309	3675	4312	834.9	20.71	13.17	12.89	16.41	17.65	19.34	20.16	21.80	24.29	25.43	25.79	25.74	25.41	24.66	24.11	23.91	23.56	23.73	24.08	24.75	24.32	24.92	25.00	24.43	24.12	23.35	21.89	20.49	19.92
455.0	775.1	1905	2558	3051	3842	4519	4967	4967	4534	4180	4198	4377	4405	4292	3863	3226	2687	2476	2463	2485	2539	2669	2859	3016	3109	3131	3087	3008	2877	2668	2354	1980	1636	1356	1143	937.8	732.2	562.2	434.0	328.8	247.1	185.0	139.2	151.4	350.3	880.0	2264	4810	1279	22.77	14.20	16.01	17.03	18.22	19.86	20.87	23.62	24.55	25.25	24.78	24.07	23.33	22.44	21.92	21.99	21.46	21.86	21.59	21.85	22.41	22.32	21.55	21.50	20.57	19.96	18.30	18.02
460.0	693.0	1646	2888	2927	3608	4280	4761	4738	4240	3900	3839	3980	4000	3878	3492	2932	2485	2276	2259	2258	2282	2385	2540	2687	2772	2796	2760	2694	2597	2424	2170	1835	1538	1289	1089	918.0	737.4	570.2	450.0	348.9	263.7	200.6	150.3	123.6	145.0	245.5	586.0	2887	4538	972.7	20.93	16.75	17.18	17.62	18.59	20.07	22.81	23.03	23.59	23.64	23.14	21.69	20.86	20.32	20.14	19.97	19.20	20.24	20.32	19.90	19.92	19.63	19.98	19.06	18.49	17.05	17.08
465.0	631.2	1319	3062	3098	3382	4040	4507	4460	3969	3612	3539	3628	3615	3509	3160	2672	2270	2089	2070	2053	2065	2137	2266	2399	2478	2499	2470	2416	2342	2197	1986	1697	1441	1214	1033	879.6	728.0	575.3	453.2	356.9	277.5	213.3	161.3	125.0	108.3	111.9	176.0	776.5	3334	4140	175.1	21.91	17.69	17.36	17.87	19.48	21.05	22.75	22.19	22.48	21.60	20.09	20.00	18.74	18.38	17.96	17.86	18.16	19.01	18.47	18.59	18.21	17.84	17.42	16.85	15.93	15.80
470.0	563.3	1082	2399	3744	3270	3673	4075	4022	3552	3180	3091	3161	3165	3029	2738	2332	1993	1840	1810	1788	1776	1822	1926	2038	2098	2115	2104	2064	2013	1907	1730	1507	1296	1103	948.9	811.0	684.8	563.0	448.7	357.8	285.0	224.9	173.9	136.6	109.3	91.82	92.28	215.6	879.6	2582	3131	902.0	24.85	17.85	17.55	18.06	19.41	21.02	20.83	20.42	19.21	18.31	17.72	16.66	16.66	15.99	15.89	15.95	16.05	16.23	15.89	15.74	15.75	15.35	14.72	14.10	13.44
475.0	519.0	915.8	1686	3665	3893	3262	3618	3546	3137	2781	2679	2719	2687	2570	2336	1996	1716	1593	1557	1529	1500	1532	1611	1694	1749	1766	1756	1730	1697	1621	1485	1305	1144	990.3	857.6	738.4	624.3	529.0	443.1	352.8	286.3	226.4	182.6	145.6	117.4	96.53	81.59	97.07	234.6	608.8	1239	3198	1359	29.26	17.91	17.26	18.95	18.77	18.61	18.14	17.03	15.99	15.53	14.81	14.34	14.23	13.85	13.65	13.46	14.17	13.95	13.41	13.59	12.91	12.92	12.06	11.74
480.0	454.8	827.4	1401	2857	4688	3142	3270	3225	2864	2502	2391	2426	2391	2291	2064	1788	1545	1433	1399	1364	1329	1353	1414	1484	1533	1554	1542	1524	1491	1434	1328	1180	1039	906.9	788.2	687.0	583.6	498.7	427.4	349.3	284.1	229.1	186.9	151.2	124.2	102.6	83.73	74.92	95.57	170.6	313.5	1496	3351	1154	26.76	17.59	17.83	17.64	17.33	16.54	15.78	14.74	14.20	13.95	12.82	13.10	12.61	12.63	12.69	12.69	12.26	12.34	12.07	11.81	11.26	10.76	10.61
485.0	435.7	775.0	1273	2113	4774	3527	3020	2979	2620	2295	2190	2193	2172	2072	1874	1613	1413	1317	1275	1226	1198	1208	1263	1328	1369	1378	1375	1362	1341	1291	1205	1078	954.0	839.3	738.7	648.3	553.9	474.8	408.4	344.4	284.4	228.7	187.9	157.5	131.1	108.4	90.33	74.72	69.23	77.28	102.1	389.6	2024	3161	217.9	23.88	17.95	17.06	16.28	15.80	15.02	13.77	13.23	12.35	12.05	11.68	11.45	11.74	11.57	11.63	11.10	11.31	11.27	10.97	10.42	10.13	9.679
490.0	362.6	704.9	1126	1664	3422	4496	2953	2646	2344	2051	1949	1940	1911	1809	1636	1416	1247	1158	1123	1076	1038	1048	1092	1144	1177	1189	1187	1179	1166	1128	1057	953.7	850.0	757.1	668.3	592.6	514.6	443.8	382.6	330.0	283.4	232.6	190.6	162.6	137.7	117.6	98.73	83.45	70.97	63.30	61.72	119.6	518.2	1583	2576	959.2	97.38	17.94	15.95	14.86	13.78	12.78	11.92	11.22	10.73	10.41	10.28	10.22	9.853	10.15	9.665	10.18	9.931	9.602	9.330	9.063	8.685
495.0	314.5	601.1	1008	1403	2137	4263	3678	2332	2040	1801	1716	1696	1646	1558	1415	1226	1083	1006	969.9	929.0	890.2	890.3	925.9	967.8	996.3	1010	1007	998.1	991.0	963.9	910.2	827.9	746.5	664.4	596.3	531.5	465.8	406.4	354.4	305.7	269.5	233.6	193.3	164.2	142.8	122.2	107.8	93.21	79.03	66.97	59.23	65.35	148.1	382.3	931.2	2798	1691	32.89	16.59	14.39	12.68	11.69	10.81	9.880	9.615	9.103	8.841	9.110	8.935	8.571	8.784	9.033	8.471	8.456	8.362	7.860	7.851
500.0	291.5	530.7	924.9	1249	1684	3143	4519	2282	1832	1625	1547	1523	1477	1381	1253	1087	962.9	889.3	860.1	823.8	787.4	784.1	809.2	847.3	876.7	883.7	878.4	874.7	870.5	852.0	807.1	737.8	665.2	599.0	538.8	484.5	429.1	376.3	332.3	288.7	251.5	225.2	192.5	163.7	143.1	124.4	111.4	97.04	82.96	72.02	63.22	56.94	69.28	117.2	239.0	1169	3281	1388	29.55	14.64	12.82	11.06	9.830	9.159	8.989	8.219	8.409	8.083	8.226	8.213	7.812	8.313	7.987	8.051	7.608	7.072	6.940
505.0	260.9	487.4	846.1	1148	1469	2161	4632	2647	1659	1469	1385	1373	1323	1241	1110	976.2	866.8	798.4	770.5	729.9	699.8	695.4	716.5	753.0	770.2	774.3	773.4	766.4	765.5	753.7	719.8	658.2	598.3	540.4	489.5	442.2	392.6	347.2	309.0	268.5	237.5	213.3	187.7	163.7	141.8	125.5	113.3	98.82	87.08	76.12	66.55	58.33	55.48	60.64	83.98	300.4	1634	3070	975.9	24.00	12.65	11.15	10.03	8.684	8.132	7.671	7.521	7.403	7.263	7.579	7.234	7.374	7.270	7.055	6.606	6.119	6.500
510.0	236.2	419.3	708.6	1010	1255	1579	3135	3897	1635	1271	1213	1191	1142	1062	947.5	835.1	743.3	686.1	654.7	621.8	594.5	590.3	611.2	633.8	649.3	655.8	653.6	648.0	646.7	639.6	607.5	563.8	513.9	467.9	425.1	385.0	346.1	308.2	277.2	244.0	216.8	193.6	174.8	159.5	140.4	125.0	112.3	100.5	89.26	79.59	71.21	63.16	56.06	52.47	53.20	98.30	411.1	1346	2325	1004	94.06	12.31	9.640	8.502	7.365	6.986	6.581	6.466	6.396	6.699	6.439	6.459	6.293	6.064	5.845	5.612	5.519
515.0	195.5	357.3	603.2	851.8	1058	1265	1764	4008	2239	1105	1040	1018	979.8	903.2	802.7	698.4	626.6	577.8	553.7	521.8	499.0	493.4	507.5	523.3	539.1	547.7	542.6	539.7	535.1	531.2	511.1	473.9	435.7	400.9	364.8	329.1	299.5	270.0	243.4	218.1	194.2	175.0	159.3	148.6	137.8	121.7	110.5	98.04	89.08	81.39	73.52	66.01	58.36	53.40	49.53	56.38	122.3	326.5	739.9	2082	1508	31.76	10.58	8.199	7.176	6.562	6.128	5.684	5.586	5.698	5.504	5.533	5.362	5.389	5.346	4.837	4.984
520.0	178.4	308.3	520.4	777.8	962.4	1075	1272	2815	3539	1133	919.4	912.9	861.2	786.0	705.1	626.9	552.9	511.8	484.7	458.0	434.8	429.8	440.0	458.4	467.5	474.5	470.8	466.0	463.9	465.1	443.2	415.6	383.3	351.3	324.3	295.3	268.6	242.7	219.5	197.3	178.7	160.4	146.4	137.8	131.8	119.6	106.5	96.79	89.48	79.96	73.99	66.71	59.39	54.71	50.46	48.56	59.55	101.3	191.4	825.3	2275	1177	26.43	8.838	7.233	5.946	5.554	5.263	5.156	5.182	5.049	5.083	4.629	4.940	4.678	4.611	4.456
525.0	163.4	289.3	471.8	667.5	878.4	955.0	1053	1621	4063	1633	840.2	818.6	775.4	709.4	630.0	553.7	488.7	454.6	427.9	403.6	384.2	377.7	389.3	403.9	411.5	417.6	415.7	407.3	407.2	405.1	390.2	368.4	340.1	312.1	288.2	265.9	239.7	219.8	198.8	181.4	164.3	149.1	137.3	128.0	123.4	115.2	104.0	94.85	86.73	80.04	72.88	67.66	59.89	56.13	50.59	47.66	46.53	51.74	67.98	212.3	1058	2334	248.2	19.56	7.539	6.198	5.160	4.937	4.913	4.589	4.598	4.751	4.237	4.343	4.133	4.291	4.090
530.0	147.8	251.6	393.4	562.8	743.0	834.4	878.6	1022	2617	3191	914.4	702.0	667.3	607.2	540.2	470.8	420.8	385.4	365.2	343.1	325.9	320.3	328.0	340.2	346.9	351.2	346.9	341.8	344.1	341.4	332.1	312.3	290.4	266.9	247.5	228.5	208.9	191.8	174.9	159.2	146.4	134.3	123.7	115.3	109.9	106.0	100.7	90.18	81.92	76.12	70.13	64.49	59.56	55.61	51.22	47.05	44.07	42.34	42.05	70.57	266.4	989.4	1493	839.0	83.44	6.897	5.221	4.811	4.518	4.312	4.153	4.175	3.775	3.779	3.594	3.608	3.588
535.0	120.4	209.0	327.3	463.8	604.3	723.4	724.9	762.0	1159	3523	1634	607.6	563.4	514.2	449.2	395.5	351.8	321.3	303.3	287.3	272.5	265.4	273.4	281.3	286.0	287.5	286.3	281.5	282.3	280.4	273.3	258.4	241.7	221.6	208.1	191.4	177.9	162.1	148.6	137.5	125.9	117.0	108.9	101.6	97.02	93.56	91.64	84.75	76.16	70.87	65.39	61.14	55.98	53.44	50.16	45.81	42.92	39.39	36.17	39.46	79.14	236.9	465.8	1443	1144	28.40	5.649	4.749	4.222	3.935	3.743	3.611	3.452	3.222	3.204	3.113	3.090
540.0	108.2	183.1	280.4	400.5	506.9	630.5	638.1	632.6	704.1	2236	3200	644.4	495.9	447.5	394.9	342.7	304.0	279.2	259.2	246.2	236.0	230.6	234.4	241.8	246.5	246.7	244.6	242.3	241.3	241.4	236.1	223.5	207.9	193.1	180.0	166.7	154.0	142.9	132.4	121.7	112.7	103.6	98.49	91.97	88.26	83.81	83.27	78.60	71.97	65.51	61.93	56.88	53.20	50.25	47.21	44.31	40.86	37.42	32.79	30.92	37.18	68.63	117.6	543.9	1621	777.2	21.76	4.832	4.012	3.827	3.208	3.285	3.215	3.071	3.059	2.755	2.743
545.0	97.18	168.3	259.2	345.8	442.7	535.5	575.3	548.4	533.6	1067	3837	1091	437.2	392.2	345.0	300.2	266.8	242.6	228.5	214.9	206.1	198.6	204.3	209.0	211.8	214.4	209.7	209.0	209.5	209.6	204.6	193.8	181.5	166.8	157.2	144.2	135.9	126.6	116.7	108.3	99.82	93.86	87.25	83.33	79.63	75.93	73.50	72.42	66.99	61.13	56.56	51.56	48.82	46.00	43.22	40.99	38.31	34.58	31.34	27.41	26.36	30.30	38.21	134.8	727.4	1482	241.5	13.70	4.314	3.574	3.183	3.084	2.880	2.772	2.558	2.523	2.491
550.0	87.91	142.1	213.5	288.8	357.2	423.0	488.3	456.0	424.8	541.8	2235	2752	484.3	323.9	286.9	246.9	218.4	200.1	187.1	175.8	165.7	163.3	165.9	171.1	173.2	174.3	171.9	169.4	168.0	170.5	165.3	157.6	148.4	137.1	128.5	119.7	111.3	105.0	97.10	90.50	84.42	79.03	73.89	71.43	68.01	65.20	62.29	60.09	57.68	53.85	49.77	45.54	42.55	40.24	37.78	35.87	33.76	31.02	27.54	23.97	21.79	20.22	19.49	38.98	174.9	603.2	981.6	580.5	19.95	4.002	3.083	2.838	2.529	2.455	2.436	2.198	2.214
555.0	80.65	120.4	172.9	238.0	284.9	330.9	392.0	388.5	336.6	356.4	791.8	3241	1127	265.1	229.8	196.8	176.0	160.8	148.4	140.2	130.7	130.1	131.6	134.9	138.2	137.2	134.4	133.1	132.3	133.8	130.4	125.3	117.9	110.0	101.7	95.51	89.69	84.02	78.07	73.01	68.77	64.98	61.46	59.37	56.70	54.55	51.11	49.74	47.39	46.41	43.51	38.86	35.85	34.27	32.09	30.23	28.29	26.36	23.66	21.40	18.87	15.89	14.16	16.51	45.28	139.8	294.4	919.7	784.9	26.40	3.212	2.604	2.449	2.028	1.970	2.040	1.836
560.0	75.57	112.9	153.4	197.0	236.2	270.6	316.2	357.6	297.6	280.1	384.7	1980	2539	292.4	191.7	166.6	146.4	133.2	123.9	117.7	109.3	106.6	108.9	111.4	113.5	113.0	111.2	110.9	110.7	111.1	109.8	103.7	96.50	91.11	84.23	80.34	75.27	70.68	65.54	61.81	58.36	54.79	51.14	50.93	48.67	47.28	44.00	43.06	40.51	39.55	37.39	34.96	31.76	29.70	28.05	26.47	25.42	23.35	21.80	19.03	16.36	13.59	11.95	10.62	16.31	35.96	70.38	339.3	1065	261.2	17.82	2.638	2.274	2.074	1.954	1.748	1.797
565.0	71.18	94.51	128.9	173.7	198.9	229.6	261.7	309.0	261.1	238.8	261.8	806.0	3283	599.2	159.9	140.4	124.9	111.6	104.6	98.22	93.62	89.71	90.18	93.31	95.26	95.68	93.18	91.44	92.98	92.20	91.29	86.47	81.07	76.29	71.65	68.64	63.49	60.17	55.62	52.91	49.67	47.50	44.34	43.44	42.45	40.67	38.18	36.94	34.98	33.34	32.42	30.69	28.22	26.45	24.73	22.63	22.37	20.54	19.43	17.04	14.49	12.44	10.46	9.065	9.329	12.60	19.92	81.28	455.3	967.4	223.6	8.545	2.231	2.015	1.770	1.533	1.710
570.0	69.22	92.54	118.0	147.5	164.2	186.4	204.2	238.6	238.9	202.6	204.6	328.7	1973	1768	202.8	114.6	100.4	90.54	83.16	80.08	76.24	71.81	72.18	74.21	76.88	77.10	73.93	72.79	73.83	72.98	71.51	68.87	64.52	61.57	57.36	54.38	50.69	47.97	44.40	42.99	40.37	38.39	36.44	35.39	34.50	33.19	31.68	30.56	28.50	27.02	26.72	25.83	24.03	22.07	20.85	19.66	18.67	17.37	16.36	14.43	13.09	11.08	9.493	7.900	7.132	6.905	8.218	21.45	108.5	409.7	640.2	329.8	16.63	2.043	1.693	1.434	1.444
575.0	60.89	86.97	97.99	121.6	135.5	150.8	160.0	178.8	215.1	181.9	170.0	195.9	618.6	2509	702.2	93.11	79.55	72.00	67.20	62.58	58.82	57.02	56.44	59.72	60.05	59.84	57.63	57.10	57.42	57.82	56.05	53.78	50.65	47.91	45.10	43.40	39.30	38.19	35.54	34.19	32.20	30.47	29.26	28.36	27.64	27.14	26.19	24.75	23.70	22.43	21.18	20.80	20.11	19.00	17.31	16.80	15.59	14.60	14.09	12.28	11.29	10.21	8.525	6.856	6.164	5.335	5.442	7.894	26.90	93.67	192.6	603.1	266.5	21.08	1.926	1.463	1.281
580.0	60.02	77.72	96.23	104.3	117.5	128.7	133.8	142.7	187.5	174.2	151.0	151.3	241.5	1598	1792	106.1	67.50	60.63	56.12	53.06	50.24	48.75	47.70	49.51	49.73	48.98	47.85	47.48	47.61	46.70	46.74	45.28	41.63	40.27	37.41	35.31	32.96	32.28	29.85	28.27	27.75	25.37	24.64	24.56	23.48	22.56	21.97	21.04	20.08	19.19	17.66	17.24	16.90	16.55	15.35	14.93	13.80	12.72	11.94	10.98	10.07	9.165	7.842	6.277	5.485	4.832	4.597	4.781	8.703	23.24	45.47	227.5	657.0	230.4	13.44	1.455	1.387
585.0	60.12	72.68	93.13	102.4	99.91	110.1	122.6	125.0	154.7	170.5	141.9	136.0	147.2	616.2	2454	296.9	58.42	51.62	48.25	45.16	41.92	41.63	41.02	42.66	41.63	41.33	40.80	39.93	39.86	39.50	39.20	37.87	35.00	32.74	31.85	29.78	28.01	27.18	25.28	24.07	23.10	21.82	21.33	20.55	19.79	20.19	18.82	18.22	17.28	16.24	15.34	14.54	14.65	14.70	13.57	12.84	11.84	11.60	10.65	9.556	8.505	8.217	7.066	5.918	5.156	4.546	4.177	3.820	4.282	7.576	12.22	54.18	307.1	539.0	176.4	5.224	1.293
590.0	58.98	67.54	84.69	89.02	87.65	94.76	103.7	105.7	121.3	159.1	142.0	123.2	117.8	213.0	1497	1214	73.47	43.19	38.93	36.70	34.14	33.15	33.67	34.31	33.68	33.65	33.09	32.30	32.38	32.37	31.45	30.33	28.81	26.90	25.17	24.32	22.89	21.71	20.33	19.30	18.80	17.69	17.77	17.09	16.39	16.50	15.53	14.98	14.25	13.56	12.66	12.24	11.83	11.73	11.39	10.78	10.04	9.431	8.768	8.202	7.476	6.833	5.996	5.416	4.696	4.023	3.650	3.207	3.360	3.551	4.579	13.73	73.02	221.5	389.2	152.2	15.08
595.0	57.50	72.95	79.56	84.80	75.28	84.41	93.47	93.58	99.34	130.7	152.2	118.9	107.6	111.7	437.4	1815	424.1	36.29	30.83	28.91	27.15	26.01	26.99	26.73	26.43	27.00	26.44	25.17	26.11	25.74	25.02	23.78	22.46	20.97	19.84	18.87	17.64	17.18	16.54	15.53	14.98	14.07	13.77	13.26	13.22	13.01	12.53	12.38	11.52	10.34	9.904	9.628	9.253	9.225	9.378	8.790	8.471	7.972	7.303	6.635	6.089	5.756	5.114	4.492	4.429	3.862	3.157	2.985	2.938	2.491	2.661	4.560	17.56	50.71	114.6	317.8	250.5
600.0	61.67	68.89	79.69	73.87	69.40	77.98	85.08	89.14	95.72	113.7	157.0	127.9	110.0	91.35	150.7	1208	1170	48.58	27.00	24.70	22.76	22.45	22.70	22.50	22.33	23.00	21.60	21.06	21.07	21.28	20.77	20.16	18.34	17.58	16.27	15.59	14.94	14.24	13.61	13.14	12.69	11.58	11.53	11.16	10.93	10.47	10.72	9.814	9.480	9.064	8.560	7.911	7.744	7.786	7.657	7.692	7.583	7.181	6.238	5.626	5.404	5.009	4.396	3.954	4.004	3.735	3.068	2.930	2.619	2.283	2.157	2.431	5.134	12.59	26.80	117.8	385.2
605.0	53.81	65.60	81.50	79.22	72.95	78.83	88.94	93.67	104.0	124.9	165.9	154.8	126.7	97.80	93.42	476.9	1735	87.64	23.97	21.52	19.95	19.32	18.98	19.12	18.42	19.37	18.46	18.11	18.11	18.59	17.49	16.96	15.25	14.39	13.84	13.15	12.61	11.80	11.34	11.42	10.56	10.40	9.804	9.431	9.657	8.868	8.943	8.291	8.252	7.826	7.280	6.945	6.643	6.528	6.250	6.486	6.862	6.129	5.416	5.114	4.911	4.396	3.908	3.618	3.412	3.241	3.360	2.675	2.419	2.192	2.039	2.018	2.474	3.945	7.155	28.13	167.9
610.0	59.93	72.24	80.72	80.25	74.42	80.68	96.37	111.2	135.5	160.9	198.4	219.1	176.4	137.4	114.6	181.9	1175	844.8	38.91	17.73	15.87	15.50	15.57	15.41	15.10	14.90	14.84	14.63	14.43	14.57	14.15	13.55	12.36	11.78	11.18	10.71	10.01	9.387	8.968	9.036	8.547	8.071	8.007	7.716	7.777	7.436	7.177	6.979	6.967	6.255	6.047	5.851	5.404	5.285	5.192	5.270	5.411	5.394	4.799	4.433	4.096	3.927	3.533	3.406	3.223	3.136	3.125	2.792	2.669	2.230	2.095	2.116	1.900	2.214	2.810	7.432	39.86
615.0	59.21	72.46	87.40	78.48	73.40	83.96	95.31	118.4	144.6	178.4	213.9	247.7	217.9	157.3	133.6	117.3	392.2	1379	249.4	15.56	12.87	12.84	12.83	12.55	12.21	12.43	12.31	11.85	10.98	11.40	11.28	10.58	9.754	9.368	8.814	8.344	7.716	7.548	7.122	7.163	6.703	6.790	6.331	6.351	6.116	6.042	5.641	5.411	5.541	4.960	4.958	4.739	4.397	4.143	4.204	4.270	4.227	4.209	4.093	3.763	3.541	3.274	3.095	3.251	3.115	2.794	2.775	2.779	2.741	2.409	2.114	2.139	1.744	1.799	1.821	2.619	9.925
620.0	62.01	75.16	83.54	82.65	76.02	81.56	97.79	117.7	141.4	174.6	202.3	232.9	223.6	160.3	133.4	101.4	163.0	993.8	602.1	20.16	11.69	11.01	10.83	10.48	10.62	10.37	10.42	9.862	9.691	9.833	9.627	8.728	8.244	7.735	7.406	6.703	6.619	6.295	6.158	5.865	5.587	5.437	4.888	5.186	4.974	4.966	4.849	4.736	4.635	4.190	4.234	3.969	3.675	3.732	3.586	3.686	3.465	3.633	3.853	3.182	3.163	2.848	2.759	2.873	2.697	2.649	2.425	2.547	2.641	2.320	2.050	2.082	1.916	1.679	1.651	1.644	3.162
625.0	61.46	78.61	85.13	79.89	78.06	77.53	95.22	117.2	136.2	165.8	193.5	215.2	222.0	164.0	132.9	95.82	104.8	420.0	1192	60.82	10.42	9.709	9.196	9.380	9.268	8.406	8.456	8.433	8.623	8.338	7.902	7.240	6.822	6.309	6.181	5.739	5.679	5.326	5.222	4.917	4.647	4.515	4.070	4.479	4.296	4.281	4.247	4.084	4.024	3.652	3.564	3.396	2.868	3.108	2.934	3.107	2.975	3.214	3.160	3.078	2.859	2.679	2.479	2.548	2.458	2.441	2.326	2.245	2.521	2.203	1.832	1.975	1.839	1.568	1.583	1.453	1.756
630.0	56.51	77.58	86.32	79.71	74.32	77.42	94.29	111.6	129.2	156.8	186.7	204.4	213.7	175.7	132.9	95.93	91.23	141.5	880.3	604.7	18.36	8.417	7.945	7.740	7.742	7.092	7.049	6.683	6.773	6.588	6.523	5.990	5.558	5.160	5.046	4.660	4.456	4.400	4.135	3.988	3.681	3.678	3.572	3.518	3.430	3.498	3.314	3.317	3.117	2.980	2.908	2.758	2.578	2.616	2.579	2.468	2.504	2.554	2.640	2.795	2.585	2.423	2.392	2.228	2.255	2.295	2.202	2.161	2.099	2.107	2.027	1.921	1.829	1.612	1.469	1.323	1.328
635.0	55.34	78.65	94.99	81.33	77.33	76.38	94.81	107.9	127.9	153.2	183.1	201.8	199.3	183.5	137.1	96.79	88.85	72.28	264.5	1070	65.22	7.489	7.088	6.529	6.123	5.911	5.763	5.733	5.611	5.362	5.424	4.737	4.400	4.410	4.196	3.743	3.729	3.354	3.187	3.108	2.888	2.966	2.846	2.808	2.762	2.749	2.792	2.616	2.649	2.362	2.363	2.442	2.265	2.172	1.943	2.050	2.111	2.214	2.293	2.246	2.261	2.091	2.129	2.224	1.956	2.001	2.092	1.966	2.140	2.094	1.962	1.841	1.805	1.574	1.363	1.402	1.161
640.0	66.60	83.30	94.02	84.16	75.88	75.31	92.45	106.5	123.1	151.4	182.2	204.5	195.2	184.1	143.7	101.9	86.90	59.28	78.00	827.5	449.7	10.60	6.388	5.545	5.784	5.177	5.133	4.723	4.770	4.578	4.696	4.143	3.636	3.770	3.857	3.220	3.146	2.880	2.723	2.791	2.471	2.655	2.558	2.310	2.295	2.547	2.436	2.380	2.109	2.062	2.040	2.109	1.877	1.903	1.790	1.721	1.975	1.941	2.015	1.948	2.052	2.045	2.029	1.998	1.896	2.043	1.863	2.033	1.835	1.887	1.846	1.821	1.838	1.533	1.401	1.324	1.287
645.0	66.53	84.13	92.34	86.43	77.44	71.62	91.18	103.4	120.1	147.0	174.2	199.5	195.0	179.2	151.0	103.0	86.88	54.99	34.33	355.6	893.4	42.60	6.207	4.997	5.076	4.721	4.401	4.189	4.390	3.902	3.750	3.784	3.334	3.328	3.215	2.799	2.754	2.431	2.468	2.516	2.197	2.237	1.903	1.956	2.096	2.204	2.192	2.030	1.979	1.770	1.835	1.758	1.720	1.612	1.614	1.606	1.820	1.614	1.812	1.829	1.640	1.999	1.839	1.850	1.736	1.844	1.821	1.801	1.808	1.894	1.820	1.718	1.895	1.644	1.428	1.346	1.318
650.0	64.11	89.19	104.2	89.81	75.63	75.00	85.75	99.27	111.6	136.6	167.4	187.9	186.6	167.1	152.9	103.0	83.56	53.38	24.78	104.4	905.8	248.0	6.544	4.908	4.617	4.250	4.170	4.068	3.967	3.741	3.545	3.262	2.988	3.008	2.794	2.251	2.606	2.124	2.095	2.145	2.015	2.044	1.627	1.772	1.932	1.793	1.903	1.790	1.835	1.616	1.596	1.646	1.504	1.518	1.446	1.475	1.559	1.582	1.564	1.677	1.467	1.610	1.685	1.690	1.702	1.659	1.736	1.779	1.713	1.708	1.634	1.733	1.716	1.618	1.559	1.286	1.211
