Sample:	'1
File name:	S2025080915¶«¶þÂ·ÇÅ.FD3
Run date:	'16:24:19, 08/10/2025
Operator:	Administrator
Comment:	'

Instrument
Model:	F-2700 FL Spectrophotometer
Serial number:	3064-004
ROM Version:	4J14000 07

Instrument parameters
Measurement type:	3-D scan
Data mode:	Fluorescence
EX  Start WL:	220.0 nm
EX  End WL:	600.0 nm
EX Sampling interval:	5.0 nm
EM  Start WL:	230.0 nm
EM  End WL:	650.0 nm
EM Sampling interval:	5.0 nm
Scan speed:	12000 nm/min
EX Slit:	5.0 nm
EM Slit:	5.0 nm
PMT Voltage:	700 V
Response:	Auto 
Corrected spectra:	Off
Contour interval:	50.000

Peak integration
Integration method:	Rectangular
Sensitivity:	1
Threshold:	1.000

Peaks
No.	ApexEX/EM(nm)	Height(Data)
1	225.0/580.0	61.64
2	225.0/605.0	48.11
3	230.0/335.0	750.8
4	230.0/585.0	62.72
5	230.0/615.0	46.49
6	230.0/645.0	40.97
7	235.0/350.0	804.1
8	240.0/520.0	257.5
9	245.0/265.0	355.2
10	245.0/530.0	231.4
11	250.0/545.0	219.3
12	255.0/280.0	647.0
13	255.0/560.0	194.6
14	260.0/235.0	12.15
15	260.0/285.0	845.9
16	260.0/570.0	169.7
17	265.0/290.0	912.5
18	265.0/580.0	167.3
19	270.0/295.0	 1247
20	270.0/385.0	 1328
21	270.0/590.0	143.5
22	275.0/305.0	 1516
23	275.0/605.0	134.6
24	280.0/245.0	10.38
25	280.0/310.0	 1437
26	280.0/620.0	112.7
27	285.0/315.0	 1359
28	285.0/630.0	87.69
29	290.0/320.0	 1230
30	290.0/640.0	69.21
31	295.0/330.0	979.9
32	300.0/335.0	861.4
33	305.0/340.0	845.5
34	310.0/345.0	749.0
35	315.0/355.0	707.9
36	320.0/360.0	767.6
37	325.0/365.0	748.0
38	330.0/375.0	729.1
39	335.0/380.0	765.3
40	340.0/385.0	754.9
41	350.0/400.0	679.5
42	355.0/405.0	647.9
43	415.0/485.0	135.8
44	430.0/505.0	85.69
45	445.0/525.0	52.13
46	460.0/545.0	30.37
47	505.0/275.0	3.014
48	510.0/280.0	3.793
49	520.0/285.0	4.329
50	530.0/290.0	4.141
51	540.0/295.0	5.971
52	545.0/300.0	7.148
53	550.0/305.0	6.882
54	560.0/310.0	6.782
55	570.0/315.0	6.849
56	575.0/320.0	7.116
57	580.0/325.0	7.118

Data points
	220.0	225.0	230.0	235.0	240.0	245.0	250.0	255.0	260.0	265.0	270.0	275.0	280.0	285.0	290.0	295.0	300.0	305.0	310.0	315.0	320.0	325.0	330.0	335.0	340.0	345.0	350.0	355.0	360.0	365.0	370.0	375.0	380.0	385.0	390.0	395.0	400.0	405.0	410.0	415.0	420.0	425.0	430.0	435.0	440.0	445.0	450.0	455.0	460.0	465.0	470.0	475.0	480.0	485.0	490.0	495.0	500.0	505.0	510.0	515.0	520.0	525.0	530.0	535.0	540.0	545.0	550.0	555.0	560.0	565.0	570.0	575.0	580.0	585.0	590.0	595.0	600.0
230.0	34.74	823.9	 5317	 2330	159.4	15.84	11.74	10.23	8.237	9.250	7.985	6.788	5.823	5.820	4.474	3.955	3.828	2.996	2.871	2.682	2.338	2.119	2.234	2.207	1.771	1.726	1.890	1.657	1.502	1.590	1.477	1.144	1.248	1.215	1.021	1.210	1.236	0.988	1.111	0.949	0.959	1.077	1.030	0.939	0.807	0.857	1.694	5.936	10.27	8.374	3.666	1.116	0.717	0.726	0.698	0.636	0.704	0.575	0.641	0.506	0.536	0.513	0.538	0.503	0.522	0.582	0.565	0.557	0.470	0.627	0.483	0.602	0.465	0.580	0.534	0.605	0.548
235.0	61.59	217.7	 2261	 4568	 3057	199.6	13.61	10.07	12.15	10.29	8.173	8.198	6.476	6.280	4.402	3.719	3.501	2.922	3.132	2.749	2.446	2.288	2.409	2.339	1.768	1.958	1.865	1.694	1.853	1.494	1.599	1.162	1.098	1.342	1.059	1.142	1.141	0.678	0.988	0.975	1.041	1.067	1.012	1.004	0.936	0.984	1.007	1.961	3.915	6.940	9.846	10.27	4.564	1.493	0.600	0.679	0.788	0.472	0.693	0.414	0.565	0.510	0.611	0.565	0.407	0.560	0.398	0.463	0.493	0.518	0.549	0.448	0.623	0.614	0.539	0.516	0.579
240.0	79.75	114.8	563.5	 2549	 6097	991.0	85.32	13.58	10.92	10.43	9.170	7.399	8.985	7.689	4.607	4.129	3.411	3.464	3.163	2.449	2.266	2.425	2.825	1.815	1.681	1.686	1.521	1.832	1.794	1.616	1.507	1.082	0.989	1.151	1.074	1.133	1.059	0.898	0.864	0.811	1.012	1.010	0.832	0.980	0.986	1.153	1.005	1.072	1.415	2.273	5.170	11.55	13.74	10.47	3.833	0.957	0.643	0.569	0.671	0.645	0.530	0.540	0.555	0.489	0.408	0.632	0.391	0.493	0.396	0.500	0.465	0.416	0.537	0.598	0.589	0.527	0.609
245.0	50.58	117.6	193.1	689.2	 3987	 6078	781.8	41.69	12.02	13.68	8.083	8.306	10.38	7.040	4.652	4.796	3.713	3.383	2.492	2.578	2.496	2.636	2.508	1.681	2.063	1.799	1.778	1.765	1.608	1.889	1.689	1.217	1.250	1.104	1.330	1.059	1.003	0.918	0.993	0.931	1.008	0.941	0.790	0.973	1.014	1.179	1.349	1.188	0.928	1.075	1.710	4.119	9.266	15.91	15.88	8.618	2.737	0.893	0.757	0.669	0.516	0.600	0.584	0.566	0.543	0.589	0.494	0.594	0.491	0.745	0.491	0.419	0.509	0.636	0.540	0.532	0.518
250.0	38.34	76.24	175.1	265.3	 1050	 3825	 4990	 2684	227.0	20.34	11.61	9.287	9.029	7.281	5.530	4.571	3.824	3.399	3.072	2.949	2.644	2.587	2.648	2.288	1.766	1.726	1.680	1.804	1.434	1.667	1.554	1.247	1.290	1.263	0.964	1.068	1.038	0.935	1.067	0.948	1.001	1.014	1.007	0.967	0.904	1.021	1.095	1.074	1.167	1.280	1.172	1.475	2.664	5.499	8.597	13.64	16.54	15.07	8.347	2.949	0.714	0.610	0.509	0.628	0.637	0.616	0.554	0.508	0.620	0.554	0.515	0.537	0.467	0.525	0.623	0.463	0.519
255.0	33.81	41.12	86.09	262.0	374.7	893.8	 2089	 6811	 4108	383.6	17.09	11.80	9.959	6.640	6.949	5.264	3.885	2.956	3.151	3.150	3.051	2.178	2.287	1.956	1.779	2.180	1.664	1.913	1.171	2.024	1.560	1.431	1.626	1.042	1.094	1.000	1.098	1.124	0.926	1.023	1.033	1.068	0.859	0.923	0.885	0.938	0.797	0.873	0.959	1.157	1.735	1.691	1.393	1.963	2.400	3.826	6.155	14.36	24.67	24.02	12.95	3.196	0.726	0.615	0.595	0.553	0.614	0.595	0.480	0.634	0.497	0.536	0.519	0.577	0.543	0.486	0.570
260.0	38.76	29.31	45.32	170.9	350.9	296.1	527.4	 3471	 8278	 4275	178.9	13.97	11.53	8.336	6.734	6.273	5.078	3.598	3.585	2.996	3.112	2.430	2.323	2.393	1.970	2.419	2.180	2.097	1.526	1.939	1.901	1.590	1.272	1.380	1.246	1.126	0.857	0.928	0.813	1.056	1.050	1.040	1.042	0.881	0.862	1.071	0.742	0.844	0.853	0.840	1.251	1.961	1.903	1.611	1.138	1.466	2.156	4.229	10.92	23.29	31.66	26.90	10.32	1.593	0.798	0.548	0.536	0.569	0.559	0.573	0.545	0.601	0.303	0.507	0.527	0.536	0.546
265.0	37.12	36.19	33.13	77.65	285.5	355.2	177.3	924.0	 4695	9999.9	 2621	79.33	14.54	10.08	8.142	6.729	5.340	4.212	3.940	3.053	2.763	2.533	2.571	2.345	2.165	2.291	1.994	1.724	1.588	1.726	1.669	1.499	1.350	1.327	1.403	1.019	1.190	1.008	0.985	1.173	0.933	1.005	0.899	0.845	0.848	0.859	0.965	0.750	0.890	0.888	0.789	1.063	1.824	2.395	1.856	1.124	1.299	1.621	3.048	7.385	16.90	34.56	39.82	24.23	5.687	0.719	0.657	0.627	0.500	0.535	0.657	0.612	0.561	0.685	0.521	0.459	0.526
270.0	55.69	57.10	45.60	45.99	121.3	327.3	368.7	304.0	 1213	 5912	 8692	 4954	178.6	15.16	10.05	7.980	5.988	4.864	4.250	3.542	3.170	2.841	2.223	2.329	2.340	2.396	1.905	1.709	1.791	1.673	1.671	1.483	1.307	1.237	1.322	1.086	1.155	1.040	1.049	1.034	0.839	1.002	1.069	1.092	1.098	0.952	1.002	0.882	0.999	0.862	0.765	0.908	1.143	1.517	2.025	2.344	2.313	1.477	1.492	2.270	4.545	10.19	19.00	30.10	36.08	33.30	18.65	5.162	0.871	0.641	0.558	0.713	0.602	0.591	0.601	0.450	0.644
275.0	91.35	108.2	84.70	53.33	70.88	124.2	371.7	546.7	382.3	 1431	 3093	9999.9	 7909	226.0	15.67	9.555	8.541	5.400	4.387	4.005	4.186	3.486	2.372	2.502	2.080	2.415	2.055	1.495	1.766	2.063	1.738	1.944	1.437	1.440	1.184	1.122	1.405	1.373	1.173	1.198	1.178	1.649	1.047	1.032	1.277	1.350	1.042	0.955	1.230	1.019	0.750	0.825	0.893	0.961	1.155	1.536	2.438	3.014	2.512	1.830	1.797	3.015	5.085	7.697	11.57	24.73	49.95	49.30	26.11	4.287	0.729	0.598	0.603	0.587	0.574	0.666	0.533
280.0	144.9	152.8	133.2	89.19	71.26	78.58	183.0	647.0	492.1	470.7	862.1	 4154	9999.9	 2517	131.2	12.90	9.527	6.444	5.030	4.658	4.245	3.953	3.380	2.638	2.047	2.518	2.257	2.028	2.266	1.845	1.680	1.904	1.742	1.821	1.088	1.458	1.709	1.629	1.422	1.226	1.360	1.529	1.400	1.392	1.332	1.477	1.478	1.272	1.347	1.029	0.849	0.965	0.785	0.843	0.928	1.085	1.490	2.337	3.793	3.669	1.976	1.916	2.197	2.822	3.480	7.022	18.49	41.73	66.00	45.25	16.69	1.647	0.556	0.606	0.719	0.611	0.670
285.0	209.4	214.5	192.1	134.1	96.21	78.08	113.4	393.9	845.9	434.5	404.0	 1180	 5440	9999.9	 1838	60.93	10.68	8.374	6.202	5.552	4.563	3.815	3.227	3.095	2.085	2.634	2.191	2.337	2.157	1.866	1.797	1.574	1.409	1.804	1.685	1.564	1.658	1.431	1.543	1.415	1.272	1.744	1.711	1.543	1.654	1.353	1.597	1.661	1.451	1.289	1.095	0.902	0.824	0.804	0.738	1.065	1.124	1.427	2.264	3.617	4.329	3.257	1.685	1.925	1.967	2.996	5.312	11.93	30.25	57.83	58.00	34.17	6.814	0.755	0.789	0.592	0.554
290.0	247.3	284.2	279.7	201.2	135.5	113.2	126.0	227.7	563.4	912.5	629.1	588.1	 1554	 4963	9999.9	 5983	106.6	12.35	8.288	6.309	5.715	4.549	4.180	3.205	2.611	2.694	2.345	2.535	2.250	1.833	2.039	1.774	1.862	1.595	1.517	1.750	1.760	1.667	1.708	1.513	1.660	1.758	1.662	1.614	1.771	1.760	1.763	1.679	1.770	1.458	1.160	1.086	1.051	1.106	0.975	0.990	1.174	1.164	1.619	2.049	2.968	4.118	4.141	3.748	2.670	2.675	2.744	4.267	8.266	16.05	26.88	44.32	48.72	48.58	23.11	6.035	0.970
295.0	268.3	324.7	323.2	257.1	196.4	155.5	167.7	227.6	364.2	690.6	 1247	774.2	752.4	 1376	 3030	9999.9	 8164	139.6	12.78	8.434	6.696	5.042	4.635	3.356	3.106	2.630	2.309	2.379	2.022	2.269	2.049	1.759	1.892	1.750	1.631	1.766	1.996	1.888	1.709	1.680	1.821	1.603	1.741	1.844	2.011	1.908	1.974	1.956	1.953	1.858	1.372	1.247	1.219	1.170	1.006	1.078	1.345	1.341	1.531	1.657	2.017	2.683	2.947	5.055	5.971	4.456	2.941	3.332	3.832	5.342	7.458	11.25	14.55	32.08	67.60	57.25	32.82
300.0	281.5	327.8	375.9	294.4	219.5	181.7	193.7	257.7	358.6	528.6	 1125	 1320	708.6	666.1	890.6	 3594	9999.9	 5714	94.59	10.94	7.345	5.274	4.411	3.771	3.566	3.156	2.680	2.190	1.881	2.144	1.845	1.797	1.786	1.718	1.530	1.936	1.909	1.815	1.544	1.879	1.684	1.563	1.591	1.917	2.050	2.081	2.105	1.962	1.955	1.930	1.407	1.247	1.404	1.263	1.186	1.154	1.512	1.571	1.589	1.778	1.924	2.383	2.505	3.431	5.890	7.148	5.526	3.630	3.050	3.223	3.734	3.906	4.533	8.462	23.22	52.49	83.69
305.0	274.5	332.2	385.5	313.0	240.7	209.1	223.2	290.7	384.9	522.1	848.3	 1516	 1100	589.0	469.6	976.0	 4732	9999.9	 1208	54.89	9.551	7.025	5.341	4.663	3.931	3.570	2.781	2.397	2.439	2.359	2.099	2.256	2.048	1.609	1.794	1.869	2.252	2.072	1.737	1.736	1.899	1.874	1.686	2.033	1.908	2.029	1.618	1.965	1.936	1.992	1.593	1.468	1.659	1.580	1.339	1.478	1.708	1.872	1.748	1.721	1.914	2.423	2.482	3.201	3.918	5.112	6.882	6.600	4.470	3.400	2.987	2.741	2.428	3.188	6.527	14.29	36.83
310.0	263.7	355.6	402.4	341.1	278.0	250.3	261.2	330.3	417.9	540.2	756.5	 1085	 1437	 1001	470.9	426.6	 1224	 4457	 8313	 4638	76.48	10.67	7.076	5.285	4.287	3.812	3.308	2.664	2.670	2.806	1.917	2.035	1.811	1.776	1.709	1.579	2.053	2.062	1.912	1.829	1.626	1.793	1.706	1.837	1.980	2.215	1.933	2.203	2.044	1.883	1.427	1.559	1.768	1.533	1.568	1.560	1.863	1.783	1.865	1.925	2.216	2.440	2.824	3.196	3.335	3.895	5.082	6.028	6.782	5.685	4.327	2.996	2.330	2.271	2.878	4.468	9.461
315.0	268.1	372.3	440.0	363.5	300.3	283.8	290.9	359.2	453.1	587.7	752.1	930.1	 1069	 1359	826.9	376.9	447.4	 1115	 2464	 9089	 6623	105.1	9.713	6.661	5.350	4.369	3.714	3.684	3.073	2.619	2.025	2.275	1.899	1.608	1.657	2.255	1.967	1.874	2.222	1.738	1.829	1.652	2.002	1.611	1.624	2.228	2.026	2.134	2.281	1.741	1.501	1.773	1.679	1.694	1.311	1.656	1.898	2.106	2.202	2.141	2.607	2.862	2.703	3.349	3.243	3.754	3.780	4.576	5.113	5.915	6.849	5.996	3.527	2.898	2.060	2.657	3.536
320.0	272.8	415.8	505.5	405.0	322.5	293.5	319.1	382.7	485.1	617.5	788.5	914.0	966.7	 1135	 1230	537.9	321.3	400.6	655.1	 3274	9999.9	 4914	69.43	8.734	6.136	4.760	4.029	3.668	2.897	3.060	2.553	2.002	2.125	1.597	2.124	1.789	1.776	1.742	1.910	1.752	1.825	1.661	1.783	1.707	1.769	2.348	2.273	2.492	2.640	1.840	1.714	1.705	1.799	1.689	1.607	1.659	2.200	1.851	2.009	2.545	2.698	2.746	3.093	3.352	3.469	3.650	4.803	4.283	4.278	4.821	5.285	7.116	6.379	3.816	2.489	2.536	2.513
325.0	290.1	480.7	599.0	524.4	374.1	321.4	340.0	409.4	509.2	643.1	829.1	953.1	973.6	981.9	 1177	918.8	370.2	281.4	282.7	842.1	 4685	9999.9	909.3	40.72	9.089	6.007	4.641	3.931	2.957	2.521	2.703	2.091	2.156	1.955	1.700	1.988	1.913	1.931	2.087	1.997	1.895	1.714	1.928	2.022	1.939	2.409	2.314	2.761	2.667	2.192	2.025	1.963	1.774	1.839	1.726	1.914	1.942	2.127	2.387	2.535	2.540	2.757	3.026	3.203	3.736	4.030	4.434	4.456	4.219	4.363	4.811	5.063	7.118	5.860	3.918	3.097	2.121
330.0	312.5	507.1	686.4	625.1	462.2	363.4	367.5	446.8	545.3	679.6	847.5	960.1	 1026	967.7	947.3	979.9	740.3	357.0	244.2	319.4	 1176	 4341	 7869	 3653	60.18	9.516	5.879	4.732	3.746	3.470	3.185	2.365	2.303	2.048	1.863	1.972	2.145	1.739	1.781	2.001	1.899	1.834	1.875	1.823	2.175	2.371	2.639	2.795	3.186	2.762	2.356	2.356	2.096	1.992	1.869	2.059	2.089	2.098	2.293	2.517	2.780	2.942	3.156	3.393	3.755	3.854	4.211	4.561	4.376	4.502	4.688	4.338	4.959	4.972	5.143	5.129	4.337
335.0	320.4	499.3	750.8	699.2	564.7	440.9	440.6	476.4	584.7	688.2	862.4	973.4	 1050	 1006	897.6	784.4	861.4	673.8	317.5	253.1	389.0	 1067	 2449	 8437	 5381	81.74	9.712	6.465	4.783	4.043	3.297	2.736	2.520	2.444	1.766	1.887	2.033	2.161	2.108	1.863	1.888	2.005	2.332	1.925	2.115	2.851	2.939	3.097	3.479	2.806	2.698	2.557	2.383	2.202	2.038	2.141	2.432	2.518	2.550	2.585	2.910	3.145	3.335	3.475	3.945	4.095	4.241	4.436	4.550	4.817	4.503	4.764	4.306	4.441	3.951	4.599	5.636
340.0	325.5	537.1	744.2	772.6	612.1	493.8	482.2	535.9	616.4	722.2	880.1	981.3	 1050	 1043	920.2	762.4	719.1	845.5	499.5	280.8	252.7	364.3	645.8	 3325	 9934	 4027	59.23	8.530	5.974	4.160	2.877	3.006	2.593	2.571	1.857	1.806	1.851	2.038	1.934	2.077	1.421	1.909	1.916	2.198	2.308	2.976	2.495	2.959	3.508	3.169	2.909	2.904	2.752	2.504	2.112	2.343	2.427	2.451	2.859	2.828	2.888	2.789	3.412	3.892	4.193	4.217	4.109	3.989	4.768	4.535	4.610	5.092	4.496	4.332	3.907	3.672	4.272
345.0	337.1	496.0	746.6	781.6	681.4	552.0	542.6	581.7	641.0	770.4	898.2	 1007	 1058	 1064	949.3	778.4	665.9	742.8	749.0	382.0	269.8	244.0	270.1	857.3	 4879	 9825	752.1	33.92	7.422	5.613	4.182	3.685	2.847	2.307	1.982	1.942	2.103	2.119	1.990	2.251	1.559	1.747	2.012	1.970	2.164	2.711	2.720	2.948	3.093	3.029	2.926	2.960	2.679	2.875	2.662	2.738	2.698	2.611	2.766	2.644	3.042	2.786	3.538	3.621	3.860	4.229	4.208	4.370	4.918	4.668	5.073	4.957	4.894	4.876	4.243	3.806	3.822
350.0	327.9	507.6	734.4	804.1	764.5	669.3	648.1	675.7	719.5	821.4	923.6	 1011	 1073	 1072	991.3	827.8	700.6	637.8	728.2	658.3	387.4	279.9	238.2	325.2	 1236	 4498	 7200	 3080	51.75	8.676	5.334	4.345	3.255	2.423	2.204	1.975	1.998	2.006	2.036	2.070	1.859	1.891	1.867	1.979	2.160	2.296	2.478	3.032	3.075	3.100	2.913	3.082	3.115	2.956	3.065	3.144	3.095	3.139	3.232	3.251	3.235	3.576	3.454	3.964	4.380	4.364	4.301	4.609	4.854	4.803	5.100	4.736	5.000	4.366	4.508	4.185	4.355
355.0	305.4	481.3	706.1	791.0	823.1	797.9	787.2	818.9	877.1	941.8	 1025	 1066	 1108	 1106	 1030	887.1	771.0	675.9	637.0	707.9	678.9	395.9	294.4	266.4	419.5	 1104	 2454	 7979	 4543	70.18	9.047	5.585	3.612	3.234	2.508	2.174	1.874	2.114	1.930	2.325	1.859	1.999	1.758	2.191	2.269	2.165	2.656	3.107	2.870	2.973	2.859	3.376	3.349	3.544	3.582	3.659	3.528	3.708	3.624	3.586	3.922	3.978	4.094	4.369	4.692	4.666	4.453	4.849	5.031	5.311	4.945	4.760	5.440	4.777	4.597	4.720	4.766
360.0	309.0	464.0	677.8	806.5	855.6	886.4	871.3	902.6	960.2	 1025	 1088	 1126	 1149	 1127	 1065	929.6	816.4	724.8	660.1	647.5	767.6	580.4	359.2	289.5	275.7	372.5	651.9	 3472	 9233	 3296	48.02	7.755	5.005	3.540	2.735	2.204	2.345	2.269	2.129	1.810	2.135	1.917	1.797	2.200	2.362	2.468	2.486	3.135	3.185	3.163	3.002	3.206	3.391	3.612	3.632	3.561	3.510	4.062	4.072	3.946	4.378	4.573	4.628	4.672	4.443	4.785	4.629	5.225	5.101	5.311	5.129	5.331	4.892	4.931	5.095	5.137	4.960
365.0	300.4	458.7	672.8	808.5	917.3	934.7	954.1	978.2	 1045	 1110	 1168	 1165	 1176	 1156	 1077	970.2	868.2	768.4	692.3	648.1	702.9	748.0	479.1	341.3	284.0	249.1	260.5	897.8	 5070	 8990	651.5	25.34	6.538	4.156	3.416	2.832	2.587	2.267	2.030	1.979	2.136	1.955	2.115	1.982	2.118	2.674	2.732	2.802	3.065	3.122	2.991	3.541	3.586	3.904	3.692	3.918	3.593	4.159	4.425	3.993	4.723	4.664	5.038	4.785	5.153	5.026	5.277	5.101	5.429	4.989	5.309	5.185	4.991	4.647	5.186	4.770	5.032
370.0	294.7	458.3	679.8	801.0	949.7	990.0	 1026	 1061	 1116	 1196	 1223	 1209	 1213	 1173	 1098	 1001	914.2	828.4	756.9	705.6	681.1	724.0	701.2	479.1	349.0	278.7	220.4	318.2	 1286	 4559	 5986	 2673	41.66	6.696	4.305	3.248	3.343	2.355	2.312	2.486	2.352	1.871	2.041	2.161	2.271	2.504	2.483	2.975	2.964	2.901	3.105	3.611	3.968	3.689	3.767	4.181	4.276	4.365	4.817	4.397	4.484	4.804	4.987	5.168	4.984	5.117	5.287	5.194	5.033	5.087	5.256	5.401	5.401	5.232	5.558	5.193	5.189
375.0	303.6	469.4	665.7	816.4	977.3	 1035	 1091	 1123	 1176	 1261	 1302	 1273	 1238	 1174	 1114	 1015	951.1	874.1	822.9	766.2	727.6	696.7	729.1	711.3	482.6	357.1	277.7	237.1	403.7	 1098	 2416	 8208	 3829	52.11	6.532	4.334	3.485	2.768	2.337	2.218	2.328	2.089	2.346	2.438	2.167	2.581	2.341	2.447	2.791	2.974	3.094	3.915	3.716	3.978	4.329	4.067	4.220	4.368	4.426	4.737	4.924	5.209	5.181	5.242	5.406	5.481	5.129	5.737	5.423	5.354	5.324	5.456	5.773	5.461	5.561	5.418	5.529
380.0	299.9	461.9	653.1	810.3	 1003	 1078	 1153	 1145	 1203	 1264	 1321	 1298	 1268	 1193	 1107	 1026	969.7	905.7	854.6	807.5	769.5	722.0	700.5	765.3	642.4	435.7	335.6	257.6	236.1	346.2	628.2	 3890	 8999	 2529	32.74	5.777	4.188	3.394	2.729	2.580	2.174	2.394	2.335	2.540	2.356	2.533	2.439	2.455	3.083	2.766	3.198	3.660	4.014	3.817	4.301	4.496	4.590	4.569	4.498	4.716	5.219	5.091	5.358	5.308	5.604	5.431	5.315	5.125	5.059	5.560	5.339	5.492	5.169	5.481	5.522	5.880	5.313
385.0	292.1	431.5	625.2	818.1	980.9	 1102	 1135	 1159	 1219	 1285	 1328	 1304	 1258	 1172	 1114	 1037	969.1	915.7	868.0	838.6	788.4	748.6	706.2	719.5	754.9	551.4	382.8	302.4	229.1	203.6	226.8	 1000	 5416	 7510	498.7	15.54	5.383	3.880	3.347	2.543	2.114	2.331	2.232	2.245	2.104	2.534	2.266	2.786	3.002	2.639	2.919	3.934	3.723	4.141	4.095	4.133	4.649	4.358	4.891	4.701	5.147	5.414	5.460	5.270	5.388	4.857	5.410	5.480	5.720	5.894	5.485	5.007	5.331	5.357	5.617	5.805	5.573
390.0	295.4	425.5	620.9	789.1	967.9	 1073	 1150	 1178	 1207	 1281	 1295	 1293	 1234	 1162	 1095	 1020	960.5	937.7	892.5	852.3	819.6	783.1	728.5	696.4	717.9	692.9	505.5	359.2	275.4	213.4	170.5	306.8	 1379	 4124	 4929	 1847	32.11	6.479	4.141	2.998	2.385	2.495	2.495	2.447	2.304	2.630	2.297	2.815	2.900	2.727	3.007	3.691	3.700	4.078	4.211	4.348	4.898	4.888	4.593	4.766	5.052	5.066	5.449	5.111	5.324	4.983	5.331	5.171	5.721	5.757	5.179	5.028	5.454	5.521	5.066	5.796	5.792
395.0	273.5	423.7	621.8	776.0	943.9	 1036	 1126	 1150	 1212	 1224	 1247	 1273	 1207	 1140	 1077	 1003	951.1	935.1	889.5	870.3	838.3	803.6	757.2	716.3	691.7	677.3	658.3	462.1	332.2	261.4	194.2	181.5	386.9	975.0	 2114	 6382	 2833	41.45	6.339	4.437	3.724	2.737	2.663	2.591	2.569	2.597	2.593	2.573	2.967	2.615	2.737	3.588	3.980	4.472	4.011	4.111	4.716	4.735	4.605	5.171	5.165	5.473	5.206	5.211	4.729	4.887	5.410	5.172	5.772	5.867	5.104	4.968	5.234	5.341	4.930	6.126	5.952
400.0	264.2	390.5	599.2	705.5	922.3	 1012	 1088	 1132	 1216	 1200	 1243	 1234	 1191	 1101	 1049	987.8	934.5	910.6	904.7	858.9	836.7	812.8	772.1	736.0	690.2	648.7	679.5	575.2	385.2	297.8	227.7	176.0	184.7	284.8	542.8	 3204	 6563	498.3	25.23	5.524	3.778	3.247	2.674	2.409	2.411	2.377	2.306	2.820	2.862	2.578	2.651	3.411	3.465	3.861	4.174	4.182	4.509	5.072	4.815	4.886	5.275	5.039	4.889	5.319	4.835	4.938	4.984	4.928	5.055	5.649	4.914	5.353	5.629	5.467	4.979	5.874	5.927
405.0	279.1	373.6	576.0	729.9	911.0	 1015	 1067	 1084	 1178	 1188	 1211	 1187	 1152	 1106	 1038	973.8	922.4	914.9	885.5	853.5	837.6	809.4	779.4	730.7	702.1	646.0	632.7	647.9	472.4	331.0	262.0	200.7	159.3	148.8	183.8	832.6	 4129	 5422	413.1	12.00	4.763	3.503	3.014	2.793	2.353	2.423	2.165	2.664	2.953	2.663	2.843	3.388	3.783	3.654	3.795	4.294	4.180	4.972	4.549	5.125	4.868	4.852	4.924	5.442	4.590	4.984	4.666	4.977	5.089	5.420	4.911	4.938	4.884	5.221	5.034	5.327	5.788
410.0	256.8	393.7	564.1	697.1	857.4	985.9	 1050	 1093	 1128	 1168	 1160	 1155	 1105	 1049	 1001	932.3	895.0	879.8	850.7	832.0	815.9	796.8	763.6	730.5	694.1	649.9	599.3	600.5	570.3	419.8	307.3	236.4	181.8	142.2	120.8	242.3	 1061	 3224	 4056	 1522	26.82	4.600	3.691	3.020	2.729	2.651	2.352	2.695	2.863	2.543	2.745	3.423	3.346	3.792	3.739	3.916	4.446	4.571	4.550	4.753	4.909	4.864	4.879	4.999	4.809	5.268	4.550	5.041	4.943	5.117	4.901	4.678	4.720	4.799	5.218	5.137	5.645
415.0	253.3	379.3	544.6	669.6	812.1	933.8	 1027	 1057	 1079	 1120	 1126	 1097	 1056	992.6	944.7	889.9	853.2	832.1	821.4	799.7	793.2	775.3	749.5	717.8	689.7	653.0	595.3	563.4	549.0	527.7	378.5	268.2	206.5	160.3	124.8	122.4	286.8	757.0	 1774	 4969	 2195	35.72	5.122	3.767	3.152	3.046	2.652	3.076	2.902	2.679	2.876	3.001	3.091	3.359	3.596	3.781	4.112	4.558	4.242	4.439	4.472	5.273	4.756	4.718	4.662	5.089	4.577	5.016	4.589	4.888	4.660	4.839	4.404	4.521	5.471	5.111	5.311
420.0	231.8	376.8	511.2	656.9	788.4	913.5	992.4	 1042	 1059	 1081	 1109	 1071	 1019	964.1	906.1	850.5	825.2	800.4	798.8	779.1	755.6	748.6	722.1	698.7	677.0	637.3	592.4	552.3	513.4	530.2	455.0	304.7	228.3	177.5	134.6	108.6	121.0	208.7	444.0	 2554	 5035	452.9	20.45	4.882	3.657	3.552	2.568	3.039	2.689	2.517	2.824	3.227	3.001	3.563	3.665	3.593	3.849	4.041	4.376	4.520	4.306	4.720	4.582	4.515	4.763	4.823	4.858	5.041	4.839	4.567	4.896	4.474	4.620	4.423	4.852	5.129	4.908
425.0	232.1	363.6	465.6	606.5	762.9	897.9	968.5	 1004	 1044	 1042	 1073	 1016	971.8	926.1	872.5	826.5	797.3	776.7	765.6	748.1	733.9	732.1	706.4	692.3	665.9	626.7	591.5	549.5	503.2	491.9	501.5	356.9	253.3	194.6	148.5	115.1	94.25	94.75	132.9	661.1	 3215	 3643	364.2	9.129	4.307	3.388	2.809	3.146	2.872	2.603	2.659	3.068	3.134	3.419	3.473	3.724	3.645	3.726	4.320	4.441	4.313	4.473	4.419	4.452	4.611	4.139	4.260	4.924	4.266	4.495	4.330	4.465	4.445	4.252	4.448	4.776	5.123
430.0	512.6	334.5	459.9	593.4	725.8	832.9	920.9	977.9	 1010	 1022	 1036	984.5	935.5	890.2	830.4	780.8	752.2	730.7	718.9	717.0	699.0	689.8	674.7	658.6	644.9	615.2	583.8	545.3	504.6	467.5	455.1	426.1	312.9	217.3	169.0	131.8	102.8	80.40	73.84	178.8	821.9	 2363	 3324	 1293	24.58	4.771	3.396	3.105	3.152	2.593	2.613	3.134	3.046	3.301	3.333	3.696	4.041	3.820	4.029	4.255	4.415	4.420	4.437	4.645	4.058	4.021	4.210	4.156	4.057	4.004	4.157	4.380	4.496	4.078	4.272	4.384	4.759
435.0	 1323	340.4	430.5	574.0	708.3	776.2	886.7	963.0	996.3	 1005	983.6	932.5	906.1	852.6	785.9	739.4	706.7	687.3	680.4	674.6	677.6	651.9	644.4	630.9	615.3	600.3	565.7	532.8	508.6	464.1	427.2	399.9	381.2	267.3	190.8	149.6	116.8	90.01	70.97	78.97	213.9	552.7	 1411	 4048	 1921	32.12	4.615	3.941	3.528	2.839	2.707	3.161	3.155	3.040	3.534	3.226	3.968	4.093	3.843	4.058	4.154	4.631	4.591	4.086	4.484	3.905	4.035	4.403	4.158	4.020	3.996	4.114	4.299	3.467	4.234	4.194	4.589
440.0	 1904	690.2	449.2	535.0	674.0	745.3	836.3	924.6	978.4	972.3	954.6	920.4	872.0	814.7	756.4	709.6	673.9	657.2	645.5	643.0	636.9	623.7	614.2	606.9	588.9	584.1	558.6	525.3	501.8	462.4	423.4	373.2	376.8	316.6	215.8	165.8	131.4	100.4	77.50	63.77	82.28	150.2	350.4	 2045	 4336	413.9	19.58	4.263	3.898	2.992	2.835	3.157	2.914	3.261	3.303	3.459	3.978	4.065	3.891	3.960	4.022	3.906	4.232	4.147	3.884	4.120	3.407	4.009	4.515	4.033	3.663	3.957	4.231	3.666	4.155	4.200	4.205
445.0	 1681	 1510	414.7	510.1	632.8	711.0	803.0	859.3	933.1	951.4	933.7	878.9	836.1	776.1	732.7	682.9	651.2	632.5	624.3	610.7	604.3	604.1	588.7	581.6	567.1	562.0	544.3	518.8	486.9	457.5	423.2	367.6	341.4	336.1	254.2	177.9	141.8	110.3	86.66	68.86	60.51	65.16	102.7	520.9	 2679	 3321	328.4	10.63	4.749	3.320	3.017	3.034	2.787	3.064	3.424	3.377	3.555	3.906	3.658	4.150	4.025	4.149	4.127	4.228	4.171	3.874	3.804	3.523	4.069	3.588	3.869	3.708	3.684	3.686	3.838	3.846	4.116
450.0	741.0	 2297	 1060	518.0	588.7	664.3	752.5	821.9	876.6	899.2	874.7	842.4	792.0	739.7	695.7	641.0	601.0	590.9	581.0	567.8	560.3	556.8	546.4	547.5	534.5	527.0	511.2	497.0	472.7	446.3	414.3	368.3	319.7	301.7	286.3	214.1	154.3	121.1	98.41	77.56	64.16	53.86	52.59	140.0	679.5	 2128	 2979	 1226	23.61	4.329	3.508	3.312	2.898	3.155	3.379	3.262	3.594	3.545	3.685	3.809	4.030	4.042	4.054	3.897	3.813	3.616	3.628	3.609	3.720	3.518	3.671	3.694	3.568	3.702	3.485	4.014	4.049
455.0	307.5	 1643	 2874	596.7	555.8	624.8	699.4	766.3	818.2	843.1	832.4	786.2	742.9	692.4	640.2	587.1	560.6	544.5	532.9	520.4	518.6	506.2	507.9	497.0	493.4	487.2	478.6	465.7	446.8	421.7	397.4	354.4	305.8	270.6	261.1	249.2	183.4	132.9	109.4	88.73	72.17	57.82	46.73	58.56	173.0	493.9	 1185	 3583	 2199	27.80	4.229	3.527	3.614	3.238	2.995	2.993	3.230	3.380	3.793	3.506	3.649	3.620	3.724	3.635	3.682	3.812	3.366	3.433	3.197	3.773	3.293	3.526	3.723	3.611	3.236	3.416	3.819
460.0	202.6	763.0	 3649	 1171	528.8	602.2	661.3	751.4	778.9	792.8	791.9	751.4	692.5	644.7	602.7	551.8	521.2	504.2	494.4	478.9	478.6	473.3	464.3	467.1	462.0	457.0	450.1	446.8	423.0	407.0	380.4	342.8	302.5	261.5	239.2	241.4	209.7	145.7	116.4	94.32	79.04	63.50	49.98	44.61	62.86	129.8	289.8	 1677	 5583	 1191	19.99	4.214	3.495	3.331	3.182	3.063	3.223	3.591	3.476	3.122	3.311	3.625	3.480	3.421	3.858	3.475	3.394	3.488	3.258	3.646	3.323	3.123	3.141	3.215	3.409	3.206	3.450
465.0	171.8	353.4	 2873	 2626	513.3	559.1	629.0	704.9	724.6	764.0	764.6	714.3	677.6	612.0	568.0	510.6	489.7	472.2	455.9	452.5	449.2	447.5	429.4	440.4	430.8	426.9	418.5	414.6	404.2	389.6	363.4	332.6	297.7	259.8	223.7	215.7	216.5	167.1	122.4	98.08	85.38	68.71	53.38	44.99	41.44	51.27	82.69	417.9	 3348	 3359	298.0	11.21	3.839	3.681	2.998	3.410	3.151	3.281	3.401	3.072	3.129	3.659	3.725	3.548	3.512	3.005	3.003	3.345	3.096	3.343	3.164	3.170	2.829	3.001	3.191	3.013	2.870
470.0	161.5	246.6	 1235	 3646	 1345	514.1	585.5	633.5	681.6	700.3	684.5	660.0	624.7	567.5	520.9	467.5	441.6	425.9	415.2	407.2	404.0	399.6	391.6	386.4	392.0	384.0	383.7	375.7	367.9	358.7	339.4	311.8	278.4	247.6	213.7	194.9	188.8	182.3	139.6	105.2	89.36	70.97	60.14	47.86	40.39	36.06	37.96	109.6	825.9	 1720	 2389	 1174	23.07	4.268	3.392	3.091	2.979	3.055	3.020	3.190	3.257	3.189	3.328	3.128	3.507	2.886	2.975	2.965	3.036	3.094	2.840	2.720	2.870	2.784	2.759	2.760	3.047
475.0	170.1	212.5	487.8	 2263	 3782	575.5	533.3	569.7	609.3	622.0	640.4	583.8	556.7	516.9	478.7	429.9	402.1	382.2	373.7	364.9	361.1	354.4	351.8	345.2	346.5	342.4	346.3	338.0	337.7	328.2	316.1	287.7	258.2	233.0	204.4	180.4	164.1	163.0	156.5	119.9	90.98	73.65	61.96	50.69	44.02	36.57	30.43	42.23	199.3	396.3	883.2	 2434	 1404	32.81	4.048	3.369	3.258	2.891	3.141	2.976	3.242	2.812	2.961	3.124	3.209	2.930	2.700	2.393	2.845	2.733	2.619	2.466	2.539	2.476	2.352	2.519	2.764
480.0	143.6	219.6	294.9	976.2	 5124	 1012	492.8	543.9	576.7	593.4	596.9	568.5	527.5	481.6	432.8	400.3	372.8	350.6	342.6	336.5	330.5	332.0	316.4	321.1	321.4	317.2	314.3	313.1	309.4	303.1	289.4	269.2	243.7	220.0	197.7	170.8	154.2	144.2	149.3	132.3	95.82	77.28	64.88	54.07	45.82	37.66	31.65	28.18	60.16	101.1	212.5	 1033	 2621	379.4	20.87	4.307	3.511	3.290	2.933	2.991	3.062	2.691	2.929	3.066	2.741	2.898	2.598	2.686	2.593	2.354	2.570	2.630	2.870	2.545	2.406	2.528	2.712
485.0	144.1	227.0	225.7	454.3	 4291	 2357	488.1	498.6	535.0	557.5	576.4	534.5	492.6	458.7	406.8	373.1	340.4	328.4	317.0	312.8	310.1	301.7	296.1	296.0	294.2	291.5	294.2	294.3	291.9	283.2	275.5	256.1	231.6	208.4	184.5	164.8	147.4	134.9	131.0	135.8	108.0	79.08	65.95	55.51	47.28	39.43	33.91	27.50	30.68	35.83	58.87	254.1	 1387	 2313	319.7	10.91	3.929	3.524	2.781	2.687	3.000	2.726	2.994	2.777	2.824	2.876	2.385	2.355	2.767	2.259	2.492	2.273	2.561	2.181	2.187	2.241	2.324
490.0	120.4	207.7	244.3	303.8	 1779	 3091	 1161	460.7	482.0	499.9	511.6	484.8	456.9	411.4	372.2	341.9	313.3	300.8	286.1	279.9	278.9	270.7	268.3	266.9	265.2	265.6	262.9	265.0	267.5	260.2	249.3	236.1	215.1	194.1	173.5	156.5	141.2	128.1	117.2	118.8	115.6	89.80	67.52	56.53	48.06	41.26	36.07	28.76	26.00	23.90	25.91	67.49	338.7	 1117	 1871	 1032	24.67	4.154	3.066	2.969	2.934	2.382	2.793	2.329	2.507	2.457	2.388	2.433	2.308	2.271	2.224	2.316	2.364	2.121	2.252	2.328	2.089
495.0	105.6	155.7	242.0	263.6	620.5	 1854	 2644	537.3	436.3	436.0	465.8	430.9	408.4	375.9	339.5	307.2	284.1	268.2	260.1	254.7	247.8	241.2	243.1	238.2	234.4	238.1	238.4	233.5	236.5	232.6	228.5	208.0	196.3	176.7	160.7	144.9	133.4	121.1	110.0	101.1	102.4	100.0	75.17	57.00	48.87	42.62	37.23	30.75	27.15	22.91	20.18	27.43	85.40	258.8	646.0	 2073	 1373	34.07	3.885	3.231	2.908	2.611	2.473	2.548	2.458	2.310	2.374	2.174	2.087	2.035	2.008	2.172	2.195	2.329	1.948	2.202	2.206
500.0	98.52	133.3	245.7	246.2	340.9	820.1	 3108	836.9	413.5	413.2	432.2	407.0	380.4	349.3	305.5	276.5	261.1	252.3	231.9	229.8	228.2	215.1	221.1	217.7	213.7	219.2	216.9	214.1	217.4	212.5	208.9	193.4	177.9	162.9	151.9	134.4	123.6	114.9	105.3	93.07	91.80	96.38	81.21	60.56	50.18	42.57	36.88	32.03	28.35	23.50	19.37	18.36	29.79	67.01	155.0	875.0	 2391	396.4	22.05	3.487	3.078	2.764	2.710	2.195	2.294	2.333	2.310	2.050	2.228	2.038	2.105	2.027	2.102	2.286	2.047	2.223	2.225
505.0	90.89	117.7	203.0	262.4	261.1	394.8	 2339	 2576	408.8	380.4	399.5	372.6	347.7	314.6	287.6	256.1	236.2	231.1	213.5	207.8	209.2	198.5	195.7	195.8	196.4	196.5	193.3	195.6	198.2	194.7	192.0	180.1	167.6	153.9	136.9	124.5	117.2	108.2	98.44	89.11	81.44	82.65	85.69	66.09	50.50	42.14	38.70	32.96	28.20	23.90	19.83	18.59	18.31	24.41	43.72	213.1	 1238	 2168	340.0	9.811	3.112	2.837	2.692	2.475	2.414	2.064	1.866	2.219	2.226	1.846	1.866	1.785	2.012	2.046	1.837	1.634	1.822
510.0	75.34	110.8	172.9	254.9	239.5	275.8	973.1	 3721	 1032	349.8	353.5	337.9	309.8	274.4	256.2	234.2	212.0	204.1	190.8	187.0	180.4	176.6	173.1	169.0	172.7	172.5	174.0	174.0	174.8	174.9	170.7	161.8	152.6	139.9	125.7	114.8	107.1	96.44	89.74	82.36	72.57	70.22	71.17	69.63	55.13	42.41	38.13	31.77	27.73	24.22	21.32	18.09	15.85	15.12	19.28	56.06	301.4	 1041	 1669	766.2	24.12	2.822	2.861	2.639	2.203	2.153	1.927	1.898	1.998	2.001	1.791	1.668	1.677	2.063	1.833	1.592	1.689
515.0	68.81	100.4	140.7	224.9	247.4	219.3	404.3	 2181	 2520	414.5	317.1	302.4	278.8	245.1	225.1	206.7	186.8	176.8	170.5	163.2	155.8	156.0	149.8	150.3	151.3	150.7	150.2	152.3	154.1	151.9	150.9	142.4	131.8	122.7	112.9	103.2	94.87	87.83	81.01	74.44	66.83	63.77	59.63	62.12	59.15	46.57	36.79	32.57	26.63	24.27	21.24	17.94	16.09	13.50	13.72	20.41	74.13	239.3	580.8	 1730	 1045	30.47	3.392	2.550	2.176	2.041	1.724	1.620	1.867	1.648	1.674	1.561	1.343	1.669	1.686	1.729	1.656
520.0	65.81	99.08	119.9	180.4	257.5	213.8	256.6	870.3	 3040	936.0	285.8	274.0	248.2	218.9	208.7	188.4	175.4	159.6	153.1	146.5	142.3	139.8	136.0	136.3	134.4	133.6	134.2	139.3	137.3	138.1	135.4	130.5	122.2	112.1	103.2	91.16	87.13	79.94	74.51	68.21	62.20	57.45	52.04	54.12	57.51	50.26	38.09	30.86	26.45	23.96	20.96	18.21	16.76	13.96	12.23	12.66	24.30	59.38	138.6	754.2	 1850	375.7	17.77	2.648	2.196	1.938	1.736	1.768	1.520	1.765	1.543	1.534	1.286	1.781	1.444	1.615	1.879
525.0	71.60	84.28	104.0	149.7	235.8	216.9	205.6	377.0	 2244	 2050	280.6	262.5	227.2	209.7	186.5	170.2	158.4	144.3	141.0	132.5	130.3	129.0	122.7	123.1	122.8	120.2	123.6	125.1	122.4	126.0	121.8	118.6	110.9	102.2	93.74	86.57	79.80	76.19	70.48	64.27	58.32	53.52	49.29	47.58	48.81	52.13	40.45	30.71	25.72	22.57	19.90	17.88	16.19	13.64	12.04	10.78	13.12	19.45	37.03	183.9	976.2	 1627	298.3	6.633	2.461	1.988	1.756	1.560	1.431	1.535	1.529	1.422	1.224	1.405	1.342	1.615	1.606
530.0	56.39	76.69	94.34	125.3	183.2	231.4	180.3	235.9	889.5	 2754	894.4	224.0	198.9	183.2	162.1	153.7	140.5	127.2	123.6	120.7	116.4	111.5	105.7	106.2	109.0	103.5	108.1	107.0	108.8	108.3	107.3	103.3	97.54	90.87	82.78	76.97	70.63	66.85	62.40	58.17	52.74	47.87	44.26	40.63	40.40	44.33	43.36	33.32	25.62	21.28	18.98	16.42	15.01	13.90	12.27	10.96	10.84	11.01	13.93	45.72	237.4	796.8	 1230	545.8	21.01	1.994	1.933	1.692	1.499	1.476	1.439	1.403	1.405	1.415	1.264	1.397	1.451
535.0	55.45	65.48	86.83	107.4	140.3	230.8	180.0	180.8	343.0	 1565	 2461	288.8	177.3	165.3	141.6	131.3	121.4	113.2	105.5	105.0	98.64	95.15	96.39	91.77	93.62	90.36	93.67	91.52	93.87	92.92	93.79	88.21	81.63	77.82	73.22	68.27	62.05	58.54	54.47	52.04	47.44	42.87	40.40	36.63	33.77	34.80	38.70	36.07	26.96	20.36	18.19	15.27	13.90	12.58	11.43	11.06	9.788	9.302	8.711	14.99	57.51	182.7	440.8	 1283	398.6	24.21	1.959	1.951	1.630	1.470	1.281	1.253	1.273	1.116	1.325	1.188	1.099
540.0	60.68	63.45	71.93	107.1	111.9	190.4	199.5	158.3	204.7	624.2	 3013	820.2	161.2	145.6	133.2	115.3	108.7	103.5	94.15	95.49	87.43	85.01	86.69	82.77	81.69	82.07	83.40	82.32	84.51	84.27	81.05	80.64	74.85	69.27	65.82	62.47	56.42	53.57	49.26	44.65	43.11	39.28	35.51	33.53	30.71	29.79	32.16	34.76	28.24	20.77	16.58	14.31	13.49	12.33	11.59	10.45	9.226	8.292	7.361	8.048	17.20	44.49	104.4	577.7	 1272	331.5	10.24	2.036	1.564	1.576	1.380	1.198	1.233	1.087	1.250	1.079	1.300
545.0	49.13	63.56	65.57	94.02	100.9	151.7	219.3	154.0	160.1	275.7	 2162	 2045	156.7	126.0	118.4	105.9	95.10	90.91	82.19	82.78	81.43	78.89	74.73	74.11	74.00	72.44	73.95	72.71	76.55	75.49	70.36	70.05	66.22	62.17	56.77	55.51	51.09	47.42	44.54	41.92	37.87	35.99	33.21	30.39	29.10	26.60	25.30	29.95	30.37	21.96	16.93	13.38	11.95	11.46	10.28	10.28	9.638	8.282	6.937	6.641	7.925	13.86	26.31	141.3	733.3	 1162	54.80	3.759	1.596	1.422	1.247	1.147	0.990	1.027	0.983	1.181	1.333
550.0	48.81	63.92	68.60	78.16	86.88	114.0	185.1	170.7	136.4	170.6	787.3	 2781	692.1	114.3	101.4	92.02	84.45	78.61	69.84	69.32	69.78	67.26	63.97	63.46	61.61	61.98	61.97	61.61	63.40	62.85	61.09	59.15	55.76	52.87	49.46	46.86	43.39	40.61	38.87	35.85	33.98	31.32	28.98	27.08	24.79	23.03	21.24	22.87	25.12	23.92	16.92	13.05	11.71	10.48	9.533	8.971	8.688	7.994	6.797	5.669	5.389	6.435	9.326	34.48	180.6	603.1	831.7	227.7	16.32	1.624	1.306	1.141	1.078	1.115	0.983	1.027	1.087
555.0	61.47	59.01	64.73	71.58	73.56	83.50	119.6	192.1	126.9	137.9	274.3	 1471	 2186	152.2	86.02	73.16	69.67	65.24	60.29	56.97	56.57	55.00	51.66	51.95	50.95	51.18	51.35	49.79	52.20	53.12	49.73	50.46	45.01	43.42	40.82	38.85	34.83	32.87	31.91	29.02	27.68	25.98	24.58	22.19	21.21	19.94	18.73	17.21	19.33	20.50	18.15	13.12	10.35	9.842	8.214	7.612	7.489	7.086	6.542	5.483	5.234	4.614	5.259	10.56	42.75	137.2	326.5	849.2	339.9	15.05	1.608	1.280	1.150	1.110	1.076	1.163	1.012
560.0	57.83	56.32	63.71	64.46	58.18	71.31	96.86	194.6	133.1	119.1	147.3	524.6	 2694	337.1	73.91	64.65	56.83	57.42	52.86	46.66	47.19	45.52	45.50	44.81	44.10	41.60	41.68	42.74	44.66	43.08	43.78	41.73	38.31	36.64	35.60	32.46	30.42	28.97	27.47	25.74	23.62	22.25	20.61	19.48	18.25	17.43	16.94	14.59	14.88	15.57	17.03	13.14	9.360	8.060	7.182	6.537	6.741	6.114	5.880	5.292	4.312	4.147	4.464	5.023	12.20	33.03	78.16	415.1	838.6	231.7	5.324	1.238	1.257	0.930	1.080	0.905	0.858
565.0	56.51	52.30	58.37	58.77	61.68	65.30	78.93	159.8	149.4	101.2	112.8	204.8	 1851	 1452	72.40	57.84	49.08	48.10	45.61	42.88	42.12	39.79	40.13	36.75	36.72	36.44	37.26	35.59	36.74	37.52	37.03	35.88	32.56	32.47	29.73	26.81	26.68	25.57	23.30	22.40	20.15	18.45	18.19	17.88	16.00	14.67	14.56	12.62	12.74	11.96	14.97	13.62	9.594	7.667	6.547	6.631	6.680	5.527	5.496	5.239	3.955	4.015	3.146	3.594	5.212	9.726	20.04	103.9	518.9	694.1	49.21	2.157	1.285	1.101	0.967	0.883	0.948
570.0	53.01	53.37	51.01	57.82	51.86	55.42	59.68	96.93	169.7	106.7	96.64	117.9	619.4	 2148	475.4	47.64	41.54	38.05	35.34	35.09	32.14	33.52	32.67	30.52	29.98	29.66	29.73	30.15	29.40	29.88	30.51	28.57	26.56	25.54	24.44	22.12	21.60	20.14	19.12	18.13	16.24	15.82	14.76	14.28	12.77	11.83	11.53	10.94	10.25	9.495	10.04	11.40	9.549	7.345	5.943	5.738	5.569	4.948	4.599	4.481	4.252	3.616	3.201	3.239	3.470	4.496	6.817	25.46	130.4	388.5	444.0	180.0	9.684	1.161	0.971	1.046	0.798
575.0	54.01	56.53	51.33	57.20	43.50	48.49	54.75	65.51	132.8	138.9	87.59	86.66	192.7	 1090	 1720	71.50	34.86	29.52	28.06	28.33	25.27	27.51	24.89	24.97	24.05	23.82	23.44	22.97	24.30	23.51	25.45	23.52	20.91	21.02	19.30	17.90	16.76	16.40	15.07	14.30	12.70	12.04	11.68	11.04	10.25	9.692	9.514	8.320	8.529	7.291	6.911	7.443	9.080	7.817	5.717	4.571	4.894	4.547	3.891	4.137	4.201	3.824	3.187	2.516	3.091	3.261	3.789	7.308	30.97	89.24	195.7	508.1	200.3	6.880	0.958	0.922	0.783
580.0	45.27	61.64	51.56	50.71	43.67	40.26	48.35	53.71	94.64	167.3	85.56	85.21	101.8	362.0	 2118	228.4	31.93	26.65	24.77	24.34	22.31	22.90	19.56	20.20	21.27	19.73	18.16	20.52	19.63	20.45	20.03	19.78	17.74	17.79	15.96	15.51	14.12	13.72	12.68	11.97	10.93	9.682	10.57	9.390	8.811	8.943	8.836	7.585	7.504	6.504	5.653	5.654	6.969	7.666	6.195	4.563	3.578	4.434	3.725	3.237	3.593	3.818	3.285	2.359	2.994	2.531	2.686	3.372	8.878	21.43	48.20	263.0	467.2	52.46	2.384	1.009	0.746
585.0	41.19	59.06	62.72	47.58	39.72	37.95	39.07	45.69	73.08	152.6	102.3	76.05	77.01	128.6	 1393	 1090	30.94	23.13	22.19	21.53	20.36	18.88	18.08	17.27	19.14	16.54	15.53	17.67	15.86	17.93	16.14	16.53	14.91	14.16	13.73	13.09	12.53	11.70	11.50	10.37	9.737	8.695	8.954	8.501	7.586	7.758	7.170	6.689	6.606	5.783	4.800	5.041	5.358	6.676	5.664	4.582	3.493	3.745	3.591	3.453	3.328	3.060	3.073	2.918	2.682	2.670	2.483	2.564	3.690	6.302	12.09	67.88	316.0	367.1	39.27	1.119	0.892
590.0	38.55	48.08	53.27	49.25	35.55	35.99	40.79	46.14	54.92	104.0	143.5	76.93	71.34	68.85	444.8	 1577	316.6	20.72	18.40	17.15	17.31	15.26	14.55	14.39	15.59	14.36	13.47	14.31	13.69	14.25	13.34	13.20	12.61	11.39	11.51	10.10	10.29	10.11	8.814	8.893	7.663	7.166	6.909	6.789	6.627	6.195	5.641	5.670	5.029	4.589	4.105	4.020	3.996	4.922	5.337	4.891	3.347	3.243	3.008	2.837	2.818	2.736	2.644	2.697	2.429	2.345	2.124	1.975	2.429	2.667	3.872	16.20	81.16	229.6	279.6	99.57	5.506
595.0	37.80	40.80	46.42	38.43	36.75	30.88	37.60	40.20	47.67	69.32	141.2	94.44	67.93	52.80	127.1	746.3	 1187	37.25	16.98	15.37	13.89	12.88	11.74	12.44	11.35	12.21	11.62	11.63	11.41	10.78	11.70	10.90	10.15	9.411	9.003	8.437	7.769	7.895	7.833	6.850	6.099	5.836	6.172	5.355	5.015	4.599	4.874	4.458	4.108	3.960	3.635	3.284	3.326	3.558	4.119	4.366	3.879	3.027	2.579	2.417	2.208	2.049	2.128	2.417	2.189	2.438	1.902	1.705	1.946	1.561	2.001	4.674	18.99	52.75	127.5	300.0	56.38
600.0	38.73	38.90	46.19	38.20	33.22	31.47	33.85	34.17	40.90	55.30	117.7	120.2	62.81	49.99	55.93	234.4	 1483	158.2	14.15	12.51	12.61	10.72	10.56	10.58	9.275	10.29	9.351	10.15	9.850	9.739	9.251	8.956	8.742	7.496	7.429	7.784	7.164	6.482	6.617	5.892	5.379	4.915	4.764	4.774	4.576	4.553	4.257	3.941	3.547	3.717	3.084	2.890	2.645	2.676	2.901	3.795	3.984	2.950	1.887	2.256	2.150	1.961	1.983	2.013	1.873	2.166	1.774	1.441	1.666	1.418	1.284	2.151	5.014	12.60	31.36	168.5	261.6
605.0	35.06	48.11	45.76	31.60	33.77	29.98	33.42	35.51	41.87	48.95	83.53	134.6	66.07	49.04	39.13	72.19	963.9	749.4	16.49	11.16	10.77	9.568	9.022	10.03	8.512	8.603	7.555	8.234	7.567	8.404	7.580	7.526	8.137	6.977	6.671	6.038	6.282	5.707	5.360	4.945	4.833	4.644	4.270	4.600	4.070	4.106	3.415	3.230	3.312	3.164	2.779	2.666	2.392	2.269	2.173	3.059	3.755	3.066	2.209	1.941	1.873	1.617	1.939	1.721	1.607	1.873	1.992	1.457	1.464	1.406	1.259	1.407	2.016	3.510	7.820	44.18	193.4
610.0	29.70	37.43	44.99	36.49	33.12	28.75	33.15	34.73	39.71	46.14	65.88	121.9	93.29	46.80	33.80	33.11	300.9	 1112	221.2	10.70	8.823	7.790	7.525	7.408	6.884	7.060	6.754	6.742	6.101	7.472	6.321	6.191	6.372	5.756	5.741	5.109	5.204	4.910	4.617	4.143	4.026	3.938	3.493	3.283	3.460	3.197	2.766	2.697	2.700	2.409	2.206	2.190	1.971	1.976	1.911	2.059	2.808	2.783	2.465	1.767	1.669	1.505	1.540	1.596	1.602	1.478	1.800	1.433	1.415	1.322	1.191	1.187	1.256	1.393	2.372	10.66	50.98
615.0	22.83	37.71	46.49	30.81	29.19	24.84	25.67	32.81	35.25	42.60	63.46	82.21	111.3	49.42	34.29	23.86	78.81	537.4	861.8	23.08	7.261	6.529	6.897	5.560	6.382	5.537	6.030	5.461	5.411	5.831	5.710	5.312	5.345	4.856	4.113	4.359	4.327	3.978	3.890	3.352	3.231	3.039	2.879	2.420	2.687	2.785	2.600	2.347	2.349	1.914	1.786	1.901	1.586	1.540	1.661	1.620	1.928	2.058	2.525	1.911	1.395	1.303	1.528	1.440	1.337	1.029	1.362	1.719	1.403	1.407	1.242	0.973	1.104	0.863	1.138	3.007	11.97
620.0	32.43	33.18	39.36	30.55	28.27	24.65	25.32	33.23	34.01	40.21	52.73	68.76	112.7	58.56	33.95	22.23	29.32	165.0	 1086	122.3	6.394	5.939	5.935	5.986	4.451	4.913	5.051	4.831	4.927	5.086	4.733	4.085	4.181	4.118	3.848	3.290	3.711	3.361	3.406	2.738	2.633	2.509	2.517	2.008	2.372	2.278	1.998	2.048	2.070	1.763	1.583	1.808	1.382	1.628	1.400	1.251	1.450	1.520	2.181	1.873	1.598	1.288	1.228	1.281	1.496	0.982	1.410	1.174	1.595	1.185	0.939	0.918	1.155	0.965	0.813	1.300	3.421
625.0	36.10	34.05	39.28	24.76	25.29	24.30	25.39	33.65	34.77	35.90	56.00	55.94	90.47	77.32	35.98	22.26	17.93	47.73	715.3	564.2	9.584	5.600	5.325	5.007	4.399	4.480	4.635	3.922	4.221	4.046	3.750	3.496	3.765	3.415	3.445	3.160	2.849	3.102	2.533	2.790	2.725	2.292	2.355	1.807	2.045	2.071	1.989	1.811	1.841	1.515	1.408	1.534	1.059	1.552	1.248	1.314	1.336	1.352	1.690	2.012	1.873	1.157	1.093	1.048	1.166	0.927	1.087	1.082	1.252	1.247	0.982	0.821	0.817	0.744	0.709	0.928	1.244
630.0	34.28	30.26	33.05	32.25	25.62	24.38	24.15	30.91	34.08	42.57	46.15	52.35	65.01	87.69	41.34	20.90	16.40	20.02	219.8	858.3	93.30	5.364	4.993	4.247	3.648	4.179	3.587	3.513	3.278	3.524	3.459	3.232	2.851	2.717	2.882	2.745	2.335	2.363	2.068	2.207	2.353	2.053	1.875	1.563	1.732	1.775	1.695	1.537	1.414	1.439	1.122	1.223	1.114	1.296	1.078	1.206	1.057	1.072	1.260	1.743	1.720	1.197	1.067	1.201	1.188	0.868	0.932	0.932	1.029	1.124	1.157	1.085	0.912	0.655	0.735	0.765	0.725
635.0	32.49	32.56	34.70	30.66	25.23	25.00	23.68	28.54	32.76	34.32	41.08	49.26	50.84	74.93	57.83	23.45	15.26	13.66	57.59	407.0	643.2	17.74	3.928	4.100	3.717	3.431	3.110	3.180	3.129	2.855	2.813	2.287	2.539	2.480	2.301	2.039	1.984	2.566	1.878	1.662	1.941	1.486	1.516	1.526	1.564	1.464	1.324	1.524	1.290	0.983	1.116	1.271	1.103	1.016	0.984	0.989	1.245	0.892	1.007	1.306	1.507	1.380	1.377	0.999	1.091	0.762	0.848	0.918	0.822	0.900	1.087	0.987	0.754	0.748	0.688	0.781	0.812
640.0	33.01	26.73	39.87	31.53	26.06	23.10	26.35	26.26	32.70	29.13	45.20	48.07	47.90	55.21	69.21	25.61	16.58	13.02	19.78	121.0	819.6	100.5	4.204	3.383	3.174	2.978	2.544	3.077	2.649	2.793	2.359	2.420	2.454	2.154	2.185	1.680	2.024	2.046	1.708	1.604	1.838	1.610	1.570	1.260	1.327	1.182	1.291	1.306	1.263	0.939	1.004	1.065	0.836	0.774	0.929	0.969	1.097	0.869	0.932	1.048	1.072	1.339	1.261	1.060	0.927	0.997	0.785	0.852	0.998	0.764	1.025	0.918	0.829	0.802	0.821	0.764	0.601
645.0	39.17	30.02	40.97	32.19	27.62	21.80	25.12	22.05	33.13	29.59	38.79	47.24	49.89	45.15	68.90	32.84	15.80	13.03	11.99	34.25	543.9	432.3	6.116	2.686	3.165	2.552	2.035	2.550	2.161	2.604	2.092	2.095	2.166	1.875	1.896	1.777	1.724	1.795	1.485	1.352	1.323	1.372	1.460	1.152	1.303	1.134	1.098	0.927	1.179	0.973	0.795	0.931	0.949	0.779	0.999	1.004	0.896	0.724	0.743	0.751	0.935	1.249	1.247	0.964	0.861	0.850	0.754	0.669	0.872	0.719	0.806	0.763	0.915	0.922	0.785	0.644	0.457
650.0	43.97	32.71	38.22	35.06	26.83	23.50	21.62	21.21	31.14	32.41	39.22	41.27	47.22	44.19	58.77	41.32	16.72	13.60	10.64	14.24	201.9	709.9	40.42	2.890	2.989	2.191	2.099	2.103	2.250	2.162	1.936	1.886	2.117	1.947	1.759	1.643	1.510	1.782	1.515	1.300	1.358	1.392	1.449	1.137	1.051	0.799	1.024	1.032	0.880	1.063	0.735	0.847	0.902	0.867	0.918	0.841	0.880	0.694	0.737	0.843	0.852	0.805	1.082	0.886	0.705	0.844	0.726	0.808	0.730	0.960	0.824	0.720	0.882	1.029	0.881	0.656	0.568
