Sample:	'1
File name:	厂界外一号井上游301  4倍.FD3
Run date:	'11:26:26, 05/16/2024
Operator:	horiz
Comment:	'

Instrument
Model:	F-2700 FL Spectrophotometer
Serial number:	23B8-004
ROM Version:	4J14000 07

Instrument parameters
Measurement type:	3-D scan
Data mode:	Fluorescence
EX  Start WL:	220.0 nm
EX  End WL:	600.0 nm
EX Sampling interval:	5.0 nm
EM  Start WL:	230.0 nm
EM  End WL:	650.0 nm
EM Sampling interval:	5.0 nm
Scan speed:	12000 nm/min
EX Slit:	5.0 nm
EM Slit:	5.0 nm
PMT Voltage:	700 V
Response:	Auto 
Corrected spectra:	Off
Contour interval:	50.000

Peak integration
Integration method:	Rectangular
Sensitivity:	1
Threshold:	1.000

Peaks
No.	ApexEX/EM(nm)	Height(Data)
1	230.0/345.0	5323
2	235.0/360.0	4756
3	240.0/260.0	368.7
4	245.0/270.0	362.5
5	245.0/535.0	287.2
6	250.0/545.0	239.8
7	255.0/280.0	781.9
8	255.0/560.0	213.5
9	260.0/570.0	191.7
10	265.0/585.0	198.2
11	270.0/300.0	2190
12	270.0/595.0	184.6
13	275.0/305.0	2459
14	275.0/610.0	161.7
15	280.0/350.0	2598
16	280.0/625.0	125.4
17	285.0/635.0	85.22
18	400.0/300.0	4.486
19	460.0/345.0	15.77
20	480.0/365.0	16.85
21	505.0/275.0	3.254
22	520.0/285.0	5.418
23	530.0/290.0	6.588
24	540.0/295.0	9.103
25	545.0/300.0	10.33
26	550.0/305.0	10.33
27	560.0/310.0	9.760
28	570.0/355.0	11.55
29	575.0/365.0	11.26

Wavelength data
No.	EX/EM(nm)	Height(Data)	

Data points
	220.0	225.0	230.0	235.0	240.0	245.0	250.0	255.0	260.0	265.0	270.0	275.0	280.0	285.0	290.0	295.0	300.0	305.0	310.0	315.0	320.0	325.0	330.0	335.0	340.0	345.0	350.0	355.0	360.0	365.0	370.0	375.0	380.0	385.0	390.0	395.0	400.0	405.0	410.0	415.0	420.0	425.0	430.0	435.0	440.0	445.0	450.0	455.0	460.0	465.0	470.0	475.0	480.0	485.0	490.0	495.0	500.0	505.0	510.0	515.0	520.0	525.0	530.0	535.0	540.0	545.0	550.0	555.0	560.0	565.0	570.0	575.0	580.0	585.0	590.0	595.0	600.0
230.0	42.76	1533	4907	1792	69.92	7.074	4.110	3.716	3.580	3.217	3.159	2.852	2.387	2.261	1.843	1.526	1.348	1.198	0.928	0.840	0.773	0.715	0.734	0.647	0.511	0.601	0.430	0.417	0.381	0.338	0.281	0.259	0.275	0.251	0.249	0.268	0.286	0.218	0.180	0.205	0.264	0.459	0.401	0.278	0.173	0.168	1.415	8.931	16.40	12.27	4.681	0.709	0.116	0.127	0.083	0.108	0.067	0.063	0.103	0.072	0.075	0.042	0.059	0.096	0.100	0.055	0.066	0.065	0.046	0.026	0.029	0.045	0.044	0.020	0.012	0.019	-0.002
235.0	121.0	395.0	2337	4240	678.3	129.8	6.054	5.916	4.214	3.946	3.736	2.751	2.319	2.490	1.789	1.473	1.280	0.998	1.320	1.160	0.753	0.675	0.655	0.581	0.360	0.570	0.527	0.565	0.409	0.423	0.300	0.367	0.190	0.256	0.302	0.210	0.202	0.165	0.180	0.223	0.155	0.217	0.429	0.488	0.490	0.239	0.394	2.228	5.373	9.207	13.75	14.94	7.667	1.537	0.208	0.091	0.148	0.063	0.181	0.118	0.006	0.089	0.086	0.090	0.059	0.060	0.042	0.030	0.037	0.012	0.094	0.049	0.072	0.033	-0.032	0.108	0.087
240.0	158.3	193.2	615.7	2778	4293	562.8	75.42	6.561	5.442	4.138	4.078	3.663	3.348	2.867	2.009	1.600	1.520	1.091	1.251	0.989	0.760	0.739	0.490	0.644	0.616	0.650	0.722	0.581	0.372	0.449	0.268	0.284	0.363	0.326	0.264	0.211	0.166	0.160	0.224	0.271	0.209	0.209	0.218	0.327	0.511	0.533	0.554	0.777	1.294	2.529	6.268	15.21	21.30	16.32	6.330	0.894	0.189	0.115	0.113	0.113	0.043	0.103	0.072	0.051	0.087	0.028	0.021	0.023	0.031	0.128	0.102	0.067	0.055	0.058	-0.009	0.077	0.061
245.0	102.4	227.4	221.0	810.3	3643	4145	455.8	30.97	6.116	6.059	4.651	3.973	4.144	2.123	2.234	1.616	1.731	1.440	1.519	0.966	0.916	0.880	0.685	0.661	0.675	0.674	0.522	0.497	0.398	0.410	0.220	0.258	0.387	0.384	0.206	0.248	0.237	0.261	0.171	0.214	0.166	0.175	0.174	0.191	0.275	0.524	0.832	0.833	0.534	0.721	1.561	4.514	12.64	22.77	24.28	14.66	4.277	0.426	0.094	0.105	0.051	0.070	0.043	0.120	0.079	0.041	0.046	0.080	-0.007	0.024	0.077	0.022	0.068	0.066	-0.013	-0.008	0.077
250.0	39.76	133.9	253.7	292.4	1033	3136	4275	1639	125.2	8.033	7.188	4.711	4.217	2.997	2.639	2.088	1.714	1.741	1.552	1.125	0.973	1.089	0.848	0.645	0.671	0.541	0.428	0.621	0.447	0.437	0.263	0.268	0.338	0.297	0.303	0.286	0.247	0.259	0.202	0.173	0.171	0.214	0.192	0.238	0.194	0.277	0.407	0.744	0.966	0.857	0.736	1.260	3.035	6.664	11.98	18.67	24.34	21.36	12.66	3.902	0.426	0.111	0.072	0.112	0.109	0.080	0.061	0.102	0.000	0.055	0.068	0.085	0.071	0.087	0.049	0.034	0.056
255.0	21.78	39.98	142.0	339.8	341.2	748.5	2438	6493	2389	150.4	9.328	6.820	5.234	3.748	3.060	2.532	1.896	1.683	1.439	1.220	0.951	1.063	0.841	0.718	0.798	0.487	0.469	0.611	0.600	0.394	0.417	0.356	0.380	0.263	0.326	0.236	0.205	0.240	0.280	0.163	0.224	0.273	0.172	0.221	0.228	0.174	0.212	0.273	0.451	0.807	1.309	1.436	1.212	1.685	2.758	4.392	7.484	16.98	33.34	31.97	18.16	4.219	0.279	0.131	0.108	0.118	0.193	0.104	0.099	0.071	0.048	0.065	0.079	0.074	0.053	0.001	0.066
260.0	21.88	18.37	55.35	242.9	368.7	240.8	647.5	3952	7576	1908	81.42	9.282	5.721	4.520	3.438	2.573	2.098	1.799	1.729	1.349	0.881	1.108	0.896	0.824	0.808	0.564	0.479	0.584	0.471	0.523	0.444	0.270	0.388	0.264	0.370	0.183	0.254	0.238	0.232	0.225	0.243	0.223	0.230	0.218	0.256	0.193	0.146	0.175	0.258	0.341	0.674	1.512	1.854	1.413	0.801	1.161	1.836	4.458	12.32	27.90	42.49	30.49	14.00	1.893	0.139	0.117	0.161	0.079	0.097	0.079	0.074	0.075	0.036	0.039	0.021	0.091	0.055
265.0	24.07	17.30	24.82	98.58	352.7	291.8	190.0	1122	5818	8102	1355	28.00	8.516	6.361	4.379	3.295	2.621	1.720	1.748	1.396	1.208	1.145	0.858	0.708	0.926	0.757	0.588	0.632	0.524	0.547	0.459	0.402	0.452	0.267	0.371	0.198	0.316	0.255	0.201	0.176	0.281	0.218	0.241	0.272	0.202	0.213	0.183	0.217	0.174	0.191	0.223	0.724	1.513	2.116	1.539	0.775	0.713	1.249	3.003	7.637	19.72	38.18	49.05	25.94	8.317	0.666	0.157	0.066	0.097	0.064	0.035	0.115	0.052	0.074	0.086	0.102	0.092
270.0	101.8	67.45	38.33	40.97	147.5	362.5	327.8	335.2	1643	5605	8518	3117	79.65	9.850	6.320	4.374	3.178	2.593	2.094	1.691	1.377	1.197	1.146	0.907	0.900	0.894	0.635	0.588	0.712	0.510	0.484	0.531	0.423	0.500	0.564	0.483	0.523	0.581	0.423	0.438	0.445	0.447	0.364	0.431	0.462	0.347	0.256	0.275	0.236	0.205	0.187	0.269	0.543	1.039	1.723	2.055	1.903	1.099	1.097	2.112	4.855	10.46	21.09	31.88	34.47	36.54	17.27	6.527	0.722	0.113	0.127	0.110	0.079	0.135	0.062	0.088	0.137
275.0	442.0	297.1	146.2	62.14	70.71	164.2	501.8	431.3	574.2	1520	4353	9999.9	1539	91.06	9.420	6.163	4.360	3.260	2.849	1.787	1.473	1.333	1.399	1.073	0.986	0.969	0.605	0.782	0.594	0.666	0.678	0.526	0.620	0.776	1.074	1.347	1.470	1.183	1.223	1.075	1.062	1.147	1.144	0.964	1.186	1.105	0.910	0.761	0.515	0.367	0.259	0.279	0.355	0.439	0.689	1.101	2.411	3.254	2.946	1.856	1.897	3.302	5.643	8.279	10.39	22.52	46.55	57.45	26.80	7.733	0.664	0.114	0.073	0.150	0.180	0.131	0.197
280.0	867.3	639.3	318.9	137.5	94.26	135.3	351.3	781.9	454.1	761.6	1515	6505	9999.9	1184	48.29	9.039	5.912	4.576	3.313	2.082	1.633	1.617	1.450	1.170	0.912	1.137	0.799	0.713	0.665	0.567	0.724	0.588	0.709	1.075	1.578	2.017	2.177	2.336	2.057	1.924	1.769	1.997	2.060	2.007	1.943	2.031	1.811	1.420	1.015	0.783	0.433	0.537	0.430	0.502	0.522	0.710	1.386	2.480	4.154	4.297	2.997	2.575	3.324	3.819	4.432	7.021	15.77	35.07	56.51	36.35	22.21	4.545	0.361	0.148	0.262	0.192	0.178
285.0	1312	999.4	518.7	235.4	147.3	165.5	276.9	703.2	1008	837.3	1009	2251	8483	9585	822.7	19.69	7.864	5.869	3.862	2.731	2.017	1.960	1.548	1.407	1.037	1.042	0.974	0.979	0.738	0.875	0.805	0.638	0.834	1.250	2.097	2.894	3.409	3.307	3.000	2.528	2.379	2.563	2.823	2.863	2.839	2.997	2.473	2.188	1.794	1.098	0.855	0.641	0.630	0.673	0.725	0.951	1.157	1.548	2.690	4.670	5.418	4.695	3.709	3.551	3.819	4.356	6.069	10.59	20.66	39.28	61.02	34.05	16.27	2.228	0.341	0.197	0.255
290.0	1708	1331	779.0	370.2	229.2	240.9	329.7	558.0	1060	1434	1263	1376	2724	6993	8975	2452	45.23	7.787	5.280	3.780	2.631	2.286	1.875	1.557	1.453	1.174	1.084	0.966	0.926	0.820	0.806	0.618	0.905	1.326	2.635	3.342	4.268	4.063	3.837	3.247	3.138	3.251	3.280	3.502	3.653	3.762	3.380	3.061	2.540	1.634	1.179	1.059	0.954	0.971	0.999	1.300	1.556	1.649	2.395	3.235	4.202	5.969	6.588	6.448	5.390	5.234	5.052	5.892	7.624	11.64	21.19	30.55	43.97	40.07	22.99	12.50	2.757
295.0	1847	1559	982.0	504.2	324.4	322.6	404.6	586.5	898.0	1521	1959	1486	1408	1986	4498	9999.9	847.0	51.57	7.778	5.189	3.764	2.433	2.625	1.984	1.685	1.534	1.088	1.181	1.000	0.951	0.728	0.714	0.957	1.281	2.842	3.501	4.356	4.269	4.019	3.584	3.091	3.432	3.642	3.757	4.185	4.459	3.668	3.794	2.910	2.100	1.475	1.759	1.366	1.443	1.416	1.581	1.785	2.270	2.515	2.989	3.444	4.534	5.622	8.109	9.103	8.118	6.546	5.890	6.013	5.671	7.308	8.586	11.27	15.40	33.99	61.55	36.40
300.0	1828	1606	1069	588.6	405.3	394.9	505.1	680.5	942.3	1390	2190	1966	1297	999.7	1329	5956	9241	691.9	29.58	7.053	4.792	3.540	2.820	2.286	1.852	1.518	1.161	1.379	1.161	1.015	0.842	0.781	0.945	1.439	2.512	3.365	4.486	4.128	3.867	3.434	3.307	3.468	3.621	3.854	3.914	4.246	4.138	3.981	3.325	2.482	1.824	1.971	1.561	1.690	1.815	2.027	2.107	2.675	2.886	3.453	3.962	4.500	5.281	7.008	8.625	10.33	9.917	7.432	6.184	5.502	5.016	4.313	4.347	4.888	9.393	25.09	49.59
305.0	1739	1596	1141	668.0	472.1	461.9	598.0	789.0	1047	1429	1992	2459	1583	917.1	661.8	1701	7244	6032	506.2	12.71	6.332	4.304	3.127	2.614	1.881	1.838	1.317	1.210	1.020	1.152	1.004	0.724	1.012	1.536	2.351	3.562	4.146	4.051	3.638	3.497	3.005	3.174	3.583	3.749	3.775	4.082	3.952	3.917	3.586	2.685	1.969	2.177	1.832	1.973	1.947	2.234	2.625	3.149	3.391	4.242	4.601	5.005	5.881	6.924	7.892	9.026	10.33	10.25	8.299	6.256	4.684	4.104	3.346	2.937	3.396	6.848	14.51
310.0	1589	1547	1182	723.2	529.6	532.9	659.1	874.7	1122	1468	1859	2180	2051	1200	643.9	665.0	2047	5228	6238	1763	31.36	6.397	4.289	3.322	2.525	2.011	1.697	1.315	1.247	1.287	1.010	0.871	0.870	1.458	1.995	2.970	3.463	3.457	3.402	3.069	2.865	3.137	3.070	3.386	3.710	4.207	4.010	4.066	3.619	2.786	2.094	2.399	2.094	2.114	2.101	2.517	2.887	3.319	3.799	4.224	4.741	5.504	6.309	6.949	7.722	8.173	8.809	9.114	9.760	8.827	6.991	5.146	3.806	3.201	2.782	3.055	4.688
315.0	1528	1688	1348	836.4	597.9	584.8	717.4	911.6	1162	1472	1789	1930	1897	1701	890.1	546.7	728.3	1354	3314	7823	593.0	35.74	6.999	4.583	3.038	2.701	2.027	1.563	1.407	1.328	1.381	1.057	1.029	1.259	2.062	2.332	2.941	3.105	2.763	2.453	2.644	2.923	2.750	3.287	3.513	4.078	4.369	4.466	4.165	3.371	2.735	2.722	2.660	2.373	2.369	2.754	3.170	3.391	3.791	4.408	4.825	5.524	6.184	6.606	7.547	7.929	8.132	8.397	8.348	8.033	8.133	8.194	5.973	4.204	3.094	2.600	2.786
320.0	1854	2176	2029	1057	733.7	644.1	770.8	966.1	1218	1538	1875	2017	1899	1813	1288	715.3	545.8	552.3	947.2	4734	6903	501.5	19.09	6.288	3.854	3.105	2.453	2.071	1.688	1.537	1.446	1.291	1.071	1.111	1.850	2.400	2.716	2.736	2.732	2.495	2.732	2.922	2.748	3.535	4.278	5.025	5.858	6.560	5.988	5.149	3.838	3.264	2.992	2.837	2.858	3.058	3.229	3.636	4.147	4.880	5.287	5.768	6.674	7.192	7.804	8.177	8.199	8.286	8.517	8.136	7.638	8.825	8.557	7.175	5.136	3.580	3.142
325.0	2389	3209	3178	1892	1036	765.1	823.9	1038	1296	1640	2028	2229	2123	1896	1740	1072	670.3	488.4	446.0	1382	5744	4384	69.61	11.16	5.554	3.914	2.716	2.277	2.008	1.653	1.397	1.339	1.234	1.430	1.684	2.212	2.313	2.557	2.552	2.611	2.879	3.125	3.534	4.493	5.279	6.753	8.020	9.781	9.542	7.618	6.173	5.299	4.126	3.500	3.200	3.345	3.604	3.850	4.508	5.180	5.512	6.250	7.310	7.525	8.347	8.694	9.128	9.299	8.998	8.997	8.942	8.592	8.864	8.762	8.061	5.918	4.635
330.0	2699	3916	4147	2852	1553	1017	933.3	1094	1351	1701	2108	2348	2321	2061	1785	1518	1015	615.7	439.5	546.0	1684	4142	4854	1421	25.57	6.336	3.843	2.950	2.349	1.910	1.647	1.547	1.343	1.389	1.526	2.069	2.231	2.394	2.522	2.663	2.757	3.211	3.902	4.789	5.820	7.754	9.647	12.02	12.54	11.30	9.008	8.446	6.363	5.012	4.270	4.036	4.308	4.402	4.556	5.425	5.910	6.475	7.274	7.823	8.614	9.167	9.468	9.822	9.769	9.653	9.663	9.094	9.080	8.400	8.449	8.190	7.505
335.0	2915	4333	4757	3531	2057	1333	1121	1189	1430	1770	2161	2438	2446	2217	1865	1542	1346	851.2	540.7	446.9	623.3	1130	3001	6689	475.9	30.62	6.603	4.654	3.050	2.113	1.954	1.775	1.412	1.457	1.578	2.012	1.990	2.315	2.408	2.592	2.819	3.529	4.110	4.908	6.169	8.298	10.52	13.30	14.13	12.64	10.87	10.64	8.392	6.786	5.657	5.113	4.768	5.179	4.769	5.713	6.207	6.733	7.546	8.184	8.861	9.673	9.666	10.18	10.18	10.31	10.52	9.377	9.389	8.348	8.738	7.725	7.719
340.0	2925	4509	5127	3979	2520	1690	1349	1326	1506	1831	2217	2484	2556	2341	2007	1600	1371	1144	691.5	503.9	466.3	507.3	923.5	4418	5822	418.8	18.16	6.502	4.059	2.985	2.214	1.833	1.739	1.410	1.641	1.737	2.035	2.514	2.688	2.521	3.119	3.415	4.085	5.260	6.658	8.784	10.98	13.95	15.21	14.00	12.20	12.28	10.08	8.339	7.238	6.562	5.997	5.786	5.771	6.210	6.508	7.204	7.818	8.621	8.855	9.632	9.936	10.26	10.72	10.63	10.64	10.47	9.868	9.288	8.914	8.097	7.554
345.0	2840	4472	5323	4413	3019	2098	1629	1486	1612	1886	2245	2525	2595	2432	2123	1707	1366	1240	934.4	616.0	516.8	450.3	458.0	1360	5221	3655	59.60	11.44	4.880	3.689	2.372	1.910	1.739	1.412	1.649	1.814	2.124	2.357	2.560	2.523	2.837	3.311	3.968	5.342	6.340	9.039	10.71	13.90	15.77	14.95	12.67	14.21	12.29	10.08	9.104	8.168	7.308	6.814	6.617	6.557	6.977	7.512	8.183	8.803	9.117	10.07	9.949	10.29	10.85	10.87	10.94	10.73	10.53	10.19	9.434	9.077	8.141
350.0	2787	4209	5173	4674	3548	2689	2061	1732	1767	1992	2281	2510	2598	2475	2196	1821	1453	1213	1109	855.5	646.5	548.5	466.7	579.0	1613	3766	4056	1241	22.38	5.713	3.368	2.365	1.996	1.549	1.793	1.782	2.000	2.117	2.394	2.494	2.881	3.179	3.956	4.927	6.228	8.255	10.01	13.29	15.23	14.61	13.84	15.46	14.15	12.50	11.70	9.616	9.243	8.233	7.454	7.494	7.482	8.183	8.343	9.158	9.515	9.794	9.936	10.44	10.78	11.04	11.07	11.10	10.69	10.47	10.05	9.551	8.793
355.0	2589	3966	4929	4723	3974	3172	2489	2016	1964	2134	2355	2523	2585	2496	2241	1909	1562	1278	1104	1076	882.1	679.9	574.4	503.6	612.3	1014	2651	5951	431.2	25.39	5.383	3.316	2.702	2.025	1.905	1.750	1.864	2.185	2.241	2.491	2.838	3.074	3.696	4.716	5.847	7.978	9.255	12.85	14.41	14.09	14.31	16.54	16.05	14.87	13.64	12.17	11.11	9.692	9.095	8.220	8.565	8.916	9.095	9.920	9.574	9.832	10.33	10.62	10.90	11.55	11.55	11.07	11.09	11.06	10.60	10.17	9.001
360.0	2585	3748	4708	4756	4171	3463	2724	2199	2104	2211	2386	2529	2557	2494	2274	1951	1638	1348	1144	1092	1065	826.8	666.8	548.2	443.3	416.8	780.2	4129	5034	379.1	14.80	4.366	2.951	2.468	2.134	2.140	1.985	2.279	2.184	2.559	2.955	3.374	3.844	4.624	5.569	7.492	9.205	12.36	13.83	13.93	13.97	16.51	16.52	15.36	14.92	13.11	12.47	10.62	10.11	8.548	9.134	9.364	9.763	9.914	9.741	10.19	10.38	10.42	11.13	10.93	11.10	11.26	11.07	11.20	10.47	10.39	9.276
365.0	2352	3584	4593	4704	4286	3608	2855	2287	2161	2263	2400	2508	2529	2450	2259	1973	1672	1413	1197	1097	1118	1004	765.5	617.2	462.9	331.5	315.5	1228	4708	3369	54.88	7.994	4.260	2.854	2.192	2.011	2.008	2.213	2.178	2.532	2.775	3.192	3.639	4.625	5.356	6.742	8.560	11.58	13.02	13.18	13.93	16.68	16.85	16.36	15.15	13.92	13.11	10.95	10.17	9.072	9.598	9.587	9.783	9.681	9.910	10.21	10.06	10.16	10.58	10.67	10.77	11.26	10.44	10.64	10.31	10.13	9.653
370.0	2187	3268	4228	4501	4243	3702	2982	2358	2194	2250	2354	2427	2439	2372	2193	1945	1691	1461	1264	1149	1102	1098	957.3	737.2	545.8	379.7	271.1	397.5	1391	3549	3809	1048	19.25	4.236	3.028	2.251	2.413	2.366	2.363	2.510	2.695	3.110	3.629	4.322	5.189	6.540	7.787	10.24	12.07	12.51	13.30	16.46	16.84	16.55	15.69	14.30	13.32	11.73	10.48	9.789	9.800	9.715	9.786	10.03	9.853	9.858	9.810	9.887	10.28	10.20	10.49	10.73	10.59	10.39	9.996	10.04	9.719
375.0	1988	2979	3874	4183	4064	3653	2959	2355	2187	2234	2288	2352	2325	2244	2096	1880	1692	1483	1311	1199	1126	1081	1069	903.9	642.9	456.5	311.5	252.6	417.8	897.2	2528	4851	369.9	21.70	4.906	3.378	2.721	2.536	2.550	2.624	2.612	3.168	3.543	3.985	5.075	6.027	7.252	9.161	11.11	11.58	12.44	15.69	16.27	16.17	15.29	14.11	13.21	11.30	10.71	9.969	9.601	9.742	9.422	9.571	9.536	9.717	9.549	10.00	9.515	9.806	10.10	10.17	10.09	10.00	9.701	9.663	9.866
380.0	1890	2743	3558	3951	3910	3528	2920	2313	2135	2160	2202	2236	2204	2136	1995	1815	1648	1469	1312	1215	1151	1083	1053	1007	738.8	513.4	356.7	253.0	229.0	293.5	709.9	3426	4115	309.8	11.35	4.696	3.384	3.157	2.780	2.854	2.927	3.003	3.566	3.754	4.772	5.881	6.823	8.339	10.13	10.61	11.61	14.84	15.10	15.60	14.90	14.01	13.20	11.50	10.31	9.170	9.504	9.287	9.275	9.017	9.037	9.277	8.993	9.339	9.027	9.616	9.755	9.867	9.458	9.755	9.598	9.138	9.527
385.0	1835	2587	3289	3671	3708	3354	2803	2258	2051	2049	2113	2131	2093	2034	1892	1741	1597	1447	1310	1219	1152	1087	1020	1001	846.8	576.7	400.7	289.0	217.1	183.8	236.5	1014	3858	2773	44.77	7.675	4.878	3.615	2.897	2.895	2.571	3.016	3.392	3.557	4.542	5.247	6.347	8.360	9.298	10.04	11.10	13.93	14.13	14.52	14.16	13.45	12.87	10.83	9.789	8.998	8.982	8.934	9.063	8.662	8.657	8.654	8.431	8.505	8.630	8.810	8.985	9.301	9.339	9.650	8.993	8.879	9.269
390.0	1681	2299	2959	3337	3382	3142	2628	2151	1948	1921	1951	1973	1944	1881	1775	1633	1517	1392	1277	1203	1141	1076	1009	949.1	870.5	694.7	479.3	344.6	264.7	208.0	168.1	302.8	1138	2749	2883	800.8	18.69	6.081	4.066	3.126	2.869	2.948	3.244	3.434	4.225	5.006	5.759	7.600	8.378	8.856	9.675	12.53	13.23	13.32	13.35	12.34	11.71	10.29	9.397	8.616	8.441	8.513	8.466	8.065	8.086	7.914	7.999	7.785	8.170	8.178	8.315	8.485	8.504	8.793	8.573	8.674	8.500
395.0	1559	2059	2647	2957	3038	2869	2442	2039	1848	1802	1813	1812	1803	1720	1634	1523	1420	1334	1231	1164	1108	1062	995.4	925.4	831.6	750.0	595.4	417.1	327.0	259.4	200.3	185.3	343.3	706.5	1944	3594	310.6	24.62	7.630	4.483	3.181	3.110	3.194	3.475	4.117	4.472	5.099	6.856	7.881	8.101	8.543	11.39	11.95	11.96	11.93	11.10	10.99	9.654	8.772	8.163	7.967	8.017	7.917	7.770	7.409	7.341	7.600	7.192	7.811	7.712	7.604	7.801	7.572	8.309	7.672	7.851	7.856
400.0	1481	1907	2404	2740	2809	2661	2314	1945	1763	1718	1725	1725	1686	1622	1537	1442	1358	1267	1193	1129	1080	1041	983.5	913.5	815.0	730.0	664.2	497.6	379.8	315.6	254.5	206.2	209.1	266.1	586.2	2512	2556	272.9	18.94	6.547	4.232	3.261	3.373	3.198	3.807	4.341	4.795	6.419	6.991	7.512	8.107	9.836	10.79	11.14	10.86	10.65	10.51	9.279	8.546	8.094	7.694	7.693	7.687	7.733	7.257	7.169	6.911	6.756	7.356	7.079	7.407	7.261	7.482	7.452	7.336	7.286	7.246
405.0	1352	1801	2241	2525	2586	2497	2191	1893	1723	1666	1657	1636	1588	1548	1460	1372	1295	1218	1154	1095	1045	1016	965.1	904.0	809.1	718.3	667.4	593.1	452.5	377.6	318.7	266.8	232.6	216.4	265.8	805.1	2738	2355	209.8	13.18	5.826	3.835	3.553	3.093	3.563	4.385	4.621	5.888	6.449	6.831	7.330	9.338	10.36	10.60	10.62	9.902	9.691	8.937	8.115	7.881	7.776	7.381	7.593	7.326	6.911	6.839	6.692	6.581	6.545	6.449	7.014	6.827	6.553	6.913	7.113	7.022	7.169
410.0	1305	1663	2031	2255	2333	2258	2059	1811	1680	1624	1580	1534	1486	1422	1344	1273	1201	1142	1084	1034	995.7	968.2	929.5	874.1	802.8	713.5	646.6	621.3	566.0	463.6	390.9	342.5	299.7	266.6	251.1	347.4	880.1	2066	2303	696.8	20.05	5.909	4.065	3.554	3.752	4.096	4.306	5.281	5.911	6.191	6.772	8.625	9.312	9.337	9.495	9.175	9.117	8.365	8.044	7.470	7.584	7.190	7.271	6.898	6.913	6.602	6.283	6.132	6.152	6.042	6.381	6.091	6.453	6.324	6.611	6.408	6.660
415.0	1168	1540	1837	2022	2104	2048	1937	1741	1613	1541	1501	1435	1363	1302	1243	1165	1103	1053	1005	960.7	932.4	910.9	883.4	838.0	775.3	709.1	638.9	594.7	600.3	550.7	447.5	384.7	341.6	309.3	276.8	270.2	358.8	597.2	1358	2595	288.0	21.53	5.557	4.308	3.600	3.683	4.088	5.019	5.591	5.775	5.826	7.746	8.420	8.634	8.592	8.276	8.582	7.838	7.863	7.041	7.072	6.943	6.756	6.457	6.609	6.162	5.879	5.649	5.707	5.979	5.734	5.858	5.646	6.016	6.056	6.258	6.061
420.0	1153	1428	1675	1855	1943	1889	1797	1655	1555	1474	1423	1348	1271	1217	1150	1087	1028	981.9	945.4	901.8	878.3	860.9	836.9	806.5	755.3	691.7	630.4	582.9	573.6	578.3	490.2	403.7	356.3	321.3	286.3	260.0	247.9	263.0	424.8	1629	2261	255.4	12.65	5.170	3.742	3.734	4.009	4.686	5.169	5.110	5.456	7.002	7.735	7.961	7.894	7.856	7.950	7.488	7.290	7.155	6.451	6.604	6.732	6.319	6.173	5.792	5.457	5.148	5.678	5.646	5.506	5.657	5.437	5.478	5.742	5.607	5.670
425.0	1070	1338	1546	1705	1761	1755	1677	1590	1484	1403	1361	1287	1197	1144	1082	1021	954.3	922.8	887.8	851.2	833.3	816.6	797.6	773.7	722.8	677.1	620.1	583.9	549.0	554.9	524.1	425.6	362.4	321.3	287.5	253.6	219.3	186.8	186.3	485.4	1795	1963	196.2	7.833	4.513	4.156	3.781	4.202	5.058	4.854	5.011	6.256	7.115	7.331	7.332	7.201	7.550	7.226	7.091	6.587	6.398	6.280	6.549	6.199	5.814	5.406	5.359	4.864	5.326	4.842	4.861	5.423	5.227	5.095	5.374	5.182	4.952
430.0	1413	1202	1429	1561	1618	1621	1582	1509	1417	1332	1274	1198	1117	1056	993.0	928.9	875.2	847.1	817.2	785.9	767.9	757.9	744.1	724.5	688.0	650.3	607.5	571.0	540.4	522.0	509.1	461.5	379.6	323.6	284.5	248.2	211.6	169.9	134.3	169.5	502.4	1347	1735	595.5	16.64	4.803	4.208	4.295	4.701	4.677	4.808	5.855	6.574	6.780	6.983	6.806	7.064	6.704	6.848	6.562	6.323	6.094	5.935	5.714	5.615	5.014	5.143	4.892	4.746	4.530	4.565	4.893	4.782	4.884	4.997	4.847	4.748
435.0	2460	1157	1294	1400	1461	1507	1472	1444	1358	1291	1205	1126	1049	983.7	909.4	852.4	801.9	771.3	746.2	725.4	708.7	701.3	694.1	680.0	653.2	622.9	593.1	561.5	536.4	508.8	474.9	455.2	410.5	333.9	286.0	249.6	211.8	169.4	128.3	105.3	157.1	336.7	875.1	2042	275.7	20.53	4.936	4.432	4.575	4.541	4.497	5.674	5.889	6.177	6.108	5.946	6.569	6.532	6.630	6.399	6.092	5.998	5.504	5.356	5.160	4.847	4.756	4.512	4.492	4.056	4.181	4.440	4.425	4.368	4.206	4.553	4.544
440.0	3329	1448	1197	1322	1363	1398	1399	1377	1317	1237	1143	1066	986.7	914.1	848.8	789.8	751.4	717.5	699.2	677.9	664.8	659.3	656.7	640.6	625.4	601.0	572.8	548.4	523.1	501.0	460.5	427.7	417.0	351.6	284.0	245.5	209.5	168.6	128.7	93.02	83.99	109.8	236.3	1176	1976	250.9	13.19	4.873	4.732	4.242	4.216	5.047	5.363	5.729	5.756	5.802	6.249	6.239	6.239	6.323	5.931	5.621	5.287	5.173	4.944	4.761	4.603	4.172	4.154	4.065	4.009	4.250	3.992	4.331	3.957	4.123	4.363
445.0	3098	2106	1148	1233	1295	1316	1339	1316	1250	1176	1092	1014	927.0	860.7	801.7	743.8	703.8	673.5	654.3	634.8	624.8	618.1	617.5	609.9	593.5	575.2	552.4	529.6	510.6	488.7	448.4	403.4	388.3	361.2	290.1	241.0	203.9	166.0	131.0	94.25	69.78	61.42	81.27	321.3	1430	1845	188.3	8.396	4.837	4.127	3.953	4.838	5.025	5.218	5.268	5.462	5.929	5.880	5.893	6.080	5.553	5.406	5.089	4.740	4.792	4.730	4.327	4.104	4.235	4.129	3.800	4.072	3.733	3.938	3.540	3.734	3.888
450.0	1705	3324	1366	1135	1152	1196	1220	1236	1188	1105	1023	944.4	859.0	784.6	726.4	675.8	636.5	607.5	591.2	574.3	563.1	558.2	564.6	560.7	547.2	534.1	516.7	500.1	485.3	462.4	426.5	382.6	348.9	329.7	296.6	240.9	196.6	160.6	126.4	95.06	70.02	54.59	49.31	94.45	378.6	1147	1610	583.3	15.12	4.417	4.213	4.748	4.729	4.873	5.104	5.150	5.660	5.338	5.395	5.531	5.155	5.182	4.910	4.644	4.384	4.175	4.004	3.572	3.830	3.770	3.488	3.620	3.589	3.666	3.457	3.547	3.519
455.0	898.0	2719	2793	1066	1029	1083	1121	1129	1094	1010	940.9	859.7	782.8	712.0	651.3	595.4	566.3	541.7	524.9	511.7	500.8	502.3	504.6	503.3	495.6	486.3	474.1	461.5	452.3	431.0	399.9	361.8	320.2	293.4	274.2	248.1	195.2	155.5	123.8	96.29	73.98	56.73	45.70	46.41	103.3	272.4	676.7	1673	745.5	17.52	4.481	4.752	4.379	4.729	4.821	4.964	5.153	5.077	4.950	4.948	4.834	4.642	4.690	4.529	3.999	3.826	3.765	3.532	3.528	3.581	3.318	3.069	2.996	3.299	3.079	3.196	3.028
460.0	657.1	1593	3693	1373	949.7	1001	1030	1054	1021	957.7	879.8	789.7	722.0	660.2	597.1	547.2	513.9	496.6	478.0	466.6	455.0	457.7	459.4	460.3	455.3	446.7	439.2	429.4	423.7	407.5	379.8	345.1	301.7	271.8	248.6	238.0	201.3	153.6	120.5	96.32	76.29	60.44	46.84	37.82	43.54	76.30	170.4	839.8	1652	200.0	12.94	4.958	4.582	4.536	4.556	4.369	4.749	4.703	4.844	4.690	4.647	4.239	4.346	4.015	3.721	3.370	3.247	3.288	3.188	3.220	3.047	2.878	3.003	2.975	2.892	2.853	2.910
465.0	587.6	904.4	3287	2222	896.9	913.1	955.0	990.7	955.0	888.1	823.0	746.5	670.9	605.7	549.7	504.3	464.1	453.6	437.5	424.9	418.5	415.4	417.9	418.7	414.0	412.5	405.8	399.5	396.8	382.9	354.9	323.3	287.3	254.9	229.2	215.0	202.1	158.2	120.1	97.55	77.37	62.43	49.51	37.96	31.63	34.24	51.08	216.4	1043	1356	169.3	9.391	4.775	4.421	4.410	4.283	4.666	4.566	4.501	4.518	4.297	4.238	3.896	3.807	3.589	3.218	3.057	2.982	2.975	2.844	2.620	2.505	2.814	2.603	2.668	2.451	2.781
470.0	527.5	650.2	1740	3195	1272	808.8	849.5	890.8	857.7	805.9	743.4	668.6	601.6	535.3	481.9	439.3	407.4	394.8	383.0	372.9	369.5	366.1	370.5	371.1	367.4	365.1	361.1	359.0	355.2	344.3	324.8	293.1	262.7	234.3	210.2	188.3	176.9	160.8	125.6	97.59	78.29	64.22	51.54	40.02	32.43	26.40	25.99	59.70	265.8	751.9	1054	487.9	16.46	4.849	4.164	4.157	4.083	4.208	4.059	4.138	3.818	3.852	3.647	3.612	3.497	2.955	2.957	2.691	2.597	2.555	2.441	2.364	2.542	2.303	2.241	2.420	2.372
475.0	506.1	575.2	827.5	2426	2496	795.5	759.8	785.2	769.4	720.0	662.3	594.1	534.8	472.2	424.0	387.0	355.3	341.6	330.9	324.5	322.7	318.6	322.1	323.7	321.6	320.5	316.8	318.2	314.4	308.2	292.4	264.6	239.3	212.8	190.5	172.0	153.5	144.9	130.2	99.76	78.51	65.03	52.94	43.10	33.91	27.22	23.10	26.48	69.51	176.6	366.1	1045	666.5	22.56	4.403	3.928	4.001	3.517	3.767	3.732	3.465	3.436	3.300	3.181	2.945	2.558	2.512	2.377	2.538	2.434	2.120	2.032	2.260	2.165	2.023	1.946	2.135
480.0	446.7	525.3	602.4	1309	3138	1103	694.0	732.4	713.5	669.2	621.7	549.8	492.8	435.1	383.3	351.3	322.9	310.6	299.3	293.8	290.0	285.9	290.0	294.0	292.4	291.5	290.9	290.8	291.5	283.2	269.6	245.6	223.0	200.6	178.9	160.5	141.8	130.7	126.2	106.6	79.59	65.52	53.93	44.28	36.62	29.21	23.46	21.04	27.40	49.13	91.55	438.6	1222	235.2	16.37	4.275	4.083	3.528	3.304	3.303	3.194	3.257	3.071	2.930	2.827	2.346	2.506	2.317	2.345	1.983	1.961	1.963	1.990	1.944	1.928	1.907	1.841
485.0	392.5	524.5	526.4	753.0	2722	1941	673.1	679.9	665.3	627.7	576.9	516.6	460.0	405.7	355.6	322.1	300.1	286.4	278.4	271.8	263.8	265.4	266.1	268.5	270.1	270.3	269.1	269.7	269.8	265.5	252.9	234.5	210.8	189.8	168.7	153.8	137.7	122.5	115.9	110.6	87.30	67.52	56.24	46.80	38.71	31.46	25.60	21.49	19.37	21.71	30.08	111.9	653.0	1139	202.2	11.19	4.335	3.820	3.399	3.107	2.958	2.952	2.823	2.579	2.532	2.349	2.409	2.225	2.100	2.054	1.935	1.769	1.888	1.710	1.686	1.767	1.803
490.0	346.9	488.3	488.9	545.3	1404	2758	1077	617.7	615.4	582.2	539.3	483.6	419.7	370.7	326.4	290.2	270.8	258.4	250.3	243.6	239.8	238.4	239.8	241.1	243.4	242.6	243.5	244.5	246.8	241.7	231.7	214.4	194.2	176.3	158.7	144.4	129.6	114.8	105.4	101.5	93.48	75.03	58.30	49.16	41.40	34.91	28.98	24.42	20.27	17.50	17.68	34.64	163.4	532.5	924.5	583.6	19.10	4.587	3.700	3.363	3.067	2.863	2.827	2.504	2.596	2.318	2.219	2.045	1.970	1.893	1.808	1.770	1.648	1.561	1.616	1.590	1.618
495.0	303.1	402.2	490.1	471.4	671.1	2025	2211	626.2	557.5	533.7	492.2	440.2	393.2	338.4	290.0	257.9	242.1	228.9	219.8	214.2	211.6	211.4	213.8	215.4	216.5	217.5	215.5	219.4	221.9	219.3	208.1	194.9	177.8	161.8	146.4	133.4	120.7	109.7	98.81	90.21	86.34	81.75	63.24	51.36	44.12	37.61	31.69	27.07	23.38	19.84	17.51	19.59	46.65	128.0	304.9	993.4	768.3	26.80	4.378	3.390	2.973	2.931	2.620	2.430	2.288	2.200	1.981	1.795	1.808	1.842	1.604	1.551	1.468	1.387	1.459	1.377	1.334
500.0	261.0	354.9	484.4	433.7	472.0	1096	2790	909.5	510.6	499.1	457.4	407.9	358.6	314.1	267.1	233.3	217.3	207.2	200.4	194.0	190.5	190.5	191.6	195.0	194.8	194.9	196.8	200.9	201.2	200.9	191.6	180.0	164.8	151.1	135.9	125.7	113.9	104.7	93.43	85.41	79.11	79.59	69.72	53.35	45.27	38.73	33.32	29.14	25.07	21.93	18.23	17.68	21.57	38.79	78.49	383.8	1141	260.8	19.83	3.844	2.889	2.986	2.549	2.343	2.189	2.105	1.829	1.845	1.728	1.540	1.482	1.536	1.344	1.389	1.397	1.259	1.236
505.0	246.7	296.1	409.4	417.7	415.5	589.5	2439	1673	487.6	466.5	429.1	386.5	334.4	286.9	243.7	213.9	196.1	186.4	181.7	178.0	171.9	174.1	171.9	176.7	178.2	179.5	178.9	182.8	185.4	184.2	176.2	166.9	153.3	138.9	127.4	118.0	107.1	98.71	89.61	81.86	74.43	72.11	71.20	57.92	46.66	39.07	35.63	30.44	26.12	23.56	20.24	17.65	17.85	19.60	27.29	97.59	531.6	1005	229.4	12.21	3.010	2.798	2.390	2.342	2.115	1.768	1.680	1.682	1.555	1.438	1.327	1.395	1.261	1.253	1.286	1.286	1.372
510.0	211.4	249.2	334.6	407.9	367.3	408.3	1223	2547	808.8	419.7	394.2	345.4	301.4	253.5	219.6	187.1	171.8	166.3	158.6	155.0	152.0	152.9	150.6	154.0	156.2	156.8	157.4	161.6	163.9	162.3	156.6	148.5	138.3	125.5	115.2	107.1	97.90	90.07	83.48	76.21	69.15	64.50	63.76	60.89	50.14	41.22	36.13	31.60	27.42	24.73	21.92	19.41	17.15	16.60	17.45	31.20	132.3	432.9	749.9	460.7	18.69	3.224	2.385	2.175	1.906	1.823	1.635	1.373	1.450	1.342	1.289	1.214	1.120	1.033	1.204	1.043	1.075
515.0	188.3	230.3	276.7	370.0	347.2	324.0	534.5	2006	1850	416.7	350.0	303.1	261.2	220.2	190.0	164.7	147.4	142.4	137.2	132.0	133.3	130.9	132.4	132.6	132.9	136.3	137.2	140.9	143.7	143.0	137.7	131.6	120.0	110.4	102.3	94.84	88.86	81.36	75.23	70.08	63.97	59.38	55.55	56.04	52.57	44.06	35.58	31.43	28.01	24.94	22.36	20.39	17.68	16.68	15.19	17.27	38.56	104.4	231.7	730.1	568.6	25.31	2.966	2.020	1.826	1.616	1.291	1.359	1.312	1.230	1.142	1.048	0.956	0.976	1.131	0.993	0.991
520.0	179.1	207.4	239.0	296.4	345.0	305.6	346.9	1052	2642	649.6	312.7	279.5	243.0	202.3	169.6	147.4	131.5	125.6	122.6	118.7	118.0	117.5	118.4	120.1	119.7	122.2	122.3	125.4	130.3	130.3	123.9	118.4	109.8	102.1	93.08	86.54	81.08	75.80	70.60	64.89	59.13	55.55	51.60	49.01	50.08	45.69	36.69	31.28	27.75	24.62	22.15	19.92	18.50	17.03	15.28	13.96	17.17	30.74	58.63	275.2	804.8	256.5	17.46	2.250	1.821	1.523	1.293	1.274	1.207	1.209	1.020	0.948	0.892	0.939	0.953	1.019	0.756
525.0	150.1	181.4	218.1	250.2	340.6	286.1	288.5	509.3	2474	1326	295.0	259.9	225.1	187.6	155.6	132.9	120.9	113.8	109.5	107.6	107.8	106.1	107.3	109.5	107.6	110.2	112.0	114.4	116.1	116.4	113.8	106.6	101.3	92.80	86.89	79.96	74.96	69.30	64.90	60.82	55.51	51.70	47.98	44.97	45.36	45.74	37.75	30.67	26.71	24.06	21.54	19.33	18.27	16.98	14.75	12.90	12.27	14.24	19.26	69.08	363.3	731.2	213.2	8.572	2.174	1.563	1.249	1.305	1.211	1.151	0.946	0.813	0.855	0.814	0.710	0.855	0.833
530.0	134.8	164.4	185.4	201.7	279.0	284.2	250.7	312.2	1243	2368	532.1	231.4	196.8	163.3	136.8	114.3	105.8	99.70	95.91	94.33	93.80	91.47	92.25	93.52	93.19	94.18	96.35	98.14	100.8	101.5	99.47	93.14	88.38	82.10	75.84	70.19	66.99	62.62	58.04	54.72	50.45	47.09	44.44	40.53	39.02	40.43	38.71	31.16	25.46	22.77	20.68	18.41	16.96	15.72	14.15	12.34	10.50	10.03	10.21	20.19	88.57	304.2	535.1	281.5	17.08	1.879	1.342	1.184	1.110	0.979	0.876	0.717	0.776	0.742	0.640	0.699	0.682
535.0	120.7	144.8	158.0	171.2	203.1	287.2	227.6	244.0	466.5	2003	1541	226.5	171.7	142.9	117.6	98.83	90.19	85.97	83.80	79.66	77.93	77.53	78.77	79.59	79.62	81.02	80.71	83.50	86.19	85.67	85.53	80.70	75.84	71.16	65.67	61.03	58.19	54.55	51.00	48.39	44.87	42.66	39.06	36.62	34.03	33.45	34.60	31.48	25.19	20.77	18.94	17.16	16.07	14.84	12.90	11.75	9.586	8.640	7.441	9.022	23.35	71.04	159.9	496.1	270.0	23.43	1.643	1.170	1.085	1.008	0.808	0.760	0.661	0.640	0.587	0.616	0.542
540.0	114.0	123.2	145.2	152.2	165.2	240.8	235.3	208.8	268.4	1032	2356	359.9	153.0	128.3	103.3	85.10	79.25	73.79	73.30	70.30	68.83	67.63	69.74	69.15	71.14	71.04	71.95	72.59	74.68	75.96	76.36	70.75	66.48	62.99	58.10	54.37	51.17	47.78	45.76	42.96	39.94	37.85	35.31	33.97	30.81	29.58	29.86	30.45	25.06	20.25	17.88	15.85	14.19	13.72	11.69	11.33	9.524	7.745	6.374	6.087	8.469	18.94	38.74	183.6	550.6	245.8	15.26	1.457	1.014	0.793	0.854	0.648	0.765	0.623	0.626	0.501	0.547
545.0	110.0	113.1	129.1	135.9	144.3	198.2	239.8	188.2	204.5	434.7	2408	891.7	141.1	113.7	92.21	76.94	70.97	66.06	64.19	61.92	60.75	60.16	61.23	59.53	60.47	62.13	63.71	64.90	66.70	67.41	66.82	62.14	59.13	56.02	51.44	49.20	45.59	43.87	40.32	38.56	36.32	34.01	31.51	30.11	28.53	26.84	25.37	26.16	24.78	20.30	16.58	14.55	12.97	12.27	11.12	10.53	9.300	7.379	6.405	5.275	5.215	6.923	11.00	44.53	247.4	535.0	190.6	6.756	1.174	0.762	0.744	0.551	0.714	0.515	0.516	0.561	0.500
550.0	122.2	117.5	112.7	117.2	124.8	143.0	222.8	189.0	176.6	235.5	1173	1990	272.8	96.76	78.06	64.27	59.63	55.23	52.21	52.36	50.14	50.05	50.67	49.92	50.75	51.11	52.90	53.27	55.42	56.45	55.06	51.50	49.12	46.21	43.52	41.73	38.55	37.17	34.93	33.30	30.68	29.15	27.68	25.60	24.62	22.86	21.42	21.08	21.89	19.40	15.45	12.87	11.72	10.95	9.977	9.090	8.047	6.928	5.650	4.727	4.210	4.003	4.836	12.08	59.21	211.6	378.9	155.5	15.92	1.122	0.833	0.628	0.586	0.440	0.450	0.470	0.398
555.0	145.3	111.9	112.2	100.3	99.96	111.3	165.1	210.4	158.8	181.5	403.7	1909	1001	87.13	63.82	52.50	48.21	45.04	42.37	41.33	40.20	40.55	41.74	40.85	40.80	41.68	42.17	43.65	44.18	45.52	45.00	42.59	40.01	38.17	34.86	34.10	32.31	30.55	28.91	27.54	26.69	24.55	23.08	22.04	20.61	19.35	17.86	17.05	16.48	16.66	14.89	12.17	10.31	9.388	8.553	7.884	6.494	6.163	5.644	4.369	3.617	3.136	3.212	4.864	14.99	48.71	108.2	307.8	250.5	21.28	0.919	0.681	0.548	0.462	0.432	0.414	0.376
560.0	159.0	130.9	103.2	87.39	92.66	95.12	127.5	213.5	160.9	165.8	218.5	1017	1739	145.5	54.83	45.67	41.60	38.90	35.68	33.97	35.24	34.95	35.02	34.96	34.85	35.69	36.28	36.03	37.17	38.52	37.13	35.22	33.28	32.01	29.83	29.03	28.16	26.09	24.80	23.27	22.60	21.47	19.70	18.83	17.76	16.85	15.36	14.57	13.58	13.59	14.04	11.73	9.145	8.446	7.270	6.872	5.833	5.494	5.101	4.367	3.409	2.677	2.547	3.059	4.905	12.48	25.50	110.3	337.7	202.1	13.17	0.659	0.588	0.459	0.342	0.354	0.400
565.0	165.9	146.8	104.9	81.37	78.15	81.25	103.7	192.1	170.8	157.7	168.4	395.2	2054	475.6	50.02	39.07	34.64	32.46	31.64	30.46	30.00	29.49	29.39	29.32	30.04	30.07	30.00	31.34	32.27	33.29	31.14	30.41	29.02	27.05	26.24	25.39	23.00	22.06	21.10	20.23	19.50	17.82	17.29	16.04	15.39	14.75	13.43	12.55	11.40	11.18	11.90	10.86	8.738	7.297	6.680	6.033	5.420	4.692	4.361	4.271	3.249	2.720	2.567	2.482	2.513	4.095	7.099	26.45	138.4	326.5	136.7	5.134	0.584	0.435	0.392	0.279	0.301
570.0	164.9	142.8	100.8	71.33	66.25	72.94	84.46	140.8	191.7	152.0	155.1	196.5	1096	1425	95.66	33.64	28.79	26.89	25.66	24.30	24.42	24.29	23.30	24.20	24.80	24.39	24.81	25.83	26.09	26.97	25.75	24.63	23.88	22.86	21.45	20.73	19.90	19.22	17.92	16.47	16.08	14.97	14.31	13.50	12.81	12.28	11.34	10.46	9.607	8.730	8.791	9.103	8.195	6.574	5.854	5.207	4.612	4.133	3.740	3.406	3.230	2.704	2.388	2.155	2.016	2.279	2.799	6.929	32.97	123.6	224.8	127.9	14.22	0.741	0.388	0.250	0.373
575.0	176.5	143.2	102.5	70.49	60.47	62.53	74.01	102.3	188.0	166.0	152.4	150.2	339.5	1614	543.9	29.37	24.54	21.29	20.51	20.54	19.76	19.58	19.24	19.16	19.86	19.36	19.86	21.00	22.26	21.04	20.53	20.26	20.04	18.49	17.93	17.60	17.28	16.59	15.41	13.72	12.96	12.15	11.37	10.87	10.71	10.06	9.409	8.794	8.037	7.013	6.963	6.922	7.319	5.805	4.985	4.411	3.964	3.583	3.169	2.822	2.729	3.152	2.317	2.150	1.722	1.829	1.806	2.549	8.218	28.49	62.60	183.1	176.0	18.60	0.551	0.318	0.251
580.0	183.7	142.7	111.1	66.59	54.23	58.60	68.51	89.73	161.0	189.2	148.9	139.7	151.3	901.2	1170	54.32	20.59	17.89	17.89	16.91	16.78	16.55	16.68	16.31	16.07	16.00	16.24	17.70	18.31	17.95	17.61	16.81	16.10	15.36	14.88	14.97	15.38	14.78	12.89	11.49	10.87	10.15	9.556	9.011	8.935	8.587	7.848	7.103	6.923	6.113	5.849	5.521	6.036	5.573	4.456	3.689	3.360	3.219	2.595	2.341	2.298	2.694	2.263	1.948	1.640	1.614	1.557	1.571	2.611	7.098	14.75	63.29	209.8	131.7	9.642	0.344	0.336
585.0	180.2	152.1	104.9	61.32	54.72	56.16	60.73	81.13	124.3	198.2	150.0	134.4	106.1	324.0	1503	131.1	18.05	15.50	15.68	15.27	14.30	13.94	14.32	14.65	14.26	13.65	13.52	14.87	14.90	15.31	14.62	14.04	13.58	12.88	12.64	12.65	13.27	12.63	11.47	9.970	9.410	8.533	8.488	8.041	7.761	7.456	6.939	6.338	6.067	5.282	4.900	4.507	4.743	5.197	4.682	3.651	3.260	2.759	2.382	2.314	2.163	2.171	2.378	1.965	1.612	1.571	1.336	1.344	1.441	2.436	4.001	15.12	83.19	195.9	38.39	4.091	0.373
590.0	154.7	143.2	99.10	58.65	49.12	50.60	56.57	71.84	97.77	177.6	168.9	132.3	97.30	117.1	844.5	796.8	42.19	13.85	12.70	12.22	11.67	11.71	11.44	11.33	11.28	11.49	11.43	11.88	11.98	12.26	11.97	11.73	11.27	10.62	10.34	10.27	10.34	9.992	9.052	8.277	7.682	7.125	6.804	6.567	6.356	6.323	5.764	5.373	4.728	4.476	4.006	3.646	3.598	3.946	4.022	3.641	2.840	2.328	1.991	1.956	1.768	1.747	1.875	1.982	1.753	1.570	1.366	1.164	1.137	1.260	1.552	3.909	19.62	70.24	122.6	86.00	12.85
595.0	135.8	132.9	94.00	55.47	46.40	42.36	54.73	66.72	88.91	137.9	184.6	133.2	95.02	67.98	234.5	1064	256.1	11.71	10.41	9.635	9.480	9.122	9.582	8.892	8.992	8.863	9.197	9.324	9.607	9.820	10.17	9.634	8.672	8.567	8.014	8.150	8.224	7.736	6.883	6.904	6.231	5.876	5.291	5.307	5.255	5.001	4.503	4.341	3.847	3.638	3.147	2.921	2.737	2.741	3.279	3.325	2.669	2.025	1.836	1.629	1.508	1.507	1.411	1.581	1.845	1.608	1.343	1.110	1.079	0.896	1.004	1.376	4.857	16.06	33.80	105.3	110.9
600.0	124.8	121.5	89.54	53.95	42.66	41.45	49.75	63.33	81.31	113.1	177.5	138.1	92.48	58.65	76.34	664.3	651.9	21.75	8.110	8.408	7.503	7.857	7.522	7.984	7.952	7.696	7.934	7.929	7.904	7.893	8.193	8.012	7.445	7.248	6.773	7.016	6.760	6.024	6.072	5.589	5.197	4.995	4.642	4.524	4.202	4.318	3.843	3.725	3.331	3.009	2.665	2.455	2.325	2.237	2.466	2.805	2.534	1.982	1.619	1.478	1.322	1.281	1.336	1.223	1.425	1.564	1.231	1.065	0.883	0.867	0.856	0.752	1.535	4.039	8.099	34.93	122.5
605.0	125.5	112.0	85.23	52.51	38.68	37.67	50.13	61.59	76.64	103.4	161.4	148.2	93.82	57.34	41.09	243.5	930.7	79.24	7.968	7.556	6.779	6.851	6.722	6.754	6.802	6.345	6.589	6.936	6.792	7.434	6.820	6.941	6.741	6.464	6.219	6.198	6.222	5.302	5.016	4.741	4.431	4.150	4.114	3.943	3.756	3.885	3.535	3.157	2.794	2.457	2.390	2.139	2.177	1.952	1.782	2.323	2.396	2.056	1.445	1.372	1.157	1.148	1.175	1.129	1.287	1.378	1.445	1.007	0.907	0.761	0.707	0.604	0.708	1.273	2.252	8.366	46.56
610.0	103.4	104.6	75.53	49.08	38.51	38.92	46.37	59.44	75.93	94.46	129.6	161.7	96.39	56.82	35.70	73.71	608.4	479.9	16.96	6.439	5.801	5.776	5.485	5.473	5.869	5.352	5.830	5.534	5.854	6.261	6.066	5.759	5.920	5.785	5.823	5.500	5.547	4.871	4.471	4.039	3.655	3.295	3.384	3.297	3.118	2.977	2.819	2.563	2.363	2.046	1.965	1.740	1.751	1.710	1.540	1.565	2.028	1.957	1.473	1.127	1.119	1.084	1.042	1.112	1.069	1.145	1.228	1.121	0.932	0.721	0.707	0.578	0.593	0.680	0.874	2.213	11.01
615.0	89.10	89.26	65.72	44.71	33.19	36.20	45.01	55.83	70.45	88.80	110.5	146.5	113.3	58.65	34.32	32.82	175.2	751.6	83.68	5.647	4.691	4.541	4.715	4.622	4.488	4.368	4.761	4.344	4.542	5.257	5.051	4.963	4.893	5.342	4.769	5.109	4.795	4.308	3.757	3.138	2.720	2.667	2.779	2.578	2.488	2.491	2.256	2.071	1.834	1.622	1.601	1.523	1.566	1.362	1.229	1.356	1.502	1.727	1.506	1.256	1.076	0.875	1.125	1.039	0.964	0.945	1.014	0.952	1.011	0.813	0.675	0.518	0.680	0.595	0.437	0.805	2.746
620.0	81.52	80.70	67.96	40.25	30.99	35.20	42.60	53.50	65.95	84.52	101.4	128.1	122.5	60.81	34.39	24.65	53.23	532.5	376.0	8.331	4.409	4.026	3.996	3.995	3.965	3.672	3.599	4.055	3.686	4.641	4.422	3.896	4.140	4.444	4.147	4.479	4.431	3.864	3.225	2.750	2.368	2.123	2.116	2.090	2.110	1.968	1.954	1.794	1.480	1.419	1.311	1.176	1.225	1.240	1.096	0.991	1.146	1.170	1.415	1.217	0.942	0.768	1.010	0.966	0.786	0.893	0.936	0.986	1.216	0.855	0.736	0.580	0.512	0.500	0.434	0.462	1.013
625.0	76.13	70.61	59.54	43.69	29.31	31.08	39.53	49.55	60.45	78.35	97.18	105.4	125.4	65.00	35.27	22.65	24.17	213.6	634.9	41.72	3.883	3.519	3.363	3.495	3.250	3.123	3.188	3.119	3.529	3.880	3.842	3.365	3.387	3.778	3.580	3.591	3.637	3.184	2.649	2.437	2.200	1.811	1.839	1.596	1.712	1.801	1.544	1.401	1.316	1.211	1.016	1.021	1.070	0.947	1.035	0.863	1.017	1.063	1.037	0.985	0.967	0.727	0.845	0.743	0.793	0.784	0.806	0.806	0.922	1.021	0.751	0.492	0.547	0.456	0.373	0.385	0.497
630.0	71.61	73.79	55.45	40.20	29.09	30.09	36.78	46.06	58.26	74.59	86.72	92.64	107.4	76.46	36.10	23.02	18.64	59.76	469.9	300.8	7.487	3.114	2.993	2.761	2.915	2.556	2.573	2.541	2.677	2.778	2.847	2.797	2.920	2.860	2.822	2.798	2.856	2.662	2.146	1.901	1.821	1.538	1.422	1.259	1.332	1.410	1.183	1.168	1.123	0.999	0.873	0.900	0.866	0.865	0.820	0.719	0.763	0.791	0.741	0.894	0.960	0.673	0.676	0.622	0.665	0.692	0.735	0.700	0.737	0.797	0.853	0.672	0.522	0.374	0.357	0.332	0.324
635.0	75.08	78.09	60.21	38.60	29.56	28.49	34.03	44.66	55.86	68.52	80.53	83.37	83.98	85.22	41.77	23.99	17.44	22.75	141.5	553.5	57.06	3.037	2.444	2.220	2.365	1.911	2.225	1.900	2.295	2.094	2.261	2.388	2.204	2.338	2.102	2.242	2.101	2.022	1.693	1.527	1.462	1.319	1.110	1.119	1.081	1.089	0.994	0.887	0.832	0.777	0.755	0.716	0.655	0.756	0.754	0.574	0.574	0.613	0.601	0.714	0.782	0.637	0.639	0.490	0.634	0.524	0.693	0.575	0.550	0.653	0.657	0.654	0.501	0.431	0.382	0.303	0.354
640.0	84.32	76.63	61.81	41.56	30.99	26.86	32.76	39.57	54.85	64.31	79.06	78.56	75.05	83.10	51.09	25.73	18.30	14.66	40.30	434.6	233.3	4.616	2.403	2.381	2.123	1.960	1.886	1.710	2.136	1.792	1.757	1.924	1.740	1.918	1.947	1.916	1.768	1.436	1.411	1.224	1.135	1.213	0.911	1.008	0.929	0.883	0.918	0.744	0.693	0.684	0.650	0.657	0.670	0.672	0.514	0.455	0.519	0.445	0.431	0.551	0.750	0.661	0.670	0.518	0.559	0.561	0.597	0.587	0.682	0.511	0.606	0.580	0.553	0.465	0.366	0.322	0.260
645.0	82.85	94.99	76.91	48.08	34.03	28.10	33.32	39.68	53.85	65.20	77.35	80.58	74.77	76.63	62.04	29.84	20.19	14.40	16.87	194.7	431.9	22.50	2.345	2.007	1.811	1.679	1.838	1.551	1.741	1.615	1.365	1.642	1.560	1.749	1.584	1.686	1.423	1.229	1.221	0.971	0.836	0.901	1.003	0.846	0.761	0.858	0.716	0.832	0.677	0.632	0.562	0.506	0.576	0.483	0.489	0.445	0.516	0.494	0.452	0.441	0.573	0.698	0.663	0.541	0.454	0.578	0.520	0.489	0.476	0.469	0.522	0.491	0.638	0.498	0.452	0.341	0.337
650.0	91.41	117.5	98.95	64.57	31.96	29.45	28.59	38.99	49.89	62.88	75.77	81.95	76.83	70.73	70.57	35.20	22.66	15.93	11.87	58.69	449.1	71.76	2.790	1.662	1.582	1.722	1.471	1.449	1.219	1.437	1.316	1.298	1.329	1.247	1.513	1.295	1.208	1.063	1.004	0.820	0.818	0.808	0.885	0.798	0.683	0.809	0.727	0.827	0.711	0.620	0.531	0.557	0.430	0.409	0.469	0.452	0.481	0.365	0.454	0.473	0.494	0.547	0.631	0.509	0.427	0.456	0.452	0.494	0.436	0.495	0.421	0.488	0.537	0.505	0.444	0.289	0.315
