Sample:	'1
File name:	G2025090904山东石化污水井.FD3
Run date:	'14:22:53, 09/10/2025
Operator:	Administrator
Comment:	'

Instrument
Model:	F-2700 FL Spectrophotometer
Serial number:	24D1-003
ROM Version:	4J14000 07

Instrument parameters
Measurement type:	3-D scan
Data mode:	Fluorescence
EX  Start WL:	220.0 nm
EX  End WL:	600.0 nm
EX Sampling interval:	5.0 nm
EM  Start WL:	230.0 nm
EM  End WL:	650.0 nm
EM Sampling interval:	5.0 nm
Scan speed:	12000 nm/min
EX Slit:	5.0 nm
EM Slit:	5.0 nm
PMT Voltage:	700 V
Response:	Auto 
Corrected spectra:	Off
Contour interval:	50.000

Peak integration
Integration method:	Rectangular
Sensitivity:	1
Threshold:	1.000

Peaks
No.	ApexEX/EM(nm)	Height(Data)
1	225.0/595.0	123.7
2	230.0/305.0	1586
3	230.0/505.0	146.8
4	230.0/590.0	120.6
5	235.0/515.0	163.4
6	240.0/265.0	394.6
7	240.0/525.0	159.0
8	245.0/270.0	399.4
9	245.0/535.0	148.6
10	250.0/275.0	496.1
11	250.0/550.0	135.0
12	255.0/280.0	673.9
13	255.0/565.0	131.3
14	260.0/575.0	160.0
15	270.0/300.0	3611
16	270.0/600.0	274.0
17	275.0/305.0	4035
18	275.0/610.0	260.3
19	300.0/335.0	607.6
20	305.0/340.0	572.0
21	315.0/355.0	362.7
22	320.0/360.0	386.3
23	325.0/365.0	353.4
24	335.0/380.0	314.6
25	340.0/385.0	298.8
26	345.0/390.0	255.0
27	350.0/400.0	245.0
28	355.0/405.0	240.3
29	360.0/410.0	209.9
30	365.0/420.0	197.2
31	370.0/425.0	185.8
32	380.0/440.0	141.4
33	385.0/445.0	125.6
34	400.0/465.0	82.04
35	415.0/485.0	50.13
36	425.0/500.0	36.40
37	430.0/505.0	31.40
38	440.0/520.0	22.47
39	445.0/525.0	18.87
40	455.0/540.0	12.74
41	460.0/305.0	5.409
42	465.0/555.0	8.331
43	470.0/560.0	7.032
44	495.0/270.0	2.272
45	505.0/275.0	3.181
46	510.0/280.0	3.693
47	540.0/295.0	13.36
48	545.0/300.0	16.35
49	550.0/305.0	16.31
50	560.0/310.0	13.63

Data points
	220.0	225.0	230.0	235.0	240.0	245.0	250.0	255.0	260.0	265.0	270.0	275.0	280.0	285.0	290.0	295.0	300.0	305.0	310.0	315.0	320.0	325.0	330.0	335.0	340.0	345.0	350.0	355.0	360.0	365.0	370.0	375.0	380.0	385.0	390.0	395.0	400.0	405.0	410.0	415.0	420.0	425.0	430.0	435.0	440.0	445.0	450.0	455.0	460.0	465.0	470.0	475.0	480.0	485.0	490.0	495.0	500.0	505.0	510.0	515.0	520.0	525.0	530.0	535.0	540.0	545.0	550.0	555.0	560.0	565.0	570.0	575.0	580.0	585.0	590.0	595.0	600.0
230.0	32.35	455.6	1420	375.6	20.20	8.420	7.066	6.162	5.298	5.301	4.873	4.632	3.652	3.351	2.442	2.381	1.974	1.593	1.478	1.442	1.359	1.225	1.173	1.101	0.947	0.962	0.923	0.871	0.896	0.804	0.799	0.813	0.695	0.663	0.635	0.667	0.605	0.600	0.589	0.569	0.495	0.505	0.545	0.473	0.441	0.475	0.563	1.938	4.398	4.113	1.800	0.563	0.446	0.389	0.386	0.400	0.414	0.460	0.425	0.384	0.387	0.413	0.452	0.401	0.420	0.454	0.436	0.460	0.432	0.450	0.393	0.453	0.432	0.490	0.514	0.504	0.492
235.0	37.73	138.0	1079	2548	450.3	33.92	7.764	5.721	6.738	5.377	4.615	4.598	3.713	3.172	2.362	2.366	1.751	1.629	1.733	1.300	1.591	1.225	1.006	1.142	0.974	0.984	0.844	0.813	0.822	0.736	0.835	0.943	0.651	0.723	0.553	0.688	0.647	0.652	0.586	0.590	0.457	0.525	0.598	0.483	0.586	0.573	0.431	0.880	1.844	4.251	7.478	8.496	5.136	1.397	0.413	0.431	0.382	0.532	0.447	0.420	0.468	0.437	0.409	0.397	0.405	0.493	0.345	0.416	0.411	0.492	0.416	0.390	0.416	0.468	0.458	0.609	0.507
240.0	62.80	71.53	339.5	2373	3320	366.5	17.81	7.288	7.665	5.699	4.898	4.780	4.054	3.429	2.589	2.642	1.977	1.716	1.652	1.504	1.656	1.328	1.183	1.214	0.990	0.784	0.751	0.839	0.819	0.838	0.760	0.914	0.714	0.694	0.593	0.644	0.620	0.648	0.600	0.573	0.596	0.556	0.471	0.505	0.650	0.689	0.592	0.668	0.779	1.447	4.161	10.59	15.04	11.33	4.038	0.821	0.387	0.488	0.390	0.343	0.402	0.543	0.451	0.377	0.439	0.406	0.420	0.403	0.434	0.413	0.489	0.382	0.418	0.505	0.442	0.480	0.456
245.0	53.62	107.8	118.3	794.3	3648	3179	289.0	12.52	7.429	6.955	5.524	5.197	4.948	3.472	2.896	3.071	2.116	1.820	1.664	1.491	1.435	1.388	1.216	1.124	0.955	0.984	0.947	0.888	1.004	1.000	0.771	0.940	0.679	0.674	0.603	0.602	0.563	0.566	0.517	0.578	0.544	0.466	0.450	0.503	0.585	0.529	0.650	0.730	0.694	0.637	1.292	3.584	8.946	16.91	18.28	10.24	2.935	0.506	0.449	0.366	0.358	0.510	0.450	0.425	0.458	0.338	0.367	0.306	0.463	0.490	0.434	0.386	0.392	0.425	0.468	0.540	0.469
250.0	34.39	96.10	185.1	253.1	1131	3333	3883	1167	67.18	8.278	6.557	5.695	5.457	3.675	3.153	2.610	2.284	1.980	1.793	1.456	1.415	1.430	1.193	1.304	1.122	1.023	1.013	0.896	1.008	0.994	0.755	0.818	0.744	0.668	0.663	0.649	0.532	0.603	0.594	0.652	0.560	0.523	0.517	0.476	0.547	0.504	0.497	0.725	0.958	0.892	0.838	1.222	2.408	5.299	9.570	14.34	17.35	15.53	8.955	2.768	0.689	0.494	0.515	0.513	0.520	0.423	0.419	0.474	0.458	0.451	0.401	0.490	0.514	0.437	0.442	0.480	0.450
255.0	30.37	44.40	142.4	326.6	337.0	821.5	2815	5943	1700	66.76	10.26	6.431	6.129	4.096	3.575	3.167	2.318	2.014	1.833	1.655	1.440	1.248	1.420	1.281	1.175	1.083	0.880	0.960	1.182	0.903	0.697	0.826	0.500	0.651	0.666	0.658	0.590	0.579	0.530	0.540	0.541	0.532	0.499	0.485	0.536	0.526	0.481	0.525	0.641	0.817	1.233	1.571	1.391	1.530	2.434	3.670	5.683	13.17	24.08	25.61	14.00	3.062	0.656	0.390	0.390	0.420	0.384	0.462	0.378	0.544	0.456	0.441	0.403	0.349	0.395	0.409	0.398
260.0	25.37	26.94	64.15	288.9	330.3	232.7	812.9	4422	6525	1242	31.85	8.148	6.627	4.533	4.109	2.806	2.896	1.887	1.441	1.618	1.522	1.251	1.381	1.298	1.357	1.207	1.165	1.197	0.977	0.816	0.883	0.911	0.553	0.668	0.598	0.739	0.780	0.540	0.451	0.567	0.530	0.545	0.524	0.556	0.498	0.519	0.556	0.535	0.529	0.546	0.878	1.645	2.050	1.427	1.051	1.228	1.747	3.714	10.01	22.02	30.79	24.06	9.819	1.379	0.467	0.500	0.386	0.531	0.483	0.432	0.468	0.535	0.443	0.499	0.389	0.419	0.478
265.0	22.83	25.67	27.28	126.3	394.6	261.3	216.5	1343	5766	6583	223.9	15.71	8.304	5.995	3.786	3.387	3.034	2.546	1.660	1.698	1.854	1.438	1.445	1.351	1.296	1.290	1.063	1.019	0.950	1.007	0.888	0.863	0.615	0.747	0.712	0.587	0.763	0.600	0.500	0.545	0.553	0.556	0.541	0.530	0.512	0.490	0.428	0.485	0.423	0.458	0.497	0.919	1.816	2.292	2.027	1.009	0.885	1.233	2.694	6.419	15.08	29.26	32.12	20.91	5.587	0.757	0.486	0.521	0.566	0.434	0.465	0.524	0.433	0.424	0.384	0.473	0.492
270.0	31.76	28.08	22.68	44.15	177.0	399.4	287.9	350.4	1646	5133	7032	2689	71.48	9.060	5.356	3.889	3.167	2.641	1.839	1.773	1.793	1.548	1.251	1.283	1.295	1.211	1.134	1.022	1.015	1.012	0.918	0.914	0.767	0.726	0.662	0.657	0.649	0.569	0.662	0.523	0.521	0.489	0.525	0.471	0.568	0.514	0.443	0.551	0.425	0.433	0.407	0.585	0.869	1.193	1.961	2.272	2.048	1.424	1.117	1.844	3.921	8.254	15.25	24.99	28.12	28.69	14.09	4.981	0.740	0.476	0.527	0.544	0.467	0.461	0.534	0.583	0.494
275.0	46.44	55.94	48.15	35.58	56.93	165.8	496.1	348.7	433.2	1260	3684	9949	1388	87.79	10.44	5.239	3.938	2.893	2.432	2.364	2.081	1.731	1.495	1.361	1.259	1.063	1.141	1.065	1.209	1.010	0.932	0.837	0.840	0.832	0.767	0.752	0.746	0.603	0.578	0.441	0.544	0.585	0.429	0.514	0.533	0.545	0.564	0.675	0.528	0.551	0.485	0.507	0.559	0.688	0.750	1.222	2.018	3.181	2.681	1.478	1.383	2.482	3.960	6.435	8.782	19.23	37.86	32.25	22.05	5.057	0.710	0.605	0.527	0.550	0.587	0.509	0.601
280.0	86.50	146.7	149.7	75.36	46.55	73.15	308.2	673.9	325.3	476.9	1200	5973	9999.9	1111	57.22	7.711	4.616	3.605	2.731	2.300	2.314	1.864	1.684	1.415	1.181	0.842	1.144	1.125	1.193	1.121	0.983	0.994	0.867	1.007	0.683	0.766	0.677	0.604	0.620	0.557	0.668	0.734	0.543	0.615	0.589	0.712	0.774	0.862	0.910	0.747	0.586	0.620	0.602	0.544	0.583	0.697	1.055	2.100	3.693	3.502	2.272	1.815	1.938	2.712	3.258	6.057	13.55	29.25	50.87	31.10	15.31	1.993	0.569	0.539	0.564	0.437	0.609
285.0	206.6	421.8	404.5	187.6	82.86	82.81	190.1	645.4	928.5	716.8	996.6	2322	7099	9374	839.1	25.52	6.436	4.640	3.286	2.645	2.333	2.044	1.752	1.558	1.366	1.085	1.159	1.025	1.154	1.036	1.098	0.911	0.916	0.814	0.792	0.652	0.655	0.644	0.598	0.543	0.647	0.766	0.665	0.634	0.733	0.911	1.178	1.644	1.713	1.334	0.921	0.827	0.703	0.584	0.670	0.675	1.089	1.379	2.257	3.951	5.057	4.154	3.244	3.352	3.728	4.641	6.489	10.34	22.09	39.77	54.04	26.58	8.273	0.827	0.619	0.497	0.565
290.0	429.7	894.6	915.2	405.0	160.2	148.7	254.0	570.2	1232	1772	1758	2162	3066	5905	7608	2996	46.26	6.326	4.207	3.446	2.828	2.253	1.882	1.779	1.544	1.412	1.325	1.127	1.213	1.067	1.094	1.007	0.946	1.001	0.873	0.735	0.823	0.741	0.602	0.698	0.626	0.636	0.735	0.800	1.052	1.698	2.330	3.075	3.282	2.640	1.714	1.346	1.159	0.884	0.907	1.005	1.281	1.569	2.223	3.042	4.512	6.283	7.521	7.679	7.198	7.508	8.249	8.462	10.76	14.78	22.53	32.01	41.60	36.88	16.73	6.434	0.903
295.0	616.7	1337	1341	606.7	237.8	215.9	353.0	678.3	1287	2310	3189	2895	2602	2229	2896	9022	4352	57.97	6.372	4.457	3.188	2.451	2.243	1.780	1.552	1.483	1.480	1.378	1.228	1.035	1.060	1.209	0.948	1.153	0.968	0.810	0.865	0.645	0.482	0.705	0.659	0.725	0.764	0.817	1.374	2.343	3.214	4.512	4.592	3.770	2.528	1.848	1.542	1.042	1.100	1.313	1.750	2.005	2.831	3.532	4.862	6.299	8.069	11.08	13.36	12.72	11.72	11.20	11.01	10.43	9.843	9.634	11.88	21.70	44.37	57.65	25.91
300.0	696.9	1560	1559	694.9	279.1	255.6	407.3	757.0	1372	2289	3611	3608	2706	1529	932.8	4021	9893	692.3	37.53	5.739	4.130	3.257	2.361	1.988	1.772	1.566	1.496	1.336	1.257	1.069	1.166	1.036	1.017	0.979	0.954	0.927	0.939	0.820	0.621	0.714	0.698	0.678	0.842	1.078	1.582	2.578	3.580	5.130	5.249	4.168	2.871	2.152	1.747	1.191	1.224	1.558	1.750	2.447	3.280	3.874	5.125	6.754	8.558	10.40	13.20	16.35	15.38	13.25	12.10	10.41	7.604	5.154	4.268	6.060	14.22	36.87	59.49
305.0	726.6	1584	1586	749.8	308.3	276.8	441.9	785.7	1388	2268	3339	4035	2986	1431	518.3	1077	5331	8671	570.5	17.92	5.134	3.579	2.654	2.539	1.916	1.582	1.635	1.447	1.238	1.196	1.456	1.074	1.156	1.033	0.883	0.952	0.828	0.805	0.687	0.859	0.762	0.636	0.842	1.110	1.624	2.640	3.735	5.399	5.409	4.251	3.082	2.155	1.855	1.379	1.365	1.612	1.935	2.476	2.958	4.359	5.166	6.595	8.867	10.22	12.36	14.49	16.31	15.71	13.11	10.79	7.294	4.237	2.668	2.394	4.105	9.862	22.65
310.0	628.7	1435	1473	691.9	300.2	283.2	437.6	750.3	1298	2058	2863	3407	3124	1582	472.3	384.2	1363	4476	5543	2355	34.57	5.291	3.572	2.862	2.335	1.843	1.646	1.481	1.352	1.148	1.278	1.096	1.068	1.049	0.918	0.895	0.896	0.891	0.750	0.779	0.746	0.704	0.829	1.077	1.465	2.345	3.487	4.794	5.090	3.954	2.793	2.145	1.748	1.359	1.404	1.588	1.861	2.447	2.964	4.024	5.025	6.190	7.948	9.179	10.64	12.31	13.10	13.47	13.63	12.19	8.262	4.470	2.516	1.877	2.070	3.178	5.981
315.0	526.5	1203	1243	598.5	287.2	283.1	410.1	672.5	1112	1752	2396	2659	2449	1776	668.4	271.1	422.2	1090	2043	7234	3394	44.25	5.537	3.529	2.475	1.862	2.126	1.517	1.318	1.242	1.377	1.099	1.054	1.027	0.867	1.013	0.900	0.806	0.660	0.702	0.703	0.707	0.809	0.993	1.320	2.009	2.872	4.192	4.550	3.382	2.536	1.933	1.495	1.254	1.370	1.500	1.834	2.256	2.695	3.638	4.261	5.461	6.843	7.647	9.329	9.899	10.23	10.48	9.770	9.900	8.748	6.379	3.566	2.180	1.795	1.661	2.321
320.0	445.0	1022	1064	538.3	273.7	272.2	378.0	611.9	984.9	1504	2041	2228	1987	1486	970.7	344.2	242.5	349.7	532.9	3153	7797	2365	30.40	4.322	2.933	2.200	2.208	1.660	1.471	1.411	1.248	1.039	1.135	0.944	0.811	0.921	0.851	0.871	0.722	0.645	0.671	0.762	0.753	0.846	1.262	1.756	2.506	3.471	3.928	2.939	2.340	1.663	1.387	1.263	1.484	1.461	1.792	2.154	2.460	3.225	3.865	4.776	5.906	6.728	7.896	8.822	8.914	8.752	8.382	8.043	6.699	6.119	5.519	3.313	2.141	1.742	1.398
325.0	390.8	890.1	975.2	511.7	276.7	263.3	364.5	547.6	874.8	1297	1748	1915	1693	1149	958.5	602.7	243.5	202.3	192.8	797.9	4235	7223	457.6	15.88	3.938	2.890	2.062	1.787	1.764	1.542	1.520	1.156	1.060	1.142	0.922	0.757	0.800	0.870	0.776	0.710	0.649	0.764	0.674	0.745	1.220	1.446	2.141	3.239	3.548	2.838	2.076	1.781	1.473	1.512	1.345	1.432	1.685	1.890	2.332	2.679	3.315	4.336	5.225	6.074	6.723	7.378	7.682	7.894	7.441	7.015	5.355	4.626	4.698	4.801	3.709	2.158	1.493
330.0	317.2	738.2	857.5	533.4	307.1	270.2	335.1	487.7	733.4	1084	1425	1565	1409	965.4	690.0	691.1	480.1	212.2	136.6	242.5	1053	3623	5432	1892	29.00	4.297	2.794	2.419	1.887	1.670	1.443	1.234	1.041	1.307	0.914	0.888	0.878	0.802	0.727	0.741	0.626	0.601	0.722	0.804	1.123	1.366	1.840	2.779	3.006	2.611	2.035	1.968	1.653	1.516	1.480	1.479	1.607	1.728	2.219	2.480	2.996	3.542	4.214	4.993	5.438	5.875	6.287	6.388	6.238	5.816	4.626	3.678	3.300	3.487	3.938	4.019	3.331
335.0	248.1	612.2	738.8	518.4	353.6	292.2	320.1	438.0	639.8	899.6	1170	1283	1180	864.4	594.0	495.0	607.6	422.0	163.2	141.3	296.4	850.4	1918	6068	2811	39.78	4.213	2.846	2.182	1.664	1.392	1.346	1.124	1.168	1.070	0.970	0.762	0.773	0.783	0.783	0.605	0.738	0.701	0.822	0.993	1.255	1.507	2.211	2.602	2.328	2.024	2.097	1.800	1.530	1.554	1.424	1.574	1.708	2.078	2.430	2.645	2.963	3.589	4.153	4.684	5.055	5.301	5.160	5.168	5.039	4.078	3.345	3.107	2.865	2.592	3.110	3.768
340.0	217.6	524.0	661.5	513.9	374.9	307.3	318.9	409.1	575.4	792.0	1016	1105	1042	805.5	565.4	429.6	465.6	572.0	269.0	135.7	140.0	240.1	478.5	2763	6520	2016	26.71	3.701	2.593	1.800	1.553	1.341	1.394	1.014	1.028	0.919	0.937	0.854	0.723	0.637	0.635	0.631	0.669	0.820	0.865	1.196	1.443	1.938	2.410	2.131	1.966	1.940	2.012	1.782	1.446	1.609	1.779	1.891	1.995	2.028	2.437	2.632	3.144	3.649	3.917	4.427	4.380	4.627	4.560	4.574	4.203	3.473	2.928	2.557	2.480	2.504	2.648
345.0	197.4	455.5	604.1	495.3	380.2	310.2	314.7	390.4	527.9	704.3	903.8	968.1	921.4	727.6	540.0	413.6	357.7	481.7	434.9	177.5	114.0	112.9	152.0	697.9	3698	5858	388.9	13.94	3.225	2.391	1.721	1.539	1.446	1.081	1.070	0.952	0.805	0.783	0.794	0.635	0.756	0.647	0.674	0.706	0.793	1.133	1.335	1.806	2.227	2.170	1.951	1.826	2.007	1.751	1.614	1.590	1.819	1.766	1.847	2.031	2.352	2.579	2.959	3.405	3.470	3.787	4.245	4.192	4.011	4.123	3.846	3.209	2.891	2.538	2.504	2.263	2.274
350.0	172.2	370.9	522.4	479.7	389.5	320.7	318.9	379.0	481.9	622.1	764.3	827.6	791.5	660.1	520.2	399.6	327.4	329.6	405.5	351.1	161.4	103.8	93.64	200.1	923.4	3020	3643	1607	25.63	3.334	2.371	1.776	1.474	1.128	0.979	1.061	0.818	0.753	0.731	0.739	0.772	0.722	0.714	0.696	0.698	0.996	1.203	1.703	1.920	1.923	1.758	1.889	1.996	1.705	1.560	1.618	1.544	1.709	1.785	1.952	2.257	2.497	2.668	2.817	3.264	3.285	3.562	3.509	3.595	3.552	3.343	2.955	2.777	2.567	2.528	2.344	2.242
355.0	149.0	326.3	467.8	442.0	385.6	324.8	322.4	370.6	454.1	556.4	659.4	711.8	697.5	593.0	485.8	389.0	324.3	287.6	279.8	362.7	322.4	141.2	98.36	104.6	249.8	707.0	1440	4872	2389	30.60	3.456	2.129	1.640	1.327	1.077	1.139	1.010	0.809	0.793	0.744	0.822	0.681	0.727	0.672	0.738	0.836	1.066	1.420	1.602	1.638	1.491	1.772	1.963	1.723	1.646	1.649	1.666	1.660	1.769	1.995	2.073	2.226	2.528	2.516	2.905	2.874	2.975	3.130	3.055	2.785	2.950	3.014	2.670	2.534	2.490	2.243	2.236
360.0	120.9	298.0	426.3	422.6	381.6	332.1	326.5	359.8	438.7	512.9	603.6	639.1	633.5	550.8	467.8	380.6	326.6	280.7	247.7	274.9	386.3	242.9	119.5	96.35	108.4	195.6	360.3	2253	5320	391.8	20.96	3.023	2.029	1.539	1.144	1.059	1.003	0.800	0.801	0.807	0.804	0.585	0.601	0.719	0.748	0.825	0.996	1.383	1.573	1.520	1.550	1.689	1.831	1.626	1.693	1.729	1.665	1.823	1.611	1.810	1.992	2.253	2.373	2.455	2.582	2.693	2.716	2.843	2.841	2.655	2.750	2.697	2.592	2.427	2.496	2.269	2.219
365.0	119.7	266.2	384.0	399.5	371.1	340.1	324.4	359.6	419.2	482.5	556.4	581.9	585.7	519.3	446.6	368.0	323.1	280.0	246.8	237.5	310.6	353.4	177.8	105.3	88.30	92.18	113.7	569.6	3038	4603	345.2	6.440	2.446	1.923	1.390	1.201	0.931	0.827	0.823	0.809	0.718	0.605	0.712	0.756	0.675	0.828	0.929	1.278	1.411	1.425	1.550	1.633	1.896	1.540	1.679	1.639	1.774	1.730	1.727	1.768	2.042	1.970	2.226	2.340	2.510	2.389	2.542	2.539	2.549	2.873	2.510	2.421	2.396	2.403	2.336	2.007	2.045
370.0	108.4	231.9	345.6	375.8	360.2	334.4	329.0	349.1	396.3	452.1	512.1	525.6	517.8	472.3	419.8	353.4	315.2	282.4	256.0	236.3	241.9	305.5	302.8	169.0	103.4	82.27	70.44	160.5	760.1	2733	3336	1145	18.07	2.672	1.649	1.390	1.117	0.947	0.834	0.767	0.732	0.711	0.763	0.731	0.773	0.884	0.880	1.153	1.335	1.409	1.375	1.545	1.869	1.622	1.550	1.594	1.670	1.554	1.729	1.636	1.998	1.895	2.114	2.195	2.259	2.237	2.408	2.482	2.507	2.458	2.359	2.281	2.264	2.399	2.392	2.048	2.171
375.0	93.40	206.8	310.7	355.0	359.0	339.1	324.2	348.2	382.5	426.2	471.2	479.1	464.1	431.8	393.4	339.7	307.1	280.4	262.8	243.0	233.1	235.9	291.7	297.2	151.4	98.99	76.15	80.70	200.8	636.7	1409	4321	1622	22.32	2.314	1.669	1.347	1.028	0.870	0.976	0.760	0.761	0.862	0.653	0.737	0.770	0.877	1.055	1.093	1.251	1.280	1.435	1.716	1.657	1.675	1.530	1.559	1.668	1.690	1.731	1.714	1.993	1.943	2.005	2.120	2.361	2.212	2.405	2.267	2.237	2.254	2.120	2.234	2.216	2.156	1.954	2.101
380.0	92.31	191.4	292.9	339.2	355.9	338.4	332.4	340.3	371.9	406.2	447.8	447.0	436.5	406.1	368.1	325.0	299.3	282.0	263.8	249.3	234.8	221.1	236.5	314.6	234.5	120.6	89.13	71.96	84.31	170.1	350.0	2408	4183	315.7	12.24	2.084	1.739	1.217	1.021	0.874	0.896	0.693	0.777	0.731	0.697	0.788	0.850	0.971	1.078	1.162	1.265	1.427	1.665	1.575	1.764	1.555	1.511	1.548	1.604	1.822	1.913	1.771	1.824	1.913	2.266	2.337	2.151	2.233	2.356	2.228	2.171	2.126	2.318	2.002	2.253	1.952	1.858
385.0	95.75	178.9	277.0	328.0	345.9	336.6	332.3	340.0	364.1	392.0	424.7	427.8	415.5	378.2	350.8	314.1	289.6	280.3	267.7	251.8	238.0	223.2	216.4	253.8	298.8	174.2	103.5	78.76	66.88	72.58	103.7	635.0	2861	2591	252.1	5.330	2.072	1.586	1.111	0.947	0.845	0.698	0.652	0.827	0.767	0.818	0.923	1.088	1.118	1.117	1.357	1.489	1.647	1.484	1.670	1.486	1.536	1.642	1.635	1.807	1.882	1.899	1.835	1.907	1.881	2.087	2.006	2.158	2.075	2.047	2.068	1.993	2.199	1.896	2.035	2.034	2.097
390.0	87.28	172.5	261.7	315.1	335.4	336.4	330.5	332.5	358.2	378.2	404.2	401.9	389.3	363.9	335.3	299.6	281.8	272.2	262.3	253.3	242.9	231.8	218.2	214.5	251.3	255.0	158.8	97.13	75.04	62.17	57.31	165.8	747.0	1980	2534	882.4	14.79	2.147	1.553	1.160	0.958	0.794	0.718	0.708	0.704	0.799	0.855	1.023	1.092	1.140	1.226	1.416	1.641	1.531	1.706	1.588	1.532	1.695	1.726	1.720	1.696	1.784	1.805	1.874	1.797	1.851	2.067	2.003	1.818	2.020	1.912	2.015	1.940	1.876	1.884	2.017	2.040
395.0	81.29	155.5	245.5	311.3	331.7	334.8	322.2	334.5	352.0	368.1	384.7	380.3	367.3	347.5	316.1	288.8	271.2	264.7	262.2	250.7	244.7	235.2	225.0	211.0	207.4	228.9	242.7	139.8	92.15	71.23	57.16	68.50	189.2	464.1	1182	3057	1273	19.08	2.006	1.539	1.148	1.008	0.774	0.730	0.654	0.819	0.728	0.979	1.028	1.127	1.134	1.468	1.610	1.441	1.680	1.615	1.591	1.656	1.768	1.700	1.607	1.823	1.829	1.863	1.703	1.898	1.896	1.915	1.980	1.815	1.701	1.842	1.855	1.824	1.888	1.985	1.867
400.0	78.19	153.6	236.5	308.8	332.1	333.3	327.7	331.5	344.6	367.2	378.1	371.0	355.9	327.8	305.9	283.1	267.9	258.8	254.1	248.8	243.8	236.5	227.0	211.9	198.6	194.9	245.0	202.7	113.9	82.71	64.94	52.61	69.55	123.8	296.0	1664	3023	270.3	10.42	1.958	1.324	1.020	0.876	0.821	0.749	0.976	0.740	0.946	0.964	1.094	1.023	1.352	1.434	1.392	1.462	1.733	1.715	1.491	1.774	1.751	1.731	1.815	1.800	1.675	1.722	1.808	1.698	1.625	1.916	1.737	1.575	1.793	1.748	1.866	1.750	1.995	2.009
405.0	83.37	144.5	223.2	302.6	319.5	330.3	327.9	333.7	347.8	359.4	363.7	366.8	346.2	321.5	298.8	269.2	257.8	253.1	246.5	241.4	239.8	235.0	226.0	215.1	196.9	184.6	204.7	240.3	158.6	94.90	74.46	56.11	48.80	51.52	83.71	433.8	1992	2184	221.1	4.112	1.478	1.226	0.827	0.913	0.845	0.876	0.718	0.923	0.997	1.031	1.012	1.282	1.494	1.536	1.545	1.521	1.738	1.613	1.824	1.655	1.743	1.500	1.754	1.889	1.673	1.620	1.636	1.611	1.972	1.885	1.535	1.757	1.687	1.938	1.662	1.945	1.787
410.0	74.34	139.6	214.2	281.1	314.0	324.7	332.4	333.1	335.7	353.2	357.6	357.4	333.7	308.9	282.2	259.8	246.5	241.4	236.2	234.4	232.2	230.0	224.0	214.1	200.3	185.1	177.7	200.6	209.9	138.3	89.36	65.86	51.56	42.26	41.20	113.0	515.1	1478	1953	712.4	13.38	1.683	1.147	1.071	0.888	0.812	0.791	0.951	1.012	1.049	1.042	1.460	1.454	1.499	1.585	1.546	1.741	1.667	1.663	1.662	1.523	1.683	1.750	1.690	1.643	1.577	1.654	1.753	1.825	1.807	1.679	1.649	1.777	1.729	1.733	1.701	1.744
415.0	72.49	129.0	214.9	278.1	306.3	310.9	326.6	325.1	328.6	342.0	348.8	338.0	313.7	289.3	268.3	249.3	235.5	228.4	226.0	221.2	220.7	220.6	217.4	207.9	198.7	186.3	172.0	166.9	184.1	196.7	123.7	76.74	60.19	46.65	37.23	45.88	129.7	343.9	878.0	2202	932.9	16.93	1.628	1.207	1.003	0.813	0.866	1.067	1.014	1.085	1.048	1.487	1.594	1.576	1.503	1.611	1.714	1.651	1.707	1.697	1.799	1.698	1.509	1.698	1.714	1.603	1.642	1.740	1.716	1.629	1.611	1.659	1.718	1.650	1.667	1.698	1.790
420.0	72.53	126.4	214.8	263.1	302.8	321.1	322.7	329.1	331.7	334.3	339.7	332.4	307.6	280.0	260.3	233.3	220.9	219.0	215.0	213.5	212.3	213.6	208.5	205.1	194.6	184.4	170.5	159.5	156.7	197.2	166.7	89.31	66.36	52.69	39.87	33.58	45.83	89.11	217.0	1197	2167	246.4	9.192	1.537	1.283	0.910	0.893	1.104	1.019	0.973	0.987	1.377	1.408	1.505	1.571	1.507	1.783	1.611	1.666	1.599	1.753	1.664	1.727	1.616	1.602	1.738	1.781	1.749	1.437	1.653	1.617	1.670	1.523	1.572	1.626	1.688	1.506
425.0	68.25	126.9	203.9	260.4	288.9	319.8	320.9	325.9	324.7	334.2	338.0	327.4	296.3	271.8	247.9	223.7	214.9	208.3	204.4	202.2	204.6	207.0	202.1	199.8	191.5	180.5	170.4	156.5	150.3	165.3	185.8	119.1	73.25	57.68	43.99	33.61	29.78	33.95	59.03	310.8	1407	1798	204.8	3.798	1.372	1.004	1.064	1.016	1.130	0.941	0.989	1.305	1.584	1.393	1.605	1.539	1.474	1.621	1.531	1.612	1.847	1.820	1.645	1.823	1.612	1.663	1.690	1.522	1.507	1.698	1.539	1.529	1.678	1.588	1.460	1.614	1.564
430.0	69.80	118.2	198.0	250.9	290.3	312.5	317.9	322.0	323.7	329.7	328.7	314.1	286.7	258.1	235.3	213.7	202.7	196.6	193.8	192.5	193.5	193.3	192.7	190.8	184.7	178.0	168.1	157.2	149.0	144.7	157.9	154.1	101.1	66.17	50.47	38.76	31.04	25.14	26.24	79.24	359.8	1110	1534	585.2	12.71	1.561	1.147	1.208	1.132	1.083	0.959	1.309	1.478	1.427	1.589	1.542	1.722	1.713	1.736	1.586	1.646	1.723	1.699	1.569	1.689	1.591	1.508	1.607	1.557	1.698	1.538	1.555	1.413	1.423	1.440	1.598	1.561
435.0	91.73	113.0	183.5	244.0	285.9	298.4	315.7	321.4	320.2	326.7	320.6	306.2	276.3	248.4	222.9	204.2	191.7	183.9	184.2	182.1	179.1	181.2	183.8	180.2	176.3	171.5	162.6	156.5	149.6	138.9	134.4	141.2	139.7	87.12	57.07	45.38	35.32	27.29	22.31	29.74	89.22	257.8	661.0	1766	864.8	17.36	1.610	1.239	1.203	1.238	1.044	1.356	1.543	1.397	1.579	1.407	1.681	1.776	1.641	1.636	1.638	1.579	1.625	1.701	1.708	1.503	1.558	1.591	1.469	1.534	1.528	1.303	1.307	1.393	1.403	1.443	1.783
440.0	122.1	121.5	183.7	238.5	278.9	293.6	304.6	322.4	318.5	321.3	312.7	299.1	275.3	239.5	215.4	193.4	183.9	176.9	176.8	174.4	173.4	172.0	174.1	174.4	170.3	166.5	160.3	154.5	148.3	138.3	128.7	120.9	141.4	112.2	66.58	49.08	40.18	29.67	23.62	20.64	30.76	66.30	162.8	957.4	1892	232.7	8.882	1.398	1.295	1.159	1.168	1.334	1.529	1.436	1.498	1.425	1.533	1.727	1.686	1.762	1.721	1.544	1.552	1.692	1.784	1.584	1.584	1.539	1.485	1.462	1.555	1.269	1.419	1.329	1.475	1.331	1.544
445.0	139.9	145.6	175.0	228.6	270.4	294.2	306.0	313.2	313.3	316.7	306.8	296.3	263.4	236.2	208.6	187.9	176.2	169.5	166.8	164.8	163.0	164.5	166.0	164.9	166.1	163.1	156.2	151.6	145.5	138.9	128.9	112.5	120.5	125.6	85.96	54.01	43.14	33.41	26.51	21.07	19.45	24.87	44.88	248.2	1223	1609	175.2	4.341	1.379	1.188	1.069	1.282	1.636	1.552	1.431	1.405	1.680	1.658	1.588	1.594	1.647	1.532	1.729	1.512	1.626	1.603	1.329	1.456	1.507	1.515	1.487	1.314	1.497	1.324	1.313	1.254	1.318
450.0	117.0	275.4	194.5	217.3	262.4	281.9	294.8	299.7	304.5	303.2	291.4	277.1	250.0	222.7	197.9	174.9	164.3	158.3	155.9	153.4	152.2	150.7	154.7	153.7	154.2	152.2	147.2	144.5	141.7	135.3	125.9	111.5	103.5	107.9	105.5	72.02	48.03	37.25	30.35	24.41	21.00	18.32	20.29	63.79	312.3	964.8	1338	515.5	11.16	1.498	1.296	1.463	1.511	1.504	1.374	1.382	1.561	1.660	1.545	1.557	1.573	1.625	1.582	1.504	1.583	1.460	1.388	1.442	1.379	1.374	1.428	1.335	1.320	1.203	1.346	1.303	1.339
455.0	69.18	395.1	386.3	214.2	244.4	269.3	276.9	289.2	293.7	283.0	275.4	260.0	235.6	207.7	184.0	162.4	153.3	146.0	143.0	140.9	138.6	138.1	139.8	142.6	141.7	139.9	137.1	137.0	132.2	127.9	119.8	105.9	95.52	89.93	94.98	91.94	61.39	41.12	33.93	28.44	24.21	20.00	17.28	23.45	76.96	222.7	555.8	1435	666.8	12.87	1.560	1.626	1.647	1.336	1.332	1.314	1.475	1.481	1.460	1.434	1.447	1.547	1.425	1.504	1.488	1.313	1.477	1.435	1.328	1.229	1.325	1.154	1.300	1.262	1.207	1.263	1.217
460.0	57.19	347.4	724.3	253.9	238.0	254.9	271.4	271.2	285.4	271.6	261.1	246.3	220.0	196.7	172.0	151.1	143.5	139.0	132.1	129.0	127.7	127.7	129.9	131.1	132.1	131.1	128.8	128.3	125.5	122.0	116.5	103.8	91.99	82.71	81.08	90.61	75.51	46.56	35.83	30.76	26.19	21.75	18.00	15.72	25.01	55.91	135.5	755.8	1431	174.1	7.782	1.846	1.519	1.306	1.350	1.409	1.543	1.467	1.414	1.510	1.417	1.485	1.596	1.531	1.322	1.219	1.345	1.428	1.382	1.238	1.261	1.271	1.315	1.083	1.255	1.173	1.122
465.0	58.11	183.4	979.1	498.6	227.1	242.0	262.0	254.6	272.4	254.3	248.0	234.7	212.4	189.0	160.8	142.4	133.2	127.7	123.1	120.9	117.9	117.7	120.1	121.5	122.4	121.4	120.0	119.6	119.5	115.6	109.9	99.05	88.48	78.84	72.46	76.68	82.04	57.62	39.24	32.88	27.53	22.90	18.42	14.68	14.40	18.93	35.46	192.7	924.0	1160	144.6	3.790	1.564	1.542	1.527	1.421	1.379	1.405	1.366	1.403	1.445	1.365	1.466	1.382	1.276	1.268	1.361	1.280	1.276	1.209	1.202	1.310	1.264	1.093	1.177	1.215	1.298
470.0	51.54	111.4	672.4	1225	323.0	222.5	233.3	237.7	242.3	235.8	226.8	215.4	195.5	170.0	147.6	130.4	121.4	114.6	110.4	107.4	107.8	105.5	106.9	108.5	109.6	108.5	107.7	107.7	108.4	105.7	101.6	92.11	82.14	73.75	65.13	62.18	68.47	67.45	47.96	33.60	28.13	23.48	18.92	14.75	12.33	11.05	13.37	47.32	234.9	712.9	933.3	378.5	12.60	1.699	1.498	1.497	1.348	1.468	1.320	1.239	1.344	1.297	1.350	1.342	1.184	1.169	1.176	1.224	1.241	1.189	1.119	1.128	1.124	1.136	1.081	1.134	1.164
475.0	56.29	81.85	264.2	1448	980.3	207.9	213.0	217.1	223.3	211.9	208.2	193.3	176.8	151.4	132.4	117.0	110.1	101.3	98.05	95.01	94.71	92.66	95.13	94.94	96.14	94.27	97.22	97.17	97.08	95.51	90.59	84.28	76.33	67.63	60.08	55.26	52.95	59.11	58.20	37.99	28.13	23.44	19.62	15.34	12.40	9.784	8.664	15.08	56.22	163.7	374.5	962.9	546.2	16.78	1.711	1.417	1.511	1.296	1.273	1.247	1.218	1.273	1.249	1.336	1.225	1.261	1.190	1.136	1.078	1.093	1.011	0.868	0.913	1.057	1.038	0.941	1.136
480.0	60.07	77.30	142.4	942.6	1695	304.4	199.3	203.3	209.8	199.3	197.4	178.9	163.5	142.8	123.1	106.4	102.7	91.54	88.71	85.31	85.15	85.45	85.25	86.81	86.88	86.60	86.80	86.44	88.75	88.94	83.20	78.05	70.36	64.31	56.65	52.06	47.39	46.77	56.56	46.25	29.73	23.80	19.88	15.37	12.83	10.04	8.326	8.164	16.43	39.99	90.53	486.6	1025	200.6	11.00	1.578	1.615	1.460	1.312	1.399	1.377	1.253	1.196	1.211	1.105	1.147	1.236	1.070	1.058	0.993	1.029	0.988	0.893	0.947	1.050	0.920	1.163
485.0	54.52	76.85	110.7	411.3	1917	741.8	191.3	189.3	193.6	187.0	180.9	166.9	151.8	135.3	119.2	99.06	91.54	87.88	81.25	79.45	80.52	78.67	77.27	79.18	79.63	80.00	79.98	80.24	83.27	81.91	79.05	73.47	67.50	60.48	53.91	48.96	43.92	41.11	47.06	50.13	34.88	23.77	20.46	15.38	12.92	10.31	8.618	6.917	7.818	12.38	23.37	124.3	588.3	937.8	173.6	5.066	1.854	1.428	1.298	1.354	1.207	1.184	1.044	1.130	1.057	1.093	1.154	1.060	1.046	1.090	1.002	0.908	0.960	0.898	1.059	1.119	0.947
490.0	57.02	97.50	98.77	189.5	1118	1727	297.6	179.8	178.0	171.6	164.8	154.1	139.6	121.5	106.8	90.77	84.29	79.27	74.29	73.06	71.55	70.38	69.71	70.59	71.62	71.55	71.89	73.62	74.63	74.12	71.43	67.00	61.71	55.46	50.03	45.29	41.19	37.76	37.11	42.41	41.92	29.11	20.65	15.80	13.38	10.62	8.663	7.282	6.527	6.605	8.693	30.93	145.0	475.5	794.5	381.7	13.18	1.683	1.444	1.340	1.137	1.202	1.084	1.042	1.054	1.006	1.064	1.096	1.051	1.056	0.935	0.903	0.916	0.957	0.983	0.879	0.955
495.0	44.27	87.13	117.9	130.7	375.5	1788	1112	160.5	155.4	156.3	153.9	136.2	127.2	108.4	96.59	80.08	76.24	70.55	67.41	65.90	62.56	63.13	61.95	62.58	64.48	63.66	64.07	64.91	65.32	65.60	64.71	59.36	54.87	50.03	46.10	41.99	38.64	35.13	32.45	33.05	37.72	36.14	23.58	15.87	13.54	11.32	9.043	8.010	6.880	5.686	5.506	9.943	35.43	109.4	299.4	866.0	539.3	17.18	1.514	1.261	1.093	1.154	1.094	1.080	0.959	0.964	0.922	0.917	0.908	0.951	0.943	0.840	0.968	0.817	0.973	0.909	0.812
500.0	40.97	79.75	137.7	117.1	184.1	1081	1890	249.9	142.0	145.1	145.7	127.9	117.2	100.6	85.39	73.72	68.56	65.01	60.37	59.43	56.18	56.94	56.84	55.53	58.26	57.25	58.32	58.66	60.66	60.61	59.00	55.02	50.97	48.30	43.29	39.60	35.69	33.04	30.14	28.83	30.27	36.40	28.02	17.84	13.79	11.67	9.418	8.216	7.471	6.311	5.440	5.746	11.57	27.43	72.16	397.1	960.9	207.4	9.268	1.403	1.163	1.225	1.091	0.939	0.969	1.028	0.945	0.893	0.863	0.844	0.936	0.822	0.847	0.852	0.831	0.771	0.843
505.0	41.38	65.66	146.8	123.3	125.8	443.7	2108	693.7	135.5	130.2	136.1	120.3	107.6	94.39	81.63	68.25	61.04	60.18	54.99	55.47	51.76	51.90	52.32	50.27	51.89	51.99	52.34	53.43	56.33	56.27	54.63	50.56	48.70	44.04	40.17	36.77	33.30	31.21	28.04	26.30	25.57	30.24	31.40	21.66	13.97	11.46	10.13	8.248	7.668	6.793	5.625	5.142	6.352	9.310	18.97	98.51	537.8	840.3	162.2	3.390	1.321	1.217	1.210	0.937	0.932	0.886	0.909	0.805	0.790	0.876	0.833	0.844	0.993	0.751	0.903	0.877	0.852
510.0	35.44	51.51	113.3	147.7	103.3	186.2	1167	1743	217.7	120.9	117.2	107.9	97.57	82.49	70.16	60.98	53.38	51.93	49.49	48.46	46.55	44.67	45.06	45.41	45.55	45.92	46.57	47.22	48.41	49.39	47.91	44.96	42.56	38.43	36.01	33.08	30.72	28.05	25.88	23.29	21.86	22.51	26.67	25.48	17.09	11.76	9.870	8.817	7.327	6.682	6.056	5.437	5.130	5.374	7.369	24.75	132.8	437.8	642.0	270.7	11.68	1.240	1.097	1.038	0.896	0.948	0.883	0.752	0.959	0.915	0.768	0.808	0.729	0.810	0.751	0.789	0.773
515.0	32.25	37.35	71.69	163.4	116.2	111.6	364.9	1812	1031	113.9	104.6	94.34	83.78	69.92	59.56	53.00	48.29	45.01	42.95	40.57	39.78	39.65	38.48	40.00	39.84	40.52	39.89	40.78	42.40	42.08	41.63	39.41	37.91	34.23	31.42	28.84	27.55	25.24	22.92	21.39	19.82	18.90	19.32	23.57	21.80	14.04	9.776	8.702	7.239	6.758	5.972	5.983	4.898	4.741	4.883	8.357	32.02	100.0	239.8	652.7	224.5	13.50	1.087	1.066	1.038	0.808	0.836	0.847	0.893	0.796	0.781	0.795	0.703	0.798	0.803	0.800	0.763
520.0	36.55	38.55	56.14	131.3	133.5	92.52	151.6	1057	1957	186.2	94.52	85.06	75.53	64.52	57.71	47.15	43.10	40.71	37.97	35.86	35.75	34.49	34.06	35.16	35.21	35.47	35.09	36.03	38.10	37.46	37.74	35.42	33.53	31.37	28.39	25.91	24.25	23.11	21.08	19.76	17.85	16.73	16.06	18.48	22.47	16.86	10.87	8.298	7.093	6.682	6.085	5.786	5.555	4.412	4.189	4.503	9.425	24.42	57.44	315.3	652.1	178.9	5.345	1.145	0.880	0.855	1.012	0.835	0.838	0.684	0.799	0.716	0.676	0.772	0.802	0.747	0.683
525.0	33.53	40.49	49.80	99.07	159.0	85.63	93.82	413.2	2246	629.4	84.37	75.75	69.39	59.56	51.94	43.54	39.52	36.53	34.17	32.40	32.64	31.97	31.04	32.01	30.98	31.52	32.29	32.82	33.63	33.05	33.34	32.45	30.13	27.91	25.41	23.33	21.68	20.58	19.56	18.65	16.71	14.78	14.13	14.73	18.86	18.87	12.85	8.413	7.437	6.674	5.565	5.323	5.051	4.547	4.030	3.433	4.377	7.337	14.60	78.78	390.8	587.8	30.64	2.168	0.834	0.805	0.923	0.698	0.902	0.647	0.821	0.725	0.660	0.624	0.705	0.775	0.597
530.0	33.06	35.03	43.64	64.42	143.5	113.2	73.06	155.9	1220	1816	163.5	69.46	62.49	51.24	45.47	38.14	33.84	31.16	30.01	28.79	28.25	26.94	27.30	27.60	27.72	28.05	28.02	28.41	29.64	28.79	29.02	28.01	26.06	23.60	22.67	21.32	19.36	18.18	16.85	16.17	15.02	13.45	12.54	12.32	13.33	16.47	14.98	9.730	7.164	6.023	5.323	5.143	4.775	4.540	4.195	3.191	3.097	3.511	4.876	19.06	97.37	320.8	436.4	128.4	8.450	0.904	0.839	0.730	0.761	0.744	0.702	0.582	0.616	0.708	0.727	0.709	0.604
535.0	30.11	31.70	43.89	50.30	93.81	148.6	72.32	84.64	358.5	1963	1026	65.40	54.63	45.94	39.68	32.07	29.03	27.44	25.58	25.12	23.64	23.90	23.30	23.95	23.76	23.67	24.00	24.80	25.97	25.96	24.39	23.92	22.36	20.93	19.92	17.62	16.45	15.49	14.95	14.06	13.22	11.96	10.78	10.75	10.23	11.17	14.06	12.29	7.807	5.983	5.025	4.574	4.282	3.987	4.036	3.427	2.695	2.678	2.755	5.688	22.93	73.12	174.3	465.2	194.7	7.734	0.856	0.821	0.580	0.643	0.675	0.574	0.594	0.593	0.576	0.711	0.771
540.0	34.41	28.03	39.10	41.57	62.19	145.9	86.45	64.85	129.9	1088	1946	129.8	48.64	42.14	34.75	29.81	26.87	25.28	21.92	21.63	21.31	22.22	20.59	21.66	21.09	20.84	21.36	21.83	22.68	22.46	22.13	21.62	19.63	19.16	17.71	16.39	14.93	14.42	13.42	12.59	12.45	11.14	10.20	9.678	9.594	8.614	11.30	12.74	9.326	5.690	4.906	4.366	4.190	3.507	3.721	3.570	2.713	2.219	2.099	2.552	6.379	17.42	42.01	240.3	472.5	129.7	2.839	0.711	0.773	0.623	0.573	0.659	0.662	0.557	0.619	0.630	0.552
545.0	28.77	28.11	38.50	39.00	44.26	116.7	119.4	57.56	74.66	393.4	2290	560.0	44.41	35.98	32.06	26.83	23.70	23.38	20.21	18.91	19.00	19.36	18.84	18.56	19.36	18.15	18.61	19.75	19.74	20.46	20.91	18.86	18.00	17.29	15.84	14.80	13.83	13.08	12.41	11.45	10.82	10.13	9.119	8.926	8.302	7.383	8.248	11.45	10.78	6.863	4.404	4.197	3.774	3.485	3.144	3.399	3.008	2.175	1.963	1.754	2.724	4.997	10.67	61.39	304.5	407.6	28.26	1.259	0.721	0.655	0.629	0.590	0.678	0.593	0.568	0.610	0.613
550.0	31.21	26.82	33.14	36.14	40.81	69.50	135.0	63.85	55.34	133.2	1177	1741	121.1	33.51	27.80	23.93	20.94	19.19	18.48	16.91	16.09	16.43	16.10	16.45	16.48	16.18	16.08	16.88	17.25	17.75	17.02	16.68	15.67	15.08	13.42	12.52	11.95	11.37	10.83	10.23	9.623	8.800	8.242	7.945	7.541	6.871	6.707	7.780	9.877	8.216	5.274	3.892	3.628	3.219	2.774	2.806	2.761	2.431	2.001	1.631	1.783	2.149	3.442	14.85	77.36	240.4	275.9	111.7	6.207	0.661	0.652	0.708	0.557	0.662	0.608	0.632	0.573
555.0	29.73	26.29	29.86	35.52	34.89	45.75	108.0	97.41	48.40	67.29	328.7	1845	1017	33.92	24.41	20.99	18.03	16.14	15.85	14.79	14.19	13.97	14.16	13.59	13.70	14.15	13.92	14.03	14.47	14.62	14.56	13.87	12.87	12.60	11.59	10.87	9.967	9.726	9.219	8.671	8.357	7.525	7.253	6.984	6.282	6.195	5.527	5.508	6.674	8.331	6.479	4.363	3.223	2.859	2.844	2.365	2.450	2.322	2.301	1.797	1.416	1.487	1.702	4.207	18.14	55.17	127.3	341.6	146.5	4.284	0.822	0.608	0.511	0.586	0.526	0.650	0.554
560.0	26.62	27.46	34.77	32.01	32.61	36.25	72.84	126.3	53.16	55.54	119.6	988.1	1889	99.13	21.88	18.38	15.31	14.71	14.00	12.88	12.27	12.99	12.84	12.22	12.24	12.14	13.00	12.31	12.84	13.11	13.02	12.21	11.64	10.55	10.05	9.365	9.096	8.412	7.757	7.907	7.514	6.685	6.540	6.097	5.610	5.297	5.056	4.797	4.960	6.882	7.032	5.182	3.329	2.774	2.712	2.101	1.995	2.095	2.237	1.843	1.394	1.338	1.341	1.829	4.975	13.30	31.26	187.5	334.4	30.82	1.636	0.612	0.669	0.614	0.502	0.577	0.651
565.0	33.44	40.81	41.07	32.89	28.74	30.78	48.32	131.3	74.75	62.12	85.38	363.6	2002	535.2	22.35	16.34	13.85	13.18	11.70	11.21	11.00	11.11	10.72	11.15	10.85	10.37	11.54	10.45	10.86	11.71	11.08	10.80	9.973	9.140	8.618	8.229	7.998	7.532	6.530	7.059	6.225	5.860	5.674	5.618	5.323	4.670	4.665	4.309	4.081	4.723	6.021	5.739	3.605	2.538	2.505	2.005	1.818	1.793	1.887	1.811	1.486	1.333	1.196	1.302	2.083	3.960	8.065	48.89	226.4	243.3	23.93	0.765	0.689	0.598	0.566	0.615	0.583
570.0	40.25	64.77	59.79	40.76	27.77	29.91	37.31	101.1	131.7	89.05	111.0	175.9	958.5	1473	82.77	14.47	12.26	10.99	10.32	9.256	9.303	8.875	8.971	9.272	8.604	8.741	9.094	9.080	9.354	9.315	9.492	8.827	8.269	7.973	7.007	6.791	6.378	6.249	5.668	5.601	5.083	4.873	4.702	4.622	4.352	4.025	3.898	3.628	3.434	3.427	4.107	5.178	4.322	2.733	2.070	1.773	1.756	1.592	1.472	1.585	1.714	1.421	1.264	1.185	1.396	1.864	2.752	11.90	58.60	160.8	197.8	64.48	2.042	0.501	0.568	0.549	0.582
575.0	47.63	88.69	88.54	48.34	28.96	30.06	37.15	68.60	160.0	136.7	148.5	163.9	327.5	1392	806.7	15.77	10.71	9.203	8.239	7.490	7.203	7.234	7.206	7.401	6.967	6.776	7.082	6.991	7.587	7.591	7.450	7.165	6.706	6.012	6.047	5.403	4.942	4.876	4.407	4.452	4.284	3.939	3.817	3.634	3.364	3.161	3.300	3.223	2.756	2.641	2.697	3.583	4.245	3.296	2.106	1.459	1.536	1.361	1.252	1.425	1.449	1.743	1.513	1.297	1.383	1.600	1.790	3.627	14.08	37.35	89.88	205.5	29.95	1.191	0.542	0.593	0.518
580.0	56.61	101.6	106.5	49.76	31.99	31.47	39.54	59.62	154.8	181.6	172.8	182.0	188.4	686.2	1508	57.92	8.922	7.579	7.103	6.320	6.217	6.219	6.271	6.190	5.910	5.685	5.900	5.772	6.577	6.031	5.806	5.921	5.396	4.885	5.089	4.270	4.247	4.195	3.949	3.720	3.514	3.202	3.109	3.084	2.837	2.876	2.630	2.699	2.475	2.285	2.085	2.534	3.376	3.399	2.409	1.351	1.326	1.423	1.189	1.219	1.175	1.808	1.768	1.382	1.297	1.371	1.504	1.888	4.262	9.327	22.46	120.3	164.6	19.87	0.722	0.494	0.547
585.0	59.03	105.1	115.6	53.03	28.77	30.66	36.67	57.70	129.1	218.3	199.7	198.2	173.7	259.4	1510	366.7	8.327	6.920	5.740	6.037	5.629	5.026	5.358	5.056	5.172	4.995	4.844	5.116	5.058	5.287	5.070	5.025	4.627	4.056	3.952	3.861	3.504	3.501	3.246	3.155	2.819	2.754	2.581	2.580	2.436	2.471	2.373	2.239	2.231	1.960	1.687	1.907	2.370	3.076	2.563	1.603	1.304	1.399	1.111	1.211	1.045	1.406	1.689	1.752	1.472	1.417	1.627	1.529	2.059	3.053	5.915	33.14	137.9	117.4	12.57	0.457	0.617
590.0	71.32	115.4	120.6	58.33	28.03	28.32	37.02	59.91	109.8	222.7	241.7	217.7	179.2	129.0	651.2	1050	48.30	6.233	4.927	5.172	4.807	4.375	4.351	4.274	4.025	4.040	4.058	4.086	4.081	4.282	4.078	4.021	3.831	3.761	3.213	3.325	3.106	2.775	2.680	2.701	2.466	2.417	2.155	2.127	2.046	2.105	1.943	2.091	1.904	1.659	1.408	1.538	1.645	2.063	2.529	1.936	1.367	1.097	1.003	1.054	0.916	1.155	1.416	1.777	1.767	1.435	1.556	1.456	1.564	1.697	2.212	8.030	38.53	97.59	99.36	16.96	1.063
595.0	67.10	123.7	120.5	58.12	29.28	26.49	35.75	60.28	102.8	188.3	268.2	231.4	181.4	100.8	171.4	968.7	486.1	6.121	4.450	4.387	4.192	3.657	3.379	3.767	3.275	3.588	3.699	3.048	3.426	3.413	3.547	3.202	3.292	2.640	2.611	2.440	2.345	2.210	2.124	2.218	2.087	1.889	2.056	1.706	1.670	1.745	1.749	1.780	1.624	1.420	1.349	1.270	1.238	1.339	2.004	1.904	1.550	1.084	0.928	0.986	1.067	0.958	1.218	1.518	2.004	1.557	1.484	1.468	1.443	1.289	1.268	2.427	9.059	23.23	59.48	105.5	22.36
600.0	64.06	118.9	119.0	56.75	30.36	28.06	37.04	56.46	97.93	167.3	274.0	241.5	185.0	93.26	60.45	446.4	972.7	27.33	4.583	3.860	3.632	3.892	3.254	3.201	2.948	2.885	3.155	2.859	3.048	3.271	3.215	2.660	2.626	2.593	2.369	2.164	2.199	1.806	1.931	1.808	1.789	1.618	1.805	1.655	1.640	1.691	1.553	1.503	1.391	1.305	1.222	1.069	1.098	1.121	1.312	1.845	1.726	1.281	1.018	0.883	1.021	1.050	1.149	1.258	1.668	1.758	1.541	1.460	1.307	1.304	1.048	1.061	2.570	5.596	15.72	76.89	88.56
605.0	64.49	118.1	113.9	57.23	28.77	28.55	37.06	56.06	94.32	152.4	254.3	257.5	179.0	90.36	34.25	135.2	1026	90.95	4.305	3.585	3.336	3.257	2.785	2.865	2.813	2.354	2.734	2.282	2.819	2.787	2.504	2.376	2.250	2.305	1.968	1.898	1.894	1.660	1.466	1.520	1.467	1.528	1.665	1.511	1.335	1.519	1.361	1.476	1.246	1.131	1.054	0.986	0.821	0.850	0.983	1.588	1.590	1.281	0.947	0.884	1.157	0.969	1.193	1.156	1.447	1.683	1.690	1.454	1.241	1.170	0.937	0.827	1.084	1.683	4.018	22.74	78.87
610.0	62.42	111.9	105.8	53.67	26.10	26.33	34.93	57.10	90.70	141.6	209.5	260.3	178.0	86.04	28.39	40.73	468.4	678.8	30.29	3.401	2.921	2.691	2.554	2.310	2.247	2.246	2.278	2.115	2.364	2.507	2.355	2.008	1.943	1.899	1.738	1.543	1.629	1.440	1.462	1.358	1.264	1.335	1.223	1.215	1.233	1.167	1.126	1.276	1.172	1.013	0.931	0.922	0.828	0.813	0.884	1.065	1.273	1.399	1.151	0.977	0.917	0.932	1.086	1.145	1.230	1.445	1.573	1.564	1.239	1.069	0.898	0.715	0.735	0.821	1.296	5.599	22.69
615.0	60.01	92.66	98.28	47.34	25.29	23.24	31.34	52.04	83.34	127.9	175.1	228.8	189.5	78.64	26.53	19.43	116.7	694.2	316.5	3.837	2.916	2.342	2.395	2.091	2.141	1.836	2.015	1.840	1.861	2.064	1.949	1.621	1.522	1.519	1.614	1.330	1.283	1.243	1.253	1.111	1.167	1.049	1.054	1.278	0.987	1.014	0.938	1.059	1.041	0.899	0.791	0.820	0.885	0.750	0.853	0.635	0.882	1.157	1.243	1.001	0.792	0.792	1.122	1.224	1.062	1.288	1.381	1.585	1.366	1.120	1.021	0.742	0.588	0.553	0.805	1.730	5.538
620.0	54.74	93.97	90.65	44.42	23.88	22.62	30.38	48.11	77.86	117.3	163.1	195.1	189.8	78.27	26.57	14.88	33.72	344.3	658.3	14.24	2.419	2.179	2.217	1.934	1.738	1.937	1.717	1.739	1.783	1.952	1.699	1.562	1.355	1.369	1.462	1.275	1.230	1.192	1.064	0.946	0.960	1.066	0.888	0.910	0.768	0.930	0.965	1.153	0.937	0.824	0.805	0.773	0.765	0.712	0.732	0.540	0.733	1.028	1.193	1.098	0.911	0.821	0.892	1.057	1.018	1.046	1.228	1.240	1.455	1.142	0.877	0.612	0.659	0.550	0.593	0.865	1.685
625.0	50.77	79.62	86.00	40.72	22.24	21.44	30.47	45.11	67.45	106.5	143.7	165.4	180.7	82.91	25.76	13.23	14.72	106.8	758.0	70.40	2.554	2.209	1.897	1.759	1.552	1.779	1.549	1.429	1.643	1.670	1.466	1.171	1.234	1.296	1.243	1.300	1.005	1.155	0.961	0.907	0.827	1.004	0.832	0.834	0.719	0.866	0.922	0.928	0.772	0.715	0.706	0.661	0.726	0.722	0.608	0.673	0.672	0.813	1.047	1.210	0.871	0.865	0.862	1.034	1.009	1.181	1.178	1.102	1.212	1.320	0.850	0.604	0.621	0.569	0.573	0.644	0.822
630.0	45.42	79.06	74.63	39.92	22.37	19.46	26.27	40.32	61.21	92.87	126.9	140.4	144.6	95.27	26.89	12.21	9.917	29.85	370.6	482.3	17.95	1.954	1.743	1.665	1.599	1.453	1.427	1.346	1.469	1.449	1.294	1.321	1.112	1.060	1.131	0.997	0.984	0.951	0.904	0.887	0.895	0.870	0.746	0.833	0.739	0.810	0.805	0.774	0.745	0.709	0.614	0.569	0.602	0.625	0.569	0.640	0.596	0.680	0.839	1.018	0.944	0.896	0.785	0.887	1.062	1.001	1.055	0.954	1.006	1.135	0.962	0.702	0.610	0.543	0.502	0.587	0.573
635.0	47.96	64.94	58.25	37.49	20.09	17.34	27.16	35.14	54.92	81.79	107.8	117.8	109.5	91.12	32.96	11.75	9.369	12.28	91.69	546.1	190.4	2.144	2.106	1.664	1.619	1.529	1.446	1.119	1.386	1.318	1.195	1.128	1.144	0.880	0.944	0.844	0.923	0.848	0.881	0.836	0.726	0.681	0.659	0.644	0.752	0.687	0.736	0.676	0.761	0.674	0.529	0.493	0.565	0.540	0.512	0.430	0.643	0.595	0.633	0.751	0.953	1.031	0.757	0.731	0.744	0.889	0.973	0.981	0.898	0.924	0.905	0.856	0.652	0.491	0.425	0.493	0.454
640.0	38.06	59.40	57.15	32.28	20.60	17.95	23.48	32.19	49.44	73.38	95.99	107.0	91.63	79.07	43.66	13.05	9.402	8.500	24.72	296.7	453.4	6.886	1.816	1.669	1.587	1.403	1.252	0.963	1.128	1.259	1.288	1.056	1.097	0.928	0.827	0.903	0.864	0.699	0.836	0.725	0.741	0.684	0.720	0.622	0.617	0.613	0.665	0.648	0.526	0.568	0.514	0.491	0.536	0.506	0.448	0.503	0.506	0.652	0.598	0.719	0.895	0.894	0.899	0.727	0.750	0.858	0.769	0.886	0.904	0.893	0.767	0.814	0.638	0.565	0.538	0.560	0.510
645.0	36.55	55.97	50.24	30.88	18.96	17.04	20.91	29.04	44.55	66.96	86.68	96.06	80.88	63.05	51.93	15.73	9.452	8.172	9.085	92.45	572.7	51.85	2.112	1.581	1.478	1.251	1.185	1.040	1.220	0.894	1.076	0.855	1.129	1.040	0.840	0.913	0.715	0.800	0.792	0.751	0.645	0.569	0.599	0.632	0.585	0.601	0.525	0.623	0.546	0.517	0.511	0.517	0.513	0.431	0.532	0.472	0.521	0.534	0.570	0.541	0.747	0.853	0.966	0.731	0.741	0.775	0.717	0.923	0.860	0.770	0.659	0.722	0.778	0.641	0.545	0.464	0.472
650.0	36.87	54.67	46.65	32.14	17.62	16.68	19.72	25.68	39.39	59.15	76.87	84.14	73.40	52.39	52.32	19.51	10.03	7.487	6.121	25.54	413.4	248.7	2.560	1.484	1.372	1.270	1.253	1.040	1.258	1.013	1.162	0.883	0.930	0.928	0.743	0.775	0.815	0.720	0.664	0.650	0.585	0.535	0.655	0.541	0.658	0.587	0.585	0.684	0.595	0.651	0.470	0.588	0.511	0.450	0.455	0.456	0.463	0.539	0.607	0.538	0.647	0.790	0.836	0.716	0.651	0.743	0.830	0.880	0.798	0.634	0.574	0.595	0.741	0.790	0.584	0.495	0.571
