Sample:	'1
File name:	g2025070301ºêÊ¢ÎºÇÅ·ÄÖ¯½øË® 100±¶.FD3
Run date:	'16:04:13, 07/04/2025
Operator:	Administrator
Comment:	'

Instrument
Model:	F-2700 FL Spectrophotometer
Serial number:	23B8-004
ROM Version:	4J14000 07

Instrument parameters
Measurement type:	3-D scan
Data mode:	Fluorescence
EX  Start WL:	220.0 nm
EX  End WL:	600.0 nm
EX Sampling interval:	5.0 nm
EM  Start WL:	230.0 nm
EM  End WL:	650.0 nm
EM Sampling interval:	5.0 nm
Scan speed:	12000 nm/min
EX Slit:	5.0 nm
EM Slit:	5.0 nm
PMT Voltage:	700 V
Response:	Auto 
Corrected spectra:	Off
Contour interval:	50.000

Peak integration
Integration method:	Rectangular
Sensitivity:	1
Threshold:	1.000

Peaks
No.	ApexEX/EM(nm)	Height(Data)
1	225.0/340.0	2897
2	245.0/535.0	212.8
3	250.0/550.0	166.4
4	255.0/280.0	616.0
5	255.0/560.0	134.9
6	260.0/290.0	556.6
7	260.0/575.0	109.6
8	265.0/295.0	679.4
9	265.0/585.0	96.86
10	270.0/300.0	872.8
11	270.0/415.0	5364
12	270.0/435.0	5387
13	270.0/600.0	85.14
14	275.0/305.0	871.9
15	275.0/340.0	936.4
16	275.0/610.0	70.52
17	280.0/345.0	925.7
18	280.0/625.0	59.98
19	285.0/320.0	821.7
20	285.0/635.0	46.92
21	290.0/325.0	763.5
22	305.0/345.0	496.2
23	315.0/355.0	356.7
24	320.0/365.0	347.7
25	325.0/370.0	352.3
26	330.0/375.0	372.1
27	355.0/415.0	2776
28	355.0/435.0	2753
29	425.0/500.0	21.53
30	430.0/505.0	18.35
31	440.0/520.0	12.90
32	455.0/340.0	9.029
33	455.0/540.0	8.147
34	470.0/560.0	4.058
35	505.0/275.0	4.064
36	510.0/280.0	4.085
37	515.0/285.0	4.258
38	525.0/290.0	3.957
39	540.0/295.0	5.304
40	545.0/300.0	6.043
41	545.0/415.0	19.61
42	550.0/305.0	5.516
43	550.0/430.0	19.42
44	560.0/310.0	4.945
45	560.0/340.0	5.144
46	565.0/350.0	5.287
47	570.0/315.0	5.576
48	580.0/320.0	5.474
49	585.0/325.0	5.730

Data points
	220.0	225.0	230.0	235.0	240.0	245.0	250.0	255.0	260.0	265.0	270.0	275.0	280.0	285.0	290.0	295.0	300.0	305.0	310.0	315.0	320.0	325.0	330.0	335.0	340.0	345.0	350.0	355.0	360.0	365.0	370.0	375.0	380.0	385.0	390.0	395.0	400.0	405.0	410.0	415.0	420.0	425.0	430.0	435.0	440.0	445.0	450.0	455.0	460.0	465.0	470.0	475.0	480.0	485.0	490.0	495.0	500.0	505.0	510.0	515.0	520.0	525.0	530.0	535.0	540.0	545.0	550.0	555.0	560.0	565.0	570.0	575.0	580.0	585.0	590.0	595.0	600.0
230.0	215.3	4970	9959	2508	74.13	14.66	11.36	10.13	8.504	7.943	7.098	6.639	5.958	4.716	4.291	3.618	2.861	2.638	2.631	2.563	2.361	1.920	2.165	1.867	1.885	1.663	1.549	1.550	1.496	1.433	1.377	1.342	1.208	1.104	0.917	0.928	0.850	0.741	0.683	0.724	0.809	1.044	1.081	0.688	0.582	0.600	5.964	27.32	42.89	23.76	7.429	1.344	0.478	0.442	0.440	0.425	0.437	0.430	0.397	0.401	0.387	0.405	0.364	0.397	0.342	0.362	0.349	0.355	0.347	0.335	0.361	0.332	0.335	0.368	0.373	0.360	0.352
235.0	232.7	1346	6637	9999.9	2575	101.4	15.34	13.48	10.60	8.988	7.174	7.095	6.821	5.145	4.771	3.898	3.111	2.568	2.607	2.647	2.748	1.986	2.005	1.858	1.847	1.700	1.712	1.818	1.618	1.427	1.496	1.265	1.220	1.082	1.092	0.961	0.850	0.871	0.601	0.640	0.599	0.694	0.996	1.060	0.986	0.682	1.800	7.144	17.70	27.28	34.45	24.16	12.15	2.475	0.464	0.492	0.485	0.449	0.389	0.509	0.379	0.417	0.394	0.469	0.396	0.446	0.403	0.355	0.342	0.346	0.417	0.315	0.456	0.428	0.359	0.437	0.365
240.0	292.6	439.0	2041	9718	9587	481.2	45.85	15.66	11.04	10.47	8.417	8.216	7.490	5.660	5.254	4.551	3.172	2.801	2.731	2.628	2.536	2.198	2.204	2.140	1.871	1.818	1.865	1.653	1.760	1.381	1.477	1.391	1.240	1.129	1.033	0.885	0.828	0.766	0.718	0.766	0.674	0.554	0.695	0.954	1.196	1.149	0.999	2.093	4.453	8.385	20.88	44.03	51.88	22.92	8.984	1.172	0.485	0.507	0.488	0.452	0.351	0.486	0.407	0.394	0.380	0.486	0.308	0.387	0.375	0.387	0.383	0.378	0.359	0.689	0.362	0.408	0.392
245.0	219.3	344.5	551.7	3570	9999.9	8856	364.4	27.29	14.57	12.43	9.796	8.613	7.816	5.904	5.395	4.513	3.702	3.298	3.086	2.613	2.328	2.105	2.162	2.128	2.057	1.718	1.951	1.823	1.507	1.581	1.665	1.375	1.161	1.105	1.085	0.871	0.774	0.754	0.719	0.690	0.715	0.592	0.646	0.747	0.924	1.318	1.406	1.377	1.512	2.263	5.277	16.10	41.05	64.25	53.53	19.67	5.965	0.708	0.474	0.521	0.419	0.421	0.418	0.435	0.366	0.431	0.333	0.363	0.461	0.409	0.370	0.418	0.337	0.514	0.369	0.412	0.407
250.0	113.4	254.7	382.3	914.8	3686	9999.9	9999.9	1359	90.51	18.50	14.27	11.00	9.622	6.359	5.611	4.800	3.904	3.527	3.123	3.166	2.536	2.249	2.346	2.132	2.032	1.895	1.974	1.738	1.762	1.768	1.708	1.373	1.326	1.193	1.139	0.958	0.968	0.807	0.690	0.801	0.738	0.638	0.662	0.641	0.644	0.817	1.002	1.423	1.576	1.396	1.813	4.131	10.32	22.53	37.78	54.60	53.23	52.32	14.90	6.345	0.806	0.544	0.541	0.493	0.430	0.446	0.437	0.384	0.427	0.411	0.441	0.399	0.373	0.409	0.485	0.397	0.393
255.0	74.86	105.5	275.7	503.2	911.5	2789	9999.9	9999.9	1951	101.2	20.89	14.66	12.55	8.399	6.794	5.623	4.596	3.743	3.743	3.904	3.024	2.526	2.421	2.302	2.315	1.942	2.039	1.894	1.659	2.074	1.708	1.598	1.504	1.308	1.047	1.072	0.822	0.959	0.719	0.864	0.772	0.688	0.758	0.616	0.716	0.745	0.705	0.808	0.964	1.504	2.052	2.224	2.922	5.432	8.937	13.63	25.38	66.29	106.3	102.1	23.02	6.617	0.681	0.531	0.579	0.526	0.484	0.446	0.524	0.431	0.455	0.444	0.434	0.440	0.468	0.421	0.394
260.0	63.16	62.73	124.8	401.4	451.0	694.7	3561	9999.9	9999.9	1508	51.08	20.40	16.03	11.05	8.126	6.443	5.092	4.333	4.239	4.395	3.256	2.805	2.755	2.349	2.314	2.355	2.196	1.908	1.833	1.930	1.844	1.655	1.562	1.373	1.117	1.075	0.889	0.896	0.766	0.792	0.713	0.781	0.771	0.732	0.741	0.591	0.619	0.703	0.658	0.838	1.438	2.384	2.285	2.074	2.539	3.595	6.403	18.95	52.74	115.9	124.3	32.01	18.45	3.094	0.691	0.678	0.620	0.564	0.543	0.457	0.466	0.473	0.452	0.439	0.422	0.410	0.423
265.0	67.40	57.49	59.46	206.0	458.4	334.0	874.9	5146	9999.9	9999.9	219.6	31.42	21.95	13.20	10.82	8.100	5.901	4.793	4.546	4.361	3.604	2.803	2.993	2.659	2.386	2.605	2.298	2.094	2.252	1.913	1.849	1.781	1.558	1.283	1.241	1.123	1.002	0.838	0.731	0.946	0.751	0.845	0.696	0.805	0.736	0.683	0.663	0.708	0.585	0.615	0.772	1.532	2.388	2.563	2.110	1.515	1.990	4.824	12.81	36.77	78.54	136.4	143.4	29.49	13.23	1.211	0.668	0.727	0.577	0.546	0.538	0.599	0.467	0.492	0.422	0.424	0.454
270.0	100.2	79.96	62.12	86.81	252.9	445.7	411.1	1264	5173	9999.9	9999.9	3949	74.07	21.06	14.57	10.56	7.544	5.983	5.377	5.060	3.974	3.311	3.375	2.822	2.626	2.807	2.416	2.285	2.308	2.024	2.017	1.827	1.613	1.504	1.366	1.244	1.160	0.996	0.891	0.957	0.912	0.934	0.930	0.866	0.811	0.764	0.786	0.757	0.749	0.606	0.570	0.818	1.138	1.701	2.405	2.634	2.374	2.113	3.594	8.951	18.99	42.29	77.81	105.3	144.7	110.6	19.07	9.503	1.402	0.709	0.722	0.684	0.547	0.547	0.504	0.541	0.505
275.0	195.4	148.2	88.99	64.66	97.96	255.7	571.6	502.5	1227	2988	9999.9	9999.9	1255	73.86	21.73	14.98	10.14	7.862	6.922	6.115	4.403	3.919	4.165	3.295	2.907	2.750	2.624	2.214	2.308	2.297	2.193	1.926	1.803	1.607	1.538	1.414	1.345	1.171	1.105	1.111	1.089	1.051	1.152	1.021	1.180	0.971	0.942	1.010	0.912	0.714	0.632	0.730	0.779	0.878	1.214	1.735	3.041	4.064	2.913	2.939	4.947	10.31	18.12	25.00	45.15	98.44	177.3	185.1	30.60	12.42	1.278	0.729	0.757	0.724	0.577	0.704	0.606
280.0	269.8	230.2	122.7	64.13	60.05	118.3	415.7	616.0	414.0	756.8	3638	9999.9	9999.9	931.9	43.45	20.48	13.60	9.869	7.509	6.867	5.430	4.296	4.428	3.593	3.464	3.053	2.891	2.486	2.644	2.372	2.388	2.052	2.039	2.045	1.851	1.761	1.579	1.320	1.300	1.366	1.315	1.222	1.291	1.197	1.284	1.197	1.212	1.238	0.963	0.741	0.655	0.682	0.749	0.665	0.873	1.029	1.564	3.041	4.085	3.957	2.625	3.053	4.821	6.365	10.93	24.95	65.06	147.3	205.1	172.3	24.92	5.609	0.852	0.774	0.820	0.703	0.650
285.0	365.5	304.2	167.0	72.19	52.77	75.40	194.1	594.7	358.5	282.5	928.5	5132	9999.9	8911	128.0	29.56	16.36	11.77	9.397	7.865	6.023	4.683	4.672	3.833	3.574	3.221	3.101	2.629	2.823	2.476	2.434	2.122	2.208	2.079	1.956	1.908	1.709	1.582	1.285	1.449	1.489	1.419	1.479	1.319	1.365	1.444	1.427	1.283	1.139	0.855	0.756	0.640	0.770	0.793	0.678	0.818	0.900	1.578	2.467	4.258	4.187	2.867	1.980	2.211	3.271	6.475	15.60	38.77	92.60	185.6	214.2	34.67	17.56	2.473	0.824	0.828	0.773
290.0	464.1	395.6	218.8	93.02	61.64	70.78	104.3	273.6	556.6	484.3	359.7	1307	5442	9999.9	9999.9	2633	45.40	18.08	12.59	10.94	7.497	5.722	5.277	4.340	4.010	3.675	3.230	2.961	2.924	2.509	2.589	2.344	2.272	2.057	2.174	2.065	2.013	1.755	1.572	1.646	1.505	1.571	1.601	1.494	1.582	1.584	1.670	1.626	1.430	0.942	0.828	0.830	0.763	0.792	0.765	0.810	0.864	1.016	1.292	1.985	2.997	3.957	3.924	3.199	2.202	2.480	4.547	9.719	22.09	48.28	88.06	117.7	159.2	133.4	95.35	12.95	2.643
295.0	506.9	458.9	266.3	126.7	77.47	77.70	95.01	148.8	282.8	679.4	605.0	467.6	1364	2781	9999.9	9999.9	724.1	46.76	18.59	14.91	9.160	7.064	5.982	5.082	4.691	4.279	3.806	3.276	3.124	2.964	2.784	2.489	2.560	2.306	2.390	2.212	2.088	1.939	1.626	1.706	1.602	1.721	1.730	1.678	1.774	1.925	1.637	1.738	1.485	1.088	0.878	0.903	0.841	0.828	0.843	1.005	1.000	0.945	1.122	1.326	1.614	1.869	2.837	4.552	5.304	3.465	2.514	3.265	6.165	11.84	20.72	27.59	41.71	88.14	184.0	216.7	35.79
300.0	564.3	483.5	311.9	154.6	101.8	94.70	108.3	146.3	204.4	445.3	872.8	497.5	490.7	750.9	3386	9999.9	9999.9	573.9	30.26	21.18	12.41	8.616	7.832	6.145	5.154	4.438	3.964	3.753	3.353	3.442	3.101	2.509	2.570	2.239	2.442	2.465	2.065	1.992	1.843	1.873	1.683	1.670	1.725	1.788	1.839	2.046	2.008	2.002	1.595	1.206	0.974	1.107	0.970	0.937	0.992	0.917	1.096	1.071	1.088	1.310	1.390	1.620	1.910	2.790	4.801	6.043	4.703	2.680	2.904	3.900	5.933	7.384	10.47	21.74	55.17	126.7	204.3
305.0	546.9	517.0	350.8	193.7	134.0	123.9	148.8	174.8	224.5	331.6	715.0	871.9	417.7	338.5	894.1	4618	9999.9	9999.9	81.78	29.39	15.43	10.85	9.231	7.032	6.232	4.852	4.096	4.356	3.293	3.266	3.071	2.524	2.650	2.513	2.489	2.307	2.055	2.139	1.927	1.867	1.782	1.713	1.843	1.855	2.085	2.014	2.046	2.103	1.700	1.316	1.098	1.187	1.007	1.082	0.985	1.031	1.261	1.206	1.334	1.468	1.689	1.747	1.821	2.328	2.984	4.414	5.516	5.121	3.338	2.684	2.942	2.923	3.651	6.172	13.54	31.48	75.08
310.0	594.8	564.6	397.8	237.6	169.0	163.7	192.3	226.5	256.6	335.3	491.5	779.6	765.7	379.3	364.5	1173	4423	9999.9	9999.9	2075	36.44	16.05	12.45	8.835	7.294	6.024	5.028	4.503	3.874	3.675	3.514	3.000	2.753	2.580	2.636	2.275	2.163	2.077	1.846	1.924	1.703	1.924	1.905	1.916	2.101	2.164	2.153	2.243	1.948	1.543	1.204	1.347	1.307	1.250	1.223	1.312	1.443	1.473	1.564	1.660	1.763	1.922	2.016	2.409	2.515	3.070	3.601	4.298	4.945	4.829	3.667	2.548	2.359	2.781	4.433	8.248	18.03
315.0	679.0	718.7	491.4	290.1	216.9	218.2	248.5	277.2	303.1	372.5	459.2	567.8	747.9	731.7	339.3	406.9	1099	2585	9999.9	9999.9	2810	38.42	17.58	11.92	9.285	7.078	5.786	5.214	4.405	4.137	3.569	3.301	2.854	2.706	2.638	2.473	2.282	2.207	1.905	2.207	1.842	2.085	2.010	2.124	2.365	2.376	2.423	2.586	2.317	1.578	1.586	1.593	1.559	1.329	1.528	1.550	1.824	1.763	1.831	1.788	1.994	2.008	2.232	2.374	2.643	2.904	3.045	3.155	3.619	3.995	5.576	4.669	3.242	2.286	2.509	3.044	5.322
320.0	1174	1269	797.6	374.1	260.4	266.5	304.3	336.8	380.8	458.6	524.4	588.0	642.6	821.7	557.5	275.6	375.8	664.0	2962	9999.9	9999.9	459.6	30.30	15.33	11.56	8.314	6.379	5.531	4.647	4.480	3.770	3.525	2.915	2.662	2.606	2.342	2.390	2.264	2.103	2.197	2.222	2.451	2.541	2.688	3.336	3.733	3.952	4.299	3.197	2.117	1.717	1.649	1.450	1.703	1.635	1.523	1.996	2.102	2.119	2.116	2.367	2.490	2.503	2.792	3.125	3.272	3.314	3.289	3.578	3.584	4.323	4.995	5.474	4.003	2.573	2.196	2.467
325.0	1653	1885	1170	534.4	333.2	318.9	356.3	403.0	458.5	538.4	623.5	683.0	664.4	706.0	763.5	371.4	234.0	244.9	733.6	4210	9999.9	9999.9	360.0	20.79	14.16	9.765	7.553	6.380	5.315	4.621	4.302	3.646	3.072	2.741	2.577	2.695	2.534	2.522	2.239	2.390	2.339	2.732	3.085	3.414	4.130	4.929	5.740	5.914	4.657	2.902	2.060	2.105	1.734	1.905	1.914	1.945	2.134	2.407	2.497	2.536	2.699	2.911	2.917	3.256	3.382	3.712	3.739	3.665	3.749	3.902	3.908	4.213	4.820	5.730	4.461	2.659	2.211
330.0	1924	2252	1611	848.8	529.6	439.7	415.2	467.5	513.8	604.4	703.0	765.5	737.4	676.8	665.8	590.8	338.0	186.4	249.4	1021	4008	9999.9	9999.9	1695	31.78	13.87	10.17	7.638	6.146	5.717	4.780	4.243	3.590	2.992	2.764	2.831	2.631	2.692	2.410	2.694	2.630	3.107	3.415	3.962	4.905	5.823	6.370	7.008	5.548	3.887	3.319	3.110	2.722	2.679	2.331	2.334	2.489	2.675	2.788	2.711	2.869	3.119	3.256	3.703	3.822	4.111	4.134	4.184	4.097	4.405	4.154	4.261	4.174	4.496	4.302	4.390	3.857
335.0	2346	2797	2044	1237	879.8	619.7	541.8	556.6	596.2	706.5	810.3	883.2	858.4	776.4	649.6	566.9	569.9	292.9	182.0	325.0	971.0	2469	9999.9	9999.9	2635	35.74	13.37	9.669	7.860	6.401	5.293	4.933	3.892	3.393	3.103	2.969	2.997	2.821	2.837	3.382	3.209	3.417	4.012	4.551	5.961	6.733	7.510	8.496	6.932	5.331	4.212	4.678	4.174	3.609	3.207	3.001	3.023	3.150	3.238	3.095	3.383	3.764	3.674	4.161	4.412	4.453	4.879	4.756	4.872	4.605	4.907	4.959	4.650	4.736	3.917	4.042	4.432
340.0	2454	2897	2267	1428	1027	717.0	607.8	598.1	636.3	743.7	852.6	936.4	915.7	838.3	686.5	534.4	554.3	458.7	210.4	179.9	301.3	617.7	2866	9999.9	9999.9	415.7	26.20	12.47	9.118	7.636	6.295	5.198	3.925	3.690	3.397	3.085	3.377	2.936	3.265	3.505	3.529	3.638	4.308	4.782	6.136	6.964	8.044	9.029	7.595	5.654	4.854	5.330	4.882	4.129	3.541	3.275	3.151	3.285	3.310	3.312	3.481	3.772	3.946	4.269	4.497	4.549	5.140	4.975	5.144	5.019	5.067	5.069	4.886	4.577	3.996	3.729	3.832
345.0	2299	2799	2251	1511	1107	784.5	630.5	604.1	643.0	732.8	836.4	917.4	925.7	846.1	703.5	529.2	458.6	496.2	315.9	160.4	154.3	206.3	698.4	3379	9999.9	9999.9	341.9	17.67	11.15	9.073	7.207	5.773	4.210	4.057	3.395	3.101	3.432	3.084	3.339	3.856	3.519	3.824	4.343	4.762	5.626	6.694	7.532	8.713	7.039	5.881	5.196	5.442	5.244	4.687	3.957	3.651	3.192	3.282	3.335	3.444	3.665	3.691	3.942	3.998	4.599	4.600	4.940	4.942	4.987	5.085	5.179	4.971	4.987	4.758	4.101	3.710	3.720
350.0	2137	2566	2125	1534	1176	840.2	655.4	611.6	626.3	704.2	810.3	897.8	906.5	846.6	719.8	548.3	435.4	393.3	393.6	267.3	149.6	127.6	221.7	806.3	3451	9999.9	9999.9	1560	28.51	12.05	8.834	6.843	5.022	4.267	3.760	3.511	3.606	3.477	3.603	3.995	3.727	3.949	4.210	4.691	5.377	6.382	6.943	7.850	6.922	5.572	5.139	5.788	5.452	5.105	4.333	3.788	3.449	3.329	3.498	3.485	3.538	3.629	3.742	4.029	4.439	4.631	4.777	4.693	5.049	5.287	5.224	4.931	5.017	4.885	4.287	3.790	3.825
355.0	1969	2328	1995	1527	1222	883.4	677.7	617.8	608.7	671.8	760.4	842.9	870.4	821.5	716.5	563.3	445.0	356.0	318.3	356.7	242.9	140.8	137.0	245.5	817.3	2365	8376	9999.9	2609	34.35	12.27	8.864	6.113	4.505	4.456	3.882	3.898	3.810	3.934	3.867	3.981	3.942	4.270	4.382	4.958	5.758	6.627	7.027	6.498	5.293	5.109	5.622	5.305	4.975	4.491	4.264	3.545	3.544	3.469	3.367	3.349	3.657	3.547	4.001	4.304	4.370	4.508	4.819	4.766	5.110	4.952	5.053	4.879	4.648	4.281	3.822	4.071
360.0	1737	2035	1783	1465	1181	871.1	664.5	607.8	580.5	628.1	717.6	785.8	822.7	791.4	693.5	558.1	447.5	358.3	295.3	317.6	343.9	200.3	140.9	142.7	247.8	578.0	2172	9999.9	9999.9	2075	25.90	11.05	7.270	5.499	4.702	4.320	4.036	4.036	4.010	4.155	3.861	3.936	3.941	4.193	4.594	5.211	6.001	6.316	6.201	5.081	5.009	5.756	5.068	4.985	4.319	3.980	3.777	3.406	3.413	3.143	3.194	3.484	3.554	3.576	3.940	4.010	3.966	4.643	4.619	4.297	4.784	4.934	4.933	4.662	4.304	3.947	3.811
365.0	1686	1817	1642	1347	1127	861.8	662.4	575.8	550.6	585.5	665.7	732.0	776.7	746.3	664.6	551.7	444.6	367.2	304.3	285.8	347.7	305.3	181.9	141.3	139.7	193.0	531.5	2926	9999.9	9999.9	351.4	16.91	9.284	6.416	5.138	4.677	4.275	4.178	4.127	3.887	4.084	3.705	3.932	3.759	4.459	4.884	5.216	5.891	5.385	4.507	4.340	5.281	5.136	4.621	4.328	3.919	3.623	3.432	3.431	3.346	3.081	3.305	3.367	3.281	3.769	3.914	3.867	4.286	4.352	4.298	4.540	4.684	4.471	4.553	4.286	4.076	3.849
370.0	1438	1600	1446	1239	1061	830.0	635.7	551.4	524.2	542.0	607.3	672.4	702.0	690.1	626.3	532.3	448.4	383.8	333.1	305.9	312.7	352.3	303.6	194.1	147.3	129.3	179.0	694.8	3050	9999.9	9999.9	1449	25.55	9.149	7.051	5.712	4.954	4.361	4.016	4.006	3.810	3.800	3.869	3.611	4.075	4.344	4.812	5.230	4.809	4.293	4.236	4.945	4.807	4.471	3.972	3.738	3.578	3.306	3.234	3.123	3.006	3.259	3.184	3.226	3.521	3.593	3.597	3.807	3.960	3.910	3.993	4.306	4.266	4.358	4.067	3.714	3.684
375.0	1257	1366	1268	1115	987.6	776.6	613.4	519.9	496.1	507.2	553.2	611.5	636.4	634.1	585.5	516.7	444.9	401.6	362.1	340.4	327.7	332.0	372.1	307.1	190.5	141.1	117.7	206.8	715.0	2320	7283	9999.9	2394	30.33	10.17	7.605	6.334	5.103	4.674	4.132	3.963	3.753	3.685	3.528	3.728	4.045	4.236	4.642	4.223	3.856	4.078	4.578	4.227	4.184	3.870	3.573	3.473	3.349	2.974	3.039	2.866	2.986	2.952	3.042	3.158	3.378	3.197	3.324	3.502	3.756	3.826	3.947	3.986	3.915	3.704	3.684	3.619
380.0	1159	1206	1160	1034	924.0	746.4	600.7	521.8	474.3	483.5	534.3	580.4	605.9	597.8	558.9	501.8	453.1	412.1	385.9	368.2	352.8	342.4	357.2	377.4	260.8	166.6	124.3	112.2	205.6	553.9	1870	9654	9999.9	1757	25.05	11.98	8.755	6.121	5.236	4.390	3.855	3.746	3.611	3.464	3.517	3.900	4.096	4.319	4.087	3.602	3.611	4.235	4.044	3.882	3.879	3.389	3.355	2.904	3.086	2.967	2.823	2.913	2.826	2.697	3.173	3.180	3.187	3.333	3.418	3.461	3.705	3.639	3.887	3.878	3.525	3.711	3.659
385.0	1110	1161	1084	1004	891.6	741.0	609.6	554.2	494.3	505.1	558.8	593.5	615.1	604.4	566.3	504.3	460.5	427.9	416.1	402.4	390.3	377.3	371.5	389.1	354.2	226.3	159.1	123.1	121.7	172.3	472.4	2704	9999.9	9999.9	294.8	24.82	14.50	8.866	5.901	4.891	4.075	4.012	3.617	3.544	3.556	3.710	3.717	4.215	3.689	3.417	3.344	4.229	3.795	3.840	3.576	3.620	3.268	3.035	3.081	2.736	2.889	3.042	2.738	2.732	3.092	3.095	3.196	3.329	3.331	3.400	3.309	3.553	3.993	3.707	3.501	3.658	3.565
390.0	1150	1139	1112	1042	959.9	839.8	750.6	711.5	703.7	753.5	822.5	842.9	825.8	774.4	701.6	608.1	546.0	512.7	502.7	501.1	503.8	495.8	485.2	470.6	488.7	406.5	320.6	273.6	243.3	237.9	285.5	759.2	2872	8262	9999.9	1264	102.5	22.44	11.31	6.596	4.944	4.305	4.009	3.613	3.599	3.646	3.835	3.980	3.847	3.418	3.358	4.290	4.007	4.082	3.836	3.723	3.629	3.538	3.540	3.410	3.370	3.466	3.406	3.701	3.848	3.853	3.961	4.107	4.091	4.148	4.155	4.145	4.364	4.191	4.059	4.149	3.876
395.0	1361	1392	1391	1322	1284	1201	1153	1198	1317	1475	1596	1521	1370	1214	1051	894.4	781.5	718.6	690.5	733.5	767.3	799.4	823.6	836.5	834.4	837.3	798.3	704.0	657.0	623.5	596.3	524.3	963.9	2197	5979	9999.9	2104	122.7	28.28	12.01	7.043	5.305	4.917	4.300	4.297	4.184	3.947	4.534	4.418	4.144	3.966	4.836	4.771	4.650	4.776	4.618	4.903	4.907	4.815	5.141	5.039	5.609	5.860	6.110	6.282	6.613	6.793	6.746	6.446	6.308	6.360	5.996	6.103	5.444	5.401	5.521	5.302
400.0	1779	1756	1833	1759	1749	1729	1768	1881	2134	2180	2679	2612	2358	2030	1685	1356	1136	1030	1001	1052	1109	1191	1265	1331	1349	1365	1396	1326	1240	1203	1147	1009	952.3	1094	1967	8285	9999.9	1621	71.58	20.64	10.36	6.971	5.911	5.223	5.259	4.949	4.932	5.714	5.314	5.184	5.017	5.702	6.152	5.969	6.200	6.016	6.594	7.063	7.098	7.468	7.822	8.333	8.972	9.536	10.15	10.14	10.01	10.16	9.809	9.645	9.349	8.851	8.507	7.979	7.584	7.561	7.428
405.0	2324	2283	2367	2353	2314	2360	2470	2716	3130	3557	3950	3845	3423	2892	2363	1886	1533	1375	1342	1397	1502	1631	1775	1902	1972	2005	2064	2078	1983	1914	1837	1629	1382	1192	1229	2881	9593	9448	279.0	34.29	13.88	9.102	7.622	6.419	5.729	5.938	6.157	6.947	6.540	6.109	6.387	7.214	7.483	7.511	7.783	8.233	8.786	9.678	9.603	10.29	11.10	11.94	13.00	14.05	14.58	14.73	14.17	14.75	13.82	13.18	12.92	11.86	11.70	11.00	10.37	9.466	9.508
410.0	2719	2762	2858	2871	2854	2940	3134	3470	4047	4682	5118	4984	4412	3718	3015	2375	1907	1693	1649	1712	1850	2035	2237	2415	2533	2606	2667	2715	2685	2586	2475	2221	1855	1518	1326	1504	3142	7220	7835	1176	27.05	12.05	9.218	7.932	7.154	7.118	6.952	7.895	7.708	7.046	7.275	8.596	8.666	8.866	9.147	9.898	10.98	11.42	12.15	12.81	13.87	15.39	16.59	17.53	18.58	18.76	18.46	18.35	17.29	16.85	15.66	14.79	14.31	13.43	12.43	11.87	11.11
415.0	2679	2793	2915	2947	2967	3054	3248	3612	4237	4919	5364	5235	4611	3908	3149	2468	1977	1751	1706	1769	1916	2107	2322	2512	2625	2691	2748	2776	2759	2709	2565	2297	1920	1562	1313	1167	1283	1952	4401	9226	1810	27.28	10.81	8.815	7.960	7.592	7.204	8.121	7.781	7.217	7.316	8.886	8.880	9.550	9.621	9.794	11.21	11.78	12.50	13.53	14.35	15.75	16.77	17.95	19.41	19.61	18.79	18.28	17.64	17.24	16.15	15.43	14.15	14.09	12.76	11.86	11.48
420.0	2637	2632	2804	2812	2827	2966	3163	3516	4121	4773	5215	5092	4511	3814	3076	2389	1908	1692	1660	1718	1860	2055	2245	2419	2522	2581	2624	2637	2592	2570	2443	2178	1810	1472	1224	1018	811.9	712.6	1200	5987	8440	1387	19.99	9.633	8.256	7.465	7.168	7.867	7.488	7.129	7.029	8.715	8.460	9.056	9.374	9.656	10.47	10.95	12.42	12.88	13.71	14.78	16.03	17.45	18.35	18.85	18.77	17.96	17.28	16.63	15.86	14.61	14.37	13.43	12.51	11.83	10.48
425.0	2551	2599	2764	2751	2772	2914	3098	3471	4043	4706	5132	5012	4434	3753	3040	2364	1874	1658	1625	1698	1826	2018	2199	2375	2468	2524	2558	2563	2520	2479	2398	2128	1747	1422	1185	963.5	685.6	422.5	374.8	1637	6671	7448	241.4	12.36	8.755	7.711	7.152	7.642	7.383	7.005	7.094	8.355	8.429	8.612	8.986	9.334	10.27	11.09	11.76	12.76	13.91	14.57	16.16	16.71	18.06	18.64	18.41	17.58	17.30	15.85	15.63	14.97	14.48	12.96	12.28	11.12	10.40
430.0	3295	2676	2797	2798	2827	2976	3230	3591	4191	4883	5315	5173	4582	3862	3119	2420	1918	1695	1658	1715	1868	2053	2269	2446	2563	2620	2674	2685	2637	2582	2497	2257	1854	1499	1245	1011	699.7	377.4	196.4	405.6	1788	5482	6449	979.9	19.38	8.765	8.120	8.301	7.640	6.940	7.139	8.674	8.636	9.049	9.274	9.769	10.44	11.82	12.38	13.09	14.10	15.10	16.75	17.43	19.00	18.89	19.42	18.22	17.40	17.09	16.40	15.30	14.49	13.85	12.26	11.50	10.82
435.0	5891	2741	2802	2826	2857	3022	3265	3660	4255	4945	5387	5247	4643	3899	3134	2440	1921	1702	1660	1718	1861	2062	2288	2479	2599	2689	2737	2753	2725	2661	2560	2335	1956	1560	1298	1055	732.9	385.8	164.3	132.9	416.9	1263	3800	7194	1605	22.31	9.318	9.092	8.166	7.809	7.526	8.850	8.588	9.176	9.150	9.756	11.10	11.49	12.54	13.42	14.46	15.55	16.73	17.60	19.26	19.32	18.85	18.33	17.83	16.74	16.14	15.24	14.36	13.78	12.56	11.69	11.21
440.0	8241	3132	2703	2691	2748	2926	3138	3500	4077	4736	5168	5038	4439	3719	2988	2333	1839	1626	1580	1644	1782	1966	2178	2369	2491	2571	2621	2646	2613	2547	2451	2227	1890	1524	1248	1013	709.6	375.1	153.9	71.04	110.8	294.6	976.8	4941	7075	246.0	17.27	9.304	8.337	7.163	7.004	8.533	8.323	9.159	9.157	9.484	10.91	11.62	12.02	12.62	14.03	15.28	16.33	17.34	18.18	18.35	18.10	17.55	16.70	16.03	15.42	14.53	13.71	12.65	12.00	11.09	10.72
445.0	8699	4665	2506	2467	2549	2669	2904	3201	3740	4305	4695	4594	4039	3389	2753	2137	1680	1488	1432	1497	1625	1789	1986	2149	2253	2331	2382	2386	2363	2304	2215	2001	1692	1389	1135	916.0	639.5	341.3	140.2	54.87	42.49	77.97	229.7	1378	6129	5435	203.3	12.94	8.282	7.099	6.870	7.990	7.797	8.665	8.258	8.784	9.913	10.53	11.04	11.80	12.61	13.98	15.06	15.69	16.62	16.65	16.52	16.08	15.15	14.51	13.80	13.25	12.89	11.84	11.27	10.11	9.629
450.0	5615	7594	2792	2115	2190	2314	2481	2758	3186	3664	4001	3874	3435	2896	2344	1816	1437	1269	1235	1287	1390	1530	1686	1822	1902	1955	1990	1999	1968	1915	1843	1656	1392	1150	962.7	768.9	532.2	284.7	117.5	46.24	25.84	28.77	60.74	316.8	1681	4336	6097	885.3	16.87	7.518	6.389	7.506	7.186	7.671	7.490	7.932	8.486	9.094	9.692	10.30	10.75	11.92	12.89	13.69	13.94	14.28	14.08	13.63	13.09	12.52	12.00	11.51	10.61	10.19	9.463	8.560	8.289
455.0	2676	7688	5230	1879	1883	1988	2118	2365	2707	3094	3353	3286	2898	2457	1971	1545	1225	1077	1045	1087	1181	1292	1423	1534	1599	1644	1671	1674	1640	1607	1537	1379	1156	950.7	801.8	654.2	447.3	236.8	100.4	40.51	21.41	17.39	22.73	78.44	382.5	999.6	3397	7517	1352	18.12	6.379	6.932	6.592	6.682	6.726	6.916	7.660	7.991	8.442	8.861	9.525	10.23	10.74	11.51	11.65	11.76	11.67	11.84	11.14	10.95	10.14	10.08	9.074	8.376	7.954	7.367	7.196
460.0	1712	5160	7816	2138	1691	1784	1920	2140	2422	2749	2976	2912	2579	2182	1759	1374	1085	959.1	933.4	967.1	1048	1151	1268	1366	1428	1461	1491	1496	1468	1431	1369	1233	1032	843.4	706.0	590.2	410.4	213.3	90.65	37.48	19.36	15.05	14.42	25.39	92.43	230.5	856.4	4932	6376	1012	13.11	7.087	6.466	6.331	6.390	6.288	6.981	7.165	7.518	7.909	8.633	9.478	10.04	10.25	10.86	10.53	10.96	10.35	10.01	9.929	9.289	8.843	8.337	7.602	7.538	6.965	6.432
465.0	1384	2800	8520	3549	1537	1609	1735	1929	2205	2494	2679	2614	2321	1950	1582	1224	970.0	861.3	837.7	873.0	937.9	1031	1147	1227	1289	1320	1343	1344	1322	1297	1245	1124	929.6	764.2	634.9	531.3	383.7	200.4	86.14	34.88	18.88	14.10	12.50	13.60	27.54	58.24	199.2	1345	5503	5487	167.1	10.26	6.418	6.244	5.847	6.189	6.678	6.740	7.124	7.547	7.952	8.370	8.602	9.315	10.01	9.941	9.677	9.522	9.342	8.893	8.749	8.427	7.755	6.878	6.856	6.211	5.621
470.0	1200	1506	5318	6702	1856	1378	1490	1634	1862	2097	2264	2203	1958	1642	1337	1032	817.8	725.9	710.0	736.0	791.8	867.2	956.5	1025	1080	1108	1128	1134	1117	1095	1049	946.0	787.7	645.4	536.2	442.6	324.5	183.6	80.93	32.91	18.21	13.37	11.39	10.60	12.62	19.15	50.98	307.0	1492	4057	3801	823.4	15.66	6.535	5.799	5.808	6.075	6.283	6.409	6.456	6.929	7.489	7.681	8.047	8.493	8.626	8.384	7.954	7.786	7.428	7.255	6.767	6.223	6.169	5.350	5.082	4.980
475.0	1053	1062	2161	7272	4070	1160	1218	1344	1502	1686	1832	1768	1562	1318	1072	836.7	669.6	588.6	573.9	593.9	635.5	692.7	758.5	820.7	858.7	881.2	900.0	899.5	887.7	869.5	836.3	754.5	627.9	514.1	432.0	351.3	252.9	151.9	75.88	32.22	17.40	12.41	10.43	9.488	9.426	10.01	16.46	73.77	337.1	923.4	1894	4474	1245	19.33	5.504	5.172	5.428	5.522	5.552	5.566	5.686	5.996	6.385	6.790	6.937	6.958	6.815	6.398	6.329	6.190	6.010	5.716	5.267	4.765	4.827	4.266	4.160
480.0	903.6	845.8	1094	4914	6678	1361	1025	1139	1263	1414	1522	1480	1325	1113	903.7	702.7	560.2	496.0	485.9	506.1	533.1	577.6	637.6	687.0	715.3	730.5	743.8	748.5	734.8	719.0	688.4	619.4	520.4	424.0	357.0	291.2	208.9	122.7	69.66	35.06	18.00	12.55	10.27	9.151	8.607	7.773	8.859	21.33	79.91	210.3	463.1	2609	4205	220.3	13.51	5.111	4.853	4.851	5.100	5.009	4.915	5.177	5.407	5.738	5.867	5.837	5.557	5.654	5.344	5.181	4.981	4.837	4.397	4.104	3.949	3.848	3.352
485.0	811.2	783.1	789.5	2411	7752	2587	883.6	970.7	1072	1210	1290	1265	1133	956.7	777.9	602.6	476.8	429.5	419.4	430.5	457.6	499.5	545.4	583.5	609.0	622.0	627.9	631.3	618.0	606.4	580.0	520.8	438.0	360.8	301.7	246.2	177.3	102.2	58.46	36.96	20.48	12.78	10.15	8.697	7.910	7.291	7.489	9.540	22.00	51.10	107.7	693.5	3227	3927	193.9	8.676	4.793	4.712	4.780	4.507	4.434	4.375	4.693	5.039	5.184	5.047	5.239	5.024	4.571	4.442	4.282	4.251	4.001	3.553	3.608	3.210	3.222
490.0	636.3	718.8	645.2	1041	5032	5533	1154	804.4	892.8	995.7	1073	1041	934.0	790.1	639.0	498.8	398.2	353.0	348.7	357.9	379.6	410.9	450.0	480.4	501.4	511.3	517.2	516.1	510.7	501.2	475.5	428.3	361.8	297.8	248.8	202.7	146.7	84.36	45.70	32.36	25.65	15.46	10.54	8.639	7.470	6.841	6.708	7.003	9.016	15.20	27.57	158.8	843.9	2648	2632	845.2	16.65	5.036	4.245	4.171	3.967	4.135	4.149	4.173	4.375	4.323	4.345	4.155	3.988	3.896	3.751	3.460	3.191	3.129	2.972	2.744	2.728
495.0	502.3	591.2	579.7	619.5	1857	7246	2931	689.2	739.2	821.7	878.0	852.3	761.2	642.8	521.6	407.2	330.0	288.9	284.9	292.8	312.9	338.3	371.1	393.9	409.2	415.9	423.8	424.8	420.8	407.8	391.7	352.6	298.1	247.6	204.9	167.8	120.8	70.77	37.53	24.11	24.45	20.56	12.04	8.744	7.634	6.773	6.147	6.122	6.276	6.910	9.325	38.95	191.4	601.5	1482	3871	1395	21.96	4.345	3.831	3.788	3.645	3.551	3.810	3.552	3.626	3.514	3.596	3.278	3.093	2.964	2.802	2.699	2.605	2.429	2.292	2.357
500.0	411.3	478.6	546.3	488.5	780.2	5166	5905	857.2	624.0	699.9	750.4	725.7	641.5	543.4	445.7	348.8	279.6	247.2	240.1	248.3	266.7	287.2	313.6	333.5	346.5	356.2	357.4	363.8	355.7	348.4	335.6	303.7	256.6	211.2	177.0	143.9	103.9	62.59	33.25	20.06	18.82	21.53	15.29	9.364	7.671	6.628	5.869	5.959	5.716	5.118	5.049	11.84	45.91	137.5	361.1	2085	3678	1090	15.94	4.185	3.465	3.215	3.197	3.551	3.326	3.086	2.973	3.196	2.964	2.625	2.698	2.567	2.423	2.325	2.214	2.046	2.020
505.0	334.7	401.3	498.2	430.7	484.0	2455	7673	1938	546.4	601.5	633.6	617.5	547.8	463.7	381.0	299.1	239.4	212.5	205.2	213.0	225.2	244.1	264.4	285.0	297.1	302.4	307.6	309.4	306.7	300.6	285.4	260.5	219.6	183.2	153.1	125.1	91.19	54.52	29.59	18.22	14.70	17.94	18.35	11.06	7.612	6.284	5.721	5.627	5.218	4.950	4.113	5.856	13.24	34.00	84.41	533.0	2456	3586	226.2	9.357	3.644	3.349	3.087	3.210	3.155	2.867	2.883	2.728	2.757	2.459	2.391	2.425	2.166	2.139	1.919	1.973	1.836
510.0	293.3	315.6	389.6	397.1	361.9	861.2	5259	5847	774.5	486.6	511.9	493.3	440.6	373.0	305.3	241.3	192.1	172.6	168.2	171.9	182.6	196.9	210.2	225.8	237.9	242.0	245.3	246.1	242.7	238.7	229.0	207.8	175.2	146.3	122.5	101.5	74.50	45.69	25.50	16.17	12.38	12.76	15.63	14.40	9.318	6.051	5.462	5.187	4.821	4.480	4.211	4.264	5.621	10.41	21.61	122.0	620.9	2071	2276	938.2	16.48	3.617	2.944	2.698	2.836	2.532	2.439	2.524	2.277	2.116	2.107	2.011	1.972	1.798	1.627	1.628	1.551
515.0	248.4	252.5	280.6	352.9	308.0	389.8	1775	7917	2168	400.3	403.6	377.7	341.2	290.4	239.0	187.2	151.2	133.9	131.7	134.3	140.9	152.1	164.1	177.1	181.6	186.1	189.9	189.5	187.3	184.1	174.5	158.4	137.9	112.7	95.76	78.40	58.65	37.46	21.62	14.00	11.27	10.32	10.54	13.61	12.36	7.214	5.245	4.813	4.301	4.102	3.866	4.020	3.726	4.665	7.295	29.74	140.8	466.9	999.2	2862	1332	23.57	2.968	2.538	2.372	2.177	2.133	2.251	1.913	1.774	1.616	1.744	1.585	1.430	1.406	1.429	1.230
520.0	191.7	207.9	220.3	300.6	283.9	258.8	605.0	5547	5774	570.4	331.3	314.9	280.6	239.1	194.4	155.2	125.0	112.4	109.4	109.9	114.8	124.3	135.0	143.8	147.7	150.9	151.9	154.2	151.2	146.5	143.5	130.8	112.9	91.08	78.75	64.52	47.79	31.03	19.02	12.88	10.44	8.944	8.666	10.48	12.90	9.506	5.583	4.539	3.968	3.704	3.411	3.785	3.493	3.459	3.826	8.769	33.83	106.3	235.5	1361	2743	1170	16.74	2.750	2.309	1.970	1.997	2.093	1.643	1.736	1.461	1.512	1.362	1.282	1.237	1.282	1.173
525.0	176.1	185.9	179.1	239.0	282.3	215.5	298.3	2379	8071	1584	280.9	265.1	234.6	204.2	163.1	131.1	104.5	94.76	92.50	92.60	97.83	105.3	112.5	118.5	124.3	123.7	126.1	127.1	125.4	122.3	117.2	107.2	91.68	76.90	65.83	54.20	40.99	26.57	17.17	11.50	9.754	8.130	7.488	8.119	11.32	10.90	6.637	4.460	3.866	3.429	3.265	3.279	3.631	3.030	2.855	4.136	9.706	25.96	55.17	331.7	1558	3150	235.6	10.34	2.547	1.899	1.815	1.789	1.542	1.426	1.445	1.357	1.332	1.101	1.191	1.019	1.190
530.0	155.0	150.5	151.7	162.8	243.3	207.1	195.1	722.3	5355	5966	528.4	213.3	188.2	161.8	132.9	105.2	85.12	76.88	75.69	75.15	78.07	84.33	89.17	93.93	98.53	98.83	100.4	100.9	99.64	97.08	93.95	84.47	72.86	61.32	52.84	44.07	33.35	21.99	14.49	10.26	8.735	7.355	6.747	6.437	7.585	9.922	9.109	5.548	3.793	3.235	2.995	3.092	3.124	3.192	2.774	2.877	4.099	7.831	14.31	76.09	378.6	1539	1760	929.7	17.66	2.461	1.822	1.757	1.513	1.314	1.335	1.192	1.256	1.001	1.035	0.934	1.029
535.0	123.5	120.7	124.0	122.0	174.3	212.8	155.1	272.4	1625	7895	1738	183.8	150.9	128.6	102.5	83.52	66.77	59.80	58.60	58.48	61.54	65.78	69.56	73.73	76.11	77.28	77.95	78.55	77.79	75.58	73.54	65.30	57.69	48.02	41.53	34.26	26.75	18.26	12.41	8.923	7.899	6.685	6.062	5.362	5.511	6.386	8.814	7.538	4.410	3.042	2.858	2.680	2.660	2.662	3.046	2.753	2.591	3.343	4.868	18.72	85.99	345.8	613.1	1968	1426	24.93	2.145	1.726	1.425	1.321	1.150	0.953	1.132	0.939	0.942	0.964	0.915
540.0	113.8	103.6	103.3	100.8	122.3	202.6	148.3	149.3	486.1	4996	5758	221.8	129.9	105.2	86.50	69.97	55.48	49.56	49.97	48.97	52.12	54.99	57.68	58.84	62.08	63.03	63.48	65.74	63.69	61.99	60.45	53.68	47.97	40.64	34.73	28.60	22.73	15.85	10.83	8.165	7.062	6.144	5.840	4.860	4.611	4.708	6.479	8.147	5.530	3.153	2.650	2.324	2.243	2.274	2.622	2.860	2.212	2.407	2.662	5.741	20.87	78.85	141.4	792.8	2394	933.3	18.09	2.104	1.392	1.317	1.138	0.936	0.949	0.878	0.971	0.879	0.862
545.0	113.0	95.04	88.36	84.25	97.40	173.9	160.1	112.4	194.4	1901	7814	1151	111.6	90.57	73.75	57.95	47.22	43.21	41.70	41.47	42.27	45.51	47.80	50.26	52.36	54.17	52.75	53.13	53.10	51.69	50.11	44.97	39.59	33.72	29.15	24.22	19.54	13.92	9.518	7.565	6.423	5.637	5.040	4.330	4.146	4.137	4.677	7.002	6.310	3.741	2.621	2.278	2.226	2.166	2.210	2.582	2.628	2.013	2.087	2.656	6.014	19.11	33.21	186.1	1138	1939	244.9	12.22	1.653	1.176	1.100	0.986	0.906	0.837	0.885	0.767	0.858
550.0	102.0	84.38	82.42	73.08	74.40	113.6	166.4	99.97	110.4	533.3	4545	5161	313.1	74.25	57.51	45.93	37.46	34.34	32.76	33.12	33.94	35.44	36.29	38.77	40.01	41.00	41.03	41.20	41.16	40.45	38.75	35.10	30.97	26.07	23.08	19.65	15.40	11.38	8.079	6.148	5.667	5.033	4.377	3.880	3.837	3.493	3.610	4.577	5.772	4.896	3.006	2.180	1.870	1.999	1.942	2.051	2.348	2.328	1.858	1.772	2.532	5.518	8.637	42.87	267.2	804.6	1212	811.6	18.27	1.746	1.150	0.986	0.916	0.843	0.753	0.697	0.682
555.0	80.79	80.24	72.83	58.70	58.39	67.58	134.5	115.1	76.85	177.7	1256	6647	1302	66.01	46.07	37.18	29.42	26.89	24.70	25.70	26.14	26.83	28.73	29.35	29.24	30.02	31.28	31.06	31.06	30.09	29.52	26.77	23.77	19.95	17.52	14.95	11.77	8.892	6.311	5.306	4.704	4.179	3.884	3.155	3.389	3.044	2.887	3.059	4.001	4.798	3.715	2.375	1.717	1.634	1.589	1.738	1.747	2.175	2.123	1.542	1.631	2.370	3.019	10.64	60.66	180.5	362.9	1282	947.0	26.76	1.620	1.026	1.014	0.731	0.694	0.711	0.696
560.0	83.86	78.40	61.04	48.34	48.60	51.41	95.38	134.9	65.88	87.04	342.0	3969	5136	130.8	40.02	30.04	24.61	22.39	20.85	21.29	19.61	21.95	22.18	22.72	23.62	23.72	24.00	24.31	23.79	23.07	23.23	20.92	19.51	16.13	13.67	11.98	10.07	7.762	5.473	4.613	4.009	3.538	3.290	3.007	2.674	2.739	2.469	2.644	2.599	3.595	4.058	2.694	1.698	1.508	1.460	1.608	1.446	1.628	2.039	1.648	1.467	1.516	1.539	3.238	14.58	41.23	82.81	446.8	1279	635.8	20.32	1.199	0.939	0.706	0.637	0.801	0.696
565.0	85.47	75.77	49.96	41.96	39.31	41.25	62.41	131.4	74.37	61.88	120.2	1403	7009	827.7	36.61	26.44	20.29	18.60	17.83	17.20	16.44	17.47	18.65	19.50	19.62	20.40	18.88	19.40	19.86	19.25	18.99	17.27	15.17	13.33	11.52	9.823	8.198	6.136	4.785	4.050	3.528	3.139	3.058	2.726	2.518	2.390	2.187	2.216	2.043	2.771	3.527	3.209	2.010	1.366	1.350	1.339	1.355	1.332	1.611	1.890	1.360	1.390	1.176	1.648	4.174	10.28	19.41	103.0	523.3	1072	252.5	12.27	1.154	0.738	0.667	0.718	0.630
570.0	82.15	69.70	50.46	36.40	32.80	34.29	41.67	96.51	99.08	51.36	63.26	373.3	3997	4135	92.15	21.53	16.99	15.35	13.73	14.03	13.51	13.66	14.43	14.57	15.15	15.66	15.13	14.85	15.11	14.73	14.39	13.31	11.55	10.37	8.851	7.966	6.574	5.081	3.932	3.446	2.983	2.684	2.501	2.384	2.243	2.067	1.983	1.878	1.705	1.886	2.265	2.870	2.383	1.614	1.308	1.190	1.131	1.170	1.274	1.482	1.547	1.415	1.109	1.132	1.764	3.113	5.180	23.91	120.7	391.1	733.1	507.4	18.54	1.386	0.800	0.634	0.631
575.0	78.80	60.32	48.51	34.48	29.04	29.15	30.50	54.53	109.6	60.56	44.34	114.2	1069	5237	914.8	21.57	14.75	12.73	11.60	11.40	10.73	11.26	11.23	11.22	11.52	11.80	11.58	11.12	11.42	10.97	11.32	9.759	8.837	7.596	6.933	6.242	5.318	4.016	3.240	2.820	2.542	2.462	2.273	1.947	1.993	2.013	1.781	1.677	1.420	1.365	1.485	1.997	2.223	2.028	1.262	1.101	1.005	1.029	1.120	1.052	1.115	1.529	1.377	0.823	1.132	1.387	1.849	6.070	27.71	87.92	199.1	641.7	628.5	27.26	1.154	0.734	0.661
580.0	75.74	65.01	43.87	29.85	24.64	25.86	26.62	35.62	93.05	79.89	39.24	54.83	276.0	3123	3595	70.08	12.55	11.04	10.14	10.49	9.106	9.206	9.513	9.774	9.723	9.837	9.395	9.189	9.251	9.271	9.201	8.111	7.138	6.341	6.001	5.232	4.306	3.635	2.868	2.548	2.321	2.358	2.010	1.656	1.911	1.600	1.595	1.550	1.382	1.259	1.224	1.267	1.972	2.092	1.479	1.090	1.043	0.947	0.931	0.908	0.964	1.286	1.292	0.916	0.858	1.013	1.029	2.115	6.919	20.33	45.49	208.0	727.8	269.9	20.67	0.838	0.766
585.0	75.12	67.45	43.74	28.30	20.42	24.00	23.92	27.46	64.35	96.86	39.70	39.01	87.39	1112	4856	485.5	12.86	10.41	9.538	8.933	7.793	8.207	7.912	8.448	7.936	7.948	8.090	8.183	7.869	7.566	7.469	7.109	6.037	5.633	4.977	4.647	3.546	3.278	2.612	2.315	2.017	2.194	1.778	1.651	1.554	1.592	1.474	1.339	1.148	1.156	1.049	1.066	1.650	2.100	1.744	1.231	1.002	1.017	0.883	0.801	0.807	0.953	1.401	1.252	0.941	0.750	0.918	1.096	2.188	5.133	10.95	47.89	276.3	650.3	244.2	10.44	0.840
590.0	70.70	58.00	42.49	26.06	19.96	20.04	21.22	22.68	37.92	90.89	56.23	31.80	42.19	287.6	2788	2551	52.29	9.696	8.232	7.587	6.798	6.880	6.885	6.796	6.696	6.562	6.360	6.750	6.401	6.334	6.199	5.686	5.122	4.628	4.265	3.776	3.068	2.679	2.246	1.898	1.575	1.876	1.527	1.460	1.417	1.362	1.350	1.246	1.117	1.084	0.916	0.945	1.083	1.463	1.745	1.375	1.001	0.889	0.791	0.707	0.742	0.856	1.002	1.252	1.073	0.776	0.768	0.798	1.102	1.707	3.051	11.35	63.36	231.8	472.5	318.1	18.33
595.0	66.97	53.40	37.04	23.64	19.93	18.17	17.92	19.94	26.15	57.35	81.01	32.06	28.76	80.14	744.8	3437	603.4	10.06	7.373	7.313	5.551	5.956	5.757	5.670	5.258	5.399	5.284	5.029	5.139	5.245	5.025	4.729	4.098	3.658	3.362	3.056	2.718	2.051	1.926	1.777	1.448	1.555	1.404	1.343	1.261	1.221	1.099	1.122	1.001	0.897	0.793	0.858	0.825	0.978	1.322	1.420	1.037	0.966	0.743	0.685	0.710	0.678	0.817	0.878	1.098	0.877	0.754	0.713	0.679	0.902	1.193	3.093	14.59	52.19	123.6	363.8	283.9
600.0	61.06	45.98	33.28	22.95	19.73	15.60	18.43	18.64	23.61	37.49	85.14	38.82	24.16	33.28	187.0	2174	2038	36.31	6.967	6.528	5.371	5.388	5.331	4.762	4.376	4.569	4.540	4.500	4.479	4.085	4.241	4.174	3.710	3.162	2.778	2.740	2.607	2.031	1.697	1.564	1.302	1.376	1.282	1.257	1.146	1.168	1.089	0.939	1.022	0.716	0.673	0.833	0.779	0.811	0.922	1.233	1.227	1.098	0.838	0.694	0.645	0.709	0.652	0.699	0.808	1.083	0.816	0.701	0.625	0.655	0.671	1.235	3.696	12.17	28.27	116.6	412.3
605.0	59.00	48.31	33.83	22.38	20.02	16.59	17.95	17.86	23.12	28.13	73.32	53.91	24.32	22.17	54.38	792.5	2935	269.5	7.436	6.126	5.214	4.746	4.473	4.419	3.948	4.026	3.950	4.219	3.893	3.578	3.441	3.603	3.223	2.951	2.500	2.341	2.344	1.794	1.477	1.534	1.238	1.152	1.114	1.042	1.123	1.086	1.047	0.912	0.846	0.755	0.683	0.644	0.808	0.738	0.700	1.014	1.243	1.106	0.820	0.670	0.619	0.678	0.677	0.599	0.696	0.975	1.021	0.764	0.706	0.615	0.525	0.745	1.250	3.200	6.765	26.89	156.2
610.0	62.49	51.46	36.73	23.27	19.53	15.99	18.19	19.49	22.02	27.71	49.25	70.52	30.86	21.41	24.40	203.8	1854	1404	33.48	5.924	4.903	4.259	3.983	3.932	3.695	3.405	3.642	3.406	3.315	3.483	3.246	3.076	2.673	2.477	2.164	1.968	1.987	1.678	1.297	1.259	1.125	1.048	1.120	0.981	0.997	0.890	0.915	0.934	0.850	0.686	0.620	0.675	0.664	0.661	0.629	0.735	1.040	1.118	1.007	0.683	0.603	0.642	0.621	0.618	0.640	0.735	0.888	0.845	0.637	0.590	0.551	0.571	0.720	1.164	1.892	6.510	35.91
615.0	57.09	52.36	32.70	22.70	19.49	17.07	18.03	18.82	20.24	24.89	33.31	65.76	45.81	20.51	17.18	55.18	514.2	2364	413.7	6.789	4.591	3.994	3.813	3.383	3.291	3.027	3.138	3.165	2.955	2.793	2.881	2.614	2.294	2.114	1.873	1.830	1.532	1.524	1.306	0.995	1.118	0.922	0.988	0.923	0.848	0.766	0.784	0.792	0.791	0.663	0.533	0.634	0.555	0.564	0.558	0.560	0.753	0.907	0.984	0.697	0.626	0.600	0.579	0.661	0.611	0.739	0.589	0.785	0.799	0.649	0.479	0.574	0.485	0.679	0.807	1.845	8.372
620.0	48.58	49.72	34.04	21.29	18.59	16.78	17.15	17.63	20.03	24.00	28.49	49.22	58.54	21.12	15.35	22.13	130.2	1645	1363	19.31	4.188	3.850	3.420	3.002	2.847	2.774	2.906	2.638	2.749	2.611	2.524	2.465	1.933	1.684	1.824	1.579	1.345	1.252	1.430	1.059	0.931	0.943	0.843	0.817	0.756	0.704	0.705	0.775	0.708	0.581	0.503	0.656	0.492	0.561	0.581	0.490	0.566	0.775	0.937	0.812	0.617	0.588	0.499	0.614	0.607	0.605	0.599	0.658	0.830	0.781	0.536	0.550	0.508	0.548	0.552	0.760	2.290
625.0	46.41	47.77	30.42	19.97	16.58	15.86	16.34	19.45	20.08	23.20	25.74	36.26	59.98	25.48	15.64	14.08	37.84	649.9	2138	70.62	4.542	3.755	3.163	2.712	2.722	2.499	2.425	2.375	2.297	2.388	2.427	2.217	1.807	1.540	1.428	1.588	1.250	1.147	1.214	1.159	0.891	0.877	0.762	0.753	0.811	0.660	0.701	0.737	0.618	0.602	0.514	0.544	0.507	0.535	0.509	0.542	0.548	0.621	0.891	0.750	0.666	0.576	0.572	0.571	0.551	0.546	0.525	0.518	0.662	0.718	0.630	0.477	0.526	0.560	0.514	0.565	1.020
630.0	52.55	44.20	32.98	20.76	17.06	15.59	15.78	18.72	19.64	22.87	26.73	29.70	50.65	36.39	16.40	11.67	16.48	166.0	1513	1116	18.17	3.944	3.093	2.832	2.632	2.528	2.004	2.233	2.153	1.975	2.062	1.781	1.559	1.501	1.288	1.351	1.103	1.095	0.959	1.047	1.062	0.787	0.771	0.711	0.750	0.703	0.704	0.705	0.597	0.544	0.477	0.517	0.516	0.490	0.530	0.490	0.573	0.559	0.711	0.714	0.699	0.587	0.528	0.490	0.522	0.517	0.507	0.507	0.570	0.679	0.728	0.571	0.475	0.539	0.527	0.494	0.600
635.0	51.35	47.72	36.53	19.94	17.44	15.91	17.91	17.90	19.74	22.17	27.12	27.31	37.62	46.92	18.50	11.83	11.42	43.21	441.8	2121	243.8	4.335	3.219	2.513	2.197	2.410	1.882	1.993	1.978	1.738	1.969	1.637	1.464	1.380	1.271	1.275	0.952	0.982	0.851	0.850	0.989	0.874	0.624	0.726	0.671	0.737	0.640	0.675	0.611	0.497	0.460	0.505	0.507	0.514	0.415	0.427	0.573	0.471	0.498	0.605	0.748	0.685	0.508	0.491	0.525	0.461	0.500	0.507	0.633	0.525	0.627	0.699	0.480	0.515	0.465	0.393	0.470
640.0	56.41	54.57	46.00	20.74	18.68	17.70	19.56	18.73	19.72	22.02	26.71	27.84	28.94	46.21	25.42	11.81	9.763	15.48	111.0	1646	879.2	9.440	3.041	2.513	2.389	2.328	2.000	1.907	1.792	1.711	1.993	1.723	1.396	1.246	1.170	1.276	0.861	0.946	0.722	0.832	0.983	0.969	0.673	0.711	0.602	0.714	0.614	0.676	0.616	0.470	0.483	0.465	0.510	0.496	0.447	0.419	0.509	0.472	0.456	0.465	0.652	0.689	0.578	0.562	0.492	0.527	0.471	0.455	0.498	0.498	0.494	0.777	0.681	0.543	0.408	0.421	0.449
645.0	79.40	81.95	50.51	22.07	19.16	18.00	19.35	19.78	22.11	25.11	27.17	29.68	28.93	38.40	32.04	12.35	9.705	9.101	29.44	703.0	1544	50.70	3.281	2.571	2.197	2.238	1.949	1.902	1.773	1.814	1.676	1.483	1.341	1.243	1.139	1.084	0.922	0.918	0.725	0.699	0.893	1.131	0.725	0.639	0.578	0.723	0.620	0.687	0.597	0.456	0.447	0.439	0.480	0.492	0.498	0.498	0.522	0.546	0.435	0.462	0.609	0.649	0.562	0.545	0.510	0.515	0.501	0.493	0.505	0.458	0.535	0.606	0.669	0.547	0.495	0.493	0.449
650.0	101.0	96.29	55.76	26.61	17.33	16.57	20.33	21.46	22.70	26.31	26.94	29.68	28.16	32.42	36.95	14.47	9.552	7.386	11.26	197.4	1558	377.7	3.841	2.609	2.164	2.126	1.863	1.805	2.073	1.726	1.671	1.298	1.321	1.305	1.137	1.005	0.974	0.849	0.742	0.707	0.759	0.964	1.067	0.628	0.602	0.704	0.619	0.826	0.547	0.557	0.452	0.469	0.453	0.521	0.503	0.476	0.480	0.484	0.577	0.571	0.487	0.551	0.586	0.609	0.572	0.467	0.515	0.482	0.498	0.480	0.549	0.531	0.546	0.560	0.489	0.471	0.392
