Sample:	'1
File name:	Default_20230303_085403.FD3
Run date:	'08:47:42, 03/03/2023
Operator:	user
Comment:	'

Instrument
Model:	F-2700 FL Spectrophotometer
Serial number:	2190-003
ROM Version:	4J14000 07

Instrument parameters
Measurement type:	3-D scan
Data mode:	Fluorescence
EX  Start WL:	220.0 nm
EX  End WL:	600.0 nm
EX Sampling interval:	5.0 nm
EM  Start WL:	230.0 nm
EM  End WL:	650.0 nm
EM Sampling interval:	5.0 nm
Scan speed:	12000 nm/min
EX Slit:	5.0 nm
EM Slit:	5.0 nm
PMT Voltage:	700 V
Response:	Auto 
Corrected spectra:	Off
Contour interval:	50.000

Peak integration
Integration method:	Rectangular
Sensitivity:	1
Threshold:	1.000

Peaks
No.	ApexEX/EM(nm)	Height(Data)
1	230.0/340.0	521.8
2	235.0/350.0	439.7
3	245.0/400.0	637.0
4	250.0/390.0	639.5
5	250.0/405.0	628.0
6	250.0/420.0	576.3
7	250.0/540.0	-63.11
8	255.0/555.0	-78.24
9	260.0/285.0	329.5
10	260.0/395.0	585.5
11	260.0/435.0	506.1
12	260.0/565.0	-72.83
13	265.0/290.0	409.3
14	265.0/445.0	490.1
15	265.0/580.0	-58.68
16	270.0/295.0	659.1
17	270.0/590.0	-50.12
18	275.0/305.0	976.0
19	275.0/600.0	-29.43
20	280.0/310.0	976.1
21	280.0/340.0	899.8
22	280.0/615.0	-27.15
23	285.0/315.0	961.9
24	285.0/630.0	-23.56
25	290.0/320.0	863.2
26	290.0/375.0	759.1
27	290.0/640.0	-16.76
28	305.0/340.0	529.9
29	305.0/395.0	670.8
30	310.0/345.0	492.4
31	315.0/395.0	663.8
32	320.0/360.0	512.0
33	320.0/400.0	663.7
34	325.0/365.0	513.5
35	335.0/380.0	522.2
36	430.0/505.0	35.06
37	450.0/530.0	14.02
38	460.0/545.0	6.513
39	465.0/550.0	5.149
40	545.0/305.0	-5.189
41	560.0/310.0	-5.387
42	565.0/315.0	-5.530
43	575.0/325.0	-5.573

Data points
	220.0	225.0	230.0	235.0	240.0	245.0	250.0	255.0	260.0	265.0	270.0	275.0	280.0	285.0	290.0	295.0	300.0	305.0	310.0	315.0	320.0	325.0	330.0	335.0	340.0	345.0	350.0	355.0	360.0	365.0	370.0	375.0	380.0	385.0	390.0	395.0	400.0	405.0	410.0	415.0	420.0	425.0	430.0	435.0	440.0	445.0	450.0	455.0	460.0	465.0	470.0	475.0	480.0	485.0	490.0	495.0	500.0	505.0	510.0	515.0	520.0	525.0	530.0	535.0	540.0	545.0	550.0	555.0	560.0	565.0	570.0	575.0	580.0	585.0	590.0	595.0	600.0
230.0	-859.5	-439.3	 1871	 1388	-223.0	-275.8	-229.4	-204.2	-180.6	-158.8	-140.6	-119.4	-99.40	-81.44	-65.36	-54.74	-44.80	-38.65	-34.09	-29.90	-27.45	-24.56	-22.69	-21.06	-19.72	-18.35	-17.54	-17.07	-16.42	-16.00	-15.27	-14.57	-13.59	-12.81	-11.73	-10.72	-10.44	-10.53	-9.797	-9.815	-9.395	-9.613	-9.429	-9.119	-8.798	-8.631	-7.398	-5.702	-2.242	-1.793	-4.526	-6.997	-7.015	-7.513	-7.205	-7.526	-7.724	-7.812	-7.556	-7.646	-7.834	-7.802	-7.916	-7.912	-7.884	-8.044	-8.045	-7.949	-8.252	-8.124	-8.130	-8.240	-8.229	-8.284	-8.526	-8.731	-8.797
235.0	-880.9	-629.7	389.2	 2567	 1722	-112.4	-229.4	-207.9	-182.8	-156.0	-139.3	-119.7	-96.32	-81.60	-65.55	-53.67	-44.45	-39.46	-34.74	-30.38	-27.79	-24.87	-22.88	-20.77	-19.58	-18.16	-17.00	-17.03	-16.63	-16.09	-14.95	-14.38	-13.24	-12.82	-12.03	-10.84	-10.18	-10.39	-10.05	-9.994	-9.331	-9.697	-9.386	-8.964	-8.784	-8.648	-7.496	-7.199	-5.519	-3.045	-0.645	-0.778	-4.427	-6.975	-7.109	-7.410	-7.681	-7.683	-7.716	-7.671	-7.936	-7.606	-7.776	-8.063	-7.650	-8.091	-7.877	-8.229	-8.283	-8.140	-8.268	-8.475	-8.204	-8.299	-8.565	-8.857	-8.690
240.0	-779.4	-621.8	-329.1	 1072	 3769	 1624	-147.7	-200.5	-180.0	-155.3	-140.0	-121.4	-97.31	-82.87	-65.24	-53.41	-45.18	-38.92	-33.16	-30.47	-27.18	-24.22	-22.49	-21.37	-19.78	-18.45	-17.74	-17.17	-16.61	-15.97	-15.28	-14.38	-13.37	-13.13	-11.52	-10.63	-10.37	-10.19	-10.25	-9.474	-9.587	-9.811	-9.441	-8.917	-8.556	-8.722	-7.398	-7.543	-6.554	-4.924	-3.328	-0.660	1.531	-1.360	-5.264	-7.389	-7.897	-7.960	-7.779	-7.782	-8.022	-7.847	-7.756	-8.095	-8.011	-8.063	-7.910	-8.075	-8.367	-8.242	-8.335	-8.266	-8.079	-8.283	-8.438	-8.876	-8.855
245.0	-839.6	-611.9	-465.1	-33.67	 2149	 4599	 1261	-167.1	-172.2	-154.9	-140.4	-123.7	-98.00	-82.11	-64.86	-55.79	-44.78	-39.48	-34.20	-30.39	-26.60	-24.33	-22.99	-20.76	-19.13	-18.75	-17.94	-16.64	-16.61	-16.12	-15.43	-14.77	-13.22	-13.15	-11.82	-10.61	-10.68	-10.46	-10.05	-9.623	-9.610	-9.662	-9.268	-8.994	-8.662	-8.532	-7.354	-7.596	-6.874	-5.734	-5.469	-5.061	-1.492	3.158	3.490	-2.578	-6.744	-7.680	-7.575	-7.711	-7.573	-7.903	-7.786	-8.010	-7.922	-7.986	-8.021	-8.059	-8.104	-8.149	-8.300	-8.230	-8.198	-8.261	-8.679	-8.833	-8.863
250.0	-857.4	-655.3	-439.1	-253.1	295.7	 2315	 4793	 3181	241.1	-151.1	-134.7	-115.3	-99.03	-77.91	-64.32	-55.06	-44.18	-39.00	-34.03	-29.84	-26.92	-23.97	-22.80	-20.51	-18.92	-18.87	-17.61	-16.68	-16.51	-15.57	-15.12	-14.68	-13.59	-12.99	-12.09	-10.98	-10.80	-10.73	-9.959	-9.640	-9.585	-9.482	-9.399	-9.057	-8.843	-8.460	-7.410	-7.383	-6.734	-5.718	-5.729	-6.747	-5.667	-4.053	-0.974	3.033	5.541	2.578	-2.263	-6.556	-7.754	-7.897	-7.715	-7.801	-7.765	-7.928	-7.981	-7.913	-8.109	-8.056	-8.111	-8.470	-8.315	-8.307	-8.669	-8.700	-8.880
255.0	-860.7	-682.5	-512.5	-242.4	-99.46	314.2	 1639	 6605	 5961	403.7	-124.6	-111.0	-96.96	-75.20	-63.37	-53.66	-43.54	-36.89	-33.06	-28.74	-26.89	-24.48	-22.24	-20.91	-19.43	-18.20	-17.50	-16.82	-16.13	-15.78	-15.07	-14.11	-13.25	-12.74	-12.18	-11.09	-10.72	-10.51	-10.23	-9.900	-9.569	-9.380	-9.225	-9.009	-8.689	-8.558	-7.408	-7.496	-6.774	-5.798	-5.767	-6.870	-6.424	-6.590	-5.803	-4.925	-3.013	2.940	13.42	11.16	0.680	-7.201	-7.698	-7.745	-7.829	-7.911	-8.100	-8.186	-8.310	-8.181	-8.350	-8.351	-8.363	-8.299	-8.589	-8.712	-8.793
260.0	-812.3	-696.5	-527.5	-313.7	-97.10	-80.83	211.2	 2950	 9628	 5890	110.7	-108.1	-95.81	-78.51	-59.72	-52.97	-44.41	-37.91	-33.05	-29.31	-26.98	-24.37	-22.21	-20.75	-19.12	-18.35	-17.64	-17.03	-16.15	-15.96	-14.98	-14.59	-13.37	-12.83	-11.70	-10.91	-10.51	-10.72	-10.18	-9.974	-9.584	-9.713	-9.395	-8.918	-8.501	-8.712	-7.793	-7.585	-7.008	-5.784	-5.704	-6.891	-6.352	-7.064	-6.855	-6.818	-6.646	-4.634	1.440	12.75	21.93	9.936	-2.971	-7.449	-7.886	-8.061	-8.141	-8.002	-8.249	-8.128	-8.216	-8.391	-8.248	-8.206	-8.550	-8.730	-8.926
265.0	-875.9	-669.3	-531.0	-394.1	-167.5	-48.87	-96.65	596.6	 4861	9999.9	 1369	-17.16	-89.79	-76.09	-62.38	-52.54	-43.11	-37.28	-32.55	-28.60	-26.63	-24.02	-22.72	-21.08	-18.90	-18.65	-18.07	-16.61	-15.25	-16.25	-15.14	-14.26	-13.36	-12.72	-12.06	-10.93	-10.59	-10.45	-9.995	-10.27	-9.316	-9.736	-9.513	-9.068	-8.952	-8.484	-7.681	-7.311	-6.946	-5.922	-5.872	-7.140	-6.628	-6.703	-6.989	-7.211	-7.555	-7.018	-5.364	-1.356	9.091	20.80	23.19	5.658	-6.515	-7.977	-7.791	-8.057	-8.150	-8.122	-8.232	-8.159	-8.260	-8.130	-8.579	-8.550	-8.864
270.0	-858.7	-701.6	-507.5	-393.4	-283.5	-95.08	15.37	36.39	 1061	 4829	9999.9	 5553	333.3	-68.03	-59.66	-50.33	-42.17	-37.05	-32.47	-29.21	-26.08	-23.73	-22.37	-19.94	-19.42	-18.17	-17.38	-16.61	-15.79	-15.78	-15.11	-14.60	-13.25	-12.39	-11.81	-10.51	-10.51	-10.54	-10.10	-9.834	-9.407	-9.771	-9.282	-9.113	-8.798	-8.275	-7.623	-7.342	-6.854	-5.759	-6.058	-7.116	-6.756	-7.260	-6.663	-6.651	-7.145	-7.284	-7.139	-6.142	-3.801	0.780	9.707	18.47	22.71	17.27	3.048	-6.671	-8.132	-7.967	-8.215	-8.148	-8.211	-8.317	-8.327	-8.480	-8.725
275.0	-780.8	-625.0	-479.7	-377.9	-316.9	-232.1	-12.85	133.1	174.6	 1004	 3236	9999.9	 8250	413.6	-53.49	-45.75	-40.33	-37.37	-32.15	-28.06	-25.17	-23.65	-21.66	-20.19	-19.17	-17.95	-17.33	-16.26	-15.27	-15.84	-15.25	-14.30	-13.29	-12.54	-11.63	-10.50	-10.37	-10.57	-9.975	-9.852	-9.748	-9.177	-9.053	-9.009	-8.643	-8.493	-7.417	-7.474	-6.807	-5.893	-5.877	-6.884	-6.911	-7.320	-7.026	-7.018	-7.021	-6.429	-6.998	-7.088	-6.705	-5.723	-3.861	-1.727	3.268	19.13	39.83	32.43	3.733	-7.240	-8.189	-8.378	-8.230	-8.268	-8.419	-8.615	-8.952
280.0	-799.8	-614.7	-420.8	-366.6	-297.3	-239.3	-118.9	160.4	199.1	182.4	708.9	 4439	9999.9	 6446	226.0	-40.48	-37.76	-34.36	-31.03	-27.26	-24.53	-24.21	-22.09	-20.58	-18.34	-17.58	-16.68	-16.17	-15.70	-15.72	-15.06	-14.62	-12.87	-12.03	-11.64	-10.69	-10.71	-10.64	-10.27	-9.893	-9.874	-9.686	-9.187	-8.970	-8.567	-8.217	-7.207	-7.272	-6.359	-5.593	-5.977	-7.076	-6.994	-7.386	-7.063	-7.269	-7.278	-6.972	-6.807	-6.416	-7.216	-7.188	-6.688	-6.108	-5.223	-0.745	13.13	39.24	47.65	22.21	-2.930	-8.163	-8.197	-8.217	-8.528	-8.726	-9.083
285.0	-756.8	-535.7	-379.0	-313.9	-287.1	-239.6	-161.9	2.557	329.5	148.7	182.7	 1077	 6267	9999.9	 4547	60.87	-35.29	-32.82	-29.91	-27.19	-24.28	-22.52	-21.18	-19.82	-18.57	-17.51	-17.18	-16.02	-16.06	-15.09	-14.78	-14.31	-12.57	-12.26	-11.80	-10.68	-10.57	-10.51	-9.924	-9.841	-9.667	-9.497	-9.251	-8.699	-8.654	-8.239	-7.142	-6.992	-6.274	-5.556	-5.738	-7.134	-6.888	-7.191	-6.914	-7.271	-7.388	-7.500	-7.249	-6.315	-6.479	-7.180	-7.484	-7.418	-7.027	-6.086	-2.824	6.541	27.79	51.53	43.79	10.25	-6.701	-8.183	-8.560	-8.547	-9.016
290.0	-695.3	-457.5	-285.0	-256.0	-239.9	-216.6	-159.0	-67.20	153.6	409.3	292.0	405.6	 1623	 5878	9999.9	 8568	201.5	-25.12	-26.93	-24.84	-23.69	-21.33	-20.90	-19.19	-18.46	-17.38	-16.95	-15.82	-15.77	-15.18	-14.81	-13.91	-12.62	-12.33	-11.61	-10.54	-10.45	-10.42	-10.22	-9.679	-9.249	-9.444	-9.248	-8.832	-8.524	-8.003	-6.974	-7.016	-6.351	-5.515	-5.552	-6.888	-6.820	-7.319	-6.807	-7.265	-7.416	-7.426	-7.335	-7.036	-6.774	-6.861	-6.483	-6.926	-7.271	-7.028	-6.431	-4.223	0.975	10.41	25.87	37.35	39.13	24.33	4.510	-6.764	-8.822
295.0	-704.0	-378.0	-201.0	-197.6	-201.2	-176.7	-114.5	-68.30	75.04	297.8	659.1	524.6	639.8	 1495	 3260	9999.9	9999.9	284.1	-21.41	-20.57	-21.69	-20.99	-19.38	-17.91	-18.06	-16.41	-16.71	-15.91	-15.95	-15.17	-14.31	-14.04	-13.51	-12.26	-11.08	-10.80	-10.39	-10.34	-10.13	-9.828	-9.495	-9.188	-9.146	-8.833	-8.245	-7.921	-7.006	-6.611	-5.965	-5.386	-5.437	-6.992	-6.727	-6.943	-6.911	-7.212	-7.318	-7.315	-7.114	-7.105	-6.892	-7.169	-6.566	-5.946	-6.145	-6.490	-7.060	-6.666	-5.457	-3.188	-0.123	2.910	11.18	36.81	60.19	41.75	6.104
300.0	-671.0	-325.5	-139.0	-130.0	-174.6	-132.1	-79.80	-23.67	78.69	247.1	605.3	881.2	572.9	607.0	874.3	 4309	9999.9	9999.9	177.9	-16.03	-18.34	-17.86	-19.04	-17.78	-17.92	-16.43	-15.94	-15.65	-15.32	-14.96	-14.50	-13.65	-13.18	-12.01	-11.11	-10.58	-10.30	-10.19	-9.966	-9.967	-9.354	-9.109	-9.205	-9.022	-8.460	-8.244	-6.914	-6.874	-6.151	-5.095	-5.397	-6.832	-6.471	-6.860	-6.594	-7.379	-7.400	-7.411	-7.041	-7.046	-6.882	-7.106	-6.781	-6.558	-6.058	-5.772	-6.710	-6.898	-6.566	-6.235	-5.678	-5.094	-3.458	4.148	25.72	60.02	64.41
305.0	-644.9	-385.9	-102.1	-116.2	-159.2	-108.7	-38.33	23.75	121.1	267.2	489.9	976.0	829.9	476.0	376.4	 1086	 6128	9999.9	 2845	81.68	-14.81	-16.84	-18.80	-16.98	-17.58	-16.00	-16.01	-15.61	-15.07	-14.85	-14.57	-13.57	-12.40	-12.04	-11.55	-10.33	-9.963	-10.12	-9.819	-9.847	-9.047	-9.380	-8.990	-8.774	-8.258	-8.176	-6.871	-6.948	-6.304	-4.961	-5.215	-6.765	-6.429	-6.838	-6.831	-7.153	-7.409	-7.334	-6.873	-7.156	-6.968	-7.238	-6.416	-6.732	-6.533	-5.189	-5.231	-6.020	-6.272	-6.817	-6.958	-6.824	-6.893	-5.028	-0.115	14.18	44.34
310.0	-616.9	-341.7	-88.84	-77.71	-91.30	-76.04	-14.76	56.57	163.7	310.6	500.9	754.7	976.1	729.0	349.0	366.4	 1494	 5855	9999.9	 9153	147.6	-9.754	-14.90	-15.80	-16.22	-15.57	-15.40	-14.57	-14.90	-14.60	-13.76	-13.77	-13.07	-12.30	-11.25	-10.24	-10.13	-10.35	-9.705	-9.637	-9.180	-9.365	-9.224	-8.635	-8.413	-7.947	-6.802	-6.878	-6.276	-5.111	-5.212	-6.502	-6.257	-6.751	-6.743	-6.977	-6.998	-7.159	-6.898	-6.971	-6.881	-7.004	-6.944	-6.724	-6.649	-6.107	-5.916	-5.612	-5.387	-5.848	-6.771	-7.172	-7.327	-7.043	-6.037	-3.216	4.051
315.0	-631.6	-306.8	-64.02	-17.64	-70.80	-46.55	17.47	81.39	215.9	351.0	510.2	677.5	808.2	961.9	621.5	278.0	427.3	 1362	 3262	9999.9	9999.9	215.6	-9.066	-12.22	-14.85	-14.98	-14.69	-15.02	-14.74	-14.94	-13.49	-12.98	-12.72	-11.95	-11.12	-9.756	-9.907	-10.18	-9.842	-9.807	-9.183	-8.912	-9.093	-8.450	-8.125	-7.798	-6.639	-6.627	-6.190	-5.205	-5.394	-6.530	-6.295	-6.610	-6.611	-6.772	-7.249	-6.925	-6.963	-6.663	-6.862	-6.927	-6.696	-6.745	-6.517	-6.477	-6.409	-6.133	-5.563	-5.530	-5.798	-6.500	-7.169	-7.098	-7.464	-7.028	-5.371
320.0	-551.7	-184.7	110.6	11.31	-22.58	-18.15	87.53	142.1	250.8	406.8	542.4	726.7	783.5	823.5	863.2	410.7	229.9	379.1	778.8	 4588	9999.9	 9780	144.3	-9.496	-12.75	-12.18	-14.60	-14.10	-13.44	-14.53	-13.35	-12.94	-12.82	-11.66	-11.45	-9.672	-9.963	-9.878	-9.730	-9.492	-9.189	-9.037	-8.927	-8.477	-7.958	-7.844	-6.400	-6.587	-6.073	-4.997	-5.538	-6.478	-6.543	-6.567	-6.706	-6.760	-6.943	-7.000	-6.805	-6.643	-6.590	-6.619	-6.783	-6.428	-6.203	-6.449	-5.904	-6.491	-5.952	-5.989	-5.992	-5.825	-5.993	-6.892	-7.555	-7.641	-7.532
325.0	-529.1	-73.52	243.0	49.87	20.05	17.51	125.7	164.6	310.2	435.4	606.8	773.5	842.9	761.7	805.7	614.7	259.1	188.9	243.8	 1106	 6475	9999.9	 2003	84.52	-9.322	-11.42	-13.18	-13.28	-13.43	-14.15	-13.92	-13.26	-12.41	-11.40	-10.84	-10.00	-9.775	-9.913	-9.927	-9.180	-9.120	-8.929	-9.016	-8.600	-7.866	-7.889	-6.364	-6.100	-5.837	-4.645	-5.209	-6.419	-6.267	-6.649	-6.512	-6.696	-6.861	-6.648	-6.734	-6.688	-6.413	-6.156	-6.589	-6.403	-6.166	-5.937	-5.980	-6.301	-5.834	-6.227	-6.470	-5.573	-5.934	-6.130	-6.986	-7.550	-7.952
330.0	-490.7	0.884	282.5	185.9	104.5	76.70	172.4	236.8	351.0	493.5	650.9	789.9	870.6	792.4	701.5	649.7	495.4	227.4	153.4	312.1	 1570	 5945	9999.9	 7696	634.0	-3.200	-10.42	-11.78	-12.49	-13.07	-12.90	-12.79	-12.00	-11.24	-11.04	-10.07	-9.658	-9.870	-9.472	-9.323	-8.854	-9.135	-8.728	-8.537	-7.887	-7.661	-6.275	-6.015	-5.491	-4.788	-4.966	-6.288	-6.101	-6.501	-6.413	-6.686	-6.510	-6.612	-6.588	-6.418	-6.623	-6.394	-6.370	-6.442	-6.019	-5.946	-6.009	-6.025	-5.705	-6.204	-6.405	-5.942	-6.411	-6.168	-6.142	-6.760	-7.278
335.0	-423.5	55.30	397.4	294.4	183.1	142.3	219.8	288.7	388.2	549.7	694.6	841.1	890.5	849.5	709.5	553.6	557.1	429.1	205.6	169.5	428.7	 1375	 3457	9999.9	9999.9	171.5	-4.229	-9.394	-10.30	-11.76	-12.27	-12.31	-11.24	-11.21	-10.68	-9.864	-9.554	-9.529	-9.552	-9.325	-8.924	-8.660	-8.693	-8.166	-7.475	-7.782	-6.022	-5.983	-5.832	-4.622	-4.529	-5.769	-6.058	-6.180	-6.013	-6.268	-6.598	-6.362	-6.245	-6.216	-6.415	-6.215	-6.483	-6.047	-6.352	-5.940	-6.087	-5.893	-5.704	-6.102	-6.100	-6.163	-6.099	-6.451	-6.974	-6.671	-6.533
340.0	-433.5	54.00	521.8	382.6	242.8	219.2	279.4	321.9	419.6	569.3	709.7	873.7	899.8	876.1	741.4	569.0	484.4	529.9	341.8	180.6	197.1	371.4	828.0	 4848	9999.9	 9131	124.0	-5.677	-8.350	-11.67	-11.30	-12.52	-10.50	-11.02	-10.30	-9.230	-9.646	-9.413	-9.529	-9.263	-8.540	-8.632	-8.603	-8.415	-7.666	-7.200	-5.963	-5.665	-5.523	-4.689	-4.693	-5.961	-5.797	-6.155	-6.180	-6.351	-6.377	-6.478	-5.736	-6.322	-6.487	-5.799	-6.160	-6.267	-6.085	-5.708	-6.022	-6.157	-5.594	-5.943	-5.943	-6.222	-6.329	-6.332	-7.082	-6.935	-6.885
345.0	-466.1	-7.239	501.9	416.8	281.3	278.2	284.1	358.2	455.6	593.2	697.6	831.1	894.5	875.8	748.4	589.6	452.4	474.0	492.4	256.4	171.6	172.5	248.3	 1180	 6914	9999.9	 6240	74.44	-6.109	-9.559	-10.85	-11.25	-10.61	-10.74	-10.24	-9.532	-9.801	-9.358	-9.403	-8.828	-8.637	-8.756	-8.361	-8.126	-7.779	-7.208	-6.039	-5.827	-5.308	-4.497	-4.524	-5.670	-5.482	-6.377	-6.195	-5.942	-6.324	-6.284	-6.128	-5.952	-6.224	-6.197	-6.321	-5.966	-5.986	-6.041	-6.092	-5.980	-5.880	-6.100	-5.908	-6.215	-6.294	-6.191	-6.721	-6.848	-7.123
350.0	-486.8	-14.93	391.7	439.7	325.8	356.4	378.2	398.5	443.7	583.4	691.5	804.7	861.1	861.2	756.6	604.5	488.5	428.0	465.3	414.5	257.4	179.9	158.5	334.9	 1696	 6382	9999.9	 6429	540.9	-4.338	-7.906	-9.450	-10.35	-10.34	-9.896	-9.039	-9.271	-9.389	-8.932	-8.973	-8.668	-8.819	-8.409	-7.996	-7.679	-7.302	-6.326	-5.982	-5.074	-4.277	-4.712	-5.686	-5.675	-6.306	-5.725	-6.047	-6.105	-6.539	-6.161	-5.932	-6.070	-6.182	-5.880	-5.911	-6.061	-5.912	-6.202	-5.747	-5.863	-5.846	-6.148	-6.075	-5.998	-6.225	-6.515	-6.921	-7.155
355.0	-523.8	-41.27	320.5	438.2	411.2	391.9	445.6	441.0	480.7	571.2	666.6	759.8	823.9	816.8	751.3	628.2	538.0	459.1	426.5	451.0	447.9	265.9	190.8	188.2	459.6	 1476	 3760	9999.9	9999.9	144.0	-3.104	-7.768	-9.061	-9.808	-9.673	-8.801	-8.536	-8.905	-8.873	-8.981	-8.668	-8.659	-8.387	-8.120	-7.890	-7.308	-6.256	-5.918	-5.226	-4.187	-4.672	-5.555	-5.349	-5.965	-5.677	-5.939	-6.282	-6.106	-6.515	-6.073	-5.533	-6.067	-5.929	-5.848	-5.986	-6.042	-6.245	-6.027	-6.229	-5.861	-5.892	-6.087	-6.184	-6.118	-6.680	-7.010	-6.770
360.0	-523.5	-56.49	321.2	415.4	457.3	421.3	476.8	461.4	533.9	582.3	657.8	747.8	791.2	804.2	754.1	647.3	547.6	500.3	450.5	443.7	512.0	413.0	245.4	185.4	208.3	398.8	906.7	 5286	9999.9	 7744	102.6	-4.591	-7.517	-9.090	-8.986	-8.480	-8.648	-8.696	-8.952	-9.022	-8.480	-8.994	-8.403	-8.631	-7.811	-7.429	-6.153	-6.108	-5.456	-4.579	-5.059	-5.473	-5.265	-5.851	-5.587	-5.667	-6.210	-6.228	-5.849	-6.204	-5.716	-5.880	-6.006	-5.899	-6.009	-6.275	-6.288	-6.021	-6.140	-6.033	-6.012	-6.276	-6.353	-6.164	-6.098	-6.906	-6.940
365.0	-503.4	-86.17	281.3	455.1	509.3	466.0	533.8	499.2	521.7	566.9	634.8	720.1	772.5	792.1	758.3	658.6	585.6	527.7	493.8	473.3	480.1	513.5	351.4	226.7	179.6	187.4	263.6	 1299	 7388	9999.9	 5730	54.45	-4.596	-7.341	-7.616	-8.001	-8.040	-8.740	-8.684	-8.791	-8.526	-8.668	-8.377	-8.590	-7.699	-7.777	-6.043	-5.927	-5.490	-4.612	-4.646	-5.351	-5.375	-5.888	-5.421	-6.025	-6.116	-5.897	-6.135	-6.121	-6.020	-6.190	-6.096	-5.929	-5.735	-6.203	-6.009	-6.045	-6.054	-5.929	-6.340	-6.399	-6.047	-6.189	-6.366	-6.400	-6.816
370.0	-512.6	-145.5	239.6	426.8	512.6	533.4	576.0	517.7	553.6	566.8	628.4	696.7	747.9	759.8	757.4	683.2	618.8	575.5	553.0	523.3	491.4	502.7	489.1	339.1	231.0	180.9	153.4	350.5	 1829	 6844	9999.9	 5524	75.86	-3.260	-5.634	-7.279	-7.965	-8.489	-8.331	-8.400	-8.301	-8.435	-8.299	-8.268	-7.880	-7.689	-6.167	-6.041	-5.293	-4.456	-4.497	-5.329	-5.421	-5.851	-5.414	-5.934	-5.920	-5.506	-6.163	-6.242	-6.093	-6.355	-6.142	-6.198	-5.590	-6.002	-5.848	-5.974	-6.075	-6.149	-6.099	-6.113	-6.040	-6.147	-6.371	-6.147	-6.771
375.0	-541.1	-121.6	237.8	434.5	504.2	551.9	573.8	542.3	541.3	577.1	626.1	685.7	748.1	738.5	759.1	687.1	638.4	612.2	595.8	581.8	553.5	509.8	508.9	489.4	324.4	220.4	172.2	172.1	471.1	 1568	 4336	9999.9	 8149	104.7	-2.655	-5.389	-6.146	-7.706	-8.135	-8.079	-8.051	-7.974	-8.397	-8.301	-7.751	-7.412	-6.155	-5.959	-5.285	-4.339	-4.355	-5.216	-5.370	-5.646	-5.471	-5.609	-5.826	-5.898	-5.873	-6.098	-5.952	-5.771	-6.017	-6.130	-5.510	-6.339	-6.082	-6.197	-5.945	-6.255	-6.485	-6.380	-6.073	-5.704	-6.533	-6.021	-6.361
380.0	-474.6	-108.4	223.5	420.3	526.9	612.5	613.1	552.3	538.4	574.9	620.2	675.6	712.7	730.5	734.3	695.4	651.9	636.7	627.4	619.0	594.8	535.1	501.6	522.2	437.5	275.0	200.8	157.0	187.5	401.4	 1036	 5914	9999.9	 6154	68.41	-3.310	-4.969	-6.718	-7.953	-8.231	-7.816	-7.958	-8.072	-8.030	-7.549	-7.265	-6.613	-6.234	-5.505	-4.274	-4.734	-5.391	-5.123	-5.640	-5.551	-5.952	-5.497	-5.894	-5.775	-6.288	-6.332	-6.106	-5.880	-6.094	-5.732	-6.082	-6.213	-5.890	-5.644	-6.050	-6.214	-6.007	-6.085	-5.732	-6.291	-6.524	-6.496
385.0	-511.3	-125.2	217.8	423.8	548.0	625.6	613.8	565.1	547.7	576.9	588.3	636.2	680.1	718.3	716.3	698.6	671.6	654.1	651.5	630.6	613.5	566.1	526.8	497.9	512.7	367.6	245.4	180.5	147.8	163.5	280.8	 1481	 8306	9999.9	 1047	27.56	-3.555	-5.932	-6.828	-7.259	-7.793	-8.456	-7.865	-7.470	-7.285	-7.359	-6.116	-6.362	-5.410	-4.437	-4.554	-5.114	-4.890	-5.984	-5.773	-5.724	-5.814	-5.817	-5.870	-5.948	-6.461	-6.098	-5.540	-6.338	-5.898	-5.874	-5.801	-6.039	-5.816	-6.271	-6.334	-6.066	-6.317	-5.950	-6.210	-6.363	-6.521
390.0	-515.0	-191.7	217.2	460.7	570.8	638.0	639.5	567.6	542.7	551.5	587.2	627.7	683.4	703.1	711.1	680.2	669.2	663.1	661.1	660.2	645.7	601.1	559.5	511.5	497.1	460.9	347.0	233.5	180.4	144.3	138.2	378.6	 2106	 7030	9999.9	 4012	53.99	-3.086	-5.399	-6.233	-6.875	-7.881	-8.054	-7.435	-7.587	-7.214	-5.987	-6.125	-5.209	-4.401	-4.490	-5.279	-5.025	-5.207	-5.465	-5.653	-5.908	-5.966	-6.183	-5.889	-6.452	-6.124	-5.975	-6.416	-6.240	-6.162	-6.103	-6.253	-6.047	-6.165	-6.081	-6.158	-6.149	-6.187	-6.126	-6.271	-6.688
395.0	-588.9	-198.2	227.9	404.0	573.0	606.7	603.5	563.9	585.5	557.6	585.9	612.9	666.2	684.2	694.6	690.8	665.3	670.8	661.0	663.8	660.6	623.4	581.1	549.6	496.9	467.7	459.0	324.9	227.9	178.4	137.5	156.0	513.3	 1604	 4508	9999.9	 5924	74.83	-2.745	-4.924	-6.148	-6.932	-7.567	-6.706	-7.158	-7.164	-6.301	-5.752	-5.450	-4.526	-4.278	-5.438	-5.198	-5.364	-4.908	-5.329	-5.595	-5.862	-5.459	-6.259	-6.128	-6.051	-6.613	-6.361	-5.959	-6.170	-6.317	-5.798	-5.983	-5.806	-6.070	-6.121	-5.640	-6.052	-6.205	-6.348	-6.706
400.0	-506.3	-193.0	181.2	388.8	527.5	637.0	590.1	538.7	558.4	561.2	562.5	618.0	655.0	678.8	685.3	675.2	668.6	670.5	659.0	661.6	663.7	630.6	601.8	566.1	515.1	467.3	470.4	418.6	281.5	211.8	162.3	125.3	174.3	393.9	 1079	 6065	9999.9	 4131	46.34	-3.423	-5.322	-6.051	-7.185	-6.973	-7.040	-7.184	-6.128	-5.880	-5.559	-4.468	-4.449	-4.966	-4.926	-5.366	-5.371	-5.389	-5.484	-6.004	-5.348	-6.236	-6.073	-6.127	-6.386	-6.555	-6.019	-5.965	-6.473	-5.879	-5.827	-5.804	-6.104	-6.049	-5.549	-6.178	-6.082	-6.418	-6.106
405.0	-535.2	-180.9	184.8	388.4	531.9	627.3	628.0	581.2	572.9	544.4	538.9	609.2	641.4	672.7	680.0	665.5	648.2	642.4	654.1	655.3	661.3	638.1	615.2	573.5	542.1	483.8	452.9	458.5	351.6	251.6	187.8	136.7	111.0	137.1	272.5	 1551	 7495	9999.9	853.9	21.28	-4.838	-5.543	-6.763	-6.916	-6.823	-6.808	-6.052	-5.429	-5.418	-4.269	-4.442	-4.897	-5.588	-5.390	-5.221	-5.386	-5.612	-6.166	-5.955	-6.253	-6.126	-6.092	-6.296	-6.434	-6.160	-6.134	-6.405	-6.201	-6.067	-6.178	-6.249	-6.572	-6.057	-6.346	-6.322	-6.490	-6.889
410.0	-558.9	-175.9	138.5	369.1	496.7	603.2	604.0	547.5	548.7	552.8	567.4	609.3	639.2	645.7	669.1	646.4	625.0	625.3	629.1	648.3	645.0	626.8	606.8	582.7	542.8	509.4	461.9	446.9	418.2	326.2	225.1	164.9	117.1	93.80	101.4	371.8	 1920	 6351	 7926	 3462	45.48	-3.648	-5.810	-6.204	-6.656	-6.720	-6.052	-5.675	-5.204	-4.370	-4.461	-5.195	-5.300	-5.272	-5.297	-5.573	-6.218	-5.932	-5.863	-6.028	-6.170	-6.008	-6.358	-6.407	-6.215	-6.243	-6.366	-6.213	-6.335	-6.115	-6.351	-6.260	-6.316	-6.454	-6.384	-6.402	-6.586
415.0	-560.5	-203.4	83.09	323.2	475.6	568.0	552.9	558.1	540.0	535.0	554.1	617.4	611.4	635.6	638.5	609.0	608.8	583.0	601.4	620.9	613.5	611.5	602.2	583.2	567.1	519.9	475.7	439.6	411.3	405.4	288.3	198.3	137.3	97.50	75.93	118.0	450.4	 1440	 3659	 9859	 4937	67.61	-4.324	-5.245	-6.233	-6.007	-5.785	-5.726	-4.902	-4.482	-4.475	-4.983	-4.787	-5.603	-5.177	-5.638	-5.800	-5.993	-6.261	-5.825	-6.164	-6.107	-6.545	-6.290	-6.432	-6.452	-6.313	-6.521	-6.664	-6.381	-6.184	-6.417	-6.547	-6.233	-5.980	-6.492	-6.750
420.0	-585.5	-209.2	25.94	308.9	478.8	524.8	576.3	527.2	497.5	520.4	561.1	588.5	592.3	608.4	610.4	589.4	581.0	555.5	579.1	593.6	595.5	594.3	592.1	571.5	550.8	521.0	484.5	440.9	396.9	396.3	339.7	222.3	150.1	110.2	79.06	68.05	128.5	337.6	878.7	 5092	9999.9	 3304	35.21	-4.194	-5.066	-5.586	-5.543	-5.301	-4.995	-4.300	-4.491	-5.221	-5.177	-5.961	-5.232	-5.489	-5.488	-5.878	-6.010	-5.785	-6.103	-6.648	-6.189	-6.368	-6.459	-6.299	-6.278	-6.443	-6.074	-6.554	-6.429	-6.210	-6.308	-6.632	-6.656	-6.202	-6.653
425.0	-557.4	-283.2	58.24	286.5	436.5	498.1	555.8	511.7	494.5	530.5	538.0	587.2	570.4	593.7	600.5	572.0	556.0	544.1	540.3	568.3	573.3	571.9	567.1	561.5	537.3	522.7	485.8	442.0	398.1	376.5	356.1	259.9	172.0	121.6	85.91	61.59	61.04	94.99	211.0	 1288	 6435	 9187	757.8	6.941	-3.798	-4.852	-5.174	-5.353	-4.876	-4.101	-4.340	-5.314	-5.522	-5.797	-5.457	-5.895	-5.535	-5.838	-5.632	-5.635	-5.823	-6.210	-6.215	-6.144	-6.250	-6.489	-6.172	-6.573	-6.438	-6.315	-6.409	-6.626	-6.317	-6.660	-6.420	-6.956	-6.832
430.0	-532.1	-276.5	41.11	264.5	407.0	467.5	515.5	502.5	482.9	501.5	530.2	551.8	555.3	561.6	559.7	537.3	514.7	507.6	512.5	531.9	538.9	543.1	533.4	532.5	520.7	501.3	480.3	447.1	398.5	366.8	339.6	299.2	217.3	140.4	99.22	72.55	55.32	49.79	66.05	298.8	 1627	 5117	 6818	 2583	37.81	-3.463	-4.254	-4.793	-4.544	-4.226	-4.294	-5.306	-5.176	-5.532	-5.268	-5.713	-5.979	-5.851	-5.900	-5.910	-5.906	-6.032	-6.365	-6.221	-6.126	-6.383	-6.197	-6.479	-6.437	-6.342	-6.448	-6.412	-6.560	-6.667	-6.640	-6.616	-6.877
435.0	-433.7	-318.2	-17.33	196.0	411.8	476.3	514.0	471.8	506.1	483.0	540.0	533.1	546.1	538.0	523.6	492.9	483.9	473.8	480.8	479.5	506.6	505.2	513.1	501.7	500.6	481.3	468.8	440.7	401.2	365.4	318.9	287.5	258.7	177.4	114.8	87.10	64.91	46.50	40.18	83.40	372.5	 1155	 3185	 8425	 4102	52.75	-2.873	-4.047	-4.064	-3.417	-4.300	-5.193	-5.273	-5.751	-5.069	-5.358	-5.988	-5.832	-5.878	-5.615	-6.320	-6.332	-6.357	-6.330	-6.137	-6.544	-6.395	-6.605	-6.294	-6.638	-6.213	-6.453	-6.828	-6.810	-6.472	-6.713	-7.115
440.0	-307.7	-267.1	-67.59	222.0	352.5	426.7	486.9	474.7	473.2	484.7	498.4	519.2	512.4	498.6	482.7	477.0	458.0	450.1	467.7	459.6	487.3	481.0	481.8	484.0	474.4	465.5	453.7	433.3	398.1	365.3	320.9	271.1	255.8	206.6	135.9	96.01	69.66	51.75	37.82	37.57	96.40	266.2	760.2	 4738	 9179	751.6	26.72	-3.628	-4.072	-3.326	-3.806	-4.816	-5.026	-5.332	-5.211	-5.843	-5.613	-5.777	-5.903	-5.993	-6.124	-6.446	-6.330	-6.340	-6.474	-6.269	-6.690	-6.530	-6.561	-6.665	-6.526	-6.561	-6.649	-6.721	-6.935	-7.086	-7.019
445.0	-338.6	-22.83	-68.96	212.4	283.6	436.2	461.7	440.2	466.6	490.1	476.1	502.0	498.7	497.3	468.5	455.6	424.9	419.4	437.3	443.7	457.7	455.7	451.3	465.8	456.4	454.3	434.2	418.4	388.4	352.8	320.0	270.7	237.5	218.6	159.7	105.1	78.08	56.04	40.98	31.10	37.63	69.61	177.4	 1230	 6138	 7791	595.2	6.730	-2.967	-3.311	-3.664	-4.383	-4.915	-5.562	-5.186	-5.819	-6.114	-5.893	-6.200	-5.829	-5.928	-6.386	-6.173	-6.030	-6.584	-6.236	-6.416	-6.779	-6.918	-6.841	-6.056	-6.736	-6.562	-6.613	-6.929	-7.208	-6.844
450.0	-524.0	346.3	224.8	153.4	272.8	358.2	407.2	426.4	420.3	458.2	461.2	468.8	464.8	451.2	445.9	412.7	395.1	378.5	405.7	406.0	410.2	415.6	417.7	429.2	423.7	416.0	404.2	396.5	372.5	343.0	306.2	263.8	218.9	197.0	179.1	127.3	86.02	62.02	47.45	34.75	28.03	28.85	48.71	280.3	 1574	 5027	 6138	 2245	29.70	-1.991	-2.893	-4.460	-4.671	-5.219	-5.136	-5.441	-5.822	-6.066	-6.106	-5.772	-5.986	-6.281	-6.331	-6.113	-6.376	-6.498	-6.181	-6.873	-7.043	-6.767	-6.412	-6.835	-6.555	-6.771	-6.665	-7.307	-7.287
455.0	-661.4	175.3	878.3	186.9	220.6	318.0	318.9	381.0	395.3	408.1	425.8	439.8	415.7	422.4	406.2	390.4	362.3	341.2	354.2	366.5	367.6	371.6	377.7	385.4	385.1	384.6	368.2	363.0	343.1	314.8	289.5	251.2	209.9	183.2	162.6	147.2	103.7	69.44	52.83	38.25	28.79	23.11	22.82	70.55	355.8	 1141	 3098	 7848	 3187	36.47	-2.054	-4.050	-4.431	-4.902	-5.067	-5.492	-6.165	-6.054	-6.024	-5.905	-5.960	-6.318	-6.143	-6.424	-6.491	-6.688	-6.362	-6.808	-6.836	-6.783	-6.798	-6.767	-6.592	-6.888	-7.137	-7.099	-7.520
460.0	-651.5	-183.7	 1216	450.9	211.9	272.9	289.5	336.3	368.0	404.6	402.7	404.2	379.6	371.4	369.9	346.3	321.3	323.1	325.0	323.3	347.9	333.6	342.0	355.4	351.5	348.3	347.3	339.8	320.2	299.8	279.0	242.4	203.0	175.1	149.4	143.1	118.6	79.84	55.20	41.84	30.63	22.13	17.86	23.41	85.04	259.0	749.5	 4569	 7778	 1965	20.83	-3.163	-4.114	-4.834	-4.729	-5.532	-5.706	-5.928	-5.897	-6.102	-6.126	-6.532	-6.436	-6.582	-6.605	-6.570	-6.663	-6.817	-6.704	-6.935	-6.961	-7.065	-7.110	-7.103	-7.335	-7.468	-7.750
465.0	-695.6	-372.0	 1063	 1237	185.8	220.8	293.2	307.0	326.7	355.7	375.7	376.0	356.6	346.2	332.4	308.8	296.5	294.7	290.4	302.6	312.5	301.9	313.3	328.1	326.7	325.8	317.4	309.2	299.6	281.1	261.8	229.5	195.6	167.0	140.6	125.2	120.3	90.05	57.76	43.80	32.84	23.67	17.57	15.32	26.18	62.90	171.9	 1197	 5562	 6402	477.0	2.313	-2.894	-4.779	-4.240	-5.428	-5.463	-5.805	-6.185	-6.196	-6.227	-6.072	-6.485	-6.519	-6.629	-6.811	-6.526	-6.705	-6.580	-6.825	-7.100	-6.912	-6.987	-7.086	-7.274	-7.143	-7.532
470.0	-700.2	-481.0	255.2	 1824	719.5	175.4	246.6	252.0	274.1	301.2	319.9	329.7	327.7	308.1	281.5	266.4	257.5	251.7	253.0	264.1	266.7	267.5	273.3	282.4	283.1	285.9	281.7	275.3	268.5	253.3	232.8	209.9	180.8	155.4	129.2	109.4	102.3	95.42	68.51	47.75	36.20	26.07	19.74	14.98	14.24	19.75	43.78	271.0	 1437	 4137	 4492	 1791	25.44	-3.800	-4.421	-5.348	-5.361	-6.206	-6.139	-6.219	-6.448	-6.276	-6.637	-6.543	-6.415	-6.789	-6.741	-6.848	-6.750	-6.843	-7.316	-7.022	-7.026	-7.089	-6.947	-7.112	-7.801
475.0	-703.5	-480.0	-113.1	 1021	 2017	222.2	195.6	224.7	237.5	272.3	265.9	291.6	274.6	252.3	247.4	233.9	231.2	219.4	219.0	230.0	230.5	234.2	232.3	244.7	243.9	251.3	249.8	238.4	240.4	224.4	211.0	187.8	166.7	142.1	121.0	99.73	86.52	85.13	77.48	55.26	38.68	27.21	20.67	16.70	11.82	10.68	15.09	64.25	322.5	933.7	 2203	 5353	 2129	35.76	-3.615	-4.798	-5.266	-5.897	-6.189	-6.282	-6.610	-6.506	-6.521	-6.888	-6.417	-6.894	-6.929	-7.045	-6.876	-6.980	-7.293	-7.449	-7.155	-7.162	-7.207	-7.616	-7.290
480.0	-740.2	-479.4	-240.1	307.2	 2316	742.1	152.9	189.1	220.8	242.0	218.1	255.4	241.8	235.6	224.6	206.7	210.0	201.4	188.7	206.9	208.3	210.1	211.0	222.3	222.7	222.6	225.9	219.9	216.7	210.2	196.0	175.2	155.4	133.4	115.8	95.23	81.31	70.69	75.80	61.42	42.51	29.43	22.24	17.39	12.76	10.41	9.174	17.83	74.17	210.4	529.5	 3081	 5197	612.5	13.98	-4.240	-5.444	-5.493	-5.982	-6.359	-6.496	-6.572	-6.340	-6.811	-6.758	-6.538	-7.060	-6.937	-7.375	-7.114	-7.514	-7.364	-7.459	-7.496	-7.644	-7.708	-8.177
485.0	-752.6	-483.9	-269.3	-13.24	 1556	 1672	167.8	148.3	201.4	188.1	225.7	224.1	232.6	207.2	197.2	198.2	185.7	174.0	171.2	180.8	181.0	188.5	188.2	197.5	202.3	203.5	204.3	201.5	196.2	193.5	183.6	166.2	149.7	127.2	107.4	92.47	79.90	65.74	66.13	64.04	47.16	30.68	22.09	17.61	13.41	10.91	8.657	9.071	19.06	48.82	120.2	808.1	 3836	 4845	461.4	0.542	-4.721	-5.478	-6.043	-6.063	-6.359	-6.779	-6.569	-6.688	-6.835	-6.726	-6.855	-7.042	-7.189	-7.032	-7.629	-7.179	-7.501	-7.611	-7.522	-7.889	-8.052
490.0	-765.9	-508.8	-269.4	-121.3	483.7	 2302	895.5	119.5	164.9	181.5	190.0	204.6	197.4	193.9	186.7	174.9	154.9	154.9	149.1	158.6	162.0	169.7	171.0	174.7	177.1	184.3	181.2	176.5	178.8	172.4	165.1	150.9	133.2	115.1	101.5	87.09	75.14	63.35	57.27	54.69	52.13	38.25	23.52	18.28	14.17	11.51	9.419	7.336	7.714	13.63	28.75	180.8	990.1	 3175	 4135	 1589	25.52	-4.948	-5.520	-5.990	-6.069	-6.450	-6.631	-6.606	-6.817	-6.692	-7.123	-7.202	-7.068	-7.199	-7.269	-6.999	-7.317	-7.457	-7.517	-7.748	-7.914
495.0	-759.6	-552.0	-275.0	-130.2	78.96	 1219	 2393	226.1	112.9	151.9	170.7	169.9	153.5	167.2	157.6	143.9	135.1	133.6	130.8	133.3	144.1	144.3	147.3	155.6	149.9	156.2	159.2	155.9	156.9	154.2	142.8	135.2	117.9	104.9	89.63	79.85	69.68	59.59	50.31	44.79	45.27	44.52	27.41	18.90	14.70	12.10	9.922	6.962	6.428	6.275	7.731	39.98	219.9	715.8	 1995	 4968	 2191	35.45	-5.055	-5.341	-5.913	-6.450	-6.745	-6.935	-6.613	-7.007	-7.102	-7.067	-7.569	-7.350	-7.290	-7.411	-7.435	-7.646	-7.463	-7.754	-7.709
500.0	-799.4	-573.7	-293.6	-161.8	-39.08	370.0	 2747	930.4	94.75	118.0	137.5	137.5	139.3	135.9	141.7	122.3	120.0	115.0	115.0	121.3	126.5	128.3	130.9	136.8	133.7	139.4	138.1	142.7	139.0	137.5	129.8	122.0	106.2	97.11	85.14	73.40	64.73	54.02	46.46	40.81	37.43	39.91	32.86	20.68	14.81	12.04	9.738	7.285	6.077	5.236	3.906	9.060	48.03	159.3	474.5	 2797	 5157	612.8	14.23	-5.369	-5.707	-6.112	-6.565	-6.779	-6.984	-7.059	-7.010	-7.463	-7.058	-7.195	-7.283	-7.599	-7.351	-7.734	-7.644	-7.857	-7.688
505.0	-721.0	-593.8	-295.0	-160.0	-77.11	49.76	 1790	 2073	125.8	108.6	123.8	120.5	122.4	117.0	121.2	102.1	99.54	105.4	102.1	109.5	117.4	117.0	117.1	119.4	119.7	124.0	123.9	129.3	123.4	121.6	120.4	109.6	100.6	86.42	79.15	66.65	60.50	51.25	42.95	35.33	30.69	32.61	35.06	25.12	16.18	11.97	9.790	7.845	6.314	4.867	2.804	1.800	9.726	34.19	104.7	715.6	 3575	 4323	477.3	-1.605	-5.565	-6.175	-6.203	-6.851	-7.051	-7.319	-7.196	-7.452	-7.127	-7.144	-7.273	-7.570	-7.533	-7.471	-7.814	-8.026	-8.034
510.0	-790.2	-599.4	-373.6	-190.6	-109.8	-31.56	544.4	 2685	 1083	72.54	80.00	85.65	95.04	101.3	100.8	88.19	87.47	86.66	86.13	88.57	92.78	95.30	97.97	100.0	101.8	106.1	107.6	105.3	105.8	105.7	100.2	92.94	87.27	75.41	68.23	59.51	52.51	45.37	38.41	33.32	27.81	25.88	27.77	26.70	19.41	12.35	9.587	7.433	6.004	4.431	2.744	0.520	1.567	6.416	21.73	157.7	911.9	 2695	 3444	 1234	23.47	-5.563	-6.349	-6.645	-6.793	-7.022	-7.232	-7.302	-7.423	-7.484	-7.390	-7.613	-7.729	-7.572	-7.941	-8.032	-8.372
515.0	-791.1	-648.2	-416.4	-231.0	-95.10	-78.09	91.70	 1277	 3036	293.2	52.04	76.45	81.22	86.26	75.17	72.90	71.64	66.10	66.96	69.95	74.61	77.65	80.08	80.14	83.95	91.57	87.47	88.08	90.50	90.31	84.22	78.69	76.28	63.74	57.97	50.43	47.44	38.60	35.30	31.00	25.01	22.28	19.15	21.22	21.06	13.86	10.51	6.832	5.348	4.075	2.378	0.159	-0.519	-0.543	3.069	32.17	200.1	603.3	 1556	 3784	652.3	30.01	-6.036	-6.242	-6.839	-6.933	-7.233	-7.324	-7.397	-7.493	-7.402	-7.453	-7.686	-7.972	-7.911	-8.184	-8.215
520.0	-863.9	-595.3	-427.0	-257.1	-97.60	-96.52	-21.41	352.2	 3169	 1257	29.17	61.80	55.19	62.01	59.10	64.28	55.48	53.41	51.41	61.91	66.84	66.89	67.60	65.79	71.78	78.00	76.46	73.66	80.70	78.33	76.06	71.04	63.72	57.62	52.23	45.64	40.78	35.77	31.29	26.29	22.45	19.61	16.49	15.93	19.48	16.98	10.90	6.720	5.036	3.981	1.525	0.261	-1.232	-1.647	-0.751	4.466	41.37	131.5	367.6	 2083	 3439	553.9	6.634	-6.369	-6.464	-7.002	-7.126	-7.356	-7.533	-7.659	-7.668	-7.820	-7.615	-7.872	-7.776	-8.248	-8.396
525.0	-795.4	-620.2	-432.0	-281.4	-140.4	-94.75	-67.63	48.14	 1843	 2943	106.5	37.85	31.79	49.83	47.37	46.97	41.12	48.28	43.41	51.80	53.26	56.33	57.71	58.83	60.91	66.59	67.18	65.54	68.38	68.45	67.87	62.09	56.58	52.60	44.87	40.81	35.52	30.70	27.52	23.49	21.26	17.07	14.63	13.00	14.15	16.95	12.64	6.083	4.811	3.567	1.995	0.038	-1.281	-1.105	-2.233	-1.778	6.202	26.21	78.60	525.0	 2383	 2967	79.86	-3.541	-6.530	-6.755	-7.172	-7.227	-7.408	-7.619	-7.744	-7.766	-7.739	-7.870	-7.977	-8.338	-8.677
530.0	-812.3	-640.5	-460.5	-308.7	-179.8	-78.05	-88.98	-45.28	497.0	 3124	 1558	31.43	23.90	25.43	33.42	31.71	34.59	36.86	35.16	40.13	42.45	42.14	47.68	48.48	50.04	54.37	55.88	56.98	56.42	55.86	56.66	51.98	46.19	41.87	39.29	35.11	31.03	25.78	22.89	19.48	17.34	14.49	12.56	10.03	9.714	12.63	14.02	8.214	4.197	3.327	2.165	-0.935	-1.630	-2.240	-2.456	-3.282	-1.938	2.266	13.64	113.4	598.2	 1793	 2287	841.5	18.56	-6.444	-7.106	-6.999	-7.306	-7.583	-7.703	-7.716	-7.918	-7.842	-8.021	-8.358	-8.598
535.0	-774.1	-638.2	-459.5	-318.0	-210.2	-105.2	-72.00	-82.73	56.90	 1155	 3694	375.1	11.82	14.05	19.97	17.32	21.96	24.92	27.11	29.82	30.55	33.60	37.76	41.08	41.17	41.16	45.17	42.92	44.97	46.12	44.19	42.17	37.36	33.79	31.62	29.63	24.65	20.92	18.99	15.57	15.11	11.96	9.659	7.331	7.244	7.337	11.56	9.649	5.246	3.187	1.306	-1.240	-2.070	-2.496	-2.808	-3.558	-3.887	-3.032	-0.965	21.01	129.1	398.3	 1017	 2524	617.1	19.55	-6.728	-6.817	-7.422	-7.542	-7.847	-7.787	-8.046	-7.990	-8.166	-8.427	-8.290
540.0	-867.9	-640.9	-473.5	-327.1	-246.7	-140.5	-63.11	-85.26	-47.74	276.3	 3393	 1236	4.697	3.509	13.27	9.130	15.29	18.09	18.24	24.65	24.73	26.37	27.68	32.67	35.36	33.70	37.51	36.07	36.44	37.44	35.88	37.45	32.49	29.69	24.64	24.98	20.30	18.83	15.36	13.94	12.33	10.17	8.525	5.955	5.664	5.475	7.927	8.434	6.196	3.249	0.607	-1.561	-1.957	-2.535	-3.316	-3.555	-4.571	-4.837	-4.099	0.733	24.26	84.64	235.0	 1353	 2364	483.9	0.377	-6.655	-7.343	-7.607	-7.660	-7.901	-7.795	-8.148	-8.212	-8.424	-8.426
545.0	-830.5	-672.6	-466.4	-353.4	-240.6	-158.7	-80.81	-80.74	-74.89	14.06	 1712	 3362	97.98	-9.483	3.021	2.993	8.878	14.06	14.13	14.24	18.16	21.00	23.01	22.34	27.99	28.26	31.90	27.30	29.36	31.48	32.06	28.80	25.50	21.93	23.75	19.16	16.99	16.15	13.06	10.34	8.974	8.122	7.243	5.423	4.569	3.095	4.489	6.094	6.513	4.385	0.876	-1.911	-2.477	-3.462	-3.561	-3.779	-4.751	-4.773	-5.089	-4.260	0.748	14.33	47.59	337.9	 1649	 1976	75.07	-5.676	-7.509	-7.726	-7.760	-8.046	-7.697	-8.041	-8.177	-8.436	-8.196
550.0	-814.7	-635.5	-468.5	-358.4	-266.1	-187.0	-113.3	-81.14	-100.1	-57.68	424.0	 3143	 1575	-4.230	-7.345	-3.145	1.141	2.142	4.558	8.501	11.45	12.32	15.03	16.85	19.39	21.25	20.80	21.36	20.75	22.94	25.82	21.66	19.77	17.87	17.65	14.57	13.09	11.05	8.942	7.496	6.936	5.314	4.218	3.677	2.583	1.933	1.909	2.457	4.341	5.149	1.449	-2.271	-2.619	-3.519	-3.525	-4.200	-4.792	-4.913	-5.391	-5.448	-4.269	-1.649	5.973	70.84	413.7	 1220	 1501	346.1	11.23	-7.487	-7.656	-7.565	-7.811	-7.826	-8.133	-8.424	-8.578
555.0	-853.4	-685.9	-501.2	-351.9	-294.9	-212.1	-150.9	-78.24	-104.8	-84.81	40.95	 1065	 3534	338.4	-16.08	-8.843	-7.536	-6.313	-3.536	0.604	4.601	4.766	8.275	8.333	12.65	11.88	14.66	14.40	13.50	14.27	15.46	15.68	13.00	12.26	11.36	11.28	9.529	8.248	5.559	4.590	3.884	3.128	1.591	1.393	1.297	-0.135	-0.209	0.479	1.094	3.156	1.673	-2.223	-3.160	-4.199	-4.506	-4.406	-5.471	-5.506	-5.754	-5.948	-5.846	-5.365	-3.629	10.81	86.90	269.4	695.4	 1618	505.1	5.865	-7.305	-7.667	-7.644	-7.732	-8.315	-8.389	-8.682
560.0	-797.3	-649.2	-502.2	-377.0	-288.6	-219.6	-178.6	-109.6	-84.42	-91.33	-49.32	222.7	 3033	 1567	-20.93	-17.73	-13.70	-11.69	-7.957	-5.618	-2.242	0.561	4.802	3.639	7.078	6.763	9.264	9.635	9.184	10.19	11.34	11.15	8.501	7.798	7.295	8.275	5.343	5.768	3.704	1.685	1.785	0.923	-0.685	0.453	-0.347	-1.192	-1.492	-1.286	-0.413	0.987	1.147	-1.929	-3.468	-4.414	-5.143	-5.244	-4.952	-5.852	-5.790	-5.675	-5.823	-6.129	-5.888	-3.078	13.85	54.85	162.0	934.3	 1450	80.10	-4.791	-7.422	-7.696	-7.815	-8.523	-8.634	-8.556
565.0	-868.2	-630.7	-513.8	-368.0	-285.7	-228.3	-185.1	-127.4	-72.83	-96.50	-76.67	0.268	 1442	 3035	76.37	-20.99	-18.52	-16.20	-8.965	-8.854	-5.364	-4.898	-1.520	1.418	0.644	4.066	3.864	4.156	4.904	5.665	6.056	7.804	6.310	3.179	3.133	3.585	2.714	2.470	0.955	0.783	0.339	-0.101	-1.792	-1.217	-1.911	-2.231	-1.636	-2.625	-1.720	-1.289	-0.061	-1.335	-3.022	-4.502	-5.437	-5.165	-5.407	-5.926	-5.575	-6.121	-5.903	-6.410	-6.400	-6.239	-2.333	6.857	31.08	239.5	 1068	 1104	60.68	-6.821	-7.937	-7.862	-8.296	-8.482	-8.550
570.0	-836.4	-661.4	-500.6	-377.2	-302.7	-243.4	-194.2	-156.1	-87.41	-78.94	-88.73	-51.45	332.8	 2604	 1309	-17.99	-25.64	-19.59	-14.36	-13.26	-9.954	-8.039	-5.880	-4.701	-2.953	-0.331	0.428	0.301	1.403	0.854	1.231	2.873	2.259	0.378	1.256	0.919	0.052	-0.413	-0.797	-1.516	-1.337	-2.041	-3.132	-2.931	-2.724	-3.308	-3.193	-3.149	-2.909	-2.321	-2.025	-2.666	-2.936	-4.710	-5.283	-5.777	-5.871	-6.259	-6.120	-6.474	-6.312	-6.481	-6.783	-6.975	-5.910	-3.874	1.414	47.91	273.4	755.8	784.5	261.1	2.217	-7.765	-8.146	-8.486	-8.694
575.0	-825.6	-638.9	-528.4	-379.7	-312.5	-249.2	-191.3	-167.8	-118.0	-61.54	-92.04	-68.74	35.84	828.9	 2935	272.8	-24.88	-23.16	-18.96	-15.98	-12.21	-12.88	-9.248	-8.375	-6.342	-5.260	-4.463	-2.583	-3.283	-3.671	-2.140	-1.208	-1.004	-2.270	-1.623	-1.801	-2.427	-2.697	-2.791	-2.951	-3.293	-3.546	-4.113	-4.277	-3.814	-4.726	-3.723	-4.389	-3.519	-2.965	-3.172	-4.261	-3.641	-4.333	-5.071	-5.848	-6.513	-6.622	-6.436	-6.579	-6.654	-6.696	-6.899	-6.994	-6.775	-6.441	-5.399	5.045	55.08	165.0	418.1	935.4	81.84	-2.230	-8.143	-8.224	-8.756
580.0	-823.7	-681.5	-497.5	-386.3	-310.6	-242.3	-203.0	-174.4	-134.8	-58.68	-80.06	-65.04	-33.50	170.0	 2491	 1325	-25.05	-27.72	-21.33	-18.45	-14.88	-15.07	-11.29	-9.595	-8.626	-7.555	-6.738	-5.624	-5.989	-4.336	-4.910	-3.962	-3.526	-3.204	-3.409	-2.836	-3.771	-4.160	-3.894	-4.272	-3.919	-4.195	-5.271	-4.627	-4.639	-5.479	-4.073	-5.018	-4.126	-3.262	-3.535	-4.793	-4.424	-4.594	-4.452	-6.063	-6.232	-6.542	-6.582	-6.671	-6.824	-6.990	-6.647	-6.974	-6.997	-6.782	-6.692	-4.202	6.347	30.90	96.76	567.4	698.2	69.02	-6.798	-8.474	-8.697
585.0	-845.3	-677.2	-520.2	-385.6	-308.1	-254.5	-209.8	-171.1	-141.3	-75.11	-62.08	-66.89	-48.60	3.704	 1121	 2459	53.17	-27.90	-24.20	-19.66	-18.14	-15.73	-13.86	-10.98	-9.292	-9.372	-8.419	-7.192	-7.734	-5.778	-6.888	-5.346	-4.762	-4.262	-4.883	-4.037	-4.621	-4.356	-5.101	-4.407	-5.079	-5.291	-6.106	-5.676	-5.707	-5.942	-4.555	-5.215	-4.476	-3.778	-4.068	-5.608	-4.933	-4.525	-4.684	-5.761	-6.598	-6.463	-6.721	-6.779	-6.845	-6.802	-6.863	-6.966	-7.188	-7.345	-7.167	-6.705	-4.548	0.842	15.74	147.6	615.6	607.6	46.88	-8.066	-8.535
590.0	-854.7	-671.5	-490.2	-378.4	-321.0	-252.8	-207.1	-182.0	-148.1	-109.1	-50.12	-61.45	-57.16	-33.02	253.1	 2007	968.0	-22.62	-25.75	-21.09	-19.08	-16.90	-15.31	-13.41	-11.55	-11.08	-9.648	-9.246	-9.267	-7.776	-8.278	-7.456	-6.991	-5.598	-6.429	-5.468	-5.575	-6.225	-5.780	-5.948	-6.089	-6.353	-6.562	-6.375	-6.268	-6.387	-5.183	-5.601	-5.143	-4.107	-4.379	-5.885	-5.658	-5.555	-4.634	-5.691	-6.530	-6.667	-6.721	-6.940	-7.081	-7.161	-7.190	-7.011	-7.294	-7.385	-7.585	-7.281	-6.809	-5.863	-2.573	27.07	159.2	447.6	502.6	147.8	-3.536
595.0	-854.8	-644.1	-507.6	-382.9	-324.7	-252.8	-219.8	-177.3	-152.6	-118.4	-67.40	-37.15	-55.31	-40.58	22.35	613.3	 2054	176.9	-24.01	-24.03	-20.00	-17.75	-16.15	-14.84	-13.70	-12.53	-12.10	-10.89	-10.48	-10.25	-9.459	-9.214	-8.264	-7.047	-7.144	-6.583	-6.484	-7.016	-7.036	-6.595	-6.972	-7.073	-7.034	-6.881	-7.056	-6.504	-5.672	-5.787	-5.264	-4.413	-4.898	-5.866	-5.929	-6.184	-5.555	-5.707	-6.059	-6.984	-7.177	-7.222	-7.249	-7.332	-7.615	-7.328	-7.393	-7.718	-7.417	-7.858	-7.540	-7.460	-6.560	-0.172	29.61	95.64	267.4	548.3	79.03
600.0	-797.6	-633.2	-510.7	-382.0	-320.7	-263.1	-217.6	-177.8	-155.4	-126.1	-80.99	-29.43	-57.68	-44.56	-28.04	119.2	 1696	878.4	-23.91	-24.03	-21.29	-18.71	-16.84	-16.37	-14.69	-14.01	-11.99	-11.48	-12.03	-11.16	-10.28	-10.37	-8.813	-8.907	-7.719	-7.478	-7.077	-7.645	-7.325	-7.296	-6.979	-7.547	-7.646	-7.115	-7.251	-6.739	-6.145	-6.294	-5.718	-4.774	-4.995	-6.300	-6.285	-6.539	-5.910	-5.922	-5.945	-6.603	-6.991	-7.290	-6.952	-7.345	-7.469	-7.604	-7.466	-7.622	-7.655	-7.567	-7.603	-7.758	-7.384	-6.098	0.525	15.21	61.04	351.2	470.0
605.0	-831.2	-703.0	-537.3	-388.8	-327.3	-261.4	-208.0	-187.2	-155.9	-127.3	-91.86	-38.49	-44.63	-46.98	-36.59	-2.645	762.0	 1683	29.91	-23.31	-21.34	-20.85	-18.12	-16.56	-16.32	-14.14	-13.97	-12.62	-13.23	-12.18	-11.73	-10.75	-10.24	-9.520	-8.647	-8.140	-7.847	-8.032	-7.182	-7.664	-7.599	-7.823	-7.934	-7.318	-7.169	-6.921	-6.291	-6.586	-5.891	-4.911	-5.286	-6.349	-6.407	-6.847	-6.347	-6.451	-6.301	-6.700	-7.291	-7.435	-7.429	-7.455	-7.424	-7.426	-7.709	-7.414	-7.636	-7.483	-7.653	-7.777	-7.772	-7.562	-5.955	-2.587	7.589	91.39	385.0
610.0	-844.7	-667.0	-517.7	-395.8	-324.8	-263.9	-221.6	-182.8	-160.6	-126.8	-98.12	-49.10	-27.16	-46.08	-43.19	-31.90	166.7	 1439	690.0	-21.78	-22.67	-20.75	-18.92	-17.70	-17.08	-14.64	-14.00	-13.00	-13.24	-12.87	-12.04	-11.41	-10.94	-9.893	-9.312	-8.300	-8.347	-8.697	-7.761	-8.265	-8.054	-8.389	-8.331	-7.786	-7.626	-7.222	-6.498	-6.888	-6.068	-5.194	-5.355	-6.620	-6.418	-6.852	-6.557	-6.735	-6.804	-6.706	-7.024	-7.265	-7.328	-7.636	-7.375	-7.586	-7.553	-7.544	-7.525	-7.698	-7.983	-7.779	-8.032	-8.078	-7.493	-6.742	-4.567	13.93	98.25
615.0	-887.9	-707.1	-537.3	-400.4	-329.2	-266.4	-213.2	-187.3	-159.6	-126.5	-101.3	-67.13	-27.15	-42.34	-39.91	-38.44	10.35	455.3	 1574	128.5	-23.96	-22.21	-19.52	-18.56	-17.50	-16.57	-14.67	-14.11	-14.06	-14.05	-12.42	-12.29	-12.02	-10.46	-9.902	-9.088	-9.057	-8.750	-8.342	-8.648	-8.477	-8.939	-8.471	-8.072	-7.871	-7.616	-6.627	-6.925	-6.202	-5.394	-5.515	-6.774	-6.443	-7.178	-6.641	-7.108	-7.358	-6.887	-6.675	-6.950	-7.222	-7.504	-7.512	-7.763	-7.834	-7.675	-7.655	-7.502	-7.617	-7.824	-7.848	-8.110	-7.977	-7.778	-7.356	-3.475	15.25
620.0	-926.4	-665.4	-525.0	-390.5	-311.2	-272.3	-214.4	-180.9	-156.1	-125.8	-111.9	-73.20	-28.04	-30.02	-44.38	-39.84	-26.61	87.26	 1330	675.3	-21.93	-22.41	-20.07	-19.25	-18.13	-16.28	-15.72	-14.72	-14.57	-14.85	-13.08	-12.48	-11.86	-11.07	-10.43	-9.216	-9.665	-9.163	-8.957	-8.485	-8.332	-8.791	-8.536	-8.162	-8.126	-7.881	-6.816	-7.040	-6.449	-5.466	-5.397	-6.862	-6.582	-7.369	-6.706	-7.325	-7.270	-7.321	-6.804	-7.078	-7.305	-7.585	-7.477	-7.736	-7.695	-7.703	-7.739	-7.670	-7.897	-7.984	-7.994	-8.123	-8.021	-7.960	-8.054	-7.438	-3.253
625.0	-839.8	-678.4	-520.1	-400.6	-329.9	-272.5	-217.4	-184.1	-149.7	-128.4	-104.1	-77.77	-42.32	-24.21	-41.17	-42.85	-33.89	-5.088	632.5	 1368	17.95	-22.63	-20.38	-18.56	-18.07	-17.05	-15.90	-14.73	-14.62	-14.47	-13.86	-12.99	-12.35	-11.58	-10.70	-9.514	-9.652	-9.731	-9.418	-8.647	-8.802	-8.703	-8.465	-8.739	-8.122	-7.733	-7.008	-6.848	-6.591	-5.481	-5.572	-6.840	-6.498	-7.273	-6.663	-7.116	-7.342	-7.449	-7.367	-7.035	-7.163	-7.626	-7.658	-7.743	-7.791	-7.737	-7.744	-7.941	-7.751	-7.914	-7.981	-8.149	-8.255	-8.093	-8.226	-8.118	-7.286
630.0	-855.7	-677.5	-529.5	-402.1	-326.0	-269.2	-222.6	-190.8	-155.8	-130.9	-105.8	-79.77	-57.14	-23.56	-32.74	-42.17	-35.93	-26.06	140.2	 1236	595.4	-18.67	-20.32	-19.57	-18.03	-16.96	-16.19	-15.45	-15.21	-14.39	-13.99	-13.40	-12.33	-11.97	-11.07	-9.724	-9.774	-9.527	-9.772	-9.080	-8.819	-9.369	-8.740	-8.606	-8.651	-8.219	-7.147	-7.029	-6.727	-5.701	-5.657	-6.939	-6.700	-7.264	-6.884	-7.218	-7.587	-7.706	-7.493	-7.430	-7.148	-7.344	-7.650	-7.739	-7.656	-7.808	-7.809	-7.839	-7.960	-7.942	-7.976	-8.064	-8.221	-8.226	-8.159	-8.473	-8.395
635.0	-831.2	-681.2	-501.1	-402.5	-323.1	-249.2	-219.6	-194.7	-165.8	-131.6	-106.6	-81.21	-63.12	-36.52	-22.40	-40.14	-36.03	-31.07	10.57	405.0	 1436	93.08	-20.60	-19.57	-18.07	-17.64	-16.34	-15.63	-15.82	-15.47	-14.52	-14.08	-12.57	-11.76	-11.29	-10.19	-9.977	-9.881	-9.488	-9.409	-9.212	-9.547	-9.009	-8.631	-8.314	-8.449	-7.319	-7.648	-6.654	-5.700	-5.919	-7.122	-6.866	-7.206	-6.907	-7.521	-7.653	-7.617	-7.287	-7.541	-7.145	-7.486	-7.605	-7.881	-8.012	-7.948	-7.893	-7.760	-8.006	-8.023	-7.838	-8.061	-7.741	-8.278	-8.494	-8.632	-8.746
640.0	-840.5	-669.5	-532.5	-395.8	-315.0	-257.8	-214.7	-192.2	-162.0	-135.6	-105.7	-83.94	-61.07	-39.76	-16.76	-35.54	-36.23	-35.14	-19.73	80.51	 1274	527.3	-20.37	-19.46	-18.83	-17.68	-16.34	-16.01	-15.76	-15.38	-15.14	-13.95	-12.30	-11.92	-11.35	-10.20	-9.738	-10.05	-9.661	-9.528	-9.155	-9.383	-8.923	-8.551	-8.458	-8.574	-7.412	-7.425	-6.771	-5.793	-5.688	-6.996	-6.969	-7.222	-6.937	-7.301	-7.732	-7.574	-7.578	-7.577	-7.354	-7.576	-7.513	-7.794	-7.723	-7.728	-7.950	-7.945	-8.000	-8.069	-7.975	-8.095	-7.839	-8.179	-8.413	-8.497	-8.687
645.0	-822.9	-642.1	-519.1	-406.0	-319.5	-261.7	-220.6	-191.4	-164.9	-133.8	-104.8	-79.76	-62.08	-44.71	-23.71	-26.31	-34.99	-31.63	-27.54	-2.220	627.0	 1098	3.953	-19.82	-18.86	-18.11	-16.46	-16.60	-16.34	-16.20	-14.80	-14.03	-12.75	-11.99	-11.13	-10.61	-10.21	-10.12	-9.794	-9.566	-9.376	-9.298	-8.940	-8.632	-8.583	-8.363	-7.456	-7.448	-6.735	-5.933	-5.796	-6.874	-6.810	-7.358	-7.003	-7.380	-7.671	-7.485	-7.471	-7.617	-7.673	-7.610	-7.407	-7.631	-7.818	-7.833	-7.716	-8.157	-7.949	-8.069	-8.069	-8.063	-7.810	-8.218	-8.463	-8.663	-8.649
650.0	-803.6	-688.1	-494.4	-398.8	-330.4	-265.4	-220.2	-188.2	-161.9	-138.9	-106.2	-77.14	-58.96	-53.72	-31.18	-20.86	-34.04	-32.96	-28.18	-21.02	170.3	 1220	176.4	-18.50	-18.93	-17.39	-16.25	-16.29	-16.15	-15.74	-14.80	-14.15	-12.94	-12.76	-11.24	-10.10	-10.04	-10.54	-9.854	-9.480	-9.417	-9.255	-9.373	-8.906	-8.456	-8.093	-7.345	-7.598	-6.704	-5.888	-5.824	-7.054	-6.828	-7.204	-7.162	-7.403	-7.595	-7.621	-7.605	-7.714	-7.591	-7.769	-7.490	-7.809	-7.921	-7.663	-7.873	-8.129	-8.046	-8.279	-7.977	-8.315	-7.570	-7.997	-8.470	-8.620	-8.754
