Sample:	'1
File name:	C2025021104¶«Íõ¹«Ä¹2±¶.FD3
Run date:	'09:36:58, 02/12/2025
Operator:	Administrator
Comment:	'

Instrument
Model:	F-2700 FL Spectrophotometer
Serial number:	23B8-004
ROM Version:	4J14000 07

Instrument parameters
Measurement type:	3-D scan
Data mode:	Fluorescence
EX  Start WL:	220.0 nm
EX  End WL:	600.0 nm
EX Sampling interval:	5.0 nm
EM  Start WL:	230.0 nm
EM  End WL:	650.0 nm
EM Sampling interval:	5.0 nm
Scan speed:	12000 nm/min
EX Slit:	5.0 nm
EM Slit:	5.0 nm
PMT Voltage:	700 V
Response:	Auto 
Corrected spectra:	Off
Contour interval:	50.000

Peak integration
Integration method:	Rectangular
Sensitivity:	1
Threshold:	1.000

Peaks
No.	ApexEX/EM(nm)	Height(Data)
1	225.0/340.0	4286
2	240.0/265.0	362.8
3	250.0/445.0	4372
4	255.0/285.0	595.8
5	260.0/570.0	191.7
6	265.0/585.0	172.3
7	270.0/300.0	1770
8	270.0/595.0	158.3
9	275.0/310.0	1959
10	275.0/340.0	2540
11	275.0/415.0	4407
12	275.0/435.0	4196
13	275.0/610.0	141.2
14	345.0/415.0	3018
15	460.0/345.0	12.36
16	500.0/445.0	19.07
17	505.0/275.0	2.943
18	510.0/280.0	3.805
19	510.0/455.0	18.65
20	520.0/285.0	3.842
21	545.0/300.0	9.432
22	550.0/305.0	10.32
23	555.0/340.0	13.45
24	580.0/415.0	18.11

Data points
	220.0	225.0	230.0	235.0	240.0	245.0	250.0	255.0	260.0	265.0	270.0	275.0	280.0	285.0	290.0	295.0	300.0	305.0	310.0	315.0	320.0	325.0	330.0	335.0	340.0	345.0	350.0	355.0	360.0	365.0	370.0	375.0	380.0	385.0	390.0	395.0	400.0	405.0	410.0	415.0	420.0	425.0	430.0	435.0	440.0	445.0	450.0	455.0	460.0	465.0	470.0	475.0	480.0	485.0	490.0	495.0	500.0	505.0	510.0	515.0	520.0	525.0	530.0	535.0	540.0	545.0	550.0	555.0	560.0	565.0	570.0	575.0	580.0	585.0	590.0	595.0	600.0
230.0	48.98	1210	2810	717.0	26.68	4.930	3.954	3.304	3.690	3.297	3.585	3.279	3.062	3.143	2.520	2.158	1.865	1.725	1.646	1.573	1.500	1.414	1.443	1.422	1.355	1.286	1.306	1.175	1.157	1.022	1.021	0.868	0.837	0.655	0.551	0.583	0.477	0.401	0.361	0.320	0.404	0.537	0.556	0.366	0.309	0.253	1.735	8.098	12.92	8.399	2.796	0.479	0.155	0.132	0.132	0.099	0.129	0.110	0.112	0.084	0.071	0.062	0.076	0.053	0.072	0.036	0.037	0.032	0.031	0.023	0.000	0.021	0.009	0.012	0.004	-0.013	0.000
235.0	114.4	325.9	1797	2920	508.3	37.08	5.108	4.246	4.650	4.193	3.930	3.384	3.316	3.543	2.669	2.471	1.933	1.885	1.602	1.680	1.735	1.622	1.560	1.299	1.429	1.264	1.256	1.288	1.150	1.213	1.018	0.923	0.885	0.740	0.643	0.533	0.539	0.391	0.368	0.330	0.284	0.341	0.466	0.640	0.539	0.344	0.556	2.096	5.226	9.231	13.36	12.96	5.083	0.914	0.173	0.139	0.190	0.123	0.128	0.059	0.072	0.066	0.104	0.090	0.063	0.028	0.051	0.048	0.036	0.014	0.006	0.018	0.009	0.025	0.022	-0.013	-0.012
240.0	184.8	160.2	551.3	2737	3319	386.8	16.52	6.382	5.547	4.108	4.310	3.844	3.902	3.298	2.945	2.278	2.273	1.701	1.522	1.735	1.673	1.518	1.515	1.426	1.519	1.296	1.351	1.430	1.189	1.277	1.034	0.887	0.731	0.682	0.695	0.577	0.489	0.416	0.390	0.331	0.265	0.351	0.414	0.420	0.658	0.638	0.421	0.662	1.349	2.883	8.204	19.38	22.70	14.10	3.614	0.524	0.151	0.125	0.145	0.071	0.109	0.042	0.115	0.110	0.090	0.042	0.123	0.066	0.032	0.055	0.030	0.018	-0.006	0.013	0.002	0.022	-0.012
245.0	138.7	203.3	178.7	983.5	4113	3126	270.7	11.26	6.178	5.628	5.872	4.526	4.565	3.766	3.245	2.859	2.283	1.867	1.855	1.637	1.545	1.590	1.606	1.577	1.382	1.499	1.362	1.402	1.173	1.292	1.158	0.896	0.880	0.717	0.606	0.569	0.515	0.376	0.337	0.392	0.345	0.325	0.321	0.292	0.428	0.762	0.774	0.664	0.559	0.800	2.152	7.107	17.69	30.46	23.36	12.82	2.206	0.313	0.114	0.114	0.093	0.085	0.061	0.110	0.135	0.062	0.072	0.062	0.050	0.044	0.016	0.060	0.006	-0.008	0.022	-0.002	0.014
250.0	52.88	155.6	234.8	296.9	1397	4144	4741	1084	51.12	8.607	6.606	5.707	4.796	4.006	3.540	3.015	2.557	2.062	1.965	1.744	1.770	1.536	1.608	1.687	1.587	1.623	1.453	1.423	1.272	1.302	1.145	0.914	0.845	0.665	0.634	0.569	0.539	0.401	0.350	0.351	0.401	0.348	0.377	0.311	0.328	0.414	0.536	0.800	0.887	0.814	0.846	1.780	4.458	10.54	19.15	31.22	35.76	29.87	10.96	2.796	0.225	0.157	0.078	0.126	0.099	0.109	0.091	0.090	0.091	0.052	0.044	0.066	0.060	0.024	0.032	0.046	0.013
255.0	26.98	53.80	183.1	305.8	388.6	1092	4830	8205	1447	44.21	10.09	8.318	6.327	4.934	4.213	3.440	2.769	2.205	1.967	2.020	2.013	1.928	1.773	1.721	1.720	1.499	1.615	1.407	1.497	1.217	1.273	0.972	0.690	0.699	0.572	0.590	0.629	0.491	0.395	0.472	0.366	0.353	0.332	0.437	0.329	0.353	0.384	0.403	0.594	0.849	1.259	1.225	1.389	2.551	4.486	7.850	17.22	40.10	66.21	28.21	16.58	2.556	0.204	0.171	0.142	0.127	0.082	0.069	0.103	0.111	0.077	0.060	0.045	0.038	0.074	0.049	0.055
260.0	20.56	24.91	71.90	277.2	307.0	292.8	1535	8023	8800	231.5	23.94	11.42	7.847	6.041	5.016	4.012	3.038	2.429	2.216	2.247	1.959	1.979	1.806	1.763	1.598	1.600	1.614	1.342	1.624	1.428	1.399	0.970	0.789	0.860	0.694	0.684	0.606	0.495	0.443	0.475	0.375	0.328	0.301	0.398	0.348	0.331	0.244	0.303	0.354	0.439	0.941	1.507	1.621	1.215	1.240	2.009	4.256	11.39	33.79	63.20	82.86	26.69	12.79	1.079	0.256	0.193	0.168	0.084	0.165	0.073	0.149	0.090	0.075	0.078	0.031	0.046	0.032
265.0	22.85	22.84	29.45	130.6	362.8	222.2	383.2	2840	9999.9	8187	181.3	17.08	11.18	7.561	5.724	4.367	3.743	3.026	2.703	2.532	2.212	1.881	1.837	2.011	1.808	1.650	1.470	1.686	1.490	1.431	1.231	1.174	0.979	0.909	0.724	0.705	0.690	0.547	0.426	0.512	0.431	0.484	0.393	0.444	0.376	0.351	0.332	0.253	0.287	0.290	0.414	1.031	1.618	1.953	1.225	0.827	1.296	2.846	8.159	20.87	55.71	90.81	97.03	23.42	7.084	0.472	0.262	0.142	0.179	0.149	0.148	0.129	0.122	0.156	0.102	0.077	0.066
270.0	49.52	39.97	31.38	51.70	183.1	366.3	281.4	695.2	3439	9999.9	9999.9	744.1	43.35	11.94	8.778	5.723	4.607	3.804	3.408	2.843	2.529	2.144	2.103	2.128	1.890	2.020	1.672	1.634	1.491	1.576	1.391	1.333	1.155	0.955	0.895	0.769	0.733	0.656	0.595	0.623	0.592	0.543	0.520	0.486	0.428	0.458	0.405	0.383	0.340	0.324	0.322	0.440	0.738	1.249	1.757	2.062	1.641	1.266	2.167	5.048	13.56	28.29	56.69	80.31	100.2	78.25	15.74	7.134	0.635	0.333	0.263	0.186	0.232	0.131	0.103	0.134	0.106
275.0	160.3	115.1	79.52	53.64	76.89	191.5	489.4	363.9	841.2	2554	9828	9999.9	1037	39.09	12.04	8.029	6.346	5.306	4.017	3.492	3.179	2.564	2.543	2.118	2.185	2.142	1.988	1.931	1.868	1.577	1.567	1.453	1.241	1.064	1.176	0.929	0.924	0.891	0.844	0.766	0.809	0.705	0.798	0.715	0.771	0.668	0.598	0.529	0.482	0.484	0.356	0.438	0.415	0.589	0.732	1.207	2.448	2.943	2.157	1.754	3.460	6.823	13.30	19.19	33.39	77.08	142.3	149.1	25.53	8.511	0.613	0.328	0.272	0.233	0.218	0.212	0.215
280.0	292.7	225.5	151.6	84.27	64.71	106.0	353.1	561.9	366.7	721.3	2978	9999.9	9623	726.2	22.52	12.30	8.457	6.454	4.686	4.066	3.625	3.026	2.750	2.384	2.644	2.133	2.104	1.953	1.688	1.676	1.500	1.450	1.508	1.387	1.351	1.246	1.233	1.115	1.208	0.966	0.989	0.953	1.038	1.015	0.907	0.917	0.814	0.820	0.590	0.667	0.521	0.507	0.478	0.473	0.548	0.750	1.264	2.503	3.805	2.919	1.899	2.343	3.824	5.356	8.562	19.93	55.21	129.6	174.1	133.2	21.31	3.628	0.489	0.437	0.315	0.226	0.218
285.0	464.6	388.3	249.8	139.5	87.68	102.4	203.3	595.8	589.3	385.2	974.0	3985	9999.9	7779	106.6	17.24	11.08	8.169	5.566	4.763	4.081	3.279	2.795	2.688	2.798	2.159	2.030	2.159	1.790	1.928	1.796	1.578	1.551	1.446	1.772	1.676	1.628	1.521	1.353	1.120	1.224	1.322	1.276	1.424	1.249	1.352	1.048	1.048	0.952	0.826	0.697	0.648	0.606	0.490	0.586	0.654	0.945	1.390	2.486	3.828	3.842	2.593	2.389	2.634	3.573	6.209	14.25	34.96	82.34	162.9	185.9	31.20	15.83	1.542	0.561	0.432	0.397
290.0	764.0	630.7	411.3	242.1	143.4	139.0	205.3	407.7	802.7	881.7	815.8	1423	4151	9999.9	9999.9	1958	33.77	12.21	7.970	6.346	5.177	4.337	3.570	3.411	3.000	2.635	2.478	2.464	2.179	1.972	2.032	1.593	1.699	1.712	2.054	2.252	2.087	2.009	1.955	1.682	1.667	1.693	1.763	1.852	1.931	1.921	1.645	1.659	1.381	1.238	0.972	0.900	0.814	0.734	0.771	0.932	1.091	1.204	1.752	2.398	3.516	4.582	5.183	4.602	4.020	4.430	5.856	10.60	21.16	43.58	78.70	106.1	150.1	117.8	88.92	12.23	2.559
295.0	996.9	856.9	604.3	335.5	215.3	207.3	280.7	416.6	683.5	1244	1341	1126	1466	2759	9999.9	9999.9	647.7	32.18	12.20	8.444	6.686	5.255	4.276	3.599	3.351	3.179	2.968	2.699	2.359	1.963	2.005	1.880	1.745	2.120	2.716	2.648	2.617	2.479	2.520	2.293	2.051	2.306	2.163	2.204	2.316	2.448	2.326	2.247	1.973	1.695	1.328	1.246	1.132	1.047	1.072	1.144	1.414	1.576	1.771	2.348	2.796	3.645	5.090	7.135	8.665	6.524	5.481	6.737	8.271	12.70	19.77	25.59	39.83	73.68	174.0	220.6	34.10
300.0	1170	1026	703.3	417.5	274.9	265.8	338.5	486.3	728.1	1176	1770	1387	1026	1007	3069	9999.9	9999.9	477.0	20.72	11.37	8.661	6.345	5.470	4.786	3.712	3.615	3.035	2.877	2.713	2.445	2.245	1.874	1.830	2.364	2.649	2.767	2.882	2.801	2.444	2.265	2.386	2.501	2.515	2.271	2.717	2.870	2.915	2.586	2.250	1.998	1.484	1.435	1.274	1.208	1.310	1.379	1.856	1.988	2.070	2.819	3.258	4.193	4.726	6.082	8.549	9.432	7.823	6.988	6.211	6.605	7.598	8.101	10.91	18.67	52.05	130.8	208.9
305.0	1269	1152	791.1	502.9	339.8	328.5	422.0	588.5	849.3	1205	1746	1925	1182	782.7	994.4	4064	9999.9	4970	71.76	16.29	11.03	8.094	6.396	5.326	4.126	4.024	3.345	3.136	2.993	2.552	2.326	2.162	2.178	2.272	2.824	2.997	3.063	2.950	2.637	2.591	2.619	2.732	2.896	2.700	2.999	3.088	3.075	3.072	2.484	2.334	1.730	1.717	1.545	1.460	1.633	1.676	2.031	2.437	2.879	3.464	3.781	4.273	5.404	6.314	7.802	9.146	10.32	9.759	7.733	6.285	6.021	4.974	5.040	6.304	13.21	32.68	76.81
310.0	1350	1234	912.6	577.3	411.3	415.8	519.6	698.3	960.1	1291	1664	1959	1682	971.5	668.6	1182	4181	9999.9	9999.9	1623	28.01	11.67	8.827	7.007	5.580	4.636	4.181	3.702	3.477	2.878	2.626	2.280	2.314	2.421	2.917	3.248	3.105	3.165	3.016	2.785	2.856	2.988	2.965	2.882	3.156	3.264	3.252	3.281	2.898	2.599	1.850	2.065	1.814	1.797	1.910	2.040	2.568	2.896	3.269	3.880	4.297	4.730	5.855	6.872	7.704	8.306	9.267	9.884	10.22	9.041	7.386	5.479	4.680	4.466	5.368	9.410	18.95
315.0	1454	1398	1068	681.9	493.4	504.8	625.7	819.1	1064	1396	1700	1842	1782	1453	783.5	630.8	1182	2627	9999.9	9999.9	481.7	28.82	13.08	9.349	7.075	5.729	4.750	4.311	3.962	3.554	3.024	2.760	2.329	2.351	2.707	3.143	3.134	3.007	3.097	3.019	2.887	3.346	2.928	3.183	3.517	3.833	3.692	3.594	3.134	2.662	2.345	2.512	2.284	2.031	2.430	2.461	2.905	3.462	3.502	4.187	4.828	5.440	6.223	7.145	7.867	8.621	9.376	9.201	9.524	9.417	9.734	8.809	6.536	4.856	4.517	4.850	6.473
320.0	1822	1818	1422	816.7	588.1	580.5	730.6	938.2	1197	1513	1835	1943	1800	1700	1032	649.0	596.4	775.6	3004	9999.9	9999.9	405.0	22.00	12.19	8.729	7.034	5.629	4.915	4.857	3.726	3.355	3.106	2.548	2.568	2.818	3.075	3.210	3.068	3.142	3.197	3.064	3.349	3.425	3.845	4.107	4.661	4.717	4.985	4.162	3.234	2.888	3.002	2.542	2.494	2.503	2.794	3.454	3.920	4.463	4.762	5.527	6.305	7.039	8.056	8.495	9.425	9.648	9.710	9.870	9.305	9.479	9.965	9.132	7.199	5.606	4.936	4.534
325.0	2376	2720	2250	1285	774.7	704.0	839.0	1082	1343	1703	2016	2141	1975	1748	1475	849.1	554.6	420.8	818.9	3840	9999.9	9999.9	59.23	17.31	11.57	8.630	6.798	5.770	5.383	4.010	3.912	3.061	2.804	2.667	3.159	2.816	3.308	3.259	3.484	3.354	3.376	3.607	3.792	4.421	5.253	6.049	6.593	7.197	6.465	5.132	3.974	3.792	3.225	3.115	3.071	3.445	4.082	4.659	5.218	5.562	6.155	7.087	8.035	8.992	9.575	9.921	10.43	10.47	10.90	10.13	9.623	9.580	9.664	9.874	7.881	6.209	4.870
330.0	2878	3470	3200	2022	1148	894.2	993.3	1230	1522	1882	2208	2343	2204	1895	1572	1217	750.3	434.8	395.0	1008	3903	9999.9	9999.9	1491	27.71	12.88	9.088	6.937	6.257	4.820	4.195	3.628	3.151	3.011	3.120	2.967	3.380	3.590	3.566	3.615	3.818	4.363	4.510	5.315	6.425	7.863	8.370	9.516	9.110	7.703	5.994	5.854	4.693	4.115	3.668	3.919	4.580	5.016	5.757	6.169	7.099	7.762	8.637	9.999	10.39	11.07	11.26	11.74	11.81	11.42	10.89	10.49	10.23	9.583	8.886	8.558	7.315
335.0	3255	4008	3790	2590	1591	1122	1142	1356	1662	1997	2326	2484	2370	2077	1660	1297	1053	605.2	383.6	429.7	1022	2570	9999.9	9999.9	2302	31.58	13.29	9.345	7.732	6.446	5.058	3.977	3.721	3.216	3.514	3.370	3.401	3.789	3.760	3.865	4.002	4.663	5.220	5.515	7.044	8.784	9.235	10.89	11.01	9.347	7.660	7.306	6.475	5.448	4.406	4.347	5.262	5.687	6.122	6.654	7.819	8.600	9.817	10.45	10.70	11.93	12.15	13.23	12.25	12.46	11.89	11.47	11.25	10.22	9.133	8.216	8.079
340.0	3399	4286	4196	2900	1770	1262	1225	1432	1732	2062	2395	2540	2443	2164	1744	1306	1093	812.3	461.1	356.2	422.6	719.1	2932	9999.9	9999.9	375.1	23.90	12.57	9.772	7.475	6.234	4.605	3.970	3.599	3.268	3.648	3.680	3.782	3.813	4.033	4.006	4.693	5.481	5.972	7.116	9.084	9.656	11.97	12.32	9.723	8.738	8.245	6.899	6.097	5.153	5.014	5.548	5.819	6.389	7.213	7.927	8.729	10.26	10.73	11.12	12.37	12.58	13.45	12.37	13.06	12.67	11.96	11.71	10.90	9.493	8.450	7.836
345.0	3446	4217	4194	3035	1894	1335	1275	1471	1738	2071	2400	2518	2432	2175	1769	1337	1045	908.3	616.2	398.2	338.9	347.6	792.4	3701	9999.9	9999.9	304.6	17.77	11.41	8.717	7.065	5.302	4.181	3.501	3.680	3.967	3.533	4.072	4.005	4.136	4.437	4.993	5.515	5.995	7.389	8.824	9.969	11.92	12.36	9.959	8.963	8.813	7.454	6.378	5.459	5.425	5.971	6.118	6.893	7.204	8.124	8.982	10.06	10.61	11.05	11.94	12.48	12.95	12.49	12.80	12.84	12.02	11.65	10.91	9.502	8.885	7.977
350.0	3164	3883	3923	2968	1988	1423	1322	1476	1723	2003	2298	2410	2341	2128	1761	1366	1062	885.7	797.6	594.0	423.3	351.8	383.9	982.2	3768	9999.9	9999.9	1451	28.47	12.46	8.916	6.829	5.086	4.387	3.997	3.852	3.823	3.888	4.063	4.219	4.416	4.627	5.123	5.859	6.995	8.041	9.241	10.65	11.15	9.942	8.854	8.824	7.819	6.844	5.895	5.719	6.017	6.391	6.955	7.581	8.073	8.815	9.794	10.34	10.81	11.13	11.66	12.01	12.19	12.46	12.08	11.91	11.75	10.75	9.580	9.164	8.301
355.0	2939	3541	3547	2817	1989	1502	1390	1489	1681	1934	2171	2298	2218	2038	1736	1390	1130	936.5	840.5	809.9	623.2	466.0	391.4	449.8	1002	2516	9589	9999.9	2425	33.77	13.50	9.182	6.515	5.178	4.243	4.280	4.043	4.244	4.009	4.127	4.450	4.511	5.054	5.672	6.561	7.412	8.430	9.826	9.833	9.327	8.205	8.646	7.910	7.154	6.268	5.681	6.433	6.118	6.906	7.469	7.970	8.732	9.699	9.998	10.60	10.80	11.08	11.08	11.46	11.43	11.24	11.73	10.93	10.84	9.810	8.939	8.748
360.0	2737	3316	3302	2702	2015	1553	1441	1512	1690	1902	2105	2196	2129	1972	1710	1413	1192	1018	913.5	877.9	832.2	623.0	485.9	416.9	455.6	722.1	2691	9999.9	9999.9	372.3	27.63	11.97	8.101	6.023	5.147	4.480	4.390	4.340	4.280	4.290	4.182	4.485	5.100	5.493	6.210	7.368	7.868	8.963	9.674	8.700	7.960	8.359	7.880	6.895	6.483	6.116	6.879	6.633	6.994	7.227	8.426	8.848	8.989	10.09	10.06	10.29	10.80	11.04	10.85	11.04	10.95	11.35	10.76	10.43	9.912	8.925	8.727
365.0	2577	3087	3091	2600	2030	1626	1523	1587	1749	1907	2054	2111	2065	1915	1695	1458	1258	1123	1016	958.1	961.0	846.6	637.6	496.9	421.9	393.1	765.0	3381	9999.9	9999.9	329.1	20.98	11.10	7.594	5.840	5.029	4.731	4.588	4.502	4.295	4.392	4.408	4.941	5.603	6.043	6.817	7.452	8.658	9.164	8.110	7.774	8.634	8.273	7.192	6.637	6.383	6.602	6.951	7.363	7.852	8.090	9.014	9.420	9.816	9.960	10.26	10.28	10.53	10.96	10.61	10.81	10.83	10.53	10.31	10.01	9.337	8.892
370.0	2439	2876	2871	2522	2113	1767	1655	1693	1821	1962	2026	2025	1980	1871	1682	1493	1355	1253	1198	1136	1099	1076	926.1	718.9	572.6	450.2	431.0	948.8	3503	9999.9	9999.9	1372	28.02	11.93	8.408	6.492	5.605	4.890	4.850	4.663	4.733	4.793	4.895	5.290	5.836	6.764	6.954	7.942	8.368	7.838	7.290	8.647	8.343	7.746	7.322	6.936	7.368	7.409	7.918	8.308	8.483	9.095	9.590	10.14	10.07	9.919	9.693	10.40	10.30	10.43	10.50	10.19	10.42	10.41	9.624	9.299	9.752
375.0	2369	2702	2744	2451	2178	1873	1762	1776	1867	1976	1976	1940	1898	1802	1674	1513	1419	1370	1339	1301	1256	1209	1162	995.2	776.5	607.7	485.0	510.1	996.7	2502	8885	9999.9	2361	33.21	12.73	8.827	7.259	5.950	5.485	4.645	4.738	5.077	4.918	5.272	5.761	6.455	6.682	7.495	7.925	7.451	7.248	8.534	8.633	7.901	7.755	7.339	8.150	8.017	8.395	8.906	8.882	8.563	9.612	9.837	9.986	9.611	9.361	9.752	9.747	9.726	10.57	10.38	10.14	9.780	10.04	9.632	9.921
380.0	2288	2594	2639	2415	2208	1968	1831	1848	1888	1986	1950	1901	1853	1769	1656	1526	1453	1422	1419	1398	1366	1317	1256	1182	964.4	756.9	599.2	505.4	519.7	773.2	2480	9999.9	9999.9	1884	26.50	11.95	8.889	7.115	5.663	4.852	4.891	4.967	5.114	5.133	5.529	6.312	6.479	7.205	7.585	7.469	7.344	8.340	8.761	8.371	8.040	8.137	8.686	8.378	8.412	8.695	8.954	9.179	9.324	9.950	9.940	9.099	9.248	9.379	9.814	9.508	9.921	10.09	9.825	9.689	9.958	9.376	9.702
385.0	2264	2510	2550	2442	2270	2061	1953	1936	1942	1987	1939	1881	1845	1775	1662	1552	1492	1475	1488	1486	1479	1435	1364	1307	1173	935.0	751.0	621.7	520.8	472.1	768.9	3186	9999.9	9999.9	280.4	20.36	11.19	8.187	6.539	5.823	5.270	5.365	5.020	5.348	5.395	6.237	6.273	7.212	7.444	7.102	7.415	8.621	9.161	9.071	8.558	8.439	8.867	9.142	8.896	9.304	9.560	9.676	9.206	9.908	9.977	9.396	9.337	9.114	9.494	9.519	9.751	10.05	9.943	10.09	9.756	9.830	10.01
390.0	2328	2518	2537	2495	2418	2301	2190	2156	2089	2113	2045	1977	1953	1883	1771	1639	1568	1557	1587	1619	1636	1625	1574	1508	1427	1265	1050	883.7	739.4	594.8	531.9	960.0	3193	9999.9	9999.9	3721	26.11	13.28	8.952	6.983	5.964	5.989	5.593	5.753	5.774	6.372	6.239	7.246	7.428	7.074	7.417	8.654	9.368	9.845	9.347	9.477	9.933	10.04	9.819	9.983	9.970	9.838	10.17	10.31	10.40	9.931	9.494	9.602	9.375	10.13	10.10	10.40	10.54	10.65	10.35	10.25	10.53
395.0	2375	2544	2588	2608	2644	2606	2501	2442	2368	2420	2389	2329	2302	2216	2046	1837	1697	1660	1700	1767	1827	1854	1855	1824	1749	1661	1511	1291	1110	914.1	721.8	645.0	990.3	2496	7186	9999.9	1994	32.29	14.81	9.365	7.217	6.783	6.332	6.060	6.387	6.664	6.386	7.455	7.821	7.173	7.568	9.394	9.862	10.32	10.30	10.63	11.17	11.04	11.19	10.82	11.23	10.55	10.94	11.26	10.96	10.89	10.33	10.50	10.62	11.56	11.77	11.53	11.80	11.80	11.15	11.62	11.38
400.0	2464	2565	2681	2733	2830	2877	2809	2758	2697	2812	2888	2865	2829	2692	2423	2110	1856	1766	1813	1906	1990	2082	2134	2153	2105	2031	1948	1746	1514	1275	1019	774.7	647.0	833.5	2029	9072	9999.9	1648	28.63	13.08	8.797	7.413	7.178	6.660	6.598	6.842	6.822	7.692	8.028	7.506	8.128	9.781	10.53	11.11	10.90	11.44	12.32	12.05	12.29	11.56	11.92	12.19	12.18	12.24	12.38	12.04	12.10	12.31	12.68	12.59	13.25	13.34	13.49	13.29	12.66	12.54	12.47
405.0	2608	2685	2784	2862	3046	3126	3128	3088	3109	3325	3487	3543	3482	3287	2917	2450	2060	1900	1934	2039	2167	2304	2418	2501	2504	2454	2386	2244	1980	1691	1375	1040	749.2	596.9	726.6	2762	9999.9	9999.9	253.2	21.86	10.93	8.900	7.897	7.058	7.152	7.170	7.137	7.787	8.252	7.532	8.238	10.11	11.12	11.92	11.98	12.74	13.21	13.29	13.63	12.93	12.84	13.33	13.60	13.88	14.33	14.40	14.02	14.34	14.52	15.13	14.99	15.78	15.74	14.83	14.20	14.19	14.23
410.0	2666	2731	2848	3024	3234	3426	3474	3462	3536	3849	4151	4253	4179	3925	3420	2804	2268	2024	2034	2165	2340	2525	2697	2846	2907	2893	2819	2693	2481	2137	1767	1357	974.9	694.6	561.8	902.1	2964	8462	9999.9	3197	23.77	11.56	9.299	8.264	7.566	7.643	7.310	8.040	8.224	7.890	8.590	10.92	11.87	12.63	13.05	14.01	14.78	14.60	14.78	14.51	14.39	14.53	15.00	15.80	16.47	16.19	16.27	16.47	17.03	17.27	17.33	17.89	17.77	16.94	16.50	15.37	14.88
415.0	2639	2687	2735	3007	3309	3532	3618	3616	3653	3959	4296	4407	4323	4053	3535	2867	2287	2019	2013	2158	2336	2552	2744	2919	3000	3018	2943	2826	2638	2344	1930	1495	1085	770.3	568.2	517.9	870.5	2057	5612	9999.9	1834	28.19	11.84	8.995	8.231	7.934	7.644	7.982	8.181	8.017	8.645	11.34	12.14	12.94	13.25	13.83	15.22	14.87	15.37	14.64	14.61	14.81	15.46	16.41	16.61	16.67	16.71	17.24	17.90	17.27	17.74	18.06	18.11	17.51	16.72	15.44	15.03
420.0	2633	2614	2754	2931	3277	3521	3629	3617	3588	3842	4152	4253	4190	3929	3429	2779	2215	1955	1948	2084	2253	2463	2653	2835	2928	2952	2901	2772	2593	2342	1962	1511	1102	788.6	577.2	438.4	411.7	584.7	1463	6939	9999.9	1512	22.60	10.90	8.999	8.526	7.577	8.214	8.134	8.150	8.421	10.85	11.63	13.26	13.57	13.93	15.88	15.02	15.79	15.29	14.36	14.63	15.34	15.93	16.71	15.91	16.44	16.39	17.42	17.11	17.21	17.83	17.78	17.25	15.94	14.73	14.66
425.0	2549	2596	2681	2902	3240	3563	3681	3663	3557	3776	4021	4131	4062	3840	3325	2713	2161	1912	1898	2011	2177	2376	2562	2752	2853	2879	2840	2720	2548	2307	1980	1539	1121	811.6	597.9	437.3	321.2	266.9	402.9	1928	8360	9187	241.0	17.13	10.23	9.007	8.061	8.431	8.165	8.008	8.497	10.63	11.84	13.19	13.49	14.25	15.98	15.18	15.80	15.38	14.66	14.72	14.92	14.88	16.03	15.12	15.86	16.12	16.51	17.00	17.30	16.77	16.94	16.56	15.34	14.89	13.90
430.0	2755	2564	2655	2906	3310	3707	3878	3836	3695	3823	4067	4160	4103	3842	3346	2724	2164	1899	1873	1970	2112	2294	2507	2702	2818	2858	2836	2737	2571	2326	2017	1624	1200	875.1	651.5	481.2	336.7	223.9	186.0	489.5	2263	6619	7908	1044	21.62	10.91	8.936	8.754	8.398	8.228	8.480	10.66	12.07	13.21	14.15	14.92	16.05	16.48	16.77	15.88	15.42	15.25	15.28	15.13	15.69	15.53	15.78	16.28	16.41	16.65	16.95	16.88	16.99	17.00	15.34	14.76	13.91
435.0	3435	2579	2660	2910	3434	3940	4139	4061	3837	3879	4094	4196	4125	3847	3373	2749	2185	1903	1863	1941	2049	2215	2422	2636	2768	2832	2814	2738	2579	2345	2031	1667	1287	944.2	706.3	535.0	379.6	245.0	161.3	184.2	553.9	1546	4389	9528	1693	26.28	11.02	9.601	9.175	8.676	8.905	11.45	12.36	13.73	14.56	15.91	17.48	17.48	17.70	16.60	16.00	16.35	16.27	15.24	15.95	15.90	15.94	15.79	16.10	16.77	17.06	16.93	17.25	16.52	15.40	14.64	13.88
440.0	4025	2739	2654	2951	3450	4021	4319	4216	3886	3815	3943	4069	3986	3711	3271	2698	2154	1879	1831	1889	1967	2118	2310	2516	2650	2718	2717	2645	2502	2292	1998	1634	1288	973.9	730.7	557.4	402.0	264.9	170.3	126.9	181.7	387.1	1137	6322	9256	1357	19.86	11.03	9.656	9.000	9.167	11.38	12.91	14.42	15.42	15.98	18.05	17.96	18.19	17.36	16.58	16.09	15.60	15.51	15.12	15.47	15.67	15.47	15.61	16.38	16.65	16.40	16.58	15.82	15.21	14.53	13.80
445.0	3939	3207	2576	2883	3455	4055	4372	4258	3824	3636	3707	3789	3721	3480	3079	2552	2073	1817	1781	1795	1852	1961	2156	2331	2469	2529	2532	2475	2353	2161	1899	1554	1234	968.0	733.4	561.5	413.4	277.5	183.3	126.1	108.4	135.4	291.5	1765	7676	8041	201.7	16.47	10.69	9.324	9.691	11.35	12.92	14.53	15.75	16.13	19.07	18.40	18.59	17.69	16.85	15.85	14.87	14.72	14.42	14.27	14.60	14.61	14.64	15.05	15.45	15.26	15.27	15.68	14.28	13.82	13.33
450.0	3053	3897	2704	2756	3355	3961	4349	4182	3644	3315	3271	3314	3260	3081	2743	2301	1906	1691	1653	1649	1658	1735	1894	2047	2169	2222	2224	2190	2095	1930	1709	1417	1131	899.4	717.2	554.2	410.1	285.4	198.6	139.9	105.4	90.01	109.9	428.2	2093	5949	7063	2212	19.20	10.42	9.914	11.59	12.88	14.52	15.60	16.59	18.82	18.77	18.51	17.20	16.21	15.21	14.13	13.70	12.88	13.00	12.80	13.00	13.23	13.36	13.34	13.72	13.84	13.65	13.07	12.70	12.17
455.0	2317	3651	3345	2652	3236	3806	4231	4058	3410	3007	2879	2892	2836	2700	2400	2053	1729	1551	1517	1486	1462	1514	1641	1769	1879	1924	1933	1909	1838	1707	1526	1281	1029	824.9	674.7	546.4	406.9	291.0	210.5	154.6	115.6	89.36	75.95	135.8	497.1	1387	3757	8177	1402	20.76	11.03	11.91	12.96	13.79	15.25	15.97	17.97	18.64	18.65	16.91	15.69	14.26	13.11	12.42	11.40	11.62	11.65	11.53	11.58	12.30	12.16	12.06	12.34	12.19	11.34	11.65	10.93
460.0	2016	2896	3995	2656	3085	3695	4060	3906	3247	2781	2631	2634	2576	2443	2195	1899	1615	1452	1404	1375	1338	1369	1475	1595	1691	1730	1747	1726	1672	1561	1401	1189	965.0	777.5	637.3	533.2	413.4	295.2	216.3	163.4	125.3	95.43	76.59	75.87	145.6	336.7	951.0	5102	7257	1049	17.28	12.49	13.05	13.62	14.51	16.20	17.67	18.56	17.65	16.53	15.09	13.70	12.12	11.20	10.98	10.90	10.14	10.81	10.99	11.04	11.04	11.36	11.72	11.32	10.84	10.53	10.65
465.0	1882	2293	4019	3042	2925	3499	3889	3707	3065	2577	2423	2401	2361	2241	2022	1746	1492	1351	1307	1275	1218	1243	1330	1437	1522	1574	1585	1578	1530	1438	1294	1105	900.4	731.5	603.9	503.8	408.6	298.4	221.1	169.3	131.5	103.1	80.46	66.46	71.87	106.4	238.1	1403	6041	6033	163.4	17.22	13.67	13.79	13.75	15.56	16.80	17.63	17.32	15.82	14.38	13.24	11.41	10.36	9.582	10.15	9.629	9.861	10.15	9.995	10.38	10.40	10.64	10.25	10.38	9.425	9.949
470.0	1703	1883	2905	3952	2854	3168	3532	3347	2782	2300	2129	2099	2059	1959	1758	1538	1328	1207	1167	1125	1064	1076	1149	1240	1308	1351	1365	1361	1324	1249	1139	976.3	809.5	663.0	550.4	459.8	380.1	299.7	225.4	172.5	137.7	109.5	86.89	69.75	59.66	58.89	81.77	337.7	1644	4389	5072	857.9	20.98	14.15	13.70	14.69	15.85	15.85	15.93	14.29	13.07	11.88	10.40	9.532	8.555	8.476	8.453	8.713	8.772	9.003	8.879	9.143	9.216	9.416	9.140	8.693	8.701
475.0	1563	1600	1896	3765	3483	2824	3143	2970	2437	1983	1815	1777	1745	1644	1501	1318	1151	1049	1006	965.8	905.7	907.8	962.2	1035	1095	1123	1135	1137	1112	1058	967.3	839.9	703.8	583.7	490.8	414.3	338.2	278.4	227.4	176.0	138.5	112.2	90.84	73.49	60.83	51.94	49.65	101.0	386.3	1014	2481	5328	1335	24.27	13.80	13.82	14.39	14.15	14.20	13.05	11.87	10.53	8.881	8.220	7.973	7.519	7.263	7.484	7.832	7.360	7.465	7.597	7.923	8.042	7.891	7.212	7.277
480.0	1448	1477	1504	2811	4254	2704	2839	2688	2192	1780	1587	1552	1514	1430	1308	1162	1021	936.0	903.2	859.2	799.2	791.8	836.9	901.4	945.5	977.0	989.4	987.9	968.3	924.2	852.0	744.7	631.5	529.1	448.3	378.4	312.8	260.5	219.3	179.3	140.1	113.0	93.34	76.46	63.52	52.99	44.81	50.66	107.7	243.8	618.6	3067	5244	1119	21.16	13.77	14.15	13.70	13.42	12.18	10.73	10.06	8.286	7.447	6.928	6.666	6.820	6.839	6.813	6.556	6.792	6.630	6.789	7.106	7.048	6.725	6.716
485.0	1268	1385	1370	1963	4413	3090	2586	2458	2003	1595	1417	1384	1340	1277	1166	1035	921.6	845.5	820.3	769.2	713.1	697.1	739.3	792.4	833.4	861.4	872.9	874.5	858.3	822.5	757.3	670.9	571.9	484.1	411.2	352.0	295.1	243.9	207.5	180.3	144.6	116.7	95.10	79.58	66.77	55.45	46.22	41.33	47.52	73.76	155.1	825.6	4078	4837	197.1	17.74	13.97	13.44	12.61	11.23	9.956	8.959	7.715	6.927	6.175	6.111	6.185	6.401	6.107	6.227	6.038	6.523	5.926	6.228	6.391	5.993	6.287
490.0	1084	1267	1247	1468	3164	4226	2508	2173	1766	1401	1237	1205	1164	1111	1010	898.5	804.5	740.3	718.0	675.6	620.3	605.0	636.4	678.2	714.9	736.8	746.3	747.2	738.5	711.3	661.8	585.2	505.9	432.2	372.9	321.3	272.2	227.6	191.9	169.6	147.7	121.0	99.05	82.22	70.06	59.74	50.17	43.03	38.26	39.02	54.00	202.5	1084	3134	4192	893.0	22.86	14.03	11.75	10.60	9.233	8.339	7.281	6.217	5.632	5.457	5.405	5.455	5.668	5.613	5.642	5.635	5.455	5.413	5.619	5.480	5.681
495.0	930.7	1105	1140	1223	1911	4267	3213	1901	1534	1222	1080	1047	1008	951.5	868.4	772.0	696.5	643.5	617.2	580.9	532.7	520.2	540.1	580.0	606.0	624.0	634.1	632.2	626.6	608.1	570.9	508.8	441.5	384.8	332.6	289.2	248.6	209.5	177.3	155.1	140.3	124.1	101.1	85.31	73.45	63.66	55.22	46.78	40.09	35.24	35.14	66.14	260.4	726.6	2131	5051	1527	27.16	11.95	10.37	8.688	7.531	6.261	5.829	5.233	4.934	4.727	4.852	4.788	4.874	4.978	4.745	4.939	4.788	5.155	4.808	4.687
500.0	829.1	953.3	1041	1095	1416	3142	4289	1818	1370	1095	959.9	932.1	897.2	841.5	767.5	684.8	613.2	569.2	549.2	511.9	471.6	457.0	474.8	508.3	530.6	546.0	553.1	556.3	549.9	533.4	505.8	451.7	395.2	345.6	299.9	265.2	230.4	195.9	168.6	146.3	132.7	121.8	105.0	86.48	76.12	64.65	57.43	50.48	41.89	37.15	32.80	38.03	79.40	181.9	534.3	2795	5203	1236	21.90	10.41	8.224	6.815	5.885	5.445	4.923	4.591	4.414	4.196	4.006	4.158	4.522	4.346	4.195	4.343	4.210	3.913	4.273
505.0	748.7	841.3	939.2	1006	1204	2002	4706	2221	1220	985.0	862.1	823.5	800.9	746.7	677.7	604.5	546.6	503.9	487.3	456.1	418.0	402.5	417.5	450.3	470.0	481.7	486.7	486.1	483.2	472.2	447.7	401.9	354.7	311.7	273.3	242.5	210.0	182.3	159.2	139.1	124.0	114.0	106.0	89.50	76.01	66.50	58.48	52.00	43.91	39.28	34.59	33.32	40.65	62.73	140.4	737.9	3606	4580	219.1	15.91	8.526	6.859	5.597	4.988	4.524	4.056	4.091	3.843	4.113	3.782	4.027	3.953	3.968	3.901	4.085	3.402	3.699
510.0	634.0	720.8	770.3	908.2	1017	1341	3246	3715	1220	838.8	743.1	711.0	677.3	625.8	570.5	507.3	460.1	430.4	410.5	386.1	353.8	341.4	352.7	375.5	390.6	402.1	406.0	406.6	405.3	395.8	374.0	340.3	302.8	266.7	236.8	210.9	186.2	163.2	143.6	127.3	113.6	103.8	98.35	89.17	77.16	65.97	59.00	52.71	45.36	41.28	36.64	33.88	33.23	36.90	53.13	184.4	936.8	2711	3479	955.8	19.49	7.091	5.417	4.564	4.009	3.767	3.505	3.485	3.624	3.491	3.261	3.316	3.278	3.426	3.347	3.040	3.184
515.0	529.8	596.7	629.2	777.3	858.6	1030	1617	4202	2029	712.7	634.4	597.1	570.2	519.0	473.6	423.2	385.0	355.2	339.5	320.8	294.1	285.5	293.7	311.3	324.4	329.6	335.0	330.4	332.7	326.0	308.7	284.7	254.9	224.9	201.1	181.2	160.2	142.4	126.9	115.9	103.8	94.03	87.55	83.59	77.36	65.62	57.43	51.80	45.58	40.99	36.52	34.96	32.25	30.95	32.73	60.05	224.6	622.1	1500	3736	1493	24.57	5.756	4.449	3.795	3.368	3.088	3.101	3.096	2.911	2.811	2.882	2.893	2.716	2.678	2.567	2.736
520.0	449.8	516.1	542.1	669.9	775.4	872.0	1069	2927	3579	732.4	552.3	517.9	496.1	453.9	407.0	363.2	330.2	305.6	298.3	279.6	254.1	246.2	254.0	267.0	276.9	283.2	284.9	283.6	283.9	280.2	266.7	246.0	219.8	198.1	175.8	160.6	146.1	129.4	117.0	105.8	95.31	87.05	79.53	76.53	73.30	66.49	56.08	50.29	44.94	39.83	36.16	33.68	30.79	28.63	27.86	31.37	65.21	150.6	363.1	1884	3730	1169	18.58	4.681	3.992	3.322	2.960	2.636	2.734	2.701	2.492	2.514	2.628	2.484	2.333	2.347	2.513
525.0	399.6	450.8	479.7	559.1	698.8	743.7	847.3	1537	4488	1238	495.2	461.3	433.4	396.6	357.2	317.7	292.0	271.9	262.7	243.3	222.0	215.4	220.4	229.6	240.9	245.5	245.6	246.0	247.5	246.0	233.7	216.9	193.4	175.8	159.3	144.0	129.9	117.8	106.7	97.01	89.09	80.46	75.02	69.95	68.47	64.14	55.36	48.39	42.95	38.49	35.09	31.82	30.03	27.42	25.77	24.09	28.60	45.28	90.30	475.3	2253	3352	226.4	12.10	4.026	3.468	2.916	2.494	2.618	2.497	2.113	2.311	2.260	2.228	2.069	2.101	2.242
530.0	359.2	384.7	396.9	448.6	607.8	650.4	686.8	839.7	2888	2950	570.9	392.3	365.5	334.3	294.7	267.2	242.3	228.2	216.9	204.2	186.6	178.5	184.8	191.6	201.8	203.4	205.1	205.4	205.0	204.9	194.2	181.3	163.2	148.1	134.1	123.9	112.0	102.5	92.86	86.30	78.75	71.79	66.89	62.66	59.57	58.59	54.74	46.27	39.88	35.95	32.78	29.34	27.18	25.59	23.02	20.99	19.47	20.46	28.42	113.0	561.5	1745	2426	953.4	17.83	3.860	2.915	2.375	2.279	2.080	2.102	1.985	2.045	1.883	1.750	1.734	1.871
535.0	295.6	318.7	317.3	361.1	479.8	579.1	555.6	574.7	1074	3955	1482	332.4	302.0	274.2	237.4	216.8	200.9	185.3	176.8	166.6	151.9	147.5	150.1	155.5	163.2	166.7	166.0	165.5	167.7	166.5	160.8	148.8	135.5	124.0	113.1	104.4	93.65	86.63	79.23	74.34	68.48	63.51	59.22	55.54	51.81	50.38	48.69	44.06	37.53	32.38	29.47	27.30	24.07	23.03	21.13	18.54	15.63	13.96	13.81	31.16	130.4	395.1	893.9	2527	1462	24.46	3.419	2.541	2.305	1.882	1.822	1.726	1.701	1.519	1.581	1.384	1.735
540.0	245.7	266.9	266.2	308.9	385.8	510.6	486.4	457.5	531.0	2491	3387	362.7	266.1	237.6	206.7	187.6	171.4	159.2	151.5	142.5	131.1	127.7	128.8	133.6	137.9	143.0	140.6	143.0	143.4	141.7	137.5	126.0	115.7	104.7	98.36	91.19	83.30	75.85	70.80	66.22	60.37	56.45	54.09	49.55	46.91	43.97	42.89	41.56	36.20	30.19	27.21	24.18	22.05	21.12	18.94	17.42	14.43	11.90	10.18	12.68	33.97	92.32	209.3	1107	2737	1092	19.10	2.811	2.257	2.003	1.574	1.542	1.458	1.284	1.270	1.316	1.517
545.0	215.7	228.4	244.2	269.4	318.5	424.4	451.9	381.0	368.6	1020	4389	814.1	227.6	204.8	178.0	164.2	146.9	138.8	127.8	121.6	113.3	111.3	111.4	116.1	118.5	122.0	120.8	122.6	123.0	122.5	117.3	108.1	98.66	90.69	85.47	78.44	72.78	67.88	63.12	58.44	54.19	50.87	47.35	44.98	42.53	40.35	37.27	37.70	34.60	28.94	24.97	22.64	20.39	18.98	17.07	15.72	13.78	10.43	8.636	8.297	12.27	24.67	50.16	266.5	1410	2462	234.2	12.10	2.382	2.016	1.616	1.351	1.408	1.119	1.180	1.078	1.201
550.0	187.7	197.9	199.5	218.2	251.6	310.5	389.5	325.6	282.3	411.6	2560	2537	287.1	170.4	145.3	130.0	119.5	110.3	104.3	99.11	91.00	89.78	90.35	93.28	95.79	98.54	96.54	98.11	97.97	97.70	93.48	88.77	81.27	74.54	68.46	64.22	59.96	55.84	52.08	48.59	45.34	42.70	40.31	37.90	36.16	34.36	32.05	31.03	29.61	26.59	22.66	19.69	17.94	16.39	14.87	13.60	12.11	9.960	7.927	6.440	6.744	8.801	14.22	62.25	338.0	1100	1554	847.5	18.09	2.652	1.526	1.212	1.265	1.051	0.996	0.926	0.884
555.0	150.1	173.8	155.0	176.5	198.6	228.5	310.4	291.7	221.5	236.4	776.1	3608	1017	134.5	116.8	101.4	95.06	85.70	82.88	78.03	72.39	68.61	70.60	73.42	75.57	76.85	74.11	76.12	75.86	75.50	72.57	68.98	63.45	59.84	54.51	51.42	47.68	44.49	41.57	39.80	36.73	34.69	33.02	31.33	29.87	28.63	26.56	24.71	23.26	22.78	20.33	17.42	15.21	13.86	12.74	11.58	9.728	8.492	7.154	5.602	4.972	5.085	5.743	16.40	77.67	247.7	498.0	1494	1128	26.22	1.988	1.312	1.238	1.117	0.913	0.818	0.705
560.0	134.3	160.4	141.2	150.0	163.2	185.9	240.0	280.1	197.7	179.6	298.6	2259	2722	147.4	97.70	84.95	78.18	70.02	67.52	64.20	59.37	57.69	58.30	59.93	60.72	62.32	61.40	60.37	63.19	62.68	59.58	57.36	53.70	49.26	44.66	42.63	40.51	38.21	35.60	32.63	30.74	29.87	28.05	26.66	25.45	24.42	23.26	21.20	19.87	19.57	17.93	15.86	13.10	12.20	11.16	10.17	8.553	7.160	6.502	5.191	4.488	3.719	3.619	5.815	19.25	57.17	114.6	564.7	1569	810.1	20.99	1.543	1.089	0.915	0.840	0.673	0.673
565.0	141.3	139.0	123.5	124.9	129.8	155.3	181.4	246.4	186.6	159.5	177.1	860.7	3747	487.8	83.06	70.74	65.73	59.15	56.70	54.58	49.74	48.67	48.53	49.93	50.51	52.00	50.85	50.83	52.16	52.55	50.39	47.16	44.56	41.18	38.03	36.02	34.30	31.85	30.32	27.96	27.02	25.61	23.45	23.14	22.10	21.08	19.33	18.25	17.04	15.83	15.56	14.51	12.26	10.27	9.528	8.709	7.193	6.530	5.581	5.147	4.162	3.210	3.037	3.241	6.034	14.45	27.38	132.1	682.6	1448	242.7	12.71	1.298	0.983	0.738	0.613	0.673
570.0	124.5	124.4	109.9	108.5	109.7	123.3	139.1	185.6	191.7	139.3	139.0	295.4	2288	1950	101.5	57.56	51.49	47.34	44.68	42.29	39.62	38.12	38.13	40.08	39.56	40.59	40.77	39.87	40.88	41.14	39.47	36.97	35.04	32.44	30.38	28.35	27.45	25.16	23.63	22.83	21.79	20.91	19.45	18.82	18.09	17.07	16.07	14.95	13.69	12.52	12.12	11.62	10.34	8.975	7.920	7.102	6.261	5.545	4.703	4.217	3.712	3.132	2.539	2.312	3.017	4.636	7.480	30.79	159.2	559.9	911.2	577.3	18.58	1.652	0.805	0.621	0.536
575.0	120.7	119.8	99.38	94.49	84.60	96.89	108.8	133.6	187.0	141.8	125.0	156.6	663.6	2990	661.6	46.56	40.71	38.42	35.33	32.31	30.92	30.96	29.45	31.12	31.06	31.48	32.09	31.40	31.25	32.29	31.41	28.54	26.16	24.87	23.75	22.12	21.04	20.12	18.75	18.36	17.46	16.38	15.53	15.12	14.80	13.91	13.24	11.91	11.11	10.25	9.160	8.907	8.398	7.905	6.648	5.783	5.223	4.431	3.678	3.358	3.286	2.971	2.451	1.991	2.121	2.286	3.012	7.896	36.53	125.9	258.8	807.0	732.2	26.68	1.144	0.733	0.530
580.0	111.0	117.3	91.65	75.97	76.04	80.87	97.56	105.1	159.4	155.1	122.7	126.0	219.8	1958	1965	62.48	34.14	31.88	29.03	27.03	25.19	25.61	24.44	26.47	25.55	26.24	26.03	26.27	26.19	25.62	26.14	23.43	22.28	21.49	19.79	18.72	17.82	17.06	15.83	15.35	14.81	13.54	13.26	12.85	12.17	11.75	11.28	10.49	9.516	8.933	7.836	7.616	7.279	7.108	6.099	4.855	4.526	3.773	3.077	2.885	2.528	2.718	2.379	1.968	1.724	1.790	1.930	2.801	9.194	29.05	59.14	278.6	894.0	536.6	19.81	0.943	0.515
585.0	111.6	111.3	89.42	73.25	70.71	70.63	85.22	90.51	128.2	172.3	124.7	116.7	117.7	736.0	2862	110.5	29.91	27.26	23.83	23.68	20.76	20.79	20.90	22.00	21.45	21.75	21.31	21.41	22.05	21.52	21.73	20.09	18.23	18.14	16.80	15.82	15.06	14.40	13.12	13.31	12.59	11.77	11.47	11.12	10.21	9.861	9.347	8.908	8.185	7.388	6.831	6.458	6.409	6.090	5.622	4.518	4.008	3.319	2.824	2.609	2.251	2.216	2.319	2.096	1.658	1.570	1.541	1.595	3.044	7.310	14.08	64.65	358.4	853.6	233.2	10.92	0.741
590.0	103.5	96.67	79.93	65.42	61.29	61.19	71.26	78.67	99.54	162.6	138.7	111.4	92.10	217.2	1836	1324	46.76	22.10	20.08	19.21	17.08	17.28	17.26	17.38	17.53	17.55	16.81	17.46	17.63	17.14	16.98	16.09	15.02	14.41	13.58	12.75	11.79	11.33	10.76	10.70	9.966	9.476	9.224	8.996	8.607	8.198	7.854	7.302	6.635	6.050	5.561	5.218	4.912	4.745	4.815	4.155	3.488	2.886	2.520	2.289	1.985	1.970	1.824	2.020	1.656	1.403	1.259	1.255	1.524	2.321	3.853	15.15	82.63	310.3	540.9	375.1	18.08
595.0	89.83	94.60	76.48	56.47	51.74	51.82	60.75	72.39	82.17	127.1	158.3	106.4	85.16	90.43	515.6	2250	397.3	18.63	16.41	15.57	14.11	13.79	13.13	13.20	14.04	13.78	13.47	13.31	13.63	13.66	12.63	12.88	11.88	11.47	10.44	9.797	9.476	9.170	8.479	8.216	7.944	7.539	7.269	6.838	6.983	6.293	6.308	5.836	5.656	5.041	4.291	4.123	3.981	3.628	3.802	3.729	3.168	2.384	2.250	1.802	1.764	1.724	1.489	1.689	1.725	1.373	1.079	1.230	1.084	1.132	1.369	3.903	19.02	69.70	145.3	449.7	447.6
600.0	102.0	93.92	67.53	52.64	44.41	45.37	52.33	64.29	74.64	101.4	155.8	114.8	80.09	59.23	143.7	1605	1263	25.78	14.26	12.91	11.19	11.65	11.76	10.92	11.61	11.61	11.21	11.22	11.33	11.46	11.01	10.27	9.690	9.097	8.999	8.104	8.147	7.715	7.108	6.787	6.458	6.174	6.174	5.635	5.844	5.398	5.183	4.875	4.429	4.214	3.837	3.564	3.245	3.085	3.250	3.089	2.932	2.283	1.978	1.641	1.598	1.544	1.276	1.415	1.329	1.489	1.166	1.032	0.991	0.816	0.846	1.389	4.798	15.96	33.11	146.2	502.4
605.0	98.34	88.21	63.47	48.62	42.14	40.96	47.61	60.16	73.82	94.07	143.9	129.2	77.66	53.37	57.55	636.9	2008	76.02	13.35	11.14	10.12	9.840	9.597	9.507	9.264	9.829	9.566	9.417	9.414	9.828	9.017	8.651	8.295	8.172	7.448	6.962	6.982	6.152	5.989	5.874	5.528	5.308	5.224	5.110	4.980	4.778	4.499	4.037	3.545	3.537	3.021	3.039	2.750	2.520	2.644	2.483	2.794	2.257	1.824	1.356	1.490	1.304	1.222	1.142	1.126	1.327	1.413	1.020	0.776	0.721	0.735	0.807	1.454	3.959	7.752	33.62	188.5
610.0	85.74	86.89	63.91	46.55	37.80	37.88	46.91	56.06	71.43	88.45	123.8	141.2	87.25	55.20	41.38	172.1	1427	919.6	25.17	9.722	8.549	7.875	7.889	7.807	7.605	7.712	7.742	7.637	7.515	7.843	7.391	6.934	6.555	6.120	5.781	5.437	5.455	5.204	4.796	4.788	4.582	4.125	4.192	3.935	3.982	3.972	3.560	3.390	2.990	2.896	2.573	2.330	2.203	2.109	2.035	1.917	2.162	2.141	1.663	1.408	1.280	1.173	1.098	1.018	1.139	1.106	1.221	1.119	0.853	0.789	0.646	0.621	0.742	1.295	2.065	7.805	43.10
615.0	78.35	77.94	60.43	42.89	35.29	35.11	39.10	51.84	66.46	81.77	104.8	132.3	97.90	55.49	37.44	57.34	421.3	1642	247.2	8.372	7.305	6.661	6.451	6.631	6.379	5.978	6.020	5.584	6.065	6.114	5.886	5.418	5.120	4.851	4.662	4.586	4.159	3.979	3.755	3.538	3.467	3.265	3.266	3.258	2.913	2.940	2.768	2.766	2.437	2.300	2.063	1.884	1.799	1.798	1.580	1.582	1.535	1.566	1.427	1.248	1.051	1.011	1.031	0.929	1.027	0.908	1.100	1.080	1.007	0.823	0.662	0.612	0.624	0.663	0.763	1.970	9.984
620.0	78.69	69.97	55.55	41.08	30.71	30.95	39.16	49.45	63.13	78.11	93.53	117.2	107.9	55.72	35.40	31.78	113.4	1252	607.3	12.13	6.103	5.770	5.826	5.793	4.873	5.361	5.055	4.802	5.042	4.873	4.894	4.345	4.267	4.038	4.072	3.599	3.624	3.182	3.031	3.069	2.871	2.796	2.596	2.695	2.588	2.505	2.380	2.200	1.941	1.883	1.689	1.561	1.448	1.557	1.149	1.222	1.134	1.260	1.321	1.104	0.862	0.859	0.846	0.796	0.856	0.926	0.766	0.866	1.003	0.902	0.614	0.497	0.527	0.520	0.477	0.617	2.434
625.0	77.53	65.93	53.37	38.63	28.32	30.52	37.88	46.77	60.55	74.86	87.56	98.88	107.5	59.88	36.56	24.76	39.52	534.0	1430	51.81	5.949	5.051	4.989	4.640	4.745	4.516	4.085	4.353	4.378	4.349	3.924	3.947	3.841	3.408	3.117	3.270	2.780	2.646	2.790	2.471	2.572	2.385	2.097	2.280	2.217	2.085	1.868	1.845	1.757	1.559	1.429	1.382	1.239	1.238	1.082	1.055	0.901	1.002	1.151	1.075	0.940	0.777	0.829	0.795	0.744	0.808	0.669	0.752	0.804	0.877	0.688	0.469	0.438	0.416	0.414	0.387	0.729
630.0	70.36	66.57	50.56	35.84	28.44	27.54	35.66	45.23	55.98	71.90	84.03	90.00	100.3	69.31	37.35	24.20	22.78	140.2	1156	671.0	12.28	4.584	4.321	3.952	4.088	3.793	3.631	3.525	3.581	3.603	3.215	3.213	3.048	2.710	2.478	2.460	2.307	2.218	2.070	2.023	1.939	1.885	1.793	1.769	1.688	1.787	1.533	1.491	1.372	1.262	1.177	1.074	0.970	0.995	0.867	0.884	0.758	0.737	0.848	0.940	0.883	0.731	0.721	0.671	0.644	0.702	0.653	0.666	0.592	0.650	0.715	0.515	0.371	0.344	0.382	0.277	0.367
635.0	69.23	64.90	51.36	33.54	25.62	27.66	34.09	44.32	55.09	67.07	80.43	86.17	83.45	80.04	41.29	25.99	20.08	40.35	363.6	1328	62.44	4.338	3.816	3.479	3.345	3.078	3.047	2.883	2.884	2.929	2.799	2.604	2.326	2.135	2.049	2.071	2.009	1.778	1.639	1.765	1.483	1.620	1.420	1.394	1.322	1.366	1.177	1.208	1.141	1.002	0.959	0.815	0.861	0.826	0.729	0.784	0.672	0.565	0.655	0.703	0.895	0.678	0.656	0.632	0.617	0.599	0.555	0.666	0.544	0.506	0.684	0.577	0.528	0.364	0.358	0.284	0.217
640.0	73.63	69.69	51.40	32.99	25.45	29.71	32.61	42.09	56.34	69.63	78.54	83.27	77.24	82.20	47.80	27.46	19.52	18.06	93.12	1107	463.0	6.501	3.726	3.294	2.973	2.968	2.826	2.627	2.633	2.468	2.394	1.960	2.079	2.083	1.694	1.715	1.676	1.571	1.352	1.462	1.379	1.336	1.228	1.196	1.129	1.135	1.029	0.965	0.946	0.813	0.739	0.711	0.780	0.629	0.646	0.616	0.538	0.594	0.676	0.576	0.652	0.633	0.625	0.619	0.602	0.548	0.488	0.587	0.512	0.511	0.589	0.497	0.494	0.393	0.279	0.268	0.200
645.0	70.65	79.10	60.05	35.59	27.60	30.38	32.41	41.65	54.69	66.16	80.95	84.83	75.49	75.44	56.09	29.50	20.06	14.22	27.16	525.4	1095	36.47	3.828	3.015	2.706	2.530	2.516	2.345	2.271	2.282	2.076	1.756	1.773	1.761	1.510	1.531	1.319	1.354	1.128	1.248	0.978	1.247	1.050	1.021	1.037	1.049	0.959	0.914	0.928	0.764	0.657	0.654	0.600	0.519	0.477	0.540	0.510	0.541	0.628	0.471	0.537	0.675	0.651	0.547	0.503	0.570	0.523	0.540	0.523	0.392	0.528	0.445	0.509	0.333	0.275	0.290	0.163
650.0	78.20	96.93	76.29	44.33	28.72	28.55	34.06	42.22	53.06	68.16	81.82	83.23	78.04	72.90	64.35	33.42	21.22	13.72	12.81	155.2	1221	260.4	3.815	2.888	2.473	2.277	2.112	1.869	2.140	1.904	1.906	1.636	1.596	1.352	1.344	1.245	1.263	1.102	1.025	0.921	0.874	1.052	1.090	0.933	0.918	0.932	0.952	0.905	0.848	0.794	0.607	0.565	0.546	0.523	0.454	0.438	0.487	0.461	0.492	0.420	0.470	0.604	0.631	0.609	0.505	0.472	0.465	0.424	0.547	0.534	0.500	0.468	0.550	0.447	0.342	0.282	0.179
