Sample:	'1
File name:	G2025080815–§’Ú«≈ 3±∂.FD3
Run date:	'16:23:01, 08/11/2025
Operator:	Administrator
Comment:	'

Instrument
Model:	F-2700 FL Spectrophotometer
Serial number:	23B8-004
ROM Version:	4J14000 07

Instrument parameters
Measurement type:	3-D scan
Data mode:	Fluorescence
EX  Start WL:	220.0 nm
EX  End WL:	600.0 nm
EX Sampling interval:	5.0 nm
EM  Start WL:	230.0 nm
EM  End WL:	650.0 nm
EM Sampling interval:	5.0 nm
Scan speed:	12000 nm/min
EX Slit:	5.0 nm
EM Slit:	5.0 nm
PMT Voltage:	700 V
Response:	Auto 
Corrected spectra:	Off
Contour interval:	50.000

Peak integration
Integration method:	Rectangular
Sensitivity:	1
Threshold:	1.000

Peaks
No.	ApexEX/EM(nm)	Height(Data)
1	225.0/585.0	69.23
2	225.0/605.0	59.05
3	225.0/640.0	65.58
4	230.0/345.0	3042
5	245.0/270.0	426.9
6	255.0/280.0	665.0
7	255.0/560.0	204.4
8	260.0/285.0	663.9
9	260.0/575.0	146.6
10	265.0/585.0	123.9
11	270.0/300.0	1163
12	270.0/600.0	112.2
13	275.0/305.0	1522
14	275.0/415.0	3649
15	275.0/435.0	3566
16	275.0/610.0	109.9
17	280.0/310.0	1446
18	280.0/340.0	1660
19	280.0/625.0	99.83
20	285.0/320.0	1497
21	285.0/635.0	78.06
22	290.0/325.0	1440
23	320.0/365.0	858.3
24	340.0/415.0	1991
25	340.0/430.0	1952
26	345.0/435.0	1953
27	455.0/540.0	20.50
28	475.0/350.0	8.629
29	505.0/275.0	3.086
30	505.0/440.0	9.661
31	515.0/280.0	3.559
32	520.0/285.0	3.685
33	530.0/290.0	3.540
34	540.0/295.0	4.762
35	555.0/305.0	6.766
36	555.0/415.0	9.424
37	560.0/310.0	6.562
38	560.0/430.0	9.346
39	565.0/410.0	9.340
40	570.0/315.0	7.005
41	580.0/320.0	7.442
42	585.0/325.0	6.919

Data points
	220.0	225.0	230.0	235.0	240.0	245.0	250.0	255.0	260.0	265.0	270.0	275.0	280.0	285.0	290.0	295.0	300.0	305.0	310.0	315.0	320.0	325.0	330.0	335.0	340.0	345.0	350.0	355.0	360.0	365.0	370.0	375.0	380.0	385.0	390.0	395.0	400.0	405.0	410.0	415.0	420.0	425.0	430.0	435.0	440.0	445.0	450.0	455.0	460.0	465.0	470.0	475.0	480.0	485.0	490.0	495.0	500.0	505.0	510.0	515.0	520.0	525.0	530.0	535.0	540.0	545.0	550.0	555.0	560.0	565.0	570.0	575.0	580.0	585.0	590.0	595.0	600.0
230.0	69.10	1282	3653	1528	81.41	12.09	9.877	8.369	8.354	7.357	6.463	6.368	4.722	4.354	4.827	3.399	3.092	2.235	2.092	2.278	1.818	1.628	1.653	1.555	1.326	1.437	1.314	1.307	1.301	1.160	1.059	1.046	1.022	0.881	0.754	0.788	0.747	0.629	0.575	0.572	0.544	0.636	0.646	0.565	0.535	0.518	1.201	5.674	10.35	9.497	3.496	0.957	0.450	0.391	0.331	0.367	0.354	0.375	0.397	0.385	0.390	0.333	0.352	0.356	0.384	0.370	0.371	0.359	0.388	0.380	0.377	0.338	0.358	0.367	0.373	0.356	0.403
235.0	119.4	354.4	1992	4488	750.0	141.5	12.39	9.421	9.367	8.080	6.240	6.887	4.791	4.499	4.487	3.248	2.933	2.240	2.227	2.316	2.050	1.728	1.791	1.590	1.339	1.411	1.347	1.256	1.211	1.084	1.051	1.110	0.884	0.870	0.724	0.799	0.724	0.574	0.530	0.557	0.541	0.540	0.536	0.625	0.750	0.478	0.586	1.727	3.579	7.765	10.91	12.03	6.474	1.633	0.461	0.359	0.403	0.403	0.341	0.414	0.342	0.353	0.386	0.358	0.359	0.406	0.432	0.388	0.361	0.360	0.361	0.342	0.323	0.349	0.368	0.325	0.379
240.0	160.9	191.4	576.4	3392	4967	633.8	78.21	11.01	11.39	7.370	6.734	7.178	5.469	5.067	4.399	3.915	3.059	2.241	2.014	2.309	1.983	1.810	1.914	1.708	1.297	1.582	1.486	1.326	1.282	1.069	1.123	1.062	0.827	0.917	0.743	0.749	0.686	0.617	0.543	0.560	0.505	0.538	0.578	0.566	0.914	0.819	0.719	0.811	1.054	2.293	5.187	12.47	16.87	12.64	5.484	1.320	0.420	0.396	0.352	0.377	0.342	0.363	0.374	0.325	0.378	0.358	0.411	0.378	0.389	0.530	0.410	0.367	0.361	0.389	0.413	0.373	0.478
245.0	125.1	234.0	213.8	1083	4574	4802	493.9	27.60	12.88	9.100	8.678	7.705	6.005	4.986	4.674	3.820	3.441	2.376	2.027	2.475	1.892	1.714	1.675	1.752	1.471	1.493	1.387	1.501	1.322	1.150	1.272	1.075	1.134	0.928	0.768	0.818	0.773	0.784	0.522	0.597	0.516	0.577	0.530	0.447	0.670	0.836	0.926	0.981	0.766	0.876	1.475	3.944	9.644	16.48	20.55	13.56	4.604	0.844	0.396	0.357	0.398	0.384	0.389	0.478	0.367	0.336	0.438	0.356	0.403	0.364	0.339	0.385	0.385	0.358	0.393	0.394	0.398
250.0	61.36	155.4	286.1	373.4	1372	5201	5884	1762	159.1	12.63	10.30	9.614	6.404	5.824	5.714	4.084	3.666	2.518	2.313	2.504	1.963	2.088	1.953	1.867	1.629	1.498	1.577	1.469	1.414	1.147	1.265	1.088	1.062	0.809	0.762	0.773	0.747	0.660	0.625	0.565	0.571	0.557	0.556	0.484	0.530	0.608	0.660	0.911	1.068	1.059	0.899	1.382	2.586	5.124	10.33	16.75	21.95	21.99	12.57	4.980	0.857	0.379	0.415	0.440	0.375	0.330	0.386	0.403	0.452	0.368	0.378	0.361	0.383	0.371	0.354	0.358	0.427
255.0	44.15	68.26	179.7	384.7	441.9	1270	4175	8469	2913	161.4	14.32	13.88	7.428	6.435	6.924	4.711	4.138	2.799	2.242	2.813	2.409	1.917	1.816	1.782	1.809	1.513	1.668	1.652	1.653	1.320	1.297	1.029	1.114	0.949	0.704	0.751	0.668	0.641	0.586	0.605	0.605	0.587	0.494	0.511	0.519	0.581	0.478	0.641	0.623	0.876	1.257	1.645	1.369	1.536	2.692	4.194	6.817	15.80	29.54	32.51	19.36	5.503	0.988	0.493	0.433	0.468	0.404	0.368	0.449	0.369	0.408	0.354	0.371	0.373	0.376	0.401	0.399
260.0	46.09	45.42	74.66	282.4	422.5	376.4	1179	5731	9999.9	2063	92.27	18.48	8.972	7.608	8.249	5.008	4.532	3.426	2.557	2.791	2.373	2.171	1.999	1.953	2.059	1.585	1.774	1.553	1.800	1.207	1.318	1.101	0.901	0.973	0.825	0.849	0.673	0.748	0.546	0.587	0.586	0.601	0.539	0.558	0.676	0.697	0.532	0.548	0.505	0.539	0.773	1.728	2.078	1.535	1.107	1.345	1.963	4.167	10.78	26.08	38.44	30.70	20.97	3.546	0.572	0.436	0.428	0.378	0.346	0.394	0.391	0.416	0.391	0.468	0.347	0.394	0.394
265.0	47.76	42.14	41.91	126.6	403.7	357.9	321.1	1731	9999.9	9999.9	1586	55.89	11.74	9.906	10.37	5.709	5.108	3.273	2.704	2.913	2.472	1.934	2.312	2.017	1.887	1.732	1.879	1.566	1.698	1.350	1.256	1.211	1.032	1.110	0.838	0.859	0.806	0.734	0.680	0.576	0.583	0.734	0.562	0.568	0.589	0.630	0.509	0.542	0.476	0.400	0.473	1.020	1.511	2.203	1.873	1.117	0.883	1.387	2.869	7.153	16.93	32.90	64.43	29.14	13.29	1.926	0.539	0.446	0.414	0.465	0.431	0.453	0.348	0.340	0.409	0.441	0.441
270.0	67.44	64.47	55.37	61.86	180.9	426.9	374.0	465.5	3484	9184	9999.9	5890	87.12	13.68	14.11	6.990	6.011	3.826	3.579	3.679	2.579	2.431	2.399	1.973	2.035	1.931	1.782	1.700	1.655	1.477	1.347	1.279	1.202	1.118	0.872	0.929	0.785	0.814	0.740	0.650	0.554	0.622	0.649	0.544	0.657	0.625	0.646	0.652	0.582	0.439	0.441	0.588	0.712	1.166	1.758	2.140	2.118	1.476	1.182	2.067	4.297	8.932	25.18	30.30	45.33	39.04	19.84	10.57	1.806	0.505	0.465	0.556	0.415	0.442	0.421	0.420	0.437
275.0	129.5	120.9	107.3	71.34	78.24	186.2	541.6	431.4	866.6	2214	6897	9999.9	1640	107.8	20.24	9.152	7.336	4.992	4.199	4.626	2.551	2.766	2.508	2.392	2.553	2.002	1.715	1.665	1.680	1.520	1.407	1.326	1.214	1.261	0.981	1.016	0.918	0.860	0.751	0.819	0.640	0.709	0.621	0.684	0.677	0.741	0.730	0.753	0.678	0.515	0.466	0.532	0.515	0.578	0.884	1.056	1.967	3.086	2.874	1.503	1.513	2.528	6.104	7.337	11.80	20.78	45.66	72.40	30.73	11.46	1.197	0.626	0.528	0.583	0.445	0.447	0.498
280.0	188.8	184.5	156.6	93.36	69.09	99.81	311.7	665.0	432.2	591.5	1893	9999.9	9999.9	1320	79.51	11.90	9.202	5.646	5.134	5.005	3.167	2.977	2.795	2.474	2.701	2.190	1.770	1.814	1.979	1.462	1.360	1.214	1.211	1.245	1.066	1.040	0.972	0.856	0.817	0.783	0.754	0.683	0.744	0.727	0.779	0.984	0.789	0.923	0.770	0.654	0.546	0.596	0.412	0.556	0.602	0.711	1.024	1.961	3.488	3.559	1.892	1.306	1.988	2.194	3.189	5.480	13.67	38.39	58.28	57.26	24.48	5.387	0.770	0.545	0.446	0.454	0.528
285.0	225.4	260.8	210.8	129.4	80.98	82.57	154.6	522.2	663.9	312.9	557.6	3232	9999.9	9999.9	1057	25.05	12.81	6.353	5.506	5.860	3.659	3.316	2.944	2.555	2.114	2.020	2.176	1.837	2.107	1.653	1.445	1.340	1.315	1.309	1.106	1.190	0.975	0.912	0.833	0.844	0.770	0.761	0.859	0.854	1.074	0.972	0.938	1.044	0.926	0.746	0.685	0.636	0.558	0.528	0.570	0.657	0.877	1.097	1.721	3.006	3.685	2.941	1.549	1.295	1.527	2.033	3.827	9.808	19.82	40.84	61.36	33.76	20.71	3.148	0.657	0.530	0.578
290.0	289.5	332.6	277.0	171.3	110.6	99.55	119.6	251.1	616.5	617.1	354.9	920.2	2957	9846	9999.9	2932	55.44	9.450	7.245	7.326	4.310	3.948	3.541	2.920	2.688	2.494	2.474	2.124	2.265	1.666	1.529	1.477	1.419	1.448	1.161	1.292	1.224	0.944	0.936	0.898	0.815	0.858	0.816	0.882	1.020	1.060	1.077	1.242	1.144	0.988	0.832	0.817	0.662	0.653	0.670	0.753	0.839	0.889	0.995	1.563	2.178	3.113	3.540	3.138	2.143	1.652	1.783	3.169	5.431	10.52	20.15	27.69	58.26	43.55	40.39	13.14	3.099
295.0	332.3	408.4	357.8	222.8	147.6	131.6	150.4	201.1	348.6	712.2	869.0	535.6	882.2	2424	9237	9999.9	4709	55.43	11.32	9.396	5.179	4.840	4.139	3.360	3.314	2.694	2.543	2.384	2.412	1.942	1.730	1.767	1.392	1.422	1.078	1.287	1.138	1.155	1.090	0.969	0.899	0.801	0.889	1.043	1.053	1.304	1.221	1.469	1.356	1.046	0.989	1.001	0.864	0.811	0.820	0.893	0.969	1.013	1.194	1.223	1.349	1.778	2.260	3.594	4.762	3.726	2.355	1.891	2.435	3.492	5.688	7.105	14.46	17.01	43.65	66.75	35.45
300.0	365.3	443.6	409.6	279.5	195.1	180.8	213.5	261.8	367.7	568.6	1163	876.7	590.1	814.5	2561	7995	9999.9	722.9	34.21	13.82	6.871	6.193	4.865	4.320	3.646	2.668	2.848	2.428	2.521	1.992	1.712	1.952	1.694	1.509	1.321	1.266	1.213	1.218	1.188	1.122	0.955	0.879	0.967	1.262	1.121	1.403	1.515	1.573	1.430	1.233	1.075	1.189	0.969	0.874	0.992	1.041	1.212	1.283	1.411	1.432	1.415	1.726	1.992	2.498	4.043	5.347	5.107	3.362	2.631	2.608	2.962	2.920	4.546	4.969	12.27	28.71	56.76
305.0	433.7	499.8	489.4	356.3	259.4	259.0	321.3	399.9	525.1	705.7	1125	1522	903.0	658.2	955.4	2476	9999.9	6456	515.4	22.81	8.811	7.582	5.605	4.490	4.306	3.105	3.110	2.802	2.813	2.100	1.998	1.852	1.526	1.517	1.360	1.507	1.303	1.242	1.082	1.051	1.060	0.871	1.073	1.118	1.308	1.449	1.521	1.636	1.624	1.333	1.314	1.441	1.162	1.199	1.288	1.348	1.564	1.708	1.892	2.009	2.147	2.391	2.900	3.117	3.754	4.670	5.939	6.766	5.176	3.452	3.058	2.853	3.062	2.866	4.517	8.133	18.10
310.0	445.6	565.8	577.3	423.9	338.9	346.8	414.8	508.4	630.0	804.4	1042	1416	1446	904.9	714.3	898.5	3404	7435	8187	2390	33.86	10.32	7.618	5.658	4.875	3.545	3.246	3.151	3.071	2.115	2.167	1.948	1.654	1.692	1.440	1.684	1.349	1.373	1.235	1.317	1.069	1.047	1.051	1.135	1.303	1.563	1.554	1.945	1.908	1.687	1.475	1.599	1.369	1.443	1.512	1.662	1.974	2.114	2.143	2.320	2.523	2.934	3.233	3.429	4.112	4.372	4.693	5.769	6.562	6.527	5.036	3.673	3.281	2.975	3.334	3.734	5.979
315.0	500.3	698.1	682.9	524.0	416.4	420.2	487.5	577.3	709.6	877.0	1067	1269	1419	1408	849.0	634.9	1145	1942	5471	9999.9	626.1	39.44	11.29	7.133	5.852	4.206	4.108	3.647	3.516	2.416	2.339	2.195	1.838	1.797	1.484	1.868	1.420	1.402	1.273	1.399	1.097	1.072	1.243	1.305	1.360	1.689	1.963	2.301	2.097	1.921	1.886	1.892	1.840	1.777	1.884	1.832	2.196	2.271	2.399	2.650	2.618	3.014	3.189	3.850	4.240	4.480	4.297	5.111	5.312	5.668	7.005	6.321	5.031	3.844	3.313	3.155	3.321
320.0	607.3	903.6	873.0	658.9	513.3	485.3	544.2	631.5	755.9	941.2	1132	1284	1340	1497	1199	689.9	709.7	706.2	1520	9999.9	9690	524.1	25.13	9.212	7.711	4.879	4.544	3.727	3.872	2.641	2.657	2.320	1.937	2.065	1.603	1.773	1.459	1.436	1.344	1.215	1.365	1.137	1.360	1.433	1.737	2.012	2.327	2.868	2.675	2.233	2.155	2.445	2.033	2.078	2.033	2.147	2.515	2.621	2.850	2.951	2.877	3.084	3.568	4.017	4.493	4.743	4.714	5.251	5.179	5.169	5.867	6.433	7.442	5.955	3.934	3.340	3.096
325.0	798.9	1232	1343	1007	685.6	561.8	601.6	702.8	812.8	982.1	1203	1363	1364	1380	1440	906.8	658.6	473.5	508.2	3099	9204	4762	397.8	16.21	9.936	6.049	4.927	4.609	4.246	2.855	2.493	2.664	1.939	2.280	1.711	2.028	1.580	1.512	1.320	1.565	1.490	1.319	1.337	1.528	2.075	2.601	3.027	3.752	3.791	3.199	3.127	3.227	2.658	2.395	2.222	2.477	2.747	2.797	2.807	3.239	3.144	3.623	3.850	4.272	4.601	4.804	5.415	5.191	5.328	5.507	5.409	5.561	6.303	6.919	5.972	4.483	3.672
330.0	1089	1758	2103	1762	1140	781.3	697.4	770.1	885.2	1065	1284	1463	1488	1416	1370	1219	870.1	519.0	368.1	888.1	2716	6892	8542	1634	33.43	8.743	6.626	5.317	5.186	3.106	2.891	2.675	2.229	2.367	1.629	1.925	1.542	1.537	1.439	1.621	1.455	1.477	1.656	2.000	2.624	3.376	4.001	5.263	5.728	5.091	5.030	5.129	4.166	3.558	3.104	2.985	3.025	3.040	3.119	3.373	3.625	3.808	4.216	4.304	4.872	5.019	5.657	5.803	5.854	6.327	5.852	5.795	6.008	6.116	6.279	6.162	5.763
335.0	1308	2148	2667	2419	1745	1115	846.5	855.1	982.9	1158	1382	1576	1618	1539	1401	1242	1214	758.5	471.7	519.3	855.2	1797	6572	9999.9	2522	32.54	10.46	7.112	6.565	3.599	3.412	3.110	2.380	2.215	1.784	2.164	1.817	1.693	1.500	1.777	1.695	1.659	1.873	2.357	2.984	4.005	4.948	6.186	6.979	6.381	6.804	7.423	6.347	5.504	4.198	3.507	3.580	3.562	3.786	3.578	3.755	3.926	4.341	4.743	5.352	5.344	5.973	6.000	6.377	6.568	6.150	6.362	6.479	6.376	6.183	6.020	5.903
340.0	1374	2323	3034	2740	2010	1263	917.6	911.5	1017	1184	1397	1592	1660	1586	1445	1220	1194	997.1	582.7	489.1	488.4	643.2	1926	7718	9999.9	431.1	22.31	9.252	8.267	4.272	3.708	3.293	2.573	2.643	1.992	2.108	1.796	1.752	1.557	1.761	1.738	1.776	2.025	2.324	3.368	4.171	5.398	6.827	7.311	7.368	7.468	8.323	7.450	6.236	4.788	3.841	3.804	3.453	4.029	3.670	3.746	4.083	4.719	4.859	5.523	5.701	6.213	6.192	6.496	6.520	6.620	6.472	6.733	6.645	6.229	5.674	5.953
345.0	1431	2375	3042	2836	2069	1307	960.1	936.2	1019	1178	1397	1556	1624	1567	1426	1204	1072	1042	748.9	518.8	438.6	419.9	679.5	2413	9827	3878	347.8	14.30	10.03	4.875	4.039	3.342	2.899	2.664	2.064	2.188	1.662	1.563	1.572	1.736	1.745	1.556	2.080	2.505	3.147	4.091	5.233	6.955	7.518	7.601	8.010	8.291	7.214	6.204	5.037	4.285	3.861	3.749	3.825	3.753	4.129	4.404	4.783	5.068	5.419	5.546	5.910	6.113	6.465	6.522	6.610	6.397	6.607	6.562	6.133	5.813	5.876
350.0	1399	2240	2912	2796	2100	1373	1005	955.8	1027	1159	1351	1478	1555	1515	1395	1200	1036	929.3	880.3	688.1	501.6	434.1	451.7	764.7	2888	5570	7079	1505	29.89	6.874	5.520	4.158	3.244	2.898	2.093	2.181	1.713	1.828	1.566	1.739	1.680	1.700	2.020	2.450	2.960	4.296	5.044	6.599	7.155	7.353	7.474	8.629	7.526	6.561	5.305	4.324	4.166	3.942	3.780	3.882	4.040	4.357	4.318	4.689	4.841	5.494	5.706	5.647	6.091	6.087	6.126	6.349	6.377	6.442	6.154	5.611	5.736
355.0	1256	2052	2656	2610	2069	1401	1037	969.8	1034	1145	1282	1400	1462	1446	1345	1183	1051	901.6	828.4	864.6	671.3	504.6	453.5	446.2	826.5	1409	5323	9999.9	2611	26.08	7.460	5.534	3.925	3.325	2.177	2.474	1.850	1.837	1.616	1.631	1.691	1.659	1.973	2.313	2.791	3.942	4.747	6.054	6.719	6.799	7.157	7.958	7.309	6.205	5.408	4.189	4.077	4.051	3.907	3.907	4.062	4.296	4.543	4.425	5.014	5.127	5.580	5.215	5.858	6.045	5.829	6.028	6.190	6.212	6.277	5.894	5.831
360.0	1138	1901	2432	2440	1961	1355	1034	987.5	1028	1119	1232	1335	1394	1378	1302	1161	1043	912.0	824.2	842.7	826.1	604.3	491.2	408.9	407.9	455.9	1477	8316	9999.9	386.2	15.77	6.979	4.607	3.709	2.557	2.850	1.990	2.053	1.701	1.710	1.896	1.748	1.928	2.199	2.971	3.675	4.248	5.437	6.191	6.388	6.646	7.410	6.849	5.957	5.041	4.482	4.173	4.151	4.044	4.238	4.068	4.117	4.264	4.685	4.539	4.917	5.047	5.032	5.568	5.723	5.736	5.646	6.121	5.948	5.803	5.536	5.863
365.0	1037	1718	2212	2272	1820	1308	1039	988.2	1029	1107	1204	1295	1326	1314	1237	1132	1034	920.5	840.6	816.9	858.3	752.4	553.9	437.4	352.9	274.3	433.0	2499	9999.9	3524	56.38	10.96	5.695	4.763	3.034	3.405	2.218	2.053	1.818	1.919	1.835	1.773	1.834	2.098	2.688	3.455	3.863	4.960	5.507	5.895	6.303	7.000	6.384	5.805	4.930	4.412	4.189	4.033	4.069	3.985	4.224	4.242	4.490	4.593	4.385	4.845	4.837	5.145	5.216	5.669	5.530	5.551	5.768	5.960	5.609	5.455	5.735
370.0	963.5	1509	1947	2035	1720	1301	1051	1008	1028	1078	1157	1224	1249	1232	1187	1106	1028	950.0	888.9	846.6	825.5	839.0	712.9	516.9	389.4	281.1	238.1	653.5	3115	4815	5602	1258	20.79	6.735	4.029	3.688	2.458	2.286	1.914	1.936	1.812	1.709	1.850	1.919	2.533	3.174	3.597	4.584	4.986	5.315	5.407	6.333	6.010	5.506	4.937	4.233	4.261	4.173	4.103	4.089	4.051	4.157	4.236	4.490	4.437	4.615	4.657	4.785	5.052	5.346	5.189	5.246	5.561	5.386	5.298	5.387	5.699
375.0	864.1	1385	1760	1852	1604	1287	1063	1020	1028	1063	1138	1168	1184	1173	1134	1066	1020	972.8	927.6	889.2	843.3	815.7	821.7	675.0	466.7	339.9	245.2	277.3	786.7	1186	4193	7751	379.5	24.77	6.471	5.201	3.187	2.645	2.134	2.111	1.736	1.685	1.884	2.055	2.294	2.812	3.322	4.180	4.608	4.526	4.737	5.703	5.418	5.073	4.930	4.338	4.351	4.072	4.330	4.300	4.049	4.264	4.251	4.318	4.341	4.756	4.587	4.689	4.721	4.969	5.043	5.104	5.212	5.017	5.036	5.176	5.596
380.0	829.3	1252	1621	1696	1526	1252	1088	1014	1022	1070	1121	1150	1151	1143	1099	1042	1013	970.0	937.9	915.7	872.5	827.4	811.4	777.0	563.8	393.6	283.4	228.1	296.5	347.3	1158	5648	6609	332.4	14.82	7.852	4.508	3.441	2.419	2.440	1.851	1.741	2.051	2.075	2.366	2.588	2.979	4.065	4.215	4.212	4.604	5.645	5.024	5.257	5.002	4.444	4.372	4.144	4.217	4.180	4.033	4.230	4.223	4.270	4.443	4.424	4.291	4.451	4.682	4.862	4.691	5.002	4.952	5.032	4.872	5.142	5.133
385.0	803.3	1152	1516	1580	1482	1248	1105	1042	1025	1083	1121	1146	1139	1125	1082	1018	996.8	964.0	954.1	936.9	900.0	855.2	810.4	790.1	686.5	464.8	337.0	258.6	222.9	189.8	343.6	1650	6503	6102	242.2	14.38	7.667	4.759	2.972	2.591	2.048	1.864	2.116	2.132	2.396	2.610	2.977	3.979	4.085	3.801	4.286	5.241	5.107	5.107	4.738	4.622	4.589	4.240	4.214	4.233	3.938	4.048	4.333	4.153	4.392	4.508	4.351	4.676	4.485	4.692	4.471	4.776	4.780	4.840	4.871	4.824	5.003
390.0	788.2	1108	1418	1531	1445	1296	1172	1133	1125	1167	1230	1263	1236	1210	1140	1064	1013	982.3	979.8	975.5	958.7	933.0	883.2	826.7	788.7	651.2	468.8	380.3	313.1	253.7	241.9	496.0	1894	5395	4122	1117	25.33	11.48	5.393	3.296	2.328	2.002	2.110	2.095	2.380	2.699	2.835	3.763	3.990	3.739	4.048	4.893	4.991	4.902	4.667	4.452	4.858	4.211	4.378	4.453	4.245	4.265	4.393	4.461	4.434	4.721	4.579	4.750	4.713	4.882	4.622	5.054	4.903	4.975	5.032	4.853	4.963
395.0	746.9	1097	1365	1491	1512	1397	1334	1304	1362	1478	1599	1650	1623	1534	1380	1225	1115	1056	1060	1078	1090	1098	1065	1034	973.3	930.1	819.3	658.6	503.4	456.4	408.4	399.7	643.0	1417	2832	7703	1469	35.43	12.34	6.002	3.372	2.350	2.349	2.328	2.672	2.631	2.977	3.623	3.761	3.927	4.027	5.210	4.922	5.353	5.177	4.857	5.101	4.839	4.978	4.780	4.775	4.742	4.948	5.188	5.135	5.304	5.597	5.442	5.244	5.696	5.440	5.277	5.536	5.663	5.509	5.496	5.349
400.0	759.4	1106	1419	1573	1595	1555	1544	1543	1666	1893	2101	2188	2169	2013	1768	1502	1279	1181	1176	1214	1264	1306	1323	1310	1260	1214	1179	1028	869.0	777.6	686.1	579.7	499.0	620.5	964.2	5341	5209	307.3	28.44	9.477	4.783	2.781	2.638	2.310	2.851	2.782	3.100	3.857	4.057	3.917	4.218	5.476	5.388	5.715	5.525	5.429	6.014	5.574	5.615	5.607	5.768	5.722	5.634	6.132	6.484	6.458	6.506	6.671	6.346	6.564	6.642	6.362	6.386	6.396	6.073	6.081	6.111
405.0	775.4	1106	1417	1638	1740	1733	1783	1855	2041	2379	2655	2892	2836	2596	2241	1833	1481	1325	1325	1374	1464	1539	1608	1633	1613	1555	1530	1456	1273	1146	1018	860.6	696.7	605.1	600.6	1748	4633	4684	229.1	16.43	6.124	3.788	2.897	2.550	2.763	2.788	3.151	3.733	4.148	4.082	4.253	5.633	6.034	6.023	6.264	5.830	6.777	6.384	6.458	6.623	6.224	6.673	6.758	7.199	7.764	7.537	7.643	7.848	7.968	7.906	7.754	7.614	7.617	7.511	7.104	6.853	6.807
410.0	818.4	1151	1479	1709	1841	1932	2010	2140	2396	2841	3279	3535	3437	3130	2671	2129	1683	1456	1435	1512	1624	1744	1855	1920	1930	1886	1838	1792	1668	1498	1334	1140	923.5	750.1	639.9	789.5	1512	3682	3397	995.1	20.19	5.245	3.924	3.126	3.060	3.303	3.456	4.107	4.189	4.130	4.551	5.860	6.076	6.610	6.603	6.619	7.347	7.080	7.213	7.292	7.077	7.586	7.892	8.196	8.584	8.646	8.944	9.042	9.169	9.340	8.735	8.673	8.671	8.807	7.997	7.598	7.362
415.0	819.6	1133	1422	1674	1841	1984	2055	2213	2468	2928	3421	3649	3540	3236	2759	2174	1692	1459	1439	1519	1641	1770	1895	1969	1991	1959	1900	1820	1746	1630	1425	1207	985.3	787.8	652.0	576.8	605.1	980.4	2146	5216	1564	20.06	4.836	3.598	3.341	3.502	3.617	3.965	4.096	4.182	4.384	5.820	6.171	6.652	6.719	7.038	7.588	7.524	7.550	7.830	7.461	7.550	8.291	8.261	8.786	8.824	8.809	9.424	9.077	9.109	8.943	8.802	8.836	8.639	8.132	7.708	7.356
420.0	790.3	1110	1397	1642	1833	1983	2071	2207	2466	2886	3325	3539	3460	3137	2678	2118	1645	1422	1403	1469	1592	1717	1839	1928	1946	1917	1856	1776	1678	1603	1431	1185	964.1	776.1	633.0	506.0	387.4	351.9	593.4	3371	5031	261.0	13.87	4.512	3.674	3.530	3.645	3.727	4.331	3.861	4.256	6.153	6.078	6.656	6.910	7.112	7.592	7.912	7.618	7.560	7.744	7.662	8.174	8.015	8.779	8.240	8.639	9.251	9.129	8.960	8.834	8.587	8.530	8.321	7.650	7.534	7.018
425.0	804.7	1123	1386	1615	1859	2030	2150	2266	2471	2871	3282	3494	3393	3091	2659	2093	1618	1403	1375	1445	1547	1682	1810	1895	1918	1901	1850	1764	1667	1574	1463	1215	968.4	780.6	640.3	501.0	343.2	214.1	193.7	930.1	3749	2276	229.0	7.990	4.160	3.905	3.670	4.214	4.055	3.918	4.361	5.952	6.309	6.490	6.617	6.893	7.760	7.779	7.976	7.643	7.733	7.804	7.970	8.288	8.776	8.164	8.560	8.870	9.252	8.800	8.746	8.449	8.361	8.318	7.536	7.071	6.894
430.0	896.0	1082	1393	1663	1935	2144	2300	2439	2616	2956	3375	3563	3485	3168	2699	2128	1649	1422	1387	1451	1548	1683	1815	1910	1952	1946	1912	1837	1733	1633	1519	1322	1057	843.2	691.9	541.5	369.3	203.6	114.7	243.1	987.0	1919	2986	931.3	16.91	5.319	4.310	4.664	4.343	4.100	4.485	5.987	6.517	6.851	7.050	7.506	8.369	8.364	8.316	8.358	8.202	8.027	8.294	8.485	8.555	8.525	8.904	9.317	9.346	8.928	8.972	8.752	8.586	8.050	7.915	7.275	6.831
435.0	1353	1105	1411	1708	1979	2261	2456	2613	2710	3026	3371	3566	3484	3192	2693	2151	1664	1429	1386	1441	1531	1650	1790	1901	1951	1953	1929	1868	1772	1664	1541	1366	1136	899.8	729.3	579.9	395.8	217.4	108.4	96.62	245.8	452.7	1560	3767	1483	23.75	5.952	5.382	4.751	4.670	4.591	6.146	6.540	7.212	7.988	8.012	9.095	9.165	8.710	8.905	8.690	8.307	8.423	8.776	8.698	8.812	9.182	8.882	8.800	9.314	8.741	8.989	8.415	8.313	7.663	7.734	6.872
440.0	1744	1239	1408	1674	1995	2303	2579	2663	2707	2917	3225	3396	3327	3037	2586	2075	1621	1394	1343	1392	1460	1569	1706	1804	1856	1866	1851	1790	1709	1607	1483	1306	1112	900.0	722.9	569.0	392.8	220.9	112.6	68.88	84.53	121.3	391.8	2095	4087	263.7	16.20	6.201	5.265	4.615	4.774	6.161	6.535	7.516	7.766	8.490	9.384	9.661	9.069	9.087	8.446	8.447	8.558	8.433	8.334	8.730	8.780	8.590	8.565	8.985	8.322	8.275	8.146	7.919	7.477	7.191	6.617
445.0	1783	1640	1370	1661	2008	2315	2579	2621	2618	2751	3002	3130	3060	2803	2394	1934	1526	1327	1284	1310	1360	1450	1571	1661	1714	1727	1708	1655	1587	1491	1378	1206	1021	860.2	690.8	534.6	372.1	215.3	112.7	65.89	52.56	50.82	106.0	547.3	2797	3717	215.0	11.11	5.457	5.040	4.623	6.190	6.497	7.366	7.812	8.519	9.363	9.601	9.259	9.273	8.346	7.843	8.301	7.678	7.787	7.955	8.105	7.871	7.940	8.087	7.708	7.657	7.877	7.355	7.053	6.536	6.448
450.0	1267	2376	1590	1569	1925	2255	2517	2561	2436	2462	2617	2727	2662	2458	2107	1720	1383	1208	1174	1190	1207	1273	1367	1453	1500	1509	1492	1452	1393	1315	1214	1061	889.3	754.4	634.5	489.6	339.2	202.5	113.6	69.80	51.02	39.93	45.76	139.3	721.0	2302	3601	902.6	16.65	5.692	5.035	6.148	6.556	7.202	7.860	8.336	9.251	9.492	9.315	8.961	8.385	7.890	7.511	7.101	7.023	7.182	6.984	7.116	7.206	7.134	7.104	6.821	6.949	6.883	6.448	6.020	5.930
455.0	781.4	2283	2440	1533	1822	2144	2412	2433	2252	2192	2289	2376	2332	2139	1858	1519	1241	1088	1059	1053	1061	1106	1189	1258	1299	1306	1297	1273	1220	1167	1069	942.4	788.7	658.8	564.5	463.8	318.2	191.9	115.1	75.02	55.42	42.02	36.47	50.53	176.1	530.5	1489	4089	1320	20.65	5.612	6.152	6.457	6.956	7.899	8.172	9.015	8.872	8.887	8.349	7.857	7.561	6.907	6.184	6.240	6.530	6.178	6.405	6.584	6.409	6.359	6.374	5.892	6.215	5.815	5.495	5.600
460.0	651.6	1631	2989	1789	1747	2058	2311	2296	2113	2019	2067	2164	2097	1927	1693	1390	1138	1005	984.4	974.3	964.0	995.7	1071	1133	1174	1182	1182	1158	1114	1062	977.7	865.2	729.5	602.2	509.2	433.4	314.9	189.5	115.8	77.39	58.19	45.05	36.41	32.70	56.41	132.4	360.4	2161	3278	975.1	15.74	7.010	6.600	6.693	7.513	7.568	8.628	8.421	8.663	8.467	7.246	6.893	6.587	5.963	6.146	5.904	5.591	6.029	5.963	6.004	5.662	5.668	5.556	5.572	5.200	5.362	4.996
465.0	563.8	1067	2904	2487	1670	1964	2201	2185	1992	1867	1875	1951	1908	1766	1549	1264	1049	924.8	905.0	887.4	871.3	903.6	967.3	1020	1063	1070	1068	1048	1014	971.8	905.4	795.0	672.8	559.1	471.3	396.1	306.6	192.5	114.5	79.52	60.25	48.44	38.10	30.48	30.89	43.95	93.02	551.1	2075	2960	187.9	13.60	6.831	6.706	7.010	7.393	8.521	8.397	8.200	7.891	7.128	6.479	6.075	5.710	5.299	5.393	5.392	5.616	5.505	5.516	5.299	5.272	5.062	4.962	4.935	4.784	4.611
470.0	524.4	798.7	1831	3538	1908	1765	1979	1957	1759	1631	1625	1678	1634	1502	1323	1098	913.0	813.0	794.0	769.5	750.9	772.3	825.3	869.1	904.4	914.1	911.4	897.4	876.9	839.9	780.7	692.7	588.2	492.1	414.6	341.6	266.6	189.8	118.5	80.40	61.17	49.56	38.94	31.18	26.57	25.33	33.86	134.0	520.2	1616	1588	880.7	17.68	6.751	6.931	6.992	7.909	7.734	7.776	7.010	6.641	5.820	5.446	4.975	4.826	4.813	4.745	4.872	4.789	4.642	4.567	4.458	4.678	4.609	4.188	4.174	4.203
475.0	503.7	680.8	1039	3051	3003	1628	1741	1695	1529	1358	1356	1401	1356	1256	1096	926.1	779.6	701.5	674.8	654.0	633.1	641.9	679.3	717.3	744.8	755.6	752.1	744.4	726.7	700.1	648.7	582.0	495.8	417.4	352.8	288.3	223.1	166.3	122.7	83.26	62.06	48.95	40.71	32.09	27.09	22.55	20.84	41.07	124.8	369.4	626.0	2111	857.2	23.05	6.799	6.499	7.272	6.992	7.406	6.380	5.674	5.236	4.702	4.416	4.039	4.022	4.070	4.201	4.161	3.841	4.059	3.966	3.959	3.831	3.693	3.591	3.654
480.0	463.2	627.6	808.8	1989	3884	1861	1575	1539	1357	1210	1187	1207	1174	1087	959.3	813.7	688.9	623.0	600.2	574.5	551.4	556.4	586.6	622.1	643.6	647.9	648.7	642.5	631.7	608.4	566.0	505.6	432.7	365.6	312.9	257.3	197.5	146.5	117.8	89.59	62.91	50.25	41.07	33.32	27.54	22.91	19.13	20.93	37.72	90.58	152.1	962.7	1694	236.9	21.36	6.536	7.234	6.507	6.484	5.873	5.365	4.777	4.298	4.023	3.589	3.874	3.664	3.713	3.777	3.622	3.477	3.340	3.474	3.407	3.564	3.363	3.371
485.0	422.1	605.6	693.8	1202	3776	2741	1451	1404	1222	1081	1056	1058	1028	956.7	849.1	725.8	621.4	556.7	541.4	516.3	492.2	490.5	518.3	550.8	567.0	574.1	572.0	570.2	554.7	534.4	501.5	453.7	388.4	331.1	280.0	231.0	178.9	134.2	105.5	92.21	68.48	50.65	42.13	33.63	28.27	23.79	19.47	16.89	19.19	28.61	41.61	241.5	967.1	1650	228.0	14.27	7.250	6.175	6.122	5.231	5.063	4.524	3.766	3.702	3.540	3.428	3.121	3.320	3.560	3.399	3.028	3.128	3.284	3.304	3.128	3.092	2.914
490.0	364.0	567.0	651.2	844.5	2299	4142	1601	1239	1071	947.6	902.5	912.2	881.2	823.2	735.5	626.7	534.0	489.2	470.2	446.5	423.7	421.0	444.1	467.6	486.4	492.5	492.2	484.2	477.9	463.9	434.5	390.8	336.8	289.2	246.6	206.9	163.0	121.1	93.40	82.24	73.21	55.73	43.30	34.87	29.15	24.80	21.01	17.93	15.70	16.13	17.56	61.69	241.4	852.9	1526	812.5	21.68	6.520	5.798	5.054	4.606	4.161	3.542	3.341	3.046	3.204	2.949	3.026	3.045	2.951	2.922	2.937	2.951	2.991	2.761	2.705	2.763
495.0	311.1	472.1	627.0	690.9	1161	3710	2592	1107	930.0	804.8	777.4	770.2	746.7	696.3	629.1	533.4	460.4	420.7	398.3	384.9	359.9	352.6	373.8	391.9	409.3	417.0	414.3	412.0	407.6	395.5	369.2	333.5	292.6	246.5	215.0	180.6	143.4	109.2	85.17	71.54	68.57	61.33	45.78	35.49	30.11	25.54	21.90	19.23	16.42	13.90	13.08	21.75	61.06	197.7	543.8	1630	1531	26.44	5.929	4.744	4.219	3.549	3.335	3.262	2.761	2.800	2.659	2.483	2.659	2.699	2.665	2.666	2.595	2.495	2.614	2.399	2.499
500.0	280.6	403.0	585.4	605.5	807.5	2351	3531	1214	815.2	722.9	682.1	673.5	658.5	611.3	548.3	469.5	407.2	374.6	352.8	333.8	311.8	311.6	325.1	340.8	357.7	363.3	363.3	357.9	355.7	345.1	323.2	294.2	259.0	222.0	191.6	162.3	130.1	100.3	79.68	66.12	60.68	62.16	49.87	37.07	30.02	25.87	22.50	19.85	17.11	14.43	12.41	13.64	21.12	51.23	131.4	689.2	2585	801.7	21.03	4.954	3.938	3.538	3.146	2.924	2.565	2.403	2.292	2.368	2.330	2.275	2.421	2.568	2.403	2.362	2.431	2.092	2.276
505.0	251.8	353.9	525.9	576.6	664.4	1275	3625	1862	740.4	631.0	602.0	598.1	579.9	540.8	479.7	417.1	359.3	329.1	313.0	294.4	275.6	273.5	283.7	299.2	310.6	314.4	318.2	311.8	308.2	302.7	287.5	260.1	228.1	200.0	173.0	146.8	118.0	92.20	73.22	61.60	53.93	53.93	52.17	39.12	30.49	25.88	23.10	19.61	17.65	14.69	12.60	12.21	12.08	18.59	36.34	170.4	1297	1809	244.9	13.87	4.243	3.288	2.867	2.633	2.419	2.270	2.096	2.150	2.216	2.382	2.100	2.151	2.146	2.134	2.106	2.052	2.084
510.0	207.6	302.2	425.4	533.7	566.3	769.5	2173	3300	1024	533.2	507.1	504.6	486.0	451.8	399.1	343.4	302.2	275.2	264.6	248.5	232.7	228.0	236.7	251.3	257.4	262.7	260.7	260.4	256.0	252.5	239.2	218.6	190.8	167.4	145.9	125.6	103.1	81.45	65.64	55.63	49.05	45.84	45.42	42.06	32.46	25.79	22.40	19.45	17.36	14.68	13.31	12.11	10.69	11.64	15.11	44.54	314.3	819.6	1472	701.4	20.61	3.715	2.779	2.422	2.231	2.155	1.916	1.950	2.037	1.941	1.876	1.740	1.794	1.814	1.735	1.720	1.737
515.0	177.1	247.2	326.5	482.6	498.8	559.2	981.9	3293	2540	465.8	415.1	417.3	404.7	367.2	330.4	286.1	249.6	227.2	219.2	205.0	190.3	187.6	194.5	204.3	208.3	212.2	212.5	210.1	209.0	204.4	195.4	179.2	155.6	139.6	120.4	106.0	86.61	71.03	57.40	49.87	44.03	40.04	37.64	38.04	35.52	26.06	21.80	18.84	16.66	14.84	13.44	12.36	10.98	10.22	10.17	16.05	76.15	188.5	488.8	1318	1011	25.71	3.128	2.278	2.180	1.879	1.670	1.775	1.664	1.746	1.653	1.568	1.615	1.545	1.654	1.384	1.556
520.0	174.1	214.3	287.1	404.3	473.7	475.8	604.8	2088	4286	617.3	362.7	358.9	349.3	319.5	282.1	244.9	213.3	196.8	186.8	177.5	165.1	160.9	165.5	174.6	180.0	180.4	178.1	179.8	177.0	174.2	168.3	153.8	135.2	121.6	105.2	93.73	77.91	64.93	52.56	45.40	40.90	36.59	33.47	33.01	35.17	28.87	21.80	18.23	16.30	14.46	12.79	11.89	11.04	10.07	9.264	9.440	22.83	47.04	116.0	546.9	1423	261.5	18.69	2.386	2.211	1.792	1.726	1.472	1.547	1.555	1.542	1.580	1.472	1.463	1.394	1.303	1.525
525.0	150.4	206.8	247.0	339.9	436.7	424.5	463.0	1016	4863	1355	325.7	315.1	304.4	278.0	244.6	214.4	187.6	172.1	164.9	154.4	143.2	140.3	143.3	150.2	154.5	156.5	156.1	156.3	153.8	151.9	143.9	132.6	118.2	103.8	93.54	82.62	69.07	58.21	49.15	42.14	37.67	33.13	30.82	28.54	31.53	30.17	22.88	17.74	15.74	13.95	12.47	11.97	10.51	10.04	8.614	8.053	10.70	15.35	30.52	132.7	654.7	1206	239.8	8.853	2.030	1.964	1.820	1.551	1.313	1.570	1.531	1.401	1.393	1.338	1.206	1.309	1.362
530.0	135.3	168.0	198.3	258.8	374.0	404.6	374.2	505.7	2851	3135	470.3	264.1	251.5	234.2	204.3	181.0	157.2	144.5	138.6	129.6	120.9	115.3	119.2	124.5	128.0	128.8	129.4	129.2	127.7	126.6	121.4	110.2	99.86	87.57	80.12	70.21	59.70	50.52	43.06	38.23	33.70	30.39	27.95	25.23	25.22	27.04	24.48	18.49	14.98	13.53	12.00	11.17	10.09	9.654	8.340	7.270	7.702	8.053	10.87	33.33	157.7	542.2	961.4	474.2	17.93	2.403	1.693	1.491	1.247	1.394	1.320	1.171	1.233	1.138	1.178	1.221	1.237
535.0	121.0	139.2	167.9	210.4	291.0	374.4	322.8	336.4	955.0	3463	1391	238.5	212.7	197.4	172.0	150.1	130.2	120.5	113.2	106.4	98.23	95.92	97.93	99.89	103.9	105.2	106.3	106.2	104.8	103.5	98.06	90.72	82.78	74.39	66.23	58.15	50.59	42.78	37.16	33.64	29.49	27.42	24.14	22.55	21.19	21.06	22.79	20.18	15.54	12.51	10.72	10.13	9.536	8.810	8.448	7.380	6.710	6.449	6.354	10.60	38.06	123.9	305.4	831.1	720.8	25.57	2.007	1.504	1.332	1.420	1.155	1.065	1.163	0.909	1.059	1.069	1.192
540.0	100.0	129.9	140.7	181.4	225.7	337.5	289.5	267.8	397.0	2077	2455	283.7	180.7	166.1	147.4	128.2	112.9	102.2	99.17	91.38	83.32	82.28	83.98	84.22	88.98	89.67	89.69	89.42	88.72	87.84	83.14	77.37	70.79	63.50	56.19	50.99	44.54	38.34	33.22	29.35	26.71	24.58	22.08	20.46	19.05	17.55	19.60	20.50	15.78	12.13	10.39	9.556	8.884	8.240	7.866	7.562	6.490	5.799	5.278	5.531	11.31	30.13	71.86	325.6	1079	267.5	17.41	1.644	1.334	1.251	1.145	1.053	1.053	0.908	0.918	1.007	1.087
545.0	97.72	112.1	133.3	166.8	194.6	269.9	289.6	226.3	237.8	857.5	2941	760.2	158.1	145.2	127.3	110.9	96.30	89.48	85.34	77.90	72.64	70.74	71.78	73.72	75.20	77.96	76.93	75.62	76.14	75.19	72.92	67.22	61.43	55.04	49.37	44.01	38.68	33.95	29.71	25.87	24.07	22.44	20.02	18.87	17.08	16.31	16.08	18.13	16.56	12.52	9.705	9.293	8.012	7.710	7.112	6.774	6.494	5.144	4.891	4.112	5.245	8.976	18.60	78.16	500.8	1166	229.0	7.567	1.421	1.172	1.065	1.078	1.069	0.843	0.868	0.924	0.938
550.0	87.29	105.1	113.7	131.4	150.3	189.5	272.8	202.4	171.2	320.6	1714	2128	196.4	117.5	103.2	90.19	78.19	72.88	69.16	62.95	59.62	58.30	58.62	58.63	60.90	62.27	61.33	60.46	61.63	59.67	59.23	54.50	49.68	44.89	40.59	36.92	32.05	28.17	25.27	22.51	20.33	18.64	17.29	16.17	14.84	13.75	13.13	13.59	14.82	12.48	9.603	8.153	7.204	6.779	6.308	5.807	5.889	4.970	4.265	3.673	3.557	4.016	6.145	19.28	119.0	497.7	659.7	324.8	16.66	1.604	1.038	0.950	0.904	0.861	0.825	0.739	0.878
555.0	93.05	99.15	101.3	107.1	122.8	141.6	210.7	204.4	134.0	162.6	545.8	2491	820.0	99.96	82.54	68.99	63.34	57.73	53.15	49.90	47.33	44.72	46.04	47.17	48.13	47.91	47.68	47.48	48.31	47.25	45.87	42.15	39.03	35.07	31.78	29.26	25.78	22.30	21.05	18.77	16.92	15.68	15.02	13.83	12.19	11.68	11.06	10.54	10.91	11.30	9.788	7.542	6.204	5.917	5.622	5.046	4.715	4.431	4.358	3.383	2.810	2.813	3.221	5.990	28.08	112.5	196.9	562.5	271.1	24.24	1.140	1.031	0.932	0.734	0.751	0.700	0.650
560.0	80.95	99.51	91.76	87.74	104.9	109.6	154.8	204.4	120.3	113.7	203.7	1522	1704	139.4	67.78	59.92	52.72	47.72	44.02	41.63	38.98	36.67	37.06	37.50	39.74	39.77	39.53	39.47	39.31	38.53	37.76	35.34	32.00	29.28	27.40	24.23	21.98	19.22	17.48	15.56	14.62	13.67	12.65	11.73	10.58	10.02	9.819	8.722	8.573	9.633	9.302	7.264	5.562	5.128	4.859	4.358	4.032	3.953	4.074	3.107	2.776	2.517	2.361	2.821	7.579	26.58	45.78	206.5	593.0	263.7	12.99	1.034	0.912	0.833	0.771	0.709	0.743
565.0	80.18	88.80	90.86	79.76	89.61	93.16	113.3	189.1	123.0	94.20	114.0	613.9	2202	412.2	58.77	52.16	43.79	40.25	36.99	35.67	31.83	31.96	31.21	31.64	33.76	32.92	33.15	31.70	32.59	31.98	31.15	29.38	26.46	24.39	22.42	20.77	18.69	16.81	14.92	13.81	12.41	11.67	10.96	10.04	9.911	9.061	8.241	7.542	7.038	7.174	7.883	7.248	5.252	4.877	4.367	3.975	3.767	3.368	3.397	3.197	2.666	2.253	2.138	2.095	2.909	7.188	11.32	48.99	263.8	734.3	173.6	5.479	1.034	0.872	0.707	0.724	0.680
570.0	77.90	78.53	78.65	67.47	72.35	79.33	85.61	137.3	142.9	83.65	80.94	206.4	1318	1628	103.3	41.72	35.27	31.58	29.20	28.16	25.76	26.06	25.30	24.92	26.13	26.67	25.63	24.84	26.19	25.47	24.74	23.20	20.79	19.80	17.58	16.71	14.66	13.73	11.98	11.20	10.52	9.631	8.896	8.317	7.975	7.519	6.798	6.499	5.881	5.370	6.109	6.507	5.408	4.430	3.546	3.452	3.407	2.902	2.691	2.660	2.684	2.175	1.637	1.706	1.888	2.777	3.556	11.90	62.31	287.8	353.2	152.7	16.23	1.098	0.734	0.569	0.614
575.0	67.01	67.58	65.07	63.28	60.84	63.35	66.42	84.67	146.6	91.87	69.39	94.93	395.7	2220	664.9	35.84	28.41	25.63	24.03	22.40	20.71	19.94	19.92	18.98	20.04	20.71	19.73	19.03	19.94	19.86	19.42	17.99	16.76	15.59	13.78	13.35	11.65	11.09	9.589	8.690	8.503	7.831	7.070	6.880	6.052	6.061	5.650	5.299	4.867	4.433	4.224	4.872	5.040	4.334	3.255	3.085	3.011	2.574	2.302	2.063	2.086	2.146	1.659	1.509	1.517	1.642	1.739	3.541	14.76	65.10	102.0	283.8	270.5	20.60	0.820	0.609	0.570
580.0	66.91	66.66	60.62	55.10	55.34	52.49	56.68	64.21	122.5	107.2	62.23	65.53	134.4	1441	1333	61.85	24.63	21.48	20.54	19.09	17.23	16.58	16.57	15.83	16.55	16.22	16.50	16.53	16.30	16.46	16.28	15.02	13.74	12.90	11.51	10.75	9.491	8.723	8.208	7.413	7.122	6.583	6.242	5.966	5.435	5.066	5.001	4.816	4.327	3.862	3.476	3.690	4.244	4.069	3.511	2.633	2.593	2.239	2.226	1.844	1.843	1.944	1.921	1.526	1.475	1.425	1.303	1.813	4.099	15.43	24.00	102.9	471.5	204.6	11.81	0.722	0.562
585.0	63.27	69.23	65.62	49.45	51.09	48.06	49.97	54.28	88.86	123.9	59.85	54.16	69.70	544.9	2132	140.3	21.40	17.70	17.09	16.15	14.40	14.43	13.79	14.34	13.79	14.15	13.72	14.11	13.65	13.83	13.24	12.88	11.59	11.21	9.874	9.128	7.997	7.467	6.790	5.977	5.971	5.727	5.163	5.076	4.816	4.639	4.348	4.080	3.651	3.336	3.150	2.976	3.379	4.026	3.347	2.579	2.212	2.019	1.900	1.738	1.658	1.663	1.773	1.621	1.313	1.318	1.160	1.277	1.827	4.191	6.180	24.50	199.5	370.1	136.4	4.357	0.698
590.0	59.54	65.52	55.85	47.21	41.00	40.76	44.54	45.71	58.78	115.2	78.14	52.69	49.19	158.2	1325	826.4	49.55	16.17	14.11	13.81	12.37	11.67	11.11	11.56	11.54	12.06	11.14	11.62	11.14	11.24	10.89	10.28	9.465	8.799	8.267	7.490	6.913	6.423	5.575	5.193	4.999	4.893	4.373	4.192	4.014	3.880	3.672	3.380	3.206	2.674	2.647	2.545	2.449	2.993	3.324	2.770	2.097	1.760	1.659	1.491	1.402	1.368	1.437	1.531	1.315	1.236	1.057	1.056	1.157	1.664	2.153	6.073	46.51	141.1	242.5	124.8	15.44
595.0	60.91	57.70	56.84	41.12	35.05	33.99	38.11	39.87	44.48	81.75	104.0	52.49	42.69	60.30	372.9	1158	290.2	14.52	12.15	9.985	9.797	9.546	9.464	9.305	9.145	9.055	9.163	9.149	9.003	8.670	8.744	8.092	7.337	6.999	6.477	6.117	5.378	4.867	4.529	4.470	4.267	3.776	3.578	3.316	3.306	2.934	2.969	2.844	2.396	2.370	2.057	2.099	1.893	2.179	2.608	2.730	2.227	1.651	1.554	1.327	1.207	1.133	1.237	1.076	1.361	1.185	0.993	0.910	1.040	1.030	1.036	1.934	10.89	32.15	68.48	167.5	199.9
600.0	56.13	56.84	50.31	39.83	31.67	30.78	36.07	37.61	39.68	58.21	112.2	60.22	39.14	37.86	107.7	768.9	789.9	29.52	11.13	8.485	8.581	8.079	7.851	7.544	7.970	7.893	7.688	7.279	7.644	7.477	7.223	6.410	6.338	5.813	5.227	5.325	4.470	4.407	3.942	3.784	3.455	3.402	3.232	2.987	2.822	2.502	2.530	2.415	2.235	2.064	1.796	1.899	1.606	1.881	1.920	2.433	2.168	1.728	1.352	1.202	1.102	1.015	1.076	1.045	1.017	1.240	1.048	0.786	0.857	0.956	0.842	1.039	2.973	7.725	16.02	56.05	223.1
605.0	58.84	59.05	47.63	40.49	35.20	31.84	32.05	37.76	41.25	49.30	100.2	80.55	47.16	36.94	46.33	298.1	1230	95.58	9.591	7.911	7.459	6.591	6.917	6.779	6.866	6.690	6.264	6.125	6.765	6.401	6.498	5.669	5.502	5.004	4.788	4.438	4.292	3.788	3.191	3.120	3.000	2.748	3.011	2.723	2.573	2.326	2.349	2.224	1.897	1.688	1.644	1.648	1.555	1.514	1.581	1.833	2.164	1.761	1.322	1.283	0.972	1.103	0.926	0.911	0.989	1.145	1.131	0.851	0.894	0.767	0.728	0.787	1.194	2.245	4.054	13.26	84.51
610.0	57.78	54.16	45.38	38.16	31.98	32.94	33.60	38.47	46.31	54.46	81.85	109.9	63.70	44.96	39.92	93.69	871.0	569.0	26.09	7.260	6.160	5.522	5.999	5.887	5.540	5.160	5.475	5.252	5.414	5.044	5.249	4.768	4.427	4.086	3.983	3.602	3.419	2.980	2.720	2.651	2.498	2.447	2.230	2.268	2.059	2.042	1.893	1.966	1.614	1.460	1.426	1.360	1.220	1.267	1.369	1.325	1.720	1.637	1.390	1.245	0.956	0.840	0.928	0.849	0.922	0.965	1.120	1.133	0.897	0.803	0.721	0.695	0.812	0.990	1.454	3.415	19.81
615.0	59.05	54.91	47.13	41.20	29.38	32.59	35.28	39.94	45.84	57.04	67.19	108.8	81.85	48.46	39.85	42.48	261.2	848.9	97.63	6.961	5.029	5.205	4.715	4.901	4.756	4.435	4.652	4.392	4.320	4.210	4.007	4.169	3.375	3.207	2.927	2.909	2.659	2.661	2.306	2.381	1.858	2.028	1.915	1.843	1.727	1.643	1.565	1.548	1.417	1.212	1.246	1.157	1.217	1.063	1.067	1.161	1.274	1.381	1.458	1.176	0.947	0.818	0.867	0.795	0.844	0.932	0.937	1.047	0.963	0.807	0.768	0.713	0.698	0.635	0.788	1.167	4.874
620.0	54.75	54.28	43.28	39.15	26.70	32.35	34.41	39.66	44.79	52.87	58.96	88.41	92.96	49.36	38.23	31.29	82.22	585.0	587.6	14.57	4.684	4.703	4.567	4.055	3.920	3.853	3.845	3.543	3.700	3.816	3.577	3.227	3.184	2.634	2.687	2.541	2.284	2.228	2.053	1.869	1.715	1.615	1.551	1.514	1.435	1.580	1.357	1.310	1.184	1.107	0.974	0.977	1.011	0.970	0.883	0.906	0.950	1.090	1.350	1.247	0.931	0.790	0.850	0.796	0.805	0.814	0.842	0.874	0.946	0.970	0.742	0.739	0.664	0.552	0.614	0.660	1.515
625.0	52.54	49.82	44.53	37.65	29.24	30.29	32.91	38.40	41.64	47.85	55.35	69.46	99.83	55.49	37.11	29.20	37.57	235.2	936.7	64.38	4.368	4.473	3.973	3.867	3.689	3.198	3.368	3.208	3.207	3.120	2.997	2.777	2.670	2.209	2.471	2.201	1.995	1.878	1.710	1.716	1.355	1.539	1.308	1.279	1.217	1.322	1.154	1.260	1.037	1.051	0.877	0.926	0.864	0.934	0.871	0.791	0.871	0.916	1.188	1.072	0.916	0.864	0.757	0.702	0.690	0.695	0.841	0.741	0.729	1.001	0.783	0.620	0.569	0.556	0.586	0.612	0.733
630.0	49.76	52.14	42.08	40.90	28.51	29.25	31.54	35.17	39.53	46.89	54.76	63.59	85.54	67.22	39.10	28.01	27.60	69.57	643.0	463.2	13.01	3.908	3.597	3.276	3.291	2.955	2.856	2.657	2.769	2.656	2.481	2.393	2.178	2.148	2.015	1.879	1.648	1.720	1.487	1.461	1.349	1.173	1.178	1.053	1.020	1.017	1.028	1.038	0.952	0.798	0.820	0.853	0.760	0.832	0.741	0.801	0.823	0.711	0.913	0.926	0.963	0.779	0.686	0.649	0.672	0.674	0.722	0.672	0.664	0.837	0.854	0.731	0.602	0.568	0.592	0.536	0.563
635.0	48.43	62.64	46.74	37.65	30.22	28.37	30.73	33.63	39.33	47.43	52.10	59.23	67.23	78.06	43.89	28.29	25.68	27.24	187.4	782.6	75.46	4.152	3.090	3.202	2.735	2.315	2.671	2.494	2.540	2.378	2.097	2.064	1.839	1.865	1.673	1.547	1.402	1.488	1.352	1.287	1.171	1.095	1.016	0.997	0.929	0.901	0.920	0.908	0.851	0.765	0.733	0.772	0.613	0.729	0.719	0.679	0.699	0.650	0.701	0.771	0.792	0.843	0.701	0.604	0.711	0.641	0.771	0.643	0.663	0.717	0.763	0.887	0.617	0.550	0.603	0.490	0.576
640.0	53.88	65.58	45.96	38.40	30.12	30.15	30.52	33.77	39.61	45.01	53.05	58.02	60.94	77.23	52.58	29.12	26.13	19.06	52.10	577.2	336.6	9.554	2.856	2.631	2.401	2.209	2.024	2.235	2.137	2.185	1.843	1.921	1.558	1.501	1.404	1.180	1.129	1.346	1.193	1.193	1.124	1.038	0.954	0.941	0.842	0.809	0.862	0.871	0.790	0.676	0.616	0.724	0.514	0.643	0.771	0.609	0.595	0.560	0.710	0.673	0.720	0.804	0.757	0.609	0.613	0.682	0.617	0.633	0.589	0.772	0.671	0.797	0.752	0.583	0.594	0.619	0.514
645.0	53.25	60.48	52.79	38.01	30.77	28.35	29.75	32.48	41.26	43.74	52.09	55.97	59.13	65.71	60.53	31.72	26.56	18.50	19.59	236.4	546.5	52.77	2.809	2.619	2.367	2.024	2.053	1.983	2.028	2.005	1.931	1.766	1.498	1.400	1.212	1.140	1.092	1.261	1.122	0.999	0.962	0.877	0.883	0.806	0.772	0.788	0.765	0.641	0.802	0.639	0.579	0.626	0.543	0.591	0.654	0.604	0.607	0.564	0.521	0.537	0.592	0.785	0.780	0.622	0.626	0.620	0.648	0.569	0.672	0.683	0.609	0.709	0.711	0.692	0.606	0.468	0.525
650.0	52.41	59.84	55.71	41.90	31.07	28.27	30.15	31.92	36.94	43.61	49.75	56.47	55.40	56.48	64.33	35.10	26.99	17.11	12.71	68.97	506.8	281.0	4.027	2.455	2.532	2.069	1.929	1.841	2.038	1.778	1.588	1.430	1.290	1.417	1.182	1.185	1.018	1.015	0.937	0.864	0.884	0.760	0.795	0.866	0.770	0.721	0.703	0.692	0.662	0.653	0.499	0.556	0.562	0.553	0.557	0.538	0.654	0.541	0.535	0.520	0.545	0.626	0.742	0.730	0.603	0.617	0.541	0.551	0.621	0.630	0.673	0.629	0.564	0.728	0.647	0.499	0.472
