Sample:	'1
File name:	H2025090905清泉林东环路桥.FD3
Run date:	'17:35:46, 09/10/2025
Operator:	Administrator
Comment:	'

Instrument
Model:	F-2700 FL Spectrophotometer
Serial number:	23C7-003
ROM Version:	4J14000 07

Instrument parameters
Measurement type:	3-D scan
Data mode:	Fluorescence
EX  Start WL:	220.0 nm
EX  End WL:	600.0 nm
EX Sampling interval:	5.0 nm
EM  Start WL:	230.0 nm
EM  End WL:	650.0 nm
EM Sampling interval:	5.0 nm
Scan speed:	12000 nm/min
EX Slit:	5.0 nm
EM Slit:	5.0 nm
PMT Voltage:	700 V
Response:	Auto 
Corrected spectra:	Off
Contour interval:	50.000

Peak integration
Integration method:	Rectangular
Sensitivity:	1
Threshold:	1.000

Peaks
No.	ApexEX/EM(nm)	Height(Data)
1	225.0/315.0	537.3
2	225.0/325.0	545.1
3	225.0/570.0	44.61
4	225.0/595.0	54.90
5	230.0/345.0	539.9
6	230.0/495.0	246.8
7	240.0/400.0	592.4
8	240.0/520.0	182.6
9	245.0/535.0	156.0
10	250.0/405.0	599.4
11	250.0/545.0	127.9
12	255.0/280.0	376.6
13	255.0/560.0	109.5
14	260.0/570.0	93.42
15	265.0/585.0	95.52
16	270.0/300.0	1133
17	270.0/390.0	580.1
18	270.0/405.0	570.1
19	270.0/595.0	102.5
20	275.0/305.0	1382
21	275.0/380.0	585.0
22	275.0/610.0	96.97
23	280.0/310.0	1225
24	280.0/620.0	79.36
25	285.0/635.0	50.14
26	300.0/335.0	443.1
27	305.0/345.0	417.2
28	310.0/350.0	384.1
29	315.0/355.0	391.9
30	320.0/360.0	408.9
31	325.0/370.0	390.0
32	445.0/525.0	18.42
33	510.0/280.0	2.476
34	520.0/285.0	2.611
35	530.0/290.0	3.103
36	545.0/300.0	5.848
37	550.0/305.0	6.929
38	560.0/310.0	6.445
39	570.0/315.0	5.521
40	575.0/290.0	44.26
41	575.0/320.0	4.837

Data points
	220.0	225.0	230.0	235.0	240.0	245.0	250.0	255.0	260.0	265.0	270.0	275.0	280.0	285.0	290.0	295.0	300.0	305.0	310.0	315.0	320.0	325.0	330.0	335.0	340.0	345.0	350.0	355.0	360.0	365.0	370.0	375.0	380.0	385.0	390.0	395.0	400.0	405.0	410.0	415.0	420.0	425.0	430.0	435.0	440.0	445.0	450.0	455.0	460.0	465.0	470.0	475.0	480.0	485.0	490.0	495.0	500.0	505.0	510.0	515.0	520.0	525.0	530.0	535.0	540.0	545.0	550.0	555.0	560.0	565.0	570.0	575.0	580.0	585.0	590.0	595.0	600.0
230.0	35.07	654.3	2303	941.7	42.95	6.433	6.131	4.809	4.143	3.737	3.549	3.428	2.749	2.529	2.164	1.921	1.553	1.488	1.361	1.252	1.250	1.128	1.033	0.920	0.877	0.806	0.772	0.755	0.664	0.666	0.681	0.621	0.570	0.571	0.479	0.458	0.460	0.412	0.432	0.400	0.401	0.533	0.529	0.451	0.383	0.392	0.914	4.264	8.690	7.339	2.967	0.719	0.321	0.306	0.298	0.298	0.286	0.313	0.298	0.267	0.314	0.279	0.305	0.289	0.289	0.279	0.304	0.278	0.316	0.304	0.320	0.329	0.284	0.311	0.313	0.331	0.301
235.0	75.10	181.1	1114	2366	462.0	72.30	7.186	5.042	4.506	4.381	3.882	3.034	3.254	2.615	2.156	1.668	1.608	1.492	1.353	1.344	1.262	1.107	0.936	0.893	0.863	0.701	0.804	0.679	0.618	0.677	0.579	0.696	0.553	0.538	0.486	0.432	0.436	0.416	0.368	0.379	0.412	0.483	0.451	0.565	0.559	0.530	0.535	1.280	2.988	5.624	8.230	9.197	5.140	1.319	0.345	0.313	0.270	0.261	0.260	0.267	0.273	0.259	0.279	0.326	0.305	0.237	0.299	0.255	0.331	0.319	0.301	0.342	0.279	0.314	0.323	0.323	0.293
240.0	100.6	107.7	298.1	1548	2676	391.6	35.26	6.195	4.675	4.164	4.143	3.691	3.210	2.740	2.165	1.722	1.734	1.567	1.380	1.292	1.033	1.184	1.037	0.990	0.930	0.885	0.797	0.735	0.733	0.666	0.635	0.694	0.563	0.594	0.534	0.414	0.461	0.448	0.397	0.409	0.388	0.453	0.405	0.430	0.602	0.683	0.602	0.593	0.951	1.650	4.065	10.18	13.58	9.954	3.711	0.726	0.258	0.272	0.292	0.254	0.314	0.298	0.255	0.311	0.325	0.288	0.241	0.291	0.260	0.281	0.338	0.301	0.316	0.277	0.357	0.266	0.275
245.0	73.07	143.0	119.8	448.3	2203	2858	306.4	15.19	5.402	5.191	4.192	4.025	3.098	3.121	2.430	1.978	1.756	1.623	1.477	1.302	1.117	1.113	1.062	1.048	0.947	0.853	0.745	0.730	0.712	0.705	0.685	0.692	0.503	0.499	0.547	0.565	0.502	0.392	0.423	0.408	0.353	0.435	0.427	0.381	0.450	0.584	0.723	0.660	0.597	0.615	1.136	3.313	8.224	14.77	15.64	8.495	2.481	0.404	0.367	0.338	0.361	0.328	0.336	0.382	0.315	0.305	0.261	0.328	0.249	0.329	0.317	0.315	0.265	0.317	0.286	0.314	0.298
250.0	34.50	90.07	159.7	175.7	622.1	2091	2897	1104	83.57	8.044	5.568	4.906	3.708	3.124	2.554	2.404	1.812	1.705	1.623	1.329	1.288	1.080	1.129	1.104	1.068	0.991	0.779	0.818	0.807	0.694	0.696	0.662	0.533	0.613	0.503	0.594	0.466	0.437	0.411	0.373	0.368	0.480	0.390	0.402	0.356	0.428	0.488	0.657	0.728	0.693	0.667	1.063	2.195	4.806	8.900	12.99	15.83	14.06	7.562	2.547	0.619	0.305	0.321	0.359	0.330	0.362	0.351	0.331	0.304	0.309	0.322	0.318	0.281	0.346	0.311	0.326	0.331
255.0	24.14	37.43	88.03	215.8	221.3	496.5	1682	4355	1642	98.35	8.267	5.884	4.477	3.683	2.584	2.410	2.275	1.893	1.725	1.359	1.373	1.061	1.173	1.161	1.089	1.022	0.841	0.906	0.867	0.839	0.815	0.660	0.646	0.578	0.584	0.457	0.413	0.519	0.431	0.387	0.380	0.406	0.365	0.396	0.411	0.422	0.363	0.402	0.484	0.663	0.849	1.207	1.003	1.340	2.278	3.295	5.969	14.34	23.94	22.63	12.08	2.827	0.492	0.362	0.352	0.314	0.345	0.306	0.320	0.279	0.335	0.326	0.320	0.355	0.343	0.334	0.316
260.0	21.50	22.55	36.39	144.5	228.3	161.8	441.9	2746	5229	1291	57.82	7.152	4.727	4.535	3.444	2.801	2.331	1.874	1.793	1.372	1.397	1.220	1.120	1.130	1.147	1.032	0.881	0.836	0.852	0.799	0.751	0.598	0.607	0.532	0.596	0.547	0.416	0.477	0.472	0.518	0.366	0.386	0.345	0.433	0.376	0.413	0.354	0.379	0.335	0.406	0.577	1.185	1.271	0.983	0.826	0.982	1.661	4.092	11.03	23.92	32.06	21.95	8.397	1.337	0.385	0.354	0.333	0.354	0.340	0.292	0.339	0.356	0.303	0.307	0.318	0.319	0.305
265.0	21.60	19.14	19.01	60.28	213.6	185.8	127.6	773.4	4019	5575	980.1	21.75	6.580	5.181	3.487	2.833	2.432	1.725	1.880	1.524	1.531	1.378	1.133	1.259	1.266	1.051	0.992	0.831	0.849	0.776	0.743	0.653	0.544	0.570	0.559	0.526	0.446	0.524	0.420	0.510	0.414	0.381	0.394	0.372	0.397	0.334	0.366	0.450	0.350	0.309	0.344	0.611	1.020	1.545	1.164	0.607	0.649	1.264	2.905	7.328	18.96	33.68	28.11	18.72	4.843	0.557	0.429	0.379	0.330	0.300	0.361	0.267	0.252	0.277	0.356	0.363	0.309
270.0	27.19	23.09	18.56	24.63	83.41	212.3	201.1	214.7	1117	3955	6160	2394	61.09	7.651	4.782	3.842	2.835	2.325	2.030	1.564	1.627	1.453	1.192	1.382	1.129	1.071	1.103	0.903	0.904	0.755	0.750	0.847	0.683	0.587	0.617	0.575	0.450	0.595	0.467	0.424	0.471	0.464	0.427	0.417	0.419	0.383	0.351	0.399	0.331	0.339	0.293	0.388	0.561	0.873	1.273	1.382	1.305	0.933	1.060	1.950	4.809	10.33	17.77	29.57	30.29	29.67	11.99	4.117	0.657	0.357	0.390	0.335	0.296	0.303	0.377	0.353	0.338
275.0	47.96	33.81	26.63	20.89	31.29	80.88	269.2	250.6	300.6	954.4	3292	8609	1086	71.12	7.627	5.183	3.624	2.769	2.049	1.924	1.646	1.558	1.487	1.333	1.219	1.093	1.123	0.986	0.933	0.860	0.785	0.849	0.805	0.706	0.672	0.595	0.561	0.551	0.544	0.528	0.474	0.463	0.515	0.403	0.380	0.457	0.400	0.371	0.354	0.310	0.294	0.351	0.456	0.473	0.527	0.762	1.520	2.051	1.616	1.056	1.515	2.677	4.390	7.258	11.05	27.76	47.71	28.17	18.25	3.630	0.557	0.439	0.351	0.379	0.394	0.456	0.412
280.0	75.40	59.24	44.23	28.65	27.47	42.00	151.6	376.6	218.5	277.7	908.8	5323	8546	858.5	37.84	7.381	4.524	3.584	2.643	2.292	1.946	1.636	1.518	1.381	1.188	1.127	0.979	0.992	0.933	0.849	0.901	0.735	0.824	0.668	0.718	0.614	0.620	0.588	0.567	0.591	0.513	0.566	0.527	0.502	0.443	0.587	0.441	0.392	0.480	0.315	0.329	0.445	0.388	0.427	0.421	0.512	0.820	1.539	2.476	2.144	1.223	1.066	1.458	2.180	3.039	7.584	19.70	41.18	61.32	26.59	11.89	1.543	0.469	0.352	0.367	0.414	0.332
285.0	120.2	118.2	79.45	49.78	37.87	37.79	76.65	290.5	404.4	209.4	340.1	1587	7039	7105	589.9	16.04	5.831	4.250	3.119	2.539	2.104	1.994	1.633	1.580	1.224	1.084	1.261	0.982	0.993	0.950	0.815	0.719	0.849	0.737	0.770	0.798	0.759	0.806	0.618	0.629	0.636	0.546	0.540	0.689	0.594	0.607	0.606	0.556	0.542	0.424	0.390	0.414	0.423	0.415	0.472	0.390	0.535	0.899	1.643	2.549	2.611	1.604	1.086	1.190	1.550	2.571	5.452	12.51	31.69	55.81	61.58	21.70	6.147	0.640	0.412	0.394	0.415
290.0	218.1	231.1	181.9	111.2	63.78	60.47	82.17	171.0	407.1	537.2	440.6	689.1	2135	5873	7102	2004	35.35	5.981	4.144	3.117	2.515	2.078	1.822	1.593	1.496	1.238	1.263	1.145	1.052	0.966	0.789	0.804	0.799	0.845	0.823	0.881	0.817	0.883	0.723	0.710	0.707	0.738	0.691	0.728	0.814	0.839	0.830	0.924	0.770	0.727	0.551	0.607	0.485	0.515	0.568	0.557	0.591	0.724	0.998	1.484	2.077	2.981	3.103	2.538	2.026	2.179	2.917	4.418	8.760	17.13	31.28	44.26	39.66	41.84	13.60	5.367	0.792
295.0	323.1	373.5	326.6	177.0	102.7	89.25	113.5	174.6	311.8	647.8	914.5	743.4	967.8	1612	3817	9519	2786	41.33	6.358	4.122	3.180	2.460	2.153	1.835	1.454	1.598	1.264	1.087	1.021	1.037	0.933	0.877	0.898	0.833	0.963	0.915	1.065	0.942	0.840	0.833	0.753	0.793	0.926	0.843	0.985	1.078	1.153	1.206	1.187	0.962	0.739	0.714	0.691	0.632	0.650	0.626	0.771	0.753	1.050	1.136	1.525	2.099	2.939	4.396	4.871	3.853	3.252	3.451	4.115	5.997	8.758	11.32	13.47	35.11	63.91	69.09	21.52
300.0	396.2	470.6	408.4	217.2	124.4	110.8	139.8	199.6	319.4	579.5	1133	1054	824.3	697.8	1058	5631	9591	504.3	23.50	5.579	3.825	3.127	2.422	2.105	1.893	1.494	1.353	1.330	1.201	1.053	1.077	0.994	0.927	0.838	0.934	1.080	1.054	0.989	0.859	0.962	0.762	0.892	1.013	0.997	1.042	1.305	1.332	1.483	1.324	1.191	0.846	0.852	0.752	0.743	0.629	0.738	0.885	0.917	1.192	1.220	1.507	1.936	2.691	3.466	5.380	5.848	5.108	4.172	3.794	3.909	4.046	3.769	4.032	9.243	23.01	56.89	80.83
305.0	438.1	522.8	454.9	259.5	145.8	126.1	162.3	224.3	351.3	564.9	1007	1382	946.6	556.6	387.7	1517	7206	7815	366.0	11.12	5.378	3.837	2.850	2.183	2.047	1.527	1.627	1.264	1.303	1.160	1.133	1.027	0.967	0.857	1.032	1.121	1.102	1.075	1.078	0.956	0.868	0.952	0.939	1.093	1.144	1.428	1.479	1.580	1.599	1.266	1.047	0.915	0.751	0.826	0.744	0.802	0.953	1.096	1.207	1.382	1.574	2.063	2.671	3.251	4.194	5.453	6.929	6.049	4.460	3.959	3.326	2.517	2.095	2.968	5.997	15.19	36.39
310.0	443.9	536.2	467.4	276.1	160.5	136.0	171.2	249.0	367.8	579.4	889.3	1211	1225	648.1	271.4	422.1	1875	5581	5775	1508	25.20	5.202	3.533	3.023	2.275	1.770	1.715	1.374	1.454	1.307	1.227	1.032	0.939	0.918	1.069	1.109	1.144	1.098	1.056	0.865	0.886	0.935	1.028	1.130	1.237	1.474	1.483	1.634	1.639	1.348	1.019	0.920	0.864	0.886	0.746	0.861	0.999	1.118	1.309	1.583	1.720	2.161	2.649	3.227	3.636	4.382	5.245	6.085	6.445	5.459	3.901	2.612	1.800	1.624	2.176	4.095	8.897
315.0	424.3	537.3	440.5	269.8	168.1	146.9	179.9	250.9	369.1	557.5	804.8	981.5	1048	909.3	331.5	200.0	481.2	1305	3170	8111	2143	28.99	5.304	3.861	2.776	2.267	1.815	1.696	1.463	1.355	1.205	1.110	0.957	0.892	1.038	1.130	1.128	1.149	0.946	0.873	0.907	0.858	1.043	1.086	1.267	1.417	1.592	1.676	1.688	1.308	1.081	1.007	0.945	0.826	0.828	0.920	0.982	1.282	1.343	1.648	1.945	2.297	2.756	3.008	3.590	3.846	4.526	4.705	4.875	5.167	5.521	4.133	2.322	1.585	1.410	1.797	2.770
320.0	421.4	522.5	457.1	279.5	169.4	146.8	180.3	250.2	361.6	536.8	747.2	885.9	872.0	840.2	534.0	187.6	185.1	343.3	801.7	4726	7733	375.8	16.99	4.989	3.452	2.598	2.174	1.921	1.558	1.400	1.290	1.236	0.976	0.894	1.050	1.137	1.028	0.921	1.000	0.929	0.985	0.922	1.098	1.195	1.168	1.432	1.725	1.736	1.817	1.375	1.071	0.960	0.916	0.810	0.827	0.995	1.092	1.356	1.256	1.584	1.834	2.171	2.688	3.047	3.297	3.683	3.968	4.060	4.177	4.472	4.249	4.837	4.021	2.390	1.502	1.304	1.595
325.0	419.2	545.1	479.6	301.6	186.7	158.8	192.7	246.6	355.3	508.9	705.6	825.9	784.6	659.1	633.5	311.8	145.2	140.6	224.6	1235	5832	6212	286.1	9.217	4.247	3.030	2.310	2.021	1.783	1.302	1.305	1.186	1.014	0.884	1.104	1.050	1.031	0.860	0.898	0.889	0.876	0.945	1.027	1.172	1.247	1.429	1.634	1.669	1.733	1.256	1.099	1.125	0.893	0.965	0.845	0.941	1.067	1.281	1.339	1.730	1.844	2.216	2.509	2.874	3.136	3.483	3.702	4.006	4.073	3.949	3.547	3.464	4.034	3.979	2.502	1.628	1.355
330.0	414.3	527.1	494.1	346.9	214.3	177.3	201.7	254.0	347.3	481.6	649.0	750.0	727.4	572.2	482.4	471.8	276.4	133.2	116.1	324.3	1510	4494	4690	1280	21.50	4.329	3.097	2.374	1.976	1.633	1.543	1.285	1.035	1.108	1.081	1.084	0.957	0.935	0.908	0.893	0.886	0.961	0.975	1.110	1.219	1.422	1.722	1.794	1.837	1.466	1.244	1.239	1.102	1.037	0.951	1.099	1.013	1.207	1.336	1.654	1.682	2.147	2.434	2.671	2.949	3.315	3.294	3.621	3.505	3.548	3.210	3.001	2.815	3.174	3.432	3.246	2.518
335.0	396.9	530.6	515.7	384.7	264.3	215.2	223.1	265.7	342.9	455.2	603.5	698.7	680.2	552.9	418.3	376.3	443.1	248.0	127.6	145.7	388.0	1060	2575	6852	1965	26.22	4.446	3.093	2.452	1.932	1.761	1.503	1.247	1.152	1.159	1.034	1.042	1.095	1.026	0.830	0.979	0.915	0.940	1.229	1.314	1.521	1.620	1.875	1.737	1.522	1.297	1.410	1.316	1.198	1.194	1.238	1.146	1.303	1.281	1.712	1.720	2.033	2.207	2.578	2.956	3.111	3.180	3.321	3.297	3.198	3.288	3.052	2.809	2.779	2.499	2.840	3.419
340.0	406.1	523.5	526.9	407.1	289.2	242.8	237.5	273.6	344.5	452.7	574.3	656.1	657.3	550.6	425.4	344.7	390.0	397.9	186.7	129.5	163.0	294.6	662.1	3949	6660	340.2	16.83	4.220	2.818	2.295	1.861	1.399	1.331	1.111	1.169	1.077	1.131	1.022	1.011	0.819	0.970	0.930	1.040	1.170	1.234	1.582	1.648	1.820	1.926	1.745	1.367	1.478	1.375	1.276	1.297	1.248	1.301	1.378	1.405	1.747	1.723	2.031	2.403	2.470	2.803	3.027	2.985	3.230	3.239	3.174	3.364	2.987	2.697	2.448	2.266	2.515	2.598
345.0	383.3	502.3	539.9	438.2	328.6	273.0	261.2	287.6	347.6	441.8	549.5	627.9	636.9	550.4	439.0	355.9	328.0	417.2	317.3	163.3	133.9	142.6	205.0	1039	4774	5430	277.9	8.285	3.639	2.860	2.202	1.540	1.344	1.151	1.187	1.102	1.004	0.897	0.918	0.969	0.942	0.980	0.951	1.166	1.213	1.375	1.593	1.939	1.985	1.804	1.543	1.599	1.533	1.378	1.348	1.370	1.482	1.385	1.506	1.708	1.842	2.118	2.335	2.279	2.762	2.781	2.967	3.204	3.304	3.358	3.284	3.009	2.933	2.548	2.408	2.431	2.458
350.0	383.8	514.9	530.8	467.9	365.8	326.0	304.3	314.8	363.4	433.4	529.4	598.8	604.4	546.9	465.1	390.6	337.2	343.1	384.1	302.0	181.3	143.7	131.2	291.8	1236	3571	3780	1188	20.17	3.886	2.671	1.877	1.524	1.304	1.227	1.025	1.083	0.932	0.908	0.950	0.900	0.982	0.978	1.098	1.148	1.389	1.582	1.836	1.969	1.792	1.642	1.764	1.688	1.509	1.543	1.494	1.592	1.445	1.619	1.824	1.991	2.075	2.231	2.360	2.543	2.666	2.870	2.972	3.134	3.233	3.097	2.976	2.973	2.784	2.749	2.632	2.551
355.0	372.5	489.9	534.2	488.8	410.3	377.1	350.7	366.3	395.0	451.3	518.0	579.5	590.4	547.1	488.1	423.8	380.7	347.4	338.7	391.9	316.0	189.9	148.7	152.4	332.9	842.5	1870	5344	1895	26.33	3.808	2.701	1.884	1.494	1.265	1.239	1.147	1.058	0.911	0.946	0.906	1.005	1.150	1.148	1.195	1.331	1.588	1.773	2.002	1.752	1.654	1.693	1.915	1.789	1.662	1.646	1.684	1.654	1.793	2.050	2.099	2.243	2.246	2.320	2.590	2.618	2.763	2.838	3.017	3.038	3.033	3.050	2.991	3.016	2.856	2.749	2.812
360.0	359.0	476.6	525.1	487.8	450.5	412.1	392.2	397.5	432.3	463.9	517.7	575.7	587.1	547.8	502.4	452.3	409.3	377.3	348.5	367.7	408.9	268.4	179.6	142.1	151.4	240.3	477.1	2835	5567	330.7	17.68	3.447	2.543	1.926	1.443	1.400	1.001	1.159	0.968	0.949	0.892	0.889	1.036	1.136	1.269	1.455	1.628	1.796	1.959	1.714	1.694	1.932	2.060	1.822	1.856	1.922	1.968	1.906	2.022	2.163	2.167	2.350	2.349	2.530	2.495	2.708	2.858	2.845	3.117	3.127	2.838	3.174	3.035	3.057	2.917	2.958	2.957
365.0	358.2	453.5	515.6	503.2	475.6	440.1	421.7	433.0	449.2	484.4	533.4	575.8	585.0	557.8	517.8	476.3	435.8	404.9	374.1	357.1	396.9	369.5	228.1	164.0	130.2	120.9	153.3	731.1	3643	4809	280.9	8.944	3.048	2.095	1.472	1.508	1.130	1.185	1.056	0.980	0.868	0.887	1.014	1.097	1.302	1.617	1.637	1.815	2.047	1.738	1.745	1.973	2.059	2.135	1.819	2.057	1.991	2.045	1.989	2.206	2.369	2.339	2.475	2.545	2.570	2.747	2.839	2.772	2.946	3.121	3.187	3.212	2.977	3.156	2.854	3.076	3.300
370.0	360.0	464.4	522.4	521.4	501.9	489.0	468.0	472.3	478.5	515.7	548.7	583.1	582.5	562.6	534.0	496.6	467.5	440.8	410.8	387.1	374.9	390.0	342.7	223.2	156.9	118.9	99.27	209.5	925.4	2899	3303	1143	19.01	3.165	2.172	1.685	1.360	1.242	1.162	1.099	0.974	0.999	1.028	1.224	1.316	1.592	1.504	1.826	1.923	1.822	1.779	2.175	2.052	2.190	2.228	2.200	2.205	2.308	2.163	2.207	2.474	2.535	2.547	2.642	2.697	2.736	2.829	2.922	3.062	3.164	3.123	3.180	3.223	3.249	3.145	3.183	3.448
375.0	354.2	462.8	522.9	544.0	535.1	523.0	510.5	505.9	511.1	540.6	565.2	584.7	582.6	566.2	540.9	511.2	489.3	471.5	440.0	419.2	392.5	369.4	376.9	329.5	207.2	145.9	111.3	111.0	252.3	681.0	1431	4454	1835	24.47	3.155	2.157	1.615	1.497	1.332	1.133	0.880	1.127	1.211	1.239	1.255	1.460	1.485	1.784	1.865	1.828	1.794	2.275	2.181	2.112	2.403	2.306	2.488	2.604	2.357	2.360	2.585	2.513	2.690	2.584	2.639	2.620	2.739	2.997	3.139	2.997	3.132	3.142	3.209	3.193	3.288	3.233	3.619
380.0	353.8	463.9	532.0	551.5	548.9	548.1	535.5	535.8	532.8	550.0	572.8	585.0	583.6	562.1	542.5	511.9	503.5	483.2	462.3	439.9	408.3	374.7	355.9	371.8	275.5	176.0	131.5	103.6	113.9	190.7	357.5	2107	4522	1297	16.66	2.988	1.992	1.637	1.258	1.102	0.982	1.165	1.239	1.376	1.257	1.554	1.493	1.994	1.952	1.777	1.845	2.203	2.240	2.316	2.363	2.230	2.355	2.542	2.530	2.506	2.530	2.537	2.734	2.771	2.821	2.584	2.671	2.993	3.160	3.268	3.171	3.164	3.434	3.196	3.382	3.388	3.460
385.0	360.0	460.0	540.8	562.9	562.1	563.9	545.8	548.0	546.9	565.9	572.9	579.5	575.1	560.7	541.5	514.6	507.4	486.9	472.9	447.8	422.5	388.1	352.8	349.7	334.2	222.2	154.0	118.7	97.12	92.96	113.4	530.2	2576	3977	248.1	9.452	2.551	1.713	1.433	1.267	1.036	1.158	1.292	1.312	1.337	1.531	1.614	1.826	2.159	1.796	1.786	2.297	2.463	2.321	2.499	2.398	2.395	2.566	2.646	2.652	2.578	2.531	2.708	2.830	2.691	2.713	2.778	2.910	2.994	3.028	3.294	3.142	3.217	3.228	3.318	3.247	3.615
390.0	352.5	462.1	527.5	556.7	574.1	579.1	568.3	562.1	558.1	564.7	580.1	576.9	569.9	553.1	531.5	512.5	503.5	489.0	473.9	458.6	430.2	401.7	368.1	334.8	326.6	295.0	205.9	147.2	115.3	89.95	75.10	151.1	636.9	2023	2360	1034	16.97	2.763	1.930	1.471	1.267	1.239	1.192	1.295	1.379	1.505	1.563	1.979	2.098	1.974	1.891	2.235	2.471	2.386	2.552	2.464	2.581	2.476	2.537	2.669	2.697	2.609	2.823	2.736	2.719	2.745	2.868	2.908	2.986	2.958	3.110	3.112	3.156	3.220	3.249	3.410	3.741
395.0	368.1	461.1	524.4	561.2	577.3	582.5	576.9	577.1	563.9	570.3	575.9	575.7	560.7	543.3	527.5	504.7	492.3	484.4	472.0	454.6	435.9	410.0	380.1	341.8	311.4	298.0	279.5	190.6	141.6	111.0	83.63	81.10	173.7	473.3	875.5	2995	1578	23.17	2.809	1.966	1.524	1.464	1.195	1.304	1.420	1.588	1.662	1.818	1.887	1.986	1.896	2.317	2.442	2.525	2.470	2.458	2.744	2.449	2.454	2.715	2.791	2.688	2.823	2.575	2.689	2.755	2.658	2.694	2.929	2.656	3.104	3.245	3.045	3.152	3.435	3.423	3.425
400.0	369.2	452.2	532.8	567.3	592.4	588.5	590.5	577.4	573.0	573.1	566.8	569.7	555.6	537.9	516.4	498.2	482.0	474.0	466.3	455.0	433.7	410.4	383.2	352.3	315.0	285.9	291.6	243.5	168.7	130.4	99.11	74.93	77.32	132.7	218.4	1244	3172	1158	16.17	2.531	1.649	1.538	1.414	1.455	1.467	1.640	1.587	1.836	2.033	1.918	1.939	2.236	2.345	2.567	2.457	2.469	2.656	2.572	2.670	2.696	2.778	2.639	2.765	2.684	2.811	2.684	2.710	2.736	2.944	2.734	2.948	3.142	3.119	3.164	3.295	3.230	3.253
405.0	372.2	449.3	527.0	554.1	578.7	592.2	599.4	576.5	573.7	560.0	570.1	564.2	547.9	525.4	504.0	484.7	470.7	465.2	453.1	446.7	427.5	409.5	385.6	354.4	320.5	286.4	273.8	277.3	208.7	148.2	112.9	84.47	65.11	62.10	71.65	306.0	1556	2935	229.0	10.28	2.087	1.735	1.501	1.521	1.362	1.761	1.626	1.815	1.922	1.822	1.846	2.252	2.353	2.426	2.350	2.320	2.749	2.552	2.840	2.744	2.819	2.755	2.707	2.650	2.702	2.723	2.552	2.775	2.750	2.642	3.004	2.903	2.980	3.092	3.141	3.253	3.391
410.0	346.9	454.7	521.0	547.2	562.2	577.4	588.1	579.2	568.8	562.1	566.1	546.5	535.5	506.8	486.2	465.3	452.8	448.0	438.0	429.2	415.5	400.7	379.7	353.3	324.7	293.2	269.0	260.7	249.8	190.3	133.5	99.60	74.74	56.09	45.65	88.50	377.2	1322	1779	941.3	16.56	2.627	1.806	1.614	1.477	1.648	1.709	1.820	2.019	1.860	1.921	2.151	2.516	2.373	2.461	2.430	2.668	2.589	2.684	2.700	2.776	2.748	2.774	2.700	2.562	2.654	2.638	2.605	2.642	2.772	2.780	2.740	2.960	3.117	2.933	3.182	3.386
415.0	339.7	441.4	502.7	544.3	544.4	556.9	577.5	569.9	561.4	561.5	560.1	536.7	513.6	491.0	467.9	443.1	429.0	425.0	419.7	409.8	398.7	386.8	369.4	349.9	323.6	296.5	270.6	249.0	239.5	233.4	168.1	116.7	87.49	64.80	47.69	46.34	102.6	307.6	580.4	2028	1406	22.97	2.577	2.000	1.747	1.733	1.600	1.790	2.041	1.957	1.847	2.194	2.262	2.438	2.485	2.461	2.602	2.410	2.600	2.550	2.831	2.704	2.759	2.728	2.595	2.584	2.531	2.421	2.591	2.805	2.474	2.714	2.996	2.833	2.825	3.106	3.261
420.0	339.6	425.7	490.9	526.9	528.1	554.5	568.5	559.5	557.1	550.1	544.5	530.9	497.3	476.5	447.8	425.1	409.6	406.6	400.1	391.3	381.3	374.3	359.2	341.2	320.0	295.0	271.9	248.8	230.1	232.3	202.9	135.9	97.26	72.59	53.40	40.97	44.42	83.69	142.1	759.9	2291	1016	16.92	2.406	1.842	1.883	1.660	1.886	1.991	1.837	1.778	2.122	2.387	2.365	2.373	2.333	2.602	2.479	2.713	2.580	2.635	2.876	2.686	2.661	2.749	2.363	2.450	2.564	2.600	2.712	2.726	2.888	2.593	2.588	2.682	3.035	3.027
425.0	341.3	413.2	483.5	508.0	528.1	553.6	552.4	559.5	552.1	538.8	525.8	518.5	485.3	462.4	433.6	411.0	393.3	386.6	381.3	374.5	364.2	357.7	348.3	332.4	313.8	292.2	270.8	250.1	231.0	217.7	216.3	162.3	108.0	79.79	60.09	44.33	35.52	36.74	44.88	183.6	1003	2202	221.1	10.88	2.223	1.934	1.843	1.872	2.010	1.893	1.703	2.079	2.333	2.416	2.446	2.335	2.528	2.518	2.637	2.648	2.582	2.732	2.680	2.427	2.697	2.485	2.540	2.496	2.635	2.474	2.574	2.672	2.430	2.637	2.680	2.841	2.962
430.0	437.6	405.8	458.8	493.8	515.0	526.9	544.9	550.1	550.3	532.6	526.1	507.6	475.6	446.0	417.1	390.0	372.9	367.7	359.6	354.9	346.8	339.2	332.3	320.9	303.6	288.3	268.5	249.9	232.5	210.6	199.9	182.8	136.5	93.05	69.17	52.38	39.70	31.63	26.99	53.59	239.6	904.9	1473	864.6	15.86	2.682	2.068	1.936	1.974	1.821	1.715	2.121	2.179	2.316	2.211	2.356	2.467	2.541	2.593	2.611	2.633	2.556	2.604	2.443	2.552	2.487	2.459	2.440	2.462	2.462	2.523	2.458	2.465	2.588	2.534	2.566	2.695
435.0	783.2	409.2	435.0	489.9	507.7	524.6	537.8	537.8	542.4	528.2	519.5	493.0	462.7	428.7	397.2	370.3	355.2	348.8	340.7	332.7	328.3	323.2	314.7	305.7	294.9	280.3	266.2	248.9	233.7	214.4	191.7	173.0	160.8	117.0	79.59	60.28	47.62	35.52	27.07	27.88	65.38	210.5	442.5	1648	1319	22.22	2.648	2.172	2.013	1.793	1.633	2.075	2.044	2.275	2.227	2.211	2.320	2.416	2.445	2.450	2.754	2.555	2.749	2.617	2.399	2.440	2.374	2.414	2.334	2.374	2.452	2.432	2.413	2.188	2.427	2.424	2.567
440.0	1013	536.8	422.1	475.4	487.9	507.1	516.3	533.2	530.1	522.3	508.8	483.8	448.0	416.6	390.5	356.8	340.8	331.3	322.7	319.4	312.3	305.4	301.4	296.6	287.7	273.2	260.3	248.5	232.2	214.6	191.7	167.5	155.6	136.1	92.51	67.89	51.69	40.06	30.43	24.47	28.57	57.63	107.9	602.6	2003	969.0	15.29	2.579	2.264	1.796	1.764	2.033	2.177	2.207	2.248	2.203	2.339	2.427	2.527	2.519	2.724	2.588	2.727	2.546	2.301	2.431	2.422	2.451	2.292	2.283	2.504	2.451	2.468	2.368	2.219	2.549	2.545
445.0	958.1	887.6	418.1	443.0	473.9	481.8	507.2	523.8	522.4	514.8	503.4	474.2	437.3	403.5	370.1	343.1	325.0	312.6	307.9	304.9	296.9	293.4	288.7	283.3	276.8	266.4	251.7	241.1	229.0	212.2	191.5	165.2	145.8	138.7	108.8	73.57	56.44	44.27	34.70	26.56	22.95	25.28	33.86	145.9	861.9	2022	189.2	10.03	2.604	1.909	1.774	2.059	2.194	2.230	2.116	2.262	2.370	2.587	2.480	2.387	2.532	2.586	2.640	2.596	2.536	2.492	2.231	2.369	2.370	2.194	2.292	2.233	2.220	2.377	2.084	2.280	2.354
450.0	549.2	1342	640.7	425.0	445.1	462.5	488.6	499.7	498.5	498.8	484.0	456.9	419.0	380.7	351.0	322.8	303.6	292.0	284.7	282.1	275.6	271.2	269.1	264.3	258.4	249.1	238.0	230.9	219.5	207.4	188.4	162.4	140.2	126.0	116.3	89.62	63.54	48.41	38.48	30.22	24.67	20.85	19.17	41.52	205.3	822.9	1285	741.4	13.37	2.625	2.014	1.967	2.047	2.083	2.096	2.127	2.131	2.393	2.483	2.287	2.357	2.507	2.369	2.370	2.510	2.379	2.248	2.314	2.144	2.103	2.110	2.087	2.082	2.146	2.112	2.107	2.233
455.0	309.4	1092	1404	450.1	410.8	436.0	449.1	460.2	468.6	467.0	455.5	430.8	393.1	360.6	326.3	295.9	280.3	267.3	261.7	254.3	250.7	247.1	244.8	241.9	235.5	228.0	222.5	215.5	207.3	197.5	182.0	158.2	137.4	117.1	105.9	100.4	76.62	53.52	42.94	34.36	27.28	22.35	17.84	20.06	54.40	190.0	389.5	1341	983.8	16.07	2.326	2.121	2.125	2.091	2.090	2.025	2.174	2.243	2.246	2.250	2.288	2.389	2.257	2.338	2.406	2.260	2.208	2.113	2.182	1.945	2.083	2.094	2.015	1.955	1.966	2.070	2.153
460.0	236.3	602.4	1824	628.1	392.2	413.4	436.6	445.7	456.7	451.5	436.6	409.6	376.7	335.9	309.8	277.1	261.7	247.8	243.2	234.6	229.1	227.2	225.1	225.3	220.7	215.2	209.0	205.0	197.3	186.5	173.6	154.0	132.8	113.3	98.93	94.65	85.46	60.17	44.58	36.04	29.50	23.61	18.81	16.49	21.49	49.71	93.66	496.3	1524	619.7	10.87	2.343	2.031	1.993	1.935	1.995	2.005	2.211	2.189	2.103	2.209	2.327	2.325	2.289	2.169	2.146	2.044	1.991	1.934	2.150	2.003	1.974	2.067	1.833	2.014	1.838	2.047
465.0	222.8	356.2	1590	1266	383.0	387.0	412.5	420.9	428.2	426.9	421.4	397.9	358.2	320.8	291.2	263.7	242.9	229.7	226.8	216.9	212.1	211.8	211.2	210.1	204.8	201.8	196.0	190.5	187.0	178.1	165.9	148.6	130.1	109.4	94.98	85.38	85.18	68.44	47.92	38.17	31.16	24.98	20.61	16.52	15.01	19.34	27.37	119.3	693.3	1383	146.4	6.683	2.151	2.112	1.978	1.939	1.969	2.150	2.063	1.967	2.075	2.063	2.248	2.114	2.141	2.008	2.034	1.969	1.898	2.148	1.849	1.788	1.807	2.005	2.109	1.833	1.850
470.0	218.5	271.3	787.4	1826	716.4	358.0	368.9	389.0	399.2	393.2	388.3	367.0	330.6	296.6	267.8	242.3	221.2	210.2	202.9	195.1	192.5	190.7	188.6	187.2	185.8	181.6	177.8	174.5	172.1	165.3	153.8	139.7	122.7	104.9	91.24	78.70	73.58	69.54	55.78	40.81	32.37	26.47	22.30	18.19	15.11	13.61	13.51	32.86	165.3	609.4	933.3	518.4	11.81	2.450	2.016	1.904	1.950	1.937	1.951	1.954	2.070	1.930	2.018	1.957	2.030	1.939	1.908	1.856	1.712	1.824	1.749	1.656	1.721	1.722	1.729	1.811	1.820
475.0	220.9	243.3	376.5	1301	1583	368.2	336.6	352.8	361.0	362.0	360.3	338.2	300.3	274.1	239.7	216.2	199.6	189.5	180.9	175.1	173.1	169.1	166.2	167.5	165.1	162.5	159.7	158.8	155.9	151.2	141.7	129.2	115.7	99.73	86.63	73.69	65.62	61.75	59.64	45.52	33.57	27.93	23.81	19.80	16.37	13.43	11.45	14.02	42.56	140.2	289.2	935.0	619.9	15.44	2.203	1.819	1.860	1.881	1.774	1.764	1.830	1.851	1.806	1.872	1.726	1.871	1.754	1.665	1.708	1.674	1.756	1.660	1.497	1.494	1.619	1.555	1.536
480.0	222.0	240.7	261.5	675.3	2004	621.2	316.4	334.4	341.7	347.6	335.9	319.5	288.2	256.5	224.3	201.7	186.8	176.2	167.4	163.5	158.8	155.0	152.2	154.5	150.2	150.5	147.8	145.8	145.7	140.5	133.1	120.7	108.6	94.49	82.71	71.15	63.81	56.21	55.13	50.09	36.53	28.23	24.22	20.65	17.05	14.82	11.35	10.27	15.53	36.06	69.33	361.4	1109	183.1	9.604	1.828	1.882	1.888	1.882	1.628	1.712	1.799	1.776	1.933	1.622	1.688	1.651	1.869	1.636	1.635	1.578	1.512	1.587	1.522	1.374	1.462	1.455
485.0	187.1	252.8	236.7	361.6	1657	1230	306.2	315.3	326.5	327.9	317.7	296.8	272.9	235.2	212.7	188.4	174.7	163.5	157.3	152.3	147.6	144.6	144.0	143.3	140.8	140.6	138.2	135.8	134.9	132.8	126.7	114.3	103.7	90.96	80.13	69.38	61.28	53.88	50.37	50.46	42.09	29.83	24.84	21.04	17.51	14.98	11.73	10.12	9.583	13.00	19.69	87.26	568.6	1049	149.1	4.005	2.033	2.001	1.831	1.881	1.612	1.787	1.648	1.764	1.730	1.733	1.569	1.571	1.543	1.511	1.444	1.453	1.420	1.478	1.250	1.349	1.370
490.0	159.8	235.3	232.0	262.6	786.6	1845	573.0	292.1	300.6	299.6	296.3	279.8	255.7	222.1	197.6	172.1	161.6	150.4	143.8	136.9	135.1	131.2	130.7	130.1	127.9	126.7	124.3	124.9	123.9	122.3	116.6	106.8	97.14	85.98	76.76	66.76	58.83	51.60	45.93	44.98	43.69	35.15	26.20	21.07	18.74	15.31	13.13	10.90	8.962	8.366	9.014	23.48	136.9	508.3	881.4	393.8	11.38	2.170	1.871	1.775	1.747	1.736	1.588	1.637	1.714	1.620	1.473	1.446	1.490	1.510	1.424	1.335	1.409	1.286	1.219	1.373	1.332
495.0	137.0	200.1	246.8	212.4	346.5	1346	1436	296.6	282.2	270.3	273.1	257.6	233.0	202.2	180.0	158.9	147.0	135.4	127.7	124.5	120.9	117.0	118.1	116.0	114.1	112.5	111.7	112.5	110.8	111.3	106.0	97.54	89.32	79.91	71.71	62.05	54.78	48.14	43.82	39.20	38.02	39.00	29.84	22.32	19.62	15.98	13.53	11.37	9.736	7.752	6.911	9.401	34.11	116.8	324.4	960.3	201.7	13.20	1.878	1.755	1.729	1.714	1.573	1.529	1.444	1.517	1.515	1.337	1.332	1.344	1.311	1.389	1.333	1.233	1.195	1.268	1.248
500.0	119.9	163.6	239.8	210.5	235.0	683.9	1939	487.8	260.3	252.3	251.6	239.8	214.0	189.4	165.5	147.7	134.4	125.6	117.6	114.7	111.3	107.8	105.4	105.3	105.3	102.4	102.0	101.9	101.9	99.57	96.67	90.44	82.34	74.26	65.95	58.13	51.90	46.71	41.59	36.73	33.78	35.67	32.87	23.51	19.34	16.33	13.57	11.75	9.960	8.056	6.676	6.311	11.24	29.43	76.85	423.6	968.3	179.7	6.192	1.797	1.591	1.543	1.448	1.473	1.395	1.423	1.321	1.455	1.296	1.376	1.141	1.275	1.307	1.225	1.142	1.340	1.148
505.0	119.6	154.8	223.4	211.0	202.4	332.3	1741	1012	239.7	231.9	232.8	221.3	198.9	176.6	153.5	139.3	122.9	114.9	106.5	105.8	99.45	98.09	96.72	97.20	96.12	94.22	92.89	92.28	93.36	91.26	89.96	82.51	75.83	68.51	61.50	54.60	49.40	44.58	39.86	34.42	31.40	30.10	32.06	25.91	19.32	16.02	13.26	11.42	9.707	8.159	6.698	5.696	6.249	9.946	20.35	103.3	572.5	876.5	26.94	2.593	1.627	1.541	1.512	1.426	1.336	1.338	1.346	1.283	1.128	1.206	1.057	1.022	1.143	1.152	1.124	1.167	1.050
510.0	105.0	126.8	168.4	209.4	179.2	208.4	841.1	1765	446.8	207.1	206.7	196.7	178.2	154.9	139.7	120.8	109.2	102.1	95.73	91.92	88.03	86.34	84.24	83.57	83.06	82.21	81.44	80.88	81.75	80.84	78.98	73.59	67.70	60.88	55.05	49.31	44.72	40.37	35.58	31.70	28.54	26.30	27.20	26.77	21.07	16.10	13.27	11.45	9.395	8.024	6.842	5.882	5.227	5.676	7.649	25.73	140.7	476.3	640.2	114.1	8.793	1.507	1.496	1.214	1.322	1.331	1.263	1.120	1.084	1.081	0.969	1.083	1.041	0.962	1.037	1.122	1.033
515.0	87.44	106.9	128.9	185.7	177.8	161.1	323.1	1441	1272	208.5	180.4	172.7	154.2	136.6	120.4	107.6	95.91	87.99	82.60	78.67	76.16	73.76	72.95	73.07	71.09	69.76	70.09	69.32	70.75	70.44	68.23	63.84	59.13	53.72	48.48	43.39	39.55	35.83	32.15	28.36	25.75	23.40	21.72	23.29	22.68	16.75	13.14	11.02	8.994	7.821	6.934	6.137	5.100	4.662	4.653	8.526	33.84	108.7	262.9	668.4	185.8	8.667	1.481	1.198	1.116	1.171	1.134	1.004	1.037	0.933	1.011	0.897	0.967	0.948	1.026	1.022	0.962
520.0	86.34	95.91	115.9	159.2	182.6	142.8	182.3	748.2	1893	362.0	164.8	155.1	141.4	123.0	105.4	94.87	87.02	79.90	74.88	70.54	67.61	65.63	63.61	64.59	63.23	62.49	62.04	61.82	63.25	61.86	61.49	57.44	53.53	46.91	43.78	38.66	36.06	32.53	29.76	25.98	23.45	21.65	19.80	19.36	21.47	18.35	12.89	10.23	8.899	7.486	6.646	5.904	5.356	4.457	4.110	4.602	9.800	26.43	63.00	344.0	659.9	139.5	3.056	1.226	1.034	1.010	1.090	1.005	1.062	0.879	0.998	0.969	1.006	0.875	0.890	0.875	0.884
525.0	82.97	88.59	105.1	127.2	178.2	140.3	144.5	312.2	1832	862.4	154.3	141.1	130.0	112.1	98.28	86.44	78.27	72.96	67.39	65.42	60.59	59.28	57.47	57.47	56.44	55.83	55.65	55.39	56.03	55.74	54.62	51.27	47.12	43.26	39.72	35.71	33.79	29.38	26.51	24.09	22.13	19.94	18.44	16.64	17.70	18.42	14.16	10.26	8.304	7.362	6.078	5.675	5.423	4.518	4.107	3.772	4.592	8.162	16.14	86.20	432.9	560.0	24.85	1.622	1.119	1.028	1.103	0.960	0.882	0.844	1.018	0.869	0.859	0.832	0.829	0.841	0.825
530.0	74.24	80.67	91.31	104.6	145.6	150.4	123.0	162.4	892.2	1741	334.5	124.6	111.8	98.73	85.52	76.13	68.13	62.56	58.82	55.34	53.11	51.53	50.30	49.66	48.95	47.98	48.40	47.99	48.96	49.13	46.69	44.50	40.72	37.39	34.83	31.64	28.85	26.23	23.85	21.58	19.70	17.75	16.65	15.40	14.52	15.67	14.88	11.07	8.131	6.973	5.820	5.373	4.975	4.554	4.132	3.493	3.445	3.966	5.553	20.96	108.4	338.3	427.2	106.6	6.666	1.084	0.955	0.877	0.888	0.860	0.823	0.787	0.807	0.776	0.761	0.716	0.770
535.0	58.61	76.92	79.85	86.75	104.8	156.0	109.8	116.6	291.9	1556	1150	119.3	98.92	82.88	74.52	65.27	58.51	54.15	49.75	47.60	45.64	44.96	42.09	42.88	41.30	41.31	40.98	41.43	41.34	41.87	40.40	38.48	34.92	32.32	29.94	26.95	25.33	23.15	20.95	19.48	17.39	15.86	14.50	13.45	12.84	12.43	13.10	11.87	8.660	6.778	5.853	5.126	4.795	4.155	4.184	3.554	3.042	2.940	3.044	6.329	25.81	77.32	192.7	471.9	155.6	4.901	1.069	0.885	0.865	0.790	0.703	0.728	0.770	0.754	0.717	0.584	0.773
540.0	54.18	67.06	68.92	76.64	87.48	138.2	117.7	97.13	145.8	804.7	1905	176.9	87.45	76.91	67.85	58.57	53.03	49.04	44.78	43.03	39.99	39.75	38.41	38.32	37.02	36.38	35.73	36.42	36.98	37.40	35.32	34.45	31.01	29.41	26.83	24.79	22.75	20.66	18.76	17.74	15.80	14.10	13.11	12.23	11.36	10.56	10.71	11.69	9.368	6.551	5.429	4.835	4.218	3.936	4.009	3.501	2.821	2.583	2.408	3.049	7.293	18.68	46.61	257.8	460.1	27.52	1.989	0.853	0.863	0.778	0.658	0.676	0.713	0.795	0.738	0.760	0.724
545.0	50.37	61.61	62.70	69.86	71.24	109.8	127.9	87.79	104.8	306.4	1964	659.1	80.74	69.65	61.24	54.08	46.83	43.92	41.54	38.33	37.41	35.20	33.91	34.61	33.26	32.83	32.30	32.27	32.68	33.68	31.89	30.30	27.79	26.05	23.99	21.79	20.27	18.58	16.86	15.87	14.07	13.36	12.12	10.97	10.59	9.437	9.012	10.10	9.615	7.022	5.316	4.735	4.004	3.821	3.632	3.419	3.148	2.502	2.208	2.241	3.079	5.483	11.58	65.65	321.1	368.3	22.00	1.131	0.924	0.758	0.620	0.654	0.739	0.715	0.615	0.648	0.725
550.0	50.10	54.47	59.45	60.80	62.03	78.35	126.0	93.38	83.48	134.6	968.2	1562	212.5	62.58	52.60	46.01	40.11	38.49	35.78	33.34	32.40	31.00	29.70	29.83	28.86	28.30	27.79	28.11	28.32	28.50	27.65	25.88	24.60	22.56	20.72	18.64	17.71	16.41	15.20	13.54	12.63	11.74	10.97	9.693	9.400	8.529	7.696	7.623	8.395	7.588	5.641	4.241	3.869	3.587	3.312	3.035	3.048	2.661	2.168	1.989	2.013	2.474	3.685	15.77	81.51	243.2	264.6	93.47	4.728	0.784	0.605	0.656	0.624	0.614	0.624	0.577	0.568
555.0	46.76	48.11	53.77	55.10	52.38	59.05	95.62	107.4	75.05	85.57	287.2	1564	875.0	60.11	45.79	40.03	35.25	33.39	31.25	28.95	28.30	25.94	25.50	25.16	24.25	23.90	23.28	24.23	23.89	23.92	23.81	23.12	21.47	19.06	17.75	16.11	15.35	14.29	13.21	11.84	10.93	10.06	9.618	8.527	8.097	7.609	6.594	6.189	6.007	7.080	5.994	4.357	3.533	3.315	3.108	2.706	2.586	2.584	2.189	1.744	1.825	1.724	1.833	4.384	19.09	55.79	132.7	342.6	121.7	2.955	0.708	0.670	0.589	0.607	0.537	0.553	0.620
560.0	43.52	42.99	49.67	48.48	47.82	52.84	71.26	109.5	71.19	70.11	115.3	820.0	1643	108.5	42.52	35.63	31.28	29.07	27.62	25.49	24.34	23.30	21.83	22.83	21.33	21.17	20.16	20.60	21.33	20.53	21.00	19.78	18.35	16.78	15.39	14.74	13.59	12.82	11.88	10.55	9.629	9.280	8.688	7.720	7.444	6.834	5.905	5.439	5.272	6.019	5.978	4.721	3.551	3.037	2.761	2.622	2.364	2.345	2.176	1.932	1.716	1.415	1.352	1.937	5.261	13.42	32.52	192.1	322.5	25.76	1.370	0.754	0.625	0.628	0.504	0.460	0.580
565.0	41.41	42.63	41.53	44.91	42.01	47.34	54.42	99.69	80.63	64.37	75.04	288.0	1812	437.0	39.34	32.05	28.09	25.84	23.92	22.79	21.61	20.13	19.74	19.92	19.17	18.24	18.09	17.89	18.52	18.96	18.30	17.18	16.07	14.90	13.59	13.02	11.62	11.28	10.31	9.675	8.601	8.227	7.475	7.040	6.573	6.205	5.607	4.904	4.517	4.718	5.300	4.792	3.635	2.923	2.719	2.410	2.266	2.064	2.098	1.954	1.663	1.313	1.294	1.378	2.070	3.860	8.070	49.23	226.6	218.6	19.70	0.834	0.658	0.536	0.482	0.498	0.561
570.0	37.50	44.61	42.15	39.43	38.94	40.24	43.31	71.71	93.42	61.47	62.78	110.5	893.0	1241	77.30	26.55	23.60	21.39	19.85	18.83	17.51	16.85	16.13	16.17	15.58	15.19	14.81	15.17	15.23	15.57	14.86	14.36	13.33	12.19	11.26	10.46	9.632	9.182	8.588	7.989	7.356	6.935	6.335	6.017	5.679	4.913	4.613	4.252	3.852	3.666	3.856	4.334	3.607	2.693	2.340	2.047	1.985	1.800	1.860	1.741	1.589	1.361	1.193	1.107	1.242	1.711	2.552	11.81	57.69	159.0	196.6	64.79	2.987	0.606	0.590	0.495	0.545
575.0	42.61	43.29	41.79	37.05	35.14	35.46	35.80	47.72	88.66	72.73	60.33	71.44	253.1	1348	586.8	25.32	19.68	16.85	15.37	15.14	14.13	13.40	13.30	12.63	12.12	11.73	12.03	12.05	12.04	12.04	11.59	11.43	10.71	9.731	9.244	8.567	7.934	7.268	6.828	6.396	5.770	5.511	5.299	4.690	4.450	4.036	3.815	3.447	3.101	3.006	2.804	3.179	3.445	2.997	2.162	1.941	1.751	1.544	1.512	1.475	1.557	1.501	1.299	1.059	1.053	1.127	1.335	3.213	13.54	36.49	91.25	209.6	28.32	1.874	0.549	0.436	0.514
580.0	45.60	46.23	39.85	32.55	28.82	29.68	33.04	37.46	69.40	87.19	61.40	63.92	99.61	699.8	1247	58.70	16.41	14.74	13.04	12.22	11.73	11.29	10.57	10.24	9.749	9.621	9.734	10.03	10.00	9.862	9.682	8.906	8.554	7.684	7.303	6.843	6.528	6.165	5.504	5.215	4.782	4.605	4.439	3.876	3.835	3.592	3.244	2.875	2.578	2.353	2.150	2.269	2.814	3.029	2.223	1.618	1.522	1.378	1.341	1.309	1.253	1.447	1.260	1.011	0.880	0.959	0.951	1.349	3.670	8.741	22.17	114.0	175.2	22.85	0.862	0.436	0.469
585.0	40.52	50.49	43.31	32.38	26.72	26.18	29.61	35.29	53.58	95.52	68.44	64.33	66.06	236.5	1456	266.7	14.47	12.20	11.00	10.35	9.468	9.301	9.096	8.536	8.082	8.129	8.242	8.036	8.273	7.956	8.062	7.460	7.016	6.893	6.263	5.775	5.190	4.894	4.455	4.477	4.172	3.845	3.528	3.469	2.991	2.848	2.740	2.635	2.339	1.964	1.813	1.774	2.182	2.603	2.175	1.647	1.374	1.298	1.192	1.045	1.080	1.188	1.389	1.037	0.831	0.909	0.835	0.957	1.435	2.505	5.510	29.23	124.1	137.4	15.12	0.608	0.491
590.0	46.93	48.46	42.60	29.65	24.67	22.83	25.73	30.37	38.86	85.94	85.08	68.00	61.21	84.34	711.3	881.3	45.29	10.13	9.219	8.353	7.532	7.369	7.087	6.762	6.234	6.195	6.219	6.261	6.095	6.129	6.252	5.895	5.444	5.010	4.893	4.570	4.056	3.836	3.514	3.482	3.138	2.932	2.862	2.651	2.518	2.449	2.220	2.083	1.848	1.608	1.495	1.425	1.449	1.809	1.951	1.688	1.284	1.071	1.021	0.941	0.958	1.032	1.112	1.115	1.043	0.786	0.815	0.819	0.897	1.167	1.780	6.969	31.50	87.17	102.1	18.20	1.791
595.0	45.83	54.90	43.43	26.86	22.45	20.72	22.93	27.83	36.33	63.08	102.5	72.36	60.36	48.17	183.7	964.8	390.2	9.628	7.217	6.875	5.926	5.740	5.701	5.479	4.989	4.729	4.896	4.786	4.811	4.550	4.843	4.400	4.348	4.060	3.649	3.444	3.232	2.921	2.789	2.795	2.629	2.366	2.193	2.152	2.035	2.002	1.819	1.743	1.396	1.281	1.288	1.156	1.114	1.250	1.482	1.546	1.318	0.900	0.955	0.763	0.803	0.893	0.801	0.908	1.102	0.848	0.724	0.691	0.788	0.772	0.819	2.037	7.395	19.97	44.26	100.9	26.05
600.0	43.12	53.41	38.25	26.63	18.02	19.39	21.42	24.08	33.96	52.24	101.4	79.81	59.32	40.14	55.53	485.4	849.5	29.63	6.396	5.626	5.270	4.855	4.552	4.487	4.155	4.096	3.871	4.032	4.264	4.376	4.201	3.564	3.769	3.326	3.019	2.769	2.795	2.461	2.300	2.375	2.152	1.866	1.946	1.844	1.734	1.770	1.572	1.471	1.152	1.180	1.077	0.962	0.954	0.910	1.123	1.308	1.337	0.915	0.795	0.768	0.693	0.737	0.634	0.736	0.969	0.922	0.850	0.750	0.782	0.653	0.700	0.885	2.019	4.869	10.68	53.52	91.88
605.0	49.81	53.27	40.94	23.77	18.85	17.95	18.32	24.36	30.61	44.90	87.37	91.36	59.85	38.98	26.67	149.3	976.3	167.4	6.039	5.280	4.500	4.029	3.881	3.751	3.672	3.538	3.433	3.366	3.524	3.566	3.328	3.161	2.895	2.865	2.584	2.403	2.405	2.097	2.041	2.021	1.867	1.694	1.713	1.553	1.573	1.498	1.258	1.309	1.080	1.065	0.970	0.918	0.846	0.833	0.845	1.099	1.307	1.004	0.807	0.717	0.661	0.633	0.669	0.745	0.791	1.025	0.852	0.757	0.710	0.663	0.654	0.646	0.739	1.406	2.728	13.61	61.44
610.0	47.55	46.91	39.86	25.27	17.45	16.43	18.27	23.58	29.66	42.25	69.09	96.97	64.09	36.76	19.23	41.61	468.5	618.5	27.86	4.627	3.970	3.727	3.463	3.099	3.013	2.872	2.714	2.922	2.611	2.820	2.786	2.661	2.442	2.372	2.198	2.029	1.982	1.870	1.715	1.633	1.478	1.442	1.358	1.327	1.234	1.264	1.047	1.089	1.034	0.883	0.767	0.743	0.729	0.707	0.703	0.833	1.061	0.975	0.802	0.649	0.583	0.640	0.693	0.641	0.676	0.762	0.869	0.829	0.735	0.628	0.586	0.609	0.501	0.637	0.917	3.337	15.64
615.0	40.10	43.85	35.95	25.53	16.62	15.41	17.90	21.46	27.91	38.11	57.05	83.82	73.31	35.63	16.85	16.54	115.4	665.5	257.9	4.988	3.568	3.039	2.817	2.585	2.519	2.461	2.329	2.574	2.191	2.309	2.424	2.339	2.149	1.883	1.768	1.824	1.665	1.547	1.605	1.221	1.169	1.196	1.072	1.191	1.056	1.013	0.861	0.890	0.864	0.769	0.635	0.635	0.616	0.628	0.661	0.639	0.794	0.856	0.772	0.732	0.610	0.623	0.612	0.607	0.622	0.615	0.762	0.780	0.696	0.583	0.568	0.506	0.439	0.493	0.508	1.118	3.786
620.0	40.44	40.00	38.29	23.27	15.82	16.35	15.86	20.35	26.44	36.49	51.03	69.76	79.36	36.20	15.94	10.77	31.15	337.6	533.6	17.76	3.235	2.869	2.606	2.381	2.298	2.272	2.023	2.061	1.859	2.024	2.021	1.860	1.804	1.559	1.572	1.653	1.411	1.230	1.447	1.064	1.135	1.076	0.887	1.083	0.945	0.857	0.830	0.773	0.741	0.653	0.585	0.614	0.607	0.611	0.652	0.555	0.730	0.661	0.722	0.656	0.577	0.602	0.559	0.575	0.608	0.637	0.663	0.758	0.759	0.603	0.466	0.469	0.446	0.435	0.418	0.584	1.174
625.0	41.54	40.55	35.16	20.68	15.30	15.80	16.25	18.39	25.30	33.00	48.22	59.65	74.83	38.41	15.69	9.285	11.77	102.7	689.7	58.96	3.155	2.521	2.369	2.205	2.106	1.866	1.733	1.955	1.794	1.566	1.721	1.529	1.698	1.335	1.403	1.403	1.209	1.216	1.142	0.933	0.961	0.968	0.819	0.817	0.975	0.830	0.730	0.667	0.673	0.644	0.500	0.516	0.521	0.492	0.487	0.594	0.532	0.568	0.662	0.650	0.555	0.532	0.622	0.560	0.588	0.687	0.590	0.643	0.825	0.701	0.482	0.418	0.425	0.365	0.426	0.441	0.578
630.0	39.27	37.00	32.29	20.69	13.80	13.61	14.56	17.03	21.91	32.00	42.84	51.32	60.53	47.07	15.88	8.899	7.381	27.38	353.3	442.8	20.17	2.367	2.113	1.957	1.852	1.571	1.474	1.541	1.469	1.325	1.431	1.372	1.284	1.213	1.229	1.157	1.106	1.010	0.968	0.892	0.888	0.738	0.764	0.690	0.811	0.779	0.639	0.612	0.620	0.571	0.457	0.470	0.514	0.450	0.440	0.486	0.484	0.481	0.561	0.629	0.615	0.534	0.528	0.543	0.489	0.536	0.538	0.635	0.608	0.696	0.547	0.455	0.425	0.428	0.397	0.387	0.441
635.0	36.37	36.23	32.09	20.97	13.69	12.02	13.36	16.26	21.80	27.59	38.11	45.41	45.84	50.14	18.62	8.505	6.230	9.449	87.00	507.7	189.3	2.752	1.762	1.717	1.595	1.354	1.371	1.282	1.293	1.253	1.231	1.222	1.028	1.094	1.076	1.003	0.951	0.838	0.815	0.754	0.705	0.669	0.727	0.648	0.720	0.611	0.560	0.617	0.514	0.450	0.429	0.416	0.452	0.513	0.442	0.453	0.391	0.471	0.402	0.502	0.572	0.518	0.466	0.465	0.487	0.470	0.490	0.512	0.616	0.616	0.632	0.621	0.497	0.381	0.456	0.396	0.389
640.0	35.31	36.81	32.67	18.25	14.51	11.67	13.02	15.82	20.36	26.79	34.76	40.68	40.23	43.51	24.01	8.755	6.086	5.608	22.81	271.9	430.4	10.29	1.880	1.468	1.254	1.251	1.201	1.200	1.083	1.095	1.126	1.011	0.907	0.966	0.868	0.881	0.942	0.830	0.677	0.728	0.719	0.744	0.631	0.590	0.643	0.525	0.485	0.535	0.440	0.409	0.367	0.483	0.475	0.405	0.376	0.397	0.419	0.418	0.480	0.440	0.492	0.566	0.462	0.472	0.448	0.466	0.455	0.495	0.532	0.525	0.514	0.645	0.464	0.404	0.460	0.353	0.340
645.0	35.19	35.54	28.94	19.16	12.07	12.31	12.58	14.05	17.95	25.56	32.56	39.99	36.08	33.90	29.86	10.37	5.997	4.747	7.944	84.52	526.2	47.49	1.910	1.359	1.325	1.183	1.134	1.120	1.090	1.034	1.025	0.886	0.882	1.001	0.797	0.899	0.695	0.774	0.737	0.616	0.687	0.601	0.614	0.603	0.495	0.547	0.518	0.525	0.429	0.343	0.343	0.384	0.436	0.392	0.375	0.431	0.343	0.358	0.422	0.395	0.429	0.516	0.426	0.438	0.479	0.394	0.533	0.619	0.424	0.478	0.405	0.466	0.506	0.447	0.417	0.376	0.340
650.0	33.07	32.60	25.93	19.07	12.59	11.96	11.45	13.38	17.27	24.74	30.14	35.39	32.89	27.29	31.90	13.24	6.679	4.557	4.697	22.49	367.7	242.4	3.478	1.335	1.354	1.169	1.065	1.229	0.931	0.947	1.084	0.996	0.862	0.853	0.879	0.818	0.665	0.620	0.673	0.653	0.539	0.573	0.519	0.522	0.464	0.475	0.461	0.512	0.353	0.365	0.336	0.348	0.367	0.358	0.378	0.412	0.433	0.346	0.395	0.414	0.396	0.458	0.409	0.423	0.453	0.404	0.501	0.524	0.458	0.458	0.438	0.367	0.486	0.499	0.428	0.312	0.371
