Sample:	'1
File name:	L2025090904Î÷ËÄÂ·ÇÅ.FD3
Run date:	'15:11:41, 09/09/2025
Operator:	Administrator
Comment:	'

Instrument
Model:	F-2700 FL Spectrophotometer
Serial number:	3064-004
ROM Version:	4J14000 07

Instrument parameters
Measurement type:	3-D scan
Data mode:	Fluorescence
EX  Start WL:	220.0 nm
EX  End WL:	600.0 nm
EX Sampling interval:	5.0 nm
EM  Start WL:	230.0 nm
EM  End WL:	650.0 nm
EM Sampling interval:	5.0 nm
Scan speed:	12000 nm/min
EX Slit:	5.0 nm
EM Slit:	5.0 nm
PMT Voltage:	700 V
Response:	Auto 
Corrected spectra:	Off
Contour interval:	50.000

Peak integration
Integration method:	Rectangular
Sensitivity:	1
Threshold:	1.000

Peaks
No.	ApexEX/EM(nm)	Height(Data)
1	225.0/580.0	26.27
2	225.0/610.0	23.23
3	235.0/620.0	23.08
4	240.0/520.0	267.2
5	240.0/600.0	25.23
6	245.0/530.0	246.3
7	250.0/545.0	228.1
8	255.0/280.0	642.1
9	255.0/555.0	198.7
10	260.0/285.0	825.6
11	260.0/565.0	177.5
12	265.0/290.0	727.1
13	265.0/415.0	 1019
14	265.0/425.0	 1018
15	265.0/580.0	161.0
16	270.0/295.0	 1121
17	270.0/410.0	 1022
18	270.0/590.0	139.1
19	275.0/305.0	 1353
20	275.0/405.0	 1031
21	275.0/605.0	139.6
22	280.0/310.0	 1337
23	280.0/380.0	 1004
24	280.0/400.0	 1018
25	280.0/615.0	106.4
26	285.0/315.0	 1338
27	285.0/395.0	 1017
28	285.0/405.0	 1021
29	285.0/630.0	91.80
30	290.0/320.0	 1242
31	290.0/390.0	 1023
32	290.0/640.0	72.95
33	295.0/330.0	941.1
34	300.0/335.0	834.5
35	305.0/340.0	885.5
36	310.0/345.0	807.6
37	315.0/355.0	782.2
38	315.0/395.0	 1048
39	320.0/360.0	880.0
40	320.0/400.0	 1044
41	325.0/365.0	886.0
42	330.0/375.0	871.5
43	335.0/380.0	920.6
44	340.0/385.0	905.1
45	445.0/525.0	57.50
46	485.0/265.0	2.377
47	505.0/275.0	3.256
48	510.0/280.0	3.864
49	520.0/285.0	3.796
50	530.0/290.0	3.673
51	540.0/295.0	5.509
52	545.0/300.0	5.775
53	550.0/305.0	7.215
54	560.0/310.0	5.911
55	570.0/315.0	7.147
56	575.0/290.0	107.6
57	575.0/320.0	6.005
58	580.0/325.0	5.919

Data points
	220.0	225.0	230.0	235.0	240.0	245.0	250.0	255.0	260.0	265.0	270.0	275.0	280.0	285.0	290.0	295.0	300.0	305.0	310.0	315.0	320.0	325.0	330.0	335.0	340.0	345.0	350.0	355.0	360.0	365.0	370.0	375.0	380.0	385.0	390.0	395.0	400.0	405.0	410.0	415.0	420.0	425.0	430.0	435.0	440.0	445.0	450.0	455.0	460.0	465.0	470.0	475.0	480.0	485.0	490.0	495.0	500.0	505.0	510.0	515.0	520.0	525.0	530.0	535.0	540.0	545.0	550.0	555.0	560.0	565.0	570.0	575.0	580.0	585.0	590.0	595.0	600.0
230.0	22.23	 1183	 6630	 2851	152.2	8.566	8.774	5.389	5.283	6.710	5.271	3.964	4.302	5.219	3.799	3.639	3.296	2.872	2.949	2.668	2.479	2.348	2.688	2.182	2.136	1.627	1.698	1.600	1.553	1.711	1.600	1.493	1.469	1.241	1.251	1.305	1.137	0.999	1.035	0.685	0.901	0.766	0.889	0.660	0.578	0.545	2.090	7.594	12.26	8.853	3.331	0.713	0.329	0.363	0.251	0.212	0.271	0.230	0.243	0.182	0.239	0.109	0.082	0.158	0.213	0.086	0.039	0.115	0.030	0.022	0.037	0.019	0.011	0.014	0.006	0.013	0.014
235.0	49.94	292.9	 2989	 7326	 3454	227.9	12.59	5.231	7.716	8.269	6.498	4.765	4.995	5.329	3.820	3.815	3.316	2.909	3.095	2.710	2.154	3.097	2.141	2.432	2.091	1.464	1.884	1.590	1.480	1.775	1.515	1.625	1.559	1.381	1.088	1.166	1.263	1.107	0.933	0.738	0.721	0.876	0.896	0.942	1.005	0.482	0.967	2.314	4.793	8.557	11.99	11.53	5.571	1.236	0.376	0.339	0.322	0.277	0.337	0.239	0.212	0.225	0.077	0.204	0.043	0.250	0.176	0.137	0.083	0.058	0.044	-0.022	0.059	-0.028	-0.022	-0.010	-0.088
240.0	58.80	130.0	748.0	 4432	 7774	998.3	114.5	8.598	11.82	11.19	11.26	4.435	7.100	4.863	4.822	3.467	3.356	3.579	4.346	2.712	2.025	2.700	2.320	2.162	2.255	1.988	1.882	2.095	1.613	1.870	1.725	1.662	1.554	1.446	1.379	1.306	1.024	1.102	0.878	1.132	0.775	0.604	0.785	0.678	1.213	0.890	0.737	1.173	1.539	2.619	6.869	15.66	18.26	11.87	3.304	0.725	0.246	0.279	0.243	0.326	0.185	0.110	0.166	0.066	0.116	0.197	0.269	0.163	0.097	0.115	-0.002	-0.039	0.049	0.080	-0.032	0.069	0.022
245.0	34.84	122.3	229.0	 1166	 5550	 7694	835.9	54.45	10.60	12.78	9.476	5.843	7.511	6.577	4.627	3.501	3.794	3.545	3.268	3.187	2.414	2.653	2.594	2.220	2.169	2.663	1.414	2.367	1.889	2.201	1.585	1.724	1.475	1.254	1.359	1.495	1.079	1.140	0.845	1.028	0.604	0.738	0.738	0.788	1.028	0.786	1.284	1.197	0.883	1.050	1.981	5.579	13.52	21.95	21.26	11.14	2.467	0.446	0.191	0.332	0.244	0.225	0.060	0.149	0.152	0.281	0.145	0.161	0.100	0.099	0.040	0.068	0.151	0.073	0.087	0.016	0.091
250.0	19.13	64.63	176.2	368.5	 1474	 5137	9999.9	 3200	250.2	18.96	12.80	7.920	9.085	5.994	5.680	4.577	4.208	4.215	3.386	2.899	2.950	3.116	2.298	2.780	2.653	2.385	1.817	1.900	1.872	2.226	1.760	1.662	1.596	1.161	1.421	1.221	1.134	0.991	0.976	0.892	0.800	0.795	0.876	0.690	0.761	0.589	0.787	1.061	1.143	1.022	0.957	1.661	3.566	7.792	14.55	22.20	26.65	22.65	11.20	2.821	0.453	0.242	0.242	0.126	0.151	0.182	0.090	0.221	0.103	0.160	0.050	0.231	0.087	0.000	0.181	-0.081	0.070
255.0	20.15	30.67	87.13	296.9	465.0	 1200	 4343	9999.9	 4968	331.8	20.49	12.17	14.29	9.010	7.141	6.030	4.941	4.701	3.876	3.238	2.931	2.895	1.955	2.925	2.648	2.878	2.190	2.469	2.001	2.114	1.874	1.622	1.609	1.676	1.486	1.128	1.093	1.022	0.867	0.953	0.712	0.704	0.555	0.711	0.653	0.716	0.511	0.850	0.667	0.887	1.403	1.415	1.197	1.900	3.633	5.604	11.20	28.12	45.25	39.73	17.36	2.555	0.410	0.182	0.186	0.132	0.256	0.103	0.004	0.257	0.083	0.170	0.053	-0.010	0.009	0.076	0.117
260.0	23.82	36.63	45.88	185.3	386.0	369.2	 1079	 6255	9999.9	 4324	240.4	18.26	15.10	10.38	8.257	6.967	5.562	4.842	4.353	2.996	3.166	3.395	3.414	3.146	2.698	2.775	1.915	2.335	2.414	1.891	1.943	1.700	1.651	1.650	1.193	1.286	0.960	1.175	0.728	0.869	0.789	0.766	0.880	0.819	0.864	0.760	0.882	0.702	0.551	0.770	1.023	1.700	2.072	1.218	1.265	1.533	2.888	7.965	22.95	47.61	53.27	37.58	10.97	1.166	0.199	0.221	0.315	0.275	0.112	0.104	0.052	0.289	0.147	0.060	-0.008	0.066	0.000
265.0	23.80	28.35	38.92	74.11	300.2	370.0	304.6	 1713	9999.9	9999.9	 3575	89.60	21.71	12.91	9.779	8.417	7.820	6.200	5.331	4.142	4.152	3.656	3.669	3.010	2.952	2.635	2.747	2.343	2.822	1.997	2.081	1.718	1.638	1.583	1.161	1.208	1.110	1.406	0.838	1.004	1.006	0.805	0.832	0.718	0.987	0.802	0.600	0.687	0.558	0.585	0.551	1.095	1.756	2.377	1.511	0.917	1.184	2.113	5.790	16.06	38.36	71.79	51.94	29.98	5.172	0.486	0.302	0.197	0.075	0.211	0.061	0.177	0.149	0.043	0.037	0.092	-0.020
270.0	28.82	36.21	40.54	38.82	110.4	320.2	411.2	486.2	 2672	 9072	9999.9	 9449	196.7	23.49	15.02	9.852	7.970	7.395	5.819	5.407	3.903	3.725	3.994	3.358	3.336	2.719	2.931	2.604	2.696	2.467	2.326	2.224	1.816	1.868	1.456	1.404	1.324	1.155	1.039	0.869	1.018	0.737	0.722	0.767	0.801	0.666	0.613	0.739	0.765	0.663	0.542	0.761	0.786	1.200	1.829	2.017	1.844	1.477	1.796	3.917	9.600	22.81	39.22	62.64	63.02	62.07	20.79	5.429	0.498	0.217	0.273	0.197	0.141	0.106	0.210	0.020	0.200
275.0	35.79	55.04	53.55	35.21	46.45	115.2	401.1	575.1	686.5	 2112	 5023	9999.9	9999.9	240.5	23.55	15.30	11.54	8.227	7.001	6.788	4.754	4.385	3.514	3.470	3.502	3.370	3.337	2.750	2.835	2.825	2.448	2.200	1.918	2.320	1.781	1.222	1.224	1.424	1.186	1.252	0.920	1.000	0.876	1.022	0.878	0.804	0.739	0.729	0.674	0.648	0.627	0.703	0.614	0.666	0.818	1.322	2.706	3.256	2.135	1.595	2.592	5.536	9.142	15.18	25.87	67.97	116.6	53.25	28.86	4.368	0.497	0.299	0.270	0.437	0.179	0.178	0.097
280.0	57.65	73.62	59.83	42.33	36.82	56.68	176.0	642.1	524.8	555.3	 1282	 6621	9999.9	9999.9	149.1	21.65	14.42	10.63	8.189	7.669	5.084	5.325	4.319	4.261	4.273	3.914	3.918	3.157	2.901	2.898	2.622	2.377	2.212	1.965	1.748	1.612	1.446	1.114	1.124	1.028	0.897	1.086	0.990	1.039	0.998	1.000	0.934	0.732	0.876	0.769	0.672	0.609	0.552	0.495	0.507	0.628	1.427	2.067	3.864	2.834	1.752	1.765	2.573	4.053	6.391	18.68	51.96	98.44	140.7	49.32	18.53	1.034	0.616	0.400	0.156	0.217	0.231
285.0	104.5	78.39	87.61	57.39	41.53	51.11	78.84	350.5	825.6	380.1	397.5	 1753	9999.9	9999.9	 2114	85.70	20.55	12.94	10.42	9.102	6.015	6.244	4.625	5.180	3.927	3.537	3.582	3.489	3.352	3.098	2.700	2.437	2.321	2.326	1.843	1.621	1.423	1.190	1.127	1.015	0.990	1.014	0.884	0.856	0.935	0.959	0.911	0.944	0.913	0.866	0.658	0.613	0.498	0.547	0.544	0.759	0.890	1.364	2.161	3.537	3.796	2.443	1.225	1.449	2.133	4.727	12.75	30.02	81.26	136.9	149.1	40.08	8.012	0.615	0.215	0.364	0.272
290.0	121.7	120.1	133.1	92.15	67.97	70.38	76.48	158.6	503.7	727.1	428.6	608.3	 2699	 9483	9999.9	 8110	118.5	22.77	14.71	11.56	8.167	6.998	6.052	5.248	4.142	4.150	3.882	3.934	3.008	3.060	2.807	2.641	2.437	2.363	2.167	1.812	1.790	1.515	1.477	1.319	1.187	1.228	1.026	1.050	1.055	1.111	1.073	1.162	1.148	0.953	0.880	0.996	0.631	0.689	0.685	0.734	0.686	0.830	1.101	1.585	2.529	3.537	3.673	2.728	1.883	1.978	3.816	7.700	19.76	40.19	80.18	107.6	94.16	99.99	25.06	7.733	0.760
295.0	125.5	158.3	178.5	142.7	98.26	100.3	106.9	142.1	254.9	525.4	 1121	548.0	925.3	 2380	 4294	9999.9	9999.9	151.5	22.43	17.16	11.55	7.744	7.815	6.344	4.807	5.428	4.392	3.840	3.429	3.673	2.915	2.666	2.779	2.449	2.382	1.975	1.720	1.711	1.539	1.562	1.315	1.369	0.895	1.193	1.553	1.114	1.346	1.430	1.290	1.165	0.962	0.942	0.880	0.807	0.741	0.804	0.945	1.146	0.984	1.110	1.604	1.863	2.995	5.127	5.509	3.094	2.519	3.358	5.884	10.31	18.78	25.43	33.51	94.63	171.5	163.3	38.87
300.0	174.9	192.0	214.4	178.6	129.4	120.6	123.3	155.6	226.5	364.1	959.3	 1202	660.2	842.1	 1205	 5858	9999.9	 9317	109.3	22.59	14.28	12.04	8.574	7.307	5.717	4.778	4.738	4.147	3.794	3.981	3.396	2.928	2.844	2.491	2.233	1.961	2.205	1.889	1.758	1.431	1.426	1.395	1.241	1.414	1.547	1.515	1.364	1.389	1.249	1.170	1.028	1.079	0.932	0.980	0.925	0.788	0.941	1.300	1.163	1.133	1.442	1.691	1.931	2.716	5.096	5.775	4.522	2.830	3.425	3.909	5.312	6.849	8.680	24.08	66.10	156.0	210.7
305.0	182.0	223.1	270.1	192.7	150.3	137.8	157.4	183.2	233.4	351.1	639.4	 1353	 1038	585.5	540.0	 1544	 9139	9999.9	 6611	74.00	20.41	13.91	10.70	8.565	7.302	5.372	4.906	4.584	4.243	4.069	3.512	3.288	2.956	2.448	2.442	2.015	2.078	1.855	1.795	1.753	1.376	1.581	1.322	1.532	1.383	1.840	1.744	1.399	1.506	1.431	1.075	1.050	1.081	1.307	0.861	1.024	1.050	1.211	1.365	1.334	1.490	1.444	1.884	2.099	3.026	4.550	7.215	5.853	3.289	2.787	2.782	3.301	3.336	6.396	15.87	41.66	104.9
310.0	217.9	239.5	289.0	228.4	182.6	157.1	178.9	218.9	290.1	384.9	555.5	896.9	 1337	997.2	480.6	552.2	 2281	 8511	9999.9	9999.9	89.67	22.38	14.75	11.32	9.103	6.646	6.130	5.029	4.666	4.325	3.904	3.686	3.487	2.908	2.739	2.636	2.088	2.010	1.767	1.760	1.660	1.685	1.514	1.533	1.674	1.809	1.825	1.675	1.737	1.452	1.357	1.121	1.177	1.206	1.088	1.075	1.177	1.313	1.478	1.401	1.515	1.733	1.944	2.116	2.700	3.197	4.363	5.489	5.911	5.294	3.878	2.665	2.239	2.832	4.787	10.49	24.84
315.0	293.3	257.2	327.5	263.4	202.0	182.6	206.8	253.5	321.1	415.5	559.4	743.1	945.0	 1338	850.2	388.3	666.1	 2010	 3926	9999.9	 8484	116.5	22.28	15.09	9.877	7.848	7.490	5.862	5.277	4.656	4.040	3.717	3.413	3.385	2.732	2.645	2.438	2.267	1.656	2.042	1.715	1.522	1.705	1.701	1.745	1.822	1.510	1.671	1.585	1.612	1.308	1.117	1.423	1.228	1.055	1.477	1.223	1.615	1.563	1.457	1.517	1.705	2.090	2.221	2.554	3.082	3.500	3.560	4.512	5.229	7.147	5.275	2.883	2.342	2.161	3.614	6.436
320.0	268.7	293.9	354.6	285.8	216.8	198.8	226.4	274.1	343.8	454.2	591.3	738.2	817.1	 1025	 1242	541.8	338.6	574.5	989.6	 5823	9999.9	 7311	87.19	21.67	14.52	10.02	8.260	7.042	5.672	6.090	4.445	4.285	3.947	3.131	2.636	2.502	2.356	2.431	2.312	2.095	2.004	2.013	1.548	1.816	1.883	1.677	1.896	1.844	1.908	1.521	1.417	1.392	1.132	1.390	1.346	1.349	1.658	1.558	1.936	1.830	2.016	1.912	2.240	2.787	2.816	2.623	3.286	3.173	3.632	4.191	5.290	6.005	5.161	3.377	2.113	2.283	2.524
325.0	249.5	324.1	384.9	330.6	252.1	216.3	240.5	299.8	364.0	490.3	611.8	745.8	815.6	824.1	 1128	924.1	348.9	285.0	334.3	 1449	 9674	9999.9	 5566	61.72	20.74	12.81	9.956	8.228	6.454	6.878	5.688	5.038	4.055	3.141	3.073	2.617	2.774	2.490	2.170	1.922	2.083	2.001	1.715	1.631	1.891	1.530	2.135	2.163	1.923	1.698	1.434	1.465	1.377	1.216	1.333	1.401	1.811	1.774	1.739	1.967	1.938	2.064	2.288	2.909	2.811	3.086	3.051	3.354	3.553	3.297	4.268	4.510	5.919	5.652	4.043	2.551	1.972
330.0	245.8	343.6	442.7	397.7	301.9	256.9	274.1	334.7	413.0	520.0	648.3	766.6	855.5	817.8	845.6	941.1	735.8	342.2	235.1	445.3	 2362	 8704	9999.9	9999.9	353.6	21.21	14.19	10.64	8.315	7.338	6.109	5.356	4.437	3.663	3.276	2.796	2.710	2.365	2.313	2.049	2.032	2.191	2.020	1.949	2.019	1.947	2.296	2.379	2.049	1.816	1.911	1.954	1.304	1.404	1.454	1.682	1.638	1.674	1.838	2.094	2.023	2.354	2.511	2.763	3.037	3.219	3.474	3.193	3.433	3.742	3.800	3.841	3.784	4.512	5.188	5.101	4.233
335.0	239.2	359.8	470.3	445.4	345.9	320.4	325.1	355.3	447.9	565.5	688.0	815.4	882.8	857.9	795.1	717.8	834.5	707.4	306.1	274.8	655.0	 2049	 4281	9999.9	9999.9	95.27	21.62	14.80	10.29	9.073	7.200	6.470	5.922	4.606	3.776	3.000	2.489	2.327	2.182	2.214	2.180	2.256	2.145	1.942	1.841	2.277	2.238	2.616	2.431	2.226	1.940	2.126	1.825	1.576	1.745	1.688	1.647	1.822	1.928	2.283	2.040	2.489	2.601	2.831	3.205	3.732	3.615	3.385	4.101	4.151	3.903	3.983	3.809	3.886	3.800	3.977	4.935
340.0	253.0	342.1	468.0	476.4	411.5	372.4	362.0	396.8	486.2	568.7	697.6	823.0	885.9	867.6	806.8	686.8	675.1	885.5	528.8	291.2	325.1	596.9	 1086	 6785	9999.9	 6069	75.72	21.24	13.12	10.66	8.428	6.697	6.235	4.498	4.767	3.983	2.889	2.442	2.396	2.101	2.055	2.260	2.331	2.122	2.021	2.431	2.215	2.825	2.399	2.297	2.031	2.056	2.025	1.926	1.797	1.709	2.003	2.340	2.427	2.366	2.228	2.394	3.017	2.944	3.227	3.523	3.909	3.637	4.357	4.303	3.987	3.441	3.799	3.597	3.565	3.514	3.644
345.0	256.9	367.3	490.1	494.4	449.3	412.4	400.8	439.8	506.5	595.1	724.1	826.9	916.2	879.0	847.0	724.0	620.8	753.5	807.6	411.7	302.7	311.8	386.1	 1707	9999.9	9999.9	 4875	56.34	18.61	14.61	10.39	8.555	6.194	5.267	4.913	3.948	3.472	3.376	2.799	2.493	2.343	2.336	2.251	2.048	1.930	2.310	2.522	2.446	2.802	2.273	2.198	2.423	2.234	1.971	1.756	2.019	2.069	2.585	2.396	2.083	2.171	2.533	2.928	3.095	3.446	3.476	3.717	4.091	4.124	3.927	4.208	3.976	3.827	3.723	3.701	3.429	3.539
350.0	259.5	362.9	494.3	505.0	483.6	471.5	471.8	489.9	568.8	640.8	731.0	840.1	911.6	922.8	877.1	771.9	668.8	659.3	770.3	744.6	450.5	337.3	292.1	538.5	 2509	9999.9	9999.9	9999.9	314.1	21.44	14.18	10.96	8.003	5.807	5.397	4.134	3.681	3.255	2.964	2.536	2.571	2.643	2.365	2.194	2.138	2.486	2.563	2.753	2.783	2.279	2.303	2.654	2.112	2.360	1.843	2.259	2.294	2.258	2.361	2.199	2.708	2.885	3.183	3.162	3.524	3.482	3.652	3.744	3.942	3.829	4.131	4.108	4.050	3.859	3.718	3.648	4.015
355.0	244.3	369.3	495.6	515.8	561.6	543.5	534.9	554.0	615.0	691.4	769.4	864.1	926.4	928.6	914.9	828.8	737.4	701.8	699.1	782.2	775.2	477.0	352.3	347.8	732.7	 2357	 5092	9999.9	9999.9	86.84	23.02	15.20	10.23	7.849	7.158	4.537	4.243	3.733	3.258	2.771	2.673	2.388	2.291	2.570	2.621	2.792	2.385	2.748	2.704	2.532	2.561	2.648	2.519	2.521	2.428	2.524	2.544	2.328	2.796	2.878	2.719	3.142	2.981	3.324	3.358	3.838	3.707	3.711	3.835	4.120	4.087	4.298	4.670	4.213	4.344	4.005	4.825
360.0	239.9	354.3	489.3	563.8	571.0	597.7	596.7	606.1	668.0	710.5	801.4	874.0	947.4	939.8	917.0	859.9	789.5	755.4	721.5	723.1	880.0	695.5	436.9	355.5	379.2	689.5	 1291	 8084	9999.9	 5481	69.55	19.31	13.95	9.185	7.301	5.529	4.355	3.413	3.507	2.986	2.592	2.849	2.190	2.228	2.500	2.661	2.388	2.753	2.805	2.587	2.606	2.864	2.739	2.467	2.854	2.620	2.805	2.845	2.941	2.840	2.820	3.365	3.377	3.290	3.145	3.730	3.935	3.710	4.022	4.424	4.125	4.609	4.228	4.886	4.420	4.319	4.330
365.0	250.4	355.6	491.8	592.4	600.9	613.5	611.2	642.0	689.5	749.9	821.2	882.5	951.8	952.6	947.7	886.8	840.7	809.5	774.5	752.9	819.7	886.0	586.5	423.9	350.6	363.0	438.3	 2052	9999.9	9999.9	 4414	49.81	18.04	11.24	7.949	6.882	4.941	4.089	3.756	3.095	3.041	2.726	2.492	2.693	2.592	2.588	2.619	2.905	2.648	2.612	2.519	2.903	2.624	2.862	2.812	2.995	3.167	3.306	2.952	3.281	2.900	3.460	2.914	3.518	3.411	3.780	3.789	4.121	3.953	4.277	4.267	4.417	4.354	4.458	4.561	5.015	4.330
370.0	266.3	366.7	504.1	593.4	672.6	673.3	697.1	709.4	752.6	798.7	855.5	910.6	957.8	968.5	966.7	927.9	904.0	869.1	856.5	819.2	814.7	865.4	844.0	598.7	428.4	356.1	306.2	613.8	 2607	9999.9	9999.9	9999.9	261.7	17.63	12.09	8.306	6.100	5.327	4.347	3.762	3.246	2.852	2.718	2.720	2.635	2.895	2.787	3.040	2.717	2.755	2.699	3.026	2.845	3.055	2.966	3.022	3.415	3.595	3.064	3.436	3.264	3.501	3.573	3.809	3.641	3.656	4.035	4.329	4.173	4.418	4.540	4.802	4.678	4.339	4.880	5.104	4.796
375.0	280.6	356.8	532.6	624.4	704.7	717.9	758.6	771.7	804.2	855.6	910.5	957.9	985.0	982.2	976.7	960.0	946.7	923.7	922.4	898.6	880.7	845.7	871.5	857.6	579.3	436.3	348.4	347.9	735.6	 2349	 6215	9999.9	9999.9	70.12	19.15	12.16	8.173	6.787	5.111	4.345	3.403	3.326	3.173	2.801	2.706	2.687	3.292	2.808	2.611	2.922	3.127	3.229	2.921	3.388	3.449	3.394	3.692	3.679	3.674	3.792	3.240	3.460	3.650	3.578	3.974	4.058	3.905	3.905	4.699	4.560	4.232	4.489	5.225	4.471	4.882	5.011	5.338
380.0	265.8	378.8	517.0	625.5	727.5	758.0	799.0	789.7	818.8	888.6	927.3	966.2	 1004	984.2	999.5	974.8	963.9	973.1	964.9	951.3	925.4	885.8	854.0	920.6	769.1	520.0	406.7	330.7	350.1	660.8	 1556	 9940	9999.9	 4483	54.02	16.99	11.16	9.094	5.488	4.547	4.227	3.433	3.657	2.960	2.954	3.318	3.016	3.176	3.119	2.997	2.750	3.568	3.428	3.625	3.524	3.606	3.867	3.863	3.949	3.633	3.830	3.780	3.439	3.766	3.614	4.505	3.705	4.245	4.496	4.793	4.474	4.598	4.945	4.935	4.759	5.007	5.860
385.0	277.4	385.8	543.8	623.7	742.2	777.3	837.9	852.5	874.2	892.9	941.4	977.5	985.4	 1003	 1009	987.2	984.7	993.0	 1003	997.8	964.2	930.0	870.2	871.9	905.1	647.3	472.7	374.4	300.8	315.0	466.6	 2539	9999.9	9999.9	 3447	38.44	14.26	9.756	6.648	5.335	4.340	3.700	3.742	3.313	3.461	3.251	3.321	2.902	3.338	2.911	2.716	3.106	3.462	3.584	3.751	3.309	3.931	3.588	3.377	4.012	3.658	3.959	4.026	4.060	4.235	4.030	4.372	4.647	4.199	4.292	4.627	4.851	4.749	4.886	5.364	5.109	5.299
390.0	299.3	388.6	551.4	661.2	770.8	814.6	866.0	889.2	903.0	913.7	951.9	997.8	998.9	 1016	 1023	991.6	 1003	 1014	 1020	 1016	 1003	980.3	919.2	863.1	871.8	828.0	615.9	459.4	360.0	291.7	267.3	683.2	 2707	9999.9	9999.9	9999.9	44.79	14.56	9.497	7.280	5.656	4.265	4.190	3.808	3.531	3.306	3.248	3.376	3.463	3.180	2.908	3.625	3.508	3.690	3.436	3.642	3.875	3.798	3.669	3.633	3.832	3.955	4.209	3.967	4.352	4.043	4.367	4.325	4.523	4.482	4.830	5.044	4.426	4.823	4.865	4.986	5.545
395.0	307.8	401.6	540.2	653.9	806.5	815.8	883.8	910.6	930.7	946.0	991.8	 1002	 1010	 1017	 1014	 1003	998.7	 1027	 1036	 1048	 1037	 1011	964.7	909.9	841.8	836.1	803.8	590.0	437.9	340.8	271.3	309.8	713.6	 2327	 6271	9999.9	9999.9	57.81	14.83	9.342	6.880	5.629	4.462	3.934	3.716	3.412	3.544	3.519	3.376	3.259	2.993	3.397	3.727	3.623	3.819	3.904	4.590	4.027	4.037	3.765	4.065	3.946	4.308	3.843	4.599	4.424	4.086	3.834	4.119	4.491	4.649	5.361	4.787	4.910	4.995	5.759	5.411
400.0	314.5	400.9	547.9	662.5	792.1	849.4	888.6	935.8	947.0	974.4	991.6	 1004	 1018	 1014	 1014	 1004	985.5	 1024	 1028	 1041	 1044	 1023	977.9	933.4	856.2	823.5	836.1	726.1	502.1	396.7	313.2	254.9	290.0	612.5	 1552	 9382	9999.9	 3628	43.24	12.00	8.442	6.860	5.428	4.406	4.110	3.711	3.701	3.560	3.392	3.179	3.137	3.700	3.867	3.777	3.759	3.950	4.206	4.236	4.443	4.313	4.174	3.921	4.443	4.364	4.584	4.628	3.684	4.180	4.284	4.830	4.284	4.923	4.676	4.909	5.203	5.167	5.604
405.0	297.8	392.8	548.3	655.8	795.1	854.4	895.8	938.3	986.9	992.2	 1006	 1031	 1001	 1021	995.1	999.5	997.7	 1011	 1025	 1034	 1035	 1021	985.2	944.5	885.2	821.3	794.0	805.9	602.5	451.0	353.7	271.9	219.8	246.2	429.2	 2423	9999.9	9999.9	 2718	30.12	10.25	7.702	6.436	4.706	4.536	3.607	3.615	3.235	3.588	3.283	3.358	3.625	3.782	3.771	4.126	3.825	3.921	4.116	4.392	4.002	4.100	4.359	4.334	4.464	4.265	4.083	3.761	4.661	4.329	4.607	4.114	4.679	4.769	4.807	5.057	5.288	5.798
410.0	307.1	380.7	541.0	667.7	790.8	843.1	887.3	953.4	980.5	995.6	 1022	 1015	 1001	 1000	998.0	978.9	971.7	990.2	 1009	 1011	 1020	 1008	979.0	947.4	897.7	845.4	786.8	767.5	723.3	558.6	408.6	314.0	239.8	192.9	196.8	616.1	 2636	 9863	9999.9	 6836	37.17	11.05	8.022	6.133	4.897	4.136	3.774	3.693	3.594	3.274	3.272	3.725	4.043	3.628	3.801	3.853	4.097	4.327	4.038	3.969	4.431	4.196	4.087	4.395	4.327	4.240	4.349	4.259	4.236	4.596	4.722	4.432	4.403	4.573	4.928	5.434	5.766
415.0	296.7	388.0	525.4	670.4	763.9	849.6	892.1	974.7	 1002	 1019	 1003	991.9	 1002	988.3	953.0	945.5	936.8	955.9	969.3	980.3	991.5	980.9	963.7	938.8	895.1	854.5	793.1	741.2	707.5	688.1	494.3	361.6	276.8	215.1	166.5	228.1	653.8	 2260	 5216	9999.9	 3591	49.17	10.75	7.352	6.179	5.174	3.765	3.888	3.911	3.153	3.144	3.300	3.970	3.552	3.788	4.029	4.145	4.280	3.824	4.395	4.179	4.078	4.477	4.645	4.623	4.243	4.304	4.227	4.522	4.316	4.136	4.481	4.430	5.275	4.977	5.014	5.383
420.0	302.2	374.3	483.3	637.8	745.6	822.2	880.8	952.5	999.6	 1009	992.5	986.9	993.5	963.7	934.7	918.1	909.4	913.9	934.0	957.4	960.0	947.1	937.5	922.4	880.1	846.2	779.5	731.9	685.0	692.4	590.0	403.0	310.3	236.8	179.5	154.8	221.3	560.7	 1267	 7137	9999.9	 3136	36.58	9.441	7.276	6.021	4.388	4.709	3.883	3.072	3.342	3.746	3.790	3.957	3.998	3.882	3.880	3.789	4.025	4.320	4.192	4.150	4.680	4.345	4.277	3.775	3.826	4.106	4.745	4.108	4.123	4.535	4.114	4.589	4.954	4.956	5.172
425.0	295.5	375.0	498.1	628.7	745.6	802.5	874.5	929.7	997.6	 1018	 1002	990.7	979.4	932.3	921.0	898.5	888.1	882.0	904.8	914.8	916.2	909.5	913.4	895.7	873.5	839.1	789.1	733.5	676.9	645.8	636.0	477.1	337.9	256.9	196.9	153.3	135.7	190.0	332.3	 1825	 9487	9999.9	459.2	23.20	7.697	6.703	4.991	4.471	4.009	3.370	3.182	3.520	3.670	3.729	3.786	4.001	4.268	3.935	4.111	3.935	4.025	4.530	4.433	4.227	4.217	3.832	3.796	3.951	4.359	4.187	4.495	4.457	4.211	4.341	4.259	4.717	4.764
430.0	635.5	365.6	480.5	602.2	728.2	797.1	855.7	916.2	967.6	996.8	985.0	969.7	956.8	929.9	907.5	865.4	837.5	842.6	863.4	868.3	875.5	871.8	871.2	856.9	839.9	819.4	777.5	731.7	678.9	626.1	601.1	544.6	409.5	292.2	223.0	174.0	135.4	121.0	133.0	452.1	 2395	 7472	9999.9	 5056	33.21	9.302	6.170	5.486	4.412	3.651	3.424	3.635	3.891	3.566	3.786	3.730	4.265	4.255	3.948	4.149	4.257	4.392	4.620	4.206	4.145	3.838	4.030	4.002	4.113	3.873	4.350	4.240	4.032	4.172	4.056	4.353	4.758
435.0	 1551	440.4	448.3	572.4	708.1	770.0	838.7	894.2	925.0	972.1	987.3	962.9	939.3	900.4	863.8	819.5	792.2	798.7	807.7	817.0	831.0	824.3	819.9	816.1	811.0	780.0	756.9	723.0	671.7	624.1	570.8	520.7	483.8	353.7	252.9	200.1	151.9	124.5	102.0	155.8	575.8	 1706	 4344	9999.9	 3298	44.15	8.689	7.107	5.445	4.364	3.466	3.698	4.118	3.967	3.829	3.753	4.326	4.171	3.851	4.047	3.920	4.327	3.993	4.256	4.097	3.990	4.085	3.799	3.948	3.926	4.120	3.872	4.085	3.978	4.170	4.365	4.254
440.0	 1930	881.2	450.9	571.5	664.3	742.6	818.0	861.4	931.5	943.7	977.5	954.5	899.2	881.9	828.6	781.2	766.3	769.3	768.5	779.5	786.7	786.2	783.5	778.6	777.9	749.3	735.7	710.0	666.0	617.1	565.7	501.3	481.3	409.7	284.4	214.1	169.0	134.5	106.9	97.67	175.9	417.9	 1042	 5929	9999.9	 2801	30.52	8.770	5.994	5.310	4.343	3.634	3.661	3.738	3.755	3.464	4.030	4.116	4.020	3.858	3.990	4.108	4.110	4.251	3.919	4.009	3.980	4.219	3.786	4.031	4.122	3.887	3.974	3.719	4.116	4.091	4.131
445.0	 1627	 1739	444.8	541.7	646.4	714.2	748.0	851.1	920.1	935.5	953.2	935.6	883.5	840.6	807.6	756.3	727.0	731.3	728.2	742.9	750.9	747.6	747.7	748.1	742.3	729.7	709.5	689.9	653.8	612.6	553.1	489.5	447.5	430.7	328.2	231.3	181.9	145.4	112.8	93.52	93.22	136.3	268.2	 1492	 8058	9999.9	382.8	20.65	7.581	5.646	4.312	4.385	4.012	4.015	3.903	3.414	3.583	3.665	3.936	4.023	4.044	3.955	3.904	4.054	4.159	3.618	4.026	4.124	4.116	3.441	3.550	3.689	4.194	3.509	3.901	4.184	4.789
450.0	714.2	 2884	 1438	529.8	619.8	679.4	736.5	816.1	878.3	903.1	909.8	894.0	851.5	796.1	760.1	711.1	683.1	676.5	681.5	687.7	696.4	691.6	695.6	694.2	692.5	692.1	669.3	656.7	630.3	590.8	542.6	479.9	422.5	393.8	360.2	273.9	202.6	156.2	125.5	101.6	85.01	80.73	99.73	364.9	 2027	 6760	9999.9	 4500	27.76	7.661	5.567	4.861	4.325	4.169	3.858	3.568	4.124	3.735	3.840	3.688	4.016	4.052	3.747	4.046	4.183	3.628	3.825	4.071	3.986	3.707	3.464	3.682	3.635	3.770	3.835	3.722	3.915
455.0	319.3	 1894	 3529	596.9	572.5	626.7	698.3	758.0	827.8	862.0	875.8	857.9	804.7	756.6	711.6	668.1	629.6	625.5	619.3	623.7	625.1	640.4	636.8	639.0	634.5	628.8	623.3	608.4	591.0	564.8	524.8	463.0	411.6	360.6	334.4	311.5	230.2	171.7	138.1	112.5	91.71	74.06	69.90	118.4	480.5	 1538	 4015	9999.9	 2753	33.90	7.402	5.582	4.365	4.258	3.992	3.878	3.987	3.779	3.875	3.249	3.887	3.844	3.654	3.676	3.775	3.735	3.741	4.045	3.343	3.695	3.259	3.653	3.163	3.952	3.605	3.528	3.402
460.0	216.5	835.4	 4084	 1249	547.5	590.2	680.3	727.6	763.8	835.5	838.8	807.6	772.8	715.5	663.6	639.4	591.1	576.4	578.6	582.7	583.0	589.0	590.2	594.6	585.7	588.3	588.1	579.7	559.0	535.0	505.2	449.3	398.9	346.0	306.6	307.4	260.9	186.2	147.4	119.6	96.55	78.96	65.56	65.85	138.5	369.7	950.0	 5385	9999.9	 2183	23.52	7.184	5.537	4.516	4.181	3.765	3.823	3.981	3.427	3.785	3.697	4.181	3.573	3.220	3.659	3.644	3.724	3.340	3.033	3.880	3.387	3.241	3.010	3.037	3.421	3.390	3.549
465.0	193.4	401.9	 2926	 2747	563.4	572.3	640.4	710.2	738.8	782.8	794.0	776.0	719.7	680.2	627.9	590.3	556.4	546.2	537.6	541.3	546.8	547.4	544.2	544.7	550.8	560.4	548.5	540.6	531.6	509.4	479.4	433.5	379.7	333.2	291.8	277.6	267.4	207.2	151.8	124.0	103.7	82.72	70.26	57.92	66.89	111.1	236.4	 1340	 7153	9999.9	308.0	17.64	6.427	5.020	4.668	4.039	3.959	3.525	3.867	3.978	3.728	3.844	3.573	3.263	3.530	3.221	3.501	2.976	2.565	3.279	3.490	3.139	3.191	3.328	3.359	2.990	3.440
470.0	199.1	271.9	 1206	 3620	 1570	549.6	584.8	660.7	687.9	732.2	722.5	725.6	667.5	630.5	578.9	540.2	509.0	498.3	486.0	487.5	491.3	490.8	491.8	495.8	493.1	496.7	496.6	493.6	486.6	468.6	444.0	408.3	366.0	319.9	279.9	248.4	238.1	222.4	171.0	130.5	107.0	88.22	73.91	59.32	53.85	57.09	79.60	320.8	 1775	 5783	 7958	 3364	26.54	6.617	5.331	4.712	4.177	3.604	3.881	3.433	3.460	3.783	3.473	3.672	3.289	3.153	3.154	3.059	2.947	3.267	3.158	3.154	2.853	2.783	3.092	3.120	2.932
475.0	188.9	218.4	488.7	 2143	 4073	655.2	519.4	592.1	637.2	667.4	671.3	678.8	616.6	580.3	529.9	487.2	454.5	445.4	436.6	433.0	433.6	430.8	430.5	439.1	442.2	442.9	439.5	441.9	440.6	423.2	408.0	376.2	338.1	298.0	262.8	235.0	210.3	200.1	190.6	145.1	110.3	91.38	78.04	62.34	52.00	47.96	46.03	96.66	413.7	 1309	 2979	 8290	 2580	34.97	5.874	4.681	4.763	3.368	3.447	3.189	3.542	3.325	3.030	3.308	2.879	2.754	3.092	2.902	2.944	2.748	2.961	2.748	2.852	2.277	3.004	2.685	2.987
480.0	162.9	221.5	298.2	918.0	 4890	 2022	498.4	546.8	584.4	609.9	626.4	637.5	579.0	538.2	501.1	457.6	419.4	404.4	407.6	397.5	397.3	387.2	395.0	403.7	402.0	407.3	395.5	405.1	401.3	396.1	382.5	353.4	316.8	286.9	250.2	224.8	198.9	178.8	182.4	159.0	117.1	93.45	77.65	65.77	55.16	47.81	41.29	46.65	112.5	308.1	698.7	 3652	 8330	 2196	23.71	5.892	4.698	4.081	3.614	3.305	3.282	3.049	3.039	3.336	2.779	2.972	2.684	2.847	2.780	2.331	2.498	2.419	2.509	2.188	2.630	2.479	2.201
485.0	142.3	207.1	236.9	455.3	 3756	 4643	522.1	523.9	550.4	582.6	603.6	596.0	540.6	508.6	463.7	426.6	390.7	383.8	373.9	366.3	363.9	364.0	357.2	366.3	369.7	369.5	369.0	376.8	373.2	370.4	356.6	332.5	297.5	271.4	239.8	213.7	188.7	170.0	160.9	162.4	128.8	93.19	80.24	66.21	56.92	48.82	40.97	35.95	45.22	86.13	171.0	885.2	 4938	 7661	359.6	14.25	5.387	4.183	3.923	3.320	3.049	3.093	3.079	2.804	2.627	2.768	2.682	2.698	2.294	2.549	2.671	2.694	2.643	2.419	2.239	2.453	2.609
490.0	117.6	194.6	243.2	303.7	 1493	 5590	 2073	476.4	508.4	537.4	557.7	534.5	497.6	455.9	426.4	388.4	362.2	346.9	338.3	327.0	326.1	323.8	324.8	326.8	328.3	337.0	336.3	335.1	335.3	333.2	326.0	303.6	273.9	248.5	223.6	200.6	179.0	160.2	144.2	144.2	136.5	105.9	80.84	67.65	59.52	50.85	42.55	36.10	33.37	38.01	53.40	210.7	 1203	 3898	 5884	 1628	26.62	5.901	4.125	3.423	3.288	2.981	2.792	2.895	2.773	2.543	2.401	2.634	2.282	2.203	2.395	2.339	2.400	2.263	2.011	2.118	2.556
495.0	104.5	161.8	235.5	261.1	569.2	 3053	 5465	633.5	447.0	480.6	491.9	489.9	456.3	412.7	384.1	348.1	322.3	304.9	298.8	291.7	288.2	290.8	288.3	287.1	287.3	295.6	297.1	298.6	296.3	299.9	293.2	271.9	248.9	229.8	205.6	184.8	166.0	147.9	133.1	122.7	122.8	115.0	88.88	68.67	58.79	51.14	45.02	36.76	31.76	28.96	27.89	60.45	279.1	881.6	 2206	 6477	 2707	36.22	4.915	4.079	3.539	3.185	2.504	2.925	2.681	2.264	2.484	2.236	2.026	2.229	1.928	2.086	2.201	1.817	1.940	1.836	2.034
500.0	88.79	135.1	239.3	259.7	332.6	 1195	 6009	 2125	406.1	432.5	449.5	444.5	417.9	382.9	358.3	321.4	296.1	280.4	268.6	273.4	260.4	264.0	258.5	264.9	263.0	268.8	267.9	269.8	275.1	268.3	270.7	249.2	229.5	207.1	192.4	172.4	155.0	137.3	123.1	114.8	105.5	109.9	96.60	70.33	57.96	50.80	44.41	37.09	31.36	26.84	22.39	26.84	73.92	207.1	514.1	 2875	 7323	 2161	24.24	4.850	3.790	3.286	2.870	2.902	2.348	2.065	1.797	1.957	1.753	2.073	1.740	2.150	1.828	1.733	1.653	2.084	1.986
505.0	76.90	123.9	203.7	275.8	262.6	494.0	 4197	 4822	446.0	388.2	423.5	405.2	386.9	351.3	331.9	293.7	271.9	259.5	245.0	244.0	238.3	237.6	235.7	239.1	238.5	241.1	246.2	247.1	248.1	243.9	239.5	228.0	207.4	195.6	178.5	157.3	144.8	130.7	118.1	106.6	96.18	94.49	95.72	78.35	57.99	50.36	42.26	37.17	30.50	26.69	22.23	19.93	28.15	56.48	123.9	689.6	 4118	 6900	382.5	11.79	4.331	3.423	2.925	2.497	2.203	1.672	2.040	2.074	1.664	1.779	1.516	2.086	1.640	1.522	1.706	2.063	1.999
510.0	77.45	104.5	153.2	262.9	245.0	284.7	 1564	 5269	 1744	360.2	373.2	358.6	348.9	317.5	294.8	262.7	245.9	230.5	221.0	215.6	210.7	211.7	204.4	210.5	208.2	212.9	216.8	217.1	215.3	215.9	211.6	201.9	187.1	171.8	159.1	145.1	132.8	118.8	109.6	96.91	88.62	81.27	82.41	80.72	63.44	49.97	41.10	36.87	31.43	27.18	22.90	19.01	17.72	22.33	36.31	161.4	995.2	 3431	 5014	 1644	24.91	4.234	3.484	2.763	2.209	2.068	2.018	1.857	1.665	1.550	1.584	1.623	1.488	1.596	1.539	1.719	1.827
515.0	80.83	85.79	117.6	191.5	259.9	220.1	522.3	 2493	 5240	524.6	323.6	324.1	303.0	273.0	252.9	227.5	212.9	199.0	191.8	187.8	180.8	184.1	179.1	180.2	182.5	183.9	190.5	182.9	183.3	187.1	183.1	174.3	163.6	149.4	137.6	128.5	116.1	108.0	99.07	87.25	79.36	74.82	66.40	69.87	69.23	54.01	40.42	34.06	30.75	26.61	22.15	18.98	15.91	15.29	16.51	44.69	228.7	773.3	 1809	 5280	 2436	33.02	4.019	2.926	2.462	2.052	1.962	1.753	1.713	1.435	1.306	1.322	1.392	1.508	1.288	1.674	1.389
520.0	72.53	79.18	101.8	141.2	267.2	204.7	272.5	919.3	 7876	 1768	300.9	292.2	281.5	254.8	227.9	206.0	186.9	180.1	174.7	165.2	161.9	160.6	161.8	162.1	164.5	162.1	168.4	166.5	167.8	168.1	163.2	158.9	146.8	136.5	123.8	116.5	108.2	100.3	90.54	82.12	74.49	68.18	60.57	58.01	64.06	57.29	42.19	34.03	29.68	25.31	22.43	17.71	14.78	13.39	12.34	17.69	57.81	178.2	419.9	 2346	 5571	 1741	20.14	3.344	2.513	2.193	1.961	1.746	1.606	1.479	1.354	1.032	1.257	1.313	1.260	2.262	1.229
525.0	61.58	67.92	94.92	125.5	229.8	218.9	218.4	384.1	 6580	 4046	334.1	271.2	260.5	230.9	206.3	190.4	175.8	162.4	156.9	153.8	149.9	144.3	147.9	144.5	146.7	146.5	149.3	149.9	149.6	148.3	147.4	144.4	134.5	125.1	114.1	104.8	97.76	92.39	82.45	74.19	69.62	63.31	56.70	52.38	54.70	57.50	44.99	33.49	28.02	25.27	21.60	17.13	14.97	12.98	11.72	11.54	19.61	45.95	99.75	561.3	 3083	 5061	363.3	7.903	2.973	2.460	1.737	1.801	1.619	1.293	1.242	1.100	1.270	1.094	1.159	2.289	1.219
530.0	50.60	64.43	81.30	112.7	171.1	246.3	193.2	233.4	 2250	 4945	 1702	248.6	226.4	201.3	183.0	164.3	152.3	140.0	137.9	133.8	132.2	126.7	126.6	126.1	123.7	125.5	129.4	129.8	131.1	130.5	127.4	123.8	116.7	110.2	100.7	94.73	85.81	78.38	72.72	66.35	61.76	55.93	50.69	46.90	44.68	48.16	47.71	37.07	27.37	23.62	19.94	16.80	14.73	13.26	11.44	9.973	11.08	16.66	28.08	130.6	743.5	 2524	 3205	 1356	22.18	2.771	2.046	1.829	1.583	1.207	1.218	1.171	1.027	0.988	1.018	1.332	1.013
535.0	41.15	55.77	63.87	96.21	131.4	226.4	193.1	176.5	647.7	 2435	 5338	397.1	198.4	174.9	162.9	143.7	133.1	125.5	120.0	117.1	111.5	109.0	110.2	111.1	106.4	110.2	112.2	112.5	113.7	111.3	110.9	106.8	98.81	94.81	86.36	82.06	74.17	69.02	64.29	57.92	54.79	51.88	44.51	40.63	37.87	36.51	40.38	39.69	29.21	21.95	18.77	15.94	14.03	12.58	11.36	10.15	9.416	9.481	11.32	33.90	169.9	567.2	 1232	 3783	 1828	28.49	2.666	1.877	1.525	1.291	1.448	1.328	1.064	0.845	0.894	1.065	0.796
540.0	37.99	49.97	63.06	82.55	111.8	172.6	212.9	158.0	280.4	832.3	 6112	 1830	186.2	163.4	148.7	132.6	124.7	113.0	108.4	102.7	99.92	93.43	95.31	98.61	96.29	95.29	98.23	99.56	101.6	96.60	98.25	94.68	89.52	84.22	77.21	71.61	66.29	63.75	59.42	51.94	50.23	45.60	40.92	37.45	33.96	32.64	33.10	38.44	31.81	21.97	18.25	14.42	12.63	11.06	10.66	9.912	8.254	7.344	7.369	11.90	41.77	130.5	286.6	 1703	 3849	406.0	13.87	2.054	1.687	1.180	1.359	1.136	1.036	0.960	0.877	0.848	0.746
545.0	49.26	51.09	62.38	68.48	97.36	131.6	228.1	151.8	194.5	314.9	 3934	 3823	275.6	148.1	131.4	113.7	108.3	98.56	92.46	91.65	87.76	85.72	85.85	86.53	84.33	83.88	85.16	88.70	86.23	88.04	86.49	82.86	80.61	75.03	69.79	64.44	60.47	55.55	51.44	47.83	44.68	39.01	37.27	32.94	30.42	29.68	27.62	31.33	31.52	23.93	16.52	13.91	12.05	10.13	10.31	9.206	8.073	7.557	6.670	7.031	13.09	32.63	67.44	408.5	 2198	 3133	317.3	4.378	2.224	1.676	1.436	1.157	1.218	0.854	0.738	0.814	0.643
550.0	40.33	43.49	52.58	61.12	75.93	91.79	177.3	177.6	145.2	172.8	 1247	 5037	 3198	128.8	108.4	97.41	90.55	82.83	79.27	76.64	74.54	72.59	73.37	71.49	70.18	70.77	71.93	73.42	73.80	74.27	73.18	69.71	67.75	61.40	58.45	54.04	50.23	46.96	44.19	41.36	38.05	34.31	31.45	29.06	26.69	25.22	23.01	23.39	25.96	24.57	17.86	12.74	10.46	9.261	8.901	8.121	8.096	6.867	6.226	5.376	6.725	10.74	18.15	94.38	534.4	 1676	 2289	846.5	19.01	2.059	1.437	1.138	1.204	0.858	0.591	0.713	0.732
555.0	30.05	38.77	47.55	47.19	66.22	72.48	113.4	198.7	131.3	125.1	373.7	 2145	 7487	260.4	91.34	83.02	76.92	69.49	63.54	63.34	60.22	60.34	60.00	57.76	58.63	58.98	57.71	58.96	58.10	62.70	59.31	59.83	52.75	49.91	48.60	45.67	41.91	38.58	36.66	34.05	31.70	28.58	26.89	25.34	22.98	20.40	18.92	17.91	18.93	20.53	18.75	13.75	9.536	8.374	8.136	7.329	6.703	6.196	6.037	4.683	4.720	5.748	6.705	23.66	121.6	377.4	895.2	 2333	417.6	22.25	1.759	1.378	1.094	0.859	0.791	0.581	0.626
560.0	28.52	32.80	37.57	44.95	55.15	63.40	80.48	173.4	141.5	105.3	162.8	662.5	 7022	 1544	82.77	70.20	65.10	60.34	55.24	53.51	52.64	50.53	49.03	48.66	50.13	48.62	50.74	51.05	50.07	51.03	51.18	48.57	46.12	41.94	40.72	38.07	34.37	32.64	31.78	28.49	25.81	23.62	23.56	21.35	19.88	17.96	16.43	15.70	15.11	16.19	17.16	14.05	9.180	7.813	6.977	6.356	6.630	5.548	5.916	4.905	4.622	4.338	4.369	7.855	30.03	87.15	209.5	 1118	 2104	356.7	6.839	1.653	1.109	0.772	0.739	0.465	0.687
565.0	27.99	33.47	32.60	40.66	47.71	60.72	62.05	129.1	177.5	95.44	101.3	220.2	 3735	 4121	109.6	61.99	58.35	53.70	48.83	47.03	43.16	41.45	41.83	43.33	42.58	41.28	43.13	43.51	42.82	42.59	42.59	43.53	38.02	35.78	35.39	32.16	29.99	27.34	26.83	24.60	23.00	20.58	19.99	18.39	17.09	16.03	14.62	13.97	11.71	12.90	14.88	14.00	8.986	6.966	6.245	6.243	5.629	5.059	5.116	5.046	4.773	4.511	3.973	4.526	9.900	22.36	50.12	274.3	 1343	 1762	53.74	2.708	1.261	0.731	0.772	0.595	0.489
570.0	21.80	29.76	24.86	32.73	40.11	46.39	51.11	73.23	167.2	100.1	86.74	111.6	 1106	 4932	 1125	55.50	48.28	42.46	38.61	37.58	35.55	34.06	34.89	33.48	33.56	33.36	34.15	33.65	33.71	35.22	33.90	34.44	31.81	29.77	27.51	26.10	24.24	23.51	21.39	19.78	18.18	16.96	15.86	14.59	14.16	12.83	12.21	11.56	9.680	9.881	9.660	11.24	9.651	7.150	5.755	5.385	5.045	4.878	4.558	4.973	4.643	4.532	3.981	4.179	4.851	8.612	14.22	64.08	334.7	 1002	 1241	234.4	13.42	0.965	0.734	0.589	0.536
575.0	29.85	24.87	20.39	26.94	32.89	35.82	41.20	45.11	117.2	142.5	72.86	79.84	300.6	 2064	 4461	162.2	39.46	34.66	29.20	29.63	29.52	25.44	28.71	26.94	28.32	26.37	27.07	26.56	27.07	28.55	26.89	26.33	25.88	24.20	21.97	20.08	19.29	18.16	17.02	15.81	14.94	13.23	12.95	11.94	10.55	10.50	10.78	8.893	8.468	8.062	7.175	7.724	9.403	7.668	5.681	4.997	4.275	4.066	4.607	4.293	4.158	4.894	4.580	4.174	4.274	5.137	6.138	17.22	77.19	227.1	528.6	 1274	351.0	10.42	0.781	0.523	0.524
580.0	26.27	26.27	21.51	30.73	32.85	30.39	33.80	46.49	78.16	161.0	80.09	64.62	118.7	607.9	 4932	 1146	37.97	28.40	27.74	25.62	23.43	23.59	22.41	21.69	21.87	22.56	22.40	21.81	23.12	23.89	22.02	21.09	21.98	19.41	18.34	17.28	16.38	14.91	13.30	13.26	12.60	11.59	10.43	10.04	9.141	8.905	8.914	7.474	7.305	6.514	6.261	5.738	7.043	7.548	6.187	4.505	3.636	3.590	3.886	3.883	3.683	4.377	4.214	3.764	3.849	3.884	3.779	6.339	19.54	52.99	125.7	666.5	 1185	58.05	2.801	0.767	0.513
585.0	22.53	24.41	17.38	26.34	22.45	20.50	27.60	39.17	54.98	137.0	108.5	61.99	72.40	185.3	 2810	 3324	62.92	25.02	24.77	20.52	20.01	20.59	18.20	18.96	20.31	18.57	18.64	19.25	19.54	19.43	18.30	18.04	17.78	16.86	15.55	14.62	14.19	13.13	11.73	11.96	10.41	9.940	9.228	8.165	8.388	7.520	7.140	6.515	5.796	5.789	4.754	4.861	5.248	6.500	6.118	4.355	3.486	3.547	3.400	3.242	3.581	3.534	3.961	3.471	3.088	3.667	3.449	3.859	6.578	13.82	29.98	166.3	801.0	920.3	47.36	1.278	0.626
590.0	19.84	19.70	18.87	28.61	26.02	21.70	24.71	33.50	43.52	87.48	139.1	66.87	59.52	82.62	815.8	 3952	860.0	22.33	19.88	17.37	17.55	17.15	16.03	15.41	15.87	14.82	15.54	15.22	15.61	15.64	15.04	15.64	14.15	14.00	12.27	11.63	10.92	10.66	9.939	9.366	8.089	7.686	7.381	6.777	7.066	6.295	5.921	5.413	4.925	4.846	3.825	3.858	3.764	4.609	5.500	4.575	3.516	2.931	2.969	2.749	2.782	2.675	2.900	3.136	3.052	2.919	2.723	2.867	3.147	4.734	8.272	38.46	202.5	576.9	588.4	202.7	8.479
595.0	22.51	18.95	20.77	16.62	22.64	18.85	24.02	28.18	35.13	51.43	129.7	91.07	53.63	59.48	211.3	 1577	 3553	93.59	17.53	14.31	14.27	14.07	13.08	13.43	13.02	12.81	12.99	12.48	12.03	12.54	12.78	12.75	11.37	10.99	10.22	9.887	9.095	8.489	7.932	7.105	6.969	6.058	5.495	5.610	5.171	5.008	4.616	4.072	4.048	3.739	3.685	2.876	3.108	3.103	3.962	4.624	3.705	2.955	2.296	2.287	2.385	2.276	2.299	2.457	2.724	2.616	2.253	2.211	2.447	2.779	3.016	9.471	45.84	130.3	291.4	756.9	263.6
600.0	19.39	21.85	18.79	23.93	25.23	19.61	24.32	24.63	31.61	42.34	96.34	117.7	51.03	48.23	73.43	438.8	 3875	737.9	16.85	13.56	12.21	11.80	11.83	11.16	11.43	10.72	10.72	10.85	10.39	10.03	10.72	10.92	8.583	9.352	8.502	8.150	8.010	6.507	6.493	6.105	5.910	5.134	4.746	4.391	4.517	4.513	3.806	3.953	3.739	3.090	2.966	2.464	2.489	2.200	2.599	3.397	3.470	2.838	2.028	1.929	1.934	1.867	1.890	2.213	2.061	2.315	1.685	1.587	1.451	1.611	1.640	2.897	11.06	29.58	70.22	419.5	721.5
605.0	16.67	18.04	18.08	20.52	20.62	18.66	21.95	23.20	27.80	37.50	61.62	139.6	63.22	47.18	40.82	121.7	 2199	 2378	26.08	12.18	10.13	9.867	10.63	9.621	8.992	8.629	9.708	9.427	8.333	9.328	9.524	9.065	8.009	8.345	7.909	7.297	7.135	6.531	5.755	4.897	4.883	4.614	4.782	4.023	3.819	3.946	3.172	3.495	3.232	2.813	2.715	2.448	1.840	1.758	1.958	2.463	3.458	3.278	2.256	1.808	1.527	1.575	1.601	1.810	1.689	1.955	1.736	1.490	1.538	1.274	1.388	1.305	3.039	7.141	16.23	106.9	502.8
610.0	15.54	23.23	20.89	13.63	17.52	16.59	18.24	22.84	29.05	33.51	44.40	108.0	89.08	47.80	33.79	45.71	623.4	 3019	607.5	12.48	9.307	9.012	8.803	7.757	7.782	7.809	7.420	7.353	7.574	7.450	8.108	7.562	6.861	6.357	6.519	6.007	5.922	5.404	4.609	4.360	3.750	3.755	3.659	3.002	3.137	2.958	2.576	2.594	2.589	2.457	2.001	2.003	1.793	1.620	1.585	1.640	2.252	2.720	2.254	1.527	1.246	1.342	1.474	1.349	1.444	1.646	1.486	1.636	1.146	1.024	1.133	0.817	1.208	2.066	4.131	24.39	127.9
615.0	11.76	18.05	18.71	16.28	12.56	15.40	15.13	20.67	27.69	30.12	39.99	67.10	106.4	49.01	32.52	25.95	152.8	 1255	 2603	63.01	8.443	6.788	7.481	5.984	6.358	5.398	6.435	5.478	6.011	5.682	6.054	6.128	5.852	4.933	5.042	4.873	4.369	4.148	3.602	2.926	3.109	2.953	3.001	2.891	2.324	2.694	2.206	2.067	1.981	2.066	1.932	1.670	1.465	1.315	1.315	1.178	1.466	1.955	2.273	2.057	0.974	1.199	0.819	1.189	1.264	1.088	1.337	1.634	1.298	0.960	0.941	0.709	0.679	0.792	1.083	5.674	28.91
620.0	17.06	13.51	13.47	23.08	18.62	16.10	15.76	16.83	23.76	29.48	35.07	52.81	102.1	61.64	33.37	21.96	45.55	348.8	 3013	558.3	8.139	6.252	6.370	5.788	5.301	4.959	5.352	5.390	4.537	4.931	5.205	5.206	4.598	4.716	4.754	4.207	3.920	3.421	3.296	2.801	2.744	2.672	2.583	2.496	2.025	1.982	1.950	1.778	1.608	1.800	1.553	1.178	1.366	1.154	1.072	0.985	0.945	1.466	1.756	2.045	0.850	0.885	0.772	1.064	0.957	0.939	0.955	1.178	1.095	0.880	0.788	0.661	0.552	0.469	0.507	1.612	6.721
625.0	13.00	15.67	12.92	17.39	16.71	13.96	11.69	14.11	21.57	28.32	31.84	44.21	78.06	87.80	34.14	21.09	20.84	90.87	 1793	 1842	14.75	7.185	5.742	5.889	4.705	4.608	4.742	4.624	3.896	4.581	5.133	4.038	3.856	4.624	3.962	3.517	3.106	3.146	3.196	2.503	2.303	2.213	2.186	1.891	1.964	1.700	1.650	1.695	1.554	1.348	1.435	1.120	1.079	1.088	0.986	0.798	0.874	1.007	1.452	1.693	1.040	0.879	0.886	1.056	0.759	0.682	0.792	1.038	1.000	1.136	0.825	0.690	0.449	0.384	0.495	0.690	1.708
630.0	11.97	11.87	11.91	11.45	14.63	11.84	10.29	18.29	22.66	25.74	33.73	41.69	53.90	91.80	41.78	19.98	16.14	28.92	513.6	 2464	471.6	7.465	5.441	4.452	3.762	4.018	4.285	3.992	3.905	4.011	3.742	3.261	3.399	3.862	3.389	2.957	2.509	2.494	2.422	2.153	2.016	1.798	1.668	1.540	1.442	1.541	1.612	1.441	1.170	1.187	1.051	0.947	1.024	0.761	1.009	0.749	0.892	0.864	0.868	1.278	1.218	1.006	0.911	0.774	0.638	0.646	0.623	0.652	0.851	0.868	0.876	0.547	0.326	0.400	0.397	0.377	0.478
635.0	11.93	12.51	10.73	10.28	15.50	13.44	11.16	17.36	20.23	23.70	33.63	39.56	46.15	69.49	63.18	21.34	14.19	14.49	122.5	 1075	 2045	37.82	5.111	4.338	3.581	3.417	3.241	3.326	3.185	3.300	3.448	3.200	2.851	2.442	2.780	2.672	2.111	2.005	2.110	1.782	1.773	1.605	1.392	1.355	1.264	1.247	1.073	1.218	1.058	1.213	0.960	0.869	0.680	0.773	0.785	0.862	0.771	0.736	0.574	0.790	1.186	0.976	1.046	0.810	0.519	0.572	0.695	0.608	0.758	0.725	0.738	0.718	0.388	0.286	0.507	0.385	0.491
640.0	10.40	10.24	10.03	14.53	10.46	8.250	13.24	14.97	20.95	24.78	30.91	39.25	40.21	49.07	72.95	26.12	14.55	10.98	34.49	303.3	 2511	132.9	5.026	3.799	4.075	3.299	3.377	2.880	2.849	2.598	2.721	2.670	2.440	2.375	2.193	2.291	2.333	2.005	1.577	1.863	1.619	1.419	1.399	1.189	1.138	1.021	1.080	0.873	0.914	0.904	0.782	0.558	0.569	0.664	0.709	0.526	0.553	0.667	0.664	0.794	0.749	0.917	0.901	0.612	0.551	0.568	0.598	0.547	0.495	0.391	0.611	0.662	0.584	0.262	0.235	0.243	0.413
645.0	24.65	11.81	12.68	14.28	13.71	10.14	12.91	17.17	18.82	23.73	27.41	37.64	39.31	42.55	70.51	35.00	13.81	10.01	13.61	76.40	 1596	 1002	8.851	4.306	3.343	2.405	2.760	2.497	3.087	2.260	2.372	2.711	2.074	2.111	2.078	2.046	1.899	1.625	1.549	1.673	1.502	1.348	1.127	0.986	1.198	0.850	0.867	0.804	0.820	0.852	0.567	0.609	0.695	0.407	0.625	0.415	0.343	0.630	0.493	0.470	0.478	0.845	0.746	0.512	0.588	0.562	0.392	0.371	0.515	0.588	0.406	0.592	0.516	0.314	0.234	0.192	0.246
650.0	26.18	13.76	15.65	17.89	12.86	11.28	11.94	14.60	17.74	26.97	26.93	34.47	34.53	33.11	57.92	44.37	15.76	10.41	9.014	23.37	569.0	 2138	77.87	4.546	3.016	2.614	2.397	2.710	2.698	2.146	2.285	2.678	2.063	1.999	1.727	1.677	1.816	1.265	1.723	1.392	1.207	1.093	1.041	1.024	0.932	1.290	0.796	0.674	0.685	0.720	0.585	0.621	0.657	0.404	0.418	0.569	0.427	0.487	0.529	0.530	0.582	0.495	0.762	0.631	0.508	0.489	0.452	0.332	0.500	0.442	0.535	0.450	0.535	0.420	0.255	0.251	0.218
