Sample:	'1
File name:	W02005海川生物总排口.FD3
Run date:	'15:56:13, 03/11/2024
Operator:	Administrator
Comment:	'

Instrument
Model:	F-2700 FL Spectrophotometer
Serial number:	23B8-004
ROM Version:	4J14000 07

Instrument parameters
Measurement type:	3-D scan
Data mode:	Fluorescence
EX  Start WL:	220.0 nm
EX  End WL:	600.0 nm
EX Sampling interval:	5.0 nm
EM  Start WL:	230.0 nm
EM  End WL:	650.0 nm
EM Sampling interval:	5.0 nm
Scan speed:	12000 nm/min
EX Slit:	5.0 nm
EM Slit:	5.0 nm
PMT Voltage:	700 V
Response:	Auto 
Corrected spectra:	Off
Contour interval:	50.000

Peak integration
Integration method:	Rectangular
Sensitivity:	1
Threshold:	1.000

Peaks
No.	ApexEX/EM(nm)	Height(Data)
1	225.0/340.0	1163
2	230.0/335.0	1168
3	235.0/605.0	18.12
4	250.0/545.0	88.63
5	255.0/560.0	80.23
6	260.0/570.0	74.88
7	265.0/585.0	73.99
8	270.0/300.0	824.2
9	270.0/370.0	827.8
10	270.0/600.0	71.47
11	275.0/305.0	974.1
12	275.0/330.0	1097
13	275.0/610.0	72.02
14	280.0/625.0	61.80
15	285.0/635.0	53.36
16	290.0/325.0	1082
17	315.0/355.0	543.6
18	320.0/360.0	533.0
19	325.0/370.0	514.0
20	330.0/375.0	517.9
21	335.0/380.0	528.5
22	430.0/505.0	35.82
23	445.0/525.0	21.88
24	455.0/340.0	8.710
25	460.0/545.0	11.96
26	580.0/320.0	7.149
27	585.0/325.0	7.336

Data points
	220.0	225.0	230.0	235.0	240.0	245.0	250.0	255.0	260.0	265.0	270.0	275.0	280.0	285.0	290.0	295.0	300.0	305.0	310.0	315.0	320.0	325.0	330.0	335.0	340.0	345.0	350.0	355.0	360.0	365.0	370.0	375.0	380.0	385.0	390.0	395.0	400.0	405.0	410.0	415.0	420.0	425.0	430.0	435.0	440.0	445.0	450.0	455.0	460.0	465.0	470.0	475.0	480.0	485.0	490.0	495.0	500.0	505.0	510.0	515.0	520.0	525.0	530.0	535.0	540.0	545.0	550.0	555.0	560.0	565.0	570.0	575.0	580.0	585.0	590.0	595.0	600.0
230.0	13.10	886.7	2938	1148	43.78	5.895	5.010	4.872	5.367	5.492	6.472	7.096	6.937	6.867	6.278	5.680	5.521	5.773	5.453	5.086	4.584	4.477	4.413	4.208	3.976	3.720	3.400	3.290	3.112	2.967	3.098	2.921	2.854	2.806	2.594	2.245	2.086	1.995	1.831	1.778	1.644	1.554	1.609	1.503	1.497	1.413	2.188	7.047	12.98	10.56	4.676	1.503	0.980	0.858	0.876	0.885	0.852	0.728	0.709	0.607	0.633	0.612	0.546	0.504	0.434	0.420	0.368	0.371	0.329	0.291	0.255	0.244	0.234	0.221	0.196	0.165	0.107
235.0	21.14	231.4	1761	3925	552.3	100.1	9.271	7.042	6.414	7.276	7.835	8.311	8.682	7.253	6.619	6.373	6.456	6.255	5.782	5.068	4.940	4.607	4.642	4.513	3.948	3.929	3.695	3.525	3.422	3.247	3.183	2.908	2.762	2.670	2.929	2.636	2.171	1.870	1.821	1.822	1.695	1.486	1.626	1.624	1.437	1.415	1.639	2.617	5.646	9.805	14.99	17.36	9.529	2.617	0.847	0.954	0.837	0.716	0.665	0.664	0.620	0.543	0.565	0.575	0.412	0.426	0.376	0.333	0.413	0.282	0.262	0.269	0.207	0.210	0.180	0.182	0.140
240.0	29.85	71.33	490.6	3170	4356	482.7	60.13	10.98	9.167	9.500	8.648	9.003	9.347	8.445	7.615	6.790	6.356	5.900	5.878	5.065	5.173	4.773	4.637	4.500	4.520	4.171	3.825	3.809	3.446	3.185	2.966	2.793	3.031	2.645	2.946	2.574	2.220	1.996	1.867	1.797	1.509	1.617	1.611	1.516	1.554	1.361	1.370	1.742	2.240	3.465	7.775	20.43	28.29	20.71	9.227	1.993	0.904	0.853	0.696	0.642	0.672	0.539	0.557	0.551	0.515	0.491	0.381	0.329	0.330	0.236	0.287	0.263	0.216	0.253	0.225	0.177	0.123
245.0	27.59	55.01	130.4	1012	5390	6942	393.7	29.97	11.99	12.08	12.24	10.58	10.45	9.765	8.432	7.327	6.896	6.606	6.460	5.511	5.033	5.237	5.026	4.557	4.461	4.315	3.900	3.709	3.544	3.285	3.021	2.929	2.921	2.538	2.974	2.640	2.296	2.062	1.936	1.748	1.672	1.654	1.624	1.542	1.503	1.268	1.469	1.522	1.558	1.640	2.642	6.925	19.32	36.92	29.23	19.94	7.213	1.222	0.783	0.719	0.677	0.709	0.575	0.569	0.455	0.529	0.479	0.407	0.389	0.322	0.272	0.297	0.252	0.291	0.187	0.165	0.159
250.0	21.04	44.68	83.67	261.9	1630	6343	9999.9	4525	117.5	18.97	16.64	13.98	12.55	11.53	9.867	8.480	8.112	7.401	6.653	6.344	5.571	5.471	5.356	4.866	4.777	4.533	4.192	4.071	3.909	3.640	3.235	3.135	2.908	2.719	2.768	2.564	2.451	2.394	2.063	1.858	1.796	1.782	1.630	1.473	1.635	1.397	1.388	1.446	1.474	1.383	1.509	2.408	5.360	11.57	20.67	36.80	42.20	50.29	16.42	8.290	1.364	0.824	0.602	0.655	0.572	0.526	0.504	0.456	0.414	0.400	0.270	0.290	0.265	0.260	0.218	0.200	0.179
255.0	20.76	31.78	55.88	140.7	409.3	1530	6945	9999.9	8102	155.9	28.68	22.14	18.35	14.60	12.37	10.50	9.334	8.734	7.406	7.590	6.545	6.255	5.597	5.420	5.227	4.910	4.279	4.277	4.372	3.829	3.690	3.375	3.004	2.842	2.723	2.633	2.475	2.580	2.223	2.031	1.947	1.885	1.634	1.505	1.528	1.509	1.463	1.297	1.359	1.337	1.464	1.607	2.165	3.339	5.422	9.247	16.29	47.81	96.21	110.9	26.58	10.61	0.972	0.694	0.723	0.643	0.637	0.500	0.479	0.401	0.360	0.343	0.242	0.312	0.206	0.231	0.232
260.0	30.26	33.23	38.04	96.00	185.0	382.5	1917	9999.9	9999.9	1882	115.1	33.89	24.75	20.67	15.43	12.95	10.02	10.03	8.998	8.263	7.033	6.653	6.407	5.750	5.357	5.151	4.972	4.694	4.753	4.187	4.092	3.730	3.302	3.072	2.797	2.694	2.407	2.394	2.491	2.173	2.132	1.896	1.848	1.691	1.605	1.613	1.550	1.381	1.364	1.250	1.418	1.456	1.844	1.774	2.222	2.872	4.557	12.75	39.00	98.77	150.8	137.4	23.22	6.225	0.993	0.805	0.655	0.589	0.555	0.380	0.453	0.367	0.309	0.401	0.284	0.277	0.292
265.0	35.59	37.87	36.15	55.83	148.8	181.1	472.0	3321	9999.9	9999.9	1545	77.45	34.73	25.53	19.68	15.09	12.04	10.76	9.652	8.990	7.804	6.845	6.677	6.287	5.526	5.321	5.170	5.125	4.588	4.430	4.191	3.923	3.810	2.848	2.993	2.675	2.570	2.243	2.427	2.247	2.290	1.918	1.824	1.723	1.961	1.705	1.703	1.485	1.386	1.232	1.226	1.269	1.520	1.753	1.723	1.554	1.931	3.860	9.692	27.82	79.07	175.0	214.3	32.18	17.58	2.340	0.899	0.744	0.704	0.547	0.513	0.477	0.400	0.468	0.393	0.299	0.344
270.0	61.49	55.52	45.18	44.26	82.80	175.5	240.9	814.0	3852	9999.9	9999.9	6356	108.4	43.90	30.48	21.67	17.19	13.98	12.31	10.61	9.267	8.080	7.581	6.765	6.606	6.026	5.687	5.494	4.957	5.080	4.723	4.269	4.234	3.383	3.231	3.118	2.819	2.573	2.496	2.376	2.343	2.203	2.069	1.950	2.087	1.878	1.810	1.637	1.583	1.378	1.302	1.259	1.402	1.507	1.643	1.880	1.914	2.053	3.154	7.183	19.03	48.06	99.81	150.7	213.2	187.4	109.1	12.74	3.419	0.851	0.690	0.658	0.506	0.546	0.474	0.465	0.390
275.0	101.9	94.24	65.82	47.47	60.42	99.59	253.4	361.4	963.9	2603	9999.9	9999.9	9261	126.5	50.86	33.99	25.64	19.94	16.19	13.94	11.25	9.983	9.236	8.077	7.621	6.593	6.415	5.854	5.904	5.425	5.151	4.712	4.074	4.041	3.639	3.127	2.968	2.992	2.867	2.411	2.471	2.359	2.406	2.267	2.243	2.160	2.096	1.820	1.709	1.439	1.364	1.330	1.359	1.310	1.449	1.618	2.012	2.471	2.573	2.746	5.457	11.99	23.48	35.24	61.16	144.4	334.4	410.8	182.9	18.91	2.456	1.129	0.987	0.820	0.690	0.694	0.617
280.0	152.4	133.8	93.88	61.84	59.49	77.17	173.9	365.6	391.9	729.0	3214	9999.9	9999.9	6924	103.8	53.49	35.72	26.94	20.08	16.57	13.52	11.31	10.57	8.863	8.251	7.685	7.319	6.441	6.241	5.899	5.459	5.265	4.774	4.689	4.258	3.685	3.254	3.185	2.909	2.621	2.538	2.386	2.603	2.795	2.595	2.314	2.223	2.060	1.829	1.584	1.511	1.446	1.371	1.496	1.462	1.490	1.622	2.094	2.914	2.868	2.855	4.118	6.648	9.411	15.33	35.49	108.3	281.6	477.1	253.2	30.72	14.18	1.646	1.095	0.904	0.836	0.802
285.0	180.8	171.2	116.1	73.32	64.70	78.38	117.8	291.6	363.0	345.9	909.1	4682	9999.9	9999.9	924.5	87.81	50.22	36.95	25.84	19.62	16.09	14.03	12.29	10.15	9.401	8.417	8.265	7.351	7.329	6.335	6.162	5.978	5.024	5.036	4.586	3.829	3.738	3.522	3.113	2.883	2.502	2.649	2.822	2.787	2.732	2.799	2.577	2.317	2.145	1.756	1.632	1.601	1.610	1.429	1.473	1.573	1.540	1.799	2.173	2.863	3.286	2.966	3.201	3.582	4.873	9.312	26.05	70.30	185.2	374.0	543.1	237.8	25.84	8.296	1.627	1.257	1.060
290.0	221.1	207.0	141.9	93.64	79.33	86.50	111.1	185.7	364.7	473.5	451.9	1256	5280	9999.9	9999.9	9999.9	279.9	59.68	40.76	28.40	22.26	18.28	15.37	13.38	11.29	10.25	9.061	8.293	8.060	7.158	6.965	6.385	5.762	5.113	5.002	4.400	4.118	3.816	3.560	3.097	2.934	2.911	2.816	2.973	3.001	3.075	2.710	2.603	2.345	1.993	1.749	1.823	1.669	1.684	1.752	1.848	1.676	1.878	1.932	2.088	2.639	3.256	3.584	3.345	3.046	3.760	7.533	17.27	43.17	93.73	201.2	310.1	432.3	409.3	296.2	18.33	8.645
295.0	247.4	240.4	164.5	114.4	106.2	115.3	146.0	199.0	292.9	514.4	643.9	555.6	1384	2703	9999.9	9999.9	5654	321.6	65.42	44.48	30.63	24.19	20.00	16.39	14.36	12.48	10.95	9.890	8.824	8.390	7.664	7.382	6.340	5.500	5.492	5.028	4.518	4.153	4.072	3.542	3.199	2.872	3.125	3.100	3.153	3.244	2.987	2.748	2.505	2.144	2.001	1.944	1.808	1.817	2.016	1.954	2.137	2.135	2.105	2.309	2.470	2.687	2.935	3.746	4.637	4.008	3.910	5.748	11.36	22.51	46.47	71.04	106.0	192.8	478.8	700.7	267.6
300.0	288.8	249.6	194.0	143.1	141.3	172.2	226.7	305.5	341.4	532.9	824.2	676.2	606.4	855.0	3346	9999.9	9999.9	4777	191.5	63.00	43.65	31.40	24.82	20.39	17.06	14.43	12.50	11.25	9.704	8.938	8.543	7.904	6.892	6.327	6.032	5.640	5.109	4.576	4.312	3.913	3.677	3.398	3.353	3.127	3.209	3.086	3.154	3.065	2.783	2.308	2.173	2.204	2.160	2.207	2.281	2.293	2.457	2.665	2.787	2.793	2.978	3.182	3.412	3.471	5.069	5.663	5.111	4.344	4.742	7.212	12.30	18.09	25.95	46.07	130.5	344.8	641.8
305.0	290.1	262.3	222.5	175.0	179.9	229.0	309.1	408.7	503.4	624.8	799.1	974.1	618.8	520.3	1054	5278	9999.9	9999.9	3576	81.24	59.07	41.69	31.16	25.11	20.51	17.04	14.58	12.38	11.38	10.21	9.341	8.738	7.412	6.858	6.383	5.744	5.031	4.866	4.480	4.214	3.961	4.072	3.467	3.426	3.541	3.373	3.229	3.422	3.252	2.497	2.434	2.379	2.530	2.487	2.708	2.742	2.998	2.901	3.327	3.337	3.825	3.939	4.111	4.155	4.676	5.151	6.222	6.057	4.747	4.670	5.349	6.450	8.162	12.88	31.56	82.39	202.5
310.0	306.1	309.5	252.7	206.3	220.5	272.8	376.0	490.5	606.0	717.9	799.1	920.8	925.5	633.8	605.0	1540	6293	9999.9	9999.9	9999.9	235.9	62.30	45.93	33.79	26.48	21.34	18.04	15.23	13.85	12.19	10.82	9.911	8.636	7.671	7.183	6.480	5.652	5.452	4.957	4.828	4.423	4.450	3.937	3.947	3.932	3.746	3.505	3.576	3.407	3.057	2.861	2.666	2.786	2.812	3.061	3.143	3.444	3.530	3.745	4.044	4.417	4.445	4.836	4.927	5.112	5.060	5.288	5.684	5.730	5.797	5.462	4.750	5.100	5.624	9.833	21.37	48.39
315.0	379.3	428.7	352.4	252.6	255.0	310.1	416.0	541.9	653.6	774.8	859.2	877.0	903.2	950.5	659.1	740.2	1753	2825	9999.9	9999.9	9999.9	278.5	66.75	49.03	36.28	27.28	22.03	18.99	16.56	14.71	13.03	11.28	9.973	9.031	7.826	7.073	6.551	6.415	5.808	5.190	5.150	4.938	4.517	4.290	4.373	4.574	4.182	3.970	3.737	3.372	3.264	3.198	3.227	3.117	3.426	3.546	3.702	3.986	4.119	4.581	4.669	4.815	5.221	5.316	5.298	5.488	5.271	5.161	5.461	5.901	6.210	6.378	5.659	4.596	5.414	7.839	14.00
320.0	551.3	704.5	563.3	361.5	288.6	338.0	434.1	566.7	693.9	831.0	946.2	969.9	937.5	1029	922.9	647.5	775.3	930.8	3484	9999.9	9999.9	3786	186.8	64.63	48.49	33.71	26.28	22.32	19.25	17.34	15.61	13.13	11.36	9.970	8.697	7.568	7.308	6.828	6.073	5.671	5.296	5.207	5.136	5.146	4.978	5.466	5.182	5.343	4.713	4.039	3.554	3.819	3.747	3.594	3.644	3.706	4.022	4.237	4.525	4.787	5.169	5.221	5.426	5.863	5.473	5.769	5.929	6.072	5.987	6.191	6.080	6.922	7.149	5.856	5.460	5.229	6.555
325.0	677.9	969.8	865.3	523.2	364.0	349.9	446.3	572.9	707.1	873.8	1014	1076	1050	1028	1082	817.1	609.4	533.4	1031	5398	9999.9	9999.9	3212	117.4	61.80	44.21	32.41	26.58	22.01	19.14	16.70	14.89	12.68	10.78	9.513	8.400	7.988	7.232	6.524	6.084	5.708	5.483	5.730	5.619	5.822	6.309	6.425	6.766	6.073	4.646	3.954	4.316	3.927	4.102	3.815	3.923	4.269	4.419	4.575	4.923	5.149	5.485	5.771	5.841	6.146	6.139	6.267	6.613	6.482	6.293	6.417	6.590	6.946	7.336	6.662	5.979	5.198
330.0	732.2	1115	1066	711.4	443.2	375.7	441.0	548.9	674.0	837.9	998.8	1097	1095	1033	978.8	942.3	716.3	483.6	500.3	1435	6411	9999.9	9999.9	9999.9	220.0	67.11	46.96	35.41	28.56	23.45	20.23	17.00	14.47	12.38	10.63	9.488	8.549	8.089	7.160	6.438	6.135	5.925	5.824	5.864	6.298	6.983	7.032	7.599	7.138	5.681	4.814	4.692	4.378	4.332	4.012	4.066	4.135	4.245	4.591	4.830	4.921	5.107	5.739	5.742	6.268	6.355	6.424	6.690	6.839	6.662	6.750	6.594	6.233	6.518	6.701	6.884	6.730
335.0	776.6	1162	1168	776.8	476.2	389.3	430.0	515.3	632.6	780.7	950.5	1061	1085	1020	913.3	824.9	821.0	585.7	409.8	553.0	1635	2719	9999.9	9999.9	9999.9	272.9	69.95	50.17	38.75	29.68	24.67	20.26	17.33	14.92	12.41	10.75	9.755	8.987	8.272	7.310	6.835	6.395	6.583	6.420	6.999	7.356	7.925	8.093	7.390	6.327	5.549	5.348	4.835	4.630	4.506	4.406	4.500	4.505	4.652	4.827	5.080	5.187	5.459	5.891	6.288	6.346	6.597	6.593	6.549	6.780	6.630	6.418	6.364	6.117	5.979	5.840	6.289
340.0	736.9	1163	1159	818.3	504.5	398.6	429.2	502.1	608.5	754.5	897.4	1013	1040	991.7	886.7	771.3	734.9	696.3	448.1	378.7	585.0	802.0	3530	9999.9	9999.9	9999.9	188.0	60.39	49.30	36.23	29.06	23.32	18.82	16.32	14.06	11.78	10.43	9.553	8.711	7.672	7.001	6.794	6.484	6.487	6.950	7.262	7.741	8.710	7.435	6.324	5.536	5.467	4.811	4.600	4.625	4.277	4.622	4.667	4.788	4.787	4.973	5.042	5.689	5.781	6.069	6.086	6.249	6.194	6.702	6.722	6.383	5.980	5.990	6.185	5.863	5.520	5.589
345.0	675.3	1067	1086	805.3	522.8	419.8	449.3	510.0	606.3	734.3	856.1	955.3	976.1	936.7	843.8	734.6	651.1	671.7	558.2	372.3	362.5	381.7	966.8	5814	9999.9	9999.9	2968	109.9	61.18	44.60	32.67	25.59	20.75	17.30	14.75	12.16	11.07	9.557	8.785	7.833	7.102	6.695	6.378	6.369	6.704	6.928	7.474	8.276	7.460	6.266	5.372	5.460	4.968	4.677	4.426	4.386	4.661	4.626	4.804	4.365	4.948	5.082	5.219	5.564	5.693	5.755	5.539	5.807	6.162	6.188	6.336	5.649	5.864	6.109	5.448	5.405	5.462
350.0	601.5	913.5	938.5	755.5	541.2	480.2	539.3	601.3	665.4	746.4	837.0	904.1	919.0	876.0	805.9	714.9	628.6	578.6	582.0	485.7	352.8	307.3	404.0	1470	6875	9999.9	9999.9	9999.9	213.4	63.43	44.94	33.22	24.72	19.61	16.03	13.28	11.50	10.39	9.293	8.113	7.206	6.532	6.383	6.290	6.324	6.658	6.911	7.358	6.962	6.157	5.248	5.246	4.899	4.431	4.406	4.354	4.687	4.843	4.986	4.783	5.074	5.114	5.203	5.413	5.463	5.636	5.337	5.544	5.778	5.727	5.613	5.591	5.557	5.913	5.483	5.364	5.175
355.0	493.3	759.1	807.9	681.6	530.6	509.1	584.1	660.1	719.9	769.2	836.7	863.6	859.8	827.9	765.2	696.5	624.3	555.6	517.3	543.6	457.3	324.7	301.4	505.2	1686	2701	9999.9	9999.9	9999.9	267.8	66.23	45.63	31.54	23.81	18.72	15.47	12.58	11.37	9.882	8.528	7.721	7.184	6.564	6.352	6.315	6.569	6.314	6.782	6.571	5.768	5.063	5.103	4.797	4.706	4.650	4.397	4.816	5.110	5.038	5.181	5.125	5.091	5.514	5.336	5.453	5.379	5.247	5.459	5.467	5.452	5.550	5.230	5.228	5.637	5.204	5.078	5.071
360.0	434.9	656.5	734.9	629.1	523.4	519.9	587.8	678.5	730.9	774.4	812.8	825.6	810.4	782.3	732.0	678.3	617.7	560.0	508.0	502.2	533.0	391.4	301.1	308.2	541.7	754.2	3554	9999.9	9999.9	9999.9	196.2	59.93	41.51	30.07	21.95	17.47	13.88	12.24	10.35	9.491	8.210	7.793	6.679	6.519	6.258	6.150	6.237	6.464	6.354	5.182	4.964	5.050	4.759	4.545	4.662	4.425	4.890	5.052	5.291	5.128	5.265	5.211	5.214	5.382	4.989	5.229	5.044	5.418	5.317	5.259	5.231	5.298	5.164	5.175	4.905	4.765	5.066
365.0	412.9	591.1	668.6	595.3	529.5	541.1	600.2	686.9	733.3	774.2	820.2	822.0	789.8	761.4	710.8	672.2	625.2	570.2	519.0	488.1	520.0	492.4	345.7	288.4	305.1	330.7	947.6	5801	9999.9	9999.9	2871	116.1	51.32	38.31	26.76	19.90	16.72	13.87	12.00	10.45	8.913	8.253	7.380	6.601	6.310	6.237	6.022	6.557	5.710	5.309	4.545	5.055	4.936	4.385	4.797	4.516	4.790	5.082	5.221	4.976	5.448	5.173	5.447	5.373	5.263	5.012	5.294	5.319	5.024	5.190	5.145	5.093	4.913	4.899	4.908	5.055	5.036
370.0	386.0	526.5	575.3	550.9	534.9	563.0	624.9	709.1	757.1	794.4	827.8	823.5	771.7	742.0	703.4	662.0	627.4	586.3	542.0	506.9	495.9	514.0	465.8	345.3	290.3	265.3	374.9	1453	7039	9999.9	9999.9	9999.9	194.2	56.93	37.96	26.78	20.39	16.18	13.45	11.24	9.972	9.269	8.174	7.184	6.607	6.516	6.147	6.472	5.858	5.280	4.580	5.003	5.039	4.768	4.757	4.677	4.754	5.154	5.326	5.351	5.597	5.545	5.384	5.364	5.280	5.141	5.101	5.216	5.220	5.224	4.992	4.787	4.913	5.053	5.029	5.043	4.925
375.0	362.4	475.3	520.8	518.4	523.6	559.1	627.8	702.7	752.3	784.4	809.1	811.6	755.5	724.1	686.2	645.5	626.2	603.5	563.5	538.6	511.7	497.3	517.9	466.4	343.0	290.3	275.2	486.2	1709	2800	9999.9	9999.9	9999.9	238.4	55.59	36.44	27.42	20.87	16.02	13.20	11.59	10.58	8.619	7.911	7.189	6.758	6.527	6.264	5.751	5.084	4.498	5.083	4.966	5.062	4.633	4.974	4.918	4.944	5.123	5.378	5.521	5.655	5.651	5.413	5.234	5.200	5.149	5.205	5.007	4.900	4.993	4.897	4.939	4.805	4.875	4.698	5.080
380.0	341.3	421.6	490.1	503.7	512.8	555.9	617.5	693.8	740.3	772.1	800.1	800.4	748.7	713.5	673.0	634.9	620.5	604.7	574.3	551.3	529.7	505.0	507.2	528.5	417.3	327.3	278.2	288.3	530.5	763.1	3935	9999.9	9999.9	9999.9	167.3	48.70	34.84	26.17	18.90	15.12	12.49	11.20	9.378	8.397	7.492	7.253	6.760	6.726	6.188	5.098	4.889	5.060	4.889	5.053	5.055	4.968	5.049	5.150	5.034	5.483	5.398	5.482	5.599	5.459	5.342	5.197	5.297	4.904	4.991	4.881	4.996	4.936	4.930	5.014	4.960	4.566	5.065
385.0	303.4	387.4	467.1	486.3	501.2	557.8	614.4	670.1	705.0	752.9	790.1	782.9	744.2	697.2	663.1	635.9	615.4	605.5	580.2	567.7	542.6	520.0	505.1	518.4	488.1	372.6	297.6	264.0	283.3	306.4	1012	6352	9999.9	9999.9	2381	96.68	42.39	31.69	22.92	17.41	14.54	12.12	10.70	9.157	8.239	7.634	6.912	6.543	6.107	5.107	4.961	5.244	5.259	5.070	4.948	4.934	5.246	5.262	5.046	5.135	5.471	5.331	5.517	5.330	5.090	5.257	5.121	4.845	5.001	4.987	4.572	4.691	4.795	5.029	4.883	4.951	5.050
390.0	307.8	384.3	439.9	473.6	504.1	550.8	604.5	661.0	710.4	742.2	778.5	774.0	732.7	701.2	666.6	632.4	614.9	599.2	580.1	569.6	555.5	537.6	519.3	499.5	495.9	453.7	345.9	282.8	249.7	222.3	353.4	1545	6941	9999.9	9999.9	9971	161.9	46.50	31.28	23.44	17.45	14.23	11.86	10.04	8.999	8.332	7.449	6.961	6.255	5.408	5.064	5.383	5.332	5.177	5.054	4.857	5.236	5.419	5.118	4.972	5.235	5.318	5.328	5.428	5.231	5.073	5.149	4.967	4.960	4.934	4.696	4.640	4.736	4.694	4.886	5.101	4.923
395.0	300.9	377.9	419.8	445.4	491.8	531.7	594.8	657.3	696.9	722.8	759.5	757.8	721.6	691.7	660.7	626.8	614.6	594.0	582.4	575.0	561.5	549.1	535.9	508.5	484.0	475.8	425.3	327.7	267.0	225.0	222.6	461.5	1649	2789	9999.9	9999.9	9999.9	206.3	46.45	31.79	23.57	18.17	13.70	11.44	10.34	9.345	7.917	7.634	6.893	5.884	5.244	5.460	5.402	5.259	5.226	5.046	5.378	5.558	5.431	4.985	5.143	5.227	5.453	5.447	5.530	5.332	5.176	4.968	4.949	4.775	4.857	4.645	4.751	4.703	4.628	4.813	4.941
400.0	286.4	356.3	408.6	436.3	476.3	520.9	574.0	638.8	675.1	709.4	733.3	736.0	715.7	683.0	654.1	619.5	605.7	592.7	574.9	567.1	563.0	547.0	540.3	514.2	483.6	460.9	456.8	373.9	289.4	239.0	205.4	229.2	471.5	721.7	3803	9999.9	9999.9	9999.9	150.1	39.47	28.64	21.60	17.00	13.12	10.67	9.866	8.311	7.952	7.021	5.950	5.442	5.769	5.208	5.247	5.457	4.873	5.386	5.418	5.108	5.420	5.090	5.299	5.167	4.923	5.180	4.959	4.897	4.874	5.005	4.533	4.725	4.832	4.619	4.962	4.480	4.992	4.900
405.0	290.0	349.8	388.2	426.8	455.6	506.2	552.3	607.6	657.3	684.8	718.0	720.4	696.8	671.8	638.6	609.0	592.5	576.0	564.2	555.9	553.2	547.1	536.5	514.5	480.9	450.3	439.5	420.3	324.7	255.1	212.7	186.3	215.8	254.6	946.0	5640	9999.9	9999.9	2130	92.12	34.66	25.39	19.51	15.16	12.03	9.992	8.953	8.401	7.309	6.042	5.573	5.622	5.289	5.135	5.073	5.035	5.406	5.213	4.954	5.274	5.184	5.027	5.169	4.978	4.824	4.709	4.990	4.853	4.877	4.773	4.485	4.810	4.607	4.895	4.267	4.702	4.742
410.0	273.6	333.5	388.1	418.5	436.6	484.4	529.8	585.8	633.0	665.2	694.7	695.7	675.6	652.7	624.5	590.3	572.0	559.5	546.6	539.8	539.1	531.2	526.8	510.0	482.4	447.8	414.4	409.9	374.1	291.5	229.7	191.4	167.8	156.3	295.3	1347	5915	9999.9	9999.9	9460	148.9	34.43	25.48	18.72	14.68	11.80	10.09	8.934	7.904	6.674	5.840	5.869	5.382	5.289	5.163	5.165	5.312	5.208	5.250	5.405	5.101	5.243	5.151	4.924	4.890	4.807	4.664	4.650	4.705	4.780	4.722	4.721	4.505	4.722	4.326	4.612	4.604
415.0	249.2	337.6	376.9	391.2	427.1	469.0	506.6	565.9	618.2	641.1	677.2	671.4	658.7	630.9	610.2	570.5	550.5	539.4	529.3	517.6	519.2	515.6	510.7	500.8	475.9	445.1	402.3	384.0	375.4	343.9	256.0	203.6	166.1	140.5	153.1	371.8	1386	2659	9999.9	9999.9	9999.9	194.9	35.87	24.55	18.56	14.50	11.54	10.20	8.515	6.915	6.180	6.252	5.782	5.680	5.386	4.824	5.353	5.114	5.362	5.118	5.060	5.005	4.829	5.018	4.889	4.520	4.489	4.815	4.868	4.734	4.595	4.468	4.812	4.613	4.690	4.406	4.769
420.0	249.0	319.7	348.1	380.3	403.9	451.1	483.5	549.1	594.0	614.1	660.8	654.1	641.8	614.1	594.3	552.9	533.6	518.2	511.3	501.4	498.2	497.6	499.8	487.5	466.0	438.7	399.6	373.5	356.7	355.0	287.1	214.5	170.9	139.4	124.2	156.8	373.4	658.5	3301	9999.9	9999.9	9999.9	142.3	32.44	22.90	17.54	13.22	10.98	9.149	7.314	6.712	6.523	6.160	5.732	5.383	5.317	5.484	5.195	5.294	5.229	5.151	4.997	5.027	4.936	4.919	4.616	4.363	4.823	4.499	4.490	4.364	4.479	4.564	4.822	4.441	4.425	4.419
425.0	236.0	310.7	337.6	369.4	390.2	432.9	476.8	531.0	567.4	596.7	633.9	632.5	620.2	597.6	581.4	536.1	518.7	500.8	490.3	489.6	486.5	482.4	482.7	476.4	454.0	428.1	393.6	367.3	345.1	335.5	311.2	232.0	177.8	143.7	118.8	110.0	147.3	203.7	800.1	4707	9999.9	9999.9	2051	84.35	28.31	21.49	15.88	12.25	9.567	7.821	7.054	6.728	6.475	5.947	5.789	5.531	5.581	5.362	4.992	5.163	5.278	5.107	5.224	4.965	4.928	4.561	4.338	4.570	4.338	4.335	4.466	4.340	4.693	4.429	4.414	4.212	4.371
430.0	269.4	294.6	334.6	350.8	377.6	416.8	452.0	505.9	548.3	572.5	605.7	608.9	603.0	580.2	556.3	518.5	498.4	484.8	467.8	464.9	465.9	463.0	465.1	455.5	436.8	412.9	384.8	360.0	338.1	310.8	298.3	260.0	195.5	151.1	123.1	102.8	97.98	101.1	228.2	1108	5091	9999.9	9999.9	8927	134.5	30.51	20.72	15.78	11.94	9.019	7.637	7.453	6.843	6.311	5.982	5.707	5.606	5.631	5.324	5.191	4.975	5.175	5.109	4.840	4.638	4.593	4.509	4.396	4.532	4.301	4.259	4.190	4.365	4.281	4.291	4.218	4.360
435.0	420.9	284.6	328.3	339.5	359.9	394.4	437.6	494.7	522.9	549.5	590.6	592.0	585.7	568.3	534.1	505.6	478.3	462.3	447.3	444.5	440.7	442.8	443.6	435.8	418.6	398.6	373.9	351.6	329.7	302.6	275.4	257.5	222.8	163.4	128.3	106.4	90.55	78.04	98.12	290.0	1179	2544	9999.9	9999.9	9999.9	187.7	30.32	21.18	15.52	11.63	8.741	8.361	7.694	6.888	6.455	6.194	6.008	5.732	5.746	5.585	5.236	5.310	4.792	4.742	4.727	4.790	4.707	4.429	4.339	4.357	4.283	4.473	4.145	4.279	4.141	3.786	4.386
440.0	627.5	346.0	311.0	328.0	346.6	390.9	431.3	481.2	509.6	534.8	576.0	572.5	565.8	549.0	524.9	488.0	460.0	447.1	431.3	428.1	424.9	427.7	428.1	419.6	406.7	387.1	366.1	343.9	324.9	298.9	266.6	241.5	229.3	180.9	134.0	107.8	90.68	75.63	70.57	107.1	302.5	613.9	3112	9999.9	9999.9	9999.9	129.1	29.59	19.24	13.62	10.80	9.289	8.103	7.574	6.673	6.692	6.373	6.058	5.692	5.934	5.378	5.217	4.963	4.589	4.757	4.701	4.455	4.344	4.241	4.201	4.366	4.238	4.139	3.832	4.225	3.941	4.246
445.0	788.0	574.6	310.6	321.6	337.2	374.6	410.7	464.4	490.0	526.9	558.7	555.5	553.1	535.8	507.2	472.2	446.5	434.7	415.9	413.1	408.3	406.4	411.1	402.6	392.4	369.9	353.0	333.8	313.5	291.3	260.8	229.7	211.8	194.0	143.6	110.5	92.31	76.56	65.98	66.87	106.2	175.0	744.9	4310	9999.9	9999.9	1758	90.75	25.27	16.33	12.73	10.91	8.969	7.752	7.299	6.686	6.741	6.724	5.830	5.727	5.468	5.250	5.001	4.671	4.877	4.555	4.527	4.440	4.452	4.245	4.382	4.009	4.116	4.028	3.871	4.012	4.022
450.0	555.2	1165	473.4	302.7	324.5	350.7	384.4	441.5	469.3	495.8	525.2	526.2	522.0	503.4	479.3	445.8	420.6	407.0	390.8	385.3	383.0	383.6	383.3	376.1	365.3	346.8	330.9	313.7	297.9	277.4	249.8	219.5	191.8	179.7	157.9	120.0	94.17	77.16	64.76	57.64	61.13	74.04	202.4	1009	4451	9999.9	9999.9	7939	124.6	26.19	16.68	13.93	11.18	9.121	8.327	7.340	7.261	6.754	6.188	5.959	5.761	5.334	5.378	4.920	4.771	4.562	4.373	4.458	4.335	4.133	4.237	3.939	4.186	3.986	4.085	3.953	3.898
455.0	287.5	1256	1013	308.7	290.8	320.7	363.6	404.6	438.0	464.4	483.1	487.2	483.2	468.6	445.3	415.0	390.8	377.0	360.6	353.2	353.4	347.1	348.3	344.7	333.3	319.1	300.9	288.6	276.9	256.4	233.8	206.4	178.5	157.2	148.4	130.7	99.36	77.63	64.00	54.55	49.64	49.31	77.27	256.5	1026	2429	9999.9	9999.9	9999.9	152.7	24.01	17.95	13.78	11.31	9.146	8.215	7.595	6.975	6.630	6.314	5.930	5.457	5.589	4.767	4.663	4.401	4.218	4.222	4.151	4.182	4.200	3.975	4.010	3.860	3.853	3.728	3.704
460.0	218.9	807.7	1987	500.8	281.6	303.6	337.8	379.2	410.0	427.9	452.8	459.1	454.0	437.3	415.3	386.4	367.3	350.0	335.4	329.4	325.7	323.2	325.5	320.4	307.0	294.1	282.1	267.3	257.3	239.5	220.9	195.1	168.5	146.1	134.3	129.0	107.8	77.41	63.67	54.20	46.06	42.78	46.99	85.90	257.7	578.3	2648	9999.9	9999.9	9999.9	120.0	25.29	17.42	13.05	10.82	8.959	8.418	7.501	6.986	6.340	6.043	5.444	5.332	4.900	4.370	4.424	4.350	4.204	3.996	3.931	4.043	3.890	3.556	3.733	3.511	3.539	3.670
465.0	197.6	420.5	2170	1204	266.7	281.8	317.6	350.1	391.6	404.6	426.6	424.4	425.0	409.8	393.6	361.8	343.2	328.1	314.1	308.2	304.3	303.0	301.2	297.8	285.3	271.2	257.1	249.8	239.9	222.2	205.0	183.9	158.2	137.5	121.8	115.2	108.3	81.98	63.67	53.21	45.13	40.42	38.83	46.23	84.76	159.4	626.5	3238	9999.9	9999.9	8042	104.1	24.25	16.13	12.82	10.92	9.022	8.023	7.300	6.603	6.372	5.631	5.238	5.087	4.682	4.289	4.309	4.331	4.042	4.121	4.025	3.944	3.609	3.630	3.503	3.474	3.482
470.0	186.1	259.8	1185	2542	486.1	262.5	288.6	321.7	352.8	367.2	384.8	384.3	385.6	374.9	356.5	328.4	307.9	296.7	283.7	275.8	272.7	270.2	270.2	266.5	254.0	244.3	230.1	222.0	214.4	200.0	185.0	166.0	144.0	126.8	110.4	98.09	95.30	86.01	66.57	51.90	44.23	38.57	35.75	35.03	43.16	59.93	164.4	754.0	3496	9999.9	9999.9	7289	136.5	24.93	16.86	13.16	10.94	9.091	7.949	7.108	6.481	5.967	5.369	5.293	4.911	4.315	4.231	4.090	3.972	3.875	3.834	3.491	3.627	3.521	3.532	3.354	3.388
475.0	176.1	196.2	437.6	2404	2109	285.2	260.1	287.0	313.8	328.2	346.0	346.7	341.2	336.0	316.9	294.4	274.8	260.2	251.7	243.3	240.5	239.3	239.6	234.6	223.1	213.5	201.3	194.5	189.1	176.3	163.5	147.4	127.9	114.3	98.81	86.63	78.89	76.37	70.09	52.84	42.15	36.03	32.83	30.22	30.51	33.28	55.61	187.3	799.6	2305	7982	9999.9	9999.9	188.7	23.77	15.74	12.26	9.930	8.542	6.943	6.232	5.645	5.078	4.866	4.702	4.258	4.009	3.785	3.818	3.470	3.335	3.094	3.065	3.296	3.340	3.008	2.949
480.0	157.7	181.6	239.1	1363	3536	494.1	242.0	258.6	291.7	300.9	317.2	321.8	314.6	310.1	293.4	268.6	250.4	240.1	229.2	224.6	221.1	217.6	219.7	212.3	203.6	194.9	181.5	176.4	171.5	162.9	149.6	135.1	118.3	104.9	91.09	80.36	72.62	67.33	66.21	56.65	42.66	35.13	30.89	28.31	26.62	26.47	29.71	58.44	195.6	533.7	1929	9999.9	9999.9	9999.9	155.4	21.81	14.89	11.26	9.604	7.931	6.618	5.889	5.618	4.949	4.569	4.228	3.902	3.756	3.728	3.458	3.262	3.261	2.898	3.115	3.110	2.903	2.760
485.0	136.8	180.3	179.2	552.1	3690	1864	238.0	244.6	269.8	284.6	301.8	300.6	295.3	289.8	275.6	251.7	235.2	221.5	214.0	209.7	203.8	203.6	204.4	197.3	187.6	179.2	167.7	161.0	157.7	148.9	137.9	125.0	110.1	98.32	85.64	75.07	66.46	59.14	58.80	58.12	44.90	34.26	29.91	26.79	24.44	23.64	22.60	28.45	58.99	134.9	450.1	2580	9999.9	9999.9	9255	31.44	20.37	13.88	10.94	9.103	7.476	6.497	5.847	5.232	4.528	4.442	4.117	3.635	3.774	3.352	3.106	3.242	2.826	2.982	3.067	2.773	2.927
490.0	129.2	163.5	165.2	249.4	1888	4082	814.4	226.0	248.2	257.3	272.7	277.1	269.7	261.7	250.8	229.7	215.1	204.2	195.4	190.2	183.8	183.9	182.2	177.4	169.4	160.8	150.6	145.5	141.2	133.6	124.6	114.4	100.6	88.89	78.82	70.35	62.60	54.34	50.56	50.78	47.62	37.23	29.33	26.39	23.88	22.23	20.29	20.27	26.61	42.81	114.2	593.7	2763	9558	9999.9	7630	757.7	23.47	15.13	10.81	8.783	7.511	6.156	5.522	4.818	4.555	4.196	3.842	3.712	3.464	3.291	3.249	2.965	2.829	2.831	2.788	2.653
495.0	111.3	151.0	160.1	167.1	566.5	3771	3012	264.4	222.3	232.6	246.5	251.0	243.8	238.8	224.5	205.8	192.0	184.8	173.0	169.1	165.1	161.8	162.9	158.4	149.9	142.8	135.3	130.6	124.6	117.4	110.8	101.0	90.70	80.43	70.91	63.91	56.82	50.08	45.36	42.32	43.02	40.38	31.34	25.48	22.94	21.06	19.02	18.24	18.08	21.31	36.98	145.3	631.7	2169	7294	9999.9	9999.9	224.2	24.80	13.81	10.35	8.745	6.877	5.819	4.915	4.531	4.306	3.943	3.639	3.569	3.308	2.972	2.810	2.614	2.624	2.677	2.539
500.0	100.6	128.1	150.2	143.2	235.3	2001	5522	804.7	200.2	217.0	226.8	226.5	227.2	216.0	202.8	188.7	175.9	166.7	156.9	151.8	150.5	147.0	146.8	144.4	135.9	128.2	121.9	117.8	113.7	106.9	100.8	92.32	84.27	72.92	64.69	58.47	53.02	46.69	42.06	38.07	37.40	38.92	34.95	26.02	22.28	20.51	18.20	17.02	15.76	15.35	18.83	43.97	153.8	500.2	1723	9245	9999.9	9999.9	186.1	20.06	12.67	9.278	7.347	6.577	4.712	4.735	4.242	4.033	3.521	3.614	2.982	2.860	2.871	2.508	2.477	2.545	2.558
505.0	92.70	114.6	140.2	133.6	152.8	710.5	5775	2410	204.0	203.2	209.9	209.0	207.5	197.6	185.7	175.1	161.0	153.6	145.0	137.4	136.0	135.0	132.2	130.3	123.8	114.6	113.2	106.9	103.4	98.57	92.67	84.33	76.15	66.65	60.13	54.11	48.38	43.79	40.00	35.41	32.63	34.02	35.82	28.16	22.16	20.11	17.54	16.01	15.14	13.48	13.48	20.24	45.35	124.3	402.4	2275	9999.9	9999.9	9999.9	33.43	17.05	11.34	8.449	6.920	5.534	4.902	4.337	4.070	3.439	3.319	2.937	2.931	2.758	2.322	2.435	2.479	2.341
510.0	86.49	102.7	118.2	129.7	117.7	252.3	2856	6290	931.1	180.0	188.7	186.9	180.5	174.1	163.0	152.3	141.1	132.6	124.8	123.1	118.9	117.0	115.9	114.0	107.9	101.2	96.61	92.63	90.73	85.36	81.02	74.08	66.33	59.26	53.24	47.91	43.25	39.01	36.15	32.28	29.41	27.98	30.58	29.76	23.67	19.24	16.74	15.25	13.91	12.75	11.83	13.31	19.82	37.95	101.6	522.6	2536	9023	9999.9	8453	785.3	19.33	11.06	8.082	6.534	5.250	4.519	3.867	3.548	3.160	2.913	2.750	2.581	2.345	2.319	2.229	2.165
515.0	75.80	88.35	97.85	117.8	111.8	137.1	776.4	6013	4825	231.8	165.9	166.9	154.8	152.3	142.9	133.4	122.6	116.9	109.0	109.4	103.7	100.9	99.73	96.87	92.83	87.53	82.20	79.04	78.11	73.87	70.52	64.13	56.88	51.43	46.24	42.33	38.53	35.14	31.95	29.13	26.05	24.52	24.23	26.06	25.57	20.84	15.79	14.07	12.80	11.60	11.01	11.25	12.44	16.90	32.15	126.6	577.6	2035	4662	9999.9	9999.9	233.0	20.46	11.25	7.483	6.046	4.873	4.127	3.590	3.335	3.085	2.579	2.432	2.493	2.179	2.128	2.063
520.0	63.76	80.71	86.43	97.10	114.2	105.7	258.6	3010	8765	1033	154.3	152.1	142.9	139.5	129.2	118.9	110.5	103.7	97.43	96.32	93.51	90.70	90.77	86.45	82.20	77.41	73.55	70.00	69.79	65.28	61.51	55.62	51.30	46.14	41.52	37.64	35.00	31.70	29.16	25.77	24.10	21.90	21.52	21.73	24.09	21.63	16.00	13.09	11.93	10.85	10.15	10.00	9.988	11.20	15.49	36.98	139.0	466.6	1083	6356	9999.9	9999.9	201.1	16.33	9.334	6.927	5.618	4.696	3.645	3.379	3.016	2.717	2.467	2.301	2.258	1.978	2.107
525.0	65.70	72.30	77.34	79.35	107.0	96.92	135.5	962.7	9272	4061	167.2	137.9	131.4	126.4	116.3	107.1	99.38	92.64	88.62	84.93	83.40	81.69	80.55	77.85	73.41	70.29	66.95	63.66	62.02	60.22	56.21	50.40	45.99	42.00	37.53	34.16	31.34	28.14	26.39	24.00	22.36	20.48	19.80	18.78	20.70	21.88	16.95	12.91	11.14	10.02	9.333	9.352	8.968	9.766	10.46	15.60	39.58	114.1	255.5	1505	8608	9999.9	9999.9	33.33	13.15	8.092	6.274	4.939	4.045	3.581	2.852	2.872	2.433	2.087	2.162	2.159	1.847
530.0	60.29	62.62	68.57	68.14	86.39	99.11	97.26	293.8	4377	9999.9	925.0	125.5	116.1	108.7	102.8	93.08	86.67	81.22	77.65	73.18	71.85	70.34	69.57	66.82	63.42	59.91	57.04	54.33	53.90	51.06	48.24	44.16	39.77	36.85	32.55	29.63	27.22	25.59	23.33	20.84	19.84	18.24	17.39	16.33	16.54	18.54	17.64	13.66	10.66	9.217	8.612	8.263	7.943	8.360	8.341	9.711	15.62	33.03	66.03	346.9	2037	7019	9999.9	8757	842.4	17.18	8.071	5.768	4.568	4.068	3.234	2.879	2.414	2.212	2.040	2.028	1.863
535.0	55.39	55.31	61.20	56.69	67.06	94.40	83.56	131.3	1107	9115	7239	172.8	102.4	96.43	89.82	82.23	74.45	70.44	66.89	63.04	61.59	60.20	59.32	57.68	54.29	50.80	47.92	46.96	45.92	43.67	41.10	38.26	33.94	31.68	28.00	25.61	23.42	22.75	19.68	18.44	17.21	16.22	15.39	14.18	13.84	14.50	15.34	14.45	10.93	8.566	7.825	7.387	7.250	7.458	7.170	7.578	9.200	13.44	21.52	84.70	462.2	1577	3295	9999.9	9999.9	247.5	16.73	7.858	5.480	4.223	3.562	2.874	2.513	2.276	2.039	1.982	1.673
540.0	57.32	56.25	56.90	51.95	54.53	83.10	81.48	86.72	316.9	4256	9999.9	990.3	95.56	85.66	79.77	73.56	67.54	62.52	58.94	56.12	55.45	52.07	52.22	50.21	47.95	44.81	41.28	41.53	40.17	38.31	36.02	33.39	30.27	27.06	24.75	22.71	21.12	19.43	17.88	16.51	15.33	14.81	14.12	13.25	12.36	12.39	12.91	14.03	11.64	8.454	7.429	6.703	6.564	6.743	6.532	6.783	7.032	8.139	10.57	25.15	110.0	359.8	755.9	4338	9999.9	9999.9	207.7	11.77	6.673	4.638	3.675	3.128	2.670	2.467	2.132	1.915	1.809
545.0	50.83	50.25	48.33	47.02	47.18	70.83	88.63	72.76	133.9	1289	9999.9	4698	101.0	80.70	73.84	64.27	59.53	55.61	51.84	49.82	49.31	45.47	45.44	43.46	42.13	39.73	36.41	36.06	34.75	32.78	32.19	29.13	27.66	24.05	21.34	19.79	18.64	17.42	16.03	14.95	13.99	13.71	12.24	11.69	11.40	10.96	10.45	11.69	11.96	9.057	6.953	6.553	6.146	5.971	5.952	5.900	6.221	6.483	7.354	11.00	30.50	87.22	178.0	1006	5794	9999.9	8908	32.67	9.483	5.623	4.178	3.344	2.825	2.189	2.027	2.089	1.801
550.0	49.85	45.09	44.92	40.51	41.92	52.70	82.34	73.36	84.25	353.2	5198	9999.9	685.6	73.56	63.52	56.49	50.14	47.05	44.28	42.67	40.45	39.07	38.12	37.21	35.56	33.24	30.96	30.43	29.15	27.83	26.66	24.98	22.76	20.40	18.43	16.53	15.88	14.77	13.61	12.75	12.04	11.40	10.63	10.22	9.737	9.339	8.832	8.995	9.976	9.078	7.157	6.066	5.458	5.424	5.149	5.234	5.574	5.733	5.834	6.672	11.28	24.65	45.60	231.7	1347	5093	9999.9	8291	817.4	14.03	5.702	3.812	3.109	2.586	2.243	1.882	1.707
555.0	47.95	44.55	41.47	38.04	37.12	42.52	62.22	80.04	64.82	133.6	1286	9999.9	7067	110.4	56.71	47.96	42.50	38.77	36.27	34.48	32.34	32.40	31.87	29.90	29.16	26.52	25.06	24.50	23.57	22.84	21.82	21.03	18.77	16.73	15.36	14.02	13.52	12.38	11.49	11.01	9.924	9.421	8.866	8.490	8.257	8.310	7.407	7.372	7.127	8.071	7.637	5.808	4.885	4.559	4.357	4.425	4.513	4.938	4.949	5.102	6.090	9.362	14.45	56.54	305.6	1142	2872	9999.9	9999.9	247.8	12.50	5.166	3.413	2.842	2.310	1.929	1.627
560.0	44.32	40.35	34.45	33.09	29.08	35.23	50.43	80.23	62.39	78.52	346.0	5092	9999.9	669.1	52.42	43.38	38.02	34.07	31.15	29.99	28.63	28.01	27.21	25.42	25.06	22.89	21.59	21.20	20.23	19.30	18.46	17.49	15.94	14.71	13.63	12.30	11.45	10.80	9.806	9.204	8.592	8.365	7.671	7.454	7.710	7.147	6.623	6.287	5.504	6.456	7.087	6.204	4.547	4.103	3.895	3.897	4.158	4.153	4.265	4.569	4.475	5.518	7.093	16.67	72.72	260.4	652.5	3420	9999.9	8414	201.2	7.735	4.595	3.099	2.345	2.155	1.856
565.0	47.52	38.38	33.44	28.50	28.62	29.65	39.73	76.34	64.93	63.00	127.3	1526	9999.9	3872	57.90	40.26	35.67	29.67	27.83	26.31	24.10	24.38	23.85	23.03	21.12	20.15	19.08	18.78	17.43	17.15	15.78	14.82	13.84	12.61	11.73	10.76	10.01	9.666	8.797	8.280	8.092	7.362	6.783	6.876	6.265	6.281	5.842	5.738	5.000	5.165	6.051	5.807	4.671	3.923	3.571	3.476	3.904	3.713	3.648	4.311	3.784	4.282	4.612	7.189	19.97	62.36	151.3	783.8	4299	9999.9	5437	30.71	5.975	3.431	2.674	2.083	1.912
570.0	42.53	35.38	31.05	24.64	23.00	24.69	31.06	53.51	74.88	54.71	70.63	395.1	5834	9999.9	476.6	38.26	30.69	26.56	23.74	22.52	20.64	20.52	20.17	19.33	17.46	16.70	15.61	15.29	14.46	14.30	13.55	12.38	11.32	10.36	9.794	8.860	8.632	7.918	7.412	7.058	6.500	6.132	6.111	5.729	5.489	5.386	5.029	4.708	4.385	4.205	4.365	5.162	4.644	3.747	3.228	3.291	3.376	3.085	3.336	3.512	3.627	3.498	3.670	4.296	7.351	17.10	37.41	179.2	987.6	3822	8267	5170	697.7	10.56	3.366	2.400	1.859
575.0	35.02	31.35	29.36	21.36	19.80	20.93	26.11	38.85	68.60	60.18	53.27	126.9	1439	9999.9	5676	60.32	28.59	23.52	20.37	19.19	17.70	16.92	17.12	15.83	15.19	13.88	13.00	12.14	12.88	11.83	11.13	10.33	9.406	8.590	8.263	7.394	7.038	6.687	6.540	5.910	5.483	5.350	5.269	4.834	4.691	4.876	4.367	4.025	3.869	3.564	3.463	3.761	4.321	3.893	3.202	2.922	2.809	2.792	2.886	3.061	2.954	3.086	3.121	3.086	3.844	6.272	11.22	42.99	223.4	855.7	2173	6454	6885	241.1	8.460	3.256	2.175
580.0	38.12	30.49	29.28	18.02	17.85	18.82	22.77	29.97	57.47	69.13	47.01	63.56	358.7	5363	9999.9	388.2	28.54	22.10	19.44	17.22	16.06	15.10	14.73	13.92	12.54	12.56	11.23	10.65	11.22	10.25	9.783	8.935	7.928	7.865	7.019	6.669	6.237	6.111	5.449	5.468	4.982	4.709	4.536	4.291	4.235	4.189	3.961	3.831	3.499	3.086	3.075	3.297	3.593	3.904	3.276	2.800	2.632	2.640	2.586	2.735	2.624	2.825	2.847	2.765	3.039	3.657	4.849	12.11	52.56	193.8	490.2	2066	7477	5115	35.23	5.377	2.817
585.0	37.26	29.21	26.65	18.16	15.67	17.69	20.73	25.19	41.44	73.99	46.22	47.21	111.8	1610	9999.9	2605	29.81	21.25	18.28	15.76	15.09	13.24	13.38	12.28	11.64	11.15	10.35	9.756	9.998	9.197	8.709	8.059	7.111	6.981	6.397	5.894	5.424	5.417	4.865	4.804	4.514	4.427	4.181	4.091	3.737	3.780	3.626	3.432	2.933	2.804	2.788	3.001	2.857	3.612	3.357	2.749	2.603	2.481	2.480	2.379	2.437	2.464	2.721	2.638	2.459	2.710	2.992	4.865	14.03	45.75	112.5	471.5	2755	7261	2027	30.00	3.863
590.0	31.91	27.38	22.88	15.71	15.48	17.60	19.25	24.51	31.50	62.02	56.77	39.72	51.49	396.8	5765	8964	310.9	22.12	17.53	14.85	13.34	12.06	11.21	10.88	10.20	9.746	9.076	8.422	8.913	7.978	7.514	7.120	6.520	6.098	5.497	5.270	4.617	4.667	4.511	4.108	4.099	3.864	3.645	3.595	3.472	3.302	3.279	2.965	2.791	2.591	2.440	2.521	2.400	2.766	3.222	2.934	2.441	2.314	2.158	2.158	2.070	2.106	2.219	2.312	2.313	2.220	2.229	2.806	4.912	12.24	27.20	107.8	627.9	2469	4557	3447	148.2
595.0	30.67	26.38	22.39	14.48	13.43	17.70	19.38	24.39	30.88	47.50	68.90	39.80	38.12	112.9	1412	9999.9	3807	30.50	16.55	13.63	11.97	11.60	9.791	9.710	9.150	8.140	7.491	7.448	7.586	7.049	6.533	6.224	5.812	5.182	4.826	4.347	4.340	3.841	3.972	3.878	3.509	3.325	3.303	3.283	3.044	3.184	2.901	2.658	2.617	2.375	2.328	2.046	2.102	2.389	2.692	2.850	2.614	2.092	1.864	1.859	1.894	1.925	1.983	2.008	2.099	2.122	1.866	2.177	2.496	4.287	7.853	25.69	141.9	552.2	1176	3751	4197
600.0	26.17	25.62	18.23	15.23	14.34	17.15	21.93	25.83	32.97	43.28	71.47	48.88	35.00	49.80	344.9	5399	9063	83.20	17.79	13.38	11.40	10.06	9.304	8.854	8.074	7.534	6.885	6.957	6.649	6.355	6.026	5.529	5.106	4.721	4.347	3.887	3.825	3.633	3.636	3.581	3.187	3.182	2.919	2.980	2.810	2.719	2.691	2.388	2.301	2.180	2.161	1.899	1.984	1.931	2.267	2.413	2.671	2.119	1.943	1.848	1.653	1.759	1.626	1.717	1.804	2.020	1.772	1.790	1.732	2.239	3.087	7.245	33.24	124.8	265.7	1160	4334
605.0	26.01	24.16	15.80	18.12	14.40	17.93	21.64	29.11	36.51	43.00	65.88	63.24	35.28	36.10	101.7	1657	9999.9	640.2	19.47	13.28	11.63	9.691	8.401	8.032	7.344	6.832	6.551	6.361	5.707	5.498	5.686	5.234	4.713	4.581	4.096	3.647	3.567	3.568	3.165	3.033	3.057	2.894	2.756	2.804	2.644	2.590	2.522	2.236	2.138	2.005	1.881	1.797	1.806	1.686	1.886	2.065	2.430	2.302	1.996	1.687	1.634	1.655	1.618	1.516	1.593	1.708	1.739	1.683	1.445	1.711	1.916	2.842	8.808	29.49	61.20	263.7	1528
610.0	22.66	22.08	16.49	15.53	13.00	18.37	24.20	29.63	37.20	43.47	54.28	72.02	40.18	33.54	46.72	407.2	5758	6510	200.5	14.45	11.50	9.580	8.266	7.535	6.995	6.291	5.640	5.604	5.381	5.447	5.037	4.781	4.366	4.009	3.752	3.304	3.304	3.228	2.905	2.780	2.667	2.566	2.649	2.503	2.534	2.468	2.346	2.219	2.126	1.856	1.710	1.644	1.664	1.644	1.648	1.757	2.112	2.149	2.031	1.655	1.508	1.551	1.546	1.475	1.438	1.466	1.603	1.562	1.483	1.390	1.496	1.637	2.962	7.773	14.92	60.43	347.6
615.0	22.55	21.26	16.41	14.84	13.52	17.13	24.00	29.19	37.36	44.08	46.13	64.01	53.19	32.74	33.34	113.3	1451	8645	2504	18.25	10.69	9.145	8.148	7.242	6.699	5.578	5.370	5.382	4.867	4.619	4.505	4.373	3.909	3.810	3.411	3.035	2.810	2.821	2.413	2.556	2.518	2.370	2.409	2.265	2.262	2.302	2.218	1.941	1.890	1.751	1.679	1.618	1.562	1.479	1.528	1.454	1.799	1.970	2.020	1.812	1.515	1.386	1.521	1.378	1.376	1.249	1.407	1.366	1.363	1.181	1.189	1.235	1.393	2.672	4.246	14.51	78.57
620.0	22.75	18.92	17.39	13.58	14.64	16.76	24.52	29.98	35.70	43.27	44.73	53.60	59.38	35.02	30.05	48.03	352.0	5197	6662	56.62	12.02	9.317	8.204	6.932	6.128	5.624	5.242	4.754	4.516	4.281	4.337	3.973	3.673	3.352	3.399	2.709	2.731	2.633	2.311	2.305	2.300	2.275	2.079	2.224	2.242	2.083	2.122	2.016	1.648	1.668	1.613	1.408	1.376	1.388	1.374	1.465	1.482	1.663	1.871	1.839	1.434	1.354	1.457	1.276	1.211	1.294	1.141	1.227	1.247	1.274	1.270	1.107	1.135	1.516	1.809	4.123	18.63
625.0	18.90	22.03	15.01	12.59	15.24	17.77	22.63	29.32	34.65	41.80	43.36	46.46	61.80	39.57	29.31	32.23	101.2	1758	9239	485.1	13.42	9.183	7.986	6.267	6.116	5.285	4.768	4.527	4.139	3.979	4.110	3.732	3.600	3.253	2.985	2.944	2.621	2.569	2.184	2.047	1.980	1.987	1.896	2.034	2.021	2.038	1.928	1.813	1.709	1.561	1.481	1.276	1.347	1.371	1.381	1.499	1.528	1.547	1.631	1.597	1.570	1.340	1.271	1.395	1.035	1.208	1.127	1.110	1.203	1.217	1.060	1.058	0.928	1.202	1.205	1.759	4.991
630.0	18.77	21.90	14.04	13.42	13.68	16.63	21.07	27.48	33.90	38.63	41.07	42.32	51.66	49.08	29.79	27.66	42.08	428.9	5606	4986	43.51	10.61	8.085	6.416	5.801	5.256	4.517	4.395	4.333	3.755	3.894	3.691	3.407	3.177	2.995	2.787	2.592	2.457	2.424	2.094	1.898	1.874	1.901	1.867	1.848	1.844	1.832	1.763	1.537	1.575	1.487	1.306	1.287	1.290	1.251	1.400	1.361	1.364	1.396	1.492	1.498	1.353	1.206	1.241	1.092	1.121	1.049	1.017	1.042	0.980	1.090	0.929	0.899	0.940	0.869	1.071	1.836
635.0	18.23	23.82	17.45	14.52	13.74	15.77	20.03	25.35	31.50	37.76	39.62	40.18	43.25	53.36	32.72	26.91	27.86	111.9	1468	7587	1416	12.89	8.660	6.767	5.680	4.814	4.578	4.167	4.009	3.537	3.531	3.310	3.136	2.842	2.943	2.600	2.363	2.197	2.266	2.128	1.877	1.927	1.688	1.712	1.757	1.701	1.695	1.717	1.628	1.471	1.373	1.349	1.299	1.234	1.234	1.257	1.274	1.266	1.279	1.270	1.357	1.263	1.190	1.161	1.075	1.008	0.865	0.903	0.949	0.930	0.890	0.969	0.781	0.828	0.852	0.797	0.976
640.0	25.84	28.00	21.42	12.74	14.84	15.56	21.46	25.91	30.08	37.25	39.72	40.52	40.07	50.20	38.67	26.66	24.96	40.23	351.1	5211	4047	37.54	9.244	6.977	5.877	5.030	4.364	4.169	4.137	3.873	3.575	3.018	2.826	2.652	2.927	2.610	2.319	2.201	2.115	2.055	1.905	1.768	1.756	1.645	1.709	1.811	1.699	1.757	1.576	1.501	1.386	1.292	1.147	1.212	1.238	1.283	1.093	1.226	1.304	1.111	1.234	1.169	1.233	1.025	1.053	0.967	0.868	0.917	0.786	0.848	0.829	0.796	0.738	0.760	0.774	0.631	0.682
645.0	28.21	31.23	23.67	16.01	13.81	14.08	19.51	23.15	30.47	35.57	39.66	41.51	39.43	44.88	45.92	27.35	24.23	23.92	93.02	1990	7110	339.9	10.60	7.218	6.014	5.364	4.286	4.105	4.042	3.786	3.773	3.075	2.820	2.783	2.685	2.463	2.433	2.396	2.005	2.005	1.774	1.732	1.788	1.616	1.699	1.604	1.567	1.630	1.605	1.427	1.319	1.256	1.176	1.177	1.169	1.200	1.159	1.183	1.216	1.107	1.217	1.028	1.157	1.045	0.920	0.829	0.953	0.934	0.837	0.793	0.692	0.716	0.773	0.722	0.697	0.693	0.688
650.0	26.79	39.28	31.57	18.13	14.73	14.39	19.65	25.48	28.08	35.79	39.04	43.47	42.01	43.20	48.35	30.33	23.96	20.93	34.05	517.8	6560	2278	14.56	7.207	6.141	5.407	4.228	4.201	3.934	3.357	3.512	3.178	2.681	2.584	2.648	2.297	2.395	2.288	2.065	2.019	1.874	1.748	1.836	1.734	1.578	1.449	1.596	1.658	1.528	1.412	1.277	1.284	1.071	1.193	1.051	1.233	1.192	1.171	1.057	1.096	1.127	1.057	1.057	1.006	0.987	0.907	0.931	0.826	0.753	0.886	0.788	0.700	0.628	0.635	0.692	0.581	0.578
