Sample:	'1
File name:	t2025052206杨家围子南桥东沟 20倍.FD3
Run date:	'14:06:25, 05/23/2025
Operator:	Administrator
Comment:	'

Instrument
Model:	F-2700 FL Spectrophotometer
Serial number:	23B8-004
ROM Version:	4J14000 07

Instrument parameters
Measurement type:	3-D scan
Data mode:	Fluorescence
EX  Start WL:	220.0 nm
EX  End WL:	600.0 nm
EX Sampling interval:	5.0 nm
EM  Start WL:	230.0 nm
EM  End WL:	650.0 nm
EM Sampling interval:	5.0 nm
Scan speed:	12000 nm/min
EX Slit:	5.0 nm
EM Slit:	5.0 nm
PMT Voltage:	700 V
Response:	Auto 
Corrected spectra:	Off
Contour interval:	50.000

Peak integration
Integration method:	Rectangular
Sensitivity:	1
Threshold:	1.000

Peaks
No.	ApexEX/EM(nm)	Height(Data)
1	225.0/295.0	3540
2	225.0/400.0	277.3
3	225.0/420.0	258.7
4	225.0/490.0	233.1
5	225.0/580.0	377.0
6	230.0/500.0	215.0
7	235.0/510.0	168.3
8	240.0/265.0	406.6
9	240.0/525.0	159.7
10	245.0/270.0	416.2
11	245.0/535.0	142.3
12	250.0/275.0	535.5
13	250.0/550.0	119.0
14	255.0/280.0	675.8
15	255.0/560.0	121.1
16	260.0/445.0	199.1
17	260.0/575.0	118.3
18	265.0/290.0	947.2
19	265.0/585.0	126.8
20	270.0/300.0	1187
21	270.0/595.0	106.0
22	275.0/305.0	1136
23	275.0/610.0	80.28
24	280.0/310.0	772.2
25	280.0/625.0	53.42
26	285.0/315.0	603.4
27	285.0/635.0	37.01
28	290.0/325.0	493.9
29	295.0/330.0	366.0
30	300.0/335.0	328.0
31	305.0/340.0	295.1
32	310.0/350.0	226.7
33	315.0/355.0	215.3
34	320.0/360.0	218.7
35	325.0/370.0	181.1
36	330.0/375.0	177.0
37	335.0/380.0	188.1
38	340.0/385.0	160.0
39	345.0/395.0	143.8
40	350.0/400.0	146.0
41	355.0/405.0	131.2
42	360.0/415.0	108.8
43	365.0/420.0	111.6
44	370.0/425.0	99.29
45	380.0/440.0	75.82
46	385.0/445.0	65.86
47	395.0/460.0	47.74
48	400.0/465.0	41.88
49	405.0/470.0	33.08
50	410.0/475.0	28.38
51	415.0/485.0	25.65
52	420.0/490.0	21.14
53	425.0/495.0	18.74
54	430.0/505.0	17.34
55	435.0/510.0	13.85
56	440.0/515.0	12.29
57	445.0/525.0	10.80
58	450.0/530.0	8.887
59	455.0/295.0	8.672
60	460.0/545.0	6.420
61	470.0/560.0	3.835
62	495.0/270.0	2.245
63	505.0/275.0	3.286
64	520.0/285.0	4.807
65	530.0/290.0	5.157
66	540.0/295.0	6.507
67	545.0/300.0	6.475
68	550.0/305.0	5.929
69	560.0/310.0	4.705
70	570.0/315.0	3.720
71	580.0/320.0	3.924
72	585.0/325.0	3.437

Data points
	220.0	225.0	230.0	235.0	240.0	245.0	250.0	255.0	260.0	265.0	270.0	275.0	280.0	285.0	290.0	295.0	300.0	305.0	310.0	315.0	320.0	325.0	330.0	335.0	340.0	345.0	350.0	355.0	360.0	365.0	370.0	375.0	380.0	385.0	390.0	395.0	400.0	405.0	410.0	415.0	420.0	425.0	430.0	435.0	440.0	445.0	450.0	455.0	460.0	465.0	470.0	475.0	480.0	485.0	490.0	495.0	500.0	505.0	510.0	515.0	520.0	525.0	530.0	535.0	540.0	545.0	550.0	555.0	560.0	565.0	570.0	575.0	580.0	585.0	590.0	595.0	600.0
230.0	89.15	1361	3231	861.5	37.95	7.098	5.474	4.707	4.278	3.741	3.302	2.912	2.657	2.016	1.888	1.496	1.400	1.254	1.138	1.124	0.941	0.895	0.840	0.763	0.700	0.614	0.628	0.577	0.604	0.555	0.545	0.554	0.515	0.474	0.484	0.505	0.468	0.476	0.445	0.412	0.555	0.872	0.859	0.498	0.411	0.417	1.696	6.261	9.716	6.556	2.177	0.561	0.340	0.318	0.302	0.284	0.327	0.301	0.271	0.307	0.281	0.301	0.316	0.315	0.296	0.307	0.278	0.273	0.281	0.309	0.317	0.322	0.290	0.311	0.299	0.334	0.329
235.0	203.5	380.9	1859	2889	587.0	59.76	7.259	6.147	4.195	3.762	3.117	3.107	2.903	2.409	2.046	1.564	1.235	1.298	1.051	1.158	0.872	0.856	0.836	0.810	0.756	0.710	0.650	0.572	0.555	0.641	0.509	0.562	0.481	0.452	0.551	0.465	0.439	0.492	0.528	0.426	0.494	0.643	0.760	0.995	0.767	0.510	0.699	1.803	3.815	6.624	8.454	10.02	4.780	0.971	0.306	0.288	0.291	0.321	0.306	0.317	0.270	0.302	0.278	0.305	0.320	0.307	0.275	0.279	0.334	0.312	0.301	0.290	0.289	0.289	0.281	0.298	0.342
240.0	257.2	235.1	554.1	2318	2896	460.3	29.87	6.601	5.051	4.536	3.534	3.710	2.921	2.515	1.998	1.591	1.316	1.239	1.048	1.135	1.006	0.870	0.788	0.864	0.703	0.695	0.675	0.584	0.638	0.569	0.520	0.501	0.493	0.421	0.552	0.419	0.381	0.486	0.504	0.434	0.472	0.450	0.493	0.852	1.027	0.913	0.624	0.742	1.174	2.074	4.794	13.17	17.55	9.524	2.819	0.580	0.329	0.300	0.358	0.328	0.329	0.289	0.266	0.335	0.303	0.314	0.245	0.309	0.300	0.284	0.266	0.341	0.333	0.260	0.328	0.329	0.302
245.0	187.0	295.0	211.2	772.7	3010	3003	341.2	16.05	6.557	4.647	4.317	3.788	2.899	2.301	2.115	1.516	1.474	1.194	1.150	1.244	0.957	0.825	0.868	0.780	0.670	0.648	0.680	0.685	0.618	0.508	0.548	0.510	0.509	0.481	0.475	0.461	0.421	0.460	0.552	0.433	0.426	0.445	0.445	0.556	0.657	0.852	1.007	0.977	0.706	0.692	1.299	4.516	12.28	16.41	14.37	7.259	2.043	0.420	0.340	0.281	0.297	0.335	0.302	0.343	0.274	0.295	0.263	0.308	0.340	0.309	0.298	0.296	0.327	0.285	0.284	0.302	0.286
250.0	80.71	198.8	286.0	286.6	943.6	2806	3536	1181	76.09	6.715	5.482	4.348	3.450	2.733	2.225	1.983	1.714	1.450	1.352	1.288	1.025	0.923	0.834	1.028	0.812	0.696	0.713	0.740	0.667	0.676	0.636	0.609	0.567	0.582	0.466	0.455	0.477	0.497	0.507	0.470	0.464	0.436	0.405	0.475	0.419	0.483	0.707	1.041	1.188	0.954	0.801	1.397	3.154	5.427	8.938	12.40	17.28	14.90	7.997	2.205	0.420	0.313	0.368	0.315	0.270	0.332	0.288	0.301	0.344	0.298	0.308	0.301	0.352	0.341	0.334	0.305	0.347
255.0	46.06	70.04	187.4	361.4	322.6	709.3	2656	4958	1606	86.85	8.674	5.243	4.591	2.992	2.575	2.171	1.591	1.652	1.273	1.243	1.179	1.154	0.916	0.962	0.809	0.738	0.665	0.788	0.598	0.595	0.659	0.529	0.482	0.642	0.464	0.465	0.451	0.464	0.466	0.418	0.424	0.451	0.417	0.451	0.390	0.441	0.434	0.478	0.668	0.999	1.409	1.551	1.220	1.544	2.395	3.125	6.594	14.80	25.76	24.39	11.10	2.242	0.385	0.320	0.296	0.326	0.370	0.346	0.312	0.372	0.286	0.321	0.361	0.285	0.448	0.324	0.332
260.0	34.92	39.57	72.81	294.9	353.7	235.3	783.1	3763	5203	1279	38.28	7.010	5.195	4.178	2.755	2.351	1.684	1.471	1.502	1.333	1.178	1.220	0.880	0.949	0.999	0.771	0.754	0.885	0.638	0.628	0.667	0.644	0.520	0.566	0.524	0.496	0.491	0.409	0.475	0.379	0.476	0.473	0.476	0.440	0.401	0.386	0.385	0.402	0.436	0.530	0.898	1.741	1.911	1.329	0.996	1.034	1.920	4.133	11.17	23.32	31.13	22.91	8.554	1.296	0.348	0.342	0.342	0.330	0.301	0.316	0.319	0.344	0.335	0.334	0.346	0.367	0.339
265.0	43.76	36.79	34.52	135.3	406.6	292.5	235.6	1204	4897	5487	227.6	17.26	7.228	4.861	3.578	2.579	2.068	1.584	1.685	1.467	1.124	1.146	1.111	0.982	0.916	0.775	0.863	0.857	0.845	0.705	0.671	0.597	0.529	0.642	0.531	0.485	0.618	0.399	0.481	0.406	0.524	0.466	0.445	0.438	0.449	0.417	0.399	0.339	0.408	0.398	0.462	0.950	1.818	2.161	1.686	0.971	0.894	1.317	3.003	7.103	17.08	31.01	31.91	20.43	5.351	0.614	0.377	0.370	0.385	0.298	0.341	0.318	0.356	0.317	0.354	0.345	0.366
270.0	122.4	109.4	70.16	64.60	203.8	416.2	328.8	348.5	1488	4640	5968	870.5	62.60	7.653	4.616	3.322	2.641	2.018	1.877	1.696	1.385	1.341	1.099	1.101	1.003	0.802	0.837	0.884	0.709	0.722	0.729	0.593	0.562	0.586	0.534	0.582	0.494	0.540	0.619	0.477	0.514	0.594	0.543	0.678	0.613	0.566	0.590	0.499	0.509	0.435	0.383	0.523	0.835	1.303	1.932	2.245	2.093	1.385	1.225	2.032	4.412	9.142	16.13	27.62	29.23	27.75	14.24	4.683	0.813	0.350	0.348	0.347	0.347	0.325	0.354	0.325	0.394
275.0	673.5	665.2	442.2	163.8	109.2	225.5	535.5	391.4	443.9	1205	3626	8277	1309	72.28	6.890	4.383	3.299	2.655	2.426	1.812	1.527	1.461	1.146	1.117	1.065	0.920	1.074	0.896	0.767	0.747	0.865	0.626	0.684	0.667	0.798	0.738	0.723	1.160	1.113	0.881	1.050	1.164	1.291	1.581	1.865	1.900	1.753	1.948	1.474	1.174	0.615	0.581	0.659	0.727	1.017	1.301	2.267	3.286	2.745	1.503	1.709	2.798	4.312	7.102	9.272	19.35	39.45	33.14	22.17	5.985	0.721	0.372	0.325	0.406	0.440	0.329	0.369
280.0	1623	1645	1127	391.4	115.2	152.8	378.3	675.8	369.9	495.3	1179	5512	8748	976.6	34.75	6.208	4.396	3.331	2.756	1.970	1.652	1.579	1.238	1.143	1.149	1.093	1.004	0.894	0.924	0.956	0.813	0.753	0.791	0.739	0.743	0.962	1.160	1.800	1.848	1.613	1.674	2.310	2.570	3.238	3.643	3.892	4.202	4.248	3.375	2.335	1.319	0.818	0.620	0.688	0.845	0.915	1.364	2.287	3.663	3.794	2.424	2.009	2.045	2.855	3.444	5.996	14.29	28.13	49.35	33.51	18.67	3.072	0.456	0.462	0.405	0.318	0.449
285.0	2457	2485	1667	593.7	150.7	144.6	242.0	593.4	768.8	491.1	613.1	1807	7065	7888	641.0	14.04	6.033	3.867	3.274	2.585	1.754	1.790	1.506	1.308	1.219	1.184	1.018	0.981	0.809	0.932	0.827	0.828	0.743	0.699	0.865	1.106	1.663	2.777	2.463	2.361	2.586	3.166	3.825	4.395	5.342	5.890	5.862	6.053	5.066	3.473	2.017	1.000	0.831	0.661	0.811	0.895	1.145	1.428	2.350	4.064	4.807	3.472	2.354	2.766	2.764	3.136	4.756	8.625	20.08	39.83	55.96	29.55	12.85	1.625	0.448	0.400	0.432
290.0	3311	3389	2320	847.3	194.1	156.0	223.7	391.3	770.1	947.2	703.5	825.0	2099	5595	6207	1937	38.28	5.653	4.402	3.176	2.246	2.110	1.876	1.523	1.269	1.186	1.120	1.080	0.931	0.924	0.894	0.919	0.812	0.772	0.905	1.111	2.151	3.494	3.176	3.033	3.392	4.028	4.834	5.737	7.210	7.956	8.261	8.351	6.858	4.747	2.747	1.509	1.068	0.766	0.861	0.921	1.139	1.309	1.625	2.418	3.436	4.541	5.157	4.806	3.824	3.234	3.017	4.099	6.385	11.04	20.70	28.64	41.71	39.08	20.45	9.962	2.016
295.0	3472	3540	2511	933.6	209.6	163.5	213.4	321.8	526.7	927.7	1154	690.8	732.3	1357	3038	7524	759.3	41.48	6.120	4.423	2.848	2.462	1.998	1.789	1.511	1.208	1.151	1.244	0.964	1.149	0.849	0.902	0.877	0.777	0.932	1.320	2.229	3.680	3.707	3.107	3.401	4.302	5.280	6.067	7.648	8.482	8.626	8.672	7.721	5.338	3.030	1.562	1.044	0.938	0.910	0.887	1.119	1.288	1.569	1.957	2.449	2.898	3.407	5.599	6.507	5.280	3.482	3.490	3.401	3.772	5.451	7.006	10.56	17.66	36.36	53.76	32.40
300.0	3337	3441	2393	911.3	211.6	156.5	202.9	299.2	448.8	692.4	1187	920.9	449.2	401.6	793.8	4315	6149	602.0	25.03	6.032	3.596	2.641	2.309	1.817	1.820	1.519	1.366	1.276	1.000	1.038	0.970	0.857	0.901	0.817	0.925	1.398	2.344	3.346	3.698	2.795	3.286	4.259	4.928	6.135	7.080	7.957	8.069	8.657	7.658	5.231	2.985	1.649	1.007	0.929	0.914	0.927	1.170	1.212	1.623	1.773	2.252	2.474	2.853	3.854	5.387	6.475	5.437	4.063	2.961	2.188	2.061	2.287	2.971	4.634	10.49	26.00	47.73
305.0	2904	2995	2094	816.0	208.8	145.2	191.8	285.0	403.2	557.2	839.4	1136	514.4	200.5	238.5	1167	5424	5175	448.9	10.49	4.579	3.728	2.630	2.192	1.799	1.584	1.458	1.418	1.141	0.958	0.869	0.885	0.866	0.858	0.978	1.126	2.093	2.966	2.882	2.785	3.030	3.872	4.306	5.660	6.463	6.899	7.113	7.463	6.530	4.662	2.693	1.584	0.931	0.825	0.880	0.975	1.145	1.125	1.513	1.702	2.108	2.291	2.480	3.176	3.732	4.351	5.929	5.824	3.782	2.199	1.462	1.364	1.300	1.617	2.982	6.630	15.60
310.0	2246	2339	1657	676.2	186.7	132.8	177.4	250.9	349.7	456.3	573.9	767.5	772.2	302.2	133.4	307.1	1459	3914	5277	1601	25.79	4.789	3.489	2.849	1.946	1.709	1.507	1.420	1.210	1.113	0.958	0.962	0.897	0.896	0.858	1.113	1.608	2.641	2.374	2.309	2.541	3.089	3.772	4.504	4.948	5.493	5.572	6.048	5.130	3.849	2.245	1.422	0.893	0.887	0.818	0.968	1.140	1.169	1.404	1.537	1.891	2.147	2.360	2.665	2.794	3.029	3.367	4.188	4.705	3.952	2.695	1.621	1.086	1.042	1.306	2.067	4.044
315.0	1624	1713	1242	514.9	164.4	124.8	161.1	218.5	295.7	378.0	443.0	473.5	525.9	603.4	154.0	124.0	361.6	913.9	2698	6738	540.0	29.21	4.793	3.336	2.162	2.067	1.745	1.652	1.414	1.148	1.156	0.876	0.971	0.862	0.921	1.040	1.413	1.907	1.995	2.170	1.900	2.529	2.707	3.237	3.907	4.165	4.476	4.577	3.868	2.814	1.679	1.161	0.837	0.864	0.906	0.924	1.041	1.076	1.199	1.400	1.651	1.780	1.837	2.220	2.263	2.395	2.477	2.564	2.703	2.931	3.720	3.663	2.350	1.388	0.821	1.110	1.560
320.0	1286	1321	980.5	420.8	147.4	121.4	148.4	197.3	264.4	333.1	381.9	382.7	348.8	493.5	430.6	115.8	117.8	229.2	678.0	3989	4417	462.0	12.92	4.215	3.021	2.466	1.854	1.659	1.474	1.282	1.202	1.070	0.897	0.933	0.919	1.012	1.232	1.683	1.738	1.841	1.628	2.076	2.499	2.654	3.211	3.339	3.464	3.468	3.025	2.185	1.465	1.127	0.876	0.814	0.765	0.906	0.888	1.063	1.041	1.321	1.357	1.582	1.799	1.949	2.019	2.287	2.120	2.036	2.014	1.938	2.237	3.120	3.924	2.761	1.263	0.935	0.998
325.0	1032	1068	795.3	352.3	143.2	119.7	142.6	189.5	240.3	305.9	340.8	340.8	290.7	303.5	493.9	257.5	74.25	78.47	172.2	1069	4152	4024	63.72	6.895	3.444	2.825	2.022	1.709	1.612	1.518	1.309	1.082	1.017	1.094	0.817	0.866	1.007	1.516	1.433	1.473	1.494	1.789	2.112	2.210	2.690	2.630	2.868	2.842	2.634	1.803	1.295	0.984	0.789	0.676	0.771	0.903	0.935	0.991	1.136	1.182	1.271	1.516	1.686	1.928	1.916	1.956	2.035	1.850	1.800	1.656	1.551	1.830	2.551	3.437	2.979	1.707	0.949
330.0	833.5	842.8	635.5	295.5	137.7	114.8	137.9	173.0	219.3	273.6	307.7	306.5	269.5	227.4	285.6	366.0	190.5	60.33	61.35	256.9	1125	3554	4130	1200	19.77	3.940	2.847	2.132	1.768	1.658	1.309	1.170	1.192	1.071	0.963	0.853	0.947	1.272	1.271	1.313	1.282	1.489	1.736	1.781	2.007	2.208	2.258	2.331	2.062	1.532	1.227	0.965	0.877	0.702	0.772	0.812	0.955	0.997	1.130	1.117	1.190	1.413	1.571	1.759	1.793	1.736	1.812	1.666	1.756	1.547	1.462	1.428	1.585	2.002	2.292	2.607	2.315
335.0	645.4	651.5	506.5	276.1	134.5	113.8	129.1	160.0	198.6	246.6	283.8	280.7	253.1	213.8	192.6	213.2	328.0	164.8	45.74	78.26	267.3	825.0	2430	5311	437.2	21.17	3.966	2.544	2.161	1.772	1.505	1.223	1.273	1.132	1.068	0.900	0.879	1.029	1.057	1.176	1.136	1.201	1.374	1.508	1.691	1.599	1.751	1.862	1.649	1.410	1.086	0.946	0.839	0.782	0.718	0.762	0.959	0.878	1.055	1.064	1.226	1.335	1.362	1.656	1.540	1.720	1.620	1.702	1.668	1.557	1.437	1.391	1.307	1.318	1.423	1.569	1.997
340.0	546.7	556.1	440.6	250.2	136.1	119.9	133.6	160.9	188.5	232.7	269.9	272.7	253.0	210.9	173.1	145.5	235.1	295.1	79.03	41.93	79.03	201.2	618.4	3452	3608	372.5	9.806	3.423	2.359	1.804	1.747	1.432	1.214	1.059	1.157	0.927	0.947	0.961	1.110	1.112	1.049	1.182	1.355	1.347	1.590	1.572	1.438	1.671	1.520	1.168	1.030	0.987	0.769	0.842	0.728	0.732	0.933	0.993	1.073	1.058	1.090	1.154	1.330	1.471	1.626	1.641	1.476	1.626	1.627	1.556	1.490	1.407	1.297	1.197	1.259	1.059	1.174
345.0	487.4	483.9	381.8	234.9	141.6	120.0	138.0	153.6	184.3	218.9	250.5	260.0	248.0	210.7	174.5	131.4	139.9	269.6	199.5	49.74	40.77	65.27	154.4	950.4	3855	3301	53.78	5.593	3.020	2.199	1.693	1.400	1.194	1.249	1.012	1.001	0.874	1.026	1.102	1.035	1.011	1.085	1.262	1.253	1.388	1.500	1.449	1.734	1.462	1.134	0.947	0.908	0.767	0.866	0.749	0.827	0.873	1.031	1.145	1.090	1.099	1.175	1.180	1.340	1.513	1.527	1.365	1.402	1.466	1.452	1.362	1.402	1.383	1.341	1.251	1.183	1.039
350.0	441.6	421.6	343.9	221.9	147.8	132.4	139.1	154.8	182.3	209.3	234.7	245.2	237.8	208.5	174.0	133.7	111.4	146.3	226.7	142.4	52.11	40.37	55.89	230.4	1087	3014	3384	958.1	16.24	2.985	2.322	1.592	1.314	1.258	1.081	0.946	0.991	1.008	0.992	1.040	0.982	1.046	1.069	1.118	1.254	1.356	1.364	1.411	1.304	1.084	0.870	0.938	0.893	0.873	0.889	0.823	0.887	1.013	1.043	1.031	1.107	1.220	1.173	1.280	1.412	1.590	1.363	1.373	1.386	1.417	1.387	1.326	1.347	1.262	1.163	1.117	1.030
355.0	366.7	365.5	317.1	216.1	154.9	142.0	146.4	164.0	175.7	203.3	223.0	238.0	230.6	205.9	177.2	139.2	112.5	103.3	128.7	215.3	144.3	48.86	40.07	74.70	260.1	706.2	2157	4352	395.4	16.38	3.077	2.115	1.709	1.514	1.261	0.964	0.885	0.876	0.956	0.982	0.861	1.096	0.991	1.049	1.106	1.324	1.167	1.157	1.182	1.067	0.747	0.981	0.916	0.911	0.874	0.799	0.838	0.880	1.058	1.075	1.118	1.205	1.338	1.232	1.349	1.446	1.327	1.420	1.369	1.467	1.447	1.315	1.203	1.168	1.201	1.251	1.060
360.0	354.9	355.1	297.4	223.3	165.5	150.8	152.4	163.4	176.5	194.0	212.6	223.7	220.2	203.0	178.8	142.0	115.8	98.25	97.19	154.3	218.7	74.59	43.49	44.35	80.49	175.8	565.4	3091	3255	322.7	7.268	2.646	1.916	1.666	1.321	1.134	0.885	0.979	0.920	1.017	0.852	0.965	1.112	1.032	1.313	1.214	1.090	1.087	1.094	1.012	0.858	0.942	0.892	0.940	0.796	0.856	0.998	0.953	1.045	1.099	1.171	1.140	1.337	1.216	1.366	1.231	1.254	1.468	1.367	1.371	1.363	1.284	1.297	1.283	1.268	1.165	1.204
365.0	334.5	324.8	295.2	225.1	171.5	164.2	159.6	168.0	180.4	194.3	213.6	218.6	213.4	199.9	181.3	145.7	121.9	105.8	93.98	106.2	192.2	172.5	63.15	42.64	44.97	61.18	143.9	890.8	3526	2890	48.70	4.186	2.484	1.853	1.548	1.119	1.118	1.120	0.986	1.066	0.845	0.902	1.000	1.047	1.131	1.107	1.034	1.162	1.064	0.979	0.937	1.086	0.986	0.974	1.002	0.896	1.004	1.033	1.156	1.093	1.210	1.116	1.163	1.304	1.337	1.335	1.292	1.374	1.439	1.382	1.372	1.284	1.245	1.243	1.268	1.060	1.242
370.0	304.9	312.8	283.9	220.2	183.2	175.3	174.0	179.1	184.4	195.5	205.5	213.8	208.8	200.6	179.9	150.9	128.2	114.9	102.6	97.27	120.0	181.1	150.4	59.91	45.50	41.68	53.62	216.3	1024	2774	3161	745.3	13.71	2.493	1.858	1.470	1.173	1.163	0.983	1.162	0.984	1.011	1.068	1.040	1.024	1.073	1.036	1.095	1.121	0.962	0.948	1.001	0.964	0.962	0.989	0.990	1.039	1.068	1.116	1.040	1.194	1.190	1.130	1.341	1.317	1.369	1.185	1.360	1.296	1.391	1.438	1.328	1.251	1.334	1.136	1.299	1.163
375.0	295.7	309.4	272.6	220.2	197.3	188.3	184.0	188.1	193.8	198.3	204.5	208.1	202.4	194.9	174.2	153.1	135.5	122.4	112.7	103.0	99.90	116.8	177.0	142.5	60.28	44.01	40.05	69.56	244.0	655.5	2227	3605	335.5	13.75	2.401	1.716	1.386	1.184	1.088	1.121	1.064	1.016	1.049	1.056	0.991	1.195	1.086	1.140	1.134	1.056	0.894	1.000	1.037	1.009	0.973	0.977	1.146	1.090	1.006	1.066	1.240	1.233	1.160	1.268	1.237	1.220	1.285	1.236	1.252	1.313	1.317	1.313	1.358	1.321	1.061	1.258	1.190
380.0	284.5	297.3	280.0	227.9	208.1	196.0	195.9	197.0	191.0	198.0	203.9	206.5	201.6	191.5	172.7	154.6	139.2	122.7	118.0	108.0	100.1	99.73	134.9	188.1	101.6	52.50	40.74	40.51	73.19	160.9	593.3	2695	2793	268.7	5.558	2.227	1.469	1.322	1.286	1.145	1.059	0.994	1.095	1.083	0.973	1.281	0.977	1.037	1.105	0.969	0.960	0.947	1.043	1.044	1.112	0.907	1.064	1.052	1.039	1.117	1.232	1.201	1.159	1.381	1.229	1.381	1.232	1.114	1.282	1.349	1.277	1.212	1.281	1.326	1.272	1.373	1.340
385.0	289.2	291.5	272.1	217.8	209.3	204.0	204.1	200.4	198.1	199.0	195.6	201.1	198.3	185.7	169.4	152.6	137.1	129.8	121.5	113.6	104.2	100.0	104.5	159.6	160.0	73.55	47.00	37.50	38.27	52.70	145.7	790.8	2993	2419	39.56	3.023	1.793	1.574	1.425	1.263	1.137	1.025	1.028	1.098	1.109	1.202	0.986	0.914	1.076	0.966	0.934	0.969	1.063	1.104	1.110	1.064	1.123	1.153	1.157	1.278	1.242	1.188	1.252	1.216	1.274	1.328	1.303	1.205	1.265	1.334	1.332	1.207	1.112	1.281	1.179	1.175	1.243
390.0	285.3	276.4	266.4	227.3	215.7	205.5	202.6	198.9	201.3	197.5	196.9	196.7	193.0	179.0	166.8	149.8	137.7	131.3	123.3	116.6	110.6	103.5	98.70	111.8	151.7	135.2	67.72	43.07	35.41	32.08	48.02	188.3	860.3	2317	2450	632.7	11.79	1.992	1.539	1.468	1.122	1.173	1.167	1.119	1.069	1.181	1.023	0.971	1.127	0.985	0.915	1.015	1.121	1.061	1.083	1.046	1.114	1.169	1.226	1.227	1.226	1.208	1.255	1.232	1.164	1.204	1.310	1.279	1.228	1.241	1.241	1.176	1.124	1.302	1.193	1.223	1.171
395.0	277.1	275.3	260.5	232.4	215.8	211.8	208.5	207.7	207.3	202.0	202.1	193.8	186.5	174.2	163.9	147.8	139.3	129.6	127.4	118.1	112.6	106.7	99.98	97.69	103.9	143.8	123.4	57.98	39.74	31.23	30.47	55.61	201.7	546.5	1672	2952	281.8	11.92	2.000	1.771	1.331	1.080	1.159	1.056	1.172	1.123	1.029	1.149	1.097	0.933	0.841	1.096	1.155	1.044	1.104	1.141	1.227	1.319	1.099	1.223	1.189	1.117	1.255	1.261	1.297	1.297	1.228	1.352	1.185	1.265	1.277	1.227	1.197	1.235	1.138	1.196	1.118
400.0	256.2	277.3	260.7	237.0	221.8	215.5	214.1	213.1	206.4	204.4	199.3	191.8	185.9	172.8	157.0	145.8	138.1	129.9	125.7	119.6	113.4	107.4	102.4	94.63	90.76	107.9	146.0	93.34	47.60	35.60	28.84	28.48	56.99	131.3	442.3	2133	2291	228.7	4.962	2.059	1.668	1.333	1.242	1.072	1.199	1.219	1.016	1.162	1.124	0.875	0.942	1.138	1.165	1.213	1.259	1.150	1.153	1.209	1.209	1.287	1.184	1.191	1.128	1.190	1.264	1.261	1.197	1.294	1.199	1.155	1.175	1.301	1.099	1.277	1.090	1.143	1.136
405.0	269.2	274.4	264.5	248.0	227.3	217.0	221.2	209.6	206.2	204.0	200.1	190.9	184.5	167.5	151.4	142.3	135.7	126.4	123.6	117.3	112.9	107.9	102.1	95.64	88.95	88.28	122.8	131.2	60.66	39.17	31.20	24.95	26.66	39.22	107.8	612.9	2244	1965	35.19	3.309	1.783	1.276	1.297	1.126	1.179	1.219	0.992	1.106	1.068	0.962	0.920	1.150	1.202	1.247	1.161	1.130	1.237	1.168	1.126	1.161	1.310	1.209	1.156	1.250	1.275	1.108	1.168	1.242	1.198	1.095	1.102	1.200	1.143	1.065	1.025	1.083	1.154
410.0	251.7	254.0	249.4	241.9	219.6	218.6	215.8	211.9	212.5	201.7	197.9	189.8	178.8	165.0	147.0	135.0	127.8	122.0	118.1	115.5	110.9	107.8	101.6	96.96	90.00	82.93	88.98	117.6	108.2	59.19	35.77	27.47	22.54	20.99	33.50	144.7	628.7	1688	1852	640.9	10.82	1.710	1.508	1.288	1.253	1.271	1.070	1.059	1.145	0.975	0.916	1.112	1.139	1.152	1.170	1.090	1.181	1.258	1.210	1.193	1.336	1.299	1.188	1.243	1.218	1.095	1.183	1.179	1.172	1.210	1.125	1.213	1.130	1.167	1.036	1.105	1.182
415.0	240.4	255.0	234.8	231.0	214.8	213.7	217.2	207.7	209.7	196.9	197.1	186.0	173.2	157.8	143.0	129.2	122.1	117.0	112.0	110.7	107.8	105.0	101.2	97.62	90.19	81.41	79.14	83.12	108.8	98.19	48.83	31.48	24.97	19.40	18.44	40.58	146.6	395.2	1157	2747	258.4	11.89	1.813	1.476	1.353	1.173	0.968	1.091	1.019	0.894	0.932	1.126	1.091	1.064	1.211	1.054	1.126	1.276	1.236	1.161	1.249	1.136	1.181	1.206	1.280	1.080	1.347	1.203	1.078	1.098	1.181	1.063	1.131	1.031	1.041	1.126	1.105
420.0	227.3	258.7	222.3	215.3	214.3	213.8	212.2	206.0	209.9	196.9	194.5	184.4	164.7	150.8	137.0	123.8	116.4	111.7	107.3	105.9	104.7	101.9	99.09	95.42	87.19	82.51	77.15	72.63	83.65	111.6	75.18	37.68	27.02	20.33	16.75	18.23	39.71	94.32	299.3	1881	1971	216.2	5.367	1.809	1.433	1.249	1.220	1.114	1.036	0.921	0.986	1.026	1.085	1.127	1.224	1.131	1.315	1.210	1.196	1.258	1.198	1.202	1.195	1.214	1.237	1.081	1.301	1.012	1.128	1.189	1.128	1.032	1.201	1.123	1.008	1.166	1.205
425.0	249.0	244.6	233.0	214.2	205.2	208.8	210.5	205.7	207.4	194.0	194.4	177.2	164.7	148.7	132.0	117.9	113.5	108.8	104.9	102.5	100.5	97.92	96.88	93.29	86.92	82.01	75.84	69.25	68.81	91.65	99.29	50.47	29.97	22.72	17.32	15.13	16.91	27.35	72.51	520.9	1668	1603	34.23	2.857	1.629	1.386	1.210	1.255	1.017	0.942	0.835	1.120	1.211	1.189	1.125	1.093	1.231	1.229	1.266	1.326	1.299	1.215	1.208	1.209	1.170	1.203	1.067	1.061	1.080	1.025	1.058	0.933	1.052	1.072	0.911	1.028	1.019
430.0	545.5	230.2	216.2	212.0	203.3	206.8	209.2	203.0	203.5	198.0	193.7	176.3	160.3	143.4	128.2	113.1	107.6	103.1	100.1	98.07	95.73	94.42	92.44	89.74	84.49	79.99	74.38	69.37	64.03	68.16	85.56	79.65	43.22	25.81	19.23	15.28	13.44	13.35	21.98	121.7	447.5	1190	1459	512.3	11.73	1.806	1.348	1.268	1.101	1.015	0.870	1.133	1.118	1.070	1.165	1.116	1.182	1.211	1.124	1.356	1.113	1.221	1.225	1.227	1.109	1.229	1.145	1.059	1.092	1.061	1.148	1.026	0.912	0.978	1.054	0.966	1.031
435.0	1503	275.5	205.3	217.9	194.3	198.5	207.0	202.1	196.9	196.6	191.9	176.8	155.0	137.8	124.0	110.0	102.0	99.41	95.31	92.67	91.94	89.38	88.23	84.41	82.22	78.18	73.78	69.32	63.98	62.22	63.03	75.51	72.06	36.39	21.88	17.38	14.12	11.54	12.15	32.90	104.2	274.6	785.4	1912	249.6	14.86	1.745	1.460	1.342	0.979	0.960	1.179	1.142	1.037	1.091	1.154	1.075	1.346	1.198	1.312	1.196	1.257	1.270	1.248	1.100	1.286	1.123	1.117	0.948	0.975	0.960	0.963	0.933	1.052	0.932	1.064	1.121
440.0	2293	522.5	211.2	208.2	192.1	200.6	200.0	201.8	194.4	196.6	191.6	170.7	153.3	134.1	118.8	104.7	97.87	93.63	91.19	88.58	86.35	84.45	83.43	82.26	81.01	76.42	73.34	70.31	64.77	59.83	56.24	59.12	75.82	50.47	26.70	19.24	14.75	12.34	10.66	13.28	28.31	65.58	196.0	1155	1855	223.9	8.449	1.592	1.411	1.150	1.013	1.109	1.235	1.087	1.089	1.032	1.031	1.262	1.205	1.187	1.247	1.157	1.207	1.241	1.275	1.232	1.077	1.016	1.110	1.045	1.011	0.988	0.966	0.893	0.933	1.032	1.009
445.0	2292	1154	218.9	189.2	189.4	192.5	194.0	197.6	199.1	187.3	184.9	170.5	147.9	130.6	113.2	101.2	92.33	90.55	87.66	84.55	81.87	81.92	79.27	79.79	77.68	74.86	70.72	68.13	63.69	59.32	54.09	50.27	61.23	65.86	36.82	21.20	15.72	12.75	10.68	10.29	11.65	19.25	48.15	305.7	1410	1631	164.2	4.208	1.516	1.169	1.103	1.045	1.152	1.062	1.040	1.124	1.176	1.042	1.221	1.034	1.271	1.218	1.185	1.244	1.240	1.089	1.081	1.109	1.192	0.955	1.053	1.037	0.943	0.908	0.889	0.835	0.864
450.0	1201	2075	568.9	184.0	179.5	182.2	184.3	191.2	191.4	184.5	177.2	162.5	143.7	125.0	107.4	94.90	87.90	83.88	80.06	78.92	76.91	75.97	74.43	73.74	72.42	69.87	66.84	64.94	61.59	57.49	51.98	46.71	45.63	54.93	52.10	31.01	17.94	13.83	11.43	10.15	8.974	9.381	15.13	72.29	365.2	1040	1359	502.3	11.35	1.457	1.127	1.202	1.182	1.131	1.063	1.103	1.126	1.098	1.132	1.109	1.137	1.177	1.202	1.157	1.178	1.084	1.080	1.069	1.096	0.897	1.009	0.971	0.884	0.893	0.829	0.874	0.898
455.0	442.2	1858	1592	211.9	169.9	170.4	171.9	172.8	175.2	177.4	166.3	152.6	135.8	118.6	101.2	87.54	80.02	75.66	73.25	72.34	71.39	70.50	69.59	68.20	67.33	64.96	62.83	61.34	59.70	56.16	50.68	45.01	39.61	38.65	47.12	46.00	25.12	15.08	12.57	10.74	8.797	7.931	8.065	20.24	84.81	237.2	581.9	1445	701.1	14.35	1.519	1.297	1.239	1.168	1.081	1.047	1.221	1.162	1.248	1.138	1.095	0.990	1.036	1.126	1.242	0.963	1.058	0.879	1.056	0.840	1.039	0.945	0.786	0.947	0.796	0.890	0.835
460.0	241.9	1026	2292	474.5	160.2	164.7	165.0	169.0	170.2	167.7	161.8	148.4	128.6	114.0	92.74	83.61	75.31	71.69	68.76	66.60	66.27	64.41	63.67	62.51	62.97	59.79	59.61	58.21	55.59	53.21	48.92	42.53	37.00	33.21	36.63	47.74	35.28	18.64	13.00	11.19	9.016	8.491	7.072	9.092	22.61	56.11	139.1	726.8	1543	184.9	9.903	1.594	1.295	1.141	1.234	1.032	1.176	0.965	1.192	1.128	1.047	1.065	1.199	1.029	1.037	0.987	0.997	0.884	1.030	0.893	1.010	0.942	0.886	0.827	0.826	0.837	0.753
465.0	190.3	438.7	2151	899.4	163.8	157.6	155.5	156.9	162.4	155.1	150.8	140.2	121.8	104.5	88.54	78.93	71.85	67.70	62.78	60.85	60.76	59.35	59.04	56.11	57.36	55.99	55.32	53.62	52.90	50.42	46.78	41.10	36.20	31.67	28.89	36.81	41.88	25.36	14.31	11.31	9.342	8.151	7.269	6.584	8.884	15.88	34.31	181.1	958.7	1245	156.7	6.548	1.512	1.236	1.139	1.078	1.116	0.993	1.222	1.087	1.034	1.006	1.049	1.119	1.069	1.113	1.018	0.840	0.910	0.874	0.981	0.852	0.889	0.819	0.778	0.830	0.797
470.0	226.4	218.2	1063	1903	435.9	139.2	149.4	143.0	148.9	147.1	138.1	129.2	111.9	96.85	81.76	72.35	65.32	60.74	57.95	55.48	54.03	52.80	52.83	51.16	52.11	50.98	49.55	48.36	48.41	46.30	43.40	38.40	33.84	29.54	25.74	26.31	32.13	33.08	20.72	12.47	9.545	8.429	7.226	6.685	6.416	7.106	10.69	43.27	236.8	673.0	992.4	591.5	13.65	1.556	1.194	1.096	1.054	1.101	1.128	1.118	1.070	1.008	1.065	0.992	1.005	1.035	0.995	0.877	0.871	0.815	0.976	0.825	0.781	0.718	0.668	0.718	0.732
475.0	255.9	178.4	361.7	1589	1419	171.6	130.2	130.3	134.9	134.4	127.0	120.5	103.9	88.13	73.55	65.25	58.64	55.35	51.64	48.98	47.72	47.91	47.39	44.98	45.73	45.41	44.53	43.64	43.32	41.21	39.48	35.72	31.51	27.59	24.03	22.40	21.72	27.77	28.38	17.16	10.28	8.373	7.388	6.382	6.129	5.686	5.620	12.17	55.24	152.6	331.0	1124	691.3	19.27	1.448	1.108	1.091	1.019	1.153	1.060	0.936	1.028	0.942	0.977	0.924	0.939	0.859	0.897	0.777	0.822	0.806	0.737	0.740	0.730	0.641	0.702	0.687
480.0	246.9	189.6	176.9	852.0	2008	421.6	117.8	121.9	121.7	122.7	119.4	113.3	93.59	82.63	70.23	61.00	55.68	50.62	48.04	46.06	45.21	43.29	42.70	42.12	42.19	42.36	40.50	41.32	40.83	38.92	37.35	32.97	29.59	25.85	23.16	20.33	18.52	20.64	27.74	22.15	12.04	8.699	7.313	6.940	6.017	5.630	4.850	5.517	15.01	36.33	77.31	447.5	1225	218.1	13.74	1.262	1.244	1.018	0.987	1.062	1.000	0.854	1.035	0.978	0.849	0.929	0.833	0.878	0.731	0.812	0.738	0.788	0.768	0.642	0.648	0.663	0.715
485.0	188.5	231.7	130.1	355.4	1905	1080	128.6	117.1	118.6	118.1	116.3	102.9	93.52	77.63	67.87	57.68	52.52	47.44	45.82	42.24	42.30	41.61	40.18	39.31	40.07	39.45	38.29	38.20	37.35	36.81	35.31	31.32	28.32	24.98	22.50	19.29	16.92	16.03	21.69	25.65	16.45	9.736	7.557	6.933	5.948	5.533	5.093	4.528	6.019	10.31	19.51	107.1	632.3	1129	192.5	8.026	1.342	1.032	0.994	0.935	0.953	0.953	0.916	0.898	0.699	0.848	0.790	0.975	0.794	0.743	0.729	0.759	0.674	0.623	0.754	0.673	0.625
490.0	140.0	233.1	155.3	163.7	942.4	1950	335.0	111.0	109.9	110.7	105.2	96.29	85.75	71.52	62.17	54.86	48.42	43.89	42.39	39.79	38.27	36.98	36.43	36.61	35.79	35.48	35.19	34.38	34.15	33.67	32.22	29.49	26.42	23.45	20.89	18.45	16.29	14.51	15.44	19.81	21.14	13.48	8.103	6.842	6.200	5.489	5.240	4.777	4.343	4.857	6.517	25.95	150.4	502.2	814.3	511.4	16.45	1.587	1.183	0.922	0.959	0.918	0.874	0.898	0.767	0.856	0.779	0.801	0.770	0.649	0.753	0.706	0.664	0.650	0.669	0.626	0.721
495.0	108.1	179.0	206.2	117.1	304.7	1606	1332	138.2	98.75	103.9	96.51	88.92	78.82	65.46	58.15	49.29	43.34	40.92	38.23	35.66	34.57	33.55	32.84	32.03	31.40	30.99	31.80	30.56	31.43	30.86	29.79	27.28	24.44	21.83	19.49	17.25	15.46	13.90	13.55	13.49	17.89	18.74	11.26	7.247	6.347	5.415	5.039	4.653	4.411	3.591	3.661	7.769	35.36	114.1	258.3	836.6	724.5	24.12	1.475	1.111	0.959	0.877	0.894	0.927	0.765	0.790	0.665	0.689	0.758	0.689	0.727	0.718	0.681	0.712	0.656	0.663	0.693
500.0	100.3	126.6	215.0	110.6	136.4	831.7	2009	322.4	91.41	93.22	90.43	82.34	73.89	63.04	53.99	44.68	40.58	37.47	34.90	33.11	32.05	31.43	30.29	29.47	28.50	28.74	28.59	28.49	28.33	27.60	27.37	24.77	22.15	20.65	18.32	16.31	14.21	13.09	12.10	11.34	13.36	17.68	15.64	8.552	6.190	5.274	5.044	4.521	4.392	3.649	2.965	3.732	9.863	27.17	60.15	311.0	1033	244.1	18.10	1.236	0.998	1.015	0.936	1.076	0.779	0.776	0.728	0.710	0.714	0.711	0.712	0.733	0.655	0.661	0.561	0.662	0.615
505.0	88.86	96.71	187.1	138.2	96.42	317.5	1914	897.6	95.01	87.37	84.31	78.17	68.22	57.52	49.19	41.60	36.73	34.35	31.94	30.77	29.71	28.22	27.92	27.36	26.08	26.53	25.84	25.77	25.73	25.42	25.19	23.07	20.92	18.86	16.96	15.29	13.49	12.64	11.00	10.24	10.17	13.68	17.34	11.27	6.318	5.495	4.815	4.410	4.119	3.829	3.066	2.861	4.085	7.753	15.16	73.61	460.8	951.7	225.8	10.66	1.180	1.099	0.913	0.831	0.769	0.720	0.675	0.591	0.654	0.612	0.668	0.621	0.656	0.562	0.627	0.614	0.615
510.0	79.42	76.02	127.9	168.3	94.12	128.0	957.3	1695	241.4	78.03	76.70	70.39	61.63	52.24	44.25	38.79	33.43	30.52	28.93	27.13	26.53	24.61	23.55	23.78	23.17	23.03	22.78	22.85	22.71	22.41	22.68	20.72	18.66	16.59	15.17	13.81	12.58	11.45	10.47	9.358	8.657	9.472	13.43	13.85	8.970	5.913	4.735	4.276	3.730	3.617	3.365	2.754	2.776	3.473	4.873	18.06	108.3	390.6	752.6	470.4	16.53	1.405	0.942	0.846	0.808	0.750	0.656	0.659	0.681	0.580	0.618	0.592	0.636	0.599	0.587	0.613	0.560
515.0	73.10	70.11	78.27	166.2	116.8	76.18	290.5	1491	1079	96.59	67.00	59.97	53.48	46.26	38.93	34.35	29.49	27.84	25.90	24.34	22.74	22.10	21.38	21.14	19.99	20.49	19.53	19.88	19.69	19.89	20.02	17.88	16.41	15.39	13.44	12.56	10.91	9.890	9.125	8.604	7.688	7.635	8.810	11.75	12.29	7.641	4.791	4.067	3.617	3.359	3.153	3.144	2.659	2.507	2.491	5.373	25.48	88.51	221.4	682.1	568.1	23.16	1.153	0.989	0.725	0.736	0.638	0.673	0.641	0.624	0.610	0.624	0.591	0.625	0.551	0.504	0.507
520.0	69.36	72.08	64.41	123.6	145.6	69.68	114.7	793.0	1759	232.7	63.84	58.51	47.54	41.13	36.39	30.72	27.63	25.24	24.29	21.76	20.21	20.11	19.37	18.94	17.68	18.44	17.44	17.66	17.48	17.56	17.70	16.00	14.56	13.71	12.67	11.35	10.38	9.545	8.449	7.801	7.139	6.557	6.670	8.468	12.23	9.487	5.501	3.913	3.528	3.041	2.903	3.116	2.876	2.251	1.968	2.578	7.067	21.09	51.22	241.9	760.0	241.7	17.12	1.035	0.883	0.673	0.607	0.574	0.622	0.533	0.606	0.576	0.534	0.526	0.566	0.510	0.578
525.0	65.84	58.17	62.96	84.97	159.7	76.76	70.80	297.6	1800	752.3	59.39	53.52	45.54	39.38	33.87	29.03	25.19	23.73	21.97	19.81	18.06	18.48	17.66	17.17	16.85	16.43	15.80	16.12	15.83	16.44	15.51	14.55	13.75	12.29	11.46	10.32	9.056	8.912	7.793	7.401	6.568	6.070	5.730	6.359	9.614	10.80	7.162	4.376	3.427	2.984	2.800	2.736	2.836	2.532	1.913	1.912	2.863	5.959	12.73	56.63	329.1	643.6	207.6	8.091	0.942	0.667	0.624	0.631	0.591	0.548	0.559	0.537	0.505	0.542	0.560	0.512	0.549
530.0	59.22	52.47	51.00	57.26	125.6	115.8	59.74	111.9	919.4	1652	179.8	48.66	41.15	35.73	30.09	25.79	22.67	20.59	18.93	17.15	16.34	16.06	15.80	14.86	14.51	14.33	13.90	14.55	13.94	14.23	13.84	13.03	11.83	10.92	10.32	9.223	8.165	7.544	7.273	6.629	5.977	5.496	5.261	5.174	6.149	8.462	8.887	5.496	3.425	2.921	2.573	2.428	2.415	2.525	2.247	1.752	1.907	2.519	4.029	13.81	77.14	256.6	499.0	344.4	15.65	1.007	0.689	0.671	0.562	0.526	0.552	0.565	0.460	0.562	0.471	0.491	0.456
535.0	56.39	56.38	46.78	46.13	79.41	142.3	67.51	63.96	265.2	1527	1002	55.41	34.65	32.41	26.60	22.53	19.66	17.59	16.37	15.35	14.49	13.87	13.51	13.11	12.87	11.61	11.62	12.46	12.12	12.35	11.85	11.19	9.735	9.413	8.919	7.980	7.346	6.928	6.120	5.926	5.079	5.371	4.618	4.747	4.631	5.220	7.729	7.691	4.561	2.788	2.412	2.199	1.943	2.054	2.246	2.064	1.687	1.596	2.051	4.197	18.22	58.22	144.3	490.5	250.1	21.12	0.837	0.672	0.606	0.549	0.477	0.568	0.430	0.527	0.459	0.541	0.419
540.0	55.46	56.20	41.48	40.89	54.60	129.1	88.67	49.90	93.47	796.5	1734	162.1	31.74	27.64	22.99	20.23	18.34	16.44	14.82	14.14	12.90	12.83	11.94	11.48	10.92	10.67	10.11	10.74	10.90	10.84	10.26	10.15	9.060	8.500	7.515	7.163	6.568	5.955	5.498	5.346	4.752	4.709	4.069	4.156	4.095	3.925	5.505	7.351	5.729	3.009	2.210	2.077	1.861	1.886	1.961	2.195	1.739	1.584	1.416	1.978	4.985	13.84	33.49	173.4	473.4	225.2	13.67	0.668	0.586	0.517	0.519	0.534	0.516	0.470	0.443	0.530	0.432
545.0	68.35	62.80	46.73	40.76	40.84	100.3	115.5	47.74	52.80	279.2	1812	589.9	33.23	25.93	21.66	17.80	16.61	14.61	13.74	12.84	11.22	11.17	11.01	9.967	10.27	10.30	9.460	9.575	9.563	9.726	9.304	8.588	8.152	7.685	6.715	6.584	5.665	5.393	5.002	4.737	4.315	3.963	3.710	3.681	3.444	3.478	3.910	6.098	6.420	3.823	2.280	1.937	1.699	1.647	1.723	1.955	2.203	1.459	1.324	1.284	2.028	3.899	8.312	40.60	206.2	474.1	173.8	5.596	0.729	0.554	0.518	0.441	0.501	0.426	0.465	0.458	0.502
550.0	101.3	88.26	59.42	41.75	33.40	57.90	119.0	64.04	42.43	94.76	862.3	1423	114.3	22.65	18.39	15.86	14.17	12.57	11.73	10.85	9.812	9.549	8.948	9.141	8.787	8.539	8.281	7.897	7.904	8.065	7.729	7.436	6.974	6.368	5.821	5.471	4.897	4.839	4.458	4.006	3.852	3.724	3.330	3.144	3.127	3.009	2.947	3.843	5.265	4.705	3.062	1.987	1.497	1.513	1.527	1.443	1.795	1.718	1.308	1.087	1.223	1.589	2.608	9.776	48.39	182.3	325.7	189.9	14.81	0.903	0.535	0.479	0.527	0.534	0.391	0.455	0.435
555.0	161.4	171.7	107.6	55.71	32.24	38.66	92.41	101.8	42.96	59.22	249.1	1340	747.4	27.23	15.95	13.48	11.80	10.33	9.650	9.346	8.099	8.278	7.078	7.565	6.924	7.179	6.747	6.474	6.778	6.696	6.967	5.900	5.867	5.323	4.710	4.487	4.220	4.083	3.758	3.624	3.230	3.216	3.057	2.861	2.737	2.833	2.561	2.808	3.373	4.504	3.722	2.264	1.443	1.343	1.277	1.370	1.347	1.612	1.502	1.162	0.892	1.147	1.295	2.770	11.52	41.32	92.13	297.8	231.1	19.89	0.659	0.520	0.502	0.452	0.457	0.515	0.393
560.0	235.9	246.5	164.5	71.82	34.23	32.38	58.30	121.1	58.68	55.05	104.0	694.8	1424	88.36	14.44	11.84	9.745	8.983	8.667	7.769	6.970	6.911	6.356	6.551	5.808	5.931	5.872	5.724	5.958	5.915	5.316	5.343	4.947	4.493	4.079	4.043	3.491	3.455	3.304	3.106	2.931	2.813	2.706	2.803	2.586	2.582	2.399	2.504	2.763	3.320	3.835	2.731	1.436	1.186	1.166	1.186	1.174	1.265	1.500	1.389	0.831	0.999	1.072	1.236	3.367	9.934	21.43	103.7	305.6	190.8	11.05	0.588	0.552	0.455	0.439	0.424	0.407
565.0	252.8	269.1	185.9	76.39	31.21	27.64	42.20	112.9	80.06	54.84	70.37	255.4	1560	358.3	13.83	10.29	9.233	7.616	7.130	6.869	6.117	6.147	5.749	5.678	5.204	5.058	4.866	5.189	4.987	4.991	4.925	4.866	4.191	3.721	3.644	3.297	2.980	3.128	3.079	2.927	2.448	2.508	2.576	2.481	2.472	2.420	2.317	2.246	2.087	2.223	3.131	3.049	1.789	1.227	1.200	0.995	1.264	1.081	1.246	1.420	1.060	0.941	0.900	1.003	1.388	2.801	5.448	24.41	124.2	316.4	124.1	4.433	0.610	0.428	0.438	0.369	0.415
570.0	277.9	294.9	214.2	81.39	29.60	26.22	32.65	80.70	112.5	62.90	63.41	101.2	788.4	1048	64.62	9.051	7.728	6.824	6.526	5.818	5.197	4.954	5.031	4.700	4.411	4.196	3.954	4.107	4.297	4.151	4.123	3.807	3.340	3.212	3.070	2.926	2.553	2.680	2.765	2.464	2.333	2.284	2.285	2.225	2.223	2.355	2.205	2.032	1.885	1.780	1.959	2.618	2.200	1.417	1.076	0.904	0.985	0.970	0.889	1.166	1.415	1.071	0.914	0.812	0.943	1.265	1.839	6.072	29.24	119.1	218.1	141.2	12.79	0.617	0.484	0.382	0.399
575.0	337.1	351.9	243.9	94.55	30.32	24.59	30.28	50.64	118.3	86.77	65.01	68.44	224.6	1067	440.5	10.74	6.725	5.589	5.476	4.821	4.301	4.432	4.195	3.930	3.785	3.456	3.219	3.191	3.503	3.553	3.216	2.997	2.825	2.513	2.358	2.346	2.150	2.185	2.214	2.031	2.115	1.944	2.070	1.961	2.048	2.101	2.044	2.002	1.829	1.488	1.324	1.802	2.354	1.789	1.033	0.808	0.976	0.846	0.780	0.871	1.258	1.353	0.942	0.730	0.792	0.841	0.949	1.939	7.070	27.01	61.58	227.1	168.1	15.09	0.583	0.434	0.482
580.0	370.2	377.0	248.9	96.57	32.71	24.18	30.29	41.56	102.9	114.8	69.08	62.80	78.27	564.0	917.5	38.36	5.936	5.596	4.679	3.850	3.843	3.721	3.566	3.264	3.444	3.101	3.130	2.602	3.488	3.091	2.725	2.781	2.563	2.334	2.149	2.091	1.904	2.159	1.809	1.816	1.850	1.778	1.880	1.735	1.797	2.001	1.945	1.800	1.657	1.374	1.218	1.173	1.853	1.932	1.236	0.863	0.840	0.807	0.739	0.766	0.938	1.062	1.263	0.916	0.801	0.716	0.776	0.973	2.148	6.523	14.28	80.36	213.0	113.9	7.333	0.423	0.445
585.0	347.7	342.0	246.0	96.00	30.31	21.69	27.69	36.79	75.70	126.8	73.65	57.73	46.25	190.2	1040	113.4	5.590	4.743	3.921	3.600	3.631	3.408	3.223	2.995	3.073	2.804	2.746	2.603	2.703	2.522	2.491	2.298	2.198	1.933	1.736	1.748	1.863	1.814	1.812	1.683	1.569	1.645	1.662	1.671	1.533	1.869	1.779	1.711	1.572	1.237	1.101	0.961	1.328	1.842	1.625	1.008	0.822	0.650	0.861	0.730	0.791	0.914	1.181	1.114	0.825	0.816	0.642	0.655	0.989	1.932	3.678	18.77	86.28	187.5	35.67	2.354	0.470
590.0	304.1	318.4	228.0	86.44	25.96	20.50	26.46	33.27	54.49	108.0	90.91	55.53	36.79	55.67	524.9	631.5	31.75	4.278	3.778	3.448	2.937	3.051	2.833	2.467	2.357	2.327	2.350	2.358	2.188	2.346	2.326	1.895	1.999	1.807	1.541	1.556	1.566	1.652	1.562	1.433	1.502	1.477	1.455	1.494	1.482	1.543	1.510	1.514	1.463	1.138	0.897	0.746	0.929	1.256	1.615	1.244	0.961	0.680	0.678	0.649	0.660	0.691	0.850	1.101	0.999	0.739	0.651	0.669	0.646	0.848	1.200	4.581	20.13	68.99	128.8	72.15	10.40
595.0	291.6	283.5	207.3	78.30	25.56	18.95	22.38	29.78	41.55	73.28	106.0	55.72	32.18	22.76	138.7	724.7	247.2	4.913	3.548	3.332	2.532	2.393	2.529	2.160	1.855	2.061	2.029	1.803	1.677	2.126	2.044	1.683	1.525	1.536	1.416	1.279	1.414	1.360	1.219	1.405	1.354	1.319	1.321	1.317	1.292	1.595	1.290	1.357	1.375	1.107	0.791	0.614	0.725	0.764	1.091	1.251	1.079	0.714	0.657	0.579	0.641	0.587	0.681	0.782	1.027	0.910	0.611	0.633	0.631	0.581	0.635	1.389	4.854	15.72	35.83	97.14	92.72
600.0	244.7	245.4	175.8	79.45	22.89	17.96	21.08	27.24	34.72	54.05	104.4	62.69	28.59	14.92	37.96	408.7	575.4	16.60	3.136	2.675	2.318	2.201	2.234	1.803	1.901	1.842	1.880	1.737	1.510	1.768	1.710	1.536	1.420	1.357	1.245	1.120	1.229	1.258	1.190	1.250	1.233	1.200	1.161	1.215	1.201	1.423	1.160	1.221	1.056	0.951	0.656	0.632	0.575	0.629	0.763	1.076	1.160	0.769	0.653	0.620	0.575	0.562	0.602	0.632	0.921	0.927	0.765	0.557	0.552	0.526	0.517	0.620	1.399	3.895	8.340	33.23	107.7
605.0	233.8	224.1	157.9	67.84	20.49	17.34	19.26	22.73	33.28	42.62	85.77	75.45	27.56	13.09	14.55	138.6	731.1	71.61	3.105	2.439	2.008	2.051	1.776	1.802	1.594	1.646	1.564	1.445	1.444	1.675	1.473	1.360	1.258	1.237	1.166	1.000	1.087	1.209	1.101	1.095	1.057	0.935	1.062	1.170	0.993	1.130	1.202	1.156	0.972	0.902	0.558	0.618	0.535	0.579	0.586	0.798	1.080	0.969	0.653	0.537	0.562	0.567	0.566	0.643	0.699	0.919	0.834	0.586	0.541	0.451	0.463	0.513	0.616	1.213	2.241	7.831	41.64
610.0	193.9	186.9	144.8	56.42	19.11	15.89	17.47	21.29	28.57	34.77	56.96	80.28	31.42	11.79	9.084	37.27	411.8	375.6	16.80	2.405	1.889	1.984	1.603	1.617	1.467	1.496	1.388	1.287	1.274	1.407	1.344	1.212	1.118	1.069	1.006	0.849	1.015	0.984	0.934	0.856	0.880	0.784	0.948	0.973	0.922	1.038	0.962	0.970	0.876	0.751	0.566	0.531	0.524	0.469	0.502	0.539	0.782	0.941	0.807	0.554	0.535	0.531	0.564	0.572	0.580	0.695	0.753	0.692	0.584	0.453	0.400	0.406	0.448	0.567	0.803	2.065	9.881
615.0	151.7	165.6	116.1	48.13	16.96	13.78	15.40	20.09	25.03	30.61	38.76	65.41	43.67	11.72	8.294	12.57	110.5	478.1	80.89	2.411	1.940	1.480	1.469	1.264	1.282	1.282	1.354	1.188	1.088	1.255	1.140	0.993	1.022	0.955	0.825	0.935	0.813	0.867	0.731	0.797	0.703	0.764	0.799	0.816	0.819	0.832	0.825	0.888	0.695	0.678	0.523	0.418	0.415	0.413	0.408	0.403	0.602	0.802	0.776	0.679	0.564	0.512	0.497	0.516	0.479	0.595	0.590	0.678	0.636	0.461	0.427	0.419	0.409	0.465	0.494	0.724	2.447
620.0	135.2	134.5	97.48	45.14	14.57	11.69	15.24	18.25	21.57	29.09	32.68	47.60	52.20	13.11	6.735	7.311	29.07	300.4	375.0	7.044	1.894	1.483	1.492	1.353	1.040	1.036	1.189	0.984	0.936	1.031	0.952	0.879	0.817	0.861	0.781	0.739	0.722	0.683	0.727	0.743	0.663	0.706	0.667	0.736	0.705	0.801	0.730	0.793	0.615	0.552	0.429	0.455	0.385	0.352	0.392	0.410	0.522	0.531	0.727	0.694	0.545	0.472	0.460	0.505	0.538	0.545	0.447	0.601	0.611	0.482	0.423	0.421	0.357	0.384	0.383	0.460	0.871
625.0	132.9	116.5	83.90	41.80	15.09	11.65	13.69	16.80	20.03	26.11	27.41	33.33	53.42	19.39	7.008	5.911	9.568	111.3	553.0	45.42	1.881	1.509	1.487	1.166	0.972	1.061	1.078	0.977	0.914	0.941	0.811	0.785	0.810	0.727	0.724	0.645	0.706	0.773	0.691	0.801	0.653	0.655	0.693	0.856	0.679	0.838	0.637	0.758	0.677	0.566	0.449	0.382	0.359	0.348	0.380	0.366	0.466	0.399	0.542	0.817	0.464	0.441	0.377	0.438	0.463	0.454	0.450	0.470	0.537	0.691	0.414	0.424	0.382	0.336	0.349	0.367	0.403
630.0	109.3	103.9	71.35	32.91	13.91	11.19	12.91	14.47	19.07	22.42	24.81	24.67	38.90	30.80	7.874	5.098	4.920	29.12	352.5	262.4	7.497	1.577	1.221	1.213	1.013	0.989	0.971	0.885	0.940	0.848	0.851	0.694	0.704	0.687	0.651	0.551	0.644	0.623	0.626	0.618	0.702	0.548	0.556	0.672	0.581	0.602	0.590	0.667	0.578	0.490	0.404	0.399	0.372	0.373	0.371	0.364	0.427	0.404	0.499	0.590	0.584	0.489	0.471	0.428	0.491	0.383	0.428	0.456	0.477	0.517	0.520	0.437	0.400	0.363	0.312	0.372	0.373
635.0	89.19	77.97	60.49	30.40	14.16	10.53	12.26	13.47	17.23	18.75	20.37	21.08	24.50	37.01	11.76	4.613	3.603	8.876	96.74	382.8	59.41	1.821	1.468	1.051	0.995	0.892	0.807	0.920	0.752	0.736	0.803	0.703	0.673	0.753	0.589	0.543	0.478	0.567	0.555	0.510	0.610	0.609	0.499	0.541	0.587	0.554	0.549	0.577	0.509	0.442	0.355	0.331	0.320	0.390	0.287	0.357	0.367	0.382	0.425	0.435	0.551	0.460	0.405	0.396	0.409	0.415	0.357	0.440	0.426	0.431	0.522	0.630	0.461	0.353	0.359	0.394	0.335
640.0	73.20	68.55	51.52	25.08	11.77	10.69	11.34	12.10	14.72	19.20	18.73	19.38	18.06	31.08	18.35	4.726	3.453	4.281	24.87	264.8	211.2	3.614	1.224	1.040	0.901	0.962	0.801	0.811	0.730	0.711	0.746	0.740	0.587	0.696	0.598	0.554	0.470	0.498	0.516	0.487	0.541	0.608	0.568	0.509	0.525	0.543	0.500	0.477	0.466	0.357	0.328	0.293	0.363	0.340	0.321	0.368	0.325	0.358	0.365	0.364	0.420	0.498	0.483	0.423	0.369	0.394	0.409	0.487	0.424	0.358	0.373	0.525	0.550	0.401	0.353	0.388	0.354
645.0	64.60	61.81	43.72	22.61	10.09	10.30	10.24	11.76	12.85	16.51	17.66	17.14	15.19	21.19	24.52	5.646	3.468	3.125	7.696	104.1	326.4	25.40	1.280	1.105	0.890	0.837	0.844	0.693	0.649	0.789	0.663	0.605	0.570	0.593	0.497	0.536	0.490	0.449	0.461	0.484	0.470	0.580	0.605	0.417	0.473	0.533	0.537	0.461	0.365	0.312	0.275	0.279	0.345	0.352	0.343	0.314	0.338	0.413	0.349	0.338	0.460	0.506	0.461	0.450	0.424	0.425	0.397	0.389	0.349	0.374	0.375	0.468	0.526	0.545	0.342	0.344	0.348
650.0	69.42	52.92	39.12	21.67	11.23	9.403	10.08	10.48	13.05	14.90	16.64	15.70	12.52	14.35	27.89	7.947	3.386	2.896	3.334	28.98	293.1	69.76	1.356	1.110	0.880	0.858	0.853	0.731	0.648	0.721	0.716	0.619	0.605	0.574	0.529	0.476	0.501	0.568	0.440	0.453	0.480	0.535	0.570	0.444	0.457	0.489	0.413	0.409	0.398	0.316	0.286	0.288	0.383	0.359	0.351	0.308	0.343	0.396	0.351	0.310	0.421	0.413	0.486	0.369	0.442	0.373	0.372	0.410	0.348	0.324	0.354	0.386	0.432	0.479	0.366	0.316	0.361
