Sample:	'1
File name:	广利河吴杨闸市控断面1.FD3
Run date:	'20:00:03, 06/11/2025
Operator:	Administrator
Comment:	'

Instrument
Model:	F-2700 FL Spectrophotometer
Serial number:	23B8-004
ROM Version:	4J14000 07

Instrument parameters
Measurement type:	3-D scan
Data mode:	Fluorescence
EX  Start WL:	220.0 nm
EX  End WL:	600.0 nm
EX Sampling interval:	5.0 nm
EM  Start WL:	230.0 nm
EM  End WL:	650.0 nm
EM Sampling interval:	5.0 nm
Scan speed:	12000 nm/min
EX Slit:	5.0 nm
EM Slit:	5.0 nm
PMT Voltage:	700 V
Response:	Auto 
Corrected spectra:	Off
Contour interval:	50.000

Peak integration
Integration method:	Rectangular
Sensitivity:	1
Threshold:	1.000

Peaks
No.	ApexEX/EM(nm)	Height(Data)
1	225.0/340.0	2490
2	225.0/625.0	91.69
3	255.0/280.0	551.1
4	255.0/555.0	177.1
5	260.0/285.0	583.2
6	260.0/570.0	136.0
7	265.0/585.0	122.3
8	270.0/300.0	1100
9	270.0/595.0	113.1
10	275.0/305.0	1423
11	275.0/335.0	1607
12	275.0/610.0	109.5
13	280.0/310.0	1431
14	280.0/625.0	98.33
15	285.0/320.0	1497
16	285.0/635.0	78.25
17	455.0/335.0	6.562
18	520.0/285.0	3.823
19	530.0/290.0	3.950
20	540.0/295.0	5.301
21	545.0/300.0	6.375
22	570.0/315.0	8.640
23	580.0/320.0	7.855
24	585.0/325.0	8.031

Data points
	220.0	225.0	230.0	235.0	240.0	245.0	250.0	255.0	260.0	265.0	270.0	275.0	280.0	285.0	290.0	295.0	300.0	305.0	310.0	315.0	320.0	325.0	330.0	335.0	340.0	345.0	350.0	355.0	360.0	365.0	370.0	375.0	380.0	385.0	390.0	395.0	400.0	405.0	410.0	415.0	420.0	425.0	430.0	435.0	440.0	445.0	450.0	455.0	460.0	465.0	470.0	475.0	480.0	485.0	490.0	495.0	500.0	505.0	510.0	515.0	520.0	525.0	530.0	535.0	540.0	545.0	550.0	555.0	560.0	565.0	570.0	575.0	580.0	585.0	590.0	595.0	600.0
230.0	101.2	2418	9021	4324	213.0	13.97	10.02	8.281	7.225	6.480	5.750	6.033	5.391	5.006	4.122	3.422	2.777	2.620	2.381	2.251	2.008	1.905	1.823	1.546	1.566	1.510	1.262	1.148	1.252	1.061	1.032	1.003	0.959	0.941	0.823	0.839	0.727	0.709	0.623	0.603	0.640	0.857	0.910	0.687	0.579	0.525	1.928	14.69	32.72	26.29	11.32	2.648	0.610	0.371	0.366	0.359	0.391	0.360	0.324	0.320	0.296	0.279	0.305	0.327	0.307	0.251	0.294	0.239	0.283	0.248	0.208	0.241	0.205	0.245	0.235	0.226	0.212
235.0	207.2	638.9	4086	8813	4073	288.7	14.95	11.89	8.866	7.339	6.205	6.328	6.266	5.476	4.744	3.601	3.118	2.882	2.508	2.446	2.009	1.982	1.963	1.736	1.665	1.586	1.410	1.120	1.075	1.115	1.094	1.084	0.989	1.001	0.886	0.698	0.719	0.928	0.727	0.622	0.671	0.653	0.689	0.720	0.936	0.721	0.862	3.741	9.835	17.10	27.70	26.04	18.48	4.864	0.573	0.435	0.421	0.338	0.320	0.288	0.294	0.311	0.324	0.346	0.324	0.258	0.215	0.233	0.246	0.265	0.259	0.222	0.234	0.290	0.276	0.223	0.242
240.0	223.5	298.5	1078	5397	9999.9	3248	189.6	14.41	10.54	9.446	8.180	8.035	6.945	5.620	4.343	3.946	3.379	2.852	2.789	2.283	2.085	1.931	1.966	1.833	1.640	1.548	1.425	1.291	1.200	1.085	1.123	1.169	0.976	1.006	0.922	0.843	0.847	0.791	0.747	0.616	0.643	0.616	0.655	0.739	1.029	1.119	0.826	1.359	2.586	4.475	11.12	31.29	51.44	26.54	15.79	2.888	0.524	0.387	0.391	0.387	0.365	0.397	0.332	0.335	0.341	0.300	0.237	0.271	0.273	0.257	0.259	0.254	0.304	0.282	0.258	0.227	0.235
245.0	135.7	280.3	348.9	1522	7828	9999.9	2454	87.74	16.63	11.95	9.518	8.222	6.878	6.396	5.002	4.311	3.772	3.280	3.063	2.694	2.221	2.334	2.011	1.891	1.811	1.522	1.592	1.474	1.151	1.033	1.053	1.093	1.065	1.073	0.784	0.845	0.809	0.775	0.664	0.681	0.588	0.697	0.666	0.579	0.763	0.882	1.085	1.141	1.186	1.401	2.926	8.884	26.29	44.71	58.66	24.81	12.88	1.544	0.444	0.529	0.393	0.357	0.310	0.331	0.278	0.303	0.298	0.325	0.271	0.299	0.278	0.293	0.292	0.239	0.347	0.254	0.259
250.0	78.16	157.5	285.5	467.6	2167	7330	9999.9	5942	157.7	20.26	13.61	10.87	8.103	8.010	6.289	4.793	3.957	3.796	3.270	3.007	2.148	2.109	1.882	2.064	1.828	1.672	1.634	1.548	1.413	1.241	1.228	1.118	1.024	1.008	0.912	0.863	0.772	0.816	0.686	0.736	0.633	0.677	0.614	0.612	0.678	0.646	0.753	0.973	1.273	1.226	1.329	2.497	6.372	12.56	27.25	41.30	70.02	55.51	41.17	10.44	1.973	0.434	0.407	0.400	0.383	0.344	0.332	0.334	0.318	0.278	0.302	0.272	0.318	0.264	0.287	0.278	0.292
255.0	67.38	68.23	155.2	352.9	620.7	1733	5818	9999.9	8908	207.0	22.44	16.75	12.31	9.898	7.284	6.391	4.787	4.093	3.736	3.263	2.703	2.293	2.220	2.184	2.042	1.682	1.787	1.675	1.628	1.404	1.384	1.180	1.203	1.077	0.959	0.885	0.789	0.931	0.771	0.757	0.716	0.661	0.697	0.648	0.653	0.632	0.642	0.645	0.816	0.981	1.491	1.991	2.271	3.277	6.609	9.817	20.41	40.44	94.16	119.6	29.41	13.88	1.496	0.601	0.504	0.429	0.432	0.378	0.406	0.339	0.304	0.329	0.322	0.299	0.320	0.248	0.309
260.0	67.62	46.67	76.49	239.1	411.5	479.4	1530	8741	9999.9	7665	143.8	24.09	17.62	12.66	8.461	7.371	5.391	4.505	4.121	3.651	3.090	2.678	2.525	2.223	2.402	2.077	1.897	1.802	1.723	1.534	1.598	1.263	1.191	1.264	1.076	0.946	0.784	0.983	0.759	0.688	0.778	0.816	0.712	0.615	0.704	0.649	0.610	0.669	0.651	0.633	0.839	1.707	2.155	1.867	2.048	2.666	5.140	10.19	32.23	85.54	127.9	115.8	26.66	9.949	0.804	0.540	0.469	0.428	0.488	0.423	0.356	0.344	0.424	0.338	0.299	0.343	0.294
265.0	64.10	54.11	52.30	108.2	336.9	345.9	407.9	2555	9999.9	9999.9	1699	94.10	24.08	16.88	11.24	9.504	6.878	5.531	4.923	4.111	3.656	3.017	2.730	2.335	2.363	2.187	1.919	1.906	1.895	1.558	1.572	1.331	1.101	1.250	1.129	1.056	0.977	0.930	0.754	0.819	0.752	0.785	0.694	0.774	0.695	0.639	0.623	0.690	0.571	0.495	0.532	0.929	1.606	2.244	2.073	1.463	1.713	2.839	7.909	21.93	54.81	111.2	161.7	133.0	21.35	4.049	0.824	0.609	0.536	0.452	0.497	0.394	0.494	0.353	0.347	0.429	0.248
270.0	97.52	81.38	60.22	58.18	147.7	333.3	357.1	653.5	3010	9999.9	9999.9	6642	107.8	27.85	16.74	12.31	8.813	6.951	5.478	4.795	4.146	3.295	3.043	2.680	2.678	2.567	2.241	2.112	1.993	1.782	1.756	1.493	1.361	1.413	1.231	1.130	1.046	1.075	0.966	0.936	0.873	0.819	0.862	0.930	0.829	0.783	0.709	0.691	0.666	0.565	0.582	0.688	0.871	1.237	1.776	2.040	2.291	1.884	2.400	5.513	13.04	29.03	64.13	117.4	140.4	115.0	97.61	13.99	4.426	0.659	0.571	0.486	0.494	0.409	0.455	0.423	0.368
275.0	186.1	146.2	103.6	66.71	73.44	138.2	410.2	447.5	752.3	2403	8557	9999.9	9153	130.8	28.08	18.96	12.09	9.897	7.351	6.528	5.025	3.838	3.385	2.941	2.986	2.714	2.393	2.485	2.175	1.972	2.008	1.755	1.471	1.697	1.458	1.379	1.230	1.142	1.109	0.996	0.979	1.112	1.104	0.959	0.879	1.006	0.894	0.831	0.787	0.696	0.589	0.655	0.708	0.840	0.915	1.062	1.938	2.951	2.994	2.359	3.548	7.118	14.94	27.09	36.06	64.33	167.1	229.6	149.8	21.38	3.423	0.985	0.657	0.619	0.563	0.589	0.479
280.0	300.9	242.9	160.0	97.34	64.33	78.71	225.2	551.1	385.4	633.9	2277	9999.9	9999.9	6641	91.22	26.78	15.88	12.20	8.894	7.318	5.636	4.736	3.917	3.636	3.279	3.148	2.683	2.555	2.454	1.912	1.908	2.175	1.580	1.763	1.613	1.604	1.416	1.441	1.439	1.315	1.188	1.274	1.251	1.247	1.155	1.346	1.239	1.072	0.963	0.816	0.732	0.764	0.661	0.633	0.682	0.809	1.092	1.885	3.330	3.300	2.562	2.518	4.084	6.926	8.929	15.81	48.51	122.3	210.7	233.5	32.95	15.89	1.456	0.784	0.710	0.591	0.532
285.0	444.1	346.3	242.6	137.7	78.30	71.64	112.8	385.4	583.2	324.8	656.2	3174	9999.9	9999.9	946.9	60.91	21.67	15.68	10.12	8.586	7.016	5.176	4.888	3.895	3.600	3.372	2.813	2.921	2.610	2.335	2.133	2.181	1.796	1.861	1.715	1.697	1.662	1.600	1.516	1.352	1.413	1.369	1.397	1.345	1.371	1.476	1.540	1.347	1.247	1.067	0.883	0.904	0.758	0.751	0.724	0.751	0.829	1.171	1.818	2.990	3.823	2.949	2.136	2.482	3.024	4.544	11.86	29.86	69.21	159.9	250.2	213.8	28.30	9.823	1.059	0.806	0.747
290.0	605.5	546.6	404.0	236.0	132.0	105.3	115.7	215.9	500.1	658.1	467.2	981.7	3353	9999.9	9999.9	9999.9	65.54	25.07	15.94	11.44	8.855	6.664	5.866	4.676	4.313	3.757	3.455	3.299	2.733	2.307	2.360	2.203	1.964	1.915	1.878	1.837	2.025	1.867	1.859	1.773	1.696	1.637	1.601	1.763	1.806	1.923	1.794	1.842	1.688	1.355	1.130	1.088	1.039	0.885	0.956	0.979	1.050	1.069	1.269	1.716	2.382	3.216	3.950	3.739	2.824	2.701	4.183	8.189	16.98	38.97	80.13	132.3	172.5	196.8	135.0	19.07	8.385
295.0	797.5	798.2	597.2	366.2	200.7	161.1	170.3	223.7	338.6	679.1	929.9	705.8	1133	2603	9259	9999.9	5393	77.39	24.30	16.50	11.72	8.872	7.125	5.554	4.623	4.620	3.816	3.229	3.040	2.680	2.541	2.337	2.094	2.008	2.215	2.041	2.316	2.418	2.415	2.141	2.103	2.115	2.041	2.202	2.143	2.363	2.143	2.336	2.349	1.850	1.666	1.466	1.410	1.141	1.082	1.142	1.309	1.300	1.317	1.731	1.786	2.226	2.703	4.174	5.301	4.668	3.528	3.972	5.971	10.89	19.94	31.38	41.57	67.50	151.7	256.1	230.2
300.0	1026	1025	750.2	468.8	269.2	212.1	223.4	284.2	362.2	602.1	1100	1031	788.0	987.9	2540	9999.9	9999.9	4196	58.11	22.87	15.00	10.73	8.943	6.223	5.657	4.785	4.418	3.661	3.607	3.006	2.974	2.724	2.300	2.274	2.252	2.440	2.358	2.874	2.742	2.558	2.420	2.351	2.321	2.392	2.443	2.926	2.722	2.716	2.892	2.142	1.789	1.758	1.560	1.185	1.346	1.334	1.700	1.434	1.669	1.905	1.937	2.306	2.585	3.347	4.442	6.375	5.962	4.538	4.059	5.300	7.158	9.380	11.53	17.14	39.52	102.4	225.4
305.0	1197	1216	931.8	572.3	345.0	268.5	281.8	357.8	450.7	641.1	984.9	1423	977.8	754.5	893.2	3157	9999.9	9999.9	588.5	42.31	20.04	13.48	11.21	7.591	6.845	5.796	4.884	4.167	3.755	3.314	2.984	2.908	2.504	2.530	2.596	2.497	2.582	2.742	2.838	2.721	2.788	2.547	2.525	2.680	2.751	2.999	2.871	3.275	3.311	2.443	2.128	2.100	1.842	1.575	1.636	1.579	1.823	1.919	1.955	2.401	2.338	2.772	3.082	3.462	3.673	5.342	6.820	7.106	5.689	4.886	4.939	4.858	5.290	6.191	10.56	24.86	62.56
310.0	1340	1418	1119	686.6	410.4	337.6	359.2	449.1	558.6	770.9	996.0	1349	1431	1004	649.9	954.1	3359	9999.9	9999.9	8685	46.88	19.93	14.41	10.18	8.355	6.928	5.534	4.940	4.177	3.617	3.512	3.005	2.616	2.451	2.497	2.521	2.796	2.992	2.974	2.826	2.960	2.713	2.872	2.831	3.081	3.383	3.452	3.876	3.672	2.906	2.385	2.483	2.097	1.752	1.775	1.760	2.056	2.138	2.422	2.582	3.017	3.036	3.527	4.187	4.273	5.202	5.997	6.656	7.082	7.543	6.506	5.170	4.421	4.144	4.460	7.364	15.43
315.0	1538	1646	1300	808.0	485.8	395.9	435.5	537.1	662.2	899.6	1111	1349	1430	1451	798.8	535.1	917.7	2432	9999.9	9999.9	3817	53.33	21.38	13.72	10.48	8.518	6.962	5.890	4.790	4.226	3.716	3.204	2.777	2.565	2.626	2.727	3.016	3.083	2.980	3.347	3.144	3.277	3.253	3.194	3.368	4.076	3.804	4.160	4.217	3.397	2.738	2.831	2.285	2.248	2.074	2.121	2.326	2.545	2.619	3.081	3.229	3.475	4.060	4.753	5.072	5.674	6.002	6.310	6.172	7.171	8.640	7.343	6.147	4.876	3.588	3.834	5.141
320.0	1687	1892	1465	937.1	550.7	454.6	482.0	601.6	740.1	1001	1209	1425	1414	1497	1084	533.6	415.2	676.2	2638	9999.9	9999.9	2873	41.82	18.24	13.69	10.41	7.722	6.694	5.136	4.688	4.203	3.599	3.136	2.747	2.886	2.842	3.083	3.319	3.198	3.311	3.272	3.322	3.499	3.483	3.889	4.398	4.395	4.933	5.033	3.820	2.955	3.104	2.495	2.229	2.148	2.358	2.654	2.683	2.915	3.246	3.649	3.810	4.406	5.130	5.432	5.845	6.269	6.509	6.463	6.646	7.691	7.525	7.855	6.781	4.306	3.528	3.206
325.0	1824	2192	1722	1065	617.7	506.2	528.9	646.2	789.9	1070	1292	1511	1476	1420	1263	709.1	351.6	314.2	698.0	3270	9999.9	9999.9	438.0	28.65	17.77	12.30	9.079	7.503	6.277	4.878	4.443	3.876	3.334	2.960	3.019	2.620	3.083	3.129	3.410	3.315	3.512	3.520	3.541	3.744	4.081	4.711	4.875	5.623	5.562	4.335	3.323	3.530	2.714	2.424	2.470	2.490	3.255	2.789	3.154	3.520	3.855	3.952	4.862	5.530	5.590	6.256	6.807	6.767	6.917	7.024	7.516	6.944	7.475	8.031	6.272	4.294	3.332
330.0	1947	2356	1928	1233	748.3	578.7	586.3	708.3	845.3	1121	1354	1576	1540	1428	1158	903.8	512.4	280.9	291.7	834.1	3506	9999.9	9999.9	1830	39.33	18.12	12.89	9.268	7.425	6.041	5.259	4.384	3.726	3.256	3.299	2.873	3.271	3.338	3.343	3.418	3.408	3.652	3.630	3.965	4.405	4.994	5.199	6.225	6.209	4.735	3.727	3.943	3.254	2.718	2.680	2.486	3.019	3.008	3.310	3.836	4.086	4.361	5.031	5.855	5.981	6.592	6.905	6.969	7.135	7.222	7.678	6.961	6.856	6.747	6.129	5.738	4.855
335.0	2001	2389	2087	1384	845.8	663.1	639.5	744.9	890.0	1172	1390	1607	1574	1455	1122	842.2	714.0	418.4	249.4	319.2	871.9	2403	9999.9	9999.9	3197	45.51	18.19	12.23	9.281	6.946	6.493	5.188	4.373	3.733	3.453	3.188	3.525	3.473	3.296	3.374	3.515	3.945	3.779	3.981	4.758	5.330	5.303	6.562	6.474	5.347	4.052	4.073	3.528	3.145	3.071	2.890	3.241	3.275	3.385	3.930	4.330	4.529	5.188	6.162	6.085	6.921	7.612	7.076	7.263	7.608	7.912	7.169	6.797	6.813	5.567	4.777	4.859
340.0	2022	2490	2154	1422	940.0	725.2	694.1	777.6	903.7	1164	1384	1594	1574	1453	1129	814.7	672.5	581.8	305.5	230.3	306.7	615.3	2686	9999.9	9999.9	2559	35.45	16.83	11.75	8.606	7.380	5.818	4.856	4.199	3.758	3.114	3.347	3.670	3.333	3.560	3.620	3.907	3.869	4.180	4.719	5.166	5.560	6.431	6.314	5.200	4.210	4.261	3.951	3.395	3.348	3.040	3.381	3.621	3.692	4.013	4.351	4.786	5.360	5.859	5.888	6.376	7.329	7.278	6.814	7.384	7.728	6.928	7.028	6.568	5.485	4.948	4.428
345.0	1970	2335	2111	1465	987.9	784.3	744.6	807.7	914.1	1139	1350	1549	1524	1426	1126	809.7	611.4	611.7	440.7	250.5	204.1	238.9	678.7	3305	9999.9	9999.9	387.0	25.95	14.87	10.49	7.849	6.268	5.179	4.639	3.852	3.400	3.443	3.368	3.381	3.497	3.710	3.565	3.714	4.265	4.284	5.071	5.284	6.061	6.055	5.129	4.411	4.362	3.963	3.477	3.443	3.228	3.801	3.448	3.888	4.248	4.692	4.696	5.345	5.792	5.703	6.361	7.187	7.052	6.879	7.061	7.605	6.710	6.680	6.325	5.550	4.875	4.461
350.0	1855	2168	1971	1459	1052	872.7	805.5	844.4	924.4	1119	1291	1462	1439	1358	1102	832.6	624.9	551.0	533.8	401.7	248.6	197.4	261.8	822.5	3603	9999.9	9999.9	5697	33.92	14.80	10.59	7.707	6.208	5.105	4.026	3.821	3.636	3.515	3.370	3.447	3.476	3.585	3.660	4.029	4.195	4.833	4.981	5.894	5.989	4.819	4.403	4.500	4.057	3.700	3.696	3.689	3.882	3.762	3.941	4.274	4.588	4.660	5.084	5.473	5.770	5.886	6.825	6.478	6.592	6.882	7.118	6.876	6.444	6.424	5.543	4.697	4.742
355.0	1720	2037	1847	1447	1123	967.9	885.8	911.2	970.5	1107	1240	1398	1364	1294	1083	849.3	671.4	567.3	504.6	526.4	386.2	245.9	214.0	300.0	889.8	2413	9999.9	9999.9	2936	40.56	15.46	9.866	7.276	5.691	4.737	4.023	4.081	3.658	3.541	3.634	3.417	3.476	3.532	3.933	4.223	4.646	4.807	5.656	5.496	4.701	4.161	4.662	4.387	3.966	3.743	4.031	4.135	4.111	4.091	4.143	4.926	4.572	4.960	5.602	5.850	5.827	6.047	6.042	6.432	6.409	6.724	6.630	6.233	6.295	5.506	4.776	4.963
360.0	1696	1905	1782	1451	1164	1048	972.7	970.4	1002	1108	1222	1356	1314	1252	1073	866.9	716.2	599.7	524.0	513.1	510.3	334.5	239.3	213.8	308.3	618.1	2641	9999.9	9999.9	2396	31.78	13.49	9.617	6.933	5.484	4.494	4.335	3.974	3.899	3.591	3.367	3.548	3.861	3.957	3.953	4.406	4.746	5.503	5.479	4.945	4.318	4.691	4.715	4.008	4.043	4.346	4.169	4.222	4.290	4.568	4.610	4.712	5.094	5.527	5.556	5.923	6.059	5.892	6.013	6.342	6.309	6.287	6.345	5.911	5.788	4.970	5.052
365.0	1627	1797	1707	1457	1192	1095	1022	1006	1024	1118	1223	1312	1272	1219	1059	883.1	742.8	643.9	564.1	513.3	534.6	453.9	294.1	226.7	203.6	237.2	667.3	3269	9999.9	9999.9	370.7	22.81	12.60	8.583	6.373	4.888	4.625	4.134	3.797	3.678	3.728	3.652	3.628	4.076	3.846	4.150	4.624	5.157	5.290	4.593	4.260	4.865	4.957	4.505	4.429	4.406	4.635	4.445	4.681	4.600	4.695	4.810	5.090	5.310	5.822	5.531	5.736	5.731	6.041	6.098	6.057	6.221	6.201	5.940	5.437	5.192	5.092
370.0	1543	1707	1633	1420	1248	1153	1096	1071	1071	1141	1208	1264	1228	1181	1044	894.8	778.4	695.7	623.7	560.8	525.7	517.9	433.7	295.1	223.6	187.7	247.7	806.4	3417	9999.9	9999.9	5767	30.00	12.53	8.667	6.172	5.089	4.621	4.176	3.989	3.802	3.846	3.702	3.758	3.782	4.206	4.283	4.960	5.100	4.343	4.057	4.813	4.788	4.723	4.686	4.720	4.704	4.898	4.777	4.890	4.872	5.123	5.148	5.250	5.509	5.402	5.644	5.587	5.848	5.773	6.043	6.017	6.088	5.963	5.450	5.327	5.313
375.0	1495	1620	1592	1421	1262	1204	1153	1132	1103	1147	1188	1226	1194	1133	1018	902.6	808.5	739.7	674.5	614.6	558.3	514.3	514.6	419.5	278.7	215.2	184.6	277.2	831.4	2388	9573	9999.9	2623	35.07	12.94	8.200	6.494	5.572	4.602	4.240	3.916	4.109	3.878	3.766	3.816	4.344	3.989	4.716	4.935	4.397	4.270	4.776	4.823	4.851	4.991	4.683	5.020	5.063	4.837	5.018	5.030	5.126	5.225	5.592	5.558	5.365	5.475	5.240	5.336	5.413	5.824	5.795	5.809	5.626	5.421	5.273	5.450
380.0	1494	1581	1517	1396	1272	1231	1185	1151	1121	1151	1186	1208	1162	1104	1004	903.7	819.2	762.2	703.2	654.8	587.3	533.5	501.3	495.9	356.7	250.0	199.2	177.5	273.2	596.2	2506	9999.9	9999.9	2152	27.24	10.61	7.933	6.452	5.334	4.495	4.331	4.124	4.035	4.003	3.887	4.365	4.252	4.710	4.424	4.214	4.066	4.837	5.017	4.977	4.704	4.802	5.318	5.101	4.872	4.835	5.023	4.983	5.410	5.532	5.276	5.471	5.476	5.380	5.506	5.180	5.589	5.585	5.689	5.605	5.227	5.299	5.253
385.0	1428	1550	1496	1390	1277	1257	1203	1176	1150	1150	1185	1188	1149	1079	992.6	893.6	827.8	778.1	724.2	673.7	614.2	558.0	503.4	497.8	443.3	300.5	227.2	178.6	166.8	211.5	618.6	3033	9999.9	9999.9	312.1	19.17	9.765	7.459	5.782	5.164	4.780	4.123	3.950	4.027	4.094	4.407	3.930	4.613	4.377	4.165	3.957	4.875	4.831	4.870	4.729	4.945	5.374	5.013	5.121	5.060	5.314	5.426	5.295	5.435	5.451	5.346	5.424	5.508	5.290	5.304	5.502	5.538	5.618	5.445	5.148	5.635	5.528
390.0	1355	1501	1464	1362	1298	1282	1235	1196	1169	1153	1158	1153	1102	1050	969.5	886.6	831.5	784.1	742.0	696.0	641.5	586.5	532.5	487.7	467.7	399.7	287.8	214.9	175.3	151.5	214.3	734.3	3048	9999.9	9999.9	4990	25.31	10.94	7.656	6.291	5.305	4.731	4.374	4.281	4.134	4.425	4.098	4.582	4.589	4.150	3.856	4.726	4.895	4.930	4.898	5.059	5.388	5.215	5.294	5.283	5.361	5.189	5.350	5.361	5.454	5.127	5.357	5.107	5.233	5.086	5.536	5.360	5.324	5.524	5.327	5.283	5.376
395.0	1383	1444	1439	1356	1309	1279	1246	1198	1171	1150	1136	1125	1070	1020	945.7	872.9	816.5	782.1	750.0	707.6	658.8	612.2	559.0	507.2	460.3	440.6	383.1	269.3	210.4	166.3	149.2	236.5	730.1	2329	7139	9999.9	2250	32.42	10.63	8.106	6.364	5.290	4.744	4.847	4.559	4.476	4.252	4.507	4.751	4.152	4.200	4.740	5.079	4.865	5.142	5.067	5.477	5.344	5.647	5.512	5.532	5.154	5.244	5.315	5.220	5.009	4.993	5.217	5.071	4.882	5.277	5.510	5.407	5.556	5.436	5.083	5.331
400.0	1365	1444	1404	1332	1291	1282	1249	1215	1172	1135	1131	1097	1054	1003	926.9	852.5	805.3	774.1	741.9	709.7	667.9	617.9	572.4	524.6	474.1	432.1	424.8	337.5	243.8	190.2	151.2	139.9	224.7	565.3	1802	9036	9999.9	1973	26.22	9.901	8.039	6.264	5.133	4.765	4.512	4.662	4.218	4.602	4.536	4.036	3.800	4.684	4.975	4.919	4.893	5.071	5.478	5.220	5.565	5.555	5.430	5.232	5.134	5.285	5.099	5.125	4.899	5.128	5.196	5.072	5.318	5.170	5.185	5.197	5.242	5.243	4.902
405.0	1319	1407	1370	1325	1300	1272	1250	1216	1166	1146	1120	1085	1031	984.2	906.5	834.7	793.0	766.5	733.3	704.7	665.3	623.8	582.5	535.1	484.5	436.1	417.0	391.3	286.0	216.7	169.3	132.5	122.7	179.5	442.7	2425	9999.9	9999.9	1535	20.08	9.201	7.073	5.798	5.011	4.571	4.664	4.048	4.736	4.698	4.189	3.897	4.743	4.796	5.057	5.328	5.198	5.344	5.431	5.394	5.553	5.093	5.142	5.173	5.332	5.109	5.013	5.045	5.148	5.211	4.746	5.105	4.880	4.793	4.995	4.911	5.061	5.184
410.0	1300	1371	1355	1293	1268	1241	1235	1206	1170	1125	1103	1055	1005	950.0	879.2	808.6	766.9	744.5	713.5	687.8	653.8	622.7	583.2	543.7	499.1	450.6	411.2	395.0	354.7	266.1	200.5	151.0	119.1	106.5	147.2	576.4	2658	8536	9999.9	4497	24.73	9.500	6.919	5.837	5.096	4.870	4.423	4.712	4.537	4.208	4.030	4.834	4.719	5.101	5.141	5.040	5.447	5.386	5.364	5.399	5.423	5.147	5.164	5.170	4.913	5.129	5.035	5.021	4.715	4.808	4.645	4.727	4.761	4.777	4.894	4.754	5.006
415.0	1245	1347	1285	1254	1241	1222	1217	1186	1148	1116	1077	1027	969.7	904.4	839.1	770.1	738.5	714.6	684.2	659.6	632.4	607.3	573.9	544.0	502.0	462.5	418.6	383.0	370.2	332.0	241.4	177.2	132.8	104.0	92.44	171.6	622.6	1950	4927	9999.9	2109	31.50	9.203	7.212	6.122	5.330	4.578	4.731	4.454	3.981	4.070	4.667	4.730	4.777	4.832	5.009	5.346	5.282	5.355	5.526	5.324	5.459	5.192	5.036	4.910	5.043	4.797	4.956	4.499	4.512	4.520	4.588	4.706	4.689	4.448	4.733	4.667
420.0	1228	1270	1259	1221	1197	1188	1186	1176	1129	1116	1067	1006	941.9	865.3	805.9	741.4	705.0	685.5	662.3	638.0	613.9	587.3	563.2	538.2	504.3	466.5	424.7	384.6	359.0	351.6	282.9	197.8	146.7	112.9	87.36	87.76	174.8	463.0	1187	6140	9999.9	1938	26.22	8.967	6.826	5.697	4.883	4.747	4.656	4.091	3.885	4.593	4.848	4.834	4.812	4.883	5.358	4.956	5.203	5.355	5.359	5.210	5.078	5.026	4.879	4.825	4.766	4.731	4.483	4.421	4.557	4.394	4.341	4.305	4.413	4.545	4.529
425.0	1277	1209	1228	1184	1183	1167	1167	1154	1126	1092	1057	999.2	915.8	841.9	778.7	711.1	677.1	658.3	636.3	618.2	591.5	575.3	553.2	525.3	495.7	461.2	424.7	386.5	357.5	340.0	311.3	228.6	161.5	122.7	92.79	74.18	80.27	133.8	289.4	1551	7876	9999.9	1577	20.26	8.256	6.660	5.603	5.013	4.800	3.984	3.886	4.630	4.786	4.838	4.814	5.041	4.984	5.034	5.252	4.937	5.280	5.186	4.837	5.126	4.864	4.644	4.613	4.933	4.608	4.204	4.467	4.188	4.337	4.337	4.216	4.243	4.439
430.0	2240	1202	1178	1137	1125	1126	1127	1131	1109	1071	1038	970.3	891.6	818.0	749.0	681.0	646.3	623.8	603.2	587.1	570.6	550.1	532.6	512.7	484.5	457.6	425.8	393.0	362.4	332.0	306.4	265.4	193.4	140.9	107.3	81.70	68.02	68.10	93.46	369.2	1964	6276	9683	4464	112.9	9.439	6.629	5.975	4.990	4.397	4.044	4.543	4.637	4.629	4.936	4.859	5.282	5.131	5.113	5.197	5.214	5.023	5.164	4.969	4.764	4.676	4.558	4.496	4.413	4.200	4.252	3.944	4.344	4.132	4.213	4.157	4.353
435.0	4657	1398	1138	1092	1089	1093	1096	1111	1096	1062	1018	950.6	865.3	783.3	717.8	649.4	615.6	593.2	570.9	558.9	542.5	524.1	512.5	495.7	472.9	448.6	419.4	394.3	367.8	334.7	296.3	267.6	230.2	166.2	122.5	94.35	74.93	61.69	56.81	110.5	459.5	1424	3627	9999.9	6840	32.27	9.247	7.322	5.665	4.813	4.315	4.739	4.786	4.786	4.842	4.611	5.250	5.255	4.983	5.126	5.066	5.142	5.308	4.948	4.711	4.780	4.507	4.373	4.173	4.394	3.910	4.404	4.219	4.165	3.992	4.004	4.004
440.0	5626	2033	1103	1051	1055	1077	1089	1089	1085	1051	1003	930.9	845.2	765.1	697.2	627.2	583.8	564.8	547.2	534.0	517.4	503.5	491.0	480.8	461.2	437.7	416.2	391.6	366.3	336.5	297.7	259.6	237.2	195.0	136.2	104.3	82.14	65.24	53.20	56.63	127.7	339.1	851.7	4897	9999.9	1937	26.10	9.322	6.634	5.333	4.652	4.894	4.851	4.707	4.789	4.773	5.292	5.281	5.116	5.187	4.796	5.134	5.095	4.987	4.678	4.596	4.271	4.331	4.282	4.266	3.954	3.985	4.029	3.986	3.690	3.733	3.778
445.0	5054	4171	1143	1022	1017	1035	1061	1061	1066	1018	992.2	911.4	825.7	746.3	667.2	598.2	560.9	539.2	526.2	509.3	494.9	481.5	470.8	457.6	444.0	426.7	406.8	385.2	362.5	336.0	300.3	257.4	227.6	209.2	155.2	114.4	88.94	72.16	56.58	48.30	57.59	99.33	209.4	1187	6192	9999.9	1558	22.86	7.691	5.858	5.124	5.140	4.812	4.719	4.773	4.808	5.076	5.105	4.809	4.955	4.804	4.967	5.066	5.028	4.593	4.493	4.312	4.160	4.107	4.021	4.007	3.981	3.904	3.975	3.840	3.816	3.501
450.0	2725	5760	2255	984.8	958.9	981.6	1009	1023	1004	979.2	942.3	878.8	788.5	705.5	630.4	561.3	523.4	502.0	486.2	474.2	461.7	449.5	439.7	428.7	417.9	405.5	385.2	367.3	351.6	329.4	297.1	254.8	220.1	197.4	174.3	133.6	99.72	79.87	64.02	51.51	46.11	48.57	68.62	283.7	1501	5335	9429	5231	103.8	8.657	5.649	5.696	5.271	4.836	4.751	4.631	4.985	5.060	4.779	4.946	4.780	4.754	4.833	4.886	4.515	4.425	4.245	4.189	3.937	4.285	4.046	3.772	3.506	3.790	3.521	3.658	3.551
455.0	1293	4480	5159	1220	890.8	915.0	930.4	950.9	945.2	934.5	894.1	824.8	744.5	656.4	580.5	518.2	481.2	461.6	446.0	437.0	418.7	410.4	405.5	394.1	385.3	374.6	359.0	345.1	332.8	313.9	287.6	248.5	214.5	185.4	166.9	150.4	113.6	87.16	69.32	57.21	48.32	42.11	39.57	83.84	351.5	1207	3028	9999.9	6781	25.16	8.147	6.222	5.549	4.966	4.838	4.515	4.858	4.786	4.680	4.755	4.818	4.494	5.001	4.788	4.419	4.153	4.199	3.882	3.697	4.012	3.700	3.537	3.544	3.249	3.155	3.499	3.571
460.0	916.4	2484	6471	2260	843.8	839.1	867.5	896.1	905.1	891.1	851.9	798.0	708.3	619.9	550.8	489.8	456.4	429.9	412.5	402.5	387.7	380.0	372.0	367.5	359.8	350.2	337.3	327.8	316.2	299.7	276.0	244.4	209.6	180.4	156.3	147.7	126.6	93.01	73.54	60.84	50.18	42.22	36.16	40.76	96.60	285.4	699.9	4009	9999.9	4662	22.17	8.649	6.187	5.288	5.006	4.821	4.855	4.615	4.695	4.390	4.509	4.412	4.889	4.495	3.986	4.237	3.944	3.861	3.728	3.728	3.502	3.231	3.577	3.247	3.041	3.333	2.955
465.0	821.4	1304	5640	4282	890.7	799.3	819.2	848.0	861.1	837.9	800.3	754.4	667.6	587.2	521.2	456.5	423.0	400.8	387.0	374.7	361.9	355.0	344.2	341.4	335.7	326.4	317.3	307.6	300.2	285.7	264.5	235.8	204.5	174.7	148.7	136.7	129.7	101.5	76.98	62.61	52.47	44.41	36.98	32.41	41.46	80.75	171.2	947.7	5277	9771	1345	22.40	7.433	5.975	5.195	5.024	4.768	4.545	4.501	4.425	4.352	4.347	4.302	4.235	3.848	4.098	3.727	3.680	3.418	3.236	3.333	2.969	3.439	3.178	2.838	2.825	2.977
470.0	759.7	864.1	2829	6066	2159	744.8	748.1	772.8	782.5	767.8	741.8	694.2	615.0	539.5	472.6	417.5	380.8	360.0	348.6	334.4	324.8	316.8	311.6	305.1	301.6	293.3	287.7	279.7	276.0	262.6	245.2	221.0	192.8	167.3	142.7	126.4	117.5	106.7	84.67	65.76	54.55	45.51	37.80	32.69	30.11	35.57	53.66	225.5	1254	4276	6978	4162	107.2	8.523	5.872	5.277	4.693	4.619	4.430	4.425	4.160	4.185	4.246	4.010	3.869	4.050	3.562	3.518	3.320	3.206	3.060	2.923	2.951	3.004	2.799	2.706	2.872
475.0	729.2	691.4	1149	4633	4997	946.4	677.4	699.4	700.3	703.4	679.2	624.8	560.4	489.4	428.2	377.2	345.9	327.3	310.3	297.9	287.3	281.7	276.6	273.3	267.4	262.6	257.2	252.4	248.0	242.5	225.4	202.1	180.4	158.2	136.0	121.1	106.6	98.82	91.75	72.07	55.86	46.82	39.32	33.45	28.95	27.15	27.92	64.56	290.7	963.1	2099	6474	4672	28.68	7.870	5.581	4.953	4.672	4.440	4.255	3.785	3.869	3.755	4.007	3.513	3.688	3.435	3.349	2.916	2.905	2.889	2.744	2.792	2.688	2.550	2.430	2.492
480.0	685.1	677.9	736.2	2470	6511	1922	630.6	669.0	663.8	669.4	634.4	587.0	519.4	460.0	399.6	351.3	320.5	303.1	287.9	275.2	264.7	259.0	255.8	251.8	248.9	242.7	236.6	234.8	227.9	225.1	211.2	190.8	170.8	150.5	130.8	116.1	101.7	90.93	89.30	78.90	59.55	47.89	41.07	35.21	29.66	26.18	22.93	28.97	76.94	224.9	482.2	2385	7332	1697	26.39	7.007	5.229	4.719	4.100	4.050	4.125	3.825	3.631	3.642	3.506	3.429	3.076	3.107	2.907	2.759	2.704	2.810	2.743	2.611	2.433	2.327	2.279
485.0	607.6	641.7	596.4	1126	5759	3926	659.8	616.0	621.2	629.4	602.9	564.6	499.0	437.6	370.9	332.1	300.7	281.4	269.3	254.0	246.3	242.5	237.6	234.5	231.0	227.6	221.3	220.6	216.1	211.4	200.2	181.0	161.0	143.0	126.5	113.6	99.52	87.78	81.41	79.78	64.11	49.60	42.09	35.70	30.92	26.99	23.21	21.68	29.25	60.41	116.8	560.3	3480	7130	1541	21.01	6.433	4.942	4.295	4.131	3.899	3.846	3.588	3.372	3.321	3.395	2.914	2.941	2.796	2.854	2.623	2.589	2.646	2.435	2.482	2.163	2.207
490.0	505.5	602.4	569.1	640.2	2893	6154	1783	574.3	581.2	577.7	562.9	524.1	460.6	408.0	342.2	306.2	276.4	258.4	246.0	234.4	225.7	220.2	215.9	212.4	209.6	207.2	201.6	200.7	199.7	193.7	184.6	169.4	152.5	134.3	120.2	107.8	94.82	84.80	76.51	72.25	67.01	55.34	43.69	36.54	31.72	27.14	23.51	20.72	19.92	24.51	35.46	133.9	819.5	3040	6066	3989	119.6	8.121	4.911	4.487	4.113	3.749	3.503	3.304	3.057	3.222	2.958	2.795	2.703	2.568	2.568	2.413	2.480	2.411	2.167	2.116	2.273
495.0	434.3	521.8	560.1	514.3	1036	4927	4765	679.4	527.0	520.5	511.0	477.2	424.2	366.1	314.5	278.3	252.5	233.1	221.9	210.5	202.9	197.1	192.8	192.6	187.3	185.2	180.7	180.0	180.7	176.2	169.2	153.8	140.2	125.6	112.1	100.9	89.42	79.94	71.17	65.01	62.15	58.40	46.60	37.84	31.81	28.04	24.33	20.61	17.93	17.16	17.78	38.40	190.1	685.3	1899	6434	5272	31.39	6.967	4.951	4.316	3.803	3.744	3.188	3.075	2.954	2.857	2.632	2.681	2.472	2.373	2.348	2.229	2.202	1.985	1.918	2.192
500.0	400.9	435.8	526.6	458.0	558.9	2628	6765	1435	487.0	486.6	480.2	436.5	397.4	344.9	294.9	253.3	232.3	214.0	201.0	192.5	184.9	178.0	175.8	171.5	173.0	168.2	165.6	164.4	162.6	160.4	154.5	143.7	129.8	117.4	105.2	94.82	85.74	75.58	67.62	61.03	55.83	55.81	49.21	38.25	31.55	27.81	24.18	21.17	17.73	15.69	13.97	17.02	49.85	159.8	435.9	2377	7522	1863	28.26	6.121	4.701	3.809	3.713	3.171	2.934	2.678	2.714	2.659	2.407	2.331	2.406	2.176	2.225	1.988	1.866	2.007	1.972
505.0	383.1	391.8	486.0	432.8	427.5	1094	6409	2935	493.8	449.7	446.3	409.0	367.6	315.7	273.9	234.8	212.0	198.9	186.0	176.5	167.9	162.1	162.3	157.9	157.5	154.8	150.9	150.3	149.8	146.7	142.1	132.3	121.1	108.3	98.79	87.48	80.78	72.29	63.50	57.89	52.63	50.56	49.03	40.90	31.49	28.32	23.79	20.92	17.76	15.14	13.09	12.39	18.35	42.29	104.1	555.2	3375	6758	1644	22.41	5.383	4.014	3.604	3.415	2.856	2.651	2.560	2.247	2.421	2.122	2.229	1.910	2.003	1.875	1.702	1.770	1.807
510.0	331.3	336.6	392.6	418.4	372.0	521.4	3208	5958	1348	403.6	395.7	365.8	326.3	283.0	242.1	210.7	192.1	175.7	163.7	155.4	149.1	145.0	142.5	138.4	138.7	134.8	133.3	133.2	132.4	130.5	125.2	116.6	108.0	96.76	87.92	79.11	72.91	65.53	58.70	54.09	47.55	44.19	43.31	41.85	33.90	27.62	23.34	20.36	17.30	14.93	13.11	11.58	11.32	16.01	29.67	130.1	789.6	2809	5068	3243	118.0	6.478	4.021	3.312	2.964	2.505	2.483	2.246	2.063	2.098	1.999	1.693	1.847	1.707	1.619	1.587	1.621
515.0	288.0	297.9	324.2	373.1	350.6	355.5	1024	5270	4547	463.3	351.4	327.4	290.2	250.4	216.7	187.4	167.9	153.1	143.6	138.2	130.4	126.7	123.3	121.5	120.0	116.0	116.2	116.2	116.1	115.3	110.2	103.5	94.11	85.20	77.99	71.57	65.09	58.68	53.77	48.85	43.68	39.41	36.35	37.40	35.66	28.93	22.70	19.71	16.70	14.74	12.87	11.64	9.927	10.13	12.46	34.69	181.2	631.5	1510	5009	4006	31.95	5.606	3.646	3.117	2.572	2.535	2.431	2.039	2.039	1.921	1.906	1.638	1.605	1.643	1.542	1.498
520.0	264.5	262.6	284.2	325.1	344.8	300.3	459.2	2851	7289	1083	318.9	296.2	259.3	224.5	194.1	170.7	150.3	140.7	131.3	124.5	117.0	114.3	111.0	109.3	106.5	106.4	103.5	104.6	103.6	101.9	98.82	93.04	85.14	78.11	71.03	64.50	60.05	53.86	49.82	45.03	40.77	36.37	33.11	32.51	33.95	29.72	23.52	18.75	16.54	14.23	12.44	11.36	9.776	8.939	8.748	13.37	45.75	146.1	345.5	1857	5533	1814	27.56	4.506	3.318	2.658	2.372	2.006	1.912	1.815	1.790	1.822	1.548	1.652	1.493	1.340	1.337
525.0	234.5	231.9	245.9	269.6	337.7	287.4	312.5	1106	7547	2227	312.7	269.7	236.7	203.7	176.6	152.3	139.6	127.7	118.6	110.5	105.7	102.9	100.3	98.92	97.92	95.52	93.45	93.56	94.54	91.55	89.01	84.81	78.07	71.85	65.55	58.76	54.31	49.72	45.91	41.37	37.71	33.80	30.88	29.16	30.06	29.65	23.47	18.84	15.89	13.64	12.21	10.39	9.455	8.692	7.840	8.255	15.38	37.46	82.09	431.7	2432	5002	1527	20.87	3.696	3.142	2.402	2.032	1.903	1.845	1.688	1.626	1.399	1.499	1.355	1.358	1.407
530.0	210.7	222.7	212.5	219.8	285.0	281.7	253.3	441.4	3867	6867	977.7	236.0	209.6	184.4	158.0	136.3	124.4	111.4	103.9	97.22	92.90	89.86	87.51	87.38	84.15	82.29	81.34	81.15	82.00	80.83	78.29	72.52	68.32	62.58	57.53	52.64	48.57	44.31	40.39	37.05	33.94	30.80	27.97	25.57	24.98	25.64	24.28	18.83	14.96	12.67	11.36	9.992	8.812	8.473	7.609	7.122	8.183	12.76	22.50	100.6	570.6	2078	3790	1960	111.6	5.017	2.770	2.340	1.917	1.814	1.611	1.430	1.484	1.413	1.315	1.319	1.252
535.0	193.9	190.6	176.3	180.1	212.1	273.1	224.1	255.9	1118	6786	4286	238.4	183.1	159.5	135.0	119.3	108.3	96.19	89.88	84.74	80.17	77.55	74.91	73.98	72.01	70.49	70.72	68.17	70.01	69.29	68.00	62.67	58.94	55.10	49.83	45.26	41.84	39.25	36.30	32.78	30.33	27.73	25.18	23.31	21.64	20.73	21.79	20.04	15.16	11.98	10.31	9.146	8.235	7.969	7.494	7.151	6.296	7.109	8.836	26.49	130.9	466.9	1118	3468	1951	32.31	4.127	2.505	1.965	1.695	1.541	1.346	1.496	1.194	1.264	1.101	1.114
540.0	167.3	175.1	164.0	163.5	167.6	247.2	228.6	198.7	405.2	3566	7826	640.8	165.2	141.4	124.2	107.3	94.75	85.03	80.26	74.58	70.96	69.68	66.79	63.95	63.23	62.35	60.93	61.53	61.00	59.88	60.01	55.18	51.97	48.05	43.71	40.72	36.92	34.44	32.10	29.56	27.03	25.03	22.84	21.33	19.58	17.52	18.14	19.05	15.31	11.55	9.659	8.834	7.802	6.968	6.496	6.726	5.875	5.410	5.384	9.348	32.64	107.5	255.5	1281	3675	1740	26.54	3.111	2.180	1.914	1.647	1.371	1.373	1.254	1.084	1.039	0.999
545.0	157.7	161.5	155.4	143.1	149.3	200.7	224.5	180.0	222.7	1243	8500	1624	156.5	126.8	111.1	95.45	84.97	77.49	70.66	66.72	62.47	60.67	58.59	56.39	56.50	54.61	54.10	54.49	54.86	54.07	52.59	49.29	46.29	42.54	38.93	36.08	32.59	31.28	28.67	27.21	24.35	22.70	20.29	19.30	17.90	15.84	14.99	16.06	15.09	11.96	9.353	8.294	7.336	6.424	6.183	6.126	6.016	4.843	4.560	5.383	10.28	26.98	60.21	297.5	1633	3874	1314	18.74	2.435	1.917	1.571	1.398	1.353	1.414	1.056	0.954	0.849
550.0	136.2	134.9	136.5	124.1	121.9	147.5	209.4	167.4	159.6	401.6	4160	6503	536.4	111.1	93.31	80.25	72.28	65.25	60.02	55.77	53.26	51.76	49.10	48.38	47.57	45.66	45.27	44.72	46.01	45.78	44.27	40.93	38.22	35.92	33.04	30.44	28.28	26.21	24.05	22.49	20.53	19.14	17.45	16.25	15.05	13.96	12.82	12.62	13.19	11.61	9.286	7.599	6.471	5.777	5.496	5.256	5.275	4.755	4.097	4.207	4.921	8.591	16.02	68.96	380.3	1528	2653	1119	107.0	3.486	1.807	1.523	1.368	1.224	1.033	0.970	0.902
555.0	126.2	127.7	116.6	108.4	100.7	111.5	159.9	177.1	129.8	182.6	1107	6805	3124	116.0	77.14	66.53	59.08	53.62	48.90	45.85	43.03	41.83	40.18	39.77	37.68	37.83	37.28	36.33	37.07	36.49	36.06	34.03	31.69	29.25	27.40	25.04	23.40	21.95	19.46	18.76	17.83	16.01	14.44	13.93	13.05	11.73	10.79	9.921	9.887	10.22	9.388	6.945	5.926	5.258	4.907	4.680	4.297	4.464	4.047	3.748	3.542	4.225	5.987	17.41	86.86	342.8	757.5	2144	1762	32.01	2.886	1.500	1.328	1.208	0.973	0.933	0.792
560.0	122.3	116.3	98.29	93.79	89.00	92.32	122.0	176.0	116.8	121.6	334.7	3517	6495	167.6	67.61	58.18	50.59	45.21	41.92	39.25	38.00	35.48	35.03	34.06	32.24	31.79	31.41	31.38	30.38	30.94	30.13	29.39	26.49	24.43	22.70	21.33	19.51	18.30	16.74	16.10	15.08	13.81	12.73	11.86	11.06	10.13	9.332	8.841	8.043	8.171	8.572	7.024	5.222	4.780	4.562	4.186	4.014	3.711	3.800	3.476	2.824	2.884	3.403	5.737	21.31	78.33	172.4	757.1	2341	1406	26.49	1.957	1.466	1.242	0.958	0.956	0.740
565.0	113.8	98.58	90.96	86.39	78.87	80.75	89.69	152.9	122.1	101.6	150.4	1161	7529	1070	63.74	51.09	45.01	40.21	35.81	33.14	32.27	31.63	29.98	27.42	27.96	27.83	26.45	25.96	26.01	26.01	25.02	23.53	22.48	20.57	19.38	17.93	16.36	15.69	14.70	13.49	12.94	11.60	10.82	10.17	9.431	9.086	8.484	7.668	6.817	6.814	7.140	6.599	5.021	4.461	4.007	3.751	3.564	3.384	3.261	3.446	2.838	2.469	2.601	3.122	6.456	19.44	40.35	174.7	944.2	2309	918.9	18.11	1.803	1.338	1.013	0.873	0.777
570.0	109.5	96.86	79.29	73.82	66.28	62.90	69.64	107.3	136.0	90.84	98.70	333.1	3804	5374	301.7	43.43	38.89	33.16	29.77	28.49	26.18	25.27	24.11	22.72	22.55	22.42	21.43	21.23	21.52	21.59	20.49	19.63	18.58	17.06	16.00	14.51	13.92	13.16	11.71	11.41	10.57	9.451	9.089	8.417	7.953	7.522	6.980	6.481	5.558	5.392	5.491	5.573	4.946	3.983	3.517	3.299	3.109	3.075	2.800	2.805	2.720	2.438	2.270	2.274	3.037	6.096	10.82	40.73	217.5	840.1	1527	878.4	103.7	2.807	1.065	0.972	0.779
575.0	104.4	99.07	80.36	64.03	55.75	49.63	58.57	72.60	128.4	99.57	80.12	129.5	987.9	5887	2079	46.12	31.82	27.34	25.47	23.01	22.04	20.30	19.56	18.92	18.41	17.11	17.50	17.23	17.41	17.53	16.71	15.26	14.57	13.73	12.42	11.72	11.04	10.39	9.736	9.154	8.574	7.735	7.534	7.020	6.575	6.251	6.019	5.472	4.706	4.355	4.003	4.339	4.349	4.000	3.128	2.941	2.765	2.595	2.435	2.391	2.391	2.315	2.215	2.012	2.118	2.749	3.872	10.53	49.90	188.7	406.6	1179	1264	32.88	2.070	1.154	0.747
580.0	99.10	95.92	74.59	60.68	51.95	45.57	52.02	61.32	106.1	112.2	74.51	82.04	272.6	3101	4653	103.1	28.91	24.84	21.80	19.81	18.15	17.54	16.66	16.32	15.12	15.47	14.49	15.22	14.74	14.38	14.59	13.27	12.20	12.13	10.85	10.35	9.541	8.702	8.417	7.909	7.291	6.841	6.322	6.137	5.657	5.202	5.301	4.798	3.991	3.950	3.494	3.350	3.909	3.834	3.134	2.562	2.512	2.372	2.239	2.170	2.022	2.306	2.201	1.997	1.777	1.959	2.059	3.728	12.43	43.61	92.57	383.2	1402	951.5	26.09	1.417	0.974
585.0	98.91	87.73	80.76	55.26	46.72	42.95	44.96	50.20	78.76	122.3	74.19	72.25	110.3	1004	5566	687.7	27.04	21.83	19.75	17.79	16.83	15.71	14.41	13.83	13.45	12.80	12.38	12.71	12.17	12.45	12.43	11.30	10.50	9.971	9.864	9.074	8.228	7.793	7.482	7.031	6.209	5.828	5.453	5.283	4.982	4.575	4.394	3.957	3.632	3.272	3.002	2.844	3.129	3.425	3.169	2.369	2.274	2.110	1.977	1.982	1.869	1.957	2.156	1.969	1.668	1.791	1.684	2.102	3.959	11.01	21.96	87.95	518.2	1357	272.8	18.85	1.082
590.0	100.8	81.64	75.27	50.17	41.61	40.40	41.66	45.46	55.98	107.0	89.83	69.25	70.67	274.3	2839	3363	71.31	19.36	15.98	14.57	13.78	13.25	12.28	11.22	10.78	10.75	10.29	10.73	10.03	10.17	9.841	9.547	8.524	8.262	7.938	7.214	6.887	6.446	6.038	5.737	5.198	4.899	4.657	4.476	4.214	3.899	3.650	3.296	3.234	2.701	2.569	2.489	2.440	2.490	2.814	2.494	1.956	1.899	1.803	1.662	1.642	1.548	1.660	1.842	1.764	1.599	1.473	1.529	1.895	3.647	5.906	20.69	118.6	458.2	789.5	626.3	99.42
595.0	104.4	82.25	73.77	52.14	37.69	34.36	37.55	40.10	47.57	74.85	113.1	70.80	62.53	100.3	728.0	3966	724.1	21.36	13.48	12.95	11.49	10.55	10.03	9.208	9.039	9.229	8.430	8.172	8.388	8.660	8.226	7.453	6.544	6.612	6.137	5.902	5.516	5.147	4.994	4.551	4.233	4.131	3.792	3.772	3.549	3.293	3.091	2.929	2.492	2.416	2.098	2.054	1.925	1.996	2.184	2.319	1.961	1.766	1.552	1.535	1.511	1.347	1.302	1.360	1.756	1.562	1.314	1.208	1.378	1.887	2.283	5.461	27.25	102.9	202.0	673.1	825.1
600.0	102.8	94.24	77.15	51.93	38.98	33.80	36.28	35.56	42.94	59.85	111.7	79.59	59.34	60.44	192.5	2218	2994	62.21	13.07	11.47	9.761	9.033	8.369	8.334	8.184	7.433	6.985	7.072	7.236	7.476	6.636	6.289	5.737	5.616	5.104	5.102	4.793	4.606	4.197	3.938	3.819	3.689	3.286	3.231	2.991	2.642	2.584	2.627	2.295	2.101	1.898	1.834	1.723	1.798	1.735	2.093	1.951	1.740	1.473	1.479	1.334	1.354	1.302	1.166	1.480	1.493	1.230	1.165	1.199	1.311	1.307	2.060	6.968	23.73	46.14	201.8	792.2
605.0	101.2	84.37	63.51	51.54	35.52	31.35	34.99	37.28	42.86	54.89	96.56	97.74	60.90	51.87	71.14	727.0	3944	449.8	12.50	10.37	9.427	8.517	7.737	7.286	7.126	6.376	6.340	6.403	6.559	6.305	5.897	5.454	5.292	5.036	4.599	4.036	4.367	3.960	3.528	3.591	3.423	3.097	2.773	2.687	2.571	2.398	2.310	2.049	1.900	1.836	1.743	1.527	1.612	1.528	1.523	1.697	1.964	1.620	1.416	1.361	1.349	1.165	1.114	1.100	1.140	1.407	1.443	1.188	1.098	1.091	1.296	1.348	2.217	6.092	11.19	46.28	264.7
610.0	101.4	88.39	70.69	50.21	33.70	28.79	34.56	34.94	43.77	51.61	74.21	109.5	68.69	51.47	42.36	188.0	2190	2322	46.66	9.421	8.038	7.351	6.623	6.233	6.003	5.683	5.462	5.432	5.300	5.077	5.075	4.767	4.384	4.335	3.839	3.649	3.581	3.328	2.925	2.977	2.803	2.373	2.334	2.435	2.207	2.212	1.985	1.880	1.763	1.660	1.503	1.464	1.308	1.300	1.304	1.391	1.661	1.591	1.411	1.194	1.066	1.042	1.063	1.037	1.119	1.188	1.368	1.331	1.232	1.137	1.165	1.260	1.238	2.183	3.164	11.09	60.24
615.0	88.41	84.09	71.49	46.38	33.07	30.42	31.23	35.84	41.32	51.65	67.05	99.98	84.46	52.83	37.11	58.96	566.4	2955	545.6	10.41	7.321	6.704	5.622	5.454	5.254	4.870	4.576	4.461	4.300	4.358	4.273	4.247	3.629	3.211	3.300	2.984	3.034	2.668	2.533	2.346	2.227	2.091	1.984	1.906	1.794	1.708	1.729	1.678	1.477	1.356	1.192	1.183	1.156	1.029	1.059	1.022	1.096	1.306	1.261	1.255	1.052	0.931	1.032	0.996	0.990	1.030	1.026	1.193	1.271	1.120	1.087	1.215	1.018	1.220	1.464	3.188	14.19
620.0	94.62	90.37	70.36	45.79	33.94	26.30	28.01	31.93	38.83	50.79	60.24	84.64	96.56	54.62	33.98	30.31	141.6	1767	1967	32.09	7.172	6.042	4.965	4.971	4.622	4.372	4.330	3.946	3.638	3.790	3.577	3.446	3.348	2.994	2.894	2.585	2.682	2.370	2.410	2.046	2.013	1.897	1.652	1.749	1.567	1.519	1.504	1.467	1.417	1.234	1.060	0.977	1.016	1.015	0.891	1.002	0.925	1.111	1.273	1.227	1.171	0.955	0.981	0.845	0.972	0.856	1.066	1.116	1.369	1.190	1.135	1.115	0.997	0.977	1.068	1.443	3.909
625.0	85.48	91.69	68.43	44.66	30.23	26.24	26.21	32.95	39.43	50.68	60.09	73.00	98.33	61.26	34.89	22.66	43.65	604.5	2769	253.3	7.208	5.393	4.666	4.196	4.281	3.581	3.898	3.703	3.274	3.452	3.103	2.909	3.016	2.638	2.412	2.288	2.197	1.974	2.073	1.922	1.928	1.737	1.567	1.519	1.495	1.502	1.330	1.243	1.253	1.086	0.976	0.903	0.827	0.811	0.868	0.884	0.866	0.896	1.108	1.111	1.133	0.949	0.910	0.895	0.921	0.983	1.044	1.209	1.109	1.189	1.199	1.145	0.969	1.042	0.904	1.028	1.509
630.0	85.00	87.14	69.91	47.37	32.56	26.53	27.50	31.80	39.54	50.01	59.22	70.76	85.14	73.13	36.85	21.83	20.13	151.6	1666	1481	29.92	5.430	4.517	3.985	3.632	3.300	3.290	3.081	2.969	2.894	2.600	2.608	2.617	2.302	2.235	2.091	1.946	1.773	1.721	1.789	1.756	1.539	1.357	1.318	1.214	1.210	1.183	1.162	1.004	0.969	0.836	0.809	0.721	0.730	0.759	0.736	0.813	0.753	0.880	1.033	1.033	0.976	0.898	0.813	0.903	0.949	1.030	1.043	1.082	1.099	1.259	1.258	1.110	0.979	1.040	1.123	1.136
635.0	86.39	85.42	72.84	45.54	27.37	24.26	26.58	31.07	36.30	50.66	57.78	70.86	72.64	78.25	42.89	21.75	15.27	41.32	437.2	2118	404.9	6.128	4.263	3.562	3.529	3.107	2.870	2.663	2.623	2.389	2.345	2.375	2.374	2.025	1.909	1.691	1.750	1.661	1.552	1.594	1.519	1.489	1.285	1.298	1.147	1.141	1.026	0.944	0.854	0.887	0.739	0.743	0.661	0.699	0.641	0.645	0.638	0.692	0.747	0.925	0.999	0.879	0.885	0.946	0.893	1.012	0.954	1.010	1.077	1.184	1.288	1.419	1.220	1.098	1.193	1.241	1.170
640.0	85.56	85.66	66.68	46.02	27.59	22.63	26.61	30.96	36.63	50.06	57.67	67.39	66.54	74.44	50.00	24.18	15.17	17.62	107.7	1385	1347	19.14	4.096	3.530	3.449	3.051	2.503	2.535	2.566	2.362	2.301	2.098	2.047	1.774	1.966	1.537	1.600	1.454	1.472	1.188	1.273	1.449	1.164	1.165	1.068	1.000	0.869	0.838	0.867	0.792	0.613	0.832	0.591	0.638	0.583	0.663	0.620	0.666	0.617	0.885	0.891	0.927	0.926	0.964	0.992	1.106	0.971	1.088	1.072	1.274	1.324	1.359	1.311	1.212	1.300	1.252	1.301
645.0	81.51	88.39	72.19	47.96	27.29	23.39	26.46	30.69	38.52	48.36	54.95	65.96	65.75	66.73	55.03	25.81	14.41	12.71	30.83	509.6	2019	65.08	4.660	3.523	3.197	3.025	2.548	2.627	2.427	2.159	1.960	1.948	1.889	1.724	1.644	1.538	1.560	1.408	1.345	1.170	1.147	1.252	1.253	1.036	1.001	0.995	0.844	0.815	0.718	0.735	0.699	0.703	0.516	0.570	0.585	0.637	0.656	0.636	0.621	0.755	0.782	0.897	0.923	0.896	0.892	1.016	0.953	0.990	1.089	1.301	1.140	1.252	1.346	1.461	1.292	1.343	1.325
650.0	109.1	93.63	78.75	50.37	27.95	21.85	25.73	30.15	37.03	47.43	55.26	63.11	62.73	58.82	56.74	27.61	15.40	10.89	13.96	133.6	1720	495.7	6.591	3.501	3.011	2.930	2.373	2.508	2.175	2.240	1.931	1.805	1.740	1.571	1.496	1.460	1.585	1.199	1.311	1.104	1.115	1.058	1.254	1.015	0.944	0.944	0.788	0.793	0.752	0.770	0.626	0.631	0.524	0.556	0.503	0.539	0.539	0.585	0.610	0.631	0.684	0.873	0.916	0.886	0.864	1.077	0.909	0.992	1.032	1.215	1.151	1.216	1.223	1.589	1.343	1.449	1.415
